File: remote_trans/data/nanoindenter/0828-1/data/Data_2025-08-06,11h17m57s/2025-07-22_16-23-58_1_646.txt
2025-07-22, 16:23:58, 1
Index	Phase	Displacement	Time	Pos X	Pos Y	Pos Z	Rot A	Rot B	Piezo Z	Force A	Force B	Gripper	Voltage A	Voltage B	Temperature	Amplitude force	Amplitude pos	Stiffness	Phase shift	Phase excitation	Force A raw	Displacement raw	HMax	HMax raw	Real Force	Real Stiffness	Contact Depth	Area	Hardness	Reduced Mod.
[#]	[#]	[um]	[s]	[um]	[um]	[um]	[m°]	[m°]	[um]	[uN]	[uN]	[V]	[V]	[V]	[°C]	[uN]	[um]	[N/m]	[°]	[°]	[uN]	[um]	[um]	[um]	[uN]	[N/m]	[um]	[um^2]	[MPa]	[MPa]
646	1.000000	0.002683	7.37137e+06	-44789.1	1005.82	-29774.7	0.000000	0.000000	6.002807	-0.025845	NaN	0.000000	0.001655	0.001748	28.0835	0.075285	0.000938	80.2792	76.9281	-162.888	-0.024997	0.001417	-1.161209	-1.162476	-0.025845	80.2792	-1.160968	-3.294900E+15	7.843947E-18	NaN
646	1.000000	0.012722	7.37137e+06	-44789.1	1005.82	-29774.7	0.000000	0.000000	6.012850	0.063426	NaN	0.000000	0.001704	0.001693	28.0834	0.052070	0.001181	44.0797	-161.107	17.3542	-0.093634	0.011238	-1.151170	-1.152654	0.063426	44.0797	-1.152249	-2.517542E+15	-2.519350E-17	NaN
646	1.000000	0.022617	7.37137e+06	-44789.1	1005.82	-29774.7	0.000000	0.000000	6.022742	-0.001029	NaN	0.000000	0.001699	0.001685	28.0834	0.032360	0.001688	19.1678	-162.727	-164.386	0.004393	0.021387	-1.141276	-1.142506	-0.001029	19.1678	-1.141236	-1.791882E+15	5.740316E-19	NaN
646	1.000000	0.032614	7.37137e+06	-44789.1	1005.82	-29774.7	0.000000	0.000000	6.032740	0.015588	NaN	0.000000	0.001715	0.001669	28.0835	0.116357	0.001899	61.2797	-122.467	14.1765	-0.030823	0.031287	-1.131279	-1.132606	0.015588	61.2797	-1.131469	-1.325351E+15	-1.176117E-17	NaN
646	1.000000	0.042637	7.37137e+06	-44789.1	1005.82	-29774.6	0.000000	0.000000	6.042762	-0.003545	NaN	0.000000	0.001693	0.001733	28.0837	0.083721	0.002077	40.3112	-150.338	-165.785	-0.045444	0.041334	-1.121256	-1.122558	-0.003545	40.3112	-1.121190	-9.647941E+14	3.674353E-18	NaN
646	1.000000	0.052628	7.37137e+06	-44789.1	1005.82	-29774.6	0.000000	0.000000	6.052754	0.008398	NaN	0.000000	0.001688	0.001697	28.0834	0.041958	0.001979	21.2032	-162.659	15.5441	-0.057905	0.051308	-1.111264	-1.112584	0.008398	21.2032	-1.111561	-7.165410E+14	-1.172019E-17	NaN
646	1.000000	0.062617	7.37137e+06	-44789.1	1005.82	-29774.6	0.000000	0.000000	6.062744	0.060098	NaN	0.000000	0.001710	0.001711	28.0835	0.030484	0.001996	15.2735	5.071254	-162.442	-0.053910	0.061290	-1.101276	-1.102603	0.060098	15.2735	-1.104227	-5.712298E+14	-1.052085E-16	NaN
646	1.000000	0.072632	7.37137e+06	-44789.1	1005.82	-29774.6	0.000000	0.000000	6.072758	0.024218	NaN	0.000000	0.001672	0.001744	28.0836	0.055087	0.001931	28.5217	157.998	11.3897	0.033942	0.071320	-1.091261	-1.092573	0.024218	28.5217	-1.091897	-3.902003E+14	-6.206542E-17	NaN
646	1.000000	0.082652	7.37137e+06	-44789.1	1005.82	-29774.6	0.000000	0.000000	6.082777	-0.010744	NaN	0.000000	0.001676	0.001714	28.0836	0.136517	0.001979	68.9731	-53.2534	-162.474	-0.078516	0.081321	-1.081241	-1.082572	-0.010744	68.9731	-1.081124	-2.796485E+14	3.842079E-17	NaN
646	1.000000	0.092638	7.37137e+06	-44789.1	1005.82	-29774.6	0.000000	0.000000	6.092761	-0.048132	NaN	0.000000	0.001685	0.001678	28.0833	0.055722	0.001964	28.3675	-144.177	12.8322	0.015248	0.091265	-1.071254	-1.072628	-0.048132	28.3675	-1.069982	-1.981284E+14	2.429316E-16	NaN
646	1.000000	0.102636	7.37137e+06	-44789.1	1005.82	-29774.6	0.000000	0.000000	6.102761	0.012209	NaN	0.000000	0.001687	0.001685	28.0833	0.042653	0.001944	21.9393	-154.418	-164.58	0.040208	0.101360	-1.061257	-1.062533	0.012209	21.9393	-1.061674	-1.532225E+14	-7.968079E-17	NaN
646	1.000000	0.112635	7.37137e+06	-44789.1	1005.82	-29774.6	0.000000	0.000000	6.112761	0.020900	NaN	0.000000	0.001672	0.001709	28.0835	0.031155	0.001986	15.6841	-137.483	11.6822	0.019099	0.111260	-1.051257	-1.052633	0.020900	15.6841	-1.052257	-1.144853E+14	-1.825518E-16	NaN
646	1.000000	0.122633	7.37137e+06	-44789.1	1005.82	-29774.6	0.000000	0.000000	6.122763	0.118249	NaN	0.000000	0.001665	0.001727	28.0824	0.094716	0.002029	46.6847	-47.8086	-167.633	0.124708	0.121321	-1.041260	-1.042571	0.118249	46.6847	-1.043159	-8.638694E+13	-1.368829E-15	NaN
646	1.000000	0.132663	7.37137e+06	-44789.1	1005.82	-29774.6	0.000000	0.000000	6.132789	0.018949	NaN	0.000000	0.001689	0.001703	28.0823	0.017878	0.001994	8.963908	-80.73	13.8186	-0.026119	0.131306	-1.031229	-1.032587	0.018949	8.963908	-1.032815	-6.271061E+13	-3.021610E-16	NaN
646	1.000000	0.142640	7.37137e+06	-44789.1	1005.82	-29774.6	0.000000	0.000000	6.142766	0.015733	NaN	0.000000	0.001686	0.001700	28.0823	0.028042	0.001993	14.068	-37.4291	-167.528	-0.027080	0.141357	-1.021252	-1.022535	0.015733	14.068	-1.022091	-4.498723E+13	-3.497271E-16	NaN
646	1.000000	0.152671	7.37137e+06	-44789.1	1005.82	-29774.6	0.000000	0.000000	6.152797	0.011053	NaN	0.000000	0.001714	0.001711	28.0825	0.062254	0.001955	31.8499	87.9441	13.0996	0.037001	0.151292	-1.011221	-1.012601	0.011053	31.8499	-1.011482	-3.238354E+13	-3.413298E-16	NaN
646	1.000000	0.162656	7.37137e+06	-44789.1	1005.82	-29774.6	0.000000	0.000000	6.162781	0.007760	NaN	0.000000	0.001684	0.001683	28.0824	0.065394	0.002073	31.5519	-136.595	-166.881	-0.036382	0.161366	-1.001237	-1.002526	0.007760	31.5519	-1.001421	-2.370862E+13	-3.273157E-16	NaN
646	1.000000	0.172670	7.37137e+06	-44789.1	1005.82	-29774.6	0.000000	0.000000	6.172795	-0.005277	NaN	0.000000	0.001754	0.001700	28.0825	0.070458	0.001985	35.5021	131.332	11.052	-0.035432	0.171333	-0.991223	-0.992560	-0.005277	35.5021	-0.991111	-1.722184E+13	3.063969E-16	NaN
646	1.000000	0.182687	7.37137e+06	-44789.1	1005.82	-29774.6	0.000000	0.000000	6.182811	-0.032680	NaN	0.000000	0.001715	0.001708	28.0822	0.040176	0.002037	19.7253	96.8799	-167.064	-0.049260	0.181391	-0.981205	-0.982501	-0.032680	19.7253	-0.979963	-1.218737E+13	2.681455E-15	NaN
646	1.000000	0.192672	7.37137e+06	-44789.1	1005.82	-29774.6	0.000000	0.000000	6.192796	-0.038354	NaN	0.000000	0.001696	0.001729	28.0823	0.057341	0.001886	30.4109	-144.047	11.2501	-0.026208	0.191314	-0.971220	-0.972578	-0.038354	30.4109	-0.970274	-9.023205E+12	4.250565E-15	NaN
646	1.000000	0.202704	7.37137e+06	-44789.1	1005.82	-29774.6	0.000000	0.000000	6.202831	0.044934	NaN	0.000000	0.001649	0.001746	28.082	0.053238	0.002127	25.0332	-137.525	-163.842	0.180215	0.201353	-0.961188	-0.962539	0.044934	25.0332	-0.962535	-7.096422E+12	-6.331865E-15	NaN
646	1.000000	0.212672	7.37137e+06	-44789.1	1005.82	-29774.6	0.000000	0.000000	6.212796	-0.013658	NaN	0.000000	0.001651	0.001705	28.0821	0.071188	0.002014	35.3478	58.9457	13.9849	0.046934	0.211370	-0.951221	-0.952522	-0.013658	35.3478	-0.950931	-4.949767E+12	2.759326E-15	NaN
646	1.000000	0.222731	7.37137e+06	-44789.1	1005.82	-29774.6	0.000000	0.000000	6.222855	-0.027490	NaN	0.000000	0.001677	0.001707	28.0824	0.074276	0.002037	36.4718	-3.589852	-162.624	-0.030857	0.221395	-0.941162	-0.942497	-0.027490	36.4718	-0.940596	-3.590743E+12	7.655706E-15	NaN
646	1.000000	0.232690	7.37137e+06	-44789.1	1005.82	-29774.6	0.000000	0.000000	6.232813	-0.050735	NaN	0.000000	0.001676	0.001678	28.0825	0.181016	0.001949	92.8891	71.6321	15.3722	-0.110530	0.231344	-0.931203	-0.932549	-0.050735	92.8891	-0.930793	-2.647880E+12	1.916065E-14	NaN
646	1.000000	0.242707	7.37137e+06	-44789.1	1005.82	-29774.6	0.000000	0.000000	6.242830	-0.049270	NaN	0.000000	0.001658	0.001700	28.0824	0.037345	0.001973	18.9231	145.416	-164.5	0.009403	0.241376	-0.921186	-0.922517	-0.049270	18.9231	-0.919233	-1.848630E+12	2.665231E-14	NaN
646	1.000000	0.252692	7.37137e+06	-44789.1	1005.82	-29774.6	0.000000	0.000000	6.252815	-0.052451	NaN	0.000000	0.001664	0.001669	28.0826	0.067195	0.002029	33.1239	142.861	12.8646	0.014511	0.251345	-0.911200	-0.912548	-0.052451	33.1239	-0.910013	-1.387824E+12	3.779344E-14	NaN
646	1.000000	0.262674	7.37137e+06	-44789.1	1005.82	-29774.6	0.000000	0.000000	6.262798	-0.032018	NaN	0.000000	0.001633	0.001698	28.084	0.065236	0.002064	31.6041	68.3421	-166.616	0.029877	0.261409	-0.901219	-0.902484	-0.032018	31.6041	-0.900459	-1.031014E+12	3.105504E-14	NaN
646	1.000000	0.272695	7.37137e+06	-44789.1	1005.82	-29774.6	0.000000	0.000000	6.272817	-0.076151	NaN	0.000000	0.001649	0.001652	28.0836	0.056167	0.001824	30.7902	111.055	9.342462	-0.012480	0.271354	-0.891198	-0.892539	-0.076151	30.7902	-0.889343	-7.295161E+11	1.043859E-13	NaN
646	1.000000	0.282720	7.37137e+06	-44789.1	1005.82	-29774.6	0.000000	0.000000	6.282845	-0.013597	NaN	0.000000	0.001612	0.001664	28.0838	0.053180	0.002095	25.3849	-94.8136	-170.121	-0.018634	0.281431	-0.881172	-0.882461	-0.013597	25.3849	-0.880771	-5.586393E+11	2.433968E-14	NaN
646	1.000000	0.292705	7.37137e+06	-44789.1	1005.82	-29774.6	0.000000	0.000000	6.292828	-0.065884	NaN	0.000000	0.001630	0.001695	28.0839	0.055794	0.002045	27.2894	6.013771	11.5057	-0.017318	0.291385	-0.871187	-0.872507	-0.065884	27.2894	-0.869377	-3.917511E+11	1.681775E-13	NaN
646	1.000000	0.302721	7.37137e+06	-44789.1	1005.82	-29774.6	0.000000	0.000000	6.302846	-0.015210	NaN	0.000000	0.001633	0.001662	28.0836	0.072563	0.001999	36.2985	-99.9981	-166.19	0.023617	0.301443	-0.861171	-0.862449	-0.015210	36.2985	-0.860857	-3.004153E+11	5.062843E-14	NaN
646	1.000000	0.312712	7.37137e+06	-44789.1	1005.82	-29774.6	0.000000	0.000000	6.312837	0.009575	NaN	0.000000	0.001686	0.001685	28.0835	0.070955	0.001979	35.8627	-37.6954	12.2639	0.025684	0.311361	-0.851181	-0.852532	0.009575	35.8627	-0.851381	-2.235823E+11	-4.282396E-14	NaN
646	1.000000	0.322768	7.37137e+06	-44789.1	1005.82	-29774.6	0.000000	0.000000	6.322892	-0.025197	NaN	0.000000	0.001647	0.001664	28.0836	0.029124	0.002114	13.7789	40.4774	-166.719	0.067448	0.321480	-0.841125	-0.842413	-0.025197	13.7789	-0.839753	-1.555789E+11	1.619543E-13	NaN
646	1.000000	0.332740	7.37137e+06	-44789.1	1005.82	-29774.6	0.000000	0.000000	6.332864	-0.015515	NaN	0.000000	0.001613	0.001644	28.0836	0.082788	0.002178	38.0157	-130.031	14.5507	-0.078860	0.331391	-0.831153	-0.832502	-0.015515	38.0157	-0.830847	-1.178322E+11	1.316665E-13	NaN
646	1.000000	0.342740	7.37137e+06	-44789.1	1005.82	-29774.6	0.000000	0.000000	6.342866	0.032053	NaN	0.000000	0.001635	0.001690	28.0836	0.051153	0.002037	25.1058	145.836	-163.42	0.015538	0.341419	-0.821153	-0.822474	0.032053	25.1058	-0.822111	-8.970823E+10	-3.573032E-13	NaN
646	1.000000	0.352750	7.37137e+06	-44789.1	1005.82	-29774.6	0.000000	0.000000	6.352875	0.012432	NaN	0.000000	0.001649	0.001671	28.0836	0.069949	0.001967	35.5525	54.3852	16.4176	0.029983	0.351405	-0.811143	-0.812488	0.012432	35.5525	-0.811405	-6.421485E+10	-1.935955E-13	NaN
646	1.000000	0.362732	7.37137e+06	-44789.1	1005.82	-29774.6	0.000000	0.000000	6.362858	0.022613	NaN	0.000000	0.001654	0.001672	28.0836	0.070472	0.001916	36.779	126.764	-168.944	-0.010190	0.361503	-0.801160	-0.802389	0.022613	36.779	-0.801621	-4.730109E+10	-4.780569E-13	NaN
646	1.000000	0.372774	7.37137e+06	-44789.1	1005.82	-29774.6	0.000000	0.000000	6.372898	-0.022241	NaN	0.000000	0.001697	0.001659	28.0834	0.076969	0.002039	37.745	-18.4794	14.5641	-0.035365	0.371441	-0.791119	-0.792451	-0.022241	37.745	-0.790677	-3.359498E+10	6.620407E-13	NaN
646	1.000000	0.382755	7.37137e+06	-44789.1	1005.82	-29774.6	0.000000	0.000000	6.382880	-0.008055	NaN	0.000000	0.001642	0.001640	28.0835	0.057328	0.001958	29.2776	-154.657	-167.548	-0.045581	0.381449	-0.781138	-0.782444	-0.008055	29.2776	-0.780932	-2.476793E+10	3.252176E-13	NaN
646	1.000000	0.392782	7.37137e+06	-44789.1	1005.82	-29774.6	0.000000	0.000000	6.392911	0.083643	NaN	0.000000	0.001662	0.001699	28.0835	0.116542	0.002039	57.1515	46.9668	11.0291	-0.012924	0.391411	-0.771110	-0.772481	0.083643	57.1515	-0.772208	-1.885062E+10	-4.437148E-12	NaN
646	1.000000	0.402799	7.37137e+06	-44789.1	1005.82	-29774.6	0.000000	0.000000	6.402924	0.005669	NaN	0.000000	0.001669	0.001664	28.0826	0.055989	0.002049	27.3287	-82.3298	-167.099	-0.040646	0.401422	-0.761094	-0.762471	0.005669	27.3287	-0.761249	-1.337511E+10	-4.238594E-13	NaN
646	1.000000	0.412771	7.37137e+06	-44789.1	1005.82	-29774.6	0.000000	0.000000	6.412895	-0.018756	NaN	0.000000	0.001662	0.001638	28.0822	0.068848	0.002040	33.7539	-103.383	14.3822	0.021453	0.411412	-0.751122	-0.752480	-0.018756	33.7539	-0.750705	-9.612164E+9	1.951250E-12	NaN
646	1.000000	0.422760	7.37137e+06	-44789.1	1005.82	-29774.6	0.000000	0.000000	6.422889	0.081185	NaN	0.000000	0.001643	0.001694	28.0823	0.081433	0.002014	40.434	-133.043	-164.641	0.091353	0.421457	-0.741132	-0.742435	0.081185	40.434	-0.742638	-7.464299E+9	-1.087645E-11	NaN
646	1.000000	0.432791	7.37137e+06	-44789.1	1005.82	-29774.6	0.000000	0.000000	6.432916	0.002793	NaN	0.000000	0.001627	0.001702	28.0823	0.053611	0.001865	28.7488	158.291	10.4389	0.010365	0.431458	-0.731102	-0.732435	0.002793	28.7488	-0.731175	-5.209783E+9	-5.361440E-13	NaN
646	1.000000	0.442805	7.37137e+06	-44789.1	1005.82	-29774.6	0.000000	0.000000	6.442931	0.026732	NaN	0.000000	0.001672	0.001709	28.0824	0.144382	0.002012	71.7763	2.349304	-165.528	0.099047	0.441467	-0.721088	-0.722426	0.026732	71.7763	-0.721367	-3.829322E+9	-6.980816E-12	NaN
646	1.000000	0.452782	7.37137e+06	-44789.1	1005.82	-29774.6	0.000000	0.000000	6.452909	0.052249	NaN	0.000000	0.001670	0.001719	28.0822	0.036469	0.001966	18.5494	-76.3999	12.6771	-0.157538	0.451458	-0.711111	-0.712435	0.052249	18.5494	-0.713224	-2.965075E+9	-1.762148E-11	NaN
646	1.000000	0.462795	7.37137e+06	-44789.1	1005.82	-29774.6	0.000000	0.000000	6.462919	-0.013656	NaN	0.000000	0.001664	0.001685	28.0821	0.006400	0.001943	3.294016	104.329	-164.014	-0.030861	0.461499	-0.701098	-0.702394	-0.013656	3.294016	-0.697988	-1.836788E+9	7.434991E-12	NaN
646	1.000000	0.472796	7.37137e+06	-44789.1	1005.82	-29774.6	0.000000	0.000000	6.472921	-0.008272	NaN	0.000000	0.001645	0.001658	28.0828	0.044333	0.002006	22.1054	24.5276	15.6533	-0.048074	0.471396	-0.691096	-0.692497	-0.008272	22.1054	-0.690816	-1.465772E+9	5.643227E-12	NaN
646	1.000000	0.482814	7.37137e+06	-44789.1	1005.82	-29774.6	0.000000	0.000000	6.482939	-0.004816	NaN	0.000000	0.001704	0.001670	28.0823	0.121699	0.001954	62.272	-43.9033	-166.126	-0.013436	0.481490	-0.681079	-0.682403	-0.004816	62.272	-0.681021	-1.076883E+9	4.471953E-12	NaN
646	1.000000	0.492808	7.37137e+06	-44789.1	1005.82	-29774.6	0.000000	0.000000	6.492935	0.054564	NaN	0.000000	0.001672	0.001676	28.0821	0.029360	0.002037	14.4151	-4.984803	14.4941	-0.003380	0.491427	-0.671085	-0.672465	0.054564	14.4151	-0.673924	-8.611599E+8	-6.336076E-11	NaN
646	1.000000	0.502769	7.37137e+06	-44789.1	1005.82	-29774.6	0.000000	0.000000	6.502892	-0.047093	NaN	0.000000	0.001684	0.001706	28.0821	0.059881	0.002050	29.2038	-58.7191	-165.996	0.033077	0.501528	-0.661124	-0.662365	-0.047093	29.2038	-0.659914	-5.537251E+8	8.504791E-11	NaN
646	1.000000	0.512820	7.37137e+06	-44789.1	1005.82	-29774.6	0.000000	0.000000	6.512945	0.005896	NaN	0.000000	0.001652	0.001704	28.0825	0.093637	0.002124	44.0854	-155.796	16.6806	0.048757	0.511454	-0.651073	-0.652438	0.005896	44.0854	-0.651173	-4.202571E+8	-1.403002E-11	NaN
646	1.000000	0.522834	7.37137e+06	-44789.1	1005.82	-29774.6	0.000000	0.000000	6.522959	-0.008954	NaN	0.000000	0.001702	0.001703	28.0821	0.069846	0.002019	34.5959	162.696	-166.301	-0.036846	0.521496	-0.641059	-0.642397	-0.008954	34.5959	-0.640865	-3.034960E+8	2.950281E-11	NaN
646	1.000000	0.532822	7.37137e+06	-44789.1	1005.82	-29774.6	0.000000	0.000000	6.532946	-0.027929	NaN	0.000000	0.001661	0.001688	28.0834	0.079643	0.001904	41.8189	77.4471	13.561	-0.018803	0.531466	-0.631070	-0.632427	-0.027929	41.8189	-0.630569	-2.192009E+8	1.274122E-10	NaN
646	1.000000	0.542839	7.37137e+06	-44789.1	1005.82	-29774.6	0.000000	0.000000	6.542962	-0.062671	NaN	0.000000	0.001612	0.001683	28.0833	0.036846	0.001842	20.0013	-101.41	-167.689	-0.110470	0.541546	-0.621054	-0.622347	-0.062671	20.0013	-0.618704	-1.505958E+8	4.161539E-10	NaN
646	1.000000	0.552850	7.37137e+06	-44789.1	1005.82	-29774.6	0.000000	0.000000	6.552974	-0.022462	NaN	0.000000	0.001644	0.001679	28.0836	0.038678	0.001885	20.5189	-119.202	11.5889	0.004440	0.551435	-0.611043	-0.612457	-0.022462	20.5189	-0.610222	-1.151249E+8	1.951076E-10	NaN
646	1.000000	0.562845	7.37137e+06	-44789.1	1005.82	-29774.6	0.000000	0.000000	6.562971	0.024060	NaN	0.000000	0.001700	0.001740	28.0833	0.051952	0.001985	26.1663	-69.6185	-166.344	0.073392	0.561535	-0.601048	-0.602358	0.024060	26.1663	-0.601737	-8.798053E+7	-2.734681E-10	NaN
646	1.000000	0.572839	7.37137e+06	-44789.1	1005.82	-29774.6	0.000000	0.000000	6.572964	0.011915	NaN	0.000000	0.001687	0.001702	28.0832	0.092187	0.001978	46.6068	-75.4112	11.1062	-0.025717	0.571479	-0.591054	-0.592413	0.011915	46.6068	-0.591246	-6.307212E+7	-1.889158E-10	NaN
646	1.000000	0.582835	7.37137e+06	-44789.1	1005.82	-29774.6	0.000000	0.000000	6.582962	0.031171	NaN	0.000000	0.001662	0.001710	28.0836	0.031834	0.001937	16.4312	-99.8842	-170.899	0.128146	0.581518	-0.581058	-0.582374	0.031171	16.4312	-0.582480	-4.774791E+7	-6.528232E-10	NaN
646	1.000000	0.592863	7.37137e+06	-44789.1	1005.82	-29774.6	0.000000	0.000000	6.592988	-0.020482	NaN	0.000000	0.001695	0.001679	28.0835	0.112118	0.001979	56.6448	-69.6499	14.5846	-0.006288	0.591532	-0.571029	-0.572361	-0.020482	56.6448	-0.570758	-3.289338E+7	6.226936E-10	NaN
646	1.000000	0.602841	7.37137e+06	-44789.1	1005.82	-29774.6	0.000000	0.000000	6.602965	-0.015901	NaN	0.000000	0.001691	0.001662	28.0833	0.014216	0.002037	6.980081	168.16	-166.758	0.067237	0.601514	-0.561052	-0.562379	-0.015901	6.980081	-0.559343	-2.287133E+7	6.952200E-10	NaN
646	1.000000	0.612881	7.37137e+06	-44789.1	1005.82	-29774.6	0.000000	0.000000	6.613002	-0.081115	NaN	0.000000	0.001704	0.001684	28.0837	0.037697	0.001987	18.9692	101.545	15.2469	-0.064160	0.611511	-0.551012	-0.552381	-0.081115	18.9692	-0.547805	-1.583243E+7	5.123362E-9	NaN
646	1.000000	0.622863	7.37137e+06	-44789.1	1005.82	-29774.6	0.000000	0.000000	6.622985	-0.077373	NaN	0.000000	0.001667	0.001701	28.0833	0.091870	0.002042	44.9997	3.253492	-171.766	-0.083280	0.621559	-0.541029	-0.542334	-0.077373	44.9997	-0.539740	-1.223907E+7	6.321830E-9	NaN
646	1.000000	0.632855	7.37137e+06	-44789.1	1005.82	-29774.6	0.000000	0.000000	6.632980	0.006476	NaN	0.000000	0.001681	0.001705	28.084	0.019912	0.001941	10.2566	-91.7085	11.3966	-0.063332	0.631553	-0.531038	-0.532340	0.006476	10.2566	-0.531512	-9.4095e+06	-6.882333E-10	NaN
646	1.000000	0.642860	7.37137e+06	-44789.1	1005.82	-29774.6	0.000000	0.000000	6.642984	-0.021777	NaN	0.000000	0.001703	0.001704	28.0832	0.088975	0.002019	44.0775	89.9929	-167.445	-0.032509	0.641586	-0.521033	-0.522307	-0.021777	44.0775	-0.520662	-6.64984e+06	3.274802E-9	NaN
646	1.000000	0.652901	7.37137e+06	-44789.1	1005.82	-29774.6	0.000000	0.000000	6.653027	0.026072	NaN	0.000000	0.001689	0.001743	28.0835	0.048386	0.002050	23.6026	-147.644	14.5519	0.061615	0.651536	-0.510992	-0.512357	0.026072	23.6026	-0.511820	-5.00914e+06	-5.204922E-9	NaN
646	1.000000	0.662908	7.37137e+06	-44789.1	1005.82	-29774.6	0.000000	0.000000	6.663033	-0.002513	NaN	0.000000	0.001681	0.001678	28.0835	0.082923	0.002040	40.6529	168.705	-162.65	0.048665	0.661580	-0.500985	-0.502313	-0.002513	40.6529	-0.500938	-3.5327e+06	7.112199E-10	NaN
646	1.000000	0.672900	7.37137e+06	-44789.1	1005.82	-29774.6	0.000000	0.000000	6.673025	0.005091	NaN	0.000000	0.001693	0.001678	28.0825	0.087214	0.002030	42.9693	-15.2022	10.0785	-0.011292	0.671491	-0.490993	-0.492402	0.005091	42.9693	-0.491082	-2.57339e+06	-1.978458E-9	NaN
646	1.000000	0.682888	7.37137e+06	-44789.1	1005.82	-29774.6	0.000000	0.000000	6.683011	-0.038174	NaN	0.000000	0.001692	0.001648	28.0822	0.014221	0.002079	6.841230	-151.604	-167.85	-0.011753	0.681569	-0.481005	-0.482324	-0.038174	6.841230	-0.476820	-1.62555e+06	2.348376E-8	NaN
646	1.000000	0.692903	7.37137e+06	-44789.1	1005.82	-29774.6	0.000000	0.000000	6.693029	0.010758	NaN	0.000000	0.001689	0.001661	28.0822	0.038835	0.001934	20.0796	-117.071	14.9913	0.031618	0.691526	-0.470989	-0.472367	0.010758	20.0796	-0.471391	-1.36432e+06	-7.885571E-9	NaN
646	1.000000	0.702913	7.37137e+06	-44789.1	1005.82	-29774.6	0.000000	0.000000	6.703036	-0.062009	NaN	0.000000	0.001660	0.001676	28.0821	0.041876	0.002030	20.6294	-114.405	-169.114	-0.031894	0.701574	-0.460980	-0.462319	-0.062009	20.6294	-0.458725	-905948	6.844663E-8	NaN
646	1.000000	0.712915	7.37137e+06	-44789.1	1005.82	-29774.6	0.000000	0.000000	6.713040	0.008950	NaN	0.000000	0.001640	0.001665	28.082	0.029122	0.002074	14.0429	-42.6113	12.0926	0.019795	0.711556	-0.450978	-0.452337	0.008950	14.0429	-0.451456	-715884	-1.250146E-8	NaN
646	1.000000	0.722904	7.37137e+06	-44789.1	1005.82	-29774.6	0.000000	0.000000	6.723030	0.031461	NaN	0.000000	0.001656	0.001695	28.0821	0.059841	0.002106	28.4157	130.136	-165.138	-0.031256	0.721585	-0.440989	-0.442308	0.031461	28.4157	-0.441819	-523640	-6.008061E-8	NaN
646	1.000000	0.732909	7.37137e+06	-44789.1	1005.82	-29774.6	0.000000	0.000000	6.733033	-0.030011	NaN	0.000000	0.001681	0.001668	28.0821	0.120659	0.001995	60.4803	-19.5315	12.4898	-0.048546	0.731524	-0.430984	-0.432369	-0.030011	60.4803	-0.430612	-363675	8.252046E-8	NaN
646	1.000000	0.742924	7.37137e+06	-44789.1	1005.82	-29774.6	0.000000	0.000000	6.743053	0.085272	NaN	0.000000	0.001606	0.001680	28.0818	0.128102	0.002052	62.4341	55.9708	-166.427	0.065576	0.741618	-0.420969	-0.422275	0.085272	62.4341	-0.421993	-274584	-3.105513E-7	NaN
646	1.000000	0.752946	7.37137e+06	-44789.1	1005.82	-29774.6	0.000000	0.000000	6.753071	0.008285	NaN	0.000000	0.001559	0.001683	28.082	0.035162	0.001975	17.8028	-179.978	13.8211	0.004860	0.751554	-0.410947	-0.412339	0.008285	17.8028	-0.411296	-193564	-4.280166E-8	NaN
646	1.000000	0.762901	7.37137e+06	-44789.1	1005.82	-29774.6	0.000000	0.000000	6.763029	0.066933	NaN	0.000000	0.001581	0.001660	28.0823	0.143967	0.001994	72.2103	73.7556	-165.951	0.040114	0.761588	-0.400992	-0.402304	0.066933	72.2103	-0.401687	-141268	-4.738003E-7	NaN
646	1.000000	0.772909	7.37137e+06	-44789.1	1005.82	-29774.6	0.000000	0.000000	6.773036	0.037096	NaN	0.000000	0.001587	0.001648	28.082	0.055970	0.001965	28.4832	-165.296	16.3077	0.075435	0.771558	-0.390984	-0.392335	0.037096	28.4832	-0.391960	-102612	-3.615188E-7	NaN
646	1.000000	0.782932	7.37137e+06	-44789.1	1005.82	-29774.6	0.000000	0.000000	6.783058	0.036524	NaN	0.000000	0.001568	0.001649	28.0821	0.113008	0.002071	54.5616	7.456826	-164.35	0.078228	0.781694	-0.380961	-0.382199	0.036524	54.5616	-0.381463	-72591	-5.031527E-7	NaN
646	1.000000	0.792968	7.37137e+06	-44789.1	1005.82	-29774.6	0.000000	0.000000	6.793091	-0.037191	NaN	0.000000	0.001579	0.001615	28.0822	0.086493	0.001890	45.7604	-79.1105	13.3927	-0.033631	0.791621	-0.370925	-0.372272	-0.037191	45.7604	-0.370315	-50196.1	7.409139E-7	NaN
646	1.000000	0.802924	7.37137e+06	-44789.1	1005.82	-29774.6	0.000000	0.000000	6.803051	0.056081	NaN	0.000000	0.001571	0.001657	28.0825	0.065348	0.002059	31.7305	-55.6411	-166.783	-0.005631	0.801640	-0.360969	-0.362253	0.056081	31.7305	-0.362295	-38459.2	-1.458206E-6	NaN
646	1.000000	0.812957	7.37137e+06	-44789.1	1005.82	-29774.6	0.000000	0.000000	6.813081	-0.039726	NaN	0.000000	0.001608	0.001654	28.0834	0.043356	0.002124	20.4141	14.8211	15.0823	-0.087138	0.811548	-0.350936	-0.352345	-0.039726	20.4141	-0.349476	-25084.1	1.583711E-6	NaN
646	1.000000	0.822960	7.37137e+06	-44789.1	1005.82	-29774.6	0.000000	0.000000	6.823083	-0.035138	NaN	0.000000	0.001598	0.001677	28.0834	0.029219	0.002015	14.4985	119.206	-167.078	-0.020055	0.821657	-0.340933	-0.342235	-0.035138	14.4985	-0.339115	-17727.8	1.982069E-6	NaN
646	1.000000	0.832948	7.37137e+06	-44789.1	1005.82	-29774.6	0.000000	0.000000	6.833073	0.013279	NaN	0.000000	0.001633	0.001649	28.0833	0.036222	0.001866	19.4119	-82.902	11.7646	0.034548	0.831561	-0.330945	-0.332332	0.013279	19.4119	-0.331458	-13702.4	-9.690842E-7	NaN
646	1.000000	0.842951	7.37137e+06	-44789.1	1005.82	-29774.6	0.000000	0.000000	6.843077	0.014347	NaN	0.000000	0.001638	0.001678	28.0835	0.041113	0.002076	19.8045	-112.938	-164.374	0.009588	0.841624	-0.320942	-0.322268	0.014347	19.8045	-0.321485	-9783.33	-1.466490E-6	NaN
646	1.000000	0.852953	7.37137e+06	-44789.1	1005.82	-29774.6	0.000000	0.000000	6.853076	-0.047142	NaN	0.000000	0.001678	0.001644	28.0833	0.094292	0.001870	50.4264	-61.2167	15.7916	0.042726	0.851592	-0.310940	-0.312301	-0.047142	50.4264	-0.310238	-6677.03	7.060329E-6	NaN
646	1.000000	0.862967	7.37137e+06	-44789.1	1005.82	-29774.6	0.000000	0.000000	6.863091	-0.026746	NaN	0.000000	0.001682	0.001671	28.0835	0.038757	0.002063	18.7876	59.8816	-167.689	0.028466	0.861634	-0.300926	-0.302258	-0.026746	18.7876	-0.299859	-4683.06	5.711135E-6	NaN
646	1.000000	0.872971	7.37137e+06	-44789.1	1005.82	-29774.6	0.000000	0.000000	6.873095	-0.017369	NaN	0.000000	0.001619	0.001679	28.0832	0.043680	0.001848	23.6345	-4.111310	9.355302	0.033645	0.871615	-0.290922	-0.292278	-0.017369	23.6345	-0.290371	-3379.53	5.139326E-6	NaN
646	1.000000	0.882965	7.37137e+06	-44789.1	1005.82	-29774.6	0.000000	0.000000	6.883090	-0.008666	NaN	0.000000	0.001666	0.001674	28.0835	0.033800	0.002112	16.0009	-98.7707	-166.35	0.069775	0.881665	-0.280927	-0.282228	-0.008666	16.0009	-0.280521	-2403.43	3.605865E-6	NaN
646	1.000000	0.892964	7.37137e+06	-44789.1	1005.82	-29774.6	0.000000	0.000000	6.893089	0.004785	NaN	0.000000	0.001666	0.001627	28.0832	0.033581	0.002035	16.5039	-179.577	12.9193	0.010364	0.891596	-0.270929	-0.272296	0.004785	16.5039	-0.271146	-1733.64	-2.760350E-6	NaN
646	1.000000	0.902976	7.37137e+06	-44789.1	1005.82	-29774.6	0.000000	0.000000	6.903100	-0.021073	NaN	0.000000	0.001663	0.001658	28.0836	0.053911	0.002114	25.5005	135.345	-169.576	0.033661	0.901708	-0.260917	-0.262185	-0.021073	25.5005	-0.260297	-1184.32	1.779298E-5	NaN
646	1.000000	0.912986	7.37137e+06	-44789.1	1005.82	-29774.6	0.000000	0.000000	6.913109	-0.047202	NaN	0.000000	0.001682	0.001621	28.0834	0.072981	0.001856	39.325	-21.6782	11.8905	-0.024613	0.911620	-0.250906	-0.252273	-0.047202	39.325	-0.250006	-822.361	5.739855E-5	NaN
646	1.000000	0.922977	7.37137e+06	-44789.1	1005.82	-29774.6	0.000000	0.000000	6.923102	-0.010850	NaN	0.000000	0.001680	0.001612	28.0835	0.059090	0.001987	29.7423	-124.155	-165.386	0.038632	0.921699	-0.240916	-0.242193	-0.010850	29.7423	-0.240642	-588.276	1.844439E-5	NaN
646	1.000000	0.932976	7.37137e+06	-44789.1	1005.82	-29774.6	0.000000	0.000000	6.933101	-0.015937	NaN	0.000000	0.001680	0.001608	28.0834	0.043166	0.002055	21.0087	145.402	13.7591	-0.048153	0.931666	-0.230917	-0.232227	-0.015937	21.0087	-0.230348	-405.512	3.930200E-5	NaN
646	1.000000	0.942992	7.37137e+06	-44789.1	1005.82	-29774.6	0.000000	0.000000	6.943116	-0.022453	NaN	0.000000	0.001640	0.001676	28.0826	0.064678	0.002048	31.5829	-139.219	-164.149	-0.045684	0.941665	-0.220900	-0.222227	-0.022453	31.5829	-0.220367	-281.542	7.975160E-5	NaN
646	1.000000	0.952984	7.37137e+06	-44789.1	1005.82	-29774.6	0.000000	0.000000	6.953109	0.003267	NaN	0.000000	0.001658	0.001678	28.0821	0.035726	0.002092	17.0741	134.735	12.9647	-0.029132	0.951606	-0.210909	-0.212287	0.003267	17.0741	-0.211053	-199.458	-1.638036E-5	NaN
646	1.000000	0.963028	7.37137e+06	-44789.1	1005.82	-29774.6	0.000000	0.000000	6.963153	-0.001725	NaN	0.000000	0.001619	0.001686	28.0823	0.097238	0.002059	47.2274	75.3125	-165.542	-0.011388	0.961738	-0.200865	-0.202154	-0.001725	47.2274	-0.200837	-135.972	1.268911E-5	NaN
646	1.000000	0.972989	7.37137e+06	-44789.1	1005.82	-29774.6	0.000000	0.000000	6.973114	0.020378	NaN	0.000000	0.001618	0.001630	28.0822	0.059747	0.001898	31.4706	-83.1193	12.2858	0.021863	0.971684	-0.190904	-0.192209	0.020378	31.4706	-0.191390	-94.8896	-0.000215	NaN
646	1.000000	0.983016	7.37137e+06	-44789.1	1005.82	-29774.6	0.000000	0.000000	6.983136	-0.119570	NaN	0.000000	0.001642	0.001629	28.0824	0.052607	0.002048	25.6814	157.534	-168.109	-0.076355	0.981741	-0.180877	-0.182152	-0.119570	25.6814	-0.177385	-55.0629	0.002172	NaN
646	1.000000	0.993037	7.37137e+06	-44789.1	1005.82	-29774.6	0.000000	0.000000	6.993163	0.024228	NaN	0.000000	0.001617	0.001607	28.0819	0.123079	0.002024	60.8105	120.887	17.9229	0.004788	0.991619	-0.170856	-0.172274	0.024228	60.8105	-0.171155	-43.0174	-0.000563	NaN
646	1.000000	1.003023	7.37137e+06	-44789.1	1005.82	-29774.6	0.000000	0.000000	7.003150	0.045266	NaN	0.000000	0.001621	0.001620	28.0824	0.019216	0.001986	9.673384	-175.114	-164.318	0.051740	1.001760	-0.160870	-0.162133	0.045266	9.673384	-0.164380	-32.7644	-0.001382	NaN
646	1.000000	1.013016	7.37137e+06	-44789.1	1005.82	-29774.6	0.000000	0.000000	7.013141	-0.017393	NaN	0.000000	0.001652	0.001607	28.0823	0.047416	0.001982	23.9278	55.8397	11.523	0.021494	1.011687	-0.150876	-0.152206	-0.017393	23.9278	-0.150331	-18.3672	0.000947	NaN
646	1.000000	1.023028	7.37137e+06	-44789.1	1005.82	-29774.6	0.000000	0.000000	7.023153	-0.000757	NaN	0.000000	0.001646	0.001580	28.0821	0.181942	0.002130	85.4348	68.7264	-167.402	-0.070525	1.021657	-0.140864	-0.142236	-0.000757	85.4348	-0.140858	-12.276	6.163803E-5	NaN
646	1.000000	1.033004	7.37137e+06	-44789.1	1005.82	-29774.6	0.000000	0.000000	7.033127	-0.053862	NaN	0.000000	0.001679	0.001583	28.0823	0.053019	0.002047	25.9072	-114.65	11.9981	-0.058474	1.031652	-0.130889	-0.132241	-0.053862	25.9072	-0.129329	-7.395529	0.007283	NaN
646	1.000000	1.043039	7.37137e+06	-44789.1	1005.82	-29774.6	0.000000	0.000000	7.043163	-0.024830	NaN	0.000000	0.001617	0.001573	28.0823	0.083717	0.001991	42.0584	172.577	-168.921	-0.050680	1.041755	-0.120854	-0.122137	-0.024830	42.0584	-0.120411	-4.924538	0.005042	NaN
646	1.000000	1.053040	7.37137e+06	-44789.1	1005.82	-29774.6	0.000000	0.000000	7.053164	-0.049059	NaN	0.000000	0.001652	0.001613	28.0825	0.050894	0.001996	25.5032	177.637	13.9844	-0.042164	1.051706	-0.110852	-0.112187	-0.049059	25.5032	-0.109410	-2.920156	0.016800	NaN
646	1.000000	1.063047	7.37137e+06	-44789.1	1005.82	-29774.6	0.000000	0.000000	7.063169	-0.075548	NaN	0.000000	0.001635	0.001617	28.0822	0.126315	0.001904	66.3562	-71.7206	-166.366	-0.006891	1.061724	-0.100846	-0.102169	-0.075548	66.3562	-0.099992	-1.826395	0.041364	NaN
646	1.000000	1.073065	7.37137e+06	-44789.1	1005.82	-29774.6	0.000000	0.000000	7.073188	-0.031582	NaN	0.000000	0.001612	0.001601	28.0821	0.073558	0.001981	37.1313	-165.58	14.4694	0.021258	1.071672	-0.090828	-0.092220	-0.031582	37.1313	-0.090190	-1.092138	0.028918	NaN
646	1.000000	1.083065	7.37137e+06	-44789.1	1005.82	-29774.6	0.000000	0.000000	7.083191	0.008416	NaN	0.000000	0.001624	0.001585	28.0834	0.008263	0.002092	3.949830	99.6562	-166.238	0.073074	1.081719	-0.080828	-0.082174	0.008416	3.949830	-0.082426	-0.710975	-0.011837	NaN
646	1.000000	1.093046	7.37137e+06	-44789.1	1005.82	-29774.6	0.000000	0.000000	7.093172	0.005618	NaN	0.000000	0.001599	0.001637	28.0836	0.148521	0.001911	77.7202	-62.4387	13.5255	0.041403	1.091719	-0.070846	-0.072174	0.005618	77.7202	-0.070901	-0.360531	-0.015583	NaN
646	1.000000	1.103058	7.37137e+06	-44789.1	1005.82	-29774.6	0.000000	0.000000	7.103183	-0.007766	NaN	0.000000	0.001606	0.001632	28.0834	0.071680	0.001937	37.0137	93.1666	-165.618	-0.056531	1.101729	-0.060835	-0.062163	-0.007766	37.0137	-0.060677	-0.188315	0.041242	NaN
646	1.000000	1.113054	7.37137e+06	-44789.1	1005.82	-29774.6	0.000000	0.000000	7.113179	0.011252	NaN	0.000000	0.001621	0.001602	28.0834	0.099651	0.001867	53.3772	15.9969	13.3805	0.014429	1.111679	-0.050839	-0.052214	0.011252	53.3772	-0.050997	-0.097798	-0.115057	NaN
646	1.000000	1.123086	7.37137e+06	-44789.1	1005.82	-29774.6	0.000000	0.000000	7.123212	0.009134	NaN	0.000000	0.001639	0.001595	28.0834	0.072100	0.002098	34.3608	-68.3381	-166.5	-0.043569	1.121765	-0.040806	-0.042128	0.009134	34.3608	-0.041006	-0.048522	-0.188242	NaN
646	1.000000	1.133063	7.37137e+06	-44789.1	1005.82	-29774.6	0.000000	0.000000	7.133188	-0.009681	NaN	0.000000	0.001579	0.001612	28.0835	0.160879	0.001986	81.0047	-81.9992	17.2399	-0.030813	1.131644	-0.030830	-0.032248	-0.009681	81.0047	-0.030740	-0.024137	0.401091	NaN
646	1.000000	1.143059	7.37137e+06	-44789.1	1005.82	-29774.6	0.000000	0.000000	7.143183	-0.020517	NaN	0.000000	0.001615	0.001608	28.0834	0.035769	0.001908	18.7448	-124.385	-169.837	0.007539	1.141765	-0.020834	-0.022128	-0.020517	18.7448	-0.020013	-0.012570	1.632146	NaN
646	1.000000	1.153065	7.37137e+06	-44789.1	1005.82	-29774.6	0.000000	0.000000	7.153187	-0.074034	NaN	0.000000	0.001660	0.001600	28.0836	0.007886	0.001972	3.999434	175.093	12.5366	-0.022182	1.151695	-0.010828	-0.012197	-0.074034	3.999434	0.003056	0.002427	-30.5081	74.176
646	1.000000	1.163078	7.37137e+06	-44789.1	1005.82	-29774.6	0.000000	0.000000	7.163315	2.712094	NaN	0.000000	0.001630	0.001602	28.0837	3.472969	0.001815	1913.28	7.956179	-168.811	1.614260	1.161755	-0.000815	-0.002138	2.712094	1913.28	-0.001878	-0.001355	-2002.28	NaN
646	2.000000	1.170121	7.37137e+06	-44789.1	1005.82	-29774.6	0.000000	0.000000	7.170667	10.2437	NaN	0.000000	0.001606	0.001607	28.0837	10.2813	0.001771	5806.19	4.642170	9.754887	9.545465	1.169738	0.006228	0.005845	10.2437	5806.19	0.004905	0.004047	2531.37	83390.1
646	2.000000	1.172563	7.37137e+06	-44789.1	1005.82	-29774.6	0.000000	0.000000	7.173256	13.8142	NaN	0.000000	0.001616	0.001592	28.0834	12.4866	0.001755	7116.9	4.439459	-172.011	13.6933	1.172245	0.008670	0.008352	13.8142	7116.9	0.007214	0.006247	2211.5	82270.8
646	2.000000	1.175022	7.37137e+06	-44789.1	1005.82	-29774.6	0.000000	0.000000	7.175945	19.4008	NaN	0.000000	0.001647	0.001580	28.0834	16.242	0.001790	9074.96	7.697150	2.050465	18.1717	1.174635	0.011130	0.010743	19.4008	9074.96	0.009526	0.008660	2240.35	89097.6
646	2.000000	1.177514	7.37137e+06	-44789.1	1005.82	-29774.6	0.000000	0.000000	7.178499	20.926	NaN	0.000000	0.001604	0.001588	28.0837	18.3323	0.001661	11036.5	3.886891	-176.707	20.1959	1.177269	0.013621	0.013376	20.926	11036.5	0.012199	0.011730	1784.02	93102.3
646	2.000000	1.179996	7.37137e+06	-44789.1	1005.82	-29774.6	0.000000	0.000000	7.181306	28.8176	NaN	0.000000	0.001595	0.001606	28.0842	20.4272	0.001692	12074.9	6.854505	0.772439	28.2928	1.179640	0.016103	0.015748	28.8176	12074.9	0.014313	0.014380	2003.94	91996
646	2.000000	1.182457	7.37137e+06	-44789.1	1005.82	-29774.6	0.000000	0.000000	7.183948	33.2298	NaN	0.000000	0.001594	0.001590	28.0823	23.0929	0.001752	13177.1	8.812063	178.126	31.8509	1.182143	0.018565	0.018250	33.2298	13177.1	0.016673	0.017582	1890.01	90795.1
646	2.000000	1.184958	7.37137e+06	-44789.1	1005.82	-29774.6	0.000000	0.000000	7.186596	36.7954	NaN	0.000000	0.001579	0.001601	28.0827	26.1689	0.001872	13978.9	8.237066	-1.061522	35.7456	1.184634	0.021066	0.020741	36.7954	13978.9	0.019091	0.021135	1741.01	87851.8
646	2.000000	1.187460	7.37137e+06	-44789.1	1005.82	-29774.6	0.000000	0.000000	7.189431	44.9155	NaN	0.000000	0.001576	0.001651	28.0824	28.2393	0.001728	16341	4.875891	179.157	43.3449	1.187202	0.023567	0.023309	44.9155	16341	0.021505	0.024963	1799.26	94493.2
646	2.000000	1.190018	7.37137e+06	-44789.1	1005.82	-29774.6	0.000000	0.000000	7.192267	51.6876	NaN	0.000000	0.001601	0.001600	28.0827	29.3155	0.001810	16199.1	3.664903	2.472013	50.7276	1.189616	0.026125	0.025723	51.6876	16199.1	0.023732	0.028749	1797.91	87288.2
646	2.000000	1.192464	7.37137e+06	-44789.1	1005.82	-29774.6	0.000000	0.000000	7.195004	58.744	NaN	0.000000	0.001608	0.001592	28.0824	32.2165	0.001814	17762.7	3.103363	-178.337	58.8888	1.192115	0.028571	0.028222	58.744	17762.7	0.026091	0.033030	1778.51	89295.3
646	2.000000	1.194981	7.37137e+06	-44789.1	1005.82	-29774.6	0.000000	0.000000	7.197799	65.5177	NaN	0.000000	0.001590	0.001616	28.0826	34.3103	0.001931	17765.2	5.010871	0.067833	66.297	1.194552	0.031088	0.030660	65.5177	17765.2	0.028322	0.037338	1754.74	83998.4
646	2.000000	1.197498	7.37137e+06	-44789.1	1005.82	-29774.6	0.000000	0.000000	7.200711	75.125	NaN	0.000000	0.001626	0.001603	28.0824	36.6482	0.001759	20839.3	4.426367	178.611	76.2609	1.197117	0.033605	0.033225	75.125	20839.3	0.030902	0.042633	1762.12	92210.9
646	2.000000	1.199960	7.37137e+06	-44789.1	1005.82	-29774.6	0.000000	0.000000	7.203526	83.7299	NaN	0.000000	0.001609	0.001632	28.0831	38.612	0.001829	21105.8	5.643847	-2.011160	81.703	1.199560	0.036067	0.035667	83.7299	21105.8	0.033092	0.047395	1766.62	88573.9
646	2.000000	1.202468	7.37138e+06	-44789.1	1005.82	-29774.6	0.000000	0.000000	7.206462	94.115	NaN	0.000000	0.001626	0.001688	28.0824	40.4236	0.001730	23366	8.857324	173.088	93.8242	1.202089	0.038575	0.038196	94.115	23366	0.035554	0.053044	1774.27	92690.9
646	2.000000	1.204894	7.37138e+06	-44789.1	1005.82	-29774.6	0.000000	0.000000	7.209367	105.759	NaN	0.000000	0.001572	0.001664	28.0831	42.9938	0.001702	25257.7	-0.433271	1.235959	101.55	1.204507	0.041002	0.040614	105.759	25257.7	0.037861	0.058618	1804.21	95313
646	2.000000	1.207406	7.37138e+06	-44789.1	1005.82	-29774.6	0.000000	0.000000	7.212367	117.658	NaN	0.000000	0.001595	0.001684	28.0826	47.1815	0.001733	27232.5	6.691059	174.004	115.728	1.207120	0.043513	0.043227	117.658	27232.5	0.040273	0.064735	1817.54	97789.6
646	2.000000	1.209951	7.37138e+06	-44789.1	1005.82	-29774.6	0.000000	0.000000	7.215339	128.048	NaN	0.000000	0.001597	0.001658	28.0829	49.0724	0.001708	28736.6	4.323600	-4.603315	126.368	1.209701	0.046058	0.045808	128.048	28736.6	0.042716	0.071236	1797.53	98369.4
646	2.000000	1.212347	7.37138e+06	-44789.1	1005.82	-29774.6	0.000000	0.000000	7.218531	147.394	NaN	0.000000	0.001611	0.001654	28.0824	51.7067	0.001744	29650.6	3.668612	175.428	141.478	1.212094	0.048455	0.048201	147.394	29650.6	0.044726	0.076812	1918.89	97744.2
646	2.000000	1.214909	7.37138e+06	-44789.1	1005.82	-29774.6	0.000000	0.000000	7.221314	152.764	NaN	0.000000	0.001573	0.001633	28.0846	54.9315	0.001832	29991.5	2.484683	-3.241447	150.245	1.214624	0.051017	0.050732	152.764	29991.5	0.047196	0.083945	1819.81	94574.4
646	2.000000	1.217454	7.37138e+06	-44789.1	1005.82	-29774.6	0.000000	0.000000	7.224583	170.375	NaN	0.000000	0.001579	0.001689	28.0835	57.5132	0.001836	31332.6	2.883307	176.022	171.753	1.217116	0.053561	0.053224	170.375	31332.6	0.049483	0.090823	1875.92	94988.8
646	2.000000	1.219950	7.37138e+06	-44789.1	1005.82	-29774.6	0.000000	0.000000	7.227726	186.133	NaN	0.000000	0.001570	0.001692	28.0835	58.7564	0.001809	32479.3	3.623504	-5.077899	182.302	1.219512	0.056057	0.055619	186.133	32479.3	0.051759	0.097928	1900.71	94825.5
646	2.000000	1.222366	7.37138e+06	-44789.1	1005.82	-29774.6	0.000000	0.000000	7.230779	201.637	NaN	0.000000	0.001615	0.001668	28.0831	60.8927	0.001874	32488.3	6.171442	172.616	198.238	1.222082	0.058473	0.058189	201.637	32488.3	0.053818	0.104579	1928.08	91786.2
646	2.000000	1.224850	7.37138e+06	-44789.1	1005.82	-29774.6	0.000000	0.000000	7.233942	218.141	NaN	0.000000	0.001610	0.001632	28.0839	62.9216	0.001680	37461.8	2.858198	-4.914800	213.708	1.224539	0.060958	0.060646	218.141	37461.8	0.056590	0.113867	1915.76	101429
646	2.000000	1.227432	7.37138e+06	-44789.1	1005.82	-29774.6	0.000000	0.000000	7.236929	228.015	NaN	0.000000	0.001618	0.001586	28.0833	67.4121	0.001973	34168.8	5.743102	173.762	227.012	1.227059	0.063539	0.063167	228.015	34168.8	0.058534	0.120604	1890.61	89892.4
646	2.000000	1.229922	7.37138e+06	-44789.1	1005.82	-29774.6	0.000000	0.000000	7.239960	241.153	NaN	0.000000	0.001622	0.001652	28.0835	68.575	0.001757	39020.9	6.459487	-9.121462	238.026	1.229455	0.066030	0.065562	241.153	39020.9	0.061395	0.130856	1842.89	98553.8
646	2.000000	1.232387	7.37138e+06	-44789.1	1005.82	-29774.6	0.000000	0.000000	7.243016	255.542	NaN	0.000000	0.001615	0.001619	28.0833	69.2033	0.001703	40627.4	1.718487	174.813	254.211	1.232143	0.068494	0.068250	255.542	40627.4	0.063777	0.139699	1829.23	99310.4
646	2.000000	1.234922	7.37138e+06	-44789.1	1005.82	-29774.6	0.000000	0.000000	7.246263	272.862	NaN	0.000000	0.001595	0.001640	28.0837	73.308	0.001704	43031.8	6.043917	-9.739646	270.605	1.234588	0.071029	0.070695	272.862	43031.8	0.066273	0.149259	1828.11	101764
646	2.000000	1.237407	7.37138e+06	-44789.1	1005.82	-29774.6	0.000000	0.000000	7.249182	283.419	NaN	0.000000	0.001590	0.001644	28.0832	76.5157	0.001861	41122.3	3.464552	173.295	283.231	1.237197	0.073514	0.073305	283.419	41122.3	0.068345	0.157420	1800.4	94693.5
646	2.000000	1.239853	7.37138e+06	-44789.1	1005.82	-29774.6	0.000000	0.000000	7.252585	306.697	NaN	0.000000	0.001621	0.001654	28.0835	77.6119	0.001891	41046.9	3.231922	-6.213346	302.408	1.239565	0.075960	0.075672	306.697	41046.9	0.070356	0.165539	1852.71	92172.9
646	2.000000	1.242375	7.37138e+06	-44789.1	1005.82	-29774.6	0.000000	0.000000	7.255648	319.854	NaN	0.000000	0.001625	0.001619	28.0832	79.1842	0.001824	43408.5	1.719628	175.001	319.508	1.242124	0.078483	0.078232	319.854	43408.5	0.072956	0.176321	1814.04	94448.7
646	2.000000	1.244893	7.37138e+06	-44789.1	1005.82	-29774.6	0.000000	0.000000	7.258881	337.257	NaN	0.000000	0.001576	0.001651	28.0834	82.1466	0.001867	44002.6	3.807503	-8.215509	333.53	1.244579	0.081000	0.080686	337.257	44002.6	0.075251	0.186104	1812.2	93191.1
646	2.000000	1.247456	7.37138e+06	-44789.1	1005.82	-29774.6	0.000000	0.000000	7.262214	355.999	NaN	0.000000	0.001612	0.001655	28.083	84.7733	0.001817	46644.8	5.969279	169.757	357.327	1.247140	0.083563	0.083247	355.999	46644.8	0.077839	0.197429	1803.17	95911.5
646	2.000000	1.249925	7.37138e+06	-44789.1	1005.82	-29774.6	0.000000	0.000000	7.265564	377.415	NaN	0.000000	0.001610	0.001614	28.0819	84.9383	0.001776	47816	1.858711	-6.082650	375.726	1.249553	0.086032	0.085660	377.415	47816	0.080112	0.207638	1817.66	95872.4
646	2.000000	1.252316	7.37138e+06	-44789.1	1005.82	-29774.6	0.000000	0.000000	7.268696	395.439	NaN	0.000000	0.001617	0.001632	28.0819	86.992	0.001777	48964	3.672039	171.996	391.351	1.252050	0.088424	0.088157	395.439	48964	0.082367	0.218000	1813.94	95812.6
646	2.000000	1.254933	7.37138e+06	-44789.1	1005.82	-29774.6	0.000000	0.000000	7.272141	415.595	NaN	0.000000	0.001557	0.001658	28.082	89.9647	0.001668	53951	6.612486	-11.358	416.672	1.254534	0.091040	0.090641	415.595	53951	0.085263	0.231658	1794	102412
646	2.000000	1.257387	7.37138e+06	-44789.1	1005.82	-29774.6	0.000000	0.000000	7.275129	428.58	NaN	0.000000	0.001573	0.001664	28.0819	93.0191	0.001791	51926	1.814511	173.432	428.194	1.257163	0.093494	0.093270	428.58	51926	0.087304	0.241514	1774.56	96535.5
646	2.000000	1.259880	7.37138e+06	-44789.1	1005.82	-29774.6	0.000000	0.000000	7.278488	449.638	NaN	0.000000	0.001568	0.001676	28.0822	95.4805	0.001746	54683.9	3.137067	-8.421079	445.298	1.259506	0.095987	0.095613	449.638	54683.9	0.089820	0.253931	1770.71	99145.9
646	2.000000	1.262276	7.37138e+06	-44789.1	1005.82	-29774.6	0.000000	0.000000	7.281566	466.258	NaN	0.000000	0.001575	0.001681	28.0824	98.8363	0.001815	54445.7	8.739410	165.766	460.432	1.262035	0.098383	0.098143	466.258	54445.7	0.091960	0.264719	1761.33	96681.7
646	2.000000	1.264823	7.37138e+06	-44789.1	1005.82	-29774.6	0.000000	0.000000	7.285316	495.5	NaN	0.000000	0.001587	0.001667	28.0821	99.38	0.001712	58064.6	4.098755	-9.883440	491.799	1.264576	0.100930	0.100684	495.5	58064.6	0.094530	0.277951	1782.69	100624
646	2.000000	1.267388	7.37138e+06	-44789.1	1005.82	-29774.6	0.000000	0.000000	7.288439	509.071	NaN	0.000000	0.001675	0.001700	28.0818	103.44	0.001858	55674.3	2.828078	171.763	509.119	1.267146	0.103495	0.103253	509.071	55674.3	0.096637	0.289027	1761.33	94614.7