File: remote_trans/data/nanoindenter/0828-1/data/Data_2025-08-06,11h17m57s/2025-07-22_16-23-58_1_316.txt
2025-07-22, 16:23:58, 1
Index	Phase	Displacement	Time	Pos X	Pos Y	Pos Z	Rot A	Rot B	Piezo Z	Force A	Force B	Gripper	Voltage A	Voltage B	Temperature	Amplitude force	Amplitude pos	Stiffness	Phase shift	Phase excitation	Force A raw	Displacement raw	HMax	HMax raw	Real Force	Real Stiffness	Contact Depth	Area	Hardness	Reduced Mod.
[#]	[#]	[um]	[s]	[um]	[um]	[um]	[m°]	[m°]	[um]	[uN]	[uN]	[V]	[V]	[V]	[°C]	[uN]	[um]	[N/m]	[°]	[°]	[uN]	[um]	[um]	[um]	[uN]	[N/m]	[um]	[um^2]	[MPa]	[MPa]
316	1.000000	0.002720	7.36815e+06	-54439.1	955.818	-29743.9	0.000000	0.000000	6.002811	-0.014236	NaN	0.000000	0.001635	0.001661	28.0783	0.089083	0.000994	89.6352	55.7943	-163.466	-0.012709	0.001454	-1.069276	-1.070543	-0.014236	89.6352	-1.069157	-1.931373E+14	7.370969E-17	NaN
316	1.000000	0.010660	7.36815e+06	-54439.1	955.819	-29743.9	0.000000	0.000000	6.010750	-0.037049	NaN	0.000000	0.001637	0.001638	28.0783	0.052200	0.000967	53.9788	8.340807	-164.516	-0.098589	0.009343	-1.061337	-1.062654	-0.037049	53.9788	-1.060822	-1.492332E+14	2.482639E-16	NaN
316	1.000000	0.018652	7.36815e+06	-54439.1	955.819	-29743.9	0.000000	0.000000	6.018742	-0.050698	NaN	0.000000	0.001647	0.001662	28.0784	0.168115	0.001669	100.745	-5.528615	-164.209	-0.066116	0.017363	-1.053344	-1.054634	-0.050698	100.745	-1.052967	-1.170297E+14	4.332068E-16	NaN
316	1.000000	0.026678	7.36815e+06	-54439.1	955.818	-29743.9	0.000000	0.000000	6.026771	0.027146	NaN	0.000000	0.001599	0.001681	28.0795	0.031499	0.001691	18.6301	-149.232	-169.324	0.080049	0.025284	-1.045318	-1.046713	0.027146	18.6301	-1.046411	-9.553619E+13	-2.841443E-16	NaN
316	1.000000	0.034679	7.36815e+06	-54439.1	955.819	-29743.9	0.000000	0.000000	6.034774	0.067481	NaN	0.000000	0.001578	0.001667	28.0798	0.029323	0.001831	16.0106	-124.519	-162.939	0.073275	0.033358	-1.037317	-1.038639	0.067481	16.0106	-1.040478	-7.950629E+13	-8.487510E-16	NaN
316	1.000000	0.042660	7.36815e+06	-54439.1	955.818	-29743.9	0.000000	0.000000	6.042755	0.066400	NaN	0.000000	0.001582	0.001663	28.0794	0.094011	0.002026	46.4075	-148.981	-168.924	0.030758	0.041370	-1.029337	-1.030627	0.066400	46.4075	-1.030410	-5.820905E+13	-1.140714E-15	NaN
316	1.000000	0.050648	7.36815e+06	-54439.1	955.818	-29743.9	0.000000	0.000000	6.050741	0.038630	NaN	0.000000	0.001572	0.001697	28.0796	0.065689	0.001993	32.9585	42.628	-163.948	-0.020432	0.049316	-1.021349	-1.022680	0.038630	32.9585	-1.022228	-4.517848E+13	-8.550638E-16	NaN
316	1.000000	0.058670	7.36815e+06	-54439.1	955.817	-29743.9	0.000000	0.000000	6.058760	-0.042552	NaN	0.000000	0.001600	0.001663	28.0799	0.009678	0.001973	4.904311	96.698	-162.075	0.022672	0.057372	-1.013327	-1.014625	-0.042552	4.904311	-1.006820	-2.802679E+13	1.518250E-15	NaN
316	1.000000	0.066685	7.36815e+06	-54439.1	955.819	-29743.9	0.000000	0.000000	6.066776	-0.001920	NaN	0.000000	0.001594	0.001676	28.0795	0.012956	0.001985	6.528131	-157.693	-167.515	-0.006566	0.065327	-1.005312	-1.006670	-0.001920	6.528131	-1.005091	-2.656514E+13	7.226734E-17	NaN
316	1.000000	0.074691	7.36815e+06	-54439.1	955.819	-29743.9	0.000000	0.000000	6.074784	0.025282	NaN	0.000000	0.001604	0.001663	28.0796	0.065574	0.002079	31.5454	-119.734	-161.806	0.016088	0.073348	-0.997306	-0.998649	0.025282	31.5454	-0.997907	-2.126121E+13	-1.189122E-15	NaN
316	1.000000	0.082659	7.36815e+06	-54439.1	955.818	-29743.9	0.000000	0.000000	6.082753	0.075287	NaN	0.000000	0.001574	0.001681	28.0794	0.087592	0.001969	44.481	-114.403	-166.277	0.018394	0.081317	-0.989338	-0.990680	0.075287	44.481	-0.990608	-1.695484E+13	-4.440458E-15	NaN
316	1.000000	0.090662	7.36815e+06	-54439.1	955.819	-29743.9	0.000000	0.000000	6.090756	0.063102	NaN	0.000000	0.001596	0.001660	28.0796	0.032060	0.001979	16.2017	-171.492	-165.673	0.087933	0.089400	-0.981335	-0.982597	0.063102	16.2017	-0.984256	-1.392337E+13	-4.532111E-15	NaN
316	1.000000	0.098678	7.36815e+06	-54439.1	955.819	-29743.9	0.000000	0.000000	6.098772	0.052890	NaN	0.000000	0.001588	0.001664	28.0798	0.046952	0.002026	23.1775	-66.0387	-164.368	0.037080	0.097404	-0.973319	-0.974593	0.052890	23.1775	-0.975030	-1.045802E+13	-5.057345E-15	NaN
316	1.000000	0.106697	7.36815e+06	-54439.1	955.819	-29743.9	0.000000	0.000000	6.106789	0.003035	NaN	0.000000	0.001574	0.001697	28.0793	0.055609	0.002140	25.9909	29.4472	-164.01	0.015034	0.105328	-0.965299	-0.966669	0.003035	25.9909	-0.965387	-7.753329E+12	-3.914851E-16	NaN
316	1.000000	0.114668	7.36815e+06	-54439.1	955.818	-29743.9	0.000000	0.000000	6.114759	-0.014124	NaN	0.000000	0.001620	0.001657	28.0797	0.042321	0.001931	21.9124	161.885	-164.758	-0.028290	0.113373	-0.957328	-0.958624	-0.014124	21.9124	-0.956845	-5.947459E+12	2.374763E-15	NaN
316	1.000000	0.122691	7.36815e+06	-54439.1	955.817	-29743.9	0.000000	0.000000	6.122780	-0.065146	NaN	0.000000	0.001626	0.001650	28.0794	0.063300	0.002187	28.9399	-154.126	-164.971	0.034243	0.121372	-0.949306	-0.950624	-0.065146	28.9399	-0.947617	-4.465725E+12	1.458803E-14	NaN
316	1.000000	0.130705	7.36815e+06	-54439.1	955.818	-29743.9	0.000000	0.000000	6.130798	0.024292	NaN	0.000000	0.001580	0.001705	28.0796	0.079610	0.001961	40.5895	-159.966	-163.414	0.027267	0.129363	-0.941292	-0.942634	0.024292	40.5895	-0.941740	-3.720637E+12	-6.529063E-15	NaN
316	1.000000	0.138703	7.36816e+06	-54439.1	955.818	-29743.9	0.000000	0.000000	6.138798	0.069755	NaN	0.000000	0.001609	0.001704	28.0795	0.043673	0.002016	21.6587	154.047	-164.264	-0.011299	0.137328	-0.933294	-0.934668	0.069755	21.6587	-0.935709	-3.084896E+12	-2.261175E-14	NaN
316	1.000000	0.146725	7.36816e+06	-54439.1	955.819	-29743.9	0.000000	0.000000	6.146816	-0.023425	NaN	0.000000	0.001585	0.001712	28.0794	0.086586	0.002009	43.107	-142.22	-163.133	0.048345	0.145367	-0.925271	-0.926630	-0.023425	43.107	-0.924864	-2.202261E+12	1.063698E-14	NaN
316	1.000000	0.154681	7.36816e+06	-54439.1	955.819	-29743.9	0.000000	0.000000	6.154775	0.053399	NaN	0.000000	0.001593	0.001689	28.0797	0.068752	0.002069	33.2251	-111.512	-165.264	0.111134	0.153445	-0.917316	-0.918552	0.053399	33.2251	-0.918521	-1.808173E+12	-2.953208E-14	NaN
316	1.000000	0.162711	7.36816e+06	-54439.1	955.818	-29743.9	0.000000	0.000000	6.162803	0.008119	NaN	0.000000	0.001620	0.001698	28.0783	0.052512	0.002054	25.5664	137.39	-162.048	0.010711	0.161369	-0.909286	-0.910627	0.008119	25.5664	-0.909524	-1.366897E+12	-5.939560E-15	NaN
316	1.000000	0.170690	7.36816e+06	-54439.1	955.819	-29743.9	0.000000	0.000000	6.170784	0.042326	NaN	0.000000	0.001597	0.001692	28.0784	0.052578	0.001863	28.2272	152.444	-167.991	0.028526	0.169430	-0.901306	-0.902567	0.042326	28.2272	-0.902431	-1.096262E+12	-3.860913E-14	NaN
316	1.000000	0.178731	7.36816e+06	-54439.1	955.818	-29743.9	0.000000	0.000000	6.178823	0.009004	NaN	0.000000	0.001581	0.001673	28.078	0.014726	0.001994	7.385373	-155.079	-161.229	0.028198	0.177330	-0.893266	-0.894667	0.009004	7.385373	-0.894180	-8.480361E+11	-1.061746E-14	NaN
316	1.000000	0.186727	7.36816e+06	-54439.1	955.819	-29743.9	0.000000	0.000000	6.186820	0.052659	NaN	0.000000	0.001622	0.001642	28.0784	0.179079	0.001984	90.2673	-54.4105	-163.697	0.021802	0.185380	-0.885270	-0.886616	0.052659	90.2673	-0.885708	-6.514564E+11	-8.083207E-14	NaN
316	1.000000	0.194700	7.36816e+06	-54439.1	955.819	-29743.9	0.000000	0.000000	6.194794	0.055152	NaN	0.000000	0.001611	0.001687	28.0788	0.171337	0.002028	84.4671	-106.528	-164.239	0.056326	0.193422	-0.877297	-0.878575	0.055152	84.4671	-0.877787	-5.090687E+11	-1.083394E-13	NaN
316	1.000000	0.202718	7.36816e+06	-54439.1	955.819	-29743.9	0.000000	0.000000	6.202810	0.013936	NaN	0.000000	0.001619	0.001659	28.0783	0.023983	0.002010	11.9333	-7.907271	-163.851	-0.042804	0.201401	-0.869279	-0.870596	0.013936	11.9333	-0.870155	-4.013658E+11	-3.472061E-14	NaN
316	1.000000	0.210701	7.36816e+06	-54439.1	955.818	-29743.9	0.000000	0.000000	6.210794	0.011140	NaN	0.000000	0.001622	0.001640	28.0784	0.161746	0.001993	81.1451	-119.511	-162.467	0.016783	0.209407	-0.861295	-0.862590	0.011140	81.1451	-0.861398	-3.055240E+11	-3.646081E-14	NaN
316	1.000000	0.218748	7.36816e+06	-54439.1	955.819	-29743.9	0.000000	0.000000	6.218840	-0.000271	NaN	0.000000	0.001623	0.001676	28.0782	0.109818	0.001886	58.2146	15.7997	-166.304	-0.108652	0.217425	-0.853248	-0.854572	-0.000271	58.2146	-0.853245	-2.369602E+11	1.145672E-15	NaN
316	1.000000	0.226736	7.36816e+06	-54439.1	955.817	-29743.9	0.000000	0.000000	6.226831	0.080330	NaN	0.000000	0.001604	0.001697	28.0782	0.066008	0.001997	33.0516	108.425	-165.931	0.089723	0.225413	-0.845260	-0.846584	0.080330	33.0516	-0.847083	-1.955399E+11	-4.108089E-13	NaN
316	1.000000	0.234751	7.36816e+06	-54439.1	955.818	-29743.9	0.000000	0.000000	6.234841	-0.040851	NaN	0.000000	0.001592	0.001672	28.0784	0.124011	0.001918	64.6676	-150.996	-162.62	0.030001	0.233402	-0.837245	-0.838595	-0.040851	64.6676	-0.836771	-1.417589E+11	2.881700E-13	NaN
316	1.000000	0.242723	7.36816e+06	-54439.1	955.819	-29743.9	0.000000	0.000000	6.242815	0.021975	NaN	0.000000	0.001582	0.001691	28.0782	0.069195	0.002091	33.0966	143.279	-166.847	-0.008474	0.241393	-0.829274	-0.830603	0.021975	33.0966	-0.829772	-1.139438E+11	-1.928609E-13	NaN
316	1.000000	0.250733	7.36816e+06	-54439.1	955.818	-29743.9	0.000000	0.000000	6.250823	-0.027243	NaN	0.000000	0.001612	0.001657	28.0784	0.152020	0.002005	75.819	-148.057	-165.804	0.035487	0.249416	-0.821264	-0.822581	-0.027243	75.819	-0.820994	-8.663535E+10	3.144596E-13	NaN
316	1.000000	0.258743	7.36816e+06	-54439.1	955.819	-29743.9	0.000000	0.000000	6.258835	0.005466	NaN	0.000000	0.001597	0.001712	28.0782	0.088978	0.001965	45.2761	129.341	-166.508	0.070021	0.257422	-0.813253	-0.814575	0.005466	45.2761	-0.813344	-6.822392E+10	-8.012182E-14	NaN
316	1.000000	0.266735	7.36816e+06	-54439.1	955.819	-29743.9	0.000000	0.000000	6.266825	-0.027078	NaN	0.000000	0.001570	0.001691	28.078	0.049856	0.002072	24.0654	58.0185	-166.812	0.053178	0.265459	-0.805262	-0.806537	-0.027078	24.0654	-0.804418	-5.162138E+10	5.245508E-13	NaN
316	1.000000	0.274771	7.36816e+06	-54439.1	955.818	-29743.9	0.000000	0.000000	6.274864	0.037169	NaN	0.000000	0.001664	0.001685	28.0784	0.039416	0.002075	18.9972	-96.9395	-166.506	0.039233	0.273371	-0.797225	-0.798626	0.037169	18.9972	-0.798693	-4.316375E+10	-8.611245E-13	NaN
316	1.000000	0.282757	7.36816e+06	-54439.1	955.818	-29743.9	0.000000	0.000000	6.282849	0.003680	NaN	0.000000	0.001664	0.001728	28.0784	0.035449	0.002079	17.0508	-64.2051	-162.062	-0.070303	0.281413	-0.789240	-0.790584	0.003680	17.0508	-0.789402	-3.228165E+10	-1.140045E-13	NaN
316	1.000000	0.290769	7.36816e+06	-54439.1	955.818	-29743.9	0.000000	0.000000	6.290864	0.076066	NaN	0.000000	0.001677	0.001688	28.0784	0.082825	0.002026	40.879	-157.465	-164.754	0.057601	0.289392	-0.781228	-0.782604	0.076066	40.879	-0.782623	-2.611420E+10	-2.912839E-12	NaN
316	1.000000	0.298746	7.36816e+06	-54439.1	955.818	-29743.9	0.000000	0.000000	6.298838	0.008718	NaN	0.000000	0.001686	0.001659	28.0795	0.081929	0.002053	39.9007	134.248	-166.984	-0.031697	0.297413	-0.773251	-0.774584	0.008718	39.9007	-0.773415	-1.957618E+10	-4.453584E-13	NaN
316	1.000000	0.306736	7.36816e+06	-54439.1	955.817	-29743.9	0.000000	0.000000	6.306827	-0.018130	NaN	0.000000	0.001632	0.001671	28.0797	0.158278	0.001943	81.445	121.718	-166.819	-0.033571	0.305452	-0.765260	-0.766545	-0.018130	81.445	-0.765094	-1.508641E+10	1.201771E-12	NaN
316	1.000000	0.314760	7.36816e+06	-54439.1	955.819	-29743.9	0.000000	0.000000	6.314852	-0.007605	NaN	0.000000	0.001590	0.001683	28.0796	0.099216	0.001913	51.8567	-64.4347	-163.059	-0.053930	0.313500	-0.757236	-0.758497	-0.007605	51.8567	-0.757126	-1.175451E+10	6.470129E-13	NaN
316	1.000000	0.322774	7.36816e+06	-54439.1	955.819	-29743.9	0.000000	0.000000	6.322866	0.019005	NaN	0.000000	0.001589	0.001659	28.0793	0.073136	0.001992	36.709	-42.5502	-166.351	0.047384	0.321515	-0.749223	-0.750482	0.019005	36.709	-0.749611	-9.288060E+9	-2.046202E-12	NaN
316	1.000000	0.330790	7.36816e+06	-54439.1	955.819	-29743.9	0.000000	0.000000	6.330885	0.093804	NaN	0.000000	0.001603	0.001633	28.08	0.048304	0.001905	25.3589	118.446	-162.328	0.002772	0.329390	-0.741207	-0.742607	0.093804	25.3589	-0.743981	-7.785338E+9	-1.204885E-11	NaN
316	1.000000	0.338774	7.36816e+06	-54439.1	955.818	-29743.9	0.000000	0.000000	6.338865	-0.027293	NaN	0.000000	0.001596	0.001668	28.0795	0.017645	0.002028	8.702268	-122.97	-164.491	-0.058036	0.337473	-0.733222	-0.734524	-0.027293	8.702268	-0.730870	-5.160204E+9	5.289102E-12	NaN
316	1.000000	0.346768	7.36816e+06	-54439.1	955.819	-29743.9	0.000000	0.000000	6.346862	0.041358	NaN	0.000000	0.001574	0.001659	28.0797	0.097055	0.002029	47.8298	-178.639	-164.931	0.071120	0.345448	-0.725228	-0.726548	0.041358	47.8298	-0.725877	-4.411712E+9	-9.374603E-12	NaN
316	1.000000	0.354789	7.36816e+06	-54439.1	955.819	-29743.9	0.000000	0.000000	6.354882	0.038193	NaN	0.000000	0.001621	0.001697	28.0795	0.119561	0.001951	61.2708	-15.9398	-164.765	0.017520	0.353416	-0.717208	-0.718581	0.038193	61.2708	-0.717675	-3.410109E+9	-1.119999E-11	NaN
316	1.000000	0.362778	7.36816e+06	-54439.1	955.818	-29743.9	0.000000	0.000000	6.362871	0.026718	NaN	0.000000	0.001667	0.001674	28.0795	0.050147	0.001937	25.8831	-64.3041	-163.818	0.007597	0.361479	-0.709219	-0.710518	0.026718	25.8831	-0.709993	-2.678880E+9	-9.973467E-12	NaN
316	1.000000	0.370805	7.36816e+06	-54439.1	955.818	-29743.9	0.000000	0.000000	6.370895	-0.034921	NaN	0.000000	0.001667	0.001679	28.0796	0.087770	0.002028	43.2775	103.498	-164.588	0.026368	0.369527	-0.701192	-0.702470	-0.034921	43.2775	-0.700587	-1.993160E+9	1.752047E-11	NaN
316	1.000000	0.378794	7.36816e+06	-54439.1	955.819	-29743.9	0.000000	0.000000	6.378889	0.082255	NaN	0.000000	0.001626	0.001713	28.0794	0.062477	0.001953	31.9968	136.454	-164.7	0.054545	0.377497	-0.693203	-0.694500	0.082255	31.9968	-0.695131	-1.678893E+9	-4.899381E-11	NaN
316	1.000000	0.386790	7.36816e+06	-54439.1	955.82	-29743.9	0.000000	0.000000	6.386882	0.018295	NaN	0.000000	0.001628	0.001706	28.0797	0.020724	0.002013	10.2937	-13.9493	-165.555	-0.019452	0.385547	-0.685207	-0.686450	0.018295	10.2937	-0.686540	-1.281214E+9	-1.427961E-11	NaN
316	1.000000	0.394794	7.36816e+06	-54439.1	955.819	-29743.9	0.000000	0.000000	6.394888	0.041766	NaN	0.000000	0.001652	0.001719	28.0795	0.134156	0.002073	64.7179	93.269	-167.856	-0.063458	0.393457	-0.677202	-0.678539	0.041766	64.7179	-0.677686	-9.695328E+8	-4.307835E-11	NaN
316	1.000000	0.402813	7.36816e+06	-54439.1	955.819	-29743.9	0.000000	0.000000	6.402904	-0.021916	NaN	0.000000	0.001636	0.001685	28.0797	0.011462	0.001945	5.891912	-35.2029	-167.413	0.082475	0.401533	-0.669184	-0.670463	-0.021916	5.891912	-0.666394	-6.792487E+8	3.226546E-11	NaN
316	1.000000	0.410827	7.36816e+06	-54439.1	955.819	-29743.9	0.000000	0.000000	6.410922	0.066212	NaN	0.000000	0.001665	0.001725	28.0794	0.046551	0.002025	22.9855	106.473	-163.928	0.121775	0.409524	-0.661169	-0.662473	0.066212	22.9855	-0.663330	-6.166975E+8	-1.073662E-10	NaN
316	1.000000	0.418803	7.36816e+06	-54439.1	955.819	-29743.9	0.000000	0.000000	6.418896	0.040032	NaN	0.000000	0.001682	0.001714	28.0796	0.033221	0.002007	16.5527	125.454	-165.861	0.061323	0.417477	-0.653194	-0.654520	0.040032	16.5527	-0.655007	-4.743166E+8	-8.439911E-11	NaN
316	1.000000	0.426812	7.36816e+06	-54439.1	955.818	-29743.9	0.000000	0.000000	6.426903	-0.016436	NaN	0.000000	0.001656	0.001745	28.0796	0.013418	0.002028	6.617752	88.1758	-161.877	-0.016619	0.425530	-0.645185	-0.646467	-0.016436	6.617752	-0.643322	-3.279919E+8	5.011133E-11	NaN
316	1.000000	0.434825	7.36816e+06	-54439.1	955.818	-29743.9	0.000000	0.000000	6.434915	-0.037899	NaN	0.000000	0.001658	0.001734	28.0783	0.040043	0.002090	19.1585	136.456	-164.063	-0.045519	0.433472	-0.637171	-0.638524	-0.037899	19.1585	-0.635688	-2.576985E+8	1.470679E-10	NaN
316	1.000000	0.442855	7.36816e+06	-54439.1	955.818	-29743.9	0.000000	0.000000	6.442949	0.047725	NaN	0.000000	0.001658	0.001712	28.0785	0.069710	0.001947	35.8055	-160.577	-163.177	-0.000949	0.441432	-0.629142	-0.630564	0.047725	35.8055	-0.630141	-2.162531E+8	-2.206904E-10	NaN
316	1.000000	0.450824	7.36816e+06	-54439.1	955.818	-29743.9	0.000000	0.000000	6.450916	-0.004718	NaN	0.000000	0.001664	0.001697	28.0782	0.038268	0.001957	19.5595	-135.785	-165.68	-0.063552	0.449533	-0.621173	-0.622464	-0.004718	19.5595	-0.620992	-1.619060E+8	2.914043E-11	NaN
316	1.000000	0.458796	7.36816e+06	-54439.1	955.819	-29743.9	0.000000	0.000000	6.458889	0.034883	NaN	0.000000	0.001645	0.001695	28.0785	0.040595	0.002033	19.9657	-64.0647	-160.015	0.064813	0.457564	-0.613201	-0.614433	0.034883	19.9657	-0.614511	-1.318776E+8	-2.645119E-10	NaN
316	1.000000	0.466843	7.36816e+06	-54439.1	955.817	-29743.9	0.000000	0.000000	6.466935	0.022768	NaN	0.000000	0.001615	0.001710	28.0783	0.103458	0.002010	51.4689	39.9746	-162.82	-0.045017	0.465509	-0.605154	-0.606487	0.022768	51.4689	-0.605486	-9.908151E+7	-2.297952E-10	NaN
316	1.000000	0.474861	7.36816e+06	-54439.1	955.818	-29743.9	0.000000	0.000000	6.474952	-0.019422	NaN	0.000000	0.001656	0.001702	28.0783	0.032422	0.001998	16.2265	13.9706	-163.547	-0.068943	0.473508	-0.597135	-0.598489	-0.019422	16.2265	-0.596238	-7.389826E+7	2.628229E-10	NaN
316	1.000000	0.482815	7.36816e+06	-54439.1	955.818	-29743.9	0.000000	0.000000	6.482907	0.022825	NaN	0.000000	0.001651	0.001709	28.0782	0.076289	0.002078	36.7066	61.9396	-162.342	-0.057625	0.481526	-0.589182	-0.590470	0.022825	36.7066	-0.589648	-5.995394E+7	-3.807063E-10	NaN
316	1.000000	0.490844	7.36816e+06	-54439.1	955.82	-29743.9	0.000000	0.000000	6.490939	0.072878	NaN	0.000000	0.001580	0.001685	28.0783	0.060381	0.002058	29.3445	48.4536	-164.887	0.044179	0.489492	-0.581152	-0.582505	0.072878	29.3445	-0.583015	-4.856604E+7	-1.500606E-9	NaN
316	1.000000	0.498847	7.36816e+06	-54439.1	955.818	-29743.9	0.000000	0.000000	6.498937	-0.018864	NaN	0.000000	0.001578	0.001706	28.0784	0.089872	0.002062	43.5894	-121.251	-162.549	-0.008143	0.497544	-0.573150	-0.574453	-0.018864	43.5894	-0.572826	-3.512906E+7	5.370047E-10	NaN
316	1.000000	0.506843	7.36816e+06	-54439.1	955.818	-29743.9	0.000000	0.000000	6.506935	0.016530	NaN	0.000000	0.001613	0.001720	28.0784	0.109473	0.001949	56.173	98.7144	-164.95	0.047120	0.505568	-0.565154	-0.566429	0.016530	56.173	-0.565375	-2.771455E+7	-5.964377E-10	NaN
316	1.000000	0.514836	7.36816e+06	-54439.1	955.819	-29743.9	0.000000	0.000000	6.514925	-0.061400	NaN	0.000000	0.001609	0.001732	28.0784	0.065500	0.001899	34.4886	-20.5115	-163.959	-0.097355	0.513546	-0.557161	-0.558451	-0.061400	34.4886	-0.555826	-2.044653E+7	3.002942E-9	NaN
316	1.000000	0.522843	7.36816e+06	-54439.1	955.818	-29743.9	0.000000	0.000000	6.522935	0.024458	NaN	0.000000	0.001595	0.001691	28.0786	0.014299	0.002032	7.037303	30.5551	-168.117	-0.014065	0.521557	-0.549154	-0.550439	0.024458	7.037303	-0.551761	-1.796148E+7	-1.361710E-9	NaN
316	1.000000	0.530896	7.36816e+06	-54439.1	955.819	-29743.9	0.000000	0.000000	6.530987	-0.022446	NaN	0.000000	0.001604	0.001651	28.0786	0.059093	0.002065	28.6136	39.5037	-159.57	0.048392	0.529543	-0.541100	-0.542453	-0.022446	28.6136	-0.540512	-1.254468E+7	1.789281E-9	NaN
316	1.000000	0.538854	7.36816e+06	-54439.1	955.818	-29743.9	0.000000	0.000000	6.538946	0.008929	NaN	0.000000	0.001610	0.001704	28.0786	0.020086	0.002043	9.832669	-61.8638	-164.453	0.017211	0.537550	-0.533143	-0.534447	0.008929	9.832669	-0.533824	-1.013142E+7	-8.813113E-10	NaN
316	1.000000	0.546854	7.36816e+06	-54439.1	955.819	-29743.9	0.000000	0.000000	6.546944	-0.042006	NaN	0.000000	0.001601	0.001712	28.0787	0.100074	0.002057	48.6535	-177.167	-166.848	0.028395	0.545578	-0.525142	-0.526419	-0.042006	48.6535	-0.524495	-7.51782e+06	5.587513E-9	NaN
316	1.000000	0.554870	7.36816e+06	-54439.1	955.818	-29743.9	0.000000	0.000000	6.554958	-0.079442	NaN	0.000000	0.001579	0.001674	28.0786	0.088517	0.001926	45.9485	27.9575	-164.804	-0.147821	0.553570	-0.517127	-0.518426	-0.079442	45.9485	-0.515830	-5.69618e+06	1.394655E-8	NaN
316	1.000000	0.562856	7.36816e+06	-54439.1	955.818	-29743.9	0.000000	0.000000	6.562950	0.037567	NaN	0.000000	0.001592	0.001703	28.0787	0.019725	0.001930	10.2212	-30.8657	-168.652	-0.022609	0.561558	-0.509140	-0.510438	0.037567	10.2212	-0.511897	-5.0215e+06	-7.481330E-9	NaN
316	1.000000	0.570869	7.36816e+06	-54439.1	955.819	-29743.9	0.000000	0.000000	6.570960	-0.003686	NaN	0.000000	0.001600	0.001712	28.0795	0.030103	0.002068	14.5559	-155.945	-162.55	0.060885	0.569589	-0.501128	-0.502407	-0.003686	14.5559	-0.500938	-3.53266e+06	1.043272E-9	NaN
316	1.000000	0.578872	7.36816e+06	-54439.1	955.818	-29743.9	0.000000	0.000000	6.578965	0.023800	NaN	0.000000	0.001579	0.001697	28.08	0.080539	0.002011	40.0392	-72.0736	-163.489	-0.043554	0.577589	-0.493125	-0.494407	0.023800	40.0392	-0.493570	-2.78787e+06	-8.536873E-9	NaN
316	1.000000	0.586862	7.36816e+06	-54439.1	955.818	-29743.9	0.000000	0.000000	6.586953	-0.015446	NaN	0.000000	0.001611	0.001713	28.08	0.071490	0.002085	34.2886	13.2566	-163.999	0.017367	0.585552	-0.485135	-0.486445	-0.015446	34.2886	-0.484797	-2.1021e+06	7.347795E-9	NaN
316	1.000000	0.594894	7.36816e+06	-54439.1	955.819	-29743.9	0.000000	0.000000	6.594988	0.044914	NaN	0.000000	0.001631	0.001697	28.0801	0.016589	0.002018	8.219599	-43.4494	-166.818	-0.063630	0.593556	-0.477102	-0.478440	0.044914	8.219599	-0.481201	-1.87211e+06	-2.399084E-8	NaN
316	1.000000	0.602874	7.36816e+06	-54439.1	955.818	-29743.9	0.000000	0.000000	6.602965	-0.004822	NaN	0.000000	0.001617	0.001712	28.0804	0.127260	0.002098	60.647	-68.9477	-160.859	-0.007655	0.601576	-0.469123	-0.470421	-0.004822	60.647	-0.469063	-1.26551e+06	3.810573E-9	NaN
316	1.000000	0.610899	7.36816e+06	-54439.1	955.818	-29743.9	0.000000	0.000000	6.610991	0.011532	NaN	0.000000	0.001606	0.001682	28.0798	0.035404	0.002068	17.1233	103.699	-162.434	0.006782	0.609520	-0.461098	-0.462477	0.011532	17.1233	-0.461603	-994345	-1.159778E-8	NaN
316	1.000000	0.618894	7.36816e+06	-54439.1	955.818	-29743.9	0.000000	0.000000	6.618987	0.033714	NaN	0.000000	0.001610	0.001711	28.0797	0.070699	0.001934	36.5602	-151.523	-161.687	-0.007541	0.617619	-0.453103	-0.454377	0.033714	36.5602	-0.453795	-772255	-4.365713E-8	NaN
316	1.000000	0.626892	7.36816e+06	-54439.1	955.818	-29743.9	0.000000	0.000000	6.626984	0.012128	NaN	0.000000	0.001583	0.001717	28.0798	0.109879	0.002026	54.2453	-30.3302	-165.623	0.050265	0.625600	-0.445105	-0.446397	0.012128	54.2453	-0.445272	-585777	-2.070490E-8	NaN
316	1.000000	0.634930	7.36816e+06	-54439.1	955.818	-29743.9	0.000000	0.000000	6.635023	0.014992	NaN	0.000000	0.001576	0.001715	28.0799	0.075054	0.001979	37.9174	4.876610	-167.522	0.037068	0.633634	-0.437066	-0.438363	0.014992	37.9174	-0.437363	-453038	-3.309247E-8	NaN
316	1.000000	0.642892	7.36816e+06	-54439.1	955.819	-29743.9	0.000000	0.000000	6.642984	0.012533	NaN	0.000000	0.001610	0.001702	28.0797	0.056824	0.002149	26.4404	22.9298	-164.409	0.025680	0.641630	-0.429105	-0.430366	0.012533	26.4404	-0.429460	-350290	-3.577865E-8	NaN
316	1.000000	0.650915	7.36816e+06	-54439.1	955.818	-29743.9	0.000000	0.000000	6.651004	-0.071100	NaN	0.000000	0.001579	0.001695	28.0798	0.061324	0.002167	28.2962	37.2381	-164.903	0.052857	0.649628	-0.421082	-0.422369	-0.071100	28.2962	-0.419197	-250626	2.836895E-7	NaN
316	1.000000	0.658892	7.36816e+06	-54439.1	955.818	-29743.9	0.000000	0.000000	6.658982	-0.026854	NaN	0.000000	0.001606	0.001699	28.0797	0.140573	0.002030	69.2361	5.735754	-161.903	-0.036792	0.657631	-0.413105	-0.414366	-0.026854	69.2361	-0.412814	-203423	1.320116E-7	NaN
316	1.000000	0.666893	7.36816e+06	-54439.1	955.818	-29743.9	0.000000	0.000000	6.666986	0.037137	NaN	0.000000	0.001605	0.001700	28.0795	0.043316	0.002023	21.4091	-39.2065	-165.41	0.016364	0.665612	-0.405104	-0.406384	0.037137	21.4091	-0.406405	-164909	-2.251967E-7	NaN
316	1.000000	0.674921	7.36816e+06	-54439.1	955.819	-29743.9	0.000000	0.000000	6.675010	-0.069002	NaN	0.000000	0.001592	0.001698	28.0797	0.075499	0.002119	35.6251	120.936	-164.39	-0.046846	0.673668	-0.397076	-0.398328	-0.069002	35.6251	-0.395623	-115753	5.961176E-7	NaN
316	1.000000	0.682925	7.36816e+06	-54439.1	955.818	-29743.9	0.000000	0.000000	6.683015	-0.022226	NaN	0.000000	0.001589	0.001701	28.0797	0.110937	0.001899	58.4108	-173.691	-164.856	0.008395	0.681603	-0.389072	-0.390394	-0.022226	58.4108	-0.388787	-92429.1	2.404628E-7	NaN
316	1.000000	0.690929	7.36816e+06	-54439.1	955.818	-29743.9	0.000000	0.000000	6.691019	-0.024094	NaN	0.000000	0.001612	0.001702	28.0798	0.074102	0.001871	39.5982	-102.822	-163.833	-0.010318	0.689650	-0.381068	-0.382346	-0.024094	39.5982	-0.380612	-70577.4	3.413904E-7	NaN
316	1.000000	0.698920	7.36816e+06	-54439.1	955.819	-29743.9	0.000000	0.000000	6.699010	-0.019598	NaN	0.000000	0.001594	0.001680	28.0798	0.087159	0.001943	44.8628	-58.1759	-166.828	-0.045472	0.697590	-0.373077	-0.374407	-0.019598	44.8628	-0.372749	-54413.2	3.601642E-7	NaN
316	1.000000	0.706928	7.36816e+06	-54439.1	955.818	-29743.9	0.000000	0.000000	6.707019	-0.020965	NaN	0.000000	0.001571	0.001681	28.0792	0.056437	0.002078	27.1558	-98.298	-166.872	-0.043793	0.705650	-0.365068	-0.366347	-0.020965	27.1558	-0.364489	-41370.1	5.067671E-7	NaN
316	1.000000	0.714939	7.36816e+06	-54439.1	955.818	-29743.9	0.000000	0.000000	6.715030	-0.017338	NaN	0.000000	0.001588	0.001691	28.0785	0.079017	0.002002	39.4731	-111.147	-165.927	0.057926	0.713660	-0.357058	-0.358337	-0.017338	39.4731	-0.356729	-31953.9	5.425825E-7	NaN
316	1.000000	0.722938	7.36816e+06	-54439.1	955.818	-29743.9	0.000000	0.000000	6.723029	0.001371	NaN	0.000000	0.001601	0.001662	28.0785	0.033397	0.001975	16.9055	-163.432	-167.158	0.007065	0.721659	-0.349059	-0.350337	0.001371	16.9055	-0.349120	-24787.2	-5.529194E-8	NaN
316	1.000000	0.730957	7.36816e+06	-54439.1	955.819	-29743.9	0.000000	0.000000	6.731045	-0.074071	NaN	0.000000	0.001616	0.001677	28.0786	0.086423	0.002021	42.7715	135.099	-162.535	-0.088417	0.729608	-0.341040	-0.342389	-0.074071	42.7715	-0.339741	-18104.4	4.091314E-6	NaN
316	1.000000	0.738939	7.36816e+06	-54439.1	955.818	-29743.9	0.000000	0.000000	6.739029	-0.036217	NaN	0.000000	0.001584	0.001675	28.0786	0.088715	0.001941	45.7085	23.1099	-168.234	0.004188	0.737617	-0.333057	-0.334379	-0.036217	45.7085	-0.332463	-14174.3	2.555079E-6	NaN
316	1.000000	0.746972	7.36816e+06	-54439.1	955.817	-29743.9	0.000000	0.000000	6.747063	-0.003152	NaN	0.000000	0.001596	0.001688	28.0789	0.095099	0.002056	46.2635	173.776	-165.5	0.032948	0.745638	-0.325025	-0.326359	-0.003152	46.2635	-0.324974	-11009.1	2.863188E-7	NaN
316	1.000000	0.754935	7.36816e+06	-54439.1	955.818	-29743.9	0.000000	0.000000	6.755026	-0.017406	NaN	0.000000	0.001619	0.001731	28.0787	0.074866	0.002101	35.6259	38.9226	-165.177	0.058372	0.753675	-0.317061	-0.318322	-0.017406	35.6259	-0.316695	-8316.69	2.092857E-6	NaN
316	1.000000	0.762962	7.36816e+06	-54439.1	955.818	-29743.9	0.000000	0.000000	6.763051	-0.059151	NaN	0.000000	0.001600	0.001740	28.0786	0.041144	0.001786	23.0316	-101.137	-163.091	-0.037577	0.761647	-0.309034	-0.310349	-0.059151	23.0316	-0.307108	-6001.02	9.856828E-6	NaN
316	1.000000	0.770958	7.36816e+06	-54439.1	955.818	-29743.9	0.000000	0.000000	6.771051	0.045861	NaN	0.000000	0.001624	0.001712	28.0785	0.045316	0.001959	23.1315	64.7871	-163.901	0.022730	0.769670	-0.301039	-0.302327	0.045861	23.1315	-0.302526	-5131.08	-8.937793E-6	NaN
316	1.000000	0.778981	7.36816e+06	-54439.1	955.817	-29743.9	0.000000	0.000000	6.779072	-0.029375	NaN	0.000000	0.001630	0.001679	28.0786	0.025698	0.001962	13.0988	128.205	-165.398	0.008244	0.777677	-0.293015	-0.294320	-0.029375	13.0988	-0.291334	-3493.59	8.408151E-6	NaN
316	1.000000	0.786957	7.36816e+06	-54439.1	955.818	-29743.9	0.000000	0.000000	6.787052	0.080483	NaN	0.000000	0.001618	0.001673	28.0788	0.051253	0.001963	26.1123	-5.211545	-166.957	0.108832	0.785631	-0.285040	-0.286365	0.080483	26.1123	-0.287352	-3045.01	-2.643098E-5	NaN
316	1.000000	0.794981	7.36816e+06	-54439.1	955.82	-29743.9	0.000000	0.000000	6.795073	0.018263	NaN	0.000000	0.001629	0.001712	28.0788	0.034900	0.002029	17.2009	-12.5049	-163.092	0.074194	0.793659	-0.277016	-0.278338	0.018263	17.2009	-0.277812	-2187.44	-8.348845E-6	NaN
316	1.000000	0.802952	7.36816e+06	-54439.1	955.819	-29743.9	0.000000	0.000000	6.803045	0.025746	NaN	0.000000	0.001609	0.001703	28.0788	0.024895	0.002000	12.4494	-36.1707	-167.777	-0.011066	0.801690	-0.269045	-0.270306	0.025746	12.4494	-0.270596	-1700.59	-1.513942E-5	NaN
316	1.000000	0.810982	7.36816e+06	-54439.1	955.818	-29743.9	0.000000	0.000000	6.811072	-0.024390	NaN	0.000000	0.001580	0.001723	28.0784	0.072602	0.002137	33.9766	-34.2199	-164.23	0.047167	0.809665	-0.261015	-0.262331	-0.024390	33.9766	-0.260477	-1191.85	2.046428E-5	NaN
316	1.000000	0.818973	7.36816e+06	-54439.1	955.818	-29743.9	0.000000	0.000000	6.819065	0.009689	NaN	0.000000	0.001542	0.001748	28.0785	0.040541	0.001972	20.5622	-91.2095	-165.831	0.015220	0.817676	-0.253024	-0.254321	0.009689	20.5622	-0.253377	-927.068	-1.045145E-5	NaN
316	1.000000	0.826958	7.36816e+06	-54439.1	955.819	-29743.9	0.000000	0.000000	6.827051	0.039987	NaN	0.000000	0.001584	0.001725	28.0783	0.061216	0.002101	29.1329	-1.042285	-162.538	0.006937	0.825674	-0.245039	-0.246323	0.039987	29.1329	-0.246068	-714.569	-5.595889E-5	NaN
316	1.000000	0.834976	7.36816e+06	-54439.1	955.819	-29743.9	0.000000	0.000000	6.835070	0.046935	NaN	0.000000	0.001544	0.001764	28.0784	0.111696	0.002030	55.0146	142.557	-165.013	0.019604	0.833684	-0.237021	-0.238312	0.046935	55.0146	-0.237661	-528.406	-8.882446E-5	NaN
316	1.000000	0.842999	7.36816e+06	-54439.1	955.819	-29743.9	0.000000	0.000000	6.843093	0.059931	NaN	0.000000	0.001556	0.001749	28.079	0.115459	0.001924	59.9958	-122.946	-165.018	0.012739	0.841687	-0.228998	-0.230310	0.059931	59.9958	-0.229747	-396.758	-0.000151	NaN
316	1.000000	0.851020	7.36816e+06	-54439.1	955.818	-29743.9	0.000000	0.000000	6.851111	-0.018374	NaN	0.000000	0.001622	0.001738	28.0797	0.098333	0.001954	50.3261	-178.899	-165.902	0.019695	0.849687	-0.220977	-0.222310	-0.018374	50.3261	-0.220703	-285.042	6.445962E-5	NaN
316	1.000000	0.859008	7.36816e+06	-54439.1	955.818	-29743.9	0.000000	0.000000	6.859098	-0.041714	NaN	0.000000	0.001639	0.001770	28.08	0.054726	0.001966	27.8296	-54.9142	-167.274	0.033388	0.857698	-0.212989	-0.214299	-0.041714	27.8296	-0.211865	-205.58	0.000203	NaN
316	1.000000	0.867005	7.36816e+06	-54439.1	955.818	-29743.9	0.000000	0.000000	6.867097	0.008972	NaN	0.000000	0.001659	0.001761	28.0796	0.045836	0.001971	23.2585	-149.739	-164.206	0.030310	0.865661	-0.204992	-0.206336	0.008972	23.2585	-0.205281	-160.746	-5.581368E-5	NaN
316	1.000000	0.875006	7.36816e+06	-54439.1	955.819	-29743.9	0.000000	0.000000	6.875097	-0.030498	NaN	0.000000	0.001634	0.001736	28.0796	0.039717	0.001999	19.8704	30.7523	-165.715	0.046160	0.873688	-0.196990	-0.198308	-0.030498	19.8704	-0.195839	-112.486	0.000271	NaN
316	1.000000	0.883036	7.36816e+06	-54439.1	955.818	-29743.9	0.000000	0.000000	6.883129	0.035198	NaN	0.000000	0.001583	0.001743	28.0795	0.061406	0.001988	30.8807	156.812	-167.135	-0.032564	0.881643	-0.188961	-0.190354	0.035198	30.8807	-0.189816	-89.3203	-0.000394	NaN
316	1.000000	0.891031	7.36816e+06	-54439.1	955.818	-29743.9	0.000000	0.000000	6.891125	0.035186	NaN	0.000000	0.001585	0.001740	28.0797	0.039985	0.001993	20.0606	-2.509380	-162.909	0.067071	0.889735	-0.180965	-0.182262	0.035186	20.0606	-0.182281	-66.7091	-0.000527	NaN
316	1.000000	0.899011	7.36816e+06	-54439.1	955.818	-29743.9	0.000000	0.000000	6.899104	0.032384	NaN	0.000000	0.001619	0.001743	28.0797	0.037098	0.002160	17.1713	147.028	-164.329	-0.021043	0.897688	-0.172986	-0.174309	0.032384	17.1713	-0.174400	-48.9404	-0.000662	NaN
316	1.000000	0.906995	7.36816e+06	-54439.1	955.819	-29743.9	0.000000	0.000000	6.907089	0.061421	NaN	0.000000	0.001615	0.001742	28.0796	0.037235	0.002005	18.5681	-130.686	-166.457	0.032351	0.905707	-0.165002	-0.166290	0.061421	18.5681	-0.167482	-37.1343	-0.001654	NaN
316	1.000000	0.914990	7.36816e+06	-54439.1	955.818	-29743.9	0.000000	0.000000	6.915082	0.005791	NaN	0.000000	0.001575	0.001740	28.0796	0.033022	0.002031	16.2598	38.7577	-164.545	-0.005700	0.913735	-0.157007	-0.158262	0.005791	16.2598	-0.157274	-24.5118	-0.000236	NaN
316	1.000000	0.923052	7.36816e+06	-54439.1	955.819	-29743.9	0.000000	0.000000	6.923145	0.048533	NaN	0.000000	0.001589	0.001738	28.0795	0.076202	0.002036	37.4264	97.2191	-166.324	-0.004729	0.921739	-0.148945	-0.150258	0.048533	37.4264	-0.149918	-18.051	-0.002689	NaN
316	1.000000	0.931003	7.36816e+06	-54439.1	955.819	-29743.9	0.000000	0.000000	6.931094	-0.013801	NaN	0.000000	0.001615	0.001738	28.0797	0.065689	0.001990	33.0134	24.7626	-167.722	-0.060848	0.929704	-0.140994	-0.142293	-0.013801	33.0134	-0.140680	-12.1824	0.001133	NaN
316	1.000000	0.939031	7.36816e+06	-54439.1	955.819	-29743.9	0.000000	0.000000	6.939121	-0.022764	NaN	0.000000	0.001601	0.001728	28.0797	0.049821	0.002001	24.8958	20.9354	-164.79	-0.051217	0.937726	-0.132966	-0.134270	-0.022764	24.8958	-0.132280	-8.435825	0.002698	NaN
316	1.000000	0.947034	7.36816e+06	-54439.1	955.818	-29743.9	0.000000	0.000000	6.947126	0.016920	NaN	0.000000	0.001625	0.001756	28.0797	0.036802	0.001959	18.7819	47.987	-166.128	0.093575	0.945685	-0.124963	-0.126312	0.016920	18.7819	-0.125639	-6.260568	-0.002703	NaN
316	1.000000	0.955035	7.36816e+06	-54439.1	955.818	-29743.9	0.000000	0.000000	6.955125	-0.034865	NaN	0.000000	0.001561	0.001755	28.0799	0.110395	0.001898	58.169	136.871	-164.544	-0.055480	0.953695	-0.116962	-0.118302	-0.034865	58.169	-0.116512	-4.103753	0.008496	NaN
316	1.000000	0.963040	7.36816e+06	-54439.1	955.819	-29743.9	0.000000	0.000000	6.963132	0.015660	NaN	0.000000	0.001573	0.001735	28.0797	0.116883	0.001852	63.1027	-171.484	-169.608	0.031839	0.961731	-0.108957	-0.110266	0.015660	63.1027	-0.109143	-2.882459	-0.005433	NaN
316	1.000000	0.971062	7.36816e+06	-54439.1	955.817	-29743.9	0.000000	0.000000	6.971152	-0.019681	NaN	0.000000	0.001596	0.001710	28.0804	0.060017	0.002046	29.3318	61.1089	-164.172	-0.012375	0.969757	-0.100935	-0.102239	-0.019681	29.3318	-0.100432	-1.867830	0.010537	NaN
316	1.000000	0.979053	7.36816e+06	-54439.1	955.818	-29743.9	0.000000	0.000000	6.979145	-0.010528	NaN	0.000000	0.001600	0.001714	28.0796	0.019035	0.002041	9.324836	111.264	-162.821	0.001049	0.977743	-0.092943	-0.094254	-0.010528	9.324836	-0.092096	-1.209763	0.008702	NaN
316	1.000000	0.987043	7.36816e+06	-54439.1	955.818	-29743.9	0.000000	0.000000	6.987134	-0.000346	NaN	0.000000	0.001615	0.001717	28.0787	0.025438	0.001900	13.3892	-157.072	-166.112	-0.056021	0.985758	-0.084954	-0.086239	-0.000346	13.3892	-0.084935	-0.818652	0.000423	NaN
316	1.000000	0.995054	7.36816e+06	-54439.1	955.817	-29743.9	0.000000	0.000000	6.995144	-0.032799	NaN	0.000000	0.001580	0.001745	28.0787	0.091264	0.001911	47.7526	159.954	-165.247	-0.122500	0.993743	-0.076943	-0.078254	-0.032799	47.7526	-0.076427	-0.502650	0.065251	NaN
316	1.000000	1.003018	7.36816e+06	-54439.1	955.818	-29743.9	0.000000	0.000000	7.003108	-0.045156	NaN	0.000000	0.001588	0.001725	28.0787	0.053879	0.002135	25.2383	102.724	-163.81	0.020109	1.001743	-0.068979	-0.070254	-0.045156	25.2383	-0.067637	-0.294481	0.153342	NaN
316	1.000000	1.011022	7.36816e+06	-54439.1	955.818	-29743.9	0.000000	0.000000	7.011114	0.007515	NaN	0.000000	0.001557	0.001690	28.079	0.092470	0.002073	44.6098	128.577	-162.589	-0.078012	1.009769	-0.060974	-0.062228	0.007515	44.6098	-0.061101	-0.193623	-0.038812	NaN
316	1.000000	1.019047	7.36816e+06	-54439.1	955.819	-29743.9	0.000000	0.000000	7.019140	0.029890	NaN	0.000000	0.001514	0.001732	28.0785	0.016841	0.002110	7.980298	92.9614	-165.936	0.044839	1.017788	-0.052950	-0.054209	0.029890	7.980298	-0.055759	-0.135591	-0.220444	NaN
316	1.000000	1.027052	7.36816e+06	-54439.1	955.817	-29743.9	0.000000	0.000000	7.027146	0.040556	NaN	0.000000	0.001558	0.001724	28.0788	0.087283	0.002077	42.0263	-103.139	-165.215	0.050442	1.025731	-0.044944	-0.046266	0.040556	42.0263	-0.045668	-0.067363	-0.602056	NaN
316	1.000000	1.035047	7.36816e+06	-54439.1	955.818	-29743.9	0.000000	0.000000	7.035141	0.044702	NaN	0.000000	0.001542	0.001729	28.0787	0.035276	0.001816	19.4299	91.7052	-162.539	0.079731	1.033686	-0.036949	-0.038310	0.044702	19.4299	-0.038675	-0.041230	-1.084202	NaN
316	1.000000	1.043041	7.36816e+06	-54439.1	955.817	-29743.9	0.000000	0.000000	7.043132	-0.026652	NaN	0.000000	0.001558	0.001744	28.0786	0.090951	0.002012	45.2106	-25.1671	-162.36	-0.002205	1.041807	-0.028955	-0.030189	-0.026652	45.2106	-0.028513	-0.020938	1.272870	NaN
316	1.000000	1.051091	7.36816e+06	-54439.1	955.818	-29743.9	0.000000	0.000000	7.051184	0.036809	NaN	0.000000	0.001614	0.001735	28.0788	0.119752	0.002042	58.6437	-78.7772	-163.554	0.079805	1.049733	-0.020906	-0.022263	0.036809	58.6437	-0.021377	-0.013615	-2.703661	NaN
316	1.000000	1.059093	7.36816e+06	-54439.1	955.818	-29743.9	0.000000	0.000000	7.059187	0.067990	NaN	0.000000	0.001588	0.001713	28.0787	0.111466	0.001991	55.9772	-139.547	-165.917	0.066409	1.057770	-0.012904	-0.014226	0.067990	55.9772	-0.013815	-0.008575	-7.928675	NaN
316	1.000000	1.067059	7.36816e+06	-54439.1	955.818	-29743.9	0.000000	0.000000	7.067148	-0.068193	NaN	0.000000	0.001573	0.001730	28.0791	0.077421	0.001938	39.95	96.2354	-168.077	-0.060634	1.065793	-0.004938	-0.006204	-0.068193	39.95	-0.003658	-0.002556	26.6806	NaN
316	1.000000	1.075043	7.36816e+06	-54439.1	955.818	-29743.9	0.000000	0.000000	7.075234	2.419045	NaN	0.000000	0.001609	0.001735	28.0787	3.239740	0.001853	1748.63	5.985776	-169.153	0.986903	1.073770	0.003046	0.001774	2.419045	1748.63	0.002008	0.001562	1549.09	40428.4
316	2.000000	1.081643	7.36816e+06	-54439.1	955.818	-29743.9	0.000000	0.000000	7.082100	8.891553	NaN	0.000000	0.001525	0.001733	28.0789	9.014129	0.001756	5133.57	10.9008	-172.942	10.4115	1.081290	0.009646	0.009294	8.891553	5133.57	0.008347	0.007402	1201.26	54515.9
316	2.000000	1.083617	7.36816e+06	-54439.1	955.818	-29743.9	0.000000	0.000000	7.084143	10.5688	NaN	0.000000	0.001569	0.001738	28.0787	10.0901	0.001538	6560.84	6.947490	-172.139	10.961	1.083305	0.011620	0.011309	10.5688	6560.84	0.010412	0.009643	1096.05	61042.9
316	2.000000	1.085612	7.36816e+06	-54439.1	955.817	-29743.9	0.000000	0.000000	7.086249	13.2471	NaN	0.000000	0.001581	0.001718	28.0787	13.2329	0.001888	7010.79	11.7272	-175.385	13.9994	1.085259	0.013615	0.013263	13.2471	7010.79	0.012198	0.011728	1129.49	59145.4
316	2.000000	1.087576	7.36816e+06	-54439.1	955.818	-29743.9	0.000000	0.000000	7.088488	19.9515	NaN	0.000000	0.001580	0.001725	28.0788	15.9932	0.001838	8701.14	6.785967	-175.126	18.6565	1.087257	0.015579	0.015260	19.9515	8701.14	0.013859	0.013794	1446.35	67686
316	2.000000	1.089560	7.36816e+06	-54439.1	955.818	-29743.9	0.000000	0.000000	7.090355	17.1134	NaN	0.000000	0.001594	0.001704	28.0787	16.4915	0.001823	9047.41	8.347054	-175.442	16.98	1.089316	0.017563	0.017320	17.1134	9047.41	0.016144	0.016842	1016.14	63695
316	2.000000	1.091516	7.36816e+06	-54439.1	955.818	-29743.9	0.000000	0.000000	7.092528	22.3784	NaN	0.000000	0.001577	0.001696	28.0801	18.0959	0.001846	9803.81	3.211395	-171.169	21.5771	1.091280	0.019519	0.019284	22.3784	9803.81	0.017807	0.019213	1164.75	64620.6
316	2.000000	1.093556	7.36816e+06	-54439.1	955.818	-29743.9	0.000000	0.000000	7.094627	23.8158	NaN	0.000000	0.001506	0.001747	28.0799	19.8015	0.001622	12208.4	6.584217	-177.396	23.0866	1.093240	0.021559	0.021243	23.8158	12208.4	0.020096	0.022693	1049.46	74042.3
316	2.000000	1.095540	7.36816e+06	-54439.1	955.818	-29743.9	0.000000	0.000000	7.096909	31.0555	NaN	0.000000	0.001549	0.001756	28.08	23.0101	0.001741	13219.4	7.255870	-178.358	30.4235	1.095199	0.023543	0.023203	31.0555	13219.4	0.021781	0.025419	1221.74	75754.2
316	2.000000	1.097574	7.36816e+06	-54439.1	955.818	-29743.9	0.000000	0.000000	7.099084	34.4781	NaN	0.000000	0.001537	0.001759	28.0809	25.0055	0.001828	13677.7	9.832408	-179.643	35.2487	1.097268	0.025577	0.025272	34.4781	13677.7	0.023687	0.028670	1202.58	73803
316	2.000000	1.099530	7.36816e+06	-54439.1	955.819	-29743.9	0.000000	0.000000	7.101213	38.6946	NaN	0.000000	0.001558	0.001701	28.08	26.5063	0.001677	15810.1	7.301934	179.958	38.5004	1.099215	0.027533	0.027218	38.6946	15810.1	0.025697	0.032297	1198.1	80376.6
316	2.000000	1.101538	7.36816e+06	-54439.1	955.818	-29743.9	0.000000	0.000000	7.103457	44.4383	NaN	0.000000	0.001607	0.001747	28.0801	29.5584	0.001728	17105.3	7.807716	179.182	43.14	1.101167	0.029541	0.029170	44.4383	17105.3	0.027592	0.035901	1237.79	82479.9
316	2.000000	1.103514	7.36816e+06	-54439.1	955.818	-29743.9	0.000000	0.000000	7.105574	47.8487	NaN	0.000000	0.001560	0.001728	28.08	30.7662	0.001748	17596.3	3.607341	-177.357	46.8741	1.103222	0.031517	0.031225	47.8487	17596.3	0.029478	0.039669	1206.2	80717.7
316	2.000000	1.105537	7.36816e+06	-54439.1	955.818	-29743.9	0.000000	0.000000	7.107924	55.798	NaN	0.000000	0.001576	0.001747	28.0799	33.5227	0.001687	19874	9.929026	176.963	56.9143	1.105112	0.033540	0.033115	55.798	19874	0.031434	0.043769	1274.83	86791
316	2.000000	1.107579	7.36816e+06	-54439.1	955.818	-29743.9	0.000000	0.000000	7.110026	57.2702	NaN	0.000000	0.001564	0.001771	28.0808	34.7953	0.001914	18182.2	8.723623	179.885	58.6167	1.107142	0.035582	0.035145	57.2702	18182.2	0.033220	0.047682	1201.08	76075
316	2.000000	1.109524	7.36816e+06	-54439.1	955.818	-29743.9	0.000000	0.000000	7.112124	60.9754	NaN	0.000000	0.001569	0.001756	28.08	36.9813	0.001715	21560	4.983834	179.871	61.2815	1.109303	0.037527	0.037307	60.9754	21560	0.035406	0.052696	1157.12	85809.4
316	2.000000	1.111506	7.36816e+06	-54439.1	955.817	-29743.9	0.000000	0.000000	7.114321	66.2162	NaN	0.000000	0.001555	0.001747	28.0802	39.2048	0.001711	22916.9	3.642636	-179.899	64.729	1.111273	0.039509	0.039276	66.2162	22916.9	0.037342	0.057340	1154.79	87437.6
316	2.000000	1.113459	7.36816e+06	-54439.1	955.818	-29743.9	0.000000	0.000000	7.116961	82.9028	NaN	0.000000	0.001575	0.001784	28.08	40.4651	0.001657	24427.5	5.498306	177.524	80.4207	1.113140	0.041462	0.041143	82.9028	24427.5	0.038917	0.061259	1353.31	90171.1
316	2.000000	1.115493	7.36816e+06	-54439.1	955.818	-29743.9	0.000000	0.000000	7.119115	85.8276	NaN	0.000000	0.001621	0.001749	28.08	44.1116	0.001726	25550.9	7.686793	174.727	84.8141	1.115160	0.043497	0.043163	85.8276	25550.9	0.040977	0.066578	1289.12	90471.7
316	2.000000	1.117559	7.36816e+06	-54439.1	955.817	-29743.9	0.000000	0.000000	7.121814	101.191	NaN	0.000000	0.001615	0.001752	28.0802	46.6903	0.001746	26736.2	7.282473	175.866	101.001	1.117062	0.045563	0.045065	101.191	26736.2	0.042724	0.071258	1420.07	91507.3
316	2.000000	1.119478	7.36816e+06	-54439.1	955.818	-29743.9	0.000000	0.000000	7.124083	109.723	NaN	0.000000	0.001617	0.001753	28.08	48.2549	0.001853	26045.1	6.876702	175.722	108.901	1.119145	0.047481	0.047148	109.723	26045.1	0.044322	0.075673	1449.95	86502.4
316	2.000000	1.121397	7.36816e+06	-54439.1	955.818	-29743.9	0.000000	0.000000	7.126310	117.227	NaN	0.000000	0.001585	0.001718	28.0801	51.0464	0.001928	26471.5	3.820977	178.873	112.575	1.121150	0.049400	0.049154	117.227	26471.5	0.046079	0.080679	1453.01	85147.6
316	2.000000	1.123511	7.36816e+06	-54439.1	955.818	-29743.9	0.000000	0.000000	7.128880	128.301	NaN	0.000000	0.001598	0.001753	28.0799	51.5718	0.001715	30066.8	5.002936	176.127	127.607	1.123090	0.051514	0.051093	128.301	30066.8	0.048314	0.087272	1470.12	92987
316	2.000000	1.125528	7.36816e+06	-54439.1	955.818	-29743.9	0.000000	0.000000	7.131244	136.745	NaN	0.000000	0.001585	0.001683	28.0786	55.193	0.001785	30921	9.049035	171.734	137.974	1.125167	0.053531	0.053170	136.745	30921	0.050214	0.093077	1469.17	92599.1
316	2.000000	1.127466	7.36816e+06	-54439.1	955.819	-29743.9	0.000000	0.000000	7.133874	153.572	NaN	0.000000	0.001590	0.001719	28.0792	56.9927	0.001822	31281.3	9.106548	172.253	150.912	1.127138	0.055469	0.055141	153.572	31281.3	0.051787	0.098017	1566.8	91287
316	2.000000	1.129417	7.36816e+06	-54439.1	955.818	-29743.9	0.000000	0.000000	7.136466	169.138	NaN	0.000000	0.001618	0.001733	28.0789	59.0299	0.001763	33487.2	6.937775	173.219	164.871	1.129118	0.057420	0.057121	169.138	33487.2	0.053632	0.103969	1626.81	94885.4
316	2.000000	1.131460	7.36816e+06	-54439.1	955.818	-29743.9	0.000000	0.000000	7.139150	184.703	NaN	0.000000	0.001625	0.001739	28.0788	61.3236	0.001744	35164.8	2.577941	176.899	182.281	1.131200	0.059464	0.059204	184.703	35164.8	0.055524	0.110250	1675.31	96759.1
316	2.000000	1.133414	7.36816e+06	-54439.1	955.818	-29743.9	0.000000	0.000000	7.141535	195.189	NaN	0.000000	0.001620	0.001742	28.0786	62.7645	0.001742	36039.4	6.778651	172.497	190.397	1.133125	0.061418	0.061128	195.189	36039.4	0.057356	0.116497	1675.48	96470.1
316	2.000000	1.135507	7.36816e+06	-54439.1	955.817	-29743.9	0.000000	0.000000	7.144611	219.092	NaN	0.000000	0.001622	0.001734	28.0787	65.9117	0.001817	36271.4	7.804287	172.392	218.549	1.135050	0.063510	0.063053	219.092	36271.4	0.058980	0.122175	1793.26	94808.2
316	2.000000	1.137445	7.36816e+06	-54439.1	955.818	-29743.9	0.000000	0.000000	7.147185	234.543	NaN	0.000000	0.001585	0.001729	28.0787	67.3485	0.001782	37801.7	4.220363	175.031	231.344	1.137198	0.065448	0.065201	234.543	37801.7	0.060795	0.128675	1822.76	96280.5
316	2.000000	1.139387	7.36816e+06	-54439.1	955.818	-29743.9	0.000000	0.000000	7.149702	248.525	NaN	0.000000	0.001566	0.001705	28.0787	68.0734	0.001727	39417.2	3.237813	175.56	244.643	1.139154	0.067391	0.067157	248.525	39417.2	0.062662	0.135526	1833.78	97824.4
316	2.000000	1.141437	7.36816e+06	-54439.1	955.818	-29743.9	0.000000	0.000000	7.152508	266.919	NaN	0.000000	0.001577	0.001768	28.0786	71.774	0.001873	38321.8	2.555561	176.586	265.595	1.141204	0.069440	0.069208	266.919	38321.8	0.064216	0.141359	1888.24	93123.3
316	2.000000	1.143439	7.36816e+06	-54439.1	955.818	-29743.9	0.000000	0.000000	7.155327	286.78	NaN	0.000000	0.001582	0.001778	28.0784	72.9132	0.001892	38531.6	7.371487	171.647	285.457	1.143165	0.071442	0.071168	286.78	38531.6	0.065860	0.147656	1942.21	91614.6
316	2.000000	1.145341	7.36816e+06	-54439.1	955.817	-29743.9	0.000000	0.000000	7.158155	309.275	NaN	0.000000	0.001612	0.001768	28.0785	73.4119	0.001659	44248.5	5.556688	172.293	302.016	1.145032	0.073345	0.073035	309.275	44248.5	0.068103	0.156455	1976.76	102206
316	2.000000	1.147496	7.36816e+06	-54439.1	955.818	-29743.9	0.000000	0.000000	7.161031	326.817	NaN	0.000000	0.001601	0.001749	28.0787	76.7854	0.001862	41230.4	7.450291	171.878	326.096	1.147100	0.075500	0.075104	326.817	41230.4	0.069555	0.162281	2013.89	93509.6
316	2.000000	1.149397	7.36816e+06	-54439.1	955.818	-29743.9	0.000000	0.000000	7.163799	347.885	NaN	0.000000	0.001615	0.001731	28.0789	77.637	0.001765	43978.9	5.955822	172.395	343.35	1.149051	0.077400	0.077054	347.885	43978.9	0.071468	0.170110	2045.06	97421.1
316	2.000000	1.151523	7.36816e+06	-54439.1	955.818	-29743.9	0.000000	0.000000	7.166653	365.601	NaN	0.000000	0.001586	0.001744	28.0786	81.2045	0.001958	41478.9	10.9169	168.678	367.995	1.150950	0.079526	0.078953	365.601	41478.9	0.072915	0.176148	2075.53	90294.4
316	2.000000	1.153333	7.36816e+06	-54439.1	955.819	-29743.9	0.000000	0.000000	7.169101	381.108	NaN	0.000000	0.001592	0.001723	28.0785	80.1411	0.001669	48028	1.514431	175.853	374.278	1.153095	0.081336	0.081098	381.108	48028	0.075385	0.186679	2041.52	101559
316	2.000000	1.155271	7.36816e+06	-54439.1	955.819	-29743.9	0.000000	0.000000	7.171436	390.752	NaN	0.000000	0.001583	0.001717	28.0787	82.565	0.001738	47501.5	2.303336	175.12	382.489	1.155103	0.083274	0.083107	390.752	47501.5	0.077104	0.194182	2012.29	98486.2
316	2.000000	1.157627	7.36816e+06	-54439.1	955.819	-29743.9	0.000000	0.000000	7.174416	405.917	NaN	0.000000	0.001610	0.001728	28.0789	85.2919	0.001756	48575.9	3.324591	174.417	417.08	1.157346	0.085630	0.085349	405.917	48575.9	0.079363	0.204247	1987.39	98201.2
316	2.000000	1.159366	7.36816e+06	-54439.1	955.819	-29743.9	0.000000	0.000000	7.177482	438.2	NaN	0.000000	0.001576	0.001739	28.0802	86.914	0.001737	50025.3	5.085704	172.478	433.288	1.159022	0.087369	0.087025	438.2	50025.3	0.080799	0.210772	2079.03	99553.6
316	2.000000	1.161310	7.36816e+06	-54439.1	955.818	-29743.9	0.000000	0.000000	7.180412	462.148	NaN	0.000000	0.001594	0.001757	28.0802	88.1661	0.001709	51576.1	0.273940	176.556	454.577	1.161004	0.089314	0.089007	462.148	51576.1	0.082593	0.219055	2109.73	100680
316	2.000000	1.163430	7.36816e+06	-54439.1	955.818	-29743.9	0.000000	0.000000	7.183269	480.076	NaN	0.000000	0.001584	0.001734	28.0799	88.9192	0.001673	53138.8	2.030793	175.152	479.335	1.163073	0.091433	0.091076	480.076	53138.8	0.084657	0.228769	2098.52	101505
316	2.000000	1.165324	7.36816e+06	-54439.1	955.819	-29743.9	0.000000	0.000000	7.185920	498.479	NaN	0.000000	0.001561	0.001756	28.0799	93.7051	0.001865	50236.9	6.805422	170.353	490.377	1.164999	0.093327	0.093003	498.479	50236.9	0.085885	0.234643	2124.41	94752.7
316	2.000000	1.167407	7.36816e+06	-54439.1	955.818	-29743.9	0.000000	0.000000	7.188264	504.804	NaN	0.000000	0.001574	0.001746	28.0799	95.3013	0.001857	51326.9	6.216396	170.595	499.492	1.167127	0.095411	0.095131	504.804	51326.9	0.088034	0.245090	2059.67	94723.1
316	2.000000	1.169547	7.36816e+06	-54439.1	955.818	-29743.9	0.000000	0.000000	7.190505	507.292	NaN	0.000000	0.001581	0.001768	28.0801	94.9787	0.001786	53166.4	2.155100	174.26	510.562	1.169471	0.097550	0.097474	507.292	53166.4	0.090394	0.256802	1975.42	95854.2
316	2.000000	1.171518	7.36816e+06	-54439.1	955.819	-29743.9	0.000000	0.000000	7.194020	544.813	NaN	0.000000	0.001582	0.001759	28.0802	98.7179	0.001853	53264.7	8.613911	168.136	548.818	1.171132	0.099521	0.099135	544.813	53264.7	0.091850	0.264159	2062.45	94684.8
316	2.000000	1.173383	7.36816e+06	-54439.1	955.818	-29743.9	0.000000	0.000000	7.197102	574.401	NaN	0.000000	0.001614	0.001735	28.0801	97.642	0.001790	54548.3	1.510622	175.252	571.29	1.173031	0.101386	0.101034	574.401	54548.3	0.093489	0.272553	2107.48	95461.6
316	2.000000	1.175339	7.36816e+06	-54439.1	955.819	-29743.9	0.000000	0.000000	7.200101	599.738	NaN	0.000000	0.001589	0.001771	28.0801	100.244	0.001774	56511.1	4.840772	171.969	595.365	1.175009	0.103342	0.103012	599.738	56511.1	0.095383	0.282409	2123.65	97155.5
316	2.000000	1.177436	7.36816e+06	-54439.1	955.819	-29743.9	0.000000	0.000000	7.202776	613.821	NaN	0.000000	0.001589	0.001806	28.0799	103.405	0.001779	58115.5	7.344060	169.988	611.619	1.176945	0.105439	0.104949	613.821	58115.5	0.097517	0.293712	2089.87	97972.6
316	2.000000	1.179331	7.36816e+06	-54439.1	955.819	-29743.9	0.000000	0.000000	7.205113	624.554	NaN	0.000000	0.001607	0.001722	28.0799	104.331	0.001746	59761.3	3.877715	172.229	619.159	1.179042	0.107334	0.107045	624.554	59761.3	0.099496	0.304374	2051.93	98966.7