File: remote_trans/data/nanoindenter/0828-1/data/Data_2025-08-06,11h17m57s/2025-07-22_16-23-58_1_359.txt
2025-07-22, 16:23:58, 1
Index	Phase	Displacement	Time	Pos X	Pos Y	Pos Z	Rot A	Rot B	Piezo Z	Force A	Force B	Gripper	Voltage A	Voltage B	Temperature	Amplitude force	Amplitude pos	Stiffness	Phase shift	Phase excitation	Force A raw	Displacement raw	HMax	HMax raw	Real Force	Real Stiffness	Contact Depth	Area	Hardness	Reduced Mod.
[#]	[#]	[um]	[s]	[um]	[um]	[um]	[m°]	[m°]	[um]	[uN]	[uN]	[V]	[V]	[V]	[°C]	[uN]	[um]	[N/m]	[°]	[°]	[uN]	[um]	[um]	[um]	[uN]	[N/m]	[um]	[um^2]	[MPa]	[MPa]
359	1.000000	0.002744	7.36857e+06	-56589.1	955.819	-29738.9	0.000000	0.000000	6.002778	-0.038935	NaN	0.000000	0.001524	0.001708	28.0807	0.139157	0.000921	151.115	-148.655	-164.129	-0.075530	0.001520	-1.083922	-1.085147	-0.038935	151.115	-1.083729	-3.031112E+14	1.284514E-16	NaN
359	1.000000	0.010741	7.36857e+06	-56589.1	955.819	-29738.9	0.000000	0.000000	6.010778	0.043423	NaN	0.000000	0.001539	0.001743	28.0809	0.090392	0.000940	96.1943	135.239	-155.154	0.067151	0.009366	-1.075926	-1.077300	0.043423	96.1943	-1.076264	-2.406261E+14	-1.804569E-16	NaN
359	1.000000	0.018727	7.36857e+06	-56589.1	955.819	-29738.9	0.000000	0.000000	6.018764	0.017711	NaN	0.000000	0.001556	0.001742	28.0807	0.077726	0.001695	45.8588	86.3611	-170.028	0.029473	0.017410	-1.067939	-1.069257	0.017711	45.8588	-1.068229	-1.876691E+14	-9.437277E-17	NaN
359	1.000000	0.026751	7.36857e+06	-56589.1	955.818	-29738.9	0.000000	0.000000	6.026786	-0.023831	NaN	0.000000	0.001571	0.001713	28.0808	0.054705	0.001774	30.8296	-126.838	-165.55	-0.025300	0.025415	-1.059916	-1.061251	-0.023831	30.8296	-1.059336	-1.425272E+14	1.672015E-16	NaN
359	1.000000	0.034710	7.36857e+06	-56589.1	955.818	-29738.9	0.000000	0.000000	6.034746	-0.007315	NaN	0.000000	0.001517	0.001788	28.081	0.055206	0.001844	29.9312	116.961	-168.599	-0.037591	0.033408	-1.051956	-1.053258	-0.007315	29.9312	-1.051773	-1.127833E+14	6.486089E-17	NaN
359	1.000000	0.042711	7.36857e+06	-56589.1	955.818	-29738.9	0.000000	0.000000	6.042746	-0.041181	NaN	0.000000	0.001520	0.001727	28.0809	0.066873	0.002052	32.5917	97.6205	-163.198	-0.004163	0.041346	-1.043955	-1.045320	-0.041181	32.5917	-1.043007	-8.598134E+13	4.789472E-16	NaN
359	1.000000	0.050752	7.36857e+06	-56589.1	955.818	-29738.9	0.000000	0.000000	6.050785	-0.071910	NaN	0.000000	0.001536	0.001748	28.0813	0.064867	0.001920	33.7917	158.03	-164.775	-0.011806	0.049415	-1.035914	-1.037251	-0.071910	33.7917	-1.034318	-6.569845E+13	1.094544E-15	NaN
359	1.000000	0.058702	7.36857e+06	-56589.1	955.818	-29738.9	0.000000	0.000000	6.058738	0.004292	NaN	0.000000	0.001536	0.001728	28.0809	0.033138	0.002131	15.5525	3.056794	-164.41	-0.051732	0.057398	-1.027964	-1.029268	0.004292	15.5525	-1.028171	-5.431046E+13	-7.902136E-17	NaN
359	1.000000	0.066696	7.36857e+06	-56589.1	955.819	-29738.9	0.000000	0.000000	6.066731	-0.014737	NaN	0.000000	0.001504	0.001733	28.0809	0.043726	0.001898	23.0406	174.133	-165.421	-0.019695	0.065426	-1.019970	-1.021241	-0.014737	23.0406	-1.019491	-4.150501E+13	3.550565E-16	NaN
359	1.000000	0.074722	7.36857e+06	-56589.1	955.818	-29738.9	0.000000	0.000000	6.074758	-0.010386	NaN	0.000000	0.001484	0.001776	28.0807	0.077062	0.001971	39.0966	-92.6953	-161.725	0.065578	0.073407	-1.011944	-1.013259	-0.010386	39.0966	-1.011745	-3.264863E+13	3.181029E-16	NaN
359	1.000000	0.082708	7.36857e+06	-56589.1	955.818	-29738.9	0.000000	0.000000	6.082746	0.051006	NaN	0.000000	0.001542	0.001764	28.0807	0.070814	0.001964	36.0577	147.374	-165.711	-0.043719	0.081451	-1.003958	-1.005216	0.051006	36.0577	-1.005019	-2.650568E+13	-1.924331E-15	NaN
359	1.000000	0.090730	7.36857e+06	-56589.1	955.819	-29738.9	0.000000	0.000000	6.090766	-0.007612	NaN	0.000000	0.001501	0.001773	28.0808	0.068480	0.001950	35.1194	89.2739	-162.594	-0.070096	0.089390	-0.995936	-0.997276	-0.007612	35.1194	-0.995774	-1.990042E+13	3.825291E-16	NaN
359	1.000000	0.098723	7.36857e+06	-56589.1	955.818	-29738.9	0.000000	0.000000	6.098758	-0.017721	NaN	0.000000	0.001541	0.001793	28.0806	0.029057	0.002070	14.0337	-91.1564	-164.924	0.060585	0.097402	-0.987943	-0.989264	-0.017721	14.0337	-0.986996	-1.515851E+13	1.169070E-15	NaN
359	1.000000	0.106724	7.36857e+06	-56589.1	955.818	-29738.9	0.000000	0.000000	6.106761	0.025428	NaN	0.000000	0.001526	0.001784	28.0809	0.117694	0.001964	59.9151	-87.6799	-162.741	0.019584	0.105406	-0.979942	-0.981260	0.025428	59.9151	-0.980261	-1.230045E+13	-2.067209E-15	NaN
359	1.000000	0.114724	7.36857e+06	-56589.1	955.818	-29738.9	0.000000	0.000000	6.114762	0.051879	NaN	0.000000	0.001540	0.001730	28.0795	0.094550	0.001879	50.3302	-117.445	-165.896	0.097535	0.113427	-0.971942	-0.973239	0.051879	50.3302	-0.972715	-9.733250E+12	-5.330097E-15	NaN
359	1.000000	0.122738	7.36857e+06	-56589.1	955.818	-29738.9	0.000000	0.000000	6.122775	0.024802	NaN	0.000000	0.001525	0.001726	28.0794	0.071949	0.001982	36.302	-2.931672	-165.48	0.070917	0.121509	-0.963928	-0.965158	0.024802	36.302	-0.964440	-7.528827E+12	-3.294215E-15	NaN
359	1.000000	0.130745	7.36857e+06	-56589.1	955.817	-29738.9	0.000000	0.000000	6.130782	0.022149	NaN	0.000000	0.001492	0.001733	28.0797	0.046561	0.001852	25.1415	-39.6048	-166.842	0.021554	0.129386	-0.955921	-0.957280	0.022149	25.1415	-0.956582	-5.899071E+12	-3.754577E-15	NaN
359	1.000000	0.138761	7.36857e+06	-56589.1	955.82	-29738.9	0.000000	0.000000	6.138797	0.005716	NaN	0.000000	0.001502	0.001726	28.0796	0.021056	0.002052	10.2618	118.295	-162.635	0.090470	0.137480	-0.947905	-0.949186	0.005716	10.2618	-0.948323	-4.564664E+12	-1.252158E-15	NaN
359	1.000000	0.146767	7.36857e+06	-56589.1	955.818	-29738.9	0.000000	0.000000	6.146804	0.035744	NaN	0.000000	0.001563	0.001737	28.0798	0.040315	0.002051	19.6554	47.596	-166.413	0.026787	0.145424	-0.939900	-0.941242	0.035744	19.6554	-0.941264	-3.665948E+12	-9.750348E-15	NaN
359	1.000000	0.154761	7.36857e+06	-56589.1	955.817	-29738.9	0.000000	0.000000	6.154796	-0.024229	NaN	0.000000	0.001511	0.001784	28.0794	0.017892	0.002031	8.808941	17.4449	-164.181	0.038409	0.153423	-0.931905	-0.933243	-0.024229	8.808941	-0.929843	-2.570824E+12	9.424493E-15	NaN
359	1.000000	0.162761	7.36857e+06	-56589.1	955.819	-29738.9	0.000000	0.000000	6.162799	0.034578	NaN	0.000000	0.001533	0.001780	28.0794	0.111923	0.002071	54.0407	101.887	-165.183	0.076953	0.161394	-0.923905	-0.925272	0.034578	54.0407	-0.924385	-2.169734E+12	-1.593671E-14	NaN
359	1.000000	0.170760	7.36857e+06	-56589.1	955.817	-29738.9	0.000000	0.000000	6.170794	-0.048142	NaN	0.000000	0.001519	0.001747	28.0795	0.063820	0.002107	30.2835	144.717	-164.942	-0.006740	0.169452	-0.915906	-0.917214	-0.048142	30.2835	-0.914714	-1.606318E+12	2.997060E-14	NaN
359	1.000000	0.178733	7.36857e+06	-56589.1	955.818	-29738.9	0.000000	0.000000	6.178769	0.011857	NaN	0.000000	0.001522	0.001726	28.0797	0.070754	0.001984	35.6535	-169.886	-164.039	-0.010176	0.177482	-0.907934	-0.909185	0.011857	35.6535	-0.908183	-1.311051E+12	-9.043624E-15	NaN
359	1.000000	0.186806	7.36857e+06	-56589.1	955.818	-29738.9	0.000000	0.000000	6.186843	0.012220	NaN	0.000000	0.001543	0.001720	28.0798	0.188155	0.002030	92.6847	121.453	-163.657	0.035995	0.185461	-0.899860	-0.901205	0.012220	92.6847	-0.899959	-1.015104E+12	-1.203824E-14	NaN
359	1.000000	0.194762	7.36857e+06	-56589.1	955.819	-29738.9	0.000000	0.000000	6.194800	0.045853	NaN	0.000000	0.001550	0.001741	28.0797	0.079434	0.001828	43.4454	134.497	-163.844	-0.038997	0.193442	-0.891904	-0.893224	0.045853	43.4454	-0.892696	-8.097620E+11	-5.662580E-14	NaN
359	1.000000	0.202760	7.36857e+06	-56589.1	955.818	-29738.9	0.000000	0.000000	6.202797	0.016042	NaN	0.000000	0.001572	0.001730	28.0796	0.053919	0.002056	26.22	-104.195	-166.842	-0.023011	0.201450	-0.883906	-0.885217	0.016042	26.22	-0.884365	-6.247920E+11	-2.567523E-14	NaN
359	1.000000	0.210769	7.36857e+06	-56589.1	955.818	-29738.9	0.000000	0.000000	6.210806	0.026477	NaN	0.000000	0.001555	0.001732	28.0796	0.053348	0.001898	28.1098	135.701	-165.333	0.004944	0.209535	-0.875897	-0.877131	0.026477	28.1098	-0.876604	-4.906523E+11	-5.396286E-14	NaN
359	1.000000	0.218766	7.36857e+06	-56589.1	955.818	-29738.9	0.000000	0.000000	6.218803	0.036613	NaN	0.000000	0.001550	0.001721	28.0797	0.032424	0.001954	16.5942	-11.5678	-165.109	-0.012519	0.217488	-0.867901	-0.869178	0.036613	16.5942	-0.869556	-3.939408E+11	-9.294009E-14	NaN
359	1.000000	0.226769	7.36857e+06	-56589.1	955.817	-29738.9	0.000000	0.000000	6.226809	0.109246	NaN	0.000000	0.001546	0.001713	28.0799	0.026288	0.002138	12.2938	-77.0804	-163.795	0.039200	0.225475	-0.859897	-0.861192	0.109246	12.2938	-0.866562	-3.588630E+11	-3.044231E-13	NaN
359	1.000000	0.234807	7.36857e+06	-56589.1	955.819	-29738.9	0.000000	0.000000	6.234842	-0.016640	NaN	0.000000	0.001559	0.001715	28.0798	0.017477	0.002023	8.640394	-79.3849	-165.768	-0.049402	0.233468	-0.851859	-0.853198	-0.016640	8.640394	-0.850415	-2.169473E+11	7.670152E-14	NaN
359	1.000000	0.242795	7.36857e+06	-56589.1	955.818	-29738.9	0.000000	0.000000	6.242832	0.048270	NaN	0.000000	0.001557	0.001771	28.08	0.069997	0.002039	34.3268	-143.261	-165.849	0.027138	0.241561	-0.843872	-0.845105	0.048270	34.3268	-0.844926	-1.828211E+11	-2.640263E-13	NaN
359	1.000000	0.250804	7.36857e+06	-56589.1	955.819	-29738.9	0.000000	0.000000	6.250844	0.099832	NaN	0.000000	0.001541	0.001702	28.0812	0.090603	0.002181	41.5463	-149.681	-165.346	0.091382	0.249484	-0.835863	-0.837183	0.099832	41.5463	-0.837665	-1.457664E+11	-6.848740E-13	NaN
359	1.000000	0.258802	7.36857e+06	-56589.1	955.819	-29738.9	0.000000	0.000000	6.258840	0.041104	NaN	0.000000	0.001544	0.001717	28.0811	0.060853	0.002031	29.9552	0.579624	-162.42	0.048103	0.257485	-0.827864	-0.829181	0.041104	29.9552	-0.828893	-1.108624E+11	-3.707626E-13	NaN
359	1.000000	0.266783	7.36857e+06	-56589.1	955.818	-29738.9	0.000000	0.000000	6.266817	-0.056451	NaN	0.000000	0.001567	0.001719	28.0811	0.073264	0.002004	36.557	-104.785	-168.483	-0.041762	0.265503	-0.819883	-0.821163	-0.056451	36.557	-0.818725	-8.070822E+10	6.994514E-13	NaN
359	1.000000	0.274812	7.36857e+06	-56589.1	955.818	-29738.9	0.000000	0.000000	6.274846	-0.046340	NaN	0.000000	0.001558	0.001724	28.0811	0.128291	0.001974	64.9942	-98.0356	-168.613	-0.107505	0.273500	-0.811855	-0.813166	-0.046340	64.9942	-0.811320	-6.404380E+10	7.235661E-13	NaN
359	1.000000	0.282795	7.36857e+06	-56589.1	955.819	-29738.9	0.000000	0.000000	6.282832	0.026121	NaN	0.000000	0.001568	0.001688	28.0813	0.042923	0.002111	20.3304	-145.798	-164.06	0.055682	0.281497	-0.803871	-0.805169	0.026121	20.3304	-0.804835	-5.229821E+10	-4.994602E-13	NaN
359	1.000000	0.290802	7.36857e+06	-56589.1	955.818	-29738.9	0.000000	0.000000	6.290839	0.016766	NaN	0.000000	0.001525	0.001662	28.081	0.100590	0.001945	51.7241	-101.047	-163.833	-0.008385	0.289533	-0.795864	-0.797133	0.016766	51.7241	-0.796107	-3.981213E+10	-4.211171E-13	NaN
359	1.000000	0.298840	7.36857e+06	-56589.1	955.819	-29738.9	0.000000	0.000000	6.298876	0.000466	NaN	0.000000	0.001532	0.001715	28.0809	0.054198	0.001789	30.2945	-115.444	-164.534	-0.047798	0.297471	-0.787827	-0.789196	0.000466	30.2945	-0.787838	-3.074116E+10	-1.517265E-14	NaN
359	1.000000	0.306825	7.36857e+06	-56589.1	955.818	-29738.9	0.000000	0.000000	6.306862	0.035972	NaN	0.000000	0.001545	0.001710	28.0809	0.044594	0.002086	21.3826	-69.4691	-166.034	0.072074	0.305540	-0.779842	-0.781126	0.035972	21.3826	-0.781103	-2.490147E+10	-1.444577E-12	NaN
359	1.000000	0.314806	7.36857e+06	-56589.1	955.819	-29738.9	0.000000	0.000000	6.314844	0.054289	NaN	0.000000	0.001555	0.001689	28.0811	0.106724	0.002017	52.9003	64.0858	-166.207	0.027931	0.313522	-0.771860	-0.773144	0.054289	52.9003	-0.772630	-1.910114E+10	-2.842196E-12	NaN
359	1.000000	0.322811	7.36857e+06	-56589.1	955.819	-29738.9	0.000000	0.000000	6.322847	-0.014844	NaN	0.000000	0.001535	0.001726	28.0813	0.022618	0.002105	10.7427	164.463	-161.249	-0.019897	0.321599	-0.763855	-0.765067	-0.014844	10.7427	-0.762819	-1.404903E+10	1.056565E-12	NaN
359	1.000000	0.330858	7.36857e+06	-56589.1	955.818	-29738.9	0.000000	0.000000	6.330894	0.002174	NaN	0.000000	0.001608	0.001733	28.081	0.045807	0.002072	22.1075	-26.0197	-165.859	-0.008977	0.329562	-0.755808	-0.757104	0.002174	22.1075	-0.755882	-1.130499E+10	-1.922646E-13	NaN
359	1.000000	0.338818	7.36857e+06	-56589.1	955.818	-29738.9	0.000000	0.000000	6.338858	0.099035	NaN	0.000000	0.001554	0.001685	28.0812	0.094600	0.001906	49.6449	119.756	-166.562	0.001055	0.337557	-0.747848	-0.749110	0.099035	49.6449	-0.749344	-9.210667E+9	-1.075223E-11	NaN
359	1.000000	0.346831	7.36857e+06	-56589.1	955.818	-29738.9	0.000000	0.000000	6.346868	0.031493	NaN	0.000000	0.001569	0.001687	28.081	0.036263	0.002061	17.599	134.052	-166.509	0.045746	0.345486	-0.739835	-0.741181	0.031493	17.599	-0.741177	-7.130024E+9	-4.416967E-12	NaN
359	1.000000	0.354861	7.36857e+06	-56589.1	955.818	-29738.9	0.000000	0.000000	6.354898	0.022645	NaN	0.000000	0.001557	0.001687	28.0813	0.040555	0.002077	19.5304	144.825	-166.486	-0.031382	0.353573	-0.731805	-0.733093	0.022645	19.5304	-0.732675	-5.460885E+9	-4.146848E-12	NaN
359	1.000000	0.362834	7.36857e+06	-56589.1	955.819	-29738.9	0.000000	0.000000	6.362871	0.020728	NaN	0.000000	0.001538	0.001702	28.0812	0.036634	0.002020	18.1331	48.0816	-164.011	-0.001979	0.361531	-0.723832	-0.725135	0.020728	18.1331	-0.724689	-4.250271E+9	-4.876907E-12	NaN
359	1.000000	0.370850	7.36857e+06	-56589.1	955.818	-29738.9	0.000000	0.000000	6.370886	-0.009530	NaN	0.000000	0.001550	0.001711	28.0809	0.075774	0.001950	38.8599	44.4141	-160.433	0.000137	0.369563	-0.715816	-0.717103	-0.009530	38.8599	-0.715632	-3.198109E+9	2.979899E-12	NaN
359	1.000000	0.378868	7.36857e+06	-56589.1	955.818	-29738.9	0.000000	0.000000	6.378906	0.042132	NaN	0.000000	0.001582	0.001691	28.0814	0.086301	0.002099	41.1117	104.431	-167.008	-0.007532	0.377540	-0.707798	-0.709127	0.042132	41.1117	-0.708567	-2.561467E+9	-1.644857E-11	NaN
359	1.000000	0.386855	7.36857e+06	-56589.1	955.819	-29738.9	0.000000	0.000000	6.386893	0.032468	NaN	0.000000	0.001573	0.001695	28.0797	0.084028	0.002031	41.3792	-16.823	-167.389	-0.055940	0.385531	-0.699811	-0.701135	0.032468	41.3792	-0.700400	-1.981470E+9	-1.638595E-11	NaN
359	1.000000	0.394837	7.36857e+06	-56589.1	955.818	-29738.9	0.000000	0.000000	6.394874	0.026514	NaN	0.000000	0.001549	0.001689	28.08	0.029888	0.002036	14.6791	18.3409	-162.348	0.020785	0.393551	-0.691829	-0.693115	0.026514	14.6791	-0.693184	-1.579160E+9	-1.679009E-11	NaN
359	1.000000	0.402847	7.36857e+06	-56589.1	955.819	-29738.9	0.000000	0.000000	6.402881	-0.044150	NaN	0.000000	0.001541	0.001696	28.0799	0.073312	0.001940	37.7851	-114.569	-164.594	-0.014380	0.401553	-0.683820	-0.685114	-0.044150	37.7851	-0.682943	-1.144076E+9	3.858978E-11	NaN
359	1.000000	0.410869	7.36857e+06	-56589.1	955.817	-29738.9	0.000000	0.000000	6.410904	-0.002554	NaN	0.000000	0.001564	0.001695	28.0798	0.062358	0.001891	32.9681	173.048	-166.811	0.019126	0.409519	-0.675798	-0.677147	-0.002554	32.9681	-0.675740	-9.118662E+8	2.801184E-12	NaN
359	1.000000	0.418843	7.36857e+06	-56589.1	955.818	-29738.9	0.000000	0.000000	6.418878	-0.019060	NaN	0.000000	0.001509	0.001695	28.0801	0.033133	0.002044	16.2074	153.419	-165.821	0.031602	0.417549	-0.667824	-0.669117	-0.019060	16.2074	-0.666942	-6.910775E+8	2.757952E-11	NaN
359	1.000000	0.426860	7.36857e+06	-56589.1	955.819	-29738.9	0.000000	0.000000	6.426898	0.048227	NaN	0.000000	0.001545	0.001684	28.0799	0.066663	0.001969	33.861	-79.9597	-165.73	-0.023179	0.425623	-0.659806	-0.661043	0.048227	33.861	-0.660875	-5.707524E+8	-8.449803E-11	NaN
359	1.000000	0.434834	7.36857e+06	-56589.1	955.818	-29738.9	0.000000	0.000000	6.434868	-0.027263	NaN	0.000000	0.001546	0.001698	28.08	0.027290	0.001885	14.4782	9.870349	-163.347	-0.007989	0.433536	-0.651833	-0.653130	-0.027263	14.4782	-0.650421	-4.103941E+8	6.643025E-11	NaN
359	1.000000	0.442898	7.36857e+06	-56589.1	955.818	-29738.9	0.000000	0.000000	6.442933	-0.008835	NaN	0.000000	0.001534	0.001681	28.08	0.071488	0.001923	37.1779	-113.515	-161.653	0.012719	0.441611	-0.643769	-0.645055	-0.008835	37.1779	-0.643590	-3.307837E+8	2.671023E-11	NaN
359	1.000000	0.450864	7.36857e+06	-56589.1	955.819	-29738.9	0.000000	0.000000	6.450900	0.006117	NaN	0.000000	0.001525	0.001684	28.0799	0.105577	0.001953	54.0683	153.532	-167.544	-0.054788	0.449576	-0.635802	-0.637091	0.006117	54.0683	-0.635887	-2.593278E+8	-2.358743E-11	NaN
359	1.000000	0.458857	7.36857e+06	-56589.1	955.818	-29738.9	0.000000	0.000000	6.458892	-0.027497	NaN	0.000000	0.001569	0.001684	28.0801	0.087400	0.001969	44.3836	-145.688	-167.003	0.003944	0.457634	-0.627809	-0.629032	-0.027497	44.3836	-0.627344	-1.979480E+8	1.389096E-10	NaN
359	1.000000	0.466889	7.36857e+06	-56589.1	955.818	-29738.9	0.000000	0.000000	6.466925	0.002650	NaN	0.000000	0.001553	0.001720	28.0798	0.154941	0.002084	74.3566	-60.7955	-162.653	0.058203	0.465609	-0.619777	-0.621058	0.002650	74.3566	-0.619804	-1.559326E+8	-1.699611E-11	NaN
359	1.000000	0.474885	7.36857e+06	-56589.1	955.819	-29738.9	0.000000	0.000000	6.474919	-0.043437	NaN	0.000000	0.001558	0.001700	28.0802	0.082753	0.002030	40.7675	-144.342	-163.977	0.044110	0.473638	-0.611782	-0.613028	-0.043437	40.7675	-0.610983	-1.179325E+8	3.683221E-10	NaN
359	1.000000	0.482891	7.36857e+06	-56589.1	955.818	-29738.9	0.000000	0.000000	6.482926	-0.021401	NaN	0.000000	0.001564	0.001690	28.0801	0.071618	0.002069	34.6083	6.381588	-164.196	-0.019328	0.481591	-0.603775	-0.605075	-0.021401	34.6083	-0.603311	-9.248158E+7	2.314085E-10	NaN
359	1.000000	0.490864	7.36857e+06	-56589.1	955.819	-29738.9	0.000000	0.000000	6.490902	0.043672	NaN	0.000000	0.001539	0.001702	28.0802	0.016682	0.002042	8.167689	149.667	-162.523	-0.042240	0.489602	-0.595802	-0.597065	0.043672	8.167689	-0.599813	-8.277124E+7	-5.276180E-10	NaN
359	1.000000	0.498927	7.36857e+06	-56589.1	955.818	-29738.9	0.000000	0.000000	6.498964	0.021091	NaN	0.000000	0.001578	0.001688	28.08	0.088364	0.001935	45.6729	-102.592	-165.912	0.059129	0.497569	-0.587739	-0.589097	0.021091	45.6729	-0.588086	-5.705179E+7	-3.696827E-10	NaN
359	1.000000	0.506900	7.36857e+06	-56589.1	955.818	-29738.9	0.000000	0.000000	6.506934	-0.055726	NaN	0.000000	0.001595	0.001710	28.0803	0.081574	0.001917	42.559	-25.0402	-163.8	0.004060	0.505577	-0.579766	-0.581089	-0.055726	42.559	-0.578784	-4.245674E+7	1.312544E-9	NaN
359	1.000000	0.514887	7.36857e+06	-56589.1	955.818	-29738.9	0.000000	0.000000	6.514925	0.034362	NaN	0.000000	0.001554	0.001695	28.0802	0.092901	0.001969	47.176	49.1986	-165.784	0.002176	0.513601	-0.571779	-0.573065	0.034362	47.176	-0.572325	-3.457450E+7	-9.938545E-10	NaN
359	1.000000	0.522894	7.36857e+06	-56589.1	955.818	-29738.9	0.000000	0.000000	6.522926	-0.096365	NaN	0.000000	0.001545	0.001706	28.0813	0.074739	0.002009	37.2025	78.5487	-169.06	0.026106	0.521617	-0.563772	-0.565049	-0.096365	37.2025	-0.561829	-2.475609E+7	3.892591E-9	NaN
359	1.000000	0.530904	7.36857e+06	-56589.1	955.818	-29738.9	0.000000	0.000000	6.530940	0.014976	NaN	0.000000	0.001549	0.001710	28.0814	0.038760	0.002087	18.5746	95.5397	-165.77	-0.067899	0.529633	-0.555763	-0.557033	0.014976	18.5746	-0.556367	-2.080248E+7	-7.199131E-10	NaN
359	1.000000	0.538903	7.36857e+06	-56589.1	955.818	-29738.9	0.000000	0.000000	6.538938	-0.033631	NaN	0.000000	0.001574	0.001680	28.0812	0.027062	0.001889	14.3295	-36.3913	-164.479	0.022469	0.537577	-0.547763	-0.549089	-0.033631	14.3295	-0.546003	-1.494782E+7	2.249887E-9	NaN
359	1.000000	0.546914	7.36857e+06	-56589.1	955.817	-29738.9	0.000000	0.000000	6.546953	0.083295	NaN	0.000000	0.001582	0.001677	28.0815	0.158177	0.002170	72.8884	87.3874	-167.016	0.061174	0.545612	-0.539753	-0.541054	0.083295	72.8884	-0.540610	-1.258389E+7	-6.619157E-9	NaN
359	1.000000	0.554953	7.36857e+06	-56589.1	955.819	-29738.9	0.000000	0.000000	6.554991	0.051330	NaN	0.000000	0.001568	0.001684	28.0813	0.006705	0.001968	3.406226	-39.7212	-166.083	-0.015028	0.553601	-0.531714	-0.533065	0.051330	3.406226	-0.543016	-1.358856E+7	-3.777455E-9	NaN
359	1.000000	0.562947	7.36857e+06	-56589.1	955.819	-29738.9	0.000000	0.000000	6.562985	0.047767	NaN	0.000000	0.001568	0.001683	28.0813	0.118980	0.001960	60.7142	73.532	-165.025	0.126836	0.561581	-0.523719	-0.525086	0.047767	60.7142	-0.524309	-7.47324e+06	-6.391701E-9	NaN
359	1.000000	0.570948	7.36857e+06	-56589.1	955.818	-29738.9	0.000000	0.000000	6.570985	0.019842	NaN	0.000000	0.001587	0.001728	28.0815	0.077430	0.001897	40.8147	-74.9554	-165.914	0.031575	0.569636	-0.515718	-0.517031	0.019842	40.8147	-0.516083	-5.74251e+06	-3.455228E-9	NaN
359	1.000000	0.578917	7.36857e+06	-56589.1	955.819	-29738.9	0.000000	0.000000	6.578951	-0.043737	NaN	0.000000	0.001554	0.001692	28.0816	0.054135	0.002000	27.0742	116.934	-165.399	-0.015445	0.577581	-0.507749	-0.509085	-0.043737	27.0742	-0.506538	-4.22843e+06	1.034349E-8	NaN
359	1.000000	0.586937	7.36857e+06	-56589.1	955.819	-29738.9	0.000000	0.000000	6.586975	0.046011	NaN	0.000000	0.001539	0.001658	28.0817	0.037495	0.002004	18.7101	-128.556	-165.123	0.057308	0.585655	-0.499729	-0.501011	0.046011	18.7101	-0.501573	-3.60551e+06	-1.276138E-8	NaN
359	1.000000	0.594922	7.36857e+06	-56589.1	955.818	-29738.9	0.000000	0.000000	6.594959	0.027138	NaN	0.000000	0.001543	0.001681	28.0814	0.063101	0.002055	30.711	-133.333	-163.108	-0.012281	0.593607	-0.491744	-0.493059	0.027138	30.711	-0.492407	-2.68547e+06	-1.010556E-8	NaN
359	1.000000	0.602945	7.36857e+06	-56589.1	955.818	-29738.9	0.000000	0.000000	6.602979	-0.043147	NaN	0.000000	0.001555	0.001640	28.0817	0.069425	0.002084	33.3172	-36.967	-166.232	0.082118	0.601655	-0.483722	-0.485012	-0.043147	33.3172	-0.482751	-1.96799e+06	2.192461E-8	NaN
359	1.000000	0.610944	7.36857e+06	-56589.1	955.818	-29738.9	0.000000	0.000000	6.610980	0.014831	NaN	0.000000	0.001535	0.001637	28.0815	0.074633	0.001958	38.1192	-174.35	-162.792	0.119322	0.609632	-0.475722	-0.477034	0.014831	38.1192	-0.476014	-1.58384e+06	-9.364025E-9	NaN
359	1.000000	0.618936	7.36857e+06	-56589.1	955.818	-29738.9	0.000000	0.000000	6.618969	-0.085358	NaN	0.000000	0.001561	0.001650	28.0815	0.108445	0.002109	51.4158	-107.65	-161.378	-0.110653	0.617614	-0.467730	-0.469052	-0.085358	51.4158	-0.466485	-1.16437e+06	7.330809E-8	NaN
359	1.000000	0.626933	7.36857e+06	-56589.1	955.819	-29738.9	0.000000	0.000000	6.626970	0.034444	NaN	0.000000	0.001576	0.001702	28.0817	0.068434	0.002056	33.2896	-65.4094	-163.823	0.057060	0.625618	-0.459733	-0.461048	0.034444	33.2896	-0.460509	-959786	-3.588767E-8	NaN
359	1.000000	0.634920	7.36857e+06	-56589.1	955.819	-29738.9	0.000000	0.000000	6.634955	-0.021333	NaN	0.000000	0.001548	0.001718	28.0815	0.038963	0.001937	20.1111	-171.894	-165.233	0.042086	0.633662	-0.451747	-0.453004	-0.021333	20.1111	-0.450951	-704264	3.029100E-8	NaN
359	1.000000	0.642959	7.36857e+06	-56589.1	955.818	-29738.9	0.000000	0.000000	6.642994	-0.020829	NaN	0.000000	0.001516	0.001687	28.0814	0.022361	0.002126	10.516	109.119	-165.904	-0.057535	0.641627	-0.443707	-0.445040	-0.020829	10.516	-0.442222	-530537	3.925960E-8	NaN
359	1.000000	0.650956	7.36857e+06	-56589.1	955.819	-29738.9	0.000000	0.000000	6.650990	-0.054096	NaN	0.000000	0.001555	0.001675	28.0814	0.085499	0.002052	41.6754	-61.3792	-164.654	-0.040150	0.649618	-0.435710	-0.437048	-0.054096	41.6754	-0.434737	-415945	1.300563E-7	NaN
359	1.000000	0.658964	7.36857e+06	-56589.1	955.818	-29738.9	0.000000	0.000000	6.658999	-0.005816	NaN	0.000000	0.001546	0.001648	28.0798	0.058937	0.002095	28.1301	-113.051	-165.748	0.024681	0.657657	-0.427703	-0.429009	-0.005816	28.1301	-0.427548	-329121	1.767011E-8	NaN
359	1.000000	0.666970	7.36857e+06	-56589.1	955.819	-29738.9	0.000000	0.000000	6.667007	0.027719	NaN	0.000000	0.001572	0.001656	28.0805	0.031229	0.001876	16.6488	-40.4149	-162.964	-0.013976	0.665647	-0.419696	-0.421020	0.027719	16.6488	-0.420945	-265349	-1.044644E-7	NaN
359	1.000000	0.674992	7.36857e+06	-56589.1	955.819	-29738.9	0.000000	0.000000	6.675027	-0.021945	NaN	0.000000	0.001594	0.001690	28.0798	0.095158	0.001979	48.074	88.1016	-165.332	-0.033030	0.673645	-0.411674	-0.413021	-0.021945	48.074	-0.411332	-193793	1.132413E-7	NaN
359	1.000000	0.682993	7.36857e+06	-56589.1	955.819	-29738.9	0.000000	0.000000	6.683027	-0.039028	NaN	0.000000	0.001574	0.001681	28.0799	0.047491	0.001856	25.5816	147.443	-162.664	0.004422	0.681688	-0.403673	-0.404979	-0.039028	25.5816	-0.402529	-145227	2.687373E-7	NaN
359	1.000000	0.690978	7.36857e+06	-56589.1	955.818	-29738.9	0.000000	0.000000	6.691014	0.010228	NaN	0.000000	0.001562	0.001693	28.0798	0.037485	0.001925	19.4708	-157.729	-164.752	-0.030165	0.689713	-0.395688	-0.396954	0.010228	19.4708	-0.396082	-117515	-8.703738E-8	NaN
359	1.000000	0.698996	7.36857e+06	-56589.1	955.818	-29738.9	0.000000	0.000000	6.699033	0.030599	NaN	0.000000	0.001583	0.001645	28.0796	0.156967	0.001930	81.3277	136.717	-165.621	0.029308	0.697655	-0.387671	-0.389011	0.030599	81.3277	-0.387953	-89924	-3.402797E-7	NaN
359	1.000000	0.706983	7.36857e+06	-56589.1	955.818	-29738.9	0.000000	0.000000	6.707018	-0.037428	NaN	0.000000	0.001559	0.001617	28.08	0.034355	0.001878	18.2972	28.9999	-165.668	0.003350	0.705686	-0.379683	-0.380981	-0.037428	18.2972	-0.378149	-65060	5.752774E-7	NaN
359	1.000000	0.715004	7.36857e+06	-56589.1	955.819	-29738.9	0.000000	0.000000	6.715039	-0.006950	NaN	0.000000	0.001568	0.001640	28.0795	0.058882	0.002042	28.8419	112.029	-161.424	-0.022771	0.713649	-0.371663	-0.373018	-0.006950	28.8419	-0.371482	-52175.1	1.331979E-7	NaN
359	1.000000	0.722970	7.36857e+06	-56589.1	955.819	-29738.9	0.000000	0.000000	6.723001	-0.114063	NaN	0.000000	0.001582	0.001683	28.0798	0.082107	0.001975	41.5748	-133.257	-164.386	-0.154565	0.721671	-0.363696	-0.364995	-0.114063	41.5748	-0.361638	-37629	3.031257E-6	NaN
359	1.000000	0.731008	7.36857e+06	-56589.1	955.819	-29738.9	0.000000	0.000000	6.731041	-0.062415	NaN	0.000000	0.001549	0.001669	28.0798	0.014964	0.001916	7.807979	136.225	-166.8	-0.037808	0.729749	-0.355659	-0.356918	-0.062415	7.807979	-0.349663	-25241.6	2.472723E-6	NaN
359	1.000000	0.738999	7.36857e+06	-56589.1	955.82	-29738.9	0.000000	0.000000	6.739036	0.036352	NaN	0.000000	0.001598	0.001691	28.0799	0.013021	0.001894	6.876736	158.356	-164.165	0.037345	0.737700	-0.347668	-0.348967	0.036352	6.876736	-0.351633	-26958.1	-1.348474E-6	NaN
359	1.000000	0.747011	7.36857e+06	-56589.1	955.818	-29738.9	0.000000	0.000000	6.747048	0.036877	NaN	0.000000	0.001585	0.001686	28.0799	0.127773	0.002027	63.0414	-69.1113	-163.166	0.022576	0.745694	-0.339655	-0.340972	0.036877	63.0414	-0.340094	-18319.9	-2.012921E-6	NaN
359	1.000000	0.755034	7.36857e+06	-56589.1	955.819	-29738.9	0.000000	0.000000	6.755071	0.045216	NaN	0.000000	0.001579	0.001689	28.0797	0.058526	0.001887	31.0229	85.3637	-163.581	-0.044450	0.753716	-0.331633	-0.332950	0.045216	31.0229	-0.332726	-14300.3	-3.161880E-6	NaN
359	1.000000	0.762997	7.36857e+06	-56589.1	955.818	-29738.9	0.000000	0.000000	6.763032	-0.027941	NaN	0.000000	0.001600	0.001664	28.08	0.040563	0.001910	21.2362	152.635	-163.515	-0.003798	0.761698	-0.323669	-0.324968	-0.027941	21.2362	-0.322682	-10188	2.742532E-6	NaN
359	1.000000	0.771042	7.36857e+06	-56589.1	955.819	-29738.9	0.000000	0.000000	6.771079	0.031144	NaN	0.000000	0.001591	0.001657	28.0797	0.039435	0.001997	19.7487	-131.207	-165.161	0.029926	0.769733	-0.315624	-0.316933	0.031144	19.7487	-0.316807	-8348.41	-3.730476E-6	NaN
359	1.000000	0.779006	7.36857e+06	-56589.1	955.819	-29738.9	0.000000	0.000000	6.779042	0.000648	NaN	0.000000	0.001608	0.001676	28.0802	0.050266	0.002033	24.7267	143.453	-165.767	-0.031082	0.777776	-0.307660	-0.308890	0.000648	24.7267	-0.307680	-6119.2	-1.058453E-7	NaN
359	1.000000	0.787037	7.36857e+06	-56589.1	955.817	-29738.9	0.000000	0.000000	6.787074	0.029917	NaN	0.000000	0.001585	0.001678	28.0796	0.060530	0.001936	31.2627	-82.8392	-165.366	0.092719	0.785744	-0.299629	-0.300922	0.029917	31.2627	-0.300347	-4762.09	-6.282401E-6	NaN
359	1.000000	0.795010	7.36857e+06	-56589.1	955.818	-29738.9	0.000000	0.000000	6.795044	-0.044428	NaN	0.000000	0.001593	0.001672	28.081	0.086523	0.002021	42.8115	39.603	-161.363	-0.026647	0.793704	-0.291657	-0.292963	-0.044428	42.8115	-0.290878	-3439.2	1.291811E-5	NaN
359	1.000000	0.803019	7.36858e+06	-56589.1	955.819	-29738.9	0.000000	0.000000	6.803056	0.043394	NaN	0.000000	0.001603	0.001683	28.081	0.074287	0.001968	37.7465	-162.589	-162.123	0.065489	0.801732	-0.283648	-0.284934	0.043394	37.7465	-0.284510	-2759.93	-1.572289E-5	NaN
359	1.000000	0.811042	7.36858e+06	-56589.1	955.819	-29738.9	0.000000	0.000000	6.811077	-0.026572	NaN	0.000000	0.001595	0.001683	28.081	0.084010	0.002023	41.5219	-110.15	-166.762	0.038994	0.809668	-0.275624	-0.276998	-0.026572	41.5219	-0.275144	-1993.34	1.333029E-5	NaN
359	1.000000	0.819040	7.36858e+06	-56589.1	955.819	-29738.9	0.000000	0.000000	6.819074	-0.046463	NaN	0.000000	0.001576	0.001672	28.0811	0.151906	0.001954	77.7475	-43.4849	-164.772	-0.047992	0.817696	-0.267627	-0.268970	-0.046463	77.7475	-0.267178	-1508.71	3.079637E-5	NaN
359	1.000000	0.827036	7.36858e+06	-56589.1	955.818	-29738.9	0.000000	0.000000	6.827072	-0.001052	NaN	0.000000	0.001576	0.001715	28.081	0.035497	0.002042	17.3846	-134.978	-164.393	0.003415	0.825792	-0.259631	-0.260874	-0.001052	17.3846	-0.259585	-1154.94	9.105928E-7	NaN
359	1.000000	0.835033	7.36858e+06	-56589.1	955.817	-29738.9	0.000000	0.000000	6.835069	-0.000383	NaN	0.000000	0.001576	0.001687	28.0812	0.091525	0.002003	45.6912	115.838	-164.746	0.022899	0.833737	-0.251633	-0.252929	-0.000383	45.6912	-0.251627	-871.185	4.401664E-7	NaN
359	1.000000	0.843043	7.36858e+06	-56589.1	955.819	-29738.9	0.000000	0.000000	6.843080	0.021329	NaN	0.000000	0.001578	0.001700	28.081	0.069533	0.001937	35.8885	-20.996	-170.095	0.073427	0.841743	-0.243624	-0.244923	0.021329	35.8885	-0.244069	-665.244	-3.206225E-5	NaN
359	1.000000	0.851035	7.36858e+06	-56589.1	955.818	-29738.9	0.000000	0.000000	6.851070	-0.010511	NaN	0.000000	0.001551	0.001668	28.0812	0.112818	0.002128	53.0263	-6.304109	-165.181	-0.038249	0.849750	-0.235632	-0.236916	-0.010511	53.0263	-0.235483	-488.465	2.151796E-5	NaN
359	1.000000	0.859060	7.36858e+06	-56589.1	955.818	-29738.9	0.000000	0.000000	6.859096	0.003107	NaN	0.000000	0.001576	0.001658	28.0814	0.027226	0.002003	13.5949	-55.1246	-166.997	-0.004690	0.857768	-0.227606	-0.228898	0.003107	13.5949	-0.227778	-369.301	-8.411964E-6	NaN
359	1.000000	0.867047	7.36858e+06	-56589.1	955.818	-29738.9	0.000000	0.000000	6.867085	0.044243	NaN	0.000000	0.001548	0.001674	28.0813	0.113447	0.002057	55.1605	147.952	-165.94	-0.006215	0.865795	-0.219619	-0.220872	0.044243	55.1605	-0.220221	-280.031	-0.000158	NaN
359	1.000000	0.875046	7.36858e+06	-56589.1	955.819	-29738.9	0.000000	0.000000	6.875082	0.002982	NaN	0.000000	0.001562	0.001651	28.0815	0.095148	0.002169	43.8608	35.3238	-165.677	-0.078143	0.873781	-0.211620	-0.212885	0.002982	43.8608	-0.211671	-204.104	-1.460939E-5	NaN
359	1.000000	0.883095	7.36858e+06	-56589.1	955.819	-29738.9	0.000000	0.000000	6.883132	0.034226	NaN	0.000000	0.001578	0.001705	28.0813	0.068476	0.001968	34.801	-115.683	-164.749	0.031849	0.881730	-0.203572	-0.204936	0.034226	34.801	-0.204309	-154.983	-0.000221	NaN
359	1.000000	0.891079	7.36858e+06	-56589.1	955.818	-29738.9	0.000000	0.000000	6.891114	-0.031638	NaN	0.000000	0.001588	0.001680	28.0812	0.037798	0.001926	19.6261	-131.455	-166.721	-0.126225	0.889742	-0.195587	-0.196924	-0.031638	19.6261	-0.194378	-106.389	0.000297	NaN
359	1.000000	0.899056	7.36858e+06	-56589.1	955.818	-29738.9	0.000000	0.000000	6.899092	-0.015453	NaN	0.000000	0.001535	0.001687	28.0815	0.099186	0.001991	49.8272	9.515369	-163.93	0.027431	0.897751	-0.187610	-0.188915	-0.015453	49.8272	-0.187377	-81.3049	0.000190	NaN
359	1.000000	0.907099	7.36858e+06	-56589.1	955.819	-29738.9	0.000000	0.000000	6.907134	-0.034196	NaN	0.000000	0.001543	0.001688	28.0812	0.066539	0.001986	33.5038	-136.399	-168.628	-0.024552	0.905729	-0.179567	-0.180938	-0.034196	33.5038	-0.178801	-58.2174	0.000587	NaN
359	1.000000	0.915063	7.36858e+06	-56589.1	955.818	-29738.9	0.000000	0.000000	6.915100	0.022244	NaN	0.000000	0.001557	0.001693	28.0814	0.119176	0.002038	58.4749	-104.353	-164.045	0.029670	0.913738	-0.171603	-0.172928	0.022244	58.4749	-0.171888	-44.2933	-0.000502	NaN
359	1.000000	0.923052	7.36858e+06	-56589.1	955.818	-29738.9	0.000000	0.000000	6.923087	-0.002546	NaN	0.000000	0.001535	0.001704	28.0813	0.065783	0.002049	32.102	-96.1762	-160.93	0.015538	0.921778	-0.163615	-0.164888	-0.002546	32.102	-0.163555	-31.6878	8.034586E-5	NaN
359	1.000000	0.931053	7.36858e+06	-56589.1	955.819	-29738.9	0.000000	0.000000	6.931090	0.030022	NaN	0.000000	0.001539	0.001716	28.0804	0.131562	0.002102	62.597	-25.4614	-166.272	0.027041	0.929775	-0.155613	-0.156892	0.030022	62.597	-0.155973	-23.2308	-0.001292	NaN
359	1.000000	0.939075	7.36858e+06	-56589.1	955.818	-29738.9	0.000000	0.000000	6.939111	-0.013528	NaN	0.000000	0.001524	0.001720	28.0802	0.041266	0.001950	21.1671	-11.6937	-165.767	-0.006122	0.937782	-0.147591	-0.148884	-0.013528	21.1671	-0.147112	-16.0366	0.000844	NaN
359	1.000000	0.947102	7.36858e+06	-56589.1	955.818	-29738.9	0.000000	0.000000	6.947138	0.006064	NaN	0.000000	0.001530	0.001735	28.08	0.102774	0.001888	54.4414	130.532	-164.603	-0.045505	0.945795	-0.139564	-0.140871	0.006064	54.4414	-0.139648	-11.6507	-0.000520	NaN
359	1.000000	0.955102	7.36858e+06	-56589.1	955.819	-29738.9	0.000000	0.000000	6.955138	-0.003175	NaN	0.000000	0.001551	0.001698	28.0801	0.029347	0.001910	15.3655	11.8191	-165.806	-0.054553	0.953775	-0.131564	-0.132892	-0.003175	15.3655	-0.131409	-8.115431	0.000391	NaN
359	1.000000	0.963110	7.36858e+06	-56589.1	955.818	-29738.9	0.000000	0.000000	6.963144	-0.032828	NaN	0.000000	0.001525	0.001702	28.0802	0.118540	0.002025	58.5259	155.025	-164.225	0.007256	0.961820	-0.123556	-0.124846	-0.032828	58.5259	-0.123136	-5.584337	0.005879	NaN
359	1.000000	0.971088	7.36858e+06	-56589.1	955.819	-29738.9	0.000000	0.000000	6.971124	0.009290	NaN	0.000000	0.001607	0.001733	28.0803	0.062226	0.002066	30.1188	-23.7369	-165.91	-0.017590	0.969788	-0.115579	-0.116879	0.009290	30.1188	-0.115810	-3.969866	-0.002340	NaN
359	1.000000	0.979091	7.36858e+06	-56589.1	955.819	-29738.9	0.000000	0.000000	6.979128	0.025861	NaN	0.000000	0.001610	0.001727	28.0804	0.015954	0.001990	8.018528	-29.2617	-167.295	0.029340	0.977794	-0.107576	-0.108872	0.025861	8.018528	-0.109994	-3.004393	-0.008608	NaN
359	1.000000	0.987110	7.36858e+06	-56589.1	955.819	-29738.9	0.000000	0.000000	6.987147	0.016209	NaN	0.000000	0.001581	0.001684	28.0802	0.081024	0.001976	40.9944	-85.0006	-163.885	-0.084778	0.985733	-0.099556	-0.100933	0.016209	40.9944	-0.099853	-1.813454	-0.008938	NaN
359	1.000000	0.995109	7.36858e+06	-56589.1	955.819	-29738.9	0.000000	0.000000	6.995143	-0.027717	NaN	0.000000	0.001611	0.001712	28.0802	0.151953	0.002052	74.0411	139.627	-164.616	-0.015214	0.993796	-0.091558	-0.092870	-0.027717	74.0411	-0.091277	-1.157890	0.023938	NaN
359	1.000000	1.003095	7.36858e+06	-56589.1	955.82	-29738.9	0.000000	0.000000	7.003130	-0.021267	NaN	0.000000	0.001510	0.001693	28.0801	0.045520	0.001869	24.3567	-141.648	-164.999	-0.027496	1.001741	-0.083572	-0.084926	-0.021267	24.3567	-0.082917	-0.731009	0.029093	NaN
359	1.000000	1.011135	7.36858e+06	-56589.1	955.82	-29738.9	0.000000	0.000000	7.011170	-0.026623	NaN	0.000000	0.001554	0.001699	28.0804	0.038622	0.001974	19.5644	154.059	-166.823	-0.030043	1.009833	-0.075531	-0.076833	-0.026623	19.5644	-0.074510	-0.448571	0.059351	NaN
359	1.000000	1.019102	7.36858e+06	-56589.1	955.819	-29738.9	0.000000	0.000000	7.019140	0.052316	NaN	0.000000	0.001556	0.001726	28.0803	0.082854	0.002027	40.8672	42.6023	-161.453	0.020233	1.017815	-0.067565	-0.068851	0.052316	40.8672	-0.068525	-0.311295	-0.168060	NaN
359	1.000000	1.027095	7.36858e+06	-56589.1	955.819	-29738.9	0.000000	0.000000	7.027131	-0.003193	NaN	0.000000	0.001576	0.001748	28.0803	0.055308	0.001976	27.9873	-89.9084	-166.334	0.000941	1.025773	-0.059571	-0.060893	-0.003193	27.9873	-0.059486	-0.174067	0.018343	NaN
359	1.000000	1.035152	7.36858e+06	-56589.1	955.819	-29738.9	0.000000	0.000000	7.035187	-0.024831	NaN	0.000000	0.001528	0.001671	28.0802	0.050297	0.001983	25.3666	-134.325	-164.401	0.043834	1.033821	-0.051514	-0.052846	-0.024831	25.3666	-0.050780	-0.096336	0.257756	NaN
359	1.000000	1.043106	7.36858e+06	-56589.1	955.82	-29738.9	0.000000	0.000000	7.043142	0.017226	NaN	0.000000	0.001560	0.001679	28.0802	0.084484	0.002012	41.9953	14.225	-164.041	-0.030694	1.041811	-0.043561	-0.044856	0.017226	41.9953	-0.043868	-0.059344	-0.290275	NaN
359	1.000000	1.051096	7.36858e+06	-56589.1	955.819	-29738.9	0.000000	0.000000	7.051142	0.228691	NaN	0.000000	0.001540	0.001659	28.0803	0.438771	0.001942	225.945	24.8828	-166.623	0.064153	1.049845	-0.035570	-0.036822	0.228691	225.945	-0.036329	-0.035062	-6.522408	NaN
359	1.000000	1.059098	7.36858e+06	-56589.1	955.819	-29738.9	0.000000	0.000000	7.059236	2.471685	NaN	0.000000	0.001515	0.001674	28.0803	1.329017	0.001913	694.746	9.375305	-162.975	1.998400	1.057787	-0.027568	-0.028879	2.471685	694.746	-0.030236	-0.023365	-105.787	NaN
359	1.000000	1.067136	7.36858e+06	-56589.1	955.819	-29738.9	0.000000	0.000000	7.067342	4.129217	NaN	0.000000	0.001537	0.001669	28.0816	2.301270	0.001920	1198.65	16.9478	-168.448	3.926127	1.065855	-0.019531	-0.020812	4.129217	1198.65	-0.022114	-0.014216	-290.462	NaN
359	1.000000	1.075027	7.36858e+06	-56589.1	955.82	-29738.9	0.000000	0.000000	7.075397	8.116636	NaN	0.000000	0.001547	0.001704	28.0815	6.969821	0.001743	3999.35	14.0916	-172.638	7.112473	1.073795	-0.011640	-0.012871	8.116636	3999.35	-0.013162	-0.008196	-990.35	NaN
359	2.000000	1.077667	7.36858e+06	-56589.1	955.819	-29738.9	0.000000	0.000000	7.078168	11.3223	NaN	0.000000	0.001544	0.001663	28.0816	10.4257	0.001751	5954.78	8.260671	-173.942	10.757	1.077406	-0.009000	-0.009260	11.3223	5954.78	-0.010426	-0.006631	-1707.57	NaN
359	2.000000	1.079625	7.36858e+06	-56589.1	955.82	-29738.9	0.000000	0.000000	7.080394	17.804	NaN	0.000000	0.001546	0.001702	28.0813	12.6515	0.001660	7619.67	7.035358	-175.239	16.6873	1.079290	-0.007041	-0.007377	17.804	7619.67	-0.008793	-0.005694	-3127.06	NaN
359	2.000000	1.081602	7.36858e+06	-56589.1	955.82	-29738.9	0.000000	0.000000	7.082717	26.2137	NaN	0.000000	0.001541	0.001689	28.0814	15.3896	0.001730	8893.74	1.342824	-170.763	24.4545	1.081280	-0.005064	-0.005386	26.2137	8893.74	-0.007275	-0.004804	-5456.7	NaN
359	2.000000	1.083633	7.36858e+06	-56589.1	955.82	-29738.9	0.000000	0.000000	7.085186	36.8797	NaN	0.000000	0.001583	0.001662	28.0814	17.9475	0.001685	10652	4.295642	-175.012	35.4212	1.083280	-0.003033	-0.003387	36.8797	10652	-0.005630	-0.003809	-9682.68	NaN
359	2.000000	1.085556	7.36858e+06	-56589.1	955.82	-29738.9	0.000000	0.000000	7.087530	47.1114	NaN	0.000000	0.001540	0.001720	28.0819	20.0644	0.001726	11621.8	5.295457	-177.262	44.7999	1.085241	-0.001110	-0.001425	47.1114	11621.8	-0.004150	-0.002876	-16380.4	NaN
359	2.000000	1.087551	7.36858e+06	-56589.1	955.82	-29738.9	0.000000	0.000000	7.090058	60.085	NaN	0.000000	0.001478	0.001702	28.0814	21.712	0.001653	13137	1.511513	-174.393	57.1971	1.087219	0.000884	0.000553	60.085	13137	-0.002546	-0.001814	-33117.5	NaN
359	2.000000	1.089617	7.36858e+06	-56589.1	955.82	-29738.9	0.000000	0.000000	7.092657	73.0079	NaN	0.000000	0.001467	0.001696	28.0815	23.8327	0.001773	13439.8	6.154221	-178.761	72.3288	1.089253	0.002951	0.002587	73.0079	13439.8	-0.001123	-0.000821	-88875	NaN
359	2.000000	1.091550	7.36858e+06	-56589.1	955.82	-29738.9	0.000000	0.000000	7.095169	87.0912	NaN	0.000000	0.001476	0.001718	28.0814	25.6458	0.001776	14443.6	4.064359	-177.846	84.6637	1.091313	0.004884	0.004646	87.0912	14443.6	0.000361	0.000272	320259	800224
359	2.000000	1.093562	7.36858e+06	-56589.1	955.82	-29738.9	0.000000	0.000000	7.097481	94.3656	NaN	0.000000	0.001474	0.001700	28.0815	27.8872	0.001841	15149.4	4.218821	-177.98	91.3454	1.093196	0.006896	0.006529	94.3656	15149.4	0.002224	0.001737	54327.2	332102
359	2.000000	1.095522	7.36858e+06	-56589.1	955.82	-29738.9	0.000000	0.000000	7.100029	108.689	NaN	0.000000	0.001515	0.001672	28.0826	29.0897	0.001876	15508.1	6.974187	179.141	105.593	1.095209	0.008855	0.008542	108.689	15508.1	0.003599	0.002890	37606.3	263554
359	2.000000	1.097506	7.36858e+06	-56589.1	955.82	-29738.9	0.000000	0.000000	7.102319	116.108	NaN	0.000000	0.001482	0.001704	28.0818	30.8986	0.001862	16592.5	1.310641	-176.024	111.872	1.097201	0.010840	0.010534	116.108	16592.5	0.005592	0.004680	24810.8	221603
359	2.000000	1.099578	7.36858e+06	-56589.1	955.819	-29738.9	0.000000	0.000000	7.104915	128.857	NaN	0.000000	0.001545	0.001675	28.0814	31.7195	0.001706	18595.8	2.623854	-178.47	127.673	1.099225	0.012911	0.012559	128.857	18595.8	0.007714	0.006750	19089.8	206792
359	2.000000	1.101482	7.36858e+06	-56589.1	955.821	-29738.9	0.000000	0.000000	7.107123	136.232	NaN	0.000000	0.001609	0.001682	28.0816	34.6436	0.001871	18520.1	2.955416	-178.367	131.663	1.101227	0.014816	0.014560	136.232	18520.1	0.009299	0.008412	16194.2	184483
359	2.000000	1.103587	7.36858e+06	-56589.1	955.82	-29738.9	0.000000	0.000000	7.109640	146.263	NaN	0.000000	0.001518	0.001712	28.0813	36.4983	0.001877	19441.5	4.930294	-179.732	145.789	1.103194	0.016921	0.016528	146.263	19441.5	0.011278	0.010637	13750.3	172224
359	2.000000	1.105551	7.36858e+06	-56589.1	955.82	-29738.9	0.000000	0.000000	7.112068	157.516	NaN	0.000000	0.001531	0.001650	28.0816	37.3431	0.001707	21875.3	2.481818	-179.612	156.783	1.105242	0.018885	0.018575	157.516	21875.3	0.013484	0.013317	11828	173189
359	2.000000	1.107468	7.36858e+06	-56589.1	955.82	-29738.9	0.000000	0.000000	7.114512	170.323	NaN	0.000000	0.001547	0.001663	28.0809	39.1681	0.001868	20963.1	3.383836	-179.771	166.557	1.107175	0.020802	0.020509	170.323	20963.1	0.014708	0.014898	11432.3	156913
359	2.000000	1.109558	7.36858e+06	-56589.1	955.82	-29738.9	0.000000	0.000000	7.117039	180.95	NaN	0.000000	0.001531	0.001712	28.0801	41.1383	0.002021	20360.5	7.920935	176.979	182.062	1.109232	0.022892	0.022566	180.95	20360.5	0.016227	0.016956	10671.8	142856
359	2.000000	1.111483	7.36858e+06	-56589.1	955.82	-29738.9	0.000000	0.000000	7.119612	196.717	NaN	0.000000	0.001558	0.001674	28.0801	41.428	0.001868	22176.6	3.136258	179.956	193.866	1.111210	0.024817	0.024543	196.717	22176.6	0.018164	0.019739	9965.89	144214
359	2.000000	1.113508	7.36858e+06	-56589.1	955.82	-29738.9	0.000000	0.000000	7.122153	209.248	NaN	0.000000	0.001562	0.001697	28.0801	42.6659	0.002023	21092.7	0.000376	-176.392	205.549	1.113183	0.026842	0.026517	209.248	21092.7	0.019402	0.021611	9682.47	131090
359	2.000000	1.115496	7.36858e+06	-56589.1	955.819	-29738.9	0.000000	0.000000	7.124743	223.894	NaN	0.000000	0.001540	0.001714	28.0804	43.7686	0.001822	24018.6	3.695455	179.159	221.333	1.115135	0.028830	0.028469	223.894	24018.6	0.021838	0.025514	8775.44	137383
359	2.000000	1.117501	7.36858e+06	-56589.1	955.82	-29738.9	0.000000	0.000000	7.127284	236.915	NaN	0.000000	0.001556	0.001665	28.0803	46.1105	0.001857	24824.3	5.401680	176.468	234.27	1.117251	0.030835	0.030584	236.915	24824.3	0.023677	0.028653	8268.32	133987
359	2.000000	1.119429	7.36858e+06	-56589.1	955.82	-29738.9	0.000000	0.000000	7.129658	247.761	NaN	0.000000	0.001571	0.001678	28.0801	46.7966	0.001885	24819.7	4.068198	177.661	241.515	1.119173	0.032762	0.032506	247.761	24819.7	0.025276	0.031519	7860.67	127727
359	2.000000	1.121492	7.36858e+06	-56589.1	955.82	-29738.9	0.000000	0.000000	7.132278	261.287	NaN	0.000000	0.001559	0.001682	28.08	48.9147	0.001877	26060.8	3.899209	177.807	257.736	1.121113	0.034826	0.034446	261.287	26060.8	0.027306	0.035346	7392.34	126646
359	2.000000	1.123552	7.36858e+06	-56589.1	955.821	-29738.9	0.000000	0.000000	7.134533	266.033	NaN	0.000000	0.001581	0.001695	28.0802	50.7889	0.001917	26500.4	3.409411	178.363	263.597	1.123374	0.036886	0.036708	266.033	26500.4	0.029357	0.039421	6748.51	121945
359	2.000000	1.125517	7.36858e+06	-56589.1	955.82	-29738.9	0.000000	0.000000	7.137264	284.643	NaN	0.000000	0.001504	0.001679	28.0802	52.0746	0.001848	28175.3	2.972314	178.173	283.345	1.125235	0.038851	0.038569	284.643	28175.3	0.031274	0.043425	6554.8	123530
359	2.000000	1.127452	7.36858e+06	-56589.1	955.82	-29738.9	0.000000	0.000000	7.140019	304.581	NaN	0.000000	0.001576	0.001693	28.0802	53.7018	0.001816	29569.2	2.442226	178.501	300.351	1.127203	0.040786	0.040537	304.581	29569.2	0.033061	0.047326	6435.77	124183
359	2.000000	1.129455	7.36858e+06	-56589.1	955.819	-29738.9	0.000000	0.000000	7.142827	324.149	NaN	0.000000	0.001579	0.001646	28.0803	54.5541	0.001896	28780.5	4.662584	177.129	319.887	1.129122	0.042789	0.042455	324.149	28780.5	0.034342	0.050225	6453.97	117331
359	2.000000	1.131538	7.36858e+06	-56589.1	955.82	-29738.9	0.000000	0.000000	7.144856	322.843	NaN	0.000000	0.001572	0.001657	28.0803	57.1004	0.001687	33846.7	2.449051	176.912	321.795	1.131229	0.044871	0.044562	322.843	33846.7	0.037718	0.058263	5541.15	128113
359	2.000000	1.133564	7.36858e+06	-56589.1	955.821	-29738.9	0.000000	0.000000	7.147896	347.481	NaN	0.000000	0.001562	0.001711	28.0802	60.3345	0.001875	32177	5.664631	174.562	347.755	1.133241	0.046898	0.046574	347.481	32177	0.038799	0.060960	5700.13	119068
359	2.000000	1.135453	7.36858e+06	-56589.1	955.82	-29738.9	0.000000	0.000000	7.150495	364.727	NaN	0.000000	0.001573	0.001697	28.0802	60.3354	0.001794	33628.7	0.672562	179.466	361.118	1.135256	0.048787	0.048589	364.727	33628.7	0.040653	0.065726	5549.19	119843
359	2.000000	1.137508	7.36858e+06	-56589.1	955.82	-29738.9	0.000000	0.000000	7.153452	386.657	NaN	0.000000	0.001578	0.001713	28.0801	64.7504	0.001869	34650.3	7.166901	172.506	384.024	1.137190	0.050842	0.050524	386.657	34650.3	0.042473	0.070574	5478.72	119167
359	2.000000	1.139405	7.36858e+06	-56589.1	955.821	-29738.9	0.000000	0.000000	7.156013	402.813	NaN	0.000000	0.001581	0.001719	28.0804	64.3815	0.001894	33987.2	2.852613	177.306	397.253	1.139146	0.052739	0.052480	402.813	33987.2	0.043850	0.074355	5417.4	113876
359	2.000000	1.141431	7.36858e+06	-56589.1	955.82	-29738.9	0.000000	0.000000	7.158674	418.245	NaN	0.000000	0.001551	0.001729	28.081	66.4116	0.001805	36802.7	2.958576	175.93	413.467	1.141184	0.054764	0.054518	418.245	36802.7	0.046241	0.081149	5154.02	118035
359	2.000000	1.143625	7.36858e+06	-56589.1	955.82	-29738.9	0.000000	0.000000	7.161578	435.497	NaN	0.000000	0.001569	0.001715	28.0813	70.4097	0.001843	38213.5	10.4067	169.826	440.51	1.143118	0.056959	0.056452	435.497	38213.5	0.048412	0.087567	4973.29	117983
359	2.000000	1.145445	7.36858e+06	-56589.1	955.82	-29738.9	0.000000	0.000000	7.163803	445.339	NaN	0.000000	0.001555	0.001709	28.0815	68.9249	0.001677	41088.5	1.110528	176.753	440.82	1.145149	0.058779	0.058482	445.339	41088.5	0.050650	0.094433	4715.94	122161
359	2.000000	1.147508	7.36858e+06	-56589.1	955.821	-29738.9	0.000000	0.000000	7.166403	458.401	NaN	0.000000	0.001560	0.001744	28.0811	71.9609	0.001748	41172.2	2.496755	175.506	456.097	1.147364	0.060841	0.060698	458.401	41172.2	0.052491	0.100268	4571.74	118794
359	2.000000	1.149444	7.36858e+06	-56589.1	955.82	-29738.9	0.000000	0.000000	7.169552	487.875	NaN	0.000000	0.001571	0.001713	28.0816	72.6338	0.001762	41224	4.255290	173.87	484.213	1.149188	0.062778	0.062522	487.875	41224	0.053902	0.104855	4652.87	116313
359	2.000000	1.151353	7.36858e+06	-56589.1	955.82	-29738.9	0.000000	0.000000	7.172335	509.126	NaN	0.000000	0.001544	0.001700	28.0816	75.3289	0.001867	40350.9	6.000695	172.49	500.252	1.151092	0.064687	0.064425	509.126	40350.9	0.055223	0.109240	4660.63	111541
359	2.000000	1.153487	7.36858e+06	-56589.1	955.82	-29738.9	0.000000	0.000000	7.175620	537.087	NaN	0.000000	0.001559	0.001724	28.0815	76.9361	0.001847	41652.9	5.145122	173.763	535.03	1.153092	0.066821	0.066425	537.087	41652.9	0.057150	0.115788	4638.53	111837
359	2.000000	1.155445	7.36858e+06	-56589.1	955.82	-29738.9	0.000000	0.000000	7.177715	540.42	NaN	0.000000	0.001585	0.001669	28.0816	78.1858	0.001856	42123	2.977765	175.526	537.135	1.155122	0.068778	0.068456	540.42	42123	0.059156	0.122800	4400.81	109823
359	2.000000	1.157497	7.36858e+06	-56589.1	955.82	-29738.9	0.000000	0.000000	7.181077	572.287	NaN	0.000000	0.001554	0.001680	28.0813	81.6622	0.001921	42500.1	7.831357	170.807	572.641	1.157074	0.070830	0.070408	572.287	42500.1	0.060731	0.128443	4455.58	108345
359	2.000000	1.159634	7.36858e+06	-56589.1	955.82	-29738.9	0.000000	0.000000	7.183574	581.037	NaN	0.000000	0.001562	0.001755	28.0815	80.7376	0.001784	45257	5.048965	173.13	590.456	1.159200	0.072967	0.072533	581.037	45257	0.063338	0.138051	4208.87	111286
359	2.000000	1.161382	7.36858e+06	-56589.1	955.82	-29738.9	0.000000	0.000000	7.186656	613.453	NaN	0.000000	0.001545	0.001727	28.0813	82.1695	0.001743	47148.4	2.418602	175.245	607.503	1.161071	0.074715	0.074405	613.453	47148.4	0.064957	0.144181	4254.73	113445
359	2.000000	1.163656	7.36858e+06	-56589.1	955.82	-29738.9	0.000000	0.000000	7.188189	595.438	NaN	0.000000	0.001547	0.001739	28.0816	85.2974	0.001791	47633.2	2.911613	174.168	598.777	1.163668	0.076989	0.077002	595.438	47633.2	0.067614	0.154517	3853.55	110712
359	2.000000	1.165303	7.36858e+06	-56589.1	955.821	-29738.9	0.000000	0.000000	7.191622	638.854	NaN	0.000000	0.001544	0.001781	28.0817	85.964	0.001765	48712.1	1.889336	175.155	628.498	1.164959	0.078636	0.078293	638.854	48712.1	0.068800	0.159242	4011.85	111528
359	2.000000	1.167735	7.36858e+06	-56589.1	955.821	-29738.9	0.000000	0.000000	7.194860	658.428	NaN	0.000000	0.001529	0.001752	28.0814	90.5992	0.001976	45851.1	10.7616	169.371	669.897	1.167104	0.081068	0.080437	658.428	45851.1	0.070298	0.165303	3983.15	103034
359	2.000000	1.169317	7.36858e+06	-56589.1	955.82	-29738.9	0.000000	0.000000	7.196702	664.764	NaN	0.000000	0.001556	0.001738	28.0822	89.9145	0.001765	50947.4	3.473411	173.339	655.496	1.168999	0.082651	0.082333	664.764	50947.4	0.072865	0.175936	3778.45	110973
359	2.000000	1.171408	7.36858e+06	-56589.1	955.82	-29738.9	0.000000	0.000000	7.200381	703.366	NaN	0.000000	0.001603	0.001754	28.0814	93.0149	0.001895	49074.3	5.051652	171.982	699.868	1.171127	0.084741	0.084461	703.366	49074.3	0.073992	0.180704	3892.38	105474
359	2.000000	1.173309	7.36858e+06	-56589.1	955.82	-29738.9	0.000000	0.000000	7.202261	702.861	NaN	0.000000	0.001573	0.001762	28.0816	93.7017	0.001802	51999.6	0.976048	175.761	692.171	1.173035	0.086642	0.086369	702.861	51999.6	0.076505	0.191550	3669.33	108551
359	2.000000	1.174378	7.36858e+06	-56589.1	955.82	-29738.9	0.000000	0.000000	7.204503	731.354	NaN	0.000000	0.001573	0.001776	28.0827	94.2491	0.001697	55522.8	3.095952	173.304	725.318	1.174038	0.087712	0.087372	731.354	55522.8	0.077833	0.197401	3704.91	114175