File: remote_trans/data/nanoindenter/0828-1/data/Data_2025-08-06,11h17m57s/2025-07-22_16-23-58_1_1045.txt
2025-07-22, 16:23:58, 1
Index	Phase	Displacement	Time	Pos X	Pos Y	Pos Z	Rot A	Rot B	Piezo Z	Force A	Force B	Gripper	Voltage A	Voltage B	Temperature	Amplitude force	Amplitude pos	Stiffness	Phase shift	Phase excitation	Force A raw	Displacement raw	HMax	HMax raw	Real Force	Real Stiffness	Contact Depth	Area	Hardness	Reduced Mod.
[#]	[#]	[um]	[s]	[um]	[um]	[um]	[m°]	[m°]	[um]	[uN]	[uN]	[V]	[V]	[V]	[°C]	[uN]	[um]	[N/m]	[°]	[°]	[uN]	[um]	[um]	[um]	[uN]	[N/m]	[um]	[um^2]	[MPa]	[MPa]
1045	1.000000	0.002604	7.37527e+06	-52389.1	1055.82	-29749.2	0.000000	0.000000	6.002764	0.034666	NaN	0.000000	0.001582	0.001813	28.0852	0.029659	0.001059	28.0127	38.1628	-163.424	0.016053	0.001367	-1.032863	-1.034099	0.034666	28.0127	-1.033791	-6.463466E+13	-5.363312E-16	NaN
1045	1.000000	0.010588	7.37527e+06	-52389.1	1055.82	-29749.2	0.000000	0.000000	6.010748	0.028840	NaN	0.000000	0.001615	0.001823	28.0848	0.077004	0.000912	84.429	107.745	-165.562	0.074699	0.009268	-1.024878	-1.026198	0.028840	84.429	-1.025134	-4.943435E+13	-5.834038E-16	NaN
1045	1.000000	0.018596	7.37527e+06	-52389.1	1055.82	-29749.2	0.000000	0.000000	6.018754	-0.022150	NaN	0.000000	0.001578	0.001825	28.0847	0.068344	0.001775	38.4944	90.0806	-163.208	-0.027529	0.017315	-1.016870	-1.018151	-0.022150	38.4944	-1.016438	-3.775978E+13	5.866069E-16	NaN
1045	1.000000	0.026634	7.37527e+06	-52389.1	1055.82	-29749.2	0.000000	0.000000	6.026792	-0.013917	NaN	0.000000	0.001616	0.001822	28.085	0.073401	0.001823	40.2547	166.902	-165.047	0.009394	0.025319	-1.008832	-1.010147	-0.013917	40.2547	-1.008573	-2.959173E+13	4.703072E-16	NaN
1045	1.000000	0.034618	7.37527e+06	-52389.1	1055.82	-29749.2	0.000000	0.000000	6.034775	-0.047707	NaN	0.000000	0.001610	0.001818	28.085	0.094609	0.002010	47.0608	-125.321	-164.37	0.047803	0.033291	-1.000848	-1.002175	-0.047707	47.0608	-1.000088	-2.274822E+13	2.097188E-15	NaN
1045	1.000000	0.042597	7.37527e+06	-52389.1	1055.82	-29749.3	0.000000	0.000000	6.042755	-0.006660	NaN	0.000000	0.001603	0.001840	28.085	0.055759	0.002003	27.8371	-19.4859	-163.583	0.034800	0.041268	-0.992869	-0.994198	-0.006660	27.8371	-0.992690	-1.808576E+13	3.682221E-16	NaN
1045	1.000000	0.050609	7.37527e+06	-52389.1	1055.82	-29749.3	0.000000	0.000000	6.050766	-0.041291	NaN	0.000000	0.001594	0.001785	28.0851	0.061923	0.002027	30.5547	0.231600	-161.523	-0.009133	0.049279	-0.984857	-0.986187	-0.041291	30.5547	-0.983844	-1.374647E+13	3.003768E-15	NaN
1045	1.000000	0.058595	7.37527e+06	-52389.1	1055.82	-29749.3	0.000000	0.000000	6.058753	-0.013626	NaN	0.000000	0.001570	0.001816	28.0862	0.050773	0.001991	25.5019	128.906	-166.767	0.040380	0.057263	-0.976871	-0.978203	-0.013626	25.5019	-0.976470	-1.093581E+13	1.245988E-15	NaN
1045	1.000000	0.066560	7.37527e+06	-52389.1	1055.82	-29749.3	0.000000	0.000000	6.066719	0.011260	NaN	0.000000	0.001585	0.001814	28.0851	0.060286	0.002016	29.9024	-130.53	-167.629	0.064710	0.065299	-0.968906	-0.970167	0.011260	29.9024	-0.969189	-8.724239E+12	-1.290622E-15	NaN
1045	1.000000	0.074560	7.37527e+06	-52389.1	1055.82	-29749.3	0.000000	0.000000	6.074717	-0.035881	NaN	0.000000	0.001599	0.001802	28.0837	0.088394	0.002009	43.9941	-9.191198	-163.214	0.020219	0.073264	-0.960907	-0.962202	-0.035881	43.9941	-0.960295	-6.619791E+12	5.420261E-15	NaN
1045	1.000000	0.082601	7.37527e+06	-52389.1	1055.82	-29749.3	0.000000	0.000000	6.082761	0.018971	NaN	0.000000	0.001562	0.001828	28.0839	0.085901	0.001953	43.9742	-6.929752	-166.394	0.051131	0.081295	-0.952865	-0.954171	0.018971	43.9742	-0.953189	-5.309176E+12	-3.573193E-15	NaN
1045	1.000000	0.090593	7.37527e+06	-52389.1	1055.82	-29749.3	0.000000	0.000000	6.090752	0.014130	NaN	0.000000	0.001589	0.001825	28.084	0.122514	0.001962	62.4347	76.342	-165.553	-0.003284	0.089325	-0.944874	-0.946141	0.014130	62.4347	-0.945043	-4.122618E+12	-3.427391E-15	NaN
1045	1.000000	0.098605	7.37527e+06	-52389.1	1055.82	-29749.3	0.000000	0.000000	6.098761	-0.055984	NaN	0.000000	0.001565	0.001792	28.0842	0.148978	0.002116	70.3906	179.947	-165.002	-0.027200	0.097336	-0.936861	-0.938130	-0.055984	70.3906	-0.936265	-3.138602E+12	1.783733E-14	NaN
1045	1.000000	0.106606	7.37527e+06	-52389.1	1055.82	-29749.3	0.000000	0.000000	6.106765	0.023060	NaN	0.000000	0.001614	0.001798	28.0837	0.038993	0.002038	19.1297	-111.449	-166.298	0.049775	0.105314	-0.928861	-0.930152	0.023060	19.1297	-0.929765	-2.564613E+12	-8.991542E-15	NaN
1045	1.000000	0.114601	7.37527e+06	-52389.1	1055.82	-29749.3	0.000000	0.000000	6.114759	-0.020965	NaN	0.000000	0.001577	0.001782	28.0839	0.072372	0.002040	35.479	176.013	-165.714	-0.040357	0.113297	-0.920865	-0.922169	-0.020965	35.479	-0.920422	-1.918244E+12	1.092914E-14	NaN
1045	1.000000	0.122609	7.37527e+06	-52389.1	1055.82	-29749.3	0.000000	0.000000	6.122768	0.005330	NaN	0.000000	0.001587	0.001810	28.0842	0.081269	0.001976	41.1231	-46.3987	-164.362	-0.003709	0.121249	-0.912857	-0.914218	0.005330	41.1231	-0.912954	-1.520758E+12	-3.504638E-15	NaN
1045	1.000000	0.130610	7.37527e+06	-52389.1	1055.82	-29749.3	0.000000	0.000000	6.130766	-0.049200	NaN	0.000000	0.001649	0.001752	28.0842	0.072164	0.001881	38.3696	52.148	-162.602	0.004415	0.129309	-0.904856	-0.906158	-0.049200	38.3696	-0.903895	-1.147333E+12	4.288179E-14	NaN
1045	1.000000	0.138593	7.37527e+06	-52389.1	1055.82	-29749.3	0.000000	0.000000	6.138753	0.042790	NaN	0.000000	0.001611	0.001797	28.0841	0.045334	0.001926	23.5358	37.3779	-164.179	0.034568	0.137329	-0.896873	-0.898138	0.042790	23.5358	-0.898237	-9.621421E+11	-4.447319E-14	NaN
1045	1.000000	0.146626	7.37527e+06	-52389.1	1055.82	-29749.3	0.000000	0.000000	6.146784	-0.015968	NaN	0.000000	0.001622	0.001784	28.0839	0.099576	0.001991	50.0012	15.8752	-166.144	0.011207	0.145347	-0.888840	-0.890119	-0.015968	50.0012	-0.888600	-7.128435E+11	2.240026E-14	NaN
1045	1.000000	0.154607	7.37527e+06	-52389.1	1055.82	-29749.3	0.000000	0.000000	6.154767	0.024772	NaN	0.000000	0.001636	0.001816	28.0841	0.033814	0.001981	17.0673	-94.2783	-167.363	-0.054242	0.153325	-0.880859	-0.882141	0.024772	17.0673	-0.881948	-5.794878E+11	-4.274767E-14	NaN
1045	1.000000	0.162635	7.37527e+06	-52389.1	1055.82	-29749.3	0.000000	0.000000	6.162793	-0.005010	NaN	0.000000	0.001646	0.001821	28.0838	0.026359	0.001980	13.3111	-31.0689	-165.385	0.032806	0.161314	-0.872832	-0.874153	-0.005010	13.3111	-0.872549	-4.324464E+11	1.158450E-14	NaN
1045	1.000000	0.170643	7.37527e+06	-52389.1	1055.82	-29749.3	0.000000	0.000000	6.170802	0.006891	NaN	0.000000	0.001646	0.001796	28.084	0.108623	0.001825	59.5043	-92.8974	-161.471	0.066298	0.169357	-0.864823	-0.866109	0.006891	59.5043	-0.864910	-3.408591E+11	-2.021626E-14	NaN
1045	1.000000	0.178654	7.37527e+06	-52389.1	1055.82	-29749.3	0.000000	0.000000	6.178811	-0.052074	NaN	0.000000	0.001638	0.001802	28.0842	0.080142	0.001951	41.069	-53.4903	-165.909	-0.037844	0.177328	-0.856812	-0.858138	-0.052074	41.069	-0.855861	-2.570934E+11	2.025494E-13	NaN
1045	1.000000	0.186653	7.37527e+06	-52389.1	1055.82	-29749.3	0.000000	0.000000	6.186809	-0.067805	NaN	0.000000	0.001636	0.001816	28.0837	0.103347	0.002057	50.2327	-145.885	-167.881	-0.116179	0.185312	-0.848813	-0.850154	-0.067805	50.2327	-0.847801	-1.999654E+11	3.390843E-13	NaN
1045	1.000000	0.194656	7.37527e+06	-52389.1	1055.82	-29749.3	0.000000	0.000000	6.194813	-0.043375	NaN	0.000000	0.001653	0.001805	28.0842	0.113877	0.002162	52.6703	1.142305	-166.729	-0.130435	0.193338	-0.840810	-0.842128	-0.043375	52.6703	-0.840192	-1.577249E+11	2.750015E-13	NaN
1045	1.000000	0.202658	7.37527e+06	-52389.1	1055.82	-29749.3	0.000000	0.000000	6.202815	-0.034604	NaN	0.000000	0.001596	0.001810	28.0835	0.023852	0.002076	11.4889	104.209	-166.083	-0.043027	0.201351	-0.832808	-0.834115	-0.034604	11.4889	-0.830549	-1.167427E+11	2.964149E-13	NaN
1045	1.000000	0.210643	7.37527e+06	-52389.1	1055.82	-29749.3	0.000000	0.000000	6.210801	-0.019570	NaN	0.000000	0.001602	0.001810	28.0848	0.065599	0.001956	33.5392	66.9751	-166.48	-0.079588	0.209368	-0.824823	-0.826098	-0.019570	33.5392	-0.824385	-9.631003E+10	2.032012E-13	NaN
1045	1.000000	0.218637	7.37527e+06	-52389.1	1055.82	-29749.3	0.000000	0.000000	6.218797	0.032927	NaN	0.000000	0.001642	0.001792	28.0849	0.102825	0.001927	53.3525	-151.64	-166.269	-0.032868	0.217344	-0.816829	-0.818122	0.032927	53.3525	-0.817292	-7.717702E+10	-4.266407E-13	NaN
1045	1.000000	0.226668	7.37527e+06	-52389.1	1055.82	-29749.3	0.000000	0.000000	6.226829	0.046558	NaN	0.000000	0.001641	0.001768	28.0847	0.087378	0.001996	43.7838	-41.6919	-163.121	0.018115	0.225289	-0.808798	-0.810177	0.046558	43.7838	-0.809595	-6.068500E+10	-7.672054E-13	NaN
1045	1.000000	0.234661	7.37527e+06	-52389.1	1055.82	-29749.3	0.000000	0.000000	6.234820	0.022325	NaN	0.000000	0.001620	0.001783	28.0852	0.031129	0.001911	16.2908	-133.17	-162.765	0.085779	0.233328	-0.800806	-0.802138	0.022325	16.2908	-0.801833	-4.761565E+10	-4.688635E-13	NaN
1045	1.000000	0.242660	7.37527e+06	-52389.1	1055.82	-29749.3	0.000000	0.000000	6.242818	-0.009806	NaN	0.000000	0.001603	0.001768	28.0848	0.143845	0.002083	69.0644	-19.7675	-164.956	0.005711	0.241363	-0.792807	-0.794103	-0.009806	69.0644	-0.792700	-3.578927E+10	2.739982E-13	NaN
1045	1.000000	0.250679	7.37527e+06	-52389.1	1055.82	-29749.3	0.000000	0.000000	6.250835	-0.054851	NaN	0.000000	0.001591	0.001769	28.0847	0.011967	0.001963	6.095773	-123.982	-164	-0.047401	0.249386	-0.784787	-0.786080	-0.054851	6.095773	-0.778039	-2.262456E+10	2.424404E-12	NaN
1045	1.000000	0.258663	7.37527e+06	-52389.1	1055.82	-29749.3	0.000000	0.000000	6.258820	-0.016236	NaN	0.000000	0.001579	0.001816	28.085	0.022629	0.002027	11.1662	-93.1928	-165.169	-0.048693	0.257353	-0.776804	-0.778113	-0.016236	11.1662	-0.775713	-2.103645E+10	7.717809E-13	NaN
1045	1.000000	0.266688	7.37527e+06	-52389.1	1055.82	-29749.3	0.000000	0.000000	6.266845	-0.032584	NaN	0.000000	0.001609	0.001819	28.085	0.095550	0.001974	48.4161	-128.815	-169.035	0.072284	0.265388	-0.768778	-0.770078	-0.032584	48.4161	-0.768273	-1.666582E+10	1.955156E-12	NaN
1045	1.000000	0.274692	7.37527e+06	-52389.1	1055.82	-29749.3	0.000000	0.000000	6.274848	-0.055615	NaN	0.000000	0.001601	0.001790	28.0854	0.078584	0.002061	38.1309	-50.4699	-165.773	-0.036039	0.273376	-0.760775	-0.762091	-0.055615	38.1309	-0.759681	-1.273379E+10	4.367526E-12	NaN
1045	1.000000	0.282720	7.37527e+06	-52389.1	1055.82	-29749.3	0.000000	0.000000	6.282876	-0.056030	NaN	0.000000	0.001590	0.001850	28.0849	0.077948	0.002082	37.4389	157.178	-164.521	-0.036430	0.281388	-0.752747	-0.754078	-0.056030	37.4389	-0.751624	-9.893031E+9	5.663535E-12	NaN
1045	1.000000	0.290686	7.37527e+06	-52389.1	1055.82	-29749.3	0.000000	0.000000	6.290846	0.021382	NaN	0.000000	0.001591	0.001808	28.0851	0.077392	0.001986	38.9602	13.6683	-164.638	-0.059636	0.289421	-0.744780	-0.746046	0.021382	38.9602	-0.745192	-8.086448E+9	-2.644197E-12	NaN
1045	1.000000	0.298676	7.37527e+06	-52389.1	1055.82	-29749.3	0.000000	0.000000	6.298836	0.031766	NaN	0.000000	0.001605	0.001806	28.0848	0.083902	0.002059	40.7557	-88.839	-165.711	-0.030275	0.297415	-0.736790	-0.738051	0.031766	40.7557	-0.737375	-6.328379E+9	-5.019566E-12	NaN
1045	1.000000	0.306719	7.37527e+06	-52389.1	1055.82	-29749.3	0.000000	0.000000	6.306880	0.049810	NaN	0.000000	0.001556	0.001786	28.0847	0.037747	0.002015	18.7371	98.4744	-167.845	-0.013297	0.305390	-0.728747	-0.730076	0.049810	18.7371	-0.730741	-5.139271E+9	-9.691973E-12	NaN
1045	1.000000	0.314689	7.37527e+06	-52389.1	1055.82	-29749.3	0.000000	0.000000	6.314849	0.033207	NaN	0.000000	0.001586	0.001813	28.0848	0.034833	0.001925	18.0955	71.6763	-164.951	0.026140	0.313439	-0.720777	-0.722028	0.033207	18.0955	-0.722153	-3.924977E+9	-8.460452E-12	NaN
1045	1.000000	0.322700	7.37527e+06	-52389.1	1055.82	-29749.3	0.000000	0.000000	6.322855	-0.076591	NaN	0.000000	0.001600	0.001803	28.0847	0.076532	0.001912	40.0255	-48.3441	-161	-0.096687	0.321368	-0.712766	-0.714098	-0.076591	40.0255	-0.711331	-2.793929E+9	2.741349E-11	NaN
1045	1.000000	0.330728	7.37527e+06	-52389.1	1055.82	-29749.3	0.000000	0.000000	6.330888	0.036401	NaN	0.000000	0.001601	0.001810	28.0851	0.037288	0.002032	18.354	-16.744	-167.186	0.062952	0.329372	-0.704739	-0.706094	0.036401	18.354	-0.706226	-2.379788E+9	-1.529582E-11	NaN
1045	1.000000	0.338718	7.37527e+06	-52389.1	1055.82	-29749.3	0.000000	0.000000	6.338878	0.035860	NaN	0.000000	0.001617	0.001819	28.0849	0.073790	0.002058	35.8543	-122.081	-168.331	0.187851	0.337394	-0.696749	-0.698072	0.035860	35.8543	-0.697499	-1.808712E+9	-1.982642E-11	NaN
1045	1.000000	0.346687	7.37527e+06	-52389.1	1055.82	-29749.3	0.000000	0.000000	6.346843	-0.065005	NaN	0.000000	0.001581	0.001780	28.0837	0.039764	0.001967	20.2148	63.0457	-167.226	-0.105263	0.345388	-0.688779	-0.690078	-0.065005	20.2148	-0.686367	-1.274282E+9	5.101310E-11	NaN
1045	1.000000	0.354719	7.37527e+06	-52389.1	1055.82	-29749.3	0.000000	0.000000	6.354874	-0.072641	NaN	0.000000	0.001622	0.001803	28.0836	0.070023	0.001848	37.8925	161.263	-165.25	-0.030253	0.353426	-0.680748	-0.682040	-0.072641	37.8925	-0.679310	-1.020387E+9	7.119003E-11	NaN
1045	1.000000	0.362727	7.37527e+06	-52389.1	1055.82	-29749.3	0.000000	0.000000	6.362883	-0.059373	NaN	0.000000	0.001635	0.001795	28.0835	0.031633	0.002148	14.7277	8.418874	-167.782	-0.051795	0.361426	-0.672740	-0.674041	-0.059373	14.7277	-0.669716	-7.542326E+8	7.871927E-11	NaN
1045	1.000000	0.370709	7.37527e+06	-52389.1	1055.82	-29749.3	0.000000	0.000000	6.370866	-0.021669	NaN	0.000000	0.001639	0.001809	28.0835	0.098167	0.001995	49.1975	-139.799	-164.339	-0.033740	0.369368	-0.664757	-0.666098	-0.021669	49.1975	-0.664427	-6.384097E+8	3.394207E-11	NaN
1045	1.000000	0.378717	7.37527e+06	-52389.1	1055.82	-29749.3	0.000000	0.000000	6.378878	0.038524	NaN	0.000000	0.001659	0.001784	28.0838	0.042300	0.002105	20.0932	-95.7369	-166.522	0.079009	0.377420	-0.656749	-0.658047	0.038524	20.0932	-0.658187	-5.243614E+8	-7.346921E-11	NaN
1045	1.000000	0.386743	7.37527e+06	-52389.1	1055.82	-29749.3	0.000000	0.000000	6.386900	-0.043573	NaN	0.000000	0.001644	0.001802	28.084	0.018708	0.001967	9.509422	-153.791	-168.499	-0.002946	0.385397	-0.648723	-0.650069	-0.043573	9.509422	-0.645287	-3.489883E+8	1.248538E-10	NaN
1045	1.000000	0.394746	7.37527e+06	-52389.1	1055.82	-29749.3	0.000000	0.000000	6.394903	-0.034155	NaN	0.000000	0.001637	0.001800	28.0837	0.114054	0.001945	58.6245	18.6862	-165.684	-0.045574	0.393501	-0.640721	-0.641965	-0.034155	58.6245	-0.640284	-2.979773E+8	1.146237E-10	NaN
1045	1.000000	0.402745	7.37527e+06	-52389.1	1055.82	-29749.3	0.000000	0.000000	6.402901	-0.049408	NaN	0.000000	0.001638	0.001800	28.0838	0.155521	0.001923	80.8625	-127.896	-166.044	-0.028193	0.401433	-0.632722	-0.634034	-0.049408	80.8625	-0.632263	-2.312603E+8	2.136462E-10	NaN
1045	1.000000	0.410728	7.37527e+06	-52389.1	1055.82	-29749.3	0.000000	0.000000	6.410888	0.015020	NaN	0.000000	0.001659	0.001791	28.0837	0.103895	0.001950	53.2736	168.428	-167.734	0.031191	0.409420	-0.624738	-0.626046	0.015020	53.2736	-0.624949	-1.835049E+8	-8.184912E-11	NaN
1045	1.000000	0.418733	7.37527e+06	-52389.1	1055.82	-29749.3	0.000000	0.000000	6.418892	0.007129	NaN	0.000000	0.001622	0.001813	28.0839	0.076075	0.001889	40.2723	-105.242	-164.212	0.010237	0.417407	-0.616733	-0.618059	0.007129	40.2723	-0.616866	-1.420847E+8	-5.017645E-11	NaN
1045	1.000000	0.426746	7.37527e+06	-52389.1	1055.82	-29749.3	0.000000	0.000000	6.426906	0.021057	NaN	0.000000	0.001639	0.001791	28.0839	0.069406	0.002058	33.7206	-116.665	-164.635	0.094826	0.425440	-0.608720	-0.610026	0.021057	33.7206	-0.609188	-1.114150E+8	-1.890005E-10	NaN
1045	1.000000	0.434758	7.37527e+06	-52389.1	1055.82	-29749.3	0.000000	0.000000	6.434916	-0.027054	NaN	0.000000	0.001658	0.001749	28.0836	0.057479	0.002008	28.6279	144.803	-164.788	-0.066894	0.433475	-0.600708	-0.601992	-0.027054	28.6279	-0.599999	-8.326272E+7	3.249264E-10	NaN
1045	1.000000	0.442753	7.37527e+06	-52389.1	1055.82	-29749.3	0.000000	0.000000	6.442914	0.050265	NaN	0.000000	0.001635	0.001752	28.0839	0.057457	0.002178	26.3833	-21.8113	-164.226	-0.032148	0.441445	-0.592713	-0.594021	0.050265	26.3833	-0.594142	-6.914410E+7	-7.269664E-10	NaN
1045	1.000000	0.450733	7.37527e+06	-52389.1	1055.82	-29749.3	0.000000	0.000000	6.450893	0.026708	NaN	0.000000	0.001630	0.001804	28.0837	0.090298	0.002052	43.9984	22.2814	-169.978	0.021419	0.449459	-0.584733	-0.586007	0.026708	43.9984	-0.585188	-5.203655E+7	-5.132596E-10	NaN
1045	1.000000	0.458770	7.37527e+06	-52389.1	1055.82	-29749.3	0.000000	0.000000	6.458929	0.011210	NaN	0.000000	0.001606	0.001747	28.0837	0.054354	0.001988	27.3406	-124.069	-166.159	-0.022103	0.457455	-0.576697	-0.578011	0.011210	27.3406	-0.577004	-4.012091E+7	-2.794076E-10	NaN
1045	1.000000	0.466774	7.37527e+06	-52389.1	1055.82	-29749.3	0.000000	0.000000	6.466932	0.003235	NaN	0.000000	0.001589	0.001800	28.0836	0.105541	0.002084	50.638	70.4973	-164.959	-0.013167	0.465490	-0.568692	-0.569977	0.003235	50.638	-0.568740	-3.084794E+7	-1.048594E-10	NaN
1045	1.000000	0.474761	7.37527e+06	-52389.1	1055.82	-29749.3	0.000000	0.000000	6.474916	-0.081230	NaN	0.000000	0.001582	0.001812	28.0836	0.158573	0.001933	82.026	17.2526	-168.824	-0.084267	0.473430	-0.560705	-0.562037	-0.081230	82.026	-0.559963	-2.332705E+7	3.482235E-9	NaN
1045	1.000000	0.482771	7.37527e+06	-52389.1	1055.82	-29749.3	0.000000	0.000000	6.482927	-0.055300	NaN	0.000000	0.001579	0.001801	28.085	0.020670	0.002075	9.959860	30.6428	-166.302	-0.128177	0.481412	-0.552695	-0.554054	-0.055300	9.959860	-0.548531	-1.620352E+7	3.412811E-9	NaN
1045	1.000000	0.490770	7.37527e+06	-52389.1	1055.82	-29749.3	0.000000	0.000000	6.490927	-0.031144	NaN	0.000000	0.001572	0.001751	28.0849	0.063299	0.001909	33.1613	-22.5093	-166.557	0.067997	0.489425	-0.544697	-0.546042	-0.031144	33.1613	-0.543992	-1.401880E+7	2.221622E-9	NaN
1045	1.000000	0.498794	7.37527e+06	-52389.1	1055.82	-29749.3	0.000000	0.000000	6.498950	-0.059709	NaN	0.000000	0.001556	0.001788	28.085	0.105646	0.002159	48.9413	127.5	-166.364	-0.016442	0.497495	-0.536672	-0.537971	-0.059709	48.9413	-0.535757	-1.077702E+7	5.540373E-9	NaN
1045	1.000000	0.506774	7.37527e+06	-52389.1	1055.82	-29749.3	0.000000	0.000000	6.506931	-0.028441	NaN	0.000000	0.001590	0.001762	28.0848	0.115702	0.002023	57.2049	169.392	-165.073	-0.103158	0.505500	-0.528693	-0.529966	-0.028441	57.2049	-0.528320	-8.49646e+06	3.347442E-9	NaN
1045	1.000000	0.514796	7.37527e+06	-52389.1	1055.82	-29749.3	0.000000	0.000000	6.514953	-0.041457	NaN	0.000000	0.001576	0.001772	28.0847	0.205248	0.001931	106.31	-63.1442	-166.824	-0.008176	0.513474	-0.520670	-0.521992	-0.041457	106.31	-0.520378	-6.58951e+06	6.291402E-9	NaN
1045	1.000000	0.522795	7.37527e+06	-52389.1	1055.82	-29749.3	0.000000	0.000000	6.522954	-0.009555	NaN	0.000000	0.001586	0.001763	28.0851	0.071978	0.002147	33.5194	-94.5596	-165.37	-0.016177	0.521519	-0.512671	-0.513947	-0.009555	33.5194	-0.512457	-5.1125e+06	1.869020E-9	NaN
1045	1.000000	0.530791	7.37527e+06	-52389.1	1055.82	-29749.3	0.000000	0.000000	6.530947	-0.054400	NaN	0.000000	0.001575	0.001780	28.0848	0.051908	0.002025	25.6345	36.4584	-163.213	0.017534	0.529501	-0.504676	-0.505966	-0.054400	25.6345	-0.503084	-3.7847e+06	1.437373E-8	NaN
1045	1.000000	0.538781	7.37527e+06	-52389.1	1055.82	-29749.3	0.000000	0.000000	6.538938	-0.058572	NaN	0.000000	0.001579	0.001797	28.085	0.035624	0.002009	17.7328	-113.792	-167.247	0.027427	0.537501	-0.496685	-0.497966	-0.058572	17.7328	-0.494208	-2.84557e+06	2.058352E-8	NaN
1045	1.000000	0.546795	7.37527e+06	-52389.1	1055.82	-29749.3	0.000000	0.000000	6.546951	-0.061959	NaN	0.000000	0.001619	0.001764	28.0848	0.018089	0.002011	8.996208	-23.8294	-164.786	-0.050832	0.545481	-0.488671	-0.489985	-0.061959	8.996208	-0.483506	-2.01647e+06	3.072646E-8	NaN
1045	1.000000	0.554800	7.37527e+06	-52389.1	1055.82	-29749.3	0.000000	0.000000	6.554962	0.077118	NaN	0.000000	0.001599	0.001759	28.0849	0.101584	0.001950	52.1054	-163.627	-167.946	0.017564	0.553503	-0.480666	-0.481963	0.077118	52.1054	-0.481776	-1.90716e+06	-4.043617E-8	NaN
1045	1.000000	0.562806	7.37527e+06	-52389.1	1055.82	-29749.3	0.000000	0.000000	6.562964	-0.013215	NaN	0.000000	0.001606	0.001796	28.0851	0.114364	0.002016	56.7352	120.686	-166.14	0.038290	0.561449	-0.472660	-0.474018	-0.013215	56.7352	-0.472486	-1.41338e+06	9.349979E-9	NaN
1045	1.000000	0.570794	7.37527e+06	-52389.1	1055.82	-29749.3	0.000000	0.000000	6.570951	-0.039239	NaN	0.000000	0.001604	0.001757	28.0849	0.060971	0.002126	28.6817	-173.778	-165.408	-0.103741	0.569464	-0.464673	-0.466002	-0.039239	28.6817	-0.463647	-1.06229e+06	3.693806E-8	NaN
1045	1.000000	0.578796	7.37527e+06	-52389.1	1055.82	-29749.3	0.000000	0.000000	6.578954	-0.018479	NaN	0.000000	0.001592	0.001736	28.0851	0.046177	0.001940	23.8083	96.8842	-164.263	-0.005008	0.577439	-0.456670	-0.458027	-0.018479	23.8083	-0.456088	-831810	2.221590E-8	NaN
1045	1.000000	0.586820	7.37527e+06	-52389.1	1055.82	-29749.3	0.000000	0.000000	6.586976	-0.049144	NaN	0.000000	0.001617	0.001774	28.0849	0.021767	0.001946	11.1863	171.061	-163.017	-0.070529	0.585475	-0.448646	-0.449991	-0.049144	11.1863	-0.445351	-587281	8.368082E-8	NaN
1045	1.000000	0.594856	7.37527e+06	-52389.1	1055.82	-29749.3	0.000000	0.000000	6.595014	-0.017431	NaN	0.000000	0.001618	0.001753	28.0852	0.068887	0.002050	33.6104	-46.8112	-165.422	0.032721	0.593557	-0.440611	-0.441910	-0.017431	33.6104	-0.440222	-497154	3.506213E-8	NaN
1045	1.000000	0.602817	7.37527e+06	-52389.1	1055.82	-29749.3	0.000000	0.000000	6.602978	0.056731	NaN	0.000000	0.001594	0.001737	28.0852	0.130327	0.002066	63.0823	109.433	-166.081	-0.066863	0.601544	-0.432649	-0.433922	0.056731	63.0823	-0.433324	-397247	-1.428095E-7	NaN
1045	1.000000	0.610826	7.37527e+06	-52389.1	1055.82	-29749.3	0.000000	0.000000	6.610984	-0.025931	NaN	0.000000	0.001576	0.001755	28.085	0.041557	0.002069	20.0837	-99.7414	-167.008	-0.025728	0.609520	-0.424640	-0.425946	-0.025931	20.0837	-0.423672	-290043	8.940248E-8	NaN
1045	1.000000	0.618844	7.37527e+06	-52389.1	1055.82	-29749.3	0.000000	0.000000	6.619004	0.038194	NaN	0.000000	0.001600	0.001782	28.0839	0.088836	0.002002	44.3709	-139.592	-164.625	0.016778	0.617490	-0.416623	-0.417976	0.038194	44.3709	-0.417268	-235320	-1.623081E-7	NaN
1045	1.000000	0.626818	7.37527e+06	-52389.1	1055.82	-29749.3	0.000000	0.000000	6.626975	-0.030393	NaN	0.000000	0.001605	0.001760	28.0837	0.042718	0.001948	21.9241	98.9191	-162.071	-0.086179	0.625503	-0.408648	-0.409963	-0.030393	21.9241	-0.407609	-171547	1.771725E-7	NaN
1045	1.000000	0.634845	7.37527e+06	-52389.1	1055.82	-29749.3	0.000000	0.000000	6.635000	-0.094812	NaN	0.000000	0.001614	0.001744	28.0837	0.113509	0.002103	53.9646	-129.938	-167.38	-0.033794	0.633510	-0.400621	-0.401956	-0.094812	53.9646	-0.399304	-130636	7.257757E-7	NaN
1045	1.000000	0.642848	7.37527e+06	-52389.1	1055.82	-29749.3	0.000000	0.000000	6.643009	0.049788	NaN	0.000000	0.001624	0.001738	28.0837	0.075958	0.001913	39.6958	-55.2989	-166.013	0.044295	0.641518	-0.392618	-0.393948	0.049788	39.6958	-0.393558	-108154	-4.603462E-7	NaN
1045	1.000000	0.650850	7.37527e+06	-52389.1	1055.82	-29749.3	0.000000	0.000000	6.651008	-0.015848	NaN	0.000000	0.001638	0.001763	28.0838	0.029454	0.002066	14.254	-80.5076	-164.122	0.102457	0.649491	-0.384616	-0.385975	-0.015848	14.254	-0.383782	-78366.7	2.022252E-7	NaN
1045	1.000000	0.658845	7.37527e+06	-52389.1	1055.82	-29749.3	0.000000	0.000000	6.659006	0.039575	NaN	0.000000	0.001598	0.001751	28.0836	0.032219	0.002074	15.5355	-168.449	-165.534	0.044552	0.657553	-0.376621	-0.377913	0.039575	15.5355	-0.378531	-65887.9	-6.006346E-7	NaN
1045	1.000000	0.666835	7.37527e+06	-52389.1	1055.82	-29749.3	0.000000	0.000000	6.666994	-0.007488	NaN	0.000000	0.001581	0.001772	28.0838	0.050789	0.002025	25.0817	-164.121	-164.961	0.010340	0.665518	-0.368631	-0.369948	-0.007488	25.0817	-0.368407	-47117	1.589327E-7	NaN
1045	1.000000	0.674847	7.37527e+06	-52389.1	1055.82	-29749.3	0.000000	0.000000	6.675005	-0.007240	NaN	0.000000	0.001618	0.001758	28.0836	0.087212	0.002004	43.5139	86.8712	-165.827	-0.023678	0.673531	-0.360620	-0.361935	-0.007240	43.5139	-0.360495	-36224.1	1.998709E-7	NaN
1045	1.000000	0.682851	7.37527e+06	-52389.1	1055.82	-29749.3	0.000000	0.000000	6.683009	-0.015227	NaN	0.000000	0.001609	0.001794	28.0835	0.032291	0.001941	16.6377	178.243	-164.402	-0.031367	0.681589	-0.352615	-0.353877	-0.015227	16.6377	-0.351928	-27225.7	5.592896E-7	NaN
1045	1.000000	0.690839	7.37527e+06	-52389.1	1055.82	-29749.3	0.000000	0.000000	6.690995	-0.073296	NaN	0.000000	0.001619	0.001772	28.0837	0.125679	0.001983	63.3856	-117.38	-165.998	0.056373	0.689523	-0.344627	-0.345943	-0.073296	63.3856	-0.343760	-20716.4	3.538074E-6	NaN
1045	1.000000	0.698858	7.37527e+06	-52389.1	1055.82	-29749.3	0.000000	0.000000	6.699018	0.048869	NaN	0.000000	0.001615	0.001796	28.0837	0.070746	0.001980	35.7228	-149.248	-166.161	0.112913	0.697564	-0.336609	-0.337902	0.048869	35.7228	-0.337635	-16867.8	-2.897172E-6	NaN
1045	1.000000	0.706855	7.37527e+06	-52389.1	1055.82	-29749.3	0.000000	0.000000	6.707012	-0.047587	NaN	0.000000	0.001635	0.001741	28.0842	0.111456	0.002050	54.3736	115.367	-164.493	0.025901	0.705542	-0.328611	-0.329924	-0.047587	54.3736	-0.327955	-12175.4	3.908451E-6	NaN
1045	1.000000	0.714882	7.37527e+06	-52389.1	1055.82	-29749.3	0.000000	0.000000	6.715038	-0.055353	NaN	0.000000	0.001705	0.001728	28.0839	0.043457	0.002101	20.6883	-65.5994	-167.814	-0.089518	0.713616	-0.320584	-0.321850	-0.055353	20.6883	-0.318578	-8865.36	6.243783E-6	NaN
1045	1.000000	0.722880	7.37527e+06	-52389.1	1055.82	-29749.3	0.000000	0.000000	6.723036	-0.058053	NaN	0.000000	0.001686	0.001750	28.0836	0.133278	0.002001	66.5917	15.7597	-164.781	0.002886	0.721596	-0.312586	-0.313870	-0.058053	66.5917	-0.311932	-7073.48	8.207124E-6	NaN
1045	1.000000	0.730862	7.37527e+06	-52389.1	1055.82	-29749.3	0.000000	0.000000	6.731021	0.004753	NaN	0.000000	0.001658	0.001771	28.0838	0.055147	0.002025	27.2342	-47.3194	-166.09	-0.054288	0.729591	-0.304604	-0.305875	0.004753	27.2342	-0.304735	-5533.73	-8.589479E-7	NaN
1045	1.000000	0.738915	7.37527e+06	-52389.1	1055.82	-29749.3	0.000000	0.000000	6.739077	0.075196	NaN	0.000000	0.001670	0.001759	28.0839	0.062827	0.001955	32.1355	57.0204	-169.573	-0.021398	0.737517	-0.296551	-0.297949	0.075196	32.1355	-0.298306	-4440.28	-1.693502E-5	NaN
1045	1.000000	0.746889	7.37527e+06	-52389.1	1055.82	-29749.3	0.000000	0.000000	6.747047	-0.010361	NaN	0.000000	0.001651	0.001763	28.0843	0.084127	0.002079	40.4611	36.8856	-165.764	-0.034632	0.745533	-0.288577	-0.289933	-0.010361	40.4611	-0.288385	-3155.68	3.283429E-6	NaN
1045	1.000000	0.754870	7.37527e+06	-52389.1	1055.82	-29749.3	0.000000	0.000000	6.755029	0.025841	NaN	0.000000	0.001731	0.001738	28.0851	0.054554	0.002079	26.2372	158.137	-166.24	-0.072947	0.753607	-0.280597	-0.281859	0.025841	26.2372	-0.281335	-2472.33	-1.045198E-5	NaN
1045	1.000000	0.762895	7.37527e+06	-52389.1	1055.82	-29749.3	0.000000	0.000000	6.763052	-0.020855	NaN	0.000000	0.001679	0.001751	28.085	0.082020	0.002024	40.5176	11.5811	-163.047	-0.085159	0.761562	-0.272572	-0.273905	-0.020855	40.5176	-0.272186	-1797.78	1.160020E-5	NaN
1045	1.000000	0.770924	7.37527e+06	-52389.1	1055.82	-29749.3	0.000000	0.000000	6.771078	-0.096851	NaN	0.000000	0.001664	0.001759	28.0851	0.032498	0.002009	16.1752	140.78	-164.986	0.006011	0.769597	-0.264542	-0.265870	-0.096851	16.1752	-0.260052	-1174.11	8.248841E-5	NaN
1045	1.000000	0.778884	7.37527e+06	-52389.1	1055.82	-29749.3	0.000000	0.000000	6.779042	0.000141	NaN	0.000000	0.001694	0.001775	28.0851	0.043612	0.001994	21.8736	-45.9183	-167.295	0.050638	0.777574	-0.256583	-0.257893	0.000141	21.8736	-0.256587	-1038.81	-1.361233E-7	NaN
1045	1.000000	0.786880	7.37527e+06	-52389.1	1055.82	-29749.3	0.000000	0.000000	6.787038	-0.019545	NaN	0.000000	0.001704	0.001776	28.0851	0.182295	0.001908	95.532	87.1475	-167.173	-0.046885	0.785629	-0.248586	-0.249837	-0.019545	95.532	-0.248433	-777.518	2.513822E-5	NaN
1045	1.000000	0.794889	7.37527e+06	-52389.1	1055.82	-29749.3	0.000000	0.000000	6.795048	0.003835	NaN	0.000000	0.001693	0.001755	28.0851	0.102055	0.001946	52.4516	-9.143710	-165.478	0.033921	0.793588	-0.240577	-0.241878	0.003835	52.4516	-0.240632	-588.061	-6.521516E-6	NaN
1045	1.000000	0.802893	7.37527e+06	-52389.1	1055.82	-29749.3	0.000000	0.000000	6.803049	-0.061054	NaN	0.000000	0.001693	0.001781	28.0853	0.033117	0.001864	17.7655	-69.917	-165.608	-0.008381	0.801640	-0.232573	-0.233827	-0.061054	17.7655	-0.229996	-400.363	0.000152	NaN
1045	1.000000	0.810900	7.37527e+06	-52389.1	1055.82	-29749.3	0.000000	0.000000	6.811061	0.052380	NaN	0.000000	0.001674	0.001767	28.0856	0.105433	0.001990	52.9774	61.3	-166.003	-0.052959	0.809610	-0.224566	-0.225856	0.052380	52.9774	-0.225308	-337.461	-0.000155	NaN
1045	1.000000	0.818925	7.37527e+06	-52389.1	1055.82	-29749.3	0.000000	0.000000	6.819086	0.047424	NaN	0.000000	0.001679	0.001729	28.0852	0.081231	0.002030	40.0108	56.0421	-163.643	0.056863	0.817565	-0.216541	-0.217901	0.047424	40.0108	-0.217430	-252.662	-0.000188	NaN
1045	1.000000	0.826923	7.37527e+06	-52389.1	1055.82	-29749.3	0.000000	0.000000	6.827081	0.006949	NaN	0.000000	0.001629	0.001747	28.0852	0.059446	0.002168	27.4137	-89.3078	-166.542	-0.074014	0.825672	-0.208544	-0.209794	0.006949	27.4137	-0.208734	-182.934	-3.798785E-5	NaN
1045	1.000000	0.834930	7.37527e+06	-52389.1	1055.82	-29749.3	0.000000	0.000000	6.835087	-0.047433	NaN	0.000000	0.001611	0.001752	28.0853	0.096559	0.002059	46.8998	37.1485	-164.858	-0.014690	0.833572	-0.200536	-0.201895	-0.047433	46.8998	-0.199777	-130.629	0.000363	NaN
1045	1.000000	0.842928	7.37527e+06	-52389.1	1055.82	-29749.3	0.000000	0.000000	6.843089	0.047837	NaN	0.000000	0.001630	0.001753	28.0853	0.050883	0.001956	26.0154	-28.9097	-167.19	-0.013243	0.841579	-0.192538	-0.193887	0.047837	26.0154	-0.193917	-104.531	-0.000458	NaN
1045	1.000000	0.850946	7.37527e+06	-52389.1	1055.82	-29749.3	0.000000	0.000000	6.851104	-0.023880	NaN	0.000000	0.001583	0.001724	28.0855	0.104572	0.002061	50.7289	83.4941	-168.452	0.020622	0.849654	-0.184520	-0.185812	-0.023880	50.7289	-0.184167	-71.7936	0.000333	NaN
1045	1.000000	0.858905	7.37527e+06	-52389.1	1055.82	-29749.3	0.000000	0.000000	6.859060	-0.072308	NaN	0.000000	0.001596	0.001757	28.0854	0.064367	0.002058	31.2835	-155.734	-168.732	0.009126	0.857623	-0.176562	-0.177844	-0.072308	31.2835	-0.174828	-49.7765	0.001453	NaN
1045	1.000000	0.866907	7.37527e+06	-52389.1	1055.82	-29749.3	0.000000	0.000000	6.867063	-0.059253	NaN	0.000000	0.001597	0.001759	28.0849	0.065372	0.001976	33.0819	-81.8159	-166.872	0.024126	0.865598	-0.168559	-0.169868	-0.059253	33.0819	-0.167216	-36.7379	0.001613	NaN
1045	1.000000	0.874928	7.37527e+06	-52389.1	1055.82	-29749.3	0.000000	0.000000	6.875084	-0.067713	NaN	0.000000	0.001615	0.001779	28.0863	0.073455	0.001988	36.9571	-73.1603	-160.808	-0.089073	0.873633	-0.160538	-0.161834	-0.067713	36.9571	-0.159164	-26.4921	0.002556	NaN
1045	1.000000	0.882959	7.37527e+06	-52389.1	1055.82	-29749.3	0.000000	0.000000	6.883120	0.061225	NaN	0.000000	0.001639	0.001726	28.0851	0.088350	0.001928	45.8334	-176.862	-164.467	0.028873	0.881647	-0.152507	-0.153819	0.061225	45.8334	-0.153509	-20.9749	-0.002919	NaN
1045	1.000000	0.890966	7.37527e+06	-52389.1	1055.82	-29749.3	0.000000	0.000000	6.891125	-0.007317	NaN	0.000000	0.001623	0.001758	28.0842	0.030079	0.001896	15.8614	84.0541	-168.786	0.036986	0.889601	-0.144500	-0.145865	-0.007317	15.8614	-0.144154	-14.1415	0.000517	NaN
1045	1.000000	0.898916	7.37527e+06	-52389.1	1055.82	-29749.3	0.000000	0.000000	6.899077	0.044750	NaN	0.000000	0.001618	0.001729	28.0842	0.031133	0.002059	15.119	49.3485	-165.83	0.069418	0.897659	-0.136550	-0.137808	0.044750	15.119	-0.138770	-11.2155	-0.003990	NaN
1045	1.000000	0.906917	7.37527e+06	-52389.1	1055.82	-29749.3	0.000000	0.000000	6.907077	0.034892	NaN	0.000000	0.001573	0.001747	28.0839	0.097148	0.002057	47.2259	151.638	-164.861	0.060840	0.905679	-0.128549	-0.129787	0.034892	47.2259	-0.129103	-7.320819	-0.004766	NaN
1045	1.000000	0.914939	7.37527e+06	-52389.1	1055.82	-29749.3	0.000000	0.000000	6.915093	-0.115170	NaN	0.000000	0.001621	0.001726	28.0842	0.092844	0.001885	49.2591	175.923	-168.132	-0.126029	0.913632	-0.120527	-0.121834	-0.115170	49.2591	-0.118773	-4.563120	0.025239	NaN
1045	1.000000	0.922940	7.37527e+06	-52389.1	1055.82	-29749.3	0.000000	0.000000	6.923097	-0.040689	NaN	0.000000	0.001595	0.001749	28.084	0.051722	0.002045	25.297	80.9408	-164.785	0.005782	0.921658	-0.112526	-0.113808	-0.040689	25.297	-0.111320	-3.203474	0.012702	NaN
1045	1.000000	0.930975	7.37527e+06	-52389.1	1055.82	-29749.3	0.000000	0.000000	6.931134	0.008975	NaN	0.000000	0.001585	0.001752	28.084	0.017743	0.002118	8.376434	73.3701	-165.387	0.111586	0.929657	-0.104492	-0.105809	0.008975	8.376434	-0.105295	-2.385318	-0.003763	NaN
1045	1.000000	0.938976	7.37527e+06	-52389.1	1055.82	-29749.3	0.000000	0.000000	6.939134	-0.010740	NaN	0.000000	0.001604	0.001757	28.0841	0.051160	0.001972	25.9453	103.128	-167.806	-0.019625	0.937635	-0.096491	-0.097831	-0.010740	25.9453	-0.096180	-1.500422	0.007158	NaN
1045	1.000000	0.946969	7.37527e+06	-52389.1	1055.82	-29749.3	0.000000	0.000000	6.947127	-0.016970	NaN	0.000000	0.001612	0.001747	28.0842	0.033358	0.001985	16.8086	-95.1931	-167.823	0.007560	0.945666	-0.088498	-0.089800	-0.016970	16.8086	-0.087740	-0.955942	0.017752	NaN
1045	1.000000	0.954984	7.37527e+06	-52389.1	1055.82	-29749.3	0.000000	0.000000	6.955141	-0.028261	NaN	0.000000	0.001600	0.001717	28.0847	0.063024	0.002050	30.7396	-28.4513	-167.161	0.044558	0.953676	-0.080482	-0.081790	-0.028261	30.7396	-0.079793	-0.611648	0.046204	NaN
1045	1.000000	0.962973	7.37527e+06	-52389.1	1055.82	-29749.3	0.000000	0.000000	6.963130	-0.023273	NaN	0.000000	0.001625	0.001738	28.0842	0.052954	0.001967	26.9243	-175.107	-167.008	0.000956	0.961674	-0.072494	-0.073792	-0.023273	26.9243	-0.071845	-0.381952	0.060933	NaN
1045	1.000000	0.970975	7.37527e+06	-52389.1	1055.82	-29749.3	0.000000	0.000000	6.971134	0.014082	NaN	0.000000	0.001627	0.001778	28.0844	0.021981	0.002053	10.7051	110.282	-164.079	0.015554	0.969622	-0.064491	-0.065844	0.014082	10.7051	-0.065478	-0.256923	-0.054810	NaN
1045	1.000000	0.978963	7.37527e+06	-52389.1	1055.82	-29749.3	0.000000	0.000000	6.979121	-0.015397	NaN	0.000000	0.001582	0.001716	28.0843	0.100719	0.002056	48.9807	-59.6032	-166.031	-0.058101	0.977662	-0.056503	-0.057804	-0.015397	48.9807	-0.056267	-0.140334	0.109715	NaN
1045	1.000000	0.986981	7.37527e+06	-52389.1	1055.82	-29749.3	0.000000	0.000000	6.987139	-0.010620	NaN	0.000000	0.001629	0.001748	28.0842	0.081292	0.001870	43.4766	99.7095	-166.058	-0.066462	0.985699	-0.048486	-0.049767	-0.010620	43.4766	-0.048303	-0.081050	0.131026	NaN
1045	1.000000	0.994951	7.37527e+06	-52389.1	1055.82	-29749.3	0.000000	0.000000	6.995113	0.088480	NaN	0.000000	0.001595	0.001776	28.0844	0.179565	0.001959	91.6565	30.562	-164.071	-0.014532	0.993660	-0.040515	-0.041806	0.088480	91.6565	-0.041239	-0.049325	-1.793813	NaN
1045	1.000000	1.002966	7.37527e+06	-52389.1	1055.82	-29749.3	0.000000	0.000000	7.003144	0.468962	NaN	0.000000	0.001606	0.001780	28.0841	0.401237	0.002029	197.761	6.235900	-162.351	0.396051	1.001643	-0.032500	-0.033823	0.468962	197.761	-0.034279	-0.030501	-15.3755	NaN
1045	1.000000	1.011005	7.37527e+06	-52389.1	1055.82	-29749.3	0.000000	0.000000	7.011202	0.947346	NaN	0.000000	0.001640	0.001797	28.0844	0.525839	0.002137	246.045	21.7901	-168.744	0.838215	1.009748	-0.024462	-0.025718	0.947346	246.045	-0.027349	-0.019471	-48.6549	NaN
1045	1.000000	1.018947	7.37527e+06	-52389.1	1055.82	-29749.3	0.000000	0.000000	7.019174	1.668964	NaN	0.000000	0.001618	0.001784	28.0841	1.135353	0.001868	607.78	24.9059	-164.577	1.547280	1.017709	-0.016520	-0.017757	1.668964	607.78	-0.018579	-0.011553	-144.455	NaN
1045	1.000000	1.026985	7.37527e+06	-52389.1	1055.82	-29749.3	0.000000	0.000000	7.027249	2.575449	NaN	0.000000	0.001623	0.001761	28.0856	1.808526	0.001959	922.986	22.3115	-166.496	2.323458	1.025676	-0.008482	-0.009790	2.575449	922.986	-0.010574	-0.006715	-383.517	NaN
1045	1.000000	1.035032	7.37527e+06	-52389.1	1055.82	-29749.3	0.000000	0.000000	7.035417	5.492612	NaN	0.000000	0.001656	0.001762	28.0856	3.977792	0.001966	2022.98	14.1778	-167.93	4.890549	1.033708	-0.000434	-0.001758	5.492612	2022.98	-0.002470	-0.001763	-3116.09	NaN
1045	2.000000	1.040592	7.37527e+06	-52389.1	1055.82	-29749.3	0.000000	0.000000	7.041134	9.321026	NaN	0.000000	0.001626	0.001790	28.0854	5.897173	0.001845	3195.76	12.3163	-167.896	9.576031	1.040253	0.005126	0.004787	9.321026	3195.76	0.002938	0.002328	4003.98	60514.7
1045	2.000000	1.042510	7.37527e+06	-52389.1	1055.82	-29749.3	0.000000	0.000000	7.043111	10.7516	NaN	0.000000	0.001653	0.001744	28.0853	6.402815	0.001815	3526.79	10.1957	-167.466	10.25	1.042228	0.007044	0.006762	10.7516	3526.79	0.004757	0.003913	2747.79	51511.9
1045	2.000000	1.044509	7.37527e+06	-52389.1	1055.82	-29749.3	0.000000	0.000000	7.045173	12.2996	NaN	0.000000	0.001655	0.001768	28.0853	8.256417	0.001980	4169.74	17.6695	-175.407	12.0437	1.044207	0.009042	0.008741	12.2996	4169.74	0.006830	0.005866	2096.61	49738.9
1045	2.000000	1.046487	7.37527e+06	-52389.1	1055.82	-29749.3	0.000000	0.000000	7.047236	14.3377	NaN	0.000000	0.001688	0.001743	28.0857	8.737679	0.001986	4400.57	13.3505	-171.963	13.895	1.046184	0.011021	0.010718	14.3377	4400.57	0.008578	0.007643	1875.89	45988.1
1045	2.000000	1.048514	7.37527e+06	-52389.1	1055.82	-29749.3	0.000000	0.000000	7.049352	16.5141	NaN	0.000000	0.001669	0.001743	28.0854	10.028	0.001947	5151.02	10.1007	-168.896	16.635	1.048181	0.013048	0.012715	16.5141	5151.02	0.010644	0.009905	1667.17	47285.7
1045	2.000000	1.050466	7.37527e+06	-52389.1	1055.82	-29749.3	0.000000	0.000000	7.051421	19.3523	NaN	0.000000	0.001664	0.001728	28.0854	11.5146	0.001853	6215.43	12.5368	-175.04	19.4984	1.050171	0.015000	0.014705	19.3523	6215.43	0.012665	0.012296	1573.83	51210.3
1045	2.000000	1.052455	7.37527e+06	-52389.1	1055.82	-29749.3	0.000000	0.000000	7.053541	22.5438	NaN	0.000000	0.001695	0.001736	28.0854	12.9334	0.001714	7545.89	13.9462	-178.371	22.3461	1.052210	0.016989	0.016744	22.5438	7545.89	0.014749	0.014951	1507.8	56382.1
1045	2.000000	1.054465	7.37527e+06	-52389.1	1055.82	-29749.3	0.000000	0.000000	7.055682	25.7267	NaN	0.000000	0.001682	0.001767	28.0856	15.0735	0.001895	7954.19	13.5268	-177.517	25.0235	1.054147	0.018999	0.018680	25.7267	7954.19	0.016573	0.017441	1475.07	55028
1045	2.000000	1.056502	7.37527e+06	-52389.1	1055.82	-29749.3	0.000000	0.000000	7.057886	29.7927	NaN	0.000000	0.001698	0.001721	28.0856	16.8044	0.001911	8795.07	11.0619	-175.069	29.251	1.056119	0.021036	0.020653	29.7927	8795.07	0.018495	0.020233	1472.48	56491.5
1045	2.000000	1.058479	7.37527e+06	-52389.1	1055.82	-29749.3	0.000000	0.000000	7.059978	32.6121	NaN	0.000000	0.001621	0.001743	28.0853	17.31	0.001868	9267.65	6.476099	-171.811	32.5897	1.058147	0.023012	0.022680	32.6121	9267.65	0.020373	0.023132	1409.82	55671.7
1045	2.000000	1.060443	7.37527e+06	-52389.1	1055.82	-29749.3	0.000000	0.000000	7.062054	35.3337	NaN	0.000000	0.001614	0.001743	28.0856	19.5204	0.001718	11363.9	7.955630	-176.653	35.9636	1.060191	0.024976	0.024725	35.3337	11363.9	0.022644	0.026869	1315.04	63339.4
1045	2.000000	1.062473	7.37527e+06	-52389.1	1055.82	-29749.3	0.000000	0.000000	7.064247	39.2818	NaN	0.000000	0.001642	0.001753	28.0854	20.7903	0.001875	11087.9	9.779582	-177.495	39.7033	1.062162	0.027007	0.026696	39.2818	11087.9	0.024350	0.029843	1316.27	58640.7
1045	2.000000	1.064454	7.37527e+06	-52389.1	1055.82	-29749.3	0.000000	0.000000	7.066428	44.1381	NaN	0.000000	0.001620	0.001779	28.0855	23.202	0.001774	13081.7	9.742596	-179.706	44.0615	1.064092	0.028988	0.028625	44.1381	13081.7	0.026457	0.033720	1308.95	65086.5
1045	2.000000	1.066416	7.37527e+06	-52389.1	1055.82	-29749.3	0.000000	0.000000	7.068559	48.2502	NaN	0.000000	0.001602	0.001768	28.0854	24.8779	0.001860	13373.7	10.7639	179.78	46.4479	1.066083	0.030950	0.030617	48.2502	13373.7	0.028244	0.037182	1297.67	63366.4
1045	2.000000	1.068416	7.37527e+06	-52389.1	1055.82	-29749.3	0.000000	0.000000	7.070678	51.1586	NaN	0.000000	0.001661	0.001735	28.0853	26.0082	0.001768	14712	4.545053	-175.956	49.4531	1.068043	0.032949	0.032577	51.1586	14712	0.030341	0.041454	1234.09	66017.6
1045	2.000000	1.070455	7.37527e+06	-52389.1	1055.82	-29749.3	0.000000	0.000000	7.072929	56.2909	NaN	0.000000	0.001598	0.001729	28.0843	28.3858	0.001881	15090.9	8.491032	179.706	56.3882	1.070105	0.034989	0.034639	56.2909	15090.9	0.032191	0.045408	1239.67	64702.8
1045	2.000000	1.072442	7.37527e+06	-52389.1	1055.82	-29749.3	0.000000	0.000000	7.075166	62.3687	NaN	0.000000	0.001650	0.001739	28.0841	30.7218	0.001854	16567	11.6924	175.067	62.6973	1.072122	0.036976	0.036656	62.3687	16567	0.034153	0.049791	1252.6	67833.1
1045	2.000000	1.074400	7.37527e+06	-52389.1	1055.82	-29749.3	0.000000	0.000000	7.077482	71.0875	NaN	0.000000	0.001630	0.001732	28.0843	31.0307	0.001726	17979.8	4.889601	-178.523	70.5071	1.074073	0.038933	0.038607	71.0875	17979.8	0.035968	0.054024	1315.84	70674.7
1045	2.000000	1.076385	7.37527e+06	-52389.1	1055.82	-29749.3	0.000000	0.000000	7.079780	78.7069	NaN	0.000000	0.001653	0.001739	28.0842	34.2564	0.001782	19227.1	9.923622	175.448	76.2458	1.076089	0.040919	0.040623	78.7069	19227.1	0.037848	0.058586	1343.44	72575.6
1045	2.000000	1.078408	7.37527e+06	-52389.1	1055.82	-29749.3	0.000000	0.000000	7.082109	86.124	NaN	0.000000	0.001623	0.001767	28.0841	35.2249	0.001774	19853.3	6.306655	178.816	84.5095	1.078083	0.042942	0.042616	86.124	19853.3	0.039688	0.063225	1362.19	72137.7
1045	2.000000	1.080406	7.37527e+06	-52389.1	1055.82	-29749.3	0.000000	0.000000	7.084516	96.0774	NaN	0.000000	0.001590	0.001759	28.0846	38	0.001675	22689.3	8.561262	174.47	95.8932	1.080036	0.044939	0.044570	96.0774	22689.3	0.041764	0.068665	1399.21	79108.8
1045	2.000000	1.082361	7.37527e+06	-52389.1	1055.82	-29749.3	0.000000	0.000000	7.086881	106.063	NaN	0.000000	0.001613	0.001719	28.0842	39.3836	0.001692	23272.1	11.5719	171.241	103.256	1.082066	0.046895	0.046600	106.063	23272.1	0.043476	0.073321	1446.56	78522.7
1045	2.000000	1.084359	7.37527e+06	-52389.1	1055.82	-29749.3	0.000000	0.000000	7.089329	116.972	NaN	0.000000	0.001600	0.001792	28.0843	41.6437	0.001627	25592.9	4.773024	177.018	114.612	1.084070	0.048893	0.048604	116.972	25592.9	0.045465	0.078914	1482.28	83236.9
1045	2.000000	1.086418	7.37527e+06	-52389.1	1055.82	-29749.3	0.000000	0.000000	7.092002	131.898	NaN	0.000000	0.001597	0.001741	28.0844	44.0336	0.001807	24370.1	3.403379	179.946	131.282	1.086145	0.050952	0.050679	131.898	24370.1	0.046893	0.083052	1588.14	77260.2
1045	2.000000	1.088395	7.37527e+06	-52389.1	1055.82	-29749.3	0.000000	0.000000	7.094603	147.083	NaN	0.000000	0.001622	0.001723	28.0845	46.4319	0.001766	26296.8	5.613355	175.877	144.778	1.088035	0.052929	0.052569	147.083	26296.8	0.048734	0.088541	1661.19	80742.8
1045	2.000000	1.090317	7.37527e+06	-52389.1	1055.82	-29749.3	0.000000	0.000000	7.097309	166.158	NaN	0.000000	0.001598	0.001725	28.0853	49.0082	0.001858	26374.9	4.993256	177.454	162.788	1.089990	0.054851	0.054523	166.158	26374.9	0.050126	0.092802	1790.45	79101.6
1045	2.000000	1.092344	7.37527e+06	-52389.1	1055.82	-29749.3	0.000000	0.000000	7.099935	180.722	NaN	0.000000	0.001601	0.001762	28.0844	49.9437	0.001827	27343.2	3.511166	177.901	177.485	1.092064	0.056878	0.056597	180.722	27343.2	0.051920	0.098442	1835.83	79621.9
1045	2.000000	1.094354	7.37527e+06	-52389.1	1055.82	-29749.3	0.000000	0.000000	7.102616	197.052	NaN	0.000000	0.001599	0.001746	28.0847	52.1021	0.001749	29796.5	5.179049	175.866	195.863	1.094077	0.058887	0.058611	197.052	29796.5	0.053927	0.104938	1877.79	84037.1
1045	2.000000	1.096340	7.37527e+06	-52389.1	1055.82	-29749.3	0.000000	0.000000	7.105632	222.079	NaN	0.000000	0.001625	0.001772	28.0844	54.4678	0.001761	30938.4	4.524631	176.068	218.548	1.096063	0.060874	0.060597	222.079	30938.4	0.055490	0.110136	2016.4	85173.7
1045	2.000000	1.098353	7.37527e+06	-52389.1	1055.82	-29749.3	0.000000	0.000000	7.108371	239.725	NaN	0.000000	0.001581	0.001814	28.0846	55.2862	0.001723	32079	1.317921	179.301	237.44	1.097994	0.062887	0.062528	239.725	32079	0.057282	0.116242	2062.29	85963.2
1045	2.000000	1.100387	7.37527e+06	-52389.1	1055.82	-29749.3	0.000000	0.000000	7.111060	255.642	NaN	0.000000	0.001569	0.001749	28.0847	58.7484	0.001890	31084.9	1.374973	179.071	254.055	1.100052	0.064921	0.064585	255.642	31084.9	0.058753	0.121375	2106.21	81518.6
1045	2.000000	1.102324	7.37527e+06	-52389.1	1055.82	-29749.3	0.000000	0.000000	7.113693	272.581	NaN	0.000000	0.001578	0.001771	28.0844	59.9337	0.001858	32263.6	5.379716	174.975	269.557	1.101951	0.066857	0.066484	272.581	32263.6	0.060521	0.127683	2134.83	82493.5
1045	2.000000	1.104363	7.37527e+06	-52389.1	1055.82	-29749.3	0.000000	0.000000	7.116607	293.845	NaN	0.000000	0.001569	0.001725	28.0859	61.5401	0.001830	33626	5.266892	174.636	293.15	1.104031	0.068897	0.068564	293.845	33626	0.062343	0.134343	2187.28	83818.8
1045	2.000000	1.106339	7.37527e+06	-52389.1	1055.82	-29749.3	0.000000	0.000000	7.119407	313.892	NaN	0.000000	0.001592	0.001768	28.0855	62.9949	0.001722	36590	3.998930	175.32	309.825	1.106001	0.070873	0.070535	313.892	36590	0.064439	0.142205	2207.33	88650
1045	2.000000	1.108328	7.37527e+06	-52389.1	1055.82	-29749.3	0.000000	0.000000	7.122389	338.029	NaN	0.000000	0.001610	0.001779	28.0857	63.4602	0.001718	36931.8	1.972174	177.349	334.803	1.107899	0.072862	0.072432	338.029	36931.8	0.065997	0.148188	2281.07	87653.1
1045	2.000000	1.110367	7.37527e+06	-52389.1	1055.82	-29749.3	0.000000	0.000000	7.124913	349.816	NaN	0.000000	0.001629	0.001796	28.0857	67.0851	0.001859	36085.3	4.865211	174.388	347.628	1.110016	0.074901	0.074550	349.816	36085.3	0.067630	0.154581	2263	83854.4
1045	2.000000	1.112364	7.37527e+06	-52389.1	1055.82	-29749.3	0.000000	0.000000	7.128124	379.342	NaN	0.000000	0.001628	0.001785	28.0857	67.4444	0.001791	37653.2	2.915813	175.749	377.826	1.111972	0.076897	0.076506	379.342	37653.2	0.069341	0.161419	2350.04	85624.4
1045	2.000000	1.114361	7.37527e+06	-52389.1	1055.82	-29749.3	0.000000	0.000000	7.131002	400.772	NaN	0.000000	0.001639	0.001790	28.0858	70.2252	0.001914	36692.4	5.509281	173.988	398.729	1.113912	0.078895	0.078446	400.772	36692.4	0.070703	0.166958	2400.43	82043.7
1045	2.000000	1.116285	7.37527e+06	-52389.1	1055.82	-29749.3	0.000000	0.000000	7.133971	426.188	NaN	0.000000	0.001609	0.001756	28.0857	70.4341	0.001860	37867.1	3.532550	175.683	418.786	1.115865	0.080818	0.080399	426.188	37867.1	0.072377	0.173892	2450.88	82965.1
1045	2.000000	1.118202	7.37527e+06	-52389.1	1055.82	-29749.3	0.000000	0.000000	7.136702	445.981	NaN	0.000000	0.001630	0.001771	28.086	72.1856	0.001901	37972	5.752677	173.235	437.564	1.117860	0.082735	0.082394	445.981	37972	0.073927	0.180427	2471.81	81674.3
1045	2.000000	1.120275	7.37527e+06	-52389.1	1055.82	-29749.3	0.000000	0.000000	7.139943	474.345	NaN	0.000000	0.001641	0.001746	28.0858	72.0851	0.001806	39913.5	0.422465	178.264	469.52	1.120030	0.084809	0.084564	474.345	39913.5	0.075896	0.188895	2511.15	83903.9
1045	2.000000	1.122299	7.37527e+06	-52389.1	1055.82	-29749.3	0.000000	0.000000	7.142918	497.489	NaN	0.000000	0.001605	0.001760	28.0854	74.8599	0.001934	38703	5.986397	172.822	492.633	1.121949	0.086832	0.086483	497.489	38703	0.077192	0.194568	2556.89	80164.5
1045	2.000000	1.124371	7.37527e+06	-52389.1	1055.82	-29749.3	0.000000	0.000000	7.145047	498.869	NaN	0.000000	0.001617	0.001794	28.0859	76.4467	0.001872	40833.5	2.290653	175.824	499.583	1.124133	0.088905	0.088667	498.869	40833.5	0.079742	0.205959	2422.17	82205.1
1045	2.000000	1.126308	7.37527e+06	-52389.1	1055.82	-29749.3	0.000000	0.000000	7.148757	541.99	NaN	0.000000	0.001610	0.001800	28.0856	79.232	0.001932	41006.5	4.392354	174.043	537.417	1.125912	0.090842	0.090446	541.99	41006.5	0.080929	0.211364	2564.24	81491
1045	2.000000	1.128295	7.37527e+06	-52389.1	1055.82	-29749.3	0.000000	0.000000	7.152148	576.118	NaN	0.000000	0.001612	0.001778	28.0858	78.4411	0.001779	44098.7	-0.549035	178.687	570.623	1.127881	0.092829	0.092414	576.118	44098.7	0.083031	0.221097	2605.73	85685.5
1045	2.000000	1.130261	7.37527e+06	-52389.1	1055.82	-29749.3	0.000000	0.000000	7.155015	598.032	NaN	0.000000	0.001598	0.001765	28.0857	83.0661	0.001916	43345.5	4.868749	173.074	592.405	1.129948	0.094795	0.094482	598.032	43345.5	0.084447	0.227772	2625.58	82978.8
1045	2.000000	1.132348	7.37527e+06	-52389.1	1055.82	-29749.3	0.000000	0.000000	7.157743	613.598	NaN	0.000000	0.001608	0.001772	28.0857	82.8633	0.001840	45034	2.847849	175.003	614.582	1.132076	0.096882	0.096610	613.598	45034	0.086663	0.238399	2573.83	84267.7
1045	2.000000	1.134302	7.37527e+06	-52389.1	1055.82	-29749.3	0.000000	0.000000	7.160860	641.884	NaN	0.000000	0.001613	0.001792	28.0858	85.6085	0.001821	47006.3	5.465236	171.826	638.926	1.134056	0.098836	0.098589	641.884	47006.3	0.088595	0.247847	2589.84	86265.6
1045	2.000000	1.136355	7.37527e+06	-52389.1	1055.82	-29749.3	0.000000	0.000000	7.164265	674.776	NaN	0.000000	0.001568	0.001758	28.0858	86.7521	0.001927	45010.9	5.087639	173.157	670.485	1.135963	0.100889	0.100497	674.776	45010.9	0.089645	0.253057	2666.49	81748.9
1045	2.000000	1.138208	7.37527e+06	-52389.1	1055.82	-29749.3	0.000000	0.000000	7.165790	666.789	NaN	0.000000	0.001607	0.001788	28.0844	87.9891	0.001856	47419.3	1.052704	176.282	659.364	1.137927	0.102742	0.102460	666.789	47419.3	0.092196	0.265921	2507.47	84014