File: remote_trans/data/nanoindenter/0828-1/data/Data_2025-08-06,11h17m57s/2025-07-22_16-23-58_1_124.txt
2025-07-22, 16:23:58, 1
Index	Phase	Displacement	Time	Pos X	Pos Y	Pos Z	Rot A	Rot B	Piezo Z	Force A	Force B	Gripper	Voltage A	Voltage B	Temperature	Amplitude force	Amplitude pos	Stiffness	Phase shift	Phase excitation	Force A raw	Displacement raw	HMax	HMax raw	Real Force	Real Stiffness	Contact Depth	Area	Hardness	Reduced Mod.
[#]	[#]	[um]	[s]	[um]	[um]	[um]	[m°]	[m°]	[um]	[uN]	[uN]	[V]	[V]	[V]	[°C]	[uN]	[um]	[N/m]	[°]	[°]	[uN]	[um]	[um]	[um]	[uN]	[N/m]	[um]	[um^2]	[MPa]	[MPa]
124	1.000000	0.002084	7.36625e+06	-44839.1	955.818	-29775	0.000000	0.000000	6.002780	0.064498	NaN	0.000000	0.001614	0.001808	28.0852	0.096544	0.000872	110.653	153.048	-165.154	0.018676	0.000861	-1.111887	-1.113110	0.064498	110.653	-1.112325	-7.336408E+14	-8.791495E-17	NaN
124	1.000000	0.012174	7.36625e+06	-44839.1	955.819	-29775	0.000000	0.000000	6.012867	-0.022340	NaN	0.000000	0.001632	0.001777	28.1242	0.018693	0.001282	14.5823	-123.82	11.3701	-0.035705	0.010677	-1.101798	-1.103295	-0.022340	14.5823	-1.100649	-5.114172E+14	4.368304E-17	NaN
124	1.000000	0.022079	7.36625e+06	-44839.1	955.818	-29775	0.000000	0.000000	6.022774	0.033566	NaN	0.000000	0.001607	0.001787	28.1159	0.015099	0.001912	7.898159	-10.2293	-163.701	0.007532	0.020717	-1.091893	-1.093255	0.033566	7.898159	-1.095080	-4.305471E+14	-7.796037E-17	NaN
124	1.000000	0.032007	7.36625e+06	-44839.1	955.818	-29775	0.000000	0.000000	6.032705	0.100508	NaN	0.000000	0.001529	0.001773	28.082	0.070166	0.001900	36.9237	-149.84	18.9795	0.039401	0.030696	-1.081965	-1.083275	0.100508	36.9237	-1.084006	-3.057217E+14	-3.287553E-16	NaN
124	1.000000	0.042065	7.36625e+06	-44839.1	955.819	-29775	0.000000	0.000000	6.042761	0.041015	NaN	0.000000	0.001514	0.001790	28.0842	0.060943	0.002038	29.9009	-80.6722	-166.982	-0.009655	0.040746	-1.071906	-1.073226	0.041015	29.9009	-1.072935	-2.170778E+14	-1.889415E-16	NaN
124	1.000000	0.052051	7.36625e+06	-44839.1	955.819	-29775	0.000000	0.000000	6.052747	0.051291	NaN	0.000000	0.001530	0.001765	28.1242	0.088804	0.001943	45.7041	170.061	18.3753	0.108129	0.050658	-1.061920	-1.063313	0.051291	45.7041	-1.062762	-1.584664E+14	-3.236704E-16	NaN
124	1.000000	0.062071	7.36625e+06	-44839.1	955.818	-29775	0.000000	0.000000	6.062766	0.043347	NaN	0.000000	0.001487	0.001785	28.1155	0.046844	0.001959	23.9177	167.618	-161.511	0.019916	0.060760	-1.051901	-1.053212	0.043347	23.9177	-1.053260	-1.180958E+14	-3.670492E-16	NaN
124	1.000000	0.072058	7.36625e+06	-44839.1	955.819	-29775	0.000000	0.000000	6.072753	0.038712	NaN	0.000000	0.001534	0.001802	28.0815	0.092949	0.001865	49.8514	-123.246	15.7175	-0.054641	0.070729	-1.041913	-1.043242	0.038712	49.8514	-1.042496	-8.463035E+13	-4.574245E-16	NaN
124	1.000000	0.082082	7.36625e+06	-44839.1	955.818	-29775	0.000000	0.000000	6.082780	0.114619	NaN	0.000000	0.001542	0.001769	28.0864	0.065278	0.002053	31.797	161.624	-168.261	0.055677	0.080788	-1.031890	-1.033183	0.114619	31.797	-1.034593	-6.626105E+13	-1.729808E-15	NaN
124	1.000000	0.092086	7.36625e+06	-44839.1	955.819	-29775	0.000000	0.000000	6.092777	-0.074314	NaN	0.000000	0.001561	0.001770	28.1255	0.121871	0.002088	58.3578	6.915346	15.6398	0.030571	0.090717	-1.021885	-1.023254	-0.074314	58.3578	-1.020930	-4.339756E+13	1.712409E-15	NaN
124	1.000000	0.102088	7.36625e+06	-44839.1	955.818	-29775	0.000000	0.000000	6.102781	-0.028363	NaN	0.000000	0.001540	0.001802	28.1167	0.075376	0.001985	37.9687	-13.4401	-165.408	-0.060652	0.100796	-1.011884	-1.013175	-0.028363	37.9687	-1.011323	-3.222494E+13	8.801494E-16	NaN
124	1.000000	0.112091	7.36625e+06	-44839.1	955.819	-29775	0.000000	0.000000	6.112791	0.134242	NaN	0.000000	0.001509	0.001780	28.0835	0.010133	0.002173	4.663722	122.542	11.0413	0.061950	0.110699	-1.001880	-1.003272	0.134242	4.663722	-1.023468	-4.694786E+13	-2.859381E-15	NaN
124	1.000000	0.122083	7.36625e+06	-44839.1	955.818	-29775	0.000000	0.000000	6.122778	0.036001	NaN	0.000000	0.001541	0.001777	28.0847	0.051872	0.001982	26.1687	157.815	-162.333	0.076449	0.120768	-0.991889	-0.993204	0.036001	26.1687	-0.992921	-1.821566E+13	-1.976382E-15	NaN
124	1.000000	0.132080	7.36625e+06	-44839.1	955.818	-29775	0.000000	0.000000	6.132776	0.049378	NaN	0.000000	0.001523	0.001782	28.1242	0.079711	0.001844	43.2358	42.4609	17.5181	0.113180	0.130718	-0.981891	-0.983253	0.049378	43.2358	-0.982748	-1.328707E+13	-3.716239E-15	NaN
124	1.000000	0.142084	7.36625e+06	-44839.1	955.818	-29775	0.000000	0.000000	6.142779	0.023438	NaN	0.000000	0.001482	0.001735	28.1164	0.016926	0.001946	8.698844	-95.5984	-164.388	0.067508	0.140796	-0.971887	-0.973175	0.023438	8.698844	-0.973908	-1.010014E+13	-2.320556E-15	NaN
124	1.000000	0.152071	7.36625e+06	-44839.1	955.818	-29775	0.000000	0.000000	6.152768	0.059131	NaN	0.000000	0.001483	0.001758	28.0823	0.105181	0.001845	57.0153	3.060096	14.6756	0.044905	0.150718	-0.961900	-0.963254	0.059131	57.0153	-0.962678	-7.128040E+12	-8.295502E-15	NaN
124	1.000000	0.162074	7.36625e+06	-44839.1	955.818	-29775	0.000000	0.000000	6.162771	0.067556	NaN	0.000000	0.001533	0.001792	28.0865	0.062734	0.001875	33.4618	122.981	-167.591	0.001139	0.160795	-0.951897	-0.953177	0.067556	33.4618	-0.953412	-5.346086E+12	-1.263654E-14	NaN
124	1.000000	0.172127	7.36625e+06	-44839.1	955.819	-29775	0.000000	0.000000	6.172825	0.103248	NaN	0.000000	0.001556	0.001785	28.1247	0.097179	0.002044	47.551	30.2964	16.9642	0.071836	0.170766	-0.941844	-0.943205	0.103248	47.551	-0.943473	-3.926325E+12	-2.629631E-14	NaN
124	1.000000	0.182099	7.36625e+06	-44839.1	955.818	-29775	0.000000	0.000000	6.182795	0.044190	NaN	0.000000	0.001555	0.001779	28.1175	0.032330	0.002043	15.8275	-153.55	-164.288	0.082928	0.180783	-0.931872	-0.933189	0.044190	15.8275	-0.933966	-2.922304E+12	-1.512157E-14	NaN
124	1.000000	0.192098	7.36625e+06	-44839.1	955.817	-29775	0.000000	0.000000	6.192796	0.091852	NaN	0.000000	0.001503	0.001810	28.0812	0.014248	0.001988	7.166023	91.0046	14.1388	0.147374	0.190746	-0.921873	-0.923225	0.091852	7.166023	-0.931486	-2.705545E+12	-3.394937E-14	NaN
124	1.000000	0.202111	7.36625e+06	-44839.1	955.818	-29775	0.000000	0.000000	6.202808	0.066321	NaN	0.000000	0.001501	0.001776	28.0834	0.156177	0.001989	78.5045	-135.841	-163.043	0.058813	0.200791	-0.911860	-0.913181	0.066321	78.5045	-0.912494	-1.499152E+12	-4.423922E-14	NaN
124	1.000000	0.212111	7.36625e+06	-44839.1	955.819	-29775	0.000000	0.000000	6.212806	0.030596	NaN	0.000000	0.001529	0.001792	28.1222	0.099800	0.002064	48.3419	-12.6945	12.6769	0.083744	0.210775	-0.901861	-0.903197	0.030596	48.3419	-0.902336	-1.093009E+12	-2.799207E-14	NaN
124	1.000000	0.222116	7.36625e+06	-44839.1	955.818	-29775	0.000000	0.000000	6.222813	0.060336	NaN	0.000000	0.001512	0.001762	28.1159	0.070963	0.002143	33.1201	-4.198308	-163.658	0.028663	0.220834	-0.891855	-0.893138	0.060336	33.1201	-0.893221	-8.231084E+11	-7.330239E-14	NaN
124	1.000000	0.232147	7.36625e+06	-44839.1	955.819	-29775	0.000000	0.000000	6.232845	0.085422	NaN	0.000000	0.001541	0.001754	28.0809	0.081879	0.002063	39.6964	16.2773	13.8847	0.079619	0.230790	-0.881824	-0.883182	0.085422	39.6964	-0.883438	-6.070141E+11	-1.407247E-13	NaN
124	1.000000	0.242118	7.36625e+06	-44839.1	955.818	-29775	0.000000	0.000000	6.242812	-0.001317	NaN	0.000000	0.001523	0.001789	28.0847	0.038675	0.001990	19.4319	-98.4434	-164.855	-0.005624	0.240833	-0.871853	-0.873139	-0.001317	19.4319	-0.871803	-4.225030E+11	3.116393E-15	NaN
124	1.000000	0.252145	7.36625e+06	-44839.1	955.818	-29775	0.000000	0.000000	6.252840	0.050206	NaN	0.000000	0.001547	0.001775	28.123	0.049586	0.002071	23.9463	-97.9421	19.4051	0.004876	0.250702	-0.861827	-0.863269	0.050206	23.9463	-0.863399	-3.251832E+11	-1.543943E-13	NaN
124	1.000000	0.262139	7.36625e+06	-44839.1	955.818	-29775	0.000000	0.000000	6.262836	0.077830	NaN	0.000000	0.001551	0.001774	28.1168	0.152247	0.001976	77.0472	-23.4834	-168.991	0.142413	0.260813	-0.851832	-0.853158	0.077830	77.0472	-0.852590	-2.321692E+11	-3.352304E-13	NaN
124	1.000000	0.272190	7.36625e+06	-44839.1	955.818	-29775	0.000000	0.000000	6.272886	0.044860	NaN	0.000000	0.001558	0.001805	28.0815	0.054480	0.002066	26.3653	-38.3907	13.469	0.049428	0.270735	-0.841781	-0.843237	0.044860	26.3653	-0.843057	-1.724676E+11	-2.601048E-13	NaN
124	1.000000	0.282174	7.36625e+06	-44839.1	955.818	-29775	0.000000	0.000000	6.282871	0.073648	NaN	0.000000	0.001541	0.001810	28.083	0.108914	0.001896	57.4384	23.3125	-167.856	0.095728	0.280875	-0.831798	-0.833097	0.073648	57.4384	-0.832759	-1.250778E+11	-5.888211E-13	NaN
124	1.000000	0.292151	7.36625e+06	-44839.1	955.819	-29775	0.000000	0.000000	6.292848	0.071967	NaN	0.000000	0.001555	0.001793	28.1222	0.060520	0.002054	29.4672	29.3506	16.2747	0.161752	0.290793	-0.821820	-0.823179	0.071967	29.4672	-0.823652	-9.413052E+10	-7.645466E-13	NaN
124	1.000000	0.302176	7.36625e+06	-44839.1	955.819	-29775	0.000000	0.000000	6.302872	0.043947	NaN	0.000000	0.001545	0.001785	28.1163	0.164828	0.001915	86.0751	144.911	-163.065	0.014273	0.300803	-0.811795	-0.813169	0.043947	86.0751	-0.812178	-6.578374E+10	-6.680553E-13	NaN
124	1.000000	0.312162	7.36625e+06	-44839.1	955.818	-29775	0.000000	0.000000	6.312857	0.015417	NaN	0.000000	0.001554	0.001797	28.0819	0.126532	0.002095	60.4	-48.6041	12.1097	-0.021092	0.310820	-0.801809	-0.803151	0.015417	60.4	-0.802000	-4.786481E+10	-3.220910E-13	NaN
124	1.000000	0.322159	7.36625e+06	-44839.1	955.818	-29775	0.000000	0.000000	6.322854	0.020106	NaN	0.000000	0.001536	0.001805	28.0863	0.013554	0.001974	6.864746	-169.26	-165.313	0.090651	0.320847	-0.791812	-0.793125	0.020106	6.864746	-0.794009	-3.728418E+10	-5.392639E-13	NaN
124	1.000000	0.332182	7.36625e+06	-44839.1	955.818	-29775	0.000000	0.000000	6.332878	0.074977	NaN	0.000000	0.001594	0.001806	28.1238	0.039624	0.001873	21.1539	47.0067	14.0593	0.000900	0.330816	-0.781790	-0.783156	0.074977	21.1539	-0.784448	-2.764838E+10	-2.711821E-12	NaN
124	1.000000	0.342185	7.36625e+06	-44839.1	955.818	-29775	0.000000	0.000000	6.342879	-0.012808	NaN	0.000000	0.001586	0.001759	28.1183	0.050751	0.002003	25.3429	169.96	-168.155	-0.021682	0.340855	-0.771786	-0.773116	-0.012808	25.3429	-0.771407	-1.838386E+10	6.966871E-13	NaN
124	1.000000	0.352179	7.36625e+06	-44839.1	955.818	-29775	0.000000	0.000000	6.352875	0.070341	NaN	0.000000	0.001564	0.001784	28.0836	0.129069	0.001955	66.0268	-63.8974	15.4031	0.081559	0.350827	-0.761793	-0.763145	0.070341	66.0268	-0.762592	-1.394950E+10	-5.042547E-12	NaN
124	1.000000	0.362204	7.36625e+06	-44839.1	955.818	-29775	0.000000	0.000000	6.362901	0.077857	NaN	0.000000	0.001587	0.001761	28.0831	0.056026	0.001918	29.2166	159.564	-164.225	0.085220	0.360844	-0.751767	-0.753128	0.077857	29.2166	-0.753766	-1.057971E+10	-7.359126E-12	NaN
124	1.000000	0.372175	7.36625e+06	-44839.1	955.818	-29775	0.000000	0.000000	6.372871	0.052149	NaN	0.000000	0.001534	0.001743	28.1222	0.089212	0.002018	44.2011	162.762	17.5096	0.083501	0.370870	-0.741796	-0.743101	0.052149	44.2011	-0.742681	-7.474317E+9	-6.977132E-12	NaN
124	1.000000	0.382182	7.36625e+06	-44839.1	955.818	-29775	0.000000	0.000000	6.382877	0.025309	NaN	0.000000	0.001574	0.001781	28.1175	0.122155	0.002008	60.8208	143.148	-165.999	0.040337	0.380828	-0.731789	-0.733144	0.025309	60.8208	-0.732101	-5.363451E+9	-4.718862E-12	NaN
124	1.000000	0.392184	7.36625e+06	-44839.1	955.819	-29775	0.000000	0.000000	6.392877	-0.024100	NaN	0.000000	0.001516	0.001736	28.0825	0.033338	0.002027	16.4496	-79.2976	11.3355	0.073201	0.390831	-0.721787	-0.723140	-0.024100	16.4496	-0.720688	-3.748511E+9	6.429234E-12	NaN
124	1.000000	0.402209	7.36625e+06	-44839.1	955.818	-29775	0.000000	0.000000	6.402904	0.010899	NaN	0.000000	0.001626	0.001776	28.0857	0.100279	0.001847	54.2895	-10.2363	-166.403	0.082377	0.400895	-0.711762	-0.713076	0.010899	54.2895	-0.711913	-2.845428E+9	-3.830250E-12	NaN
124	1.000000	0.412221	7.36625e+06	-44839.1	955.818	-29775	0.000000	0.000000	6.412920	0.116811	NaN	0.000000	0.001619	0.001734	28.1235	0.105087	0.001995	52.677	0.450817	16.1659	0.159692	0.410850	-0.701750	-0.703122	0.116811	52.677	-0.703413	-2.178418E+9	-5.362202E-11	NaN
124	1.000000	0.422206	7.36625e+06	-44839.1	955.818	-29775	0.000000	0.000000	6.422903	0.059694	NaN	0.000000	0.001638	0.001759	28.1187	0.037747	0.002044	18.4702	137.614	-162.697	0.017290	0.420902	-0.691765	-0.693069	0.059694	18.4702	-0.694189	-1.629885E+9	-3.662455E-11	NaN
124	1.000000	0.432200	7.36625e+06	-44839.1	955.818	-29775	0.000000	0.000000	6.432896	0.054669	NaN	0.000000	0.001537	0.001746	28.0827	0.006845	0.001912	3.580111	58.9039	16.8261	0.051285	0.430850	-0.681772	-0.683121	0.054669	3.580111	-0.693224	-1.581170E+9	-3.457505E-11	NaN
124	1.000000	0.442252	7.36625e+06	-44839.1	955.818	-29775	0.000000	0.000000	6.442948	0.045398	NaN	0.000000	0.001551	0.001801	28.0837	0.122909	0.002078	59.1604	132.978	-163.582	0.056042	0.440946	-0.671719	-0.673026	0.045398	59.1604	-0.672295	-8.180748E+8	-5.549360E-11	NaN
124	1.000000	0.452206	7.36625e+06	-44839.1	955.818	-29775	0.000000	0.000000	6.452902	0.034556	NaN	0.000000	0.001588	0.001796	28.1223	0.107905	0.001955	55.2045	70.8135	12.6861	-0.032056	0.450851	-0.661765	-0.663120	0.034556	55.2045	-0.662235	-5.957648E+8	-5.800294E-11	NaN
124	1.000000	0.462228	7.36625e+06	-44839.1	955.818	-29775	0.000000	0.000000	6.462927	0.123235	NaN	0.000000	0.001590	0.001745	28.1164	0.048642	0.002005	24.2613	109.392	-170.088	0.073329	0.460931	-0.651743	-0.653041	0.123235	24.2613	-0.655553	-4.825514E+8	-2.553816E-10	NaN
124	1.000000	0.472254	7.36625e+06	-44839.1	955.818	-29775	0.000000	0.000000	6.472950	0.056160	NaN	0.000000	0.001551	0.001764	28.0811	0.125488	0.001961	63.9946	133.367	13.6583	0.065547	0.470873	-0.641718	-0.643098	0.056160	63.9946	-0.642376	-3.183365E+8	-1.764169E-10	NaN
124	1.000000	0.482214	7.36625e+06	-44839.1	955.818	-29775	0.000000	0.000000	6.482908	0.008145	NaN	0.000000	0.001560	0.001749	28.0846	0.066330	0.001979	33.51	-42.2472	-164.366	0.008828	0.480910	-0.631757	-0.633061	0.008145	33.51	-0.631940	-2.289063E+8	-3.558432E-11	NaN
124	1.000000	0.492254	7.36625e+06	-44839.1	955.818	-29775	0.000000	0.000000	6.492948	0.021638	NaN	0.000000	0.001574	0.001771	28.1222	0.144471	0.001997	72.3497	153.906	12.472	0.050266	0.490875	-0.621718	-0.623097	0.021638	72.3497	-0.621942	-1.668504E+8	-1.296827E-10	NaN
124	1.000000	0.502227	7.36625e+06	-44839.1	955.818	-29775	0.000000	0.000000	6.502922	0.031886	NaN	0.000000	0.001590	0.001783	28.1177	0.129159	0.002080	62.094	-157.651	-164.84	0.097931	0.500921	-0.611744	-0.613051	0.031886	62.094	-0.612130	-1.222954E+8	-2.607305E-10	NaN
124	1.000000	0.512230	7.36625e+06	-44839.1	955.819	-29775	0.000000	0.000000	6.512928	0.110080	NaN	0.000000	0.001593	0.001772	28.0838	0.067792	0.001924	35.2349	-65.1701	17.4565	0.153497	0.510914	-0.601742	-0.603057	0.110080	35.2349	-0.604085	-9.477767E+7	-1.161454E-9	NaN
124	1.000000	0.522277	7.36625e+06	-44839.1	955.819	-29775	0.000000	0.000000	6.522973	0.044167	NaN	0.000000	0.001558	0.001767	28.0831	0.097993	0.002063	47.4936	8.860096	-165.149	-0.008189	0.520932	-0.591694	-0.593039	0.044167	47.4936	-0.592392	-6.540900E+7	-6.752413E-10	NaN
124	1.000000	0.532269	7.36625e+06	-44839.1	955.818	-29775	0.000000	0.000000	6.532968	0.122226	NaN	0.000000	0.001569	0.001792	28.1206	0.147163	0.002031	72.4664	-103.408	15.8534	0.073959	0.530888	-0.581702	-0.583084	0.122226	72.4664	-0.582967	-4.849174E+7	-2.520544E-9	NaN
124	1.000000	0.542270	7.36625e+06	-44839.1	955.817	-29775	0.000000	0.000000	6.542966	0.050051	NaN	0.000000	0.001570	0.001770	28.1173	0.080263	0.001991	40.3219	109.664	-166.09	0.001172	0.540970	-0.571701	-0.573001	0.050051	40.3219	-0.572632	-3.491357E+7	-1.433570E-9	NaN
124	1.000000	0.552297	7.36625e+06	-44839.1	955.818	-29775	0.000000	0.000000	6.552991	0.020903	NaN	0.000000	0.001560	0.001787	28.0813	0.117481	0.002038	57.65	-16.8719	16.8405	0.136274	0.550928	-0.561675	-0.563043	0.020903	57.65	-0.561947	-2.484869E+7	-8.412057E-10	NaN
124	1.000000	0.562264	7.36625e+06	-44839.1	955.817	-29775	0.000000	0.000000	6.562961	0.088896	NaN	0.000000	0.001554	0.001800	28.0845	0.070826	0.001989	35.617	174.78	-166.47	0.133146	0.560928	-0.551708	-0.553043	0.088896	35.617	-0.553580	-1.903375E+7	-4.670452E-9	NaN
124	1.000000	0.572296	7.36625e+06	-44839.1	955.818	-29775	0.000000	0.000000	6.572993	0.083340	NaN	0.000000	0.001619	0.001797	28.1224	0.092646	0.001905	48.6238	94.1007	12.4852	0.066066	0.570898	-0.541676	-0.543074	0.083340	48.6238	-0.542961	-1.356500E+7	-6.143719E-9	NaN
124	1.000000	0.582273	7.36625e+06	-44839.1	955.818	-29775	0.000000	0.000000	6.582971	0.082822	NaN	0.000000	0.001640	0.001757	28.1191	0.059459	0.002091	28.435	-22.1795	-165.576	0.098366	0.581005	-0.531698	-0.532966	0.082822	28.435	-0.533883	-1.015038E+7	-8.159493E-9	NaN
124	1.000000	0.592283	7.36625e+06	-44839.1	955.818	-29775	0.000000	0.000000	6.592979	0.058760	NaN	0.000000	0.001632	0.001775	28.0831	0.103116	0.001953	52.8004	155.725	14.0029	0.100843	0.590936	-0.521689	-0.523036	0.058760	52.8004	-0.522523	-7.05809e+06	-8.325212E-9	NaN
124	1.000000	0.602277	7.36625e+06	-44839.1	955.818	-29775	0.000000	0.000000	6.602973	0.035363	NaN	0.000000	0.001575	0.001842	28.0841	0.066546	0.002018	32.9714	2.088120	-165.352	0.073036	0.601011	-0.511694	-0.512961	0.035363	32.9714	-0.512498	-5.11926e+06	-6.907795E-9	NaN
124	1.000000	0.612287	7.36625e+06	-44839.1	955.818	-29775	0.000000	0.000000	6.612986	0.124583	NaN	0.000000	0.001581	0.001807	28.1218	0.102762	0.001933	53.1632	-126.053	18.2545	0.128881	0.610928	-0.501685	-0.503043	0.124583	53.1632	-0.503442	-3.82847e+06	-3.254127E-8	NaN
124	1.000000	0.622285	7.36625e+06	-44839.1	955.818	-29775	0.000000	0.000000	6.622979	0.002560	NaN	0.000000	0.001591	0.001784	28.1186	0.065144	0.002119	30.7459	-46.9742	-162.917	0.076006	0.621034	-0.491686	-0.492938	0.002560	30.7459	-0.491748	-2.62919e+06	-9.736505E-10	NaN
124	1.000000	0.632316	7.36625e+06	-44839.1	955.818	-29775	0.000000	0.000000	6.633013	0.060733	NaN	0.000000	0.001619	0.001827	28.0827	0.024375	0.001802	13.5288	-49.7053	12.979	0.055913	0.630897	-0.481655	-0.483074	0.060733	13.5288	-0.485022	-2.11738e+06	-2.868296E-8	NaN
124	1.000000	0.642311	7.36625e+06	-44839.1	955.819	-29775	0.000000	0.000000	6.643008	0.084134	NaN	0.000000	0.001650	0.001817	28.0842	0.051179	0.001902	26.915	151.376	-166.004	0.071907	0.641036	-0.471661	-0.472935	0.084134	26.915	-0.474005	-1.48442e+06	-5.667804E-8	NaN
124	1.000000	0.652296	7.36625e+06	-44839.1	955.819	-29775	0.000000	0.000000	6.652991	0.014416	NaN	0.000000	0.001633	0.001842	28.123	0.052380	0.001971	26.5696	-150.866	19.2104	0.000506	0.650946	-0.461675	-0.463025	0.014416	26.5696	-0.462082	-1.00988e+06	-1.427523E-8	NaN
124	1.000000	0.662284	7.36625e+06	-44839.1	955.818	-29775	0.000000	0.000000	6.662981	0.083065	NaN	0.000000	0.001652	0.001841	28.12	0.010895	0.002006	5.431494	-135.181	-164.956	0.073306	0.660980	-0.451687	-0.452991	0.083065	5.431494	-0.463157	-1.04562e+06	-7.944153E-8	NaN
124	1.000000	0.672310	7.36625e+06	-44839.1	955.818	-29775	0.000000	0.000000	6.673004	0.023368	NaN	0.000000	0.001636	0.001839	28.0839	0.046686	0.002022	23.0867	-160.792	13.7286	-0.033704	0.670967	-0.441662	-0.443004	0.023368	23.0867	-0.442421	-533978	-4.376177E-8	NaN
124	1.000000	0.682288	7.36625e+06	-44839.1	955.819	-29775	0.000000	0.000000	6.682987	0.106701	NaN	0.000000	0.001616	0.001851	28.083	0.032658	0.002015	16.2046	91.5132	-166.879	0.023505	0.680983	-0.431683	-0.432988	0.106701	16.2046	-0.436621	-442242	-2.412725E-7	NaN
124	1.000000	0.692355	7.36625e+06	-44839.1	955.818	-29775	0.000000	0.000000	6.693051	0.060667	NaN	0.000000	0.001595	0.001783	28.1215	0.118812	0.001977	60.0934	-95.6253	15.9617	0.070624	0.690945	-0.421617	-0.423026	0.060667	60.0934	-0.422374	-278019	-2.182106E-7	NaN
124	1.000000	0.702309	7.36625e+06	-44839.1	955.818	-29775	0.000000	0.000000	6.703002	-0.007475	NaN	0.000000	0.001568	0.001831	28.1186	0.073528	0.002046	35.9372	94.2889	-164.119	-0.035757	0.700991	-0.411663	-0.412981	-0.007475	35.9372	-0.411507	-194906	3.835028E-8	NaN
124	1.000000	0.712320	7.36625e+06	-44839.1	955.818	-29775	0.000000	0.000000	6.713015	0.007035	NaN	0.000000	0.001552	0.001808	28.0834	0.013071	0.002007	6.511835	34.8392	12.064	-0.018969	0.710979	-0.401651	-0.402993	0.007035	6.511835	-0.402461	-144904	-4.854625E-8	NaN
124	1.000000	0.722325	7.36625e+06	-44839.1	955.817	-29775	0.000000	0.000000	6.723020	0.038009	NaN	0.000000	0.001519	0.001793	28.0838	0.033169	0.002121	15.6391	-138.338	-165.546	0.078268	0.721082	-0.391647	-0.392890	0.038009	15.6391	-0.393470	-107838	-3.524622E-7	NaN
124	1.000000	0.732334	7.36625e+06	-44839.1	955.818	-29775	0.000000	0.000000	6.733031	0.073739	NaN	0.000000	0.001495	0.001791	28.1214	0.055816	0.002017	27.6675	141.309	17.1195	0.025911	0.730993	-0.381637	-0.382979	0.073739	27.6675	-0.383636	-77990.8	-9.454775E-7	NaN
124	1.000000	0.742345	7.36625e+06	-44839.1	955.818	-29775	0.000000	0.000000	6.743041	0.032633	NaN	0.000000	0.001565	0.001843	28.1192	0.060419	0.001874	32.2441	7.603338	-165.442	0.050491	0.741082	-0.371626	-0.372890	0.032633	32.2441	-0.372385	-53760.1	-6.070095E-7	NaN
124	1.000000	0.752345	7.36625e+06	-44839.1	955.818	-29775	0.000000	0.000000	6.753039	0.000504	NaN	0.000000	0.001527	0.001831	28.0836	0.027725	0.002036	13.6159	75.493	14.817	0.060232	0.750976	-0.361627	-0.362995	0.000504	13.6159	-0.361654	-37648.9	-1.338174E-8	NaN
124	1.000000	0.762347	7.36625e+06	-44839.1	955.818	-29775	0.000000	0.000000	6.763044	0.080953	NaN	0.000000	0.001503	0.001832	28.0825	0.055506	0.002069	26.828	114.894	-163.262	0.057936	0.761052	-0.351624	-0.352919	0.080953	26.828	-0.353887	-29065.4	-2.785213E-6	NaN
124	1.000000	0.772350	7.36625e+06	-44839.1	955.818	-29775	0.000000	0.000000	6.773047	0.075850	NaN	0.000000	0.001544	0.001815	28.1199	0.140328	0.001957	71.6983	65.383	17.0251	0.152626	0.771018	-0.341622	-0.342953	0.075850	71.6983	-0.342415	-19803.4	-3.830123E-6	NaN
124	1.000000	0.782378	7.36625e+06	-44839.1	955.817	-29775	0.000000	0.000000	6.783072	0.012581	NaN	0.000000	0.001528	0.001807	28.118	0.112761	0.001984	56.8349	-154.753	-163.888	0.002786	0.781047	-0.331593	-0.332925	0.012581	56.8349	-0.331759	-13842.2	-9.089029E-7	NaN
124	1.000000	0.792355	7.36625e+06	-44839.1	955.818	-29775	0.000000	0.000000	6.793052	0.055448	NaN	0.000000	0.001532	0.001809	28.0821	0.041170	0.002049	20.093	2.057032	15.5997	0.084378	0.790999	-0.321616	-0.322972	0.055448	20.093	-0.323686	-10539.8	-5.260763E-6	NaN
124	1.000000	0.802397	7.36625e+06	-44839.1	955.818	-29775	0.000000	0.000000	6.803093	0.047918	NaN	0.000000	0.001547	0.001789	28.0825	0.090038	0.001859	48.4438	80.4774	-168.471	0.063956	0.801084	-0.311574	-0.312887	0.047918	48.4438	-0.312316	-7166.56	-6.686404E-6	NaN
124	1.000000	0.812393	7.36625e+06	-44839.1	955.819	-29775	0.000000	0.000000	6.813085	-0.028563	NaN	0.000000	0.001577	0.001841	28.1205	0.070503	0.001990	35.4206	-74.5788	15.821	-0.079216	0.811067	-0.301579	-0.302905	-0.028563	35.4206	-0.300974	-4865.51	5.870413E-6	NaN
124	1.000000	0.822376	7.36625e+06	-44839.1	955.819	-29775	0.000000	0.000000	6.823069	-0.005230	NaN	0.000000	0.001605	0.001781	28.1193	0.106928	0.001822	58.6806	119.996	-162.176	-0.067436	0.821029	-0.291596	-0.292942	-0.005230	58.6806	-0.291529	-3517.19	1.486872E-6	NaN
124	1.000000	0.832376	7.36625e+06	-44839.1	955.818	-29775	0.000000	0.000000	6.833071	0.028364	NaN	0.000000	0.001588	0.001828	28.0825	0.137516	0.002012	68.3508	-60.9554	13.0771	-0.058882	0.831010	-0.281596	-0.282962	0.028364	68.3508	-0.281907	-2521.86	-1.124720E-5	NaN
124	1.000000	0.842393	7.36625e+06	-44839.1	955.818	-29775	0.000000	0.000000	6.843091	0.100375	NaN	0.000000	0.001605	0.001811	28.0824	0.020667	0.001879	10.9989	-144.058	-165.72	0.081317	0.841093	-0.271578	-0.272879	0.100375	10.9989	-0.278423	-2234.41	-4.492236E-5	NaN
124	1.000000	0.852370	7.36625e+06	-44839.1	955.818	-29775	0.000000	0.000000	6.853066	0.055674	NaN	0.000000	0.001582	0.001793	28.1192	0.033599	0.002098	16.0145	-143.541	14.0758	0.031432	0.851033	-0.261601	-0.262938	0.055674	16.0145	-0.264208	-1359.26	-4.095920E-5	NaN
124	1.000000	0.862392	7.36625e+06	-44839.1	955.818	-29775	0.000000	0.000000	6.863087	0.025806	NaN	0.000000	0.001609	0.001797	28.1193	0.088044	0.002022	43.541	-81.8927	-165.535	0.069298	0.861029	-0.251580	-0.252942	0.025806	43.541	-0.252024	-883.574	-2.920690E-5	NaN
124	1.000000	0.872407	7.36625e+06	-44839.1	955.818	-29775	0.000000	0.000000	6.873105	0.081445	NaN	0.000000	0.001571	0.001814	28.0828	0.019754	0.001956	10.0973	-76.0636	11.6982	-0.001143	0.871045	-0.241564	-0.242927	0.081445	10.0973	-0.247613	-755.119	-0.000108	NaN
124	1.000000	0.882401	7.36625e+06	-44839.1	955.818	-29775	0.000000	0.000000	6.883097	0.059991	NaN	0.000000	0.001527	0.001763	28.0839	0.051441	0.002017	25.5015	-45.5197	-165.167	0.038105	0.881160	-0.231571	-0.232811	0.059991	25.5015	-0.233335	-451.939	-0.000133	NaN
124	1.000000	0.892415	7.36625e+06	-44839.1	955.818	-29775	0.000000	0.000000	6.893109	-0.004921	NaN	0.000000	0.001564	0.001801	28.1215	0.068179	0.002050	33.2581	-121.93	15.6017	0.025403	0.891067	-0.221556	-0.222904	-0.004921	33.2581	-0.221445	-292.922	1.680012E-5	NaN
124	1.000000	0.902376	7.36625e+06	-44839.1	955.819	-29775	0.000000	0.000000	6.903070	-0.003049	NaN	0.000000	0.001558	0.001788	28.1215	0.075487	0.002066	36.5291	-49.2132	-163.898	0.004190	0.901097	-0.211595	-0.212875	-0.003049	36.5291	-0.211532	-203.053	1.501525E-5	NaN
124	1.000000	0.912431	7.36625e+06	-44839.1	955.818	-29775	0.000000	0.000000	6.913128	0.067205	NaN	0.000000	0.001564	0.001778	28.0839	0.026627	0.002084	12.7772	129.52	15.889	0.101758	0.911044	-0.201540	-0.202928	0.067205	12.7772	-0.205485	-161.981	-0.000415	NaN
124	1.000000	0.922404	7.36625e+06	-44839.1	955.818	-29775	0.000000	0.000000	6.923100	0.040143	NaN	0.000000	0.001544	0.001757	28.0831	0.104477	0.001983	52.6933	-134.176	-164.068	0.023434	0.921070	-0.191567	-0.192902	0.040143	52.6933	-0.192139	-97.6543	-0.000411	NaN
124	1.000000	0.932435	7.36625e+06	-44839.1	955.818	-29775	0.000000	0.000000	6.933133	0.105274	NaN	0.000000	0.001534	0.001751	28.1199	0.110941	0.001910	58.0955	149.396	15.7771	0.178785	0.931089	-0.181537	-0.182882	0.105274	58.0955	-0.182896	-68.3278	-0.001541	NaN
124	1.000000	0.942432	7.36625e+06	-44839.1	955.818	-29775	0.000000	0.000000	6.943126	0.014043	NaN	0.000000	0.001623	0.001783	28.1205	0.040403	0.001991	20.2944	106.661	-166.275	-0.017315	0.941099	-0.171540	-0.172873	0.014043	20.2944	-0.172059	-44.5951	-0.000315	NaN
124	1.000000	0.952441	7.36625e+06	-44839.1	955.818	-29775	0.000000	0.000000	6.953138	0.069072	NaN	0.000000	0.001551	0.001732	28.0833	0.071518	0.001996	35.8363	-31.9624	14.8532	0.128846	0.951062	-0.161530	-0.162909	0.069072	35.8363	-0.162976	-30.9514	-0.002232	NaN
124	1.000000	0.962440	7.36625e+06	-44839.1	955.817	-29775	0.000000	0.000000	6.963137	0.075643	NaN	0.000000	0.001599	0.001757	28.0847	0.037425	0.001976	18.9401	142.343	-162.305	0.149361	0.961122	-0.151532	-0.152849	0.075643	18.9401	-0.154527	-21.8809	-0.003457	NaN
124	1.000000	0.972434	7.36625e+06	-44839.1	955.818	-29775	0.000000	0.000000	6.973133	0.126695	NaN	0.000000	0.001610	0.001740	28.1211	0.105805	0.001919	55.1469	-136.412	15.0124	0.158517	0.971040	-0.141537	-0.142932	0.126695	55.1469	-0.143260	-13.6113	-0.009308	NaN
124	1.000000	0.982459	7.36625e+06	-44839.1	955.818	-29775	0.000000	0.000000	6.983156	0.081159	NaN	0.000000	0.001622	0.001783	28.1211	0.183787	0.001994	92.1751	-162.356	-166.226	0.056273	0.981149	-0.131513	-0.132823	0.081159	92.1751	-0.132173	-8.395823	-0.009667	NaN
124	1.000000	0.992446	7.36625e+06	-44839.1	955.818	-29775	0.000000	0.000000	6.993140	-0.006449	NaN	0.000000	0.001629	0.001802	28.0839	0.041846	0.002089	20.0327	96.8737	17.4652	0.004094	0.991106	-0.121525	-0.122865	-0.006449	20.0327	-0.121284	-5.127777	0.001258	NaN
124	1.000000	1.002473	7.36625e+06	-44839.1	955.817	-29775	0.000000	0.000000	7.003167	0.002164	NaN	0.000000	0.001656	0.001794	28.0828	0.078155	0.001978	39.5159	97.293	-165.14	-0.013415	1.001147	-0.111499	-0.112824	0.002164	39.5159	-0.111540	-3.237586	-0.000668	NaN
124	1.000000	1.012478	7.36625e+06	-44839.1	955.818	-29775	0.000000	0.000000	7.013173	0.007596	NaN	0.000000	0.001626	0.001764	28.1187	0.009564	0.001901	5.030043	63.4485	15.8286	0.005312	1.011106	-0.101493	-0.102866	0.007596	5.030043	-0.102626	-2.087237	-0.003639	NaN
124	1.000000	1.022462	7.36625e+06	-44839.1	955.818	-29775	0.000000	0.000000	7.023156	0.015895	NaN	0.000000	0.001581	0.001782	28.1194	0.029723	0.001883	15.7846	-22.1002	-163.49	0.062706	1.021116	-0.091510	-0.092856	0.015895	15.7846	-0.092265	-1.220687	-0.013021	NaN
124	1.000000	1.032481	7.36625e+06	-44839.1	955.818	-29775	0.000000	0.000000	7.033179	0.094433	NaN	0.000000	0.001559	0.001803	28.0826	0.102472	0.002040	50.238	-27.4245	14.025	0.112108	1.031099	-0.081490	-0.082873	0.094433	50.238	-0.082900	-0.730313	-0.129305	NaN
124	1.000000	1.042468	7.36625e+06	-44839.1	955.818	-29775	0.000000	0.000000	7.043164	0.048178	NaN	0.000000	0.001544	0.001752	28.0825	0.071402	0.001968	36.2732	-3.079582	-165.157	0.060011	1.041142	-0.071503	-0.072830	0.048178	36.2732	-0.072500	-0.397436	-0.121223	NaN
124	1.000000	1.052494	7.36625e+06	-44839.1	955.818	-29775	0.000000	0.000000	7.053193	0.134620	NaN	0.000000	0.001556	0.001766	28.1196	0.099267	0.002050	48.4124	-48.4873	13.639	0.123830	1.051138	-0.061477	-0.062833	0.134620	48.4124	-0.063563	-0.227255	-0.592374	NaN
124	1.000000	1.062450	7.36625e+06	-44839.1	955.818	-29775	0.000000	0.000000	7.063143	-0.022621	NaN	0.000000	0.001518	0.001772	28.1205	0.026189	0.002063	12.6945	72.3064	-165.849	0.031770	1.061208	-0.051521	-0.052763	-0.022621	12.6945	-0.050185	-0.092434	0.244721	NaN
124	1.000000	1.072499	7.36625e+06	-44839.1	955.819	-29775	0.000000	0.000000	7.073191	-0.039742	NaN	0.000000	0.001530	0.001755	28.0833	0.105225	0.002052	51.276	-88.632	17.2219	0.023618	1.071122	-0.041473	-0.042850	-0.039742	51.276	-0.040892	-0.048136	0.825624	NaN
124	1.000000	1.082467	7.36625e+06	-44839.1	955.818	-29775	0.000000	0.000000	7.083161	-0.000486	NaN	0.000000	0.001537	0.001782	28.0808	0.029497	0.002027	14.5505	146.596	-164.366	-0.063791	1.081142	-0.031504	-0.032830	-0.000486	14.5505	-0.031479	-0.025327	0.019178	NaN
124	1.000000	1.092503	7.36626e+06	-44839.1	955.818	-29775	0.000000	0.000000	7.093199	0.059368	NaN	0.000000	0.001558	0.001781	28.1174	0.055620	0.001967	28.2744	161.146	14.1252	0.104686	1.091158	-0.021469	-0.022813	0.059368	28.2744	-0.023043	-0.015015	-3.953944	NaN
124	1.000000	1.102495	7.36626e+06	-44839.1	955.818	-29775	0.000000	0.000000	7.103194	0.133640	NaN	0.000000	0.001560	0.001776	28.1198	0.083932	0.001949	43.0585	-127.48	-164.785	0.161183	1.101168	-0.011476	-0.012803	0.133640	43.0585	-0.013804	-0.008569	-15.5961	NaN
124	1.000000	1.112475	7.36626e+06	-44839.1	955.819	-29775	0.000000	0.000000	7.113173	0.095158	NaN	0.000000	0.001536	0.001780	28.0833	0.118402	0.001994	59.368	-23.3792	14.6155	0.089840	1.111130	-0.001497	-0.002841	0.095158	59.368	-0.002699	-0.001918	-49.6185	NaN
124	1.000000	1.122447	7.36626e+06	-44839.1	955.818	-29775	0.000000	0.000000	7.123418	6.754305	NaN	0.000000	0.001551	0.001773	28.0841	7.109687	0.001650	4308.2	10.8701	-171.702	4.855959	1.121116	0.008475	0.007144	6.754305	4308.2	0.007299	0.006332	1066.75	49466.3
124	2.000000	1.126561	7.36626e+06	-44839.1	955.818	-29775	0.000000	0.000000	7.127743	11.8939	NaN	0.000000	0.001520	0.001766	28.1192	11.7868	0.001725	6833.52	6.211688	9.831218	10.4819	1.126185	0.012589	0.012213	11.8939	6833.52	0.011284	0.010644	1117.48	60516.6
124	2.000000	1.129008	7.36626e+06	-44839.1	955.818	-29775	0.000000	0.000000	7.130359	16.0011	NaN	0.000000	0.001560	0.001781	28.1221	14.9149	0.001699	8777.05	8.698004	-178.722	15.0359	1.128717	0.015036	0.014746	16.0011	8777.05	0.013669	0.013551	1180.78	68886.2
124	2.000000	1.131416	7.36626e+06	-44839.1	955.819	-29775	0.000000	0.000000	7.133034	22.485	NaN	0.000000	0.001574	0.001798	28.0853	17.7917	0.001741	10222	3.252225	6.499229	19.419	1.131087	0.017445	0.017116	22.485	10222	0.015795	0.016360	1374.38	73015.7
124	2.000000	1.134000	7.36626e+06	-44839.1	955.819	-29775	0.000000	0.000000	7.135793	26.7406	NaN	0.000000	0.001594	0.001768	28.0839	20.4558	0.001849	11063.7	5.149915	-174.121	28.0113	1.133659	0.020028	0.019687	26.7406	11063.7	0.018216	0.019816	1349.47	71807.2
124	2.000000	1.136486	7.36626e+06	-44839.1	955.818	-29775	0.000000	0.000000	7.138547	33.2454	NaN	0.000000	0.001566	0.001787	28.119	22.2806	0.001818	12254.8	5.892791	4.095208	31.5756	1.136084	0.022515	0.022113	33.2454	12254.8	0.020480	0.023302	1426.7	73346.7
124	2.000000	1.138943	7.36626e+06	-44839.1	955.818	-29775	0.000000	0.000000	7.141164	37.151	NaN	0.000000	0.001566	0.001760	28.1212	25.2266	0.001829	13795.5	7.791306	-179.419	36.8126	1.138657	0.024972	0.024685	37.151	13795.5	0.022952	0.027395	1356.13	76150.9
124	2.000000	1.141439	7.36626e+06	-44839.1	955.818	-29775	0.000000	0.000000	7.143943	44.0463	NaN	0.000000	0.001567	0.001787	28.0833	27.5809	0.002017	13671.9	8.512347	1.987698	43.1387	1.141059	0.027468	0.027088	44.0463	13671.9	0.025051	0.031109	1415.87	70820.4
124	2.000000	1.143970	7.36626e+06	-44839.1	955.818	-29775	0.000000	0.000000	7.146741	50.516	NaN	0.000000	0.001573	0.001787	28.0848	30.0165	0.001961	15304.3	8.015751	-179.908	51.1787	1.143626	0.029999	0.029654	50.516	15304.3	0.027523	0.035767	1412.38	73934.4
124	2.000000	1.146484	7.36626e+06	-44839.1	955.818	-29775	0.000000	0.000000	7.149604	59.0393	NaN	0.000000	0.001581	0.001796	28.1197	31.2909	0.001768	17699.8	7.124883	0.479227	60.0345	1.146084	0.032512	0.032113	59.0393	17699.8	0.030011	0.040766	1448.25	80092.9
124	2.000000	1.148895	7.36626e+06	-44839.1	955.819	-29775	0.000000	0.000000	7.152453	69.6824	NaN	0.000000	0.001552	0.001787	28.1226	32.7491	0.001817	18024.7	4.294097	-177.819	68.0968	1.148591	0.034924	0.034619	69.6824	18024.7	0.032024	0.045044	1547	77593.2
124	2.000000	1.151437	7.36626e+06	-44839.1	955.819	-29775	0.000000	0.000000	7.155095	72.1238	NaN	0.000000	0.001575	0.001779	28.0849	36.5372	0.001830	19961	6.845920	-1.433769	71.7215	1.151060	0.037465	0.037088	72.1238	19961	0.034755	0.051178	1409.27	80614.5
124	2.000000	1.153919	7.36626e+06	-44839.1	955.819	-29775	0.000000	0.000000	7.158056	83.7764	NaN	0.000000	0.001562	0.001763	28.0825	39.6508	0.001772	22381.2	8.402507	174.573	81.8065	1.153688	0.039947	0.039716	83.7764	22381.2	0.037140	0.056845	1473.76	85764.5
124	2.000000	1.156425	7.36626e+06	-44839.1	955.819	-29775	0.000000	0.000000	7.160955	93.3406	NaN	0.000000	0.001532	0.001788	28.1188	41.2904	0.001766	23380.4	8.154992	-5.261979	91.0072	1.156017	0.042453	0.042046	93.3406	23380.4	0.039459	0.062637	1490.17	85350.9
124	2.000000	1.158884	7.36626e+06	-44839.1	955.819	-29775	0.000000	0.000000	7.163723	100.845	NaN	0.000000	0.001539	0.001766	28.1213	44.108	0.001793	24601.7	3.449392	179.118	99.9418	1.158697	0.044912	0.044725	100.845	24601.7	0.041838	0.068864	1464.4	85652.9
124	2.000000	1.161444	7.36626e+06	-44839.1	955.819	-29775	0.000000	0.000000	7.166678	110.464	NaN	0.000000	0.001624	0.001780	28.0838	46.3535	0.001789	25903.3	3.037178	0.434108	110.863	1.161039	0.047472	0.047068	110.464	25903.3	0.044274	0.075539	1462.34	86107.7
124	2.000000	1.163936	7.36626e+06	-44839.1	955.819	-29775	0.000000	0.000000	7.169605	121.031	NaN	0.000000	0.001515	0.001763	28.0823	48.8793	0.001770	27616.8	3.597161	178.335	122.493	1.163573	0.049965	0.049602	121.031	27616.8	0.046678	0.082423	1468.42	87886.9
124	2.000000	1.166389	7.36626e+06	-44839.1	955.819	-29775	0.000000	0.000000	7.172656	135.574	NaN	0.000000	0.001540	0.001772	28.1185	50.399	0.001766	28535.9	1.828513	0.683697	132.7	1.166033	0.052418	0.052061	135.574	28535.9	0.048854	0.088905	1524.94	87438.4
124	2.000000	1.168818	7.36626e+06	-44839.1	955.819	-29775	0.000000	0.000000	7.175617	148.532	NaN	0.000000	0.001554	0.001833	28.1214	52.5281	0.001799	29194.5	5.415357	176.236	144.464	1.168576	0.054846	0.054605	148.532	29194.5	0.051031	0.095625	1553.26	86255.6
124	2.000000	1.171384	7.36626e+06	-44839.1	955.819	-29775	0.000000	0.000000	7.178478	155.713	NaN	0.000000	0.001555	0.001815	28.0839	55.7173	0.001802	30918.1	5.399813	-4.614981	151.78	1.170981	0.057412	0.057010	155.713	30918.1	0.053635	0.103980	1497.53	87601.5
124	2.000000	1.173909	7.36626e+06	-44839.1	955.818	-29775	0.000000	0.000000	7.181382	164.912	NaN	0.000000	0.001572	0.001782	28.0814	58.1961	0.001766	32951.5	5.054576	175.444	164.045	1.173618	0.059938	0.059647	164.912	32951.5	0.056184	0.112483	1466.11	89764.8
124	2.000000	1.176414	7.36626e+06	-44839.1	955.819	-29775	0.000000	0.000000	7.184554	181.168	NaN	0.000000	0.001535	0.001835	28.1169	60.1434	0.001822	33005.3	5.069616	-4.282700	178.962	1.175989	0.062442	0.062017	181.168	33005.3	0.058325	0.119872	1511.35	87096.2
124	2.000000	1.178830	7.36626e+06	-44839.1	955.819	-29775	0.000000	0.000000	7.187455	192.926	NaN	0.000000	0.001512	0.001765	28.1206	62.7218	0.001884	33283.1	5.212143	175.085	188.632	1.178512	0.064859	0.064541	192.926	33283.1	0.060512	0.127649	1511.38	85111.4
124	2.000000	1.181339	7.36626e+06	-44839.1	955.819	-29775	0.000000	0.000000	7.190623	208.977	NaN	0.000000	0.001485	0.001802	28.0822	64.6743	0.001933	33456.4	6.775545	-4.618644	206.187	1.180944	0.067368	0.066973	208.977	33456.4	0.062683	0.135605	1541.07	83007.1
124	2.000000	1.183761	7.36626e+06	-44839.1	955.819	-29775	0.000000	0.000000	7.193541	221.063	NaN	0.000000	0.001514	0.001841	28.0824	66.4265	0.001812	36657.9	4.843156	175.203	215.152	1.183531	0.069789	0.069560	221.063	36657.9	0.065266	0.145367	1520.72	87843.2
124	2.000000	1.186395	7.36626e+06	-44839.1	955.819	-29775	0.000000	0.000000	7.196774	235.628	NaN	0.000000	0.001530	0.001836	28.1184	68.6618	0.001765	38892.2	6.827076	-6.838551	232.842	1.186052	0.072424	0.072081	235.628	38892.2	0.067880	0.155570	1514.61	90089.2
124	2.000000	1.188926	7.36626e+06	-44839.1	955.819	-29775	0.000000	0.000000	7.199603	242.852	NaN	0.000000	0.001519	0.001779	28.1219	71.6016	0.001784	40126.4	4.924620	174.236	246.086	1.188591	0.074955	0.074620	242.852	40126.4	0.070416	0.165783	1464.88	90039.6
124	2.000000	1.191332	7.36626e+06	-44839.1	955.82	-29775	0.000000	0.000000	7.202782	261.659	NaN	0.000000	0.001572	0.001757	28.0842	73.6314	0.001792	41094.5	2.084104	-2.806992	255.339	1.190837	0.077361	0.076865	261.659	41094.5	0.072585	0.174763	1497.22	89811.5
124	2.000000	1.193784	7.36626e+06	-44839.1	955.819	-29775	0.000000	0.000000	7.205808	275.636	NaN	0.000000	0.001552	0.001806	28.0812	76.4521	0.001759	43471.9	1.511301	177.064	270.4	1.193566	0.079813	0.079594	275.636	43471.9	0.075057	0.185268	1487.77	92274.6
124	2.000000	1.196388	7.36626e+06	-44839.1	955.819	-29775	0.000000	0.000000	7.209005	290.065	NaN	0.000000	0.001583	0.001775	28.1186	78.6214	0.001820	43206	7.346025	-8.525344	286.131	1.196119	0.082416	0.082147	290.065	43206	0.077381	0.195402	1484.45	89300.1
124	2.000000	1.198982	7.36626e+06	-44839.1	955.819	-29775	0.000000	0.000000	7.212211	304.928	NaN	0.000000	0.001566	0.001777	28.1226	81.9013	0.001778	46076.1	7.462387	170.534	310.805	1.198469	0.085011	0.084498	304.928	46076.1	0.080048	0.207345	1470.63	92449.1
124	2.000000	1.201429	7.36626e+06	-44839.1	955.818	-29775	0.000000	0.000000	7.215515	325.807	NaN	0.000000	0.001560	0.001742	28.0844	84.171	0.001769	47572.8	7.374600	-9.094295	328.557	1.200980	0.087457	0.087008	325.807	47572.8	0.082321	0.217787	1495.99	93135.8
124	2.000000	1.203802	7.36626e+06	-44839.1	955.819	-29775	0.000000	0.000000	7.218762	347.057	NaN	0.000000	0.001554	0.001759	28.0831	86.4582	0.001743	49604	5.644474	171.791	344.031	1.203579	0.089831	0.089607	347.057	49604	0.084583	0.228418	1519.4	94825.5
124	2.000000	1.206303	7.36626e+06	-44839.1	955.819	-29775	0.000000	0.000000	7.221851	361.352	NaN	0.000000	0.001565	0.001742	28.1185	87.8941	0.001779	49393.2	4.052656	-6.361349	354.839	1.205934	0.092332	0.091963	361.352	49393.2	0.086845	0.239281	1510.16	92254.3
124	2.000000	1.208929	7.36626e+06	-44839.1	955.819	-29775	0.000000	0.000000	7.224959	373.069	NaN	0.000000	0.001573	0.001766	28.1237	89.6583	0.001722	52064	2.982126	174.151	375.499	1.208629	0.094958	0.094657	373.069	52064	0.089584	0.252753	1476.03	94615.6
124	2.000000	1.211302	7.36626e+06	-44839.1	955.818	-29775	0.000000	0.000000	7.228358	398.046	NaN	0.000000	0.001515	0.001755	28.085	94.4109	0.001900	49700.8	5.726946	-7.698718	392.728	1.210844	0.097331	0.096873	398.046	49700.8	0.091324	0.261491	1522.22	88799
124	2.000000	1.213797	7.36626e+06	-44839.1	955.819	-29775	0.000000	0.000000	7.231557	415.172	NaN	0.000000	0.001528	0.001770	28.0819	95.5738	0.001848	51705.9	1.724927	175.791	410.853	1.213521	0.099826	0.099550	415.172	51705.9	0.093803	0.274179	1514.23	90218.6
124	2.000000	1.216341	7.36626e+06	-44839.1	955.818	-29775	0.000000	0.000000	7.234934	435.456	NaN	0.000000	0.001522	0.001810	28.1173	97.5895	0.001839	53052.4	3.860768	-6.061672	432.775	1.215971	0.102369	0.102000	435.456	53052.4	0.096213	0.286782	1518.42	90511.2
124	2.000000	1.218860	7.36626e+06	-44839.1	955.818	-29775	0.000000	0.000000	7.238281	455.563	NaN	0.000000	0.001515	0.001768	28.1227	100.328	0.001872	53607.3	6.768428	170.348	456.797	1.218511	0.104889	0.104540	455.563	53607.3	0.098515	0.299068	1523.27	89559.5
124	2.000000	1.221269	7.36626e+06	-44839.1	955.818	-29775	0.000000	0.000000	7.241242	469.015	NaN	0.000000	0.001534	0.001762	28.0846	102.352	0.001799	56899.3	7.210643	-11.2243	462.603	1.221060	0.107297	0.107088	469.015	56899.3	0.101115	0.313232	1497.34	92885.2
124	2.000000	1.222864	7.36626e+06	-44839.1	955.818	-29775	0.000000	0.000000	7.243561	486.639	NaN	0.000000	0.001566	0.001778	28.1238	102.552	0.001789	57325.4	4.967372	171.795	489.314	1.222540	0.108892	0.108569	486.639	57325.4	0.102525	0.321045	1515.8	92435.2