File: remote_trans/data/nanoindenter/0828-1/data/Data_2025-08-06,11h17m57s/2025-07-22_16-23-58_1_153.txt
2025-07-22, 16:23:58, 1
Index	Phase	Displacement	Time	Pos X	Pos Y	Pos Z	Rot A	Rot B	Piezo Z	Force A	Force B	Gripper	Voltage A	Voltage B	Temperature	Amplitude force	Amplitude pos	Stiffness	Phase shift	Phase excitation	Force A raw	Displacement raw	HMax	HMax raw	Real Force	Real Stiffness	Contact Depth	Area	Hardness	Reduced Mod.
[#]	[#]	[um]	[s]	[um]	[um]	[um]	[m°]	[m°]	[um]	[uN]	[uN]	[V]	[V]	[V]	[°C]	[uN]	[um]	[N/m]	[°]	[°]	[uN]	[um]	[um]	[um]	[uN]	[N/m]	[um]	[um^2]	[MPa]	[MPa]
153	1.000000	0.002282	7.36653e+06	-46289.1	955.819	-29769.5	0.000000	0.000000	6.002784	-0.066476	NaN	0.000000	0.001625	0.001723	28.1306	0.114533	0.000950	120.52	-99.1629	-160.315	-0.165115	0.001041	-1.763075	-1.764316	-0.066476	120.52	-1.762661	-3.455911E+23	1.923555E-25	NaN
153	1.000000	0.014300	7.36653e+06	-46289.1	955.819	-29769.5	0.000000	0.000000	6.014806	0.027956	NaN	0.000000	0.001655	0.001705	28.0794	0.045232	0.001683	26.8708	124.429	-164.41	0.018197	0.013166	-1.751057	-1.752192	0.027956	26.8708	-1.751837	-2.482333E+23	-1.126184E-25	NaN
153	1.000000	0.026291	7.36653e+06	-46289.1	955.819	-29769.4	0.000000	0.000000	6.026793	-0.036783	NaN	0.000000	0.001619	0.001703	28.1309	0.100746	0.001794	56.1624	55.7107	-167.089	-0.104202	0.024948	-1.739067	-1.740409	-0.036783	56.1624	-1.738576	-1.654922E+23	2.222624E-25	NaN
153	1.000000	0.038259	7.36653e+06	-46289.1	955.819	-29769.4	0.000000	0.000000	6.038762	-0.041241	NaN	0.000000	0.001647	0.001689	28.0795	0.125656	0.001787	70.3349	-79.6695	-162.059	0.014335	0.036931	-1.727098	-1.728426	-0.041241	70.3349	-1.726658	-1.149536E+23	3.587597E-25	NaN
153	1.000000	0.050261	7.36653e+06	-46289.1	955.818	-29769.4	0.000000	0.000000	6.050766	0.008633	NaN	0.000000	0.001659	0.001694	28.13	0.094386	0.001971	47.883	105.325	-166.85	0.063760	0.048913	-1.715096	-1.716445	0.008633	47.883	-1.715231	-8.105054E+22	-1.065142E-25	NaN
153	1.000000	0.062255	7.36653e+06	-46289.1	955.819	-29769.4	0.000000	0.000000	6.062758	-0.010642	NaN	0.000000	0.001626	0.001676	28.0783	0.121438	0.001852	65.5576	67.1258	-162.95	0.039922	0.060925	-1.703103	-1.704433	-0.010642	65.5576	-1.702981	-5.572343E+22	1.909834E-25	NaN
153	1.000000	0.074258	7.36653e+06	-46289.1	955.818	-29769.4	0.000000	0.000000	6.074765	0.077019	NaN	0.000000	0.001653	0.001708	28.1291	0.101214	0.001935	52.3088	-175.799	-162.203	-0.006060	0.072975	-1.691100	-1.692382	0.077019	52.3088	-1.692204	-4.007466E+22	-1.921898E-24	NaN
153	1.000000	0.086231	7.36653e+06	-46289.1	955.818	-29769.4	0.000000	0.000000	6.086735	0.000354	NaN	0.000000	0.001622	0.001701	28.0795	0.129896	0.002006	64.7607	146.263	-167.074	-0.037146	0.084972	-1.679127	-1.680385	0.000354	64.7607	-1.679131	-2.686407E+22	-1.317381E-26	NaN
153	1.000000	0.098263	7.36653e+06	-46289.1	955.819	-29769.4	0.000000	0.000000	6.098768	0.003266	NaN	0.000000	0.001621	0.001717	28.1303	0.137527	0.002043	67.3022	-30.3547	-164.784	-0.092605	0.096879	-1.667094	-1.668478	0.003266	67.3022	-1.667130	-1.860828E+22	-1.754893E-25	NaN
153	1.000000	0.110266	7.36653e+06	-46289.1	955.818	-29769.4	0.000000	0.000000	6.110769	-0.037038	NaN	0.000000	0.001609	0.001675	28.079	0.011924	0.002062	5.783457	52.8601	-168.352	0.017818	0.108960	-1.655091	-1.656397	-0.037038	5.783457	-1.650288	-1.111366E+22	3.332654E-24	NaN
153	1.000000	0.122245	7.36653e+06	-46289.1	955.819	-29769.4	0.000000	0.000000	6.122749	-0.005969	NaN	0.000000	0.001677	0.001678	28.1305	0.102680	0.001934	53.097	134.573	-162.178	-0.070073	0.120984	-1.643113	-1.644373	-0.005969	53.097	-1.643028	-8.899399E+21	6.707507E-25	NaN
153	1.000000	0.134304	7.36653e+06	-46289.1	955.819	-29769.4	0.000000	0.000000	6.134811	0.068527	NaN	0.000000	0.001632	0.001658	28.0776	0.114015	0.001932	59.0276	145.708	-163.971	0.046031	0.132998	-1.631053	-1.632359	0.068527	59.0276	-1.631924	-6.334894E+21	-1.081733E-23	NaN
153	1.000000	0.146295	7.36653e+06	-46289.1	955.818	-29769.4	0.000000	0.000000	6.146799	-0.004832	NaN	0.000000	0.001612	0.001653	28.1306	0.057714	0.002055	28.0789	85.262	-164.901	-0.046445	0.144942	-1.619062	-1.620415	-0.004832	28.0789	-1.618933	-4.256095E+21	1.135303E-24	NaN
153	1.000000	0.158309	7.36653e+06	-46289.1	955.819	-29769.4	0.000000	0.000000	6.158812	-0.030074	NaN	0.000000	0.001582	0.001678	28.0794	0.128541	0.002031	63.3031	74.7644	-164.706	-0.012533	0.156970	-1.607048	-1.608387	-0.030074	63.3031	-1.606692	-2.925679E+21	1.027946E-23	NaN
153	1.000000	0.170304	7.36653e+06	-46289.1	955.819	-29769.4	0.000000	0.000000	6.170808	-0.007962	NaN	0.000000	0.001612	0.001656	28.131	0.131491	0.001866	70.4738	110.629	-164.385	0.024380	0.168968	-1.595054	-1.596390	-0.007962	70.4738	-1.594969	-2.043195E+21	3.897069E-24	NaN
153	1.000000	0.182300	7.36653e+06	-46289.1	955.819	-29769.4	0.000000	0.000000	6.182803	-0.037553	NaN	0.000000	0.001637	0.001675	28.0814	0.062741	0.001920	32.6836	-78.4077	-164.055	-0.038027	0.181040	-1.583057	-1.584318	-0.037553	32.6836	-1.582196	-1.381645E+21	2.717994E-23	NaN
153	1.000000	0.194306	7.36653e+06	-46289.1	955.818	-29769.4	0.000000	0.000000	6.194808	-0.053443	NaN	0.000000	0.001608	0.001689	28.1314	0.054224	0.002063	26.285	80.7322	-164.416	0.007713	0.192992	-1.571051	-1.572365	-0.053443	26.285	-1.569526	-9.372041E+20	5.702366E-23	NaN
153	1.000000	0.206295	7.36653e+06	-46289.1	955.819	-29769.4	0.000000	0.000000	6.206797	-0.055717	NaN	0.000000	0.001612	0.001703	28.081	0.098787	0.001973	50.0706	-73.9591	-161.614	-0.066032	0.205019	-1.559062	-1.560339	-0.055717	50.0706	-1.558228	-6.629647E+20	8.404222E-23	NaN
153	1.000000	0.218333	7.36653e+06	-46289.1	955.819	-29769.4	0.000000	0.000000	6.218836	-0.014848	NaN	0.000000	0.001606	0.001675	28.1303	0.169188	0.001950	86.7586	-169.188	-164.478	-0.056139	0.217013	-1.547025	-1.548345	-0.014848	86.7586	-1.546896	-4.684762E+20	3.169452E-23	NaN
153	1.000000	0.230311	7.36653e+06	-46289.1	955.819	-29769.4	0.000000	0.000000	6.230814	-0.047641	NaN	0.000000	0.001598	0.001672	28.0791	0.084638	0.001890	44.789	-55.0672	-161.396	-0.046063	0.228959	-1.535046	-1.536398	-0.047641	44.789	-1.534248	-3.179309E+20	1.498469E-22	NaN
153	1.000000	0.242333	7.36653e+06	-46289.1	955.818	-29769.4	0.000000	0.000000	6.242838	0.008997	NaN	0.000000	0.001623	0.001661	28.1304	0.032364	0.002052	15.7681	-141.499	-165.046	0.060477	0.241047	-1.523024	-1.524310	0.008997	15.7681	-1.523452	-2.283526E+20	-3.939851E-23	NaN
153	1.000000	0.254325	7.36653e+06	-46289.1	955.818	-29769.4	0.000000	0.000000	6.254833	0.079880	NaN	0.000000	0.001639	0.001684	28.0801	0.132847	0.002046	64.9225	83.4682	-166.457	-0.007427	0.252976	-1.511032	-1.512381	0.079880	64.9225	-1.511955	-1.605151E+20	-4.976491E-22	NaN
153	1.000000	0.266368	7.36653e+06	-46289.1	955.818	-29769.4	0.000000	0.000000	6.266869	-0.087549	NaN	0.000000	0.001637	0.001673	28.1314	0.091603	0.002039	44.9189	75.0331	-166.417	-0.076023	0.265044	-1.498989	-1.500314	-0.087549	44.9189	-1.497527	-1.031281E+20	8.489326E-22	NaN
153	1.000000	0.278360	7.36653e+06	-46289.1	955.819	-29769.4	0.000000	0.000000	6.278865	0.022484	NaN	0.000000	0.001623	0.001655	28.0794	0.037706	0.001909	19.7509	170.912	-163.669	0.078872	0.277068	-1.486997	-1.488290	0.022484	19.7509	-1.487851	-7.664682E+19	-2.933517E-22	NaN
153	1.000000	0.290357	7.36653e+06	-46289.1	955.818	-29769.4	0.000000	0.000000	6.290861	-0.019314	NaN	0.000000	0.001642	0.001694	28.1294	0.131590	0.001972	66.7233	-15.3076	-168.123	0.107772	0.289048	-1.475000	-1.476310	-0.019314	66.7233	-1.474783	-5.133320E+19	3.762403E-22	NaN
153	1.000000	0.302356	7.36653e+06	-46289.1	955.819	-29769.4	0.000000	0.000000	6.302859	-0.054458	NaN	0.000000	0.001656	0.001709	28.0792	0.025245	0.001854	13.6187	79.4322	-161.369	-0.062279	0.301064	-1.463001	-1.464294	-0.054458	13.6187	-1.460002	-3.261704E+19	1.669620E-21	NaN
153	1.000000	0.314348	7.36653e+06	-46289.1	955.818	-29769.4	0.000000	0.000000	6.314853	0.005950	NaN	0.000000	0.001633	0.001694	28.1294	0.069462	0.001880	36.9503	-132.829	-162.752	-0.018964	0.313065	-1.451009	-1.452292	0.005950	36.9503	-1.451130	-2.484328E+19	-2.395138E-22	NaN
153	1.000000	0.326342	7.36653e+06	-46289.1	955.817	-29769.4	0.000000	0.000000	6.326848	0.038503	NaN	0.000000	0.001648	0.001658	28.0778	0.006860	0.001968	3.486343	-153.434	-163.805	0.161637	0.324970	-1.439015	-1.440388	0.038503	3.486343	-1.447298	-2.208679E+19	-1.743255E-21	NaN
153	1.000000	0.338364	7.36653e+06	-46289.1	955.819	-29769.4	0.000000	0.000000	6.338867	-0.044595	NaN	0.000000	0.001666	0.001691	28.13	0.097769	0.001969	49.6592	130.977	-165.817	-0.009886	0.337090	-1.426993	-1.428267	-0.044595	49.6592	-1.426319	-1.160020E+19	3.844361E-21	NaN
153	1.000000	0.350380	7.36653e+06	-46289.1	955.82	-29769.4	0.000000	0.000000	6.350884	0.007367	NaN	0.000000	0.001594	0.001644	28.0784	0.082081	0.002005	40.9467	-65.5177	-166.832	0.068997	0.349045	-1.414977	-1.416312	0.007367	40.9467	-1.415112	-8.222918E+18	-8.958749E-22	NaN
153	1.000000	0.362376	7.36653e+06	-46289.1	955.819	-29769.4	0.000000	0.000000	6.362880	-0.028485	NaN	0.000000	0.001653	0.001671	28.1294	0.013073	0.001922	6.802404	14.8443	-163.942	-0.057166	0.361052	-1.402981	-1.404306	-0.028485	6.802404	-1.399840	-5.144404E+18	5.537017E-21	NaN
153	1.000000	0.374381	7.36653e+06	-46289.1	955.818	-29769.4	0.000000	0.000000	6.374885	-0.020173	NaN	0.000000	0.001601	0.001647	28.0781	0.064508	0.002005	32.179	-44.0521	-162.642	-0.010174	0.373088	-1.390976	-1.392269	-0.020173	32.179	-1.390506	-3.862030E+18	5.223371E-21	NaN
153	1.000000	0.386366	7.36654e+06	-46289.1	955.819	-29769.4	0.000000	0.000000	6.386870	0.005751	NaN	0.000000	0.001615	0.001689	28.129	0.075803	0.002040	37.1606	-103.772	-166.507	0.031045	0.385121	-1.378992	-1.380237	0.005751	37.1606	-1.379108	-2.721042E+18	-2.113499E-21	NaN
153	1.000000	0.398411	7.36654e+06	-46289.1	955.819	-29769.4	0.000000	0.000000	6.398918	0.055351	NaN	0.000000	0.001613	0.001657	28.0785	0.098691	0.001955	50.4893	-140.907	-166.073	0.074336	0.397105	-1.366946	-1.368253	0.055351	50.4893	-1.367768	-1.920485E+18	-2.882144E-20	NaN
153	1.000000	0.410393	7.36654e+06	-46289.1	955.818	-29769.4	0.000000	0.000000	6.410893	-0.100675	NaN	0.000000	0.001663	0.001680	28.1296	0.114103	0.002077	54.9335	-135.442	-164.987	-0.120716	0.409129	-1.354964	-1.356229	-0.100675	54.9335	-1.353590	-1.242100E+18	8.105259E-20	NaN
153	1.000000	0.422412	7.36654e+06	-46289.1	955.82	-29769.4	0.000000	0.000000	6.422916	-0.008418	NaN	0.000000	0.001640	0.001688	28.0807	0.129284	0.002073	62.3653	-104.069	-169.442	0.000773	0.421087	-1.342945	-1.344271	-0.008418	62.3653	-1.342844	-8.926639E+17	9.429666E-21	NaN
153	1.000000	0.434425	7.36654e+06	-46289.1	955.819	-29769.4	0.000000	0.000000	6.434928	-0.028383	NaN	0.000000	0.001664	0.001660	28.1313	0.059773	0.001988	30.062	-66.0195	-166.381	-0.039132	0.433086	-1.330932	-1.332271	-0.028383	30.062	-1.330224	-6.055657E+17	4.687037E-20	NaN
153	1.000000	0.446409	7.36654e+06	-46289.1	955.819	-29769.4	0.000000	0.000000	6.446912	-0.037809	NaN	0.000000	0.001606	0.001692	28.0801	0.048985	0.001968	24.8865	-74.4203	-157.783	-0.002631	0.445113	-1.318948	-1.320244	-0.037809	24.8865	-1.317809	-4.133685E+17	9.146484E-20	NaN
153	1.000000	0.458435	7.36654e+06	-46289.1	955.818	-29769.4	0.000000	0.000000	6.458939	-0.000529	NaN	0.000000	0.001611	0.001666	28.1307	0.033076	0.002090	15.8294	167.567	-164.746	0.009143	0.457109	-1.306922	-1.308248	-0.000529	15.8294	-1.306897	-2.954985E+17	1.791304E-21	NaN
153	1.000000	0.470397	7.36654e+06	-46289.1	955.818	-29769.4	0.000000	0.000000	6.470900	-0.018909	NaN	0.000000	0.001573	0.001667	28.0796	0.080161	0.002051	39.0915	132.921	-163.924	0.017675	0.469124	-1.294961	-1.296233	-0.018909	39.0915	-1.294598	-2.023972E+17	9.342399E-20	NaN
153	1.000000	0.482418	7.36654e+06	-46289.1	955.819	-29769.4	0.000000	0.000000	6.482921	-0.031137	NaN	0.000000	0.001583	0.001682	28.1303	0.081913	0.001875	43.6769	-83.4611	-164.467	0.016145	0.481112	-1.282940	-1.284245	-0.031137	43.6769	-1.282405	-1.390710E+17	2.238905E-19	NaN
153	1.000000	0.494434	7.36654e+06	-46289.1	955.818	-29769.4	0.000000	0.000000	6.494937	-0.035197	NaN	0.000000	0.001605	0.001713	28.0793	0.040069	0.001862	21.5169	148.097	-167.115	-0.044396	0.493135	-1.270923	-1.272222	-0.035197	21.5169	-1.269696	-9.404418E+16	3.742620E-19	NaN
153	1.000000	0.506435	7.36654e+06	-46289.1	955.818	-29769.4	0.000000	0.000000	6.506938	-0.012916	NaN	0.000000	0.001607	0.001687	28.131	0.085746	0.001955	43.8539	-165.359	-162.742	-0.046318	0.505137	-1.258923	-1.260221	-0.012916	43.8539	-1.258702	-6.703608E+16	1.926767E-19	NaN
153	1.000000	0.518468	7.36654e+06	-46289.1	955.819	-29769.4	0.000000	0.000000	6.518973	0.021977	NaN	0.000000	0.001608	0.001644	28.08	0.105857	0.001965	53.8738	-141.005	-165.55	0.021950	0.517089	-1.246890	-1.248269	0.021977	53.8738	-1.247196	-4.703344E+16	-4.672724E-19	NaN
153	1.000000	0.530447	7.36654e+06	-46289.1	955.819	-29769.4	0.000000	0.000000	6.530950	-0.025828	NaN	0.000000	0.001623	0.001692	28.1308	0.068968	0.001966	35.0801	-115.814	-166.642	0.042175	0.529225	-1.234911	-1.236132	-0.025828	35.0801	-1.234359	-3.167095E+16	8.154994E-19	NaN
153	1.000000	0.542411	7.36654e+06	-46289.1	955.819	-29769.4	0.000000	0.000000	6.542914	-0.042862	NaN	0.000000	0.001626	0.001702	28.0793	0.147555	0.001946	75.8086	-41.6829	-166.863	-0.020138	0.541134	-1.222946	-1.224223	-0.042862	75.8086	-1.222522	-2.199162E+16	1.949034E-18	NaN
153	1.000000	0.554452	7.36654e+06	-46289.1	955.819	-29769.4	0.000000	0.000000	6.554955	-0.032948	NaN	0.000000	0.001650	0.001667	28.1287	0.072797	0.002060	35.3419	-99.843	-165.196	0.038896	0.553111	-1.210905	-1.212246	-0.032948	35.3419	-1.210206	-1.504507E+16	2.189949E-18	NaN
153	1.000000	0.566484	7.36654e+06	-46289.1	955.819	-29769.4	0.000000	0.000000	6.566988	0.000268	NaN	0.000000	0.001673	0.001697	28.0774	0.013425	0.002008	6.685085	-154.519	-165.847	-0.033705	0.565203	-1.198873	-1.200154	0.000268	6.685085	-1.198903	-1.061851E+16	-2.523869E-20	NaN
153	1.000000	0.578462	7.36654e+06	-46289.1	955.819	-29769.4	0.000000	0.000000	6.578963	-0.092764	NaN	0.000000	0.001640	0.001687	28.1301	0.169860	0.001983	85.6492	148.737	-164.157	0.044404	0.577127	-1.186895	-1.188231	-0.092764	85.6492	-1.186083	-7.150807E+15	1.297246E-17	NaN
153	1.000000	0.590451	7.36654e+06	-46289.1	955.819	-29769.4	0.000000	0.000000	6.590953	-0.046379	NaN	0.000000	0.001663	0.001719	28.0795	0.053677	0.002102	25.5377	-113.267	-161.135	-0.009262	0.589182	-1.174906	-1.176176	-0.046379	25.5377	-1.173544	-4.857129E+15	9.548558E-18	NaN
153	1.000000	0.602473	7.36654e+06	-46289.1	955.819	-29769.4	0.000000	0.000000	6.602976	-0.012718	NaN	0.000000	0.001655	0.001718	28.1312	0.133037	0.001948	68.2881	83.9248	-161.251	-0.091807	0.601192	-1.162885	-1.164166	-0.012718	68.2881	-1.162745	-3.480638E+15	3.653902E-18	NaN
153	1.000000	0.614508	7.36654e+06	-46289.1	955.818	-29769.4	0.000000	0.000000	6.615012	0.001227	NaN	0.000000	0.001677	0.001690	28.0789	0.107309	0.002171	49.4222	-58.2692	-165.621	-0.028142	0.613216	-1.150849	-1.152141	0.001227	49.4222	-1.150868	-2.412438E+15	-5.084611E-19	NaN
153	1.000000	0.626507	7.36654e+06	-46289.1	955.818	-29769.4	0.000000	0.000000	6.627009	-0.055190	NaN	0.000000	0.001641	0.001695	28.1289	0.099446	0.002071	48.0081	-153.851	-163.691	-0.026368	0.625166	-1.138850	-1.140191	-0.055190	48.0081	-1.137988	-1.620896E+15	3.404899E-17	NaN
153	1.000000	0.638468	7.36654e+06	-46289.1	955.819	-29769.4	0.000000	0.000000	6.638971	-0.026033	NaN	0.000000	0.001695	0.001688	28.0784	0.020131	0.002070	9.727379	-177.381	-165.178	-0.075371	0.637195	-1.126890	-1.128163	-0.026033	9.727379	-1.124882	-1.081370E+15	2.407401E-17	NaN
153	1.000000	0.650504	7.36654e+06	-46289.1	955.818	-29769.4	0.000000	0.000000	6.651009	0.029196	NaN	0.000000	0.001623	0.001656	28.1293	0.106428	0.001926	55.2551	116.304	-166.548	0.061010	0.649245	-1.114854	-1.116112	0.029196	55.2551	-1.115250	-8.030431E+14	-3.635651E-17	NaN
153	1.000000	0.662530	7.36654e+06	-46289.1	955.819	-29769.4	0.000000	0.000000	6.663035	0.005867	NaN	0.000000	0.001687	0.001690	28.0792	0.097382	0.002171	44.8474	-1.799793	-165.384	0.012530	0.661142	-1.102827	-1.104215	0.005867	44.8474	-1.102925	-5.486998E+14	-1.069324E-17	NaN
153	1.000000	0.674511	7.36654e+06	-46289.1	955.819	-29769.4	0.000000	0.000000	6.675009	-0.154841	NaN	0.000000	0.001691	0.001673	28.1297	0.075441	0.001952	38.6457	160.241	-164.638	-0.084622	0.673233	-1.090846	-1.092124	-0.154841	38.6457	-1.087841	-3.442114E+14	4.498434E-16	NaN
153	1.000000	0.686494	7.36654e+06	-46289.1	955.818	-29769.4	0.000000	0.000000	6.686998	-0.019159	NaN	0.000000	0.001632	0.001700	28.0799	0.048993	0.002000	24.4922	-104.516	-164.545	-0.031424	0.685222	-1.078863	-1.080135	-0.019159	24.4922	-1.078276	-2.560755E+14	7.481733E-17	NaN
153	1.000000	0.698523	7.36654e+06	-46289.1	955.818	-29769.4	0.000000	0.000000	6.699025	-0.036727	NaN	0.000000	0.001631	0.001710	28.1299	0.108177	0.002022	53.5058	-89.0512	-165.769	-0.053735	0.697252	-1.066835	-1.068105	-0.036727	53.5058	-1.066320	-1.769065E+14	2.076064E-16	NaN
153	1.000000	0.710549	7.36654e+06	-46289.1	955.818	-29769.4	0.000000	0.000000	6.711051	-0.034739	NaN	0.000000	0.001651	0.001687	28.0791	0.038838	0.001915	20.2817	167.009	-165.696	-0.108230	0.709181	-1.054809	-1.056176	-0.034739	20.2817	-1.053524	-1.190653E+14	2.917648E-16	NaN
153	1.000000	0.722526	7.36654e+06	-46289.1	955.818	-29769.4	0.000000	0.000000	6.723029	-0.032299	NaN	0.000000	0.001618	0.001683	28.1298	0.025531	0.002069	12.3419	124.972	-164.899	-0.046155	0.721250	-1.042832	-1.044108	-0.032299	12.3419	-1.040869	-8.047303E+13	4.013642E-16	NaN
153	1.000000	0.734551	7.36654e+06	-46289.1	955.818	-29769.4	0.000000	0.000000	6.735053	-0.051395	NaN	0.000000	0.001616	0.001681	28.0797	0.091014	0.002095	43.4466	3.347487	-164.94	-0.068847	0.733266	-1.030806	-1.032091	-0.051395	43.4466	-1.029919	-5.733150E+13	8.964589E-16	NaN
153	1.000000	0.746543	7.36654e+06	-46289.1	955.818	-29769.4	0.000000	0.000000	6.747043	-0.107960	NaN	0.000000	0.001656	0.001695	28.131	0.060124	0.001985	30.2948	-143.839	-165.799	-0.059658	0.745250	-1.018814	-1.020108	-0.107960	30.2948	-1.016141	-3.741381E+13	2.885556E-15	NaN
153	1.000000	0.758519	7.36654e+06	-46289.1	955.819	-29769.4	0.000000	0.000000	6.759022	-0.029494	NaN	0.000000	0.001657	0.001668	28.0811	0.061987	0.001901	32.6058	25.7483	-166.429	-0.013172	0.757259	-1.006838	-1.008098	-0.029494	32.6058	-1.006160	-2.745965E+13	1.074075E-15	NaN
153	1.000000	0.770547	7.36654e+06	-46289.1	955.818	-29769.4	0.000000	0.000000	6.771048	-0.080479	NaN	0.000000	0.001651	0.001686	28.1305	0.103358	0.001932	53.4908	-62.5079	-162.41	-0.151819	0.769261	-0.994811	-0.996097	-0.080479	53.4908	-0.993682	-1.865091E+13	4.315022E-15	NaN
153	1.000000	0.782584	7.36654e+06	-46289.1	955.819	-29769.4	0.000000	0.000000	6.783085	-0.084587	NaN	0.000000	0.001663	0.001649	28.0791	0.065774	0.002042	32.2156	124.781	-163.665	-0.043648	0.781244	-0.982773	-0.984113	-0.084587	32.2156	-0.980804	-1.250965E+13	6.761721E-15	NaN
153	1.000000	0.794541	7.36654e+06	-46289.1	955.818	-29769.4	0.000000	0.000000	6.795043	-0.044019	NaN	0.000000	0.001672	0.001680	28.1295	0.025162	0.001995	12.6135	-60.5612	-164.301	-0.121335	0.793274	-0.970816	-0.972083	-0.044019	12.6135	-0.968199	-8.460354E+12	5.203018E-15	NaN
153	1.000000	0.806547	7.36654e+06	-46289.1	955.817	-29769.4	0.000000	0.000000	6.807046	-0.120327	NaN	0.000000	0.001641	0.001624	28.0778	0.070963	0.002013	35.2532	26.7842	-164.367	-0.082300	0.805261	-0.958811	-0.960096	-0.120327	35.2532	-0.956251	-5.838751E+12	2.060842E-14	NaN
153	1.000000	0.818578	7.36654e+06	-46289.1	955.818	-29769.4	0.000000	0.000000	6.819084	0.042844	NaN	0.000000	0.001648	0.001650	28.1306	0.044454	0.001964	22.638	58.7509	-166.445	-0.023162	0.817266	-0.946780	-0.948091	0.042844	22.638	-0.948199	-4.547155E+12	-9.422258E-15	NaN
153	1.000000	0.830601	7.36654e+06	-46289.1	955.818	-29769.4	0.000000	0.000000	6.831105	0.002590	NaN	0.000000	0.001652	0.001677	28.0796	0.016599	0.001931	8.597043	11.9365	-165.166	-0.000437	0.829288	-0.934756	-0.936069	0.002590	8.597043	-0.934982	-3.016009E+12	-8.586484E-16	NaN
153	1.000000	0.842580	7.36654e+06	-46289.1	955.82	-29769.4	0.000000	0.000000	6.843083	-0.048525	NaN	0.000000	0.001662	0.001639	28.1299	0.084027	0.001970	42.6625	-146.161	-162.707	-0.070314	0.841268	-0.922777	-0.924089	-0.048525	42.6625	-0.921924	-2.009926E+12	2.414292E-14	NaN
153	1.000000	0.854605	7.36654e+06	-46289.1	955.818	-29769.4	0.000000	0.000000	6.855107	-0.058835	NaN	0.000000	0.001594	0.001704	28.0789	0.068092	0.001871	36.3977	112.007	-166.775	-0.047842	0.853310	-0.910752	-0.912047	-0.058835	36.3977	-0.909540	-1.367557E+12	4.302210E-14	NaN
153	1.000000	0.866629	7.36654e+06	-46289.1	955.818	-29769.4	0.000000	0.000000	6.867133	-0.019658	NaN	0.000000	0.001658	0.001645	28.1293	0.091177	0.002048	44.5101	149.582	-161.875	-0.024127	0.865257	-0.898728	-0.900101	-0.019658	44.5101	-0.898397	-9.669533E+11	2.033005E-14	NaN
153	1.000000	0.878598	7.36654e+06	-46289.1	955.818	-29769.4	0.000000	0.000000	6.879103	-0.003245	NaN	0.000000	0.001661	0.001665	28.0785	0.084229	0.001992	42.2873	139.883	-166.013	-0.037562	0.877274	-0.886759	-0.888083	-0.003245	42.2873	-0.886701	-6.719249E+11	4.828763E-15	NaN
153	1.000000	0.890630	7.36654e+06	-46289.1	955.818	-29769.4	0.000000	0.000000	6.891133	-0.030278	NaN	0.000000	0.001604	0.001694	28.1286	0.103845	0.002037	50.9776	-49.0485	-164.852	-0.004549	0.889348	-0.874728	-0.876010	-0.030278	50.9776	-0.874282	-4.564292E+11	6.633686E-14	NaN
153	1.000000	0.902607	7.36654e+06	-46289.1	955.819	-29769.4	0.000000	0.000000	6.903111	-0.016028	NaN	0.000000	0.001594	0.001652	28.0785	0.101562	0.002021	50.2464	163.895	-165.554	0.047238	0.901318	-0.862750	-0.864040	-0.016028	50.2464	-0.862511	-3.163025E+11	5.067394E-14	NaN
153	1.000000	0.914600	7.36654e+06	-46289.1	955.819	-29769.4	0.000000	0.000000	6.915104	-0.008088	NaN	0.000000	0.001583	0.001671	28.1292	0.045524	0.001957	23.2638	-104.634	-167.318	-0.002315	0.913321	-0.850758	-0.852036	-0.008088	23.2638	-0.850497	-2.175031E+11	3.718670E-14	NaN
153	1.000000	0.926634	7.36654e+06	-46289.1	955.818	-29769.4	0.000000	0.000000	6.927138	0.003150	NaN	0.000000	0.001634	0.001647	28.0791	0.092868	0.001996	46.5212	-54.3173	-163.88	-0.061763	0.925318	-0.838724	-0.840039	0.003150	46.5212	-0.838774	-1.508995E+11	-2.087517E-14	NaN
153	1.000000	0.938616	7.36654e+06	-46289.1	955.818	-29769.4	0.000000	0.000000	6.939121	0.028174	NaN	0.000000	0.001589	0.001659	28.1281	0.068863	0.001989	34.6221	176.456	-164.317	0.114195	0.937299	-0.826741	-0.828059	0.028174	34.6221	-0.827352	-1.056541E+11	-2.666589E-13	NaN
153	1.000000	0.950632	7.36654e+06	-46289.1	955.819	-29769.4	0.000000	0.000000	6.951133	-0.085273	NaN	0.000000	0.001625	0.001647	28.0784	0.051477	0.001922	26.7839	-81.7314	-164.28	-0.032189	0.949298	-0.814725	-0.816060	-0.085273	26.7839	-0.812337	-6.611175E+10	1.289835E-12	NaN
153	1.000000	0.962635	7.36654e+06	-46289.1	955.819	-29769.4	0.000000	0.000000	6.963140	0.003214	NaN	0.000000	0.001584	0.001687	28.1297	0.042295	0.002009	21.0504	-166.453	-162.57	0.000570	0.961313	-0.802722	-0.804044	0.003214	21.0504	-0.802836	-4.913179E+10	-6.540979E-14	NaN
153	1.000000	0.974682	7.36654e+06	-46289.1	955.819	-29769.4	0.000000	0.000000	6.975183	-0.088700	NaN	0.000000	0.001626	0.001680	28.0801	0.040587	0.002006	20.2313	-172.443	-164.991	-0.115907	0.973311	-0.790675	-0.792046	-0.088700	20.2313	-0.787387	-3.031007E+10	2.926428E-12	NaN
153	1.000000	0.986614	7.36654e+06	-46289.1	955.819	-29769.4	0.000000	0.000000	6.987116	-0.046972	NaN	0.000000	0.001634	0.001672	28.1307	0.044409	0.001996	22.2436	152.408	-164.46	-0.023404	0.985348	-0.778744	-0.780009	-0.046972	22.2436	-0.777160	-2.201070E+10	2.134066E-12	NaN
153	1.000000	0.998635	7.36654e+06	-46289.1	955.819	-29769.4	0.000000	0.000000	6.999136	-0.077948	NaN	0.000000	0.001626	0.001660	28.0809	0.026844	0.002077	12.9243	78.4764	-164.361	-0.065889	0.997314	-0.766723	-0.768044	-0.077948	12.9243	-0.762199	-1.377910E+10	5.656993E-12	NaN
153	1.000000	1.010641	7.36654e+06	-46289.1	955.821	-29769.4	0.000000	0.000000	7.011143	-0.070231	NaN	0.000000	0.001585	0.001659	28.1306	0.029545	0.001996	14.8036	-46.6266	-161.685	-0.092052	1.009332	-0.754716	-0.756025	-0.070231	14.8036	-0.751158	-9.749459E+9	7.203548E-12	NaN
153	1.000000	1.022672	7.36654e+06	-46289.1	955.82	-29769.4	0.000000	0.000000	7.023175	-0.031416	NaN	0.000000	0.001625	0.001691	28.0804	0.034094	0.001963	17.3687	41.8914	-161.99	-0.053883	1.021321	-0.742685	-0.744037	-0.031416	17.3687	-0.741328	-7.163901E+9	4.385316E-12	NaN
153	1.000000	1.034643	7.36654e+06	-46289.1	955.82	-29769.4	0.000000	0.000000	7.035147	-0.007997	NaN	0.000000	0.001617	0.001658	28.1293	0.128792	0.002013	63.9894	126.997	-162.594	-0.088653	1.033310	-0.730715	-0.732048	-0.007997	63.9894	-0.730621	-5.120020E+9	1.561934E-12	NaN
153	1.000000	1.046657	7.36654e+06	-46289.1	955.82	-29769.4	0.000000	0.000000	7.047159	-0.060550	NaN	0.000000	0.001634	0.001669	28.0796	0.025739	0.001980	13.0014	-165.905	-164.246	-0.046333	1.045336	-0.718701	-0.720022	-0.060550	13.0014	-0.715208	-3.155769E+9	1.918723E-11	NaN
153	1.000000	1.058669	7.36654e+06	-46289.1	955.821	-29769.4	0.000000	0.000000	7.059171	-0.045684	NaN	0.000000	0.001654	0.001652	28.1303	0.076804	0.002042	37.6115	14.484	-162.949	-0.037100	1.057390	-0.706689	-0.707968	-0.045684	37.6115	-0.705778	-2.346478E+9	1.946904E-11	NaN
153	1.000000	1.070631	7.36654e+06	-46289.1	955.82	-29769.4	0.000000	0.000000	7.071135	-0.007347	NaN	0.000000	0.001622	0.001654	28.08	0.199610	0.002066	96.6284	-59.3627	-168.245	0.054459	1.069353	-0.694726	-0.696004	-0.007347	96.6284	-0.694669	-1.654702E+9	4.440063E-12	NaN
153	1.000000	1.082660	7.36654e+06	-46289.1	955.819	-29769.4	0.000000	0.000000	7.083161	-0.083372	NaN	0.000000	0.001626	0.001663	28.1304	0.124843	0.001978	63.1194	111.033	-163.835	-0.064568	1.081400	-0.682697	-0.683957	-0.083372	63.1194	-0.681706	-1.100371E+9	7.576690E-11	NaN
153	1.000000	1.094665	7.36654e+06	-46289.1	955.82	-29769.4	0.000000	0.000000	7.095168	-0.026585	NaN	0.000000	0.001633	0.001660	28.0792	0.117466	0.002050	57.2919	-100.934	-163.029	-0.056638	1.093428	-0.670692	-0.671929	-0.026585	57.2919	-0.670344	-7.693095E+8	3.455688E-11	NaN
153	1.000000	1.106683	7.36654e+06	-46289.1	955.82	-29769.4	0.000000	0.000000	7.107185	-0.048080	NaN	0.000000	0.001615	0.001662	28.1282	0.101129	0.001884	53.6635	97.3218	-165.62	-0.037317	1.105337	-0.658674	-0.660020	-0.048080	53.6635	-0.658002	-5.213169E+8	9.222783E-11	NaN
153	1.000000	1.118685	7.36654e+06	-46289.1	955.819	-29769.4	0.000000	0.000000	7.119190	0.019083	NaN	0.000000	0.001625	0.001635	28.0784	0.038581	0.002079	18.5585	77.0523	-161.504	-0.095582	1.117416	-0.646672	-0.647941	0.019083	18.5585	-0.647443	-3.735780E+8	-5.108147E-11	NaN
153	1.000000	1.130668	7.36654e+06	-46289.1	955.82	-29769.4	0.000000	0.000000	7.131171	-0.034249	NaN	0.000000	0.001651	0.001649	28.1283	0.035036	0.001934	18.1132	18.5044	-165.837	0.040933	1.129370	-0.634690	-0.635987	-0.034249	18.1132	-0.633272	-2.387502E+8	1.434530E-10	NaN
153	1.000000	1.142705	7.36654e+06	-46289.1	955.819	-29769.4	0.000000	0.000000	7.143209	0.012366	NaN	0.000000	0.001633	0.001677	28.0802	0.051627	0.001969	26.2187	136.603	-167.586	0.030022	1.141451	-0.622653	-0.623906	0.012366	26.2187	-0.623007	-1.725652E+8	-7.165912E-11	NaN
153	1.000000	1.154710	7.36654e+06	-46289.1	955.819	-29769.4	0.000000	0.000000	7.155213	-0.043029	NaN	0.000000	0.001594	0.001693	28.1287	0.061920	0.002058	30.0823	-103.314	-168.754	0.010994	1.153431	-0.610647	-0.611926	-0.043029	30.0823	-0.609574	-1.127860E+8	3.815057E-10	NaN
153	1.000000	1.166679	7.36654e+06	-46289.1	955.82	-29769.4	0.000000	0.000000	7.167183	-0.008008	NaN	0.000000	0.001605	0.001697	28.0793	0.026071	0.001917	13.6025	-23.8347	-165.339	-0.045156	1.165361	-0.598678	-0.599997	-0.008008	13.6025	-0.598237	-7.873585E+7	1.017123E-10	NaN
153	1.000000	1.178725	7.36654e+06	-46289.1	955.82	-29769.4	0.000000	0.000000	7.179229	-0.007580	NaN	0.000000	0.001635	0.001668	28.1276	0.070926	0.002016	35.1751	36.6746	-165.004	-0.060327	1.177409	-0.586633	-0.587948	-0.007580	35.1751	-0.586471	-5.420062E+7	1.398567E-10	NaN
153	1.000000	1.190714	7.36654e+06	-46289.1	955.82	-29769.4	0.000000	0.000000	7.191217	-0.023899	NaN	0.000000	0.001621	0.001651	28.0768	0.088133	0.001967	44.7959	150.424	-164.997	-0.007964	1.189370	-0.574643	-0.575987	-0.023899	44.7959	-0.574243	-3.674909E+7	6.503263E-10	NaN
153	1.000000	1.202699	7.36654e+06	-46289.1	955.821	-29769.4	0.000000	0.000000	7.203205	0.041897	NaN	0.000000	0.001577	0.001658	28.1276	0.056865	0.002023	28.1131	-177.338	-166.471	0.013792	1.201400	-0.562659	-0.563957	0.041897	28.1131	-0.563776	-2.633948E+7	-1.590650E-9	NaN
153	1.000000	1.214717	7.36654e+06	-46289.1	955.821	-29769.4	0.000000	0.000000	7.215223	0.029948	NaN	0.000000	0.001598	0.001696	28.0795	0.075875	0.001858	40.8325	40.2288	-165.054	0.048394	1.213433	-0.550640	-0.551924	0.029948	40.8325	-0.551190	-1.763766E+7	-1.697971E-9	NaN
153	1.000000	1.226758	7.36654e+06	-46289.1	955.82	-29769.4	0.000000	0.000000	7.227259	-0.066996	NaN	0.000000	0.001636	0.001697	28.1288	0.081202	0.002108	38.5174	-55.5592	-163.953	-0.082240	1.225391	-0.538600	-0.539967	-0.066996	38.5174	-0.537295	-1.131976E+7	5.918540E-9	NaN
153	1.000000	1.238746	7.36654e+06	-46289.1	955.821	-29769.4	0.000000	0.000000	7.239247	-0.068114	NaN	0.000000	0.001599	0.001690	28.0794	0.076048	0.001953	38.9314	16.3331	-163.541	-0.056304	1.237460	-0.526612	-0.527897	-0.068114	38.9314	-0.525300	-7.71392e+06	8.829987E-9	NaN
153	1.000000	1.250759	7.36654e+06	-46289.1	955.82	-29769.4	0.000000	0.000000	7.251259	-0.091848	NaN	0.000000	0.001615	0.001656	28.1298	0.124751	0.002023	61.6643	-63.112	-167.128	-0.078187	1.249424	-0.514598	-0.515933	-0.091848	61.6643	-0.513481	-5.28316e+06	1.738500E-8	NaN
153	1.000000	1.262770	7.36654e+06	-46289.1	955.82	-29769.4	0.000000	0.000000	7.263271	-0.071349	NaN	0.000000	0.001615	0.001678	28.0799	0.087764	0.001896	46.2935	25.4596	-166.439	-0.081329	1.261440	-0.502588	-0.503918	-0.071349	46.2935	-0.501432	-3.58914e+06	1.987912E-8	NaN
153	1.000000	1.274798	7.36654e+06	-46289.1	955.819	-29769.4	0.000000	0.000000	7.275300	-0.056147	NaN	0.000000	0.001628	0.001657	28.1292	0.058711	0.002104	27.9016	7.716459	-166.203	-0.011363	1.273464	-0.490559	-0.491893	-0.056147	27.9016	-0.489050	-2.41053e+06	2.329229E-8	NaN
153	1.000000	1.286785	7.36654e+06	-46289.1	955.82	-29769.4	0.000000	0.000000	7.287288	-0.037719	NaN	0.000000	0.001616	0.001651	28.0805	0.007834	0.002035	3.849444	-172.971	-164.056	-0.028378	1.285495	-0.478572	-0.479862	-0.037719	3.849444	-0.471223	-1.35694e+06	2.779694E-8	NaN
153	1.000000	1.298784	7.36654e+06	-46289.1	955.82	-29769.4	0.000000	0.000000	7.299289	0.003169	NaN	0.000000	0.001638	0.001634	28.1297	0.102503	0.002032	50.4534	-44.4115	-163.989	0.004569	1.297453	-0.466573	-0.467905	0.003169	50.4534	-0.466620	-1.16946e+06	-2.709919E-9	NaN
153	1.000000	1.310754	7.36654e+06	-46289.1	955.819	-29769.4	0.000000	0.000000	7.311262	0.077867	NaN	0.000000	0.001602	0.001665	28.0809	0.022831	0.001860	12.2737	-166.12	-166.897	0.088902	1.309488	-0.454603	-0.455869	0.077867	12.2737	-0.459361	-924778	-8.420050E-8	NaN
153	1.000000	1.322777	7.36654e+06	-46289.1	955.82	-29769.4	0.000000	0.000000	7.323281	-0.000717	NaN	0.000000	0.001591	0.001637	28.1298	0.054948	0.002079	26.4321	179.496	-164.676	-0.035393	1.321493	-0.442581	-0.443864	-0.000717	26.4321	-0.442560	-536399	1.336096E-9	NaN
153	1.000000	1.334775	7.36654e+06	-46289.1	955.819	-29769.4	0.000000	0.000000	7.335277	-0.052119	NaN	0.000000	0.001583	0.001612	28.0789	0.118922	0.001974	60.2556	131.743	-165.947	-0.042215	1.333505	-0.430582	-0.431852	-0.052119	60.2556	-0.429934	-355731	1.465111E-7	NaN
153	1.000000	1.346769	7.36654e+06	-46289.1	955.819	-29769.4	0.000000	0.000000	7.347271	-0.055648	NaN	0.000000	0.001629	0.001650	28.1284	0.068259	0.001985	34.3838	113.046	-163.48	-0.088125	1.345515	-0.418589	-0.419842	-0.055648	34.3838	-0.417375	-236139	2.356590E-7	NaN
153	1.000000	1.358807	7.36654e+06	-46289.1	955.819	-29769.4	0.000000	0.000000	7.359310	-0.024328	NaN	0.000000	0.001581	0.001655	28.0789	0.060054	0.001823	32.9406	161.807	-164.762	0.012747	1.357502	-0.406550	-0.407855	-0.024328	32.9406	-0.405996	-162718	1.495125E-7	NaN
153	1.000000	1.370815	7.36654e+06	-46289.1	955.82	-29769.4	0.000000	0.000000	7.371318	-0.032570	NaN	0.000000	0.001599	0.001634	28.1275	0.030051	0.002094	14.3518	-104.015	-164.635	-0.085877	1.369491	-0.394542	-0.395866	-0.032570	14.3518	-0.392840	-105627	3.083508E-7	NaN
153	1.000000	1.382814	7.36654e+06	-46289.1	955.819	-29769.4	0.000000	0.000000	7.383316	-0.056370	NaN	0.000000	0.001586	0.001649	28.08	0.140079	0.001985	70.5669	-20.7409	-165.39	0.009190	1.381479	-0.382543	-0.383878	-0.056370	70.5669	-0.381944	-73753.3	7.643080E-7	NaN
153	1.000000	1.394819	7.36654e+06	-46289.1	955.82	-29769.4	0.000000	0.000000	7.395323	-0.004172	NaN	0.000000	0.001563	0.001636	28.1288	0.065513	0.002033	32.2253	-169.87	-166.565	-0.109790	1.393484	-0.370539	-0.371873	-0.004172	32.2253	-0.370442	-50406.6	8.277405E-8	NaN
153	1.000000	1.406806	7.36654e+06	-46289.1	955.821	-29769.4	0.000000	0.000000	7.407307	-0.073170	NaN	0.000000	0.001551	0.001644	28.0787	0.150513	0.001939	77.6348	-88.0641	-164.571	-0.038940	1.405489	-0.358551	-0.359868	-0.073170	77.6348	-0.357844	-33164.3	2.206275E-6	NaN
153	1.000000	1.418857	7.36654e+06	-46289.1	955.819	-29769.4	0.000000	0.000000	7.419360	-0.023296	NaN	0.000000	0.001592	0.001657	28.1273	0.018978	0.002087	9.095586	123.559	-165.081	-0.031898	1.417550	-0.346501	-0.347807	-0.023296	9.095586	-0.344580	-21293.4	1.094034E-6	NaN
153	1.000000	1.430857	7.36654e+06	-46289.1	955.82	-29769.4	0.000000	0.000000	7.431358	-0.066322	NaN	0.000000	0.001579	0.001679	28.0787	0.052025	0.002092	24.8704	-80.5788	-164.423	-0.025194	1.429510	-0.334501	-0.335848	-0.066322	24.8704	-0.332501	-14192.2	4.673135E-6	NaN
153	1.000000	1.442803	7.36654e+06	-46289.1	955.819	-29769.4	0.000000	0.000000	7.443307	-0.002551	NaN	0.000000	0.001617	0.001651	28.1271	0.054978	0.002044	26.8948	6.274761	-165.584	-0.014252	1.441527	-0.322554	-0.323830	-0.002551	26.8948	-0.322483	-10119.5	2.520410E-7	NaN
153	1.000000	1.454849	7.36654e+06	-46289.1	955.821	-29769.4	0.000000	0.000000	7.455352	-0.029303	NaN	0.000000	0.001643	0.001666	28.0779	0.074821	0.001940	38.5598	-80.1118	-164.341	0.066655	1.453528	-0.310508	-0.311830	-0.029303	38.5598	-0.309938	-6609.15	4.433741E-6	NaN
153	1.000000	1.466822	7.36654e+06	-46289.1	955.821	-29769.4	0.000000	0.000000	7.467324	-0.076762	NaN	0.000000	0.001661	0.001658	28.128	0.091112	0.001919	47.4752	-58.0549	-161.58	-0.063778	1.465521	-0.298535	-0.299836	-0.076762	47.4752	-0.297322	-4292.8	1.788161E-5	NaN
153	1.000000	1.478879	7.36654e+06	-46289.1	955.822	-29769.4	0.000000	0.000000	7.479382	-0.020295	NaN	0.000000	0.001639	0.001686	28.0792	0.039915	0.002042	19.5439	-132.759	-163.468	0.021129	1.477533	-0.286478	-0.287824	-0.020295	19.5439	-0.285700	-2875.95	7.056646E-6	NaN
153	1.000000	1.490874	7.36654e+06	-46289.1	955.82	-29769.4	0.000000	0.000000	7.491379	-0.001142	NaN	0.000000	0.001643	0.001659	28.128	0.064022	0.001867	34.2837	74.3427	-165.519	0.050008	1.489511	-0.274483	-0.275846	-0.001142	34.2837	-0.274458	-1946.21	5.866176E-7	NaN
153	1.000000	1.502848	7.36654e+06	-46289.1	955.821	-29769.4	0.000000	0.000000	7.503351	-0.025808	NaN	0.000000	0.001643	0.001661	28.0779	0.039364	0.002113	18.6314	-124.331	-166.201	0.014213	1.501609	-0.262509	-0.263748	-0.025808	18.6314	-0.261471	-1234.36	2.090836E-5	NaN
153	1.000000	1.514851	7.36654e+06	-46289.1	955.821	-29769.4	0.000000	0.000000	7.515353	-0.070555	NaN	0.000000	0.001639	0.001655	28.1286	0.072467	0.001922	37.6994	-13.6044	-165.364	0.007897	1.513576	-0.250506	-0.251782	-0.070555	37.6994	-0.249102	-796.301	8.860323E-5	NaN
153	1.000000	1.526835	7.36654e+06	-46289.1	955.821	-29769.4	0.000000	0.000000	7.527340	0.001449	NaN	0.000000	0.001633	0.001633	28.0799	0.146945	0.002038	72.0917	-85.9518	-167.479	-0.062677	1.525561	-0.238522	-0.239796	0.001449	72.0917	-0.238537	-545.364	-2.657279E-6	NaN
153	1.000000	1.538874	7.36654e+06	-46289.1	955.82	-29769.4	0.000000	0.000000	7.539377	-0.024774	NaN	0.000000	0.001655	0.001676	28.1295	0.071678	0.001919	37.3449	-56.2673	-168.563	0.077521	1.537626	-0.226484	-0.227732	-0.024774	37.3449	-0.225986	-345.929	7.161715E-5	NaN
153	1.000000	1.550867	7.36654e+06	-46289.1	955.82	-29769.4	0.000000	0.000000	7.551367	-0.118395	NaN	0.000000	0.001676	0.001755	28.0808	0.035813	0.001988	18.014	-149.676	-167.454	-0.150382	1.549616	-0.214490	-0.215741	-0.118395	18.014	-0.209561	-188.669	0.000628	NaN
153	1.000000	1.562880	7.36654e+06	-46289.1	955.82	-29769.4	0.000000	0.000000	7.563381	-0.080506	NaN	0.000000	0.001638	0.001699	28.1292	0.050376	0.001993	25.2785	-173.592	-166.267	-0.035502	1.561620	-0.202478	-0.203737	-0.080506	25.2785	-0.200089	-132.179	0.000609	NaN
153	1.000000	1.574890	7.36654e+06	-46289.1	955.819	-29769.4	0.000000	0.000000	7.575393	-0.041804	NaN	0.000000	0.001624	0.001718	28.081	0.117720	0.001933	60.9003	149.116	-161.941	-0.056728	1.573536	-0.190467	-0.191821	-0.041804	60.9003	-0.189952	-89.7908	0.000466	NaN
153	1.000000	1.586903	7.36654e+06	-46289.1	955.82	-29769.4	0.000000	0.000000	7.587408	0.023671	NaN	0.000000	0.001628	0.001751	28.1281	0.037723	0.002000	18.8661	-162.205	-165.335	-0.000354	1.585594	-0.178454	-0.179763	0.023671	18.8661	-0.179395	-59.5901	-0.000397	NaN
153	1.000000	1.598900	7.36654e+06	-46289.1	955.821	-29769.4	0.000000	0.000000	7.599401	-0.068431	NaN	0.000000	0.001623	0.001737	28.0798	0.020658	0.001978	10.4442	-17.3366	-163.09	-0.083637	1.597624	-0.166457	-0.167733	-0.068431	10.4442	-0.161543	-29.1983	0.002344	NaN
153	1.000000	1.610893	7.36654e+06	-46289.1	955.82	-29769.4	0.000000	0.000000	7.611396	-0.025105	NaN	0.000000	0.001630	0.001675	28.1284	0.110132	0.001955	56.3287	60.3166	-167.434	0.046210	1.609617	-0.154464	-0.155741	-0.025105	56.3287	-0.154130	-21.5233	0.001166	NaN
153	1.000000	1.622928	7.36654e+06	-46289.1	955.821	-29769.4	0.000000	0.000000	7.623429	-0.087925	NaN	0.000000	0.001647	0.001695	28.081	0.026982	0.002089	12.9133	71.5286	-164.316	-0.009851	1.621653	-0.142429	-0.143704	-0.087925	12.9133	-0.137322	-10.5306	0.008349	NaN
153	1.000000	1.634898	7.36654e+06	-46289.1	955.82	-29769.4	0.000000	0.000000	7.635404	0.025953	NaN	0.000000	0.001640	0.001686	28.1292	0.028340	0.001975	14.3473	-128.241	-167.179	0.060841	1.633611	-0.130459	-0.131746	0.025953	14.3473	-0.131816	-8.263544	-0.003141	NaN
153	1.000000	1.646938	7.36654e+06	-46289.1	955.821	-29769.4	0.000000	0.000000	7.647441	-0.036852	NaN	0.000000	0.001660	0.001663	28.08	0.034522	0.002039	16.9295	160.956	-169.701	-0.019777	1.645664	-0.118419	-0.119693	-0.036852	16.9295	-0.116787	-4.157180	0.008865	NaN
153	1.000000	1.658931	7.36654e+06	-46289.1	955.82	-29769.4	0.000000	0.000000	7.659434	-0.048087	NaN	0.000000	0.001611	0.001737	28.1271	0.065837	0.001966	33.4952	176.191	-161.903	-0.021806	1.657660	-0.106426	-0.107697	-0.048087	33.4952	-0.105349	-2.391733	0.020106	NaN
153	1.000000	1.670965	7.36654e+06	-46289.1	955.819	-29769.4	0.000000	0.000000	7.671468	-0.018200	NaN	0.000000	0.001640	0.001710	28.0789	0.039612	0.002032	19.4954	9.712821	-164.465	-0.010078	1.669589	-0.094392	-0.095769	-0.018200	19.4954	-0.093692	-1.316762	0.013821	NaN
153	1.000000	1.682937	7.36654e+06	-46289.1	955.821	-29769.4	0.000000	0.000000	7.683440	-0.023032	NaN	0.000000	0.001630	0.001720	28.1265	0.053503	0.001973	27.1118	-93.221	-165.766	0.018323	1.681633	-0.082420	-0.083724	-0.023032	27.1118	-0.081783	-0.685505	0.033598	NaN
153	1.000000	1.694947	7.36654e+06	-46289.1	955.821	-29769.4	0.000000	0.000000	7.695450	-0.016171	NaN	0.000000	0.001677	0.001732	28.0793	0.053513	0.001947	27.4905	134.297	-165.152	-0.014908	1.693626	-0.070411	-0.071731	-0.016171	27.4905	-0.069970	-0.340467	0.047497	NaN
153	1.000000	1.706972	7.36654e+06	-46289.1	955.82	-29769.4	0.000000	0.000000	7.707475	-0.028111	NaN	0.000000	0.001711	0.001709	28.1276	0.126261	0.002017	62.5917	174.51	-168.366	-0.041075	1.705579	-0.058386	-0.059779	-0.028111	62.5917	-0.058049	-0.158190	0.177704	NaN
153	1.000000	1.718974	7.36654e+06	-46289.1	955.821	-29769.4	0.000000	0.000000	7.719478	0.010226	NaN	0.000000	0.001644	0.001734	28.0791	0.025097	0.001961	12.7987	-164.377	-167.37	-0.057578	1.717656	-0.046384	-0.047701	0.010226	12.7987	-0.046983	-0.073886	-0.138400	NaN
153	1.000000	1.730972	7.36654e+06	-46289.1	955.82	-29769.4	0.000000	0.000000	7.731473	-0.061714	NaN	0.000000	0.001609	0.001707	28.1274	0.084341	0.002062	40.9062	-57.8676	-164.418	-0.048248	1.729666	-0.034386	-0.035691	-0.061714	40.9062	-0.033254	-0.028476	2.167217	NaN
153	1.000000	1.743001	7.36654e+06	-46289.1	955.819	-29769.4	0.000000	0.000000	7.743505	-0.009099	NaN	0.000000	0.001601	0.001735	28.0783	0.070201	0.002030	34.5894	-36.3194	-166.891	-0.042366	1.741663	-0.022357	-0.023695	-0.009099	34.5894	-0.022159	-0.014254	0.638370	NaN
153	1.000000	1.754960	7.36654e+06	-46289.1	955.821	-29769.4	0.000000	0.000000	7.755465	0.021071	NaN	0.000000	0.001652	0.001698	28.126	0.071259	0.002078	34.2959	152.261	-164.157	0.033271	1.753697	-0.010397	-0.011661	0.021071	34.2959	-0.010858	-0.006877	-3.063931	NaN
153	1.000000	1.766946	7.36654e+06	-46289.1	955.821	-29769.4	0.000000	0.000000	7.767495	1.097201	NaN	0.000000	0.001657	0.001733	28.0787	1.683494	0.001791	940.137	11.4829	-168.736	0.301634	1.765615	0.001589	0.000258	1.097201	940.137	0.000713	0.000541	2029.76	36944
153	2.000000	1.774508	7.36654e+06	-46289.1	955.82	-29769.4	0.000000	0.000000	7.775498	11.8168	NaN	0.000000	0.001627	0.001723	28.1284	9.414909	0.001604	5868.95	5.634981	-174.412	10.5795	1.774230	0.009151	0.008872	11.8168	5868.95	0.007641	0.006676	1770.14	65627.8
153	2.000000	1.777421	7.36654e+06	-46289.1	955.822	-29769.4	0.000000	0.000000	7.778484	13.5928	NaN	0.000000	0.001654	0.001740	28.0811	12.8526	0.001791	7175.44	8.268909	-178.721	11.8324	1.777124	0.012064	0.011767	13.5928	7175.44	0.010643	0.009905	1372.28	65870.3
153	2.000000	1.780433	7.36654e+06	-46289.1	955.821	-29769.4	0.000000	0.000000	7.781567	15.2999	NaN	0.000000	0.001665	0.001720	28.1287	15.5153	0.001825	8499.27	9.356658	179.69	15.4117	1.780202	0.015076	0.014845	15.2999	8499.27	0.013726	0.013624	1123.03	66528.3
153	2.000000	1.783458	7.36654e+06	-46289.1	955.821	-29769.4	0.000000	0.000000	7.784859	21.8065	NaN	0.000000	0.001643	0.001747	28.0795	18.4022	0.001865	9867.35	8.441130	-179.076	21.0722	1.783174	0.018101	0.017817	21.8065	9867.35	0.016443	0.017259	1263.52	68623.3
153	2.000000	1.786444	7.36654e+06	-46289.1	955.822	-29769.4	0.000000	0.000000	7.788074	27.3692	NaN	0.000000	0.001660	0.001712	28.1304	21.0453	0.001881	11185.8	10.3275	178.596	27.357	1.786081	0.021087	0.020723	27.3692	11185.8	0.019252	0.021381	1280.1	69892.3
153	2.000000	1.789444	7.36654e+06	-46289.1	955.821	-29769.4	0.000000	0.000000	7.791221	30.9536	NaN	0.000000	0.001623	0.001724	28.0812	22.4806	0.001710	13145.5	3.902784	-177.389	31.1662	1.789139	0.024087	0.023782	30.9536	13145.5	0.022321	0.026321	1176	74028.2
153	2.000000	1.792432	7.36654e+06	-46289.1	955.822	-29769.4	0.000000	0.000000	7.794626	41.0943	NaN	0.000000	0.001618	0.001718	28.1287	25.0837	0.001782	14075.4	2.763152	-176.825	40.7589	1.792152	0.027075	0.026795	41.0943	14075.4	0.024885	0.030808	1333.9	73266.5
153	2.000000	1.795392	7.36654e+06	-46289.1	955.82	-29769.4	0.000000	0.000000	7.797862	47.7984	NaN	0.000000	0.001628	0.001733	28.0814	28.9472	0.001827	15843.2	7.422947	177.814	47.0278	1.795110	0.030035	0.029752	47.7984	15843.2	0.027772	0.036253	1318.48	76023.1
153	2.000000	1.798352	7.36654e+06	-46289.1	955.821	-29769.4	0.000000	0.000000	7.801133	55.388	NaN	0.000000	0.001583	0.001720	28.1287	30.7295	0.001729	17777.1	3.020291	-179.262	53.3467	1.798072	0.032995	0.032714	55.388	17777.1	0.030658	0.042119	1315.04	79140
153	2.000000	1.801469	7.36654e+06	-46289.1	955.822	-29769.4	0.000000	0.000000	7.804427	59.6963	NaN	0.000000	0.001612	0.001682	28.0821	34.1641	0.001789	19095.7	8.402535	174.778	63.6308	1.801148	0.036112	0.035791	59.6963	19095.7	0.033767	0.048914	1220.43	78884.4
153	2.000000	1.804419	7.36654e+06	-46289.1	955.822	-29769.4	0.000000	0.000000	7.807857	71.3637	NaN	0.000000	0.001619	0.001691	28.1279	36.3256	0.001844	19703.3	3.211155	-179.955	71.5436	1.804111	0.039062	0.038754	71.3637	19703.3	0.036345	0.054925	1299.31	76811.9
153	2.000000	1.807368	7.36654e+06	-46289.1	955.821	-29769.4	0.000000	0.000000	7.811179	80.4396	NaN	0.000000	0.001593	0.001722	28.081	39.2399	0.001884	20826.6	2.978255	179.633	79.2624	1.807177	0.042011	0.041820	80.4396	20826.6	0.039114	0.061759	1302.47	76566.8
153	2.000000	1.810398	7.36654e+06	-46289.1	955.819	-29769.4	0.000000	0.000000	7.814753	93.6871	NaN	0.000000	0.001654	0.001710	28.1274	42.4063	0.001857	22840	7.123940	175.708	93.9086	1.810012	0.045040	0.044655	93.6871	22840	0.041964	0.069202	1353.82	79325.1
153	2.000000	1.813342	7.36654e+06	-46289.1	955.821	-29769.4	0.000000	0.000000	7.818055	102.395	NaN	0.000000	0.001637	0.001713	28.0809	45.629	0.001903	23976.5	5.493499	175.452	99.9835	1.813114	0.047984	0.047757	102.395	23976.5	0.044781	0.076968	1330.36	78959.4
153	2.000000	1.816389	7.36654e+06	-46289.1	955.822	-29769.4	0.000000	0.000000	7.821457	111.02	NaN	0.000000	0.001630	0.001718	28.1274	47.0081	0.001734	27110.3	0.264085	179.577	109.006	1.816124	0.051031	0.050767	111.02	27110.3	0.047960	0.086212	1287.76	84357.8
153	2.000000	1.819317	7.36654e+06	-46289.1	955.822	-29769.4	0.000000	0.000000	7.824952	124.802	NaN	0.000000	0.001644	0.001740	28.0819	49.1625	0.001778	27655.2	2.664879	177.825	122.478	1.819009	0.053960	0.053651	124.802	27655.2	0.050575	0.094200	1324.87	82323.6
153	2.000000	1.822409	7.36654e+06	-46289.1	955.821	-29769.4	0.000000	0.000000	7.828595	138.206	NaN	0.000000	0.001552	0.001723	28.127	51.4217	0.001827	28153	3.951967	176.548	139.713	1.822051	0.057052	0.056693	138.206	28153	0.053370	0.103114	1340.32	80101.3
153	2.000000	1.825304	7.36654e+06	-46289.1	955.822	-29769.4	0.000000	0.000000	7.832113	153.37	NaN	0.000000	0.001616	0.001741	28.08	54.1036	0.001763	30680.1	3.145555	175.827	149.843	1.824996	0.059946	0.059638	153.37	30680.1	0.056197	0.112526	1362.97	83561
153	2.000000	1.828317	7.36654e+06	-46289.1	955.82	-29769.4	0.000000	0.000000	7.835429	160.737	NaN	0.000000	0.001622	0.001696	28.1261	58.0845	0.001804	32201.4	6.500041	171.869	159.684	1.827997	0.062960	0.062639	160.737	32201.4	0.059216	0.123012	1306.68	83883
153	2.000000	1.831278	7.36654e+06	-46289.1	955.821	-29769.4	0.000000	0.000000	7.839129	178.723	NaN	0.000000	0.001635	0.001719	28.0799	59.2727	0.001774	33411.9	0.951071	177.358	175.14	1.830984	0.065920	0.065626	178.723	33411.9	0.061909	0.132741	1346.4	83785.9
153	2.000000	1.834266	7.36654e+06	-46289.1	955.821	-29769.4	0.000000	0.000000	7.842518	188.466	NaN	0.000000	0.001640	0.001784	28.1273	63.0084	0.001791	35173.6	4.210490	173.67	182.862	1.834005	0.068908	0.068648	188.466	35173.6	0.064890	0.143924	1309.49	84707.7
153	2.000000	1.837303	7.36654e+06	-46289.1	955.821	-29769.4	0.000000	0.000000	7.846316	206.968	NaN	0.000000	0.001621	0.001753	28.0812	65.6452	0.001807	36329.8	2.926233	174.894	203.751	1.836983	0.071946	0.071626	206.968	36329.8	0.067673	0.154751	1337.43	84376.3
153	2.000000	1.840391	7.36654e+06	-46289.1	955.823	-29769.4	0.000000	0.000000	7.850090	223.66	NaN	0.000000	0.001661	0.001760	28.1279	69.2538	0.001808	38299	6.854309	170.734	226.046	1.840090	0.075034	0.074732	223.66	38299	0.070654	0.166759	1341.22	85687.2
153	2.000000	1.843415	7.36654e+06	-46289.1	955.821	-29769.4	0.000000	0.000000	7.853792	240.16	NaN	0.000000	0.001635	0.001748	28.081	71.5054	0.001848	38687.8	3.691357	173.838	241.763	1.842978	0.078058	0.077621	240.16	38687.8	0.073402	0.178203	1347.68	83731.9
153	2.000000	1.846414	7.36654e+06	-46289.1	955.822	-29769.4	0.000000	0.000000	7.857416	255.377	NaN	0.000000	0.001662	0.001733	28.1279	74.1892	0.001750	42392.6	6.477944	170.41	257.177	1.846047	0.081056	0.080690	255.377	42392.6	0.076538	0.191697	1332.19	88461.7
153	2.000000	1.849337	7.36654e+06	-46289.1	955.822	-29769.4	0.000000	0.000000	7.861225	276.922	NaN	0.000000	0.001654	0.001756	28.0803	75.1179	0.001754	42837.6	3.241372	173.791	276.359	1.848935	0.083979	0.083577	276.922	42837.6	0.079131	0.203202	1362.79	86823.1
153	2.000000	1.852331	7.36654e+06	-46289.1	955.821	-29769.4	0.000000	0.000000	7.864724	289.183	NaN	0.000000	0.001655	0.001761	28.1287	79.1585	0.001822	43448.3	6.798225	169.319	288.117	1.852155	0.086974	0.086798	289.183	43448.3	0.081982	0.216215	1337.48	85369.5
153	2.000000	1.855352	7.36654e+06	-46289.1	955.821	-29769.4	0.000000	0.000000	7.868240	301.226	NaN	0.000000	0.001652	0.001788	28.0826	81.3674	0.001696	47979.4	1.504224	174.024	301.901	1.855162	0.089995	0.089804	301.226	47979.4	0.085286	0.231768	1299.69	91054.5
153	2.000000	1.858257	7.36654e+06	-46289.1	955.822	-29769.4	0.000000	0.000000	7.872466	333.371	NaN	0.000000	0.001582	0.001766	28.1289	85.4315	0.001919	44507.8	5.351923	171.487	328.549	1.857865	0.092900	0.092508	333.371	44507.8	0.087282	0.241408	1380.95	82762.5
153	2.000000	1.861282	7.36654e+06	-46289.1	955.822	-29769.4	0.000000	0.000000	7.875646	337.155	NaN	0.000000	0.001612	0.001758	28.0823	87.2399	0.001774	49169.9	6.583294	168.96	335.445	1.861018	0.095924	0.095661	337.155	49169.9	0.090782	0.258752	1303.01	88314.2
153	2.000000	1.864280	7.36654e+06	-46289.1	955.822	-29769.4	0.000000	0.000000	7.879741	363.833	NaN	0.000000	0.001620	0.001758	28.1272	90.2661	0.001811	49851.9	3.264958	172.126	359.555	1.863923	0.098922	0.098566	363.833	49851.9	0.093449	0.272347	1335.92	87275.8
153	2.000000	1.867287	7.36654e+06	-46289.1	955.822	-29769.4	0.000000	0.000000	7.883601	384.566	NaN	0.000000	0.001599	0.001802	28.0807	92.7605	0.001813	51164.8	2.488721	173.039	381.976	1.866999	0.101930	0.101642	384.566	51164.8	0.096293	0.287202	1339.01	87227
153	2.000000	1.870390	7.36654e+06	-46289.1	955.822	-29769.4	0.000000	0.000000	7.887337	399.968	NaN	0.000000	0.001608	0.001794	28.1273	96.9178	0.001857	52190.4	6.753836	168.521	403.991	1.870126	0.105032	0.104769	399.968	52190.4	0.099285	0.303228	1319.03	86592.3
153	2.000000	1.871180	7.36654e+06	-46289.1	955.822	-29769.4	0.000000	0.000000	7.888821	416.868	NaN	0.000000	0.001633	0.001832	28.0813	95.991	0.001719	55838.2	6.070663	169.173	410.265	1.870825	0.105823	0.105468	416.868	55838.2	0.100223	0.308340	1351.98	91873.5