File: remote_trans/data/nanoindenter/0828-1/data/Data_2025-08-06,11h17m57s/2025-07-22_16-23-58_1_1183.txt
2025-07-22, 16:23:58, 1
Index	Phase	Displacement	Time	Pos X	Pos Y	Pos Z	Rot A	Rot B	Piezo Z	Force A	Force B	Gripper	Voltage A	Voltage B	Temperature	Amplitude force	Amplitude pos	Stiffness	Phase shift	Phase excitation	Force A raw	Displacement raw	HMax	HMax raw	Real Force	Real Stiffness	Contact Depth	Area	Hardness	Reduced Mod.
[#]	[#]	[um]	[s]	[um]	[um]	[um]	[m°]	[m°]	[um]	[uN]	[uN]	[V]	[V]	[V]	[°C]	[uN]	[um]	[N/m]	[°]	[°]	[uN]	[um]	[um]	[um]	[uN]	[N/m]	[um]	[um^2]	[MPa]	[MPa]
1183	1.000000	0.002597	7.37662e+06	-56439.1	1105.82	-29738.9	0.000000	0.000000	6.002798	-0.045745	NaN	0.000000	0.001719	0.001640	28.0814	0.034248	0.000951	36.0147	168.299	-166.944	-0.006137	0.001385	-1.040784	-1.041996	-0.045745	36.0147	-1.039831	-7.792839E+13	5.870112E-16	NaN
1183	1.000000	0.010582	7.37662e+06	-56439.1	1105.82	-29738.9	0.000000	0.000000	6.010785	-0.006646	NaN	0.000000	0.001671	0.001682	28.0812	0.059341	0.001153	51.4684	-66.4534	-170.37	-0.044268	0.009222	-1.032799	-1.034159	-0.006646	51.4684	-1.032702	-6.249187E+13	1.063437E-16	NaN
1183	1.000000	0.018606	7.37662e+06	-56439.1	1105.82	-29738.9	0.000000	0.000000	6.018809	-0.002745	NaN	0.000000	0.001674	0.001673	28.0811	0.089659	0.001735	51.6623	25.4044	-164.091	-0.019846	0.017244	-1.024775	-1.026136	-0.002745	51.6623	-1.024735	-4.882664E+13	5.621797E-17	NaN
1183	1.000000	0.026560	7.37662e+06	-56439.1	1105.82	-29738.9	0.000000	0.000000	6.026764	0.010309	NaN	0.000000	0.001705	0.001664	28.0813	0.109956	0.001757	62.5804	89.6729	-165.572	-0.137063	0.025255	-1.016821	-1.018126	0.010309	62.5804	-1.016944	-3.835619E+13	-2.687598E-16	NaN
1183	1.000000	0.034541	7.37662e+06	-56439.1	1105.82	-29738.9	0.000000	0.000000	6.034744	0.004116	NaN	0.000000	0.001717	0.001673	28.0821	0.090807	0.001938	46.8573	80.655	-165.879	-0.015223	0.033231	-1.008840	-1.010150	0.004116	46.8573	-1.008906	-2.989902E+13	-1.376737E-16	NaN
1183	1.000000	0.042526	7.37662e+06	-56439.1	1105.82	-29738.9	0.000000	0.000000	6.042727	-0.040395	NaN	0.000000	0.001711	0.001679	28.0826	0.056991	0.001970	28.9289	53.1878	-167.443	-0.027194	0.041222	-1.000855	-1.002159	-0.040395	28.9289	-0.999808	-2.255172E+13	1.791222E-15	NaN
1183	1.000000	0.050578	7.37662e+06	-56439.1	1105.82	-29738.9	0.000000	0.000000	6.050781	0.001855	NaN	0.000000	0.001696	0.001704	28.0823	0.068840	0.002024	34.0053	-118.096	-167.796	-0.074979	0.049239	-0.992803	-0.994142	0.001855	34.0053	-0.992844	-1.817215E+13	-1.020995E-16	NaN
1183	1.000000	0.058528	7.37662e+06	-56439.1	1105.82	-29738.9	0.000000	0.000000	6.058731	-0.001626	NaN	0.000000	0.001709	0.001669	28.0824	0.054991	0.002042	26.9273	-109.584	-166.276	-0.018796	0.057255	-0.984853	-0.986126	-0.001626	26.9273	-0.984808	-1.416366E+13	1.147738E-16	NaN
1183	1.000000	0.066518	7.37662e+06	-56439.1	1105.82	-29738.9	0.000000	0.000000	6.066723	0.023588	NaN	0.000000	0.001672	0.001632	28.0824	0.064392	0.002003	32.1489	92.0633	-166.901	-0.011740	0.065270	-0.976862	-0.978111	0.023588	32.1489	-0.977413	-1.126029E+13	-2.094771E-15	NaN
1183	1.000000	0.074564	7.37662e+06	-56439.1	1105.82	-29738.9	0.000000	0.000000	6.074767	-0.001812	NaN	0.000000	0.001659	0.001671	28.0824	0.099758	0.001917	52.0373	124.568	-168.914	-0.017428	0.073248	-0.968817	-0.970132	-0.001812	52.0373	-0.968791	-8.617227E+12	2.103137E-16	NaN
1183	1.000000	0.082541	7.37662e+06	-56439.1	1105.82	-29738.9	0.000000	0.000000	6.082745	0.017200	NaN	0.000000	0.001693	0.001651	28.0825	0.068063	0.001944	35.0197	-160.905	-164.559	-0.042566	0.081175	-0.960840	-0.962205	0.017200	35.0197	-0.961208	-6.810109E+12	-2.525690E-15	NaN
1183	1.000000	0.090562	7.37662e+06	-56439.1	1105.82	-29738.9	0.000000	0.000000	6.090764	-0.022884	NaN	0.000000	0.001652	0.001696	28.0823	0.084224	0.002046	41.1662	-10.8279	-168.819	0.005894	0.089286	-0.952819	-0.954095	-0.022884	41.1662	-0.952402	-5.181128E+12	4.416772E-15	NaN
1183	1.000000	0.098562	7.37662e+06	-56439.1	1105.82	-29738.9	0.000000	0.000000	6.098765	-0.009492	NaN	0.000000	0.001668	0.001728	28.0825	0.043220	0.002026	21.3344	24.3152	-167.118	-0.090172	0.097271	-0.944819	-0.946110	-0.009492	21.3344	-0.944485	-4.051762E+12	2.342683E-15	NaN
1183	1.000000	0.106547	7.37662e+06	-56439.1	1105.82	-29738.9	0.000000	0.000000	6.106750	0.009762	NaN	0.000000	0.001665	0.001709	28.0823	0.051763	0.001898	27.2757	-19.3958	-165.394	-0.007972	0.105297	-0.936834	-0.938084	0.009762	27.2757	-0.937102	-3.221369E+12	-3.030352E-15	NaN
1183	1.000000	0.114575	7.37662e+06	-56439.1	1105.82	-29738.9	0.000000	0.000000	6.114775	-0.059438	NaN	0.000000	0.001671	0.001665	28.0824	0.019388	0.002139	9.062815	-22.8487	-165.065	-0.026389	0.113285	-0.928806	-0.930095	-0.059438	9.062815	-0.923887	-2.136426E+12	2.782126E-14	NaN
1183	1.000000	0.122565	7.37662e+06	-56439.1	1105.82	-29738.9	0.000000	0.000000	6.122767	-0.039445	NaN	0.000000	0.001698	0.001684	28.0825	0.100038	0.001870	53.4944	-26.0723	-169.272	0.108880	0.121272	-0.920815	-0.922108	-0.039445	53.4944	-0.920262	-1.908741E+12	2.066557E-14	NaN
1183	1.000000	0.130562	7.37662e+06	-56439.1	1105.82	-29738.9	0.000000	0.000000	6.130766	0.019723	NaN	0.000000	0.001730	0.001699	28.0824	0.046223	0.001900	24.3326	-85.7178	-165.22	-0.046243	0.129256	-0.912819	-0.914125	0.019723	24.3326	-0.913427	-1.543290E+12	-1.277981E-14	NaN
1183	1.000000	0.138602	7.37662e+06	-56439.1	1105.82	-29738.9	0.000000	0.000000	6.138806	0.029054	NaN	0.000000	0.001742	0.001707	28.0825	0.068581	0.001858	36.916	61.3984	-167.89	0.011213	0.137259	-0.904779	-0.906122	0.029054	36.916	-0.905369	-1.201181E+12	-2.418825E-14	NaN
1183	1.000000	0.146606	7.37662e+06	-56439.1	1105.82	-29738.9	0.000000	0.000000	6.146809	-0.007287	NaN	0.000000	0.001731	0.001656	28.0824	0.138332	0.001958	70.6447	30.802	-165.981	-0.020025	0.145276	-0.896775	-0.898105	-0.007287	70.6447	-0.896697	-9.171424E+11	7.945785E-15	NaN
1183	1.000000	0.154567	7.37662e+06	-56439.1	1105.82	-29738.9	0.000000	0.000000	6.154771	0.034605	NaN	0.000000	0.001700	0.001661	28.0824	0.135743	0.002038	66.5937	155.655	-164.245	0.117127	0.153267	-0.888814	-0.890114	0.034605	66.5937	-0.889204	-7.263618E+11	-4.764107E-14	NaN
1183	1.000000	0.162610	7.37662e+06	-56439.1	1105.82	-29738.9	0.000000	0.000000	6.162812	-0.018169	NaN	0.000000	0.001673	0.001669	28.0824	0.061428	0.001911	32.1481	125.437	-163.128	-0.070623	0.161251	-0.880771	-0.882130	-0.018169	32.1481	-0.880347	-5.513202E+11	3.295532E-14	NaN
1183	1.000000	0.170587	7.37662e+06	-56439.1	1105.82	-29738.9	0.000000	0.000000	6.170791	0.023528	NaN	0.000000	0.001671	0.001676	28.081	0.122386	0.001949	62.8085	-141.454	-166.452	0.021334	0.169342	-0.872793	-0.874039	0.023528	62.8085	-0.873074	-4.395765E+11	-5.352341E-14	NaN
1183	1.000000	0.178620	7.37662e+06	-56439.1	1105.82	-29738.9	0.000000	0.000000	6.178820	-0.061078	NaN	0.000000	0.001703	0.001679	28.0811	0.088175	0.002012	43.8346	-176.109	-167.485	-0.018014	0.177191	-0.864761	-0.866189	-0.061078	43.8346	-0.863716	-3.284089E+11	1.859809E-13	NaN
1183	1.000000	0.186565	7.37662e+06	-56439.1	1105.82	-29738.9	0.000000	0.000000	6.186768	-0.019199	NaN	0.000000	0.001710	0.001658	28.0809	0.051273	0.002070	24.7655	-94.136	-168.864	0.089773	0.185315	-0.856815	-0.858066	-0.019199	24.7655	-0.856234	-2.601011E+11	7.381401E-14	NaN
1183	1.000000	0.194594	7.37662e+06	-56439.1	1105.82	-29738.9	0.000000	0.000000	6.194798	0.033308	NaN	0.000000	0.001690	0.001673	28.0808	0.083984	0.002010	41.7747	-90.3075	-164.788	0.018095	0.193272	-0.848787	-0.850109	0.033308	41.7747	-0.849385	-2.100915E+11	-1.585418E-13	NaN
1183	1.000000	0.202615	7.37662e+06	-56439.1	1105.82	-29738.9	0.000000	0.000000	6.202821	0.052330	NaN	0.000000	0.001689	0.001666	28.0809	0.122496	0.001983	61.7577	-79.7159	-165.225	0.093170	0.201308	-0.840765	-0.842073	0.052330	61.7577	-0.841401	-1.637843E+11	-3.195050E-13	NaN
1183	1.000000	0.210585	7.37662e+06	-56439.1	1105.82	-29738.9	0.000000	0.000000	6.210788	0.010639	NaN	0.000000	0.001690	0.001680	28.0806	0.058976	0.001951	30.2213	-97.6702	-164.538	0.027091	0.209305	-0.832796	-0.834076	0.010639	30.2213	-0.833060	-1.262583E+11	-8.426571E-14	NaN
1183	1.000000	0.218621	7.37662e+06	-56439.1	1105.82	-29738.9	0.000000	0.000000	6.218823	-0.008856	NaN	0.000000	0.001699	0.001669	28.0809	0.112116	0.001952	57.4345	-94.1992	-170.108	0.031855	0.217263	-0.824760	-0.826118	-0.008856	57.4345	-0.824645	-9.709275E+10	9.121212E-14	NaN
1183	1.000000	0.226604	7.37662e+06	-56439.1	1105.82	-29738.9	0.000000	0.000000	6.226805	-0.046410	NaN	0.000000	0.001704	0.001691	28.0807	0.057807	0.001980	29.1895	-2.744928	-165.677	-0.015957	0.225304	-0.816777	-0.818076	-0.046410	29.1895	-0.815584	-7.316830E+10	6.342915E-13	NaN
1183	1.000000	0.234587	7.37662e+06	-56439.1	1105.82	-29738.9	0.000000	0.000000	6.234790	-0.019320	NaN	0.000000	0.001675	0.001660	28.0808	0.018228	0.002001	9.107980	79.0659	-165.927	-0.034232	0.233353	-0.808794	-0.810027	-0.019320	9.107980	-0.807203	-5.631379E+10	3.430841E-13	NaN
1183	1.000000	0.242621	7.37662e+06	-56439.1	1105.82	-29738.9	0.000000	0.000000	6.242824	-0.005198	NaN	0.000000	0.001675	0.001694	28.0823	0.073561	0.002010	36.5932	-155.211	-168.766	0.040851	0.241355	-0.800759	-0.802026	-0.005198	36.5932	-0.800653	-4.589062E+10	1.132787E-13	NaN
1183	1.000000	0.250617	7.37662e+06	-56439.1	1105.82	-29738.9	0.000000	0.000000	6.250819	-0.013717	NaN	0.000000	0.001633	0.001678	28.0807	0.112083	0.001969	56.9141	-145.339	-165.452	-0.049617	0.249336	-0.792764	-0.794045	-0.013717	56.9141	-0.792583	-3.565852E+10	3.846804E-13	NaN
1183	1.000000	0.258610	7.37662e+06	-56439.1	1105.82	-29738.9	0.000000	0.000000	6.258812	-0.010959	NaN	0.000000	0.001684	0.001664	28.0808	0.098398	0.001939	50.7513	-151.354	-166.045	-0.061171	0.257300	-0.784771	-0.786080	-0.010959	50.7513	-0.784609	-2.778793E+10	3.943756E-13	NaN
1183	1.000000	0.266640	7.37662e+06	-56439.1	1105.82	-29738.9	0.000000	0.000000	6.266844	0.012791	NaN	0.000000	0.001670	0.001697	28.0807	0.035062	0.002053	17.0796	172.777	-163.282	0.021597	0.265384	-0.776740	-0.777997	0.012791	17.0796	-0.777302	-2.210881E+10	-5.785507E-13	NaN
1183	1.000000	0.274654	7.37662e+06	-56439.1	1105.82	-29738.9	0.000000	0.000000	6.274857	0.010301	NaN	0.000000	0.001675	0.001692	28.0808	0.012095	0.002154	5.615743	67.4456	-169.033	0.024788	0.273358	-0.768727	-0.770022	0.010301	5.615743	-0.770103	-1.764823E+10	-5.836845E-13	NaN
1183	1.000000	0.282668	7.37662e+06	-56439.1	1105.82	-29738.9	0.000000	0.000000	6.282871	-0.003741	NaN	0.000000	0.001678	0.001663	28.0809	0.073327	0.001971	37.2105	85.3358	-164.59	-0.050516	0.281303	-0.760712	-0.762078	-0.003741	37.2105	-0.760637	-1.312106E+10	2.851214E-13	NaN
1183	1.000000	0.290637	7.37662e+06	-56439.1	1105.82	-29738.9	0.000000	0.000000	6.290836	-0.092765	NaN	0.000000	0.001659	0.001707	28.0806	0.045102	0.001960	23.0082	-92.415	-164.854	-0.087692	0.289287	-0.752744	-0.754094	-0.092765	23.0082	-0.749720	-9.319789E+9	9.953498E-12	NaN
1183	1.000000	0.298673	7.37662e+06	-56439.1	1105.82	-29738.9	0.000000	0.000000	6.298877	0.030396	NaN	0.000000	0.001686	0.001655	28.0809	0.030934	0.002060	15.019	27.8677	-167.188	0.086720	0.297354	-0.744708	-0.746026	0.030396	15.019	-0.746226	-8.352947E+9	-3.638984E-12	NaN
1183	1.000000	0.306691	7.37662e+06	-56439.1	1105.82	-29738.9	0.000000	0.000000	6.306893	-0.022255	NaN	0.000000	0.001664	0.001689	28.0822	0.072408	0.001873	38.6689	18.5928	-163.756	0.021709	0.305311	-0.736690	-0.738070	-0.022255	38.6689	-0.736258	-6.110548E+9	3.642142E-12	NaN
1183	1.000000	0.314657	7.37662e+06	-56439.1	1105.82	-29738.9	0.000000	0.000000	6.314860	0.014433	NaN	0.000000	0.001637	0.001684	28.0823	0.077389	0.001866	41.4645	-1.883674	-167.941	-0.032869	0.313352	-0.728724	-0.730029	0.014433	41.4645	-0.728985	-4.863790E+9	-2.967463E-12	NaN
1183	1.000000	0.322648	7.37662e+06	-56439.1	1105.82	-29738.9	0.000000	0.000000	6.322847	-0.086003	NaN	0.000000	0.001685	0.001620	28.0823	0.081263	0.001985	40.9395	165.953	-168.694	-0.020208	0.321357	-0.720733	-0.722023	-0.086003	40.9395	-0.719157	-3.572570E+9	2.407321E-11	NaN
1183	1.000000	0.330658	7.37662e+06	-56439.1	1105.82	-29738.9	0.000000	0.000000	6.330862	0.011563	NaN	0.000000	0.001650	0.001702	28.0819	0.062176	0.002022	30.748	-154.911	-166.537	-0.023207	0.329315	-0.712722	-0.714066	0.011563	30.748	-0.713004	-2.944725E+9	-3.926808E-12	NaN
1183	1.000000	0.338659	7.37662e+06	-56439.1	1105.82	-29738.9	0.000000	0.000000	6.338862	-0.017411	NaN	0.000000	0.001646	0.001689	28.0821	0.057189	0.002034	28.1172	111.104	-165.028	0.016768	0.337350	-0.704721	-0.706030	-0.017411	28.1172	-0.704257	-2.236952E+9	7.783268E-12	NaN
1183	1.000000	0.346667	7.37662e+06	-56439.1	1105.82	-29738.9	0.000000	0.000000	6.346870	0.006073	NaN	0.000000	0.001665	0.001681	28.0822	0.058421	0.001951	29.9405	-113.182	-167.249	0.021170	0.345327	-0.696714	-0.698054	0.006073	29.9405	-0.696866	-1.773072E+9	-3.424951E-12	NaN
1183	1.000000	0.354675	7.37662e+06	-56439.1	1105.82	-29738.9	0.000000	0.000000	6.354878	-0.003302	NaN	0.000000	0.001643	0.001620	28.082	0.006345	0.002027	3.130671	63.0977	-165.332	-0.056170	0.353420	-0.688706	-0.689960	-0.003302	3.130671	-0.687914	-1.337867E+9	2.468479E-12	NaN
1183	1.000000	0.362662	7.37662e+06	-56439.1	1105.82	-29738.9	0.000000	0.000000	6.362865	-0.005036	NaN	0.000000	0.001682	0.001645	28.0821	0.045071	0.001926	23.4047	-135.117	-167.521	-0.045425	0.361369	-0.680718	-0.682012	-0.005036	23.4047	-0.680557	-1.061267E+9	4.744826E-12	NaN
1183	1.000000	0.370678	7.37662e+06	-56439.1	1105.82	-29738.9	0.000000	0.000000	6.370885	0.104009	NaN	0.000000	0.001636	0.001663	28.0823	0.037688	0.001959	19.2424	128.852	-165.96	0.093557	0.369269	-0.672703	-0.674112	0.104009	19.2424	-0.676757	-9.415569E+8	-1.104654E-10	NaN
1183	1.000000	0.378664	7.37662e+06	-56439.1	1105.82	-29738.9	0.000000	0.000000	6.378869	0.055191	NaN	0.000000	0.001675	0.001655	28.0822	0.123089	0.001905	64.6225	-153.348	-164.249	0.163502	0.377365	-0.664717	-0.666016	0.055191	64.6225	-0.665358	-6.574131E+8	-8.395143E-11	NaN
1183	1.000000	0.386685	7.37662e+06	-56439.1	1105.82	-29738.9	0.000000	0.000000	6.386889	0.016622	NaN	0.000000	0.001668	0.001645	28.082	0.038287	0.001996	19.1854	152.254	-164.666	0.000866	0.385376	-0.656695	-0.658005	0.016622	19.1854	-0.657345	-5.106248E+8	-3.255318E-11	NaN
1183	1.000000	0.394704	7.37662e+06	-56439.1	1105.82	-29738.9	0.000000	0.000000	6.394907	-0.011363	NaN	0.000000	0.001690	0.001666	28.0821	0.034462	0.002025	17.0191	-101.556	-167.104	-0.070779	0.393381	-0.648677	-0.650000	-0.011363	17.0191	-0.648176	-3.823196E+8	2.972185E-11	NaN
1183	1.000000	0.402715	7.37662e+06	-56439.1	1105.82	-29738.9	0.000000	0.000000	6.402919	0.028087	NaN	0.000000	0.001670	0.001656	28.082	0.043852	0.001858	23.5981	147.332	-168.178	-0.035782	0.401379	-0.640666	-0.642001	0.028087	23.5981	-0.641559	-3.102219E+8	-9.053750E-11	NaN
1183	1.000000	0.410691	7.37662e+06	-56439.1	1105.82	-29738.9	0.000000	0.000000	6.410894	-0.001084	NaN	0.000000	0.001619	0.001627	28.0822	0.091658	0.001878	48.8109	-39.0306	-167.423	-0.035473	0.409370	-0.632690	-0.634011	-0.001084	48.8109	-0.632673	-2.342784E+8	4.628198E-12	NaN
1183	1.000000	0.418700	7.37662e+06	-56439.1	1105.82	-29738.9	0.000000	0.000000	6.418903	-0.006379	NaN	0.000000	0.001644	0.001631	28.0823	0.063636	0.001940	32.8039	159.59	-165.912	-0.085170	0.417403	-0.624681	-0.625977	-0.006379	32.8039	-0.624535	-1.811136E+8	3.522040E-11	NaN
1183	1.000000	0.426714	7.37662e+06	-56439.1	1105.82	-29738.9	0.000000	0.000000	6.426914	-0.072900	NaN	0.000000	0.001707	0.001620	28.0824	0.011368	0.002006	5.665730	76.1665	-166.371	0.005091	0.425323	-0.616667	-0.618058	-0.072900	5.665730	-0.607017	-1.040070E+8	7.009115E-10	NaN
1183	1.000000	0.434692	7.37662e+06	-56439.1	1105.82	-29738.9	0.000000	0.000000	6.434895	-0.004983	NaN	0.000000	0.001634	0.001632	28.0822	0.048752	0.002026	24.0651	-6.572964	-169.818	-0.031110	0.433414	-0.608689	-0.609966	-0.004983	24.0651	-0.608533	-1.091270E+8	4.566139E-11	NaN
1183	1.000000	0.442699	7.37662e+06	-56439.1	1105.82	-29738.9	0.000000	0.000000	6.442902	-0.005149	NaN	0.000000	0.001643	0.001623	28.0808	0.060216	0.001923	31.3182	104.416	-166.735	-0.051700	0.441413	-0.600682	-0.601968	-0.005149	31.3182	-0.600559	-8.475277E+7	6.075826E-11	NaN
1183	1.000000	0.450720	7.37662e+06	-56439.1	1105.82	-29738.9	0.000000	0.000000	6.450922	-0.016738	NaN	0.000000	0.001660	0.001619	28.0808	0.094904	0.001953	48.6062	81.2985	-166.372	-0.024578	0.449415	-0.592661	-0.593966	-0.016738	48.6062	-0.592403	-6.543169E+7	2.558056E-10	NaN
1183	1.000000	0.458683	7.37662e+06	-56439.1	1105.82	-29738.9	0.000000	0.000000	6.458887	0.029630	NaN	0.000000	0.001675	0.001600	28.0808	0.090091	0.002024	44.5125	-146.203	-167.45	0.015673	0.457389	-0.584698	-0.585991	0.029630	44.5125	-0.585197	-5.205205E+7	-5.692317E-10	NaN
1183	1.000000	0.466687	7.37662e+06	-56439.1	1105.82	-29738.9	0.000000	0.000000	6.466891	0.030365	NaN	0.000000	0.001666	0.001610	28.081	0.047527	0.001951	24.3611	12.5846	-165.344	0.042917	0.465396	-0.576694	-0.577985	0.030365	24.3611	-0.577629	-4.092578E+7	-7.419557E-10	NaN
1183	1.000000	0.474732	7.37662e+06	-56439.1	1105.82	-29738.9	0.000000	0.000000	6.474933	-0.035902	NaN	0.000000	0.001673	0.001638	28.0808	0.070022	0.001939	36.1132	-66.5736	-167.15	-0.037800	0.473400	-0.568649	-0.569981	-0.035902	36.1132	-0.567903	-3.003712E+7	1.195248E-9	NaN
1183	1.000000	0.482711	7.37662e+06	-56439.1	1105.82	-29738.9	0.000000	0.000000	6.482916	0.046462	NaN	0.000000	0.001656	0.001613	28.0809	0.069772	0.001997	34.9417	-37.5044	-167.12	-0.023647	0.481524	-0.560670	-0.561857	0.046462	34.9417	-0.561667	-2.462867E+7	-1.886504E-9	NaN
1183	1.000000	0.490704	7.37662e+06	-56439.1	1105.82	-29738.9	0.000000	0.000000	6.490905	-0.053156	NaN	0.000000	0.001665	0.001591	28.0808	0.100563	0.002046	49.1434	-116.223	-166.892	0.035438	0.489376	-0.552677	-0.554005	-0.053156	49.1434	-0.551865	-1.802141E+7	2.949588E-9	NaN
1183	1.000000	0.498701	7.37662e+06	-56439.1	1105.82	-29738.9	0.000000	0.000000	6.498905	0.021787	NaN	0.000000	0.001633	0.001598	28.0808	0.092567	0.001949	47.5	48.8985	-167.586	0.040570	0.497377	-0.544680	-0.546004	0.021787	47.5	-0.545024	-1.448793E+7	-1.503816E-9	NaN
1183	1.000000	0.506756	7.37662e+06	-56439.1	1105.82	-29738.9	0.000000	0.000000	6.506959	-0.005871	NaN	0.000000	0.001675	0.001614	28.0809	0.029955	0.001920	15.6004	136.965	-162.037	-0.122820	0.505445	-0.536625	-0.537936	-0.005871	15.6004	-0.536343	-1.098053E+7	5.346381E-10	NaN
1183	1.000000	0.514751	7.37662e+06	-56439.1	1105.82	-29738.9	0.000000	0.000000	6.514953	-0.020413	NaN	0.000000	0.001667	0.001636	28.0808	0.097198	0.002037	47.7227	67.4521	-167.107	-0.050011	0.513429	-0.528630	-0.529951	-0.020413	47.7227	-0.528309	-8.49354e+06	2.403312E-9	NaN
1183	1.000000	0.522745	7.37662e+06	-56439.1	1105.82	-29738.9	0.000000	0.000000	6.522949	0.012544	NaN	0.000000	0.001656	0.001674	28.0811	0.087857	0.002007	43.7854	166.357	-168.841	0.084882	0.521460	-0.520636	-0.521920	0.012544	43.7854	-0.520851	-6.69004e+06	-1.874980E-9	NaN
1183	1.000000	0.530713	7.37662e+06	-56439.1	1105.82	-29738.9	0.000000	0.000000	6.530914	-0.053057	NaN	0.000000	0.001667	0.001630	28.081	0.102409	0.002002	51.1442	-96.3367	-162.295	-0.055515	0.529435	-0.512668	-0.513946	-0.053057	51.1442	-0.511890	-5.02032e+06	1.056849E-8	NaN
1183	1.000000	0.538737	7.37662e+06	-56439.1	1105.82	-29738.9	0.000000	0.000000	6.538939	-0.045870	NaN	0.000000	0.001681	0.001606	28.0808	0.015238	0.001978	7.705753	-105.62	-164.975	-0.035275	0.537363	-0.504643	-0.506017	-0.045870	7.705753	-0.500179	-3.44756e+06	1.330496E-8	NaN
1183	1.000000	0.546750	7.37662e+06	-56439.1	1105.82	-29738.9	0.000000	0.000000	6.546953	-0.005117	NaN	0.000000	0.001692	0.001616	28.0808	0.042477	0.002016	21.067	-146.746	-169.454	-0.007953	0.545413	-0.496630	-0.497968	-0.005117	21.067	-0.496448	-3.05811e+06	1.673310E-9	NaN
1183	1.000000	0.554767	7.37662e+06	-56439.1	1105.82	-29738.9	0.000000	0.000000	6.554969	-0.018215	NaN	0.000000	0.001675	0.001625	28.0807	0.068389	0.002104	32.5034	-90.7354	-164.345	-0.047144	0.553433	-0.488614	-0.489948	-0.018215	32.5034	-0.488194	-2.34502e+06	7.767465E-9	NaN
1183	1.000000	0.562752	7.37662e+06	-56439.1	1105.82	-29738.9	0.000000	0.000000	6.562955	-0.002030	NaN	0.000000	0.001679	0.001593	28.0808	0.065536	0.002029	32.3053	89.4886	-165.123	-0.014645	0.561441	-0.480629	-0.481940	-0.002030	32.3053	-0.480581	-1.83513e+06	1.106213E-9	NaN
1183	1.000000	0.570762	7.37662e+06	-56439.1	1105.82	-29738.9	0.000000	0.000000	6.570966	0.016384	NaN	0.000000	0.001642	0.001602	28.0807	0.119099	0.002061	57.7753	151.282	-167.749	-0.018373	0.569430	-0.472618	-0.473951	0.016384	57.7753	-0.472831	-1.42923e+06	-1.146339E-8	NaN
1183	1.000000	0.578764	7.37662e+06	-56439.1	1105.82	-29738.9	0.000000	0.000000	6.578963	-0.092667	NaN	0.000000	0.001646	0.001613	28.0823	0.148646	0.002137	69.5547	76.587	-162.823	-0.048186	0.577472	-0.464617	-0.465909	-0.092667	69.5547	-0.463618	-1.0613e+06	8.731506E-8	NaN
1183	1.000000	0.586747	7.37662e+06	-56439.1	1105.82	-29738.9	0.000000	0.000000	6.586949	-0.038357	NaN	0.000000	0.001649	0.001635	28.0838	0.053564	0.001995	26.851	164.272	-165.498	0.016857	0.585450	-0.456634	-0.457930	-0.038357	26.851	-0.455562	-817759	4.690551E-8	NaN
1183	1.000000	0.594773	7.37662e+06	-56439.1	1105.82	-29738.9	0.000000	0.000000	6.594976	0.008504	NaN	0.000000	0.001630	0.001623	28.0858	0.122461	0.001962	62.4232	162.543	-168.034	-0.010114	0.593441	-0.448608	-0.449940	0.008504	62.4232	-0.448710	-654906	-1.298527E-8	NaN
1183	1.000000	0.602777	7.37662e+06	-56439.1	1105.82	-29738.9	0.000000	0.000000	6.602978	-0.059894	NaN	0.000000	0.001677	0.001610	28.0828	0.066044	0.002058	32.0974	117.361	-163.864	0.059468	0.601477	-0.440604	-0.441904	-0.059894	32.0974	-0.439204	-480985	1.245237E-7	NaN
1183	1.000000	0.610800	7.37662e+06	-56439.1	1105.82	-29738.9	0.000000	0.000000	6.611003	-0.005116	NaN	0.000000	0.001684	0.001592	28.0823	0.042274	0.001996	21.1798	146.693	-165.71	0.021220	0.609450	-0.432581	-0.433931	-0.005116	21.1798	-0.432400	-385482	1.327072E-8	NaN
1183	1.000000	0.618783	7.37662e+06	-56439.1	1105.82	-29738.9	0.000000	0.000000	6.618987	0.022026	NaN	0.000000	0.001719	0.001640	28.0821	0.056301	0.002153	26.1458	-31.0314	-164.396	0.012176	0.617477	-0.424598	-0.425904	0.022026	26.1458	-0.425230	-305169	-7.217609E-8	NaN
1183	1.000000	0.626760	7.37662e+06	-56439.1	1105.82	-29738.9	0.000000	0.000000	6.626964	0.026950	NaN	0.000000	0.001708	0.001653	28.082	0.083169	0.002051	40.5445	65.1123	-169.625	-0.016262	0.625439	-0.416621	-0.417941	0.026950	40.5445	-0.417120	-234179	-1.150843E-7	NaN
1183	1.000000	0.634798	7.37662e+06	-56439.1	1105.82	-29738.9	0.000000	0.000000	6.635001	0.001292	NaN	0.000000	0.001720	0.001659	28.0819	0.083057	0.001955	42.4897	46.7087	-164.305	-0.006060	0.633479	-0.408583	-0.409901	0.001292	42.4897	-0.408605	-177241	-7.287201E-9	NaN
1183	1.000000	0.642825	7.37662e+06	-56439.1	1105.82	-29738.9	0.000000	0.000000	6.643031	0.059363	NaN	0.000000	0.001700	0.001640	28.0822	0.114916	0.001902	60.4036	-171.948	-167.102	0.074711	0.641454	-0.400555	-0.401926	0.059363	60.4036	-0.401293	-139452	-4.256871E-7	NaN
1183	1.000000	0.650811	7.37662e+06	-56439.1	1105.82	-29738.9	0.000000	0.000000	6.651015	0.013755	NaN	0.000000	0.001692	0.001609	28.0819	0.012590	0.002074	6.069417	-174.745	-171.367	0.038886	0.649473	-0.392569	-0.393907	0.013755	6.069417	-0.394269	-110712	-1.242436E-7	NaN
1183	1.000000	0.658798	7.37662e+06	-56439.1	1105.82	-29738.9	0.000000	0.000000	6.659003	0.045615	NaN	0.000000	0.001678	0.001626	28.0821	0.033206	0.001982	16.7561	70.6909	-166.848	0.069657	0.657458	-0.384582	-0.385923	0.045615	16.7561	-0.386624	-86069.8	-5.299746E-7	NaN
1183	1.000000	0.666810	7.37662e+06	-56439.1	1105.82	-29738.9	0.000000	0.000000	6.667008	-0.124277	NaN	0.000000	0.001713	0.001647	28.0821	0.005232	0.001967	2.660322	-101.343	-166.872	-0.140004	0.665496	-0.376570	-0.377885	-0.124277	2.660322	-0.341534	-19227	6.463663E-6	NaN
1183	1.000000	0.674801	7.37662e+06	-56439.1	1105.82	-29738.9	0.000000	0.000000	6.675004	-0.006947	NaN	0.000000	0.001713	0.001627	28.0821	0.069956	0.002049	34.1397	160.931	-165.922	-0.016011	0.673477	-0.368580	-0.369904	-0.006947	34.1397	-0.368427	-47149.2	1.473354E-7	NaN
1183	1.000000	0.682819	7.37662e+06	-56439.1	1105.82	-29738.9	0.000000	0.000000	6.683020	-0.051256	NaN	0.000000	0.001705	0.001615	28.082	0.052160	0.001991	26.1924	-75.912	-167.445	-0.067504	0.681518	-0.360562	-0.361862	-0.051256	26.1924	-0.359095	-34574.3	1.482477E-6	NaN
1183	1.000000	0.690776	7.37662e+06	-56439.1	1105.82	-29738.9	0.000000	0.000000	6.690976	-0.061688	NaN	0.000000	0.001742	0.001608	28.0821	0.111383	0.002041	54.5852	-44.1809	-167.154	-0.183956	0.689468	-0.352605	-0.353913	-0.061688	54.5852	-0.351758	-27070.9	2.278762E-6	NaN
1183	1.000000	0.698822	7.37662e+06	-56439.1	1105.82	-29738.9	0.000000	0.000000	6.699024	-0.012237	NaN	0.000000	0.001746	0.001613	28.0823	0.057496	0.001930	29.7912	-86.5081	-166.445	0.002343	0.697435	-0.344559	-0.345945	-0.012237	29.7912	-0.344251	-21060.1	5.810489E-7	NaN
1183	1.000000	0.706822	7.37662e+06	-56439.1	1105.82	-29738.9	0.000000	0.000000	6.707025	-0.002487	NaN	0.000000	0.001742	0.001630	28.0821	0.053984	0.002081	25.9384	29.8695	-166.748	0.037347	0.705507	-0.336559	-0.337874	-0.002487	25.9384	-0.336487	-16229.4	1.532300E-7	NaN
1183	1.000000	0.714810	7.37662e+06	-56439.1	1105.82	-29738.9	0.000000	0.000000	6.715016	0.063118	NaN	0.000000	0.001739	0.001631	28.0809	0.005576	0.001917	2.907911	39.059	-165.87	0.105260	0.713505	-0.328571	-0.329876	0.063118	2.907911	-0.344850	-21487	-2.937489E-6	NaN
1183	1.000000	0.722818	7.37662e+06	-56439.1	1105.82	-29738.9	0.000000	0.000000	6.723020	-0.039549	NaN	0.000000	0.001710	0.001651	28.081	0.086765	0.001972	44.0019	35.5768	-170.318	-0.090493	0.721489	-0.320563	-0.321892	-0.039549	44.0019	-0.319888	-9268.23	4.267110E-6	NaN
1183	1.000000	0.730816	7.37662e+06	-56439.1	1105.82	-29738.9	0.000000	0.000000	6.731018	-0.037650	NaN	0.000000	0.001747	0.001637	28.0807	0.046397	0.001934	23.9895	161.472	-168.919	-0.034990	0.729524	-0.312565	-0.313857	-0.037650	23.9895	-0.311388	-6943.61	5.422215E-6	NaN
1183	1.000000	0.738843	7.37662e+06	-56439.1	1105.82	-29738.9	0.000000	0.000000	6.739045	-0.011686	NaN	0.000000	0.001731	0.001647	28.081	0.144326	0.002081	69.3387	24.0568	-161.811	0.029003	0.737484	-0.304538	-0.305897	-0.011686	69.3387	-0.304412	-5472.92	2.135281E-6	NaN
1183	1.000000	0.746861	7.37662e+06	-56439.1	1105.82	-29738.9	0.000000	0.000000	6.747063	-0.027887	NaN	0.000000	0.001732	0.001631	28.0807	0.062333	0.001888	33.0153	-129.06	-167.828	0.015973	0.745496	-0.296519	-0.297884	-0.027887	33.0153	-0.295886	-4086.13	6.824918E-6	NaN
1183	1.000000	0.754848	7.37662e+06	-56439.1	1105.82	-29738.9	0.000000	0.000000	6.755052	0.021996	NaN	0.000000	0.001759	0.001621	28.0811	0.044068	0.001843	23.9161	-82.6661	-164.808	0.008462	0.753497	-0.288532	-0.289884	0.021996	23.9161	-0.289222	-3248.23	-6.771561E-6	NaN
1183	1.000000	0.762838	7.37662e+06	-56439.1	1105.82	-29738.9	0.000000	0.000000	6.763039	-0.044566	NaN	0.000000	0.001760	0.001644	28.0808	0.035598	0.002038	17.4665	176.783	-168.429	-0.017592	0.761571	-0.280543	-0.281810	-0.044566	17.4665	-0.278629	-2250.5	1.980250E-5	NaN
1183	1.000000	0.770877	7.37662e+06	-56439.1	1105.82	-29738.9	0.000000	0.000000	6.771080	0.010013	NaN	0.000000	0.001747	0.001620	28.0807	0.069500	0.002008	34.6167	128.169	-166.924	0.011463	0.769520	-0.272504	-0.273861	0.010013	34.6167	-0.272721	-1831.74	-5.466299E-6	NaN
1183	1.000000	0.778865	7.37662e+06	-56439.1	1105.82	-29738.9	0.000000	0.000000	6.779068	-0.005619	NaN	0.000000	0.001683	0.001649	28.081	0.106250	0.001965	54.0626	-13.1307	-164.438	-0.014631	0.777546	-0.264515	-0.265835	-0.005619	54.0626	-0.264437	-1370.25	4.100971E-6	NaN
1183	1.000000	0.786842	7.37662e+06	-56439.1	1105.82	-29738.9	0.000000	0.000000	6.787044	-0.009055	NaN	0.000000	0.001680	0.001610	28.0808	0.017664	0.001904	9.276678	63.2209	-167.185	-0.016160	0.785516	-0.256539	-0.257864	-0.009055	9.276678	-0.255807	-1010.49	8.960836E-6	NaN
1183	1.000000	0.794871	7.37662e+06	-56439.1	1105.82	-29738.9	0.000000	0.000000	6.795074	0.001423	NaN	0.000000	0.001690	0.001655	28.0809	0.037801	0.002099	18.0122	135.901	-166.304	0.004431	0.793530	-0.248510	-0.249851	0.001423	18.0122	-0.248569	-781.314	-1.821459E-6	NaN
1183	1.000000	0.802887	7.37662e+06	-56439.1	1105.82	-29738.9	0.000000	0.000000	6.803089	-0.032542	NaN	0.000000	0.001669	0.001602	28.0805	0.026854	0.001950	13.7727	65.7879	-163.628	0.008878	0.801478	-0.240493	-0.241903	-0.032542	13.7727	-0.238721	-548.993	5.927609E-5	NaN
1183	1.000000	0.810852	7.37662e+06	-56439.1	1105.82	-29738.9	0.000000	0.000000	6.811056	0.022531	NaN	0.000000	0.001659	0.001605	28.0809	0.076108	0.002047	37.1844	173.624	-168.173	0.092564	0.809538	-0.232528	-0.233843	0.022531	37.1844	-0.232983	-446.211	-5.049377E-5	NaN
1183	1.000000	0.818856	7.37662e+06	-56439.1	1105.82	-29738.9	0.000000	0.000000	6.819059	-0.008818	NaN	0.000000	0.001668	0.001629	28.0809	0.076147	0.002025	37.6073	37.437	-166.537	0.000525	0.817540	-0.224525	-0.225840	-0.008818	37.6073	-0.224349	-325.832	2.706414E-5	NaN
1183	1.000000	0.826859	7.37662e+06	-56439.1	1105.82	-29738.9	0.000000	0.000000	6.827060	-0.051991	NaN	0.000000	0.001673	0.001620	28.0806	0.061643	0.002017	30.555	59.576	-165.91	-0.023624	0.825488	-0.216522	-0.217893	-0.051991	30.555	-0.215245	-233.057	0.000223	NaN
1183	1.000000	0.834854	7.37662e+06	-56439.1	1105.82	-29738.9	0.000000	0.000000	6.835056	-0.023694	NaN	0.000000	0.001689	0.001637	28.081	0.049522	0.001906	25.986	-54.681	-165.057	-0.031946	0.833546	-0.208527	-0.209835	-0.023694	25.986	-0.207843	-176.944	0.000134	NaN
1183	1.000000	0.842878	7.37662e+06	-56439.1	1105.82	-29738.9	0.000000	0.000000	6.843082	0.021367	NaN	0.000000	0.001674	0.001653	28.0808	0.084947	0.002197	38.6726	138.132	-168.032	-0.054634	0.841537	-0.200503	-0.201843	0.021367	38.6726	-0.200917	-136.383	-0.000157	NaN
1183	1.000000	0.850916	7.37662e+06	-56439.1	1105.82	-29738.9	0.000000	0.000000	6.851121	0.036740	NaN	0.000000	0.001698	0.001609	28.082	0.051908	0.002146	24.1902	-161.211	-165.105	0.034303	0.849548	-0.192465	-0.193833	0.036740	24.1902	-0.193604	-103.288	-0.000356	NaN
1183	1.000000	0.858862	7.37662e+06	-56439.1	1105.82	-29738.9	0.000000	0.000000	6.859063	-0.034576	NaN	0.000000	0.001645	0.001620	28.0823	0.067329	0.002055	32.7666	-67.6397	-168.969	-0.012137	0.857587	-0.184519	-0.185794	-0.034576	32.7666	-0.183728	-70.577	0.000490	NaN
1183	1.000000	0.866877	7.37662e+06	-56439.1	1105.82	-29738.9	0.000000	0.000000	6.867078	-0.036448	NaN	0.000000	0.001665	0.001607	28.0821	0.070947	0.001944	36.5019	-152.659	-166.925	-0.007408	0.865582	-0.176504	-0.177799	-0.036448	36.5019	-0.175755	-51.6354	0.000706	NaN
1183	1.000000	0.874885	7.37662e+06	-56439.1	1105.82	-29738.9	0.000000	0.000000	6.875086	-0.049363	NaN	0.000000	0.001648	0.001621	28.0823	0.039368	0.001967	20.018	-173.03	-167.126	-0.119132	0.873635	-0.168496	-0.169745	-0.049363	20.018	-0.166646	-35.9055	0.001375	NaN
1183	1.000000	0.882888	7.37662e+06	-56439.1	1105.82	-29738.9	0.000000	0.000000	6.883093	0.049252	NaN	0.000000	0.001686	0.001605	28.0822	0.153732	0.001955	78.6208	-42.2318	-168.342	0.058212	0.881603	-0.160493	-0.161778	0.049252	78.6208	-0.160963	-28.5148	-0.001727	NaN
1183	1.000000	0.890905	7.37662e+06	-56439.1	1105.82	-29738.9	0.000000	0.000000	6.891111	0.047747	NaN	0.000000	0.001669	0.001653	28.0821	0.033313	0.002096	15.8959	116.289	-168.192	-0.023026	0.889562	-0.152475	-0.153819	0.047747	15.8959	-0.154728	-22.0641	-0.002164	NaN
1183	1.000000	0.898893	7.37662e+06	-56439.1	1105.82	-29738.9	0.000000	0.000000	6.899094	-0.044507	NaN	0.000000	0.001684	0.001625	28.0822	0.061278	0.001865	32.8559	166.941	-162.663	-0.109391	0.897632	-0.144488	-0.145749	-0.044507	32.8559	-0.143472	-13.735	0.003240	NaN
1183	1.000000	0.906926	7.37662e+06	-56439.1	1105.82	-29738.9	0.000000	0.000000	6.907129	0.007816	NaN	0.000000	0.001659	0.001636	28.0821	0.063696	0.001995	31.9331	-2.944672	-166.331	0.012034	0.905569	-0.136455	-0.137812	0.007816	31.9331	-0.136638	-10.2208	-0.000765	NaN
1183	1.000000	0.914909	7.37662e+06	-56439.1	1105.82	-29738.9	0.000000	0.000000	6.915114	0.038124	NaN	0.000000	0.001674	0.001637	28.0822	0.059478	0.002052	28.9794	-16.9907	-165.025	-0.041087	0.913617	-0.128472	-0.129764	0.038124	28.9794	-0.129459	-7.438474	-0.005125	NaN
1183	1.000000	0.922891	7.37662e+06	-56439.1	1105.82	-29738.9	0.000000	0.000000	6.923094	-0.008901	NaN	0.000000	0.001709	0.001645	28.082	0.121818	0.001983	61.4405	152.16	-168.147	-0.005697	0.921561	-0.120490	-0.121820	-0.008901	61.4405	-0.120381	-4.917721	0.001810	NaN
1183	1.000000	0.930907	7.37662e+06	-56439.1	1105.82	-29738.9	0.000000	0.000000	6.931110	-0.010089	NaN	0.000000	0.001707	0.001619	28.0822	0.079181	0.002000	39.6001	47.4169	-163.962	-0.092711	0.929636	-0.112474	-0.113744	-0.010089	39.6001	-0.112282	-3.355418	0.003007	NaN
1183	1.000000	0.938919	7.37662e+06	-56439.1	1105.82	-29738.9	0.000000	0.000000	6.939125	0.052121	NaN	0.000000	0.001672	0.001627	28.0824	0.012698	0.001995	6.364369	-46.4169	-165.598	-0.013492	0.937660	-0.104461	-0.105721	0.052121	6.364369	-0.110604	-3.094445	-0.016844	NaN
1183	1.000000	0.946924	7.37662e+06	-56439.1	1105.82	-29738.9	0.000000	0.000000	6.947129	0.040099	NaN	0.000000	0.001678	0.001601	28.0821	0.017345	0.001919	9.036794	-129.884	-166.664	-0.027146	0.945542	-0.096457	-0.097839	0.040099	9.036794	-0.099785	-1.807192	-0.022189	NaN
1183	1.000000	0.954904	7.37662e+06	-56439.1	1105.82	-29738.9	0.000000	0.000000	6.955107	-0.008540	NaN	0.000000	0.001660	0.001620	28.082	0.030647	0.002077	14.7523	69.5934	-167.219	-0.003567	0.953596	-0.088477	-0.089784	-0.008540	14.7523	-0.088043	-0.971883	0.008787	NaN
1183	1.000000	0.962906	7.37662e+06	-56439.1	1105.82	-29738.9	0.000000	0.000000	6.963111	0.026584	NaN	0.000000	0.001679	0.001656	28.0817	0.053017	0.001972	26.8802	-30.4805	-166.764	0.010422	0.961632	-0.080474	-0.081749	0.026584	26.8802	-0.081216	-0.663705	-0.040054	NaN
1183	1.000000	0.970926	7.37662e+06	-56439.1	1105.82	-29738.9	0.000000	0.000000	6.971131	0.038960	NaN	0.000000	0.001679	0.001626	28.0821	0.064722	0.001949	33.1999	-174.065	-170.019	0.081128	0.969650	-0.072454	-0.073731	0.038960	33.1999	-0.073334	-0.418004	-0.093204	NaN
1183	1.000000	0.978914	7.37662e+06	-56439.1	1105.82	-29738.9	0.000000	0.000000	6.979117	-0.009094	NaN	0.000000	0.001671	0.001613	28.0821	0.066276	0.001961	33.7903	-66.6352	-164.828	0.012271	0.977586	-0.064467	-0.065795	-0.009094	33.7903	-0.064265	-0.237755	0.038250	NaN
1183	1.000000	0.986954	7.37662e+06	-56439.1	1105.82	-29738.9	0.000000	0.000000	6.987157	-0.016264	NaN	0.000000	0.001692	0.001628	28.0813	0.028558	0.001949	14.6557	-42.806	-163.849	0.011553	0.985627	-0.056426	-0.057754	-0.016264	14.6557	-0.055594	-0.134083	0.121296	NaN
1183	1.000000	0.994938	7.37662e+06	-56439.1	1105.82	-29738.9	0.000000	0.000000	6.995141	0.010956	NaN	0.000000	0.001684	0.001630	28.0807	0.050513	0.002029	24.8922	-25.3766	-167.861	0.018128	0.993632	-0.048443	-0.049749	0.010956	24.8922	-0.048773	-0.083764	-0.130797	NaN
1183	1.000000	1.002930	7.37662e+06	-56439.1	1105.82	-29738.9	0.000000	0.000000	7.003134	0.019243	NaN	0.000000	0.001690	0.001637	28.0809	0.085308	0.001974	43.2202	142.798	-165.304	-0.005080	1.001666	-0.040451	-0.041715	0.019243	43.2202	-0.040785	-0.047778	-0.402772	NaN
1183	1.000000	1.010942	7.37662e+06	-56439.1	1105.82	-29738.9	0.000000	0.000000	7.011148	0.080332	NaN	0.000000	0.001668	0.001628	28.0809	0.083490	0.001982	42.132	-172.281	-164.351	0.093121	1.009579	-0.032439	-0.033802	0.080332	42.132	-0.033869	-0.029672	-2.707331	NaN
1183	1.000000	1.018949	7.37662e+06	-56439.1	1105.82	-29738.9	0.000000	0.000000	7.019155	0.059770	NaN	0.000000	0.001648	0.001639	28.0807	0.094771	0.001957	48.4182	127.144	-166.511	0.026163	1.017685	-0.024431	-0.025696	0.059770	48.4182	-0.025357	-0.017237	-3.467438	NaN
1183	1.000000	1.026950	7.37662e+06	-56439.1	1105.82	-29738.9	0.000000	0.000000	7.027152	-0.023065	NaN	0.000000	0.001662	0.001665	28.0811	0.047387	0.001974	24.0052	-0.234634	-164.841	0.006002	1.025664	-0.016431	-0.017717	-0.023065	24.0052	-0.015710	-0.009705	2.376521	NaN
1183	1.000000	1.034932	7.37662e+06	-56439.1	1105.82	-29738.9	0.000000	0.000000	7.035137	0.057272	NaN	0.000000	0.001625	0.001611	28.0807	0.020360	0.001898	10.7283	17.1978	-166.956	0.036043	1.033639	-0.008449	-0.009742	0.057272	10.7283	-0.012453	-0.007788	-7.354233	NaN
1183	1.000000	1.042926	7.37662e+06	-56439.1	1105.82	-29738.9	0.000000	0.000000	7.043233	2.532017	NaN	0.000000	0.001606	0.001650	28.081	3.574546	0.001978	1807.54	13.1926	-169.279	1.375493	1.041678	-0.000455	-0.001703	2.532017	1807.54	-0.001505	-0.001093	-2316.02	NaN
1183	2.000000	1.048462	7.37662e+06	-56439.1	1105.82	-29738.9	0.000000	0.000000	7.049066	9.733225	NaN	0.000000	0.001601	0.001668	28.0815	9.639436	0.001542	6249.51	9.411749	-178.453	8.942830	1.048197	0.005081	0.004816	9.733225	6249.51	0.003913	0.003163	3077.21	101524
1183	2.000000	1.050526	7.37662e+06	-56439.1	1105.82	-29738.9	0.000000	0.000000	7.051195	11.3103	NaN	0.000000	0.001624	0.001728	28.0809	11.9122	0.001603	7432.15	7.156081	-174.532	11.9309	1.050188	0.007145	0.006808	11.3103	7432.15	0.006004	0.005068	2231.54	95379.2
1183	2.000000	1.052513	7.37662e+06	-56439.1	1105.82	-29738.9	0.000000	0.000000	7.053335	15.0201	NaN	0.000000	0.001613	0.001688	28.081	14.6629	0.001834	7993.27	7.192750	-175.128	14.958	1.052194	0.009133	0.008813	15.0201	7993.27	0.007723	0.006759	2222.13	88827.1
1183	2.000000	1.054471	7.37662e+06	-56439.1	1105.82	-29738.9	0.000000	0.000000	7.055463	19.196	NaN	0.000000	0.001623	0.001649	28.0806	16.5331	0.001804	9162.74	6.848049	-176.565	18.8258	1.054160	0.011090	0.010779	19.196	9162.74	0.009519	0.008651	2218.83	90002.8
1183	2.000000	1.056479	7.37662e+06	-56439.1	1105.82	-29738.9	0.000000	0.000000	7.057514	20.2405	NaN	0.000000	0.001621	0.001631	28.0808	19.1409	0.001900	10071.6	11.016	178.945	22.2971	1.056168	0.013098	0.012788	20.2405	10071.6	0.011591	0.011003	1839.5	87722.2
1183	2.000000	1.058419	7.37662e+06	-56439.1	1105.82	-29738.9	0.000000	0.000000	7.059551	22.5781	NaN	0.000000	0.001631	0.001682	28.0809	19.8125	0.001723	11496.4	6.023166	-177.661	22.1671	1.058068	0.015038	0.014687	22.5781	11496.4	0.013566	0.013420	1682.45	90669.8
1183	2.000000	1.060421	7.37662e+06	-56439.1	1105.82	-29738.9	0.000000	0.000000	7.061893	30.8564	NaN	0.000000	0.001632	0.001655	28.0807	22.5925	0.001804	12523.7	4.978980	-178.527	30.4731	1.060082	0.017040	0.016701	30.8564	12523.7	0.015192	0.015542	1985.31	91780.1
1183	2.000000	1.062472	7.37662e+06	-56439.1	1105.82	-29738.9	0.000000	0.000000	7.064105	34.7496	NaN	0.000000	0.001627	0.001643	28.0809	24.3109	0.001857	13088.4	6.786934	-178.485	35.3524	1.062052	0.019091	0.018672	34.7496	13088.4	0.017100	0.018188	1910.55	88667.4
1183	2.000000	1.064435	7.37662e+06	-56439.1	1105.82	-29738.9	0.000000	0.000000	7.065975	32.4697	NaN	0.000000	0.001634	0.001676	28.0807	25.6581	0.001796	14286.7	6.980891	179.989	33.285	1.064180	0.021055	0.020799	32.4697	14286.7	0.019350	0.021532	1508.01	88954.4
1183	2.000000	1.066410	7.37662e+06	-56439.1	1105.82	-29738.9	0.000000	0.000000	7.068293	40.8224	NaN	0.000000	0.001643	0.001662	28.0822	27.9999	0.001681	16654.8	8.401283	175.903	41.7025	1.066045	0.023030	0.022664	40.8224	16654.8	0.021191	0.024449	1669.71	97315.9
1183	2.000000	1.068384	7.37663e+06	-56439.1	1105.82	-29738.9	0.000000	0.000000	7.070409	44.2846	NaN	0.000000	0.001626	0.001662	28.082	29.1047	0.001683	17293.7	8.196370	176.31	46.0952	1.068173	0.025004	0.024792	44.2846	17293.7	0.023083	0.027620	1603.34	95070.7
1183	2.000000	1.070418	7.37663e+06	-56439.1	1105.82	-29738.9	0.000000	0.000000	7.072876	54.8037	NaN	0.000000	0.001653	0.001639	28.0821	30.9077	0.001807	17107.3	4.427567	-179.596	55.3073	1.070012	0.027038	0.026632	54.8037	17107.3	0.024635	0.030355	1805.42	89709.8
1183	2.000000	1.072414	7.37663e+06	-56439.1	1105.82	-29738.9	0.000000	0.000000	7.075014	58.2699	NaN	0.000000	0.001602	0.001629	28.0826	33.2119	0.001744	19039.8	6.739743	178.023	58.004	1.072024	0.029033	0.028644	58.2699	19039.8	0.026738	0.034253	1701.14	93990.2
1183	2.000000	1.074405	7.37663e+06	-56439.1	1105.82	-29738.9	0.000000	0.000000	7.077268	64.642	NaN	0.000000	0.001650	0.001646	28.0822	34.4209	0.001800	19120.2	3.499299	-178.538	66.0485	1.074055	0.031024	0.030674	64.642	19120.2	0.028489	0.037669	1716.03	90005.9
1183	2.000000	1.076354	7.37663e+06	-56439.1	1105.82	-29738.9	0.000000	0.000000	7.079434	69.9252	NaN	0.000000	0.001653	0.001649	28.0826	37.3893	0.001712	21845.6	5.940803	176.432	68.6904	1.076064	0.032974	0.032683	69.9252	21845.6	0.030573	0.041940	1667.29	97459.9
1183	2.000000	1.078352	7.37663e+06	-56439.1	1105.82	-29738.9	0.000000	0.000000	7.081721	76.9327	NaN	0.000000	0.001660	0.001620	28.0822	38.2512	0.001721	22230.2	6.229929	175.003	75.3444	1.078060	0.034972	0.034679	76.9327	22230.2	0.032376	0.045813	1679.29	94890.5
1183	2.000000	1.080310	7.37663e+06	-56439.1	1105.82	-29738.9	0.000000	0.000000	7.083885	81.9397	NaN	0.000000	0.001632	0.001605	28.0822	41.2024	0.001784	23092.6	4.442932	177.38	78.2855	1.080041	0.036930	0.036660	81.9397	23092.6	0.034268	0.050056	1636.96	94301.4
1183	2.000000	1.082457	7.37663e+06	-56439.1	1105.82	-29738.9	0.000000	0.000000	7.086345	89.5738	NaN	0.000000	0.001676	0.001598	28.0835	42.9769	0.001876	22905	7.320757	175.923	90.0845	1.082013	0.039076	0.038632	89.5738	22905	0.036143	0.054441	1645.33	89689
1183	2.000000	1.084421	7.37663e+06	-56439.1	1105.82	-29738.9	0.000000	0.000000	7.088602	96.7003	NaN	0.000000	0.001650	0.001592	28.082	44.6825	0.001875	23832.8	4.017234	177.762	98.3172	1.084129	0.041040	0.040749	96.7003	23832.8	0.037997	0.058955	1640.25	89678.5
1183	2.000000	1.086330	7.37663e+06	-56439.1	1105.82	-29738.9	0.000000	0.000000	7.091040	109.537	NaN	0.000000	0.001653	0.001606	28.0826	46.9812	0.001834	25616.5	5.109002	175.85	108.049	1.086081	0.042950	0.042700	109.537	25616.5	0.039743	0.063365	1728.66	92975.3
1183	2.000000	1.088381	7.37663e+06	-56439.1	1105.82	-29738.9	0.000000	0.000000	7.093337	115.519	NaN	0.000000	0.001605	0.001614	28.0822	48.0797	0.001775	27086.5	4.132125	176.701	116.755	1.088065	0.045001	0.044685	115.519	27086.5	0.041802	0.068768	1679.83	94369.6
1183	2.000000	1.090316	7.37663e+06	-56439.1	1105.82	-29738.9	0.000000	0.000000	7.095649	124.68	NaN	0.000000	0.001612	0.001616	28.0822	49.9737	0.001736	28788.8	1.290459	178.665	121.751	1.090013	0.046935	0.046633	124.68	28788.8	0.043687	0.073904	1687.06	96752.6
1183	2.000000	1.092384	7.37663e+06	-56439.1	1105.82	-29738.9	0.000000	0.000000	7.098042	132.594	NaN	0.000000	0.001643	0.001638	28.0824	53.3704	0.001868	28577.8	6.728236	173.848	131.103	1.092071	0.049003	0.048690	132.594	28577.8	0.045523	0.079080	1676.7	92847
1183	2.000000	1.094343	7.37663e+06	-56439.1	1105.82	-29738.9	0.000000	0.000000	7.100310	140.102	NaN	0.000000	0.001654	0.001628	28.0823	54.0174	0.001780	30346.5	2.064880	177.686	139.865	1.094062	0.050963	0.050682	140.102	30346.5	0.047500	0.084843	1651.32	95186.4
1183	2.000000	1.096355	7.37663e+06	-56439.1	1105.82	-29738.9	0.000000	0.000000	7.102619	147.322	NaN	0.000000	0.001675	0.001584	28.0828	57.2393	0.001781	32137.8	5.243149	174.045	145.917	1.095925	0.052974	0.052544	147.322	32137.8	0.049536	0.090985	1619.19	97343
1183	2.000000	1.098348	7.37663e+06	-56439.1	1105.82	-29738.9	0.000000	0.000000	7.105008	156.938	NaN	0.000000	0.001663	0.001613	28.0824	57.839	0.001723	33568.7	4.425920	174.134	156.416	1.097967	0.054968	0.054587	156.938	33568.7	0.051461	0.096984	1618.19	98482.5
1183	2.000000	1.100344	7.37663e+06	-56439.1	1105.82	-29738.9	0.000000	0.000000	7.107457	167.959	NaN	0.000000	0.001615	0.001588	28.0813	60.569	0.001884	32148.3	4.535154	175.411	167.525	1.100015	0.056963	0.056635	167.959	32148.3	0.053045	0.102055	1645.76	91941.9
1183	2.000000	1.102405	7.37663e+06	-56439.1	1105.82	-29738.9	0.000000	0.000000	7.109830	175.533	NaN	0.000000	0.001677	0.001622	28.081	62.705	0.001840	34070.3	7.325696	171.504	176.366	1.102008	0.059025	0.058628	175.533	34070.3	0.055161	0.109029	1609.96	94270.8
1183	2.000000	1.104419	7.37663e+06	-56439.1	1105.82	-29738.9	0.000000	0.000000	7.112151	182.996	NaN	0.000000	0.001647	0.001633	28.081	64.1813	0.001738	36930.5	6.311299	171.68	187.655	1.104077	0.061039	0.060696	182.996	36930.5	0.057322	0.116381	1572.38	98904.5
1183	2.000000	1.106321	7.37663e+06	-56439.1	1105.82	-29738.9	0.000000	0.000000	7.114617	196.702	NaN	0.000000	0.001619	0.001605	28.0812	65.4885	0.001818	36030	2.456272	175.928	193.06	1.106104	0.062940	0.062723	196.702	36030	0.058846	0.121702	1616.26	94360.1
1183	2.000000	1.108346	7.37663e+06	-56439.1	1105.82	-29738.9	0.000000	0.000000	7.117260	211.733	NaN	0.000000	0.001671	0.001633	28.0809	66.7539	0.001916	34846	3.463140	175.745	212.709	1.107981	0.064965	0.064600	211.733	34846	0.060408	0.127277	1663.56	89238.4
1183	2.000000	1.110267	7.37663e+06	-56439.1	1105.82	-29738.9	0.000000	0.000000	7.119662	223.424	NaN	0.000000	0.001629	0.001627	28.0814	69.1075	0.001821	37951.3	7.327695	170.93	220.61	1.109991	0.066887	0.066611	223.424	37951.3	0.062471	0.134819	1657.21	94433.1
1183	2.000000	1.112343	7.37663e+06	-56439.1	1105.82	-29738.9	0.000000	0.000000	7.122172	233.983	NaN	0.000000	0.001641	0.001604	28.0812	71.3177	0.001798	39654.4	6.763016	171.124	230.947	1.111856	0.068962	0.068476	233.983	39654.4	0.064537	0.142578	1641.09	95948.7
1183	2.000000	1.114340	7.37663e+06	-56439.1	1105.82	-29738.9	0.000000	0.000000	7.124632	245.226	NaN	0.000000	0.001621	0.001631	28.0813	73.0491	0.001836	39785.9	6.797509	170.833	245.115	1.114052	0.070959	0.070671	245.226	39785.9	0.066336	0.149505	1640.25	94009.9
1183	2.000000	1.116296	7.37663e+06	-56439.1	1105.82	-29738.9	0.000000	0.000000	7.126976	254.648	NaN	0.000000	0.001611	0.001601	28.081	75.9811	0.001771	42909.3	6.875779	169.729	252.82	1.116053	0.072915	0.072672	254.648	42909.3	0.068464	0.157897	1612.75	98659.3
1183	2.000000	1.118379	7.37663e+06	-56439.1	1105.82	-29738.9	0.000000	0.000000	7.129633	268.603	NaN	0.000000	0.001658	0.001631	28.0807	76.4327	0.001779	42967.2	4.608110	172.365	271.365	1.117930	0.074998	0.074550	268.603	42967.2	0.070310	0.165351	1624.44	96539.8
1183	2.000000	1.120321	7.37663e+06	-56439.1	1105.82	-29738.9	0.000000	0.000000	7.132169	283.053	NaN	0.000000	0.001662	0.001610	28.0808	79.1195	0.001910	41413.1	5.555925	171.771	281.999	1.119923	0.076940	0.076543	283.053	41413.1	0.071814	0.171544	1650.03	91353.1
1183	2.000000	1.122295	7.37663e+06	-56439.1	1105.82	-29738.9	0.000000	0.000000	7.134696	296.505	NaN	0.000000	0.001667	0.001590	28.0809	80.1367	0.001778	45078.8	5.059091	171.841	296.069	1.121929	0.078914	0.078548	296.505	45078.8	0.073981	0.180658	1641.25	96898.6
1183	2.000000	1.124286	7.37663e+06	-56439.1	1105.82	-29738.9	0.000000	0.000000	7.137345	312.486	NaN	0.000000	0.001640	0.001620	28.081	81.0491	0.001653	49023.6	6.048667	170.838	309.105	1.123906	0.080905	0.080526	312.486	49023.6	0.076124	0.189890	1645.62	102785
1183	2.000000	1.126143	7.37663e+06	-56439.1	1105.82	-29738.9	0.000000	0.000000	7.139816	327.387	NaN	0.000000	0.001659	0.001604	28.0808	83.9886	0.001832	45849.4	5.906272	171.221	318.137	1.125812	0.082763	0.082432	327.387	45849.4	0.077407	0.195519	1674.45	94735.5
1183	2.000000	1.128264	7.37663e+06	-56439.1	1105.82	-29738.9	0.000000	0.000000	7.142131	332.126	NaN	0.000000	0.001613	0.001603	28.0809	84.8476	0.001798	47190.7	5.450719	170.628	328.472	1.128077	0.084883	0.084696	332.126	47190.7	0.079605	0.205337	1617.46	95147.2
1183	2.000000	1.130240	7.37663e+06	-56439.1	1105.82	-29738.9	0.000000	0.000000	7.144728	347.214	NaN	0.000000	0.001678	0.001598	28.0809	87.0881	0.001698	51273.8	3.205376	171.9	342.449	1.130035	0.086859	0.086654	347.214	51273.8	0.081780	0.215282	1612.83	100964
1183	2.000000	1.132277	7.37663e+06	-56439.1	1105.82	-29738.9	0.000000	0.000000	7.147305	360.352	NaN	0.000000	0.001653	0.001606	28.081	89.0047	0.001718	51822.1	2.554042	172.923	355.925	1.131937	0.088896	0.088556	360.352	51822.1	0.083681	0.224148	1607.65	100005
1183	2.000000	1.134331	7.37663e+06	-56439.1	1105.82	-29738.9	0.000000	0.000000	7.150031	376.653	NaN	0.000000	0.001672	0.001606	28.0822	90.1928	0.001800	50101.6	2.419222	173.411	375.035	1.134013	0.090951	0.090632	376.653	50101.6	0.085312	0.231894	1624.25	95056
1183	2.000000	1.136300	7.37663e+06	-56439.1	1105.82	-29738.9	0.000000	0.000000	7.152696	393.598	NaN	0.000000	0.001707	0.001629	28.082	93.3988	0.001770	52782.1	4.281100	171.656	392.857	1.135908	0.092919	0.092528	393.598	52782.1	0.087326	0.241624	1628.97	98104.7
1183	2.000000	1.138176	7.37663e+06	-56439.1	1105.82	-29738.9	0.000000	0.000000	7.155279	410.787	NaN	0.000000	0.001693	0.001578	28.0821	94.5724	0.001794	52722.2	9.708703	165.962	404.726	1.137935	0.094795	0.094554	410.787	52722.2	0.088951	0.249610	1645.71	96412.9
1183	2.000000	1.140111	7.37663e+06	-56439.1	1105.82	-29738.9	0.000000	0.000000	7.157873	426.798	NaN	0.000000	0.001697	0.001590	28.0822	97.8398	0.001879	52060.6	6.999738	168.349	416.25	1.139831	0.096731	0.096450	426.798	52060.6	0.090582	0.257748	1655.88	93688.3
1183	2.000000	1.142240	7.37663e+06	-56439.1	1105.82	-29738.9	0.000000	0.000000	7.160852	447.464	NaN	0.000000	0.001673	0.001612	28.0821	98.3747	0.001820	54054.7	2.717061	172.951	440.927	1.141870	0.098859	0.098490	447.464	54054.7	0.092651	0.268245	1668.12	95354.4
1183	2.000000	1.144313	7.37663e+06	-56439.1	1105.82	-29738.9	0.000000	0.000000	7.163154	453.021	NaN	0.000000	0.001698	0.001587	28.082	100.936	0.001741	57968.2	2.906794	172.054	453.26	1.143972	0.100933	0.100591	453.021	57968.2	0.095071	0.280777	1613.46	99949.9
1183	2.000000	1.146181	7.37663e+06	-56439.1	1105.82	-29738.9	0.000000	0.000000	7.165617	467.467	NaN	0.000000	0.001661	0.001602	28.082	102.86	0.001781	57766.6	1.643076	173.149	461.256	1.145914	0.102801	0.102533	467.467	57766.6	0.096731	0.289526	1614.59	98085.8