File: remote_trans/data/nanoindenter/0828-1/data/Data_2025-08-06,11h17m57s/2025-07-22_16-23-58_1_587.txt
2025-07-22, 16:23:58, 1
Index	Phase	Displacement	Time	Pos X	Pos Y	Pos Z	Rot A	Rot B	Piezo Z	Force A	Force B	Gripper	Voltage A	Voltage B	Temperature	Amplitude force	Amplitude pos	Stiffness	Phase shift	Phase excitation	Force A raw	Displacement raw	HMax	HMax raw	Real Force	Real Stiffness	Contact Depth	Area	Hardness	Reduced Mod.
[#]	[#]	[um]	[s]	[um]	[um]	[um]	[m°]	[m°]	[um]	[uN]	[uN]	[V]	[V]	[V]	[°C]	[uN]	[um]	[N/m]	[°]	[°]	[uN]	[um]	[um]	[um]	[uN]	[N/m]	[um]	[um^2]	[MPa]	[MPa]
587	1.000000	0.002332	7.37079e+06	-47739.1	1005.82	-29764.8	0.000000	0.000000	6.002792	0.012852	NaN	0.000000	0.001560	0.001826	28.078	0.031531	0.000882	35.732	-48.2544	-166.602	0.000655	0.001062	-1.147769	-1.149038	0.012852	35.732	-1.148039	-2.210673E+15	-5.813714E-18	NaN
587	1.000000	0.012385	7.37079e+06	-47739.1	1005.82	-29764.8	0.000000	0.000000	6.012847	0.039438	NaN	0.000000	0.001619	0.001782	28.0779	0.014322	0.001182	12.1141	73.9794	19.7257	-0.000337	0.010968	-1.137715	-1.139132	0.039438	12.1141	-1.140157	-1.733161E+15	-2.275481E-17	NaN
587	1.000000	0.022286	7.37079e+06	-47739.1	1005.82	-29764.8	0.000000	0.000000	6.022750	0.093353	NaN	0.000000	0.001628	0.001775	28.0775	0.025769	0.001709	15.076	-81.9128	-163.154	0.125865	0.020936	-1.127814	-1.129165	0.093353	15.076	-1.132458	-1.366456E+15	-6.831758E-17	NaN
587	1.000000	0.032286	7.37079e+06	-47739.1	1005.82	-29764.8	0.000000	0.000000	6.032747	0.040198	NaN	0.000000	0.001610	0.001774	28.0778	0.130420	0.001986	65.6662	-155.069	14.0547	-0.066932	0.030883	-1.117814	-1.119218	0.040198	65.6662	-1.118274	-8.816765E+14	-4.559268E-17	NaN
587	1.000000	0.042289	7.37079e+06	-47739.1	1005.82	-29764.8	0.000000	0.000000	6.042747	-0.027289	NaN	0.000000	0.001595	0.001745	28.0779	0.065492	0.002028	32.2933	124.046	-165.768	-0.011615	0.040965	-1.107811	-1.109135	-0.027289	32.2933	-1.107178	-6.257632E+14	4.360993E-17	NaN
587	1.000000	0.052271	7.37079e+06	-47739.1	1005.82	-29764.8	0.000000	0.000000	6.052733	0.035987	NaN	0.000000	0.001632	0.001780	28.0778	0.049506	0.002050	24.1521	-157.738	16.0578	-0.034578	0.050944	-1.097829	-1.099156	0.035987	24.1521	-1.098946	-4.852049E+14	-7.416844E-17	NaN
587	1.000000	0.062257	7.37079e+06	-47739.1	1005.82	-29764.8	0.000000	0.000000	6.062719	0.053374	NaN	0.000000	0.001581	0.001767	28.0777	0.053056	0.001885	28.1405	72.3763	-163.255	0.029696	0.061013	-1.087843	-1.089088	0.053374	28.1405	-1.089266	-3.597124E+14	-1.483809E-16	NaN
587	1.000000	0.072294	7.37079e+06	-47739.1	1005.82	-29764.8	0.000000	0.000000	6.072757	0.082871	NaN	0.000000	0.001566	0.001782	28.0776	0.062337	0.002093	29.7864	3.726830	12.4829	0.057451	0.070918	-1.077807	-1.079182	0.082871	29.7864	-1.079893	-2.692073E+14	-3.078349E-16	NaN
587	1.000000	0.082299	7.37079e+06	-47739.1	1005.82	-29764.8	0.000000	0.000000	6.082759	0.014616	NaN	0.000000	0.001616	0.001790	28.0777	0.119760	0.001822	65.7449	85.9727	-165.001	0.009885	0.080933	-1.067802	-1.069168	0.014616	65.7449	-1.067969	-1.861641E+14	-7.851119E-17	NaN
587	1.000000	0.092308	7.37079e+06	-47739.1	1005.82	-29764.8	0.000000	0.000000	6.092767	-0.008821	NaN	0.000000	0.001600	0.001798	28.0775	0.120855	0.001981	61.0145	90.1721	14.6436	0.088580	0.090917	-1.057793	-1.059183	-0.008821	61.0145	-1.057684	-1.354252E+14	6.513477E-17	NaN
587	1.000000	0.102308	7.37079e+06	-47739.1	1005.82	-29764.8	0.000000	0.000000	6.102770	0.071787	NaN	0.000000	0.001625	0.001778	28.0776	0.059689	0.001934	30.8579	65.493	-166.289	0.035838	0.101004	-1.047793	-1.049097	0.071787	30.8579	-1.049537	-1.052439E+14	-6.821001E-16	NaN
587	1.000000	0.112300	7.37079e+06	-47739.1	1005.82	-29764.8	0.000000	0.000000	6.112760	0.009536	NaN	0.000000	0.001603	0.001795	28.0777	0.075252	0.001845	40.7772	-131.323	15.6819	0.014909	0.111027	-1.037801	-1.039073	0.009536	40.7772	-1.037976	-7.357915E+13	-1.296022E-16	NaN
587	1.000000	0.122339	7.37079e+06	-47739.1	1005.82	-29764.8	0.000000	0.000000	6.122800	0.038734	NaN	0.000000	0.001582	0.001793	28.0778	0.007927	0.001966	4.032895	-53.5716	-165.827	0.070460	0.121033	-1.027762	-1.029067	0.038734	4.032895	-1.034965	-6.702859E+13	-5.778684E-16	NaN
587	1.000000	0.132329	7.37079e+06	-47739.1	1005.82	-29764.8	0.000000	0.000000	6.132788	-0.018646	NaN	0.000000	0.001616	0.001793	28.0787	0.080187	0.002071	38.7167	-79.4433	14.9474	-0.012847	0.130987	-1.017771	-1.019113	-0.018646	38.7167	-1.017410	-3.891373E+13	4.791638E-16	NaN
587	1.000000	0.142322	7.37079e+06	-47739.1	1005.82	-29764.8	0.000000	0.000000	6.142780	-0.028136	NaN	0.000000	0.001540	0.001800	28.0788	0.037629	0.002031	18.5281	0.917977	-167.222	0.043929	0.141011	-1.007779	-1.009090	-0.028136	18.5281	-1.006640	-2.787114E+13	1.009499E-15	NaN
587	1.000000	0.152312	7.37079e+06	-47739.1	1005.82	-29764.8	0.000000	0.000000	6.152772	0.018674	NaN	0.000000	0.001522	0.001807	28.079	0.075491	0.001970	38.3187	146.91	11.7334	0.014537	0.150896	-0.997789	-0.999204	0.018674	38.3187	-0.998154	-2.142474E+13	-8.716148E-16	NaN
587	1.000000	0.162305	7.37079e+06	-47739.1	1005.82	-29764.8	0.000000	0.000000	6.162767	0.063277	NaN	0.000000	0.001513	0.001788	28.0791	0.084652	0.001916	44.1806	99.8315	-170.19	-0.011068	0.161058	-0.987796	-0.989043	0.063277	44.1806	-0.988870	-1.606536E+13	-3.938702E-15	NaN
587	1.000000	0.172324	7.37079e+06	-47739.1	1005.82	-29764.8	0.000000	0.000000	6.172785	0.018406	NaN	0.000000	0.001511	0.001791	28.079	0.078899	0.002048	38.5166	3.618529	14.4277	0.013181	0.170926	-0.977776	-0.979174	0.018406	38.5166	-0.978134	-1.151532E+13	-1.598384E-15	NaN
587	1.000000	0.182332	7.37079e+06	-47739.1	1005.82	-29764.8	0.000000	0.000000	6.182790	-0.048012	NaN	0.000000	0.001552	0.001771	28.0793	0.104556	0.002003	52.195	108.917	-165.5	-0.032143	0.181027	-0.967768	-0.969073	-0.048012	52.195	-0.967078	-8.171194E+12	5.875749E-15	NaN
587	1.000000	0.192322	7.37079e+06	-47739.1	1005.82	-29764.8	0.000000	0.000000	6.192783	0.042408	NaN	0.000000	0.001558	0.001788	28.0792	0.116469	0.001903	61.213	83.7817	13.7549	0.058585	0.191005	-0.957779	-0.959096	0.042408	61.213	-0.958298	-6.221919E+12	-6.815840E-15	NaN
587	1.000000	0.202320	7.37079e+06	-47739.1	1005.82	-29764.8	0.000000	0.000000	6.202777	-0.046816	NaN	0.000000	0.001569	0.001770	28.0792	0.087625	0.001957	44.7765	-54.391	-166.187	-0.145963	0.201038	-0.947781	-0.949062	-0.046816	44.7765	-0.946997	-4.380448E+12	1.068747E-14	NaN
587	1.000000	0.212352	7.37079e+06	-47739.1	1005.82	-29764.8	0.000000	0.000000	6.212811	-0.010019	NaN	0.000000	0.001558	0.001805	28.0789	0.038046	0.001961	19.3995	117.303	11.5612	-0.004752	0.210980	-0.937749	-0.939120	-0.010019	19.3995	-0.937361	-3.247393E+12	3.085095E-15	NaN
587	1.000000	0.222352	7.37079e+06	-47739.1	1005.82	-29764.8	0.000000	0.000000	6.222817	0.123082	NaN	0.000000	0.001563	0.001791	28.0793	0.102647	0.001817	56.4962	81.1495	-164.661	0.126072	0.221027	-0.927748	-0.929074	0.123082	56.4962	-0.929382	-2.534311E+12	-4.856631E-14	NaN
587	1.000000	0.232333	7.37079e+06	-47739.1	1005.82	-29764.8	0.000000	0.000000	6.232789	-0.073359	NaN	0.000000	0.001560	0.001775	28.079	0.041760	0.002000	20.8837	-122.852	13.6717	-0.118966	0.230996	-0.917768	-0.919104	-0.073359	20.8837	-0.915133	-1.627387E+12	4.507758E-14	NaN
587	1.000000	0.242376	7.37079e+06	-47739.1	1005.82	-29764.8	0.000000	0.000000	6.242839	0.076263	NaN	0.000000	0.001566	0.001724	28.0799	0.062949	0.001923	32.7298	-101.45	-163.027	0.046235	0.241005	-0.907724	-0.909095	0.076263	32.7298	-0.909472	-1.364661E+12	-5.588453E-14	NaN
587	1.000000	0.252387	7.37079e+06	-47739.1	1005.82	-29764.8	0.000000	0.000000	6.252849	0.054776	NaN	0.000000	0.001578	0.001736	28.0791	0.049930	0.001918	26.029	-163.787	15.6472	0.017949	0.251023	-0.897713	-0.899078	0.054776	26.029	-0.899292	-9.942487E+11	-5.509259E-14	NaN
587	1.000000	0.262367	7.37079e+06	-47739.1	1005.82	-29764.8	0.000000	0.000000	6.262825	-0.047654	NaN	0.000000	0.001564	0.001740	28.08	0.081443	0.002003	40.6548	33.7788	-165.678	-0.117752	0.261046	-0.887733	-0.889054	-0.047654	40.6548	-0.886854	-6.751346E+11	7.058421E-14	NaN
587	1.000000	0.272369	7.37079e+06	-47739.1	1005.82	-29764.8	0.000000	0.000000	6.272828	-0.017573	NaN	0.000000	0.001565	0.001723	28.0779	0.106234	0.001951	54.4597	-32.9041	14.503	0.015909	0.271085	-0.877731	-0.879015	-0.017573	54.4597	-0.877489	-5.043752E+11	3.484092E-14	NaN
587	1.000000	0.282395	7.37079e+06	-47739.1	1005.82	-29764.8	0.000000	0.000000	6.282856	0.042525	NaN	0.000000	0.001561	0.001703	28.0781	0.013964	0.002147	6.503095	34.8846	-165.685	0.119781	0.281013	-0.867706	-0.869087	0.042525	6.503095	-0.872610	-4.332642E+11	-9.815100E-14	NaN
587	1.000000	0.292398	7.37079e+06	-47739.1	1005.82	-29764.8	0.000000	0.000000	6.292859	0.023621	NaN	0.000000	0.001605	0.001734	28.0778	0.076906	0.002008	38.3043	-116.643	12.7632	0.001123	0.291047	-0.857702	-0.859053	0.023621	38.3043	-0.858165	-2.762374E+11	-8.551107E-14	NaN
587	1.000000	0.302392	7.37079e+06	-47739.1	1005.82	-29764.8	0.000000	0.000000	6.302854	0.060665	NaN	0.000000	0.001592	0.001700	28.0782	0.091823	0.002084	44.0699	116.764	-167.932	-0.020475	0.301022	-0.847709	-0.849078	0.060665	44.0699	-0.848741	-2.059169E+11	-2.946114E-13	NaN
587	1.000000	0.312414	7.37079e+06	-47739.1	1005.82	-29764.8	0.000000	0.000000	6.312875	0.035639	NaN	0.000000	0.001592	0.001694	28.0779	0.124625	0.002038	61.1423	-128.003	11.5822	0.046957	0.311052	-0.837686	-0.839049	0.035639	61.1423	-0.838123	-1.478657E+11	-2.410215E-13	NaN
587	1.000000	0.322359	7.37079e+06	-47739.1	1005.82	-29764.8	0.000000	0.000000	6.322818	-0.020120	NaN	0.000000	0.001611	0.001735	28.078	0.103019	0.002060	50.0113	-83.8895	-166.823	0.002110	0.321053	-0.827742	-0.829047	-0.020120	50.0113	-0.827440	-1.059457E+11	1.899045E-13	NaN
587	1.000000	0.332396	7.37079e+06	-47739.1	1005.82	-29764.8	0.000000	0.000000	6.332857	0.037321	NaN	0.000000	0.001574	0.001737	28.0777	0.082398	0.002010	40.9982	-51.8218	16.7597	0.077904	0.331053	-0.817704	-0.819047	0.037321	40.9982	-0.818387	-7.986147E+10	-4.673157E-13	NaN
587	1.000000	0.342413	7.37079e+06	-47739.1	1005.82	-29764.8	0.000000	0.000000	6.342872	-0.008511	NaN	0.000000	0.001606	0.001700	28.078	0.040113	0.001994	20.1202	-166.672	-165.717	0.020255	0.341069	-0.807687	-0.809031	-0.008511	20.1202	-0.807370	-5.660916E+10	1.503442E-13	NaN
587	1.000000	0.352393	7.37079e+06	-47739.1	1005.82	-29764.8	0.000000	0.000000	6.352854	0.035097	NaN	0.000000	0.001576	0.001680	28.0777	0.065592	0.001983	33.0766	34.6249	14.2768	0.013555	0.351067	-0.797707	-0.799033	0.035097	33.0766	-0.798503	-4.290827E+10	-8.179599E-13	NaN
587	1.000000	0.362413	7.37079e+06	-47739.1	1005.82	-29764.8	0.000000	0.000000	6.362872	-0.014682	NaN	0.000000	0.001626	0.001716	28.0779	0.031192	0.002000	15.5924	36.5177	-167.074	0.028268	0.361110	-0.787687	-0.788990	-0.014682	15.5924	-0.786981	-2.992796E+10	4.905868E-13	NaN
587	1.000000	0.372446	7.37079e+06	-47739.1	1005.82	-29764.8	0.000000	0.000000	6.372904	-0.040899	NaN	0.000000	0.001610	0.001690	28.0781	0.072976	0.002026	36.0283	27.51	18.0351	-0.008340	0.371041	-0.777654	-0.779060	-0.040899	36.0283	-0.776803	-2.176621E+10	1.878995E-12	NaN
587	1.000000	0.382436	7.37079e+06	-47739.1	1005.82	-29764.8	0.000000	0.000000	6.382897	0.036843	NaN	0.000000	0.001605	0.001692	28.0778	0.052623	0.002096	25.1032	96.2757	-167.634	0.026949	0.381059	-0.767665	-0.769042	0.036843	25.1032	-0.768766	-1.692468E+10	-2.176872E-12	NaN
587	1.000000	0.392412	7.37079e+06	-47739.1	1005.82	-29764.8	0.000000	0.000000	6.392874	0.045477	NaN	0.000000	0.001568	0.001703	28.0778	0.023347	0.002050	11.3895	164.69	14.0548	-0.010570	0.391058	-0.757688	-0.759042	0.045477	11.3895	-0.760683	-1.313991E+10	-3.461012E-12	NaN
587	1.000000	0.402473	7.37079e+06	-47739.1	1005.82	-29764.8	0.000000	0.000000	6.402934	0.032647	NaN	0.000000	0.001569	0.001725	28.0789	0.071565	0.002051	34.899	-114.328	-168.206	0.042882	0.401120	-0.747628	-0.748980	0.032647	34.899	-0.748329	-8.922346E+9	-3.658974E-12	NaN
587	1.000000	0.412452	7.37079e+06	-47739.1	1005.82	-29764.8	0.000000	0.000000	6.412913	0.043328	NaN	0.000000	0.001594	0.001722	28.0791	0.046156	0.002011	22.9493	1.231321	17.2112	0.059219	0.411093	-0.737649	-0.739007	0.043328	22.9493	-0.739065	-6.672931E+9	-6.493134E-12	NaN
587	1.000000	0.422438	7.37079e+06	-47739.1	1005.82	-29764.8	0.000000	0.000000	6.422901	0.066703	NaN	0.000000	0.001597	0.001708	28.079	0.054498	0.001980	27.5283	116.21	-167.861	0.010057	0.421137	-0.727662	-0.728963	0.066703	27.5283	-0.729479	-4.939814E+9	-1.350312E-11	NaN
587	1.000000	0.432452	7.37079e+06	-47739.1	1005.82	-29764.8	0.000000	0.000000	6.432913	0.043959	NaN	0.000000	0.001573	0.001696	28.0792	0.064442	0.002123	30.3553	-9.044867	13.2579	0.148149	0.431066	-0.717649	-0.719034	0.043959	30.3553	-0.718735	-3.525487E+9	-1.246894E-11	NaN
587	1.000000	0.442440	7.37079e+06	-47739.1	1005.82	-29764.8	0.000000	0.000000	6.442903	0.079745	NaN	0.000000	0.001617	0.001727	28.0793	0.117453	0.001936	60.669	31.1022	-165.466	0.154762	0.441140	-0.707661	-0.708960	0.079745	60.669	-0.708646	-2.567879E+9	-3.105490E-11	NaN
587	1.000000	0.452461	7.37079e+06	-47739.1	1005.82	-29764.8	0.000000	0.000000	6.452922	0.036699	NaN	0.000000	0.001575	0.001698	28.0792	0.049173	0.002056	23.9132	146.383	13.3064	0.038679	0.451090	-0.697639	-0.699011	0.036699	23.9132	-0.698790	-1.883691E+9	-1.948225E-11	NaN
587	1.000000	0.462471	7.37079e+06	-47739.1	1005.82	-29764.8	0.000000	0.000000	6.462930	-0.002544	NaN	0.000000	0.001600	0.001717	28.0791	0.135128	0.001972	68.5173	-69.9231	-163.521	0.005197	0.461154	-0.687630	-0.688947	-0.002544	68.5173	-0.687602	-1.324772E+9	1.920076E-12	NaN
587	1.000000	0.472482	7.37079e+06	-47739.1	1005.82	-29764.8	0.000000	0.000000	6.472947	0.115787	NaN	0.000000	0.001585	0.001684	28.0792	0.089837	0.002038	44.0789	150.975	12.1338	0.088777	0.471129	-0.677618	-0.678971	0.115787	44.0789	-0.679588	-1.029371E+9	-1.124830E-10	NaN
587	1.000000	0.482470	7.37079e+06	-47739.1	1005.82	-29764.8	0.000000	0.000000	6.482930	0.014357	NaN	0.000000	0.001555	0.001695	28.0792	0.077040	0.001938	39.754	-35.8035	-166.659	-0.005265	0.481183	-0.667631	-0.668917	0.014357	39.754	-0.667901	-7.123029E+8	-2.015533E-11	NaN
587	1.000000	0.492515	7.37079e+06	-47739.1	1005.82	-29764.8	0.000000	0.000000	6.492975	0.002426	NaN	0.000000	0.001622	0.001719	28.0794	0.051926	0.001950	26.6324	-140.295	12.8304	-0.065607	0.491045	-0.657585	-0.659055	0.002426	26.6324	-0.657653	-5.156127E+8	-4.705506E-12	NaN
587	1.000000	0.502508	7.37079e+06	-47739.1	1005.82	-29764.8	0.000000	0.000000	6.502969	0.043329	NaN	0.000000	0.001570	0.001712	28.079	0.083116	0.002040	40.7523	-144.838	-165.296	0.015028	0.501186	-0.647593	-0.648914	0.043329	40.7523	-0.648390	-3.849143E+8	-1.125679E-10	NaN
587	1.000000	0.512464	7.37079e+06	-47739.1	1005.82	-29764.8	0.000000	0.000000	6.512925	0.033205	NaN	0.000000	0.001576	0.001736	28.0791	0.010721	0.002049	5.233528	-159.178	14.2114	0.054853	0.511112	-0.637636	-0.638988	0.033205	5.233528	-0.642395	-3.185270E+8	-1.042468E-10	NaN
587	1.000000	0.522500	7.37079e+06	-47739.1	1005.82	-29764.8	0.000000	0.000000	6.522957	-0.053971	NaN	0.000000	0.001602	0.001697	28.0792	0.047357	0.001996	23.7313	140.438	-168.389	-0.121116	0.521217	-0.627601	-0.628884	-0.053971	23.7313	-0.625895	-1.890781E+8	2.854406E-10	NaN
587	1.000000	0.532537	7.37079e+06	-47739.1	1005.82	-29764.8	0.000000	0.000000	6.532997	0.000671	NaN	0.000000	0.001571	0.001674	28.0793	0.061704	0.001983	31.1161	91.0621	12.1931	0.032293	0.531084	-0.617563	-0.619016	0.000671	31.1161	-0.617580	-1.453316E+8	-4.615834E-12	NaN
587	1.000000	0.542517	7.37079e+06	-47739.1	1005.82	-29764.8	0.000000	0.000000	6.542978	0.034511	NaN	0.000000	0.001593	0.001660	28.0778	0.129302	0.002090	61.858	91.2265	-164.972	0.033793	0.541209	-0.607583	-0.608891	0.034511	61.858	-0.608002	-1.073039E+8	-3.216165E-10	NaN
587	1.000000	0.552519	7.37079e+06	-47739.1	1005.82	-29764.8	0.000000	0.000000	6.552979	0.008070	NaN	0.000000	0.001586	0.001666	28.0783	0.109241	0.002008	54.4102	119.853	15.2197	-0.049211	0.551093	-0.597581	-0.599007	0.008070	54.4102	-0.597692	-7.738838E+7	-1.042781E-10	NaN
587	1.000000	0.562499	7.37079e+06	-47739.1	1005.82	-29764.8	0.000000	0.000000	6.562957	-0.019519	NaN	0.000000	0.001579	0.001687	28.0778	0.092279	0.001998	46.187	163.676	-167.4	-0.028305	0.561265	-0.587602	-0.588836	-0.019519	46.187	-0.587285	-5.561962E+7	3.509298E-10	NaN
587	1.000000	0.572538	7.37079e+06	-47739.1	1005.82	-29764.8	0.000000	0.000000	6.572998	0.012205	NaN	0.000000	0.001596	0.001660	28.0781	0.022833	0.002051	11.1351	137.918	15.5039	0.026563	0.571123	-0.577562	-0.578978	0.012205	11.1351	-0.578384	-4.192050E+7	-2.911495E-10	NaN
587	1.000000	0.582524	7.37079e+06	-47739.1	1005.82	-29764.8	0.000000	0.000000	6.582986	0.063421	NaN	0.000000	0.001588	0.001669	28.0779	0.091257	0.001924	47.4383	-147.519	-165.873	0.055549	0.581176	-0.567576	-0.568925	0.063421	47.4383	-0.568579	-3.068994E+7	-2.066493E-9	NaN
587	1.000000	0.592510	7.37079e+06	-47739.1	1005.82	-29764.8	0.000000	0.000000	6.592970	0.006002	NaN	0.000000	0.001576	0.001690	28.078	0.054110	0.002118	25.5435	10.8817	12.4052	-0.018106	0.591142	-0.557591	-0.558958	0.006002	25.5435	-0.557767	-2.175104E+7	-2.759418E-10	NaN
587	1.000000	0.602508	7.37079e+06	-47739.1	1005.82	-29764.8	0.000000	0.000000	6.602972	0.109885	NaN	0.000000	0.001606	0.001696	28.0778	0.105148	0.001903	55.2582	-111.442	-166.279	0.125600	0.601184	-0.547592	-0.548917	0.109885	55.2582	-0.549084	-1.649171E+7	-6.663050E-9	NaN
587	1.000000	0.612544	7.37079e+06	-47739.1	1005.82	-29764.8	0.000000	0.000000	6.613001	-0.068434	NaN	0.000000	0.001588	0.001695	28.0779	0.047195	0.002002	23.579	-148.398	15.8531	-0.060818	0.611156	-0.537556	-0.538944	-0.068434	23.579	-0.535380	-1.064778E+7	6.427089E-9	NaN
587	1.000000	0.622531	7.37079e+06	-47739.1	1005.82	-29764.8	0.000000	0.000000	6.622993	0.048225	NaN	0.000000	0.001566	0.001695	28.078	0.060708	0.001983	30.6164	-3.716113	-166.789	0.065001	0.621228	-0.527569	-0.528872	0.048225	30.6164	-0.528750	-8.61428e+06	-5.598321E-9	NaN
587	1.000000	0.632541	7.37079e+06	-47739.1	1005.82	-29764.8	0.000000	0.000000	6.633003	0.065788	NaN	0.000000	0.001572	0.001672	28.0779	0.061482	0.001962	31.3322	-51.534	14.1776	0.043469	0.631138	-0.517560	-0.518962	0.065788	31.3322	-0.519135	-6.33231e+06	-1.038927E-8	NaN
587	1.000000	0.642563	7.37079e+06	-47739.1	1005.82	-29764.8	0.000000	0.000000	6.643023	0.000706	NaN	0.000000	0.001557	0.001667	28.0777	0.139900	0.002062	67.8437	128.67	-164.239	-0.057204	0.641222	-0.507537	-0.508878	0.000706	67.8437	-0.507545	-4.36728e+06	-1.616197E-10	NaN
587	1.000000	0.652544	7.37079e+06	-47739.1	1005.82	-29764.8	0.000000	0.000000	6.653004	-0.000502	NaN	0.000000	0.001569	0.001691	28.0779	0.039820	0.002019	19.7249	-176.267	16.7648	-0.012308	0.651215	-0.497556	-0.498886	-0.000502	19.7249	-0.497537	-3.16702e+06	1.585025E-10	NaN
587	1.000000	0.662543	7.37079e+06	-47739.1	1005.82	-29764.8	0.000000	0.000000	6.663002	-0.002606	NaN	0.000000	0.001565	0.001711	28.0776	0.103755	0.002079	49.9006	130.21	-164.494	-0.023401	0.661258	-0.487558	-0.488842	-0.002606	49.9006	-0.487518	-2.29461e+06	1.135695E-9	NaN
587	1.000000	0.672537	7.37079e+06	-47739.1	1005.82	-29764.8	0.000000	0.000000	6.672999	0.047380	NaN	0.000000	0.001576	0.001670	28.0776	0.048331	0.001909	25.3111	143.673	14.0599	0.033460	0.671225	-0.477563	-0.478876	0.047380	25.3111	-0.478967	-1.74208e+06	-2.719725E-8	NaN
587	1.000000	0.682576	7.37079e+06	-47739.1	1005.82	-29764.8	0.000000	0.000000	6.683037	0.029178	NaN	0.000000	0.001615	0.001690	28.0789	0.060242	0.002019	29.8389	84.55	-168.062	0.077669	0.681216	-0.467524	-0.468885	0.029178	29.8389	-0.468258	-1.23302e+06	-2.366420E-8	NaN
587	1.000000	0.692567	7.37079e+06	-47739.1	1005.82	-29764.8	0.000000	0.000000	6.693027	-0.003993	NaN	0.000000	0.001576	0.001670	28.0792	0.035973	0.001942	18.5264	118.892	14.0208	0.065467	0.691210	-0.457533	-0.458890	-0.003993	18.5264	-0.457371	-867101	4.604943E-9	NaN
587	1.000000	0.702544	7.37079e+06	-47739.1	1005.82	-29764.8	0.000000	0.000000	6.703003	-0.013960	NaN	0.000000	0.001552	0.001616	28.0788	0.088758	0.002055	43.2019	-65.1552	-165.773	-0.053529	0.701266	-0.447556	-0.448834	-0.013960	43.2019	-0.447314	-625900	2.230449E-8	NaN
587	1.000000	0.712556	7.37079e+06	-47739.1	1005.82	-29764.8	0.000000	0.000000	6.713016	0.005764	NaN	0.000000	0.001550	0.001619	28.0789	0.071630	0.001975	36.26	-65.699	12.3577	-0.125394	0.711231	-0.437544	-0.438870	0.005764	36.26	-0.437663	-457485	-1.259855E-8	NaN
587	1.000000	0.722561	7.37079e+06	-47739.1	1005.82	-29764.8	0.000000	0.000000	6.723019	-0.045679	NaN	0.000000	0.001577	0.001637	28.0789	0.060185	0.002020	29.7966	-136.004	-166.9	-0.048876	0.721299	-0.427539	-0.428801	-0.045679	29.7966	-0.426389	-316928	1.441298E-7	NaN
587	1.000000	0.732567	7.37079e+06	-47739.1	1005.82	-29764.8	0.000000	0.000000	6.733026	-0.015722	NaN	0.000000	0.001570	0.001671	28.0792	0.088543	0.001917	46.1851	142.377	14.2407	-0.062824	0.731243	-0.417534	-0.418857	-0.015722	46.1851	-0.417279	-235398	6.678865E-8	NaN
587	1.000000	0.742593	7.37079e+06	-47739.1	1005.82	-29764.8	0.000000	0.000000	6.743055	0.072545	NaN	0.000000	0.001601	0.001675	28.0791	0.138375	0.002008	68.8992	87.232	-165.287	0.021614	0.741258	-0.407508	-0.408843	0.072545	68.8992	-0.408297	-175462	-4.134501E-7	NaN
587	1.000000	0.752571	7.37079e+06	-47739.1	1005.82	-29764.8	0.000000	0.000000	6.753031	0.002292	NaN	0.000000	0.001621	0.001687	28.0789	0.125976	0.002031	62.0347	-140.947	15.0901	0.012736	0.751252	-0.397529	-0.398849	0.002292	62.0347	-0.397557	-123350	-1.858327E-8	NaN
587	1.000000	0.762597	7.37079e+06	-47739.1	1005.82	-29764.8	0.000000	0.000000	6.763056	-0.006533	NaN	0.000000	0.001629	0.001684	28.0791	0.102593	0.002014	50.9442	-178.851	-166.491	-0.026035	0.761281	-0.387503	-0.388820	-0.006533	50.9442	-0.387407	-88320.8	7.396727E-8	NaN
587	1.000000	0.772600	7.37079e+06	-47739.1	1005.82	-29764.8	0.000000	0.000000	6.773059	0.005298	NaN	0.000000	0.001639	0.001670	28.0789	0.085941	0.002009	42.7825	50.1465	12.4222	0.037604	0.771245	-0.377501	-0.378855	0.005298	42.7825	-0.377594	-63876.6	-8.293397E-8	NaN
587	1.000000	0.782607	7.37079e+06	-47739.1	1005.82	-29764.8	0.000000	0.000000	6.783069	0.048747	NaN	0.000000	0.001611	0.001716	28.079	0.081142	0.001851	43.8447	-132.827	-165.772	0.008458	0.781283	-0.367494	-0.368818	0.048747	43.8447	-0.368327	-46992.9	-1.037325E-6	NaN
587	1.000000	0.792585	7.37079e+06	-47739.1	1005.82	-29764.8	0.000000	0.000000	6.793048	0.093050	NaN	0.000000	0.001635	0.001657	28.0793	0.111300	0.002043	54.476	-99.8742	12.2547	0.034847	0.791290	-0.357516	-0.358810	0.093050	54.476	-0.358797	-34233.3	-2.718102E-6	NaN
587	1.000000	0.802598	7.37079e+06	-47739.1	1005.82	-29764.8	0.000000	0.000000	6.803061	0.097217	NaN	0.000000	0.001673	0.001673	28.0791	0.025761	0.002072	12.4354	-72.507	-167.087	0.166119	0.801305	-0.347503	-0.348795	0.097217	12.4354	-0.353366	-28564.4	-3.403430E-6	NaN
587	1.000000	0.812601	7.37079e+06	-47739.1	1005.82	-29764.8	0.000000	0.000000	6.813061	0.007101	NaN	0.000000	0.001676	0.001703	28.0777	0.071536	0.002094	34.1705	-78.5774	14.5012	0.064826	0.811259	-0.337500	-0.338842	0.007101	34.1705	-0.337655	-16879.5	-4.206654E-7	NaN
587	1.000000	0.822611	7.37079e+06	-47739.1	1005.82	-29764.8	0.000000	0.000000	6.823073	0.051520	NaN	0.000000	0.001655	0.001677	28.0777	0.055868	0.002079	26.8675	-125.738	-166.808	0.032197	0.821312	-0.327489	-0.328788	0.051520	26.8675	-0.328928	-12581.7	-4.094805E-6	NaN
587	1.000000	0.832615	7.37079e+06	-47739.1	1005.82	-29764.8	0.000000	0.000000	6.833076	0.030631	NaN	0.000000	0.001639	0.001679	28.0777	0.015684	0.002004	7.825405	-161.654	10.7174	0.111492	0.831280	-0.317485	-0.318821	0.030631	7.825405	-0.320421	-9437	-3.245811E-6	NaN
587	1.000000	0.842608	7.37079e+06	-47739.1	1005.82	-29764.8	0.000000	0.000000	6.843069	0.034414	NaN	0.000000	0.001566	0.001665	28.078	0.049497	0.002068	23.929	139.679	-165.922	-0.038629	0.841304	-0.307492	-0.308796	0.034414	23.929	-0.308571	-6308.1	-5.455463E-6	NaN
587	1.000000	0.852617	7.37079e+06	-47739.1	1005.82	-29764.8	0.000000	0.000000	6.853079	0.052301	NaN	0.000000	0.001600	0.001684	28.0777	0.069376	0.002065	33.5997	-58.6295	14.4729	-0.028776	0.851299	-0.297484	-0.298801	0.052301	33.5997	-0.298651	-4493.11	-1.164026E-5	NaN
587	1.000000	0.862608	7.37079e+06	-47739.1	1005.82	-29764.8	0.000000	0.000000	6.863066	-0.033772	NaN	0.000000	0.001553	0.001674	28.0778	0.031037	0.001966	15.7856	-152.702	-166.802	0.021673	0.861290	-0.287492	-0.288810	-0.033772	15.7856	-0.285888	-2894.73	1.166661E-5	NaN
587	1.000000	0.872636	7.37079e+06	-47739.1	1005.82	-29764.8	0.000000	0.000000	6.873096	-0.003052	NaN	0.000000	0.001577	0.001628	28.0777	0.067219	0.001843	36.4808	-82.0137	17.9351	-0.060450	0.871273	-0.277464	-0.278827	-0.003052	36.4808	-0.277401	-2156.4	1.415531E-6	NaN
587	1.000000	0.882651	7.37079e+06	-47739.1	1005.82	-29764.8	0.000000	0.000000	6.883111	0.008296	NaN	0.000000	0.001537	0.001650	28.0779	0.096881	0.001987	48.7648	72.0706	-166.251	-0.008299	0.881308	-0.267450	-0.268792	0.008296	48.7648	-0.267577	-1529.97	-5.422487E-6	NaN
587	1.000000	0.892626	7.37079e+06	-47739.1	1005.82	-29764.8	0.000000	0.000000	6.893088	0.064877	NaN	0.000000	0.001592	0.001658	28.0777	0.131221	0.002090	62.7818	-173.121	14.072	-0.023163	0.891333	-0.257475	-0.258768	0.064877	62.7818	-0.258250	-1101.72	-5.888662E-5	NaN
587	1.000000	0.902638	7.37079e+06	-47739.1	1005.82	-29764.8	0.000000	0.000000	6.903102	0.083661	NaN	0.000000	0.001590	0.001657	28.078	0.011182	0.002070	5.402866	87.2261	-165.377	0.043246	0.901345	-0.247462	-0.248756	0.083661	5.402866	-0.259075	-1134.33	-7.375373E-5	NaN
587	1.000000	0.912646	7.37079e+06	-47739.1	1005.82	-29764.8	0.000000	0.000000	6.913107	0.028764	NaN	0.000000	0.001545	0.001676	28.078	0.051141	0.002078	24.6054	34.3806	14.5344	0.060397	0.911311	-0.237454	-0.238789	0.028764	24.6054	-0.238331	-541.325	-5.313554E-5	NaN
587	1.000000	0.922647	7.37079e+06	-47739.1	1005.82	-29764.8	0.000000	0.000000	6.923108	0.032871	NaN	0.000000	0.001565	0.001712	28.0779	0.029821	0.001935	15.4125	163.813	-167.484	0.026307	0.921336	-0.227453	-0.228765	0.032871	15.4125	-0.229053	-386.856	-8.496969E-5	NaN
587	1.000000	0.932666	7.37079e+06	-47739.1	1005.82	-29764.8	0.000000	0.000000	6.933127	0.022153	NaN	0.000000	0.001549	0.001720	28.0778	0.103400	0.001978	52.2816	-18.3817	14.6132	-0.041668	0.931269	-0.217434	-0.218832	0.022153	52.2816	-0.217752	-255.679	-8.664513E-5	NaN
587	1.000000	0.942659	7.37079e+06	-47739.1	1005.82	-29764.8	0.000000	0.000000	6.943121	0.047613	NaN	0.000000	0.001579	0.001735	28.0781	0.055454	0.002144	25.8628	143.512	-169.254	-0.008961	0.941411	-0.207441	-0.208689	0.047613	25.8628	-0.208822	-183.537	-0.000259	NaN
587	1.000000	0.952674	7.37079e+06	-47739.1	1005.82	-29764.8	0.000000	0.000000	6.953136	0.071101	NaN	0.000000	0.001576	0.001703	28.0792	0.074402	0.001900	39.1558	140.541	12.3438	0.131722	0.951293	-0.197427	-0.198807	0.071101	39.1558	-0.198789	-125.826	-0.000565	NaN
587	1.000000	0.962623	7.37079e+06	-47739.1	1005.82	-29764.8	0.000000	0.000000	6.963083	0.017264	NaN	0.000000	0.001618	0.001666	28.0792	0.056196	0.001987	28.2796	-106.737	-167.688	0.007886	0.961399	-0.187478	-0.188701	0.017264	28.2796	-0.187936	-83.0771	-0.000208	NaN
587	1.000000	0.972663	7.37079e+06	-47739.1	1005.82	-29764.8	0.000000	0.000000	6.973124	0.052758	NaN	0.000000	0.001574	0.001704	28.0792	0.047823	0.002138	22.3634	39.9465	11.9811	0.065925	0.971339	-0.177438	-0.178762	0.052758	22.3634	-0.179207	-59.1517	-0.000892	NaN
587	1.000000	0.982681	7.37079e+06	-47739.1	1005.82	-29764.8	0.000000	0.000000	6.983144	0.101666	NaN	0.000000	0.001559	0.001678	28.0793	0.102011	0.002007	50.8291	36.5445	-162.413	0.041668	0.981358	-0.167420	-0.168742	0.101666	50.8291	-0.168920	-39.3402	-0.002584	NaN
587	1.000000	0.992681	7.37079e+06	-47739.1	1005.82	-29764.8	0.000000	0.000000	6.993140	-0.005296	NaN	0.000000	0.001557	0.001684	28.0793	0.046857	0.002121	22.0918	-176.984	11.1388	0.010323	0.991354	-0.157420	-0.158746	-0.005296	22.0918	-0.157240	-24.4776	0.000216	NaN
587	1.000000	1.002704	7.37079e+06	-47739.1	1005.82	-29764.8	0.000000	0.000000	7.003165	0.028525	NaN	0.000000	0.001597	0.001693	28.0792	0.084902	0.001859	45.6726	176.603	-166.928	0.057288	1.001367	-0.147396	-0.148733	0.028525	45.6726	-0.147865	-16.5557	-0.001723	NaN
587	1.000000	1.012705	7.37079e+06	-47739.1	1005.82	-29764.8	0.000000	0.000000	7.013163	-0.039006	NaN	0.000000	0.001551	0.001699	28.0792	0.014381	0.002019	7.122340	-139.108	11.7754	0.053038	1.011340	-0.137395	-0.138760	-0.039006	7.122340	-0.133288	-8.820791	0.004422	NaN
587	1.000000	1.022703	7.37079e+06	-47739.1	1005.82	-29764.8	0.000000	0.000000	7.023165	0.040277	NaN	0.000000	0.001547	0.001694	28.0793	0.035682	0.002040	17.4924	52.023	-166.442	0.062962	1.021365	-0.127397	-0.128735	0.040277	17.4924	-0.129124	-7.327741	-0.005496	NaN
587	1.000000	1.032703	7.37079e+06	-47739.1	1005.82	-29764.8	0.000000	0.000000	7.033167	0.094683	NaN	0.000000	0.001576	0.001669	28.0793	0.080449	0.001999	40.2347	153.25	13.8611	0.086628	1.031347	-0.117397	-0.118753	0.094683	40.2347	-0.119162	-4.646710	-0.020376	NaN
587	1.000000	1.042697	7.37079e+06	-47739.1	1005.82	-29764.8	0.000000	0.000000	7.043156	-0.007605	NaN	0.000000	0.001569	0.001655	28.079	0.035283	0.002050	17.2095	-106.479	-166.024	-0.067132	1.041352	-0.107404	-0.108748	-0.007605	17.2095	-0.107072	-2.604394	0.002920	NaN
587	1.000000	1.052704	7.37079e+06	-47739.1	1005.82	-29764.8	0.000000	0.000000	7.053166	0.052204	NaN	0.000000	0.001571	0.001698	28.0789	0.059003	0.001877	31.4314	6.599220	19.0024	0.027779	1.051368	-0.097397	-0.098732	0.052204	31.4314	-0.098642	-1.704378	-0.030630	NaN
587	1.000000	1.062723	7.37079e+06	-47739.1	1005.82	-29764.8	0.000000	0.000000	7.063181	-0.032339	NaN	0.000000	0.001576	0.001706	28.079	0.089586	0.001872	47.852	10.1786	-163.816	-0.063730	1.061444	-0.087377	-0.088656	-0.032339	47.852	-0.086870	-0.911342	0.035485	NaN
587	1.000000	1.072721	7.37079e+06	-47739.1	1005.82	-29764.8	0.000000	0.000000	7.073182	0.043791	NaN	0.000000	0.001570	0.001700	28.079	0.134888	0.002016	66.9039	97.307	14.5359	-0.044642	1.071388	-0.077380	-0.078712	0.043791	66.9039	-0.077871	-0.547091	-0.080044	NaN
587	1.000000	1.082694	7.37079e+06	-47739.1	1005.82	-29764.8	0.000000	0.000000	7.083153	-0.004551	NaN	0.000000	0.001563	0.001665	28.0787	0.093793	0.001968	47.6592	164.552	-164.565	-0.063346	1.081454	-0.067407	-0.068646	-0.004551	47.6592	-0.067335	-0.288953	0.015751	NaN
587	1.000000	1.092709	7.37079e+06	-47739.1	1005.82	-29764.8	0.000000	0.000000	7.093169	0.024028	NaN	0.000000	0.001552	0.001687	28.0778	0.056998	0.001929	29.5541	33.38	13.0113	0.094294	1.091345	-0.057392	-0.058756	0.024028	29.5541	-0.058001	-0.157690	-0.152375	NaN
587	1.000000	1.102731	7.37079e+06	-47739.1	1005.82	-29764.8	0.000000	0.000000	7.103189	-0.033535	NaN	0.000000	0.001575	0.001679	28.0778	0.074639	0.001934	38.5842	-125.54	-166.121	-0.006384	1.101419	-0.047370	-0.048681	-0.033535	38.5842	-0.046718	-0.072524	0.462394	NaN
587	1.000000	1.112721	7.37079e+06	-47739.1	1005.82	-29764.8	0.000000	0.000000	7.113182	0.042445	NaN	0.000000	0.001585	0.001707	28.0777	0.104361	0.002130	49.0004	-43.7056	12.8689	0.025725	1.111374	-0.037380	-0.038727	0.042445	49.0004	-0.038029	-0.039423	-1.076664	NaN
587	1.000000	1.122725	7.37079e+06	-47739.1	1005.82	-29764.8	0.000000	0.000000	7.123187	0.062242	NaN	0.000000	0.001607	0.001711	28.0777	0.110316	0.002007	54.9603	-30.2173	-168.264	0.107639	1.121451	-0.027375	-0.028649	0.062242	54.9603	-0.028225	-0.020562	-3.026982	NaN
587	1.000000	1.132712	7.37079e+06	-47739.1	1005.82	-29764.8	0.000000	0.000000	7.133172	0.006489	NaN	0.000000	0.001568	0.001703	28.078	0.083650	0.001980	42.2556	-24.938	15.3768	-0.022860	1.131353	-0.017388	-0.018748	0.006489	42.2556	-0.017503	-0.010835	-0.598870	NaN
587	1.000000	1.142729	7.37079e+06	-47739.1	1005.82	-29764.8	0.000000	0.000000	7.143190	0.024312	NaN	0.000000	0.001553	0.001724	28.0778	0.006633	0.001911	3.470217	142.706	-164.328	0.039975	1.141464	-0.007371	-0.008637	0.024312	3.470217	-0.012625	-0.007887	-3.082611	NaN
587	1.000000	1.152702	7.37079e+06	-47739.1	1005.82	-29764.8	0.000000	0.000000	7.153394	5.650115	NaN	0.000000	0.001588	0.001731	28.0778	5.968288	0.001755	3401.23	9.429076	11.4954	3.905498	1.151332	0.002601	0.001232	5.650115	3401.23	0.001355	0.001040	5431.6	96348.3
587	2.000000	1.157281	7.37079e+06	-47739.1	1005.82	-29764.8	0.000000	0.000000	7.158154	10.061	NaN	0.000000	0.001572	0.001733	28.0778	10.9453	0.001797	6091.86	7.695423	-172.302	9.922336	1.156977	0.007180	0.006877	10.061	6091.86	0.005941	0.005009	2008.57	78640.3
587	2.000000	1.159771	7.37079e+06	-47739.1	1005.82	-29764.8	0.000000	0.000000	7.160820	14.3325	NaN	0.000000	0.001639	0.001725	28.0781	13.1806	0.001698	7760.13	3.575802	9.024115	13.0406	1.159431	0.009671	0.009331	14.3325	7760.13	0.008286	0.007338	1953.19	82766.3
587	2.000000	1.162249	7.37079e+06	-47739.1	1005.82	-29764.8	0.000000	0.000000	7.163421	17.3395	NaN	0.000000	0.001585	0.001737	28.0777	16.0125	0.001727	9270.29	7.389202	-177.885	18.0322	1.161931	0.012148	0.011831	17.3395	9270.29	0.010745	0.010022	1730.21	84605.4
587	2.000000	1.164713	7.37079e+06	-47739.1	1005.82	-29764.8	0.000000	0.000000	7.166097	22.4869	NaN	0.000000	0.001617	0.001698	28.0781	19.1135	0.001877	10182.5	9.295043	0.266049	21.6824	1.164377	0.014613	0.014277	22.4869	10182.5	0.012956	0.012656	1776.79	82695.5
587	2.000000	1.167218	7.37079e+06	-47739.1	1005.82	-29764.8	0.000000	0.000000	7.168775	26.6764	NaN	0.000000	0.001622	0.001715	28.0777	20.6955	0.001808	11443.9	4.567849	-176.061	25.9402	1.166884	0.017118	0.016784	26.6764	11443.9	0.015369	0.015781	1690.4	83229.5
587	2.000000	1.169716	7.37079e+06	-47739.1	1005.82	-29764.8	0.000000	0.000000	7.171492	32.0218	NaN	0.000000	0.001575	0.001709	28.078	22.659	0.001684	13457.8	2.905441	3.975637	30.9028	1.169395	0.019615	0.019295	32.0218	13457.8	0.017831	0.019247	1663.69	88625.8
587	2.000000	1.172211	7.3708e+06	-47739.1	1005.82	-29764.8	0.000000	0.000000	7.174245	38.3076	NaN	0.000000	0.001623	0.001715	28.079	25.2259	0.001809	13942.4	6.866484	179.295	37.8635	1.171889	0.022110	0.021788	38.3076	13942.4	0.020049	0.022620	1693.52	84696.4
587	2.000000	1.174663	7.3708e+06	-47739.1	1005.82	-29764.8	0.000000	0.000000	7.176959	44.6487	NaN	0.000000	0.001627	0.001723	28.0791	27.737	0.001766	15707.3	4.291845	0.592121	43.1187	1.174325	0.024563	0.024225	44.6487	15707.3	0.022431	0.026507	1684.39	88143.8
587	2.000000	1.177212	7.3708e+06	-47739.1	1005.82	-29764.8	0.000000	0.000000	7.179693	49.1531	NaN	0.000000	0.001582	0.001715	28.0793	31.2868	0.001930	16209	5.763061	-179.425	50.4559	1.176894	0.027112	0.026794	49.1531	16209	0.024837	0.030720	1600.02	84492
587	2.000000	1.179703	7.3708e+06	-47739.1	1005.82	-29764.8	0.000000	0.000000	7.182636	60.1395	NaN	0.000000	0.001625	0.001705	28.0793	32.4906	0.001829	17766.6	2.741711	2.996913	58.6012	1.179297	0.029603	0.029197	60.1395	17766.6	0.027064	0.034878	1724.27	86915.8
587	2.000000	1.182177	7.3708e+06	-47739.1	1005.82	-29764.8	0.000000	0.000000	7.185283	64.3667	NaN	0.000000	0.001612	0.001730	28.0793	34.6796	0.001734	20000.1	2.898161	179.586	62.9064	1.181849	0.032076	0.031749	64.3667	20000.1	0.029662	0.040047	1607.28	91310.6
587	2.000000	1.184708	7.3708e+06	-47739.1	1005.82	-29764.8	0.000000	0.000000	7.188240	74.7215	NaN	0.000000	0.001609	0.001699	28.0793	37.4293	0.001799	20808.1	2.756494	-0.069703	74.2024	1.184283	0.034608	0.034183	74.7215	20808.1	0.031914	0.044805	1667.7	89813.8
587	2.000000	1.187210	7.3708e+06	-47739.1	1005.82	-29764.8	0.000000	0.000000	7.190924	79.1641	NaN	0.000000	0.001620	0.001711	28.0793	40.8011	0.001941	21020.3	5.213668	177.657	81.283	1.186853	0.037110	0.036752	79.1641	21020.3	0.034285	0.050094	1580.3	85805.9
587	2.000000	1.189629	7.3708e+06	-47739.1	1005.82	-29764.8	0.000000	0.000000	7.193617	85.834	NaN	0.000000	0.001616	0.001709	28.0794	42.2327	0.001788	23615	8.445655	-7.886678	82.2421	1.189351	0.039528	0.039251	85.834	23615	0.036802	0.056026	1532.04	91152.2
587	2.000000	1.192115	7.3708e+06	-47739.1	1005.82	-29764.8	0.000000	0.000000	7.196883	104.796	NaN	0.000000	0.001606	0.001714	28.079	42.9814	0.001781	24137.4	3.008502	178.638	102.181	1.191812	0.042015	0.041712	104.796	24137.4	0.038758	0.060859	1721.94	89392.5
587	2.000000	1.194629	7.3708e+06	-47739.1	1005.82	-29764.8	0.000000	0.000000	7.199714	112.515	NaN	0.000000	0.001586	0.001697	28.0793	45.5931	0.001744	26139.4	4.741561	-4.303401	109.581	1.194273	0.044528	0.044172	112.515	26139.4	0.041300	0.067431	1668.59	91968.5
587	2.000000	1.197120	7.3708e+06	-47739.1	1005.82	-29764.8	0.000000	0.000000	7.202597	122.016	NaN	0.000000	0.001584	0.001718	28.0792	49.3146	0.001802	27366.3	4.822557	175.538	118.102	1.196681	0.047020	0.046581	122.016	27366.3	0.043676	0.073873	1651.69	91991
587	2.000000	1.199563	7.3708e+06	-47739.1	1005.82	-29764.8	0.000000	0.000000	7.205293	128.178	NaN	0.000000	0.001607	0.001714	28.0792	50.6084	0.001662	30455.6	4.334239	-4.933295	121.201	1.199324	0.049463	0.049224	128.178	30455.6	0.046307	0.081340	1575.83	97563.9
587	2.000000	1.202087	7.3708e+06	-47739.1	1005.82	-29764.8	0.000000	0.000000	7.208341	140.951	NaN	0.000000	0.001597	0.001696	28.0791	52.9959	0.001785	29686.5	2.651702	177.065	138.588	1.201888	0.051986	0.051787	140.951	29686.5	0.048425	0.087608	1608.88	91634.6
587	2.000000	1.204661	7.3708e+06	-47739.1	1005.82	-29764.8	0.000000	0.000000	7.211413	153.043	NaN	0.000000	0.001567	0.001730	28.0792	57.0497	0.001894	30117.3	7.561859	-7.838006	152.239	1.204308	0.054561	0.054208	153.043	30117.3	0.050750	0.094745	1615.32	89394.7
587	2.000000	1.207161	7.3708e+06	-47739.1	1005.82	-29764.8	0.000000	0.000000	7.214562	168.817	NaN	0.000000	0.001576	0.001732	28.078	58.39	0.001718	33988.4	4.490147	174.614	168.26	1.206738	0.057061	0.056637	168.817	33988.4	0.053336	0.103002	1638.97	96756.8
587	2.000000	1.209695	7.3708e+06	-47739.1	1005.82	-29764.8	0.000000	0.000000	7.217498	178.617	NaN	0.000000	0.001575	0.001713	28.0778	61.3867	0.001897	32356.3	10.0961	-10.279	178.242	1.209268	0.059595	0.059168	178.617	32356.3	0.055455	0.110015	1623.57	89126.2
587	2.000000	1.212172	7.3708e+06	-47739.1	1005.82	-29764.8	0.000000	0.000000	7.220294	186.375	NaN	0.000000	0.001572	0.001705	28.0778	62.1187	0.001750	35502.3	3.056079	175.017	185.684	1.211938	0.062072	0.061837	186.375	35502.3	0.058134	0.119203	1563.5	93947.6
587	2.000000	1.214550	7.3708e+06	-47739.1	1005.82	-29764.8	0.000000	0.000000	7.223374	203.449	NaN	0.000000	0.001547	0.001729	28.0779	65.1715	0.001720	37887.1	8.343085	-10.7431	197.689	1.214253	0.064449	0.064153	203.449	37887.1	0.060422	0.127325	1597.87	97008.1
587	2.000000	1.217098	7.3708e+06	-47739.1	1005.82	-29764.8	0.000000	0.000000	7.226490	217.245	NaN	0.000000	0.001577	0.001704	28.078	67.7246	0.001765	38369.4	1.400109	176.077	214.977	1.216862	0.066998	0.066761	217.245	38369.4	0.062751	0.135859	1599.04	95107.4
587	2.000000	1.219672	7.3708e+06	-47739.1	1005.82	-29764.8	0.000000	0.000000	7.229755	234.07	NaN	0.000000	0.001574	0.001729	28.0778	69.9384	0.001754	39879	4.366694	-6.558299	232.895	1.219291	0.069572	0.069190	234.07	39879	0.065170	0.144996	1614.33	95684.2
587	2.000000	1.222041	7.3708e+06	-47739.1	1005.82	-29764.8	0.000000	0.000000	7.232851	251.74	NaN	0.000000	0.001502	0.001693	28.0778	72.0114	0.001848	38958.1	3.785801	174.735	248.89	1.221648	0.071941	0.071548	251.74	38958.1	0.067094	0.152469	1651.09	91154.8
587	2.000000	1.224643	7.3708e+06	-47739.1	1005.82	-29764.8	0.000000	0.000000	7.236083	267.077	NaN	0.000000	0.001562	0.001719	28.0778	73.7962	0.001822	40509.6	2.576960	-4.296079	265.196	1.224224	0.074543	0.074124	267.077	40509.6	0.069598	0.162456	1643.99	91825.5
587	2.000000	1.227099	7.3708e+06	-47739.1	1005.82	-29764.8	0.000000	0.000000	7.238857	274.808	NaN	0.000000	0.001564	0.001739	28.0778	77.2892	0.001796	43044.2	2.813581	174.049	272.339	1.226875	0.076998	0.076774	274.808	43044.2	0.072210	0.173194	1586.71	94497.9
587	2.000000	1.229618	7.3708e+06	-47739.1	1005.82	-29764.8	0.000000	0.000000	7.242096	292.316	NaN	0.000000	0.001552	0.001742	28.0778	78.8008	0.001876	41997.5	5.182624	-7.684972	290.499	1.229288	0.079518	0.079188	292.316	41997.5	0.074298	0.182009	1606.05	89939.4
587	2.000000	1.232087	7.3708e+06	-47739.1	1005.82	-29764.8	0.000000	0.000000	7.245281	309.743	NaN	0.000000	0.001555	0.001729	28.0779	81.6403	0.001783	45792.7	8.139977	168.648	308.577	1.231824	0.081987	0.081723	309.743	45792.7	0.076914	0.193343	1602.04	95149.3
587	2.000000	1.234594	7.3708e+06	-47739.1	1005.82	-29764.8	0.000000	0.000000	7.248494	326.913	NaN	0.000000	0.001561	0.001726	28.0781	84.584	0.001871	45213.3	6.939905	-10.3177	322.693	1.234144	0.084494	0.084044	326.913	45213.3	0.079071	0.202932	1610.95	91699
587	2.000000	1.237130	7.3708e+06	-47739.1	1005.82	-29764.8	0.000000	0.000000	7.251609	340.993	NaN	0.000000	0.001560	0.001769	28.0778	85.7742	0.001772	48395.9	1.907947	173.938	341.356	1.236848	0.087029	0.086748	340.993	48395.9	0.081745	0.215119	1585.13	95332.7
587	2.000000	1.239553	7.3708e+06	-47739.1	1005.82	-29764.8	0.000000	0.000000	7.254768	358.903	NaN	0.000000	0.001561	0.001752	28.0779	87.8536	0.001869	46995	2.627351	-6.302000	352.488	1.239248	0.089453	0.089148	358.903	46995	0.083725	0.224356	1599.7	90647.6
587	2.000000	1.242042	7.3708e+06	-47739.1	1005.82	-29764.8	0.000000	0.000000	7.258145	380.477	NaN	0.000000	0.001570	0.001741	28.0791	90.2518	0.001868	48318.2	7.243455	168.855	377.936	1.241772	0.091942	0.091672	380.477	48318.2	0.086036	0.235369	1616.51	90993.3
587	2.000000	1.244544	7.3708e+06	-47739.1	1005.82	-29764.8	0.000000	0.000000	7.261377	398.266	NaN	0.000000	0.001559	0.001702	28.0792	91.2106	0.001732	52668.5	5.078975	-9.664817	392.61	1.244171	0.094443	0.094071	398.266	52668.5	0.088772	0.248723	1601.25	96486.5
587	2.000000	1.247100	7.3708e+06	-47739.1	1005.82	-29764.8	0.000000	0.000000	7.264703	416.959	NaN	0.000000	0.001541	0.001741	28.0791	94.4422	0.001856	50873.8	0.885687	175.004	416.069	1.246783	0.097000	0.096683	416.959	50873.8	0.090853	0.259111	1609.19	91311.4
587	2.000000	1.249530	7.3708e+06	-47739.1	1005.82	-29764.8	0.000000	0.000000	7.267986	437.74	NaN	0.000000	0.001572	0.001737	28.0788	96.0226	0.001906	50390.6	4.779316	-8.945046	432.308	1.249189	0.099429	0.099089	437.74	50390.6	0.092914	0.269595	1623.7	88668.1
587	2.000000	1.252008	7.3708e+06	-47739.1	1005.82	-29764.8	0.000000	0.000000	7.271451	461.726	NaN	0.000000	0.001554	0.001757	28.0796	98.029	0.001737	56437.5	5.685120	170.008	457.825	1.251655	0.101908	0.101554	461.726	56437.5	0.095772	0.284453	1623.21	96679.8
587	2.000000	1.254100	7.3708e+06	-47739.1	1005.82	-29764.8	0.000000	0.000000	7.273650	464.327	NaN	0.000000	0.001557	0.001747	28.0792	100.804	0.001756	57409.5	2.332184	172.743	463.416	1.253844	0.104000	0.103744	464.327	57409.5	0.097934	0.295942	1568.98	96417