File: remote_trans/data/nanoindenter/0828-1/data/Data_2025-08-06,11h17m57s/2025-07-22_16-23-58_1_289.txt
2025-07-22, 16:23:58, 1
Index	Phase	Displacement	Time	Pos X	Pos Y	Pos Z	Rot A	Rot B	Piezo Z	Force A	Force B	Gripper	Voltage A	Voltage B	Temperature	Amplitude force	Amplitude pos	Stiffness	Phase shift	Phase excitation	Force A raw	Displacement raw	HMax	HMax raw	Real Force	Real Stiffness	Contact Depth	Area	Hardness	Reduced Mod.
[#]	[#]	[um]	[s]	[um]	[um]	[um]	[m°]	[m°]	[um]	[uN]	[uN]	[V]	[V]	[V]	[°C]	[uN]	[um]	[N/m]	[°]	[°]	[uN]	[um]	[um]	[um]	[uN]	[N/m]	[um]	[um^2]	[MPa]	[MPa]
289	1.000000	0.002771	7.36788e+06	-53089.1	955.819	-29747.1	0.000000	0.000000	6.002807	-0.009704	NaN	0.000000	0.001624	0.001739	28.0785	0.065910	0.001022	64.4697	115.703	-164.505	-0.005127	0.001526	-1.737934	-1.739180	-0.009704	64.4697	-1.737821	-1.617201E+23	6.000735E-26	NaN
289	1.000000	0.014775	7.36788e+06	-53089.1	955.818	-29747.1	0.000000	0.000000	6.014815	0.086743	NaN	0.000000	0.001640	0.001737	28.0784	0.078123	0.001662	46.9939	35.8906	-162.576	0.120361	0.013574	-1.725931	-1.727131	0.086743	46.9939	-1.727315	-1.172850E+23	-7.395922E-25	NaN
289	1.000000	0.026733	7.36788e+06	-53089.1	955.818	-29747.1	0.000000	0.000000	6.026769	0.005396	NaN	0.000000	0.001659	0.001719	28.0774	0.085279	0.001858	45.8918	-44.5265	-162.901	0.012637	0.025437	-1.713973	-1.715269	0.005396	45.8918	-1.714061	-7.820055E+22	-6.900031E-26	NaN
289	1.000000	0.038716	7.36788e+06	-53089.1	955.818	-29747.1	0.000000	0.000000	6.038751	-0.008613	NaN	0.000000	0.001661	0.001717	28.0771	0.082542	0.001912	43.1649	12.1711	-167.348	0.076841	0.037474	-1.701990	-1.703232	-0.008613	43.1649	-1.701840	-5.381253E+22	1.600581E-25	NaN
289	1.000000	0.050705	7.36788e+06	-53089.1	955.818	-29747.1	0.000000	0.000000	6.050744	0.075580	NaN	0.000000	0.001667	0.001714	28.0769	0.020961	0.001935	10.8305	98.3541	-163.397	0.058474	0.049427	-1.690001	-1.691279	0.075580	10.8305	-1.695235	-4.396778E+22	-1.718979E-24	NaN
289	1.000000	0.062720	7.36788e+06	-53089.1	955.818	-29747.1	0.000000	0.000000	6.062757	0.030544	NaN	0.000000	0.001649	0.001699	28.0774	0.027334	0.002021	13.5237	56.0653	-162.1	-0.021878	0.061479	-1.677985	-1.679227	0.030544	13.5237	-1.679679	-2.731876E+22	-1.118050E-24	NaN
289	1.000000	0.074719	7.36788e+06	-53089.1	955.819	-29747.1	0.000000	0.000000	6.074759	0.083399	NaN	0.000000	0.001624	0.001678	28.077	0.116240	0.001876	61.9545	-98.6002	-162.93	0.071825	0.073362	-1.665986	-1.667344	0.083399	61.9545	-1.666996	-1.853191E+22	-4.500281E-24	NaN
289	1.000000	0.086704	7.36788e+06	-53089.1	955.819	-29747.1	0.000000	0.000000	6.086742	0.052885	NaN	0.000000	0.001671	0.001630	28.0772	0.096284	0.002047	47.0319	-29.8231	-162.091	0.100061	0.085409	-1.654002	-1.655297	0.052885	47.0319	-1.654845	-1.277704E+22	-4.139075E-24	NaN
289	1.000000	0.098731	7.36788e+06	-53089.1	955.818	-29747.1	0.000000	0.000000	6.098769	0.045201	NaN	0.000000	0.001641	0.001654	28.0773	0.070471	0.002055	34.2941	146.997	-167.091	-0.005329	0.097433	-1.641975	-1.643273	0.045201	34.2941	-1.642963	-8.881713E+21	-5.089183E-24	NaN
289	1.000000	0.110739	7.36788e+06	-53089.1	955.818	-29747	0.000000	0.000000	6.110776	0.049225	NaN	0.000000	0.001640	0.001666	28.0772	0.111761	0.001895	58.9622	179.246	-164.636	0.088024	0.109433	-1.629967	-1.631273	0.049225	58.9622	-1.630593	-6.082015E+21	-8.093512E-24	NaN
289	1.000000	0.122736	7.36788e+06	-53089.1	955.819	-29747	0.000000	0.000000	6.122773	0.033843	NaN	0.000000	0.001626	0.001691	28.077	0.104863	0.001896	55.3112	152.739	-163.018	-0.024422	0.121436	-1.617970	-1.619270	0.033843	55.3112	-1.618429	-4.190923E+21	-8.075323E-24	NaN
289	1.000000	0.134750	7.36788e+06	-53089.1	955.818	-29747	0.000000	0.000000	6.134789	0.065803	NaN	0.000000	0.001583	0.001657	28.077	0.039272	0.001976	19.8713	20.9605	-165.22	0.062494	0.133430	-1.605955	-1.607276	0.065803	19.8713	-1.608439	-3.086466E+21	-2.131988E-23	NaN
289	1.000000	0.146767	7.36788e+06	-53089.1	955.819	-29747	0.000000	0.000000	6.146806	0.076633	NaN	0.000000	0.001633	0.001643	28.077	0.032379	0.001928	16.7915	157.737	-164.737	0.050600	0.145509	-1.593939	-1.595197	0.076633	16.7915	-1.597362	-2.198542E+21	-3.485614E-23	NaN
289	1.000000	0.158728	7.36788e+06	-53089.1	955.818	-29747	0.000000	0.000000	6.158767	0.062137	NaN	0.000000	0.001606	0.001644	28.0769	0.013566	0.001999	6.785254	72.8432	-163.451	0.052238	0.157455	-1.581978	-1.583250	0.062137	6.785254	-1.588846	-1.693796E+21	-3.668524E-23	NaN
289	1.000000	0.170760	7.36788e+06	-53089.1	955.818	-29747	0.000000	0.000000	6.170800	0.113609	NaN	0.000000	0.001634	0.001682	28.0782	0.122991	0.001983	62.0276	-132.408	-163.635	0.118977	0.169439	-1.569946	-1.571267	0.113609	62.0276	-1.571320	-9.901488E+20	-1.147393E-22	NaN
289	1.000000	0.182757	7.36788e+06	-53089.1	955.818	-29747	0.000000	0.000000	6.182797	0.106249	NaN	0.000000	0.001625	0.001672	28.0782	0.069089	0.001991	34.6951	-107.767	-163.095	0.008655	0.181428	-1.557949	-1.559278	0.106249	34.6951	-1.560246	-7.052513E+20	-1.506539E-22	NaN
289	1.000000	0.194772	7.36788e+06	-53089.1	955.818	-29747	0.000000	0.000000	6.194809	0.025962	NaN	0.000000	0.001602	0.001670	28.0787	0.042996	0.001973	21.7869	-147.912	-167.098	-0.020961	0.193453	-1.545934	-1.547253	0.025962	21.7869	-1.546827	-4.674874E+20	-5.553555E-23	NaN
289	1.000000	0.206754	7.36788e+06	-53089.1	955.818	-29747	0.000000	0.000000	6.206792	0.053528	NaN	0.000000	0.001613	0.001689	28.0785	0.033118	0.001910	17.3424	-19.436	-164.073	0.098501	0.205451	-1.533952	-1.535255	0.053528	17.3424	-1.536267	-3.382242E+20	-1.582625E-22	NaN
289	1.000000	0.218805	7.36788e+06	-53089.1	955.819	-29747	0.000000	0.000000	6.218842	0.026031	NaN	0.000000	0.001643	0.001671	28.0782	0.089158	0.002043	43.6398	-88.0533	-162.907	0.086387	0.217516	-1.521900	-1.523190	0.026031	43.6398	-1.522348	-2.207506E+20	-1.179212E-22	NaN
289	1.000000	0.230806	7.36788e+06	-53089.1	955.818	-29747	0.000000	0.000000	6.230841	0.000602	NaN	0.000000	0.001632	0.001671	28.0783	0.064205	0.002013	31.8956	140.389	-164.771	0.034762	0.229458	-1.509900	-1.511248	0.000602	31.8956	-1.509914	-1.507814E+20	-3.994556E-24	NaN
289	1.000000	0.242820	7.36788e+06	-53089.1	955.819	-29747	0.000000	0.000000	6.242858	0.063874	NaN	0.000000	0.001610	0.001666	28.0781	0.033807	0.002040	16.5686	-25.4745	-163.996	0.062934	0.241494	-1.497886	-1.499212	0.063874	16.5686	-1.500777	-1.139377E+20	-5.606021E-22	NaN
289	1.000000	0.254822	7.36788e+06	-53089.1	955.819	-29747	0.000000	0.000000	6.254863	0.118188	NaN	0.000000	0.001616	0.001683	28.0782	0.051007	0.001966	25.9387	43.5635	-165.713	0.065570	0.253501	-1.485883	-1.487204	0.118188	25.9387	-1.489301	-8.013179E+19	-1.474919E-21	NaN
289	1.000000	0.266788	7.36788e+06	-53089.1	955.818	-29747	0.000000	0.000000	6.266825	0.046035	NaN	0.000000	0.001622	0.001676	28.0783	0.134982	0.001910	70.6604	-146.945	-167.072	0.020926	0.265461	-1.473918	-1.475245	0.046035	70.6604	-1.474407	-5.074463E+19	-9.071817E-22	NaN
289	1.000000	0.278789	7.36788e+06	-53089.1	955.819	-29747	0.000000	0.000000	6.278827	0.047389	NaN	0.000000	0.001671	0.001688	28.0784	0.022914	0.002074	11.0509	32.218	-163.051	0.083841	0.277539	-1.461916	-1.463167	0.047389	11.0509	-1.465133	-3.817841E+19	-1.241257E-21	NaN
289	1.000000	0.290799	7.36788e+06	-53089.1	955.818	-29747	0.000000	0.000000	6.290838	0.078287	NaN	0.000000	0.001688	0.001663	28.0789	0.073633	0.002055	35.8382	-79.4875	-163.322	-0.011902	0.289453	-1.449907	-1.451252	0.078287	35.8382	-1.451545	-2.516196E+19	-3.111332E-21	NaN
289	1.000000	0.302834	7.36788e+06	-53089.1	955.819	-29747	0.000000	0.000000	6.302876	0.142800	NaN	0.000000	0.001677	0.001717	28.0772	0.082043	0.001748	46.9254	-136.911	-167.693	0.179349	0.301539	-1.437872	-1.439167	0.142800	46.9254	-1.440154	-1.773821E+19	-8.050441E-21	NaN
289	1.000000	0.314819	7.36788e+06	-53089.1	955.818	-29747	0.000000	0.000000	6.314857	0.042654	NaN	0.000000	0.001624	0.001653	28.0771	0.079223	0.002055	38.5561	-122.372	-166.382	0.030393	0.313519	-1.425887	-1.427187	0.042654	38.5561	-1.426716	-1.174243E+19	-3.632443E-21	NaN
289	1.000000	0.326830	7.36788e+06	-53089.1	955.818	-29747	0.000000	0.000000	6.326869	0.065164	NaN	0.000000	0.001588	0.001691	28.0772	0.091894	0.001897	48.4518	-4.273024	-167.044	0.028365	0.325483	-1.413876	-1.415223	0.065164	48.4518	-1.414884	-8.165516E+18	-7.980443E-21	NaN
289	1.000000	0.338829	7.36788e+06	-53089.1	955.819	-29747	0.000000	0.000000	6.338865	0.011868	NaN	0.000000	0.001588	0.001658	28.0773	0.076421	0.001998	38.251	-47.346	-165.804	0.083662	0.337556	-1.401877	-1.403150	0.011868	38.251	-1.402110	-5.515778E+18	-2.151724E-21	NaN
289	1.000000	0.350859	7.36788e+06	-53089.1	955.818	-29747	0.000000	0.000000	6.350896	0.029393	NaN	0.000000	0.001625	0.001693	28.0774	0.057677	0.002011	28.6854	-83.1961	-165.405	-0.036742	0.349473	-1.389846	-1.391233	0.029393	28.6854	-1.390615	-3.874971E+18	-7.585408E-21	NaN
289	1.000000	0.362846	7.36788e+06	-53089.1	955.819	-29747	0.000000	0.000000	6.362884	0.039526	NaN	0.000000	0.001585	0.001723	28.0772	0.097750	0.001945	50.248	-110.585	-163.393	-0.025790	0.361556	-1.377860	-1.379150	0.039526	50.248	-1.378449	-2.666554E+18	-1.482270E-20	NaN
289	1.000000	0.374865	7.36788e+06	-53089.1	955.818	-29747	0.000000	0.000000	6.374900	-0.035693	NaN	0.000000	0.001588	0.001659	28.0774	0.048705	0.001906	25.557	126.948	-163.645	0.057937	0.373548	-1.365840	-1.367158	-0.035693	25.557	-1.364793	-1.752657E+18	2.036523E-20	NaN
289	1.000000	0.386881	7.36788e+06	-53089.1	955.818	-29747	0.000000	0.000000	6.386918	0.026747	NaN	0.000000	0.001620	0.001684	28.0777	0.126754	0.001952	64.9409	-156.42	-163.966	-0.048488	0.385555	-1.353825	-1.355151	0.026747	64.9409	-1.354134	-1.263051E+18	-2.117626E-20	NaN
289	1.000000	0.398857	7.36788e+06	-53089.1	955.818	-29747	0.000000	0.000000	6.398894	0.017743	NaN	0.000000	0.001627	0.001699	28.0772	0.068702	0.002103	32.6754	133.584	-167.677	-0.008209	0.397553	-1.341849	-1.343153	0.017743	32.6754	-1.342256	-8.766630E+17	-2.023872E-20	NaN
289	1.000000	0.410850	7.36788e+06	-53089.1	955.818	-29747	0.000000	0.000000	6.410887	0.022340	NaN	0.000000	0.001614	0.001711	28.0772	0.129513	0.002090	61.9652	-100.145	-163.605	0.003695	0.409607	-1.329855	-1.331099	0.022340	61.9652	-1.330126	-6.037394E+17	-3.700295E-20	NaN
289	1.000000	0.422860	7.36788e+06	-53089.1	955.82	-29747	0.000000	0.000000	6.422898	0.048291	NaN	0.000000	0.001613	0.001695	28.077	0.045994	0.002099	21.9122	-96.4204	-162.665	-0.023960	0.421547	-1.317846	-1.319159	0.048291	21.9122	-1.319499	-4.354195E+17	-1.109076E-19	NaN
289	1.000000	0.434890	7.36788e+06	-53089.1	955.818	-29747	0.000000	0.000000	6.434929	0.081118	NaN	0.000000	0.001597	0.001686	28.0775	0.053632	0.001985	27.0227	-79.4461	-164.179	0.049185	0.433602	-1.305816	-1.307104	0.081118	27.0227	-1.308067	-3.063306E+17	-2.648052E-19	NaN
289	1.000000	0.446868	7.36788e+06	-53089.1	955.818	-29747	0.000000	0.000000	6.446907	0.086458	NaN	0.000000	0.001614	0.001707	28.0782	0.057862	0.001977	29.2693	178.064	-163.911	0.035373	0.445621	-1.293838	-1.295085	0.086458	29.2693	-1.296053	-2.116674E+17	-4.084595E-19	NaN
289	1.000000	0.458881	7.36788e+06	-53089.1	955.819	-29747	0.000000	0.000000	6.458920	0.068599	NaN	0.000000	0.001647	0.001650	28.0783	0.019791	0.002152	9.196530	-151.235	-162.671	0.129810	0.457544	-1.281824	-1.283162	0.068599	9.196530	-1.287419	-1.622760E+17	-4.227285E-19	NaN
289	1.000000	0.470891	7.36788e+06	-53089.1	955.818	-29747	0.000000	0.000000	6.470930	0.065031	NaN	0.000000	0.001667	0.001667	28.0783	0.081769	0.001933	42.3077	135.296	-165.477	-0.034081	0.469608	-1.269815	-1.271097	0.065031	42.3077	-1.270967	-9.779744E+16	-6.649545E-19	NaN
289	1.000000	0.482898	7.36788e+06	-53089.1	955.818	-29747	0.000000	0.000000	6.482938	0.090614	NaN	0.000000	0.001683	0.001660	28.0786	0.071773	0.002043	35.1302	91.5202	-164.467	0.106410	0.481581	-1.257807	-1.259125	0.090614	35.1302	-1.259742	-6.921795E+16	-1.309115E-18	NaN
289	1.000000	0.494899	7.36788e+06	-53089.1	955.819	-29747	0.000000	0.000000	6.494935	0.009786	NaN	0.000000	0.001685	0.001694	28.0784	0.020384	0.001883	10.8233	138.05	-165.309	0.066858	0.493605	-1.245807	-1.247101	0.009786	10.8233	-1.246485	-4.601551E+16	-2.126623E-19	NaN
289	1.000000	0.506919	7.36788e+06	-53089.1	955.819	-29747	0.000000	0.000000	6.506958	0.054566	NaN	0.000000	0.001718	0.001705	28.0784	0.103209	0.002044	50.485	112.046	-169.156	0.014484	0.505618	-1.233786	-1.235088	0.054566	50.485	-1.234597	-3.190449E+16	-1.710301E-18	NaN
289	1.000000	0.518927	7.36788e+06	-53089.1	955.818	-29747	0.000000	0.000000	6.518962	-0.018377	NaN	0.000000	0.001672	0.001726	28.0785	0.099395	0.002074	47.9241	6.480496	-162.57	0.009970	0.517635	-1.221779	-1.223071	-0.018377	47.9241	-1.221492	-2.130434E+16	8.625875E-19	NaN
289	1.000000	0.530933	7.36788e+06	-53089.1	955.818	-29747	0.000000	0.000000	6.530972	0.087052	NaN	0.000000	0.001695	0.001729	28.0785	0.016303	0.001896	8.599547	22.2654	-166.018	0.062127	0.529631	-1.209773	-1.211075	0.087052	8.599547	-1.217365	-1.876028E+16	-4.640242E-18	NaN
289	1.000000	0.542901	7.36788e+06	-53089.1	955.819	-29747	0.000000	0.000000	6.542943	0.133738	NaN	0.000000	0.001706	0.001676	28.0783	0.028801	0.002095	13.7447	12.7646	-167.216	0.032776	0.541626	-1.197805	-1.199080	0.133738	13.7447	-1.205102	-1.285483E+16	-1.040373E-17	NaN
289	1.000000	0.554922	7.36788e+06	-53089.1	955.818	-29747	0.000000	0.000000	6.554959	0.043203	NaN	0.000000	0.001673	0.001694	28.0782	0.068079	0.001930	35.2804	60.7041	-164.725	0.039147	0.553618	-1.185784	-1.187088	0.043203	35.2804	-1.186703	-7.288827E+15	-5.927340E-18	NaN
289	1.000000	0.566933	7.36788e+06	-53089.1	955.818	-29747	0.000000	0.000000	6.566970	0.023082	NaN	0.000000	0.001666	0.001696	28.0782	0.061767	0.002098	29.4367	-120.275	-166.232	0.064587	0.565634	-1.173773	-1.175072	0.023082	29.4367	-1.174361	-4.980995E+15	-4.634026E-18	NaN
289	1.000000	0.578942	7.36788e+06	-53089.1	955.818	-29747	0.000000	0.000000	6.578978	0.003821	NaN	0.000000	0.001616	0.001664	28.0775	0.054574	0.001967	27.7421	116.395	-163.979	-0.005992	0.577632	-1.161763	-1.163074	0.003821	27.7421	-1.161867	-3.387577E+15	-1.127903E-18	NaN
289	1.000000	0.590917	7.36788e+06	-53089.1	955.819	-29747	0.000000	0.000000	6.590955	0.050197	NaN	0.000000	0.001650	0.001678	28.0773	0.038175	0.002043	18.687	-99.9143	-164.844	0.037227	0.589636	-1.149789	-1.151070	0.050197	18.687	-1.151803	-2.483097E+15	-2.021557E-17	NaN
289	1.000000	0.602942	7.36788e+06	-53089.1	955.818	-29747	0.000000	0.000000	6.602980	0.044091	NaN	0.000000	0.001609	0.001674	28.0772	0.138640	0.001998	69.3993	174.153	-164.277	0.022971	0.601662	-1.137763	-1.139043	0.044091	69.3993	-1.138240	-1.633562E+15	-2.699047E-17	NaN
289	1.000000	0.614965	7.36788e+06	-53089.1	955.818	-29747	0.000000	0.000000	6.615005	0.092108	NaN	0.000000	0.001632	0.001675	28.0768	0.087566	0.002028	43.1789	-41.4277	-163.592	0.026221	0.613648	-1.125740	-1.127057	0.092108	43.1789	-1.127340	-1.166665E+15	-7.894964E-17	NaN
289	1.000000	0.626943	7.36788e+06	-53089.1	955.818	-29747	0.000000	0.000000	6.626979	0.007927	NaN	0.000000	0.001615	0.001650	28.0769	0.027354	0.001982	13.8031	162.099	-163.721	0.021900	0.625658	-1.113763	-1.115048	0.007927	13.8031	-1.114194	-7.772623E+14	-1.019876E-17	NaN
289	1.000000	0.638994	7.36788e+06	-53089.1	955.818	-29747	0.000000	0.000000	6.639030	-0.010034	NaN	0.000000	0.001632	0.001682	28.0771	0.013092	0.002047	6.395347	149.195	-162.157	-0.020006	0.637620	-1.101711	-1.103085	-0.010034	6.395347	-1.100535	-5.096185E+14	1.968948E-17	NaN
289	1.000000	0.650955	7.36788e+06	-53089.1	955.818	-29747	0.000000	0.000000	6.650991	-0.011275	NaN	0.000000	0.001618	0.001683	28.0771	0.035865	0.002033	17.6424	-28.6184	-164.907	-0.031961	0.649690	-1.089750	-1.091016	-0.011275	17.6424	-1.089271	-3.597700E+14	3.133983E-17	NaN
289	1.000000	0.662986	7.36788e+06	-53089.1	955.818	-29747	0.000000	0.000000	6.663026	0.095741	NaN	0.000000	0.001596	0.001692	28.0771	0.042790	0.002101	20.3631	-74.0435	-163.293	0.046665	0.661680	-1.077720	-1.079026	0.095741	20.3631	-1.081246	-2.807110E+14	-3.410673E-16	NaN
289	1.000000	0.674933	7.36788e+06	-53089.1	955.818	-29747	0.000000	0.000000	6.674969	-0.000591	NaN	0.000000	0.001616	0.001640	28.077	0.042796	0.002044	20.9368	106.8	-164.489	-0.019295	0.673661	-1.065773	-1.067045	-0.000591	20.9368	-1.065752	-1.738251E+14	3.399007E-18	NaN
289	1.000000	0.686973	7.36788e+06	-53089.1	955.819	-29747	0.000000	0.000000	6.687011	0.066571	NaN	0.000000	0.001597	0.001672	28.0772	0.075615	0.002133	35.4459	-95.8019	-164.248	0.082762	0.685672	-1.053733	-1.055033	0.066571	35.4459	-1.055142	-1.251772E+14	-5.318133E-16	NaN
289	1.000000	0.698963	7.36788e+06	-53089.1	955.819	-29747	0.000000	0.000000	6.698998	-0.020861	NaN	0.000000	0.001628	0.001693	28.0769	0.100862	0.001936	52.1026	-43.9293	-160.225	0.084496	0.697681	-1.041743	-1.043025	-0.020861	52.1026	-1.041442	-8.191441E+13	2.546698E-16	NaN
289	1.000000	0.711015	7.36788e+06	-53089.1	955.818	-29747	0.000000	0.000000	6.711054	0.079565	NaN	0.000000	0.001616	0.001659	28.0782	0.049063	0.001878	26.122	-31.6751	-167.56	0.016665	0.709688	-1.029691	-1.031018	0.079565	26.122	-1.031975	-6.110116E+13	-1.302189E-15	NaN
289	1.000000	0.723017	7.36788e+06	-53089.1	955.818	-29747	0.000000	0.000000	6.723054	0.043197	NaN	0.000000	0.001608	0.001704	28.0781	0.086207	0.001923	44.8345	88.8773	-164.992	0.110863	0.721671	-1.017689	-1.019034	0.043197	44.8345	-1.018412	-4.014059E+13	-1.076143E-15	NaN
289	1.000000	0.735002	7.36788e+06	-53089.1	955.818	-29747	0.000000	0.000000	6.735041	0.091012	NaN	0.000000	0.001628	0.001669	28.0781	0.089365	0.001914	46.6909	-25.8618	-163.622	0.085746	0.733653	-1.005704	-1.007052	0.091012	46.6909	-1.007166	-2.832942E+13	-3.212622E-15	NaN
289	1.000000	0.747025	7.36788e+06	-53089.1	955.818	-29747	0.000000	0.000000	6.747063	0.057597	NaN	0.000000	0.001574	0.001674	28.0782	0.057685	0.002095	27.5371	128.397	-167.345	0.011746	0.745685	-0.993681	-0.995021	0.057597	27.5371	-0.995250	-1.957980E+13	-2.941654E-15	NaN
289	1.000000	0.759017	7.36788e+06	-53089.1	955.818	-29747	0.000000	0.000000	6.759052	-0.007122	NaN	0.000000	0.001580	0.001652	28.0779	0.101707	0.002093	48.5895	-152.673	-166.395	-0.031590	0.757698	-0.981689	-0.983008	-0.007122	48.5895	-0.981579	-1.281395E+13	5.558288E-16	NaN
289	1.000000	0.771019	7.36788e+06	-53089.1	955.819	-29747	0.000000	0.000000	6.771055	0.011479	NaN	0.000000	0.001580	0.001665	28.0786	0.059677	0.001982	30.1081	141.358	-165.325	0.032517	0.769693	-0.969687	-0.971013	0.011479	30.1081	-0.969973	-8.939189E+12	-1.284164E-15	NaN
289	1.000000	0.783057	7.36788e+06	-53089.1	955.819	-29747	0.000000	0.000000	6.783090	-0.081852	NaN	0.000000	0.001631	0.001657	28.0784	0.092942	0.002147	43.2943	51.0631	-162.701	0.041895	0.781677	-0.957648	-0.959029	-0.081852	43.2943	-0.956230	-5.835070E+12	1.402761E-14	NaN
289	1.000000	0.795041	7.36788e+06	-53089.1	955.818	-29747	0.000000	0.000000	6.795076	-0.001554	NaN	0.000000	0.001621	0.001614	28.0782	0.106240	0.002003	53.0493	-112.51	-168.417	-0.031362	0.793694	-0.945665	-0.947012	-0.001554	53.0493	-0.945643	-4.200159E+12	3.700382E-16	NaN
289	1.000000	0.807041	7.36788e+06	-53089.1	955.818	-29747	0.000000	0.000000	6.807079	0.034311	NaN	0.000000	0.001648	0.001672	28.0783	0.040006	0.001968	20.3277	-179.645	-164.051	0.015286	0.805725	-0.933665	-0.934981	0.034311	20.3277	-0.934930	-3.011169E+12	-1.139459E-14	NaN
289	1.000000	0.819047	7.36788e+06	-53089.1	955.818	-29747	0.000000	0.000000	6.819085	0.048174	NaN	0.000000	0.001620	0.001676	28.0782	0.042004	0.002113	19.8781	-27.2079	-167.545	0.035915	0.817701	-0.921659	-0.923005	0.048174	19.8781	-0.923476	-2.109298E+12	-2.283881E-14	NaN
289	1.000000	0.831028	7.36788e+06	-53089.1	955.818	-29747	0.000000	0.000000	6.831064	0.008056	NaN	0.000000	0.001597	0.001681	28.0784	0.052532	0.002013	26.0945	165.214	-167.895	-0.027825	0.829732	-0.909678	-0.910974	0.008056	26.0945	-0.909909	-1.383371E+12	-5.823398E-15	NaN
289	1.000000	0.843035	7.36788e+06	-53089.1	955.819	-29747	0.000000	0.000000	6.843073	0.042896	NaN	0.000000	0.001605	0.001668	28.0782	0.082326	0.002025	40.6583	73.1326	-163.108	0.047096	0.841720	-0.897671	-0.898986	0.042896	40.6583	-0.898462	-9.689131E+11	-4.427195E-14	NaN
289	1.000000	0.855054	7.36788e+06	-53089.1	955.819	-29747	0.000000	0.000000	6.855092	0.075561	NaN	0.000000	0.001609	0.001696	28.0771	0.028794	0.001965	14.6563	34.359	-165.784	0.011789	0.853709	-0.885652	-0.886997	0.075561	14.6563	-0.889519	-7.335206E+11	-1.030114E-13	NaN
289	1.000000	0.867059	7.36788e+06	-53089.1	955.819	-29747	0.000000	0.000000	6.867097	0.053363	NaN	0.000000	0.001631	0.001670	28.0774	0.028283	0.001930	14.6576	-13.5353	-163.631	0.009424	0.865725	-0.873647	-0.874981	0.053363	14.6576	-0.876378	-4.872116E+11	-1.095281E-13	NaN
289	1.000000	0.879056	7.36788e+06	-53089.1	955.817	-29747	0.000000	0.000000	6.879095	0.070902	NaN	0.000000	0.001602	0.001659	28.0773	0.006891	0.001981	3.478123	-149.472	-165.523	-0.021819	0.877720	-0.861649	-0.862986	0.070902	3.478123	-0.876938	-4.957920E+11	-1.430075E-13	NaN
289	1.000000	0.891068	7.36789e+06	-53089.1	955.818	-29747	0.000000	0.000000	6.891104	-0.003811	NaN	0.000000	0.001617	0.001691	28.0774	0.099088	0.002071	47.8365	-157.396	-165.633	0.083765	0.889759	-0.849638	-0.850947	-0.003811	47.8365	-0.849578	-2.113614E+11	1.803185E-14	NaN
289	1.000000	0.903072	7.36789e+06	-53089.1	955.819	-29747	0.000000	0.000000	6.903108	0.002722	NaN	0.000000	0.001599	0.001689	28.0773	0.050382	0.001953	25.7959	50.2438	-164.462	0.018907	0.901744	-0.837633	-0.838961	0.002722	25.7959	-0.837713	-1.459830E+11	-1.864376E-14	NaN
289	1.000000	0.915059	7.36789e+06	-53089.1	955.818	-29747	0.000000	0.000000	6.915098	0.086656	NaN	0.000000	0.001593	0.001684	28.0772	0.081005	0.002135	37.9382	27.349	-166.055	0.089561	0.913822	-0.825647	-0.826884	0.086656	37.9382	-0.827360	-1.056818E+11	-8.199678E-13	NaN
289	1.000000	0.927086	7.36789e+06	-53089.1	955.818	-29747	0.000000	0.000000	6.927123	0.031596	NaN	0.000000	0.001633	0.001704	28.0775	0.056604	0.001945	29.0962	31.4149	-165.933	0.056843	0.925755	-0.813620	-0.814950	0.031596	29.0962	-0.814434	-7.058739E+10	-4.476139E-13	NaN
289	1.000000	0.939101	7.36789e+06	-53089.1	955.818	-29747	0.000000	0.000000	6.939139	0.050611	NaN	0.000000	0.001597	0.001642	28.0772	0.031559	0.001956	16.1347	-92.2566	-165.901	0.088071	0.937738	-0.801604	-0.802968	0.050611	16.1347	-0.803957	-5.088289E+10	-9.946650E-13	NaN
289	1.000000	0.951096	7.36789e+06	-53089.1	955.819	-29747	0.000000	0.000000	6.951132	0.023291	NaN	0.000000	0.001596	0.001649	28.0775	0.082848	0.002026	40.8898	163.052	-166.845	0.037598	0.949805	-0.789610	-0.790901	0.023291	40.8898	-0.790037	-3.292996E+10	-7.072885E-13	NaN
289	1.000000	0.963085	7.36789e+06	-53089.1	955.819	-29747	0.000000	0.000000	6.963119	-0.041057	NaN	0.000000	0.001629	0.001665	28.0776	0.043696	0.001935	22.5794	-157.329	-164.693	0.035604	0.961769	-0.777621	-0.778937	-0.041057	22.5794	-0.776257	-2.139750E+10	1.918768E-12	NaN
289	1.000000	0.975094	7.36789e+06	-53089.1	955.819	-29747	0.000000	0.000000	6.975136	0.157655	NaN	0.000000	0.001609	0.001675	28.0775	0.042531	0.002038	20.8669	-35.3658	-167.66	0.086897	0.973790	-0.765612	-0.766916	0.157655	20.8669	-0.771278	-1.830982E+10	-8.610427E-12	NaN
289	1.000000	0.987099	7.36789e+06	-53089.1	955.819	-29747	0.000000	0.000000	6.987137	0.037657	NaN	0.000000	0.001639	0.001686	28.0784	0.047502	0.002092	22.7089	58.4602	-165.314	0.098634	0.985761	-0.753606	-0.754945	0.037657	22.7089	-0.754850	-1.094540E+10	-3.440460E-12	NaN
289	1.000000	0.999098	7.36789e+06	-53089.1	955.82	-29747	0.000000	0.000000	6.999131	-0.052549	NaN	0.000000	0.001652	0.001659	28.0783	0.067980	0.001982	34.2959	-39.4492	-163.463	0.009162	0.997845	-0.741608	-0.742861	-0.052549	34.2959	-0.740459	-6.971223E+9	7.538022E-12	NaN
289	1.000000	1.011116	7.36789e+06	-53089.1	955.819	-29747	0.000000	0.000000	7.011149	-0.071994	NaN	0.000000	0.001630	0.001666	28.0787	0.055661	0.002136	26.0559	177.057	-167.715	-0.053014	1.009804	-0.729589	-0.730902	-0.071994	26.0559	-0.727517	-4.644777E+9	1.549997E-11	NaN
289	1.000000	1.023110	7.36789e+06	-53089.1	955.818	-29747	0.000000	0.000000	7.023148	0.052545	NaN	0.000000	0.001623	0.001666	28.0786	0.138640	0.002006	69.1072	-125.37	-165.148	-0.024769	1.021754	-0.717596	-0.718952	0.052545	69.1072	-0.718166	-3.463043E+9	-1.517293E-11	NaN
289	1.000000	1.035143	7.36789e+06	-53089.1	955.819	-29747	0.000000	0.000000	7.035180	0.028048	NaN	0.000000	0.001620	0.001685	28.0788	0.069937	0.001972	35.469	-82.564	-166.131	-0.008638	1.033786	-0.705563	-0.706920	0.028048	35.469	-0.706156	-2.374564E+9	-1.181206E-11	NaN
289	1.000000	1.047122	7.36789e+06	-53089.1	955.819	-29747	0.000000	0.000000	7.047157	-0.026803	NaN	0.000000	0.001655	0.001700	28.0785	0.059789	0.001948	30.6889	66.6388	-165.443	-0.015295	1.045829	-0.693584	-0.694876	-0.026803	30.6889	-0.692929	-1.566539E+9	1.710939E-11	NaN
289	1.000000	1.059133	7.36789e+06	-53089.1	955.818	-29747	0.000000	0.000000	7.059172	0.089907	NaN	0.000000	0.001627	0.001646	28.0786	0.031066	0.002015	15.4144	-101.66	-165.857	0.037230	1.057771	-0.681573	-0.682935	0.089907	15.4144	-0.685948	-1.257568E+9	-7.149312E-11	NaN
289	1.000000	1.071121	7.36789e+06	-53089.1	955.819	-29747	0.000000	0.000000	7.071160	0.090468	NaN	0.000000	0.001603	0.001685	28.0785	0.032285	0.001944	16.6079	-80.8116	-168.818	0.082929	1.069812	-0.669585	-0.670894	0.090468	16.6079	-0.673670	-8.543180E+8	-1.058954E-10	NaN
289	1.000000	1.083140	7.36789e+06	-53089.1	955.819	-29747	0.000000	0.000000	7.083178	0.067230	NaN	0.000000	0.001595	0.001662	28.0784	0.082383	0.001920	42.9022	53.9376	-166.65	0.108078	1.081855	-0.657566	-0.658850	0.067230	42.9022	-0.658741	-5.336154E+8	-1.259895E-10	NaN
289	1.000000	1.095146	7.36789e+06	-53089.1	955.819	-29747	0.000000	0.000000	7.095182	0.005262	NaN	0.000000	0.001615	0.001683	28.0784	0.088682	0.002092	42.4003	-6.120228	-166.996	-0.050977	1.093851	-0.645560	-0.646855	0.005262	42.4003	-0.645653	-3.530511E+8	-1.490371E-11	NaN
289	1.000000	1.107140	7.36789e+06	-53089.1	955.819	-29747	0.000000	0.000000	7.107176	0.003761	NaN	0.000000	0.001675	0.001661	28.0784	0.041277	0.002099	19.669	-110.449	-162.693	-0.071627	1.105845	-0.633566	-0.634861	0.003761	19.669	-0.633709	-2.420769E+8	-1.553826E-11	NaN
289	1.000000	1.119141	7.36789e+06	-53089.1	955.819	-29747	0.000000	0.000000	7.119176	-0.017928	NaN	0.000000	0.001674	0.001696	28.0777	0.012807	0.001960	6.535692	154.562	-165.77	0.044444	1.117800	-0.621565	-0.622906	-0.017928	6.535692	-0.619508	-1.544788E+8	1.160575E-10	NaN
289	1.000000	1.131168	7.36789e+06	-53089.1	955.819	-29747	0.000000	0.000000	7.131207	0.078049	NaN	0.000000	0.001654	0.001652	28.0773	0.066967	0.001853	36.1415	-3.062701	-165.449	0.002061	1.129813	-0.609538	-0.610893	0.078049	36.1415	-0.611158	-1.185876E+8	-6.581508E-10	NaN
289	1.000000	1.143154	7.36789e+06	-53089.1	955.819	-29747	0.000000	0.000000	7.143191	0.011169	NaN	0.000000	0.001622	0.001664	28.0772	0.057904	0.001949	29.7119	-84.5304	-166.826	-0.002737	1.141813	-0.597551	-0.598893	0.011169	29.7119	-0.597833	-7.773523E+7	-1.436823E-10	NaN
289	1.000000	1.155197	7.36789e+06	-53089.1	955.818	-29747	0.000000	0.000000	7.155233	0.008619	NaN	0.000000	0.001653	0.001653	28.0773	0.026989	0.001871	14.4245	59.4179	-166.045	-0.012898	1.153850	-0.585509	-0.586855	0.008619	14.4245	-0.585957	-5.332286E+7	-1.616337E-10	NaN
289	1.000000	1.167172	7.36789e+06	-53089.1	955.819	-29747	0.000000	0.000000	7.167209	0.011782	NaN	0.000000	0.001646	0.001656	28.0776	0.117849	0.002115	55.7272	-175.747	-163.796	0.033322	1.165905	-0.573534	-0.574801	0.011782	55.7272	-0.573692	-3.611069E+7	-3.262830E-10	NaN
289	1.000000	1.179175	7.36789e+06	-53089.1	955.819	-29747	0.000000	0.000000	7.179213	0.041485	NaN	0.000000	0.001642	0.001669	28.0774	0.056696	0.001814	31.2484	138.188	-165.596	0.056099	1.177907	-0.561531	-0.562799	0.041485	31.2484	-0.562526	-2.531172E+7	-1.638973E-9	NaN
289	1.000000	1.191187	7.36789e+06	-53089.1	955.819	-29747	0.000000	0.000000	7.191224	0.040990	NaN	0.000000	0.001608	0.001657	28.077	0.047931	0.002139	22.4055	-137.525	-165.515	0.006697	1.189928	-0.549519	-0.550778	0.040990	22.4055	-0.550891	-1.747013E+7	-2.346264E-9	NaN
289	1.000000	1.203201	7.36789e+06	-53089.1	955.819	-29747	0.000000	0.000000	7.203240	0.057406	NaN	0.000000	0.001635	0.001653	28.0772	0.053919	0.002052	26.2766	-159.67	-168.759	0.133217	1.201872	-0.537504	-0.538834	0.057406	26.2766	-0.539143	-1.200801E+7	-4.780643E-9	NaN
289	1.000000	1.215181	7.36789e+06	-53089.1	955.82	-29747	0.000000	0.000000	7.215217	0.010943	NaN	0.000000	0.001610	0.001704	28.0773	0.092692	0.001898	48.8325	156.473	-165.344	-0.012812	1.213904	-0.525525	-0.526801	0.010943	48.8325	-0.525693	-7.8117e+06	-1.400910E-9	NaN
289	1.000000	1.227188	7.36789e+06	-53089.1	955.819	-29747	0.000000	0.000000	7.227224	-0.005486	NaN	0.000000	0.001612	0.001676	28.0773	0.056208	0.001846	30.4452	-101.627	-166.639	-0.044004	1.225867	-0.513517	-0.514839	-0.005486	30.4452	-0.513382	-5.26642e+06	1.041737E-9	NaN
289	1.000000	1.239225	7.36789e+06	-53089.1	955.818	-29747	0.000000	0.000000	7.239261	0.009377	NaN	0.000000	0.001655	0.001680	28.0775	0.136883	0.001974	69.3461	12.3417	-166.273	-0.024961	1.237862	-0.501481	-0.502844	0.009377	69.3461	-0.501582	-3.60655e+06	-2.599979E-9	NaN
289	1.000000	1.251210	7.36789e+06	-53089.1	955.819	-29747	0.000000	0.000000	7.251248	0.052961	NaN	0.000000	0.001598	0.001664	28.0773	0.044061	0.002052	21.4763	148.728	-165.542	0.019224	1.249893	-0.489496	-0.490813	0.052961	21.4763	-0.491345	-2.5953e+06	-2.040672E-8	NaN
289	1.000000	1.263238	7.36789e+06	-53089.1	955.819	-29747	0.000000	0.000000	7.263276	0.052277	NaN	0.000000	0.001666	0.001676	28.0787	0.039080	0.001979	19.7467	-109.967	-161.509	0.146412	1.261868	-0.477468	-0.478838	0.052277	19.7467	-0.479453	-1.7696e+06	-2.954139E-8	NaN
289	1.000000	1.275205	7.36789e+06	-53089.1	955.82	-29747	0.000000	0.000000	7.275244	0.066236	NaN	0.000000	0.001681	0.001660	28.0788	0.026112	0.001951	13.3826	161.664	-169.024	0.024651	1.273910	-0.465501	-0.466796	0.066236	13.3826	-0.469213	-1.27165e+06	-5.208652E-8	NaN
289	1.000000	1.287207	7.36789e+06	-53089.1	955.82	-29747	0.000000	0.000000	7.287243	0.005339	NaN	0.000000	0.001680	0.001671	28.0785	0.082354	0.001816	45.3412	150.487	-168.605	0.025491	1.285918	-0.453499	-0.454788	0.005339	45.3412	-0.453587	-767073	-6.960012E-9	NaN
289	1.000000	1.299223	7.36789e+06	-53089.1	955.819	-29747	0.000000	0.000000	7.299258	-0.019598	NaN	0.000000	0.001699	0.001671	28.0786	0.025115	0.001984	12.6577	-149.834	-166.907	-0.020146	1.297926	-0.441483	-0.442779	-0.019598	12.6577	-0.440322	-498776	3.929309E-8	NaN
289	1.000000	1.311222	7.36789e+06	-53089.1	955.82	-29747	0.000000	0.000000	7.311256	-0.038013	NaN	0.000000	0.001689	0.001661	28.0785	0.092039	0.002068	44.498	-118.231	-163.254	0.030738	1.309927	-0.429484	-0.430779	-0.038013	44.498	-0.428843	-343316	1.107236E-7	NaN
289	1.000000	1.323240	7.36789e+06	-53089.1	955.82	-29747	0.000000	0.000000	7.323276	0.008548	NaN	0.000000	0.001746	0.001689	28.0787	0.083065	0.002006	41.4101	-64.2854	-169.804	0.004155	1.321984	-0.417466	-0.418721	0.008548	41.4101	-0.417621	-238045	-3.590763E-8	NaN
289	1.000000	1.335226	7.36789e+06	-53089.1	955.82	-29747	0.000000	0.000000	7.335264	0.055908	NaN	0.000000	0.001680	0.001680	28.0787	0.070612	0.001909	36.9845	-5.484796	-165.701	0.036852	1.333935	-0.405480	-0.406770	0.055908	36.9845	-0.406614	-166046	-3.367005E-7	NaN
289	1.000000	1.347269	7.36789e+06	-53089.1	955.82	-29747	0.000000	0.000000	7.347308	0.073915	NaN	0.000000	0.001676	0.001656	28.0788	0.039323	0.001847	21.2887	126.131	-166.779	0.129486	1.345918	-0.393437	-0.394787	0.073915	21.2887	-0.396041	-117353	-6.298539E-7	NaN
289	1.000000	1.359209	7.36789e+06	-53089.1	955.82	-29747	0.000000	0.000000	7.359245	-0.010664	NaN	0.000000	0.001683	0.001660	28.0786	0.119624	0.002042	58.589	112.055	-166.831	0.078254	1.357975	-0.381497	-0.382731	-0.010664	58.589	-0.381360	-72344.2	1.474014E-7	NaN
289	1.000000	1.371244	7.36789e+06	-53089.1	955.82	-29747	0.000000	0.000000	7.371284	0.096892	NaN	0.000000	0.001682	0.001635	28.0787	0.012886	0.001967	6.551248	165.078	-163.315	0.169394	1.369974	-0.369461	-0.370732	0.096892	6.551248	-0.380554	-70442.8	-1.375475E-6	NaN
289	1.000000	1.383254	7.36789e+06	-53089.1	955.819	-29747	0.000000	0.000000	7.383292	0.056502	NaN	0.000000	0.001633	0.001644	28.0787	0.082818	0.002009	41.2146	-75.0836	-164.089	0.096820	1.381998	-0.357452	-0.358708	0.056502	41.2146	-0.358480	-33874	-1.668019E-6	NaN
289	1.000000	1.395277	7.36789e+06	-53089.1	955.82	-29747	0.000000	0.000000	7.395317	0.089214	NaN	0.000000	0.001683	0.001652	28.0772	0.079167	0.002075	38.148	147.42	-166.488	0.101393	1.393948	-0.345429	-0.346758	0.089214	38.148	-0.347183	-23232.1	-3.840102E-6	NaN
289	1.000000	1.407254	7.36789e+06	-53089.1	955.819	-29747	0.000000	0.000000	7.407291	0.008664	NaN	0.000000	0.001676	0.001671	28.0773	0.068509	0.001930	35.5017	-40.0336	-164.99	-0.042464	1.405976	-0.333451	-0.334729	0.008664	35.5017	-0.333635	-14744.5	-5.876028E-7	NaN
289	1.000000	1.419282	7.36789e+06	-53089.1	955.82	-29747	0.000000	0.000000	7.419320	0.062468	NaN	0.000000	0.001684	0.001673	28.0773	0.067252	0.002092	32.1465	-29.2889	-165.523	0.085453	1.417973	-0.321424	-0.322733	0.062468	32.1465	-0.322882	-10257	-6.090259E-6	NaN
289	1.000000	1.431307	7.36789e+06	-53089.1	955.82	-29747	0.000000	0.000000	7.431344	0.012550	NaN	0.000000	0.001657	0.001671	28.0774	0.065369	0.002078	31.4598	30.6254	-166.141	-0.026761	1.429947	-0.309398	-0.310759	0.012550	31.4598	-0.309698	-6555.11	-1.914547E-6	NaN
289	1.000000	1.443274	7.36789e+06	-53089.1	955.82	-29747	0.000000	0.000000	7.443311	0.033751	NaN	0.000000	0.001679	0.001674	28.0774	0.097767	0.002081	46.9769	-78.1584	-165.545	-0.045073	1.441945	-0.297432	-0.298761	0.033751	46.9769	-0.297971	-4389.48	-7.689041E-6	NaN
289	1.000000	1.455307	7.36789e+06	-53089.1	955.82	-29747	0.000000	0.000000	7.455343	-0.016254	NaN	0.000000	0.001668	0.001678	28.0777	0.101386	0.001976	51.3104	-114.813	-169.324	-0.016631	1.454008	-0.285398	-0.286698	-0.016254	51.3104	-0.285161	-2822.83	5.757940E-6	NaN
289	1.000000	1.467313	7.36789e+06	-53089.1	955.821	-29747	0.000000	0.000000	7.467349	0.013297	NaN	0.000000	0.001591	0.001652	28.0777	0.110627	0.001998	55.3733	-51.9168	-163.872	0.021897	1.465991	-0.273393	-0.274715	0.013297	55.3733	-0.273573	-1887.04	-7.046560E-6	NaN
289	1.000000	1.479300	7.36789e+06	-53089.1	955.821	-29747	0.000000	0.000000	7.479338	0.063633	NaN	0.000000	0.001650	0.001648	28.0773	0.039927	0.001999	19.9763	73.4735	-168.588	0.065385	1.478040	-0.261406	-0.262666	0.063633	19.9763	-0.263795	-1339.64	-4.749965E-5	NaN
289	1.000000	1.491320	7.36789e+06	-53089.1	955.822	-29747	0.000000	0.000000	7.491355	-0.008426	NaN	0.000000	0.001704	0.001657	28.0775	0.022431	0.002087	10.7479	-71.1534	-166.995	0.037091	1.490046	-0.249386	-0.250660	-0.008426	10.7479	-0.248798	-787.709	1.069713E-5	NaN
289	1.000000	1.503357	7.36789e+06	-53089.1	955.821	-29747	0.000000	0.000000	7.503396	0.085051	NaN	0.000000	0.001666	0.001712	28.0774	0.046219	0.002011	22.9834	5.127641	-164.9	0.094026	1.501978	-0.237349	-0.238728	0.085051	22.9834	-0.240124	-577.426	-0.000147	NaN
289	1.000000	1.515307	7.36789e+06	-53089.1	955.821	-29747	0.000000	0.000000	7.515342	-0.036219	NaN	0.000000	0.001653	0.001654	28.0774	0.115966	0.001995	58.138	-108.322	-168.467	-0.107775	1.514031	-0.225399	-0.226675	-0.036219	58.138	-0.224931	-332.848	0.000109	NaN
289	1.000000	1.527335	7.36789e+06	-53089.1	955.821	-29747	0.000000	0.000000	7.527373	0.065133	NaN	0.000000	0.001625	0.001664	28.078	0.072587	0.001960	37.0347	-5.969578	-165.135	0.051548	1.526028	-0.213371	-0.214678	0.065133	37.0347	-0.214690	-228.31	-0.000285	NaN
289	1.000000	1.539336	7.36789e+06	-53089.1	955.82	-29747	0.000000	0.000000	7.539373	0.027146	NaN	0.000000	0.001592	0.001628	28.0786	0.018122	0.002050	8.838113	-34.6367	-164.804	0.125561	1.538017	-0.201370	-0.202689	0.027146	8.838113	-0.203674	-151.324	-0.000179	NaN
289	1.000000	1.551358	7.36789e+06	-53089.1	955.821	-29747	0.000000	0.000000	7.551398	0.102975	NaN	0.000000	0.001538	0.001680	28.0786	0.174680	0.001957	89.273	-106.669	-165.193	0.118093	1.550058	-0.189348	-0.190648	0.102975	89.273	-0.190213	-90.6949	-0.001135	NaN
289	1.000000	1.563333	7.36789e+06	-53089.1	955.821	-29747	0.000000	0.000000	7.563369	0.009542	NaN	0.000000	0.001567	0.001659	28.0787	0.049443	0.001951	25.3426	137.299	-168.28	0.082508	1.562046	-0.177373	-0.178660	0.009542	25.3426	-0.177655	-55.6522	-0.000171	NaN
289	1.000000	1.575359	7.36789e+06	-53089.1	955.821	-29747	0.000000	0.000000	7.575399	0.089424	NaN	0.000000	0.001585	0.001636	28.0788	0.172695	0.001989	86.8344	97.8842	-168.536	0.115437	1.574049	-0.165346	-0.166656	0.089424	86.8344	-0.166119	-35.1501	-0.002544	NaN
289	1.000000	1.587393	7.36789e+06	-53089.1	955.82	-29747	0.000000	0.000000	7.587431	0.054256	NaN	0.000000	0.001589	0.001676	28.0791	0.054274	0.001937	28.0221	-165.767	-168.794	0.057804	1.586016	-0.153313	-0.154689	0.054256	28.0221	-0.154765	-22.0977	-0.002455	NaN
289	1.000000	1.599370	7.36789e+06	-53089.1	955.821	-29747	0.000000	0.000000	7.599408	0.047066	NaN	0.000000	0.001588	0.001650	28.0787	0.087515	0.001932	45.3021	-65.7483	-169.117	0.068965	1.598058	-0.141336	-0.142647	0.047066	45.3021	-0.142115	-12.9588	-0.003632	NaN
289	1.000000	1.611395	7.36789e+06	-53089.1	955.82	-29747	0.000000	0.000000	7.611433	0.028338	NaN	0.000000	0.001571	0.001676	28.0789	0.070431	0.001962	35.8999	-174.902	-166.616	0.046376	1.610058	-0.129310	-0.130648	0.028338	35.8999	-0.129902	-7.587779	-0.003735	NaN
289	1.000000	1.623366	7.36789e+06	-53089.1	955.82	-29747	0.000000	0.000000	7.623403	0.017061	NaN	0.000000	0.001579	0.001696	28.0788	0.099348	0.001885	52.6926	-13.3168	-167.801	0.050262	1.622018	-0.117340	-0.118688	0.017061	52.6926	-0.117583	-4.315651	-0.003953	NaN
289	1.000000	1.635358	7.36789e+06	-53089.1	955.821	-29747	0.000000	0.000000	7.635396	0.058532	NaN	0.000000	0.001628	0.001684	28.079	0.100842	0.001960	51.4601	61.1579	-166.43	-0.094732	1.634062	-0.105348	-0.106644	0.058532	51.4601	-0.106201	-2.494861	-0.023461	NaN
289	1.000000	1.647380	7.36789e+06	-53089.1	955.821	-29747	0.000000	0.000000	7.647414	-0.029174	NaN	0.000000	0.001638	0.001631	28.0789	0.042200	0.001994	21.1607	6.077622	-160.86	0.068961	1.646098	-0.093326	-0.094608	-0.029174	21.1607	-0.092292	-1.222453	0.023865	NaN
289	1.000000	1.659402	7.36789e+06	-53089.1	955.822	-29747	0.000000	0.000000	7.659437	-0.002365	NaN	0.000000	0.001628	0.001646	28.0787	0.045716	0.002004	22.8179	104.296	-165.911	-0.038110	1.658080	-0.081304	-0.082626	-0.002365	22.8179	-0.081226	-0.664095	0.003561	NaN
289	1.000000	1.671388	7.36789e+06	-53089.1	955.821	-29747	0.000000	0.000000	7.671425	0.022802	NaN	0.000000	0.001624	0.001606	28.0777	0.114828	0.001968	58.3534	-90.0316	-166.345	0.043803	1.670084	-0.069318	-0.070622	0.022802	58.3534	-0.069611	-0.333013	-0.068471	NaN
289	1.000000	1.683429	7.36789e+06	-53089.1	955.821	-29747	0.000000	0.000000	7.683465	0.021928	NaN	0.000000	0.001622	0.001651	28.0772	0.019324	0.002070	9.333198	-51.2586	-164.531	-0.036222	1.682102	-0.057277	-0.058604	0.021928	9.333198	-0.059039	-0.168986	-0.129761	NaN
289	1.000000	1.695427	7.36789e+06	-53089.1	955.821	-29747	0.000000	0.000000	7.695464	0.040448	NaN	0.000000	0.001642	0.001628	28.0772	0.021823	0.002068	10.5503	-37.0214	-168.147	0.101953	1.694073	-0.045279	-0.046633	0.040448	10.5503	-0.048155	-0.080215	-0.504246	NaN
289	1.000000	1.707405	7.36789e+06	-53089.1	955.822	-29747	0.000000	0.000000	7.707438	-0.075449	NaN	0.000000	0.001578	0.001666	28.0771	0.062423	0.002168	28.7944	34.2552	-167.82	0.023725	1.706120	-0.033301	-0.034586	-0.075449	28.7944	-0.031336	-0.025090	3.007117	NaN
289	1.000000	1.719411	7.36789e+06	-53089.1	955.821	-29747	0.000000	0.000000	7.719450	0.074230	NaN	0.000000	0.001624	0.001617	28.0772	0.130328	0.001985	65.664	-100.821	-168.833	0.127350	1.718115	-0.021295	-0.022590	0.074230	65.664	-0.022142	-0.014240	-5.212977	NaN
289	1.000000	1.731419	7.36789e+06	-53089.1	955.822	-29747	0.000000	0.000000	7.731458	0.065169	NaN	0.000000	0.001619	0.001645	28.0773	0.110303	0.001946	56.6914	137.952	-165.262	0.023262	1.730108	-0.009286	-0.010598	0.065169	56.6914	-0.010149	-0.006472	-10.0689	NaN
289	1.000000	1.743407	7.36789e+06	-53089.1	955.821	-29747	0.000000	0.000000	7.743496	1.284134	NaN	0.000000	0.001576	0.001627	28.0775	1.884361	0.002029	928.856	13.9786	-172.833	0.425443	1.742130	0.002702	0.001424	1.284134	928.856	0.001665	0.001286	998.929	23669.2
289	2.000000	1.752021	7.36789e+06	-53089.1	955.821	-29747	0.000000	0.000000	7.752473	10.111	NaN	0.000000	0.001618	0.001627	28.0775	9.494657	0.001414	6716.44	6.083772	-174.499	9.922238	1.751647	0.011315	0.010941	10.111	6716.44	0.010186	0.009389	1076.92	63329.5
289	2.000000	1.754966	7.36789e+06	-53089.1	955.821	-29747	0.000000	0.000000	7.755570	13.8113	NaN	0.000000	0.001605	0.001638	28.0774	13.6057	0.001820	7476.14	10.8344	-179.17	14.0205	1.754675	0.014260	0.013969	13.8113	7476.14	0.012874	0.012554	1100.13	60961.5
289	2.000000	1.757915	7.36789e+06	-53089.1	955.822	-29747	0.000000	0.000000	7.758767	19.8442	NaN	0.000000	0.001643	0.001674	28.0771	16.4765	0.001793	9190.55	11.5437	178.163	19.9237	1.757577	0.017209	0.016871	19.8442	9190.55	0.015590	0.016080	1234.07	66216.8
289	2.000000	1.760877	7.36789e+06	-53089.1	955.823	-29747	0.000000	0.000000	7.761874	23.3516	NaN	0.000000	0.001588	0.001653	28.0772	19.3292	0.001851	10444.7	4.870826	-175.998	22.1109	1.760591	0.020171	0.019886	23.3516	10444.7	0.018495	0.020232	1154.21	67089.3
289	2.000000	1.763859	7.36789e+06	-53089.1	955.822	-29747	0.000000	0.000000	7.765217	32.129	NaN	0.000000	0.001599	0.001624	28.0789	22.3683	0.001901	11766.8	3.595955	-175.397	30.288	1.763564	0.023153	0.022859	32.129	11766.8	0.021106	0.024309	1321.67	68951.5
289	2.000000	1.766933	7.36789e+06	-53089.1	955.821	-29747	0.000000	0.000000	7.768465	36.3706	NaN	0.000000	0.001572	0.001657	28.0785	25.5222	0.001898	13448.4	9.441858	177.293	37.0024	1.766631	0.026227	0.025925	36.3706	13448.4	0.024199	0.029575	1229.8	71447.3
289	2.000000	1.769896	7.36789e+06	-53089.1	955.822	-29747	0.000000	0.000000	7.771857	46.7931	NaN	0.000000	0.001606	0.001649	28.0785	27.1888	0.001764	15416.3	2.774851	-177.415	46.6423	1.769536	0.029190	0.028830	46.7931	15416.3	0.026914	0.034590	1352.81	75732
289	2.000000	1.772938	7.36789e+06	-53089.1	955.822	-29747	0.000000	0.000000	7.775076	51.1207	NaN	0.000000	0.001629	0.001599	28.0786	29.198	0.001833	15931.6	3.113870	-177.132	53.3144	1.772531	0.032232	0.031826	51.1207	15931.6	0.029825	0.040383	1265.91	72432.6
289	2.000000	1.775806	7.36789e+06	-53089.1	955.821	-29747	0.000000	0.000000	7.778411	62.4688	NaN	0.000000	0.001618	0.001630	28.0786	32.1386	0.001654	19425.1	5.745521	177.039	60.7565	1.775536	0.035100	0.034830	62.4688	19425.1	0.032688	0.046500	1343.41	82301.5
289	2.000000	1.778825	7.36789e+06	-53089.1	955.822	-29747	0.000000	0.000000	7.781688	68.727	NaN	0.000000	0.001643	0.001659	28.0786	35.428	0.001781	19887.9	4.779089	178.849	67.0342	1.778516	0.038119	0.037810	68.727	19887.9	0.035528	0.052982	1297.19	78940.6
289	2.000000	1.781812	7.36789e+06	-53089.1	955.821	-29747	0.000000	0.000000	7.785153	80.3573	NaN	0.000000	0.001617	0.001641	28.0784	37.9033	0.001741	21765.2	3.054136	179.042	79.8971	1.781581	0.041106	0.040875	80.3573	21765.2	0.038337	0.059801	1343.75	81317.1
289	2.000000	1.784871	7.36789e+06	-53089.1	955.821	-29747	0.000000	0.000000	7.788638	90.7097	NaN	0.000000	0.001573	0.001717	28.0791	40.7792	0.001790	22779.7	3.529540	178.752	90.1556	1.784494	0.044165	0.043788	90.7097	22779.7	0.041179	0.067110	1351.66	80339.3
289	2.000000	1.787798	7.36789e+06	-53089.1	955.822	-29747	0.000000	0.000000	7.791901	98.8856	NaN	0.000000	0.001610	0.001724	28.0786	43.7466	0.001747	25037.6	6.940889	174.455	97.7929	1.787452	0.047092	0.046746	98.8856	25037.6	0.044130	0.075136	1316.09	83453.2
289	2.000000	1.790841	7.36789e+06	-53089.1	955.821	-29747	0.000000	0.000000	7.795374	109.348	NaN	0.000000	0.001630	0.001675	28.0784	46.4607	0.001792	25929.9	2.040877	178.21	109.155	1.790470	0.050135	0.049764	109.348	25929.9	0.046972	0.083285	1312.94	82090.2
289	2.000000	1.793741	7.36789e+06	-53089.1	955.822	-29747	0.000000	0.000000	7.798708	119.906	NaN	0.000000	0.001619	0.001717	28.0785	48.7972	0.001790	27258.6	3.733408	176.681	116.673	1.793579	0.053035	0.052873	119.906	27258.6	0.049736	0.091598	1309.04	82287.6
289	2.000000	1.796847	7.36789e+06	-53089.1	955.822	-29747	0.000000	0.000000	7.802360	133.167	NaN	0.000000	0.001625	0.001686	28.0783	50.9503	0.001755	29034.9	-1.922592	-178.195	132.359	1.796442	0.056141	0.055736	133.167	29034.9	0.052701	0.100944	1319.21	83493.5
289	2.000000	1.799876	7.36789e+06	-53089.1	955.822	-29747	0.000000	0.000000	7.805858	144.568	NaN	0.000000	0.001597	0.001709	28.0778	53.9528	0.001787	30189.5	3.521112	176.63	145.595	1.799542	0.059170	0.058836	144.568	30189.5	0.055578	0.110432	1309.11	83000.6
289	2.000000	1.802813	7.36789e+06	-53089.1	955.822	-29747	0.000000	0.000000	7.809233	155.207	NaN	0.000000	0.001620	0.001708	28.0771	56.2943	0.001788	31475.8	4.374606	174.349	154.561	1.802531	0.062108	0.061825	155.207	31475.8	0.058409	0.120166	1291.61	82958.3
289	2.000000	1.805777	7.36789e+06	-53089.1	955.823	-29747	0.000000	0.000000	7.812816	170.283	NaN	0.000000	0.001588	0.001676	28.0769	58.8411	0.001802	32655.5	4.938918	174.166	169.561	1.805369	0.065071	0.064663	170.283	32655.5	0.061160	0.130001	1309.86	82747.8
289	2.000000	1.808745	7.36789e+06	-53089.1	955.822	-29747	0.000000	0.000000	7.816462	186.769	NaN	0.000000	0.001625	0.001712	28.0778	61.0785	0.001844	33130.8	3.431821	175.356	182.024	1.808391	0.068039	0.067685	186.769	33130.8	0.063811	0.139827	1335.71	80948.7
289	2.000000	1.811725	7.36789e+06	-53089.1	955.823	-29747	0.000000	0.000000	7.820085	202.391	NaN	0.000000	0.001616	0.001724	28.0769	64.5252	0.001798	35890.5	6.289621	171.684	197.889	1.811405	0.071019	0.070699	202.391	35890.5	0.066790	0.151275	1337.9	84308.2
289	2.000000	1.814847	7.36789e+06	-53089.1	955.822	-29747	0.000000	0.000000	7.823587	211.626	NaN	0.000000	0.001612	0.001703	28.077	67.2897	0.001823	36912.7	5.588079	173.083	213.196	1.814424	0.074141	0.073718	211.626	36912.7	0.069841	0.163442	1294.8	83419.3
289	2.000000	1.817731	7.36789e+06	-53089.1	955.822	-29747	0.000000	0.000000	7.827299	231.76	NaN	0.000000	0.001606	0.001710	28.077	68.9739	0.001748	39464	3.818608	173.923	228.635	1.817395	0.077025	0.076689	231.76	39464	0.072621	0.174913	1325	86211.1
289	2.000000	1.820810	7.36789e+06	-53089.1	955.823	-29747	0.000000	0.000000	7.830949	245.634	NaN	0.000000	0.001575	0.001710	28.0771	72.8222	0.001824	39929.1	2.774577	174.286	244.401	1.820474	0.080104	0.079768	245.634	39929.1	0.075491	0.187137	1312.59	84330.1
289	2.000000	1.823812	7.36789e+06	-53089.1	955.822	-29747	0.000000	0.000000	7.834564	260.544	NaN	0.000000	0.001557	0.001720	28.0774	75.5851	0.001856	40717.3	5.035719	171.857	261.192	1.823483	0.083106	0.082777	260.544	40717.3	0.078307	0.199510	1305.92	83285.4
289	2.000000	1.826723	7.36789e+06	-53089.1	955.822	-29747	0.000000	0.000000	7.838336	281.478	NaN	0.000000	0.001619	0.001738	28.0772	76.9199	0.001737	44287	6.066846	169.825	277.865	1.826469	0.086017	0.085764	281.478	44287	0.081250	0.212838	1322.5	87705.1
289	2.000000	1.829794	7.36789e+06	-53089.1	955.823	-29747	0.000000	0.000000	7.842222	301.297	NaN	0.000000	0.001612	0.001708	28.0772	78.8944	0.001802	43781.2	6.459325	171.115	300.165	1.829397	0.089088	0.088691	301.297	43781.2	0.083926	0.225307	1337.27	84270.1
289	2.000000	1.832830	7.36789e+06	-53089.1	955.822	-29747	0.000000	0.000000	7.845427	305.398	NaN	0.000000	0.001647	0.001724	28.0782	81.2403	0.001801	45117.9	4.273698	171.568	305.475	1.832597	0.092124	0.091891	305.398	45117.9	0.087048	0.240267	1271.08	84095.9
289	2.000000	1.835789	7.36789e+06	-53089.1	955.821	-29747	0.000000	0.000000	7.849564	334.038	NaN	0.000000	0.001580	0.001719	28.0785	84.0551	0.001711	49133.7	3.454897	172.223	334.32	1.835464	0.095084	0.094759	334.038	49133.7	0.089985	0.254753	1311.22	88939.1
289	2.000000	1.838794	7.36789e+06	-53089.1	955.823	-29747	0.000000	0.000000	7.853280	351.311	NaN	0.000000	0.001577	0.001724	28.0784	87.5717	0.001770	49467.4	5.985502	169.613	352.188	1.838524	0.098089	0.097818	351.311	49467.4	0.092762	0.268816	1306.88	87169.5
289	2.000000	1.841737	7.36789e+06	-53089.1	955.822	-29747	0.000000	0.000000	7.857213	375.391	NaN	0.000000	0.001587	0.001696	28.0783	90.7794	0.001822	49820	8.237468	167.713	372.806	1.841412	0.101032	0.100706	375.391	49820	0.095380	0.282396	1329.31	85654
289	2.000000	1.844770	7.36789e+06	-53089.1	955.821	-29747	0.000000	0.000000	7.861265	400.181	NaN	0.000000	0.001634	0.001712	28.0782	93.4048	0.001787	52281.7	4.255820	171.705	400.849	1.844390	0.104064	0.103684	400.181	52281.7	0.098324	0.298035	1342.73	87496.1
289	2.000000	1.847834	7.36789e+06	-53089.1	955.822	-29747	0.000000	0.000000	7.865019	416.933	NaN	0.000000	0.001609	0.001688	28.0785	97.4474	0.001829	53273.9	7.346239	167.936	417.22	1.847345	0.107128	0.106639	416.933	53273.9	0.101259	0.314024	1327.71	86857.2
289	2.000000	1.849238	7.36789e+06	-53089.1	955.821	-29747	0.000000	0.000000	7.866945	429.635	NaN	0.000000	0.001603	0.001690	28.0785	98.032	0.001822	53791.6	7.842863	-12.5602	425.562	1.848805	0.108532	0.108099	429.635	53791.6	0.102542	0.321138	1337.85	86724.5