File: remote_trans/data/nanoindenter/0828-1/data/Data_2025-08-06,11h17m57s/2025-07-22_16-23-58_1_301.txt
2025-07-22, 16:23:58, 1
Index	Phase	Displacement	Time	Pos X	Pos Y	Pos Z	Rot A	Rot B	Piezo Z	Force A	Force B	Gripper	Voltage A	Voltage B	Temperature	Amplitude force	Amplitude pos	Stiffness	Phase shift	Phase excitation	Force A raw	Displacement raw	HMax	HMax raw	Real Force	Real Stiffness	Contact Depth	Area	Hardness	Reduced Mod.
[#]	[#]	[um]	[s]	[um]	[um]	[um]	[m°]	[m°]	[um]	[uN]	[uN]	[V]	[V]	[V]	[°C]	[uN]	[um]	[N/m]	[°]	[°]	[uN]	[um]	[um]	[um]	[uN]	[N/m]	[um]	[um^2]	[MPa]	[MPa]
301	1.000000	0.002592	7.36801e+06	-53689.1	955.818	-29745.3	0.000000	0.000000	6.002773	-0.002968	NaN	0.000000	0.001609	0.001746	28.0771	0.073249	0.001016	72.0648	17.2196	-163.412	0.010465	0.001364	-1.747568	-1.748796	-0.002968	72.0648	-1.747537	-2.176535E+23	1.363413E-26	NaN
301	1.000000	0.014630	7.36801e+06	-53689.1	955.819	-29745.3	0.000000	0.000000	6.014808	-0.048848	NaN	0.000000	0.001630	0.001710	28.0773	0.103916	0.001653	62.8695	-138.988	-165.661	-0.033923	0.013422	-1.735530	-1.736738	-0.048848	62.8695	-1.734948	-1.481164E+23	3.297925E-25	NaN
301	1.000000	0.026588	7.36801e+06	-53689.1	955.819	-29745.3	0.000000	0.000000	6.026767	-0.051580	NaN	0.000000	0.001666	0.001703	28.0776	0.021523	0.001852	11.6222	-34.5536	-163.882	0.003725	0.025266	-1.723572	-1.724894	-0.051580	11.6222	-1.720243	-9.447729E+22	5.459540E-25	NaN
301	1.000000	0.038602	7.36801e+06	-53689.1	955.819	-29745.3	0.000000	0.000000	6.038782	-0.029894	NaN	0.000000	0.001624	0.001697	28.0774	0.024950	0.001931	12.9213	-163.113	-168.224	0.045072	0.037303	-1.711558	-1.712857	-0.029894	12.9213	-1.709823	-6.869443E+22	4.351731E-25	NaN
301	1.000000	0.050575	7.36801e+06	-53689.1	955.819	-29745.3	0.000000	0.000000	6.050755	-0.023070	NaN	0.000000	0.001637	0.001730	28.0773	0.047067	0.001981	23.7609	80.2189	-167.432	-0.013058	0.049282	-1.699585	-1.700878	-0.023070	23.7609	-1.698857	-4.911947E+22	4.696742E-25	NaN
301	1.000000	0.062571	7.36801e+06	-53689.1	955.818	-29745.3	0.000000	0.000000	6.062754	0.045996	NaN	0.000000	0.001644	0.001753	28.0773	0.057225	0.001977	28.9522	-81.4708	-162.432	0.060173	0.061282	-1.687589	-1.688878	0.045996	28.9522	-1.688781	-3.609005E+22	-1.274481E-24	NaN
301	1.000000	0.074586	7.36801e+06	-53689.1	955.818	-29745.3	0.000000	0.000000	6.074766	-0.023258	NaN	0.000000	0.001629	0.001717	28.0771	0.074418	0.001866	39.8737	24.5567	-164.237	0.047162	0.073244	-1.675574	-1.676916	-0.023258	39.8737	-1.675137	-2.377395E+22	9.782822E-25	NaN
301	1.000000	0.086564	7.36801e+06	-53689.1	955.819	-29745.3	0.000000	0.000000	6.086744	-0.005336	NaN	0.000000	0.001702	0.001717	28.0771	0.118150	0.002049	57.6728	-103.448	-166.397	-0.068481	0.085259	-1.663596	-1.664901	-0.005336	57.6728	-1.663527	-1.666552E+22	3.202026E-25	NaN
301	1.000000	0.098600	7.36801e+06	-53689.1	955.819	-29745.3	0.000000	0.000000	6.098780	-0.016558	NaN	0.000000	0.001654	0.001712	28.0771	0.061968	0.001935	32.022	-129.206	-165.438	-0.061361	0.097310	-1.651560	-1.652850	-0.016558	32.022	-1.651172	-1.141861E+22	1.450074E-24	NaN
301	1.000000	0.110586	7.36801e+06	-53689.1	955.819	-29745.3	0.000000	0.000000	6.110766	-0.023953	NaN	0.000000	0.001691	0.001697	28.0784	0.067046	0.002035	32.9531	113.804	-165.828	-0.007032	0.109269	-1.639574	-1.640891	-0.023953	32.9531	-1.639029	-7.874011E+21	3.042016E-24	NaN
301	1.000000	0.122583	7.36801e+06	-53689.1	955.819	-29745.2	0.000000	0.000000	6.122762	-0.031938	NaN	0.000000	0.001693	0.001708	28.079	0.018833	0.001976	9.529712	57.3817	-165.409	-0.016667	0.121286	-1.627577	-1.628874	-0.031938	9.529712	-1.625064	-5.134818E+21	6.219948E-24	NaN
301	1.000000	0.134614	7.36801e+06	-53689.1	955.818	-29745.2	0.000000	0.000000	6.134795	-0.003724	NaN	0.000000	0.001668	0.001732	28.0785	0.086516	0.001985	43.5912	-100.991	-163.942	0.014709	0.133314	-1.615546	-1.616846	-0.003724	43.5912	-1.615482	-3.829251E+21	9.726347E-25	NaN
301	1.000000	0.146635	7.36801e+06	-53689.1	955.818	-29745.2	0.000000	0.000000	6.146817	0.008762	NaN	0.000000	0.001648	0.001721	28.0783	0.026504	0.001848	14.3399	-144.932	-165.215	-0.019862	0.145252	-1.603525	-1.604908	0.008762	14.3399	-1.603983	-2.692755E+21	-3.254021E-24	NaN
301	1.000000	0.158570	7.36801e+06	-53689.1	955.819	-29745.2	0.000000	0.000000	6.158752	0.027373	NaN	0.000000	0.001668	0.001725	28.0783	0.090862	0.002110	43.0557	19.4786	-164.859	-0.003116	0.157286	-1.591590	-1.592874	0.027373	43.0557	-1.592066	-1.869399E+21	-1.464265E-23	NaN
301	1.000000	0.170644	7.36801e+06	-53689.1	955.819	-29745.2	0.000000	0.000000	6.170825	0.000282	NaN	0.000000	0.001647	0.001724	28.0785	0.119710	0.001866	64.1553	-9.458533	-166.499	0.041393	0.169307	-1.579516	-1.580854	0.000282	64.1553	-1.579519	-1.272881E+21	-2.215296E-25	NaN
301	1.000000	0.182639	7.36801e+06	-53689.1	955.818	-29745.2	0.000000	0.000000	6.182818	-0.030850	NaN	0.000000	0.001634	0.001728	28.0784	0.109241	0.002027	53.8801	-53.5158	-162.752	-0.057090	0.181279	-1.567521	-1.568881	-0.030850	53.8801	-1.567092	-8.698550E+20	3.546531E-23	NaN
301	1.000000	0.194634	7.36801e+06	-53689.1	955.819	-29745.2	0.000000	0.000000	6.194816	0.027133	NaN	0.000000	0.001663	0.001765	28.0781	0.035184	0.002031	17.3218	-145.452	-166.64	0.012356	0.193339	-1.555526	-1.556822	0.027133	17.3218	-1.556701	-6.326587E+20	-4.288747E-23	NaN
301	1.000000	0.206640	7.36801e+06	-53689.1	955.818	-29745.2	0.000000	0.000000	6.206819	-0.036761	NaN	0.000000	0.001633	0.001790	28.0785	0.124270	0.002045	60.7739	-38.3464	-166.602	0.012238	0.205270	-1.543520	-1.544890	-0.036761	60.7739	-1.543067	-4.165941E+20	8.824079E-23	NaN
301	1.000000	0.218596	7.36801e+06	-53689.1	955.818	-29745.2	0.000000	0.000000	6.218779	0.060543	NaN	0.000000	0.001651	0.001782	28.0784	0.056258	0.001987	28.3172	-88.3695	-167.346	-0.013967	0.217369	-1.531564	-1.532791	0.060543	28.3172	-1.533168	-3.075755E+20	-1.968397E-22	NaN
301	1.000000	0.230644	7.36801e+06	-53689.1	955.819	-29745.2	0.000000	0.000000	6.230824	-0.023037	NaN	0.000000	0.001653	0.001730	28.0782	0.035855	0.001994	17.9819	104.777	-165.305	-0.095293	0.229350	-1.519516	-1.520810	-0.023037	17.9819	-1.518555	-1.965201E+20	1.172222E-22	NaN
301	1.000000	0.242633	7.36801e+06	-53689.1	955.818	-29745.2	0.000000	0.000000	6.242814	-0.002308	NaN	0.000000	0.001621	0.001718	28.078	0.097368	0.001876	51.9096	-82.9227	-168.689	-0.001232	0.241349	-1.507527	-1.508811	-0.002308	51.9096	-1.507493	-1.399933E+20	1.648761E-23	NaN
301	1.000000	0.254648	7.36801e+06	-53689.1	955.819	-29745.2	0.000000	0.000000	6.254829	-0.000602	NaN	0.000000	0.001649	0.001745	28.0771	0.025726	0.002112	12.1803	-49.7868	-162.285	0.115883	0.253355	-1.495512	-1.496805	-0.000602	12.1803	-1.495475	-9.683798E+19	6.212367E-24	NaN
301	1.000000	0.266637	7.36801e+06	-53689.1	955.817	-29745.2	0.000000	0.000000	6.266819	0.021272	NaN	0.000000	0.001599	0.001755	28.0769	0.080701	0.001961	41.157	99.8711	-165.286	0.031103	0.265351	-1.483523	-1.484809	0.021272	41.157	-1.483910	-6.792046E+19	-3.131923E-22	NaN
301	1.000000	0.278657	7.36801e+06	-53689.1	955.818	-29745.2	0.000000	0.000000	6.278839	0.021696	NaN	0.000000	0.001596	0.001762	28.0771	0.055996	0.001962	28.5379	-48.7546	-165.365	-0.039707	0.277348	-1.471503	-1.472812	0.021696	28.5379	-1.472073	-4.723854E+19	-4.592800E-22	NaN
301	1.000000	0.290636	7.36801e+06	-53689.1	955.818	-29745.2	0.000000	0.000000	6.290816	-0.035998	NaN	0.000000	0.001607	0.001739	28.0768	0.088025	0.002005	43.9028	13.1578	-166.118	0.039116	0.289354	-1.459524	-1.460806	-0.035998	43.9028	-1.458909	-3.154138E+19	1.141294E-21	NaN
301	1.000000	0.302675	7.36801e+06	-53689.1	955.818	-29745.2	0.000000	0.000000	6.302854	-0.040888	NaN	0.000000	0.001631	0.001736	28.077	0.063343	0.001969	32.1673	-105.344	-166.742	-0.018578	0.301375	-1.447485	-1.448785	-0.040888	32.1673	-1.446531	-2.157331E+19	1.895282E-21	NaN
301	1.000000	0.314667	7.36801e+06	-53689.1	955.818	-29745.2	0.000000	0.000000	6.314848	-0.013841	NaN	0.000000	0.001657	0.001743	28.0771	0.043459	0.002047	21.2339	-93.3523	-164.569	0.030360	0.313379	-1.435493	-1.436781	-0.013841	21.2339	-1.435004	-1.514433E+19	9.139256E-22	NaN
301	1.000000	0.326681	7.36801e+06	-53689.1	955.819	-29745.2	0.000000	0.000000	6.326861	-0.019742	NaN	0.000000	0.001629	0.001755	28.0769	0.088930	0.002035	43.7079	58.6517	-166.853	0.014809	0.325420	-1.423479	-1.424740	-0.019742	43.7079	-1.423140	-1.052148E+19	1.876390E-21	NaN
301	1.000000	0.338690	7.36801e+06	-53689.1	955.819	-29745.2	0.000000	0.000000	6.338873	0.052852	NaN	0.000000	0.001620	0.001749	28.0769	0.099955	0.001998	50.0225	-146.543	-167.613	0.013205	0.337353	-1.411470	-1.412807	0.052852	50.0225	-1.412262	-7.533890E+18	-7.015278E-21	NaN
301	1.000000	0.350670	7.36801e+06	-53689.1	955.817	-29745.2	0.000000	0.000000	6.350851	0.005050	NaN	0.000000	0.001652	0.001791	28.0766	0.135107	0.001847	73.1579	95.8486	-168.208	-5.055922E-5	0.349351	-1.399491	-1.400809	0.005050	73.1579	-1.399542	-5.097540E+18	-9.907451E-22	NaN
301	1.000000	0.362682	7.36801e+06	-53689.1	955.818	-29745.2	0.000000	0.000000	6.362863	-0.004487	NaN	0.000000	0.001633	0.001736	28.0767	0.055351	0.002018	27.427	-75.3124	-165.289	-0.110490	0.361413	-1.387478	-1.388747	-0.004487	27.427	-1.387355	-3.505750E+18	1.279957E-21	NaN
301	1.000000	0.374672	7.36801e+06	-53689.1	955.819	-29745.2	0.000000	0.000000	6.374853	-0.000469	NaN	0.000000	0.001654	0.001737	28.0769	0.027885	0.002037	13.6898	-82.1095	-163.422	0.087962	0.373411	-1.375488	-1.376749	-0.000469	13.6898	-1.375462	-2.432707E+18	1.925855E-22	NaN
301	1.000000	0.386700	7.36801e+06	-53689.1	955.818	-29745.2	0.000000	0.000000	6.386883	0.039959	NaN	0.000000	0.001683	0.001736	28.0778	0.079802	0.002020	39.5143	-107.504	-165.315	-0.031110	0.385418	-1.363460	-1.364742	0.039959	39.5143	-1.364218	-1.721969E+18	-2.320517E-20	NaN
301	1.000000	0.398717	7.36801e+06	-53689.1	955.819	-29745.2	0.000000	0.000000	6.398898	0.000678	NaN	0.000000	0.001679	0.001766	28.0783	0.115146	0.001976	58.2575	-150.519	-162.031	0.032513	0.397394	-1.351443	-1.352766	0.000678	58.2575	-1.351451	-1.163069E+18	-5.831279E-22	NaN
301	1.000000	0.410707	7.36801e+06	-53689.1	955.82	-29745.2	0.000000	0.000000	6.410888	-0.003800	NaN	0.000000	0.001645	0.001763	28.0781	0.097585	0.002121	46.0022	-122.713	-163.654	-0.021957	0.409436	-1.339453	-1.340724	-0.003800	46.0022	-1.339391	-8.027420E+17	4.733421E-21	NaN
301	1.000000	0.422721	7.36801e+06	-53689.1	955.819	-29745.2	0.000000	0.000000	6.422898	-0.085371	NaN	0.000000	0.001632	0.001701	28.0781	0.101681	0.002027	50.1628	123.606	-162.919	-0.076193	0.421443	-1.327439	-1.328717	-0.085371	50.1628	-1.326163	-5.344712E+17	1.597301E-19	NaN
301	1.000000	0.434738	7.36801e+06	-53689.1	955.819	-29745.2	0.000000	0.000000	6.434916	-0.089182	NaN	0.000000	0.001650	0.001733	28.0781	0.049385	0.002071	23.8457	-49.8931	-162.718	-0.098175	0.433465	-1.315422	-1.316695	-0.089182	23.8457	-1.312617	-3.523474E+17	2.531077E-19	NaN
301	1.000000	0.446743	7.36801e+06	-53689.1	955.818	-29745.2	0.000000	0.000000	6.446924	0.003335	NaN	0.000000	0.001638	0.001721	28.0782	0.105307	0.001927	54.6423	-56.5981	-167.059	0.090392	0.445370	-1.303417	-1.304790	0.003335	54.6423	-1.303462	-2.658667E+17	-1.254569E-20	NaN
301	1.000000	0.458740	7.36801e+06	-53689.1	955.819	-29745.2	0.000000	0.000000	6.458922	0.030768	NaN	0.000000	0.001657	0.001747	28.0783	0.148764	0.002110	70.4967	-147.724	-161.526	-0.023186	0.457411	-1.291420	-1.292749	0.030768	70.4967	-1.291747	-1.853993E+17	-1.659545E-19	NaN
301	1.000000	0.470766	7.36801e+06	-53689.1	955.819	-29745.2	0.000000	0.000000	6.470947	0.015019	NaN	0.000000	0.001674	0.001719	28.0783	0.110552	0.002041	54.1688	135.046	-166.421	0.115123	0.469471	-1.279394	-1.280689	0.015019	54.1688	-1.279602	-1.275756E+17	-1.177279E-19	NaN
301	1.000000	0.482764	7.36801e+06	-53689.1	955.818	-29745.2	0.000000	0.000000	6.482942	-0.066560	NaN	0.000000	0.001619	0.001766	28.0782	0.076025	0.002070	36.7354	121.769	-162.897	-0.042741	0.481478	-1.267396	-1.268682	-0.066560	36.7354	-1.266037	-8.402411E+16	7.921509E-19	NaN
301	1.000000	0.494750	7.36801e+06	-53689.1	955.818	-29745.2	0.000000	0.000000	6.494931	0.012560	NaN	0.000000	0.001599	0.001765	28.0781	0.065634	0.002001	32.7923	-119.208	-166.736	0.011196	0.493416	-1.255410	-1.256744	0.012560	32.7923	-1.255697	-6.111167E+16	-2.055179E-19	NaN
301	1.000000	0.506757	7.36801e+06	-53689.1	955.819	-29745.2	0.000000	0.000000	6.506938	-0.000739	NaN	0.000000	0.001639	0.001717	28.0783	0.077842	0.001957	39.7812	-36.3359	-163.872	0.003980	0.505488	-1.243403	-1.244672	-0.000739	39.7812	-1.243389	-4.183002E+16	1.767191E-20	NaN
301	1.000000	0.518754	7.36801e+06	-53689.1	955.818	-29745.2	0.000000	0.000000	6.518937	0.045911	NaN	0.000000	0.001684	0.001741	28.0771	0.068443	0.002043	33.5063	-139.59	-167.781	0.079397	0.517459	-1.231406	-1.232701	0.045911	33.5063	-1.232433	-2.984698E+16	-1.538204E-18	NaN
301	1.000000	0.530752	7.36801e+06	-53689.1	955.819	-29745.2	0.000000	0.000000	6.530932	-0.024506	NaN	0.000000	0.001662	0.001699	28.0768	0.021396	0.001939	11.0346	169.459	-164.736	-0.062781	0.529475	-1.219408	-1.220685	-0.024506	11.0346	-1.217742	-1.897950E+16	1.291177E-18	NaN
301	1.000000	0.542787	7.36801e+06	-53689.1	955.818	-29745.2	0.000000	0.000000	6.542967	-0.015332	NaN	0.000000	0.001628	0.001683	28.0769	0.100779	0.002276	44.2836	91.3781	-165.521	0.036398	0.541486	-1.207373	-1.208674	-0.015332	44.2836	-1.207114	-1.367718E+16	1.120969E-18	NaN
301	1.000000	0.554780	7.36801e+06	-53689.1	955.818	-29745.2	0.000000	0.000000	6.554962	0.026993	NaN	0.000000	0.001628	0.001720	28.0768	0.077421	0.001930	40.1213	-28.1134	-162.764	0.049065	0.553484	-1.195380	-1.196676	0.026993	40.1213	-1.195884	-9.674612E+15	-2.790039E-18	NaN
301	1.000000	0.566794	7.36801e+06	-53689.1	955.819	-29745.2	0.000000	0.000000	6.566979	0.109973	NaN	0.000000	0.001629	0.001714	28.0769	0.037298	0.002057	18.1324	55.3925	-165.557	-0.027730	0.565480	-1.183366	-1.184680	0.109973	18.1324	-1.187915	-7.566542E+15	-1.453411E-17	NaN
301	1.000000	0.578796	7.36801e+06	-53689.1	955.817	-29745.2	0.000000	0.000000	6.578976	-0.009066	NaN	0.000000	0.001637	0.001685	28.0769	0.204880	0.001892	108.295	-74.978	-164.958	-0.081377	0.577543	-1.171365	-1.172617	-0.009066	108.295	-1.171302	-4.532408E+15	2.000339E-18	NaN
301	1.000000	0.590806	7.36801e+06	-53689.1	955.818	-29745.2	0.000000	0.000000	6.590986	-0.019149	NaN	0.000000	0.001639	0.001743	28.0769	0.062241	0.002027	30.7041	118.776	-166.946	0.041686	0.589518	-1.159354	-1.160642	-0.019149	30.7041	-1.158887	-3.089900E+15	6.197293E-18	NaN
301	1.000000	0.602823	7.36801e+06	-53689.1	955.819	-29745.2	0.000000	0.000000	6.603002	-0.050860	NaN	0.000000	0.001666	0.001689	28.077	0.079340	0.002010	39.4635	57.7372	-163.733	-0.037640	0.601451	-1.147337	-1.148709	-0.050860	39.4635	-1.146370	-2.099697E+15	2.422273E-17	NaN
301	1.000000	0.614795	7.36801e+06	-53689.1	955.819	-29745.2	0.000000	0.000000	6.614976	0.003627	NaN	0.000000	0.001686	0.001708	28.0769	0.092362	0.001912	48.3076	-119.448	-165.5	-0.005873	0.613516	-1.135365	-1.136644	0.003627	48.3076	-1.135421	-1.497368E+15	-2.422016E-18	NaN
301	1.000000	0.626822	7.36801e+06	-53689.1	955.818	-29745.2	0.000000	0.000000	6.627001	-0.060103	NaN	0.000000	0.001680	0.001683	28.0769	0.045973	0.002018	22.7798	179.814	-161.912	-0.054166	0.625500	-1.123338	-1.124660	-0.060103	22.7798	-1.121359	-9.698480E+14	6.197187E-17	NaN
301	1.000000	0.638807	7.36801e+06	-53689.1	955.818	-29745.2	0.000000	0.000000	6.638989	0.029290	NaN	0.000000	0.001652	0.001702	28.0767	0.022100	0.001999	11.0563	-82.8727	-161.798	0.055024	0.637473	-1.111353	-1.112687	0.029290	11.0563	-1.113340	-7.570191E+14	-3.869076E-17	NaN
301	1.000000	0.650835	7.36801e+06	-53689.1	955.818	-29745.2	0.000000	0.000000	6.651017	0.029704	NaN	0.000000	0.001674	0.001689	28.0768	0.025991	0.002028	12.8194	-68.5922	-165.884	-0.006569	0.649537	-1.099325	-1.100623	0.029704	12.8194	-1.101063	-5.180090E+14	-5.734237E-17	NaN
301	1.000000	0.662827	7.36801e+06	-53689.1	955.819	-29745.2	0.000000	0.000000	6.663012	0.080291	NaN	0.000000	0.001671	0.001718	28.078	0.052025	0.001894	27.4735	7.759471	-165.742	0.029831	0.661543	-1.087333	-1.088617	0.080291	27.4735	-1.089524	-3.625984E+14	-2.214311E-16	NaN
301	1.000000	0.674826	7.36801e+06	-53689.1	955.819	-29745.2	0.000000	0.000000	6.675006	-0.024926	NaN	0.000000	0.001673	0.001701	28.078	0.047210	0.002104	22.4361	-49.9424	-164.259	-0.048516	0.673476	-1.075334	-1.076684	-0.024926	22.4361	-1.074500	-2.278495E+14	1.093957E-16	NaN
301	1.000000	0.686824	7.36801e+06	-53689.1	955.818	-29745.2	0.000000	0.000000	6.687003	-0.035618	NaN	0.000000	0.001664	0.001695	28.0782	0.058400	0.001951	29.9407	-151.754	-164.891	-0.069938	0.685543	-1.063336	-1.064617	-0.035618	29.9407	-1.062444	-1.569141E+14	2.269909E-16	NaN
301	1.000000	0.698826	7.36801e+06	-53689.1	955.818	-29745.2	0.000000	0.000000	6.699006	-0.009365	NaN	0.000000	0.001666	0.001689	28.0782	0.076093	0.001846	41.2126	-124.61	-164.195	-0.020421	0.697528	-1.051334	-1.052632	-0.009365	41.2126	-1.051164	-1.106775E+14	8.461669E-17	NaN
301	1.000000	0.710866	7.36801e+06	-53689.1	955.818	-29745.2	0.000000	0.000000	6.711044	-0.057915	NaN	0.000000	0.001628	0.001699	28.078	0.025144	0.001966	12.7886	18.2397	-163.506	-0.049943	0.709512	-1.039294	-1.040648	-0.057915	12.7886	-1.035898	-6.899258E+13	8.394356E-16	NaN
301	1.000000	0.722824	7.36801e+06	-53689.1	955.819	-29745.2	0.000000	0.000000	6.723012	0.156759	NaN	0.000000	0.001665	0.001713	28.0782	0.025497	0.001969	12.9472	24.1921	-167.872	0.085294	0.721576	-1.027336	-1.028584	0.156759	12.9472	-1.036416	-7.010948E+13	-2.235918E-15	NaN
301	1.000000	0.734868	7.36801e+06	-53689.1	955.819	-29745.2	0.000000	0.000000	6.735050	0.044410	NaN	0.000000	0.001715	0.001690	28.078	0.025021	0.002057	12.1625	154.267	-166.616	-0.046437	0.733541	-1.015292	-1.016619	0.044410	12.1625	-1.018031	-3.966954E+13	-1.119487E-15	NaN
301	1.000000	0.746856	7.36801e+06	-53689.1	955.818	-29745.2	0.000000	0.000000	6.747035	-0.030054	NaN	0.000000	0.001733	0.001697	28.0781	0.059052	0.001883	31.3555	17.1927	-168.627	-0.001454	0.745546	-1.003305	-1.004614	-0.030054	31.3555	-1.002586	-2.457985E+13	1.222705E-15	NaN
301	1.000000	0.758876	7.36801e+06	-53689.1	955.82	-29745.2	0.000000	0.000000	6.759059	0.055243	NaN	0.000000	0.001737	0.001700	28.0783	0.088721	0.002085	42.5487	-174.962	-162.927	0.002789	0.757599	-0.991284	-0.992561	0.055243	42.5487	-0.992258	-1.784525E+13	-3.095696E-15	NaN
301	1.000000	0.770886	7.36801e+06	-53689.1	955.82	-29745.2	0.000000	0.000000	6.771068	0.023907	NaN	0.000000	0.001720	0.001675	28.0783	0.026905	0.001953	13.7745	64.203	-163.37	-0.019952	0.769539	-0.979274	-0.980622	0.023907	13.7745	-0.980576	-1.242135E+13	-1.924690E-15	NaN
301	1.000000	0.782890	7.36801e+06	-53689.1	955.819	-29745.2	0.000000	0.000000	6.783070	-0.012818	NaN	0.000000	0.001658	0.001689	28.0782	0.087915	0.001882	46.7107	-97.1344	-167.022	-0.013766	0.781568	-0.967270	-0.968592	-0.012818	46.7107	-0.967065	-8.167732E+12	1.569308E-15	NaN
301	1.000000	0.794872	7.36801e+06	-53689.1	955.819	-29745.2	0.000000	0.000000	6.795053	-0.009347	NaN	0.000000	0.001663	0.001692	28.0769	0.037467	0.001951	19.1992	-81.7261	-162.787	-0.025740	0.793544	-0.955288	-0.956616	-0.009347	19.1992	-0.954923	-5.602871E+12	1.668258E-15	NaN
301	1.000000	0.806872	7.36801e+06	-53689.1	955.819	-29745.2	0.000000	0.000000	6.807051	-0.035296	NaN	0.000000	0.001658	0.001729	28.0768	0.048088	0.001978	24.3087	76.414	-164.958	0.024587	0.805583	-0.943288	-0.944577	-0.035296	24.3087	-0.942199	-3.774068E+12	9.352246E-15	NaN
301	1.000000	0.818923	7.36801e+06	-53689.1	955.819	-29745.2	0.000000	0.000000	6.819104	-0.002808	NaN	0.000000	0.001654	0.001714	28.077	0.112691	0.001921	58.6701	-127.749	-164.997	-0.042446	0.817596	-0.931237	-0.932564	-0.002808	58.6701	-0.931201	-2.681654E+12	1.047157E-15	NaN
301	1.000000	0.830922	7.36801e+06	-53689.1	955.819	-29745.2	0.000000	0.000000	6.831109	0.145078	NaN	0.000000	0.001646	0.001724	28.0766	0.048984	0.002014	24.3244	-132.132	-161.268	0.061082	0.829587	-0.919238	-0.920573	0.145078	24.3244	-0.923711	-2.124759E+12	-6.827991E-14	NaN
301	1.000000	0.842920	7.36801e+06	-53689.1	955.819	-29745.2	0.000000	0.000000	6.843102	0.026216	NaN	0.000000	0.001638	0.001712	28.0768	0.085418	0.001943	43.9578	-137.278	-165.739	0.067571	0.841608	-0.907240	-0.908552	0.026216	43.9578	-0.907687	-1.290983E+12	-2.030714E-14	NaN
301	1.000000	0.854923	7.36801e+06	-53689.1	955.819	-29745.2	0.000000	0.000000	6.855107	0.057820	NaN	0.000000	0.001653	0.001718	28.0767	0.043403	0.002004	21.6632	-61.9045	-161.469	0.013581	0.853622	-0.895237	-0.896538	0.057820	21.6632	-0.897239	-9.327175E+11	-6.199122E-14	NaN
301	1.000000	0.866883	7.36801e+06	-53689.1	955.819	-29745.2	0.000000	0.000000	6.867064	0.009103	NaN	0.000000	0.001622	0.001733	28.0768	0.061307	0.002031	30.1834	58.6566	-166.41	-0.003076	0.865640	-0.883277	-0.884520	0.009103	30.1834	-0.883503	-6.082505E+11	-1.496665E-14	NaN
301	1.000000	0.878911	7.36801e+06	-53689.1	955.819	-29745.2	0.000000	0.000000	6.879093	0.011481	NaN	0.000000	0.001645	0.001665	28.0769	0.087011	0.002109	41.2541	155.512	-165.071	-0.003472	0.877641	-0.871249	-0.872519	0.011481	41.2541	-0.871457	-4.179855E+11	-2.746858E-14	NaN
301	1.000000	0.890910	7.36801e+06	-53689.1	955.818	-29745.2	0.000000	0.000000	6.891090	-0.014776	NaN	0.000000	0.001692	0.001702	28.0769	0.072152	0.002029	35.5669	82.4145	-162.621	0.037109	0.889591	-0.859250	-0.860569	-0.014776	35.5669	-0.858938	-2.829762E+11	5.221472E-14	NaN
301	1.000000	0.902945	7.36801e+06	-53689.1	955.818	-29745.2	0.000000	0.000000	6.903125	-0.023673	NaN	0.000000	0.001712	0.001690	28.0769	0.082075	0.001918	42.7921	143.573	-166.633	-0.021708	0.901650	-0.847215	-0.848510	-0.023673	42.7921	-0.846800	-1.938206E+11	1.221379E-13	NaN
301	1.000000	0.914928	7.36801e+06	-53689.1	955.818	-29745.2	0.000000	0.000000	6.915111	0.044708	NaN	0.000000	0.001684	0.001693	28.0768	0.063861	0.002009	31.7895	-104.635	-161.57	0.100570	0.913584	-0.835232	-0.836576	0.044708	31.7895	-0.836287	-1.396303E+11	-3.201903E-13	NaN
301	1.000000	0.926957	7.36801e+06	-53689.1	955.82	-29745.2	0.000000	0.000000	6.927139	0.042801	NaN	0.000000	0.001697	0.001702	28.0777	0.124731	0.001936	64.4161	-91.7275	-166.095	0.045593	0.925641	-0.823203	-0.824519	0.042801	64.4161	-0.823702	-9.427685E+10	-4.539894E-13	NaN
301	1.000000	0.938939	7.36801e+06	-53689.1	955.819	-29745.2	0.000000	0.000000	6.939120	0.005401	NaN	0.000000	0.001660	0.001699	28.0779	0.030746	0.002112	14.5599	54.6005	-160.343	-0.041908	0.937624	-0.811221	-0.812536	0.005401	14.5599	-0.811499	-6.440355E+10	-8.386512E-14	NaN
301	1.000000	0.950952	7.36801e+06	-53689.1	955.819	-29745.2	0.000000	0.000000	6.951131	-0.055151	NaN	0.000000	0.001683	0.001666	28.078	0.015057	0.002054	7.330355	-31.5169	-162.838	-0.053509	0.949607	-0.799208	-0.800553	-0.055151	7.330355	-0.793565	-3.677016E+10	1.499893E-12	NaN
301	1.000000	0.962952	7.36801e+06	-53689.1	955.817	-29745.2	0.000000	0.000000	6.963133	0.015403	NaN	0.000000	0.001640	0.001663	28.0782	0.029278	0.002051	14.2757	-33.0218	-159.679	0.001584	0.961612	-0.787208	-0.788548	0.015403	14.2757	-0.788017	-3.091389E+10	-4.982458E-13	NaN
301	1.000000	0.974960	7.36801e+06	-53689.1	955.817	-29745.2	0.000000	0.000000	6.975140	-0.032481	NaN	0.000000	0.001618	0.001704	28.0781	0.070967	0.002015	35.2208	63.0127	-165	0.073227	0.973606	-0.775200	-0.776555	-0.032481	35.2208	-0.774508	-2.025795E+10	1.603392E-12	NaN
301	1.000000	0.986966	7.36801e+06	-53689.1	955.818	-29745.2	0.000000	0.000000	6.987146	-0.035993	NaN	0.000000	0.001666	0.001691	28.079	0.098407	0.002000	49.2091	149.33	-165.321	-0.029522	0.985663	-0.763194	-0.764497	-0.035993	49.2091	-0.762645	-1.397282E+10	2.575949E-12	NaN
301	1.000000	0.998958	7.36801e+06	-53689.1	955.818	-29745.2	0.000000	0.000000	6.999136	-0.070886	NaN	0.000000	0.001644	0.001708	28.0782	0.085574	0.002068	41.3733	-91.0532	-163.611	0.011986	0.997627	-0.751202	-0.752533	-0.070886	41.3733	-0.749917	-9.377681E+9	7.559055E-12	NaN
301	1.000000	1.010975	7.36801e+06	-53689.1	955.818	-29745.2	0.000000	0.000000	7.011157	0.031241	NaN	0.000000	0.001662	0.001672	28.0781	0.116916	0.002049	57.0525	173.986	-164.043	0.029750	1.009595	-0.739185	-0.740565	0.031241	57.0525	-0.739596	-6.785095E+9	-4.604407E-12	NaN
301	1.000000	1.022966	7.36801e+06	-53689.1	955.818	-29745.2	0.000000	0.000000	7.023146	-0.021080	NaN	0.000000	0.001661	0.001675	28.078	0.089137	0.002069	43.0843	173.775	-167.765	-0.099550	1.021722	-0.727194	-0.728438	-0.021080	43.0843	-0.726827	-4.545323E+9	4.637628E-12	NaN
301	1.000000	1.034988	7.36801e+06	-53689.1	955.818	-29745.2	0.000000	0.000000	7.035166	-0.079683	NaN	0.000000	0.001676	0.001695	28.0781	0.089638	0.001968	45.5368	150.398	-165.752	-0.099084	1.033680	-0.715172	-0.716480	-0.079683	45.5368	-0.713859	-3.024900E+9	2.634228E-11	NaN
301	1.000000	1.047006	7.36801e+06	-53689.1	955.819	-29745.2	0.000000	0.000000	7.047184	-0.048050	NaN	0.000000	0.001642	0.001729	28.0781	0.064574	0.002011	32.1046	110.326	-165.612	-0.077229	1.045721	-0.703154	-0.704439	-0.048050	32.1046	-0.702032	-2.085829E+9	2.303634E-11	NaN
301	1.000000	1.058979	7.36801e+06	-53689.1	955.818	-29745.2	0.000000	0.000000	7.059163	0.061055	NaN	0.000000	0.001692	0.001683	28.0781	0.107066	0.001955	54.7603	67.7549	-168.198	0.064793	1.057709	-0.691181	-0.692451	0.061055	54.7603	-0.692017	-1.522232E+9	-4.010883E-11	NaN
301	1.000000	1.071002	7.36801e+06	-53689.1	955.818	-29745.2	0.000000	0.000000	7.071183	-0.004100	NaN	0.000000	0.001648	0.001690	28.0769	0.026057	0.002025	12.8686	-161.035	-164.869	0.026496	1.069657	-0.679158	-0.680503	-0.004100	12.8686	-0.678919	-1.007906E+9	4.067526E-12	NaN
301	1.000000	1.082996	7.36801e+06	-53689.1	955.818	-29745.2	0.000000	0.000000	7.083176	-0.016713	NaN	0.000000	0.001696	0.001662	28.0768	0.095960	0.002010	47.7302	-149.897	-164.544	-0.044059	1.081731	-0.667164	-0.668429	-0.016713	47.7302	-0.666901	-6.901952E+8	2.421496E-11	NaN
301	1.000000	1.094994	7.36801e+06	-53689.1	955.817	-29745.2	0.000000	0.000000	7.095174	-0.042936	NaN	0.000000	0.001679	0.001657	28.0768	0.078097	0.002050	38.0968	43.4935	-165.667	-0.046046	1.093662	-0.655166	-0.656498	-0.042936	38.0968	-0.654320	-4.641443E+8	9.250658E-11	NaN
301	1.000000	1.107013	7.36801e+06	-53689.1	955.818	-29745.2	0.000000	0.000000	7.107192	-0.044004	NaN	0.000000	0.001680	0.001663	28.0769	0.086206	0.001909	45.1686	-32.8651	-163.771	-0.003083	1.105674	-0.643147	-0.644486	-0.044004	45.1686	-0.642416	-3.187423E+8	1.380558E-10	NaN
301	1.000000	1.119013	7.36801e+06	-53689.1	955.819	-29745.2	0.000000	0.000000	7.119195	0.018429	NaN	0.000000	0.001661	0.001664	28.0769	0.053249	0.002144	24.8313	150.045	-167.29	0.075178	1.117759	-0.631147	-0.632401	0.018429	24.8313	-0.631703	-2.272030E+8	-8.111125E-11	NaN
301	1.000000	1.131012	7.36801e+06	-53689.1	955.82	-29745.2	0.000000	0.000000	7.131194	0.009382	NaN	0.000000	0.001661	0.001669	28.0767	0.137173	0.001995	68.7715	175.931	-167.241	-0.086274	1.129676	-0.619148	-0.620484	0.009382	68.7715	-0.619250	-1.532231E+8	-6.123336E-11	NaN
301	1.000000	1.143038	7.36801e+06	-53689.1	955.818	-29745.2	0.000000	0.000000	7.143220	0.011041	NaN	0.000000	0.001672	0.001682	28.0767	0.022014	0.001913	11.5055	156.145	-164.645	0.060803	1.141679	-0.607122	-0.608481	0.011041	11.5055	-0.607842	-1.067614E+8	-1.034175E-10	NaN
301	1.000000	1.155043	7.36801e+06	-53689.1	955.818	-29745.2	0.000000	0.000000	7.155225	0.013802	NaN	0.000000	0.001654	0.001684	28.0766	0.074247	0.002021	36.7439	-61.5015	-163.9	0.029041	1.153710	-0.595117	-0.596450	0.013802	36.7439	-0.595398	-7.195668E+7	-1.918130E-10	NaN
301	1.000000	1.167034	7.36801e+06	-53689.1	955.82	-29745.2	0.000000	0.000000	7.167216	0.029737	NaN	0.000000	0.001646	0.001677	28.0767	0.145324	0.002123	68.4583	-85.6093	-166.835	-0.060672	1.165809	-0.583126	-0.584351	0.029737	68.4583	-0.583452	-4.924496E+7	-6.038516E-10	NaN
301	1.000000	1.179029	7.36801e+06	-53689.1	955.818	-29745.2	0.000000	0.000000	7.179212	0.048948	NaN	0.000000	0.001639	0.001644	28.0767	0.116571	0.002096	55.6216	141.591	-164.414	-0.034267	1.177764	-0.571131	-0.572396	0.048948	55.6216	-0.571791	-3.399154E+7	-1.439993E-9	NaN
301	1.000000	1.191044	7.36801e+06	-53689.1	955.819	-29745.2	0.000000	0.000000	7.191227	0.028966	NaN	0.000000	0.001655	0.001664	28.0768	0.072765	0.002017	36.0678	76.6165	-164.896	0.066830	1.189667	-0.559116	-0.560493	0.028966	36.0678	-0.559718	-2.314597E+7	-1.251445E-9	NaN
301	1.000000	1.203054	7.36801e+06	-53689.1	955.817	-29745.2	0.000000	0.000000	7.203234	-0.028050	NaN	0.000000	0.001639	0.001676	28.0775	0.031552	0.002085	15.1314	-112.881	-164.3	0.051631	1.201727	-0.547106	-0.548434	-0.028050	15.1314	-0.545715	-1.481133E+7	1.893823E-9	NaN
301	1.000000	1.215032	7.36801e+06	-53689.1	955.819	-29745.2	0.000000	0.000000	7.215213	-0.014173	NaN	0.000000	0.001649	0.001668	28.0777	0.078911	0.001996	39.5269	127.667	-166.485	0.014415	1.213796	-0.535128	-0.536364	-0.014173	39.5269	-0.534859	-1.047200E+7	1.353414E-9	NaN
301	1.000000	1.227063	7.36801e+06	-53689.1	955.818	-29745.2	0.000000	0.000000	7.227245	0.014555	NaN	0.000000	0.001624	0.001660	28.0781	0.097834	0.001886	51.8746	20.4708	-166.885	-0.001958	1.225743	-0.523097	-0.524418	0.014555	51.8746	-0.523307	-7.23744e+06	-2.011024E-9	NaN
301	1.000000	1.239075	7.36801e+06	-53689.1	955.819	-29745.2	0.000000	0.000000	7.239254	-0.029910	NaN	0.000000	0.001661	0.001658	28.0779	0.044796	0.001928	23.2399	98.4431	-162.35	0.000862	1.237746	-0.511085	-0.512414	-0.029910	23.2399	-0.510120	-4.74341e+06	6.305566E-9	NaN
301	1.000000	1.251071	7.36801e+06	-53689.1	955.817	-29745.2	0.000000	0.000000	7.251254	0.053665	NaN	0.000000	0.001632	0.001679	28.078	0.090030	0.002019	44.5903	-37.3287	-164.812	0.105880	1.249717	-0.499089	-0.500443	0.053665	44.5903	-0.499991	-3.42688e+06	-1.565999E-8	NaN
301	1.000000	1.263063	7.36801e+06	-53689.1	955.82	-29745.2	0.000000	0.000000	7.263246	0.036157	NaN	0.000000	0.001642	0.001703	28.0779	0.050724	0.001951	26.0032	158.924	-164.796	-0.012966	1.261783	-0.487097	-0.488377	0.036157	26.0032	-0.488140	-2.34095e+06	-1.544537E-8	NaN
301	1.000000	1.275065	7.36801e+06	-53689.1	955.818	-29745.2	0.000000	0.000000	7.275245	-0.034405	NaN	0.000000	0.001666	0.001692	28.078	0.130751	0.001922	68.0405	-124.036	-168.753	-0.021332	1.273784	-0.475095	-0.476376	-0.034405	68.0405	-0.474715	-1.51884e+06	2.265229E-8	NaN
301	1.000000	1.287075	7.36801e+06	-53689.1	955.818	-29745.2	0.000000	0.000000	7.287256	-0.009228	NaN	0.000000	0.001664	0.001668	28.078	0.041105	0.001892	21.7199	-60.1471	-164.308	-0.061922	1.285751	-0.463085	-0.464409	-0.009228	21.7199	-0.462766	-1.03247e+06	8.937448E-9	NaN
301	1.000000	1.299072	7.36801e+06	-53689.1	955.819	-29745.2	0.000000	0.000000	7.299253	-0.006462	NaN	0.000000	0.001660	0.001652	28.0778	0.123029	0.001978	62.1963	35.6836	-164.455	-0.026885	1.297754	-0.451088	-0.452406	-0.006462	62.1963	-0.451010	-705613	9.157552E-9	NaN
301	1.000000	1.311078	7.36801e+06	-53689.1	955.819	-29745.2	0.000000	0.000000	7.311261	0.051172	NaN	0.000000	0.001634	0.001654	28.0778	0.076398	0.002005	38.1094	-12.9533	-167.71	0.049851	1.309751	-0.439082	-0.440409	0.051172	38.1094	-0.440089	-495016	-1.033747E-7	NaN
301	1.000000	1.323094	7.36801e+06	-53689.1	955.819	-29745.2	0.000000	0.000000	7.323272	-0.064740	NaN	0.000000	0.001643	0.001703	28.078	0.070192	0.002025	34.6672	91.503	-165.223	-0.076242	1.321778	-0.427066	-0.428382	-0.064740	34.6672	-0.425665	-309534	2.091542E-7	NaN
301	1.000000	1.335106	7.36801e+06	-53689.1	955.818	-29745.2	0.000000	0.000000	7.335289	0.047010	NaN	0.000000	0.001635	0.001703	28.0776	0.048892	0.002037	24.0046	-34.2659	-164.065	0.049822	1.333834	-0.415054	-0.416326	0.047010	24.0046	-0.416523	-229657	-2.046965E-7	NaN
301	1.000000	1.347112	7.36801e+06	-53689.1	955.819	-29745.2	0.000000	0.000000	7.347294	0.020938	NaN	0.000000	0.001663	0.001648	28.0766	0.030926	0.001917	16.129	104.147	-168.296	0.039610	1.345800	-0.403048	-0.404360	0.020938	16.129	-0.404022	-152516	-1.372865E-7	NaN
301	1.000000	1.359126	7.36801e+06	-53689.1	955.819	-29745.2	0.000000	0.000000	7.359306	-0.013381	NaN	0.000000	0.001648	0.001647	28.0767	0.084726	0.001997	42.4244	-157.908	-166.657	-0.007871	1.357850	-0.391034	-0.392310	-0.013381	42.4244	-0.390798	-98758.8	1.354909E-7	NaN
301	1.000000	1.371148	7.36801e+06	-53689.1	955.82	-29745.2	0.000000	0.000000	7.371330	0.018766	NaN	0.000000	0.001657	0.001678	28.0768	0.128173	0.001873	68.4289	-157.055	-164.744	0.066343	1.369819	-0.379012	-0.380341	0.018766	68.4289	-0.379218	-67400.4	-2.784230E-7	NaN
301	1.000000	1.383119	7.36801e+06	-53689.1	955.819	-29745.2	0.000000	0.000000	7.383297	-0.053908	NaN	0.000000	0.001637	0.001681	28.0767	0.128219	0.001894	67.7122	-93.9079	-166.252	0.002192	1.381820	-0.367041	-0.368340	-0.053908	67.7122	-0.366444	-44145.2	1.221155E-6	NaN
301	1.000000	1.395144	7.36801e+06	-53689.1	955.82	-29745.2	0.000000	0.000000	7.395323	-0.060564	NaN	0.000000	0.001631	0.001689	28.0766	0.045344	0.002019	22.4577	-157.71	-162.834	-0.045703	1.393838	-0.355016	-0.356322	-0.060564	22.4577	-0.352993	-28211.1	2.146801E-6	NaN
301	1.000000	1.407119	7.36801e+06	-53689.1	955.82	-29745.2	0.000000	0.000000	7.407300	-0.008803	NaN	0.000000	0.001641	0.001690	28.0768	0.103304	0.001984	52.0791	85.1462	-166.632	-0.002758	1.405864	-0.343041	-0.344296	-0.008803	52.0791	-0.342914	-20137.5	4.371385E-7	NaN
301	1.000000	1.419142	7.36801e+06	-53689.1	955.82	-29745.2	0.000000	0.000000	7.419322	-0.035070	NaN	0.000000	0.001669	0.001676	28.0768	0.033262	0.002067	16.0928	74.0051	-165.774	-0.004180	1.417904	-0.331018	-0.332256	-0.035070	16.0928	-0.329383	-12776.7	2.744810E-6	NaN
301	1.000000	1.431137	7.36801e+06	-53689.1	955.82	-29745.2	0.000000	0.000000	7.431317	-0.025489	NaN	0.000000	0.001668	0.001690	28.0766	0.054951	0.001939	28.3346	64.3024	-163.746	-0.022346	1.429867	-0.319023	-0.320293	-0.025489	28.3346	-0.318348	-8796.52	2.897636E-6	NaN
301	1.000000	1.443163	7.36801e+06	-53689.1	955.82	-29745.2	0.000000	0.000000	7.443343	-0.022026	NaN	0.000000	0.001670	0.001649	28.0768	0.116012	0.002023	57.3478	1.175283	-162.598	-0.009081	1.441834	-0.306997	-0.308326	-0.022026	57.3478	-0.306709	-5919.77	3.720666E-6	NaN
301	1.000000	1.455171	7.36801e+06	-53689.1	955.82	-29745.2	0.000000	0.000000	7.455351	-0.016202	NaN	0.000000	0.001670	0.001673	28.0769	0.125307	0.001964	63.8112	-152.399	-165.877	-0.060492	1.453819	-0.294989	-0.296341	-0.016202	63.8112	-0.294799	-3936.28	4.116023E-6	NaN
301	1.000000	1.467149	7.36801e+06	-53689.1	955.821	-29745.2	0.000000	0.000000	7.467330	0.002849	NaN	0.000000	0.001685	0.001676	28.0769	0.041832	0.002070	20.21	-159.008	-161.604	-0.027178	1.465833	-0.283011	-0.284327	0.002849	20.21	-0.283117	-2629.91	-1.083263E-6	NaN
301	1.000000	1.479173	7.36801e+06	-53689.1	955.82	-29745.2	0.000000	0.000000	7.479353	-0.008577	NaN	0.000000	0.001633	0.001681	28.0784	0.065302	0.001995	32.7401	123.705	-164.574	-0.009979	1.477895	-0.270987	-0.272265	-0.008577	32.7401	-0.270791	-1712.23	5.009271E-6	NaN
301	1.000000	1.491146	7.36801e+06	-53689.1	955.819	-29745.2	0.000000	0.000000	7.491325	-0.041036	NaN	0.000000	0.001642	0.001680	28.0778	0.081850	0.002052	39.8853	106.154	-163.177	-0.009239	1.489879	-0.259014	-0.260282	-0.041036	39.8853	-0.258242	-1101.42	3.725708E-5	NaN
301	1.000000	1.503148	7.36801e+06	-53689.1	955.819	-29745.2	0.000000	0.000000	7.503329	0.017031	NaN	0.000000	0.001641	0.001661	28.0779	0.067942	0.001977	34.3735	103.524	-165.872	0.029698	1.501839	-0.247012	-0.248321	0.017031	34.3735	-0.247384	-748.951	-2.273922E-5	NaN
301	1.000000	1.515176	7.36801e+06	-53689.1	955.819	-29745.2	0.000000	0.000000	7.515358	0.048568	NaN	0.000000	0.001676	0.001697	28.0779	0.029883	0.001938	15.4168	38.428	-163.153	0.007153	1.513846	-0.234985	-0.236314	0.048568	15.4168	-0.237347	-522.47	-9.295936E-5	NaN
301	1.000000	1.527166	7.36801e+06	-53689.1	955.818	-29745.2	0.000000	0.000000	7.527344	-0.088956	NaN	0.000000	0.001692	0.001671	28.0779	0.015395	0.001911	8.056879	-100.108	-164.433	0.009651	1.525858	-0.222994	-0.224302	-0.088956	8.056879	-0.214713	-228.505	0.000389	NaN
301	1.000000	1.539201	7.36801e+06	-53689.1	955.818	-29745.2	0.000000	0.000000	7.539381	-0.033143	NaN	0.000000	0.001693	0.001676	28.0782	0.089289	0.001943	45.9427	-26.459	-165.2	-0.099505	1.537888	-0.210959	-0.212272	-0.033143	45.9427	-0.210418	-194.796	0.000170	NaN
301	1.000000	1.551205	7.36801e+06	-53689.1	955.818	-29745.2	0.000000	0.000000	7.551386	0.000724	NaN	0.000000	0.001641	0.001700	28.0779	0.032240	0.002028	15.8973	-98.1519	-168.041	0.026815	1.549944	-0.198955	-0.200216	0.000724	15.8973	-0.198989	-126.785	-5.706892E-6	NaN
301	1.000000	1.563212	7.36801e+06	-53689.1	955.819	-29745.2	0.000000	0.000000	7.563391	-0.038389	NaN	0.000000	0.001633	0.001668	28.0783	0.032860	0.002093	15.6984	121.553	-163.973	0.016030	1.561926	-0.186948	-0.188234	-0.038389	15.6984	-0.185114	-74.4835	0.000515	NaN
301	1.000000	1.575202	7.36801e+06	-53689.1	955.818	-29745.2	0.000000	0.000000	7.575380	-0.060066	NaN	0.000000	0.001663	0.001730	28.0782	0.033672	0.001883	17.8816	79.9436	-163.919	0.049476	1.573915	-0.174958	-0.176245	-0.060066	17.8816	-0.172439	-45.2744	0.001327	NaN
301	1.000000	1.587227	7.36801e+06	-53689.1	955.818	-29745.2	0.000000	0.000000	7.587407	-0.015945	NaN	0.000000	0.001677	0.001681	28.0779	0.035767	0.002035	17.5747	116.732	-162.372	-0.087644	1.585976	-0.162933	-0.164184	-0.015945	17.5747	-0.162252	-30.054	0.000531	NaN
301	1.000000	1.599220	7.36801e+06	-53689.1	955.818	-29745.2	0.000000	0.000000	7.599401	0.007788	NaN	0.000000	0.001690	0.001677	28.0781	0.058770	0.002010	29.2373	-157.831	-166.349	-0.029000	1.597913	-0.150940	-0.152247	0.007788	29.2373	-0.151140	-19.0003	-0.000410	NaN
301	1.000000	1.611258	7.36801e+06	-53689.1	955.818	-29745.2	0.000000	0.000000	7.611441	0.042179	NaN	0.000000	0.001661	0.001677	28.0767	0.148154	0.002021	73.307	-129.991	-167.099	0.016289	1.609930	-0.138902	-0.140230	0.042179	73.307	-0.139333	-11.493	-0.003670	NaN
301	1.000000	1.623251	7.36801e+06	-53689.1	955.819	-29745.2	0.000000	0.000000	7.623433	0.012508	NaN	0.000000	0.001666	0.001702	28.0767	0.033726	0.002171	15.5377	-150.806	-161.609	-0.067414	1.621930	-0.126909	-0.128230	0.012508	15.5377	-0.127513	-6.815172	-0.001835	NaN
301	1.000000	1.635247	7.36801e+06	-53689.1	955.819	-29745.2	0.000000	0.000000	7.635430	0.059623	NaN	0.000000	0.001665	0.001742	28.0767	0.065558	0.001927	34.0261	-81.7315	-162.967	0.038561	1.633886	-0.114913	-0.116274	0.059623	34.0261	-0.116228	-4.048951	-0.014726	NaN
301	1.000000	1.647240	7.36801e+06	-53689.1	955.82	-29745.2	0.000000	0.000000	7.647420	-0.010655	NaN	0.000000	0.001677	0.001667	28.0767	0.085821	0.001929	44.4905	-47.8821	-163.762	-0.067232	1.645973	-0.102920	-0.104187	-0.010655	44.4905	-0.102741	-2.099359	0.005075	NaN
301	1.000000	1.659230	7.36801e+06	-53689.1	955.819	-29745.2	0.000000	0.000000	7.659414	0.081467	NaN	0.000000	0.001654	0.001662	28.0768	0.111354	0.001953	57.0125	130.986	-162.89	0.066825	1.657928	-0.090930	-0.092232	0.081467	57.0125	-0.092001	-1.203645	-0.067683	NaN
301	1.000000	1.671266	7.36801e+06	-53689.1	955.819	-29745.2	0.000000	0.000000	7.671448	0.042006	NaN	0.000000	0.001683	0.001675	28.0767	0.030191	0.001954	15.4492	-62.37	-167.519	-0.101209	1.669921	-0.078894	-0.080239	0.042006	15.4492	-0.080934	-0.653073	-0.064321	NaN
301	1.000000	1.683289	7.36801e+06	-53689.1	955.819	-29745.2	0.000000	0.000000	7.683469	-0.029016	NaN	0.000000	0.001735	0.001679	28.0765	0.128083	0.001993	64.2796	-97.2003	-166.224	-0.031043	1.681980	-0.066871	-0.068180	-0.029016	64.2796	-0.066532	-0.274696	0.105629	NaN
301	1.000000	1.695262	7.36801e+06	-53689.1	955.819	-29745.2	0.000000	0.000000	7.695445	0.062740	NaN	0.000000	0.001768	0.001706	28.0766	0.016529	0.002008	8.231888	-32.8067	-163.132	0.083230	1.693910	-0.054898	-0.056250	0.062740	8.231888	-0.060615	-0.187538	-0.334542	NaN
301	1.000000	1.707305	7.36801e+06	-53689.1	955.82	-29745.2	0.000000	0.000000	7.707484	-0.027705	NaN	0.000000	0.001667	0.001688	28.0767	0.075032	0.001921	39.0646	118.719	-164.725	0.022745	1.705940	-0.042855	-0.044220	-0.027705	39.0646	-0.042324	-0.053230	0.520477	NaN
301	1.000000	1.719250	7.36802e+06	-53689.1	955.82	-29745.2	0.000000	0.000000	7.719428	-0.075037	NaN	0.000000	0.001670	0.001699	28.0767	0.126601	0.002033	62.2771	-132.755	-166.09	-0.069637	1.717989	-0.030910	-0.032171	-0.075037	62.2771	-0.030007	-0.023023	3.259296	NaN
301	1.000000	1.731311	7.36802e+06	-53689.1	955.819	-29745.2	0.000000	0.000000	7.731490	-0.045931	NaN	0.000000	0.001676	0.001660	28.0769	0.070156	0.001941	36.1514	56.5855	-166.77	-0.106157	1.730009	-0.018849	-0.020151	-0.045931	36.1514	-0.017896	-0.011093	4.140394	NaN
301	1.000000	1.743303	7.36802e+06	-53689.1	955.821	-29745.2	0.000000	0.000000	7.743484	0.004118	NaN	0.000000	0.001679	0.001622	28.0771	0.026702	0.002121	12.5887	-17.6174	-165.552	0.005744	1.741950	-0.006857	-0.008210	0.004118	12.5887	-0.007102	-0.004701	-0.875979	NaN
301	1.000000	1.755253	7.36802e+06	-53689.1	955.82	-29745.2	0.000000	0.000000	7.755639	4.987570	NaN	0.000000	0.001634	0.001647	28.0782	5.512236	0.001926	2862.16	9.483039	-170.275	2.931343	1.753937	0.005093	0.003777	4.987570	2862.16	0.003786	0.003052	1634.24	47334.8
301	2.000000	1.760909	7.36802e+06	-53689.1	955.82	-29745.2	0.000000	0.000000	7.761519	10.433	NaN	0.000000	0.001642	0.001685	28.0781	10.8382	0.001693	6403.07	6.330122	-172.494	9.830623	1.760627	0.010749	0.010467	10.433	6403.07	0.009527	0.008660	1204.69	62862.9
301	2.000000	1.763903	7.36802e+06	-53689.1	955.82	-29745.2	0.000000	0.000000	7.764701	14.9951	NaN	0.000000	0.001681	0.001697	28.0779	14.5803	0.001700	8576.09	6.861234	-175.167	14.7349	1.763639	0.013743	0.013479	14.9951	8576.09	0.012432	0.012011	1248.44	71494.4
301	2.000000	1.766814	7.36802e+06	-53689.1	955.82	-29745.2	0.000000	0.000000	7.767820	20.0724	NaN	0.000000	0.001674	0.001684	28.0786	18.1597	0.001774	10239.3	5.512720	-174.776	19.5997	1.766599	0.016654	0.016439	20.0724	10239.3	0.015183	0.015531	1292.43	75067
301	2.000000	1.769869	7.36802e+06	-53689.1	955.82	-29745.2	0.000000	0.000000	7.771086	25.1868	NaN	0.000000	0.001687	0.001679	28.0781	21.712	0.001862	11659.4	6.992347	-176.771	25.5126	1.769550	0.019709	0.019389	25.1868	11659.4	0.018089	0.019627	1283.26	76035.9
301	2.000000	1.772846	7.36802e+06	-53689.1	955.82	-29745.2	0.000000	0.000000	7.774328	31.6234	NaN	0.000000	0.001712	0.001661	28.0781	24.5407	0.001761	13935.6	0.713614	-173.42	30.7217	1.772549	0.022686	0.022389	31.6234	13935.6	0.020984	0.024113	1311.48	81993
301	2.000000	1.775881	7.36802e+06	-53689.1	955.82	-29745.2	0.000000	0.000000	7.777684	39.4356	NaN	0.000000	0.001738	0.001661	28.078	27.2655	0.001838	14836.8	4.258025	-177.11	39.6703	1.775543	0.025721	0.025383	39.4356	14836.8	0.023727	0.028741	1372.12	79958.7
301	2.000000	1.778829	7.36802e+06	-53689.1	955.821	-29745.2	0.000000	0.000000	7.781002	48.441	NaN	0.000000	0.001746	0.001666	28.078	29.2048	0.001727	16906.3	4.576734	-178.494	46.723	1.778437	0.028669	0.028277	48.441	16906.3	0.026520	0.033839	1431.5	83967.4
301	2.000000	1.781889	7.36802e+06	-53689.1	955.821	-29745.2	0.000000	0.000000	7.784261	53.2644	NaN	0.000000	0.001688	0.001675	28.0784	33.3559	0.001907	17489.1	8.749086	177.993	58.5374	1.781587	0.031729	0.031427	53.2644	17489.1	0.029445	0.039601	1345.02	80294.6
301	2.000000	1.784863	7.36802e+06	-53689.1	955.82	-29745.2	0.000000	0.000000	7.787556	61.0693	NaN	0.000000	0.001665	0.001691	28.0781	35.4418	0.001866	18989.4	3.950874	-178.617	64.3874	1.784566	0.034703	0.034406	61.0693	18989.4	0.032291	0.045626	1338.47	81222.7
301	2.000000	1.787808	7.36802e+06	-53689.1	955.82	-29745.2	0.000000	0.000000	7.790934	71.5964	NaN	0.000000	0.001691	0.001704	28.078	38.0594	0.001802	21126.2	5.018295	178.364	71.0125	1.787469	0.037648	0.037309	71.5964	21126.2	0.035106	0.051994	1377.01	84648.3
301	2.000000	1.790761	7.36802e+06	-53689.1	955.821	-29745.2	0.000000	0.000000	7.794188	78.9328	NaN	0.000000	0.001702	0.001666	28.0767	40.7643	0.001750	23295.1	7.078676	176.436	77.1381	1.790482	0.040601	0.040322	78.9328	23295.1	0.038060	0.059110	1335.36	87540.5
301	2.000000	1.793782	7.36802e+06	-53689.1	955.82	-29745.2	0.000000	0.000000	7.797859	94.731	NaN	0.000000	0.001668	0.001693	28.0767	43.2772	0.001781	24301.7	4.115966	179.115	93.7627	1.793454	0.043622	0.043294	94.731	24301.7	0.040698	0.065845	1438.7	86526.4
301	2.000000	1.796758	7.36802e+06	-53689.1	955.82	-29745.2	0.000000	0.000000	7.801204	103.702	NaN	0.000000	0.001698	0.001684	28.0771	46.82	0.001839	25461.5	2.504191	179.94	102.302	1.796515	0.046598	0.046355	103.702	25461.5	0.043543	0.073505	1410.81	85802.2
301	2.000000	1.799804	7.36802e+06	-53689.1	955.82	-29745.2	0.000000	0.000000	7.804745	115.731	NaN	0.000000	0.001678	0.001665	28.0766	49.3496	0.001767	27927.1	1.677847	179.766	114.829	1.799505	0.049644	0.049345	115.731	27927.1	0.046536	0.082007	1411.24	89099.1
301	2.000000	1.802888	7.36802e+06	-53689.1	955.821	-29745.2	0.000000	0.000000	7.808233	125.553	NaN	0.000000	0.001722	0.001665	28.0767	54.1095	0.001967	27504.7	8.014907	174.518	128.017	1.802516	0.052728	0.052356	125.553	27504.7	0.049305	0.090276	1390.77	83636.2
301	2.000000	1.805886	7.36802e+06	-53689.1	955.82	-29745.2	0.000000	0.000000	7.811824	139.988	NaN	0.000000	0.001711	0.001707	28.0767	55.703	0.001900	29316.7	11.0245	172.392	143.439	1.805365	0.055725	0.055205	139.988	29316.7	0.052144	0.099156	1411.8	85060.8
301	2.000000	1.808780	7.36802e+06	-53689.1	955.819	-29745.2	0.000000	0.000000	7.815026	147.46	NaN	0.000000	0.001712	0.001674	28.0768	57.4323	0.001875	30634.3	4.063903	177.108	145.622	1.808543	0.058620	0.058383	147.46	30634.3	0.055010	0.108525	1358.77	84960.5
301	2.000000	1.811831	7.36802e+06	-53689.1	955.821	-29745.2	0.000000	0.000000	7.818799	164.996	NaN	0.000000	0.001681	0.001667	28.0769	60.5736	0.001839	32933.4	7.892840	172.424	169.714	1.811494	0.061671	0.061334	164.996	32933.4	0.057914	0.118434	1393.15	87432.3
301	2.000000	1.814756	7.36802e+06	-53689.1	955.821	-29745.2	0.000000	0.000000	7.822574	185.687	NaN	0.000000	0.001689	0.001675	28.0766	61.6438	0.001635	37691.9	9.194517	170.68	185.497	1.814378	0.064596	0.064218	185.687	37691.9	0.060901	0.129059	1438.78	95857.9
301	2.000000	1.817682	7.36802e+06	-53689.1	955.821	-29745.2	0.000000	0.000000	7.826187	202.366	NaN	0.000000	0.001626	0.001638	28.0766	64.9662	0.001816	35770.2	2.009501	177.853	196.866	1.817391	0.067522	0.067231	202.366	35770.2	0.063279	0.137829	1468.24	88028.8
301	2.000000	1.820730	7.36802e+06	-53689.1	955.82	-29745.2	0.000000	0.000000	7.829862	217.619	NaN	0.000000	0.001664	0.001657	28.0764	69.8232	0.001782	39191.1	5.895664	173.141	215.915	1.820375	0.070570	0.070215	217.619	39191.1	0.066406	0.149775	1452.97	92521
301	2.000000	1.823776	7.36802e+06	-53689.1	955.822	-29745.2	0.000000	0.000000	7.833444	230.654	NaN	0.000000	0.001691	0.001667	28.0774	72.2947	0.001896	38138.8	4.775718	175.132	229.902	1.823419	0.073616	0.073259	230.654	38138.8	0.069080	0.160365	1438.31	87013.3
301	2.000000	1.826718	7.36802e+06	-53689.1	955.822	-29745.2	0.000000	0.000000	7.837156	249.363	NaN	0.000000	0.001639	0.001677	28.0779	74.6985	0.001872	39896.2	3.236304	175.494	247.003	1.826444	0.076558	0.076284	249.363	39896.2	0.071870	0.171779	1451.65	87946.7
301	2.000000	1.829763	7.36802e+06	-53689.1	955.82	-29745.2	0.000000	0.000000	7.841073	270.573	NaN	0.000000	0.001682	0.001696	28.0778	77.5302	0.001860	41676.8	6.911817	172.026	269.976	1.829357	0.079603	0.079197	270.573	41676.8	0.074734	0.183876	1471.5	88798.3
301	2.000000	1.832719	7.36802e+06	-53689.1	955.819	-29745.2	0.000000	0.000000	7.844948	292.922	NaN	0.000000	0.001666	0.001652	28.078	78.9895	0.001713	46103.4	1.812053	176.374	291.307	1.832333	0.082559	0.082173	292.922	46103.4	0.077794	0.197229	1485.19	94846.5
301	2.000000	1.835792	7.36802e+06	-53689.1	955.82	-29745.2	0.000000	0.000000	7.848778	311.313	NaN	0.000000	0.001726	0.001667	28.0779	81.7748	0.001836	44547.5	2.818198	175.757	312.482	1.835429	0.085632	0.085269	311.313	44547.5	0.080391	0.208906	1490.2	89047.4
301	2.000000	1.838684	7.36802e+06	-53689.1	955.82	-29745.2	0.000000	0.000000	7.852489	331.234	NaN	0.000000	0.001760	0.001649	28.0777	83.1848	0.001739	47842	1.987252	176.003	325.227	1.838316	0.088524	0.088156	331.234	47842	0.083331	0.222505	1488.66	92664.4
301	2.000000	1.841674	7.36802e+06	-53689.1	955.82	-29745.2	0.000000	0.000000	7.856444	354.688	NaN	0.000000	0.001753	0.001676	28.0779	87.0419	0.001769	49200.8	6.258966	171.293	351.705	1.841313	0.091514	0.091153	354.688	49200.8	0.086107	0.235711	1504.76	92588.3
301	2.000000	1.844694	7.36802e+06	-53689.1	955.821	-29745.2	0.000000	0.000000	7.860067	369.355	NaN	0.000000	0.001731	0.001678	28.0776	88.3702	0.001748	50569.3	0.952250	176.409	366.237	1.844365	0.094534	0.094205	369.355	50569.3	0.089056	0.250128	1476.66	92380.3
301	2.000000	1.847792	7.36802e+06	-53689.1	955.821	-29745.2	0.000000	0.000000	7.864159	393.529	NaN	0.000000	0.001717	0.001695	28.0778	91.5113	0.001678	54541.4	6.603496	170.565	395.666	1.847347	0.097631	0.097187	393.529	54541.4	0.092220	0.266044	1479.19	96610.1
301	2.000000	1.850709	7.36802e+06	-53689.1	955.821	-29745.2	0.000000	0.000000	7.868178	420.293	NaN	0.000000	0.001745	0.001675	28.0777	94.6552	0.001821	51978.1	1.940621	175.274	416.82	1.850279	0.100549	0.100119	420.293	51978.1	0.094485	0.277716	1513.39	90114.2
301	2.000000	1.853637	7.36802e+06	-53689.1	955.821	-29745.2	0.000000	0.000000	7.872012	442.343	NaN	0.000000	0.001740	0.001661	28.0776	98.0869	0.001655	59255.7	4.253947	171.503	436.126	1.853256	0.103477	0.103096	442.343	59255.7	0.097878	0.295643	1496.21	99568
301	2.000000	1.856599	7.36802e+06	-53689.1	955.821	-29745.2	0.000000	0.000000	7.875848	463.596	NaN	0.000000	0.001741	0.001664	28.0777	102.613	0.001818	56447.7	4.931411	171.702	457.372	1.856411	0.106439	0.106251	463.596	56447.7	0.100279	0.308643	1502.05	92830.7
301	2.000000	1.857175	7.36802e+06	-53689.1	955.821	-29745.2	0.000000	0.000000	7.876740	471.273	NaN	0.000000	0.001738	0.001648	28.0776	102.958	0.001875	54907.6	5.390472	-8.119069	467.167	1.856714	0.107015	0.106554	471.273	54907.6	0.100578	0.310280	1518.87	90059.4