File: remote_trans/data/nanoindenter/0828-1/data/Data_2025-08-06,11h17m57s/2025-07-22_16-23-58_1_1036.txt
2025-07-22, 16:23:58, 1
Index	Phase	Displacement	Time	Pos X	Pos Y	Pos Z	Rot A	Rot B	Piezo Z	Force A	Force B	Gripper	Voltage A	Voltage B	Temperature	Amplitude force	Amplitude pos	Stiffness	Phase shift	Phase excitation	Force A raw	Displacement raw	HMax	HMax raw	Real Force	Real Stiffness	Contact Depth	Area	Hardness	Reduced Mod.
[#]	[#]	[um]	[s]	[um]	[um]	[um]	[m°]	[m°]	[um]	[uN]	[uN]	[V]	[V]	[V]	[°C]	[uN]	[um]	[N/m]	[°]	[°]	[uN]	[um]	[um]	[um]	[uN]	[N/m]	[um]	[um^2]	[MPa]	[MPa]
1036	1.000000	0.002533	7.37518e+06	-51939.1	1055.82	-29750.6	0.000000	0.000000	6.002803	-0.005446	NaN	0.000000	0.001586	0.001774	28.0828	0.010517	0.000992	10.5973	165.049	-162.217	0.047830	0.001260	-1.088591	-1.089864	-0.005446	10.5973	-1.088206	-3.481104E+14	1.564387E-17	NaN
1036	1.000000	0.012607	7.37518e+06	-51939.1	1055.82	-29750.6	0.000000	0.000000	6.012875	-0.035499	NaN	0.000000	0.001594	0.001758	28.0829	0.014373	0.001230	11.6827	-174.474	13.7493	-0.011917	0.011143	-1.078517	-1.079981	-0.035499	11.6827	-1.076239	-2.404341E+14	1.476442E-16	NaN
1036	1.000000	0.022473	7.37518e+06	-51939.1	1055.82	-29750.6	0.000000	0.000000	6.022745	0.044782	NaN	0.000000	0.001565	0.001722	28.0831	0.060899	0.001664	36.598	166.91	-166.217	-0.029291	0.021151	-1.068651	-1.069973	0.044782	36.598	-1.069569	-1.956118E+14	-2.289330E-16	NaN
1036	1.000000	0.032477	7.37518e+06	-51939.1	1055.82	-29750.6	0.000000	0.000000	6.032749	0.050045	NaN	0.000000	0.001549	0.001697	28.083	0.114859	0.001891	60.7337	-147.995	12.6783	0.103741	0.031152	-1.058647	-1.059972	0.050045	60.7337	-1.059265	-1.422150E+14	-3.518978E-16	NaN
1036	1.000000	0.042458	7.37518e+06	-51939.1	1055.82	-29750.6	0.000000	0.000000	6.042730	0.039257	NaN	0.000000	0.001603	0.001719	28.0828	0.092527	0.002005	46.1529	103.318	-164.537	-0.001739	0.041141	-1.048666	-1.049983	0.039257	46.1529	-1.049304	-1.044864E+14	-3.757144E-16	NaN
1036	1.000000	0.052483	7.37518e+06	-51939.1	1055.82	-29750.6	0.000000	0.000000	6.052752	-0.022952	NaN	0.000000	0.001573	0.001684	28.0818	0.044886	0.002009	22.3427	148.873	18.3382	-0.052905	0.051117	-1.038641	-1.040007	-0.022952	22.3427	-1.037870	-7.333837E+13	3.129615E-16	NaN
1036	1.000000	0.062447	7.37518e+06	-51939.1	1055.82	-29750.6	0.000000	0.000000	6.062719	0.030451	NaN	0.000000	0.001559	0.001646	28.0817	0.079177	0.002078	38.1116	-150.549	-166.182	0.061945	0.061166	-1.028677	-1.029958	0.030451	38.1116	-1.029276	-5.620062E+13	-5.418271E-16	NaN
1036	1.000000	0.072484	7.37518e+06	-51939.1	1055.82	-29750.6	0.000000	0.000000	6.072753	-0.031750	NaN	0.000000	0.001590	0.001678	28.0814	0.040543	0.002010	20.1702	-30.9354	13.8431	-0.045434	0.071087	-1.018640	-1.020037	-0.031750	20.1702	-1.017460	-3.897370E+13	8.146397E-16	NaN
1036	1.000000	0.082471	7.37518e+06	-51939.1	1055.82	-29750.6	0.000000	0.000000	6.082739	-0.073435	NaN	0.000000	0.001563	0.001666	28.0812	0.057407	0.002104	27.2802	60.5205	-163.094	-0.092341	0.081167	-1.008653	-1.009957	-0.073435	27.2802	-1.006634	-2.786587E+13	2.635301E-15	NaN
1036	1.000000	0.092507	7.37518e+06	-51939.1	1055.82	-29750.6	0.000000	0.000000	6.092775	-0.038677	NaN	0.000000	0.001662	0.001656	28.0819	0.045461	0.002062	22.051	-10.4834	12.4184	0.063860	0.091159	-0.998617	-0.999965	-0.038677	22.051	-0.997302	-2.086604E+13	1.853595E-15	NaN
1036	1.000000	0.102469	7.37518e+06	-51939.1	1055.82	-29750.6	0.000000	0.000000	6.102741	0.054787	NaN	0.000000	0.001630	0.001664	28.0816	0.120945	0.002010	60.179	162.227	-166.73	0.056905	0.101194	-0.988655	-0.989930	0.054787	60.179	-0.989338	-1.630036E+13	-3.361107E-15	NaN
1036	1.000000	0.112488	7.37518e+06	-51939.1	1055.82	-29750.6	0.000000	0.000000	6.112757	-0.022420	NaN	0.000000	0.001659	0.001695	28.0816	0.078389	0.001962	39.9635	-145.493	16.6596	-0.009316	0.111122	-0.978636	-0.980002	-0.022420	39.9635	-0.978216	-1.154439E+13	1.942055E-15	NaN
1036	1.000000	0.122493	7.37518e+06	-51939.1	1055.82	-29750.6	0.000000	0.000000	6.122761	-0.046985	NaN	0.000000	0.001666	0.001668	28.0823	0.041496	0.001974	21.0249	-152.466	-161.803	0.003345	0.121161	-0.968631	-0.969963	-0.046985	21.0249	-0.966955	-8.140024E+12	5.772076E-15	NaN
1036	1.000000	0.132518	7.37518e+06	-51939.1	1055.82	-29750.6	0.000000	0.000000	6.132787	-0.027890	NaN	0.000000	0.001593	0.001715	28.0817	0.128745	0.002018	63.7855	-161.339	14.1917	0.007563	0.131106	-0.958606	-0.960018	-0.027890	63.7855	-0.958278	-6.218067E+12	4.485290E-15	NaN
1036	1.000000	0.142512	7.37518e+06	-51939.1	1055.82	-29750.6	0.000000	0.000000	6.142783	0.032721	NaN	0.000000	0.001567	0.001706	28.0817	0.070082	0.001923	36.4384	58.8552	-164.706	0.145409	0.141196	-0.948612	-0.949929	0.032721	36.4384	-0.949286	-4.703219E+12	-6.957088E-15	NaN
1036	1.000000	0.152523	7.37518e+06	-51939.1	1055.82	-29750.6	0.000000	0.000000	6.152796	0.062146	NaN	0.000000	0.001571	0.001701	28.0816	0.102120	0.001918	53.2445	-83.8315	11.9137	0.083235	0.151133	-0.938601	-0.939991	0.062146	53.2445	-0.939476	-3.467957E+12	-1.792020E-14	NaN
1036	1.000000	0.162517	7.37518e+06	-51939.1	1055.82	-29750.6	0.000000	0.000000	6.162786	-0.037996	NaN	0.000000	0.001630	0.001693	28.0819	0.012151	0.001999	6.078453	-17.0876	-165.223	-0.017180	0.161209	-0.928607	-0.929915	-0.037996	6.078453	-0.923919	-2.138522E+12	1.776734E-14	NaN
1036	1.000000	0.172534	7.37518e+06	-51939.1	1055.82	-29750.6	0.000000	0.000000	6.172803	-0.038014	NaN	0.000000	0.001575	0.001702	28.0818	0.094187	0.002069	45.5211	-63.007	14.2914	-0.058921	0.171154	-0.918590	-0.919970	-0.038014	45.5211	-0.917964	-1.777098E+12	2.139108E-14	NaN
1036	1.000000	0.182540	7.37518e+06	-51939.1	1055.82	-29750.6	0.000000	0.000000	6.182808	-0.047243	NaN	0.000000	0.001575	0.001686	28.082	0.103900	0.002155	48.2165	-167.93	-165.946	0.012305	0.181254	-0.908584	-0.909870	-0.047243	48.2165	-0.907849	-1.297508E+12	3.641074E-14	NaN
1036	1.000000	0.192546	7.37518e+06	-51939.1	1055.82	-29750.6	0.000000	0.000000	6.192816	-0.000585	NaN	0.000000	0.001620	0.001691	28.0828	0.060727	0.002114	28.7291	-44.3596	17.3334	0.093406	0.191180	-0.898579	-0.899945	-0.000585	28.7291	-0.898563	-9.719684E+11	6.019291E-16	NaN
1036	1.000000	0.202542	7.37518e+06	-51939.1	1055.82	-29750.6	0.000000	0.000000	6.202812	0.011712	NaN	0.000000	0.001627	0.001707	28.0833	0.099776	0.001959	50.9323	-6.702340	-162.349	0.053324	0.201206	-0.888582	-0.889918	0.011712	50.9323	-0.888755	-7.162797E+11	-1.635158E-14	NaN
1036	1.000000	0.212529	7.37518e+06	-51939.1	1055.82	-29750.6	0.000000	0.000000	6.212799	-0.010778	NaN	0.000000	0.001617	0.001678	28.0827	0.069810	0.001949	35.8107	-38.3689	16.4608	0.003740	0.211213	-0.878595	-0.879911	-0.010778	35.8107	-0.878369	-5.183843E+11	2.079211E-14	NaN
1036	1.000000	0.222529	7.37518e+06	-51939.1	1055.82	-29750.6	0.000000	0.000000	6.222802	0.074351	NaN	0.000000	0.001562	0.001685	28.0829	0.038280	0.001871	20.4548	-63.9681	-165.508	0.122221	0.221193	-0.868595	-0.869932	0.074351	20.4548	-0.871321	-4.162188E+11	-1.786332E-13	NaN
1036	1.000000	0.232568	7.37518e+06	-51939.1	1055.82	-29750.6	0.000000	0.000000	6.232839	0.025334	NaN	0.000000	0.001529	0.001728	28.0827	0.016163	0.001879	8.600976	66.0984	14.0121	0.104705	0.231252	-0.858556	-0.859872	0.025334	8.600976	-0.860765	-2.995571E+11	-8.457253E-14	NaN
1036	1.000000	0.242550	7.37518e+06	-51939.1	1055.82	-29750.6	0.000000	0.000000	6.242820	0.006333	NaN	0.000000	0.001570	0.001717	28.0832	0.084805	0.001961	43.2436	-3.728211	-164.799	0.046960	0.241259	-0.848574	-0.849865	0.006333	43.2436	-0.848684	-2.055490E+11	-3.080987E-14	NaN
1036	1.000000	0.252599	7.37518e+06	-51939.1	1055.82	-29750.6	0.000000	0.000000	6.252870	0.018211	NaN	0.000000	0.001565	0.001731	28.0828	0.007956	0.002074	3.835431	152.462	15.6651	-0.036628	0.251190	-0.838525	-0.839934	0.018211	3.835431	-0.842086	-1.673200E+11	-1.088376E-13	NaN
1036	1.000000	0.262553	7.37518e+06	-51939.1	1055.82	-29750.6	0.000000	0.000000	6.262823	0.013929	NaN	0.000000	0.001586	0.001718	28.083	0.039511	0.001961	20.1441	117.563	-164.833	-0.011287	0.261285	-0.828571	-0.829840	0.013929	20.1441	-0.829090	-1.115446E+11	-1.248726E-13	NaN
1036	1.000000	0.272590	7.37518e+06	-51939.1	1055.82	-29750.6	0.000000	0.000000	6.272860	-0.011276	NaN	0.000000	0.001577	0.001730	28.0828	0.061296	0.002218	27.6334	-76.264	15.7609	-0.020426	0.271244	-0.818534	-0.819880	-0.011276	27.6334	-0.818228	-7.946566E+10	1.418948E-13	NaN
1036	1.000000	0.282589	7.37518e+06	-51939.1	1055.82	-29750.6	0.000000	0.000000	6.282859	-0.003721	NaN	0.000000	0.001570	0.001717	28.0875	0.106511	0.001932	55.1301	-37.1513	-164.872	-0.018054	0.281200	-0.808535	-0.809924	-0.003721	55.1301	-0.808485	-5.861508E+10	6.348715E-14	NaN
1036	1.000000	0.292553	7.37518e+06	-51939.1	1055.82	-29750.6	0.000000	0.000000	6.292823	-0.000242	NaN	0.000000	0.001568	0.001731	28.0839	0.039546	0.001993	19.8401	96.6804	15.4414	0.004543	0.291192	-0.798571	-0.799932	-0.000242	19.8401	-0.798562	-4.298788E+10	5.625720E-15	NaN
1036	1.000000	0.302591	7.37518e+06	-51939.1	1055.82	-29750.6	0.000000	0.000000	6.302860	-0.017363	NaN	0.000000	0.001550	0.001737	28.0834	0.071864	0.001971	36.4551	98.5931	-165.232	-0.033276	0.301214	-0.788533	-0.789911	-0.017363	36.4551	-0.788176	-3.106786E+10	5.588743E-13	NaN
1036	1.000000	0.312569	7.37518e+06	-51939.1	1055.82	-29750.6	0.000000	0.000000	6.312838	-0.010108	NaN	0.000000	0.001602	0.001694	28.0827	0.025559	0.002047	12.4844	101.495	15.7725	-0.061170	0.311236	-0.778555	-0.779888	-0.010108	12.4844	-0.777948	-2.256045E+10	4.480266E-13	NaN
1036	1.000000	0.322587	7.37518e+06	-51939.1	1055.82	-29750.6	0.000000	0.000000	6.322861	0.090009	NaN	0.000000	0.001555	0.001758	28.0818	0.068863	0.001876	36.7012	117.173	-164.481	0.111059	0.321271	-0.768537	-0.769853	0.090009	36.7012	-0.770377	-1.780019E+10	-5.056604E-12	NaN
1036	1.000000	0.332560	7.37518e+06	-51939.1	1055.82	-29750.6	0.000000	0.000000	6.332831	0.007704	NaN	0.000000	0.001556	0.001701	28.0814	0.050711	0.001999	25.3728	-136.189	12.9058	0.014145	0.331223	-0.758564	-0.759901	0.007704	25.3728	-0.758791	-1.238399E+10	-6.220895E-13	NaN
1036	1.000000	0.342609	7.37518e+06	-51939.1	1055.82	-29750.6	0.000000	0.000000	6.342879	7.418588E-5	NaN	0.000000	0.001605	0.001734	28.0816	0.068718	0.001960	35.0591	10.1606	-165.609	0.105803	0.341276	-0.748515	-0.749849	7.418588E-5	35.0591	-0.748517	-8.974946E+9	-8.265887E-15	NaN
1036	1.000000	0.352587	7.37518e+06	-51939.1	1055.82	-29750.6	0.000000	0.000000	6.352854	-0.055261	NaN	0.000000	0.001581	0.001729	28.0815	0.046739	0.002040	22.9119	-85.8917	11.0576	-0.075298	0.351241	-0.738537	-0.739883	-0.055261	22.9119	-0.736729	-6.201438E+9	8.911025E-12	NaN
1036	1.000000	0.362578	7.37518e+06	-51939.1	1055.82	-29750.6	0.000000	0.000000	6.362846	-0.045774	NaN	0.000000	0.001600	0.001774	28.0816	0.019505	0.001938	10.0632	-88.193	-168.338	-0.023275	0.361271	-0.728546	-0.729853	-0.045774	10.0632	-0.725135	-4.310110E+9	1.062017E-11	NaN
1036	1.000000	0.372612	7.37518e+06	-51939.1	1055.82	-29750.6	0.000000	0.000000	6.372881	-0.023702	NaN	0.000000	0.001596	0.001783	28.0816	0.045886	0.001986	23.0997	90.4869	12.4336	-0.026538	0.371245	-0.718512	-0.719879	-0.023702	23.0997	-0.717743	-3.417339E+9	6.935784E-12	NaN
1036	1.000000	0.382613	7.37518e+06	-51939.1	1055.82	-29750.6	0.000000	0.000000	6.382883	-0.009039	NaN	0.000000	0.001604	0.001705	28.0816	0.056918	0.002143	26.5542	20.4862	-165.408	0.001063	0.381359	-0.708511	-0.709765	-0.009039	26.5542	-0.708256	-2.536530E+9	3.563558E-12	NaN
1036	1.000000	0.392613	7.37518e+06	-51939.1	1055.82	-29750.6	0.000000	0.000000	6.392882	-0.017411	NaN	0.000000	0.001584	0.001688	28.0819	0.061231	0.002110	29.0234	176.508	14.7794	0.007740	0.391241	-0.698511	-0.699883	-0.017411	29.0234	-0.698061	-1.841000E+9	9.457568E-12	NaN
1036	1.000000	0.402644	7.37518e+06	-51939.1	1055.82	-29750.6	0.000000	0.000000	6.402911	-0.063376	NaN	0.000000	0.001576	0.001699	28.0819	0.077618	0.001912	40.5963	-147.525	-162.355	-0.043173	0.401342	-0.688480	-0.689782	-0.063376	40.5963	-0.687309	-1.312631E+9	4.828199E-11	NaN
1036	1.000000	0.412627	7.37518e+06	-51939.1	1055.82	-29750.6	0.000000	0.000000	6.412897	0.009821	NaN	0.000000	0.001549	0.001680	28.082	0.090419	0.002022	44.7073	162.849	14.4765	-0.032849	0.411235	-0.678497	-0.679889	0.009821	44.7073	-0.678662	-9.997891E+8	-9.823037E-12	NaN
1036	1.000000	0.422660	7.37518e+06	-51939.1	1055.82	-29750.6	0.000000	0.000000	6.422934	0.095904	NaN	0.000000	0.001585	0.001729	28.0816	0.167865	0.002076	80.8529	172.865	-165.928	0.049689	0.421359	-0.668464	-0.669765	0.095904	80.8529	-0.669354	-7.456629E+8	-1.286163E-10	NaN
1036	1.000000	0.432614	7.37518e+06	-51939.1	1055.82	-29750.6	0.000000	0.000000	6.432883	-0.006453	NaN	0.000000	0.001569	0.001703	28.0816	0.099487	0.002095	47.4779	99.8438	13.4965	0.056403	0.431242	-0.658511	-0.659882	-0.006453	47.4779	-0.658409	-5.280436E+8	1.222062E-11	NaN
1036	1.000000	0.442609	7.37518e+06	-51939.1	1055.82	-29750.6	0.000000	0.000000	6.442880	0.012024	NaN	0.000000	0.001614	0.001704	28.0814	0.070132	0.001893	37.0462	104.912	-163.022	0.004180	0.441359	-0.648515	-0.649765	0.012024	37.0462	-0.648758	-3.894131E+8	-3.087687E-11	NaN
1036	1.000000	0.452664	7.37518e+06	-51939.1	1055.82	-29750.6	0.000000	0.000000	6.452933	-0.016161	NaN	0.000000	0.001590	0.001725	28.0817	0.120677	0.001891	63.8285	-103.9	11.5493	-0.058345	0.451226	-0.638460	-0.639898	-0.016161	63.8285	-0.638270	-2.796131E+8	5.779737E-11	NaN
1036	1.000000	0.462650	7.37518e+06	-51939.1	1055.82	-29750.6	0.000000	0.000000	6.462921	0.032920	NaN	0.000000	0.001604	0.001726	28.083	0.072176	0.001967	36.6883	113.766	-167.044	0.013806	0.461370	-0.628474	-0.629754	0.032920	36.6883	-0.629147	-2.095631E+8	-1.570879E-10	NaN
1036	1.000000	0.472649	7.37518e+06	-51939.1	1055.82	-29750.6	0.000000	0.000000	6.472921	0.042261	NaN	0.000000	0.001602	0.001728	28.083	0.087098	0.001807	48.1902	-116.835	13.5099	-0.116443	0.471300	-0.618475	-0.619824	0.042261	48.1902	-0.619133	-1.526548E+8	-2.768412E-10	NaN
1036	1.000000	0.482663	7.37518e+06	-51939.1	1055.82	-29750.6	0.000000	0.000000	6.482933	0.007134	NaN	0.000000	0.001569	0.001727	28.0831	0.095983	0.002084	46.0529	-126.581	-164.746	-0.037734	0.481355	-0.608461	-0.609769	0.007134	46.0529	-0.608578	-1.092806E+8	-6.527909E-11	NaN
1036	1.000000	0.492681	7.37518e+06	-51939.1	1055.82	-29750.6	0.000000	0.000000	6.492951	-0.013731	NaN	0.000000	0.001571	0.001698	28.0831	0.012574	0.002019	6.228682	-91.5195	15.0698	-0.058291	0.491311	-0.598443	-0.599814	-0.013731	6.228682	-0.596789	-7.520320E+7	1.825911E-10	NaN
1036	1.000000	0.502700	7.37518e+06	-51939.1	1055.82	-29750.6	0.000000	0.000000	6.502971	0.013818	NaN	0.000000	0.001608	0.001737	28.0831	0.005150	0.002070	2.487906	23.1892	-163.685	0.009959	0.501364	-0.588424	-0.589760	0.013818	2.487906	-0.592589	-6.582011E+7	-2.099370E-10	NaN
1036	1.000000	0.512664	7.37518e+06	-51939.1	1055.82	-29750.6	0.000000	0.000000	6.512935	0.024653	NaN	0.000000	0.001602	0.001763	28.0829	0.057451	0.002006	28.6456	-178.746	16.1893	0.013528	0.511325	-0.578460	-0.579799	0.024653	28.6456	-0.579106	-4.289286E+7	-5.747491E-10	NaN
1036	1.000000	0.522694	7.37518e+06	-51939.1	1055.82	-29750.6	0.000000	0.000000	6.522964	-0.004262	NaN	0.000000	0.001571	0.001739	28.083	0.021137	0.002057	10.2761	-96.6091	-167.109	0.089015	0.521365	-0.568430	-0.569759	-0.004262	10.2761	-0.568119	-3.024379E+7	1.409079E-10	NaN
1036	1.000000	0.532661	7.37518e+06	-51939.1	1055.82	-29750.6	0.000000	0.000000	6.532932	0.035274	NaN	0.000000	0.001573	0.001737	28.0831	0.076247	0.001977	38.5647	-156.009	13.0196	0.015364	0.531341	-0.558463	-0.559783	0.035274	38.5647	-0.559149	-2.273044E+7	-1.551829E-9	NaN
1036	1.000000	0.542685	7.37518e+06	-51939.1	1055.82	-29750.6	0.000000	0.000000	6.542954	-0.016600	NaN	0.000000	0.001574	0.001708	28.0831	0.069823	0.002014	34.6635	170.429	-161.094	-0.039421	0.541340	-0.548439	-0.549784	-0.016600	34.6635	-0.548080	-1.597196E+7	1.039335E-9	NaN
1036	1.000000	0.552682	7.37518e+06	-51939.1	1055.82	-29750.6	0.000000	0.000000	6.552950	-0.053927	NaN	0.000000	0.001564	0.001718	28.0831	0.140350	0.001924	72.9363	-98.2628	15.48	-0.024164	0.551305	-0.538442	-0.539819	-0.053927	72.9363	-0.537888	-1.153615E+7	4.674627E-9	NaN
1036	1.000000	0.562655	7.37518e+06	-51939.1	1055.82	-29750.6	0.000000	0.000000	6.562921	-0.089964	NaN	0.000000	0.001558	0.001727	28.0829	0.125607	0.002052	61.2193	170.077	-166.85	-0.061238	0.561431	-0.528470	-0.529693	-0.089964	61.2193	-0.527367	-8.24152e+06	1.091591E-8	NaN
1036	1.000000	0.572721	7.37518e+06	-51939.1	1055.82	-29750.6	0.000000	0.000000	6.572991	-0.014229	NaN	0.000000	0.001608	0.001772	28.0832	0.044715	0.001983	22.554	-143.663	12.6254	-0.048879	0.571337	-0.518403	-0.519787	-0.014229	22.554	-0.517930	-6.09256e+06	2.335452E-9	NaN
1036	1.000000	0.582693	7.37518e+06	-51939.1	1055.82	-29750.6	0.000000	0.000000	6.582963	0.000568	NaN	0.000000	0.001567	0.001762	28.0829	0.107829	0.001973	54.6407	-53.7612	-164.304	0.043208	0.581364	-0.508431	-0.509760	0.000568	54.6407	-0.508439	-4.49437e+06	-1.263147E-10	NaN
1036	1.000000	0.592680	7.37518e+06	-51939.1	1055.82	-29750.6	0.000000	0.000000	6.592950	0.009663	NaN	0.000000	0.001574	0.001746	28.0828	0.052716	0.002021	26.0866	58.446	18.428	-0.099183	0.591358	-0.498444	-0.499767	0.009663	26.0866	-0.498722	-3.28995e+06	-2.937105E-9	NaN
1036	1.000000	0.602703	7.37518e+06	-51939.1	1055.82	-29750.6	0.000000	0.000000	6.602972	-0.029445	NaN	0.000000	0.001541	0.001783	28.0816	0.026993	0.002115	12.7636	-164.21	-165.802	-0.028336	0.601363	-0.488421	-0.489761	-0.029445	12.7636	-0.486690	-2.23425e+06	1.317911E-8	NaN
1036	1.000000	0.612711	7.37518e+06	-51939.1	1055.82	-29750.6	0.000000	0.000000	6.612983	0.030078	NaN	0.000000	0.001546	0.001793	28.0821	0.079099	0.001977	40.0189	105.147	13.4769	-0.023015	0.611350	-0.478413	-0.479774	0.030078	40.0189	-0.478976	-1.7426e+06	-1.726028E-8	NaN
1036	1.000000	0.622711	7.37518e+06	-51939.1	1055.82	-29750.6	0.000000	0.000000	6.622982	0.008733	NaN	0.000000	0.001536	0.001767	28.0817	0.054599	0.001965	27.7846	-171.507	-165.551	-0.012936	0.621437	-0.468413	-0.469687	0.008733	27.7846	-0.468649	-1.24869e+06	-6.993695E-9	NaN
1036	1.000000	0.632700	7.37518e+06	-51939.1	1055.82	-29750.6	0.000000	0.000000	6.632970	0.010976	NaN	0.000000	0.001542	0.001703	28.0817	0.035119	0.002117	16.5863	25.3836	15.7889	-0.102128	0.631371	-0.458424	-0.459753	0.010976	16.5863	-0.458921	-911696	-1.203882E-8	NaN
1036	1.000000	0.642728	7.37518e+06	-51939.1	1055.82	-29750.6	0.000000	0.000000	6.642999	0.024780	NaN	0.000000	0.001566	0.001789	28.0816	0.056117	0.001964	28.5699	60.3665	-167.143	0.012314	0.641430	-0.448396	-0.449694	0.024780	28.5699	-0.449046	-662079	-3.742716E-8	NaN
1036	1.000000	0.652711	7.37518e+06	-51939.1	1055.82	-29750.6	0.000000	0.000000	6.652981	0.001136	NaN	0.000000	0.001599	0.001751	28.0815	0.111334	0.001897	58.6774	143.669	12.3201	-0.037530	0.651374	-0.438413	-0.439750	0.001136	58.6774	-0.438428	-469000	-2.423096E-9	NaN
1036	1.000000	0.662741	7.37518e+06	-51939.1	1055.82	-29750.6	0.000000	0.000000	6.663010	-0.021349	NaN	0.000000	0.001612	0.001750	28.0817	0.098528	0.002116	46.5585	-80.4822	-165.154	0.020892	0.661442	-0.428383	-0.429682	-0.021349	46.5585	-0.428040	-334441	6.383533E-8	NaN
1036	1.000000	0.672736	7.37518e+06	-51939.1	1055.82	-29750.6	0.000000	0.000000	6.673004	-0.042335	NaN	0.000000	0.001605	0.001749	28.0814	0.039944	0.001903	20.9933	21.9357	16.9291	-0.040031	0.671417	-0.418388	-0.419708	-0.042335	20.9933	-0.416876	-232320	1.822255E-7	NaN
1036	1.000000	0.682751	7.37518e+06	-51939.1	1055.82	-29750.6	0.000000	0.000000	6.683022	0.014683	NaN	0.000000	0.001609	0.001750	28.0819	0.023957	0.002051	11.683	99.6911	-168.832	0.007461	0.681436	-0.408373	-0.409688	0.014683	11.683	-0.409316	-181413	-8.093868E-8	NaN
1036	1.000000	0.692727	7.37518e+06	-51939.1	1055.82	-29750.6	0.000000	0.000000	6.692996	-0.019836	NaN	0.000000	0.001602	0.001774	28.0815	0.144767	0.001961	73.8096	14.9116	20.4758	0.046692	0.691393	-0.398397	-0.399731	-0.019836	73.8096	-0.398195	-125966	1.574689E-7	NaN
1036	1.000000	0.702734	7.37518e+06	-51939.1	1055.82	-29750.6	0.000000	0.000000	6.703006	0.046325	NaN	0.000000	0.001569	0.001747	28.0817	0.024386	0.002075	11.7509	-13.1503	-162.116	-0.053159	0.701479	-0.388390	-0.389645	0.046325	11.7509	-0.391347	-100560	-4.606661E-7	NaN
1036	1.000000	0.712736	7.37518e+06	-51939.1	1055.82	-29750.6	0.000000	0.000000	6.713005	-0.033006	NaN	0.000000	0.001578	0.001740	28.0814	0.055872	0.002038	27.4144	8.233576	17.7616	-0.015583	0.711447	-0.378388	-0.379677	-0.033006	27.4144	-0.377485	-63647	5.185721E-7	NaN
1036	1.000000	0.722761	7.37518e+06	-51939.1	1055.82	-29750.6	0.000000	0.000000	6.723032	0.023542	NaN	0.000000	0.001612	0.001758	28.0819	0.029077	0.001980	14.6829	-71.7749	-166.345	0.095028	0.721449	-0.368363	-0.369675	0.023542	14.6829	-0.369566	-48963.4	-4.808083E-7	NaN
1036	1.000000	0.732783	7.37518e+06	-51939.1	1055.82	-29750.6	0.000000	0.000000	6.733053	-0.014739	NaN	0.000000	0.001588	0.001804	28.0827	0.025989	0.001935	13.4322	162.656	13.6328	-0.016436	0.731363	-0.358341	-0.359761	-0.014739	13.4322	-0.357518	-32805.6	4.492965E-7	NaN
1036	1.000000	0.742767	7.37518e+06	-51939.1	1055.82	-29750.6	0.000000	0.000000	6.743037	-0.015241	NaN	0.000000	0.001622	0.001780	28.0827	0.090007	0.002041	44.1011	-134.62	-166.47	0.028544	0.741468	-0.348357	-0.349656	-0.015241	44.1011	-0.348098	-23954.1	6.362629E-7	NaN
1036	1.000000	0.752755	7.37518e+06	-51939.1	1055.82	-29750.6	0.000000	0.000000	6.753026	0.008474	NaN	0.000000	0.001647	0.001747	28.0831	0.135488	0.001934	70.0724	-6.532526	13.16	-0.066198	0.751435	-0.338369	-0.339689	0.008474	70.0724	-0.338459	-17341.6	-4.886325E-7	NaN
1036	1.000000	0.762762	7.37518e+06	-51939.1	1055.82	-29750.6	0.000000	0.000000	6.763030	-0.047222	NaN	0.000000	0.001628	0.001769	28.0829	0.084628	0.002076	40.7691	126.895	-165.396	0.039345	0.761450	-0.328362	-0.329674	-0.047222	40.7691	-0.327493	-11987.3	3.939327E-6	NaN
1036	1.000000	0.772744	7.37518e+06	-51939.1	1055.82	-29750.6	0.000000	0.000000	6.773015	0.034699	NaN	0.000000	0.001585	0.001747	28.0828	0.028143	0.002024	13.9037	166.566	12.6226	-0.045976	0.771429	-0.318380	-0.319695	0.034699	13.9037	-0.320252	-9383.18	-3.698001E-6	NaN
1036	1.000000	0.782772	7.37518e+06	-51939.1	1055.82	-29750.6	0.000000	0.000000	6.783039	-0.070870	NaN	0.000000	0.001597	0.001737	28.0828	0.096834	0.001919	50.4502	-137.606	-167.124	-0.034106	0.781507	-0.308352	-0.309617	-0.070870	50.4502	-0.307299	-6040.18	1.173305E-5	NaN
1036	1.000000	0.792800	7.37518e+06	-51939.1	1055.82	-29750.6	0.000000	0.000000	6.793071	0.029204	NaN	0.000000	0.001630	0.001752	28.083	0.038116	0.001940	19.6522	-165.484	17.1467	-0.077014	0.791434	-0.298324	-0.299691	0.029204	19.6522	-0.299439	-4616.19	-6.326535E-6	NaN
1036	1.000000	0.802783	7.37518e+06	-51939.1	1055.82	-29750.6	0.000000	0.000000	6.803052	-0.021604	NaN	0.000000	0.001598	0.001805	28.0829	0.053783	0.001974	27.2428	79.8828	-165.296	0.009841	0.801491	-0.288341	-0.289633	-0.021604	27.2428	-0.287747	-3086.85	6.998715E-6	NaN
1036	1.000000	0.812770	7.37518e+06	-51939.1	1055.82	-29750.6	0.000000	0.000000	6.813041	0.038069	NaN	0.000000	0.001583	0.001777	28.0831	0.052978	0.002059	25.727	113.238	14.7534	0.030101	0.811426	-0.278355	-0.279699	0.038069	25.727	-0.279464	-2316.79	-1.643159E-5	NaN
1036	1.000000	0.822803	7.37519e+06	-51939.1	1055.82	-29750.6	0.000000	0.000000	6.823074	0.013344	NaN	0.000000	0.001588	0.001751	28.0832	0.060777	0.002028	29.9641	91.8648	-166.096	-0.027307	0.821458	-0.268321	-0.269666	0.013344	29.9641	-0.268655	-1588.86	-8.398456E-6	NaN
1036	1.000000	0.832822	7.37519e+06	-51939.1	1055.82	-29750.6	0.000000	0.000000	6.833091	-0.015167	NaN	0.000000	0.001610	0.001773	28.0832	0.060564	0.001878	32.244	-134.746	14.455	-0.026372	0.831467	-0.258302	-0.259657	-0.015167	32.244	-0.257950	-1090.1	1.391387E-5	NaN
1036	1.000000	0.842806	7.37519e+06	-51939.1	1055.82	-29750.6	0.000000	0.000000	6.843077	0.017022	NaN	0.000000	0.001609	0.001779	28.0832	0.045655	0.001944	23.4878	-108.893	-165.738	0.041417	0.841497	-0.248318	-0.249627	0.017022	23.4878	-0.248861	-789.489	-2.156029E-5	NaN
1036	1.000000	0.852844	7.37519e+06	-51939.1	1055.82	-29750.6	0.000000	0.000000	6.853116	0.049599	NaN	0.000000	0.001543	0.001783	28.0829	0.045550	0.002072	21.98	-170.928	16.5418	0.092456	0.851450	-0.238280	-0.239674	0.049599	21.98	-0.239972	-574.272	-8.636826E-5	NaN
1036	1.000000	0.862836	7.37519e+06	-51939.1	1055.82	-29750.6	0.000000	0.000000	6.863106	0.011806	NaN	0.000000	0.001593	0.001791	28.0834	0.032889	0.002054	16.0095	-10.022	-164.679	-0.060485	0.861547	-0.228289	-0.229577	0.011806	16.0095	-0.228842	-383.896	-3.075383E-5	NaN
1036	1.000000	0.872803	7.37519e+06	-51939.1	1055.82	-29750.6	0.000000	0.000000	6.873073	0.015229	NaN	0.000000	0.001574	0.001768	28.0815	0.049731	0.001987	25.0234	-108.269	14.5889	-0.001371	0.871468	-0.218321	-0.219656	0.015229	25.0234	-0.218778	-265.54	-5.735060E-5	NaN
1036	1.000000	0.882836	7.37519e+06	-51939.1	1055.82	-29750.6	0.000000	0.000000	6.883106	-0.008762	NaN	0.000000	0.001547	0.001789	28.0819	0.117944	0.002008	58.7444	92.7984	-164.245	-0.020044	0.881509	-0.208288	-0.209615	-0.008762	58.7444	-0.208176	-179.163	4.890322E-5	NaN
1036	1.000000	0.892832	7.37519e+06	-51939.1	1055.82	-29750.6	0.000000	0.000000	6.893100	-0.046441	NaN	0.000000	0.001571	0.001734	28.0819	0.025147	0.002023	12.4331	12.341	16.6358	-0.038814	0.891454	-0.198292	-0.199670	-0.046441	12.4331	-0.195491	-111.002	0.000418	NaN
1036	1.000000	0.902837	7.37519e+06	-51939.1	1055.82	-29750.6	0.000000	0.000000	6.903107	0.003369	NaN	0.000000	0.001604	0.001766	28.0822	0.045668	0.002043	22.3517	-153.841	-165.155	0.009931	0.901520	-0.188287	-0.189604	0.003369	22.3517	-0.188400	-84.5797	-3.983269E-5	NaN
1036	1.000000	0.912828	7.37519e+06	-51939.1	1055.82	-29750.6	0.000000	0.000000	6.913099	0.036075	NaN	0.000000	0.001552	0.001702	28.082	0.079681	0.001863	42.7708	77.3987	18.3592	0.007686	0.911498	-0.178297	-0.179627	0.036075	42.7708	-0.178929	-58.5098	-0.000617	NaN
1036	1.000000	0.922844	7.37519e+06	-51939.1	1055.82	-29750.6	0.000000	0.000000	6.923113	-0.015415	NaN	0.000000	0.001557	0.001743	28.0821	0.120739	0.002063	58.5196	-55.6438	-161.136	-0.028993	0.921589	-0.168280	-0.169535	-0.015415	58.5196	-0.168083	-38.0405	0.000405	NaN
1036	1.000000	0.932821	7.37519e+06	-51939.1	1055.82	-29750.6	0.000000	0.000000	6.933092	0.039694	NaN	0.000000	0.001550	0.001698	28.082	0.136595	0.002130	64.1433	147.126	15.692	-0.011637	0.931467	-0.158304	-0.159657	0.039694	64.1433	-0.158768	-26.0649	-0.001523	NaN
1036	1.000000	0.942851	7.37519e+06	-51939.1	1055.82	-29750.6	0.000000	0.000000	6.943119	-0.043729	NaN	0.000000	0.001598	0.001731	28.082	0.029144	0.001944	14.9928	-70.0713	-167.507	-0.117335	0.941505	-0.148274	-0.149619	-0.043729	14.9928	-0.146086	-15.3542	0.002848	NaN
1036	1.000000	0.952857	7.37519e+06	-51939.1	1055.82	-29750.6	0.000000	0.000000	6.953125	-0.058658	NaN	0.000000	0.001570	0.001753	28.0821	0.048923	0.002110	23.1853	-165.421	13.6691	-0.102658	0.951492	-0.138267	-0.139632	-0.058658	23.1853	-0.136369	-10.1012	0.005807	NaN
1036	1.000000	0.962844	7.37519e+06	-51939.1	1055.82	-29750.6	0.000000	0.000000	6.963116	0.047653	NaN	0.000000	0.001572	0.001762	28.082	0.060330	0.001948	30.9652	2.315468	-165.817	0.044256	0.961589	-0.128280	-0.129535	0.047653	30.9652	-0.129434	-7.430335	-0.006413	NaN
1036	1.000000	0.972835	7.37519e+06	-51939.1	1055.82	-29750.6	0.000000	0.000000	6.973105	-0.002882	NaN	0.000000	0.001566	0.001700	28.0824	0.016204	0.001937	8.367539	-129.927	16.5456	0.078778	0.971516	-0.118289	-0.119608	-0.002882	8.367539	-0.118031	-4.407404	0.000654	NaN
1036	1.000000	0.982849	7.37519e+06	-51939.1	1055.82	-29750.6	0.000000	0.000000	6.983119	-0.011827	NaN	0.000000	0.001577	0.001736	28.0819	0.062515	0.001939	32.2415	-111.687	-163.445	-0.007041	0.981532	-0.108275	-0.109592	-0.011827	32.2415	-0.108000	-2.725812	0.004339	NaN
1036	1.000000	0.992863	7.37519e+06	-51939.1	1055.82	-29750.6	0.000000	0.000000	6.993134	0.022720	NaN	0.000000	0.001564	0.001739	28.0818	0.044602	0.002035	21.9214	45.972	16.4266	0.019340	0.991497	-0.098262	-0.099627	0.022720	21.9214	-0.099039	-1.739459	-0.013061	NaN
1036	1.000000	1.002870	7.37519e+06	-51939.1	1055.82	-29750.6	0.000000	0.000000	7.003141	0.007740	NaN	0.000000	0.001572	0.001742	28.0822	0.026095	0.001916	13.6173	-146.683	-164.508	0.024115	1.001534	-0.088254	-0.089590	0.007740	13.6173	-0.088680	-1.006299	-0.007692	NaN
1036	1.000000	1.012871	7.37519e+06	-51939.1	1055.82	-29750.6	0.000000	0.000000	7.013144	0.064136	NaN	0.000000	0.001554	0.001755	28.0832	0.078213	0.002010	38.9161	-158.325	12.5806	0.018402	1.011518	-0.078253	-0.079606	0.064136	38.9161	-0.079489	-0.601012	-0.106713	NaN
1036	1.000000	1.022858	7.37519e+06	-51939.1	1055.82	-29750.6	0.000000	0.000000	7.023130	0.044774	NaN	0.000000	0.001558	0.001738	28.083	0.083968	0.002047	41.0129	167.127	-165.185	-0.025732	1.021578	-0.068266	-0.069546	0.044774	41.0129	-0.069085	-0.322328	-0.138908	NaN
1036	1.000000	1.032879	7.37519e+06	-51939.1	1055.82	-29750.6	0.000000	0.000000	7.033148	-0.021820	NaN	0.000000	0.001566	0.001713	28.0829	0.140603	0.001930	72.8442	-155.431	13.6059	-0.024868	1.031503	-0.058245	-0.059621	-0.021820	72.8442	-0.058020	-0.157888	0.138200	NaN
1036	1.000000	1.042884	7.37519e+06	-51939.1	1055.82	-29750.6	0.000000	0.000000	7.043149	-0.112094	NaN	0.000000	0.001538	0.001742	28.083	0.085453	0.002070	41.2775	-73.6575	-164.658	-0.067745	1.041559	-0.048240	-0.049565	-0.112094	41.2775	-0.046204	-0.069949	1.602501	NaN
1036	1.000000	1.052914	7.37519e+06	-51939.1	1055.82	-29750.6	0.000000	0.000000	7.053181	-0.056896	NaN	0.000000	0.001560	0.001702	28.0831	0.019659	0.002107	9.332285	-30.9034	16.2956	-0.035609	1.051529	-0.038211	-0.039595	-0.056896	9.332285	-0.033638	-0.029216	1.947442	NaN
1036	1.000000	1.062906	7.37519e+06	-51939.1	1055.82	-29750.6	0.000000	0.000000	7.063175	-0.032410	NaN	0.000000	0.001594	0.001768	28.0831	0.026422	0.001999	13.2204	8.524182	-165.414	-0.025495	1.061622	-0.028218	-0.029502	-0.032410	13.2204	-0.026379	-0.018342	1.766959	NaN
1036	1.000000	1.072911	7.37519e+06	-51939.1	1055.82	-29750.6	0.000000	0.000000	7.073180	-0.021212	NaN	0.000000	0.001592	0.001748	28.0828	0.019298	0.002026	9.527114	165.215	18.3802	-0.024149	1.071575	-0.018213	-0.019549	-0.021212	9.527114	-0.016543	-0.010221	2.075363	NaN
1036	1.000000	1.082950	7.37519e+06	-51939.1	1055.82	-29750.6	0.000000	0.000000	7.083220	-0.003977	NaN	0.000000	0.001615	0.001749	28.0831	0.012398	0.001983	6.253085	25.7914	-164.738	0.047723	1.081587	-0.008174	-0.009537	-0.003977	6.253085	-0.007697	-0.005054	0.786975	NaN
1036	1.000000	1.092879	7.37519e+06	-51939.1	1055.82	-29750.6	0.000000	0.000000	7.093158	0.218781	NaN	0.000000	0.001620	0.001800	28.0829	0.509118	0.001974	257.885	10.5976	15.5074	0.037240	1.091524	0.001754	0.000399	0.218781	257.885	0.001118	0.000854	256.153	8062.05
1036	2.000000	1.101543	7.37519e+06	-51939.1	1055.82	-29750.6	0.000000	0.000000	7.102141	7.962794	NaN	0.000000	0.001600	0.001756	28.0828	7.993476	0.001575	5075.1	6.711001	-170.075	8.151315	1.101072	0.010419	0.009948	7.962794	5075.1	0.009243	0.008352	953.423	50737.3
1036	2.000000	1.104011	7.37519e+06	-51939.1	1055.82	-29750.6	0.000000	0.000000	7.104700	10.1932	NaN	0.000000	0.001559	0.001757	28.083	10.8904	0.001708	6374.34	6.083144	8.964860	9.811662	1.103678	0.012887	0.012554	10.1932	6374.34	0.011687	0.011118	916.849	55233.4
1036	2.000000	1.106515	7.37519e+06	-51939.1	1055.82	-29750.6	0.000000	0.000000	7.107294	12.3814	NaN	0.000000	0.001585	0.001797	28.0831	13.3065	0.001698	7836.17	7.745911	-175.152	12.3547	1.106223	0.015391	0.015099	12.3814	7836.17	0.014206	0.014241	869.413	59993.5
1036	2.000000	1.108993	7.37519e+06	-51939.1	1055.82	-29750.6	0.000000	0.000000	7.109882	15.0548	NaN	0.000000	0.001542	0.001724	28.0831	15.1529	0.001771	8558.36	8.751548	4.959226	14.2683	1.108688	0.017869	0.017564	15.0548	8558.36	0.016549	0.017407	864.87	59265.4
1036	2.000000	1.111440	7.37519e+06	-51939.1	1055.82	-29750.6	0.000000	0.000000	7.112486	18.8837	NaN	0.000000	0.001522	0.001742	28.0816	17.4765	0.001815	9630.41	8.363974	-177.055	17.4019	1.111172	0.020316	0.020048	18.8837	9630.41	0.018845	0.020760	909.628	61066.9
1036	2.000000	1.114027	7.37519e+06	-51939.1	1055.82	-29750.6	0.000000	0.000000	7.115184	21.5715	NaN	0.000000	0.001530	0.001737	28.0818	20.0077	0.001875	10670.2	10.3925	1.448679	22.3686	1.113636	0.022902	0.022512	21.5715	10670.2	0.021386	0.024767	870.962	61944.6
1036	2.000000	1.116469	7.37519e+06	-51939.1	1055.82	-29750.6	0.000000	0.000000	7.117928	28.9087	NaN	0.000000	0.001573	0.001739	28.0817	21.474	0.001737	12360.5	1.324322	-172.868	27.7778	1.116199	0.025345	0.025075	28.9087	12360.5	0.023591	0.028502	1014.26	66891.5
1036	2.000000	1.118961	7.37519e+06	-51939.1	1055.82	-29750.6	0.000000	0.000000	7.120424	28.9959	NaN	0.000000	0.001551	0.001745	28.0818	23.0597	0.001811	12736.1	3.330540	5.991385	27.2103	1.118626	0.027837	0.027502	28.9959	12736.1	0.026130	0.033103	875.938	63955.4
1036	2.000000	1.121445	7.37519e+06	-51939.1	1055.82	-29750.6	0.000000	0.000000	7.123111	33.9466	NaN	0.000000	0.001574	0.001748	28.0816	25.9751	0.001807	14375.7	6.851836	-179.415	32.8175	1.121126	0.030321	0.030002	33.9466	14375.7	0.028550	0.037791	898.26	67562.4
1036	2.000000	1.123920	7.37519e+06	-51939.1	1055.82	-29750.6	0.000000	0.000000	7.125821	39.6531	NaN	0.000000	0.001614	0.001705	28.0819	27.7815	0.001824	15228.5	2.877243	4.611808	37.925	1.123656	0.032796	0.032532	39.6531	15228.5	0.030843	0.042509	932.818	67482.6
1036	2.000000	1.126402	7.37519e+06	-51939.1	1055.82	-29750.6	0.000000	0.000000	7.128501	44.4659	NaN	0.000000	0.001616	0.001707	28.0818	30.6343	0.001847	16584.7	6.054494	-179.75	42.9525	1.126095	0.035278	0.034971	44.4659	16584.7	0.033267	0.047789	930.471	69313.8
1036	2.000000	1.128970	7.37519e+06	-51939.1	1055.82	-29750.6	0.000000	0.000000	7.131294	49.9562	NaN	0.000000	0.001630	0.001714	28.0816	32.29	0.001909	16914.8	3.327561	2.611664	48.6882	1.128635	0.037846	0.037510	49.9562	16914.8	0.035631	0.053224	938.598	66986.2
1036	2.000000	1.131433	7.37519e+06	-51939.1	1055.82	-29750.6	0.000000	0.000000	7.134042	56.866	NaN	0.000000	0.001640	0.001703	28.0816	35.2394	0.001824	19322.2	9.230830	175.339	55.6084	1.131119	0.040309	0.039995	56.866	19322.2	0.038102	0.059215	960.334	72546.3
1036	2.000000	1.133939	7.37519e+06	-51939.1	1055.82	-29750.6	0.000000	0.000000	7.136940	66.387	NaN	0.000000	0.001655	0.001728	28.0817	36.9132	0.001822	20258.8	10.0952	-6.806035	66.4693	1.133588	0.042815	0.042463	66.387	20258.8	0.040358	0.064956	1022.03	72623.5
1036	2.000000	1.136362	7.37519e+06	-51939.1	1055.82	-29750.6	0.000000	0.000000	7.139499	69.725	NaN	0.000000	0.001676	0.001703	28.0815	39.2035	0.001825	21483	4.461359	178.985	66.8729	1.136219	0.045237	0.045095	69.725	21483	0.042803	0.071473	975.538	73417
1036	2.000000	1.138889	7.37519e+06	-51939.1	1055.82	-29750.6	0.000000	0.000000	7.142525	81.8386	NaN	0.000000	0.001609	0.001708	28.0816	40.4285	0.001754	23045.8	3.868206	-0.107491	78.6755	1.138518	0.047765	0.047393	81.8386	23045.8	0.045102	0.077876	1050.88	75450.6
1036	2.000000	1.141452	7.37519e+06	-51939.1	1055.82	-29750.6	0.000000	0.000000	7.145504	91.96	NaN	0.000000	0.001594	0.001708	28.0819	43.7875	0.001765	24814.1	8.501744	173.029	93.2819	1.141097	0.050328	0.049973	91.96	24814.1	0.047549	0.084987	1082.05	77767
1036	2.000000	1.143923	7.37519e+06	-51939.1	1055.82	-29750.6	0.000000	0.000000	7.148181	96.9771	NaN	0.000000	0.001563	0.001733	28.0816	47.1201	0.001909	24682.3	5.581718	-3.094583	95.5299	1.143726	0.052799	0.052601	96.9771	24682.3	0.049852	0.091957	1054.6	74364.7
1036	2.000000	1.146422	7.37519e+06	-51939.1	1055.82	-29750.6	0.000000	0.000000	7.151345	113.145	NaN	0.000000	0.001633	0.001736	28.0829	48.669	0.001847	26350.8	3.591245	179.186	111.588	1.146173	0.055298	0.055049	113.145	26350.8	0.052077	0.098942	1143.54	76538
1036	2.000000	1.148948	7.37519e+06	-51939.1	1055.82	-29750.6	0.000000	0.000000	7.154455	127.317	NaN	0.000000	0.001623	0.001753	28.0828	50.4458	0.001827	27608.4	6.023093	-2.254481	129.278	1.148429	0.057824	0.057305	127.317	27608.4	0.054366	0.106383	1196.78	77335.3
1036	2.000000	1.151401	7.37519e+06	-51939.1	1055.82	-29750.6	0.000000	0.000000	7.157124	132.591	NaN	0.000000	0.001629	0.001730	28.0832	53.7652	0.001751	30700.3	7.451934	173.103	132.959	1.151096	0.060277	0.059972	132.591	30700.3	0.057038	0.115401	1148.96	82567.8
1036	2.000000	1.153795	7.37519e+06	-51939.1	1055.82	-29750.6	0.000000	0.000000	7.160102	146.784	NaN	0.000000	0.001586	0.001756	28.0829	54.8495	0.001766	31066.6	4.511768	-3.219246	139.687	1.153469	0.062671	0.062345	146.784	31066.6	0.059127	0.122698	1196.3	81030.4
1036	2.000000	1.156437	7.37519e+06	-51939.1	1055.82	-29750.6	0.000000	0.000000	7.163027	153.673	NaN	0.000000	0.001608	0.001785	28.0829	58.7589	0.001893	31043.2	6.715102	174.793	154.453	1.156230	0.065312	0.065106	153.673	31043.2	0.061600	0.131607	1167.66	78180.7
1036	2.000000	1.158847	7.37519e+06	-51939.1	1055.82	-29750.6	0.000000	0.000000	7.166236	173.079	NaN	0.000000	0.001615	0.001787	28.0829	60.289	0.001713	35204.1	7.151920	-7.753939	169.112	1.158550	0.067723	0.067426	173.079	35204.1	0.064036	0.140677	1230.32	85754.1
1036	2.000000	1.161369	7.37519e+06	-51939.1	1055.82	-29750.6	0.000000	0.000000	7.169381	188.23	NaN	0.000000	0.001612	0.001730	28.0832	61.551	0.001728	35629.9	4.529700	175.369	187.291	1.160937	0.070245	0.069813	188.23	35629.9	0.066283	0.149298	1260.77	84248.3
1036	2.000000	1.163925	7.37519e+06	-51939.1	1055.82	-29750.6	0.000000	0.000000	7.172439	200.445	NaN	0.000000	0.001627	0.001735	28.0828	65.7443	0.001892	34746.3	8.704166	-8.250282	200.811	1.163486	0.072801	0.072362	200.445	34746.3	0.068475	0.157938	1269.13	79880
1036	2.000000	1.166373	7.37519e+06	-51939.1	1055.82	-29750.6	0.000000	0.000000	7.175379	212.42	NaN	0.000000	0.001629	0.001798	28.0831	68.3171	0.001822	37490.9	7.188801	171.019	210.447	1.166067	0.075249	0.074943	212.42	37490.9	0.071000	0.168178	1263.06	83524.7
1036	2.000000	1.168949	7.37519e+06	-51939.1	1055.82	-29750.6	0.000000	0.000000	7.178325	221.397	NaN	0.000000	0.001615	0.001817	28.083	69.8898	0.001839	38013.9	6.687584	-6.864480	223.154	1.168393	0.077825	0.077269	221.397	38013.9	0.073457	0.178436	1240.76	82219.6
1036	2.000000	1.171420	7.37519e+06	-51939.1	1055.82	-29750.6	0.000000	0.000000	7.181383	235.684	NaN	0.000000	0.001603	0.001790	28.0831	72.5345	0.001936	37466.2	6.861357	172.502	237.094	1.171032	0.080296	0.079908	235.684	37466.2	0.075578	0.187518	1256.86	79048.3
1036	2.000000	1.173850	7.37519e+06	-51939.1	1055.82	-29750.6	0.000000	0.000000	7.184417	250.385	NaN	0.000000	0.001582	0.001819	28.0828	73.1122	0.001690	43255.2	2.914809	-5.356674	246.268	1.173543	0.082726	0.082419	250.385	43255.2	0.078384	0.199856	1252.83	88400.2
1036	2.000000	1.176376	7.37519e+06	-51939.1	1055.82	-29750.6	0.000000	0.000000	7.187261	258.11	NaN	0.000000	0.001518	0.001819	28.0832	76.4376	0.001650	46335	3.475654	172.593	259.081	1.176214	0.085252	0.085090	258.11	46335	0.081074	0.212028	1217.34	91936
1036	2.000000	1.178803	7.37519e+06	-51939.1	1055.82	-29750.6	0.000000	0.000000	7.190746	283.834	NaN	0.000000	0.001643	0.001804	28.0824	78.5509	0.001682	46714.1	5.332086	-7.852864	280.239	1.178404	0.087679	0.087280	283.834	46714.1	0.083122	0.221526	1281.27	90679.4
1036	2.000000	1.181382	7.37519e+06	-51939.1	1055.82	-29750.6	0.000000	0.000000	7.193744	294.039	NaN	0.000000	0.001604	0.001773	28.0817	81.6094	0.001872	43595.2	4.992943	172.302	293.328	1.181080	0.090257	0.089956	294.039	43595.2	0.085199	0.231351	1270.96	82808.7
1036	2.000000	1.183815	7.37519e+06	-51939.1	1055.82	-29750.6	0.000000	0.000000	7.196897	311.523	NaN	0.000000	0.001627	0.001815	28.0816	84.5765	0.001902	44459.5	6.117637	-9.073813	306.611	1.183437	0.092691	0.092313	311.523	44459.5	0.087436	0.242158	1286.45	82544.6
1036	2.000000	1.186327	7.37519e+06	-51939.1	1055.82	-29750.6	0.000000	0.000000	7.200104	328.435	NaN	0.000000	0.001629	0.001792	28.0819	86.6427	0.001836	47199.2	6.584582	170.692	325.354	1.185921	0.095203	0.094797	328.435	47199.2	0.089984	0.254749	1289.25	85438
1036	2.000000	1.188837	7.37519e+06	-51939.1	1055.82	-29750.6	0.000000	0.000000	7.203394	347.393	NaN	0.000000	0.001636	0.001803	28.0817	87.2303	0.001819	47950.6	1.739474	-4.476904	343.888	1.188427	0.097713	0.097303	347.393	47950.6	0.092279	0.266344	1304.3	84887.9
1036	2.000000	1.191460	7.37519e+06	-51939.1	1055.82	-29750.6	0.000000	0.000000	7.206750	365.195	NaN	0.000000	0.001663	0.001835	28.0818	91.8141	0.001903	48250.8	10.4979	167.011	369.605	1.190952	0.100336	0.099828	365.195	48250.8	0.094660	0.278628	1310.69	83515.2
1036	2.000000	1.193900	7.37519e+06	-51939.1	1055.82	-29750.6	0.000000	0.000000	7.209398	370.282	NaN	0.000000	0.001654	0.001798	28.0816	94.225	0.001854	50817.1	3.663181	-7.512271	370.076	1.193616	0.102776	0.102492	370.282	50817.1	0.097311	0.292609	1265.45	85829.9
1036	2.000000	1.196363	7.37519e+06	-51939.1	1055.82	-29750.6	0.000000	0.000000	7.212602	388.305	NaN	0.000000	0.001653	0.001764	28.0821	96.6037	0.001833	52701.1	3.155730	172.814	390.211	1.196112	0.105239	0.104987	388.305	52701.1	0.099713	0.305554	1270.82	87106.3
1036	2.000000	1.198766	7.37519e+06	-51939.1	1055.82	-29750.6	0.000000	0.000000	7.216018	412.923	NaN	0.000000	0.001619	0.001766	28.082	97.0159	0.001720	56404.3	5.460099	-9.949454	406.535	1.198520	0.107641	0.107396	412.923	56404.3	0.102151	0.318961	1294.59	91246.6
1036	2.000000	1.199405	7.37519e+06	-51939.1	1055.82	-29750.6	0.000000	0.000000	7.216693	413.809	NaN	0.000000	0.001645	0.001784	28.0819	99.3232	0.001853	53590.5	5.906386	169.813	416.98	1.198966	0.108281	0.107842	413.809	53590.5	0.102490	0.320846	1289.74	86439.6