File: remote_trans/data/nanoindenter/0828-1/data/Data_2025-08-06,11h17m57s/2025-07-22_16-23-58_1_568.txt
2025-07-22, 16:23:58, 1
Index	Phase	Displacement	Time	Pos X	Pos Y	Pos Z	Rot A	Rot B	Piezo Z	Force A	Force B	Gripper	Voltage A	Voltage B	Temperature	Amplitude force	Amplitude pos	Stiffness	Phase shift	Phase excitation	Force A raw	Displacement raw	HMax	HMax raw	Real Force	Real Stiffness	Contact Depth	Area	Hardness	Reduced Mod.
[#]	[#]	[um]	[s]	[um]	[um]	[um]	[m°]	[m°]	[um]	[uN]	[uN]	[V]	[V]	[V]	[°C]	[uN]	[um]	[N/m]	[°]	[°]	[uN]	[um]	[um]	[um]	[uN]	[N/m]	[um]	[um^2]	[MPa]	[MPa]
568	1.000000	0.001811	7.3706e+06	-48689.1	1005.82	-29761.5	0.000000	0.000000	6.002806	0.013595	NaN	0.000000	0.001576	0.001693	28.0816	0.059071	0.000955	61.8297	165.913	-168.938	0.090914	0.000539	-1.132106	-1.133377	0.013595	61.8297	-1.132270	-1.358548E+15	-1.000718E-17	NaN
568	1.000000	0.011879	7.3706e+06	-48689.1	1005.82	-29761.5	0.000000	0.000000	6.012875	0.024445	NaN	0.000000	0.001554	0.001711	28.0814	0.038076	0.001278	29.7904	61.2938	17.1722	-0.026478	0.010410	-1.122037	-1.123507	0.024445	29.7904	-1.122653	-1.009398E+15	-2.421714E-17	NaN
568	1.000000	0.021786	7.3706e+06	-48689.1	1005.82	-29761.5	0.000000	0.000000	6.022781	-0.006135	NaN	0.000000	0.001536	0.001663	28.0814	0.008340	0.001832	4.550967	-57.5644	-163.399	0.012008	0.020493	-1.112130	-1.113423	-0.006135	4.550967	-1.111119	-7.068082E+14	8.680546E-18	NaN
568	1.000000	0.031746	7.3706e+06	-48689.1	1005.82	-29761.5	0.000000	0.000000	6.032741	0.002414	NaN	0.000000	0.001539	0.001699	28.0812	0.086774	0.002012	43.1321	-138.545	16.4709	0.069533	0.030410	-1.102170	-1.103506	0.002414	43.1321	-1.102212	-5.367364E+14	-4.497483E-18	NaN
568	1.000000	0.041759	7.3706e+06	-48689.1	1005.82	-29761.5	0.000000	0.000000	6.042754	-0.003962	NaN	0.000000	0.001584	0.001683	28.0815	0.055791	0.002052	27.1923	171.687	-163.88	-0.019793	0.040476	-1.092157	-1.093440	-0.003962	27.1923	-1.092048	-3.920209E+14	1.010621E-17	NaN
568	1.000000	0.051755	7.3706e+06	-48689.1	1005.82	-29761.5	0.000000	0.000000	6.052752	0.056045	NaN	0.000000	0.001510	0.001699	28.0813	0.082763	0.002134	38.7752	145.542	15.8024	-0.008643	0.050380	-1.082161	-1.083536	0.056045	38.7752	-1.083245	-2.986122E+14	-1.876844E-16	NaN
568	1.000000	0.061767	7.3706e+06	-48689.1	1005.82	-29761.5	0.000000	0.000000	6.062765	0.067910	NaN	0.000000	0.001550	0.001702	28.0812	0.068446	0.001976	34.6461	74.4963	-161.058	0.031795	0.060435	-1.072149	-1.073481	0.067910	34.6461	-1.073619	-2.217238E+14	-3.062818E-16	NaN
568	1.000000	0.071769	7.3706e+06	-48689.1	1005.82	-29761.5	0.000000	0.000000	6.072767	0.056608	NaN	0.000000	0.001536	0.001693	28.0811	0.012685	0.002025	6.265669	-103.441	18.7322	0.089237	0.070403	-1.062147	-1.063513	0.056608	6.265669	-1.068923	-1.917428E+14	-2.952275E-16	NaN
568	1.000000	0.081775	7.3706e+06	-48689.1	1005.82	-29761.5	0.000000	0.000000	6.082770	0.002375	NaN	0.000000	0.001546	0.001726	28.0812	0.019883	0.002064	9.632374	35.5528	-164.63	0.078158	0.080456	-1.052142	-1.053460	0.002375	9.632374	-1.052327	-1.147336E+14	-2.069710E-17	NaN
568	1.000000	0.091765	7.3706e+06	-48689.1	1005.82	-29761.5	0.000000	0.000000	6.092761	0.020482	NaN	0.000000	0.001537	0.001647	28.0811	0.048134	0.002017	23.8661	-19.7563	13.9985	-0.051128	0.090394	-1.042152	-1.043522	0.020482	23.8661	-1.042795	-8.541859E+13	-2.397851E-16	NaN
568	1.000000	0.101766	7.3706e+06	-48689.1	1005.82	-29761.5	0.000000	0.000000	6.102762	0.038682	NaN	0.000000	0.001534	0.001694	28.0814	0.046817	0.002079	22.5188	11.8331	-169.365	0.069330	0.100486	-1.032151	-1.033430	0.038682	22.5188	-1.033439	-6.393462E+13	-6.050172E-16	NaN
568	1.000000	0.111782	7.3706e+06	-48689.1	1005.82	-29761.5	0.000000	0.000000	6.112777	0.012727	NaN	0.000000	0.001560	0.001658	28.0814	0.061121	0.002056	29.7281	178.765	17.8796	0.012082	0.110433	-1.022135	-1.023484	0.012727	29.7281	-1.022456	-4.549807E+13	-2.797208E-16	NaN
568	1.000000	0.121763	7.3706e+06	-48689.1	1005.82	-29761.5	0.000000	0.000000	6.122760	0.051431	NaN	0.000000	0.001577	0.001671	28.0806	0.078536	0.001937	40.5423	-104.272	-165.483	0.047725	0.120437	-1.012154	-1.013479	0.051431	40.5423	-1.013105	-3.405435E+13	-1.510250E-15	NaN
568	1.000000	0.131796	7.3706e+06	-48689.1	1005.82	-29761.5	0.000000	0.000000	6.132791	0.012968	NaN	0.000000	0.001602	0.001683	28.0795	0.004097	0.001991	2.057769	93.2491	17.9193	0.064291	0.130412	-1.002121	-1.003505	0.012968	2.057769	-1.006847	-2.805099E+13	-4.623128E-16	NaN
568	1.000000	0.141786	7.3706e+06	-48689.1	1005.82	-29761.5	0.000000	0.000000	6.142783	0.033613	NaN	0.000000	0.001555	0.001712	28.08	0.067735	0.002020	33.5362	-128.845	-163.085	0.067625	0.140482	-0.992130	-0.993435	0.033613	33.5362	-0.992882	-1.819377E+13	-1.847517E-15	NaN
568	1.000000	0.151800	7.3706e+06	-48689.1	1005.82	-29761.5	0.000000	0.000000	6.152798	0.087944	NaN	0.000000	0.001552	0.001678	28.0802	0.026165	0.001989	13.1569	0.098404	16.5536	0.043837	0.150444	-0.982117	-0.983472	0.087944	13.1569	-0.987130	-1.522149E+13	-5.777600E-15	NaN
568	1.000000	0.161802	7.3706e+06	-48689.1	1005.82	-29761.5	0.000000	0.000000	6.162799	0.044755	NaN	0.000000	0.001565	0.001714	28.0799	0.013954	0.001938	7.198929	157.564	-163.611	-0.025111	0.160477	-0.972114	-0.973439	0.044755	7.198929	-0.976777	-1.104037E+13	-4.053727E-15	NaN
568	1.000000	0.171808	7.3706e+06	-48689.1	1005.82	-29761.5	0.000000	0.000000	6.172807	0.086136	NaN	0.000000	0.001559	0.001700	28.0799	0.108626	0.001992	54.5221	178.536	18.0677	0.035710	0.170428	-0.962108	-0.963488	0.086136	54.5221	-0.963293	-7.265455E+12	-1.185562E-14	NaN
568	1.000000	0.181799	7.3706e+06	-48689.1	1005.82	-29761.5	0.000000	0.000000	6.182795	0.022260	NaN	0.000000	0.001556	0.001689	28.0801	0.052407	0.001984	26.418	-102.618	-164.275	0.100956	0.180537	-0.952118	-0.953380	0.022260	26.418	-0.952750	-5.237323E+12	-4.250255E-15	NaN
568	1.000000	0.191810	7.3706e+06	-48689.1	1005.82	-29761.5	0.000000	0.000000	6.192806	0.027769	NaN	0.000000	0.001514	0.001655	28.0799	0.009581	0.001960	4.888997	-83.0468	13.7328	0.003336	0.190500	-0.942107	-0.943416	0.027769	4.888997	-0.946367	-4.295594E+12	-6.464433E-15	NaN
568	1.000000	0.201812	7.3706e+06	-48689.1	1005.82	-29761.5	0.000000	0.000000	6.202808	0.026833	NaN	0.000000	0.001564	0.001681	28.0799	0.110738	0.001980	55.9179	-127.102	-166.633	0.085574	0.200522	-0.932105	-0.933394	0.026833	55.9179	-0.932464	-2.789054E+12	-9.620768E-15	NaN
568	1.000000	0.211802	7.3706e+06	-48689.1	1005.82	-29761.5	0.000000	0.000000	6.212797	0.001657	NaN	0.000000	0.001555	0.001707	28.0798	0.163255	0.002116	77.1643	110.432	14.1998	0.060373	0.210462	-0.922114	-0.923454	0.001657	77.1643	-0.922130	-2.022854E+12	-8.191377E-16	NaN
568	1.000000	0.221822	7.3706e+06	-48689.1	1005.82	-29761.5	0.000000	0.000000	6.222819	0.049560	NaN	0.000000	0.001524	0.001661	28.0803	0.094406	0.002057	45.8945	139.237	-163.741	0.038000	0.220565	-0.912095	-0.913352	0.049560	45.8945	-0.912905	-1.518429E+12	-3.263897E-14	NaN
568	1.000000	0.231823	7.3706e+06	-48689.1	1005.82	-29761.5	0.000000	0.000000	6.232820	0.042144	NaN	0.000000	0.001544	0.001691	28.0799	0.042863	0.002050	20.9069	-144.885	15.3057	0.097833	0.230482	-0.902093	-0.903434	0.042144	20.9069	-0.903605	-1.137028E+12	-3.706508E-14	NaN
568	1.000000	0.241826	7.3706e+06	-48689.1	1005.82	-29761.5	0.000000	0.000000	6.242823	0.052030	NaN	0.000000	0.001579	0.001715	28.0802	0.015032	0.001907	7.880691	84.1388	-170.443	-0.077565	0.240531	-0.892090	-0.893385	0.052030	7.880691	-0.897042	-9.270235E+11	-5.612584E-14	NaN
568	1.000000	0.251833	7.3706e+06	-48689.1	1005.82	-29761.5	0.000000	0.000000	6.252830	0.058022	NaN	0.000000	0.001574	0.001748	28.08	0.043916	0.001866	23.5356	-35.9015	13.1978	0.074594	0.250526	-0.882083	-0.883390	0.058022	23.5356	-0.883932	-6.164314E+11	-9.412599E-14	NaN
568	1.000000	0.261831	7.3706e+06	-48689.1	1005.82	-29761.5	0.000000	0.000000	6.262830	0.100744	NaN	0.000000	0.001583	0.001728	28.0816	0.036848	0.002011	18.3267	-7.631511	-164.059	0.119435	0.260546	-0.872085	-0.873370	0.100744	18.3267	-0.876208	-4.846451E+11	-2.078727E-13	NaN
568	1.000000	0.271842	7.3706e+06	-48689.1	1005.82	-29761.5	0.000000	0.000000	6.272837	0.014499	NaN	0.000000	0.001569	0.001717	28.0813	0.076980	0.001951	39.4538	41.1961	12.1003	0.008391	0.270440	-0.862075	-0.863476	0.014499	39.4538	-0.862350	-3.147261E+11	-4.606754E-14	NaN
568	1.000000	0.281839	7.3706e+06	-48689.1	1005.82	-29761.5	0.000000	0.000000	6.282835	0.005814	NaN	0.000000	0.001530	0.001682	28.0814	0.089512	0.002078	43.0705	-59.0789	-164.167	0.049080	0.280532	-0.852077	-0.853384	0.005814	43.0705	-0.852178	-2.292094E+11	-2.536632E-14	NaN
568	1.000000	0.291843	7.3706e+06	-48689.1	1005.82	-29761.5	0.000000	0.000000	6.292837	-0.035351	NaN	0.000000	0.001621	0.001688	28.0812	0.107754	0.002041	52.7967	-92.0521	16.0239	0.023252	0.290433	-0.842073	-0.843483	-0.035351	52.7967	-0.841571	-1.646538E+11	2.147010E-13	NaN
568	1.000000	0.301857	7.3706e+06	-48689.1	1005.82	-29761.5	0.000000	0.000000	6.302853	0.032197	NaN	0.000000	0.001571	0.001671	28.0813	0.065221	0.002109	30.9266	8.009376	-163.96	-0.045920	0.300574	-0.832059	-0.833342	0.032197	30.9266	-0.832840	-1.253935E+11	-2.567657E-13	NaN
568	1.000000	0.311861	7.3706e+06	-48689.1	1005.82	-29761.5	0.000000	0.000000	6.312857	0.031286	NaN	0.000000	0.001557	0.001667	28.0811	0.061850	0.002115	29.2499	28.1331	14.8253	0.078097	0.310519	-0.822056	-0.823398	0.031286	29.2499	-0.822858	-9.182569E+10	-3.407115E-13	NaN
568	1.000000	0.321873	7.3706e+06	-48689.1	1005.82	-29761.5	0.000000	0.000000	6.322868	-0.010264	NaN	0.000000	0.001584	0.001668	28.0812	0.091601	0.001917	47.7724	-31.4146	-162.688	-0.030061	0.320517	-0.812043	-0.813399	-0.010264	47.7724	-0.811882	-6.517826E+10	1.574796E-13	NaN
568	1.000000	0.331866	7.3706e+06	-48689.1	1005.82	-29761.5	0.000000	0.000000	6.332861	0.003402	NaN	0.000000	0.001572	0.001714	28.0814	0.019201	0.002113	9.088897	-10.1289	15.2247	-0.016822	0.330507	-0.802050	-0.803409	0.003402	9.088897	-0.802331	-4.836143E+10	-7.033540E-14	NaN
568	1.000000	0.341889	7.3706e+06	-48689.1	1005.82	-29761.5	0.000000	0.000000	6.342885	0.032507	NaN	0.000000	0.001554	0.001706	28.0813	0.058934	0.001897	31.0652	-155.858	-164.12	0.030671	0.340542	-0.792028	-0.793374	0.032507	31.0652	-0.792812	-3.591506E+10	-9.051035E-13	NaN
568	1.000000	0.351901	7.3706e+06	-48689.1	1005.82	-29761.5	0.000000	0.000000	6.352901	0.121965	NaN	0.000000	0.001508	0.001701	28.081	0.098688	0.001985	49.7094	82.5807	16.0595	0.059351	0.350562	-0.782016	-0.783354	0.121965	49.7094	-0.783856	-2.714085E+10	-4.493769E-12	NaN
568	1.000000	0.361900	7.3706e+06	-48689.1	1005.82	-29761.5	0.000000	0.000000	6.362898	0.090014	NaN	0.000000	0.001573	0.001711	28.0811	0.109992	0.002118	51.9253	-178.876	-167.665	0.114070	0.360585	-0.772017	-0.773331	0.090014	51.9253	-0.773317	-1.951628E+10	-4.612227E-12	NaN
568	1.000000	0.371893	7.3706e+06	-48689.1	1005.82	-29761.5	0.000000	0.000000	6.372890	0.045779	NaN	0.000000	0.001592	0.001703	28.0813	0.159545	0.001917	83.2361	79.8476	15.6716	-0.019310	0.370539	-0.762023	-0.763377	0.045779	83.2361	-0.762436	-1.388143E+10	-3.297893E-12	NaN
568	1.000000	0.381883	7.3706e+06	-48689.1	1005.82	-29761.5	0.000000	0.000000	6.382883	0.132442	NaN	0.000000	0.001558	0.001671	28.081	0.041802	0.001902	21.9753	144.024	-169.768	0.064721	0.380620	-0.752033	-0.753297	0.132442	21.9753	-0.756554	-1.154546E+10	-1.147137E-11	NaN
568	1.000000	0.391891	7.3706e+06	-48689.1	1005.82	-29761.5	0.000000	0.000000	6.392885	-0.029315	NaN	0.000000	0.001562	0.001690	28.0813	0.058679	0.002031	28.8949	84.7525	15.1708	0.032387	0.390533	-0.742025	-0.743383	-0.029315	28.8949	-0.741264	-7.149463E+9	4.100360E-12	NaN
568	1.000000	0.401923	7.3706e+06	-48689.1	1005.82	-29761.5	0.000000	0.000000	6.402918	0.004556	NaN	0.000000	0.001568	0.001803	28.08	0.117450	0.001909	61.5115	5.102107	-165.582	0.067084	0.400594	-0.731993	-0.733322	0.004556	61.5115	-0.732049	-5.354659E+9	-8.508651E-13	NaN
568	1.000000	0.411905	7.3706e+06	-48689.1	1005.82	-29761.5	0.000000	0.000000	6.412901	0.034378	NaN	0.000000	0.001558	0.001780	28.08	0.025073	0.002026	12.375	-170.663	14.1548	0.003068	0.410541	-0.722012	-0.723375	0.034378	12.375	-0.724095	-4.171714E+9	-8.240741E-12	NaN
568	1.000000	0.421907	7.3706e+06	-48689.1	1005.82	-29761.5	0.000000	0.000000	6.422903	0.022438	NaN	0.000000	0.001557	0.001800	28.08	0.108329	0.001948	55.597	-43.4245	-161.816	-0.003934	0.420560	-0.712009	-0.713357	0.022438	55.597	-0.712312	-2.881356E+9	-7.787232E-12	NaN
568	1.000000	0.431918	7.3706e+06	-48689.1	1005.82	-29761.5	0.000000	0.000000	6.432916	0.062165	NaN	0.000000	0.001583	0.001835	28.0801	0.109657	0.001836	59.729	-77.4806	17.9772	0.125161	0.430554	-0.701998	-0.703362	0.062165	59.729	-0.702779	-2.135396E+9	-2.911158E-11	NaN
568	1.000000	0.441918	7.3706e+06	-48689.1	1005.82	-29761.5	0.000000	0.000000	6.442915	0.041120	NaN	0.000000	0.001575	0.001817	28.0802	0.069668	0.002133	32.6613	-2.889030	-166.421	0.022768	0.440687	-0.691998	-0.693229	0.041120	32.6613	-0.692942	-1.567198E+9	-2.623797E-11	NaN
568	1.000000	0.451922	7.3706e+06	-48689.1	1005.82	-29761.5	0.000000	0.000000	6.452917	0.002286	NaN	0.000000	0.001579	0.001785	28.0802	0.100419	0.001966	51.0829	77.9858	15.2146	-0.070928	0.450509	-0.681994	-0.683407	0.002286	51.0829	-0.682028	-1.111560E+9	-2.056781E-12	NaN
568	1.000000	0.461916	7.3706e+06	-48689.1	1005.82	-29761.5	0.000000	0.000000	6.462911	0.001245	NaN	0.000000	0.001597	0.001797	28.0799	0.054881	0.002078	26.4052	10.3078	-162.209	-0.011721	0.460626	-0.672001	-0.673290	0.001245	26.4052	-0.672036	-8.114368E+8	-1.533790E-12	NaN
568	1.000000	0.471928	7.3706e+06	-48689.1	1005.82	-29761.5	0.000000	0.000000	6.472923	0.000920	NaN	0.000000	0.001669	0.001801	28.0801	0.062689	0.002021	31.0162	110.185	13.4664	-0.010958	0.470531	-0.661988	-0.663385	0.000920	31.0162	-0.662010	-5.915644E+8	-1.555469E-12	NaN
568	1.000000	0.481933	7.3706e+06	-48689.1	1005.82	-29761.5	0.000000	0.000000	6.482930	0.057301	NaN	0.000000	0.001654	0.001780	28.0802	0.034635	0.002002	17.2966	1.254723	-166.437	0.017811	0.480618	-0.651984	-0.653299	0.057301	17.2966	-0.654468	-4.663191E+8	-1.228798E-10	NaN
568	1.000000	0.491951	7.37061e+06	-48689.1	1005.82	-29761.5	0.000000	0.000000	6.492947	0.015987	NaN	0.000000	0.001658	0.001757	28.08	0.034231	0.001892	18.0899	44.759	15.0831	0.127499	0.490544	-0.641965	-0.643373	0.015987	18.0899	-0.642628	-3.208803E+8	-4.982258E-11	NaN
568	1.000000	0.501942	7.37061e+06	-48689.1	1005.82	-29761.5	0.000000	0.000000	6.502938	0.027675	NaN	0.000000	0.001640	0.001805	28.08	0.021924	0.002009	10.9153	-176.065	-163.311	0.095819	0.500617	-0.631974	-0.633299	0.027675	10.9153	-0.633876	-2.433565E+8	-1.137237E-10	NaN
568	1.000000	0.511945	7.37061e+06	-48689.1	1005.82	-29761.5	0.000000	0.000000	6.512939	-0.029481	NaN	0.000000	0.001636	0.001802	28.0799	0.040855	0.002050	19.9331	-13.677	15.1784	-0.007938	0.510547	-0.621971	-0.623369	-0.029481	19.9331	-0.620862	-1.612431E+8	1.828328E-10	NaN
568	1.000000	0.521917	7.37061e+06	-48689.1	1005.82	-29761.5	0.000000	0.000000	6.522913	0.027637	NaN	0.000000	0.001658	0.001850	28.0801	0.045365	0.002057	22.0565	96.5375	-164.106	-0.008504	0.520718	-0.611999	-0.613199	0.027637	22.0565	-0.612939	-1.254713E+8	-2.202679E-10	NaN
568	1.000000	0.531932	7.37061e+06	-48689.1	1005.82	-29761.5	0.000000	0.000000	6.532929	0.038665	NaN	0.000000	0.001649	0.001812	28.0806	0.029891	0.001977	15.1204	75.7926	13.3062	0.096170	0.530585	-0.601984	-0.603331	0.038665	15.1204	-0.603902	-9.423038E+7	-4.103226E-10	NaN
568	1.000000	0.541962	7.37061e+06	-48689.1	1005.82	-29761.5	0.000000	0.000000	6.542958	0.023697	NaN	0.000000	0.001634	0.001822	28.0811	0.078928	0.002083	37.8934	-172.811	-161.383	-0.010955	0.540625	-0.591954	-0.593291	0.023697	37.8934	-0.592423	-6.547409E+7	-3.619226E-10	NaN
568	1.000000	0.551970	7.37061e+06	-48689.1	1005.82	-29761.5	0.000000	0.000000	6.552970	0.121824	NaN	0.000000	0.001633	0.001845	28.0813	0.026559	0.002013	13.1923	179.244	17.0119	0.102620	0.550609	-0.581946	-0.583307	0.121824	13.1923	-0.588872	-5.849452E+7	-2.082652E-9	NaN
568	1.000000	0.561974	7.37061e+06	-48689.1	1005.82	-29761.5	0.000000	0.000000	6.562970	0.013343	NaN	0.000000	0.001643	0.001843	28.0813	0.043433	0.002028	21.4161	-110.652	-167.416	-0.044550	0.560665	-0.571942	-0.573251	0.013343	21.4161	-0.572409	-3.466705E+7	-3.848864E-10	NaN
568	1.000000	0.571987	7.37061e+06	-48689.1	1005.82	-29761.5	0.000000	0.000000	6.572984	0.030499	NaN	0.000000	0.001626	0.001869	28.0811	0.102987	0.002032	50.6806	-86.8799	18.7856	0.092616	0.570628	-0.561929	-0.563288	0.030499	50.6806	-0.562380	-2.519432E+7	-1.210564E-9	NaN
568	1.000000	0.582000	7.37061e+06	-48689.1	1005.82	-29761.5	0.000000	0.000000	6.582997	0.037275	NaN	0.000000	0.001638	0.001821	28.0811	0.037268	0.001948	19.1335	159.393	-166.127	0.098489	0.580647	-0.551916	-0.553269	0.037275	19.1335	-0.553377	-1.891134E+7	-1.971046E-9	NaN
568	1.000000	0.592000	7.37061e+06	-48689.1	1005.82	-29761.5	0.000000	0.000000	6.592996	0.040728	NaN	0.000000	0.001601	0.001815	28.0812	0.111291	0.001936	57.4732	21.4098	10.822	0.038853	0.590559	-0.541917	-0.543357	0.040728	57.4732	-0.542448	-1.334463E+7	-3.052023E-9	NaN
568	1.000000	0.601968	7.37061e+06	-48689.1	1005.82	-29761.5	0.000000	0.000000	6.602967	0.076706	NaN	0.000000	0.001644	0.001841	28.0813	0.096710	0.002096	46.1415	-46.7634	-165.47	0.034630	0.600715	-0.531948	-0.533202	0.076706	46.1415	-0.533195	-9.92962e+06	-7.724943E-9	NaN
568	1.000000	0.611981	7.37061e+06	-48689.1	1005.82	-29761.5	0.000000	0.000000	6.612977	0.031234	NaN	0.000000	0.001665	0.001818	28.0812	0.005862	0.002106	2.784281	-171.326	15.1274	-0.016930	0.610699	-0.521935	-0.523218	0.031234	2.784281	-0.530349	-9.06604e+06	-3.445164E-9	NaN
568	1.000000	0.621984	7.37061e+06	-48689.1	1005.82	-29761.5	0.000000	0.000000	6.622979	-0.002880	NaN	0.000000	0.001652	0.001834	28.0815	0.095387	0.002042	46.7229	24.3425	-164.252	0.045379	0.620729	-0.511933	-0.513188	-0.002880	46.7229	-0.511886	-5.0198e+06	5.737082E-10	NaN
568	1.000000	0.631999	7.37061e+06	-48689.1	1005.82	-29761.5	0.000000	0.000000	6.632994	0.011203	NaN	0.000000	0.001608	0.001831	28.0813	0.111682	0.002008	55.6117	-168.057	19.6537	0.010692	0.630625	-0.501918	-0.503291	0.011203	55.6117	-0.502069	-3.66334e+06	-3.058263E-9	NaN
568	1.000000	0.641987	7.37061e+06	-48689.1	1005.82	-29761.5	0.000000	0.000000	6.642988	0.136060	NaN	0.000000	0.001606	0.001859	28.0814	0.061382	0.001937	31.6819	111.366	-162.894	0.116023	0.640680	-0.491929	-0.493237	0.136060	31.6819	-0.495150	-2.93312e+06	-4.638741E-8	NaN
568	1.000000	0.652007	7.37061e+06	-48689.1	1005.82	-29761.5	0.000000	0.000000	6.653002	-0.001311	NaN	0.000000	0.001581	0.001829	28.0811	0.059701	0.001915	31.1682	46.1673	16.4697	0.071571	0.650616	-0.481910	-0.483300	-0.001311	31.1682	-0.481878	-1.91344e+06	6.853208E-10	NaN
568	1.000000	0.662018	7.37061e+06	-48689.1	1005.82	-29761.5	0.000000	0.000000	6.663013	0.015586	NaN	0.000000	0.001645	0.001847	28.0813	0.123192	0.002122	58.0607	-115.665	-163.864	0.094434	0.660737	-0.471899	-0.473179	0.015586	58.0607	-0.472100	-1.3959e+06	-1.116585E-8	NaN
568	1.000000	0.671981	7.37061e+06	-48689.1	1005.82	-29761.5	0.000000	0.000000	6.672979	0.085515	NaN	0.000000	0.001619	0.001824	28.08	0.054322	0.001862	29.1706	118.942	14.7453	0.093366	0.670639	-0.461936	-0.463278	0.085515	29.1706	-0.464134	-1.07918e+06	-7.924040E-8	NaN
568	1.000000	0.682017	7.37061e+06	-48689.1	1005.82	-29761.5	0.000000	0.000000	6.683013	0.021780	NaN	0.000000	0.001616	0.001826	28.08	0.068861	0.002020	34.0844	48.9559	-166	0.066319	0.680725	-0.451900	-0.453192	0.021780	34.0844	-0.452379	-737622	-2.952738E-8	NaN
568	1.000000	0.692032	7.37061e+06	-48689.1	1005.82	-29761.5	0.000000	0.000000	6.693029	0.068757	NaN	0.000000	0.001613	0.001807	28.0799	0.072437	0.001973	36.7192	-170.06	15.1506	0.047860	0.690668	-0.441885	-0.443248	0.068757	36.7192	-0.443289	-549250	-1.251844E-7	NaN
568	1.000000	0.702018	7.37061e+06	-48689.1	1005.82	-29761.5	0.000000	0.000000	6.703014	0.042047	NaN	0.000000	0.001618	0.001820	28.08	0.076303	0.001992	38.3076	66.1303	-164.314	0.085540	0.700734	-0.431899	-0.433182	0.042047	38.3076	-0.432722	-389542	-1.079390E-7	NaN
568	1.000000	0.712014	7.37061e+06	-48689.1	1005.82	-29761.5	0.000000	0.000000	6.713009	-0.004932	NaN	0.000000	0.001626	0.001808	28.0801	0.087184	0.002037	42.8089	-120.464	16.1885	-0.024939	0.710712	-0.421902	-0.423204	-0.004932	42.8089	-0.421816	-272999	1.806420E-8	NaN
568	1.000000	0.722063	7.37061e+06	-48689.1	1005.82	-29761.5	0.000000	0.000000	6.723059	0.026323	NaN	0.000000	0.001578	0.001806	28.08	0.114372	0.002103	54.3958	109.939	-162.737	0.005360	0.720805	-0.411854	-0.413112	0.026323	54.3958	-0.412217	-199487	-1.319550E-7	NaN
568	1.000000	0.732045	7.37061e+06	-48689.1	1005.82	-29761.5	0.000000	0.000000	6.733043	0.066876	NaN	0.000000	0.001570	0.001849	28.0799	0.083047	0.002015	41.2112	-70.9053	15.7562	0.031367	0.730664	-0.401871	-0.403253	0.066876	41.2112	-0.403088	-147917	-4.521176E-7	NaN
568	1.000000	0.742033	7.37061e+06	-48689.1	1005.82	-29761.5	0.000000	0.000000	6.743030	0.052404	NaN	0.000000	0.001571	0.001828	28.08	0.111090	0.002203	50.4247	144.182	-165.955	0.011394	0.740763	-0.391884	-0.393154	0.052404	50.4247	-0.392663	-105014	-4.990214E-7	NaN
568	1.000000	0.752046	7.37061e+06	-48689.1	1005.82	-29761.5	0.000000	0.000000	6.753040	-0.025790	NaN	0.000000	0.001573	0.001828	28.08	0.057616	0.001946	29.6033	123.756	15.5334	-0.006077	0.750682	-0.381871	-0.383235	-0.025790	29.6033	-0.381217	-72003.9	3.581744E-7	NaN
568	1.000000	0.762040	7.37061e+06	-48689.1	1005.82	-29761.5	0.000000	0.000000	6.763036	0.026641	NaN	0.000000	0.001582	0.001801	28.0799	0.072503	0.001979	36.6361	-98.6579	-163.639	0.020327	0.760849	-0.371876	-0.373067	0.026641	36.6361	-0.372422	-53825.8	-4.949455E-7	NaN
568	1.000000	0.772059	7.37061e+06	-48689.1	1005.82	-29761.5	0.000000	0.000000	6.773055	0.038582	NaN	0.000000	0.001572	0.001786	28.0801	0.117303	0.002073	56.5832	-95.2098	17.231	0.064991	0.770708	-0.361858	-0.363208	0.038582	56.5832	-0.362369	-38554.6	-1.000709E-6	NaN
568	1.000000	0.782040	7.37061e+06	-48689.1	1005.82	-29761.5	0.000000	0.000000	6.783037	0.046791	NaN	0.000000	0.001588	0.001786	28.0803	0.089499	0.001910	46.857	-159.035	-164.273	0.007932	0.780707	-0.351877	-0.353210	0.046791	46.857	-0.352626	-27866.9	-1.679092E-6	NaN
568	1.000000	0.792062	7.37061e+06	-48689.1	1005.82	-29761.5	0.000000	0.000000	6.793062	0.108714	NaN	0.000000	0.001594	0.001775	28.0801	0.059338	0.002060	28.8069	-178.299	16.0717	0.060101	0.790667	-0.341854	-0.343249	0.108714	28.8069	-0.344685	-21368.3	-5.087617E-6	NaN
568	1.000000	0.802084	7.37061e+06	-48689.1	1005.82	-29761.5	0.000000	0.000000	6.803079	0.019023	NaN	0.000000	0.001589	0.001808	28.0802	0.108941	0.002010	54.2073	139.388	-166.181	-0.021833	0.800712	-0.331833	-0.333205	0.019023	54.2073	-0.332096	-14000	-1.358760E-6	NaN
568	1.000000	0.812071	7.37061e+06	-48689.1	1005.82	-29761.5	0.000000	0.000000	6.813067	0.039665	NaN	0.000000	0.001577	0.001798	28.0813	0.094408	0.001964	48.0711	-39.0532	16.9913	0.059346	0.810730	-0.321846	-0.323186	0.039665	48.0711	-0.322464	-10113.2	-3.922120E-6	NaN
568	1.000000	0.822080	7.37061e+06	-48689.1	1005.82	-29761.5	0.000000	0.000000	6.823077	0.033333	NaN	0.000000	0.001601	0.001812	28.0817	0.051582	0.002039	25.2985	117.032	-163.401	0.020719	0.820751	-0.311836	-0.313165	0.033333	25.2985	-0.312824	-7291.53	-4.571517E-6	NaN
568	1.000000	0.832099	7.37061e+06	-48689.1	1005.82	-29761.5	0.000000	0.000000	6.833094	0.013295	NaN	0.000000	0.001588	0.001800	28.0815	0.054923	0.002019	27.1982	-86.2024	16.691	0.079465	0.830740	-0.301817	-0.303176	0.013295	27.1982	-0.302184	-5071.39	-2.621526E-6	NaN
568	1.000000	0.842084	7.37061e+06	-48689.1	1005.82	-29761.5	0.000000	0.000000	6.843079	-0.012498	NaN	0.000000	0.001574	0.001791	28.0815	0.064635	0.001944	33.2403	158.721	-164.029	0.014196	0.840752	-0.291832	-0.293165	-0.012498	33.2403	-0.291550	-3519.75	3.550912E-6	NaN
568	1.000000	0.852090	7.37061e+06	-48689.1	1005.82	-29761.5	0.000000	0.000000	6.853085	0.009660	NaN	0.000000	0.001592	0.001781	28.0817	0.110431	0.001966	56.1596	98.6822	14.7714	-0.013461	0.850742	-0.281827	-0.283174	0.009660	56.1596	-0.281956	-2526.11	-3.823941E-6	NaN
568	1.000000	0.862127	7.37061e+06	-48689.1	1005.82	-29761.5	0.000000	0.000000	6.863122	0.009969	NaN	0.000000	0.001627	0.001810	28.0812	0.107146	0.001959	54.6941	136.475	-164.556	-0.060515	0.860728	-0.271790	-0.273189	0.009969	54.6941	-0.271926	-1781.57	-5.595548E-6	NaN
568	1.000000	0.872109	7.37061e+06	-48689.1	1005.82	-29761.5	0.000000	0.000000	6.873107	0.069934	NaN	0.000000	0.001607	0.001795	28.0815	0.123411	0.002010	61.4131	73.9799	12.6787	0.071109	0.870711	-0.261807	-0.263205	0.069934	61.4131	-0.262661	-1287.25	-5.432831E-5	NaN
568	1.000000	0.882107	7.37061e+06	-48689.1	1005.82	-29761.5	0.000000	0.000000	6.883102	0.007811	NaN	0.000000	0.001598	0.001767	28.0814	0.037105	0.001890	19.6321	153.433	-167.503	0.024453	0.880799	-0.251809	-0.253118	0.007811	19.6321	-0.252108	-886.199	-8.813797E-6	NaN
568	1.000000	0.892142	7.37061e+06	-48689.1	1005.82	-29761.5	0.000000	0.000000	6.893138	0.037662	NaN	0.000000	0.001575	0.001797	28.0818	0.040649	0.001846	22.0174	-85.548	12.3608	0.128861	0.890804	-0.241775	-0.243112	0.037662	22.0174	-0.243057	-641.555	-5.870399E-5	NaN
568	1.000000	0.902084	7.37061e+06	-48689.1	1005.82	-29761.5	0.000000	0.000000	6.903083	0.110772	NaN	0.000000	0.001617	0.001773	28.0814	0.047302	0.002055	23.0209	-114.168	-163.404	0.035769	0.900763	-0.231833	-0.233153	0.110772	23.0209	-0.235442	-487.732	-0.000227	NaN
568	1.000000	0.912100	7.37061e+06	-48689.1	1005.82	-29761.5	0.000000	0.000000	6.913097	0.046595	NaN	0.000000	0.001594	0.001781	28.0814	0.103323	0.002068	49.9702	-82.5994	12.1567	0.042567	0.910746	-0.221816	-0.223170	0.046595	49.9702	-0.222516	-304.661	-0.000153	NaN
568	1.000000	0.922101	7.37061e+06	-48689.1	1005.82	-29761.5	0.000000	0.000000	6.923098	0.064378	NaN	0.000000	0.001643	0.001794	28.0813	0.117171	0.002082	56.2716	-8.893745	-164.913	0.069896	0.920792	-0.211816	-0.213124	0.064378	56.2716	-0.212674	-211.854	-0.000304	NaN
568	1.000000	0.932102	7.37061e+06	-48689.1	1005.82	-29761.5	0.000000	0.000000	6.933096	-0.008005	NaN	0.000000	0.001639	0.001764	28.0815	0.121869	0.001972	61.7995	-91.205	15.3037	0.017423	0.930776	-0.201815	-0.203140	-0.008005	61.7995	-0.201718	-140.569	5.694461E-5	NaN
568	1.000000	0.942098	7.37061e+06	-48689.1	1005.82	-29761.5	0.000000	0.000000	6.943094	0.026622	NaN	0.000000	0.001651	0.001761	28.0804	0.022842	0.002013	11.3501	94.3541	-165.303	0.109534	0.940819	-0.191819	-0.193097	0.026622	11.3501	-0.193578	-103.184	-0.000258	NaN
568	1.000000	0.952142	7.37061e+06	-48689.1	1005.82	-29761.5	0.000000	0.000000	6.953136	-0.027265	NaN	0.000000	0.001633	0.001767	28.08	0.055355	0.002042	27.1082	169.326	18.2538	-0.001970	0.950716	-0.181774	-0.183201	-0.027265	27.1082	-0.181020	-63.5046	0.000429	NaN
568	1.000000	0.962120	7.37061e+06	-48689.1	1005.82	-29761.5	0.000000	0.000000	6.963116	0.020102	NaN	0.000000	0.001600	0.001794	28.0802	0.065538	0.001982	33.0654	-110.612	-163.82	0.031215	0.960787	-0.171796	-0.173129	0.020102	33.0654	-0.172252	-44.9392	-0.000447	NaN
568	1.000000	0.972140	7.37061e+06	-48689.1	1005.82	-29761.5	0.000000	0.000000	6.973137	0.066853	NaN	0.000000	0.001630	0.001811	28.0802	0.142012	0.001997	71.0952	165.388	17.2046	0.035348	0.970757	-0.161777	-0.163159	0.066853	71.0952	-0.162482	-30.3361	-0.002204	NaN
568	1.000000	0.982132	7.37061e+06	-48689.1	1005.82	-29761.5	0.000000	0.000000	6.983130	0.065454	NaN	0.000000	0.001646	0.001777	28.0802	0.103681	0.001883	55.0588	-168.277	-164.621	0.117688	0.980795	-0.151784	-0.153122	0.065454	55.0588	-0.152676	-20.2594	-0.003231	NaN
568	1.000000	0.992142	7.37061e+06	-48689.1	1005.82	-29761.5	0.000000	0.000000	6.993142	0.116803	NaN	0.000000	0.001651	0.001812	28.0801	0.043368	0.001928	22.4926	94.1702	15.4253	0.085909	0.990757	-0.141775	-0.143159	0.116803	22.4926	-0.145669	-15.0848	-0.007743	NaN
568	1.000000	1.002166	7.37061e+06	-48689.1	1005.82	-29761.5	0.000000	0.000000	7.003159	-0.044580	NaN	0.000000	0.001649	0.001794	28.0804	0.021007	0.001992	10.5439	124.495	-164.852	-0.014623	1.000839	-0.131750	-0.133078	-0.044580	10.5439	-0.128579	-7.150649	0.006234	NaN
568	1.000000	1.012132	7.37061e+06	-48689.1	1005.82	-29761.5	0.000000	0.000000	7.013128	0.014296	NaN	0.000000	0.001655	0.001793	28.0802	0.070733	0.001978	35.7568	-7.908129	14.1522	0.126825	1.010763	-0.121784	-0.123153	0.014296	35.7568	-0.122084	-5.320651	-0.002687	NaN
568	1.000000	1.022150	7.37061e+06	-48689.1	1005.82	-29761.5	0.000000	0.000000	7.023147	0.047797	NaN	0.000000	0.001638	0.001844	28.0801	0.082109	0.002025	40.5555	6.359822	-164.923	0.053319	1.020863	-0.111766	-0.113053	0.047797	40.5555	-0.112650	-3.415208	-0.013995	NaN
568	1.000000	1.032165	7.37061e+06	-48689.1	1005.82	-29761.5	0.000000	0.000000	7.033165	0.111198	NaN	0.000000	0.001647	0.001804	28.0813	0.029404	0.002035	14.4472	-149.653	14.4496	0.035150	1.030829	-0.101751	-0.103088	0.111198	14.4472	-0.107524	-2.662889	-0.041758	NaN
568	1.000000	1.042174	7.37061e+06	-48689.1	1005.82	-29761.5	0.000000	0.000000	7.043169	0.003280	NaN	0.000000	0.001629	0.001811	28.0802	0.085461	0.001937	44.1209	168.353	-167.612	0.068891	1.040845	-0.091742	-0.093071	0.003280	44.1209	-0.091798	-1.190645	-0.002755	NaN
568	1.000000	1.052175	7.37061e+06	-48689.1	1005.82	-29761.5	0.000000	0.000000	7.053168	-0.061138	NaN	0.000000	0.001615	0.001843	28.0804	0.040156	0.002089	19.2198	-96.3637	17.3935	-0.032646	1.050812	-0.081741	-0.083105	-0.061138	19.2198	-0.079356	-0.596399	0.102511	NaN
568	1.000000	1.062185	7.37061e+06	-48689.1	1005.82	-29761.5	0.000000	0.000000	7.063182	0.049489	NaN	0.000000	0.001627	0.001781	28.08	0.090183	0.001920	46.9604	39.4224	-165.745	0.029730	1.060842	-0.071732	-0.073074	0.049489	46.9604	-0.072522	-0.397977	-0.124352	NaN
568	1.000000	1.072183	7.37061e+06	-48689.1	1005.82	-29761.5	0.000000	0.000000	7.073182	0.091021	NaN	0.000000	0.001632	0.001807	28.0802	0.094353	0.001938	48.6972	138.379	16.2434	0.130066	1.070788	-0.061733	-0.063128	0.091021	48.6972	-0.063135	-0.221056	-0.411757	NaN
568	1.000000	1.082195	7.37061e+06	-48689.1	1005.82	-29761.5	0.000000	0.000000	7.083191	0.030960	NaN	0.000000	0.001600	0.001756	28.0813	0.096196	0.001979	48.6027	-163.657	-166.154	-0.048919	1.080895	-0.051722	-0.053022	0.030960	48.6027	-0.052199	-0.106283	-0.291296	NaN
568	1.000000	1.092198	7.37061e+06	-48689.1	1005.82	-29761.5	0.000000	0.000000	7.093197	0.096607	NaN	0.000000	0.001627	0.001796	28.0813	0.042273	0.002097	20.1579	67.3515	15.6446	-0.005064	1.090917	-0.041719	-0.043000	0.096607	20.1579	-0.045313	-0.065700	-1.470434	NaN
568	1.000000	1.102185	7.37061e+06	-48689.1	1005.82	-29761.5	0.000000	0.000000	7.103181	0.017993	NaN	0.000000	0.001657	0.001793	28.0814	0.077692	0.001976	39.3167	-37.6769	-163.712	0.014969	1.100884	-0.031731	-0.033032	0.017993	39.3167	-0.032074	-0.026334	-0.683264	NaN
568	1.000000	1.112199	7.37061e+06	-48689.1	1005.82	-29761.5	0.000000	0.000000	7.113198	0.086955	NaN	0.000000	0.001620	0.001786	28.0817	0.073327	0.001991	36.8287	-138.127	14.6793	0.002405	1.110810	-0.021717	-0.023106	0.086955	36.8287	-0.023488	-0.015415	-5.640922	NaN
568	1.000000	1.122197	7.37061e+06	-48689.1	1005.82	-29761.5	0.000000	0.000000	7.123192	0.003468	NaN	0.000000	0.001614	0.001820	28.0816	0.058691	0.002103	27.9099	160.149	-165.396	-0.017148	1.120895	-0.011719	-0.013022	0.003468	27.9099	-0.011813	-0.007421	-0.467258	NaN
568	1.000000	1.132176	7.37061e+06	-48689.1	1005.82	-29761.5	0.000000	0.000000	7.133200	0.690856	NaN	0.000000	0.001612	0.001838	28.0815	1.182657	0.001930	612.641	14.6529	13.8293	0.154345	1.130864	-0.001740	-0.003053	0.690856	612.641	-0.002586	-0.001841	-375.223	NaN
568	2.000000	1.140748	7.37061e+06	-48689.1	1005.82	-29761.5	0.000000	0.000000	7.142166	10.2899	NaN	0.000000	0.001593	0.001826	28.082	9.420929	0.001384	6806.23	5.027184	-174.005	9.517761	1.140340	0.006832	0.006424	10.2899	6806.23	0.005698	0.004779	2153.11	89951.2
568	2.000000	1.143302	7.37061e+06	-48689.1	1005.82	-29761.5	0.000000	0.000000	7.144849	13.4251	NaN	0.000000	0.001625	0.001831	28.0816	12.5695	0.001667	7538.88	4.862398	7.145082	12.729	1.142931	0.009385	0.009015	13.4251	7538.88	0.008050	0.007093	1892.61	81780.8
568	2.000000	1.145728	7.37061e+06	-48689.1	1005.82	-29761.5	0.000000	0.000000	7.147464	18.0415	NaN	0.000000	0.001625	0.001855	28.0822	15.2323	0.001685	9041.36	5.470568	-173.48	17.0837	1.145374	0.011811	0.011457	18.0415	9041.36	0.010315	0.009533	1892.49	84603.4
568	2.000000	1.148255	7.37061e+06	-48689.1	1005.82	-29761.5	0.000000	0.000000	7.150156	22.0558	NaN	0.000000	0.001617	0.001808	28.0815	17.395	0.001696	10256.8	8.597338	2.718238	21.8441	1.147957	0.014338	0.014041	22.0558	10256.8	0.012725	0.012371	1782.92	84253.4
568	2.000000	1.150729	7.37061e+06	-48689.1	1005.82	-29761.5	0.000000	0.000000	7.152781	25.6963	NaN	0.000000	0.001542	0.001822	28.0825	20.328	0.001733	11727.5	8.728374	-177.818	26.4201	1.150448	0.016813	0.016532	25.6963	11727.5	0.015170	0.015512	1656.53	86028.6
568	2.000000	1.153191	7.37061e+06	-48689.1	1005.82	-29761.5	0.000000	0.000000	7.155516	32.3456	NaN	0.000000	0.001583	0.001837	28.0816	23.3499	0.001791	13037.3	6.438205	2.490312	32.1382	1.152874	0.019275	0.018958	32.3456	13037.3	0.017414	0.018640	1735.25	87244
568	2.000000	1.155676	7.37061e+06	-48689.1	1005.82	-29761.5	0.000000	0.000000	7.158122	35.2883	NaN	0.000000	0.001559	0.001845	28.0822	26.0696	0.001841	14159.4	4.166859	-176.238	33.711	1.155392	0.021760	0.021475	35.2883	14159.4	0.019891	0.022371	1577.42	86492.3
568	2.000000	1.158266	7.37061e+06	-48689.1	1005.82	-29761.5	0.000000	0.000000	7.161023	42.8742	NaN	0.000000	0.001538	0.001834	28.0815	28.3827	0.001764	16092.1	6.874978	1.664909	44.9561	1.157721	0.024349	0.023804	42.8742	16092.1	0.022351	0.026372	1625.75	90534.7
568	2.000000	1.160693	7.37061e+06	-48689.1	1005.82	-29761.5	0.000000	0.000000	7.163835	52.2207	NaN	0.000000	0.001546	0.001842	28.0821	30.4702	0.001762	17294.3	4.017395	-177.146	50.7417	1.160262	0.026776	0.026346	52.2207	17294.3	0.024512	0.030133	1733	91023.5
568	2.000000	1.163134	7.37061e+06	-48689.1	1005.82	-29761.5	0.000000	0.000000	7.166444	56.3158	NaN	0.000000	0.001541	0.001862	28.0804	33.7809	0.001885	17924.2	7.068876	-0.778536	54.1301	1.162891	0.029217	0.028975	56.3158	17924.2	0.026861	0.034488	1632.89	88181.4
568	2.000000	1.165701	7.37061e+06	-48689.1	1005.82	-29761.5	0.000000	0.000000	7.169424	66.3404	NaN	0.000000	0.001544	0.001861	28.0815	36.1076	0.001798	20080.8	10.6854	174.729	66.5663	1.165321	0.031785	0.031405	66.3404	20080.8	0.029307	0.039320	1687.19	92522.5
568	2.000000	1.168192	7.37061e+06	-48689.1	1005.82	-29761.5	0.000000	0.000000	7.172256	74.6583	NaN	0.000000	0.001536	0.001858	28.0805	37.3053	0.001725	21630.8	3.043332	1.281479	72.5265	1.167831	0.034275	0.033915	74.6583	21630.8	0.031687	0.044312	1684.82	93882.3
568	2.000000	1.170718	7.37061e+06	-48689.1	1005.82	-29761.5	0.000000	0.000000	7.175016	80.3415	NaN	0.000000	0.001552	0.001769	28.0811	39.9637	0.001749	22847.8	3.561048	179.554	81.7879	1.170363	0.036801	0.036446	80.3415	22847.8	0.034164	0.049818	1612.72	93524.9
568	2.000000	1.173171	7.37061e+06	-48689.1	1005.82	-29761.5	0.000000	0.000000	7.177861	89.8502	NaN	0.000000	0.001586	0.001820	28.0803	42.696	0.001802	23699.3	4.666358	-1.500334	88.6005	1.172816	0.039255	0.038899	89.8502	23699.3	0.036411	0.055084	1631.16	92256.5
568	2.000000	1.175633	7.37061e+06	-48689.1	1005.82	-29761.5	0.000000	0.000000	7.180751	100.279	NaN	0.000000	0.001593	0.001843	28.0817	45.0783	0.001676	26898.4	1.730484	179.44	97.4153	1.175377	0.041717	0.041461	100.279	26898.4	0.038921	0.061269	1636.72	99284.2
568	2.000000	1.178167	7.37061e+06	-48689.1	1005.82	-29761.5	0.000000	0.000000	7.183764	111.921	NaN	0.000000	0.001552	0.001832	28.0805	46.8976	0.001817	25814	2.109475	0.655637	109.146	1.177837	0.044251	0.043920	111.921	25814	0.040999	0.066636	1679.59	91363.8
568	2.000000	1.180683	7.37061e+06	-48689.1	1005.82	-29761.5	0.000000	0.000000	7.186596	119.602	NaN	0.000000	0.001593	0.001803	28.0808	49.7481	0.001826	27240.5	2.521519	179.322	119.769	1.180418	0.046767	0.046501	119.602	27240.5	0.043474	0.073314	1631.37	91916.8
568	2.000000	1.183161	7.37061e+06	-48689.1	1005.82	-29761.5	0.000000	0.000000	7.189858	138.673	NaN	0.000000	0.001544	0.001817	28.0804	53.0186	0.001869	28361.7	3.572419	-2.433920	136.673	1.182714	0.049245	0.048798	138.673	28361.7	0.045578	0.079236	1750.13	92054.4
568	2.000000	1.185621	7.37061e+06	-48689.1	1005.82	-29761.5	0.000000	0.000000	7.192736	148.858	NaN	0.000000	0.001557	0.001838	28.081	55.7534	0.001746	31939.3	4.294373	176.614	146.896	1.185244	0.051705	0.051328	148.858	31939.3	0.048209	0.086958	1711.83	98956.1
568	2.000000	1.188161	7.37061e+06	-48689.1	1005.82	-29761.5	0.000000	0.000000	7.195952	165.306	NaN	0.000000	0.001580	0.001835	28.0807	56.7091	0.001716	33051.5	5.977034	-4.901450	161.619	1.187722	0.054244	0.053805	165.306	33051.5	0.050493	0.093944	1759.62	98521.2
568	2.000000	1.190675	7.37061e+06	-48689.1	1005.82	-29761.5	0.000000	0.000000	7.198824	173.984	NaN	0.000000	0.001586	0.001861	28.0807	59.8873	0.001758	34064.8	6.840295	173.445	173.036	1.190286	0.056759	0.056370	173.984	34064.8	0.052928	0.101679	1711.1	97602.8
568	2.000000	1.193173	7.37061e+06	-48689.1	1005.82	-29761.5	0.000000	0.000000	7.201730	183.911	NaN	0.000000	0.001603	0.001829	28.0816	63.2672	0.001839	34402	5.887504	-5.544682	183.415	1.192735	0.059256	0.058819	183.911	34402	0.055247	0.109319	1682.34	95062.8
568	2.000000	1.195627	7.37061e+06	-48689.1	1005.82	-29761.5	0.000000	0.000000	7.204517	192.021	NaN	0.000000	0.001570	0.001842	28.0818	65.8123	0.001970	33403.1	2.478416	177.591	191.833	1.195477	0.061711	0.061560	192.021	33403.1	0.057399	0.116647	1646.17	89355.6
568	2.000000	1.198184	7.37061e+06	-48689.1	1005.82	-29761.5	0.000000	0.000000	7.208022	215.073	NaN	0.000000	0.001584	0.001827	28.0818	68.0563	0.001868	36433.8	6.917005	-6.950129	215.089	1.197735	0.064267	0.063819	215.073	36433.8	0.059840	0.125236	1717.34	94061.9
568	2.000000	1.200627	7.37061e+06	-48689.1	1005.82	-29761.5	0.000000	0.000000	7.211024	228.675	NaN	0.000000	0.001554	0.001843	28.0817	69.7651	0.001812	38500	8.367469	171.452	228.836	1.200312	0.066711	0.066395	228.675	38500	0.062256	0.134023	1706.24	96082.7
568	2.000000	1.203139	7.37061e+06	-48689.1	1005.82	-29761.5	0.000000	0.000000	7.214040	240.944	NaN	0.000000	0.001541	0.001859	28.0819	72.5813	0.001893	38337.4	2.191359	-2.969762	240.319	1.202858	0.069222	0.068942	240.944	38337.4	0.064509	0.142470	1691.19	92796.9
568	2.000000	1.205623	7.37061e+06	-48689.1	1005.82	-29761.5	0.000000	0.000000	7.217227	258.021	NaN	0.000000	0.001577	0.001885	28.0818	74.4917	0.001817	41001.8	0.642620	178.036	258.123	1.205337	0.071707	0.071421	258.021	41001.8	0.066987	0.152048	1696.98	96069.6
568	2.000000	1.208109	7.37061e+06	-48689.1	1005.82	-29761.5	0.000000	0.000000	7.220492	276.971	NaN	0.000000	0.001576	0.001824	28.0819	75.6003	0.001896	39864.9	1.982068	-2.033371	272.845	1.207779	0.074193	0.073863	276.971	39864.9	0.068982	0.159972	1731.37	91062.9
568	2.000000	1.210606	7.37061e+06	-48689.1	1005.82	-29761.5	0.000000	0.000000	7.223404	287.067	NaN	0.000000	0.001579	0.001850	28.0819	78.984	0.001854	42599	4.590881	173.217	285.271	1.210359	0.076690	0.076443	287.067	42599	0.071636	0.170805	1680.67	94172.1
568	2.000000	1.213131	7.37061e+06	-48689.1	1005.82	-29761.5	0.000000	0.000000	7.226775	307.641	NaN	0.000000	0.001549	0.001849	28.0816	80.4288	0.001682	47827.9	1.173588	-3.687605	306.172	1.212838	0.079215	0.078921	307.641	47827.9	0.074391	0.182407	1686.57	102314
568	2.000000	1.215554	7.37061e+06	-48689.1	1005.82	-29761.5	0.000000	0.000000	7.229817	322.685	NaN	0.000000	0.001532	0.001802	28.0819	84.3492	0.001781	47370.2	3.450941	174.222	319.35	1.215337	0.081638	0.081421	322.685	47370.2	0.076529	0.191656	1683.67	98859.3
568	2.000000	1.218066	7.37061e+06	-48689.1	1005.82	-29761.5	0.000000	0.000000	7.233351	347.554	NaN	0.000000	0.001605	0.001836	28.0819	86.6169	0.001779	48680.5	8.390394	-10.4463	342.391	1.217736	0.084150	0.083820	347.554	48680.5	0.078795	0.201694	1723.18	99033.5
568	2.000000	1.220611	7.37061e+06	-48689.1	1005.82	-29761.5	0.000000	0.000000	7.236456	361.173	NaN	0.000000	0.001608	0.001842	28.0817	87.6491	0.001807	48495	1.511135	176.385	361.844	1.220377	0.086695	0.086460	361.173	48495	0.081109	0.212192	1702.11	96184.7
568	2.000000	1.223059	7.37061e+06	-48689.1	1005.82	-29761.5	0.000000	0.000000	7.239717	380.937	NaN	0.000000	0.001558	0.001828	28.0818	91.4347	0.001801	50772.8	6.010678	-9.459800	374.188	1.222744	0.089143	0.088828	380.937	50772.8	0.083515	0.223371	1705.41	98150.2
568	2.000000	1.225576	7.37061e+06	-48689.1	1005.82	-29761.5	0.000000	0.000000	7.242730	393.001	NaN	0.000000	0.001558	0.001825	28.0819	93.8804	0.001901	49383.2	2.877739	174.353	391.201	1.225382	0.091660	0.091465	393.001	49383.2	0.085691	0.233711	1681.57	93328.2
568	2.000000	1.228120	7.37061e+06	-48689.1	1005.82	-29761.5	0.000000	0.000000	7.246143	414.149	NaN	0.000000	0.001585	0.001840	28.0804	95.2158	0.001790	53193	3.787531	-7.046708	412.402	1.227940	0.094204	0.094023	414.149	53193	0.088364	0.246711	1678.68	97843.9
568	2.000000	1.230551	7.37061e+06	-48689.1	1005.82	-29761.5	0.000000	0.000000	7.249924	446.996	NaN	0.000000	0.001553	0.001828	28.0804	96.4382	0.001784	54065.2	1.123789	175.996	442.315	1.230185	0.096634	0.096268	446.996	54065.2	0.090434	0.257002	1739.27	97436.7
568	2.000000	1.232995	7.37061e+06	-48689.1	1005.82	-29761.5	0.000000	0.000000	7.253209	467.432	NaN	0.000000	0.001551	0.001839	28.0804	98.2498	0.001724	56977.1	1.940452	-5.072691	459.55	1.232725	0.099079	0.098808	467.432	56977.1	0.092926	0.269658	1733.43	100246
568	2.000000	1.235549	7.37061e+06	-48689.1	1005.82	-29761.5	0.000000	0.000000	7.256188	477.762	NaN	0.000000	0.001547	0.001841	28.0806	103.001	0.001839	56009.7	5.469552	171.216	474.25	1.235333	0.101633	0.101417	477.762	56009.7	0.095235	0.281636	1696.38	96425.6
568	2.000000	1.237933	7.37061e+06	-48689.1	1005.82	-29761.5	0.000000	0.000000	7.259557	501.715	NaN	0.000000	0.001569	0.001834	28.0805	103.044	0.001838	56050.2	1.224513	-4.704147	490.946	1.237721	0.104017	0.103804	501.715	56050.2	0.097303	0.292570	1714.85	94675.1
568	2.000000	1.238634	7.37061e+06	-48689.1	1005.82	-29761.5	0.000000	0.000000	7.260518	508.036	NaN	0.000000	0.001590	0.001831	28.0807	105.442	0.001847	57082.6	8.816682	169.031	509.271	1.238059	0.104718	0.104143	508.036	57082.6	0.098043	0.296526	1713.29	95773.5