File: remote_trans/data/nanoindenter/0828-1/data/Data_2025-08-06,11h17m57s/2025-07-22_16-23-58_1_1031.txt
2025-07-22, 16:23:58, 1
Index	Phase	Displacement	Time	Pos X	Pos Y	Pos Z	Rot A	Rot B	Piezo Z	Force A	Force B	Gripper	Voltage A	Voltage B	Temperature	Amplitude force	Amplitude pos	Stiffness	Phase shift	Phase excitation	Force A raw	Displacement raw	HMax	HMax raw	Real Force	Real Stiffness	Contact Depth	Area	Hardness	Reduced Mod.
[#]	[#]	[um]	[s]	[um]	[um]	[um]	[m°]	[m°]	[um]	[uN]	[uN]	[V]	[V]	[V]	[°C]	[uN]	[um]	[N/m]	[°]	[°]	[uN]	[um]	[um]	[um]	[uN]	[N/m]	[um]	[um^2]	[MPa]	[MPa]
1031	1.000000	0.002829	7.37513e+06	-51689.1	1055.82	-29751.3	0.000000	0.000000	6.002833	0.036661	NaN	0.000000	0.001551	0.001653	28.0822	0.019363	0.000974	19.8761	155.078	-172.339	0.114623	0.001522	-1.138917	-1.140223	0.036661	19.8761	-1.140300	-1.740865E+15	-2.105926E-17	NaN
1031	1.000000	0.012843	7.37513e+06	-51689.1	1055.82	-29751.3	0.000000	0.000000	6.012847	0.030794	NaN	0.000000	0.001583	0.001679	28.0822	0.041328	0.001294	31.9443	92.7429	17.6635	-0.011444	0.011473	-1.128903	-1.130273	0.030794	31.9443	-1.129626	-1.251985E+15	-2.459638E-17	NaN
1031	1.000000	0.022749	7.37513e+06	-51689.1	1055.82	-29751.3	0.000000	0.000000	6.022752	0.017547	NaN	0.000000	0.001581	0.001627	28.0824	0.075573	0.001789	42.245	12.0366	-168.904	0.065217	0.021480	-1.118996	-1.120266	0.017547	42.245	-1.119308	-9.103058E+14	-1.927548E-17	NaN
1031	1.000000	0.032709	7.37513e+06	-51689.1	1055.82	-29751.3	0.000000	0.000000	6.032708	-0.078027	NaN	0.000000	0.001608	0.001638	28.0824	0.148729	0.001782	83.439	179.542	16.06	-0.065826	0.031437	-1.109037	-1.110309	-0.078027	83.439	-1.108336	-6.485636E+14	1.203081E-16	NaN
1031	1.000000	0.042758	7.37513e+06	-51689.1	1055.82	-29751.3	0.000000	0.000000	6.042760	-0.024674	NaN	0.000000	0.001564	0.001685	28.0821	0.091234	0.002044	44.6395	0.995712	-164.33	-0.060969	0.041482	-1.098988	-1.100264	-0.024674	44.6395	-1.098573	-4.796372E+14	5.144407E-17	NaN
1031	1.000000	0.052770	7.37513e+06	-51689.1	1055.82	-29751.3	0.000000	0.000000	6.052771	-0.035915	NaN	0.000000	0.001569	0.001671	28.0821	0.035253	0.002011	17.5333	70.3528	12.0896	-0.039916	0.051420	-1.088976	-1.090325	-0.035915	17.5333	-1.087439	-3.399615E+14	1.056433E-16	NaN
1031	1.000000	0.062740	7.37513e+06	-51689.1	1055.82	-29751.3	0.000000	0.000000	6.062741	-0.015313	NaN	0.000000	0.001559	0.001701	28.0823	0.049638	0.001981	25.0567	-176.898	-162.49	0.015094	0.061416	-1.079006	-1.080330	-0.015313	25.0567	-1.078548	-2.582345E+14	5.929711E-17	NaN
1031	1.000000	0.072750	7.37513e+06	-51689.1	1055.82	-29751.3	0.000000	0.000000	6.072752	-0.004541	NaN	0.000000	0.001581	0.001672	28.0822	0.015519	0.002055	7.550409	-14.0732	13.4371	0.040966	0.071421	-1.068996	-1.070324	-0.004541	7.550409	-1.068545	-1.895151E+14	2.396098E-17	NaN
1031	1.000000	0.082743	7.37513e+06	-51689.1	1055.82	-29751.3	0.000000	0.000000	6.082746	0.011473	NaN	0.000000	0.001550	0.001622	28.0823	0.065871	0.001984	33.2052	-22.6257	-164.429	0.092518	0.081458	-1.059003	-1.060288	0.011473	33.2052	-1.059262	-1.422011E+14	-8.068229E-17	NaN
1031	1.000000	0.092756	7.37513e+06	-51689.1	1055.82	-29751.3	0.000000	0.000000	6.092759	0.008849	NaN	0.000000	0.001484	0.001629	28.0826	0.026238	0.001966	13.3459	-21.6351	11.8196	-0.075039	0.091352	-1.048990	-1.050394	0.008849	13.3459	-1.049487	-1.050795E+14	-8.420881E-17	NaN
1031	1.000000	0.102778	7.37513e+06	-51689.1	1055.82	-29751.3	0.000000	0.000000	6.102783	0.073790	NaN	0.000000	0.001517	0.001678	28.0825	0.074767	0.001968	37.9899	-174.917	-164.947	0.072504	0.101448	-1.038968	-1.040298	0.073790	37.9899	-1.040425	-7.937421E+13	-9.296434E-16	NaN
1031	1.000000	0.112783	7.37513e+06	-51689.1	1055.82	-29751.3	0.000000	0.000000	6.112786	0.012189	NaN	0.000000	0.001576	0.001633	28.0836	0.061132	0.001911	31.9839	97.3476	18.8984	-0.000832	0.111410	-1.028963	-1.030336	0.012189	31.9839	-1.029249	-5.615351E+13	-2.170700E-16	NaN
1031	1.000000	0.122770	7.37513e+06	-51689.1	1055.82	-29751.3	0.000000	0.000000	6.122771	-0.020553	NaN	0.000000	0.001539	0.001609	28.0836	0.055075	0.002015	27.3313	8.067055	-164.579	-0.022934	0.121494	-1.018976	-1.020252	-0.020553	27.3313	-1.018412	-4.014075E+13	5.120283E-16	NaN
1031	1.000000	0.132754	7.37513e+06	-51689.1	1055.82	-29751.3	0.000000	0.000000	6.132760	0.065856	NaN	0.000000	0.001533	0.001619	28.0838	0.077341	0.002125	36.3991	162.95	12.8689	0.010723	0.131458	-1.008991	-1.010288	0.065856	36.3991	-1.010348	-3.126586E+13	-2.106321E-15	NaN
1031	1.000000	0.142776	7.37513e+06	-51689.1	1055.82	-29751.3	0.000000	0.000000	6.142777	-0.038056	NaN	0.000000	0.001570	0.001623	28.0833	0.040768	0.002072	19.6774	-16.8681	-166.363	-0.052901	0.141449	-0.998970	-1.000297	-0.038056	19.6774	-0.997519	-2.100709E+13	1.811573E-15	NaN
1031	1.000000	0.152774	7.37513e+06	-51689.1	1055.82	-29751.3	0.000000	0.000000	6.152772	-0.109724	NaN	0.000000	0.001567	0.001633	28.0833	0.044576	0.001951	22.8444	-8.270650	14.1466	-0.118898	0.151421	-0.988971	-0.990325	-0.109724	22.8444	-0.985369	-1.441244E+13	7.613131E-15	NaN
1031	1.000000	0.162788	7.37513e+06	-51689.1	1055.82	-29751.3	0.000000	0.000000	6.162790	-0.015732	NaN	0.000000	0.001546	0.001607	28.0835	0.098363	0.002060	47.7508	57.1294	-162.507	0.015943	0.161484	-0.978957	-0.980262	-0.015732	47.7508	-0.978710	-1.172290E+13	1.341978E-15	NaN
1031	1.000000	0.172800	7.37513e+06	-51689.1	1055.82	-29751.3	0.000000	0.000000	6.172800	-0.060056	NaN	0.000000	0.001522	0.001612	28.0836	0.056075	0.002081	26.9446	-12.3246	13.9291	-0.014457	0.171414	-0.968946	-0.970332	-0.060056	26.9446	-0.967274	-8.221079E+12	7.305130E-15	NaN
1031	1.000000	0.182801	7.37513e+06	-51689.1	1055.82	-29751.3	0.000000	0.000000	6.182801	-0.076949	NaN	0.000000	0.001537	0.001630	28.0834	0.030914	0.002008	15.3955	115.375	-163.328	-0.039281	0.181485	-0.958944	-0.960261	-0.076949	15.3955	-0.955196	-5.650598E+12	1.361787E-14	NaN
1031	1.000000	0.192813	7.37513e+06	-51689.1	1055.82	-29751.3	0.000000	0.000000	6.192815	-0.009405	NaN	0.000000	0.001538	0.001608	28.0835	0.081846	0.002071	39.5112	159.738	14.6223	0.011717	0.191508	-0.948933	-0.950238	-0.009405	39.5112	-0.948754	-4.626188E+12	2.032941E-15	NaN
1031	1.000000	0.202793	7.37513e+06	-51689.1	1055.82	-29751.3	0.000000	0.000000	6.202793	-0.056484	NaN	0.000000	0.001565	0.001640	28.0838	0.056706	0.001923	29.4899	-119.141	-166.347	0.013293	0.201505	-0.938953	-0.940241	-0.056484	29.4899	-0.937517	-3.263111E+12	1.730986E-14	NaN
1031	1.000000	0.212835	7.37513e+06	-51689.1	1055.82	-29751.3	0.000000	0.000000	6.212837	-0.011323	NaN	0.000000	0.001558	0.001640	28.0836	0.035164	0.002004	17.5513	62.4414	16.3385	-0.049632	0.211451	-0.928911	-0.930295	-0.011323	17.5513	-0.928427	-2.460171E+12	4.602720E-15	NaN
1031	1.000000	0.222798	7.37513e+06	-51689.1	1055.82	-29751.3	0.000000	0.000000	6.222801	0.009678	NaN	0.000000	0.001566	0.001604	28.0834	0.015365	0.001970	7.801489	-18.1422	-165.184	-0.023121	0.221477	-0.918948	-0.920269	0.009678	7.801489	-0.919878	-1.886085E+12	-5.131137E-15	NaN
1031	1.000000	0.232823	7.37513e+06	-51689.1	1055.82	-29751.3	0.000000	0.000000	6.232826	0.018570	NaN	0.000000	0.001542	0.001643	28.0836	0.086358	0.001919	44.9995	-111.47	17.2571	-0.024510	0.231445	-0.908923	-0.910301	0.018570	44.9995	-0.909233	-1.354561E+12	-1.370895E-14	NaN
1031	1.000000	0.242801	7.37513e+06	-51689.1	1055.82	-29751.3	0.000000	0.000000	6.242800	-0.059773	NaN	0.000000	0.001528	0.001656	28.0826	0.040057	0.001901	21.0745	165.495	-165.984	0.003443	0.241518	-0.898945	-0.900227	-0.059773	21.0745	-0.896818	-9.205942E+11	6.492902E-14	NaN
1031	1.000000	0.252843	7.37513e+06	-51689.1	1055.82	-29751.3	0.000000	0.000000	6.252844	-0.042395	NaN	0.000000	0.001561	0.001698	28.0822	0.083242	0.002097	39.6947	-78.785	16.2127	-0.077735	0.251511	-0.888903	-0.890235	-0.042395	39.6947	-0.888102	-7.018655E+11	6.040367E-14	NaN
1031	1.000000	0.262806	7.37513e+06	-51689.1	1055.82	-29751.3	0.000000	0.000000	6.262804	-0.115873	NaN	0.000000	0.001529	0.001669	28.0823	0.055998	0.001925	29.0942	-20.5623	-163.401	-0.037675	0.261512	-0.878940	-0.880234	-0.115873	29.0942	-0.875953	-4.808070E+11	2.409965E-13	NaN
1031	1.000000	0.272851	7.37513e+06	-51689.1	1055.82	-29751.3	0.000000	0.000000	6.272853	-0.006190	NaN	0.000000	0.001527	0.001623	28.0825	0.020189	0.002085	9.683480	137.999	15.1814	0.094502	0.271455	-0.868895	-0.870291	-0.006190	9.683480	-0.868415	-3.801900E+11	1.628077E-14	NaN
1031	1.000000	0.282851	7.37513e+06	-51689.1	1055.82	-29751.3	0.000000	0.000000	6.282852	-0.044920	NaN	0.000000	0.001510	0.001640	28.0825	0.127324	0.002086	61.0391	113.084	-163.477	0.012048	0.281539	-0.858895	-0.860206	-0.044920	61.0391	-0.858343	-2.777736E+11	1.617149E-13	NaN
1031	1.000000	0.292851	7.37513e+06	-51689.1	1055.82	-29751.3	0.000000	0.000000	6.292857	0.076089	NaN	0.000000	0.001540	0.001621	28.0823	0.112724	0.002163	52.1209	111	15.7904	0.050688	0.291473	-0.848894	-0.850273	0.076089	52.1209	-0.849989	-2.140882E+11	-3.554110E-13	NaN
1031	1.000000	0.302840	7.37513e+06	-51689.1	1055.82	-29751.3	0.000000	0.000000	6.302841	-0.035560	NaN	0.000000	0.001509	0.001642	28.0826	0.115760	0.002118	54.6563	-73.779	-165.974	-0.060796	0.301510	-0.838906	-0.840236	-0.035560	54.6563	-0.838418	-1.492293E+11	2.382932E-13	NaN
1031	1.000000	0.312876	7.37513e+06	-51689.1	1055.82	-29751.3	0.000000	0.000000	6.312876	-0.056458	NaN	0.000000	0.001526	0.001649	28.0829	0.085603	0.001992	42.9719	102.673	14.0465	-0.015811	0.311436	-0.828870	-0.830310	-0.056458	42.9719	-0.827885	-1.074262E+11	5.255483E-13	NaN
1031	1.000000	0.322863	7.37513e+06	-51689.1	1055.82	-29751.3	0.000000	0.000000	6.322864	-0.014963	NaN	0.000000	0.001518	0.001670	28.0826	0.030875	0.002047	15.086	128.415	-165.403	0.041378	0.321549	-0.818883	-0.820197	-0.014963	15.086	-0.818139	-7.924636E+10	1.888110E-13	NaN
1031	1.000000	0.332850	7.37513e+06	-51689.1	1055.82	-29751.3	0.000000	0.000000	6.332852	-0.017578	NaN	0.000000	0.001532	0.001643	28.0826	0.080344	0.002013	39.9136	158.032	14.5669	-0.082006	0.331534	-0.808896	-0.810212	-0.017578	39.9136	-0.808565	-5.876317E+10	2.991357E-13	NaN
1031	1.000000	0.342857	7.37513e+06	-51689.1	1055.82	-29751.3	0.000000	0.000000	6.342858	-0.036191	NaN	0.000000	0.001517	0.001635	28.0828	0.070243	0.002009	34.9633	131.614	-166.009	0.078195	0.341585	-0.798889	-0.800161	-0.036191	34.9633	-0.798112	-4.238726E+10	8.538174E-13	NaN
1031	1.000000	0.352847	7.37513e+06	-51689.1	1055.82	-29751.3	0.000000	0.000000	6.352849	-0.019702	NaN	0.000000	0.001507	0.001633	28.0826	0.067065	0.002011	33.3407	-121.422	13.8465	0.033233	0.351456	-0.788899	-0.790289	-0.019702	33.3407	-0.788456	-3.134052E+10	6.286492E-13	NaN
1031	1.000000	0.362878	7.37513e+06	-51689.1	1055.82	-29751.3	0.000000	0.000000	6.362881	0.003594	NaN	0.000000	0.001563	0.001623	28.0826	0.051895	0.001960	26.4745	24.1396	-163.031	0.058971	0.361589	-0.778867	-0.780157	0.003594	26.4745	-0.778969	-2.329288E+10	-1.542973E-13	NaN
1031	1.000000	0.372860	7.37513e+06	-51689.1	1055.82	-29751.3	0.000000	0.000000	6.372860	-0.073318	NaN	0.000000	0.001508	0.001629	28.0824	0.027832	0.001926	14.4497	124.085	15.9577	-0.079862	0.371526	-0.768885	-0.770219	-0.073318	14.4497	-0.765080	-1.507997E+10	4.861928E-12	NaN
1031	1.000000	0.382905	7.37513e+06	-51689.1	1055.82	-29751.3	0.000000	0.000000	6.382906	-0.013149	NaN	0.000000	0.001554	0.001639	28.084	0.119918	0.001956	61.3034	-132.302	-165.547	-0.041993	0.381620	-0.758841	-0.760126	-0.013149	61.3034	-0.758680	-1.234095E+10	1.065442E-12	NaN
1031	1.000000	0.392924	7.37513e+06	-51689.1	1055.82	-29751.3	0.000000	0.000000	6.392925	-0.035704	NaN	0.000000	0.001544	0.001645	28.0837	0.106265	0.001946	54.6152	177.143	13.5506	-0.105990	0.391512	-0.748822	-0.750233	-0.035704	54.6152	-0.748331	-8.922850E+9	4.001411E-12	NaN
1031	1.000000	0.402896	7.37513e+06	-51689.1	1055.82	-29751.3	0.000000	0.000000	6.402896	-0.065623	NaN	0.000000	0.001574	0.001619	28.0836	0.015207	0.002074	7.333464	18.678	-162.326	-0.104178	0.401629	-0.738849	-0.740117	-0.065623	7.333464	-0.732138	-5.369650E+9	1.222103E-11	NaN
1031	1.000000	0.412903	7.37513e+06	-51689.1	1055.82	-29751.3	0.000000	0.000000	6.412906	-0.003633	NaN	0.000000	0.001614	0.001614	28.0837	0.094761	0.001907	49.6853	120.377	14.0011	0.046692	0.411541	-0.728843	-0.730205	-0.003633	49.6853	-0.728788	-4.833757E+9	7.515835E-13	NaN
1031	1.000000	0.422879	7.37513e+06	-51689.1	1055.82	-29751.3	0.000000	0.000000	6.422884	0.063003	NaN	0.000000	0.001599	0.001678	28.084	0.046012	0.002054	22.4001	132.413	-163.429	0.020168	0.421568	-0.718867	-0.720177	0.063003	22.4001	-0.720976	-3.782568E+9	-1.665619E-11	NaN
1031	1.000000	0.432900	7.37513e+06	-51689.1	1055.82	-29751.3	0.000000	0.000000	6.432902	-0.006568	NaN	0.000000	0.001586	0.001688	28.0838	0.078722	0.001944	40.4998	-170.195	15.699	-0.040633	0.431580	-0.708846	-0.710166	-0.006568	40.4998	-0.708725	-2.574200E+9	2.551531E-12	NaN
1031	1.000000	0.442886	7.37513e+06	-51689.1	1055.82	-29751.3	0.000000	0.000000	6.442887	-0.039002	NaN	0.000000	0.001617	0.001693	28.0839	0.053766	0.001990	27.0121	-43.9004	-164.226	-0.091420	0.441663	-0.698860	-0.700082	-0.039002	27.0121	-0.697777	-1.824612E+9	2.137553E-11	NaN
1031	1.000000	0.452894	7.37513e+06	-51689.1	1055.82	-29751.3	0.000000	0.000000	6.452895	-0.038257	NaN	0.000000	0.001592	0.001653	28.0839	0.033015	0.002063	16	-49.1383	15.5121	-0.026070	0.451531	-0.688852	-0.690215	-0.038257	16	-0.687059	-1.302312E+9	2.937621E-11	NaN
1031	1.000000	0.462895	7.37513e+06	-51689.1	1055.82	-29751.3	0.000000	0.000000	6.462899	0.041051	NaN	0.000000	0.001611	0.001663	28.0841	0.082929	0.002126	39.0097	-172.954	-166.46	-0.023327	0.461615	-0.678851	-0.680131	0.041051	39.0097	-0.679640	-1.031060E+9	-3.981441E-11	NaN
1031	1.000000	0.472910	7.37513e+06	-51689.1	1055.82	-29751.3	0.000000	0.000000	6.472912	0.004672	NaN	0.000000	0.001591	0.001649	28.0839	0.123613	0.001957	63.1709	-164.148	12.9087	-0.054898	0.471607	-0.668836	-0.670139	0.004672	63.1709	-0.668892	-7.348871E+8	-6.356937E-12	NaN
1031	1.000000	0.482935	7.37513e+06	-51689.1	1055.82	-29751.3	0.000000	0.000000	6.482934	-0.100632	NaN	0.000000	0.001618	0.001704	28.0838	0.038142	0.001910	19.9707	161.217	-162.55	-0.114703	0.481614	-0.658810	-0.660131	-0.100632	19.9707	-0.655031	-4.746736E+8	2.120020E-10	NaN
1031	1.000000	0.492930	7.37513e+06	-51689.1	1055.82	-29751.3	0.000000	0.000000	6.492931	-0.031130	NaN	0.000000	0.001597	0.001726	28.084	0.038883	0.001981	19.6295	-57.51	9.610001	-0.114432	0.491565	-0.648816	-0.650180	-0.031130	19.6295	-0.647626	-3.757425E+8	8.284826E-11	NaN
1031	1.000000	0.502954	7.37513e+06	-51689.1	1055.82	-29751.3	0.000000	0.000000	6.502955	-0.036776	NaN	0.000000	0.001584	0.001705	28.0838	0.085833	0.002045	41.9651	93.96	-168.439	-0.009245	0.501617	-0.638792	-0.640129	-0.036776	41.9651	-0.638134	-2.784138E+8	1.320910E-10	NaN
1031	1.000000	0.512932	7.37513e+06	-51689.1	1055.82	-29751.3	0.000000	0.000000	6.512934	-0.027669	NaN	0.000000	0.001588	0.001657	28.0834	0.047029	0.002026	23.2123	77.2914	15.8914	-0.008806	0.511561	-0.628813	-0.630185	-0.027669	23.2123	-0.627919	-2.015806E+8	1.372579E-10	NaN
1031	1.000000	0.522957	7.37513e+06	-51689.1	1055.82	-29751.3	0.000000	0.000000	6.522960	0.003017	NaN	0.000000	0.001649	0.001691	28.0824	0.076828	0.001911	40.2094	41.3095	-162.499	-0.027819	0.521651	-0.618789	-0.620095	0.003017	40.2094	-0.618845	-1.512711E+8	-1.994510E-11	NaN
1031	1.000000	0.532948	7.37513e+06	-51689.1	1055.82	-29751.3	0.000000	0.000000	6.532952	0.032537	NaN	0.000000	0.001570	0.001703	28.0826	0.108415	0.002034	53.3088	-63.223	13.9575	0.040070	0.531608	-0.608797	-0.610137	0.032537	53.3088	-0.609255	-1.116521E+8	-2.914110E-10	NaN
1031	1.000000	0.542973	7.37513e+06	-51689.1	1055.82	-29751.3	0.000000	0.000000	6.542976	0.004823	NaN	0.000000	0.001610	0.001639	28.0823	0.118411	0.002087	56.7274	-171.644	-162.407	0.027966	0.541686	-0.598773	-0.600060	0.004823	56.7274	-0.598837	-8.024857E+7	-6.009667E-11	NaN
1031	1.000000	0.552945	7.37513e+06	-51689.1	1055.82	-29751.3	0.000000	0.000000	6.552948	0.007280	NaN	0.000000	0.001616	0.001682	28.0822	0.052592	0.001861	28.26	120.522	14.4409	-0.023701	0.551608	-0.588801	-0.590138	0.007280	28.26	-0.588994	-5.872168E+7	-1.239703E-10	NaN
1031	1.000000	0.562978	7.37513e+06	-51689.1	1055.82	-29751.3	0.000000	0.000000	6.562979	-0.026560	NaN	0.000000	0.001586	0.001684	28.0822	0.073307	0.002053	35.6989	127.303	-165.999	-0.043231	0.561705	-0.578768	-0.580041	-0.026560	35.6989	-0.578210	-4.168825E+7	6.371132E-10	NaN
1031	1.000000	0.572962	7.37514e+06	-51689.1	1055.82	-29751.3	0.000000	0.000000	6.572962	-0.052386	NaN	0.000000	0.001603	0.001677	28.082	0.088410	0.002011	43.9662	123.875	17.3094	0.004151	0.571664	-0.568784	-0.570082	-0.052386	43.9662	-0.567890	-3.002469E+7	1.744777E-9	NaN
1031	1.000000	0.582950	7.37514e+06	-51689.1	1055.82	-29751.3	0.000000	0.000000	6.582952	-0.014656	NaN	0.000000	0.001615	0.001688	28.0821	0.094240	0.001977	47.6669	-50.4043	-163.393	0.044875	0.581640	-0.558796	-0.560106	-0.014656	47.6669	-0.558565	-2.231136E+7	6.568875E-10	NaN
1031	1.000000	0.592965	7.37514e+06	-51689.1	1055.82	-29751.3	0.000000	0.000000	6.592963	-0.086938	NaN	0.000000	0.001568	0.001695	28.0822	0.066619	0.002132	31.25	84.6478	16.6307	-0.105041	0.591594	-0.548781	-0.550152	-0.086938	31.25	-0.546695	-1.528146E+7	5.689099E-9	NaN
1031	1.000000	0.602965	7.37514e+06	-51689.1	1055.82	-29751.3	0.000000	0.000000	6.602964	-0.089410	NaN	0.000000	0.001608	0.001690	28.0824	0.131714	0.001903	69.2272	-60.9234	-167.619	-0.042066	0.601707	-0.538781	-0.540039	-0.089410	69.2272	-0.537812	-1.150830E+7	7.769199E-9	NaN
1031	1.000000	0.612984	7.37514e+06	-51689.1	1055.82	-29751.3	0.000000	0.000000	6.612985	-0.042090	NaN	0.000000	0.001602	0.001685	28.0823	0.055229	0.001999	27.6294	-160.421	15.8958	-0.110432	0.611669	-0.528762	-0.530077	-0.042090	27.6294	-0.527619	-8.3082e+06	5.066046E-9	NaN
1031	1.000000	0.622993	7.37514e+06	-51689.1	1055.82	-29751.3	0.000000	0.000000	6.622997	0.023850	NaN	0.000000	0.001615	0.001696	28.0822	0.038556	0.001923	20.0534	22.5299	-163.906	-0.003526	0.621760	-0.518752	-0.519986	0.023850	20.0534	-0.519644	-6.43654e+06	-3.705479E-9	NaN
1031	1.000000	0.632999	7.37514e+06	-51689.1	1055.82	-29751.3	0.000000	0.000000	6.633002	0.024645	NaN	0.000000	0.001585	0.001696	28.0821	0.040629	0.001988	20.4367	-11.477	16.4127	0.048504	0.631629	-0.508747	-0.510117	0.024645	20.4367	-0.509651	-4.67259e+06	-5.274439E-9	NaN
1031	1.000000	0.643016	7.37514e+06	-51689.1	1055.82	-29751.3	0.000000	0.000000	6.643015	-0.071039	NaN	0.000000	0.001591	0.001655	28.0822	0.040085	0.002065	19.4101	-41.4856	-165.468	-0.018505	0.641649	-0.498730	-0.500096	-0.071039	19.4101	-0.495985	-3.01293e+06	2.357805E-8	NaN
1031	1.000000	0.653005	7.37514e+06	-51689.1	1055.82	-29751.3	0.000000	0.000000	6.653007	-0.012432	NaN	0.000000	0.001603	0.001693	28.0836	0.088883	0.002004	44.3522	77.5057	17.8253	0.064550	0.651636	-0.488740	-0.490109	-0.012432	44.3522	-0.488530	-2.37056e+06	5.244522E-9	NaN
1031	1.000000	0.662993	7.37514e+06	-51689.1	1055.82	-29751.3	0.000000	0.000000	6.662993	-0.050755	NaN	0.000000	0.001598	0.001701	28.0838	0.072728	0.001979	36.7416	56.4458	-163.356	0.013204	0.661718	-0.478753	-0.480027	-0.050755	36.7416	-0.477717	-1.67326e+06	3.033290E-8	NaN
1031	1.000000	0.673012	7.37514e+06	-51689.1	1055.82	-29751.3	0.000000	0.000000	6.673011	-0.067396	NaN	0.000000	0.001641	0.001636	28.084	0.040918	0.001969	20.779	88.1797	16.1508	-0.055674	0.671621	-0.468734	-0.470124	-0.067396	20.779	-0.466301	-1.15749e+06	5.822594E-8	NaN
1031	1.000000	0.682991	7.37514e+06	-51689.1	1055.82	-29751.3	0.000000	0.000000	6.682991	-0.059896	NaN	0.000000	0.001527	0.001713	28.0837	0.086368	0.002051	42.1005	127.118	-165.832	-0.059934	0.681745	-0.458755	-0.460001	-0.059896	42.1005	-0.457688	-876026	6.837285E-8	NaN
1031	1.000000	0.693007	7.37514e+06	-51689.1	1055.82	-29751.3	0.000000	0.000000	6.693010	0.030782	NaN	0.000000	0.001585	0.001712	28.0837	0.091337	0.001943	47.0101	-16.9622	14.1651	-0.022245	0.691619	-0.448739	-0.450127	0.030782	47.0101	-0.449230	-666043	-4.621583E-8	NaN
1031	1.000000	0.703026	7.37514e+06	-51689.1	1055.82	-29751.3	0.000000	0.000000	6.703028	-0.002124	NaN	0.000000	0.001547	0.001729	28.0837	0.099435	0.002043	48.6818	-54.3111	-165.613	0.025435	0.701736	-0.438720	-0.440009	-0.002124	48.6818	-0.438688	-472974	4.491412E-9	NaN
1031	1.000000	0.713023	7.37514e+06	-51689.1	1055.82	-29751.3	0.000000	0.000000	6.713027	0.016146	NaN	0.000000	0.001532	0.001739	28.0841	0.010128	0.002103	4.816982	-157.62	15.5995	-0.036638	0.711705	-0.428722	-0.430041	0.016146	4.816982	-0.431236	-371149	-4.350197E-8	NaN
1031	1.000000	0.723059	7.37514e+06	-51689.1	1055.82	-29751.3	0.000000	0.000000	6.723062	0.002248	NaN	0.000000	0.001561	0.001721	28.0838	0.096543	0.002091	46.1659	-121.999	-163.376	-0.003640	0.721739	-0.418686	-0.420007	0.002248	46.1659	-0.418723	-246774	-9.109468E-9	NaN
1031	1.000000	0.733018	7.37514e+06	-51689.1	1055.82	-29751.3	0.000000	0.000000	6.733022	0.034679	NaN	0.000000	0.001521	0.001726	28.0839	0.019809	0.002023	9.793393	115.644	15.792	0.037090	0.731717	-0.408728	-0.410029	0.034679	9.793393	-0.411384	-194121	-1.786442E-7	NaN
1031	1.000000	0.743036	7.37514e+06	-51689.1	1055.82	-29751.3	0.000000	0.000000	6.743037	-0.019530	NaN	0.000000	0.001510	0.001727	28.0838	0.118615	0.001984	59.7997	174.603	-164.342	-0.137212	0.741723	-0.398710	-0.400022	-0.019530	59.7997	-0.398465	-127086	1.536721E-7	NaN
1031	1.000000	0.753054	7.37514e+06	-51689.1	1055.82	-29751.3	0.000000	0.000000	6.753056	0.002746	NaN	0.000000	0.001556	0.001745	28.0843	0.080624	0.001980	40.7212	-96.692	17.0701	-0.006875	0.751667	-0.388692	-0.390078	0.002746	40.7212	-0.388743	-92294.5	-2.975203E-8	NaN
1031	1.000000	0.763060	7.37514e+06	-51689.1	1055.82	-29751.3	0.000000	0.000000	6.763060	-0.055201	NaN	0.000000	0.001528	0.001736	28.0838	0.100692	0.001996	50.436	155.94	-165.124	-0.110333	0.761752	-0.378686	-0.379994	-0.055201	50.436	-0.377865	-64452.3	8.564639E-7	NaN
1031	1.000000	0.773044	7.37514e+06	-51689.1	1055.82	-29751.3	0.000000	0.000000	6.773045	-0.015813	NaN	0.000000	0.001551	0.001725	28.0839	0.039267	0.001990	19.7289	-97.6843	15.5981	-0.029069	0.771658	-0.368702	-0.370088	-0.015813	19.7289	-0.368101	-46641.2	3.390293E-7	NaN
1031	1.000000	0.783085	7.37514e+06	-51689.1	1055.82	-29751.3	0.000000	0.000000	6.783086	-0.034929	NaN	0.000000	0.001548	0.001678	28.0839	0.044903	0.001952	23.0089	89.9457	-167.049	0.005731	0.781743	-0.358661	-0.360003	-0.034929	23.0089	-0.357523	-32810.7	1.064561E-6	NaN
1031	1.000000	0.793091	7.37514e+06	-51689.1	1055.82	-29751.3	0.000000	0.000000	6.793095	0.023720	NaN	0.000000	0.001542	0.001681	28.0828	0.072987	0.001894	38.53	151.821	12.7174	0.052557	0.791630	-0.348655	-0.350116	0.023720	38.53	-0.349116	-24784.2	-9.570533E-7	NaN
1031	1.000000	0.803058	7.37514e+06	-51689.1	1055.82	-29751.3	0.000000	0.000000	6.803058	-0.062215	NaN	0.000000	0.001542	0.001668	28.0826	0.108758	0.002000	54.3664	-144.776	-165.336	-0.027619	0.801746	-0.338688	-0.340000	-0.062215	54.3664	-0.337830	-16978.7	3.664277E-6	NaN
1031	1.000000	0.813025	7.37514e+06	-51689.1	1055.82	-29751.3	0.000000	0.000000	6.813027	-0.014126	NaN	0.000000	0.001524	0.001702	28.0825	0.083051	0.002099	39.5605	-7.472083	13.492	0.002065	0.811732	-0.328720	-0.330014	-0.014126	39.5605	-0.328453	-12381.7	1.140907E-6	NaN
1031	1.000000	0.823088	7.37514e+06	-51689.1	1055.82	-29751.3	0.000000	0.000000	6.823089	-0.038680	NaN	0.000000	0.001504	0.001672	28.0826	0.070565	0.002106	33.5128	86.5193	-167.904	0.001120	0.821744	-0.318658	-0.320002	-0.038680	33.5128	-0.317792	-8632.22	4.480904E-6	NaN
1031	1.000000	0.833091	7.37514e+06	-51689.1	1055.82	-29751.3	0.000000	0.000000	6.833095	0.056526	NaN	0.000000	0.001507	0.001693	28.0827	0.055564	0.002005	27.7102	-142.938	14.9375	-0.001219	0.831735	-0.308655	-0.310011	0.056526	27.7102	-0.310185	-6664.94	-8.481045E-6	NaN
1031	1.000000	0.843058	7.37514e+06	-51689.1	1055.82	-29751.3	0.000000	0.000000	6.843058	-0.053387	NaN	0.000000	0.001497	0.001684	28.0826	0.073846	0.002094	35.2616	58.112	-162.195	-0.084856	0.841793	-0.298688	-0.299952	-0.053387	35.2616	-0.297552	-4326.85	1.233847E-5	NaN
1031	1.000000	0.853097	7.37514e+06	-51689.1	1055.82	-29751.3	0.000000	0.000000	6.853098	-0.025155	NaN	0.000000	0.001462	0.001667	28.0826	0.019962	0.001993	10.0144	85.5039	16.1115	-0.078924	0.851678	-0.288649	-0.290068	-0.025155	10.0144	-0.286765	-2983.92	8.430120E-6	NaN
1031	1.000000	0.863088	7.37514e+06	-51689.1	1055.82	-29751.3	0.000000	0.000000	6.863092	0.026369	NaN	0.000000	0.001516	0.001651	28.0827	0.088355	0.001997	44.2426	19.7312	-163.22	-0.033018	0.861814	-0.278658	-0.279932	0.026369	44.2426	-0.279105	-2288.01	-1.152498E-5	NaN
1031	1.000000	0.873074	7.37514e+06	-51689.1	1055.82	-29751.3	0.000000	0.000000	6.873077	0.011023	NaN	0.000000	0.001493	0.001706	28.0825	0.103911	0.002040	50.9452	151.098	13.6902	0.026612	0.871731	-0.268671	-0.270015	0.011023	50.9452	-0.268834	-1598.85	-6.894372E-6	NaN
1031	1.000000	0.883105	7.37514e+06	-51689.1	1055.82	-29751.3	0.000000	0.000000	6.883107	-0.015539	NaN	0.000000	0.001509	0.001703	28.0826	0.036436	0.002020	18.0397	136.293	-165.995	0.007499	0.881825	-0.258641	-0.259921	-0.015539	18.0397	-0.257995	-1091.82	1.423248E-5	NaN
1031	1.000000	0.893100	7.37514e+06	-51689.1	1055.82	-29751.3	0.000000	0.000000	6.893100	-0.038196	NaN	0.000000	0.001542	0.001710	28.0825	0.107472	0.001998	53.7945	153.645	15.8069	-0.020263	0.891734	-0.248646	-0.250012	-0.038196	53.7945	-0.248114	-768.72	4.968846E-5	NaN
1031	1.000000	0.903114	7.37514e+06	-51689.1	1055.82	-29751.3	0.000000	0.000000	6.903116	-0.019771	NaN	0.000000	0.001530	0.001747	28.0827	0.063119	0.002006	31.4581	134.486	-163.713	0.024092	0.901792	-0.238632	-0.239954	-0.019771	31.4581	-0.238160	-538.013	3.674752E-5	NaN
1031	1.000000	0.913115	7.37514e+06	-51689.1	1055.82	-29751.3	0.000000	0.000000	6.913120	0.069918	NaN	0.000000	0.001549	0.001723	28.0826	0.030176	0.002026	14.8945	116.649	16.6751	0.010819	0.911705	-0.228631	-0.230041	0.069918	14.8945	-0.232152	-432.963	-0.000161	NaN
1031	1.000000	0.923113	7.37514e+06	-51689.1	1055.82	-29751.3	0.000000	0.000000	6.923115	-0.010357	NaN	0.000000	0.001592	0.001722	28.0834	0.014981	0.002055	7.290726	32.1459	-167.815	-0.048542	0.921788	-0.218632	-0.219957	-0.010357	7.290726	-0.217567	-253.943	4.078306E-5	NaN
1031	1.000000	0.933111	7.37514e+06	-51689.1	1055.82	-29751.3	0.000000	0.000000	6.933110	-0.079793	NaN	0.000000	0.001587	0.001733	28.0839	0.102409	0.001973	51.9044	-74.5052	14.0445	-0.089738	0.931751	-0.208635	-0.209995	-0.079793	51.9044	-0.207482	-174.569	0.000457	NaN
1031	1.000000	0.943111	7.37514e+06	-51689.1	1055.82	-29751.3	0.000000	0.000000	6.943113	0.007316	NaN	0.000000	0.001603	0.001766	28.084	0.076388	0.001990	38.3804	-149.945	-161.871	0.004896	0.941802	-0.198635	-0.199944	0.007316	38.3804	-0.198778	-125.777	-5.816683E-5	NaN
1031	1.000000	0.953113	7.37514e+06	-51689.1	1055.82	-29751.3	0.000000	0.000000	6.953112	-0.075034	NaN	0.000000	0.001576	0.001733	28.0838	0.109025	0.001884	57.8731	152.467	13.6542	-0.001235	0.951682	-0.188633	-0.190064	-0.075034	57.8731	-0.187661	-82.1993	0.000913	NaN
1031	1.000000	0.963130	7.37514e+06	-51689.1	1055.82	-29751.3	0.000000	0.000000	6.963130	-0.047182	NaN	0.000000	0.001573	0.001710	28.0839	0.024656	0.001985	12.4218	75.7876	-163.239	-0.067970	0.961907	-0.178616	-0.179839	-0.047182	12.4218	-0.175767	-51.6599	0.000913	NaN
1031	1.000000	0.973097	7.37514e+06	-51689.1	1055.82	-29751.3	0.000000	0.000000	6.973099	-0.011299	NaN	0.000000	0.001555	0.001703	28.0839	0.078184	0.002111	37.031	14.4892	8.988756	0.031226	0.971714	-0.168649	-0.170031	-0.011299	37.031	-0.168420	-38.559	0.000293	NaN
1031	1.000000	0.983148	7.37514e+06	-51689.1	1055.82	-29751.3	0.000000	0.000000	6.983151	0.012154	NaN	0.000000	0.001538	0.001697	28.084	0.133476	0.002075	64.3232	-133.056	-162.8	0.002614	0.981864	-0.158598	-0.159882	0.012154	64.3232	-0.158740	-26.0348	-0.000467	NaN
1031	1.000000	0.993125	7.37514e+06	-51689.1	1055.82	-29751.3	0.000000	0.000000	6.993128	0.014359	NaN	0.000000	0.001526	0.001721	28.0838	0.114807	0.001972	58.2263	-146.733	14.7771	-0.008492	0.991769	-0.148621	-0.149976	0.014359	58.2263	-0.148806	-17.226	-0.000834	NaN
1031	1.000000	1.003138	7.37514e+06	-51689.1	1055.82	-29751.3	0.000000	0.000000	7.003138	-0.056979	NaN	0.000000	0.001535	0.001731	28.0842	0.084546	0.001958	43.188	-141.087	-165.783	-0.005915	1.001853	-0.138608	-0.139893	-0.056979	43.188	-0.137618	-10.6673	0.005341	NaN
1031	1.000000	1.013145	7.37514e+06	-51689.1	1055.82	-29751.3	0.000000	0.000000	7.013145	-0.078984	NaN	0.000000	0.001541	0.001697	28.0839	0.009553	0.002031	4.702743	96.1607	13.8521	-0.085110	1.011786	-0.128600	-0.129960	-0.078984	4.702743	-0.116004	-4.006411	0.019714	NaN
1031	1.000000	1.023106	7.37514e+06	-51689.1	1055.82	-29751.3	0.000000	0.000000	7.023107	-0.038959	NaN	0.000000	0.001550	0.001694	28.0843	0.104357	0.002024	51.5717	-96.6141	-165.067	0.047662	1.021856	-0.118640	-0.119889	-0.038959	51.5717	-0.118073	-4.416162	0.008822	NaN
1031	1.000000	1.033174	7.37514e+06	-51689.1	1055.82	-29751.3	0.000000	0.000000	7.033173	-0.076604	NaN	0.000000	0.001574	0.001741	28.0838	0.028641	0.002116	13.5354	85.8197	13.8232	-0.038404	1.031813	-0.108572	-0.109932	-0.076604	13.5354	-0.104327	-2.273073	0.033701	NaN
1031	1.000000	1.043153	7.37514e+06	-51689.1	1055.82	-29751.3	0.000000	0.000000	7.043153	-0.040520	NaN	0.000000	0.001594	0.001709	28.084	0.064712	0.002015	32.1161	-43.8546	-161.239	-0.003507	1.041880	-0.098593	-0.099866	-0.040520	32.1161	-0.097647	-1.619121	0.025026	NaN
1031	1.000000	1.053152	7.37514e+06	-51689.1	1055.82	-29751.3	0.000000	0.000000	7.053155	0.019881	NaN	0.000000	0.001617	0.001678	28.0838	0.061001	0.001960	31.1277	66.6614	16.0115	-0.021353	1.051834	-0.088594	-0.089912	0.019881	31.1277	-0.089073	-1.028029	-0.019339	NaN
1031	1.000000	1.063180	7.37514e+06	-51689.1	1055.82	-29751.3	0.000000	0.000000	7.063183	-0.001276	NaN	0.000000	0.001601	0.001690	28.0827	0.026981	0.002041	13.2181	-105.568	-165.405	-0.064473	1.061833	-0.078565	-0.079913	-0.001276	13.2181	-0.078493	-0.567295	0.002250	NaN
1031	1.000000	1.073172	7.37514e+06	-51689.1	1055.82	-29751.3	0.000000	0.000000	7.073174	0.005142	NaN	0.000000	0.001591	0.001716	28.0823	0.107239	0.001984	54.062	-117.997	15.5772	-0.066484	1.071812	-0.068574	-0.069934	0.005142	54.062	-0.068645	-0.313639	-0.016396	NaN
1031	1.000000	1.083167	7.37514e+06	-51689.1	1055.82	-29751.3	0.000000	0.000000	7.083168	-0.033238	NaN	0.000000	0.001587	0.001702	28.0825	0.031136	0.002009	15.497	95.9321	-167.716	-0.009227	1.081878	-0.058579	-0.059867	-0.033238	15.497	-0.056970	-0.147150	0.225880	NaN
1031	1.000000	1.093189	7.37514e+06	-51689.1	1055.82	-29751.3	0.000000	0.000000	7.093190	-0.048156	NaN	0.000000	0.001529	0.001726	28.0823	0.077775	0.002148	36.2028	143.143	13.1351	0.046814	1.091826	-0.048556	-0.049919	-0.048156	36.2028	-0.047559	-0.076935	0.625936	NaN
1031	1.000000	1.103204	7.37514e+06	-51689.1	1055.82	-29751.3	0.000000	0.000000	7.103206	-0.018075	NaN	0.000000	0.001567	0.001696	28.0818	0.076251	0.001960	38.9073	68.6639	-166.027	-0.068723	1.101862	-0.038542	-0.039884	-0.018075	38.9073	-0.038193	-0.039873	0.453323	NaN
1031	1.000000	1.113191	7.37514e+06	-51689.1	1055.82	-29751.3	0.000000	0.000000	7.113191	-0.048622	NaN	0.000000	0.001562	0.001714	28.0822	0.020389	0.002089	9.760230	-6.959669	18.4886	0.090188	1.111841	-0.028555	-0.029905	-0.048622	9.760230	-0.024819	-0.016688	2.913640	NaN
1031	1.000000	1.123182	7.37514e+06	-51689.1	1055.82	-29751.3	0.000000	0.000000	7.123184	-0.000131	NaN	0.000000	0.001570	0.001707	28.0824	0.095791	0.002081	46.0363	-118.088	-161.857	-0.011086	1.121878	-0.018564	-0.019868	-0.000131	46.0363	-0.018562	-0.011542	0.011366	NaN
1031	1.000000	1.133176	7.37514e+06	-51689.1	1055.82	-29751.3	0.000000	0.000000	7.133177	-0.017109	NaN	0.000000	0.001575	0.001713	28.0821	0.171512	0.002018	84.9984	35.9501	14.8707	-0.040408	1.131828	-0.008570	-0.009918	-0.017109	84.9984	-0.008419	-0.005476	3.124078	NaN
1031	1.000000	1.143188	7.37514e+06	-51689.1	1055.82	-29751.3	0.000000	0.000000	7.143274	2.027402	NaN	0.000000	0.001537	0.001679	28.0821	2.904089	0.001771	1640.22	10.443	-166.429	1.080340	1.141817	0.001442	7.167990E-5	2.027402	1640.22	0.000515	0.000389	5216.71	76015.6
1031	2.000000	1.150266	7.37514e+06	-51689.1	1055.82	-29751.3	0.000000	0.000000	7.150646	9.193306	NaN	0.000000	0.001608	0.001674	28.0822	9.017239	0.001800	5010.86	10.6587	7.308264	9.104887	1.149869	0.008520	0.008123	9.193306	5010.86	0.007144	0.006176	1488.46	58252.9
1031	2.000000	1.152707	7.37514e+06	-51689.1	1055.82	-29751.3	0.000000	0.000000	7.153227	12.5707	NaN	0.000000	0.001595	0.001684	28.0826	11.5354	0.001759	6559.4	5.767610	-172.068	11.5497	1.152393	0.010962	0.010647	12.5707	6559.4	0.009524	0.008658	1451.99	64408
1031	2.000000	1.155236	7.37514e+06	-51689.1	1055.82	-29751.3	0.000000	0.000000	7.155906	16.234	NaN	0.000000	0.001564	0.001722	28.082	13.1825	0.001795	7346.07	2.009013	12.8924	15.7242	1.154804	0.013490	0.013058	16.234	7346.07	0.011832	0.011290	1437.93	63166
1031	2.000000	1.157673	7.37514e+06	-51689.1	1055.82	-29751.3	0.000000	0.000000	7.158527	20.6995	NaN	0.000000	0.001572	0.001731	28.0823	16.3118	0.001747	9338.47	11.0401	-178.847	21.106	1.157358	0.015927	0.015612	20.6995	9338.47	0.014265	0.014317	1445.75	71304.3
1031	2.000000	1.160168	7.37514e+06	-51689.1	1055.82	-29751.3	0.000000	0.000000	7.161121	23.1106	NaN	0.000000	0.001573	0.001698	28.0824	18.5637	0.001920	9667.73	8.628050	3.642805	22.1107	1.159876	0.018423	0.018131	23.1106	9667.73	0.016630	0.017521	1319.06	66730.4
1031	2.000000	1.162712	7.37514e+06	-51689.1	1055.82	-29751.3	0.000000	0.000000	7.163855	27.7291	NaN	0.000000	0.001590	0.001726	28.0839	21.7083	0.001756	12365.8	12.1312	177.417	29.0713	1.162334	0.020966	0.020588	27.7291	12365.8	0.019284	0.021430	1293.94	77176.7
1031	2.000000	1.165162	7.37514e+06	-51689.1	1055.82	-29751.3	0.000000	0.000000	7.166555	33.8144	NaN	0.000000	0.001620	0.001702	28.084	22.3278	0.001563	14288.9	3.675150	3.905686	32.5653	1.164793	0.023416	0.023047	33.8144	14288.9	0.021641	0.025188	1342.5	82258.2
1031	2.000000	1.167695	7.37514e+06	-51689.1	1055.82	-29751.3	0.000000	0.000000	7.169362	40.4791	NaN	0.000000	0.001620	0.001689	28.0838	25.2163	0.001785	14128.3	7.932542	-178.237	43.0606	1.167301	0.025949	0.025555	40.4791	14128.3	0.023800	0.028869	1402.18	75971.2
1031	2.000000	1.170105	7.37514e+06	-51689.1	1055.82	-29751.3	0.000000	0.000000	7.172056	47.3961	NaN	0.000000	0.001599	0.001726	28.0842	28.0738	0.001735	16184.1	6.536058	0.261591	45.8987	1.169739	0.028359	0.027993	47.3961	16184.1	0.026163	0.033165	1429.12	81194.4
1031	2.000000	1.172600	7.37514e+06	-51689.1	1055.82	-29751.3	0.000000	0.000000	7.174872	55.1731	NaN	0.000000	0.001582	0.001734	28.084	30.7199	0.001799	17077.8	4.367659	-178.16	53.3615	1.172251	0.030855	0.030505	55.1731	17077.8	0.028432	0.037555	1469.11	80513.4
1031	2.000000	1.175172	7.37514e+06	-51689.1	1055.82	-29751.3	0.000000	0.000000	7.177735	62.2622	NaN	0.000000	0.001597	0.001703	28.0837	32.9729	0.001796	18354.9	5.594014	0.524539	62.5596	1.174740	0.033426	0.032995	62.2622	18354.9	0.030882	0.042592	1461.84	81257.3
1031	2.000000	1.177589	7.37514e+06	-51689.1	1055.82	-29751.3	0.000000	0.000000	7.180425	68.9178	NaN	0.000000	0.001588	0.001693	28.084	34.2989	0.001710	20059.5	3.424962	-179.027	66.635	1.177312	0.035843	0.035566	68.9178	20059.5	0.033266	0.047786	1442.23	83838.8
1031	2.000000	1.180089	7.37514e+06	-51689.1	1055.82	-29751.3	0.000000	0.000000	7.183413	80.772	NaN	0.000000	0.001582	0.001723	28.0838	38.0068	0.001847	20579.4	5.335814	-1.893192	79.2397	1.179810	0.038343	0.038064	80.772	20579.4	0.035400	0.052680	1533.24	81918.2
1031	2.000000	1.182628	7.37514e+06	-51689.1	1055.82	-29751.3	0.000000	0.000000	7.186224	87.3804	NaN	0.000000	0.001588	0.001713	28.0839	40.9224	0.001741	23506	10.8159	171.693	87.5762	1.182293	0.040882	0.040547	87.3804	23506	0.038094	0.059195	1476.14	88269.1
1031	2.000000	1.185112	7.37514e+06	-51689.1	1055.82	-29751.3	0.000000	0.000000	7.189070	96.1763	NaN	0.000000	0.001543	0.001730	28.0838	42.8588	0.001829	23427.6	7.041192	-4.433920	94.4466	1.184819	0.043366	0.043074	96.1763	23427.6	0.040287	0.064773	1484.82	84101.7
1031	2.000000	1.187617	7.37514e+06	-51689.1	1055.82	-29751.3	0.000000	0.000000	7.192171	110.679	NaN	0.000000	0.001587	0.001745	28.084	44.6906	0.001785	25030.7	3.582146	178.277	110.486	1.187326	0.045871	0.045580	110.679	25030.7	0.042554	0.070797	1563.34	85949
1031	2.000000	1.190101	7.37514e+06	-51689.1	1055.82	-29751.3	0.000000	0.000000	7.194954	117.927	NaN	0.000000	0.001630	0.001729	28.084	48.3333	0.001843	26232.2	8.491004	-7.497488	115.759	1.189873	0.048356	0.048128	117.927	26232.2	0.044984	0.077542	1520.81	86067.5
1031	2.000000	1.192628	7.37514e+06	-51689.1	1055.82	-29751.3	0.000000	0.000000	7.197726	123.911	NaN	0.000000	0.001589	0.001717	28.0838	50.5299	0.001774	28486.7	6.021747	174.453	123.232	1.192477	0.050882	0.050731	123.911	28486.7	0.047620	0.085198	1454.39	89166.3
1031	2.000000	1.195073	7.37514e+06	-51689.1	1055.82	-29751.3	0.000000	0.000000	7.201155	147.823	NaN	0.000000	0.001637	0.001731	28.0834	52.1661	0.001833	28457.2	3.510182	-2.580119	145.704	1.194706	0.053327	0.052960	147.823	28457.2	0.049432	0.090664	1630.44	86347
1031	2.000000	1.197601	7.37514e+06	-51689.1	1055.82	-29751.3	0.000000	0.000000	7.203892	152.93	NaN	0.000000	0.001657	0.001726	28.0828	53.8071	0.001688	31867.9	-0.620741	-179.916	151.846	1.197398	0.055855	0.055653	152.93	31867.9	0.052256	0.099513	1536.79	92296.9
1031	2.000000	1.200081	7.37514e+06	-51689.1	1055.82	-29751.3	0.000000	0.000000	7.206758	162.298	NaN	0.000000	0.001614	0.001699	28.0827	57.6852	0.001770	32590.8	6.709492	-7.087595	157.991	1.199625	0.058336	0.057879	162.298	32590.8	0.054601	0.107162	1514.51	90959.4
1031	2.000000	1.202573	7.37514e+06	-51689.1	1055.82	-29751.3	0.000000	0.000000	7.209681	172.776	NaN	0.000000	0.001624	0.001738	28.0826	59.8314	0.001788	33460.6	1.441865	177.981	169.504	1.202333	0.060828	0.060588	172.776	33460.6	0.056955	0.115116	1500.89	90103.1
1031	2.000000	1.205069	7.37514e+06	-51689.1	1055.82	-29751.3	0.000000	0.000000	7.212850	189.147	NaN	0.000000	0.001680	0.001743	28.0826	61.1843	0.001835	33348.5	1.151805	-1.390343	185.724	1.204763	0.063323	0.063017	189.147	33348.5	0.059069	0.122493	1544.15	87055.2
1031	2.000000	1.207525	7.37514e+06	-51689.1	1055.82	-29751.3	0.000000	0.000000	7.216067	207.663	NaN	0.000000	0.001621	0.001727	28.0825	63.135	0.001808	34921.1	2.661768	176.42	203.587	1.207182	0.065779	0.065436	207.663	34921.1	0.061319	0.130580	1590.31	88292.2
1031	2.000000	1.210032	7.37514e+06	-51689.1	1055.82	-29751.3	0.000000	0.000000	7.219159	221.877	NaN	0.000000	0.001654	0.001755	28.0823	66.9591	0.001835	36489.7	6.884375	-8.478969	217.658	1.209646	0.068286	0.067900	221.877	36489.7	0.063725	0.139505	1590.46	89258.4
1031	2.000000	1.212618	7.37514e+06	-51689.1	1055.82	-29751.3	0.000000	0.000000	7.222192	232.744	NaN	0.000000	0.001580	0.001729	28.0825	69.5874	0.001799	38672.6	4.215723	174.268	234.906	1.212327	0.070872	0.070581	232.744	38672.6	0.066358	0.149590	1555.87	91353.4
1031	2.000000	1.215074	7.37514e+06	-51689.1	1055.82	-29751.3	0.000000	0.000000	7.225181	245.701	NaN	0.000000	0.001572	0.001703	28.0824	70.5784	0.001798	39250	4.316323	-5.888662	242.888	1.214799	0.073328	0.073053	245.701	39250	0.068633	0.158571	1549.47	90053.5
1031	2.000000	1.217554	7.37514e+06	-51689.1	1055.82	-29751.3	0.000000	0.000000	7.228574	267.883	NaN	0.000000	0.001559	0.001734	28.0825	72.9111	0.001735	42022.2	6.716866	171.888	266.731	1.217149	0.075809	0.075403	267.883	42022.2	0.071028	0.168293	1591.77	93587.7
1031	2.000000	1.220029	7.37514e+06	-51689.1	1055.82	-29751.3	0.000000	0.000000	7.231573	280.645	NaN	0.000000	0.001581	0.001718	28.0822	76.0504	0.001790	42482.9	6.287838	-8.542235	275.519	1.219513	0.078283	0.077767	280.645	42482.9	0.073329	0.177892	1577.62	92025.7
1031	2.000000	1.222544	7.37514e+06	-51689.1	1055.82	-29751.3	0.000000	0.000000	7.234521	291.165	NaN	0.000000	0.001570	0.001714	28.0823	78.0687	0.001723	45315.2	3.990887	173.303	290.911	1.222241	0.080799	0.080495	291.165	45315.2	0.075980	0.189260	1538.45	95167.3
1031	2.000000	1.225082	7.37514e+06	-51689.1	1055.82	-29751.3	0.000000	0.000000	7.238033	314.865	NaN	0.000000	0.001606	0.001710	28.0824	79.3145	0.001706	46478.4	0.740918	-3.793436	312.34	1.224765	0.083336	0.083019	314.865	46478.4	0.078255	0.199280	1580.02	95124.5
1031	2.000000	1.227530	7.37514e+06	-51689.1	1055.82	-29751.3	0.000000	0.000000	7.241234	333.182	NaN	0.000000	0.001599	0.001712	28.0821	82.0744	0.001758	46693.4	5.203353	171.637	329.894	1.227193	0.085784	0.085447	333.182	46693.4	0.080432	0.209095	1593.45	93294.7
1031	2.000000	1.230009	7.37514e+06	-51689.1	1055.82	-29751.3	0.000000	0.000000	7.244454	351.186	NaN	0.000000	0.001616	0.001709	28.0833	83.6467	0.001924	43472.1	2.074878	-4.804503	346.744	1.229639	0.088263	0.087893	351.186	43472.1	0.082204	0.217246	1616.53	85213.4
1031	2.000000	1.232510	7.37514e+06	-51689.1	1055.82	-29751.3	0.000000	0.000000	7.247842	372.766	NaN	0.000000	0.001588	0.001728	28.0833	86.8382	0.001768	49110.3	9.651700	166.078	370.509	1.232210	0.090764	0.090464	372.766	49110.3	0.085071	0.230741	1615.51	93407.9
1031	2.000000	1.235090	7.37514e+06	-51689.1	1055.82	-29751.3	0.000000	0.000000	7.251520	399.453	NaN	0.000000	0.001619	0.001721	28.0836	87.4546	0.001861	46992	6.756928	-8.789018	396.955	1.234621	0.093344	0.092875	399.453	46992	0.086969	0.239882	1665.21	87659.3
1031	2.000000	1.237477	7.37514e+06	-51689.1	1055.82	-29751.3	0.000000	0.000000	7.254376	410.854	NaN	0.000000	0.001583	0.001714	28.0832	89.9701	0.001728	52070.5	3.082945	172.664	406.983	1.237221	0.095731	0.095475	410.854	52070.5	0.089813	0.253895	1618.2	94414.4
1031	2.000000	1.239979	7.37514e+06	-51689.1	1055.82	-29751.3	0.000000	0.000000	7.257730	431.566	NaN	0.000000	0.001609	0.001708	28.0833	94.4204	0.001846	51136.5	3.002270	-6.845903	425.633	1.239691	0.098233	0.097945	431.566	51136.5	0.091904	0.264432	1632.05	90854.6
1031	2.000000	1.242606	7.37514e+06	-51689.1	1055.82	-29751.3	0.000000	0.000000	7.260781	441.888	NaN	0.000000	0.001597	0.001732	28.0834	97.1818	0.001779	54614.1	3.507774	171.865	443.008	1.242377	0.100860	0.100631	441.888	54614.1	0.094792	0.279317	1582.03	94412.5
1031	2.000000	1.244981	7.37514e+06	-51689.1	1055.82	-29751.3	0.000000	0.000000	7.264525	475.18	NaN	0.000000	0.001603	0.001719	28.0836	99.2883	0.001811	54820	6.697423	-10.8772	469.175	1.244553	0.103235	0.102807	475.18	54820	0.096734	0.289540	1641.15	93080.4
1031	2.000000	1.247346	7.37514e+06	-51689.1	1055.82	-29751.3	0.000000	0.000000	7.267608	492.611	NaN	0.000000	0.001623	0.001721	28.0835	100.357	0.001676	59894.6	2.969125	172.452	482.945	1.247114	0.105601	0.105368	492.611	59894.6	0.099432	0.304028	1620.28	99244.1