File: remote_trans/data/nanoindenter/0828-1/data/Data_2025-08-06,11h17m57s/2025-07-22_16-23-58_1_357.txt
2025-07-22, 16:23:58, 1
Index	Phase	Displacement	Time	Pos X	Pos Y	Pos Z	Rot A	Rot B	Piezo Z	Force A	Force B	Gripper	Voltage A	Voltage B	Temperature	Amplitude force	Amplitude pos	Stiffness	Phase shift	Phase excitation	Force A raw	Displacement raw	HMax	HMax raw	Real Force	Real Stiffness	Contact Depth	Area	Hardness	Reduced Mod.
[#]	[#]	[um]	[s]	[um]	[um]	[um]	[m°]	[m°]	[um]	[uN]	[uN]	[V]	[V]	[V]	[°C]	[uN]	[um]	[N/m]	[°]	[°]	[uN]	[um]	[um]	[um]	[uN]	[N/m]	[um]	[um^2]	[MPa]	[MPa]
357	1.000000	0.002770	7.36855e+06	-56489.1	955.819	-29738.9	0.000000	0.000000	6.002816	-0.017276	NaN	0.000000	0.001503	0.001764	28.0823	0.059608	0.001092	54.5894	-80.0654	-165.635	0.024117	0.001546	-1.211502	-1.212726	-0.017276	54.5894	-1.211265	-1.554433E+16	1.111391E-18	NaN
357	1.000000	0.012825	7.36855e+06	-56489.1	955.82	-29738.9	0.000000	0.000000	6.012871	-0.029357	NaN	0.000000	0.001525	0.001728	28.0808	0.063882	0.001317	48.5186	11.6258	18.9571	-0.092377	0.011431	-1.201447	-1.202841	-0.029357	48.5186	-1.200993	-1.132524E+16	2.592189E-18	NaN
357	1.000000	0.022710	7.36855e+06	-56489.1	955.819	-29738.9	0.000000	0.000000	6.022760	0.063957	NaN	0.000000	0.001559	0.001794	28.081	0.056846	0.001636	34.7371	25.7464	-166.207	-0.001423	0.021397	-1.191562	-1.192875	0.063957	34.7371	-1.192942	-8.835571E+15	-7.238575E-18	NaN
357	1.000000	0.032704	7.36855e+06	-56489.1	955.818	-29738.9	0.000000	0.000000	6.032750	-0.020472	NaN	0.000000	0.001580	0.001787	28.081	0.051944	0.002021	25.6961	155.756	13.8691	-0.038891	0.031332	-1.181568	-1.182940	-0.020472	25.6961	-1.180970	-6.107563E+15	3.351925E-18	NaN
357	1.000000	0.042704	7.36855e+06	-56489.1	955.819	-29738.9	0.000000	0.000000	6.042753	0.033744	NaN	0.000000	0.001541	0.001762	28.0812	0.033220	0.001823	18.2233	-82.0751	-161.452	-0.002115	0.041437	-1.171568	-1.172835	0.033744	18.2233	-1.172956	-4.769813E+15	-7.074570E-18	NaN
357	1.000000	0.052719	7.36855e+06	-56489.1	955.818	-29738.9	0.000000	0.000000	6.052766	-0.004169	NaN	0.000000	0.001534	0.001748	28.0811	0.065408	0.001910	34.2499	173.818	16.1895	-0.021409	0.051338	-1.161552	-1.162934	-0.004169	34.2499	-1.161461	-3.345428E+15	1.246097E-18	NaN
357	1.000000	0.062711	7.36855e+06	-56489.1	955.819	-29738.9	0.000000	0.000000	6.062758	-0.010049	NaN	0.000000	0.001553	0.001726	28.0811	0.044730	0.001862	24.0184	70.9634	-164.817	-0.064231	0.061444	-1.151560	-1.152827	-0.010049	24.0184	-1.151247	-2.440801E+15	4.117235E-18	NaN
357	1.000000	0.072713	7.36855e+06	-56489.1	955.818	-29738.9	0.000000	0.000000	6.072761	0.013036	NaN	0.000000	0.001567	0.001724	28.0809	0.028070	0.002019	13.9062	66.7563	13.5927	-0.027085	0.071355	-1.141559	-1.142916	0.013036	13.9062	-1.142262	-1.849555E+15	-7.047974E-18	NaN
357	1.000000	0.082704	7.36855e+06	-56489.1	955.819	-29738.9	0.000000	0.000000	6.082752	0.005865	NaN	0.000000	0.001567	0.001724	28.0815	0.058441	0.002036	28.7013	78.0383	-165.553	0.007166	0.081383	-1.131567	-1.132889	0.005865	28.7013	-1.131721	-1.335675E+15	-4.391233E-18	NaN
357	1.000000	0.092705	7.36855e+06	-56489.1	955.819	-29738.9	0.000000	0.000000	6.092753	0.020282	NaN	0.000000	0.001548	0.001727	28.0812	0.037307	0.002024	18.4323	-119.866	15.004	-0.004498	0.091349	-1.121566	-1.122923	0.020282	18.4323	-1.122392	-1.001287E+15	-2.025566E-17	NaN
357	1.000000	0.102737	7.36855e+06	-56489.1	955.819	-29738.9	0.000000	0.000000	6.102781	-0.065709	NaN	0.000000	0.001534	0.001710	28.0812	0.067057	0.001888	35.5116	162.005	-164.189	-0.060409	0.101409	-1.111535	-1.112863	-0.065709	35.5116	-1.110147	-6.858994E+14	9.580012E-17	NaN
357	1.000000	0.112742	7.36855e+06	-56489.1	955.819	-29738.9	0.000000	0.000000	6.112787	-0.046655	NaN	0.000000	0.001507	0.001702	28.0811	0.032904	0.001962	16.7675	-41.1616	14.3273	0.018934	0.111349	-1.101530	-1.102922	-0.046655	16.7675	-1.099443	-4.927149E+14	9.468931E-17	NaN
357	1.000000	0.122740	7.36855e+06	-56489.1	955.819	-29739	0.000000	0.000000	6.122785	-0.042463	NaN	0.000000	0.001511	0.001711	28.0816	0.023276	0.001980	11.7573	103.874	-164.921	-0.111974	0.121408	-1.091532	-1.092864	-0.042463	11.7573	-1.088823	-3.548209E+14	1.196738E-16	NaN
357	1.000000	0.132722	7.36855e+06	-56489.1	955.819	-29739	0.000000	0.000000	6.132766	-0.080176	NaN	0.000000	0.001493	0.001732	28.0812	0.013940	0.001982	7.034672	-119.06	19.7046	-0.035363	0.131345	-1.081550	-1.082927	-0.080176	7.034672	-1.073002	-2.175276E+14	3.685807E-16	NaN
357	1.000000	0.142756	7.36855e+06	-56489.1	955.819	-29739	0.000000	0.000000	6.142804	0.002391	NaN	0.000000	0.001538	0.001698	28.0826	0.048442	0.002034	23.8171	-167.369	-165.725	-0.106307	0.141485	-1.071515	-1.072787	0.002391	23.8171	-1.071591	-2.082371E+14	-1.148128E-17	NaN
357	1.000000	0.152730	7.36855e+06	-56489.1	955.819	-29739	0.000000	0.000000	6.152776	-0.040778	NaN	0.000000	0.001512	0.001722	28.0822	0.093208	0.001984	46.972	13.8575	12.8252	0.003720	0.151397	-1.061541	-1.062874	-0.040778	46.972	-1.060890	-1.495493E+14	2.726694E-16	NaN
357	1.000000	0.162743	7.36855e+06	-56489.1	955.819	-29739	0.000000	0.000000	6.162788	-0.043183	NaN	0.000000	0.001503	0.001765	28.0828	0.096896	0.001954	49.5884	-93.6282	-165.985	-0.038778	0.161456	-1.051529	-1.052816	-0.043183	49.5884	-1.050876	-1.096954E+14	3.936647E-16	NaN
357	1.000000	0.172744	7.36855e+06	-56489.1	955.819	-29739	0.000000	0.000000	6.172792	0.017627	NaN	0.000000	0.001480	0.001754	28.0822	0.120733	0.002216	54.4845	2.483439	15.5418	0.062254	0.171427	-1.041527	-1.042845	0.017627	54.4845	-1.041770	-8.274994E+13	-2.130183E-16	NaN
357	1.000000	0.182744	7.36855e+06	-56489.1	955.818	-29739	0.000000	0.000000	6.182793	0.053766	NaN	0.000000	0.001515	0.001728	28.0823	0.052930	0.001965	26.9315	-134.72	-163.602	0.021589	0.181475	-1.031528	-1.032796	0.053766	26.9315	-1.033025	-6.311986E+13	-8.518153E-16	NaN
357	1.000000	0.192781	7.36855e+06	-56489.1	955.819	-29739	0.000000	0.000000	6.192826	-0.061003	NaN	0.000000	0.001496	0.001745	28.0822	0.110447	0.002004	55.1144	-112.365	16.7752	-0.062886	0.191414	-1.021491	-1.022857	-0.061003	55.1144	-1.020661	-4.303678E+13	1.417471E-15	NaN
357	1.000000	0.202762	7.36855e+06	-56489.1	955.818	-29739	0.000000	0.000000	6.202809	-0.012408	NaN	0.000000	0.001499	0.001743	28.0825	0.074495	0.002049	36.3646	10.8857	-164.329	-0.078443	0.201454	-1.011510	-1.012818	-0.012408	36.3646	-1.011254	-3.215548E+13	3.858900E-16	NaN
357	1.000000	0.212768	7.36855e+06	-56489.1	955.819	-29739	0.000000	0.000000	6.212818	0.061769	NaN	0.000000	0.001535	0.001757	28.0824	0.050683	0.001967	25.769	19.5889	18.6457	0.018605	0.211399	-1.001503	-1.002873	0.061769	25.769	-1.003301	-2.513107E+13	-2.457886E-15	NaN
357	1.000000	0.222785	7.36855e+06	-56489.1	955.818	-29739	0.000000	0.000000	6.222833	0.030671	NaN	0.000000	0.001520	0.001732	28.0823	0.098684	0.002022	48.8033	159.179	-165.583	0.005688	0.221461	-0.991487	-0.992811	0.030671	48.8033	-0.991958	-1.768014E+13	-1.734794E-15	NaN
357	1.000000	0.232782	7.36855e+06	-56489.1	955.817	-29739	0.000000	0.000000	6.232829	-0.006945	NaN	0.000000	0.001572	0.001774	28.0824	0.123770	0.001941	63.7614	-136.678	11.7932	0.029010	0.231448	-0.981490	-0.982824	-0.006945	63.7614	-0.981408	-1.274613E+13	5.448702E-16	NaN
357	1.000000	0.242768	7.36855e+06	-56489.1	955.82	-29739	0.000000	0.000000	6.242813	-0.044398	NaN	0.000000	0.001574	0.001746	28.0823	0.117249	0.002004	58.5056	-133.081	-164.309	-0.049370	0.241485	-0.971504	-0.972787	-0.044398	58.5056	-0.970934	-9.209939E+12	4.820716E-15	NaN
357	1.000000	0.252762	7.36855e+06	-56489.1	955.819	-29739	0.000000	0.000000	6.252808	-0.026431	NaN	0.000000	0.001569	0.001762	28.0822	0.046251	0.002021	22.8858	-88.3147	12.8371	-0.016181	0.251396	-0.961509	-0.962876	-0.026431	22.8858	-0.960643	-6.691743E+12	3.949777E-15	NaN
357	1.000000	0.262788	7.36855e+06	-56489.1	955.817	-29739	0.000000	0.000000	6.262837	0.041388	NaN	0.000000	0.001580	0.001769	28.0822	0.131507	0.002010	65.4414	-157.033	-164.639	-0.047729	0.261492	-0.951484	-0.952780	0.041388	65.4414	-0.951958	-5.110181E+12	-8.099054E-15	NaN
357	1.000000	0.272800	7.36855e+06	-56489.1	955.819	-29739	0.000000	0.000000	6.272848	0.017111	NaN	0.000000	0.001524	0.001750	28.0825	0.032056	0.001932	16.5963	70.0519	14.5206	-0.011873	0.271475	-0.941472	-0.942797	0.017111	16.5963	-0.942245	-3.779425E+12	-4.527311E-15	NaN
357	1.000000	0.282813	7.36855e+06	-56489.1	955.818	-29739	0.000000	0.000000	6.282861	0.021456	NaN	0.000000	0.001556	0.001734	28.0812	0.007470	0.002074	3.601025	162.078	-168.688	0.053682	0.281493	-0.931459	-0.932779	0.021456	3.601025	-0.935927	-3.105889E+12	-6.908005E-15	NaN
357	1.000000	0.292831	7.36855e+06	-56489.1	955.818	-29739	0.000000	0.000000	6.292875	-0.053387	NaN	0.000000	0.001566	0.001756	28.0811	0.032039	0.001980	16.1841	-129.092	15.5651	-0.078046	0.291453	-0.921441	-0.922818	-0.053387	16.1841	-0.918967	-1.833415E+12	2.911899E-14	NaN
357	1.000000	0.302839	7.36855e+06	-56489.1	955.818	-29739	0.000000	0.000000	6.302884	-0.064842	NaN	0.000000	0.001571	0.001751	28.081	0.043329	0.002041	21.2284	168.793	-166.476	-0.045753	0.301526	-0.911432	-0.912746	-0.064842	21.2284	-0.909141	-1.350721E+12	4.800550E-14	NaN
357	1.000000	0.312814	7.36855e+06	-56489.1	955.819	-29739	0.000000	0.000000	6.312860	-0.018080	NaN	0.000000	0.001544	0.001732	28.081	0.068016	0.002011	33.8222	40.0866	15.3213	0.006868	0.311443	-0.901458	-0.902829	-0.018080	33.8222	-0.901057	-1.050376E+12	1.721244E-14	NaN
357	1.000000	0.322794	7.36855e+06	-56489.1	955.819	-29739	0.000000	0.000000	6.322841	-0.004820	NaN	0.000000	0.001571	0.001753	28.0808	0.169177	0.001967	86.0119	147.483	-163.168	-0.016796	0.321485	-0.891478	-0.892787	-0.004820	86.0119	-0.891436	-7.786103E+11	6.190862E-15	NaN
357	1.000000	0.332842	7.36855e+06	-56489.1	955.817	-29739	0.000000	0.000000	6.332890	0.002240	NaN	0.000000	0.001547	0.001736	28.0809	0.051015	0.001956	26.0859	-61.3555	17.6941	-0.023836	0.331445	-0.881429	-0.882826	0.002240	26.0859	-0.881494	-5.713571E+11	-3.921064E-15	NaN
357	1.000000	0.342821	7.36855e+06	-56489.1	955.819	-29739	0.000000	0.000000	6.342868	-0.002864	NaN	0.000000	0.001531	0.001734	28.081	0.098826	0.002092	47.2303	15.6249	-163.097	0.063548	0.341520	-0.871451	-0.872751	-0.002864	47.2303	-0.871405	-4.173045E+11	6.863019E-15	NaN
357	1.000000	0.352839	7.36855e+06	-56489.1	955.819	-29739	0.000000	0.000000	6.352887	0.017469	NaN	0.000000	0.001522	0.001759	28.081	0.018499	0.001899	9.741414	105.901	13.5827	-0.039593	0.351482	-0.861432	-0.862790	0.017469	9.741414	-0.862777	-3.189401E+11	-5.477074E-14	NaN
357	1.000000	0.362840	7.36855e+06	-56489.1	955.819	-29739	0.000000	0.000000	6.362888	0.008992	NaN	0.000000	0.001529	0.001769	28.0809	0.086965	0.002015	43.1652	-127.88	-162.024	-0.004163	0.361541	-0.851431	-0.852731	0.008992	43.1652	-0.851588	-2.250268E+11	-3.995956E-14	NaN
357	1.000000	0.372832	7.36855e+06	-56489.1	955.818	-29739	0.000000	0.000000	6.372879	-0.006202	NaN	0.000000	0.001565	0.001752	28.0813	0.026841	0.001976	13.5813	76.1424	17.4487	-0.044683	0.371500	-0.841440	-0.842772	-0.006202	13.5813	-0.841097	-1.622398E+11	3.822474E-14	NaN
357	1.000000	0.382843	7.36855e+06	-56489.1	955.818	-29739	0.000000	0.000000	6.382891	0.003221	NaN	0.000000	0.001551	0.001745	28.0813	0.068024	0.001975	34.4484	-56.7845	-165.131	0.073490	0.381529	-0.831428	-0.832743	0.003221	34.4484	-0.831499	-1.202529E+11	-2.678774E-14	NaN
357	1.000000	0.392811	7.36855e+06	-56489.1	955.818	-29739	0.000000	0.000000	6.392857	-0.017123	NaN	0.000000	0.001548	0.001725	28.0813	0.078812	0.002027	38.8729	-118.272	13.6853	-0.021103	0.391495	-0.821461	-0.822776	-0.017123	38.8729	-0.821130	-8.700411E+10	1.968068E-13	NaN
357	1.000000	0.402840	7.36855e+06	-56489.1	955.818	-29739	0.000000	0.000000	6.402888	0.026916	NaN	0.000000	0.001560	0.001745	28.081	0.021541	0.002107	10.2221	41.3517	-162.658	-0.039474	0.401512	-0.811431	-0.812760	0.026916	10.2221	-0.813406	-6.835684E+10	-3.937604E-13	NaN
357	1.000000	0.412830	7.36855e+06	-56489.1	955.819	-29739	0.000000	0.000000	6.412878	0.020366	NaN	0.000000	0.001565	0.001738	28.0814	0.024813	0.001965	12.6279	159.703	14.1549	0.062182	0.411510	-0.801442	-0.802762	0.020366	12.6279	-0.802651	-4.884821E+10	-4.169257E-13	NaN
357	1.000000	0.422856	7.36855e+06	-56489.1	955.818	-29739	0.000000	0.000000	6.422901	-0.042719	NaN	0.000000	0.001547	0.001753	28.0823	0.101370	0.001850	54.7898	141.342	-161.865	-0.066038	0.421571	-0.791416	-0.792701	-0.042719	54.7898	-0.790831	-3.375780E+10	1.265450E-12	NaN
357	1.000000	0.432863	7.36855e+06	-56489.1	955.819	-29739	0.000000	0.000000	6.432909	-0.017029	NaN	0.000000	0.001535	0.001747	28.0825	0.122685	0.002018	60.7875	13.0282	16.4624	-0.084127	0.431528	-0.781409	-0.782744	-0.017029	60.7875	-0.781199	-2.497618E+10	6.818286E-13	NaN
357	1.000000	0.442866	7.36855e+06	-56489.1	955.818	-29739	0.000000	0.000000	6.442913	0.016279	NaN	0.000000	0.001548	0.001724	28.0823	0.055122	0.001905	28.937	-79.3898	-167.794	-0.004566	0.441538	-0.771406	-0.772734	0.016279	28.937	-0.771828	-1.862772E+10	-8.739261E-13	NaN
357	1.000000	0.452889	7.36855e+06	-56489.1	955.818	-29739	0.000000	0.000000	6.452937	0.014602	NaN	0.000000	0.001563	0.001757	28.0825	0.050186	0.002001	25.0797	-96.6415	13.6029	-0.007094	0.451462	-0.761382	-0.762809	0.014602	25.0797	-0.761819	-1.361594E+10	-1.072434E-12	NaN
357	1.000000	0.462865	7.36855e+06	-56489.1	955.818	-29739	0.000000	0.000000	6.462911	-0.008141	NaN	0.000000	0.001533	0.001729	28.0825	0.113418	0.002071	54.7635	-46.6	-163.462	0.009707	0.461554	-0.751407	-0.752718	-0.008141	54.7635	-0.751296	-9.791688E+9	8.313942E-13	NaN
357	1.000000	0.472876	7.36855e+06	-56489.1	955.818	-29739	0.000000	0.000000	6.472923	-0.007966	NaN	0.000000	0.001559	0.001731	28.0823	0.112771	0.002024	55.705	-70.4031	18.0484	-0.011820	0.471534	-0.741396	-0.742738	-0.007966	55.705	-0.741288	-7.154912E+9	1.113409E-12	NaN
357	1.000000	0.482897	7.36855e+06	-56489.1	955.819	-29739	0.000000	0.000000	6.482945	0.009228	NaN	0.000000	0.001547	0.001707	28.0821	0.145350	0.001923	75.5785	164.505	-159.806	0.017105	0.481557	-0.731374	-0.732715	0.009228	75.5785	-0.731466	-5.257572E+9	-1.755134E-12	NaN
357	1.000000	0.492915	7.36855e+06	-56489.1	955.819	-29739	0.000000	0.000000	6.492963	0.013735	NaN	0.000000	0.001534	0.001765	28.0824	0.037491	0.001917	19.5533	33.827	18.6641	-0.042389	0.491533	-0.721357	-0.722739	0.013735	19.5533	-0.721883	-3.891860E+9	-3.529230E-12	NaN
357	1.000000	0.502903	7.36855e+06	-56489.1	955.818	-29739	0.000000	0.000000	6.502949	-0.028797	NaN	0.000000	0.001498	0.001750	28.082	0.056106	0.001940	28.9252	133.879	-160.981	-0.001015	0.501595	-0.711369	-0.712677	-0.028797	28.9252	-0.710622	-2.732374E+9	1.053905E-11	NaN
357	1.000000	0.512887	7.36855e+06	-56489.1	955.819	-29739	0.000000	0.000000	6.512934	0.000903	NaN	0.000000	0.001544	0.001766	28.0822	0.053673	0.001993	26.9351	48.6335	13.0878	-0.000503	0.511518	-0.701385	-0.702754	0.000903	26.9351	-0.701410	-2.045447E+9	-4.414654E-13	NaN
357	1.000000	0.522907	7.36855e+06	-56489.1	955.817	-29739	0.000000	0.000000	6.522955	0.012604	NaN	0.000000	0.001558	0.001734	28.0821	0.088814	0.001945	45.6742	-164.126	-164.373	-0.003176	0.521605	-0.691365	-0.692667	0.012604	45.6742	-0.691572	-1.501049E+9	-8.396888E-12	NaN
357	1.000000	0.532897	7.36855e+06	-56489.1	955.818	-29739	0.000000	0.000000	6.532944	0.011935	NaN	0.000000	0.001547	0.001751	28.0824	0.121778	0.002174	56.0211	109.132	12.9844	-0.053312	0.531555	-0.681375	-0.682717	0.011935	56.0211	-0.681535	-1.094452E+9	-1.090521E-11	NaN
357	1.000000	0.542906	7.36855e+06	-56489.1	955.818	-29739	0.000000	0.000000	6.542953	0.010486	NaN	0.000000	0.001533	0.001737	28.0819	0.082108	0.001997	41.1132	-174.518	-163.165	0.060193	0.541572	-0.671366	-0.672700	0.010486	41.1132	-0.671557	-7.992883E+8	-1.311918E-11	NaN
357	1.000000	0.552896	7.36855e+06	-56489.1	955.818	-29739	0.000000	0.000000	6.552944	0.010217	NaN	0.000000	0.001529	0.001739	28.0809	0.044142	0.002152	20.5088	80.9093	18.4446	-0.028725	0.551552	-0.661375	-0.662720	0.010217	20.5088	-0.661749	-5.867112E+8	-1.741368E-11	NaN
357	1.000000	0.562929	7.36855e+06	-56489.1	955.818	-29739	0.000000	0.000000	6.562975	-0.017182	NaN	0.000000	0.001549	0.001754	28.0809	0.047128	0.001804	26.1175	121.498	-164.932	-0.052828	0.561557	-0.651343	-0.652715	-0.017182	26.1175	-0.650849	-4.159883E+8	4.130509E-11	NaN
357	1.000000	0.572947	7.36855e+06	-56489.1	955.819	-29739	0.000000	0.000000	6.572995	0.027595	NaN	0.000000	0.001552	0.001759	28.0811	0.085987	0.001906	45.1066	109.515	18.7376	-0.001696	0.571524	-0.641325	-0.642748	0.027595	45.1066	-0.641784	-3.124373E+8	-8.832281E-11	NaN
357	1.000000	0.582931	7.36855e+06	-56489.1	955.819	-29739	0.000000	0.000000	6.582978	-0.004264	NaN	0.000000	0.001500	0.001740	28.081	0.037454	0.002006	18.6723	-171.901	-165.092	0.038672	0.581662	-0.631340	-0.632609	-0.004264	18.6723	-0.631169	-2.233974E+8	1.908839E-11	NaN
357	1.000000	0.592945	7.36855e+06	-56489.1	955.819	-29739	0.000000	0.000000	6.592994	0.045902	NaN	0.000000	0.001526	0.001743	28.0813	0.047895	0.002016	23.7575	-110.829	16.736	0.024568	0.591622	-0.621327	-0.622649	0.045902	23.7575	-0.622776	-1.713124E+8	-2.679425E-10	NaN
357	1.000000	0.602941	7.36855e+06	-56489.1	955.819	-29739	0.000000	0.000000	6.602989	0.019387	NaN	0.000000	0.001528	0.001738	28.0815	0.092980	0.001887	49.273	-166.141	-166.615	-0.022625	0.601610	-0.611331	-0.612661	0.019387	49.273	-0.611626	-1.203601E+8	-1.610732E-10	NaN
357	1.000000	0.612950	7.36855e+06	-56489.1	955.818	-29739	0.000000	0.000000	6.612999	0.042614	NaN	0.000000	0.001531	0.001760	28.0811	0.115141	0.002022	56.951	136.537	13.9622	0.045828	0.611591	-0.601321	-0.602680	0.042614	56.951	-0.601882	-8.838613E+7	-4.821397E-10	NaN
357	1.000000	0.622937	7.36855e+06	-56489.1	955.819	-29739	0.000000	0.000000	6.622985	0.019239	NaN	0.000000	0.001549	0.001810	28.081	0.033726	0.001947	17.326	-30.3956	-165.187	0.018025	0.621647	-0.591335	-0.592624	0.019239	17.326	-0.592168	-6.494570E+7	-2.962309E-10	NaN
357	1.000000	0.632952	7.36855e+06	-56489.1	955.818	-29739	0.000000	0.000000	6.632995	-0.090111	NaN	0.000000	0.001543	0.001733	28.0812	0.041323	0.002033	20.3287	-41.7125	17.0244	-0.046702	0.631553	-0.581320	-0.582719	-0.090111	20.3287	-0.577995	-4.140533E+7	2.176315E-9	NaN
357	1.000000	0.642943	7.36855e+06	-56489.1	955.818	-29739	0.000000	0.000000	6.642990	-0.001135	NaN	0.000000	0.001513	0.001777	28.0812	0.039015	0.001967	19.8358	81.6793	-160.531	0.019176	0.641637	-0.571329	-0.572635	-0.001135	19.8358	-0.571286	-3.345059E+7	3.394062E-11	NaN
357	1.000000	0.652985	7.36855e+06	-56489.1	955.819	-29739	0.000000	0.000000	6.653030	-0.050756	NaN	0.000000	0.001498	0.001712	28.0808	0.156931	0.001961	80.0289	-153.14	17.709	-0.050032	0.651635	-0.561287	-0.562637	-0.050756	80.0289	-0.560811	-2.396602E+7	2.117849E-9	NaN
357	1.000000	0.662959	7.36855e+06	-56489.1	955.819	-29739	0.000000	0.000000	6.663003	-0.093987	NaN	0.000000	0.001492	0.001710	28.0808	0.006054	0.002035	2.975616	81.2545	-166.501	0.050327	0.661731	-0.551312	-0.552541	-0.093987	2.975616	-0.527623	-8.30918e+06	1.131128E-8	NaN
357	1.000000	0.672940	7.36855e+06	-56489.1	955.819	-29739	0.000000	0.000000	6.672982	-0.114288	NaN	0.000000	0.001519	0.001744	28.0808	0.060727	0.001864	32.5704	112.771	14.6734	-0.104974	0.671622	-0.541332	-0.542650	-0.114288	32.5704	-0.538700	-1.183949E+7	9.653158E-9	NaN
357	1.000000	0.682980	7.36855e+06	-56489.1	955.818	-29739	0.000000	0.000000	6.683024	-0.066015	NaN	0.000000	0.001489	0.001735	28.081	0.021409	0.002040	10.4934	170.817	-165.462	-0.077686	0.681645	-0.531292	-0.532627	-0.066015	10.4934	-0.526574	-8.03487e+06	8.216025E-9	NaN
357	1.000000	0.692943	7.36855e+06	-56489.1	955.818	-29739	0.000000	0.000000	6.692988	-0.034546	NaN	0.000000	0.001521	0.001740	28.082	0.042552	0.002110	20.1702	-87.7477	15.0092	-0.042164	0.691611	-0.521329	-0.522661	-0.034546	20.1702	-0.520045	-6.51956e+06	5.298886E-9	NaN
357	1.000000	0.702990	7.36855e+06	-56489.1	955.819	-29739	0.000000	0.000000	6.703038	0.026992	NaN	0.000000	0.001521	0.001769	28.0823	0.073680	0.001984	37.1449	35.3427	-164.949	0.041512	0.701706	-0.511282	-0.512565	0.026992	37.1449	-0.511827	-5.01026e+06	-5.387436E-9	NaN
357	1.000000	0.712962	7.36855e+06	-56489.1	955.818	-29739	0.000000	0.000000	6.713010	0.030288	NaN	0.000000	0.001524	0.001752	28.0823	0.048741	0.002076	23.4812	-154.611	12.5268	0.011306	0.711650	-0.501310	-0.502622	0.030288	23.4812	-0.502277	-3.68792e+06	-8.212662E-9	NaN
357	1.000000	0.722986	7.36855e+06	-56489.1	955.819	-29739	0.000000	0.000000	6.723033	0.005884	NaN	0.000000	0.001531	0.001750	28.0824	0.094002	0.001894	49.6225	156.337	-166.936	-0.008444	0.721683	-0.491286	-0.492588	0.005884	49.6225	-0.491375	-2.59779e+06	-2.264990E-9	NaN
357	1.000000	0.732960	7.36855e+06	-56489.1	955.818	-29739	0.000000	0.000000	6.733005	-0.065622	NaN	0.000000	0.001520	0.001776	28.0821	0.062747	0.001981	31.6812	-44.0058	13.7867	-0.052612	0.731636	-0.481312	-0.482636	-0.065622	31.6812	-0.479758	-1.78706e+06	3.672035E-8	NaN
357	1.000000	0.743010	7.36855e+06	-56489.1	955.819	-29739	0.000000	0.000000	6.743058	0.008992	NaN	0.000000	0.001550	0.001747	28.0819	0.129084	0.001941	66.5065	135.279	-165.414	-0.025966	0.741724	-0.471261	-0.472547	0.008992	66.5065	-0.471363	-1.36307e+06	-6.596960E-9	NaN
357	1.000000	0.753001	7.36855e+06	-56489.1	955.82	-29739	0.000000	0.000000	6.753048	-0.003969	NaN	0.000000	0.001505	0.001753	28.0821	0.036804	0.002128	17.298	-177.719	13.9092	-0.018976	0.751657	-0.461271	-0.462615	-0.003969	17.298	-0.461099	-978266	4.056804E-9	NaN
357	1.000000	0.762993	7.36855e+06	-56489.1	955.818	-29739	0.000000	0.000000	6.763038	-0.068388	NaN	0.000000	0.001515	0.001739	28.0823	0.028532	0.001948	14.6483	118.832	-161.068	-0.068865	0.761687	-0.451278	-0.452585	-0.068388	14.6483	-0.447777	-635370	1.076351E-7	NaN
357	1.000000	0.772996	7.36855e+06	-56489.1	955.82	-29739	0.000000	0.000000	6.773040	-0.064262	NaN	0.000000	0.001582	0.001724	28.0821	0.140727	0.002006	70.1456	72.3903	16.3348	-0.080296	0.771617	-0.441276	-0.442655	-0.064262	70.1456	-0.440589	-503119	1.277272E-7	NaN
357	1.000000	0.783003	7.36855e+06	-56489.1	955.818	-29739	0.000000	0.000000	6.783050	-0.010593	NaN	0.000000	0.001544	0.001725	28.0818	0.025258	0.002034	12.4201	-161.405	-166.217	-0.019486	0.781737	-0.431268	-0.432535	-0.010593	12.4201	-0.430629	-363877	2.911030E-8	NaN
357	1.000000	0.792978	7.36856e+06	-56489.1	955.82	-29739	0.000000	0.000000	6.793025	0.007352	NaN	0.000000	0.001562	0.001755	28.0823	0.051019	0.001998	25.5316	118.025	19.3692	0.057734	0.791609	-0.421294	-0.422663	0.007352	25.5316	-0.421510	-270287	-2.720106E-8	NaN
357	1.000000	0.803020	7.36856e+06	-56489.1	955.818	-29739	0.000000	0.000000	6.803067	0.006953	NaN	0.000000	0.001556	0.001755	28.0822	0.092661	0.001962	47.2399	-42.6765	-163.221	0.018515	0.801756	-0.411252	-0.412516	0.006953	47.2399	-0.411362	-193986	-3.584188E-8	NaN
357	1.000000	0.813021	7.36856e+06	-56489.1	955.818	-29739	0.000000	0.000000	6.813068	0.000992	NaN	0.000000	0.001515	0.001739	28.0821	0.033906	0.002144	15.8171	-152.61	15.9633	-0.011402	0.811660	-0.401251	-0.402612	0.000992	15.8171	-0.401298	-139475	-7.111806E-9	NaN
357	1.000000	0.823018	7.36856e+06	-56489.1	955.818	-29739	0.000000	0.000000	6.823061	-0.099206	NaN	0.000000	0.001501	0.001761	28.0815	0.037755	0.001988	18.9909	-131.719	-166.108	-0.076185	0.821684	-0.391254	-0.392588	-0.099206	18.9909	-0.387336	-88112.5	1.125905E-6	NaN
357	1.000000	0.833058	7.36856e+06	-56489.1	955.819	-29739	0.000000	0.000000	6.833104	-0.008423	NaN	0.000000	0.001509	0.001786	28.0809	0.127753	0.001962	65.1173	-38.1118	17.4966	-0.066453	0.831610	-0.381214	-0.382662	-0.008423	65.1173	-0.381117	-71766.2	1.173649E-7	NaN
357	1.000000	0.843024	7.36856e+06	-56489.1	955.819	-29739	0.000000	0.000000	6.843068	-0.065871	NaN	0.000000	0.001525	0.001752	28.0809	0.142779	0.002095	68.1582	-171.59	-163.253	-0.034731	0.841741	-0.371248	-0.372531	-0.065871	68.1582	-0.370523	-50542.9	1.303272E-6	NaN
357	1.000000	0.853026	7.36856e+06	-56489.1	955.819	-29739	0.000000	0.000000	6.853074	0.024910	NaN	0.000000	0.001514	0.001767	28.081	0.017501	0.002124	8.237801	-13.3835	16.8973	-0.006699	0.851673	-0.361246	-0.362599	0.024910	8.237801	-0.363514	-40050.3	-6.219561E-7	NaN
357	1.000000	0.863056	7.36856e+06	-56489.1	955.818	-29739	0.000000	0.000000	6.863101	-0.057973	NaN	0.000000	0.001533	0.001748	28.081	0.016363	0.001909	8.569979	78.1999	-162.829	-0.019115	0.861702	-0.351216	-0.352570	-0.057973	8.569979	-0.346142	-22436.9	2.583824E-6	NaN
357	1.000000	0.873050	7.36856e+06	-56489.1	955.818	-29739	0.000000	0.000000	6.873096	-0.026321	NaN	0.000000	0.001532	0.001751	28.081	0.097153	0.002085	46.5918	53.4323	18.5646	-0.023427	0.871679	-0.341222	-0.342593	-0.026321	46.5918	-0.340798	-18758.1	1.403187E-6	NaN
357	1.000000	0.883097	7.36856e+06	-56489.1	955.819	-29739	0.000000	0.000000	6.883144	0.000106	NaN	0.000000	0.001536	0.001744	28.0808	0.080222	0.001912	41.9515	140.851	-165.346	0.029891	0.881722	-0.331175	-0.332550	0.000106	41.9515	-0.331177	-13573.3	-7.781811E-9	NaN
357	1.000000	0.893072	7.36856e+06	-56489.1	955.819	-29739	0.000000	0.000000	6.893118	-0.036603	NaN	0.000000	0.001553	0.001753	28.0808	0.058713	0.001900	30.9039	130.318	16.6682	0.036863	0.891725	-0.321199	-0.322547	-0.036603	30.9039	-0.320311	-9401.89	3.893126E-6	NaN
357	1.000000	0.903039	7.36856e+06	-56489.1	955.819	-29739	0.000000	0.000000	6.903087	0.003597	NaN	0.000000	0.001552	0.001735	28.0809	0.038923	0.001923	20.2362	-24.4945	-163.388	-0.038980	0.901773	-0.311232	-0.312499	0.003597	20.2362	-0.311366	-6938.4	-5.183985E-7	NaN
357	1.000000	0.913055	7.36856e+06	-56489.1	955.819	-29739	0.000000	0.000000	6.913103	0.005616	NaN	0.000000	0.001536	0.001714	28.0808	0.053482	0.001938	27.5955	34.2358	19.243	0.050563	0.911741	-0.301216	-0.302531	0.005616	27.5955	-0.301369	-4931.81	-1.138707E-6	NaN
357	1.000000	0.923057	7.36856e+06	-56489.1	955.818	-29739	0.000000	0.000000	6.923106	0.042589	NaN	0.000000	0.001538	0.001731	28.0807	0.173734	0.002065	84.144	160.279	-165.638	0.058212	0.921778	-0.291215	-0.292494	0.042589	84.144	-0.291594	-3525.11	-1.208170E-5	NaN
357	1.000000	0.933068	7.36856e+06	-56489.1	955.818	-29739	0.000000	0.000000	6.933118	0.088358	NaN	0.000000	0.001531	0.001694	28.0806	0.101921	0.001968	51.7936	178.884	16.1327	0.028345	0.931742	-0.281204	-0.282530	0.088358	51.7936	-0.282483	-2572.78	-3.434352E-5	NaN
357	1.000000	0.943079	7.36856e+06	-56489.1	955.819	-29739	0.000000	0.000000	6.943124	-0.071654	NaN	0.000000	0.001545	0.001705	28.081	0.013421	0.002086	6.434412	-71.0248	-166.231	-0.102809	0.941779	-0.271192	-0.272493	-0.071654	6.434412	-0.262840	-1295.38	5.531467E-5	NaN
357	1.000000	0.953071	7.36856e+06	-56489.1	955.818	-29739	0.000000	0.000000	6.953116	-0.029530	NaN	0.000000	0.001532	0.001733	28.0809	0.064917	0.001984	32.7142	-108.155	15.695	-0.051156	0.951702	-0.261201	-0.262570	-0.029530	32.7142	-0.260524	-1193.85	2.473490E-5	NaN
357	1.000000	0.963098	7.36856e+06	-56489.1	955.819	-29739	0.000000	0.000000	6.963145	0.004875	NaN	0.000000	0.001526	0.001701	28.0823	0.092880	0.002001	46.4053	-66.8386	-167.252	0.016639	0.961733	-0.251174	-0.252538	0.004875	46.4053	-0.251252	-859.653	-5.671047E-6	NaN
357	1.000000	0.973101	7.36856e+06	-56489.1	955.818	-29739	0.000000	0.000000	6.973146	-0.063623	NaN	0.000000	0.001552	0.001718	28.0823	0.007098	0.002045	3.470049	-93.4313	15.3557	-0.030232	0.971695	-0.241171	-0.242577	-0.063623	3.470049	-0.227419	-364.506	0.000175	NaN
357	1.000000	0.983099	7.36856e+06	-56489.1	955.818	-29739	0.000000	0.000000	6.983147	0.014989	NaN	0.000000	0.001502	0.001699	28.0824	0.078186	0.002003	39.033	175.731	-161.271	0.000157	0.981815	-0.231173	-0.232457	0.014989	39.033	-0.231461	-422.243	-3.549769E-5	NaN
357	1.000000	0.993112	7.36856e+06	-56489.1	955.818	-29739	0.000000	0.000000	6.993160	0.013811	NaN	0.000000	0.001500	0.001698	28.082	0.048765	0.001932	25.2379	-18.2546	14.1816	0.029456	0.991754	-0.221159	-0.222518	0.013811	25.2379	-0.221570	-294.266	-4.693259E-5	NaN
357	1.000000	1.003071	7.36856e+06	-56489.1	955.818	-29739	0.000000	0.000000	7.003117	-0.028815	NaN	0.000000	0.001531	0.001696	28.0822	0.096556	0.002075	46.5367	-149.203	-161.696	-0.010557	1.001796	-0.211201	-0.212476	-0.028815	46.5367	-0.210736	-197.123	0.000146	NaN
357	1.000000	1.013096	7.36856e+06	-56489.1	955.819	-29739	0.000000	0.000000	7.013142	-0.016668	NaN	0.000000	0.001513	0.001720	28.0827	0.074136	0.002053	36.1199	161.043	16.4784	-0.005710	1.011780	-0.201176	-0.202492	-0.016668	36.1199	-0.200830	-135.935	0.000123	NaN
357	1.000000	1.023102	7.36856e+06	-56489.1	955.819	-29739	0.000000	0.000000	7.023145	-0.085557	NaN	0.000000	0.001535	0.001711	28.0822	0.112004	0.002066	54.2033	96.412	-168.897	-0.029123	1.021797	-0.191170	-0.192474	-0.085557	54.2033	-0.189986	-89.908	0.000952	NaN
357	1.000000	1.033091	7.36856e+06	-56489.1	955.818	-29739	0.000000	0.000000	7.033141	0.071664	NaN	0.000000	0.001560	0.001697	28.0823	0.062044	0.002062	30.0928	19.8323	14.8456	0.087399	1.031737	-0.181181	-0.182535	0.071664	30.0928	-0.182967	-68.5166	-0.001046	NaN
357	1.000000	1.043110	7.36856e+06	-56489.1	955.818	-29739	0.000000	0.000000	7.043155	-0.050419	NaN	0.000000	0.001554	0.001706	28.0824	0.088761	0.001959	45.3142	-38.7731	-162.291	-0.062502	1.041764	-0.171162	-0.172508	-0.050419	45.3142	-0.170327	-41.6193	0.001211	NaN
357	1.000000	1.053100	7.36856e+06	-56489.1	955.818	-29739	0.000000	0.000000	7.053147	0.004028	NaN	0.000000	0.001522	0.001713	28.0826	0.091565	0.002035	44.9883	-112.888	16.8385	0.008901	1.051758	-0.161172	-0.162514	0.004028	44.9883	-0.161239	-28.8382	-0.000140	NaN
357	1.000000	1.063116	7.36856e+06	-56489.1	955.818	-29739	0.000000	0.000000	7.063163	-0.001974	NaN	0.000000	0.001525	0.001709	28.0823	0.083651	0.001939	43.1394	-141.075	-164.077	0.005114	1.061830	-0.151156	-0.152442	-0.001974	43.1394	-0.151122	-18.9858	0.000104	NaN
357	1.000000	1.073120	7.36856e+06	-56489.1	955.818	-29739	0.000000	0.000000	7.073167	0.004262	NaN	0.000000	0.001597	0.001694	28.0823	0.069725	0.001957	35.6279	-134.366	14.2018	-0.055445	1.071747	-0.141152	-0.142525	0.004262	35.6279	-0.141242	-12.4809	-0.000341	NaN
357	1.000000	1.083108	7.36856e+06	-56489.1	955.818	-29739	0.000000	0.000000	7.083155	-0.002939	NaN	0.000000	0.001603	0.001700	28.0823	0.055833	0.002090	26.7114	117.499	-164.814	-0.017848	1.081879	-0.131164	-0.132393	-0.002939	26.7114	-0.131081	-7.997851	0.000368	NaN
357	1.000000	1.093116	7.36856e+06	-56489.1	955.817	-29739	0.000000	0.000000	7.093161	-0.053054	NaN	0.000000	0.001591	0.001727	28.0825	0.037188	0.002007	18.5316	-129.607	14.7037	-0.025879	1.091764	-0.121156	-0.122508	-0.053054	18.5316	-0.119008	-4.613462	0.011500	NaN
357	1.000000	1.103144	7.36856e+06	-56489.1	955.817	-29739	0.000000	0.000000	7.103190	-0.022096	NaN	0.000000	0.001605	0.001701	28.081	0.080625	0.002006	40.1836	-69.9921	-165.07	-0.057248	1.101846	-0.111128	-0.112426	-0.022096	40.1836	-0.110716	-3.111300	0.007102	NaN
357	1.000000	1.113121	7.36856e+06	-56489.1	955.818	-29739	0.000000	0.000000	7.113166	-0.048390	NaN	0.000000	0.001572	0.001774	28.081	0.089533	0.002045	43.7752	-164.965	17.7867	-0.124188	1.111880	-0.101151	-0.102392	-0.048390	43.7752	-0.100322	-1.857392	0.026053	NaN
357	1.000000	1.123116	7.36856e+06	-56489.1	955.818	-29739	0.000000	0.000000	7.123161	-0.027814	NaN	0.000000	0.001561	0.001698	28.081	0.024742	0.002000	12.3689	-56.3074	-165.563	-0.122107	1.121824	-0.091156	-0.092448	-0.027814	12.3689	-0.089470	-1.050397	0.026479	NaN
357	1.000000	1.133109	7.36856e+06	-56489.1	955.817	-29739	0.000000	0.000000	7.133156	0.013104	NaN	0.000000	0.001595	0.001696	28.0812	0.050053	0.001985	25.2185	145.142	17.2649	0.005929	1.131756	-0.081163	-0.082515	0.013104	25.2185	-0.081553	-0.676568	-0.019368	NaN
357	1.000000	1.143158	7.36856e+06	-56489.1	955.818	-29739	0.000000	0.000000	7.143207	0.048022	NaN	0.000000	0.001587	0.001731	28.0811	0.085797	0.002012	42.6485	25.6931	-163.261	-0.015381	1.141880	-0.071113	-0.072392	0.048022	42.6485	-0.071958	-0.384579	-0.124870	NaN
357	1.000000	1.153155	7.36856e+06	-56489.1	955.819	-29739	0.000000	0.000000	7.153203	0.028678	NaN	0.000000	0.001577	0.001699	28.081	0.145962	0.002138	68.2667	151.891	15.5424	0.060509	1.151824	-0.061117	-0.062447	0.028678	68.2667	-0.061432	-0.197876	-0.144929	NaN
357	1.000000	1.163138	7.36856e+06	-56489.1	955.818	-29739	0.000000	0.000000	7.163186	0.041737	NaN	0.000000	0.001583	0.001707	28.0813	0.115741	0.002057	56.2767	-107.048	-162.795	-0.005827	1.161832	-0.051134	-0.052439	0.041737	56.2767	-0.051690	-0.102611	-0.406752	NaN
357	1.000000	1.173165	7.36856e+06	-56489.1	955.817	-29739	0.000000	0.000000	7.173210	-0.053788	NaN	0.000000	0.001597	0.001710	28.0813	0.059709	0.001803	33.1247	-32.9395	16.8222	0.028915	1.171793	-0.041107	-0.042479	-0.053788	33.1247	-0.039889	-0.044871	1.198723	NaN
357	1.000000	1.183172	7.36856e+06	-56489.1	955.818	-29739	0.000000	0.000000	7.183218	-0.026018	NaN	0.000000	0.001587	0.001714	28.0811	0.098498	0.001882	52.3378	158.405	-164.41	-0.027386	1.181867	-0.031099	-0.032404	-0.026018	52.3378	-0.030727	-0.024116	1.078850	NaN
357	1.000000	1.193164	7.36856e+06	-56489.1	955.819	-29739	0.000000	0.000000	7.193208	-0.073194	NaN	0.000000	0.001571	0.001673	28.0812	0.045267	0.001887	23.9891	-97.1158	16.3898	-0.020600	1.191814	-0.021108	-0.022458	-0.073194	23.9891	-0.018820	-0.011719	6.245771	NaN
357	1.000000	1.203208	7.36856e+06	-56489.1	955.818	-29739	0.000000	0.000000	7.203253	-0.047432	NaN	0.000000	0.001576	0.001689	28.0813	0.071999	0.001981	36.3402	-89.2687	-162.869	-0.040648	1.201894	-0.011064	-0.012378	-0.047432	36.3402	-0.010085	-0.006436	7.370033	NaN
357	1.000000	1.213152	7.36856e+06	-56489.1	955.819	-29739	0.000000	0.000000	7.213203	0.091751	NaN	0.000000	0.001624	0.001696	28.0811	0.222790	0.002158	103.224	17.3211	11.25	0.109367	1.211832	-0.001120	-0.002440	0.091751	103.224	-0.001787	-0.001291	-71.0779	NaN
357	2.000000	1.222651	7.36856e+06	-56489.1	955.818	-29739	0.000000	0.000000	7.223071	9.066405	NaN	0.000000	0.001627	0.001711	28.0811	8.575963	0.001634	5247.18	9.069987	-171.507	7.882059	1.221801	0.008379	0.007530	9.066405	5247.18	0.007083	0.006116	1482.31	61298.6
357	2.000000	1.225323	7.36856e+06	-56489.1	955.818	-29739	0.000000	0.000000	7.225868	12.126	NaN	0.000000	0.001644	0.001712	28.0819	11.8276	0.001739	6800.89	10.0434	2.605553	11.5906	1.224986	0.011051	0.010714	12.126	6800.89	0.009714	0.008865	1367.86	65993.6
357	2.000000	1.227813	7.36856e+06	-56489.1	955.818	-29739	0.000000	0.000000	7.228512	15.8596	NaN	0.000000	0.001604	0.001742	28.0825	14.674	0.001780	8243.59	5.840902	-173.773	16.5171	1.227506	0.013541	0.013234	15.8596	8243.59	0.012098	0.011608	1366.26	69905.4
357	2.000000	1.230267	7.36856e+06	-56489.1	955.819	-29739	0.000000	0.000000	7.231185	21.168	NaN	0.000000	0.001567	0.001752	28.0825	17.0256	0.001787	9527.19	6.819606	5.395915	20.1967	1.229941	0.015996	0.015669	21.168	9527.19	0.014329	0.014401	1469.85	72532.9
357	2.000000	1.232792	7.36856e+06	-56489.1	955.819	-29739	0.000000	0.000000	7.233801	23.3671	NaN	0.000000	0.001577	0.001718	28.0824	19.8187	0.001790	11070.7	6.308350	-175.682	24.6793	1.232463	0.018520	0.018192	23.3671	11070.7	0.016937	0.017956	1301.33	75481.5
357	2.000000	1.235232	7.36856e+06	-56489.1	955.817	-29739	0.000000	0.000000	7.236581	31.6579	NaN	0.000000	0.001577	0.001739	28.0826	22.9337	0.001880	12199.4	5.428748	4.012568	29.8069	1.234848	0.020960	0.020576	31.6579	12199.4	0.019014	0.021016	1506.35	76883.8
357	2.000000	1.237719	7.36856e+06	-56489.1	955.818	-29739	0.000000	0.000000	7.239336	38.182	NaN	0.000000	0.001596	0.001730	28.0823	25.7499	0.001930	13344.5	6.433685	-177.895	36.9422	1.237427	0.023447	0.023156	38.182	13344.5	0.021301	0.024628	1550.36	77689.8
357	2.000000	1.240265	7.36856e+06	-56489.1	955.819	-29739	0.000000	0.000000	7.242053	42.3251	NaN	0.000000	0.001601	0.001755	28.0824	27.2524	0.001780	15313.6	4.330494	2.852058	41.0904	1.239853	0.025993	0.025581	42.3251	15313.6	0.023920	0.029080	1455.45	82044.5
357	2.000000	1.242707	7.36856e+06	-56489.1	955.818	-29739	0.000000	0.000000	7.244885	51.7788	NaN	0.000000	0.001606	0.001724	28.0825	29.7765	0.001848	16116.9	7.137775	-179.527	51.4136	1.242413	0.028435	0.028141	51.7788	16116.9	0.026026	0.032909	1573.41	81171.1
357	2.000000	1.245181	7.36856e+06	-56489.1	955.818	-29739	0.000000	0.000000	7.247625	58.2803	NaN	0.000000	0.001576	0.001727	28.0824	32.2612	0.001684	19162.4	4.557592	1.159729	55.8022	1.244842	0.030909	0.030571	58.2803	19162.4	0.028628	0.037948	1535.81	89873.4
357	2.000000	1.247675	7.36856e+06	-56489.1	955.818	-29739	0.000000	0.000000	7.250500	67.5085	NaN	0.000000	0.001595	0.001757	28.0825	35.2953	0.001759	20063	0.858252	-175.3	64.8963	1.247414	0.033404	0.033142	67.5085	20063	0.030880	0.042587	1585.18	88823.7
357	2.000000	1.250205	7.36856e+06	-56489.1	955.817	-29739	0.000000	0.000000	7.253280	73.5997	NaN	0.000000	0.001589	0.001751	28.0825	38.2424	0.001846	20713.7	7.752397	-2.794105	72.4245	1.249917	0.035933	0.035646	73.5997	20713.7	0.033268	0.047790	1540.06	86568.6
357	2.000000	1.252641	7.36856e+06	-56489.1	955.817	-29739	0.000000	0.000000	7.256055	81.8569	NaN	0.000000	0.001568	0.001719	28.0824	40.1414	0.001723	23293	1.903255	-179.221	77.2081	1.252331	0.038369	0.038059	81.8569	23293	0.035733	0.053467	1530.98	92035.5
357	2.000000	1.255229	7.36856e+06	-56489.1	955.818	-29739	0.000000	0.000000	7.258912	88.3793	NaN	0.000000	0.001595	0.001718	28.0825	44.3101	0.001861	23810.9	10.6746	-6.560641	90.1411	1.254868	0.040958	0.040596	88.3793	23810.9	0.038174	0.059394	1488.02	89264.3
357	2.000000	1.257730	7.36856e+06	-56489.1	955.817	-29739	0.000000	0.000000	7.261935	101.054	NaN	0.000000	0.001583	0.001715	28.0825	46.2229	0.001898	24351.5	9.909190	174.128	101.631	1.257341	0.043458	0.043070	101.054	24351.5	0.040346	0.064925	1556.46	87315.6
357	2.000000	1.260217	7.36856e+06	-56489.1	955.817	-29739	0.000000	0.000000	7.264861	111.727	NaN	0.000000	0.001564	0.001697	28.0812	47.8475	0.001889	25334.9	7.773727	-4.566406	109.797	1.259862	0.045945	0.045590	111.727	25334.9	0.042638	0.071022	1573.12	86854.8
357	2.000000	1.262667	7.36856e+06	-56489.1	955.817	-29739	0.000000	0.000000	7.267638	119.673	NaN	0.000000	0.001571	0.001677	28.0813	49.1955	0.001813	27142.3	5.209304	177.377	119.157	1.262420	0.048396	0.048148	119.673	27142.3	0.045089	0.077839	1537.43	88883.4
357	2.000000	1.265181	7.36856e+06	-56489.1	955.817	-29739	0.000000	0.000000	7.270795	135.315	NaN	0.000000	0.001557	0.001720	28.0815	51.9509	0.001674	31026.9	4.246391	-3.539310	132.876	1.264917	0.050909	0.050645	135.315	31026.9	0.047638	0.085253	1587.21	97085.7
357	2.000000	1.267660	7.36856e+06	-56489.1	955.817	-29739	0.000000	0.000000	7.273697	145.597	NaN	0.000000	0.001533	0.001699	28.0813	55.6727	0.001785	31186.2	4.247975	176.664	141.324	1.267329	0.053388	0.053058	145.597	31186.2	0.049887	0.092064	1581.47	93905.4
357	2.000000	1.270224	7.36856e+06	-56489.1	955.817	-29739	0.000000	0.000000	7.276650	155.054	NaN	0.000000	0.001485	0.001657	28.0813	57.1899	0.001693	33781.1	3.537926	-2.766354	154.052	1.269830	0.055952	0.055559	155.054	33781.1	0.052510	0.100328	1545.48	97440
357	2.000000	1.272651	7.36856e+06	-56489.1	955.817	-29739	0.000000	0.000000	7.279730	170.914	NaN	0.000000	0.001534	0.001659	28.0822	59.7326	0.001832	32609.7	4.821139	175.986	169.867	1.272380	0.058380	0.058108	170.914	32609.7	0.054449	0.106658	1602.45	91226.9
357	2.000000	1.275093	7.36856e+06	-56489.1	955.817	-29739	0.000000	0.000000	7.282944	189.687	NaN	0.000000	0.001520	0.001691	28.0813	61.9234	0.001751	35371.2	1.708686	-1.883148	184.122	1.274767	0.060821	0.060495	189.687	35371.2	0.056799	0.114582	1655.47	95469.6
357	2.000000	1.277607	7.36856e+06	-56489.1	955.817	-29739	0.000000	0.000000	7.285665	194.732	NaN	0.000000	0.001550	0.001691	28.0811	65.7159	0.001772	37086.1	3.828468	175.223	190.279	1.277482	0.063335	0.063210	194.732	37086.1	0.059397	0.123655	1574.8	96356
357	2.000000	1.280212	7.36856e+06	-56489.1	955.818	-29739	0.000000	0.000000	7.288930	210.767	NaN	0.000000	0.001573	0.001683	28.0812	67.3496	0.001812	37162.8	7.530599	-7.316491	209.308	1.279861	0.065940	0.065590	210.767	37162.8	0.061687	0.131926	1597.61	93479.4
357	2.000000	1.282714	7.36856e+06	-56489.1	955.818	-29739	0.000000	0.000000	7.291877	221.582	NaN	0.000000	0.001517	0.001730	28.0812	69.7434	0.001819	38339.1	5.904359	174.049	225.633	1.282298	0.068442	0.068027	221.582	38339.1	0.064108	0.140949	1572.08	93300.6
357	2.000000	1.285154	7.36856e+06	-56489.1	955.817	-29739	0.000000	0.000000	7.295142	241.631	NaN	0.000000	0.001547	0.001677	28.0811	72.6897	0.001793	40534.4	8.196603	-9.524632	237.636	1.284659	0.070883	0.070387	241.631	40534.4	0.066412	0.149798	1613.04	95684.9
357	2.000000	1.287662	7.36856e+06	-56489.1	955.818	-29739	0.000000	0.000000	7.298320	257.922	NaN	0.000000	0.001553	0.001708	28.0811	74.4981	0.001696	43933.5	3.631054	175.19	257.289	1.287342	0.073390	0.073071	257.922	43933.5	0.068987	0.159992	1612.09	100351
357	2.000000	1.290180	7.36856e+06	-56489.1	955.817	-29739	0.000000	0.000000	7.301453	272.881	NaN	0.000000	0.001521	0.001705	28.0809	76.9332	0.001720	44731	6.648931	-7.490193	271.045	1.289680	0.075908	0.075408	272.881	44731	0.071333	0.169551	1609.44	99250.3
357	2.000000	1.292655	7.36856e+06	-56489.1	955.818	-29739	0.000000	0.000000	7.304711	291.891	NaN	0.000000	0.001534	0.001711	28.0811	80.5244	0.001789	45019.7	6.283515	171.743	290.754	1.292316	0.078384	0.078045	291.891	45019.7	0.073521	0.178705	1633.37	97298.9
357	2.000000	1.295163	7.36856e+06	-56489.1	955.818	-29739	0.000000	0.000000	7.307745	304.667	NaN	0.000000	0.001485	0.001652	28.0822	82.6246	0.001720	48028.4	1.732343	-3.834098	303.608	1.294880	0.080892	0.080608	304.667	48028.4	0.076134	0.189931	1604.09	100687
357	2.000000	1.297644	7.36856e+06	-56489.1	955.817	-29739	0.000000	0.000000	7.310756	317.557	NaN	0.000000	0.001506	0.001698	28.0822	85.9022	0.001833	46865.8	3.302889	174.83	316.577	1.297388	0.083372	0.083116	317.557	46865.8	0.078290	0.199438	1592.26	95879.4
357	2.000000	1.300139	7.36856e+06	-56489.1	955.819	-29739	0.000000	0.000000	7.314253	341.907	NaN	0.000000	0.001529	0.001688	28.082	88.3473	0.001906	46340.7	5.269117	-6.496303	339.78	1.299788	0.085867	0.085516	341.907	46340.7	0.080334	0.208645	1638.7	92689.7
357	2.000000	1.302478	7.36856e+06	-56489.1	955.818	-29739	0.000000	0.000000	7.317060	353.294	NaN	0.000000	0.001501	0.001702	28.0821	88.46	0.001676	52777.5	1.092979	176.152	344.58	1.302329	0.088206	0.088057	353.294	52777.5	0.083185	0.221822	1592.69	102381
357	2.000000	1.305005	7.36856e+06	-56489.1	955.818	-29739	0.000000	0.000000	7.320213	368.506	NaN	0.000000	0.001492	0.001698	28.0822	90.9246	0.001794	50675.9	0.761883	-3.499593	358.156	1.304724	0.090733	0.090453	368.506	50675.9	0.085280	0.231737	1590.19	96178.4
357	2.000000	1.307630	7.36856e+06	-56489.1	955.818	-29739	0.000000	0.000000	7.323904	394.429	NaN	0.000000	0.001485	0.001731	28.0822	96.3642	0.001920	50183.8	10.4678	167.294	393.707	1.307371	0.093358	0.093099	394.429	50183.8	0.087463	0.242293	1627.9	93146.4
357	2.000000	1.310078	7.36856e+06	-56489.1	955.818	-29739	0.000000	0.000000	7.327140	413.571	NaN	0.000000	0.001479	0.001736	28.0823	96.3668	0.001846	52209.5	4.445612	-6.849376	406.936	1.309748	0.095806	0.095476	413.571	52209.5	0.089865	0.254155	1627.24	94617.9
357	2.000000	1.312473	7.36856e+06	-56489.1	955.818	-29739	0.000000	0.000000	7.330218	430.181	NaN	0.000000	0.001517	0.001734	28.0823	98.3533	0.001849	53200.8	5.707558	171.413	422.248	1.312292	0.098201	0.098020	430.181	53200.8	0.092136	0.265617	1619.56	94311.3
357	2.000000	1.315137	7.36856e+06	-56489.1	955.818	-29739	0.000000	0.000000	7.333739	451.005	NaN	0.000000	0.001525	0.001697	28.0823	100.48	0.001778	56514.9	2.092745	-4.578477	449.384	1.314695	0.100866	0.100423	451.005	56514.9	0.094880	0.279779	1612.01	97617.8
357	2.000000	1.317636	7.36856e+06	-56489.1	955.818	-29739	0.000000	0.000000	7.336915	467.463	NaN	0.000000	0.001523	0.001761	28.0824	104.072	0.001765	58979.9	1.928021	174.495	465.897	1.317438	0.103365	0.103166	467.463	58979.9	0.097420	0.293193	1594.39	99517.7
357	2.000000	1.320083	7.36856e+06	-56489.1	955.818	-29739	0.000000	0.000000	7.340537	496.021	NaN	0.000000	0.001580	0.001719	28.0825	106.867	0.001853	57673.2	6.719523	-9.715146	490.028	1.319671	0.105811	0.105399	496.021	57673.2	0.099361	0.303641	1633.58	95624.1
357	2.000000	1.321126	7.36856e+06	-56489.1	955.818	-29739	0.000000	0.000000	7.341741	499.945	NaN	0.000000	0.001552	0.001716	28.0824	108.775	0.001785	60940	5.114535	-8.867556	497.154	1.320862	0.106854	0.106590	499.945	60940	0.100701	0.310957	1607.76	99844.8