File: remote_trans/data/nanoindenter/0828-1/data/Data_2025-08-06,11h17m57s/2025-07-22_16-23-58_1_245.txt
2025-07-22, 16:23:58, 1
Index	Phase	Displacement	Time	Pos X	Pos Y	Pos Z	Rot A	Rot B	Piezo Z	Force A	Force B	Gripper	Voltage A	Voltage B	Temperature	Amplitude force	Amplitude pos	Stiffness	Phase shift	Phase excitation	Force A raw	Displacement raw	HMax	HMax raw	Real Force	Real Stiffness	Contact Depth	Area	Hardness	Reduced Mod.
[#]	[#]	[um]	[s]	[um]	[um]	[um]	[m°]	[m°]	[um]	[uN]	[uN]	[V]	[V]	[V]	[°C]	[uN]	[um]	[N/m]	[°]	[°]	[uN]	[um]	[um]	[um]	[uN]	[N/m]	[um]	[um^2]	[MPa]	[MPa]
245	1.000000	0.002347	7.36744e+06	-50889.1	955.82	-29754	0.000000	0.000000	6.002807	0.024904	NaN	0.000000	0.001593	0.001622	28.0781	0.043241	0.000953	45.3786	-48.5768	-169.295	0.026707	0.001110	-1.736977	-1.738214	0.024904	45.3786	-1.737389	-1.595935E+23	-1.560493E-25	NaN
245	1.000000	0.014349	7.36744e+06	-50889.1	955.819	-29754	0.000000	0.000000	6.014807	-0.033896	NaN	0.000000	0.001604	0.001638	28.0782	0.101742	0.001708	59.5848	22.611	-166.033	-0.010977	0.013163	-1.724975	-1.726161	-0.033896	59.5848	-1.724548	-1.077705E+23	3.145181E-25	NaN
245	1.000000	0.026348	7.36744e+06	-50889.1	955.818	-29754	0.000000	0.000000	6.026807	-0.007715	NaN	0.000000	0.001635	0.001633	28.078	0.094916	0.001883	50.3942	-7.513177	-166.108	-0.088341	0.024966	-1.712976	-1.714358	-0.007715	50.3942	-1.712861	-7.538417E+22	1.023461E-25	NaN
245	1.000000	0.038309	7.36744e+06	-50889.1	955.819	-29754	0.000000	0.000000	6.038768	-0.007223	NaN	0.000000	0.001618	0.001604	28.0781	0.120351	0.001908	63.0916	-94.6434	-169.114	0.069249	0.036942	-1.701015	-1.702382	-0.007223	63.0916	-1.700929	-5.233364E+22	1.380254E-25	NaN
245	1.000000	0.050279	7.36744e+06	-50889.1	955.818	-29754	0.000000	0.000000	6.050739	0.002977	NaN	0.000000	0.001599	0.001652	28.0789	0.068564	0.001825	37.5749	48.3	-166.954	-0.059143	0.048997	-1.689045	-1.690326	0.002977	37.5749	-1.689104	-3.644875E+22	-8.168442E-26	NaN
245	1.000000	0.062302	7.36744e+06	-50889.1	955.818	-29754	0.000000	0.000000	6.062763	0.018666	NaN	0.000000	0.001559	0.001632	28.0792	0.107307	0.001886	56.8868	51.4181	-164.152	0.050156	0.061000	-1.677021	-1.678324	0.018666	56.8868	-1.677268	-2.537546E+22	-7.355878E-25	NaN
245	1.000000	0.074304	7.36744e+06	-50889.1	955.818	-29754	0.000000	0.000000	6.074763	-0.008003	NaN	0.000000	0.001541	0.001621	28.0791	0.072346	0.001986	36.4323	170.101	-166.164	-0.010429	0.073030	-1.665020	-1.666294	-0.008003	36.4323	-1.664855	-1.735685E+22	4.610694E-25	NaN
245	1.000000	0.086311	7.36744e+06	-50889.1	955.818	-29753.9	0.000000	0.000000	6.086773	0.037855	NaN	0.000000	0.001576	0.001646	28.0791	0.035965	0.001916	18.772	-86.493	-165.727	0.084986	0.084987	-1.653012	-1.654336	0.037855	18.772	-1.654525	-1.265241E+22	-2.991906E-24	NaN
245	1.000000	0.098300	7.36744e+06	-50889.1	955.818	-29753.9	0.000000	0.000000	6.098760	-0.000711	NaN	0.000000	0.001642	0.001613	28.0792	0.057987	0.002022	28.684	-159.336	-168.101	-0.001641	0.097005	-1.641023	-1.642319	-0.000711	28.684	-1.641005	-8.364891E+21	8.504690E-26	NaN
245	1.000000	0.110324	7.36744e+06	-50889.1	955.819	-29753.9	0.000000	0.000000	6.110780	-0.105223	NaN	0.000000	0.001589	0.001664	28.0795	0.107586	0.002040	52.7494	60.0734	-170.898	-0.036586	0.109052	-1.628999	-1.630272	-0.105223	52.7494	-1.627503	-5.533030E+21	1.901722E-23	NaN
245	1.000000	0.122328	7.36744e+06	-50889.1	955.818	-29753.9	0.000000	0.000000	6.122791	0.071690	NaN	0.000000	0.001572	0.001633	28.0793	0.067802	0.002151	31.5244	48.6518	-168.718	0.113144	0.121012	-1.616996	-1.618312	0.071690	31.5244	-1.618701	-4.225977E+21	-1.696415E-23	NaN
245	1.000000	0.134306	7.36744e+06	-50889.1	955.819	-29753.9	0.000000	0.000000	6.134764	-0.031966	NaN	0.000000	0.001603	0.001661	28.0793	0.051675	0.002070	24.9603	61.4255	-166.946	0.013671	0.133014	-1.605018	-1.606309	-0.031966	24.9603	-1.604057	-2.698890E+21	1.184413E-23	NaN
245	1.000000	0.146310	7.36744e+06	-50889.1	955.819	-29753.9	0.000000	0.000000	6.146772	0.050741	NaN	0.000000	0.001600	0.001634	28.0834	0.050022	0.001902	26.3058	78.6853	-163.528	-0.015147	0.145023	-1.593014	-1.594301	0.050741	26.3058	-1.594460	-2.011609E+21	-2.522425E-23	NaN
245	1.000000	0.158358	7.36744e+06	-50889.1	955.818	-29753.9	0.000000	0.000000	6.158818	0.020649	NaN	0.000000	0.001593	0.001632	28.0799	0.080148	0.001941	41.2853	-162.175	-161.82	0.041375	0.157010	-1.580966	-1.582314	0.020649	41.2853	-1.581341	-1.345937E+21	-1.534169E-23	NaN
245	1.000000	0.170325	7.36744e+06	-50889.1	955.819	-29753.9	0.000000	0.000000	6.170786	0.038567	NaN	0.000000	0.001589	0.001643	28.0793	0.092209	0.002074	44.4497	-102.379	-166.113	0.014716	0.169020	-1.568999	-1.570304	0.038567	44.4497	-1.569650	-9.407576E+20	-4.099611E-23	NaN
245	1.000000	0.182341	7.36744e+06	-50889.1	955.819	-29753.9	0.000000	0.000000	6.182800	-0.020281	NaN	0.000000	0.001639	0.001673	28.0784	0.080747	0.002009	40.1968	134.216	-165.221	-0.003046	0.181051	-1.556983	-1.558272	-0.020281	40.1968	-1.556604	-6.307943E+20	3.215171E-23	NaN
245	1.000000	0.194356	7.36744e+06	-50889.1	955.818	-29753.9	0.000000	0.000000	6.194815	-0.012612	NaN	0.000000	0.001595	0.001610	28.0784	0.108730	0.001878	57.9062	-74.5131	-165.673	-0.006073	0.193044	-1.544967	-1.546279	-0.012612	57.9062	-1.544804	-4.393806E+20	2.870367E-23	NaN
245	1.000000	0.206334	7.36744e+06	-50889.1	955.818	-29753.9	0.000000	0.000000	6.206796	0.053743	NaN	0.000000	0.001610	0.001633	28.0782	0.092639	0.001998	46.367	-177.775	-167.492	0.086761	0.204985	-1.532990	-1.534338	0.053743	46.367	-1.533859	-3.141632E+20	-1.710675E-22	NaN
245	1.000000	0.218377	7.36744e+06	-50889.1	955.819	-29753.9	0.000000	0.000000	6.218837	0.008150	NaN	0.000000	0.001652	0.001623	28.0786	0.034682	0.002004	17.3099	-59.1905	-162.953	-0.127375	0.217104	-1.520947	-1.522220	0.008150	17.3099	-1.521300	-2.137715E+20	-3.812505E-23	NaN
245	1.000000	0.230357	7.36744e+06	-50889.1	955.819	-29753.9	0.000000	0.000000	6.230819	0.063249	NaN	0.000000	0.001657	0.001630	28.0787	0.057936	0.001858	31.1816	-165.159	-164.944	0.154989	0.229038	-1.508967	-1.510286	0.063249	31.1816	-1.510488	-1.534578E+20	-4.121596E-22	NaN
245	1.000000	0.242376	7.36744e+06	-50889.1	955.819	-29753.9	0.000000	0.000000	6.242836	0.012769	NaN	0.000000	0.001655	0.001639	28.0784	0.103368	0.002109	49.0063	-142.134	-161.586	0.042832	0.241077	-1.496948	-1.498246	0.012769	49.0063	-1.497143	-1.019213E+20	-1.252872E-22	NaN
245	1.000000	0.254367	7.36744e+06	-50889.1	955.817	-29753.9	0.000000	0.000000	6.254830	0.070864	NaN	0.000000	0.001574	0.001662	28.0783	0.051244	0.001937	26.4567	-102.941	-167.397	0.078937	0.253099	-1.484957	-1.486225	0.070864	26.4567	-1.486965	-7.459292E+19	-9.500047E-22	NaN
245	1.000000	0.266371	7.36744e+06	-50889.1	955.819	-29753.9	0.000000	0.000000	6.266830	-0.035213	NaN	0.000000	0.001615	0.001658	28.0786	0.017142	0.002076	8.258653	-78.4222	-166.161	-0.002735	0.265075	-1.472952	-1.474249	-0.035213	8.258653	-1.469755	-4.399509E+19	8.003784E-22	NaN
245	1.000000	0.278415	7.36744e+06	-50889.1	955.819	-29753.9	0.000000	0.000000	6.278875	-0.009112	NaN	0.000000	0.001580	0.001629	28.0785	0.105975	0.001925	55.0383	-173.736	-166.563	-0.064395	0.277115	-1.460908	-1.462209	-0.009112	55.0383	-1.460784	-3.340966E+19	2.727482E-22	NaN
245	1.000000	0.290396	7.36744e+06	-50889.1	955.817	-29753.9	0.000000	0.000000	6.290857	0.028559	NaN	0.000000	0.001608	0.001656	28.0786	0.158291	0.002026	78.1341	43.2087	-163.617	0.129651	0.289045	-1.448927	-1.450279	0.028559	78.1341	-1.449202	-2.341565E+19	-1.219673E-21	NaN
245	1.000000	0.302374	7.36744e+06	-50889.1	955.818	-29753.9	0.000000	0.000000	6.302834	0.009444	NaN	0.000000	0.001594	0.001671	28.0784	0.026595	0.002161	12.3069	-108.15	-168.012	-0.040751	0.301087	-1.436950	-1.438237	0.009444	12.3069	-1.437525	-1.636305E+19	-5.771544E-22	NaN
245	1.000000	0.314418	7.36744e+06	-50889.1	955.819	-29753.9	0.000000	0.000000	6.314880	0.054166	NaN	0.000000	0.001563	0.001658	28.0794	0.055889	0.001984	28.1705	33.3302	-166.152	0.097314	0.313061	-1.424906	-1.426263	0.054166	28.1705	-1.426348	-1.161048E+19	-4.665308E-21	NaN
245	1.000000	0.326418	7.36744e+06	-50889.1	955.818	-29753.9	0.000000	0.000000	6.326879	0.048851	NaN	0.000000	0.001598	0.001682	28.0799	0.113202	0.001988	56.9344	176.858	-164.46	-0.017780	0.325133	-1.412906	-1.414190	0.048851	56.9344	-1.413550	-7.837621E+18	-6.232852E-21	NaN
245	1.000000	0.338429	7.36744e+06	-50889.1	955.818	-29753.9	0.000000	0.000000	6.338890	0.031819	NaN	0.000000	0.001599	0.001648	28.0798	0.038475	0.002040	18.8598	-96.8426	-165.889	0.045505	0.337126	-1.400894	-1.402198	0.031819	18.8598	-1.402160	-5.524280E+18	-5.759803E-21	NaN
245	1.000000	0.350434	7.36744e+06	-50889.1	955.818	-29753.9	0.000000	0.000000	6.350895	0.043087	NaN	0.000000	0.001697	0.001648	28.0797	0.038741	0.001970	19.6656	111.096	-166.843	0.067647	0.349150	-1.388890	-1.390174	0.043087	19.6656	-1.390533	-3.865256E+18	-1.114721E-20	NaN
245	1.000000	0.362398	7.36744e+06	-50889.1	955.819	-29753.9	0.000000	0.000000	6.362861	0.062089	NaN	0.000000	0.001686	0.001698	28.0797	0.049827	0.001919	25.9617	109.511	-165.613	0.097440	0.361094	-1.376925	-1.378229	0.062089	25.9617	-1.378719	-2.688733E+18	-2.309245E-20	NaN
245	1.000000	0.374414	7.36744e+06	-50889.1	955.818	-29753.9	0.000000	0.000000	6.374874	0.021369	NaN	0.000000	0.001627	0.001657	28.0796	0.059059	0.002118	27.8809	-97.997	-164.915	0.093715	0.373122	-1.364910	-1.366201	0.021369	27.8809	-1.365485	-1.790318E+18	-1.193575E-20	NaN
245	1.000000	0.386437	7.36744e+06	-50889.1	955.819	-29753.9	0.000000	0.000000	6.386898	0.038358	NaN	0.000000	0.001596	0.001656	28.0796	0.068986	0.001969	35.0279	80.502	-164.463	0.094358	0.385097	-1.352887	-1.354226	0.038358	35.0279	-1.353708	-1.246614E+18	-3.076953E-20	NaN
245	1.000000	0.398414	7.36744e+06	-50889.1	955.819	-29753.9	0.000000	0.000000	6.398876	0.046864	NaN	0.000000	0.001641	0.001618	28.0796	0.126310	0.002048	61.6698	-103.847	-168.721	0.037795	0.397126	-1.340909	-1.342198	0.046864	61.6698	-1.341479	-8.559837E+17	-5.474869E-20	NaN
245	1.000000	0.410472	7.36744e+06	-50889.1	955.819	-29753.9	0.000000	0.000000	6.410931	-0.017161	NaN	0.000000	0.001627	0.001630	28.0796	0.056237	0.001963	28.6417	-11.2898	-166.15	-0.018591	0.409151	-1.328852	-1.330172	-0.017161	28.6417	-1.328403	-5.725787E+17	2.997223E-20	NaN
245	1.000000	0.422459	7.36744e+06	-50889.1	955.818	-29753.9	0.000000	0.000000	6.422917	-0.040946	NaN	0.000000	0.001573	0.001637	28.0796	0.031219	0.001935	16.1316	-64.1073	-171.087	-0.111474	0.421136	-1.316864	-1.318188	-0.040946	16.1316	-1.314961	-3.786921E+17	1.081237E-19	NaN
245	1.000000	0.434448	7.36744e+06	-50889.1	955.819	-29753.9	0.000000	0.000000	6.434910	0.058018	NaN	0.000000	0.001575	0.001661	28.0795	0.022153	0.001997	11.0946	156.141	-166.777	0.035698	0.433158	-1.304876	-1.306165	0.058018	11.0946	-1.308798	-3.132947E+17	-1.851861E-19	NaN
245	1.000000	0.446428	7.36744e+06	-50889.1	955.819	-29753.9	0.000000	0.000000	6.446889	0.035188	NaN	0.000000	0.001633	0.001655	28.0796	0.102204	0.001956	52.2616	-135.521	-166.12	0.060622	0.445182	-1.292896	-1.294142	0.035188	52.2616	-1.293401	-1.950755E+17	-1.803802E-19	NaN
245	1.000000	0.458457	7.36744e+06	-50889.1	955.819	-29753.9	0.000000	0.000000	6.458914	-0.055761	NaN	0.000000	0.001598	0.001690	28.0783	0.198633	0.002073	95.8064	92.234	-165.437	-0.027702	0.457168	-1.280867	-1.282156	-0.055761	95.8064	-1.280431	-1.308709E+17	4.260781E-19	NaN
245	1.000000	0.470501	7.36744e+06	-50889.1	955.819	-29753.9	0.000000	0.000000	6.470960	-0.015035	NaN	0.000000	0.001596	0.001692	28.0786	0.085014	0.002048	41.5018	-104.653	-165.711	-0.043791	0.469153	-1.268822	-1.270170	-0.015035	41.5018	-1.268551	-9.078462E+16	1.656065E-19	NaN
245	1.000000	0.482493	7.36744e+06	-50889.1	955.818	-29753.9	0.000000	0.000000	6.482950	-0.059755	NaN	0.000000	0.001605	0.001718	28.0783	0.064862	0.002023	32.0698	-177.203	-167.164	0.019062	0.481146	-1.256831	-1.258178	-0.059755	32.0698	-1.255433	-6.061650E+16	9.857858E-19	NaN
245	1.000000	0.494487	7.36744e+06	-50889.1	955.818	-29753.9	0.000000	0.000000	6.494948	0.040260	NaN	0.000000	0.001604	0.001707	28.0783	0.039204	0.002107	18.6028	-70.3198	-164.078	0.033046	0.493165	-1.244837	-1.246159	0.040260	18.6028	-1.246460	-4.598007E+16	-8.755928E-19	NaN
245	1.000000	0.506468	7.36744e+06	-50889.1	955.817	-29753.9	0.000000	0.000000	6.506927	0.004051	NaN	0.000000	0.001593	0.001680	28.0786	0.016850	0.001896	8.885875	82.3372	-168.865	0.057542	0.505196	-1.232856	-1.234128	0.004051	8.885875	-1.233198	-3.055859E+16	-1.325666E-19	NaN
245	1.000000	0.518493	7.36744e+06	-50889.1	955.819	-29753.9	0.000000	0.000000	6.518953	0.012356	NaN	0.000000	0.001611	0.001670	28.0782	0.053340	0.001859	28.6901	-170.6	-169.69	0.065238	0.517074	-1.220831	-1.222249	0.012356	28.6901	-1.221154	-2.108387E+16	-5.860180E-19	NaN
245	1.000000	0.530448	7.36744e+06	-50889.1	955.819	-29753.9	0.000000	0.000000	6.530910	0.055083	NaN	0.000000	0.001626	0.001682	28.0783	0.053756	0.001950	27.5731	60.1229	-166.924	-0.006010	0.529121	-1.208876	-1.210202	0.055083	27.5731	-1.210374	-1.512349E+16	-3.642203E-18	NaN
245	1.000000	0.542481	7.36744e+06	-50889.1	955.818	-29753.9	0.000000	0.000000	6.542944	0.081229	NaN	0.000000	0.001615	0.001664	28.0785	0.168960	0.001975	85.5282	-76.9126	-166.091	0.050734	0.541190	-1.196843	-1.198133	0.081229	85.5282	-1.197555	-1.018620E+16	-7.974463E-18	NaN
245	1.000000	0.554507	7.36744e+06	-50889.1	955.819	-29753.9	0.000000	0.000000	6.554969	0.048283	NaN	0.000000	0.001580	0.001676	28.0782	0.077551	0.002033	38.1432	-82.3211	-166.054	0.001980	0.553154	-1.184816	-1.186170	0.048283	38.1432	-1.185766	-7.081221E+15	-6.818476E-18	NaN
245	1.000000	0.566485	7.36744e+06	-50889.1	955.818	-29753.9	0.000000	0.000000	6.566948	0.060982	NaN	0.000000	0.001607	0.001669	28.0783	0.099307	0.002008	49.4554	22.727	-164.051	0.047455	0.565178	-1.172838	-1.174146	0.060982	49.4554	-1.173763	-4.890006E+15	-1.247072E-17	NaN
245	1.000000	0.578507	7.36744e+06	-50889.1	955.82	-29753.9	0.000000	0.000000	6.578972	0.124589	NaN	0.000000	0.001609	0.001683	28.078	0.028558	0.002050	13.9293	-131.397	-168.763	0.104981	0.577197	-1.160817	-1.162127	0.124589	13.9293	-1.167525	-4.033869E+15	-3.088575E-17	NaN
245	1.000000	0.590540	7.36744e+06	-50889.1	955.818	-29753.9	0.000000	0.000000	6.591005	0.124534	NaN	0.000000	0.001596	0.001670	28.0795	0.032609	0.002051	15.8972	1.004933	-166.273	0.073684	0.589172	-1.148783	-1.150152	0.124534	15.8972	-1.154659	-2.711901E+15	-4.592130E-17	NaN
245	1.000000	0.602521	7.36744e+06	-50889.1	955.819	-29753.9	0.000000	0.000000	6.602981	0.011955	NaN	0.000000	0.001617	0.001692	28.0797	0.014064	0.002096	6.709620	19.917	-166.096	0.025474	0.601248	-1.136803	-1.138075	0.011955	6.709620	-1.138139	-1.628479E+15	-7.341472E-18	NaN
245	1.000000	0.614503	7.36744e+06	-50889.1	955.818	-29753.9	0.000000	0.000000	6.614962	-0.009131	NaN	0.000000	0.001635	0.001703	28.0794	0.046075	0.001908	24.1492	-167.02	-167.149	0.021029	0.613223	-1.124821	-1.126101	-0.009131	24.1492	-1.124537	-1.069898E+15	8.534145E-18	NaN
245	1.000000	0.626551	7.36744e+06	-50889.1	955.819	-29753.9	0.000000	0.000000	6.627007	-0.080507	NaN	0.000000	0.001639	0.001693	28.0794	0.075708	0.002051	36.9183	104.896	-164.913	-0.048039	0.625198	-1.112773	-1.114126	-0.080507	36.9183	-1.111138	-7.072195E+14	1.138364E-16	NaN
245	1.000000	0.638556	7.36744e+06	-50889.1	955.818	-29753.9	0.000000	0.000000	6.639017	0.025995	NaN	0.000000	0.001622	0.001694	28.0795	0.050066	0.001870	26.7745	170.284	-168.913	-0.006671	0.637228	-1.100767	-1.102096	0.025995	26.7745	-1.101496	-5.249806E+14	-4.951542E-17	NaN
245	1.000000	0.650535	7.36744e+06	-50889.1	955.819	-29753.9	0.000000	0.000000	6.650996	0.036163	NaN	0.000000	0.001618	0.001646	28.0799	0.121283	0.001918	63.218	-80.7584	-169.122	-0.010809	0.649234	-1.088788	-1.090089	0.036163	63.218	-1.089217	-3.591735E+14	-1.006838E-16	NaN
245	1.000000	0.662544	7.36744e+06	-50889.1	955.818	-29753.9	0.000000	0.000000	6.663004	0.004757	NaN	0.000000	0.001640	0.001667	28.0794	0.049661	0.001779	27.9153	91.3769	-169.916	0.044193	0.661197	-1.076780	-1.078127	0.004757	27.9153	-1.076908	-2.454614E+14	-1.938003E-17	NaN
245	1.000000	0.674562	7.36744e+06	-50889.1	955.819	-29753.9	0.000000	0.000000	6.675022	0.007301	NaN	0.000000	0.001641	0.001675	28.0794	0.073266	0.002047	35.7875	62.947	-162.928	-0.005740	0.673207	-1.064762	-1.066117	0.007301	35.7875	-1.064915	-1.693800E+14	-4.310157E-17	NaN
245	1.000000	0.686554	7.36744e+06	-50889.1	955.818	-29753.9	0.000000	0.000000	6.687014	0.016595	NaN	0.000000	0.001620	0.001688	28.0793	0.122706	0.002046	59.9614	126.563	-166.253	-0.004625	0.685252	-1.052770	-1.054072	0.016595	59.9614	-1.052977	-1.170677E+14	-1.417588E-16	NaN
245	1.000000	0.698576	7.36745e+06	-50889.1	955.819	-29753.9	0.000000	0.000000	6.699034	-0.031180	NaN	0.000000	0.001621	0.001686	28.0797	0.032968	0.002026	16.275	-20.3768	-169.58	0.057727	0.697204	-1.040748	-1.042119	-0.031180	16.275	-1.039311	-7.668385E+13	4.066051E-16	NaN
245	1.000000	0.710550	7.36745e+06	-50889.1	955.818	-29753.9	0.000000	0.000000	6.711010	0.008295	NaN	0.000000	0.001605	0.001700	28.0796	0.057692	0.001954	29.5177	-85.2663	-166.216	-0.007005	0.709220	-1.028774	-1.030104	0.008295	29.5177	-1.028984	-5.569528E+13	-1.489277E-16	NaN
245	1.000000	0.722552	7.36745e+06	-50889.1	955.818	-29753.9	0.000000	0.000000	6.723012	-0.008780	NaN	0.000000	0.001612	0.001667	28.0793	0.057861	0.002053	28.1825	-24.3226	-169.523	-0.019845	0.721247	-1.016771	-1.018077	-0.008780	28.1825	-1.016538	-3.787624E+13	2.317992E-16	NaN
245	1.000000	0.734546	7.36745e+06	-50889.1	955.818	-29753.9	0.000000	0.000000	6.735008	0.045315	NaN	0.000000	0.001605	0.001676	28.0784	0.113557	0.001978	57.4035	72.6915	-169.411	0.028491	0.733296	-1.004777	-1.006027	0.045315	57.4035	-1.005369	-2.679498E+13	-1.691194E-15	NaN
245	1.000000	0.746581	7.36745e+06	-50889.1	955.819	-29753.9	0.000000	0.000000	6.747042	0.021076	NaN	0.000000	0.001609	0.001659	28.0781	0.071932	0.001886	38.1343	-136.188	-165.487	0.019285	0.745306	-0.992743	-0.994017	0.021076	38.1343	-0.993157	-1.834971E+13	-1.148573E-15	NaN
245	1.000000	0.758594	7.36745e+06	-50889.1	955.819	-29753.9	0.000000	0.000000	6.759054	0.005776	NaN	0.000000	0.001629	0.001615	28.0781	0.053266	0.001813	29.3718	3.351438	-166.237	-0.041352	0.757277	-0.980729	-0.982047	0.005776	29.3718	-0.980877	-1.253787E+13	-4.607226E-16	NaN
245	1.000000	0.770605	7.36745e+06	-50889.1	955.819	-29753.9	0.000000	0.000000	6.771068	0.074054	NaN	0.000000	0.001593	0.001657	28.0782	0.023979	0.002074	11.5634	-114.363	-167.062	0.102893	0.769310	-0.968718	-0.970014	0.074054	11.5634	-0.973522	-9.979763E+12	-7.420414E-15	NaN
245	1.000000	0.782584	7.36745e+06	-50889.1	955.819	-29753.9	0.000000	0.000000	6.783047	0.063664	NaN	0.000000	0.001577	0.001633	28.0783	0.047343	0.002068	22.8905	-51.2561	-167.501	-0.039533	0.781287	-0.956739	-0.958037	0.063664	22.8905	-0.958825	-6.324557E+12	-1.006617E-14	NaN
245	1.000000	0.794658	7.36745e+06	-50889.1	955.818	-29753.9	0.000000	0.000000	6.795117	-0.021566	NaN	0.000000	0.001562	0.001619	28.079	0.021731	0.001908	11.3878	-54.4413	-165.484	-0.008247	0.793242	-0.944665	-0.946082	-0.021566	11.3878	-0.943245	-3.898668E+12	5.531740E-15	NaN
245	1.000000	0.806627	7.36745e+06	-50889.1	955.819	-29753.9	0.000000	0.000000	6.807086	-0.013297	NaN	0.000000	0.001579	0.001684	28.0786	0.066861	0.002060	32.4506	44.6049	-165.197	0.002371	0.805342	-0.932697	-0.933982	-0.013297	32.4506	-0.932390	-2.782583E+12	4.778826E-15	NaN
245	1.000000	0.818584	7.36745e+06	-50889.1	955.819	-29753.9	0.000000	0.000000	6.819047	0.091663	NaN	0.000000	0.001611	0.001686	28.0784	0.052944	0.001935	27.3594	-155.492	-164.5	0.084825	0.817345	-0.920740	-0.921979	0.091663	27.3594	-0.923253	-2.094694E+12	-4.375981E-14	NaN
245	1.000000	0.830630	7.36745e+06	-50889.1	955.818	-29753.9	0.000000	0.000000	6.831091	0.027807	NaN	0.000000	0.001610	0.001673	28.0784	0.046064	0.002006	22.9652	-25.835	-166.598	0.102414	0.829362	-0.908694	-0.909962	0.027807	22.9652	-0.909602	-1.370206E+12	-2.029394E-14	NaN
245	1.000000	0.842662	7.36745e+06	-50889.1	955.818	-29753.9	0.000000	0.000000	6.843124	0.059012	NaN	0.000000	0.001615	0.001674	28.0783	0.036282	0.002012	18.0348	-52.6131	-165.979	0.035499	0.841294	-0.896661	-0.898029	0.059012	18.0348	-0.899115	-9.888112E+11	-5.968011E-14	NaN
245	1.000000	0.854622	7.36745e+06	-50889.1	955.819	-29753.9	0.000000	0.000000	6.855080	-0.048535	NaN	0.000000	0.001640	0.001655	28.0786	0.059379	0.001982	29.954	61.4881	-165.285	-0.054323	0.853323	-0.884702	-0.886001	-0.048535	29.954	-0.883487	-6.079325E+11	7.983565E-14	NaN
245	1.000000	0.866626	7.36745e+06	-50889.1	955.818	-29753.9	0.000000	0.000000	6.867088	0.058129	NaN	0.000000	0.001632	0.001709	28.0798	0.063125	0.001991	31.7023	4.069087	-165.5	0.042273	0.865415	-0.872698	-0.873908	0.058129	31.7023	-0.874073	-4.534709E+11	-1.281871E-13	NaN
245	1.000000	0.878636	7.36745e+06	-50889.1	955.818	-29753.9	0.000000	0.000000	6.879098	0.044876	NaN	0.000000	0.001610	0.001679	28.0798	0.111529	0.002078	53.6828	-14.3032	-163.655	0.118573	0.877377	-0.860687	-0.861946	0.044876	53.6828	-0.861314	-3.047260E+11	-1.472651E-13	NaN
245	1.000000	0.890661	7.36745e+06	-50889.1	955.818	-29753.9	0.000000	0.000000	6.891121	-0.001426	NaN	0.000000	0.001647	0.001693	28.08	0.094143	0.001951	48.2628	-105.498	-167.178	0.043601	0.889341	-0.848662	-0.849983	-0.001426	48.2628	-0.848640	-2.052690E+11	6.948162E-15	NaN
245	1.000000	0.902654	7.36745e+06	-50889.1	955.82	-29753.9	0.000000	0.000000	6.903115	0.017384	NaN	0.000000	0.001644	0.001691	28.0798	0.105997	0.002054	51.6145	-83.2759	-166.635	0.031692	0.901301	-0.836670	-0.838023	0.017384	51.6145	-0.836922	-1.424268E+11	-1.220534E-13	NaN
245	1.000000	0.914669	7.36745e+06	-50889.1	955.819	-29753.9	0.000000	0.000000	6.915129	0.022321	NaN	0.000000	0.001608	0.001680	28.0799	0.112876	0.002050	55.0536	100.008	-165.171	-0.018493	0.913303	-0.824655	-0.826021	0.022321	55.0536	-0.824959	-9.805148E+10	-2.276456E-13	NaN
245	1.000000	0.926659	7.36745e+06	-50889.1	955.819	-29753.9	0.000000	0.000000	6.927117	-0.036549	NaN	0.000000	0.001619	0.001685	28.0801	0.124279	0.002043	60.8239	-29.4608	-167.233	0.059557	0.925339	-0.812665	-0.813984	-0.036549	60.8239	-0.812214	-6.585814E+10	5.549583E-13	NaN
245	1.000000	0.938662	7.36745e+06	-50889.1	955.819	-29753.9	0.000000	0.000000	6.939124	0.059432	NaN	0.000000	0.001592	0.001691	28.0799	0.123533	0.001907	64.781	-118.156	-165.863	0.012470	0.937310	-0.800662	-0.802014	0.059432	64.781	-0.801350	-4.690161E+10	-1.267167E-12	NaN
245	1.000000	0.950681	7.36745e+06	-50889.1	955.818	-29753.9	0.000000	0.000000	6.951140	-0.013620	NaN	0.000000	0.001591	0.001683	28.0797	0.082433	0.001927	42.7719	75.2653	-166.563	0.044874	0.949311	-0.788643	-0.790012	-0.013620	42.7719	-0.788404	-3.128987E+10	4.352925E-13	NaN
245	1.000000	0.962666	7.36745e+06	-50889.1	955.819	-29753.9	0.000000	0.000000	6.963124	-0.034827	NaN	0.000000	0.001613	0.001701	28.0799	0.153379	0.001912	80.2076	-13.7105	-168.041	0.029397	0.961358	-0.776658	-0.777966	-0.034827	80.2076	-0.776332	-2.144812E+10	1.623756E-12	NaN
245	1.000000	0.974678	7.36745e+06	-50889.1	955.818	-29753.9	0.000000	0.000000	6.975138	0.010448	NaN	0.000000	0.001618	0.001688	28.0796	0.018316	0.002016	9.085984	-147.289	-166.786	-0.043876	0.973394	-0.764646	-0.765930	0.010448	9.085984	-0.765509	-1.528378E+10	-6.835741E-13	NaN
245	1.000000	0.986655	7.36745e+06	-50889.1	955.819	-29753.9	0.000000	0.000000	6.987117	0.052358	NaN	0.000000	0.001611	0.001710	28.0797	0.101287	0.001964	51.5842	109.392	-165.32	0.076028	0.985329	-0.752669	-0.753995	0.052358	51.5842	-0.753430	-1.046895E+10	-5.001226E-12	NaN
245	1.000000	0.998706	7.36745e+06	-50889.1	955.818	-29753.9	0.000000	0.000000	6.999168	0.062398	NaN	0.000000	0.001618	0.001656	28.0788	0.085170	0.001905	44.72	-160.957	-166.339	0.012711	0.997342	-0.740618	-0.741981	0.062398	44.72	-0.741665	-7.239802E+9	-8.618809E-12	NaN
245	1.000000	1.010677	7.36745e+06	-50889.1	955.819	-29753.9	0.000000	0.000000	7.011136	-0.011246	NaN	0.000000	0.001645	0.001681	28.0785	0.117046	0.001940	60.3314	167.102	-170.41	0.019999	1.009406	-0.728647	-0.729917	-0.011246	60.3314	-0.728507	-4.791317E+9	2.347171E-12	NaN
245	1.000000	1.022698	7.36745e+06	-50889.1	955.819	-29753.9	0.000000	0.000000	7.023158	0.001332	NaN	0.000000	0.001641	0.001702	28.0786	0.192135	0.002124	90.4661	125.793	-164.544	-0.047944	1.021363	-0.716626	-0.717961	0.001332	90.4661	-0.716637	-3.300675E+9	-4.036945E-13	NaN
245	1.000000	1.034720	7.36745e+06	-50889.1	955.819	-29753.9	0.000000	0.000000	7.035182	0.063778	NaN	0.000000	0.001602	0.001678	28.0785	0.114520	0.002037	56.2261	-147.435	-168.17	0.029329	1.033387	-0.704604	-0.705937	0.063778	56.2261	-0.705455	-2.322789E+9	-2.745736E-11	NaN
245	1.000000	1.046688	7.36745e+06	-50889.1	955.819	-29753.9	0.000000	0.000000	7.047149	0.036366	NaN	0.000000	0.001667	0.001686	28.0785	0.041433	0.002011	20.6049	-118.346	-164.411	0.005466	1.045401	-0.692635	-0.693923	0.036366	20.6049	-0.693959	-1.618146E+9	-2.247409E-11	NaN
245	1.000000	1.058704	7.36745e+06	-50889.1	955.82	-29753.9	0.000000	0.000000	7.059163	-0.000441	NaN	0.000000	0.001638	0.001665	28.0785	0.065799	0.001970	33.4	-145.837	-169.228	-0.006656	1.057442	-0.680620	-0.681881	-0.000441	33.4	-0.680610	-1.063042E+9	4.151435E-13	NaN
245	1.000000	1.070724	7.36745e+06	-50889.1	955.82	-29753.9	0.000000	0.000000	7.071185	0.026042	NaN	0.000000	0.001637	0.001680	28.0784	0.145902	0.002028	71.9414	40.5552	-165.953	0.026108	1.069390	-0.668599	-0.669934	0.026042	71.9414	-0.668871	-7.344070E+8	-3.545995E-11	NaN
245	1.000000	1.082722	7.36745e+06	-50889.1	955.82	-29753.9	0.000000	0.000000	7.083182	0.025323	NaN	0.000000	0.001633	0.001660	28.079	0.075760	0.001936	39.1359	139.351	-163.33	-0.042996	1.081385	-0.656602	-0.657938	0.025323	39.1359	-0.657087	-5.064851E+8	-4.999733E-11	NaN
245	1.000000	1.094724	7.36745e+06	-50889.1	955.818	-29753.9	0.000000	0.000000	7.095184	0.017194	NaN	0.000000	0.001647	0.001716	28.0787	0.065722	0.001961	33.5134	-129.725	-166.984	0.039427	1.093404	-0.644600	-0.645920	0.017194	33.5134	-0.644985	-3.456780E+8	-4.973976E-11	NaN
245	1.000000	1.106726	7.36745e+06	-50889.1	955.819	-29753.9	0.000000	0.000000	7.107187	0.035836	NaN	0.000000	0.001676	0.001672	28.0785	0.048361	0.001960	24.6785	-47.4335	-168.451	-0.053637	1.105423	-0.632598	-0.633900	0.035836	24.6785	-0.633687	-2.419074E+8	-1.481398E-10	NaN
245	1.000000	1.118734	7.36745e+06	-50889.1	955.818	-29753.9	0.000000	0.000000	7.119198	0.097859	NaN	0.000000	0.001606	0.001676	28.0785	0.025528	0.001913	13.3476	83.1219	-167.369	0.141295	1.117434	-0.620589	-0.621890	0.097859	13.3476	-0.626088	-1.902360E+8	-5.144076E-10	NaN
245	1.000000	1.130732	7.36745e+06	-50889.1	955.82	-29753.9	0.000000	0.000000	7.131191	-0.024392	NaN	0.000000	0.001665	0.001688	28.0784	0.063320	0.002037	31.0903	115.418	-163.869	-0.033673	1.129437	-0.608592	-0.609886	-0.024392	31.0903	-0.608003	-1.073099E+8	2.273049E-10	NaN
245	1.000000	1.142731	7.36745e+06	-50889.1	955.819	-29753.9	0.000000	0.000000	7.143193	0.057848	NaN	0.000000	0.001605	0.001716	28.0799	0.190060	0.002000	95.0243	-93.3257	-167.033	0.120231	1.141457	-0.596593	-0.597867	0.057848	95.0243	-0.597049	-7.582578E+7	-7.629033E-10	NaN
245	1.000000	1.154755	7.36745e+06	-50889.1	955.819	-29753.9	0.000000	0.000000	7.155217	0.069259	NaN	0.000000	0.001625	0.001723	28.0797	0.096331	0.002058	46.81	118.776	-168.341	0.072276	1.153466	-0.584569	-0.585858	0.069259	46.81	-0.585678	-5.285349E+7	-1.310405E-9	NaN
245	1.000000	1.166766	7.36745e+06	-50889.1	955.818	-29753.9	0.000000	0.000000	7.167227	0.045652	NaN	0.000000	0.001597	0.001704	28.0799	0.066371	0.002053	32.3229	167.442	-165.955	0.043358	1.165468	-0.572558	-0.573855	0.045652	32.3229	-0.573617	-3.602501E+7	-1.267224E-9	NaN
245	1.000000	1.178734	7.36745e+06	-50889.1	955.819	-29753.9	0.000000	0.000000	7.179195	0.049479	NaN	0.000000	0.001608	0.001680	28.0801	0.033709	0.002032	16.5892	11.7067	-164.728	0.039298	1.177464	-0.560590	-0.561860	0.049479	16.5892	-0.562827	-2.555516E+7	-1.936149E-9	NaN
245	1.000000	1.190738	7.36745e+06	-50889.1	955.818	-29753.9	0.000000	0.000000	7.191201	0.098059	NaN	0.000000	0.001601	0.001693	28.0797	0.077365	0.001952	39.6396	108.927	-165.371	0.106078	1.189393	-0.548586	-0.549931	0.098059	39.6396	-0.550441	-1.722149E+7	-5.693973E-9	NaN
245	1.000000	1.202769	7.36745e+06	-50889.1	955.818	-29753.9	0.000000	0.000000	7.203231	0.044830	NaN	0.000000	0.001599	0.001647	28.0798	0.052678	0.001889	27.8906	-174.326	-166.809	0.030084	1.201489	-0.536554	-0.537835	0.044830	27.8906	-0.537760	-1.148909E+7	-3.901963E-9	NaN
245	1.000000	1.214781	7.36745e+06	-50889.1	955.817	-29753.9	0.000000	0.000000	7.215244	0.078317	NaN	0.000000	0.001573	0.001704	28.0797	0.080481	0.001968	40.8866	140.432	-167.313	0.135855	1.213469	-0.524543	-0.525854	0.078317	40.8866	-0.525979	-7.88357e+06	-9.934186E-9	NaN
245	1.000000	1.226753	7.36745e+06	-50889.1	955.818	-29753.9	0.000000	0.000000	7.227217	0.105794	NaN	0.000000	0.001585	0.001722	28.0802	0.068647	0.001969	34.8641	-101.103	-164.093	0.086104	1.225462	-0.512571	-0.513862	0.105794	34.8641	-0.514847	-5.5195e+06	-1.916723E-8	NaN
245	1.000000	1.238801	7.36745e+06	-50889.1	955.819	-29753.9	0.000000	0.000000	7.239259	-0.032022	NaN	0.000000	0.001605	0.001711	28.08	0.038780	0.002060	18.821	-134.957	-165.667	-0.014000	1.237500	-0.500523	-0.501823	-0.032022	18.821	-0.499247	-3.34585e+06	9.570794E-9	NaN
245	1.000000	1.250794	7.36745e+06	-50889.1	955.819	-29753.9	0.000000	0.000000	7.251255	0.037673	NaN	0.000000	0.001587	0.001657	28.0796	0.089142	0.001926	46.2792	163.527	-166.006	0.028309	1.249529	-0.488530	-0.489795	0.037673	46.2792	-0.489140	-2.41756e+06	-1.558314E-8	NaN
245	1.000000	1.262776	7.36745e+06	-50889.1	955.819	-29753.9	0.000000	0.000000	7.263234	-0.056044	NaN	0.000000	0.001621	0.001650	28.0796	0.077063	0.002198	35.0641	-16.5503	-167.862	0.025212	1.261478	-0.476548	-0.477846	-0.056044	35.0641	-0.475349	-1.5502e+06	3.615282E-8	NaN
245	1.000000	1.274828	7.36745e+06	-50889.1	955.819	-29753.9	0.000000	0.000000	7.275292	0.088329	NaN	0.000000	0.001635	0.001701	28.0786	0.020938	0.001960	10.6817	142.595	-168.306	-0.037386	1.273493	-0.464495	-0.465831	0.088329	10.6817	-0.470697	-1.33409e+06	-6.620911E-8	NaN
245	1.000000	1.286808	7.36745e+06	-50889.1	955.818	-29753.9	0.000000	0.000000	7.287268	0.008154	NaN	0.000000	0.001632	0.001671	28.0787	0.057631	0.001990	28.9572	-178.299	-167.235	0.017330	1.285500	-0.452516	-0.453824	0.008154	28.9572	-0.452727	-745999	-1.093037E-8	NaN
245	1.000000	1.298800	7.36745e+06	-50889.1	955.819	-29753.9	0.000000	0.000000	7.299261	0.022775	NaN	0.000000	0.001635	0.001655	28.0785	0.071070	0.001927	36.8829	178.118	-164.636	-0.035623	1.297499	-0.440524	-0.441824	0.022775	36.8829	-0.440987	-509669	-4.468596E-8	NaN
245	1.000000	1.310802	7.36745e+06	-50889.1	955.819	-29753.9	0.000000	0.000000	7.311262	0.025315	NaN	0.000000	0.001622	0.001692	28.0786	0.118823	0.002069	57.4286	167.584	-165.42	-0.022972	1.309519	-0.428522	-0.429805	0.025315	57.4286	-0.428853	-343423	-7.371361E-8	NaN
245	1.000000	1.322828	7.36745e+06	-50889.1	955.819	-29753.9	0.000000	0.000000	7.323289	0.033142	NaN	0.000000	0.001619	0.001652	28.0785	0.096104	0.002093	45.9124	-99.0915	-167.935	0.074854	1.321546	-0.416496	-0.417778	0.033142	45.9124	-0.417037	-233548	-1.419084E-7	NaN
245	1.000000	1.334807	7.36745e+06	-50889.1	955.819	-29753.9	0.000000	0.000000	7.335269	0.054548	NaN	0.000000	0.001615	0.001634	28.0787	0.125402	0.002115	59.288	65.5362	-166.853	0.060128	1.333471	-0.404517	-0.405852	0.054548	59.288	-0.405207	-158561	-3.440190E-7	NaN
245	1.000000	1.346830	7.36745e+06	-50889.1	955.819	-29753.9	0.000000	0.000000	7.347291	0.033776	NaN	0.000000	0.001587	0.001654	28.0784	0.061687	0.001896	32.541	162.41	-167.26	0.042157	1.345550	-0.392494	-0.393774	0.033776	32.541	-0.393273	-107141	-3.152448E-7	NaN
245	1.000000	1.358840	7.36745e+06	-50889.1	955.82	-29753.9	0.000000	0.000000	7.359300	0.011438	NaN	0.000000	0.001588	0.001648	28.0786	0.159155	0.001956	81.3525	-30.2798	-164.536	0.000231	1.357478	-0.380484	-0.381846	0.011438	81.3525	-0.380589	-70525.4	-1.621780E-7	NaN
245	1.000000	1.370859	7.36745e+06	-50889.1	955.819	-29753.9	0.000000	0.000000	7.371321	0.043864	NaN	0.000000	0.001640	0.001658	28.0785	0.037362	0.001924	19.4219	65.3478	-166.035	-0.019568	1.369555	-0.368465	-0.369769	0.043864	19.4219	-0.370158	-49935.4	-8.784078E-7	NaN
245	1.000000	1.382852	7.36745e+06	-50889.1	955.818	-29753.9	0.000000	0.000000	7.383312	0.005037	NaN	0.000000	0.001632	0.001648	28.0786	0.040162	0.001947	20.6283	118.532	-165.998	-0.058011	1.381542	-0.356471	-0.357782	0.005037	20.6283	-0.356654	-31875.1	-1.580095E-7	NaN
245	1.000000	1.394843	7.36745e+06	-50889.1	955.819	-29753.9	0.000000	0.000000	7.395303	0.009161	NaN	0.000000	0.001641	0.001662	28.0786	0.025466	0.002011	12.6617	-142.769	-167.023	-0.014715	1.393554	-0.344481	-0.345770	0.009161	12.6617	-0.345023	-21612	-4.239029E-7	NaN
245	1.000000	1.406864	7.36745e+06	-50889.1	955.818	-29753.9	0.000000	0.000000	7.407323	-0.010464	NaN	0.000000	0.001634	0.001633	28.079	0.133477	0.002031	65.7135	-117.565	-166.723	-0.066635	1.405539	-0.332460	-0.333784	-0.010464	65.7135	-0.332340	-14115.8	7.413051E-7	NaN
245	1.000000	1.418881	7.36745e+06	-50889.1	955.82	-29753.9	0.000000	0.000000	7.419341	0.004794	NaN	0.000000	0.001613	0.001680	28.0796	0.043550	0.002061	21.1299	-161.756	-166.963	-0.056272	1.417556	-0.320442	-0.321768	0.004794	21.1299	-0.320612	-9498.43	-5.047387E-7	NaN
245	1.000000	1.430880	7.36745e+06	-50889.1	955.819	-29753.9	0.000000	0.000000	7.431341	0.032115	NaN	0.000000	0.001626	0.001656	28.0799	0.066975	0.001972	33.9582	-53.2934	-168.076	0.015676	1.429539	-0.308444	-0.309785	0.032115	33.9582	-0.309153	-6434.57	-4.990956E-6	NaN
245	1.000000	1.442842	7.36745e+06	-50889.1	955.82	-29753.9	0.000000	0.000000	7.443304	0.047953	NaN	0.000000	0.001624	0.001666	28.0795	0.054918	0.001952	28.1286	147.927	-167.042	0.057205	1.441583	-0.296482	-0.297740	0.047953	28.1286	-0.297760	-4357.87	-1.100381E-5	NaN
245	1.000000	1.454882	7.36745e+06	-50889.1	955.819	-29753.9	0.000000	0.000000	7.455342	-0.002072	NaN	0.000000	0.001615	0.001651	28.0798	0.033496	0.001906	17.5728	-54.7413	-165.237	0.078964	1.453551	-0.284442	-0.285772	-0.002072	17.5728	-0.284353	-2745	7.549990E-7	NaN
245	1.000000	1.466918	7.36745e+06	-50889.1	955.819	-29753.9	0.000000	0.000000	7.467380	0.044291	NaN	0.000000	0.001637	0.001649	28.0795	0.109466	0.002031	53.9033	170.924	-164.555	0.017707	1.465526	-0.272406	-0.273798	0.044291	53.9033	-0.273022	-1851.08	-2.392711E-5	NaN
245	1.000000	1.478863	7.36745e+06	-50889.1	955.82	-29753.9	0.000000	0.000000	7.479327	0.094674	NaN	0.000000	0.001620	0.001671	28.0799	0.137022	0.001971	69.5197	80.7406	-165.114	0.013417	1.477586	-0.260461	-0.261738	0.094674	69.5197	-0.261482	-1234.85	-7.666838E-5	NaN
245	1.000000	1.490901	7.36745e+06	-50889.1	955.82	-29753.9	0.000000	0.000000	7.491360	-0.022901	NaN	0.000000	0.001610	0.001693	28.0799	0.042815	0.001933	22.151	77.9585	-169.115	-0.000797	1.489576	-0.248423	-0.249748	-0.022901	22.151	-0.247647	-756.028	3.029058E-5	NaN
245	1.000000	1.502878	7.36745e+06	-50889.1	955.82	-29753.9	0.000000	0.000000	7.503339	0.024071	NaN	0.000000	0.001603	0.001636	28.0795	0.086654	0.002049	42.2969	38.2027	-164.157	0.055627	1.501572	-0.236446	-0.237751	0.024071	42.2969	-0.236873	-513.599	-4.686751E-5	NaN
245	1.000000	1.514916	7.36745e+06	-50889.1	955.82	-29753.9	0.000000	0.000000	7.515374	-0.032663	NaN	0.000000	0.001651	0.001662	28.0795	0.069558	0.001895	36.7013	-116.103	-165.526	-0.036515	1.513666	-0.224408	-0.225658	-0.032663	36.7013	-0.223741	-318.652	0.000103	NaN
245	1.000000	1.526922	7.36745e+06	-50889.1	955.82	-29753.9	0.000000	0.000000	7.527382	0.021126	NaN	0.000000	0.001622	0.001663	28.0793	0.178910	0.002023	88.4382	150.687	-163.775	0.055578	1.525576	-0.212402	-0.213748	0.021126	88.4382	-0.212581	-211.127	-0.000100	NaN
245	1.000000	1.538914	7.36745e+06	-50889.1	955.82	-29753.9	0.000000	0.000000	7.539374	0.012195	NaN	0.000000	0.001629	0.001665	28.0796	0.041531	0.002017	20.588	163.564	-164.129	0.050291	1.537626	-0.200410	-0.201697	0.012195	20.588	-0.200854	-136.059	-8.962678E-5	NaN
245	1.000000	1.550925	7.36745e+06	-50889.1	955.819	-29753.9	0.000000	0.000000	7.551387	0.062029	NaN	0.000000	0.001644	0.001641	28.0783	0.148132	0.002078	71.2742	167.475	-168.758	0.055659	1.549614	-0.188399	-0.189710	0.062029	71.2742	-0.189052	-86.7307	-0.000715	NaN
245	1.000000	1.562957	7.36745e+06	-50889.1	955.819	-29753.9	0.000000	0.000000	7.563415	-0.024675	NaN	0.000000	0.001649	0.001677	28.0784	0.092038	0.002075	44.3648	-91.1385	-165.466	0.022125	1.561606	-0.176367	-0.177718	-0.024675	44.3648	-0.175950	-52.0338	0.000474	NaN
245	1.000000	1.574925	7.36745e+06	-50889.1	955.818	-29753.9	0.000000	0.000000	7.575385	0.015021	NaN	0.000000	0.001629	0.001695	28.0786	0.052247	0.001960	26.6624	7.482368	-166.685	-0.003442	1.573634	-0.164399	-0.165690	0.015021	26.6624	-0.164821	-33.3556	-0.000450	NaN
245	1.000000	1.586936	7.36745e+06	-50889.1	955.82	-29753.9	0.000000	0.000000	7.587399	0.066526	NaN	0.000000	0.001614	0.001647	28.0785	0.059633	0.002123	28.0825	-51.0325	-165.816	0.094723	1.585638	-0.152387	-0.153685	0.066526	28.0825	-0.154164	-21.5537	-0.003087	NaN
245	1.000000	1.598943	7.36745e+06	-50889.1	955.818	-29753.9	0.000000	0.000000	7.599405	0.052670	NaN	0.000000	0.001684	0.001656	28.0783	0.032230	0.002040	15.7966	89.9674	-167.428	-0.019598	1.597664	-0.140381	-0.141660	0.052670	15.7966	-0.142881	-13.392	-0.003933	NaN
245	1.000000	1.611011	7.36745e+06	-50889.1	955.819	-29753.9	0.000000	0.000000	7.611471	-0.001157	NaN	0.000000	0.001684	0.001676	28.0784	0.039354	0.002134	18.443	129.61	-166.677	-0.036578	1.609645	-0.128313	-0.129679	-0.001157	18.443	-0.128265	-7.050386	0.000164	NaN
245	1.000000	1.622960	7.36745e+06	-50889.1	955.82	-29753.9	0.000000	0.000000	7.623421	0.016413	NaN	0.000000	0.001697	0.001623	28.0782	0.072487	0.002113	34.3128	136.059	-169.577	-0.011590	1.621680	-0.116363	-0.117644	0.016413	34.3128	-0.116722	-4.144498	-0.003960	NaN
245	1.000000	1.634946	7.36745e+06	-50889.1	955.818	-29753.9	0.000000	0.000000	7.635405	-0.020112	NaN	0.000000	0.001640	0.001668	28.0783	0.090555	0.001943	46.6052	94.4198	-168.984	-0.124131	1.633628	-0.104378	-0.105696	-0.020112	46.6052	-0.104054	-2.242290	0.008969	NaN
245	1.000000	1.646980	7.36745e+06	-50889.1	955.819	-29753.9	0.000000	0.000000	7.647441	0.026349	NaN	0.000000	0.001713	0.001660	28.0785	0.139876	0.001985	70.4783	-53.7411	-165.564	-0.005933	1.645688	-0.092344	-0.093636	0.026349	70.4783	-0.092624	-1.244245	-0.021177	NaN
245	1.000000	1.658952	7.36745e+06	-50889.1	955.819	-29753.9	0.000000	0.000000	7.659412	0.001263	NaN	0.000000	0.001662	0.001651	28.0786	0.133188	0.002064	64.5162	-110.678	-165.627	0.028485	1.657680	-0.080372	-0.081644	0.001263	64.5162	-0.080387	-0.632907	-0.001996	NaN
245	1.000000	1.670941	7.36745e+06	-50889.1	955.819	-29753.9	0.000000	0.000000	7.671402	0.021799	NaN	0.000000	0.001638	0.001651	28.0786	0.095336	0.001984	48.0569	-111.963	-166.057	0.104587	1.669677	-0.068382	-0.069647	0.021799	48.0569	-0.068723	-0.315150	-0.069171	NaN
245	1.000000	1.682970	7.36745e+06	-50889.1	955.82	-29753.9	0.000000	0.000000	7.683429	-0.015570	NaN	0.000000	0.001599	0.001628	28.0798	0.073138	0.001855	39.4176	63.4033	-166.039	0.002374	1.681624	-0.056354	-0.057699	-0.015570	39.4176	-0.056057	-0.138356	0.112536	NaN
245	1.000000	1.694957	7.36745e+06	-50889.1	955.819	-29753.9	0.000000	0.000000	7.695421	0.100452	NaN	0.000000	0.001595	0.001655	28.0795	0.106047	0.002082	50.9436	75.2788	-165.693	0.003849	1.693682	-0.044367	-0.045642	0.100452	50.9436	-0.045846	-0.068211	-1.472665	NaN
245	1.000000	1.707022	7.36745e+06	-50889.1	955.819	-29753.9	0.000000	0.000000	7.707482	0.004766	NaN	0.000000	0.001623	0.001597	28.0797	0.036851	0.001899	19.4072	-136.044	-169.5	-0.041299	1.705651	-0.032301	-0.033672	0.004766	19.4072	-0.032486	-0.027059	-0.176149	NaN
245	1.000000	1.718980	7.36745e+06	-50889.1	955.819	-29753.9	0.000000	0.000000	7.719441	0.022417	NaN	0.000000	0.001583	0.001587	28.0797	0.083058	0.001962	42.3354	-44.7326	-166.829	-0.005293	1.717709	-0.020343	-0.021615	0.022417	42.3354	-0.020740	-0.013117	-1.708971	NaN
245	1.000000	1.731023	7.36745e+06	-50889.1	955.819	-29753.9	0.000000	0.000000	7.731486	0.095127	NaN	0.000000	0.001576	0.001609	28.0795	0.032768	0.002115	15.493	90.0381	-169.115	0.058792	1.729697	-0.008301	-0.009627	0.095127	15.493	-0.012906	-0.008048	-11.8199	NaN
245	1.000000	1.742954	7.36745e+06	-50889.1	955.819	-29753.9	0.000000	0.000000	7.743535	2.930630	NaN	0.000000	0.001573	0.001629	28.08	3.750449	0.001768	2121.43	7.791160	-171.53	1.565815	1.741717	0.003631	0.002394	2.930630	2121.43	0.002595	0.002041	1435.59	42898.1
245	2.000000	1.749627	7.36745e+06	-50889.1	955.819	-29753.9	0.000000	0.000000	7.750565	11.6209	NaN	0.000000	0.001595	0.001572	28.0797	9.841518	0.001518	6482.06	1.450378	-170.117	11.0323	1.749253	0.010304	0.009929	11.6209	6482.06	0.008959	0.008047	1444.05	66017.3
245	2.000000	1.752563	7.36745e+06	-50889.1	955.819	-29753.9	0.000000	0.000000	7.753680	15.9938	NaN	0.000000	0.001553	0.001592	28.0797	13.4909	0.001786	7554.48	6.709551	-175.57	15.565	1.752208	0.013239	0.012885	15.9938	7554.48	0.011651	0.011075	1444.14	65585.3
245	2.000000	1.755557	7.36745e+06	-50889.1	955.819	-29753.9	0.000000	0.000000	7.756799	19.0177	NaN	0.000000	0.001529	0.001581	28.0797	16.6624	0.001804	9235.79	4.796213	-175.855	19.2437	1.755233	0.016233	0.015909	19.0177	9235.79	0.014689	0.014873	1278.71	69191.5
245	2.000000	1.758516	7.36745e+06	-50889.1	955.819	-29753.9	0.000000	0.000000	7.760059	26.3352	NaN	0.000000	0.001574	0.001569	28.0799	19.631	0.001812	10832.9	4.013571	-175.617	25.8269	1.758191	0.019192	0.018867	26.3352	10832.9	0.017369	0.018575	1417.74	72618.7
245	2.000000	1.761503	7.36745e+06	-50889.1	955.819	-29753.9	0.000000	0.000000	7.763149	28.8427	NaN	0.000000	0.001565	0.001605	28.0806	22.2848	0.001768	12603.4	7.338837	178.986	26.7912	1.761199	0.022179	0.021875	28.8427	12603.4	0.020463	0.023275	1239.21	75477.2
245	2.000000	1.764531	7.36745e+06	-50889.1	955.82	-29753.9	0.000000	0.000000	7.766592	38.9331	NaN	0.000000	0.001532	0.001627	28.0796	25.2628	0.001815	13916.4	6.006920	179.991	39.4939	1.764209	0.025208	0.024885	38.9331	13916.4	0.023109	0.027666	1407.27	76441.9
245	2.000000	1.767524	7.36745e+06	-50889.1	955.819	-29753.9	0.000000	0.000000	7.769821	44.6793	NaN	0.000000	0.001552	0.001657	28.0788	28.2863	0.001891	14960.7	5.152349	179.473	43.4944	1.767167	0.028200	0.027843	44.6793	14960.7	0.025960	0.032786	1362.77	75489
245	2.000000	1.770474	7.36745e+06	-50889.1	955.82	-29753.9	0.000000	0.000000	7.773223	55.6716	NaN	0.000000	0.001597	0.001691	28.0784	30.8093	0.001908	16147.5	5.363324	179.887	53.863	1.770084	0.031150	0.030761	55.6716	16147.5	0.028564	0.037820	1472.01	75860.6
245	2.000000	1.773484	7.36745e+06	-50889.1	955.819	-29753.9	0.000000	0.000000	7.776520	62.6471	NaN	0.000000	0.001561	0.001682	28.0781	32.9136	0.001876	17547.8	2.746126	-178.399	63.7305	1.773168	0.034161	0.033844	62.6471	17547.8	0.031483	0.043874	1427.89	76540.9
245	2.000000	1.776390	7.36745e+06	-50889.1	955.819	-29753.9	0.000000	0.000000	7.779878	73.645	NaN	0.000000	0.001645	0.001659	28.079	35.5254	0.001985	17900.6	3.107969	-179.723	70.4537	1.776128	0.037066	0.036804	73.645	17900.6	0.033981	0.049399	1490.81	73583.5
245	2.000000	1.779424	7.36745e+06	-50889.1	955.82	-29753.9	0.000000	0.000000	7.783366	84.6806	NaN	0.000000	0.001600	0.001651	28.0785	37.7958	0.001889	20006.7	3.935256	178.743	81.3109	1.779076	0.040100	0.039752	84.6806	20006.7	0.036925	0.056324	1503.45	77019.4
245	2.000000	1.782475	7.36745e+06	-50889.1	955.818	-29753.9	0.000000	0.000000	7.786905	96.543	NaN	0.000000	0.001576	0.001656	28.0787	40.0117	0.001731	23116.9	3.781154	177.501	96.38	1.782123	0.043151	0.042800	96.543	23116.9	0.040019	0.064078	1506.66	83435.1
245	2.000000	1.785416	7.36745e+06	-50889.1	955.819	-29753.9	0.000000	0.000000	7.790325	108.204	NaN	0.000000	0.001572	0.001669	28.0785	44.1126	0.001797	24543.3	8.110313	171.906	105.816	1.785080	0.046092	0.045756	108.204	24543.3	0.042786	0.071426	1514.92	83903.2
245	2.000000	1.788431	7.36745e+06	-50889.1	955.82	-29753.9	0.000000	0.000000	7.793539	113.034	NaN	0.000000	0.001579	0.001689	28.0785	46.7486	0.001805	25897.7	7.766560	172.335	110.998	1.788154	0.049107	0.048831	113.034	25897.7	0.045834	0.079972	1413.42	83669.1
245	2.000000	1.791383	7.36745e+06	-50889.1	955.818	-29753.9	0.000000	0.000000	7.797148	129.004	NaN	0.000000	0.001604	0.001628	28.0784	48.8846	0.001918	25493.2	2.276260	178.277	126.188	1.791237	0.052060	0.051914	129.004	25493.2	0.048264	0.087124	1480.69	78909.3
245	2.000000	1.794465	7.36745e+06	-50889.1	955.819	-29753.9	0.000000	0.000000	7.801045	148.824	NaN	0.000000	0.001617	0.001664	28.0783	51.8473	0.001786	29024.8	3.468360	176.737	149.216	1.794078	0.055142	0.054754	148.824	29024.8	0.051296	0.096461	1542.83	85381.9
245	2.000000	1.797443	7.36745e+06	-50889.1	955.82	-29753.9	0.000000	0.000000	7.804350	156.788	NaN	0.000000	0.001613	0.001685	28.0787	53.8643	0.001780	30267.1	0.923648	178.17	153.471	1.797092	0.058119	0.057769	156.788	30267.1	0.054234	0.105948	1479.86	84956.4
245	2.000000	1.800399	7.36745e+06	-50889.1	955.819	-29753.9	0.000000	0.000000	7.808035	174.51	NaN	0.000000	0.001568	0.001685	28.0794	56.5112	0.001791	31559.6	5.648924	173.66	171.423	1.800089	0.061075	0.060765	174.51	31559.6	0.056928	0.115024	1517.17	85017.9
245	2.000000	1.803429	7.36745e+06	-50889.1	955.819	-29753.9	0.000000	0.000000	7.811582	187.072	NaN	0.000000	0.001588	0.001670	28.0794	57.8618	0.001727	33512.4	3.552557	174.455	185.349	1.803235	0.064105	0.063911	187.072	33512.4	0.059919	0.125517	1490.41	86422.7
245	2.000000	1.806337	7.36745e+06	-50889.1	955.82	-29753.9	0.000000	0.000000	7.815151	203.162	NaN	0.000000	0.001573	0.001690	28.0794	61.3689	0.001828	33563.3	4.343041	174.064	198.239	1.806090	0.067013	0.066766	203.162	33563.3	0.062474	0.134828	1506.83	83511.9
245	2.000000	1.809442	7.36745e+06	-50889.1	955.819	-29753.9	0.000000	0.000000	7.818950	220.03	NaN	0.000000	0.001592	0.001681	28.0794	64.4024	0.001807	35635.7	6.583080	171.89	218.874	1.809082	0.070118	0.069759	220.03	35635.7	0.065487	0.146216	1504.83	85145.2
245	2.000000	1.812402	7.36745e+06	-50889.1	955.819	-29753.9	0.000000	0.000000	7.822635	237.642	NaN	0.000000	0.001583	0.001647	28.0806	66.9676	0.001790	37419.1	3.604917	174.553	234.754	1.812113	0.073079	0.072789	237.642	37419.1	0.068316	0.157304	1510.72	86198
245	2.000000	1.815412	7.36745e+06	-50889.1	955.82	-29753.9	0.000000	0.000000	7.826202	251.218	NaN	0.000000	0.001599	0.001653	28.0795	70.8574	0.001900	37293.2	7.925231	170.103	249.35	1.815048	0.076088	0.075724	251.218	37293.2	0.071036	0.168327	1492.44	83047.4
245	2.000000	1.818387	7.36745e+06	-50889.1	955.821	-29753.9	0.000000	0.000000	7.830018	271.662	NaN	0.000000	0.001618	0.001671	28.0794	71.6706	0.001795	39920.8	2.439050	174.716	269.485	1.818088	0.079063	0.078765	271.662	39920.8	0.073959	0.180566	1504.5	85832.9
245	2.000000	1.821415	7.36745e+06	-50889.1	955.82	-29753.9	0.000000	0.000000	7.833733	288.363	NaN	0.000000	0.001624	0.001637	28.0793	75.9509	0.001960	38743	6.714997	170.239	287.432	1.821121	0.082092	0.081797	288.363	38743	0.076509	0.191571	1505.26	80872.7
245	2.000000	1.824435	7.36745e+06	-50889.1	955.82	-29753.9	0.000000	0.000000	7.837653	310.262	NaN	0.000000	0.001632	0.001625	28.0794	78.7967	0.001873	42066.5	4.287896	172.885	311.91	1.824102	0.085111	0.084778	310.262	42066.5	0.079579	0.205223	1511.83	84839.2
245	2.000000	1.827448	7.36745e+06	-50889.1	955.819	-29753.9	0.000000	0.000000	7.841626	333.599	NaN	0.000000	0.001628	0.001645	28.0796	81.4276	0.001789	45522.2	6.769403	170.162	332.712	1.827018	0.088124	0.087695	333.599	45522.2	0.082628	0.219217	1521.78	88830
245	2.000000	1.830443	7.36745e+06	-50889.1	955.821	-29753.9	0.000000	0.000000	7.845398	352.473	NaN	0.000000	0.001608	0.001653	28.0794	83.5484	0.001859	44940.9	5.923099	170.549	352.548	1.830016	0.091120	0.090692	352.473	44940.9	0.085237	0.231536	1522.32	85330.9
245	2.000000	1.833323	7.36745e+06	-50889.1	955.82	-29753.9	0.000000	0.000000	7.849047	371.188	NaN	0.000000	0.001606	0.001676	28.0783	85.1324	0.001781	47796.8	1.573094	174.308	367.64	1.833001	0.093999	0.093677	371.188	47796.8	0.088175	0.245778	1510.26	88084.8
245	2.000000	1.836392	7.36745e+06	-50889.1	955.82	-29753.9	0.000000	0.000000	7.853068	394.33	NaN	0.000000	0.001651	0.001638	28.0785	88.7072	0.001947	45570.4	5.373723	171.207	393.437	1.835966	0.097068	0.096642	394.33	45570.4	0.090579	0.257730	1530.01	82011.2
245	2.000000	1.839337	7.36745e+06	-50889.1	955.82	-29753.9	0.000000	0.000000	7.856746	412.156	NaN	0.000000	0.001609	0.001641	28.0783	90.4653	0.001702	53147.5	3.405832	171.51	408.953	1.839150	0.100014	0.099826	412.156	53147.5	0.094197	0.276221	1492.12	92390.6
245	2.000000	1.842365	7.36745e+06	-50889.1	955.82	-29753.9	0.000000	0.000000	7.860824	437.702	NaN	0.000000	0.001590	0.001657	28.0782	93.8665	0.001862	50405.6	6.278802	169.866	435.788	1.842106	0.103041	0.102782	437.702	50405.6	0.096529	0.288450	1517.43	85746.5
245	2.000000	1.845354	7.36745e+06	-50889.1	955.821	-29753.9	0.000000	0.000000	7.864624	457.415	NaN	0.000000	0.001589	0.001615	28.0781	95.3872	0.001765	54038.8	2.188276	172.933	454.483	1.845101	0.106030	0.105778	457.415	54038.8	0.099682	0.305384	1497.83	89342
245	2.000000	1.846383	7.36745e+06	-50889.1	955.82	-29753.9	0.000000	0.000000	7.865751	459.806	NaN	0.000000	0.001602	0.001650	28.0785	96.1391	0.001714	56091.9	3.581989	171.411	461.7	1.846131	0.107059	0.106807	459.806	56091.9	0.100911	0.312109	1473.22	91731.8