File: remote_trans/data/nanoindenter/0828-1/data/Data_2025-08-06,11h17m57s/2025-07-22_16-23-58_1_224.txt
2025-07-22, 16:23:58, 1
Index	Phase	Displacement	Time	Pos X	Pos Y	Pos Z	Rot A	Rot B	Piezo Z	Force A	Force B	Gripper	Voltage A	Voltage B	Temperature	Amplitude force	Amplitude pos	Stiffness	Phase shift	Phase excitation	Force A raw	Displacement raw	HMax	HMax raw	Real Force	Real Stiffness	Contact Depth	Area	Hardness	Reduced Mod.
[#]	[#]	[um]	[s]	[um]	[um]	[um]	[m°]	[m°]	[um]	[uN]	[uN]	[V]	[V]	[V]	[°C]	[uN]	[um]	[N/m]	[°]	[°]	[uN]	[um]	[um]	[um]	[uN]	[N/m]	[um]	[um^2]	[MPa]	[MPa]
224	1.000000	0.002367	7.36723e+06	-49839.1	955.818	-29758	0.000000	0.000000	6.002804	-0.025313	NaN	0.000000	0.001624	0.001688	28.0785	0.080512	0.001015	79.3535	51.6136	-164.556	0.020972	0.001140	-1.096504	-1.097732	-0.025313	79.3535	-1.096265	-4.466091E+14	5.667714E-17	NaN
224	1.000000	0.012419	7.36723e+06	-49839.1	955.818	-29758	0.000000	0.000000	6.012858	0.047899	NaN	0.000000	0.001625	0.001680	28.0785	0.043342	0.001249	34.6908	121.52	12.9723	-0.037340	0.011014	-1.086453	-1.087858	0.047899	34.6908	-1.087488	-3.404735E+14	-1.406843E-16	NaN
224	1.000000	0.022305	7.36723e+06	-49839.1	955.818	-29758	0.000000	0.000000	6.022743	0.027550	NaN	0.000000	0.001588	0.001696	28.0785	0.136126	0.001612	84.4452	-26.386	-168.49	0.030144	0.020986	-1.076567	-1.077885	0.027550	84.4452	-1.076811	-2.447311E+14	-1.125708E-16	NaN
224	1.000000	0.032301	7.36723e+06	-49839.1	955.818	-29758	0.000000	0.000000	6.032737	-0.045749	NaN	0.000000	0.001551	0.001711	28.0784	0.066289	0.001997	33.1995	136.476	16.2717	-0.018678	0.030996	-1.066570	-1.067876	-0.045749	33.1995	-1.065537	-1.726719E+14	2.649480E-16	NaN
224	1.000000	0.042285	7.36723e+06	-49839.1	955.819	-29758	0.000000	0.000000	6.042723	0.018298	NaN	0.000000	0.001562	0.001704	28.0786	0.036758	0.001849	19.8791	-37.5403	-167.523	0.067132	0.041003	-1.056587	-1.057868	0.018298	19.8791	-1.057277	-1.337299E+14	-1.368293E-16	NaN
224	1.000000	0.052326	7.36723e+06	-49839.1	955.818	-29758	0.000000	0.000000	6.052765	0.055764	NaN	0.000000	0.001612	0.001691	28.0785	0.035867	0.001847	19.4183	-140.35	15.6484	0.043700	0.050878	-1.046546	-1.047994	0.055764	19.4183	-1.048700	-1.025498E+14	-5.437768E-16	NaN
224	1.000000	0.062327	7.36723e+06	-49839.1	955.818	-29758	0.000000	0.000000	6.062763	-0.044458	NaN	0.000000	0.001637	0.001715	28.0787	0.109941	0.002031	54.1226	128.524	-166.861	0.003016	0.061076	-1.036544	-1.037795	-0.044458	54.1226	-1.035928	-6.905793E+13	6.437789E-16	NaN
224	1.000000	0.072345	7.36723e+06	-49839.1	955.819	-29758	0.000000	0.000000	6.072785	0.076395	NaN	0.000000	0.001601	0.001720	28.0785	0.050944	0.001970	25.8566	4.206043	11.2681	0.043473	0.070932	-1.026527	-1.027939	0.076395	25.8566	-1.028743	-5.528041E+13	-1.381960E-15	NaN
224	1.000000	0.082347	7.36723e+06	-49839.1	955.818	-29758	0.000000	0.000000	6.082785	0.025426	NaN	0.000000	0.001613	0.001700	28.0788	0.156046	0.002068	75.4746	-146.766	-161.003	-0.027398	0.080948	-1.016525	-1.017924	0.025426	75.4746	-1.016777	-3.815823E+13	-6.663307E-16	NaN
224	1.000000	0.092314	7.36723e+06	-49839.1	955.817	-29758	0.000000	0.000000	6.092751	-0.015276	NaN	0.000000	0.001583	0.001695	28.0783	0.073719	0.002104	35.0417	-122.155	12.7131	-0.037513	0.090994	-1.006557	-1.007878	-0.015276	35.0417	-1.006230	-2.751972E+13	5.550841E-16	NaN
224	1.000000	0.102332	7.36723e+06	-49839.1	955.818	-29758	0.000000	0.000000	6.102772	0.059006	NaN	0.000000	0.001593	0.001679	28.0783	0.089643	0.002034	44.0828	-162.014	-165.61	0.078324	0.101048	-0.996539	-0.997823	0.059006	44.0828	-0.997543	-2.102283E+13	-2.806745E-15	NaN
224	1.000000	0.112351	7.36723e+06	-49839.1	955.818	-29758	0.000000	0.000000	6.112790	0.047050	NaN	0.000000	0.001597	0.001673	28.0783	0.112869	0.002102	53.6994	118.239	16.6167	-0.029209	0.110958	-0.986521	-0.987914	0.047050	53.6994	-0.987178	-1.524416E+13	-3.086403E-15	NaN
224	1.000000	0.122333	7.36723e+06	-49839.1	955.819	-29758	0.000000	0.000000	6.122773	0.059714	NaN	0.000000	0.001591	0.001698	28.0787	0.066282	0.002019	32.8237	75.7235	-168.592	0.054342	0.121040	-0.976538	-0.977832	0.059714	32.8237	-0.977903	-1.143278E+13	-5.223060E-15	NaN
224	1.000000	0.132329	7.36723e+06	-49839.1	955.818	-29758	0.000000	0.000000	6.132769	0.069816	NaN	0.000000	0.001555	0.001712	28.077	0.118271	0.001950	60.6365	103.89	13.6328	-0.006956	0.131003	-0.966543	-0.967868	0.069816	60.6365	-0.967407	-8.254871E+12	-8.457586E-15	NaN
224	1.000000	0.142361	7.36723e+06	-49839.1	955.818	-29758	0.000000	0.000000	6.142799	0.027939	NaN	0.000000	0.001581	0.001737	28.0771	0.062692	0.001985	31.5901	-39.2182	-162.884	0.060358	0.141051	-0.956511	-0.957821	0.027939	31.5901	-0.957174	-6.008551E+12	-4.649917E-15	NaN
224	1.000000	0.152315	7.36724e+06	-49839.1	955.819	-29758	0.000000	0.000000	6.152754	0.025726	NaN	0.000000	0.001596	0.001705	28.0772	0.065948	0.001917	34.4102	-105.998	14.611	0.062037	0.150987	-0.946556	-0.947884	0.025726	34.4102	-0.947117	-4.396846E+12	-5.850921E-15	NaN
224	1.000000	0.162368	7.36724e+06	-49839.1	955.818	-29758	0.000000	0.000000	6.162805	-0.007768	NaN	0.000000	0.001573	0.001686	28.0774	0.064684	0.001955	33.0892	107.362	-165.519	0.058921	0.161055	-0.936503	-0.937817	-0.007768	33.0892	-0.936327	-3.144739E+12	2.470175E-15	NaN
224	1.000000	0.172372	7.36724e+06	-49839.1	955.818	-29758	0.000000	0.000000	6.172811	0.048830	NaN	0.000000	0.001585	0.001703	28.0771	0.191570	0.002052	93.3638	147.003	18.0697	0.078875	0.170998	-0.926500	-0.927874	0.048830	93.3638	-0.926892	-2.345570E+12	-2.081794E-14	NaN
224	1.000000	0.182369	7.36724e+06	-49839.1	955.818	-29758	0.000000	0.000000	6.182808	0.033955	NaN	0.000000	0.001572	0.001710	28.0772	0.168918	0.001928	87.6068	83.6699	-166.181	0.022076	0.181068	-0.916503	-0.917803	0.033955	87.6068	-0.916793	-1.713593E+12	-1.981527E-14	NaN
224	1.000000	0.192359	7.36724e+06	-49839.1	955.819	-29758	0.000000	0.000000	6.192797	0.024994	NaN	0.000000	0.001596	0.001701	28.0771	0.043529	0.001968	22.1215	101.921	11.2042	0.043578	0.190985	-0.906513	-0.907887	0.024994	22.1215	-0.907360	-1.277930E+12	-1.955838E-14	NaN
224	1.000000	0.202387	7.36724e+06	-49839.1	955.818	-29758	0.000000	0.000000	6.202824	-0.007585	NaN	0.000000	0.001566	0.001683	28.0772	0.073895	0.002116	34.9244	-165.671	-166.62	0.053063	0.201020	-0.896485	-0.897852	-0.007585	34.9244	-0.896322	-9.064903E+11	8.367049E-15	NaN
224	1.000000	0.212385	7.36724e+06	-49839.1	955.818	-29758	0.000000	0.000000	6.212821	-0.017506	NaN	0.000000	0.001590	0.001683	28.0772	0.035759	0.002013	17.7668	166.198	15.8113	0.050216	0.211002	-0.886487	-0.887870	-0.017506	17.7668	-0.885748	-6.522784E+11	2.683785E-14	NaN
224	1.000000	0.222405	7.36724e+06	-49839.1	955.818	-29758	0.000000	0.000000	6.222843	0.030927	NaN	0.000000	0.001594	0.001702	28.0775	0.035892	0.002029	17.6902	98.4536	-163.26	-0.022431	0.221043	-0.876467	-0.877828	0.030927	17.6902	-0.877778	-5.089334E+11	-6.076869E-14	NaN
224	1.000000	0.232377	7.36724e+06	-49839.1	955.817	-29758	0.000000	0.000000	6.232815	0.000437	NaN	0.000000	0.001576	0.001705	28.0775	0.057751	0.001938	29.7981	-133.818	14.9091	0.004542	0.231022	-0.866494	-0.867849	0.000437	29.7981	-0.866505	-3.582289E+11	-1.220960E-15	NaN
224	1.000000	0.242412	7.36724e+06	-49839.1	955.818	-29758	0.000000	0.000000	6.242853	0.092219	NaN	0.000000	0.001583	0.001708	28.0774	0.088355	0.001919	46.035	-149.633	-164.296	0.063083	0.241083	-0.856460	-0.857788	0.092219	46.035	-0.857962	-2.744968E+11	-3.359567E-13	NaN
224	1.000000	0.252390	7.36724e+06	-49839.1	955.817	-29758	0.000000	0.000000	6.252827	-0.008964	NaN	0.000000	0.001628	0.001717	28.0773	0.141208	0.002043	69.1021	135.811	14.2909	0.024519	0.251072	-0.846481	-0.847799	-0.008964	69.1021	-0.846384	-1.913236E+11	4.685262E-14	NaN
224	1.000000	0.262397	7.36724e+06	-49839.1	955.818	-29758	0.000000	0.000000	6.262834	-0.007155	NaN	0.000000	0.001675	0.001686	28.0775	0.036433	0.002111	17.2566	167.143	-165.299	-0.054710	0.261074	-0.836474	-0.837797	-0.007155	17.2566	-0.836164	-1.390955E+11	5.143947E-14	NaN
224	1.000000	0.272399	7.36724e+06	-49839.1	955.817	-29758	0.000000	0.000000	6.272837	0.003110	NaN	0.000000	0.001617	0.001702	28.0785	0.061484	0.002016	30.5037	95.1237	12.8812	0.011856	0.271062	-0.826472	-0.827809	0.003110	30.5037	-0.826549	-1.030395E+11	-3.018397E-14	NaN
224	1.000000	0.282373	7.36724e+06	-49839.1	955.818	-29758	0.000000	0.000000	6.282812	0.056475	NaN	0.000000	0.001594	0.001686	28.0783	0.051660	0.002041	25.3148	21.5	-165.726	0.077515	0.281135	-0.816499	-0.817736	0.056475	25.3148	-0.818172	-7.932722E+10	-7.119244E-13	NaN
224	1.000000	0.292400	7.36724e+06	-49839.1	955.818	-29758	0.000000	0.000000	6.292836	-0.035067	NaN	0.000000	0.001623	0.001676	28.0785	0.068821	0.001985	34.6643	125.604	16.7228	-0.008142	0.291097	-0.806471	-0.807775	-0.035067	34.6643	-0.805713	-5.375230E+10	6.523815E-13	NaN
224	1.000000	0.302422	7.36724e+06	-49839.1	955.819	-29758	0.000000	0.000000	6.302859	0.000254	NaN	0.000000	0.001622	0.001713	28.0785	0.019888	0.002100	9.469160	64.2452	-162.761	-0.015823	0.301109	-0.796450	-0.797763	0.000254	9.469160	-0.796470	-4.026633E+10	-6.296741E-15	NaN
224	1.000000	0.312406	7.36724e+06	-49839.1	955.818	-29758	0.000000	0.000000	6.312843	-0.026198	NaN	0.000000	0.001624	0.001705	28.079	0.018845	0.002092	9.007300	93.1981	13.9543	-0.051316	0.311068	-0.786465	-0.787804	-0.026198	9.007300	-0.784284	-2.750670E+10	9.524080E-13	NaN
224	1.000000	0.322428	7.36724e+06	-49839.1	955.818	-29758	0.000000	0.000000	6.322866	0.012762	NaN	0.000000	0.001581	0.001694	28.0783	0.005064	0.002075	2.440000	-124.459	-162.713	0.076129	0.321138	-0.776443	-0.777734	0.012762	2.440000	-0.780366	-2.433348E+10	-5.244546E-13	NaN
224	1.000000	0.332428	7.36724e+06	-49839.1	955.818	-29758	0.000000	0.000000	6.332865	-0.006860	NaN	0.000000	0.001543	0.001670	28.0784	0.099745	0.001925	51.8124	158.45	17.2317	-0.039737	0.331095	-0.766444	-0.767776	-0.006860	51.8124	-0.766345	-1.568921E+10	4.372716E-13	NaN
224	1.000000	0.342438	7.36724e+06	-49839.1	955.819	-29758	0.000000	0.000000	6.342876	-0.005840	NaN	0.000000	0.001582	0.001665	28.0785	0.050549	0.001923	26.2826	124.99	-163.198	-0.065232	0.341148	-0.756433	-0.757724	-0.005840	26.2826	-0.756267	-1.144210E+10	5.104145E-13	NaN
224	1.000000	0.352460	7.36724e+06	-49839.1	955.818	-29758	0.000000	0.000000	6.352898	0.022967	NaN	0.000000	0.001541	0.001693	28.0783	0.025868	0.002044	12.6573	60.8004	9.007792	0.020826	0.351080	-0.746412	-0.747791	0.022967	12.6573	-0.747772	-8.767908E+9	-2.619472E-12	NaN
224	1.000000	0.362467	7.36724e+06	-49839.1	955.817	-29758	0.000000	0.000000	6.362905	0.026074	NaN	0.000000	0.001562	0.001692	28.0783	0.093025	0.001987	46.8189	-138.641	-164.627	0.065972	0.361138	-0.736405	-0.737734	0.026074	46.8189	-0.736823	-6.219775E+9	-4.192176E-12	NaN
224	1.000000	0.372438	7.36724e+06	-49839.1	955.819	-29758	0.000000	0.000000	6.372873	-0.053434	NaN	0.000000	0.001581	0.001712	28.0782	0.155534	0.001978	78.6168	107.992	12.1393	-0.077978	0.371101	-0.726434	-0.727771	-0.053434	78.6168	-0.725924	-4.418221E+9	1.209397E-11	NaN
224	1.000000	0.382442	7.36724e+06	-49839.1	955.818	-29758	0.000000	0.000000	6.382879	-0.014391	NaN	0.000000	0.001584	0.001692	28.0785	0.060332	0.002043	29.5269	-15.4969	-163.341	-0.105397	0.381122	-0.716430	-0.717750	-0.014391	29.5269	-0.716064	-3.241830E+9	4.439221E-12	NaN
224	1.000000	0.392441	7.36724e+06	-49839.1	955.817	-29758	0.000000	0.000000	6.392878	0.002290	NaN	0.000000	0.001597	0.001694	28.0782	0.037029	0.002038	18.1707	113.493	13.633	-0.005265	0.391127	-0.706431	-0.707744	0.002290	18.1707	-0.706525	-2.402283E+9	-9.533605E-13	NaN
224	1.000000	0.402466	7.36724e+06	-49839.1	955.818	-29758	0.000000	0.000000	6.402903	-0.002122	NaN	0.000000	0.001553	0.001702	28.0769	0.072957	0.002001	36.4668	-34.8107	-166.316	0.014513	0.401177	-0.696405	-0.697695	-0.002122	36.4668	-0.696362	-1.745176E+9	1.215982E-12	NaN
224	1.000000	0.412495	7.36724e+06	-49839.1	955.818	-29758	0.000000	0.000000	6.412935	0.055500	NaN	0.000000	0.001600	0.001672	28.077	0.147260	0.001961	75.0943	49.3958	13.4791	-0.023128	0.411087	-0.686377	-0.687784	0.055500	75.0943	-0.686931	-1.297088E+9	-4.278786E-11	NaN
224	1.000000	0.422457	7.36724e+06	-49839.1	955.818	-29758	0.000000	0.000000	6.422893	-0.028013	NaN	0.000000	0.001572	0.001676	28.0772	0.068386	0.001936	35.3222	128.498	-168.129	0.056828	0.421180	-0.676414	-0.677691	-0.028013	35.3222	-0.675820	-9.141635E+8	3.064366E-11	NaN
224	1.000000	0.432471	7.36724e+06	-49839.1	955.818	-29758	0.000000	0.000000	6.432908	-0.009803	NaN	0.000000	0.001584	0.001680	28.077	0.089618	0.002093	42.8079	73.7099	11.2621	-0.031089	0.431096	-0.666401	-0.667776	-0.009803	42.8079	-0.666229	-6.757207E+8	1.450759E-11	NaN
224	1.000000	0.442486	7.36724e+06	-49839.1	955.817	-29758	0.000000	0.000000	6.442921	-0.048937	NaN	0.000000	0.001605	0.001689	28.077	0.027582	0.001986	13.8866	152.333	-166.326	-0.012331	0.441187	-0.656386	-0.657684	-0.048937	13.8866	-0.653743	-4.557644E+8	1.073745E-10	NaN
224	1.000000	0.452487	7.36724e+06	-49839.1	955.817	-29758	0.000000	0.000000	6.452926	0.029488	NaN	0.000000	0.001574	0.001681	28.077	0.063722	0.001951	32.6603	-134.229	13.0549	-0.037421	0.451173	-0.646384	-0.647699	0.029488	32.6603	-0.647062	-3.691048E+8	-7.989075E-11	NaN
224	1.000000	0.462457	7.36724e+06	-49839.1	955.818	-29758	0.000000	0.000000	6.462894	-0.018394	NaN	0.000000	0.001599	0.001701	28.0774	0.093807	0.001866	50.2653	107.307	-166.056	0.084816	0.461139	-0.636414	-0.637733	-0.018394	50.2653	-0.636140	-2.614058E+8	7.036650E-11	NaN
224	1.000000	0.472465	7.36724e+06	-49839.1	955.817	-29758	0.000000	0.000000	6.472904	0.047407	NaN	0.000000	0.001615	0.001637	28.0769	0.076942	0.002095	36.7327	-88.5889	13.2624	-0.025379	0.471143	-0.626407	-0.627728	0.047407	36.7327	-0.627375	-1.981372E+8	-2.392648E-10	NaN
224	1.000000	0.482514	7.36724e+06	-49839.1	955.817	-29758	0.000000	0.000000	6.482954	0.063524	NaN	0.000000	0.001628	0.001677	28.0769	0.063387	0.002074	30.566	-40.6158	-168.105	0.162456	0.481184	-0.616358	-0.617688	0.063524	30.566	-0.617916	-1.468886E+8	-4.324607E-10	NaN
224	1.000000	0.492501	7.36724e+06	-49839.1	955.819	-29758	0.000000	0.000000	6.492938	-0.014765	NaN	0.000000	0.001604	0.001681	28.0768	0.108445	0.001976	54.8745	-52.6043	15.8946	0.079315	0.491101	-0.606371	-0.607771	-0.014765	54.8745	-0.606169	-1.012494E+8	1.458248E-10	NaN
224	1.000000	0.502480	7.36724e+06	-49839.1	955.819	-29758	0.000000	0.000000	6.502917	-0.018948	NaN	0.000000	0.001608	0.001679	28.0771	0.041619	0.001965	21.1792	73.7108	-164.662	-0.068940	0.501204	-0.596391	-0.597668	-0.018948	21.1792	-0.595720	-7.269487E+7	2.606493E-10	NaN
224	1.000000	0.512516	7.36724e+06	-49839.1	955.819	-29758	0.000000	0.000000	6.512954	0.005395	NaN	0.000000	0.001591	0.001700	28.0769	0.126838	0.001975	64.2202	173.451	18.1458	0.002067	0.511172	-0.586355	-0.587699	0.005395	64.2202	-0.586418	-5.411019E+7	-9.970400E-11	NaN
224	1.000000	0.522521	7.36724e+06	-49839.1	955.818	-29758	0.000000	0.000000	6.522959	0.016998	NaN	0.000000	0.001588	0.001712	28.077	0.081097	0.001861	43.5884	134.472	-165.636	0.070939	0.521207	-0.576351	-0.577665	0.016998	43.5884	-0.576643	-3.966299E+7	-4.285558E-10	NaN
224	1.000000	0.532520	7.36724e+06	-49839.1	955.819	-29758	0.000000	0.000000	6.532956	-0.029040	NaN	0.000000	0.001576	0.001677	28.0772	0.028478	0.001883	15.1273	-97.3798	8.726642	-0.038111	0.531179	-0.566352	-0.567692	-0.029040	15.1273	-0.564912	-2.730908E+7	1.063378E-9	NaN
224	1.000000	0.542487	7.36724e+06	-49839.1	955.817	-29758	0.000000	0.000000	6.542925	0.004476	NaN	0.000000	0.001591	0.001693	28.0782	0.060665	0.001836	33.0348	139.551	-169.574	-0.002603	0.541188	-0.556384	-0.557683	0.004476	33.0348	-0.556486	-2.088129E+7	-2.143704E-10	NaN
224	1.000000	0.552526	7.36724e+06	-49839.1	955.817	-29758	0.000000	0.000000	6.552964	0.002156	NaN	0.000000	0.001590	0.001691	28.0783	0.098535	0.002114	46.6091	113.96	14.8934	0.021878	0.551143	-0.546345	-0.547728	0.002156	46.6091	-0.546380	-1.512878E+7	-1.425353E-10	NaN
224	1.000000	0.562511	7.36724e+06	-49839.1	955.818	-29758	0.000000	0.000000	6.562950	0.019400	NaN	0.000000	0.001552	0.001701	28.0782	0.045514	0.002082	21.8578	141.316	-165.158	0.017004	0.561250	-0.536360	-0.537622	0.019400	21.8578	-0.537026	-1.122279E+7	-1.728606E-9	NaN
224	1.000000	0.572557	7.36724e+06	-49839.1	955.818	-29758	0.000000	0.000000	6.572997	0.053055	NaN	0.000000	0.001606	0.001684	28.0782	0.122166	0.002014	60.6659	-145.954	11.609	0.015495	0.571179	-0.526314	-0.527693	0.053055	60.6659	-0.526970	-8.13745e+06	-6.519884E-9	NaN
224	1.000000	0.582550	7.36724e+06	-49839.1	955.818	-29758	0.000000	0.000000	6.582985	-0.035620	NaN	0.000000	0.001602	0.001723	28.0781	0.019556	0.002003	9.762648	126.547	-165.333	-0.007660	0.581259	-0.516322	-0.517613	-0.035620	9.762648	-0.513586	-5.30084e+06	6.719596E-9	NaN
224	1.000000	0.592531	7.36724e+06	-49839.1	955.819	-29758	0.000000	0.000000	6.592968	-0.002628	NaN	0.000000	0.001586	0.001708	28.0782	0.070320	0.002088	33.6709	-95.508	14.5315	-0.023748	0.591158	-0.506341	-0.507714	-0.002628	33.6709	-0.506282	-4.19386e+06	6.265961E-10	NaN
224	1.000000	0.602557	7.36724e+06	-49839.1	955.818	-29758	0.000000	0.000000	6.602990	-0.099256	NaN	0.000000	0.001543	0.001688	28.0783	0.058411	0.001925	30.3456	-80.3657	-166.541	-0.079267	0.601226	-0.496315	-0.497646	-0.099256	30.3456	-0.493862	-2.81408e+06	3.527108E-8	NaN
224	1.000000	0.612551	7.36724e+06	-49839.1	955.818	-29758	0.000000	0.000000	6.612990	0.029630	NaN	0.000000	0.001533	0.001644	28.0784	0.032992	0.001909	17.28	-166.347	13.6426	0.084518	0.611199	-0.486320	-0.487673	0.029630	17.28	-0.487606	-2.30111e+06	-1.287630E-8	NaN
224	1.000000	0.622558	7.36724e+06	-49839.1	955.818	-29758	0.000000	0.000000	6.622997	0.039055	NaN	0.000000	0.001550	0.001688	28.0783	0.006249	0.002020	3.093070	-152.3	-164.489	0.029841	0.621247	-0.476313	-0.477624	0.039055	3.093070	-0.485783	-2.16993e+06	-1.799843E-8	NaN
224	1.000000	0.632561	7.36724e+06	-49839.1	955.818	-29758	0.000000	0.000000	6.632999	0.009210	NaN	0.000000	0.001576	0.001707	28.0783	0.050676	0.002007	25.2461	-125.02	12.5816	-0.006540	0.631166	-0.466310	-0.467706	0.009210	25.2461	-0.466584	-1.1681e+06	-7.884152E-9	NaN
224	1.000000	0.642565	7.36724e+06	-49839.1	955.817	-29758	0.000000	0.000000	6.643002	0.003801	NaN	0.000000	0.001591	0.001657	28.0785	0.049074	0.001842	26.638	139.623	-168.437	0.074125	0.641237	-0.456307	-0.457634	0.003801	26.638	-0.456414	-840629	-4.521990E-9	NaN
224	1.000000	0.652572	7.36724e+06	-49839.1	955.818	-29758	0.000000	0.000000	6.653005	-0.096033	NaN	0.000000	0.001591	0.001719	28.0782	0.063389	0.001992	31.8147	-146.106	16.5772	-0.108623	0.651230	-0.446300	-0.447642	-0.096033	31.8147	-0.444036	-562727	1.706559E-7	NaN
224	1.000000	0.662559	7.36724e+06	-49839.1	955.818	-29758	0.000000	0.000000	6.662997	0.024826	NaN	0.000000	0.001589	0.001700	28.0784	0.060244	0.002127	28.3264	18.2804	-167.174	0.045223	0.661263	-0.436313	-0.437608	0.024826	28.3264	-0.436970	-447284	-5.550350E-8	NaN
224	1.000000	0.672560	7.36724e+06	-49839.1	955.819	-29758	0.000000	0.000000	6.673000	0.080625	NaN	0.000000	0.001590	0.001703	28.078	0.034280	0.002023	16.9417	155.472	14.9199	0.068482	0.671241	-0.426312	-0.427630	0.080625	16.9417	-0.429881	-355122	-2.270339E-7	NaN
224	1.000000	0.682612	7.36724e+06	-49839.1	955.816	-29758	0.000000	0.000000	6.683051	0.031581	NaN	0.000000	0.001549	0.001680	28.0773	0.139813	0.002065	67.7215	-53.4477	-166.458	0.048995	0.681263	-0.416259	-0.417609	0.031581	67.7215	-0.416609	-230305	-1.371283E-7	NaN
224	1.000000	0.692564	7.36724e+06	-49839.1	955.819	-29758	0.000000	0.000000	6.693003	0.024709	NaN	0.000000	0.001573	0.001743	28.077	0.063637	0.001987	32.0258	64.4101	9.492533	-0.015749	0.691214	-0.406307	-0.407657	0.024709	32.0258	-0.406886	-167533	-1.474865E-7	NaN
224	1.000000	0.702596	7.36724e+06	-49839.1	955.818	-29758	0.000000	0.000000	6.703034	0.006743	NaN	0.000000	0.001573	0.001767	28.077	0.023254	0.001922	12.0993	140.269	-165.959	-0.056766	0.701286	-0.396275	-0.397585	0.006743	12.0993	-0.396693	-119898	-5.623583E-8	NaN
224	1.000000	0.712617	7.36724e+06	-49839.1	955.818	-29758	0.000000	0.000000	6.713057	0.057153	NaN	0.000000	0.001579	0.001742	28.0772	0.048283	0.002072	23.2988	12.5063	13.9474	0.048865	0.711261	-0.386254	-0.387611	0.057153	23.2988	-0.388094	-90342.5	-6.326274E-7	NaN
224	1.000000	0.722610	7.36724e+06	-49839.1	955.818	-29758	0.000000	0.000000	6.723045	-0.039660	NaN	0.000000	0.001562	0.001779	28.0769	0.047531	0.002070	22.9601	127.252	-163.704	-0.028143	0.721250	-0.376262	-0.377621	-0.039660	22.9601	-0.374967	-58558.5	6.772675E-7	NaN
224	1.000000	0.732630	7.36724e+06	-49839.1	955.818	-29758	0.000000	0.000000	6.733067	-0.019317	NaN	0.000000	0.001559	0.001738	28.077	0.017087	0.001999	8.547951	-39.1843	13.5996	-0.037136	0.731284	-0.366241	-0.367588	-0.019317	8.547951	-0.364546	-41448.5	4.660375E-7	NaN
224	1.000000	0.742578	7.36724e+06	-49839.1	955.818	-29758	0.000000	0.000000	6.743016	0.018114	NaN	0.000000	0.001600	0.001761	28.0764	0.039236	0.002068	18.9747	-31.1651	-169.481	0.000463	0.741319	-0.356294	-0.357553	0.018114	18.9747	-0.357010	-32254.7	-5.615917E-7	NaN
224	1.000000	0.752605	7.36724e+06	-49839.1	955.818	-29758	0.000000	0.000000	6.753044	0.034078	NaN	0.000000	0.001594	0.001753	28.0768	0.067978	0.001912	35.5547	-129.825	12.9459	0.042558	0.751201	-0.346267	-0.347670	0.034078	35.5547	-0.346985	-23079.2	-1.476558E-6	NaN
224	1.000000	0.762623	7.36724e+06	-49839.1	955.819	-29758	0.000000	0.000000	6.763063	0.057431	NaN	0.000000	0.001588	0.001716	28.0765	0.050765	0.002210	22.9699	108.738	-166.515	0.122008	0.761300	-0.336248	-0.337572	0.057431	22.9699	-0.338124	-17147.1	-3.349323E-6	NaN
224	1.000000	0.772593	7.36724e+06	-49839.1	955.819	-29758	0.000000	0.000000	6.773031	0.016750	NaN	0.000000	0.001588	0.001737	28.0765	0.095477	0.002096	45.5565	-46.5697	13.6762	0.045305	0.771273	-0.326278	-0.327598	0.016750	45.5565	-0.326554	-11613	-1.442309E-6	NaN
224	1.000000	0.782634	7.36724e+06	-49839.1	955.819	-29758	0.000000	0.000000	6.783071	-0.011016	NaN	0.000000	0.001572	0.001756	28.0767	0.048896	0.002064	23.6914	133.533	-164.77	0.019269	0.781336	-0.316238	-0.317535	-0.011016	23.6914	-0.315889	-8092.15	1.361267E-6	NaN
224	1.000000	0.792626	7.36724e+06	-49839.1	955.818	-29758	0.000000	0.000000	6.793059	-0.085876	NaN	0.000000	0.001616	0.001767	28.077	0.063772	0.002068	30.8349	-1.161017	14.6599	-0.016431	0.791330	-0.306246	-0.307542	-0.085876	30.8349	-0.304157	-5425.55	1.582808E-5	NaN
224	1.000000	0.802628	7.36724e+06	-49839.1	955.817	-29758	0.000000	0.000000	6.803065	-0.015776	NaN	0.000000	0.001620	0.001771	28.0767	0.073619	0.001972	37.3237	89.5838	-163.103	-0.019975	0.801355	-0.296243	-0.297517	-0.015776	37.3237	-0.295926	-4091.79	3.855449E-6	NaN
224	1.000000	0.812636	7.36724e+06	-49839.1	955.818	-29758	0.000000	0.000000	6.813076	0.054008	NaN	0.000000	0.001589	0.001776	28.0778	0.050900	0.001913	26.6084	-110.908	15.6005	0.020835	0.811271	-0.286235	-0.287600	0.054008	26.6084	-0.287757	-3088.01	-1.748957E-5	NaN
224	1.000000	0.822669	7.36724e+06	-49839.1	955.818	-29758	0.000000	0.000000	6.823107	0.005653	NaN	0.000000	0.001571	0.001764	28.0781	0.100857	0.001892	53.293	109.656	-164.751	-0.043299	0.821318	-0.276202	-0.277553	0.005653	53.293	-0.276282	-2073.95	-2.725940E-6	NaN
224	1.000000	0.832637	7.36724e+06	-49839.1	955.818	-29758	0.000000	0.000000	6.833073	-0.050652	NaN	0.000000	0.001634	0.001779	28.0777	0.044777	0.002016	22.2071	-30.8064	15.683	0.036171	0.831302	-0.266234	-0.267570	-0.050652	22.2071	-0.264524	-1374.41	3.685399E-5	NaN
224	1.000000	0.842651	7.36724e+06	-49839.1	955.818	-29758	0.000000	0.000000	6.843089	0.002222	NaN	0.000000	0.001582	0.001760	28.0778	0.037146	0.002084	17.8248	-132.215	-166.951	-0.039658	0.841344	-0.256220	-0.257527	0.002222	17.8248	-0.256314	-1028.79	-2.160205E-6	NaN
224	1.000000	0.852660	7.36724e+06	-49839.1	955.818	-29758	0.000000	0.000000	6.853098	0.018894	NaN	0.000000	0.001595	0.001726	28.0777	0.046133	0.002029	22.7363	-46.47	11.92	-0.007840	0.851257	-0.246212	-0.247615	0.018894	22.7363	-0.246835	-734.418	-2.572636E-5	NaN
224	1.000000	0.862632	7.36724e+06	-49839.1	955.819	-29758	0.000000	0.000000	6.863067	-0.050568	NaN	0.000000	0.001601	0.001735	28.0784	0.068905	0.002025	34.0243	-61.1682	-164.776	-0.039035	0.861315	-0.236240	-0.237557	-0.050568	34.0243	-0.235125	-482.18	0.000105	NaN
224	1.000000	0.872655	7.36724e+06	-49839.1	955.817	-29758	0.000000	0.000000	6.873093	0.019915	NaN	0.000000	0.001600	0.001729	28.0778	0.112770	0.002150	52.4455	117.753	13.3998	0.052242	0.871306	-0.226217	-0.227566	0.019915	52.4455	-0.226501	-352.5	-5.649721E-5	NaN
224	1.000000	0.882662	7.36724e+06	-49839.1	955.817	-29758	0.000000	0.000000	6.883097	-0.048295	NaN	0.000000	0.001630	0.001701	28.078	0.044691	0.001984	22.5201	-149.89	-166.404	-0.001674	0.881314	-0.216210	-0.217557	-0.048295	22.5201	-0.214602	-227.564	0.000212	NaN
224	1.000000	0.892645	7.36724e+06	-49839.1	955.817	-29758	0.000000	0.000000	6.893086	0.099002	NaN	0.000000	0.001586	0.001739	28.0779	0.049697	0.001966	25.2811	-22.9351	15.5011	0.037568	0.891315	-0.206227	-0.207557	0.099002	25.2811	-0.209164	-185.894	-0.000533	NaN
224	1.000000	0.902667	7.36724e+06	-49839.1	955.817	-29758	0.000000	0.000000	6.903103	-0.041921	NaN	0.000000	0.001598	0.001727	28.0776	0.007696	0.001993	3.861076	32.3757	-165.075	-0.001544	0.901390	-0.196205	-0.197482	-0.041921	3.861076	-0.188062	-83.4818	0.000502	NaN
224	1.000000	0.912679	7.36724e+06	-49839.1	955.818	-29758	0.000000	0.000000	6.913118	0.038414	NaN	0.000000	0.001599	0.001746	28.0778	0.064035	0.001851	34.5928	-19.493	15.8961	0.075271	0.911359	-0.186193	-0.187513	0.038414	34.5928	-0.187026	-80.2066	-0.000479	NaN
224	1.000000	0.922693	7.36724e+06	-49839.1	955.818	-29758	0.000000	0.000000	6.923132	0.049399	NaN	0.000000	0.001637	0.001733	28.0778	0.097198	0.002038	47.703	31.4363	-166.625	-0.005333	0.921345	-0.176179	-0.177526	0.049399	47.703	-0.176956	-54.1397	-0.000912	NaN
224	1.000000	0.932665	7.36724e+06	-49839.1	955.819	-29758	0.000000	0.000000	6.933104	0.052465	NaN	0.000000	0.001638	0.001715	28.0779	0.076667	0.002079	36.8794	74.9411	12.4675	-0.023379	0.931325	-0.166207	-0.167546	0.052465	36.8794	-0.167274	-36.8241	-0.001425	NaN
224	1.000000	0.942673	7.36724e+06	-49839.1	955.818	-29758	0.000000	0.000000	6.943112	0.036306	NaN	0.000000	0.001631	0.001764	28.078	0.044219	0.001964	22.52	-39.6992	-164.274	0.066232	0.941408	-0.156199	-0.157464	0.036306	22.52	-0.157408	-24.6478	-0.001473	NaN
224	1.000000	0.952689	7.36724e+06	-49839.1	955.818	-29758	0.000000	0.000000	6.953124	-0.039445	NaN	0.000000	0.001616	0.001756	28.0767	0.036065	0.001881	19.1686	-21.9482	16.1461	-0.026235	0.951326	-0.146183	-0.147545	-0.039445	19.1686	-0.144640	-14.4377	0.002732	NaN
224	1.000000	0.962708	7.36724e+06	-49839.1	955.818	-29758	0.000000	0.000000	6.963145	0.007557	NaN	0.000000	0.001634	0.001741	28.0767	0.032651	0.001874	17.4235	-126.929	-164.075	-0.061690	0.961396	-0.136164	-0.137476	0.007557	17.4235	-0.136489	-10.1543	-0.000744	NaN
224	1.000000	0.972711	7.36724e+06	-49839.1	955.817	-29758	0.000000	0.000000	6.973146	-0.068116	NaN	0.000000	0.001669	0.001725	28.0768	0.014200	0.001957	7.256923	7.481113	14.7405	-0.062598	0.971365	-0.126160	-0.127507	-0.068116	7.256923	-0.119121	-4.637701	0.014687	NaN
224	1.000000	0.982694	7.36724e+06	-49839.1	955.817	-29758	0.000000	0.000000	6.983133	0.043473	NaN	0.000000	0.001641	0.001699	28.0767	0.087029	0.002120	41.0503	-143.432	-166.383	0.018722	0.981418	-0.116177	-0.117454	0.043473	41.0503	-0.116972	-4.193490	-0.010367	NaN
224	1.000000	0.992712	7.36724e+06	-49839.1	955.817	-29758	0.000000	0.000000	6.993151	0.030801	NaN	0.000000	0.001648	0.001722	28.0766	0.043719	0.001964	22.2597	-126.182	16.3786	-0.044698	0.991373	-0.106159	-0.107498	0.030801	22.2597	-0.107197	-2.620453	-0.011754	NaN
224	1.000000	1.002719	7.36724e+06	-49839.1	955.817	-29758	0.000000	0.000000	7.003156	-0.014164	NaN	0.000000	0.001626	0.001727	28.0767	0.094483	0.002075	45.5308	-103.297	-164.822	-0.008101	1.001418	-0.096153	-0.097454	-0.014164	45.5308	-0.095920	-1.480172	0.009569	NaN
224	1.000000	1.012726	7.36724e+06	-49839.1	955.818	-29758	0.000000	0.000000	7.013166	0.066667	NaN	0.000000	0.001574	0.001736	28.0765	0.083552	0.002125	39.3145	-119.826	14.6007	-0.030261	1.011335	-0.086146	-0.087536	0.066667	39.3145	-0.087417	-0.939165	-0.070986	NaN
224	1.000000	1.022726	7.36724e+06	-49839.1	955.818	-29758	0.000000	0.000000	7.023162	-0.033417	NaN	0.000000	0.001543	0.001758	28.0766	0.058241	0.002032	28.6657	-53.437	-166.673	0.005979	1.021409	-0.076145	-0.077463	-0.033417	28.6657	-0.075271	-0.469381	0.071194	NaN
224	1.000000	1.032713	7.36724e+06	-49839.1	955.817	-29758	0.000000	0.000000	7.033150	-0.004590	NaN	0.000000	0.001543	0.001733	28.0764	0.072848	0.001928	37.7889	-49.7034	12.4506	-0.080072	1.031338	-0.066158	-0.067533	-0.004590	37.7889	-0.066067	-0.266732	0.017209	NaN
224	1.000000	1.042719	7.36724e+06	-49839.1	955.819	-29758	0.000000	0.000000	7.043158	0.028027	NaN	0.000000	0.001595	0.001718	28.0768	0.057203	0.002046	27.9636	74.3261	-167.033	0.023405	1.041445	-0.056152	-0.057426	0.028027	27.9636	-0.056904	-0.146494	-0.191317	NaN
224	1.000000	1.052732	7.36724e+06	-49839.1	955.819	-29758	0.000000	0.000000	7.053168	-0.026088	NaN	0.000000	0.001604	0.001693	28.0764	0.159574	0.002031	78.5516	54.8988	13.3552	0.021859	1.051335	-0.046140	-0.047537	-0.026088	78.5516	-0.045891	-0.068426	0.381253	NaN
224	1.000000	1.062713	7.36724e+06	-49839.1	955.819	-29758	0.000000	0.000000	7.063147	-0.077159	NaN	0.000000	0.001602	0.001757	28.0768	0.098442	0.002027	48.5614	12.2871	-167.222	0.019035	1.061411	-0.036159	-0.037461	-0.077159	48.5614	-0.034967	-0.031953	2.414760	NaN
224	1.000000	1.072757	7.36724e+06	-49839.1	955.819	-29758	0.000000	0.000000	7.073195	0.008738	NaN	0.000000	0.001560	0.001760	28.0766	0.022906	0.001997	11.4676	-63.1265	16.4838	0.011354	1.071313	-0.026115	-0.027559	0.008738	11.4676	-0.026686	-0.018690	-0.467521	NaN
224	1.000000	1.082749	7.36724e+06	-49839.1	955.818	-29758	0.000000	0.000000	7.083185	-0.033288	NaN	0.000000	0.001580	0.001713	28.0774	0.060501	0.001913	31.6267	13.7055	-168.567	0.025299	1.081409	-0.016123	-0.017463	-0.033288	31.6267	-0.015333	-0.009476	3.512798	NaN
224	1.000000	1.092720	7.36724e+06	-49839.1	955.819	-29758	0.000000	0.000000	7.093156	-0.030704	NaN	0.000000	0.001605	0.001728	28.0777	0.014291	0.002007	7.119669	-81.8933	14.3337	-0.021466	1.091386	-0.006151	-0.007486	-0.030704	7.119669	-0.002917	-0.002065	14.8701	NaN
224	1.000000	1.102708	7.36724e+06	-49839.1	955.819	-29758	0.000000	0.000000	7.103282	3.319969	NaN	0.000000	0.001596	0.001705	28.0776	4.107956	0.001816	2262.35	7.784012	-169.983	1.841241	1.101401	0.003836	0.002530	3.319969	2262.35	0.002736	0.002159	1537.94	44487.3
224	2.000000	1.108789	7.36724e+06	-49839.1	955.817	-29758	0.000000	0.000000	7.109591	8.866356	NaN	0.000000	0.001595	0.001705	28.0777	10.0014	0.001678	5959.92	11.8531	2.580119	8.491836	1.108426	0.009917	0.009554	8.866356	5959.92	0.008802	0.007880	1125.2	61341.9
224	2.000000	1.111267	7.36724e+06	-49839.1	955.819	-29758	0.000000	0.000000	7.112252	13.3346	NaN	0.000000	0.001591	0.001726	28.0783	12.5725	0.001670	7530.48	0.525144	-170.456	12.3566	1.110943	0.012395	0.012071	13.3346	7530.48	0.011067	0.010392	1283.21	67492.4
224	2.000000	1.113768	7.36724e+06	-49839.1	955.818	-29758	0.000000	0.000000	7.114846	15.5836	NaN	0.000000	0.001594	0.001781	28.0778	14.5771	0.001617	9015.7	11.0586	0.174953	15.5294	1.113377	0.014896	0.014506	15.5836	9015.7	0.013600	0.013463	1157.51	70990.6
224	2.000000	1.116257	7.36724e+06	-49839.1	955.819	-29758	0.000000	0.000000	7.117418	17.5907	NaN	0.000000	0.001592	0.001743	28.0778	16.7983	0.001766	9510.98	6.822167	-175.897	18.0003	1.115882	0.017385	0.017010	17.5907	9510.98	0.015998	0.016640	1057.15	67363.5
224	2.000000	1.118746	7.36724e+06	-49839.1	955.819	-29758	0.000000	0.000000	7.120122	22.8276	NaN	0.000000	0.001596	0.001740	28.0776	19.4119	0.001961	9897.23	7.775677	3.851241	22.7774	1.118359	0.019875	0.019488	22.8276	9897.23	0.018145	0.019711	1158.12	64407.1
224	2.000000	1.121188	7.36724e+06	-49839.1	955.819	-29758	0.000000	0.000000	7.122708	26.3161	NaN	0.000000	0.001543	0.001752	28.078	21.4775	0.001939	11074.4	5.109480	-175.498	25.1078	1.120894	0.022317	0.022023	26.3161	11074.4	0.020534	0.023389	1125.15	66158.7
224	2.000000	1.123671	7.36724e+06	-49839.1	955.818	-29758	0.000000	0.000000	7.125372	30.7189	NaN	0.000000	0.001602	0.001740	28.0777	23.0207	0.001808	12735.7	5.885559	1.900629	28.501	1.123351	0.024800	0.024480	30.7189	12735.7	0.022991	0.027462	1118.62	70215.6
224	2.000000	1.126206	7.36724e+06	-49839.1	955.819	-29758	0.000000	0.000000	7.128136	36.2869	NaN	0.000000	0.001620	0.001739	28.0777	24.822	0.001684	14737.5	4.615386	-178.581	35.2036	1.125884	0.027335	0.027012	36.2869	14737.5	0.025488	0.031909	1137.18	75376.7
224	2.000000	1.128651	7.36724e+06	-49839.1	955.819	-29758	0.000000	0.000000	7.130762	40.6907	NaN	0.000000	0.001586	0.001708	28.0778	28.0672	0.001761	15939	5.867494	-0.230663	38.461	1.128402	0.029779	0.029530	40.6907	15939	0.027865	0.036434	1116.82	76291.9
224	2.000000	1.131119	7.36724e+06	-49839.1	955.82	-29758	0.000000	0.000000	7.133588	49.4293	NaN	0.000000	0.001568	0.001713	28.0781	30.9772	0.001756	17637.1	4.317473	-179.52	46.2634	1.130880	0.032247	0.032008	49.4293	17637.1	0.030145	0.041045	1204.28	79537.3
224	2.000000	1.133705	7.36724e+06	-49839.1	955.82	-29758	0.000000	0.000000	7.136344	53.5329	NaN	0.000000	0.001558	0.001729	28.0777	33.4177	0.001749	19105.3	6.349529	-2.021830	52.1702	1.133306	0.034834	0.034435	53.5329	19105.3	0.032732	0.046597	1148.84	80862.3
224	2.000000	1.136100	7.36724e+06	-49839.1	955.819	-29758	0.000000	0.000000	7.139182	64.3247	NaN	0.000000	0.001539	0.001708	28.0767	35.4967	0.001720	20641.4	6.799584	176.067	61.0696	1.135822	0.037228	0.036950	64.3247	20641.4	0.034891	0.051493	1249.19	83107
224	2.000000	1.138744	7.36724e+06	-49839.1	955.819	-29758	0.000000	0.000000	7.142095	70.854	NaN	0.000000	0.001599	0.001722	28.0764	38.0831	0.001781	21381.6	6.804691	-3.744290	73.1473	1.138357	0.039873	0.039485	70.854	21381.6	0.037388	0.057451	1233.29	81501.3
224	2.000000	1.141224	7.36724e+06	-49839.1	955.819	-29758	0.000000	0.000000	7.144812	76.6392	NaN	0.000000	0.001574	0.001735	28.0765	40.9913	0.001952	21001.7	4.725429	178.707	79.1132	1.140862	0.042352	0.041990	76.6392	21001.7	0.039615	0.063038	1215.76	76423.5
224	2.000000	1.143688	7.36724e+06	-49839.1	955.818	-29758	0.000000	0.000000	7.147610	84.7327	NaN	0.000000	0.001596	0.001720	28.0764	42.695	0.001798	23748.9	3.339613	-1.397874	83.5275	1.143380	0.044817	0.044509	84.7327	23748.9	0.042141	0.069678	1216.05	82199
224	2.000000	1.146159	7.36724e+06	-49839.1	955.819	-29758	0.000000	0.000000	7.150615	97.7294	NaN	0.000000	0.001592	0.001690	28.077	44.4682	0.001634	27211	6.375847	174.5	97.4774	1.145786	0.047287	0.046915	97.7294	27211	0.044594	0.076438	1278.54	89921.2
224	2.000000	1.148536	7.36724e+06	-49839.1	955.819	-29758	0.000000	0.000000	7.153333	106.03	NaN	0.000000	0.001584	0.001695	28.0764	48.4634	0.001830	26483.1	5.449454	-4.574292	100.211	1.148262	0.049664	0.049391	106.03	26483.1	0.046661	0.082374	1287.18	84304
224	2.000000	1.151182	7.36724e+06	-49839.1	955.819	-29758	0.000000	0.000000	7.156405	116.379	NaN	0.000000	0.001550	0.001725	28.0766	51.4552	0.001794	28689.2	8.258799	172.499	117.225	1.150793	0.052311	0.051921	116.379	28689.2	0.049268	0.090165	1290.73	87291.4
224	2.000000	1.153626	7.36724e+06	-49839.1	955.819	-29758	0.000000	0.000000	7.159179	124.394	NaN	0.000000	0.001540	0.001709	28.0763	52.2117	0.001688	30930.1	5.186668	-5.956751	121.249	1.153266	0.054755	0.054395	124.394	30930.1	0.051738	0.097862	1271.12	90333.3
224	2.000000	1.156144	7.36724e+06	-49839.1	955.819	-29758	0.000000	0.000000	7.162025	132.382	NaN	0.000000	0.001628	0.001758	28.0765	54.6342	0.001835	29778.2	7.466821	172.264	131.069	1.155826	0.057272	0.056954	132.382	29778.2	0.053938	0.104973	1261.1	83971.6
224	2.000000	1.158626	7.36724e+06	-49839.1	955.819	-29758	0.000000	0.000000	7.165096	146.705	NaN	0.000000	0.001587	0.001708	28.0767	56.5921	0.001825	31017.2	3.143960	-3.624468	143.022	1.158249	0.059755	0.059377	146.705	31017.2	0.056207	0.112561	1303.34	84466
224	2.000000	1.161095	7.36724e+06	-49839.1	955.819	-29758	0.000000	0.000000	7.168123	160.276	NaN	0.000000	0.001573	0.001709	28.0768	59.5981	0.001855	32136.7	4.415443	175.557	158.136	1.160793	0.062224	0.061921	160.276	32136.7	0.058483	0.120425	1330.92	84608.7
224	2.000000	1.163612	7.36724e+06	-49839.1	955.819	-29758	0.000000	0.000000	7.171086	171.126	NaN	0.000000	0.001574	0.001723	28.0764	61.8568	0.001889	32751.3	6.349931	-6.305762	167.528	1.163181	0.064740	0.064309	171.126	32751.3	0.060821	0.128770	1328.92	83386.1
224	2.000000	1.166161	7.36724e+06	-49839.1	955.818	-29758	0.000000	0.000000	7.173931	178.326	NaN	0.000000	0.001548	0.001688	28.0765	64.064	0.001821	35182.6	7.486523	170.588	180.38	1.165920	0.067289	0.067048	178.326	35182.6	0.063488	0.138612	1286.52	86337.8
224	2.000000	1.168628	7.36724e+06	-49839.1	955.819	-29758	0.000000	0.000000	7.177121	195.916	NaN	0.000000	0.001595	0.001738	28.0766	66.0361	0.001823	36230.2	3.496990	-5.086962	192.575	1.168282	0.069756	0.069410	195.916	36230.2	0.065701	0.147040	1332.4	86322.8
224	2.000000	1.171062	7.36724e+06	-49839.1	955.818	-29758	0.000000	0.000000	7.180172	210.929	NaN	0.000000	0.001585	0.001731	28.0778	68.7808	0.001791	38404	5.593228	172.924	206.695	1.170694	0.072190	0.071823	210.929	38404	0.068071	0.156328	1349.27	88742.3
224	2.000000	1.173654	7.36724e+06	-49839.1	955.819	-29758	0.000000	0.000000	7.183219	221.983	NaN	0.000000	0.001575	0.001740	28.0777	69.631	0.001657	42019.7	2.892300	-4.510044	220.803	1.173198	0.074782	0.074327	221.983	42019.7	0.070820	0.167441	1325.74	93819.9
224	2.000000	1.176136	7.36724e+06	-49839.1	955.819	-29758	0.000000	0.000000	7.186025	229.857	NaN	0.000000	0.001551	0.001679	28.0781	71.8822	0.001731	41531.7	0.777708	176.529	229.56	1.175847	0.077264	0.076975	229.857	41531.7	0.073113	0.176983	1298.75	90196
224	2.000000	1.178664	7.36724e+06	-49839.1	955.819	-29758	0.000000	0.000000	7.189177	245.036	NaN	0.000000	0.001536	0.001699	28.0778	75.9737	0.001867	40692	3.775669	-6.192219	245.603	1.178256	0.079792	0.079384	245.036	40692	0.075276	0.186210	1315.91	86155
224	2.000000	1.181167	7.36724e+06	-49839.1	955.82	-29758	0.000000	0.000000	7.192389	262.278	NaN	0.000000	0.001517	0.001703	28.0774	78.471	0.001750	44844.8	5.433960	171.542	263.344	1.180777	0.082295	0.081906	262.278	44844.8	0.077909	0.197740	1326.38	92137.9
224	2.000000	1.183609	7.36724e+06	-49839.1	955.819	-29758	0.000000	0.000000	7.195540	279.535	NaN	0.000000	0.001540	0.001672	28.0776	79.5989	0.001824	43650.7	6.395323	-8.444804	276.372	1.183210	0.084737	0.084338	279.535	43650.7	0.079934	0.206830	1351.52	87691.7
224	2.000000	1.186067	7.36724e+06	-49839.1	955.82	-29758	0.000000	0.000000	7.198689	296.316	NaN	0.000000	0.001560	0.001694	28.0779	81.3056	0.001768	45986.1	4.018197	172.752	293.927	1.185799	0.087195	0.086928	296.316	45986.1	0.082363	0.217981	1359.37	89989.3
224	2.000000	1.188585	7.36724e+06	-49839.1	955.819	-29758	0.000000	0.000000	7.201893	313.005	NaN	0.000000	0.001537	0.001697	28.078	84.3346	0.001805	46715.3	5.463360	-8.875475	310	1.188202	0.089713	0.089331	313.005	46715.3	0.084688	0.228917	1367.33	89206
224	2.000000	1.191116	7.36724e+06	-49839.1	955.819	-29758	0.000000	0.000000	7.204857	323.539	NaN	0.000000	0.001515	0.001718	28.0777	86.3655	0.001764	48956.3	1.718539	174.51	320.69	1.190674	0.092244	0.091803	323.539	48956.3	0.087288	0.241436	1340.06	91029.1
224	2.000000	1.193670	7.36724e+06	-49839.1	955.82	-29758	0.000000	0.000000	7.208084	339.887	NaN	0.000000	0.001591	0.001752	28.0775	88.5904	0.001767	50132.8	4.332352	-8.255428	339.9	1.193343	0.094799	0.094471	339.887	50132.8	0.089714	0.253401	1341.3	90989.5
224	2.000000	1.195983	7.36724e+06	-49839.1	955.82	-29758	0.000000	0.000000	7.211075	356.386	NaN	0.000000	0.001532	0.001743	28.0781	90.2599	0.001735	52009	2.046654	173.649	350.752	1.195685	0.097111	0.096813	356.386	52009	0.091972	0.264779	1345.98	92344.2
224	2.000000	1.198550	7.36724e+06	-49839.1	955.82	-29758	0.000000	0.000000	7.214420	375.299	NaN	0.000000	0.001549	0.001737	28.0779	94.4046	0.001758	53707.3	5.789815	-9.893744	370.285	1.198206	0.099679	0.099334	375.299	53707.3	0.094438	0.277472	1352.57	93153.1
224	2.000000	1.201184	7.36724e+06	-49839.1	955.82	-29758	0.000000	0.000000	7.217526	386.791	NaN	0.000000	0.001546	0.001698	28.0778	98.7535	0.001887	52324.5	8.454851	167.643	390.268	1.200779	0.102312	0.101908	386.791	52324.5	0.096768	0.289721	1335.05	88815.4
224	2.000000	1.203577	7.36724e+06	-49839.1	955.82	-29758	0.000000	0.000000	7.220748	406.969	NaN	0.000000	0.001531	0.001713	28.0772	99.1523	0.001716	57773.2	4.404259	-9.525381	403.693	1.203297	0.104705	0.104425	406.969	57773.2	0.099422	0.303971	1338.84	95737.9
224	2.000000	1.206150	7.36724e+06	-49839.1	955.821	-29758	0.000000	0.000000	7.223963	422.578	NaN	0.000000	0.001556	0.001700	28.0768	101.766	0.001757	57910.4	6.516621	168.569	427.883	1.205691	0.107278	0.106820	422.578	57910.4	0.101805	0.317044	1332.87	93965.8