File: remote_trans/data/nanoindenter/0828-1/data/Data_2025-08-06,11h17m57s/2025-07-22_16-23-58_1_693.txt
2025-07-22, 16:23:58, 1
Index	Phase	Displacement	Time	Pos X	Pos Y	Pos Z	Rot A	Rot B	Piezo Z	Force A	Force B	Gripper	Voltage A	Voltage B	Temperature	Amplitude force	Amplitude pos	Stiffness	Phase shift	Phase excitation	Force A raw	Displacement raw	HMax	HMax raw	Real Force	Real Stiffness	Contact Depth	Area	Hardness	Reduced Mod.
[#]	[#]	[um]	[s]	[um]	[um]	[um]	[m°]	[m°]	[um]	[uN]	[uN]	[V]	[V]	[V]	[°C]	[uN]	[um]	[N/m]	[°]	[°]	[uN]	[um]	[um]	[um]	[uN]	[N/m]	[um]	[um^2]	[MPa]	[MPa]
693	1.000000	0.002658	7.37183e+06	-42439.1	1005.82	-29782.5	0.000000	0.000000	6.002700	-0.118950	NaN	0.000000	0.001674	0.001698	28.0827	0.023673	0.001053	22.4754	84.5966	178.861	-0.088662	0.001432	-1.203596	-1.204822	-0.118950	22.4754	-1.199627	-1.085809E+16	1.095500E-17	NaN
693	1.000000	0.012691	7.37183e+06	-42439.1	1005.82	-29782.5	0.000000	0.000000	6.012732	-0.150022	NaN	0.000000	0.001650	0.001704	28.0825	0.044093	0.001172	37.6212	-108.442	-3.562527	-0.178761	0.011262	-1.193563	-1.194992	-0.150022	37.6212	-1.190572	-8.212807E+15	1.826685E-17	NaN
693	1.000000	0.022629	7.37183e+06	-42439.1	1005.82	-29782.5	0.000000	0.000000	6.022667	-0.216450	NaN	0.000000	0.001654	0.001711	28.0826	0.009331	0.001667	5.596261	-82.8967	175.392	-0.203574	0.021253	-1.183625	-1.185001	-0.216450	5.596261	-1.154617	-2.708383E+15	7.991858E-17	NaN
693	1.000000	0.032601	7.37183e+06	-42439.1	1005.82	-29782.5	0.000000	0.000000	6.032638	-0.242345	NaN	0.000000	0.001626	0.001726	28.0826	0.044048	0.001974	22.3135	53.2239	-8.268610	-0.191392	0.031257	-1.173653	-1.174997	-0.242345	22.3135	-1.165508	-3.790408E+15	6.393643E-17	NaN
693	1.000000	0.042624	7.37183e+06	-42439.1	1005.82	-29782.5	0.000000	0.000000	6.042664	-0.166063	NaN	0.000000	0.001635	0.001702	28.0826	0.041615	0.001888	22.0458	113.039	173.963	-0.223665	0.041335	-1.163631	-1.164919	-0.166063	22.0458	-1.157981	-3.004751E+15	5.526678E-17	NaN
693	1.000000	0.052585	7.37183e+06	-42439.1	1005.82	-29782.5	0.000000	0.000000	6.052619	-0.306643	NaN	0.000000	0.001687	0.001652	28.0826	0.059937	0.001983	30.2242	-50.253	-4.967834	-0.289693	0.051215	-1.153670	-1.155039	-0.306643	30.2242	-1.146060	-2.079696E+15	1.474460E-16	NaN
693	1.000000	0.062608	7.37183e+06	-42439.1	1005.82	-29782.5	0.000000	0.000000	6.062645	-0.240326	NaN	0.000000	0.001689	0.001676	28.0825	0.114086	0.002122	53.7591	-67.8745	175.789	-0.179487	0.061271	-1.143647	-1.144983	-0.240326	53.7591	-1.140294	-1.740514E+15	1.380779E-16	NaN
693	1.000000	0.072617	7.37183e+06	-42439.1	1005.82	-29782.5	0.000000	0.000000	6.072651	-0.321559	NaN	0.000000	0.001651	0.001725	28.0825	0.013549	0.001960	6.911546	84.6369	-1.169735	-0.216933	0.071220	-1.133637	-1.135034	-0.321559	6.911546	-1.098744	-4.821723E+14	6.668957E-16	NaN
693	1.000000	0.082587	7.37183e+06	-42439.1	1005.82	-29782.5	0.000000	0.000000	6.082622	-0.292321	NaN	0.000000	0.001679	0.001688	28.0825	0.084249	0.001976	42.6356	-14.0887	178.385	-0.284627	0.081295	-1.123667	-1.124959	-0.292321	42.6356	-1.118525	-8.885399E+14	3.289908E-16	NaN
693	1.000000	0.092610	7.37183e+06	-42439.1	1005.82	-29782.5	0.000000	0.000000	6.092646	-0.262979	NaN	0.000000	0.001670	0.001681	28.0812	0.129622	0.001990	65.1372	28.9088	-3.191328	-0.319566	0.091257	-1.113644	-1.114997	-0.262979	65.1372	-1.110616	-6.959197E+14	3.778874E-16	NaN
693	1.000000	0.102627	7.37183e+06	-42439.1	1005.82	-29782.5	0.000000	0.000000	6.102662	-0.293410	NaN	0.000000	0.001674	0.001706	28.0816	0.061527	0.001991	30.9035	76.509	175.583	-0.313443	0.101304	-1.103627	-1.104950	-0.293410	30.9035	-1.096506	-4.499490E+14	6.520960E-16	NaN
693	1.000000	0.112602	7.37183e+06	-42439.1	1005.82	-29782.5	0.000000	0.000000	6.112638	-0.279400	NaN	0.000000	0.001652	0.001688	28.0815	0.099567	0.001951	51.031	26.6693	-3.957233	-0.271453	0.111290	-1.093652	-1.094964	-0.279400	51.031	-1.089545	-3.628340E+14	7.700504E-16	NaN
693	1.000000	0.122627	7.37183e+06	-42439.1	1005.82	-29782.5	0.000000	0.000000	6.122662	-0.301027	NaN	0.000000	0.001693	0.001671	28.0816	0.089126	0.001953	45.6464	-69.4756	176.511	-0.285258	0.121340	-1.083627	-1.084914	-0.301027	45.6464	-1.078681	-2.593021E+14	1.160914E-15	NaN
693	1.000000	0.132629	7.37183e+06	-42439.1	1005.82	-29782.5	0.000000	0.000000	6.132665	-0.269083	NaN	0.000000	0.001684	0.001684	28.0813	0.068582	0.002006	34.1816	-31.9731	-3.743057	-0.274984	0.131274	-1.073625	-1.074980	-0.269083	34.1816	-1.067721	-1.847444E+14	1.456514E-15	NaN
693	1.000000	0.142655	7.37183e+06	-42439.1	1005.82	-29782.5	0.000000	0.000000	6.142688	-0.329134	NaN	0.000000	0.001675	0.001694	28.0813	0.082267	0.002096	39.2536	41.4355	177.025	-0.356997	0.141318	-1.063599	-1.064937	-0.329134	39.2536	-1.057311	-1.338689E+14	2.458630E-15	NaN
693	1.000000	0.152644	7.37183e+06	-42439.1	1005.82	-29782.5	0.000000	0.000000	6.152679	-0.281478	NaN	0.000000	0.001670	0.001665	28.0817	0.162299	0.002018	80.4343	-33.651	-2.649245	-0.327660	0.151299	-1.053610	-1.054955	-0.281478	80.4343	-1.050986	-1.100687E+14	2.557290E-15	NaN
693	1.000000	0.162619	7.37183e+06	-42439.1	1005.82	-29782.5	0.000000	0.000000	6.162653	-0.324706	NaN	0.000000	0.001699	0.001672	28.0813	0.026332	0.001943	13.5547	-168.64	177.373	-0.365444	0.161292	-1.043635	-1.044962	-0.324706	13.5547	-1.025669	-5.025925E+13	6.460624E-15	NaN
693	1.000000	0.172685	7.37183e+06	-42439.1	1005.82	-29782.5	0.000000	0.000000	6.172719	-0.295517	NaN	0.000000	0.001699	0.001720	28.0813	0.069626	0.002076	33.5355	87.5982	-3.857185	-0.275551	0.171278	-1.033570	-1.034977	-0.295517	33.5355	-1.026961	-5.231142E+13	5.649189E-15	NaN
693	1.000000	0.182659	7.37183e+06	-42439.1	1005.82	-29782.5	0.000000	0.000000	6.182693	-0.309442	NaN	0.000000	0.001659	0.001686	28.0815	0.087856	0.002012	43.6651	-132.334	178.259	-0.272943	0.181321	-1.023595	-1.024934	-0.309442	43.6651	-1.018280	-3.997697E+13	7.740508E-15	NaN
693	1.000000	0.192686	7.37183e+06	-42439.1	1005.82	-29782.5	0.000000	0.000000	6.192720	-0.321241	NaN	0.000000	0.001709	0.001723	28.0814	0.040961	0.002000	20.4822	-10.4321	-4.812993	-0.345632	0.191316	-1.013568	-1.014938	-0.321241	20.4822	-1.001805	-2.399223E+13	1.338939E-14	NaN
693	1.000000	0.202664	7.37183e+06	-42439.1	1005.82	-29782.5	0.000000	0.000000	6.202701	-0.233318	NaN	0.000000	0.001666	0.001675	28.0811	0.075440	0.001966	38.3807	59.6154	174.54	-0.282377	0.201346	-1.003590	-1.004908	-0.233318	38.3807	-0.999031	-2.201521E+13	1.059805E-14	NaN
693	1.000000	0.212691	7.37183e+06	-42439.1	1005.82	-29782.5	0.000000	0.000000	6.212729	-0.219362	NaN	0.000000	0.001686	0.001697	28.0811	0.038462	0.001921	20.0267	-67.3639	-10.1413	-0.342257	0.211292	-0.993564	-0.994962	-0.219362	20.0267	-0.985349	-1.440330E+13	1.522996E-14	NaN
693	1.000000	0.222681	7.37183e+06	-42439.1	1005.82	-29782.5	0.000000	0.000000	6.222717	-0.252769	NaN	0.000000	0.001689	0.001678	28.0823	0.018229	0.001920	9.492931	104.796	176.478	-0.198636	0.221356	-0.983574	-0.984898	-0.252769	9.492931	-0.963603	-7.335755E+12	3.445707E-14	NaN
693	1.000000	0.232664	7.37183e+06	-42439.1	1005.82	-29782.5	0.000000	0.000000	6.232700	-0.272560	NaN	0.000000	0.001663	0.001682	28.0822	0.096107	0.001980	48.5347	145.972	-5.817370	-0.187005	0.231289	-0.973590	-0.974965	-0.272560	48.5347	-0.969378	-8.775798E+12	3.105819E-14	NaN
693	1.000000	0.242666	7.37183e+06	-42439.1	1005.82	-29782.5	0.000000	0.000000	6.242706	-0.178035	NaN	0.000000	0.001707	0.001715	28.0825	0.076156	0.002059	36.9901	-51.4598	176.175	-0.139207	0.241367	-0.963588	-0.964887	-0.178035	36.9901	-0.959978	-6.555013E+12	2.716020E-14	NaN
693	1.000000	0.252681	7.37183e+06	-42439.1	1005.82	-29782.5	0.000000	0.000000	6.252717	-0.282026	NaN	0.000000	0.001655	0.001713	28.0825	0.063316	0.002044	30.9742	123.734	-4.344894	-0.207277	0.251416	-0.953573	-0.954838	-0.282026	30.9742	-0.946744	-4.346244E+12	6.488954E-14	NaN
693	1.000000	0.262639	7.37183e+06	-42439.1	1005.82	-29782.5	0.000000	0.000000	6.262677	-0.202926	NaN	0.000000	0.001669	0.001718	28.0827	0.097117	0.002052	47.3314	111.028	176.103	-0.243775	0.261375	-0.943615	-0.944879	-0.202926	47.3314	-0.940400	-3.568885E+12	5.685989E-14	NaN
693	1.000000	0.272689	7.37183e+06	-42439.1	1005.82	-29782.5	0.000000	0.000000	6.272728	-0.200827	NaN	0.000000	0.001663	0.001715	28.0833	0.050239	0.002056	24.4323	154.04	-3.954332	-0.250673	0.271293	-0.933565	-0.934961	-0.200827	24.4323	-0.927401	-2.382932E+12	8.427743E-14	NaN
693	1.000000	0.282667	7.37183e+06	-42439.1	1005.82	-29782.5	0.000000	0.000000	6.282706	-0.175905	NaN	0.000000	0.001657	0.001684	28.0825	0.164547	0.001857	88.5912	33.1773	174.797	-0.129181	0.281367	-0.923588	-0.924888	-0.175905	88.5912	-0.922098	-2.020861E+12	8.704477E-14	NaN
693	1.000000	0.292685	7.37183e+06	-42439.1	1005.82	-29782.5	0.000000	0.000000	6.292724	-0.187776	NaN	0.000000	0.001649	0.001695	28.0826	0.122965	0.001957	62.8241	-18.8937	-6.300249	-0.091684	0.291388	-0.913570	-0.914866	-0.187776	62.8241	-0.911328	-1.445769E+12	1.298799E-13	NaN
693	1.000000	0.302706	7.37183e+06	-42439.1	1005.82	-29782.5	0.000000	0.000000	6.302743	-0.245437	NaN	0.000000	0.001643	0.001684	28.0827	0.133868	0.001959	68.3488	59.1735	174.176	-0.333164	0.301435	-0.903548	-0.904819	-0.245437	68.3488	-0.900855	-1.043800E+12	2.351382E-13	NaN
693	1.000000	0.312703	7.37183e+06	-42439.1	1005.82	-29782.5	0.000000	0.000000	6.312743	-0.156002	NaN	0.000000	0.001611	0.001723	28.0827	0.034452	0.002021	17.0471	84.047	-3.358035	-0.201204	0.311337	-0.893552	-0.894917	-0.156002	17.0471	-0.886688	-6.716492E+11	2.322674E-13	NaN
693	1.000000	0.322699	7.37183e+06	-42439.1	1005.82	-29782.5	0.000000	0.000000	6.322739	-0.172288	NaN	0.000000	0.001602	0.001714	28.0825	0.045577	0.002104	21.657	-109.427	174.237	-0.178091	0.321407	-0.883555	-0.884847	-0.172288	21.657	-0.877588	-5.059345E+11	3.405347E-13	NaN
693	1.000000	0.332710	7.37183e+06	-42439.1	1005.82	-29782.5	0.000000	0.000000	6.332750	-0.170308	NaN	0.000000	0.001647	0.001710	28.0829	0.083479	0.002050	40.7153	-40.3809	-6.508255	-0.140830	0.331294	-0.873544	-0.874960	-0.170308	40.7153	-0.870407	-4.045290E+11	4.210041E-13	NaN
693	1.000000	0.342737	7.37183e+06	-42439.1	1005.82	-29782.5	0.000000	0.000000	6.342777	-0.168097	NaN	0.000000	0.001624	0.001694	28.0829	0.176107	0.002065	85.2966	-8.909511	175.904	-0.145000	0.341418	-0.863517	-0.864836	-0.168097	85.2966	-0.862039	-3.116884E+11	5.393121E-13	NaN
693	1.000000	0.352725	7.37183e+06	-42439.1	1005.82	-29782.5	0.000000	0.000000	6.352762	-0.257230	NaN	0.000000	0.001636	0.001705	28.0825	0.064577	0.002020	31.9699	76.0421	-2.807993	-0.250080	0.351360	-0.853529	-0.854895	-0.257230	31.9699	-0.847495	-1.980652E+11	1.298714E-12	NaN
693	1.000000	0.362732	7.37183e+06	-42439.1	1005.82	-29782.5	0.000000	0.000000	6.362771	-0.207421	NaN	0.000000	0.001628	0.001680	28.081	0.083530	0.001892	44.1433	103.506	175.22	-0.197769	0.361451	-0.843522	-0.844804	-0.207421	44.1433	-0.839998	-1.567704E+11	1.323088E-12	NaN
693	1.000000	0.372758	7.37183e+06	-42439.1	1005.82	-29782.5	0.000000	0.000000	6.372795	-0.260101	NaN	0.000000	0.001652	0.001731	28.0813	0.010762	0.002036	5.286622	144.882	-1.601947	-0.079486	0.371350	-0.833496	-0.834904	-0.260101	5.286622	-0.796596	-4.042493E+10	6.434173E-12	NaN
693	1.000000	0.382766	7.37183e+06	-42439.1	1005.82	-29782.5	0.000000	0.000000	6.382800	-0.300991	NaN	0.000000	0.001640	0.001710	28.0813	0.033204	0.002080	15.9658	99.4514	178.527	-0.242218	0.381439	-0.823489	-0.824815	-0.300991	15.9658	-0.809349	-6.022044E+10	4.998159E-12	NaN
693	1.000000	0.392726	7.37183e+06	-42439.1	1005.82	-29782.5	0.000000	0.000000	6.392762	-0.264333	NaN	0.000000	0.001635	0.001671	28.0812	0.140471	0.002034	69.0694	-16.4582	-2.807020	-0.300273	0.391433	-0.813528	-0.814821	-0.264333	69.0694	-0.810658	-6.273278E+10	4.213641E-12	NaN
693	1.000000	0.402775	7.37183e+06	-42439.1	1005.82	-29782.5	0.000000	0.000000	6.402812	-0.237639	NaN	0.000000	0.001630	0.001698	28.081	0.105054	0.001955	53.7247	-53.9973	173.607	-0.276176	0.401411	-0.803480	-0.804843	-0.237639	53.7247	-0.800162	-4.519216E+10	5.258407E-12	NaN
693	1.000000	0.412770	7.37183e+06	-42439.1	1005.82	-29782.5	0.000000	0.000000	6.412809	-0.204021	NaN	0.000000	0.001640	0.001709	28.0811	0.069636	0.001914	36.3878	52.5139	-6.747917	-0.297833	0.411394	-0.793484	-0.794860	-0.204021	36.3878	-0.789279	-3.215812E+10	6.344316E-12	NaN
693	1.000000	0.422783	7.37183e+06	-42439.1	1005.82	-29782.5	0.000000	0.000000	6.422821	-0.208944	NaN	0.000000	0.001675	0.001709	28.081	0.105544	0.001802	58.5779	33.5069	172.521	-0.204136	0.421431	-0.783471	-0.784823	-0.208944	58.5779	-0.780796	-2.466323E+10	8.471873E-12	NaN
693	1.000000	0.432757	7.37183e+06	-42439.1	1005.82	-29782.5	0.000000	0.000000	6.432796	-0.183390	NaN	0.000000	0.001635	0.001669	28.081	0.039778	0.002103	18.9104	82.4324	-4.483643	-0.196725	0.431381	-0.773497	-0.774873	-0.183390	18.9104	-0.766224	-1.562999E+10	1.173319E-11	NaN
693	1.000000	0.442765	7.37183e+06	-42439.1	1005.82	-29782.5	0.000000	0.000000	6.442802	-0.233109	NaN	0.000000	0.001636	0.001705	28.0811	0.081528	0.002164	37.6779	84.6875	173.652	-0.188795	0.441449	-0.763490	-0.764805	-0.233109	37.6779	-0.758849	-1.240652E+10	1.878921E-11	NaN
693	1.000000	0.452755	7.37183e+06	-42439.1	1005.82	-29782.5	0.000000	0.000000	6.452796	-0.158768	NaN	0.000000	0.001592	0.001716	28.0813	0.098013	0.002086	46.9776	12.4171	-1.896393	-0.189733	0.451380	-0.753499	-0.754874	-0.158768	46.9776	-0.750964	-9.690464E+9	1.638396E-11	NaN
693	1.000000	0.462770	7.37183e+06	-42439.1	1005.82	-29782.5	0.000000	0.000000	6.462809	-0.188853	NaN	0.000000	0.001584	0.001698	28.0811	0.050977	0.001872	27.2274	-114.651	178.909	-0.258136	0.461456	-0.743484	-0.744798	-0.188853	27.2274	-0.738282	-6.511115E+9	2.900476E-11	NaN
693	1.000000	0.472762	7.37183e+06	-42439.1	1005.82	-29782.5	0.000000	0.000000	6.472803	-0.158473	NaN	0.000000	0.001636	0.001721	28.0812	0.051540	0.001950	26.4343	-48.5898	-3.053372	-0.245732	0.471408	-0.733492	-0.734846	-0.158473	26.4343	-0.728996	-4.865388E+9	3.257145E-11	NaN
693	1.000000	0.482776	7.37183e+06	-42439.1	1005.82	-29782.5	0.000000	0.000000	6.482815	-0.193369	NaN	0.000000	0.001629	0.001719	28.0813	0.063863	0.001913	33.3787	-57.3435	173.905	-0.151173	0.481439	-0.723479	-0.724815	-0.193369	33.3787	-0.719134	-3.569918E+9	5.416635E-11	NaN
693	1.000000	0.492787	7.37183e+06	-42439.1	1005.82	-29782.5	0.000000	0.000000	6.492822	-0.296483	NaN	0.000000	0.001626	0.001733	28.0816	0.170167	0.002099	81.0647	-31.3362	-4.591690	-0.216648	0.491442	-0.713467	-0.714812	-0.296483	81.0647	-0.710724	-2.741154E+9	1.081600E-10	NaN
693	1.000000	0.502780	7.37183e+06	-42439.1	1005.82	-29782.5	0.000000	0.000000	6.502818	-0.218157	NaN	0.000000	0.001592	0.001727	28.0824	0.092031	0.001945	47.3185	-64.7347	173.021	-0.233789	0.501573	-0.703474	-0.704681	-0.218157	47.3185	-0.700016	-1.957717E+9	1.114345E-10	NaN
693	1.000000	0.512775	7.37183e+06	-42439.1	1005.82	-29782.5	0.000000	0.000000	6.512814	-0.193646	NaN	0.000000	0.001591	0.001699	28.0824	0.141575	0.001934	73.2018	23.0932	-4.550181	-0.278719	0.511412	-0.693480	-0.694842	-0.193646	73.2018	-0.691496	-1.497459E+9	1.293162E-10	NaN
693	1.000000	0.522811	7.37183e+06	-42439.1	1005.82	-29782.5	0.000000	0.000000	6.522847	-0.266374	NaN	0.000000	0.001612	0.001691	28.0823	0.049371	0.001902	25.9531	-169.505	173.783	-0.269859	0.521488	-0.683443	-0.684766	-0.266374	25.9531	-0.675746	-9.120337E+8	2.920658E-10	NaN
693	1.000000	0.532751	7.37183e+06	-42439.1	1005.82	-29782.5	0.000000	0.000000	6.532791	-0.174359	NaN	0.000000	0.001613	0.001724	28.0826	0.090052	0.002066	43.5877	34.4853	-5.786517	-0.224862	0.531448	-0.673503	-0.674806	-0.174359	43.5877	-0.670503	-7.731716E+8	2.255119E-10	NaN
693	1.000000	0.542802	7.37183e+06	-42439.1	1005.82	-29782.5	0.000000	0.000000	6.542840	-0.205801	NaN	0.000000	0.001565	0.001698	28.0824	0.092637	0.001959	47.2974	169.629	176.039	-0.244708	0.541494	-0.663453	-0.664760	-0.205801	47.2974	-0.660189	-5.585461E+8	3.684586E-10	NaN
693	1.000000	0.552811	7.37183e+06	-42439.1	1005.82	-29782.6	0.000000	0.000000	6.552847	-0.260719	NaN	0.000000	0.001617	0.001710	28.0825	0.109427	0.002013	54.369	-24.9935	0.370168	-0.252508	0.551464	-0.653443	-0.654790	-0.260719	54.369	-0.649847	-4.030283E+8	6.469007E-10	NaN
693	1.000000	0.562805	7.37183e+06	-42439.1	1005.82	-29782.6	0.000000	0.000000	6.562846	-0.148669	NaN	0.000000	0.001552	0.001733	28.0825	0.022023	0.002151	10.2385	40.6965	177.93	-0.122398	0.561451	-0.643449	-0.644804	-0.148669	10.2385	-0.632559	-2.334291E+8	6.368913E-10	NaN
693	1.000000	0.572799	7.37183e+06	-42439.1	1005.82	-29782.6	0.000000	0.000000	6.572837	-0.218865	NaN	0.000000	0.001583	0.001690	28.0828	0.044109	0.001970	22.3896	-7.595671	-4.210867	-0.247101	0.571492	-0.633455	-0.634763	-0.218865	22.3896	-0.626123	-1.904481E+8	1.149211E-9	NaN
693	1.000000	0.582819	7.37183e+06	-42439.1	1005.82	-29782.6	0.000000	0.000000	6.582860	-0.143488	NaN	0.000000	0.001613	0.001713	28.0825	0.017894	0.001934	9.253808	54.9078	174.964	-0.207607	0.581513	-0.623435	-0.624741	-0.143488	9.253808	-0.611806	-1.210489E+8	1.185372E-9	NaN
693	1.000000	0.592814	7.37183e+06	-42439.1	1005.82	-29782.6	0.000000	0.000000	6.592854	-0.176857	NaN	0.000000	0.001637	0.001706	28.0825	0.100436	0.002046	49.0928	26.0688	-6.750954	-0.197764	0.591453	-0.613440	-0.614802	-0.176857	49.0928	-0.610738	-1.170236E+8	1.511297E-9	NaN
693	1.000000	0.602828	7.37183e+06	-42439.1	1005.82	-29782.6	0.000000	0.000000	6.602867	-0.192564	NaN	0.000000	0.001546	0.001725	28.0828	0.015068	0.001986	7.586402	-137.06	176.933	-0.258422	0.601485	-0.603426	-0.604769	-0.192564	7.586402	-0.584389	-5.073263E+7	3.795660E-9	NaN
693	1.000000	0.612853	7.37183e+06	-42439.1	1005.82	-29782.6	0.000000	0.000000	6.612892	-0.193401	NaN	0.000000	0.001581	0.001694	28.0824	0.066864	0.002021	33.0876	79.0171	-5.020322	-0.292417	0.611459	-0.593401	-0.594795	-0.193401	33.0876	-0.589018	-5.876538E+7	3.291073E-9	NaN
693	1.000000	0.622838	7.37183e+06	-42439.1	1005.82	-29782.6	0.000000	0.000000	6.622879	-0.145626	NaN	0.000000	0.001606	0.001717	28.0825	0.025351	0.002022	12.5378	67.9457	177.698	-0.141699	0.621483	-0.583417	-0.584771	-0.145626	12.5378	-0.574705	-3.729323E+7	3.904881E-9	NaN
693	1.000000	0.632812	7.37183e+06	-42439.1	1005.82	-29782.6	0.000000	0.000000	6.632850	-0.221953	NaN	0.000000	0.001614	0.001746	28.0811	0.156655	0.002157	72.6164	51.2571	-4.214548	-0.285040	0.631455	-0.573442	-0.574800	-0.221953	72.6164	-0.571150	-3.330595E+7	6.664058E-9	NaN
693	1.000000	0.642812	7.37183e+06	-42439.1	1005.82	-29782.6	0.000000	0.000000	6.642850	-0.220089	NaN	0.000000	0.001602	0.001683	28.0815	0.058757	0.001989	29.5389	50.8495	178.179	-0.134525	0.641535	-0.563442	-0.564719	-0.220089	29.5389	-0.557854	-2.181181E+7	1.009034E-8	NaN
693	1.000000	0.652908	7.37183e+06	-42439.1	1005.82	-29782.6	0.000000	0.000000	6.652945	-0.230212	NaN	0.000000	0.001600	0.001733	28.0812	0.079361	0.002004	39.5971	-37.0884	-8.420897	-0.197473	0.651527	-0.553346	-0.554727	-0.230212	39.5971	-0.548986	-1.644033E+7	1.400287E-8	NaN
693	1.000000	0.662848	7.37183e+06	-42439.1	1005.82	-29782.6	0.000000	0.000000	6.662889	-0.142061	NaN	0.000000	0.001634	0.001726	28.0813	0.005840	0.001949	2.996311	-4.564103	176.747	-0.152216	0.661509	-0.543406	-0.544745	-0.142061	2.996311	-0.507847	-4.40989e+06	3.221422E-8	NaN
693	1.000000	0.672871	7.37183e+06	-42439.1	1005.82	-29782.6	0.000000	0.000000	6.672910	-0.195561	NaN	0.000000	0.001579	0.001743	28.0813	0.130192	0.001888	68.9569	33.6804	-4.251587	-0.173474	0.671464	-0.533384	-0.534791	-0.195561	68.9569	-0.531257	-9.33308e+06	2.095354E-8	NaN
693	1.000000	0.682867	7.37183e+06	-42439.1	1005.82	-29782.6	0.000000	0.000000	6.682904	-0.250398	NaN	0.000000	0.001597	0.001691	28.0815	0.090706	0.002047	44.322	-83.5382	175.08	-0.285248	0.681579	-0.523387	-0.524676	-0.250398	44.322	-0.519150	-6.33533e+06	3.952414E-8	NaN
693	1.000000	0.692850	7.37183e+06	-42439.1	1005.82	-29782.6	0.000000	0.000000	6.692891	-0.157488	NaN	0.000000	0.001624	0.001734	28.0812	0.057965	0.002002	28.9474	11.01	-6.702043	-0.222981	0.691501	-0.513404	-0.514753	-0.157488	28.9474	-0.509324	-4.62374e+06	3.406081E-8	NaN
693	1.000000	0.702838	7.37183e+06	-42439.1	1005.82	-29782.6	0.000000	0.000000	6.702878	-0.171855	NaN	0.000000	0.001623	0.001756	28.0812	0.052888	0.001956	27.0364	-149.393	177.292	-0.277989	0.701595	-0.503416	-0.504659	-0.171855	27.0364	-0.498649	-3.28221e+06	5.235960E-8	NaN
693	1.000000	0.712896	7.37183e+06	-42439.1	1005.82	-29782.6	0.000000	0.000000	6.712932	-0.276847	NaN	0.000000	0.001604	0.001749	28.0814	0.048497	0.002074	23.3801	-25.5986	-2.728348	-0.250333	0.711472	-0.493358	-0.494782	-0.276847	23.3801	-0.484477	-2.08055e+06	1.330645E-7	NaN
693	1.000000	0.722862	7.37183e+06	-42439.1	1005.82	-29782.6	0.000000	0.000000	6.722897	-0.286455	NaN	0.000000	0.001606	0.001745	28.0813	0.058503	0.001981	29.5289	50.8006	172.097	-0.201981	0.721602	-0.483392	-0.484652	-0.286455	29.5289	-0.476117	-1.58908e+06	1.802645E-7	NaN
693	1.000000	0.732894	7.37183e+06	-42439.1	1005.82	-29782.6	0.000000	0.000000	6.732933	-0.193522	NaN	0.000000	0.001618	0.001722	28.0813	0.070822	0.001972	35.9148	-122.065	-2.810880	-0.194034	0.731533	-0.473360	-0.474721	-0.193522	35.9148	-0.469319	-1.276e+06	1.516634E-7	NaN
693	1.000000	0.742881	7.37183e+06	-42439.1	1005.82	-29782.6	0.000000	0.000000	6.742917	-0.248695	NaN	0.000000	0.001673	0.001741	28.0813	0.092533	0.002127	43.5031	-39.7075	177.735	-0.232431	0.741579	-0.463374	-0.464675	-0.248695	43.5031	-0.459086	-916585	2.713276E-7	NaN
693	1.000000	0.752890	7.37183e+06	-42439.1	1005.82	-29782.6	0.000000	0.000000	6.752930	-0.162094	NaN	0.000000	0.001657	0.001731	28.0814	0.100264	0.001845	54.3426	121.284	-3.114499	-0.170519	0.751530	-0.453365	-0.454724	-0.162094	54.3426	-0.451128	-708303	2.288481E-7	NaN
693	1.000000	0.762884	7.37183e+06	-42439.1	1005.82	-29782.6	0.000000	0.000000	6.762922	-0.228289	NaN	0.000000	0.001675	0.001724	28.0813	0.054846	0.002032	26.9914	44.3459	177.307	-0.238815	0.761567	-0.443370	-0.444687	-0.228289	26.9914	-0.437026	-448107	5.094518E-7	NaN
693	1.000000	0.772910	7.37183e+06	-42439.1	1005.82	-29782.6	0.000000	0.000000	6.772947	-0.244446	NaN	0.000000	0.001655	0.001728	28.0824	0.140538	0.002066	68.0279	-24.8134	-1.275998	-0.238295	0.771585	-0.433344	-0.434669	-0.244446	68.0279	-0.430649	-364120	6.713321E-7	NaN
693	1.000000	0.782900	7.37183e+06	-42439.1	1005.82	-29782.6	0.000000	0.000000	6.782937	-0.243964	NaN	0.000000	0.001641	0.001723	28.0824	0.117578	0.001997	58.8736	144.067	170.699	-0.262557	0.781617	-0.423354	-0.424637	-0.243964	58.8736	-0.420246	-259363	9.406267E-7	NaN
693	1.000000	0.792926	7.37183e+06	-42439.1	1005.82	-29782.6	0.000000	0.000000	6.792965	-0.205858	NaN	0.000000	0.001680	0.001719	28.0825	0.165760	0.001883	88.0496	31.2526	-6.972013	-0.173655	0.791567	-0.413328	-0.414688	-0.205858	88.0496	-0.411575	-195339	1.053852E-6	NaN
693	1.000000	0.802903	7.37183e+06	-42439.1	1005.82	-29782.6	0.000000	0.000000	6.802942	-0.177762	NaN	0.000000	0.001672	0.001747	28.0824	0.113739	0.002036	55.8603	68.8594	178.046	-0.176741	0.801567	-0.403352	-0.404687	-0.177762	55.8603	-0.400965	-137960	1.288502E-6	NaN
693	1.000000	0.812910	7.37183e+06	-42439.1	1005.82	-29782.6	0.000000	0.000000	6.812950	-0.167859	NaN	0.000000	0.001701	0.001745	28.0826	0.087245	0.001905	45.7963	65.4684	-1.967995	-0.249280	0.811554	-0.393344	-0.394700	-0.167859	45.7963	-0.390595	-98101.7	1.711066E-6	NaN
693	1.000000	0.822937	7.37183e+06	-42439.1	1005.82	-29782.6	0.000000	0.000000	6.822977	-0.164693	NaN	0.000000	0.001699	0.001719	28.0825	0.063229	0.002000	31.6132	-78.117	174.334	-0.192195	0.821595	-0.383318	-0.384659	-0.164693	31.6132	-0.379410	-67830.8	2.427991E-6	NaN
693	1.000000	0.832940	7.37183e+06	-42439.1	1005.82	-29782.6	0.000000	0.000000	6.832977	-0.241677	NaN	0.000000	0.001694	0.001737	28.0826	0.069461	0.001943	35.7526	-169.059	-3.218025	-0.272232	0.831563	-0.373315	-0.374691	-0.241677	35.7526	-0.368245	-46864.4	5.156939E-6	NaN
693	1.000000	0.842935	7.37183e+06	-42439.1	1005.82	-29782.6	0.000000	0.000000	6.842976	-0.151189	NaN	0.000000	0.001685	0.001741	28.0825	0.073426	0.002088	35.1649	27.753	174.566	-0.196524	0.841660	-0.363319	-0.364594	-0.151189	35.1649	-0.360095	-35744.9	4.229671E-6	NaN
693	1.000000	0.852954	7.37183e+06	-42439.1	1005.82	-29782.6	0.000000	0.000000	6.852995	-0.150062	NaN	0.000000	0.001633	0.001724	28.0826	0.104889	0.001894	55.3825	21.7236	-4.347590	-0.246495	0.851578	-0.353300	-0.354676	-0.150062	55.3825	-0.351268	-26632	5.634647E-6	NaN
693	1.000000	0.862924	7.37183e+06	-42439.1	1005.82	-29782.6	0.000000	0.000000	6.862963	-0.188656	NaN	0.000000	0.001684	0.001717	28.0825	0.036869	0.002028	18.1772	-150.411	174.039	-0.209455	0.861635	-0.343330	-0.344619	-0.188656	18.1772	-0.335546	-15724.2	1.199785E-5	NaN
693	1.000000	0.872987	7.37183e+06	-42439.1	1005.82	-29782.6	0.000000	0.000000	6.873024	-0.246894	NaN	0.000000	0.001671	0.001740	28.0825	0.064720	0.001925	33.6285	-13.5435	-5.720451	-0.180721	0.871556	-0.333267	-0.334698	-0.246894	33.6285	-0.327760	-12095.8	2.041153E-5	NaN
693	1.000000	0.882978	7.37183e+06	-42439.1	1005.82	-29782.6	0.000000	0.000000	6.883020	-0.130427	NaN	0.000000	0.001580	0.001723	28.0824	0.093657	0.001903	49.2218	36.1409	171.56	-0.145567	0.881637	-0.323276	-0.324617	-0.130427	49.2218	-0.321289	-9718.53	1.342045E-5	NaN
693	1.000000	0.892953	7.37183e+06	-42439.1	1005.82	-29782.6	0.000000	0.000000	6.892994	-0.153848	NaN	0.000000	0.001562	0.001725	28.0827	0.125172	0.002007	62.3813	-32.7295	-6.557349	-0.151040	0.891642	-0.313301	-0.314612	-0.153848	62.3813	-0.311451	-6958.6	2.210901E-5	NaN
693	1.000000	0.902932	7.37183e+06	-42439.1	1005.82	-29782.6	0.000000	0.000000	6.902971	-0.190874	NaN	0.000000	0.001587	0.001695	28.0823	0.029338	0.001992	14.7312	-24.8478	178.37	-0.225163	0.901608	-0.303322	-0.304646	-0.190874	14.7312	-0.293604	-3777.76	5.052577E-5	NaN
693	1.000000	0.912980	7.37183e+06	-42439.1	1005.82	-29782.6	0.000000	0.000000	6.913018	-0.209584	NaN	0.000000	0.001585	0.001751	28.0815	0.060309	0.002104	28.6588	23.431	-5.344852	-0.177695	0.911601	-0.293275	-0.294653	-0.209584	28.6588	-0.287790	-3091.47	6.779413E-5	NaN
693	1.000000	0.922956	7.37183e+06	-42439.1	1005.82	-29782.6	0.000000	0.000000	6.922994	-0.208641	NaN	0.000000	0.001572	0.001709	28.0814	0.106096	0.002065	51.3704	-14.3376	175.969	-0.230188	0.921625	-0.283298	-0.284629	-0.208641	51.3704	-0.280252	-2381.09	8.762408E-5	NaN
693	1.000000	0.932981	7.37183e+06	-42439.1	1005.82	-29782.6	0.000000	0.000000	6.933018	-0.227865	NaN	0.000000	0.001597	0.001752	28.0812	0.052363	0.002070	25.2988	65.8404	-4.348628	-0.141249	0.931644	-0.273274	-0.274610	-0.227865	25.2988	-0.266518	-1474.17	0.000155	NaN
693	1.000000	0.942985	7.37183e+06	-42439.1	1005.82	-29782.6	0.000000	0.000000	6.943026	-0.155781	NaN	0.000000	0.001586	0.001763	28.0813	0.008619	0.002019	4.269643	76.7961	176.028	-0.140887	0.941679	-0.263269	-0.264575	-0.155781	4.269643	-0.235905	-495.966	0.000314	NaN
693	1.000000	0.952982	7.37183e+06	-42439.1	1005.82	-29782.6	0.000000	0.000000	6.953023	-0.157435	NaN	0.000000	0.001617	0.001743	28.0813	0.093587	0.001999	46.8165	22.921	-5.694131	-0.224157	0.951580	-0.253272	-0.254674	-0.157435	46.8165	-0.250750	-844.415	0.000186	NaN
693	1.000000	0.962988	7.37183e+06	-42439.1	1005.82	-29782.6	0.000000	0.000000	6.963031	-0.104220	NaN	0.000000	0.001590	0.001731	28.0813	0.127071	0.001842	68.992	6.265976	174.841	-0.110868	0.961689	-0.243266	-0.244565	-0.104220	68.992	-0.242133	-620.638	0.000168	NaN
693	1.000000	0.972994	7.37183e+06	-42439.1	1005.82	-29782.6	0.000000	0.000000	6.973036	-0.116025	NaN	0.000000	0.001640	0.001728	28.0814	0.061216	0.002097	29.1974	53.1002	-1.723323	-0.052291	0.971646	-0.233261	-0.234608	-0.116025	29.1974	-0.230280	-404.523	0.000287	NaN
693	1.000000	0.982999	7.37183e+06	-42439.1	1005.82	-29782.6	0.000000	0.000000	6.983040	-0.133023	NaN	0.000000	0.001633	0.001753	28.0814	0.101767	0.001962	51.8576	25.3549	178.296	-0.087911	0.981626	-0.223256	-0.224628	-0.133023	51.8576	-0.221332	-291.703	0.000456	NaN
693	1.000000	0.992978	7.37183e+06	-42439.1	1005.82	-29782.6	0.000000	0.000000	6.993021	-0.116852	NaN	0.000000	0.001637	0.001752	28.0813	0.119116	0.002025	58.8229	41.9119	-5.379984	-0.152857	0.991614	-0.213276	-0.214640	-0.116852	58.8229	-0.211786	-204.977	0.000570	NaN
693	1.000000	1.003007	7.37183e+06	-42439.1	1005.82	-29782.6	0.000000	0.000000	7.003049	-0.116477	NaN	0.000000	0.001614	0.001766	28.0813	0.067585	0.001832	36.8868	138.345	173.529	-0.078225	1.001685	-0.203247	-0.204570	-0.116477	36.8868	-0.200879	-136.188	0.000855	NaN
693	1.000000	1.013009	7.37183e+06	-42439.1	1005.82	-29782.6	0.000000	0.000000	7.013051	-0.109604	NaN	0.000000	0.001641	0.001769	28.0814	0.092087	0.002056	44.7938	-23.0539	-5.489719	-0.197446	1.011630	-0.193246	-0.194624	-0.109604	44.7938	-0.191410	-94.9643	0.001154	NaN
693	1.000000	1.023011	7.37183e+06	-42439.1	1005.82	-29782.6	0.000000	0.000000	7.023054	-0.103738	NaN	0.000000	0.001612	0.001765	28.081	0.063474	0.001981	32.0398	-65.4597	176.169	-0.203304	1.021673	-0.183243	-0.184582	-0.103738	32.0398	-0.180815	-62.9964	0.001647	NaN
693	1.000000	1.033007	7.37183e+06	-42439.1	1005.82	-29782.6	0.000000	0.000000	7.033044	-0.246220	NaN	0.000000	0.001608	0.001757	28.0812	0.134978	0.002096	64.3931	-33.4899	-7.827740	-0.236693	1.031616	-0.173247	-0.174638	-0.246220	64.3931	-0.170380	-41.7063	0.005904	NaN
693	1.000000	1.043001	7.37183e+06	-42439.1	1005.82	-29782.6	0.000000	0.000000	7.043041	-0.176304	NaN	0.000000	0.001678	0.001728	28.0829	0.052256	0.002004	26.0816	-54.2927	174.532	-0.168975	1.041654	-0.163253	-0.164600	-0.176304	26.0816	-0.158183	-25.4468	0.006928	NaN
693	1.000000	1.053003	7.37183e+06	-42439.1	1005.82	-29782.6	0.000000	0.000000	7.053042	-0.189658	NaN	0.000000	0.001698	0.001688	28.0827	0.114363	0.001989	57.5066	5.429105	-4.854573	-0.197443	1.051650	-0.153251	-0.154604	-0.189658	57.5066	-0.150778	-18.7142	0.010134	NaN
693	1.000000	1.063045	7.37183e+06	-42439.1	1005.82	-29782.6	0.000000	0.000000	7.063086	-0.146921	NaN	0.000000	0.001693	0.001687	28.0822	0.117848	0.002055	57.3473	0.177550	178.427	-0.105990	1.061762	-0.143210	-0.144492	-0.146921	57.3473	-0.141288	-12.5059	0.011748	NaN
693	1.000000	1.072997	7.37183e+06	-42439.1	1005.82	-29782.6	0.000000	0.000000	7.073040	-0.102444	NaN	0.000000	0.001674	0.001709	28.0821	0.060883	0.001891	32.1911	144.613	-3.483724	-0.133076	1.071644	-0.133257	-0.134610	-0.102444	32.1911	-0.130871	-7.923133	0.012930	NaN
693	1.000000	1.083014	7.37183e+06	-42439.1	1005.82	-29782.6	0.000000	0.000000	7.083055	-0.160641	NaN	0.000000	0.001635	0.001694	28.0829	0.052763	0.001897	27.8119	24.4896	176.496	-0.201212	1.081672	-0.123240	-0.124582	-0.160641	27.8119	-0.118908	-4.591912	0.034983	NaN
693	1.000000	1.093031	7.37183e+06	-42439.1	1005.82	-29782.6	0.000000	0.000000	7.093070	-0.203095	NaN	0.000000	0.001693	0.001749	28.0826	0.078380	0.002003	39.1358	-28.1991	-4.620337	-0.169491	1.091668	-0.113223	-0.114586	-0.203095	39.1358	-0.109331	-2.908998	0.069816	NaN
693	1.000000	1.103018	7.37183e+06	-42439.1	1005.82	-29782.6	0.000000	0.000000	7.103059	-0.133034	NaN	0.000000	0.001678	0.001741	28.0824	0.095974	0.001989	48.2617	-38.7439	177.349	-0.123270	1.101715	-0.103236	-0.104539	-0.133034	48.2617	-0.101169	-1.939122	0.068605	NaN
693	1.000000	1.113034	7.37183e+06	-42439.1	1005.82	-29782.6	0.000000	0.000000	7.113074	-0.184031	NaN	0.000000	0.001707	0.001725	28.0825	0.068209	0.002068	32.9763	160.93	-2.664986	-0.228983	1.111673	-0.093220	-0.094582	-0.184031	32.9763	-0.089034	-1.025870	0.179390	NaN
693	1.000000	1.123041	7.37183e+06	-42439.1	1005.82	-29782.6	0.000000	0.000000	7.123082	-0.153436	NaN	0.000000	0.001681	0.001716	28.0825	0.075164	0.001963	38.2943	37.5061	177.537	-0.250210	1.121711	-0.083213	-0.084543	-0.153436	38.2943	-0.080208	-0.626449	0.244930	NaN
693	1.000000	1.133032	7.37183e+06	-42439.1	1005.82	-29782.6	0.000000	0.000000	7.133069	-0.250513	NaN	0.000000	0.001705	0.001741	28.0826	0.096262	0.001970	48.8541	108.655	-3.775174	-0.123401	1.131692	-0.073222	-0.074562	-0.250513	48.8541	-0.069376	-0.328209	0.763271	NaN
693	1.000000	1.143069	7.37183e+06	-42439.1	1005.82	-29782.6	0.000000	0.000000	7.143111	-0.131386	NaN	0.000000	0.001626	0.001737	28.0825	0.093723	0.001955	47.9338	27.478	178.922	-0.168261	1.141761	-0.063185	-0.064493	-0.131386	47.9338	-0.061129	-0.193984	0.677304	NaN
693	1.000000	1.153065	7.37183e+06	-42439.1	1005.82	-29782.6	0.000000	0.000000	7.153139	0.646949	NaN	0.000000	0.001592	0.001723	28.0827	0.911757	0.001918	475.387	3.750588	-4.014956	0.226186	1.151710	-0.053189	-0.054544	0.646949	475.387	-0.054210	-0.122022	-5.301907	NaN
693	1.000000	1.163065	7.37183e+06	-42439.1	1005.82	-29782.6	0.000000	0.000000	7.163338	5.507163	NaN	0.000000	0.001614	0.001732	28.0828	1.978488	0.002033	973.082	8.453928	173.068	4.864530	1.161737	-0.043189	-0.044517	5.507163	973.082	-0.047434	-0.076263	-72.2125	NaN
693	1.000000	1.173057	7.37183e+06	-42439.1	1005.82	-29782.6	0.000000	0.000000	7.173103	-0.019721	NaN	0.000000	0.001599	0.001731	28.0827	0.261113	0.002016	129.491	50.2391	-4.212228	0.012360	1.171721	-0.033198	-0.034533	-0.019721	129.491	-0.033083	-0.028154	0.700461	NaN
693	1.000000	1.183031	7.37183e+06	-42439.1	1005.82	-29782.6	0.000000	0.000000	7.183157	1.924176	NaN	0.000000	0.001636	0.001711	28.0814	1.576271	0.001831	860.89	9.710359	175.966	1.308520	1.181732	-0.023223	-0.024523	1.924176	860.89	-0.024899	-0.016768	-114.75	NaN
693	1.000000	1.193047	7.37183e+06	-42439.1	1005.82	-29782.6	0.000000	0.000000	7.193335	5.881420	NaN	0.000000	0.001606	0.001707	28.0813	2.312000	0.001999	1156.58	14.9823	-3.466477	5.659459	1.191701	-0.013208	-0.014553	5.881420	1156.58	-0.017021	-0.010524	-558.848	NaN
693	1.000000	1.203048	7.37183e+06	-42439.1	1005.82	-29782.6	0.000000	0.000000	7.203206	2.720272	NaN	0.000000	0.001663	0.001681	28.0814	1.821290	0.001920	948.705	18.8386	173.969	2.765546	1.201755	-0.003207	-0.004499	2.720272	948.705	-0.005357	-0.003640	-747.352	NaN
693	2.000000	1.212177	7.37183e+06	-42439.1	1005.82	-29782.6	0.000000	0.000000	7.212571	8.463227	NaN	0.000000	0.001706	0.001730	28.0814	7.116490	0.001825	3899.48	13.3694	-9.847415	8.373727	1.211621	0.005922	0.005367	8.463227	3899.48	0.004295	0.003499	2418.93	60231.4
693	2.000000	1.214705	7.37183e+06	-42439.1	1005.82	-29782.6	0.000000	0.000000	7.215215	11.2696	NaN	0.000000	0.001732	0.001702	28.0813	9.715486	0.001686	5764	10.3002	166.301	11.0474	1.214412	0.008451	0.008158	11.2696	5764	0.006984	0.006018	1872.53	67882.6
693	2.000000	1.217151	7.37183e+06	-42439.1	1005.82	-29782.6	0.000000	0.000000	7.217848	15.8112	NaN	0.000000	0.001730	0.001716	28.0813	12.9625	0.001826	7097.24	6.222697	-10.9735	14.9018	1.216815	0.010897	0.010561	15.8112	7097.24	0.009226	0.008334	1897.29	71030.7
693	2.000000	1.219672	7.37183e+06	-42439.1	1005.82	-29782.6	0.000000	0.000000	7.220580	20.9422	NaN	0.000000	0.001683	0.001745	28.0815	16.5678	0.001773	9346.09	7.789011	164.966	21.0144	1.219376	0.013418	0.013122	20.9422	9346.09	0.011738	0.011177	1873.62	80766.8
693	2.000000	1.222163	7.37183e+06	-42439.1	1005.82	-29782.6	0.000000	0.000000	7.223075	21.0625	NaN	0.000000	0.001713	0.001724	28.0813	17.696	0.001639	10794.7	5.546995	-13.9449	19.2472	1.221805	0.015908	0.015551	21.0625	10794.7	0.014445	0.014552	1447.35	81755.5
693	2.000000	1.224605	7.37183e+06	-42439.1	1005.82	-29782.6	0.000000	0.000000	7.225781	27.4689	NaN	0.000000	0.001688	0.001709	28.0815	20.6499	0.001790	11537.1	7.153211	163.304	25.1661	1.224358	0.018351	0.018104	27.4689	11537.1	0.016565	0.017429	1576.03	79842.3
693	2.000000	1.227145	7.37183e+06	-42439.1	1005.82	-29782.6	0.000000	0.000000	7.228544	32.8779	NaN	0.000000	0.001724	0.001710	28.0815	23.7471	0.001687	14074.9	5.154658	-16.2627	31.4025	1.226792	0.020891	0.020538	32.8779	14074.9	0.019139	0.021208	1550.28	88301.9
693	2.000000	1.229559	7.37183e+06	-42439.1	1005.82	-29782.6	0.000000	0.000000	7.231304	41.301	NaN	0.000000	0.001689	0.001697	28.0816	26.7793	0.001831	14625.6	4.230050	164.899	38.2412	1.229334	0.023305	0.023080	41.301	14625.6	0.021187	0.024442	1689.76	85471.1
693	2.000000	1.232169	7.37183e+06	-42439.1	1005.82	-29782.6	0.000000	0.000000	7.234214	48.6073	NaN	0.000000	0.001673	0.001734	28.0816	29.499	0.001873	15753	9.326960	-19.7274	49.3461	1.231776	0.025915	0.025522	48.6073	15753	0.023601	0.028519	1704.36	85224.9
693	2.000000	1.234608	7.37183e+06	-42439.1	1005.82	-29782.6	0.000000	0.000000	7.236918	55.0618	NaN	0.000000	0.001691	0.001722	28.0814	31.4807	0.001718	18321.1	5.805846	160.46	54.2438	1.234292	0.028354	0.028038	55.0618	18321.1	0.026100	0.033047	1666.14	92078
693	2.000000	1.237076	7.37183e+06	-42439.1	1005.82	-29782.6	0.000000	0.000000	7.239753	63.9762	NaN	0.000000	0.001676	0.001727	28.0823	33.4304	0.001800	18569.6	3.403536	-16.728	60.7653	1.236669	0.030822	0.030415	63.9762	18569.6	0.028238	0.037171	1721.14	87998.4
693	2.000000	1.239613	7.37183e+06	-42439.1	1005.82	-29782.6	0.000000	0.000000	7.242485	68.7351	NaN	0.000000	0.001700	0.001756	28.083	37.0353	0.001816	20388.6	5.948944	160.091	68.8251	1.239283	0.033359	0.033029	68.7351	20388.6	0.030830	0.042483	1617.96	90376.4
693	2.000000	1.242116	7.37183e+06	-42439.1	1005.82	-29782.6	0.000000	0.000000	7.245518	81.6402	NaN	0.000000	0.001688	0.001718	28.0829	39.2263	0.001719	22823.8	7.122053	-22.3351	79.6545	1.241760	0.035861	0.035506	81.6402	22823.8	0.033179	0.047590	1715.48	95587.8
693	2.000000	1.244617	7.37183e+06	-42439.1	1005.82	-29782.6	0.000000	0.000000	7.248310	88.7212	NaN	0.000000	0.001676	0.001702	28.0828	40.256	0.001751	22989.1	1.992931	163.154	89.28	1.244269	0.038363	0.038015	88.7212	22989.1	0.035468	0.052842	1678.98	91370.2
693	2.000000	1.247061	7.37183e+06	-42439.1	1005.82	-29782.6	0.000000	0.000000	7.251174	98.9464	NaN	0.000000	0.001712	0.001720	28.0832	43.4037	0.001689	25692.4	2.704627	-19.247	96.7571	1.246781	0.040806	0.040527	98.9464	25692.4	0.037918	0.058759	1683.95	96837
693	2.000000	1.249586	7.37183e+06	-42439.1	1005.82	-29782.6	0.000000	0.000000	7.253948	104.99	NaN	0.000000	0.001692	0.001725	28.0827	47.4967	0.001848	25697.2	4.629998	159.059	105.456	1.249305	0.043332	0.043051	104.99	25697.2	0.040268	0.064722	1622.18	92285.6
693	2.000000	1.252090	7.37183e+06	-42439.1	1005.82	-29782.6	0.000000	0.000000	7.257331	126.389	NaN	0.000000	0.001692	0.001740	28.0829	47.9898	0.001664	28845.5	3.219777	-20.8846	123.286	1.251744	0.045835	0.045490	126.389	28845.5	0.042549	0.070782	1785.59	99057.7
693	2.000000	1.254554	7.37183e+06	-42439.1	1005.82	-29782.6	0.000000	0.000000	7.260140	134.768	NaN	0.000000	0.001682	0.001712	28.0828	50.0156	0.001678	29798.3	3.544454	158.872	131.936	1.254232	0.048299	0.047977	134.768	29798.3	0.044907	0.077325	1742.88	97905.2
693	2.000000	1.257033	7.37183e+06	-42439.1	1005.82	-29782.6	0.000000	0.000000	7.263250	150.138	NaN	0.000000	0.001670	0.001743	28.0835	53.0116	0.001770	29957.1	7.422614	-24.94	145.855	1.256618	0.050779	0.050364	150.138	29957.1	0.047020	0.083424	1799.69	94760.3
693	2.000000	1.259557	7.37183e+06	-42439.1	1005.82	-29782.6	0.000000	0.000000	7.266290	162.689	NaN	0.000000	0.001662	0.001743	28.0827	55.9143	0.001640	34085.1	2.404595	158.387	161.221	1.259262	0.053302	0.053008	162.689	34085.1	0.049723	0.091558	1776.91	102918
693	2.000000	1.262005	7.37183e+06	-42439.1	1005.82	-29782.6	0.000000	0.000000	7.269170	173.19	NaN	0.000000	0.001685	0.001758	28.083	58.1102	0.001734	33514.5	2.718580	-21.6581	167.151	1.261766	0.055751	0.055512	173.19	33514.5	0.051875	0.098297	1761.9	97664.3
693	2.000000	1.264525	7.37183e+06	-42439.1	1005.82	-29782.6	0.000000	0.000000	7.272461	191.93	NaN	0.000000	0.001711	0.001719	28.0825	60.3213	0.001723	35014	1.604253	159.312	188.606	1.264232	0.058271	0.057978	191.93	35014	0.054160	0.105703	1815.74	98394.5
693	2.000000	1.267114	7.37183e+06	-42439.1	1005.82	-29782.6	0.000000	0.000000	7.275463	201.987	NaN	0.000000	0.001705	0.001742	28.083	63.6855	0.001771	35961.5	4.879006	-23.9625	202.888	1.266794	0.060860	0.060540	201.987	35961.5	0.056647	0.114061	1770.86	97284
693	2.000000	1.269607	7.37183e+06	-42439.1	1005.82	-29782.6	0.000000	0.000000	7.278436	213.671	NaN	0.000000	0.001702	0.001743	28.0825	66.8114	0.001858	35960.1	2.547746	158.461	215.145	1.269378	0.063353	0.063124	213.671	35960.1	0.058897	0.121881	1753.1	94107.8
693	2.000000	1.272069	7.37183e+06	-42439.1	1005.82	-29782.6	0.000000	0.000000	7.281604	230.864	NaN	0.000000	0.001724	0.001703	28.0815	67.4113	0.001727	39040.4	2.598435	-21.9621	229.74	1.271791	0.065815	0.065537	230.864	39040.4	0.061380	0.130802	1764.99	98623.5
693	2.000000	1.274526	7.37183e+06	-42439.1	1005.82	-29782.6	0.000000	0.000000	7.285065	255.273	NaN	0.000000	0.001673	0.001741	28.0813	69.3659	0.001743	39799	2.464936	158.286	253.673	1.274169	0.068272	0.067915	255.273	39799	0.063461	0.138513	1842.96	97701.5
693	2.000000	1.276965	7.37183e+06	-42439.1	1005.82	-29782.6	0.000000	0.000000	7.288128	270.456	NaN	0.000000	0.001742	0.001714	28.0816	73.78	0.001741	42382.8	6.328391	-26.1985	264.931	1.276580	0.070711	0.070326	270.456	42382.8	0.065925	0.147907	1828.56	100686
693	2.000000	1.279525	7.37183e+06	-42439.1	1005.82	-29782.6	0.000000	0.000000	7.291070	279.763	NaN	0.000000	0.001722	0.001702	28.0812	76.1774	0.001740	43790.8	1.517016	157.515	277.1	1.279375	0.073270	0.073120	279.763	43790.8	0.068479	0.157956	1771.15	100667
693	2.000000	1.282032	7.37183e+06	-42439.1	1005.82	-29782.6	0.000000	0.000000	7.294617	305.055	NaN	0.000000	0.001692	0.001713	28.0815	78.1274	0.001820	42928.1	5.130966	-24.8192	301.705	1.281656	0.075778	0.075402	305.055	42928.1	0.070448	0.165917	1838.6	96287.4
693	2.000000	1.284557	7.37183e+06	-42439.1	1005.82	-29782.6	0.000000	0.000000	7.297455	312.692	NaN	0.000000	0.001695	0.001676	28.0813	80.2341	0.001682	47689.2	3.285512	155.413	310.726	1.284405	0.078302	0.078151	312.692	47689.2	0.073385	0.178128	1755.43	103235
693	2.000000	1.287030	7.37184e+06	-42439.1	1005.82	-29782.6	0.000000	0.000000	7.301132	341.975	NaN	0.000000	0.001700	0.001743	28.0814	83.8906	0.001902	44115.7	5.647124	-25.9298	339.083	1.286538	0.080776	0.080284	341.975	44115.7	0.074962	0.184856	1849.95	93745.2
693	2.000000	1.289524	7.37184e+06	-42439.1	1005.82	-29782.6	0.000000	0.000000	7.304336	359.23	NaN	0.000000	0.001749	0.001723	28.081	84.8041	0.001828	46389.6	1.981015	157.954	356.997	1.289119	0.083270	0.082865	359.23	46389.6	0.077462	0.195762	1835.04	95792.2
693	2.000000	1.291941	7.37184e+06	-42439.1	1005.82	-29782.6	0.000000	0.000000	7.307383	374.581	NaN	0.000000	0.001746	0.001792	28.0813	86.886	0.001831	47443.3	3.737151	-24.2632	367.674	1.291702	0.085687	0.085448	374.581	47443.3	0.079765	0.206064	1817.79	95487.8
693	2.000000	1.294529	7.37184e+06	-42439.1	1005.82	-29782.6	0.000000	0.000000	7.310760	393.788	NaN	0.000000	0.001697	0.001816	28.0812	88.4253	0.001765	50087.9	0.130413	158.487	391.594	1.294258	0.088275	0.088004	393.788	50087.9	0.082378	0.218053	1805.93	97999.7
693	2.000000	1.296944	7.37184e+06	-42439.1	1005.82	-29782.6	0.000000	0.000000	7.314103	416.353	NaN	0.000000	0.001679	0.001785	28.0814	92.8082	0.001780	52134	4.449031	-25.9743	411.58	1.296647	0.090690	0.090392	416.353	52134	0.084700	0.228975	1818.33	99540.6
693	2.000000	1.299639	7.37184e+06	-42439.1	1005.82	-29782.6	0.000000	0.000000	7.317655	437.207	NaN	0.000000	0.001691	0.001777	28.0811	96.5154	0.001868	51668.1	5.218867	153.147	441.675	1.299211	0.093385	0.092957	437.207	51668.1	0.087039	0.240222	1820.01	96313.8
693	2.000000	1.302156	7.37184e+06	-42439.1	1005.82	-29782.6	0.000000	0.000000	7.320615	447.977	NaN	0.000000	0.001676	0.001760	28.0815	97.2685	0.001795	54187	3.692808	-25.6215	451.623	1.301886	0.095902	0.095631	447.977	54187	0.089701	0.253337	1768.31	98360.2
693	2.000000	1.304410	7.37184e+06	-42439.1	1005.82	-29782.6	0.000000	0.000000	7.324240	481.319	NaN	0.000000	0.001715	0.001761	28.0814	100.267	0.001939	51724	9.221407	148.93	473.807	1.304190	0.098156	0.097936	481.319	51724	0.091177	0.260748	1845.92	92545.4
693	2.000000	1.306921	7.37184e+06	-42439.1	1005.82	-29782.6	0.000000	0.000000	7.327622	502.535	NaN	0.000000	0.001720	0.001786	28.0825	101.601	0.001817	55922	6.004536	-28.1425	496.565	1.306713	0.100667	0.100459	502.535	55922	0.093927	0.274818	1828.61	97461.5
693	2.000000	1.309508	7.37184e+06	-42439.1	1005.82	-29782.6	0.000000	0.000000	7.331101	524.246	NaN	0.000000	0.001692	0.001740	28.0825	104.141	0.001841	56565.3	3.899478	153.882	522.434	1.309206	0.103254	0.102952	524.246	56565.3	0.096303	0.287255	1825.02	96424.9
693	2.000000	1.310462	7.37184e+06	-42439.1	1005.82	-29782.6	0.000000	0.000000	7.332687	539.635	NaN	0.000000	0.001727	0.001766	28.0826	103.984	0.001771	58726.6	2.848971	154.906	534.689	1.310038	0.104207	0.103783	539.635	58726.6	0.097316	0.292635	1844.05	99184.7