File: remote_trans/data/nanoindenter/0828-1/data/Data_2025-08-06,11h17m57s/2025-07-22_16-23-58_1_506.txt
2025-07-22, 16:23:58, 1
Index	Phase	Displacement	Time	Pos X	Pos Y	Pos Z	Rot A	Rot B	Piezo Z	Force A	Force B	Gripper	Voltage A	Voltage B	Temperature	Amplitude force	Amplitude pos	Stiffness	Phase shift	Phase excitation	Force A raw	Displacement raw	HMax	HMax raw	Real Force	Real Stiffness	Contact Depth	Area	Hardness	Reduced Mod.
[#]	[#]	[um]	[s]	[um]	[um]	[um]	[m°]	[m°]	[um]	[uN]	[uN]	[V]	[V]	[V]	[°C]	[uN]	[um]	[N/m]	[°]	[°]	[uN]	[um]	[um]	[um]	[uN]	[N/m]	[um]	[um^2]	[MPa]	[MPa]
506	1.000000	0.002001	7.37e+06	-51789.1	1005.82	-29751.1	0.000000	0.000000	6.002783	-0.020076	NaN	0.000000	0.001644	0.001740	28.0813	0.072290	0.000956	75.6017	59.4834	-161.145	0.057199	0.000764	-1.183303	-1.184540	-0.020076	75.6017	-1.183104	-6.523086E+15	3.077739E-18	NaN
506	1.000000	0.012081	7.37e+06	-51789.1	1005.82	-29751.1	0.000000	0.000000	6.012866	0.032711	NaN	0.000000	0.001666	0.001714	28.081	0.112839	0.001251	90.2107	-176.918	19.2064	-0.039827	0.010642	-1.173222	-1.174662	0.032711	90.2107	-1.173494	-4.849601E+15	-6.745183E-18	NaN
506	1.000000	0.021951	7.37e+06	-51789.1	1005.82	-29751.1	0.000000	0.000000	6.022737	0.069081	NaN	0.000000	0.001629	0.001690	28.0809	0.071325	0.001687	42.2855	31.3173	-166.045	0.036805	0.020669	-1.163352	-1.164634	0.069081	42.2855	-1.164578	-3.683177E+15	-1.875579E-17	NaN
506	1.000000	0.031971	7.37e+06	-51789.1	1005.82	-29751.1	0.000000	0.000000	6.032754	-0.006769	NaN	0.000000	0.001611	0.001732	28.081	0.041252	0.001878	21.9609	-60.9229	10.5155	0.051037	0.030612	-1.153333	-1.154692	-0.006769	21.9609	-1.153101	-2.584632E+15	2.619089E-18	NaN
506	1.000000	0.041941	7.37e+06	-51789.1	1005.82	-29751.1	0.000000	0.000000	6.042725	0.021011	NaN	0.000000	0.001606	0.001736	28.0811	0.052799	0.001946	27.1258	-171.404	-166.621	0.048411	0.040662	-1.143363	-1.144641	0.021011	27.1258	-1.143944	-1.948143E+15	-1.078490E-17	NaN
506	1.000000	0.051939	7.37e+06	-51789.1	1005.82	-29751.1	0.000000	0.000000	6.052721	-0.030525	NaN	0.000000	0.001637	0.001738	28.0801	0.059134	0.002003	29.5288	-83.5834	10.4909	-0.049551	0.050574	-1.133364	-1.134730	-0.030525	29.5288	-1.132589	-1.371987E+15	2.224887E-17	NaN
506	1.000000	0.061955	7.37e+06	-51789.1	1005.82	-29751.1	0.000000	0.000000	6.062738	-0.023874	NaN	0.000000	0.001627	0.001696	28.0796	0.135593	0.002071	65.4585	32.3337	-166.046	0.021059	0.060635	-1.123348	-1.124669	-0.023874	65.4585	-1.123075	-1.022639E+15	2.334523E-17	NaN
506	1.000000	0.071966	7.37e+06	-51789.1	1005.82	-29751.1	0.000000	0.000000	6.072750	0.029636	NaN	0.000000	0.001563	0.001720	28.0811	0.032488	0.002062	15.756	39.339	15.492	0.022102	0.070517	-1.113338	-1.114787	0.029636	15.756	-1.114748	-7.906886E+14	-3.748074E-17	NaN
506	1.000000	0.081960	7.37e+06	-51789.1	1005.82	-29751.1	0.000000	0.000000	6.082743	-0.007621	NaN	0.000000	0.001553	0.001706	28.0799	0.049702	0.001983	25.0681	81.6241	-164.376	0.012996	0.080695	-1.103343	-1.104609	-0.007621	25.0681	-1.103115	-5.519345E+14	1.380860E-17	NaN
506	1.000000	0.091969	7.37e+06	-51789.1	1005.82	-29751.1	0.000000	0.000000	6.092754	0.052290	NaN	0.000000	0.001553	0.001735	28.0798	0.053016	0.001943	27.2832	79.2677	11.9548	0.024178	0.090679	-1.093335	-1.094625	0.052290	27.2832	-1.094772	-4.264671E+14	-1.226125E-16	NaN
506	1.000000	0.102001	7.37e+06	-51789.1	1005.82	-29751.1	0.000000	0.000000	6.102786	0.037906	NaN	0.000000	0.001532	0.001744	28.0798	0.042691	0.001999	21.3557	163.314	-164.613	0.001605	0.100692	-1.083303	-1.084612	0.037906	21.3557	-1.084634	-3.117117E+14	-1.216061E-16	NaN
506	1.000000	0.111984	7.37e+06	-51789.1	1005.82	-29751.1	0.000000	0.000000	6.112766	-0.021285	NaN	0.000000	0.001563	0.001734	28.0799	0.070246	0.002105	33.3755	-5.684669	16.0189	0.022832	0.110601	-1.073320	-1.074703	-0.021285	33.3755	-1.072842	-2.164547E+14	9.833291E-17	NaN
506	1.000000	0.121973	7.37e+06	-51789.1	1005.82	-29751.1	0.000000	0.000000	6.122755	-0.021415	NaN	0.000000	0.001552	0.001689	28.0797	0.047851	0.001975	24.2241	-82.8488	-166.62	0.071244	0.120674	-1.063330	-1.064629	-0.021415	24.2241	-1.062667	-1.580036E+14	1.355351E-16	NaN
506	1.000000	0.131969	7.37e+06	-51789.1	1005.82	-29751.1	0.000000	0.000000	6.132752	0.015159	NaN	0.000000	0.001544	0.001714	28.0796	0.116614	0.001929	60.4594	-5.754635	14.6496	0.035062	0.130698	-1.053335	-1.054605	0.015159	60.4594	-1.053523	-1.190615E+14	-1.273211E-16	NaN
506	1.000000	0.142003	7.37e+06	-51789.1	1005.82	-29751.1	0.000000	0.000000	6.142790	0.089464	NaN	0.000000	0.001599	0.001744	28.0796	0.050420	0.002120	23.7859	84.5269	-166.779	0.102476	0.140746	-1.043301	-1.044558	0.089464	23.7859	-1.046122	-9.468396E+13	-9.448707E-16	NaN
506	1.000000	0.152003	7.37e+06	-51789.1	1005.82	-29751.1	0.000000	0.000000	6.152786	-0.002898	NaN	0.000000	0.001537	0.001750	28.0799	0.126144	0.001975	63.8619	-101.143	12.6706	-0.054252	0.150670	-1.033301	-1.034634	-0.002898	63.8619	-1.033267	-6.359470E+13	4.557074E-17	NaN
506	1.000000	0.162023	7.37e+06	-51789.1	1005.82	-29751.1	0.000000	0.000000	6.162805	-0.008011	NaN	0.000000	0.001547	0.001730	28.0796	0.077804	0.001977	39.3558	72.4524	-165.736	0.053426	0.160701	-1.023281	-1.024603	-0.008011	39.3558	-1.023128	-4.645619E+13	1.724350E-16	NaN
506	1.000000	0.172023	7.37e+06	-51789.1	1005.82	-29751.1	0.000000	0.000000	6.172808	0.055025	NaN	0.000000	0.001556	0.001712	28.0796	0.015697	0.002015	7.789580	-145.467	14.7847	0.062054	0.170709	-1.013281	-1.014595	0.055025	7.789580	-1.018579	-4.034904E+13	-1.363733E-15	NaN
506	1.000000	0.182002	7.37e+06	-51789.1	1005.82	-29751.1	0.000000	0.000000	6.182784	-0.007765	NaN	0.000000	0.001563	0.001735	28.0797	0.020625	0.001832	11.2565	-126.519	-167.918	-0.041847	0.180755	-1.003302	-1.004548	-0.007765	11.2565	-1.002785	-2.473188E+13	3.139752E-16	NaN
506	1.000000	0.192001	7.37e+06	-51789.1	1005.82	-29751.1	0.000000	0.000000	6.192783	-0.017079	NaN	0.000000	0.001553	0.001743	28.0811	0.061694	0.002047	30.1428	-142.867	13.8691	-0.015294	0.190691	-0.993303	-0.994612	-0.017079	30.1428	-0.992878	-1.819169E+13	9.388184E-16	NaN
506	1.000000	0.201999	7.37e+06	-51789.1	1005.82	-29751.1	0.000000	0.000000	6.202784	0.048078	NaN	0.000000	0.001582	0.001721	28.0808	0.115093	0.002038	56.4627	134.71	-166.024	-0.016259	0.200712	-0.983305	-0.984592	0.048078	56.4627	-0.983943	-1.378896E+13	-3.486708E-15	NaN
506	1.000000	0.212035	7.37e+06	-51789.1	1005.82	-29751.1	0.000000	0.000000	6.212820	0.033612	NaN	0.000000	0.001564	0.001714	28.0807	0.021077	0.002085	10.1076	-101.003	15.5875	0.067360	0.210641	-0.973268	-0.974663	0.033612	10.1076	-0.975762	-1.069833E+13	-3.141809E-15	NaN
506	1.000000	0.222023	7.37e+06	-51789.1	1005.82	-29751.1	0.000000	0.000000	6.222806	-0.005924	NaN	0.000000	0.001550	0.001724	28.0807	0.089549	0.001997	44.8312	-73.225	-167.844	-0.002166	0.220695	-0.963281	-0.964609	-0.005924	44.8312	-0.963182	-7.240349E+12	8.181373E-16	NaN
506	1.000000	0.232044	7.37e+06	-51789.1	1005.82	-29751.1	0.000000	0.000000	6.232822	-0.125699	NaN	0.000000	0.001594	0.001714	28.0806	0.005198	0.001982	2.621715	-179.618	12.3606	-0.073280	0.230686	-0.953260	-0.954618	-0.125699	2.621715	-0.917301	-1.740844E+12	7.220596E-14	NaN
506	1.000000	0.242021	7.37e+06	-51789.1	1005.82	-29751.1	0.000000	0.000000	6.242802	-0.044965	NaN	0.000000	0.001581	0.001720	28.0808	0.077222	0.001917	40.2789	11.3914	-165.584	0.030898	0.240687	-0.943283	-0.944617	-0.044965	40.2789	-0.942445	-3.803014E+12	1.182347E-14	NaN
506	1.000000	0.252043	7.37e+06	-51789.1	1005.82	-29751.1	0.000000	0.000000	6.252828	0.026198	NaN	0.000000	0.001565	0.001724	28.0806	0.056453	0.002138	26.4011	50.7089	14.978	0.009410	0.250680	-0.933260	-0.934623	0.026198	26.4011	-0.934005	-2.925772E+12	-8.954156E-15	NaN
506	1.000000	0.262049	7.37e+06	-51789.1	1005.82	-29751.1	0.000000	0.000000	6.262832	-0.012195	NaN	0.000000	0.001550	0.001706	28.0809	0.052549	0.001938	27.1171	-178.346	-169.122	0.074268	0.260796	-0.923255	-0.924508	-0.012195	27.1171	-0.922917	-2.072967E+12	5.882785E-15	NaN
506	1.000000	0.272053	7.37e+06	-51789.1	1005.82	-29751.1	0.000000	0.000000	6.272837	0.012232	NaN	0.000000	0.001554	0.001723	28.0808	0.045913	0.001992	23.0441	81.2617	14.1741	0.035312	0.270682	-0.913250	-0.914622	0.012232	23.0441	-0.913648	-1.553954E+12	-7.871688E-15	NaN
506	1.000000	0.282047	7.37e+06	-51789.1	1005.82	-29751.1	0.000000	0.000000	6.282834	0.093119	NaN	0.000000	0.001572	0.001766	28.0808	0.116916	0.001866	62.6602	106.6	-163.307	-0.029931	0.280725	-0.903256	-0.904579	0.093119	62.6602	-0.904371	-1.164453E+12	-7.996763E-14	NaN
506	1.000000	0.292073	7.37e+06	-51789.1	1005.82	-29751.1	0.000000	0.000000	6.292856	-0.007055	NaN	0.000000	0.001535	0.001767	28.0806	0.129370	0.001926	67.1726	170.098	15.75	-0.014890	0.290705	-0.893231	-0.894599	-0.007055	67.1726	-0.893152	-8.213396E+11	8.589514E-15	NaN
506	1.000000	0.302043	7.37e+06	-51789.1	1005.82	-29751.1	0.000000	0.000000	6.302828	0.054211	NaN	0.000000	0.001552	0.001744	28.081	0.073864	0.001902	38.8367	115.992	-167.061	0.018899	0.300761	-0.883261	-0.884543	0.054211	38.8367	-0.884308	-6.236782E+11	-8.692193E-14	NaN
506	1.000000	0.312042	7.37e+06	-51789.1	1005.82	-29751.1	0.000000	0.000000	6.312827	0.051925	NaN	0.000000	0.001593	0.001747	28.0807	0.026256	0.002093	12.543	-172.758	10.2517	0.032547	0.310716	-0.873262	-0.874588	0.051925	12.543	-0.876367	-4.870471E+11	-1.066124E-13	NaN
506	1.000000	0.322086	7.37e+06	-51789.1	1005.82	-29751.1	0.000000	0.000000	6.322869	-0.007850	NaN	0.000000	0.001549	0.001709	28.0799	0.040624	0.001963	20.6975	128.673	-168.62	0.008037	0.320768	-0.863218	-0.864535	-0.007850	20.6975	-0.862933	-3.204950E+11	2.449477E-14	NaN
506	1.000000	0.332105	7.37e+06	-51789.1	1005.82	-29751.1	0.000000	0.000000	6.332891	0.066306	NaN	0.000000	0.001568	0.001712	28.0795	0.104931	0.002037	51.5167	-19.9676	16.4615	0.010010	0.330722	-0.853198	-0.854582	0.066306	51.5167	-0.854164	-2.438457E+11	-2.719194E-13	NaN
506	1.000000	0.342094	7.37e+06	-51789.1	1005.82	-29751.1	0.000000	0.000000	6.342874	-0.054643	NaN	0.000000	0.001543	0.001716	28.0798	0.052928	0.002022	26.1825	-27.0345	-168.254	-0.043082	0.340787	-0.843210	-0.844516	-0.054643	26.1825	-0.841645	-1.650344E+11	3.311016E-13	NaN
506	1.000000	0.352107	7.37e+06	-51789.1	1005.82	-29751.1	0.000000	0.000000	6.352890	0.005789	NaN	0.000000	0.001527	0.001733	28.0793	0.047265	0.001956	24.1692	-62.7135	16.1069	0.015395	0.350732	-0.833197	-0.834572	0.005789	24.1692	-0.833376	-1.275103E+11	-4.540171E-14	NaN
506	1.000000	0.362101	7.37e+06	-51789.1	1005.82	-29751.1	0.000000	0.000000	6.362887	0.072320	NaN	0.000000	0.001552	0.001726	28.0795	0.050849	0.001961	25.9357	156.927	-166.722	0.040372	0.360757	-0.823202	-0.824547	0.072320	25.9357	-0.825294	-9.908053E+10	-7.299163E-13	NaN
506	1.000000	0.372080	7.37e+06	-51789.1	1005.82	-29751.1	0.000000	0.000000	6.372864	0.018135	NaN	0.000000	0.001588	0.001730	28.0795	0.031068	0.002056	15.1083	-134.041	13.4036	0.022032	0.370723	-0.813224	-0.814580	0.018135	15.1083	-0.814124	-6.990616E+10	-2.594129E-13	NaN
506	1.000000	0.382110	7.37e+06	-51789.1	1005.82	-29751.1	0.000000	0.000000	6.382893	-0.008163	NaN	0.000000	0.001597	0.001774	28.0797	0.045890	0.001954	23.4794	-86.0591	-166.205	0.009841	0.380784	-0.803194	-0.804520	-0.008163	23.4794	-0.802933	-4.928031E+10	1.656374E-13	NaN
506	1.000000	0.392123	7.37e+06	-51789.1	1005.82	-29751.1	0.000000	0.000000	6.392908	0.032790	NaN	0.000000	0.001610	0.001746	28.0795	0.079071	0.001898	41.6551	84.0295	10.3488	0.017240	0.390732	-0.793180	-0.794571	0.032790	41.6551	-0.793771	-3.700759E+10	-8.860219E-13	NaN
506	1.000000	0.402096	7.37e+06	-51789.1	1005.82	-29751.1	0.000000	0.000000	6.402879	-0.000838	NaN	0.000000	0.001573	0.001764	28.0796	0.012233	0.001988	6.152714	85.3037	-165.057	-0.013546	0.400743	-0.783208	-0.784561	-0.000838	6.152714	-0.783106	-2.651123E+10	3.160946E-14	NaN
506	1.000000	0.412096	7.37e+06	-51789.1	1005.82	-29751.1	0.000000	0.000000	6.412878	-0.034104	NaN	0.000000	0.001536	0.001751	28.0796	0.071442	0.002124	33.6284	-150.456	13.862	0.033687	0.410750	-0.773208	-0.774554	-0.034104	33.6284	-0.772447	-1.899213E+10	1.795712E-12	NaN
506	1.000000	0.422139	7.37e+06	-51789.1	1005.82	-29751.1	0.000000	0.000000	6.422922	0.003071	NaN	0.000000	0.001514	0.001720	28.0795	0.075763	0.002072	36.5581	-147.832	-168.072	-0.009808	0.420816	-0.763165	-0.764488	0.003071	36.5581	-0.763228	-1.423008E+10	-2.157947E-13	NaN
506	1.000000	0.432148	7.37e+06	-51789.1	1005.82	-29751.1	0.000000	0.000000	6.432933	0.044145	NaN	0.000000	0.001553	0.001738	28.0794	0.025543	0.001943	13.1467	-112.808	12.1053	-0.017523	0.430776	-0.753155	-0.754528	0.044145	13.1467	-0.755674	-1.123157E+10	-3.930472E-12	NaN
506	1.000000	0.442123	7.37e+06	-51789.1	1005.82	-29751.1	0.000000	0.000000	6.442906	0.003364	NaN	0.000000	0.001513	0.001717	28.0795	0.086239	0.001996	43.2069	115.05	-166.346	0.094515	0.440830	-0.743181	-0.744474	0.003364	43.2069	-0.743239	-7.606199E+9	-4.422290E-13	NaN
506	1.000000	0.452111	7.37e+06	-51789.1	1005.82	-29751.1	0.000000	0.000000	6.452894	-0.000722	NaN	0.000000	0.001558	0.001739	28.0796	0.043305	0.002120	20.4304	134.545	16.0013	-0.068996	0.450816	-0.733193	-0.734488	-0.000722	20.4304	-0.733166	-5.545689E+9	1.302052E-13	NaN
506	1.000000	0.462137	7.37e+06	-51789.1	1005.82	-29751.1	0.000000	0.000000	6.462920	-0.015302	NaN	0.000000	0.001572	0.001717	28.0807	0.067868	0.001861	36.4742	62.2408	-164.657	-0.008017	0.460839	-0.723166	-0.724464	-0.015302	36.4742	-0.722852	-4.011993E+9	3.814091E-12	NaN
506	1.000000	0.472148	7.37e+06	-51789.1	1005.82	-29751.1	0.000000	0.000000	6.472930	-0.031324	NaN	0.000000	0.001549	0.001725	28.0806	0.006662	0.002074	3.212528	27.5176	13.8487	0.008268	0.470797	-0.713156	-0.714506	-0.031324	3.212528	-0.705843	-2.351283E+9	1.332228E-11	NaN
506	1.000000	0.482142	7.37e+06	-51789.1	1005.82	-29751.1	0.000000	0.000000	6.482927	0.041522	NaN	0.000000	0.001557	0.001710	28.0807	0.070198	0.002024	34.6839	-42.2079	-167.315	0.053278	0.480771	-0.703162	-0.704533	0.041522	34.6839	-0.704059	-2.223108E+9	-1.867725E-11	NaN
506	1.000000	0.492168	7.37e+06	-51789.1	1005.82	-29751.1	0.000000	0.000000	6.492951	0.007713	NaN	0.000000	0.001574	0.001716	28.0807	0.107472	0.001953	55.0223	-64.2963	12.6065	0.101023	0.490774	-0.693136	-0.694530	0.007713	55.0223	-0.693241	-1.582005E+9	-4.875761E-12	NaN
506	1.000000	0.502164	7.37e+06	-51789.1	1005.82	-29751.1	0.000000	0.000000	6.502946	-0.035551	NaN	0.000000	0.001560	0.001748	28.0806	0.048850	0.001949	25.0674	-138.247	-167.986	-0.045571	0.500833	-0.683139	-0.684471	-0.035551	25.0674	-0.682076	-1.113247E+9	3.193473E-11	NaN
506	1.000000	0.512160	7.37e+06	-51789.1	1005.82	-29751.1	0.000000	0.000000	6.512943	-0.000801	NaN	0.000000	0.001527	0.001755	28.0808	0.020033	0.002030	9.867214	117.83	11.1561	0.009133	0.510780	-0.673143	-0.674523	-0.000801	9.867214	-0.673082	-8.386356E+8	9.549555E-13	NaN
506	1.000000	0.522167	7.37e+06	-51789.1	1005.82	-29751.1	0.000000	0.000000	6.522952	0.062797	NaN	0.000000	0.001521	0.001732	28.0809	0.126526	0.001915	66.0679	-179.59	-167.945	0.002877	0.520848	-0.663137	-0.664456	0.062797	66.0679	-0.663850	-6.268978E+8	-1.001714E-10	NaN
506	1.000000	0.532128	7.37e+06	-51789.1	1005.82	-29751.1	0.000000	0.000000	6.532915	0.082581	NaN	0.000000	0.001536	0.001694	28.081	0.040879	0.001905	21.4628	135.042	11.1411	-0.027374	0.530865	-0.653175	-0.654438	0.082581	21.4628	-0.656061	-4.903491E+8	-1.684127E-10	NaN
506	1.000000	0.542193	7.37e+06	-51789.1	1005.82	-29751.1	0.000000	0.000000	6.542975	-0.020291	NaN	0.000000	0.001495	0.001750	28.0806	0.193956	0.001982	97.8763	-133.074	-164.914	0.011693	0.540893	-0.643110	-0.644411	-0.020291	97.8763	-0.642955	-3.242112E+8	6.258670E-11	NaN
506	1.000000	0.552185	7.37e+06	-51789.1	1005.82	-29751.1	0.000000	0.000000	6.552967	-0.021551	NaN	0.000000	0.001546	0.001710	28.0809	0.114325	0.002019	56.6177	-61.8295	11.6988	-0.009907	0.550746	-0.633119	-0.634557	-0.021551	56.6177	-0.632834	-2.354677E+8	9.152256E-11	NaN
506	1.000000	0.562182	7.37e+06	-51789.1	1005.82	-29751.1	0.000000	0.000000	6.562965	-0.004599	NaN	0.000000	0.001528	0.001743	28.0808	0.066778	0.001951	34.2319	-11.974	-165.922	0.045308	0.560866	-0.623121	-0.624438	-0.004599	34.2319	-0.623021	-1.726423E+8	2.664073E-11	NaN
506	1.000000	0.572170	7.37e+06	-51789.1	1005.82	-29751.1	0.000000	0.000000	6.572954	0.029987	NaN	0.000000	0.001551	0.001735	28.0807	0.033897	0.001983	17.0964	-31.651	14.5102	0.055954	0.570864	-0.613134	-0.614439	0.029987	17.0964	-0.614449	-1.316176E+8	-2.278322E-10	NaN
506	1.000000	0.582194	7.37e+06	-51789.1	1005.82	-29751.1	0.000000	0.000000	6.582977	0.004995	NaN	0.000000	0.001527	0.001729	28.0805	0.112269	0.001980	56.687	-143.318	-164.289	0.023213	0.580906	-0.603110	-0.604398	0.004995	56.687	-0.603176	-9.208687E+7	-5.424733E-11	NaN
506	1.000000	0.592176	7.37e+06	-51789.1	1005.82	-29751.1	0.000000	0.000000	6.592960	0.029405	NaN	0.000000	0.001568	0.001735	28.0807	0.097656	0.001875	52.0968	0.297446	13.6749	-0.012378	0.590827	-0.593128	-0.594477	0.029405	52.0968	-0.593551	-6.786078E+7	-4.333091E-10	NaN
506	1.000000	0.602194	7.37e+06	-51789.1	1005.82	-29751.1	0.000000	0.000000	6.602979	0.037832	NaN	0.000000	0.001572	0.001727	28.0796	0.062565	0.002002	31.2577	179.718	-165.047	0.016899	0.600906	-0.583109	-0.584398	0.037832	31.2577	-0.584017	-5.013695E+7	-7.545800E-10	NaN
506	1.000000	0.612208	7.37e+06	-51789.1	1005.82	-29751.1	0.000000	0.000000	6.612987	-0.088889	NaN	0.000000	0.001568	0.001743	28.0793	0.022109	0.002040	10.8384	128.53	13.236	-0.043171	0.610881	-0.573096	-0.574422	-0.088889	10.8384	-0.566945	-2.913487E+7	3.050961E-9	NaN
506	1.000000	0.622235	7.37e+06	-51789.1	1005.82	-29751.1	0.000000	0.000000	6.623019	0.032599	NaN	0.000000	0.001567	0.001735	28.0794	0.073991	0.002146	34.4722	-107.731	-169.345	0.101091	0.620885	-0.563069	-0.564419	0.032599	34.4722	-0.563778	-2.634099E+7	-1.237567E-9	NaN
506	1.000000	0.632208	7.37e+06	-51789.1	1005.82	-29751.1	0.000000	0.000000	6.632992	0.015611	NaN	0.000000	0.001567	0.001735	28.0794	0.072938	0.002060	35.406	148.09	13.7667	0.020032	0.630843	-0.553096	-0.554460	0.015611	35.406	-0.553426	-1.894112E+7	-8.242019E-10	NaN
506	1.000000	0.642223	7.37e+06	-51789.1	1005.82	-29751.1	0.000000	0.000000	6.643007	0.024103	NaN	0.000000	0.001572	0.001756	28.0795	0.114218	0.001923	59.4093	-108.399	-165.842	-0.060832	0.640897	-0.543080	-0.544407	0.024103	59.4093	-0.543385	-1.374952E+7	-1.752971E-9	NaN
506	1.000000	0.652217	7.37e+06	-51789.1	1005.82	-29751.1	0.000000	0.000000	6.653001	0.037589	NaN	0.000000	0.001544	0.001731	28.0793	0.037080	0.002059	18.0096	-67.6598	12.3201	0.083074	0.650915	-0.533087	-0.534389	0.037589	18.0096	-0.534652	-1.040311E+7	-3.613275E-9	NaN
506	1.000000	0.662217	7.37e+06	-51789.1	1005.82	-29751.1	0.000000	0.000000	6.663001	0.004269	NaN	0.000000	0.001540	0.001721	28.0793	0.091219	0.002047	44.5693	-36.2678	-166.093	0.008392	0.660918	-0.523086	-0.524386	0.004269	44.5693	-0.523158	-7.20296e+06	-5.927221E-10	NaN
506	1.000000	0.672226	7.37e+06	-51789.1	1005.82	-29751.1	0.000000	0.000000	6.673011	0.047591	NaN	0.000000	0.001557	0.001730	28.0794	0.034047	0.002051	16.5969	-24.3854	13.2144	0.059987	0.670854	-0.513078	-0.514449	0.047591	16.5969	-0.515228	-5.58742e+06	-8.517603E-9	NaN
506	1.000000	0.682246	7.37e+06	-51789.1	1005.82	-29751.1	0.000000	0.000000	6.683029	0.000653	NaN	0.000000	0.001550	0.001770	28.0794	0.012840	0.002101	6.112142	-1.259050	-165.642	-0.036234	0.680920	-0.503058	-0.504384	0.000653	6.112142	-0.503138	-3.79125e+06	-1.721097E-10	NaN
506	1.000000	0.692259	7.37e+06	-51789.1	1005.82	-29751.1	0.000000	0.000000	6.693043	0.015547	NaN	0.000000	0.001581	0.001755	28.0794	0.029459	0.002070	14.2325	97.0062	13.5635	-0.056785	0.690855	-0.493044	-0.494448	0.015547	14.2325	-0.493864	-2.81427e+06	-5.524466E-9	NaN
506	1.000000	0.702230	7.37e+06	-51789.1	1005.82	-29751.1	0.000000	0.000000	6.703013	0.010026	NaN	0.000000	0.001580	0.001751	28.0793	0.081746	0.002029	40.2818	-78.9099	-167.051	-0.013263	0.700939	-0.483074	-0.484365	0.010026	40.2818	-0.483260	-2.00059e+06	-5.011612E-9	NaN
506	1.000000	0.712212	7.37e+06	-51789.1	1005.82	-29751.1	0.000000	0.000000	6.712995	-0.004633	NaN	0.000000	0.001532	0.001758	28.0796	0.066507	0.001958	33.9593	129.719	10.9444	0.066898	0.710907	-0.473092	-0.474397	-0.004633	33.9593	-0.472989	-1.43655e+06	3.225071E-9	NaN
506	1.000000	0.722249	7.37e+06	-51789.1	1005.82	-29751.1	0.000000	0.000000	6.723030	-0.039014	NaN	0.000000	0.001535	0.001735	28.0795	0.086949	0.002097	41.4682	164.513	-168.276	-0.021670	0.720910	-0.463055	-0.464393	-0.039014	41.4682	-0.462349	-1.01865e+06	3.829927E-8	NaN
506	1.000000	0.732283	7.37e+06	-51789.1	1005.82	-29751.1	0.000000	0.000000	6.733067	0.007126	NaN	0.000000	0.001553	0.001757	28.0806	0.078969	0.001995	39.575	176.582	14.6943	0.068417	0.730875	-0.453020	-0.454428	0.007126	39.575	-0.453155	-756417	-9.421224E-9	NaN
506	1.000000	0.742261	7.37e+06	-51789.1	1005.82	-29751.1	0.000000	0.000000	6.743047	0.051832	NaN	0.000000	0.001570	0.001772	28.0807	0.042867	0.002009	21.3329	-175.571	-165.154	0.010614	0.740941	-0.443042	-0.444363	0.051832	21.3329	-0.444864	-578071	-8.966306E-8	NaN
506	1.000000	0.752290	7.37e+06	-51789.1	1005.82	-29751.1	0.000000	0.000000	6.753072	-0.025000	NaN	0.000000	0.001535	0.001772	28.0809	0.024590	0.001817	13.5319	-179.405	12.3289	-0.039829	0.750942	-0.433014	-0.434361	-0.025000	13.5319	-0.431628	-375913	6.650446E-8	NaN
506	1.000000	0.762281	7.37e+06	-51789.1	1005.82	-29751.1	0.000000	0.000000	6.763061	-0.066434	NaN	0.000000	0.001551	0.001744	28.0808	0.031867	0.002087	15.2682	-47.7266	-165.728	-0.019840	0.760948	-0.423023	-0.424355	-0.066434	15.2682	-0.419759	-255270	2.602511E-7	NaN
506	1.000000	0.772284	7.37e+06	-51789.1	1005.82	-29751.1	0.000000	0.000000	6.773068	0.019713	NaN	0.000000	0.001514	0.001744	28.0807	0.034484	0.001978	17.4328	41.6242	18.2169	-0.001312	0.770921	-0.413019	-0.414383	0.019713	17.4328	-0.413867	-210556	-9.362171E-8	NaN
506	1.000000	0.782284	7.37e+06	-51789.1	1005.82	-29751.1	0.000000	0.000000	6.783067	0.004310	NaN	0.000000	0.001523	0.001727	28.0809	0.055170	0.001898	29.0653	-35.0687	-165.778	-0.024266	0.780984	-0.403020	-0.404320	0.004310	29.0653	-0.403131	-148124	-2.909441E-8	NaN
506	1.000000	0.792300	7.37e+06	-51789.1	1005.82	-29751.1	0.000000	0.000000	6.793086	0.067246	NaN	0.000000	0.001551	0.001723	28.0809	0.062390	0.001867	33.4096	103.336	14.722	0.019944	0.790936	-0.393004	-0.394367	0.067246	33.4096	-0.394513	-111606	-6.025303E-7	NaN
506	1.000000	0.802278	7.37e+06	-51789.1	1005.82	-29751.1	0.000000	0.000000	6.803061	0.017906	NaN	0.000000	0.001563	0.001742	28.0809	0.063327	0.002194	28.8609	95.5835	-166.215	0.019529	0.800972	-0.383026	-0.384331	0.017906	28.8609	-0.383491	-77618.6	-2.306921E-7	NaN
506	1.000000	0.812270	7.37e+06	-51789.1	1005.82	-29751.1	0.000000	0.000000	6.813056	0.065451	NaN	0.000000	0.001581	0.001766	28.0807	0.059164	0.002047	28.9095	-132.34	11.626	-0.014248	0.810923	-0.373034	-0.374381	0.065451	28.9095	-0.374732	-58104.9	-1.126425E-6	NaN
506	1.000000	0.822256	7.37e+06	-51789.1	1005.82	-29751.1	0.000000	0.000000	6.823042	0.076528	NaN	0.000000	0.001560	0.001724	28.0811	0.079529	0.002044	38.9034	173.192	-165.789	0.000772	0.820933	-0.363048	-0.364371	0.076528	38.9034	-0.364523	-41416.2	-1.847791E-6	NaN
506	1.000000	0.832270	7.37e+06	-51789.1	1005.82	-29751.1	0.000000	0.000000	6.833053	0.006221	NaN	0.000000	0.001531	0.001716	28.0808	0.122753	0.001948	63.0093	141.717	14.559	0.100484	0.830966	-0.353034	-0.354338	0.006221	63.0093	-0.353108	-28318.9	-2.196914E-7	NaN
506	1.000000	0.842321	7.37001e+06	-51789.1	1005.82	-29751.1	0.000000	0.000000	6.843107	0.056903	NaN	0.000000	0.001524	0.001756	28.0811	0.125827	0.002089	60.2209	-174.171	-168.03	0.021555	0.840990	-0.342982	-0.344313	0.056903	60.2209	-0.343691	-20668.7	-2.753109E-6	NaN
506	1.000000	0.852275	7.37001e+06	-51789.1	1005.82	-29751.1	0.000000	0.000000	6.853057	-0.035834	NaN	0.000000	0.001548	0.001740	28.081	0.086377	0.002050	42.1336	-96.4997	13.9372	-0.095638	0.850952	-0.333028	-0.334352	-0.035834	42.1336	-0.332390	-14139.6	2.534313E-6	NaN
506	1.000000	0.862309	7.37001e+06	-51789.1	1005.82	-29751.1	0.000000	0.000000	6.863093	0.044420	NaN	0.000000	0.001569	0.001759	28.0813	0.049019	0.001970	24.8778	150.952	-165.963	0.016330	0.860978	-0.322995	-0.324326	0.044420	24.8778	-0.324334	-10773.6	-4.123034E-6	NaN
506	1.000000	0.872272	7.37001e+06	-51789.1	1005.82	-29751.1	0.000000	0.000000	6.873054	-0.025513	NaN	0.000000	0.001531	0.001819	28.0803	0.024350	0.001903	12.7981	43.3112	12.0346	-0.014394	0.871008	-0.313031	-0.314296	-0.025513	12.7981	-0.311536	-6978.8	3.655785E-6	NaN
506	1.000000	0.882335	7.37001e+06	-51789.1	1005.82	-29751.1	0.000000	0.000000	6.883121	0.052736	NaN	0.000000	0.001502	0.001787	28.0798	0.080286	0.002008	39.9785	92.804	-164.156	0.010097	0.881015	-0.302968	-0.304289	0.052736	39.9785	-0.303958	-5388.63	-9.786600E-6	NaN
506	1.000000	0.892303	7.37001e+06	-51789.1	1005.82	-29751.1	0.000000	0.000000	6.893086	0.008182	NaN	0.000000	0.001532	0.001769	28.0797	0.090636	0.002008	45.1362	-85.5583	15.7566	0.048276	0.890980	-0.293001	-0.294324	0.008182	45.1362	-0.293137	-3717.47	-2.201053E-6	NaN
506	1.000000	0.902310	7.37001e+06	-51789.1	1005.82	-29751.1	0.000000	0.000000	6.903095	0.052887	NaN	0.000000	0.001549	0.001708	28.0801	0.125141	0.001928	64.9065	106.101	-166.148	0.026751	0.901050	-0.282994	-0.284254	0.052887	64.9065	-0.283605	-2674.78	-1.977237E-5	NaN
506	1.000000	0.912329	7.37001e+06	-51789.1	1005.82	-29751.1	0.000000	0.000000	6.913110	-0.043522	NaN	0.000000	0.001571	0.001738	28.0796	0.088459	0.001887	46.8804	29.9602	12.2481	-0.070173	0.910959	-0.272975	-0.274345	-0.043522	46.8804	-0.272278	-1803.62	2.413024E-5	NaN
506	1.000000	0.922335	7.37001e+06	-51789.1	1005.82	-29751.1	0.000000	0.000000	6.923120	0.039772	NaN	0.000000	0.001556	0.001734	28.0797	0.047890	0.002063	23.2109	174.268	-164.162	0.032583	0.921024	-0.262969	-0.264280	0.039772	23.2109	-0.264254	-1361.44	-2.921300E-5	NaN
506	1.000000	0.932359	7.37001e+06	-51789.1	1005.82	-29751.1	0.000000	0.000000	6.933141	-0.037823	NaN	0.000000	0.001550	0.001718	28.0798	0.055073	0.001966	28.0179	42.5112	12.7617	0.035647	0.931015	-0.252944	-0.254288	-0.037823	28.0179	-0.251932	-880.675	4.294784E-5	NaN
506	1.000000	0.942344	7.37001e+06	-51789.1	1005.82	-29751.1	0.000000	0.000000	6.943126	-0.020289	NaN	0.000000	0.001570	0.001696	28.0798	0.121656	0.002017	60.3103	166.312	-167.921	-0.049704	0.941079	-0.242960	-0.244225	-0.020289	60.3103	-0.242707	-633.549	3.202447E-5	NaN
506	1.000000	0.952321	7.37001e+06	-51789.1	1005.82	-29751.1	0.000000	0.000000	6.953104	0.018050	NaN	0.000000	0.001580	0.001724	28.0796	0.043958	0.002027	21.6847	167.749	14.8653	0.013524	0.950994	-0.232983	-0.234310	0.018050	21.6847	-0.233607	-456.42	-3.954765E-5	NaN
506	1.000000	0.962363	7.37001e+06	-51789.1	1005.82	-29751.1	0.000000	0.000000	6.963146	0.006128	NaN	0.000000	0.001576	0.001726	28.0797	0.108040	0.002136	50.5769	-174.497	-165.563	0.053003	0.961075	-0.222941	-0.224229	0.006128	50.5769	-0.223032	-310.483	-1.973616E-5	NaN
506	1.000000	0.972335	7.37001e+06	-51789.1	1005.82	-29751.1	0.000000	0.000000	6.973118	-0.001184	NaN	0.000000	0.001558	0.001763	28.0798	0.085383	0.002026	42.1502	95.9747	13.7619	-0.007363	0.970972	-0.212969	-0.214331	-0.001184	42.1502	-0.212948	-214.024	5.532964E-6	NaN
506	1.000000	0.982360	7.37001e+06	-51789.1	1005.82	-29751.1	0.000000	0.000000	6.983141	-0.045077	NaN	0.000000	0.001565	0.001697	28.0797	0.058407	0.001850	31.5797	-77.8318	-164.774	-0.014816	0.981026	-0.202944	-0.204277	-0.045077	31.5797	-0.201873	-141.398	0.000319	NaN
506	1.000000	0.992324	7.37001e+06	-51789.1	1005.82	-29751.1	0.000000	0.000000	6.993105	-0.060328	NaN	0.000000	0.001551	0.001736	28.0797	0.070451	0.001994	35.3385	-26.6556	11.2719	-0.034928	0.991014	-0.192979	-0.194290	-0.060328	35.3385	-0.191699	-96.0214	0.000628	NaN
506	1.000000	1.002393	7.37001e+06	-51789.1	1005.82	-29751.1	0.000000	0.000000	7.003176	-0.000133	NaN	0.000000	0.001575	0.001736	28.0797	0.056791	0.001932	29.3954	147.623	-166.568	-0.001200	1.001062	-0.182910	-0.184242	-0.000133	29.3954	-0.182907	-68.3576	1.949761E-6	NaN
506	1.000000	1.012373	7.37001e+06	-51789.1	1005.82	-29751.1	0.000000	0.000000	7.013155	-0.021672	NaN	0.000000	0.001558	0.001710	28.0814	0.027788	0.001963	14.1589	-123.012	14.2634	0.001747	1.011105	-0.172931	-0.174198	-0.021672	14.1589	-0.171783	-44.1076	0.000491	NaN
506	1.000000	1.022372	7.37001e+06	-51789.1	1005.82	-29751.1	0.000000	0.000000	7.023152	-0.077091	NaN	0.000000	0.001630	0.001709	28.0808	0.141700	0.001936	73.1904	-127.876	-166.796	-0.164147	1.021015	-0.162932	-0.164289	-0.077091	73.1904	-0.162142	-29.9191	0.002577	NaN
506	1.000000	1.032351	7.37001e+06	-51789.1	1005.82	-29751.1	0.000000	0.000000	7.033132	-0.034064	NaN	0.000000	0.001619	0.001711	28.0809	0.061078	0.002008	30.4238	154.374	13.3343	-0.016860	1.031065	-0.152953	-0.154238	-0.034064	30.4238	-0.152113	-19.7896	0.001721	NaN
506	1.000000	1.042373	7.37001e+06	-51789.1	1005.82	-29751.1	0.000000	0.000000	7.043156	-4.989485E-5	NaN	0.000000	0.001628	0.001742	28.0808	0.087572	0.002058	42.5424	29.3479	-166.705	-0.020805	1.041047	-0.142930	-0.144256	-4.989485E-5	42.5424	-0.142929	-13.4197	3.718030E-6	NaN
506	1.000000	1.052372	7.37001e+06	-51789.1	1005.82	-29751.1	0.000000	0.000000	7.053156	0.003360	NaN	0.000000	0.001634	0.001712	28.0811	0.103106	0.002093	49.2681	-171.351	13.8153	-0.044279	1.050973	-0.132931	-0.134330	0.003360	49.2681	-0.132982	-8.702420	-0.000386	NaN
506	1.000000	1.062375	7.37001e+06	-51789.1	1005.82	-29751.1	0.000000	0.000000	7.063158	-0.015186	NaN	0.000000	0.001633	0.001723	28.0807	0.012692	0.002109	6.018419	5.486490	-168.405	-0.041702	1.061074	-0.122929	-0.124230	-0.015186	6.018419	-0.121036	-5.069314	0.002996	NaN
506	1.000000	1.072392	7.37001e+06	-51789.1	1005.82	-29751.1	0.000000	0.000000	7.073175	-0.007770	NaN	0.000000	0.001616	0.001702	28.0808	0.129379	0.002014	64.2437	134.3	15.5172	0.077924	1.071039	-0.112912	-0.114264	-0.007770	64.2437	-0.112821	-3.443232	0.002256	NaN
506	1.000000	1.082414	7.37001e+06	-51789.1	1005.82	-29751.1	0.000000	0.000000	7.083197	-0.014794	NaN	0.000000	0.001640	0.001723	28.0809	0.021540	0.002059	10.4601	65.4705	-165.359	-0.045155	1.081084	-0.102889	-0.104219	-0.014794	10.4601	-0.101829	-2.004996	0.007378	NaN
506	1.000000	1.092394	7.37001e+06	-51789.1	1005.82	-29751.1	0.000000	0.000000	7.093178	0.001556	NaN	0.000000	0.001598	0.001769	28.0807	0.040303	0.002004	20.1157	177.81	15.6414	0.044266	1.091027	-0.092909	-0.094277	0.001556	20.1157	-0.092967	-1.267147	-0.001228	NaN
506	1.000000	1.102419	7.37001e+06	-51789.1	1005.82	-29751.1	0.000000	0.000000	7.103203	0.039386	NaN	0.000000	0.001627	0.001762	28.0807	0.063224	0.001835	34.4617	79.1177	-167.247	0.012087	1.101085	-0.082885	-0.084219	0.039386	34.4617	-0.083742	-0.765800	-0.051431	NaN
506	1.000000	1.112400	7.37001e+06	-51789.1	1005.82	-29751.1	0.000000	0.000000	7.113182	-0.006169	NaN	0.000000	0.001618	0.001709	28.0807	0.074794	0.002001	37.3846	-115.58	15.4978	0.036894	1.111023	-0.072904	-0.074281	-0.006169	37.3846	-0.072780	-0.404251	0.015260	NaN
506	1.000000	1.122425	7.37001e+06	-51789.1	1005.82	-29751.1	0.000000	0.000000	7.123206	-0.057400	NaN	0.000000	0.001607	0.001725	28.0811	0.158184	0.002010	78.7141	-80.092	-164.446	0.020725	1.121085	-0.062878	-0.064218	-0.057400	78.7141	-0.062331	-0.209830	0.273552	NaN
506	1.000000	1.132417	7.37001e+06	-51789.1	1005.82	-29751.1	0.000000	0.000000	7.133201	0.013129	NaN	0.000000	0.001571	0.001707	28.0807	0.102761	0.001879	54.6865	-168.579	13.8123	-0.033639	1.131052	-0.052887	-0.054252	0.013129	54.6865	-0.053067	-0.112825	-0.116369	NaN
506	1.000000	1.142435	7.37001e+06	-51789.1	1005.82	-29751.1	0.000000	0.000000	7.143222	0.093002	NaN	0.000000	0.001619	0.001773	28.0796	0.148517	0.001931	76.8966	-159.526	-168.622	0.139415	1.141074	-0.042869	-0.044229	0.093002	76.8966	-0.043776	-0.058959	-1.577401	NaN
506	1.000000	1.152430	7.37001e+06	-51789.1	1005.82	-29751.1	0.000000	0.000000	7.153214	0.025520	NaN	0.000000	0.001602	0.001679	28.0795	0.039742	0.002018	19.6944	9.283270	16.0349	0.012020	1.151082	-0.032874	-0.034222	0.025520	19.6944	-0.033846	-0.029626	-0.861425	NaN
506	1.000000	1.162419	7.37001e+06	-51789.1	1005.82	-29751.1	0.000000	0.000000	7.163201	-0.029635	NaN	0.000000	0.001598	0.001677	28.0798	0.075495	0.002173	34.7449	57.3878	-166.563	-0.042532	1.161124	-0.022884	-0.024180	-0.029635	34.7449	-0.022245	-0.014325	2.068743	NaN
506	1.000000	1.172402	7.37001e+06	-51789.1	1005.82	-29751.1	0.000000	0.000000	7.173184	-0.013839	NaN	0.000000	0.001552	0.001674	28.0795	0.097591	0.002032	48.0221	-74.5834	13.1043	-0.010188	1.171064	-0.012902	-0.014240	-0.013839	48.0221	-0.012686	-0.007922	1.747012	NaN
506	1.000000	1.182420	7.37001e+06	-51789.1	1005.82	-29751.1	0.000000	0.000000	7.183210	0.171334	NaN	0.000000	0.001597	0.001674	28.0797	0.313726	0.002056	152.619	6.220795	-167.042	-0.010347	1.181098	-0.002884	-0.004206	0.171334	152.619	-0.003726	-0.002601	-65.8825	NaN
506	2.000000	1.191477	7.37001e+06	-51789.1	1005.82	-29751.1	0.000000	0.000000	7.192613	8.566576	NaN	0.000000	0.001577	0.001688	28.0799	8.738028	0.001557	5612.36	4.871986	9.372678	7.877167	1.190945	0.006174	0.005641	8.566576	5612.36	0.005029	0.004160	2059.39	79503.1
506	2.000000	1.194001	7.37001e+06	-51789.1	1005.82	-29751.1	0.000000	0.000000	7.195276	11.9463	NaN	0.000000	0.001491	0.001691	28.0796	12.356	0.001737	7111.54	5.359251	-173.988	12.0188	1.193729	0.008698	0.008425	11.9463	7111.54	0.007438	0.006470	1846.29	80773.6
506	2.000000	1.196511	7.37001e+06	-51789.1	1005.82	-29751.1	0.000000	0.000000	7.197920	15.2175	NaN	0.000000	0.001603	0.001663	28.0794	14.4257	0.001629	8853.4	6.617025	4.650364	14.3805	1.196186	0.011208	0.010883	15.2175	8853.4	0.009918	0.009091	1673.91	84835.6
506	2.000000	1.198971	7.37001e+06	-51789.1	1005.82	-29751.1	0.000000	0.000000	7.200549	19.3362	NaN	0.000000	0.001588	0.001690	28.0796	17.9487	0.001868	9609.2	6.639916	-177.283	18.8787	1.198615	0.013667	0.013312	19.3362	9609.2	0.012158	0.011680	1655.56	81235.8
506	2.000000	1.201455	7.37001e+06	-51789.1	1005.82	-29751.1	0.000000	0.000000	7.203301	25.851	NaN	0.000000	0.001626	0.001722	28.08	20.6798	0.001843	11217.9	7.156396	2.140797	23.9054	1.201040	0.016152	0.015737	25.851	11217.9	0.014423	0.014524	1779.89	85043.5
506	2.000000	1.203967	7.37001e+06	-51789.1	1005.82	-29751.1	0.000000	0.000000	7.205929	28.6766	NaN	0.000000	0.001569	0.001746	28.0797	23.1933	0.001700	13644.9	8.938506	176.693	28.1644	1.203615	0.018663	0.018311	28.6766	13644.9	0.017087	0.018170	1578.28	92484.8
506	2.000000	1.206468	7.37001e+06	-51789.1	1005.82	-29751.1	0.000000	0.000000	7.208740	36.2064	NaN	0.000000	0.001589	0.001681	28.0797	25.0404	0.001662	15069.3	5.864327	-0.148825	35.0679	1.206146	0.021164	0.020843	36.2064	15069.3	0.019362	0.021550	1680.15	93788.3
506	2.000000	1.208882	7.37001e+06	-51789.1	1005.82	-29751.1	0.000000	0.000000	7.211510	44.853	NaN	0.000000	0.001598	0.001676	28.0797	27.9487	0.001729	16169.2	6.798821	178.747	44.2753	1.208595	0.023579	0.023291	44.853	16169.2	0.021498	0.024952	1797.6	93521.9
506	2.000000	1.211405	7.37001e+06	-51789.1	1005.82	-29751.1	0.000000	0.000000	7.214251	50.1613	NaN	0.000000	0.001634	0.001707	28.0798	30.6328	0.001682	18207.9	3.336156	-0.063419	48.4618	1.211081	0.026102	0.025777	50.1613	18207.9	0.024035	0.029284	1712.92	97211.2
506	2.000000	1.213911	7.37001e+06	-51789.1	1005.82	-29751.1	0.000000	0.000000	7.217001	56.0794	NaN	0.000000	0.001619	0.001663	28.0808	34.3551	0.001830	18769.7	3.834673	178.91	55.5222	1.213616	0.028608	0.028312	56.0794	18769.7	0.026367	0.033550	1671.54	93623.9
506	2.000000	1.216393	7.37001e+06	-51789.1	1005.82	-29751.1	0.000000	0.000000	7.219777	63.2295	NaN	0.000000	0.001648	0.001712	28.0809	35.8034	0.001740	20571.1	3.269204	-0.928949	60.2944	1.216136	0.031090	0.030832	63.2295	20571.1	0.028784	0.038262	1652.55	96083.3
506	2.000000	1.218904	7.37001e+06	-51789.1	1005.82	-29751.1	0.000000	0.000000	7.222545	69.5042	NaN	0.000000	0.001579	0.001760	28.0809	37.9705	0.001679	22619.5	4.166139	176.274	69.5282	1.218648	0.033600	0.033345	69.5042	22619.5	0.031296	0.043472	1598.83	99117.8
506	2.000000	1.221435	7.37001e+06	-51789.1	1005.82	-29751.1	0.000000	0.000000	7.225547	80.9526	NaN	0.000000	0.001582	0.001733	28.0809	41.4605	0.001796	23088.3	4.690931	-3.652097	80.8499	1.221034	0.036131	0.035731	80.9526	23088.3	0.033501	0.048314	1675.54	95968.1
506	2.000000	1.223872	7.37001e+06	-51789.1	1005.82	-29751.1	0.000000	0.000000	7.228315	89.0013	NaN	0.000000	0.001600	0.001701	28.0809	43.4805	0.001924	22604.3	1.427180	-179.478	87.0016	1.223632	0.038568	0.038328	89.0013	22604.3	0.035615	0.053189	1673.31	89547.6
506	2.000000	1.226383	7.37001e+06	-51789.1	1005.82	-29751.1	0.000000	0.000000	7.231127	96.3059	NaN	0.000000	0.001638	0.001764	28.081	45.1832	0.001778	25405.8	3.724348	-2.991293	92.8265	1.226076	0.041079	0.040772	96.3059	25405.8	0.038236	0.059550	1617.23	95118.8
506	2.000000	1.228893	7.37001e+06	-51789.1	1005.82	-29751.1	0.000000	0.000000	7.234041	106.143	NaN	0.000000	0.001618	0.001723	28.081	47.409	0.001821	26029.6	4.573672	176.046	106.6	1.228628	0.043589	0.043324	106.143	26029.6	0.040531	0.065407	1622.82	92988.5
506	2.000000	1.231355	7.37001e+06	-51789.1	1005.82	-29751.1	0.000000	0.000000	7.237080	120.18	NaN	0.000000	0.001616	0.001722	28.0806	49.4519	0.001869	26465.4	2.685714	-2.014277	115.812	1.230970	0.046051	0.045666	120.18	26465.4	0.042645	0.071043	1691.65	90717.3
506	2.000000	1.233867	7.37001e+06	-51789.1	1005.82	-29751.1	0.000000	0.000000	7.239985	129.73	NaN	0.000000	0.001627	0.001743	28.0807	52.9052	0.001798	29418.1	6.285916	172.763	127.939	1.233550	0.048563	0.048246	129.73	29418.1	0.045256	0.078316	1656.5	96042.5
506	2.000000	1.236433	7.37001e+06	-51789.1	1005.82	-29751.1	0.000000	0.000000	7.243043	141.691	NaN	0.000000	0.001612	0.001764	28.0808	54.6852	0.001747	31295.7	6.998886	-7.479149	140.935	1.235992	0.051129	0.050689	141.691	31295.7	0.047734	0.085537	1656.49	97764.4
506	2.000000	1.238857	7.37001e+06	-51789.1	1005.82	-29751.1	0.000000	0.000000	7.246004	154.745	NaN	0.000000	0.001610	0.001770	28.0809	56.672	0.001813	31258.9	5.034706	174.04	151.421	1.238531	0.053554	0.053227	154.745	31258.9	0.049841	0.091921	1683.45	94197.2
506	2.000000	1.241410	7.37001e+06	-51789.1	1005.82	-29751.1	0.000000	0.000000	7.248987	165.18	NaN	0.000000	0.001588	0.001749	28.0807	59.613	0.001875	31791.1	1.941266	-2.608788	164.903	1.241076	0.056107	0.055773	165.18	31791.1	0.052210	0.099366	1662.34	92142.6
506	2.000000	1.243896	7.37001e+06	-51789.1	1005.82	-29751.1	0.000000	0.000000	7.251870	174.845	NaN	0.000000	0.001639	0.001752	28.0808	61.6562	0.001782	34597.4	3.228596	174.819	176.28	1.243703	0.058592	0.058399	174.845	34597.4	0.054802	0.107832	1621.45	96259.1
506	2.000000	1.246350	7.37001e+06	-51789.1	1005.82	-29751.1	0.000000	0.000000	7.255188	195.868	NaN	0.000000	0.001596	0.001738	28.0807	63.0076	0.001731	36392.5	8.566052	-9.786336	191.747	1.245942	0.061046	0.060639	195.868	36392.5	0.057010	0.115304	1698.71	97918.1
506	2.000000	1.248787	7.37001e+06	-51789.1	1005.82	-29751.1	0.000000	0.000000	7.258177	209.281	NaN	0.000000	0.001581	0.001685	28.0799	64.2912	0.001712	37548	1.725612	176.148	203.986	1.248561	0.063483	0.063258	209.281	37548	0.059303	0.123320	1697.06	97688.5
506	2.000000	1.251258	7.37001e+06	-51789.1	1005.82	-29751.1	0.000000	0.000000	7.261304	225.224	NaN	0.000000	0.001587	0.001678	28.0796	68.8109	0.001823	37743.6	4.221935	-6.387212	218.611	1.251002	0.065954	0.065698	225.224	37743.6	0.061479	0.131165	1717.11	95215.6
506	2.000000	1.253756	7.37001e+06	-51789.1	1005.82	-29751.1	0.000000	0.000000	7.264050	231.253	NaN	0.000000	0.001590	0.001713	28.0798	72.4675	0.001940	37354.9	6.517308	170.558	225.643	1.253599	0.068453	0.068296	231.253	37354.9	0.063810	0.139822	1653.91	91271
506	2.000000	1.256394	7.37001e+06	-51789.1	1005.82	-29751.1	0.000000	0.000000	7.267437	249.484	NaN	0.000000	0.001577	0.001688	28.0796	72.5864	0.001711	42413	4.006582	-6.361168	249.528	1.255952	0.071090	0.070649	249.484	42413	0.066679	0.150841	1653.96	99773
506	2.000000	1.258856	7.37001e+06	-51789.1	1005.82	-29751.1	0.000000	0.000000	7.270590	266.274	NaN	0.000000	0.001611	0.001703	28.0802	75.0404	0.001799	41718.7	7.390510	169.729	264.714	1.258435	0.073552	0.073131	266.274	41718.7	0.068765	0.159102	1673.6	95557.8
506	2.000000	1.261504	7.37001e+06	-51789.1	1005.82	-29751.1	0.000000	0.000000	7.273732	278.293	NaN	0.000000	0.001588	0.001720	28.0794	77.4727	0.001745	44404.8	5.403818	-7.836491	282.893	1.260885	0.076201	0.075582	278.293	44404.8	0.071500	0.170245	1634.67	98325.5
506	2.000000	1.263770	7.37001e+06	-51789.1	1005.82	-29751.1	0.000000	0.000000	7.276609	293.145	NaN	0.000000	0.001618	0.001679	28.0797	79.7134	0.001710	46610.5	2.206940	173.63	287.833	1.263664	0.078467	0.078361	293.145	46610.5	0.073750	0.179676	1631.52	100464
506	2.000000	1.266328	7.37001e+06	-51789.1	1005.82	-29751.1	0.000000	0.000000	7.279964	312.541	NaN	0.000000	0.001643	0.001692	28.0793	80.8811	0.001695	47714.5	3.476017	-7.116965	307.789	1.266017	0.081024	0.080714	312.541	47714.5	0.076111	0.189832	1646.41	100055
506	2.000000	1.268752	7.37001e+06	-51789.1	1005.82	-29751.1	0.000000	0.000000	7.282719	320.58	NaN	0.000000	0.001602	0.001699	28.0804	84.5969	0.001849	45746.7	4.945090	170.932	315.237	1.268640	0.083448	0.083336	320.58	45746.7	0.078192	0.199001	1610.94	93692.5
506	2.000000	1.271295	7.37001e+06	-51789.1	1005.82	-29751.1	0.000000	0.000000	7.286167	342.594	NaN	0.000000	0.001645	0.001739	28.0795	86.8147	0.001772	48992.6	4.567945	-7.882695	337.859	1.270860	0.085991	0.085556	342.594	48992.6	0.080746	0.210529	1627.3	97554.7
506	2.000000	1.273755	7.37001e+06	-51789.1	1005.82	-29751.1	0.000000	0.000000	7.289266	358.126	NaN	0.000000	0.001641	0.001709	28.0799	90.1983	0.001815	49698.5	2.604678	172.998	351.473	1.273509	0.088451	0.088205	358.126	49698.5	0.083047	0.221172	1619.22	96549.8
506	2.000000	1.276384	7.37001e+06	-51789.1	1005.82	-29751.1	0.000000	0.000000	7.292846	381.242	NaN	0.000000	0.001613	0.001668	28.0796	93.5112	0.001914	48848.1	9.705629	-12.9648	381.261	1.275888	0.091080	0.090585	381.242	48848.1	0.085227	0.231485	1646.94	92759.7
506	2.000000	1.278806	7.37001e+06	-51789.1	1005.82	-29751.1	0.000000	0.000000	7.295798	394.151	NaN	0.000000	0.001586	0.001689	28.08	94.4759	0.001848	51129.9	4.422509	171.25	391.595	1.278595	0.093502	0.093291	394.151	51129.9	0.087720	0.243549	1618.36	94657.5
506	2.000000	1.281244	7.37001e+06	-51789.1	1005.82	-29751.1	0.000000	0.000000	7.299061	414.21	NaN	0.000000	0.001598	0.001665	28.0807	97.1404	0.001896	51227.5	5.115570	-9.396576	407.739	1.280982	0.095940	0.095679	414.21	51227.5	0.089876	0.254209	1629.41	92828.5
506	2.000000	1.283866	7.37001e+06	-51789.1	1005.82	-29751.1	0.000000	0.000000	7.302443	432.679	NaN	0.000000	0.001660	0.001687	28.081	98.5364	0.001714	57479.9	0.738064	173.982	432.712	1.283600	0.098563	0.098296	432.679	57479.9	0.092917	0.269610	1604.83	101140
506	2.000000	1.286309	7.37001e+06	-51789.1	1005.82	-29751.1	0.000000	0.000000	7.305804	454.982	NaN	0.000000	0.001698	0.001678	28.0807	101.834	0.001869	54494.3	10.9853	-14.7686	449.645	1.285839	0.101006	0.100535	454.982	54494.3	0.094744	0.279065	1630.38	94247.8
506	2.000000	1.288821	7.37001e+06	-51789.1	1005.82	-29751.1	0.000000	0.000000	7.308877	468.64	NaN	0.000000	0.001650	0.001730	28.0809	103.705	0.001827	56774.9	5.910553	168.983	469.09	1.288532	0.103518	0.103229	468.64	56774.9	0.097327	0.292695	1601.12	95878.6
506	2.000000	1.289806	7.37001e+06	-51789.1	1005.82	-29751.1	0.000000	0.000000	7.310199	476.823	NaN	0.000000	0.001664	0.001688	28.0807	105.813	0.001910	55388	5.513694	169.741	477.604	1.289518	0.104502	0.104214	476.823	55388	0.098046	0.296543	1607.94	92927.7