File: remote_trans/data/nanoindenter/0828-1/data/Data_2025-08-06,11h17m57s/2025-07-22_16-23-58_1_1159.txt
2025-07-22, 16:23:58, 1
Index	Phase	Displacement	Time	Pos X	Pos Y	Pos Z	Rot A	Rot B	Piezo Z	Force A	Force B	Gripper	Voltage A	Voltage B	Temperature	Amplitude force	Amplitude pos	Stiffness	Phase shift	Phase excitation	Force A raw	Displacement raw	HMax	HMax raw	Real Force	Real Stiffness	Contact Depth	Area	Hardness	Reduced Mod.
[#]	[#]	[um]	[s]	[um]	[um]	[um]	[m°]	[m°]	[um]	[uN]	[uN]	[V]	[V]	[V]	[°C]	[uN]	[um]	[N/m]	[°]	[°]	[uN]	[um]	[um]	[um]	[uN]	[N/m]	[um]	[um^2]	[MPa]	[MPa]
1159	1.000000	0.003147	7.37639e+06	-57639.1	1105.82	-29736.6	0.000000	0.000000	6.002802	-0.028444	NaN	0.000000	0.001653	0.001670	28.0819	0.111792	0.000951	117.556	22.3238	-160.763	-0.050888	0.001911	-1.007202	-1.008438	-0.028444	117.556	-1.007021	-2.820218E+13	1.008561E-15	NaN
1159	1.000000	0.011095	7.37639e+06	-57639.1	1105.82	-29736.6	0.000000	0.000000	6.010752	0.013918	NaN	0.000000	0.001658	0.001637	28.0816	0.071098	0.000948	75.027	78.0244	-162.119	0.009988	0.009770	-0.999254	-1.000579	0.013918	75.027	-0.999393	-2.226391E+13	-6.251344E-16	NaN
1159	1.000000	0.019129	7.37639e+06	-57639.1	1105.82	-29736.6	0.000000	0.000000	6.018786	0.011640	NaN	0.000000	0.001642	0.001663	28.0817	0.148566	0.001651	89.9746	172.2	-165.839	-0.000957	0.017753	-0.991220	-0.992597	0.011640	89.9746	-0.991317	-1.733206E+13	-6.715885E-16	NaN
1159	1.000000	0.027134	7.37639e+06	-57639.1	1105.82	-29736.6	0.000000	0.000000	6.026788	-0.063209	NaN	0.000000	0.001658	0.001609	28.0816	0.048614	0.001957	24.846	87.7454	-163.454	-0.060041	0.025731	-0.983215	-0.984618	-0.063209	24.846	-0.981307	-1.270627E+13	4.974657E-15	NaN
1159	1.000000	0.035082	7.37639e+06	-57639.1	1105.82	-29736.6	0.000000	0.000000	6.034739	-0.007672	NaN	0.000000	0.001631	0.001627	28.0816	0.033794	0.001881	17.9669	-117.91	-165.23	0.007490	0.033790	-0.975267	-0.976559	-0.007672	17.9669	-0.974947	-1.043090E+13	7.355189E-16	NaN
1159	1.000000	0.043059	7.37639e+06	-57639.1	1105.82	-29736.6	0.000000	0.000000	6.042714	-0.032546	NaN	0.000000	0.001656	0.001647	28.0822	0.134952	0.002066	65.316	-25.6299	-163.254	-0.002368	0.041769	-0.967290	-0.968580	-0.032546	65.316	-0.966917	-8.130304E+12	4.003093E-15	NaN
1159	1.000000	0.051110	7.37639e+06	-57639.1	1105.82	-29736.6	0.000000	0.000000	6.050766	-0.015587	NaN	0.000000	0.001650	0.001686	28.0814	0.089661	0.001987	45.1266	-172.229	-164.093	-0.015020	0.049762	-0.959240	-0.960587	-0.015587	45.1266	-0.958981	-6.355141E+12	2.452697E-15	NaN
1159	1.000000	0.059090	7.37639e+06	-57639.1	1105.82	-29736.6	0.000000	0.000000	6.058748	0.022347	NaN	0.000000	0.001641	0.001665	28.0816	0.040742	0.002032	20.0488	108.717	-166.373	0.025314	0.057760	-0.951259	-0.952589	0.022347	20.0488	-0.952095	-5.131940E+12	-4.354397E-15	NaN
1159	1.000000	0.067110	7.37639e+06	-57639.1	1105.82	-29736.6	0.000000	0.000000	6.066765	-0.055440	NaN	0.000000	0.001631	0.001657	28.0815	0.129728	0.001903	68.1632	-15.0163	-167.539	-0.039702	0.065835	-0.943239	-0.944515	-0.055440	68.1632	-0.942629	-3.824730E+12	1.449522E-14	NaN
1159	1.000000	0.075104	7.37639e+06	-57639.1	1105.82	-29736.6	0.000000	0.000000	6.074756	-0.116865	NaN	0.000000	0.001670	0.001625	28.0813	0.059456	0.001904	31.2299	-92.6958	-166.852	-0.219994	0.073770	-0.935245	-0.936579	-0.116865	31.2299	-0.932438	-2.786795E+12	4.193510E-14	NaN
1159	1.000000	0.083109	7.37639e+06	-57639.1	1105.82	-29736.6	0.000000	0.000000	6.082765	-0.039697	NaN	0.000000	0.001615	0.001638	28.0818	0.110199	0.002095	52.5909	-116.515	-165.298	-0.031495	0.081796	-0.927240	-0.928553	-0.039697	52.5909	-0.926674	-2.329694E+12	1.703979E-14	NaN
1159	1.000000	0.091090	7.37639e+06	-57639.1	1105.82	-29736.6	0.000000	0.000000	6.090747	0.026108	NaN	0.000000	0.001627	0.001665	28.0818	0.010856	0.001946	5.578396	151.097	-165.15	0.014076	0.089811	-0.919259	-0.920538	0.026108	5.578396	-0.922770	-2.063466E+12	-1.265236E-14	NaN
1159	1.000000	0.099121	7.37639e+06	-57639.1	1105.82	-29736.6	0.000000	0.000000	6.098775	-0.050149	NaN	0.000000	0.001621	0.001655	28.082	0.135778	0.002044	66.4417	-77.4149	-166.946	-0.034641	0.097832	-0.911229	-0.912517	-0.050149	66.4417	-0.910662	-1.416154E+12	3.541232E-14	NaN
1159	1.000000	0.107093	7.37639e+06	-57639.1	1105.82	-29736.6	0.000000	0.000000	6.106747	-0.062664	NaN	0.000000	0.001653	0.001662	28.0815	0.062669	0.001955	32.0578	112.98	-165.56	-0.028244	0.105811	-0.903256	-0.904538	-0.062664	32.0578	-0.901790	-1.074622E+12	5.831297E-14	NaN
1159	1.000000	0.115129	7.37639e+06	-57639.1	1105.82	-29736.6	0.000000	0.000000	6.114785	-0.028382	NaN	0.000000	0.001648	0.001685	28.0815	0.129281	0.001975	65.4593	-57.134	-164.581	0.007880	0.113823	-0.895220	-0.896526	-0.028382	65.4593	-0.894895	-8.671098E+11	3.273222E-14	NaN
1159	1.000000	0.123112	7.37639e+06	-57639.1	1105.82	-29736.6	0.000000	0.000000	6.122768	-0.005344	NaN	0.000000	0.001618	0.001682	28.0805	0.089050	0.001884	47.2759	59.0078	-166.559	-0.056442	0.121829	-0.887238	-0.888521	-0.005344	47.2759	-0.887153	-6.814353E+11	7.842118E-15	NaN
1159	1.000000	0.131116	7.37639e+06	-57639.1	1105.82	-29736.6	0.000000	0.000000	6.130774	0.036674	NaN	0.000000	0.001651	0.001653	28.0802	0.032942	0.002001	16.4621	-175.321	-163.129	-0.001464	0.129838	-0.879233	-0.880511	0.036674	16.4621	-0.880904	-5.609677E+11	-6.537680E-14	NaN
1159	1.000000	0.139122	7.37639e+06	-57639.1	1105.82	-29736.6	0.000000	0.000000	6.138780	0.041229	NaN	0.000000	0.001631	0.001628	28.0807	0.080658	0.001920	42.016	121.248	-164.829	0.062042	0.137836	-0.871227	-0.872513	0.041229	42.016	-0.871963	-4.246207E+11	-9.709563E-14	NaN
1159	1.000000	0.147138	7.37639e+06	-57639.1	1105.82	-29736.6	0.000000	0.000000	6.146796	0.045639	NaN	0.000000	0.001642	0.001664	28.0805	0.054119	0.001998	27.0863	49.8642	-165.189	-0.044420	0.145851	-0.863212	-0.864498	0.045639	27.0863	-0.864475	-3.362705E+11	-1.357211E-13	NaN
1159	1.000000	0.155120	7.37639e+06	-57639.1	1105.82	-29736.6	0.000000	0.000000	6.154775	-0.027767	NaN	0.000000	0.001636	0.001685	28.0803	0.036450	0.001976	18.4471	120.734	-166.25	-0.043480	0.153827	-0.855230	-0.856522	-0.027767	18.4471	-0.854101	-2.433669E+11	1.140965E-13	NaN
1159	1.000000	0.163140	7.37639e+06	-57639.1	1105.82	-29736.6	0.000000	0.000000	6.162796	-0.021811	NaN	0.000000	0.001645	0.001685	28.0806	0.058442	0.001834	31.8622	76.3211	-165.723	0.011850	0.161816	-0.847209	-0.848533	-0.021811	31.8622	-0.846696	-1.931938E+11	1.128994E-13	NaN
1159	1.000000	0.171153	7.37639e+06	-57639.1	1105.82	-29736.6	0.000000	0.000000	6.170809	-0.006821	NaN	0.000000	0.001627	0.001667	28.0802	0.133727	0.001882	71.0597	93.849	-164.839	-0.043966	0.169787	-0.839196	-0.840562	-0.006821	71.0597	-0.839124	-1.525564E+11	4.470837E-14	NaN
1159	1.000000	0.179134	7.37639e+06	-57639.1	1105.82	-29736.6	0.000000	0.000000	6.178794	0.071960	NaN	0.000000	0.001654	0.001677	28.0803	0.022977	0.002005	11.4579	122.891	-166.914	0.045129	0.177807	-0.831215	-0.832542	0.071960	11.4579	-0.835925	-1.380644E+11	-5.212087E-13	NaN
1159	1.000000	0.187145	7.37639e+06	-57639.1	1105.82	-29736.6	0.000000	0.000000	6.186802	0.002989	NaN	0.000000	0.001647	0.001665	28.0804	0.091677	0.001869	49.0424	-9.826173	-162.751	-0.024765	0.185796	-0.823204	-0.824553	0.002989	49.0424	-0.823250	-9.295514E+10	-3.215225E-14	NaN
1159	1.000000	0.195152	7.37639e+06	-57639.1	1105.82	-29736.6	0.000000	0.000000	6.194808	-0.028744	NaN	0.000000	0.001678	0.001681	28.0808	0.081491	0.002050	39.7448	-15.8682	-164.735	-0.006976	0.193804	-0.815197	-0.816545	-0.028744	39.7448	-0.814654	-7.107402E+10	4.044290E-13	NaN
1159	1.000000	0.203145	7.37639e+06	-57639.1	1105.82	-29736.6	0.000000	0.000000	6.202801	-0.002606	NaN	0.000000	0.001636	0.001675	28.0806	0.090017	0.002035	44.2238	-75.4697	-167.198	0.010357	0.201856	-0.807204	-0.808493	-0.002606	44.2238	-0.807160	-5.623930E+10	4.633876E-14	NaN
1159	1.000000	0.211162	7.37639e+06	-57639.1	1105.82	-29736.6	0.000000	0.000000	6.210817	-0.033607	NaN	0.000000	0.001666	0.001669	28.0804	0.085840	0.001997	42.9796	-24.8536	-161.579	-0.132907	0.209833	-0.799187	-0.800516	-0.033607	42.9796	-0.798601	-4.303933E+10	7.808457E-13	NaN
1159	1.000000	0.219127	7.37639e+06	-57639.1	1105.82	-29736.6	0.000000	0.000000	6.218784	0.023095	NaN	0.000000	0.001677	0.001660	28.0805	0.115451	0.002005	57.5794	-121.991	-167.033	-0.038027	0.217822	-0.791223	-0.792527	0.023095	57.5794	-0.791523	-3.449630E+10	-6.694896E-13	NaN
1159	1.000000	0.227144	7.37639e+06	-57639.1	1105.82	-29736.6	0.000000	0.000000	6.226802	0.034771	NaN	0.000000	0.001653	0.001669	28.0805	0.137322	0.001924	71.376	123.337	-165.496	-0.035817	0.225843	-0.783205	-0.784506	0.034771	71.376	-0.783570	-2.689941E+10	-1.292643E-12	NaN
1159	1.000000	0.235170	7.37639e+06	-57639.1	1105.82	-29736.6	0.000000	0.000000	6.234825	-0.049298	NaN	0.000000	0.001662	0.001684	28.0806	0.064885	0.001895	34.2349	-90.6091	-166.538	-0.049947	0.233827	-0.775179	-0.776522	-0.049298	34.2349	-0.774099	-2.000001E+10	2.464897E-12	NaN
1159	1.000000	0.243198	7.37639e+06	-57639.1	1105.82	-29736.6	0.000000	0.000000	6.242856	0.038131	NaN	0.000000	0.001659	0.001662	28.0805	0.072517	0.001871	38.7483	-99.598	-165.048	-0.001000	0.241820	-0.767151	-0.768529	0.038131	38.7483	-0.767889	-1.646671E+10	-2.315615E-12	NaN
1159	1.000000	0.251163	7.37639e+06	-57639.1	1105.82	-29736.6	0.000000	0.000000	6.250821	0.027126	NaN	0.000000	0.001646	0.001630	28.0805	0.127382	0.001982	64.2848	84.6955	-164.317	-0.004098	0.249882	-0.759186	-0.760467	0.027126	64.2848	-0.759502	-1.266282E+10	-2.142158E-12	NaN
1159	1.000000	0.259181	7.37639e+06	-57639.1	1105.82	-29736.6	0.000000	0.000000	6.258837	-0.031610	NaN	0.000000	0.001634	0.001647	28.0815	0.051018	0.002047	24.9196	41.9601	-167.32	0.055228	0.257880	-0.751168	-0.752469	-0.031610	24.9196	-0.750216	-9.465954E+9	3.339325E-12	NaN
1159	1.000000	0.267182	7.37639e+06	-57639.1	1105.82	-29736.6	0.000000	0.000000	6.266840	0.013324	NaN	0.000000	0.001659	0.001645	28.0815	0.025986	0.001935	13.4272	40.138	-165.259	0.094705	0.265896	-0.743167	-0.744453	0.013324	13.4272	-0.743911	-7.768154E+9	-1.715180E-12	NaN
1159	1.000000	0.275207	7.37639e+06	-57639.1	1105.82	-29736.6	0.000000	0.000000	6.274861	-0.078925	NaN	0.000000	0.001655	0.001658	28.0816	0.041536	0.001884	22.0417	54.2239	-169.273	-0.060494	0.273842	-0.735142	-0.736507	-0.078925	22.0417	-0.732457	-5.423574E+9	1.455227E-11	NaN
1159	1.000000	0.283188	7.37639e+06	-57639.1	1105.82	-29736.6	0.000000	0.000000	6.282842	-0.072918	NaN	0.000000	0.001658	0.001647	28.0816	0.073580	0.002006	36.6715	-122.928	-167.286	-0.042677	0.281868	-0.727161	-0.728481	-0.072918	36.6715	-0.725670	-4.383141E+9	1.663597E-11	NaN
1159	1.000000	0.291193	7.37639e+06	-57639.1	1105.82	-29736.6	0.000000	0.000000	6.290848	-0.052309	NaN	0.000000	0.001686	0.001653	28.0818	0.069507	0.002096	33.157	-57.1531	-161.742	-0.043809	0.289849	-0.719156	-0.720501	-0.052309	33.157	-0.717973	-3.442103E+9	1.519687E-11	NaN
1159	1.000000	0.299186	7.37639e+06	-57639.1	1105.82	-29736.6	0.000000	0.000000	6.298842	-0.014790	NaN	0.000000	0.001655	0.001644	28.0814	0.115121	0.001974	58.3146	174.073	-162.878	-0.094555	0.297884	-0.711163	-0.712465	-0.014790	58.3146	-0.710973	-2.762618E+9	5.353719E-12	NaN
1159	1.000000	0.307204	7.37639e+06	-57639.1	1105.82	-29736.6	0.000000	0.000000	6.306860	-0.015559	NaN	0.000000	0.001679	0.001639	28.0817	0.057190	0.002122	26.9471	-167.839	-166.431	-0.040518	0.305894	-0.703145	-0.704455	-0.015559	26.9471	-0.702712	-2.130894E+9	7.301575E-12	NaN
1159	1.000000	0.315212	7.37639e+06	-57639.1	1105.82	-29736.6	0.000000	0.000000	6.314868	-0.003132	NaN	0.000000	0.001664	0.001684	28.0814	0.087141	0.001910	45.6197	-98.2271	-162.513	0.088022	0.313904	-0.695137	-0.696445	-0.003132	45.6197	-0.695086	-1.676531E+9	1.868075E-12	NaN
1159	1.000000	0.323203	7.37639e+06	-57639.1	1105.82	-29736.6	0.000000	0.000000	6.322861	0.030375	NaN	0.000000	0.001626	0.001705	28.0815	0.057918	0.002120	27.3231	-125.179	-164.652	0.054833	0.321859	-0.687147	-0.688490	0.030375	27.3231	-0.687980	-1.340647E+9	-2.265664E-11	NaN
1159	1.000000	0.331199	7.37639e+06	-57639.1	1105.82	-29736.6	0.000000	0.000000	6.330855	-0.014198	NaN	0.000000	0.001643	0.001684	28.0815	0.079844	0.002008	39.7556	-62.4883	-164.663	0.027035	0.329900	-0.679150	-0.680449	-0.014198	39.7556	-0.678882	-1.006733E+9	1.410318E-11	NaN
1159	1.000000	0.339228	7.37639e+06	-57639.1	1105.82	-29736.6	0.000000	0.000000	6.338885	0.007891	NaN	0.000000	0.001682	0.001696	28.0813	0.036499	0.002008	18.1782	51.8751	-163.277	-0.045846	0.337900	-0.671121	-0.672449	0.007891	18.1782	-0.671447	-7.965128E+8	-9.907330E-12	NaN
1159	1.000000	0.347206	7.37639e+06	-57639.1	1105.82	-29736.6	0.000000	0.000000	6.346860	-0.047833	NaN	0.000000	0.001641	0.001724	28.0816	0.084378	0.002191	38.5038	-161.421	-166.605	-0.047714	0.345879	-0.663144	-0.664470	-0.047833	38.5038	-0.662212	-5.953374E+8	8.034643E-11	NaN
1159	1.000000	0.355242	7.37639e+06	-57639.1	1105.82	-29736.6	0.000000	0.000000	6.354900	0.030565	NaN	0.000000	0.001676	0.001661	28.0813	0.033506	0.001813	18.4791	-79.3477	-165.445	-0.003158	0.353927	-0.655107	-0.656422	0.030565	18.4791	-0.656348	-4.948050E+8	-6.177174E-11	NaN
1159	1.000000	0.363208	7.37639e+06	-57639.1	1105.82	-29736.6	0.000000	0.000000	6.362863	-0.058978	NaN	0.000000	0.001680	0.001686	28.0815	0.049061	0.002014	24.363	-132.854	-163.382	-0.028484	0.361911	-0.647141	-0.648438	-0.058978	24.363	-0.645325	-3.494127E+8	1.687915E-10	NaN
1159	1.000000	0.371205	7.37639e+06	-57639.1	1105.82	-29736.6	0.000000	0.000000	6.370861	-0.010539	NaN	0.000000	0.001627	0.001707	28.0814	0.107578	0.002050	52.4723	120.867	-164.9	-0.029415	0.369924	-0.639145	-0.640425	-0.010539	52.4723	-0.638994	-2.860782E+8	3.684100E-11	NaN
1159	1.000000	0.379217	7.37639e+06	-57639.1	1105.82	-29736.6	0.000000	0.000000	6.378876	0.054455	NaN	0.000000	0.001671	0.001705	28.0814	0.068919	0.002082	33.1073	-79.5801	-166.701	0.044004	0.377888	-0.631132	-0.632461	0.054455	33.1073	-0.632366	-2.320110E+8	-2.347080E-10	NaN
1159	1.000000	0.387231	7.37639e+06	-57639.1	1105.82	-29736.6	0.000000	0.000000	6.386889	0.031765	NaN	0.000000	0.001648	0.001667	28.0815	0.147043	0.001890	77.7896	-54.2653	-161.034	0.051389	0.385872	-0.623118	-0.624478	0.031765	77.7896	-0.623424	-1.748615E+8	-1.816594E-10	NaN
1159	1.000000	0.395224	7.37639e+06	-57639.1	1105.82	-29736.6	0.000000	0.000000	6.394882	0.032747	NaN	0.000000	0.001659	0.001689	28.0803	0.041505	0.001870	22.1916	46.2061	-164.395	0.004067	0.393908	-0.615125	-0.616441	0.032747	22.1916	-0.616232	-1.392626E+8	-2.351466E-10	NaN
1159	1.000000	0.403237	7.37639e+06	-57639.1	1105.82	-29736.6	0.000000	0.000000	6.402895	0.042105	NaN	0.000000	0.001664	0.001688	28.0802	0.128566	0.002033	63.2251	109.987	-163.804	0.059992	0.401959	-0.607112	-0.608390	0.042105	63.2251	-0.607612	-1.059866E+8	-3.972699E-10	NaN
1159	1.000000	0.411238	7.37639e+06	-57639.1	1105.82	-29736.6	0.000000	0.000000	6.410895	0.017151	NaN	0.000000	0.001638	0.001709	28.0803	0.080189	0.002110	38.001	-131.813	-162.947	0.037552	0.409946	-0.599112	-0.600403	0.017151	38.001	-0.599450	-8.182494E+7	-2.096116E-10	NaN
1159	1.000000	0.419230	7.37639e+06	-57639.1	1105.82	-29736.6	0.000000	0.000000	6.418887	0.009427	NaN	0.000000	0.001653	0.001715	28.0803	0.039290	0.002031	19.3429	-98.726	-163.841	-0.044349	0.417960	-0.591119	-0.592389	0.009427	19.3429	-0.591485	-6.355308E+7	-1.483406E-10	NaN
1159	1.000000	0.427242	7.37639e+06	-57639.1	1105.82	-29736.6	0.000000	0.000000	6.426900	0.025938	NaN	0.000000	0.001666	0.001672	28.0803	0.082559	0.002026	40.7417	-140.878	-167.275	0.033803	0.425967	-0.583107	-0.584382	0.025938	40.7417	-0.583584	-4.945210E+7	-5.245103E-10	NaN
1159	1.000000	0.435244	7.37639e+06	-57639.1	1105.82	-29736.6	0.000000	0.000000	6.434901	0.018241	NaN	0.000000	0.001644	0.001711	28.0801	0.060641	0.001997	30.3689	-103.062	-164.875	0.034219	0.433968	-0.575106	-0.576381	0.018241	30.3689	-0.575556	-3.831574E+7	-4.760805E-10	NaN
1159	1.000000	0.443237	7.37639e+06	-57639.1	1105.82	-29736.6	0.000000	0.000000	6.442894	-0.002723	NaN	0.000000	0.001634	0.001681	28.0801	0.031513	0.001899	16.5989	150.309	-163.711	0.039025	0.441905	-0.567112	-0.568444	-0.002723	16.5989	-0.566989	-2.917558E+7	9.334322E-11	NaN
1159	1.000000	0.451267	7.37639e+06	-57639.1	1105.82	-29736.6	0.000000	0.000000	6.450920	-0.098114	NaN	0.000000	0.001659	0.001686	28.0801	0.061028	0.001908	31.9925	125.12	-164.163	-0.092494	0.449929	-0.559082	-0.560420	-0.098114	31.9925	-0.556782	-2.107904E+7	4.654589E-9	NaN
1159	1.000000	0.459270	7.37639e+06	-57639.1	1105.82	-29736.6	0.000000	0.000000	6.458926	-0.010665	NaN	0.000000	0.001657	0.001708	28.0803	0.058078	0.002071	28.0476	48.2291	-166.997	0.077038	0.457953	-0.551079	-0.552396	-0.010665	28.0476	-0.550794	-1.741627E+7	6.123830E-10	NaN
1159	1.000000	0.467258	7.37639e+06	-57639.1	1105.82	-29736.6	0.000000	0.000000	6.466912	-0.059978	NaN	0.000000	0.001661	0.001703	28.0801	0.015876	0.002101	7.557357	-15.578	-166.61	-0.094451	0.465977	-0.543091	-0.544372	-0.059978	7.557357	-0.537139	-1.126340E+7	5.325074E-9	NaN
1159	1.000000	0.475261	7.37639e+06	-57639.1	1105.82	-29736.6	0.000000	0.000000	6.474915	-0.064297	NaN	0.000000	0.001665	0.001680	28.0803	0.077267	0.002115	36.5347	-158.393	-165.984	-0.122896	0.473935	-0.535088	-0.536415	-0.064297	36.5347	-0.533768	-1.011329E+7	6.357700E-9	NaN
1159	1.000000	0.483258	7.37639e+06	-57639.1	1105.82	-29736.6	0.000000	0.000000	6.482912	-0.053422	NaN	0.000000	0.001698	0.001690	28.0801	0.112588	0.001964	57.3345	35.7978	-167.796	-0.025313	0.481959	-0.527091	-0.528390	-0.053422	57.3345	-0.526392	-7.98839e+06	6.687486E-9	NaN
1159	1.000000	0.491278	7.37639e+06	-57639.1	1105.82	-29736.6	0.000000	0.000000	6.490934	0.006743	NaN	0.000000	0.001636	0.001707	28.0805	0.030418	0.002053	14.8191	-101.341	-164.853	-0.108459	0.489952	-0.519072	-0.520397	0.006743	14.8191	-0.519413	-6.38898e+06	-1.055368E-9	NaN
1159	1.000000	0.499291	7.37639e+06	-57639.1	1105.82	-29736.6	0.000000	0.000000	6.498947	-0.023242	NaN	0.000000	0.001749	0.001661	28.0802	0.028714	0.001996	14.3859	165.515	-167.633	0.006688	0.498038	-0.511058	-0.512311	-0.023242	14.3859	-0.509846	-4.70188e+06	4.943167E-9	NaN
1159	1.000000	0.507275	7.37639e+06	-57639.1	1105.82	-29736.6	0.000000	0.000000	6.506931	-0.017555	NaN	0.000000	0.001720	0.001675	28.0802	0.019011	0.001978	9.610974	175.143	-165.073	0.034893	0.506001	-0.503074	-0.504349	-0.017555	9.610974	-0.501705	-3.62072e+06	4.848367E-9	NaN
1159	1.000000	0.515314	7.37639e+06	-57639.1	1105.82	-29736.6	0.000000	0.000000	6.514971	0.026844	NaN	0.000000	0.001743	0.001696	28.0804	0.072327	0.002016	35.8727	1.937490	-166.572	0.043398	0.513951	-0.495036	-0.496398	0.026844	35.8727	-0.495597	-2.97555e+06	-9.021636E-9	NaN
1159	1.000000	0.523296	7.37639e+06	-57639.1	1105.82	-29736.6	0.000000	0.000000	6.522953	0.010410	NaN	0.000000	0.001730	0.001639	28.0803	0.094957	0.001951	48.6611	-44.2276	-167.631	0.009674	0.521956	-0.487053	-0.488393	0.010410	48.6611	-0.487214	-2.27221e+06	-4.581529E-9	NaN
1159	1.000000	0.531320	7.37639e+06	-57639.1	1105.82	-29736.6	0.000000	0.000000	6.530976	-0.014150	NaN	0.000000	0.001740	0.001672	28.0815	0.066694	0.001977	33.7396	82.8091	-168.669	0.029987	0.530010	-0.479030	-0.480339	-0.014150	33.7396	-0.478715	-1.72797e+06	8.188670E-9	NaN
1159	1.000000	0.539288	7.37639e+06	-57639.1	1105.82	-29736.6	0.000000	0.000000	6.538944	-0.025913	NaN	0.000000	0.001744	0.001655	28.0814	0.097863	0.002003	48.8585	69.8965	-167.876	-0.035292	0.537937	-0.471061	-0.472412	-0.025913	48.8585	-0.470663	-1.33262e+06	1.944519E-8	NaN
1159	1.000000	0.547276	7.37639e+06	-57639.1	1105.82	-29736.6	0.000000	0.000000	6.546933	0.007041	NaN	0.000000	0.001735	0.001663	28.0815	0.037985	0.002018	18.8223	-92.689	-164.715	0.023436	0.545989	-0.463073	-0.464360	0.007041	18.8223	-0.463354	-1.05229e+06	-6.690875E-9	NaN
1159	1.000000	0.555291	7.37639e+06	-57639.1	1105.82	-29736.6	0.000000	0.000000	6.554947	-0.021332	NaN	0.000000	0.001724	0.001686	28.0815	0.046224	0.002012	22.9782	-118.258	-161.21	0.012351	0.553969	-0.455058	-0.456380	-0.021332	22.9782	-0.454362	-786582	2.711983E-8	NaN
1159	1.000000	0.563313	7.37639e+06	-57639.1	1105.82	-29736.6	0.000000	0.000000	6.562970	-0.000233	NaN	0.000000	0.001756	0.001708	28.0816	0.081931	0.001925	42.5665	78.3334	-166.645	-0.011678	0.562041	-0.447036	-0.448308	-0.000233	42.5665	-0.447032	-620199	3.752050E-10	NaN
1159	1.000000	0.571325	7.37639e+06	-57639.1	1105.82	-29736.6	0.000000	0.000000	6.570980	-0.056678	NaN	0.000000	0.001758	0.001694	28.0819	0.063739	0.001968	32.3852	-19.0819	-162.838	-0.129450	0.570073	-0.439024	-0.440276	-0.056678	32.3852	-0.437711	-458197	1.236970E-7	NaN
1159	1.000000	0.579298	7.37639e+06	-57639.1	1105.82	-29736.6	0.000000	0.000000	6.578953	-0.045026	NaN	0.000000	0.001759	0.001700	28.0817	0.111800	0.001911	58.4932	-140.452	-164.245	-0.094047	0.578012	-0.431051	-0.432337	-0.045026	58.4932	-0.430474	-362048	1.243638E-7	NaN
1159	1.000000	0.587339	7.37639e+06	-57639.1	1105.82	-29736.6	0.000000	0.000000	6.586995	-0.005658	NaN	0.000000	0.001760	0.001690	28.0814	0.019353	0.001960	9.874177	86.3483	-165.013	-0.032139	0.585975	-0.423010	-0.424374	-0.005658	9.874177	-0.422581	-279900	2.021347E-8	NaN
1159	1.000000	0.595323	7.37639e+06	-57639.1	1105.82	-29736.6	0.000000	0.000000	6.594975	-0.104446	NaN	0.000000	0.001729	0.001729	28.0816	0.100357	0.001950	51.471	-108.415	-166.817	-0.126530	0.594045	-0.415026	-0.416304	-0.104446	51.471	-0.413504	-208071	5.019713E-7	NaN
1159	1.000000	0.603323	7.37639e+06	-57639.1	1105.82	-29736.6	0.000000	0.000000	6.602979	-0.022994	NaN	0.000000	0.001729	0.001662	28.0816	0.030893	0.001999	15.4531	-89.9365	-163.251	0.031385	0.602004	-0.407026	-0.408345	-0.022994	15.4531	-0.405910	-162259	1.417121E-7	NaN
1159	1.000000	0.611363	7.37639e+06	-57639.1	1105.82	-29736.6	0.000000	0.000000	6.611018	-0.028341	NaN	0.000000	0.001718	0.001634	28.0817	0.031021	0.002091	14.8382	1.395770	-160.941	0.006935	0.610029	-0.398987	-0.400320	-0.028341	14.8382	-0.397554	-123339	2.297784E-7	NaN
1159	1.000000	0.619343	7.37639e+06	-57639.1	1105.82	-29736.6	0.000000	0.000000	6.618999	-0.011243	NaN	0.000000	0.001737	0.001685	28.0818	0.049126	0.001948	25.2184	-15.1651	-167.015	0.008148	0.618033	-0.391007	-0.392316	-0.011243	25.2184	-0.390672	-98351.5	1.143117E-7	NaN
1159	1.000000	0.627339	7.37639e+06	-57639.1	1105.82	-29736.6	0.000000	0.000000	6.626998	0.063330	NaN	0.000000	0.001696	0.001645	28.0819	0.116340	0.002024	57.4908	147.311	-168.165	0.071599	0.626004	-0.383010	-0.384345	0.063330	57.4908	-0.383836	-78506.9	-8.066800E-7	NaN
1159	1.000000	0.635319	7.37639e+06	-57639.1	1105.82	-29736.6	0.000000	0.000000	6.634974	-0.036569	NaN	0.000000	0.001672	0.001661	28.0818	0.055461	0.002045	27.1154	165.62	-165.898	0.036954	0.634019	-0.375031	-0.376331	-0.036569	27.1154	-0.374019	-56750.1	6.443835E-7	NaN
1159	1.000000	0.643360	7.37639e+06	-57639.1	1105.82	-29736.6	0.000000	0.000000	6.643016	-0.017919	NaN	0.000000	0.001706	0.001610	28.0817	0.071777	0.001948	36.8377	178.715	-165.634	-0.048875	0.642003	-0.366989	-0.368346	-0.017919	36.8377	-0.366624	-44410.2	4.034860E-7	NaN
1159	1.000000	0.651334	7.37639e+06	-57639.1	1105.82	-29736.6	0.000000	0.000000	6.650992	0.030534	NaN	0.000000	0.001614	0.001656	28.0817	0.064936	0.002134	30.4223	-145.787	-165.897	-0.006616	0.650035	-0.359015	-0.360314	0.030534	30.4223	-0.359768	-35357.9	-8.635545E-7	NaN
1159	1.000000	0.659335	7.37639e+06	-57639.1	1105.82	-29736.6	0.000000	0.000000	6.658994	0.043934	NaN	0.000000	0.001649	0.001635	28.0819	0.195053	0.002000	97.5107	68.5431	-164.903	0.021953	0.658010	-0.351014	-0.352339	0.043934	97.5107	-0.351352	-26706.3	-1.645068E-6	NaN
1159	1.000000	0.667353	7.37639e+06	-57639.1	1105.82	-29736.6	0.000000	0.000000	6.667010	0.002958	NaN	0.000000	0.001700	0.001664	28.0813	0.057162	0.001958	29.2008	-45.689	-161.339	0.065469	0.666036	-0.342996	-0.344314	0.002958	29.2008	-0.343072	-20244.1	-1.461318E-7	NaN
1159	1.000000	0.675365	7.37639e+06	-57639.1	1105.82	-29736.6	0.000000	0.000000	6.675021	-0.031421	NaN	0.000000	0.001627	0.001686	28.0806	0.153711	0.001931	79.6044	143.492	-162.885	-0.050518	0.674102	-0.334984	-0.336247	-0.031421	79.6044	-0.334688	-15276.6	2.056778E-6	NaN
1159	1.000000	0.683384	7.37639e+06	-57639.1	1105.82	-29736.6	0.000000	0.000000	6.683041	-0.012817	NaN	0.000000	0.001628	0.001653	28.0805	0.084660	0.002017	41.9751	29.918	-163.43	-0.026568	0.682041	-0.326965	-0.328308	-0.012817	41.9751	-0.326736	-11684.5	1.096909E-6	NaN
1159	1.000000	0.691353	7.37639e+06	-57639.1	1105.82	-29736.6	0.000000	0.000000	6.691010	-0.007938	NaN	0.000000	0.001638	0.001667	28.0805	0.069746	0.002050	34.022	162.951	-163.389	-0.044266	0.690033	-0.318996	-0.320316	-0.007938	34.022	-0.318821	-8938.74	8.880912E-7	NaN
1159	1.000000	0.699384	7.37639e+06	-57639.1	1105.82	-29736.6	0.000000	0.000000	6.699042	0.028898	NaN	0.000000	0.001641	0.001656	28.0807	0.048619	0.002093	23.2263	-123.739	-167.143	0.097675	0.698053	-0.310965	-0.312296	0.028898	23.2263	-0.311898	-7065.33	-4.090085E-6	NaN
1159	1.000000	0.707368	7.37639e+06	-57639.1	1105.82	-29736.6	0.000000	0.000000	6.707026	0.024479	NaN	0.000000	0.001608	0.001706	28.0805	0.019519	0.001951	10.0029	123.771	-165.545	0.004736	0.706061	-0.302981	-0.304288	0.024479	10.0029	-0.304816	-5549.13	-4.411240E-6	NaN
1159	1.000000	0.715349	7.37639e+06	-57639.1	1105.82	-29736.6	0.000000	0.000000	6.715003	-0.051728	NaN	0.000000	0.001613	0.001688	28.0805	0.040136	0.001958	20.4943	150.676	-166.35	0.017161	0.714024	-0.295000	-0.296325	-0.051728	20.4943	-0.293107	-3713.72	1.392885E-5	NaN
1159	1.000000	0.723358	7.37639e+06	-57639.1	1105.82	-29736.6	0.000000	0.000000	6.723013	-0.039438	NaN	0.000000	0.001614	0.001674	28.0807	0.067290	0.002035	33.0739	-123.941	-166.512	-0.034441	0.722085	-0.286991	-0.288264	-0.039438	33.0739	-0.286096	-2915.71	1.352611E-5	NaN
1159	1.000000	0.731381	7.37639e+06	-57639.1	1105.82	-29736.6	0.000000	0.000000	6.731035	-0.054425	NaN	0.000000	0.001632	0.001679	28.0805	0.071480	0.002015	35.4813	64.2625	-166	-0.013514	0.730106	-0.278968	-0.280243	-0.054425	35.4813	-0.277818	-2187.89	2.487550E-5	NaN
1159	1.000000	0.739393	7.37639e+06	-57639.1	1105.82	-29736.6	0.000000	0.000000	6.739051	0.032648	NaN	0.000000	0.001681	0.001670	28.0806	0.064611	0.002070	31.2138	-154.966	-161.237	0.016103	0.738071	-0.270956	-0.272278	0.032648	31.2138	-0.271741	-1770.05	-1.844485E-5	NaN
1159	1.000000	0.747390	7.37639e+06	-57639.1	1105.82	-29736.6	0.000000	0.000000	6.747046	-0.006226	NaN	0.000000	0.001654	0.001702	28.0813	0.024268	0.001859	13.0549	76.1123	-164.962	-0.060352	0.746080	-0.262959	-0.264270	-0.006226	13.0549	-0.262602	-1284.54	4.846569E-6	NaN
1159	1.000000	0.755380	7.37639e+06	-57639.1	1105.82	-29736.6	0.000000	0.000000	6.755037	-0.003051	NaN	0.000000	0.001640	0.001658	28.0805	0.008175	0.001950	4.191963	-61.8139	-166.98	0.018420	0.754055	-0.254969	-0.256294	-0.003051	4.191963	-0.254423	-962.116	3.171333E-6	NaN
1159	1.000000	0.763412	7.37639e+06	-57639.1	1105.82	-29736.6	0.000000	0.000000	6.763067	-0.033616	NaN	0.000000	0.001582	0.001707	28.0806	0.049602	0.001995	24.8572	49.6504	-169.264	-0.127473	0.762106	-0.246938	-0.248243	-0.033616	24.8572	-0.245923	-710.875	4.728759E-5	NaN
1159	1.000000	0.771396	7.37639e+06	-57639.1	1105.82	-29736.6	0.000000	0.000000	6.771050	-0.064886	NaN	0.000000	0.001608	0.001665	28.0804	0.072624	0.001986	36.5711	-114.046	-165.328	-0.004424	0.770068	-0.238953	-0.240282	-0.064886	36.5711	-0.237623	-527.681	0.000123	NaN
1159	1.000000	0.779390	7.37639e+06	-57639.1	1105.82	-29736.6	0.000000	0.000000	6.779045	-0.041269	NaN	0.000000	0.001632	0.001670	28.0808	0.048787	0.001859	26.25	125.884	-164.503	-0.068522	0.778058	-0.230959	-0.232292	-0.041269	26.25	-0.229780	-397.233	0.000104	NaN
1159	1.000000	0.787379	7.37639e+06	-57639.1	1105.82	-29736.6	0.000000	0.000000	6.787037	0.032145	NaN	0.000000	0.001632	0.001627	28.0804	0.092843	0.002181	42.5757	-168.362	-163.555	0.034531	0.786108	-0.222970	-0.224241	0.032145	42.5757	-0.223536	-316.273	-0.000102	NaN
1159	1.000000	0.795411	7.37639e+06	-57639.1	1105.82	-29736.6	0.000000	0.000000	6.795065	-0.047497	NaN	0.000000	0.001640	0.001681	28.0805	0.109796	0.002112	51.9794	-113.466	-166.298	-0.052750	0.794085	-0.214939	-0.216264	-0.047497	51.9794	-0.214253	-224.645	0.000211	NaN
1159	1.000000	0.803403	7.37639e+06	-57639.1	1105.82	-29736.6	0.000000	0.000000	6.803062	0.053724	NaN	0.000000	0.001649	0.001673	28.0812	0.113542	0.001897	59.8434	-151.545	-167.499	0.041825	0.802034	-0.206946	-0.208315	0.053724	59.8434	-0.207619	-175.467	-0.000306	NaN
1159	1.000000	0.811397	7.37639e+06	-57639.1	1105.82	-29736.6	0.000000	0.000000	6.811053	-0.033942	NaN	0.000000	0.001657	0.001614	28.0817	0.041951	0.001942	21.6006	160.921	-161.583	-0.058516	0.810043	-0.198952	-0.200306	-0.033942	21.6006	-0.197773	-121.071	0.000280	NaN
1159	1.000000	0.819404	7.37639e+06	-57639.1	1105.82	-29736.6	0.000000	0.000000	6.819059	-0.041866	NaN	0.000000	0.001661	0.001671	28.0818	0.036716	0.002016	18.2113	38.9097	-164.746	-0.008342	0.818147	-0.190945	-0.192203	-0.041866	18.2113	-0.189221	-87.2993	0.000480	NaN
1159	1.000000	0.827429	7.37639e+06	-57639.1	1105.82	-29736.6	0.000000	0.000000	6.827084	-0.038435	NaN	0.000000	0.001668	0.001652	28.0817	0.122372	0.002024	60.4493	53.0016	-165.546	-0.025687	0.826137	-0.182920	-0.184212	-0.038435	60.4493	-0.182444	-67.1341	0.000573	NaN
1159	1.000000	0.835427	7.37639e+06	-57639.1	1105.82	-29736.6	0.000000	0.000000	6.835084	0.000722	NaN	0.000000	0.001607	0.001662	28.0815	0.132992	0.001970	67.5047	10.098	-162.81	-0.001090	0.834142	-0.174922	-0.176207	0.000722	67.5047	-0.174930	-49.9771	-1.445546E-5	NaN
1159	1.000000	0.843425	7.37639e+06	-57639.1	1105.82	-29736.6	0.000000	0.000000	6.843081	-0.031367	NaN	0.000000	0.001636	0.001677	28.0815	0.041122	0.002141	19.2114	-5.274343	-166.036	-0.041663	0.842129	-0.166924	-0.168220	-0.031367	19.2114	-0.165699	-34.5602	0.000908	NaN
1159	1.000000	0.851392	7.37639e+06	-57639.1	1105.82	-29736.6	0.000000	0.000000	6.851047	-0.044466	NaN	0.000000	0.001624	0.001655	28.0819	0.014192	0.002077	6.831963	-54.102	-166.628	0.030189	0.850075	-0.158957	-0.160274	-0.044466	6.831963	-0.154076	-21.475	0.002071	NaN
1159	1.000000	0.859446	7.37639e+06	-57639.1	1105.82	-29736.6	0.000000	0.000000	6.859103	0.005888	NaN	0.000000	0.001645	0.001627	28.0819	0.119864	0.001965	60.9931	-106.529	-163.018	-0.012746	0.858078	-0.150903	-0.152271	0.005888	60.9931	-0.150975	-18.8699	-0.000312	NaN
1159	1.000000	0.867447	7.37639e+06	-57639.1	1105.82	-29736.6	0.000000	0.000000	6.867103	-0.001712	NaN	0.000000	0.001628	0.001676	28.0818	0.135674	0.002022	67.0861	-10.8215	-163.263	0.019054	0.866114	-0.142902	-0.144236	-0.001712	67.0861	-0.142883	-13.3932	0.000128	NaN
1159	1.000000	0.875440	7.37639e+06	-57639.1	1105.82	-29736.6	0.000000	0.000000	6.875098	0.037428	NaN	0.000000	0.001637	0.001662	28.0816	0.164972	0.002198	75.0725	-170.883	-163.239	0.004129	0.874117	-0.134909	-0.136233	0.037428	75.0725	-0.135283	-9.631472	-0.003886	NaN
1159	1.000000	0.883464	7.37639e+06	-57639.1	1105.82	-29736.6	0.000000	0.000000	6.883120	-0.022667	NaN	0.000000	0.001649	0.001649	28.0817	0.019389	0.001855	10.4504	-162.561	-167.3	0.026190	0.882143	-0.126885	-0.128206	-0.022667	10.4504	-0.125258	-6.153106	0.003684	NaN
1159	1.000000	0.891481	7.37639e+06	-57639.1	1105.82	-29736.6	0.000000	0.000000	6.891136	-0.042936	NaN	0.000000	0.001612	0.001675	28.0818	0.077092	0.001912	40.3124	-24.9036	-165.217	-0.009060	0.890120	-0.118868	-0.120229	-0.042936	40.3124	-0.118069	-4.415209	0.009725	NaN
1159	1.000000	0.899449	7.37639e+06	-57639.1	1105.82	-29736.6	0.000000	0.000000	6.899108	0.048207	NaN	0.000000	0.001660	0.001707	28.0815	0.018921	0.002077	9.110318	84.3669	-167.031	-0.007318	0.898118	-0.110900	-0.112231	0.048207	9.110318	-0.114869	-3.796595	-0.012697	NaN
1159	1.000000	0.907416	7.37639e+06	-57639.1	1105.82	-29736.6	0.000000	0.000000	6.907071	-0.029289	NaN	0.000000	0.001661	0.001700	28.0815	0.005470	0.001997	2.739243	-95.783	-166.86	0.032727	0.906110	-0.102933	-0.104240	-0.029289	2.739243	-0.094914	-1.404301	0.020856	NaN
1159	1.000000	0.915462	7.37639e+06	-57639.1	1105.82	-29736.6	0.000000	0.000000	6.915117	-0.023861	NaN	0.000000	0.001672	0.001708	28.0817	0.072507	0.002045	35.4596	149.411	-165.002	-0.038604	0.914119	-0.094887	-0.096230	-0.023861	35.4596	-0.094383	-1.365602	0.017473	NaN
1159	1.000000	0.923461	7.37639e+06	-57639.1	1105.82	-29736.6	0.000000	0.000000	6.923116	-0.043140	NaN	0.000000	0.001658	0.001696	28.0818	0.134696	0.001946	69.2166	139.958	-170.933	-0.026063	0.922193	-0.086888	-0.088156	-0.043140	69.2166	-0.086420	-0.889002	0.048527	NaN
1159	1.000000	0.931461	7.37639e+06	-57639.1	1105.82	-29736.6	0.000000	0.000000	6.931119	0.041819	NaN	0.000000	0.001659	0.001672	28.0818	0.063087	0.001903	33.1453	33.8708	-165.383	-0.004831	0.930103	-0.078888	-0.080247	0.041819	33.1453	-0.079834	-0.613118	-0.068207	NaN
1159	1.000000	0.939455	7.37639e+06	-57639.1	1105.82	-29736.6	0.000000	0.000000	6.939111	-0.018163	NaN	0.000000	0.001647	0.001640	28.0813	0.082837	0.001961	42.2322	-155.205	-163.876	-0.025992	0.938092	-0.070894	-0.072257	-0.018163	42.2322	-0.070572	-0.353330	0.051405	NaN
1159	1.000000	0.947462	7.37639e+06	-57639.1	1105.82	-29736.6	0.000000	0.000000	6.947120	0.014388	NaN	0.000000	0.001631	0.001662	28.0804	0.027533	0.001894	14.5338	121.841	-162.371	0.087840	0.946141	-0.062887	-0.064208	0.014388	14.5338	-0.063629	-0.228232	-0.063042	NaN
1159	1.000000	0.955434	7.37639e+06	-57639.1	1105.82	-29736.6	0.000000	0.000000	6.955093	0.049872	NaN	0.000000	0.001628	0.001682	28.0804	0.057173	0.002038	28.0542	-79.6666	-162.288	0.025111	0.954173	-0.054915	-0.056176	0.049872	28.0542	-0.056248	-0.140155	-0.355836	NaN
1159	1.000000	0.963475	7.37639e+06	-57639.1	1105.82	-29736.6	0.000000	0.000000	6.963135	0.098186	NaN	0.000000	0.001645	0.001761	28.0804	0.083782	0.001990	42.105	-130.218	-163.535	0.052718	0.962175	-0.046874	-0.048174	0.098186	42.105	-0.048623	-0.082891	-1.184518	NaN
1159	1.000000	0.971489	7.37639e+06	-57639.1	1105.82	-29736.6	0.000000	0.000000	6.971146	0.011862	NaN	0.000000	0.001625	0.001745	28.0813	0.136423	0.001807	75.5024	148.036	-164.888	0.086076	0.970168	-0.038860	-0.040181	0.011862	75.5024	-0.038978	-0.042109	-0.281711	NaN
1159	1.000000	0.979485	7.37639e+06	-57639.1	1105.82	-29736.6	0.000000	0.000000	6.979143	0.029133	NaN	0.000000	0.001631	0.001699	28.0804	0.086167	0.001926	44.7337	-102.305	-165.638	-0.001208	0.978152	-0.030864	-0.032197	0.029133	44.7337	-0.031353	-0.025119	-1.159839	NaN
1159	1.000000	0.987481	7.37639e+06	-57639.1	1105.82	-29736.6	0.000000	0.000000	6.987138	-0.001982	NaN	0.000000	0.001618	0.001696	28.081	0.087310	0.002037	42.8645	113.54	-162.794	-0.037768	0.986187	-0.022868	-0.024162	-0.001982	42.8645	-0.022833	-0.014830	0.133642	NaN
1159	1.000000	0.995484	7.37639e+06	-57639.1	1105.82	-29736.6	0.000000	0.000000	6.995141	0.028550	NaN	0.000000	0.001579	0.001686	28.0805	0.125612	0.001988	63.1893	-85.8018	-165.555	4.386454E-5	0.994177	-0.014866	-0.016173	0.028550	63.1893	-0.015204	-0.009398	-3.037834	NaN
1159	1.000000	1.003462	7.37639e+06	-57639.1	1105.82	-29736.6	0.000000	0.000000	7.003118	-0.024502	NaN	0.000000	0.001570	0.001682	28.0805	0.132830	0.002014	65.9687	106.57	-167.4	-0.032843	1.002206	-0.006887	-0.008143	-0.024502	65.9687	-0.006609	-0.004406	5.561651	NaN
1159	1.000000	1.011469	7.37639e+06	-57639.1	1105.82	-29736.6	0.000000	0.000000	7.011123	-0.050199	NaN	0.000000	0.001569	0.001711	28.0806	0.064786	0.002090	31.0019	39.877	-165.987	0.031491	1.010221	0.001120	-0.000128	-0.050199	31.0019	0.002334	0.001827	-27.4786	662.689
1159	1.000000	1.019444	7.37639e+06	-57639.1	1105.82	-29736.6	0.000000	0.000000	7.019344	5.907389	NaN	0.000000	0.001568	0.001683	28.0804	5.978913	0.001875	3189.3	12.4911	-171.352	4.504318	1.018141	0.009095	0.007792	5.907389	3189.3	0.007706	0.006742	876.26	35488.5
1159	2.000000	1.023085	7.37639e+06	-57639.1	1105.82	-29736.6	0.000000	0.000000	7.023132	9.484002	NaN	0.000000	0.001604	0.001665	28.0815	9.349288	0.001644	5687.45	6.838055	-171.946	8.785906	1.022778	0.012736	0.012429	9.484002	5687.45	0.011485	0.010879	871.753	49818.6
1159	2.000000	1.025066	7.37639e+06	-57639.1	1105.82	-29736.6	0.000000	0.000000	7.025265	13.1962	NaN	0.000000	0.001630	0.001681	28.0804	11.3766	0.001573	7230.52	8.708342	-177.688	12.7063	1.024720	0.014717	0.014371	13.1962	7230.52	0.013348	0.013145	1003.9	57618.6
1159	2.000000	1.027044	7.37639e+06	-57639.1	1105.82	-29736.6	0.000000	0.000000	7.027328	15.2584	NaN	0.000000	0.001723	0.001664	28.0805	14.1918	0.001825	7774.47	9.214109	-177.766	14.7842	1.026792	0.016695	0.016443	15.2584	7774.47	0.015223	0.015584	979.131	56899.8
1159	2.000000	1.029048	7.37639e+06	-57639.1	1105.82	-29736.6	0.000000	0.000000	7.029433	17.7101	NaN	0.000000	0.001724	0.001677	28.0804	15.0066	0.001616	9285.15	7.351968	-174.341	18.0014	1.028665	0.018698	0.018315	17.7101	9285.15	0.017268	0.018430	960.96	62489.1
1159	2.000000	1.030996	7.37639e+06	-57639.1	1105.82	-29736.6	0.000000	0.000000	7.031516	20.9711	NaN	0.000000	0.001691	0.001659	28.0803	16.8927	0.001714	9854.45	3.381450	-172.607	20.2431	1.030751	0.020647	0.020402	20.9711	9854.45	0.019051	0.021073	995.176	62021.9
1159	2.000000	1.033005	7.37639e+06	-57639.1	1105.82	-29736.6	0.000000	0.000000	7.033682	24.8001	NaN	0.000000	0.001661	0.001660	28.0807	19.3119	0.001825	10584.8	3.722634	-174.298	23.8739	1.032773	0.022656	0.022424	24.8001	10584.8	0.020899	0.023975	1034.44	62456.7
1159	2.000000	1.034998	7.37639e+06	-57639.1	1105.82	-29736.6	0.000000	0.000000	7.035907	30.4362	NaN	0.000000	0.001711	0.001660	28.0804	21.2771	0.001715	12408.9	5.378256	-177.496	30.0515	1.034707	0.024649	0.024358	30.4362	12408.9	0.022809	0.027150	1121.04	68805.1
1159	2.000000	1.037038	7.37639e+06	-57639.1	1105.82	-29736.6	0.000000	0.000000	7.038067	33.3501	NaN	0.000000	0.001692	0.001667	28.0823	23.6213	0.001960	12054.6	5.008876	-174.797	34.2058	1.036665	0.026689	0.026316	33.3501	12054.6	0.024614	0.030317	1100.06	63253.7
1159	2.000000	1.039003	7.37639e+06	-57639.1	1105.82	-29736.6	0.000000	0.000000	7.040227	38.1015	NaN	0.000000	0.001663	0.001663	28.0818	24.5861	0.001788	13752.7	4.929657	-176.298	38.2179	1.038645	0.028654	0.028296	38.1015	13752.7	0.026576	0.033945	1122.43	68197.7
1159	2.000000	1.041012	7.37639e+06	-57639.1	1105.82	-29736.6	0.000000	0.000000	7.042446	43.2095	NaN	0.000000	0.001661	0.001643	28.0816	27.5955	0.001860	14839.2	2.716427	-175.389	43.4284	1.040633	0.030663	0.030284	43.2095	14839.2	0.028479	0.037650	1147.68	69872.3
1159	2.000000	1.043047	7.37639e+06	-57639.1	1105.82	-29736.6	0.000000	0.000000	7.044704	48.624	NaN	0.000000	0.001634	0.001654	28.0819	29.7864	0.001740	17123.1	5.146213	-179.826	49.5017	1.042689	0.032698	0.032339	48.624	17123.1	0.030568	0.041929	1159.67	76400.9
1159	2.000000	1.044964	7.37639e+06	-57639.1	1105.82	-29736.6	0.000000	0.000000	7.046797	52.8856	NaN	0.000000	0.001620	0.001643	28.0816	31.2224	0.001707	18292.2	5.543913	179.232	51.809	1.044612	0.034615	0.034263	52.8856	18292.2	0.032447	0.045968	1150.49	77949.4
1159	2.000000	1.046939	7.37639e+06	-57639.1	1105.82	-29736.6	0.000000	0.000000	7.049139	61.802	NaN	0.000000	0.001654	0.001674	28.082	33.5797	0.001777	18893	3.345016	-178.643	59.2579	1.046676	0.036590	0.036327	61.802	18893	0.034137	0.049755	1242.14	77385
1159	2.000000	1.048907	7.37639e+06	-57639.1	1105.82	-29736.6	0.000000	0.000000	7.051304	66.617	NaN	0.000000	0.001641	0.001658	28.0818	35.2972	0.001735	20348.3	4.393492	179.558	65.6049	1.048668	0.038558	0.038319	66.617	20348.3	0.036102	0.054344	1225.85	79749.2
1159	2.000000	1.050968	7.37639e+06	-57639.1	1105.82	-29736.6	0.000000	0.000000	7.053735	75.6026	NaN	0.000000	0.001639	0.001691	28.0818	37.4538	0.001815	20640	7.424076	177.011	74.6543	1.050550	0.040619	0.040201	75.6026	20640	0.037872	0.058644	1289.18	77870.4
1159	2.000000	1.053000	7.37639e+06	-57639.1	1105.82	-29736.6	0.000000	0.000000	7.056132	84.4608	NaN	0.000000	0.001617	0.001697	28.0818	39.0622	0.001722	22680.2	5.228871	177.703	83.8273	1.052631	0.042651	0.042282	84.4608	22680.2	0.039858	0.063662	1326.7	82125.7
1159	2.000000	1.054958	7.37639e+06	-57639.1	1105.82	-29736.6	0.000000	0.000000	7.058180	86.6406	NaN	0.000000	0.001613	0.001705	28.0816	40.566	0.001714	23661.1	4.689989	178.054	85.4588	1.054664	0.044609	0.044315	86.6406	23661.1	0.041863	0.068931	1256.91	82337.9
1159	2.000000	1.056983	7.37639e+06	-57639.1	1105.82	-29736.6	0.000000	0.000000	7.060547	94.9487	NaN	0.000000	0.001631	0.001694	28.0818	43.6717	0.001963	22248.8	5.553768	178.084	93.9836	1.056648	0.046634	0.046298	94.9487	22248.8	0.043433	0.073202	1297.08	75131
1159	2.000000	1.058987	7.37639e+06	-57639.1	1105.82	-29736.6	0.000000	0.000000	7.062971	105.175	NaN	0.000000	0.001655	0.001679	28.0818	43.4195	0.001729	25111.4	0.683454	-177.965	105.88	1.058602	0.048638	0.048253	105.175	25111.4	0.045496	0.079003	1331.28	81625
1159	2.000000	1.060975	7.37639e+06	-57639.1	1105.82	-29736.6	0.000000	0.000000	7.065312	113.747	NaN	0.000000	0.001682	0.001699	28.0817	45.6336	0.001700	26845.3	0.670022	-178.157	113.602	1.060592	0.050626	0.050243	113.747	26845.3	0.047448	0.084690	1343.1	84280.3
1159	2.000000	1.063009	7.37639e+06	-57639.1	1105.82	-29736.6	0.000000	0.000000	7.067575	119.313	NaN	0.000000	0.001633	0.001697	28.0819	48.9553	0.001898	25794.6	6.464935	176.831	120.511	1.062609	0.052660	0.052260	119.313	25794.6	0.049191	0.089930	1326.74	78587.2
1159	2.000000	1.064931	7.37639e+06	-57639.1	1105.82	-29736.6	0.000000	0.000000	7.069821	127.196	NaN	0.000000	0.001647	0.001703	28.0819	50.1879	0.001719	29199.2	2.544094	177.67	125.168	1.064667	0.054582	0.054318	127.196	29199.2	0.051315	0.096521	1317.81	85868.5
1159	2.000000	1.066942	7.37639e+06	-57639.1	1105.82	-29736.6	0.000000	0.000000	7.072391	140.775	NaN	0.000000	0.001627	0.001687	28.082	52.5939	0.001854	28368	1.671779	-179.761	138.629	1.066656	0.056593	0.056307	140.775	28368	0.052871	0.101493	1387.05	81355.1
1159	2.000000	1.068912	7.37639e+06	-57639.1	1105.82	-29736.6	0.000000	0.000000	7.074622	147.109	NaN	0.000000	0.001639	0.001696	28.0818	53.606	0.001691	31707.3	3.525561	176.675	145.668	1.068667	0.058563	0.058318	147.109	31707.3	0.055084	0.108772	1352.46	87836.5
1159	2.000000	1.070973	7.37639e+06	-57639.1	1105.82	-29736.6	0.000000	0.000000	7.077100	157.253	NaN	0.000000	0.001612	0.001686	28.0806	56.6177	0.001996	28358.6	9.143838	173.66	157.615	1.070537	0.060624	0.060188	157.253	28358.6	0.056465	0.113437	1386.26	76927.2
1159	2.000000	1.072901	7.37639e+06	-57639.1	1105.82	-29736.6	0.000000	0.000000	7.079453	167.594	NaN	0.000000	0.001612	0.001682	28.0806	57.4499	0.001844	31162	4.852390	176.426	165.522	1.072563	0.062552	0.062214	167.594	31162	0.058518	0.120548	1390.27	82001
1159	2.000000	1.074890	7.37639e+06	-57639.1	1105.82	-29736.6	0.000000	0.000000	7.081950	179.935	NaN	0.000000	0.001612	0.001661	28.0807	58.5482	0.001732	33811.4	3.570888	176.719	176.526	1.074599	0.064540	0.064250	179.935	33811.4	0.060549	0.127785	1408.11	86416.6
1159	2.000000	1.076934	7.37639e+06	-57639.1	1105.82	-29736.6	0.000000	0.000000	7.084046	181.196	NaN	0.000000	0.001640	0.001639	28.08	62.2937	0.001802	34571.8	6.360246	172.473	179.647	1.076768	0.066585	0.066419	181.196	34571.8	0.062654	0.135496	1337.28	85808.8
1159	2.000000	1.078948	7.37639e+06	-57639.1	1105.82	-29736.6	0.000000	0.000000	7.086890	201.376	NaN	0.000000	0.001622	0.001696	28.0805	62.2933	0.001700	36632.9	4.822583	175.521	200.683	1.078618	0.068598	0.068269	201.376	36632.9	0.064476	0.142345	1414.71	88710.4
1159	2.000000	1.080855	7.37639e+06	-57639.1	1105.82	-29736.6	0.000000	0.000000	7.089310	213.826	NaN	0.000000	0.001596	0.001699	28.0804	65.1354	0.001768	36849.6	3.151740	176.122	210.138	1.080546	0.070506	0.070197	213.826	36849.6	0.066154	0.148795	1437.05	87279.4
1159	2.000000	1.082941	7.37639e+06	-57639.1	1105.82	-29736.6	0.000000	0.000000	7.091873	225.417	NaN	0.000000	0.001601	0.001673	28.0806	68.064	0.001856	36668.4	4.043853	175.517	224.187	1.082550	0.072592	0.072201	225.417	36668.4	0.067982	0.155974	1445.22	84827.8
1159	2.000000	1.084841	7.37639e+06	-57639.1	1105.82	-29736.6	0.000000	0.000000	7.093992	230.758	NaN	0.000000	0.001610	0.001661	28.0807	67.9768	0.001682	40416.1	1.336600	177.304	224.929	1.084523	0.074492	0.074174	230.758	40416.1	0.070210	0.164941	1399.03	90920.7
1159	2.000000	1.086893	7.37639e+06	-57639.1	1105.82	-29736.6	0.000000	0.000000	7.096690	246.434	NaN	0.000000	0.001637	0.001715	28.0805	70.9156	0.001666	42573.6	-1.655123	180	243.163	1.086602	0.076544	0.076253	246.434	42573.6	0.072203	0.173165	1423.12	93472.4
1159	2.000000	1.088916	7.37639e+06	-57639.1	1105.82	-29736.6	0.000000	0.000000	7.099441	264.144	NaN	0.000000	0.001621	0.001691	28.0809	73.5233	0.001862	39490.7	7.588924	171.833	262.213	1.088551	0.078567	0.078202	264.144	39490.7	0.073550	0.178828	1477.08	85319.8
1159	2.000000	1.090846	7.37639e+06	-57639.1	1105.82	-29736.6	0.000000	0.000000	7.101827	275.229	NaN	0.000000	0.001650	0.001699	28.0803	75.1029	0.001772	42380.2	3.827788	174.356	269.952	1.090545	0.080497	0.080195	275.229	42380.2	0.075627	0.187726	1466.12	89366.4
1159	2.000000	1.092924	7.37639e+06	-57639.1	1105.82	-29736.6	0.000000	0.000000	7.104532	290.47	NaN	0.000000	0.001676	0.001687	28.0802	77.5511	0.001798	43135.3	4.553345	173.947	288.736	1.092602	0.082575	0.082253	290.47	43135.3	0.077524	0.196035	1481.72	89010.2
1159	2.000000	1.094874	7.37639e+06	-57639.1	1105.82	-29736.6	0.000000	0.000000	7.106820	298.692	NaN	0.000000	0.001639	0.001718	28.0805	79.3721	0.001866	42546	4.409465	173.583	295.507	1.094583	0.084524	0.084234	298.692	42546	0.079259	0.203778	1465.77	86109.8
1159	2.000000	1.096908	7.37639e+06	-57639.1	1105.82	-29736.6	0.000000	0.000000	7.109391	311.745	NaN	0.000000	0.001601	0.001702	28.0806	80.8018	0.001777	45461	2.457663	174.719	311.511	1.096668	0.086559	0.086319	311.745	45461	0.081416	0.213600	1459.48	89869.3
1159	2.000000	1.098947	7.37639e+06	-57639.1	1105.82	-29736.6	0.000000	0.000000	7.112095	327.898	NaN	0.000000	0.001634	0.001703	28.0808	82.3301	0.001773	46445.3	7.853348	169.931	329.768	1.098484	0.088598	0.088135	327.898	46445.3	0.083303	0.222374	1474.53	89985.6
1159	2.000000	1.100876	7.37639e+06	-57639.1	1105.82	-29736.6	0.000000	0.000000	7.114479	338.958	NaN	0.000000	0.001610	0.001743	28.0804	83.6858	0.001727	48465.4	3.801989	173.227	334.804	1.100612	0.090527	0.090263	338.958	48465.4	0.085281	0.231745	1462.63	91981.4
1159	2.000000	1.102882	7.37639e+06	-57639.1	1105.82	-29736.6	0.000000	0.000000	7.117205	356.447	NaN	0.000000	0.001579	0.001688	28.0806	85.0978	0.001751	48585.7	3.207749	174.89	351.923	1.102486	0.092533	0.092137	356.447	48585.7	0.087031	0.240183	1484.06	90575.5
1159	2.000000	1.104837	7.37639e+06	-57639.1	1105.82	-29736.6	0.000000	0.000000	7.119781	371.539	NaN	0.000000	0.001618	0.001711	28.0817	87.3368	0.001885	46321.4	4.089207	173.788	367.934	1.104669	0.094488	0.094320	371.539	46321.4	0.088472	0.247244	1502.72	85112.2
1159	2.000000	1.106832	7.37639e+06	-57639.1	1105.82	-29736.6	0.000000	0.000000	7.122527	389.788	NaN	0.000000	0.001650	0.001692	28.0817	90.6747	0.001903	47636.3	7.289958	170.002	386.872	1.106566	0.096483	0.096217	389.788	47636.3	0.090346	0.256564	1519.26	85923.7
1159	2.000000	1.108884	7.37639e+06	-57639.1	1105.82	-29736.6	0.000000	0.000000	7.125197	404.832	NaN	0.000000	0.001632	0.001742	28.0817	90.3018	0.001717	52590.3	7.520376	169.058	402.901	1.108532	0.098534	0.098183	404.832	52590.3	0.092761	0.268810	1506.01	92673.6
1159	2.000000	1.110833	7.37639e+06	-57639.1	1105.82	-29736.6	0.000000	0.000000	7.127716	418.686	NaN	0.000000	0.001601	0.001717	28.0817	93.9522	0.001854	50677.9	6.331936	171.205	415.763	1.110498	0.100484	0.100149	418.686	50677.9	0.094287	0.276688	1513.21	88023
1159	2.000000	1.112928	7.37639e+06	-57639.1	1105.82	-29736.6	0.000000	0.000000	7.130348	431.724	NaN	0.000000	0.001603	0.001710	28.0821	95.0281	0.001797	52867.2	5.107532	171.516	432.957	1.112651	0.102578	0.102302	431.724	52867.2	0.096454	0.288054	1498.76	89995.9
1159	2.000000	1.114834	7.37639e+06	-57639.1	1105.82	-29736.6	0.000000	0.000000	7.133226	455.34	NaN	0.000000	0.001652	0.001725	28.0816	95.6679	0.001742	54913.4	4.447787	172.194	450.695	1.114526	0.104485	0.104177	455.34	54913.4	0.098266	0.297726	1529.39	91948.1
1159	2.000000	1.116907	7.37639e+06	-57639.1	1105.82	-29736.6	0.000000	0.000000	7.135571	461.95	NaN	0.000000	0.001628	0.001713	28.0819	99.6366	0.001735	57414.8	6.001052	170.131	463.266	1.116717	0.106558	0.106367	461.95	57414.8	0.100523	0.309981	1490.25	94217
1159	2.000000	1.118939	7.37639e+06	-57639.1	1105.82	-29736.6	0.000000	0.000000	7.138545	484.867	NaN	0.000000	0.001646	0.001708	28.0817	100.69	0.001868	53909.9	7.213892	170.189	487.903	1.118510	0.108589	0.108161	484.867	53909.9	0.101844	0.317258	1528.31	87445
1159	2.000000	1.119910	7.37639e+06	-57639.1	1105.82	-29736.6	0.000000	0.000000	7.139580	486.395	NaN	0.000000	0.001626	0.001706	28.0818	103.942	0.001862	55836.2	5.542178	170.682	485.922	1.119580	0.109561	0.109231	486.395	55836.2	0.103028	0.323850	1501.92	89643.2