File: remote_trans/data/nanoindenter/0828-1/data/Data_2025-08-06,11h17m57s/2025-07-22_16-23-58_1_266.txt
2025-07-22, 16:23:58, 1
Index	Phase	Displacement	Time	Pos X	Pos Y	Pos Z	Rot A	Rot B	Piezo Z	Force A	Force B	Gripper	Voltage A	Voltage B	Temperature	Amplitude force	Amplitude pos	Stiffness	Phase shift	Phase excitation	Force A raw	Displacement raw	HMax	HMax raw	Real Force	Real Stiffness	Contact Depth	Area	Hardness	Reduced Mod.
[#]	[#]	[um]	[s]	[um]	[um]	[um]	[m°]	[m°]	[um]	[uN]	[uN]	[V]	[V]	[V]	[°C]	[uN]	[um]	[N/m]	[°]	[°]	[uN]	[um]	[um]	[um]	[uN]	[N/m]	[um]	[um^2]	[MPa]	[MPa]
266	1.000000	0.002320	7.36765e+06	-51939.1	955.818	-29750.9	0.000000	0.000000	6.002780	0.004456	NaN	0.000000	0.001692	0.001709	28.0786	0.072854	0.001031	70.6516	148.673	-165.926	-0.035640	0.001133	-1.127433	-1.128621	0.004456	70.6516	-1.127481	-1.171731E+15	-3.802922E-18	NaN
266	1.000000	0.012367	7.36765e+06	-51939.1	955.818	-29750.9	0.000000	0.000000	6.012826	-0.005915	NaN	0.000000	0.001719	0.001691	28.0784	0.062944	0.001153	54.5761	134.607	19.8921	0.039321	0.010955	-1.117387	-1.118799	-0.005915	54.5761	-1.117306	-8.557061E+14	6.912196E-18	NaN
266	1.000000	0.022293	7.36765e+06	-51939.1	955.819	-29750.9	0.000000	0.000000	6.022754	0.010366	NaN	0.000000	0.001685	0.001679	28.079	0.116821	0.001802	64.8244	11.5288	-164.813	-0.031186	0.020982	-1.107460	-1.108772	0.010366	64.8244	-1.107580	-6.335958E+14	-1.636111E-17	NaN
266	1.000000	0.032282	7.36765e+06	-51939.1	955.818	-29750.9	0.000000	0.000000	6.032742	0.015445	NaN	0.000000	0.001696	0.001693	28.0791	0.078630	0.001910	41.1646	3.711001	15.3041	0.025200	0.030940	-1.097472	-1.098814	0.015445	41.1646	-1.097753	-4.676319E+14	-3.302899E-17	NaN
266	1.000000	0.042272	7.36765e+06	-51939.1	955.818	-29750.9	0.000000	0.000000	6.042734	0.059016	NaN	0.000000	0.001687	0.001683	28.0794	0.060425	0.001898	31.8398	153.311	-166.914	0.014094	0.040969	-1.087481	-1.088785	0.059016	31.8398	-1.088871	-3.553515E+14	-1.660773E-16	NaN
266	1.000000	0.052317	7.36765e+06	-51939.1	955.819	-29750.9	0.000000	0.000000	6.052773	-0.097657	NaN	0.000000	0.001679	0.001720	28.0788	0.061589	0.001978	31.1349	161.331	16.1644	-0.055226	0.050938	-1.077436	-1.078815	-0.097657	31.1349	-1.075084	-2.319999E+14	4.209372E-16	NaN
266	1.000000	0.062319	7.36765e+06	-51939.1	955.818	-29750.9	0.000000	0.000000	6.062779	0.016463	NaN	0.000000	0.001714	0.001671	28.079	0.074537	0.001971	37.8074	21.9591	-162.808	-0.020636	0.060988	-1.067435	-1.068765	0.016463	37.8074	-1.067762	-1.849761E+14	-8.899867E-17	NaN
266	1.000000	0.072274	7.36766e+06	-51939.1	955.819	-29750.9	0.000000	0.000000	6.072734	0.022349	NaN	0.000000	0.001727	0.001689	28.0788	0.064468	0.002044	31.5464	-98.0974	16.1628	-0.052667	0.070887	-1.057480	-1.058866	0.022349	31.5464	-1.058011	-1.368033E+14	-1.633645E-16	NaN
266	1.000000	0.082308	7.36766e+06	-51939.1	955.82	-29750.9	0.000000	0.000000	6.082769	0.035363	NaN	0.000000	0.001725	0.001664	28.0794	0.158743	0.002013	78.8713	-151.722	-165.029	0.046476	0.081025	-1.047446	-1.048728	0.035363	78.8713	-1.047782	-9.967872E+13	-3.547648E-16	NaN
266	1.000000	0.092294	7.36766e+06	-51939.1	955.818	-29750.9	0.000000	0.000000	6.092753	-0.002229	NaN	0.000000	0.001700	0.001702	28.0789	0.045656	0.002001	22.8211	37.8523	18.0799	0.013195	0.090996	-1.037460	-1.038758	-0.002229	22.8211	-1.037387	-7.224843E+13	3.085637E-17	NaN
266	1.000000	0.102321	7.36766e+06	-51939.1	955.819	-29750.9	0.000000	0.000000	6.102782	0.021418	NaN	0.000000	0.001712	0.001680	28.0793	0.069408	0.001898	36.5606	-31.0126	-164.58	-0.031984	0.100989	-1.027433	-1.028765	0.021418	36.5606	-1.027872	-5.380904E+13	-3.980342E-16	NaN
266	1.000000	0.112310	7.36766e+06	-51939.1	955.819	-29750.9	0.000000	0.000000	6.112769	-0.012502	NaN	0.000000	0.001683	0.001694	28.0785	0.042300	0.002018	20.9598	66.1618	13.4372	-0.034343	0.110937	-1.017444	-1.018817	-0.012502	20.9598	-1.016996	-3.841809E+13	3.254159E-16	NaN
266	1.000000	0.122335	7.36766e+06	-51939.1	955.818	-29750.9	0.000000	0.000000	6.122793	-0.028477	NaN	0.000000	0.001648	0.001706	28.0791	0.088937	0.002083	42.7057	-130.636	-165.874	-0.055362	0.121067	-1.007419	-1.008686	-0.028477	42.7057	-1.006919	-2.811298E+13	1.012953E-15	NaN
266	1.000000	0.132308	7.36766e+06	-51939.1	955.818	-29750.9	0.000000	0.000000	6.132771	0.064154	NaN	0.000000	0.001686	0.001704	28.0785	0.154492	0.002165	71.3665	110.385	17.9107	-0.000151	0.130937	-0.997445	-0.998817	0.064154	71.3665	-0.998120	-2.140182E+13	-2.997600E-15	NaN
266	1.000000	0.142335	7.36766e+06	-51939.1	955.819	-29750.9	0.000000	0.000000	6.142793	-0.044870	NaN	0.000000	0.001653	0.001753	28.0787	0.086196	0.001968	43.7907	35.2505	-166.49	0.029988	0.141030	-0.987418	-0.988724	-0.044870	43.7907	-0.986650	-1.499650E+13	2.992002E-15	NaN
266	1.000000	0.152361	7.36766e+06	-51939.1	955.819	-29750.9	0.000000	0.000000	6.152820	-0.019033	NaN	0.000000	0.001716	0.001721	28.0784	0.038688	0.002092	18.4974	92.7464	14.8414	-0.037713	0.150959	-0.977392	-0.978795	-0.019033	18.4974	-0.976621	-1.098699E+13	1.732355E-15	NaN
266	1.000000	0.162356	7.36766e+06	-51939.1	955.82	-29750.9	0.000000	0.000000	6.162815	-0.016313	NaN	0.000000	0.001665	0.001706	28.0776	0.064451	0.002007	32.1069	41.4749	-167.95	-0.057458	0.160992	-0.967397	-0.968762	-0.016313	32.1069	-0.967016	-8.155496E+12	2.000206E-15	NaN
266	1.000000	0.172342	7.36766e+06	-51939.1	955.819	-29750.9	0.000000	0.000000	6.172801	-0.011584	NaN	0.000000	0.001712	0.001699	28.0772	0.055044	0.002090	26.3321	115.471	21.7678	-0.009789	0.170984	-0.957412	-0.958769	-0.011584	26.3321	-0.957082	-5.991340E+12	1.933433E-15	NaN
266	1.000000	0.182332	7.36766e+06	-51939.1	955.818	-29750.9	0.000000	0.000000	6.182790	-0.031908	NaN	0.000000	0.001642	0.001720	28.0773	0.038772	0.001991	19.4772	116.395	-160.202	-0.003298	0.181033	-0.947422	-0.948721	-0.031908	19.4772	-0.946193	-4.272504E+12	7.468119E-15	NaN
266	1.000000	0.192336	7.36766e+06	-51939.1	955.819	-29750.9	0.000000	0.000000	6.192796	0.013697	NaN	0.000000	0.001683	0.001696	28.0773	0.014550	0.002015	7.221885	-20.4388	14.2875	0.024064	0.190968	-0.937418	-0.938785	0.013697	7.221885	-0.938841	-3.400121E+12	-4.028321E-15	NaN
266	1.000000	0.202377	7.36766e+06	-51939.1	955.818	-29750.9	0.000000	0.000000	6.202836	-0.028519	NaN	0.000000	0.001700	0.001727	28.0773	0.066658	0.001904	35.004	-175.064	-163.341	-0.007138	0.201017	-0.927377	-0.928737	-0.028519	35.004	-0.926765	-2.336359E+12	1.220673E-14	NaN
266	1.000000	0.212351	7.36766e+06	-51939.1	955.818	-29750.9	0.000000	0.000000	6.212811	0.005655	NaN	0.000000	0.001664	0.001701	28.0773	0.114388	0.002077	55.062	97.4179	16.5832	-0.058306	0.211020	-0.917403	-0.918733	0.005655	55.062	-0.917480	-1.750575E+12	-3.230533E-15	NaN
266	1.000000	0.222342	7.36766e+06	-51939.1	955.82	-29750.9	0.000000	0.000000	6.222802	0.013861	NaN	0.000000	0.001696	0.001736	28.0774	0.027882	0.001922	14.506	115.97	-166.522	-0.020447	0.221045	-0.907412	-0.908709	0.013861	14.506	-0.908129	-1.308836E+12	-1.059008E-14	NaN
266	1.000000	0.232390	7.36766e+06	-51939.1	955.819	-29750.9	0.000000	0.000000	6.232850	0.013822	NaN	0.000000	0.001778	0.001705	28.0775	0.042602	0.002003	21.2728	110.561	15.8215	0.096449	0.231040	-0.897364	-0.898713	0.013822	21.2728	-0.897851	-9.506762E+11	-1.453921E-14	NaN
266	1.000000	0.242396	7.36766e+06	-51939.1	955.819	-29750.9	0.000000	0.000000	6.242857	0.031512	NaN	0.000000	0.001753	0.001667	28.0774	0.034617	0.002060	16.8028	-42.0656	-164.185	0.030411	0.241054	-0.887357	-0.888700	0.031512	16.8028	-0.888764	-7.164823E+11	-4.398128E-14	NaN
266	1.000000	0.252378	7.36766e+06	-51939.1	955.819	-29750.9	0.000000	0.000000	6.252833	-0.096191	NaN	0.000000	0.001746	0.001698	28.0774	0.040726	0.001927	21.1319	149.999	17.6676	-0.060160	0.251024	-0.877376	-0.878730	-0.096191	21.1319	-0.873962	-4.519018E+11	2.128593E-13	NaN
266	1.000000	0.262374	7.36766e+06	-51939.1	955.819	-29750.9	0.000000	0.000000	6.262833	-0.002163	NaN	0.000000	0.001730	0.001712	28.0775	0.113807	0.001900	59.8962	2.533986	-164.73	-0.045620	0.261067	-0.867380	-0.868686	-0.002163	59.8962	-0.867353	-3.678117E+11	5.879541E-15	NaN
266	1.000000	0.272378	7.36766e+06	-51939.1	955.819	-29750.9	0.000000	0.000000	6.272836	-0.039089	NaN	0.000000	0.001739	0.001725	28.0777	0.104930	0.001983	52.9221	-98.3233	15.2334	-0.043656	0.271078	-0.857376	-0.858676	-0.039089	52.9221	-0.856822	-2.649131E+11	1.475542E-13	NaN
266	1.000000	0.282393	7.36766e+06	-51939.1	955.819	-29750.9	0.000000	0.000000	6.282853	-0.010368	NaN	0.000000	0.001732	0.001724	28.0774	0.057076	0.002139	26.6867	-171.583	-165.214	-0.085558	0.281114	-0.847360	-0.848639	-0.010368	26.6867	-0.847069	-1.954545E+11	5.304449E-14	NaN
266	1.000000	0.292416	7.36766e+06	-51939.1	955.818	-29750.9	0.000000	0.000000	6.292875	-0.014515	NaN	0.000000	0.001747	0.001681	28.0782	0.098740	0.002013	49.047	-165.701	12.8231	0.032287	0.291078	-0.837338	-0.838676	-0.014515	49.047	-0.837116	-1.432919E+11	1.012973E-13	NaN
266	1.000000	0.302395	7.36766e+06	-51939.1	955.819	-29750.9	0.000000	0.000000	6.302853	-0.026819	NaN	0.000000	0.001761	0.001682	28.0789	0.083654	0.002061	40.5867	163.4	-162.664	-0.041565	0.301076	-0.827359	-0.828677	-0.026819	40.5867	-0.826863	-1.040559E+11	2.577346E-13	NaN
266	1.000000	0.312401	7.36766e+06	-51939.1	955.818	-29750.9	0.000000	0.000000	6.312859	-0.062461	NaN	0.000000	0.001753	0.001676	28.0792	0.097393	0.002025	48.1014	143.113	15.1212	-0.076279	0.311035	-0.817352	-0.818719	-0.062461	48.1014	-0.816378	-7.500587E+10	8.327427E-13	NaN
266	1.000000	0.322439	7.36766e+06	-51939.1	955.818	-29750.9	0.000000	0.000000	6.322899	0.001085	NaN	0.000000	0.001739	0.001667	28.0787	0.093355	0.001972	47.3296	170.789	-166.393	0.013428	0.321090	-0.807315	-0.808664	0.001085	47.3296	-0.807332	-5.654206E+10	-1.918608E-14	NaN
266	1.000000	0.332409	7.36766e+06	-51939.1	955.818	-29750.9	0.000000	0.000000	6.332872	0.072991	NaN	0.000000	0.001760	0.001636	28.0789	0.089226	0.001862	47.9203	125.838	18.1293	-0.015618	0.331033	-0.797344	-0.798720	0.072991	47.9203	-0.798487	-4.288639E+10	-1.701967E-12	NaN
266	1.000000	0.342430	7.36766e+06	-51939.1	955.819	-29750.9	0.000000	0.000000	6.342891	0.034255	NaN	0.000000	0.001751	0.001651	28.0785	0.115656	0.001963	58.9092	157.623	-163.338	0.002992	0.341089	-0.787324	-0.788664	0.034255	58.9092	-0.787760	-3.066611E+10	-1.117040E-12	NaN
266	1.000000	0.352415	7.36766e+06	-51939.1	955.818	-29750.9	0.000000	0.000000	6.352873	-0.022101	NaN	0.000000	0.001748	0.001665	28.0788	0.022131	0.001996	11.0878	60.931	12.4964	-0.055467	0.351098	-0.777339	-0.778656	-0.022101	11.0878	-0.775844	-2.112280E+10	1.046318E-12	NaN
266	1.000000	0.362436	7.36766e+06	-51939.1	955.818	-29750.9	0.000000	0.000000	6.362895	-0.015368	NaN	0.000000	0.001662	0.001647	28.0785	0.064859	0.001959	33.1051	-47.4014	-166.424	-0.063268	0.361117	-0.767318	-0.768637	-0.015368	33.1051	-0.766970	-1.599938E+10	9.605390E-13	NaN
266	1.000000	0.372431	7.36766e+06	-51939.1	955.819	-29750.9	0.000000	0.000000	6.372891	0.002701	NaN	0.000000	0.001680	0.001679	28.0786	0.099858	0.001978	50.4791	39.6385	18.4391	0.146307	0.371039	-0.757322	-0.758715	0.002701	50.4791	-0.757362	-1.184181E+10	-2.281125E-13	NaN
266	1.000000	0.382438	7.36766e+06	-51939.1	955.819	-29750.9	0.000000	0.000000	6.382900	0.063242	NaN	0.000000	0.001656	0.001682	28.0784	0.074117	0.001915	38.7027	-108.664	-162.017	0.007777	0.381101	-0.747316	-0.748652	0.063242	38.7027	-0.748541	-8.981746E+9	-7.041201E-12	NaN
266	1.000000	0.392442	7.36766e+06	-51939.1	955.819	-29750.9	0.000000	0.000000	6.392900	-0.036660	NaN	0.000000	0.001663	0.001688	28.0785	0.024676	0.001911	12.9152	-40.5499	15.3687	-0.052114	0.391086	-0.737312	-0.738668	-0.036660	12.9152	-0.735183	-5.907928E+9	6.205187E-12	NaN
266	1.000000	0.402445	7.36766e+06	-51939.1	955.819	-29750.9	0.000000	0.000000	6.402903	-0.045388	NaN	0.000000	0.001636	0.001666	28.0782	0.054738	0.002025	27.028	44.4558	-166.651	-0.004815	0.401161	-0.727309	-0.728593	-0.045388	27.028	-0.726049	-4.435648E+9	1.023249E-11	NaN
266	1.000000	0.412429	7.36766e+06	-51939.1	955.819	-29750.9	0.000000	0.000000	6.412887	-0.045754	NaN	0.000000	0.001663	0.001676	28.0785	0.015629	0.002056	7.603672	41.6886	16.1749	0.035967	0.411000	-0.717325	-0.718753	-0.045754	7.603672	-0.712812	-2.926975E+9	1.563169E-11	NaN
266	1.000000	0.422446	7.36766e+06	-51939.1	955.818	-29750.9	0.000000	0.000000	6.422908	0.040456	NaN	0.000000	0.001725	0.001697	28.0787	0.137957	0.001989	69.3446	-96.7762	-165.969	0.033966	0.421119	-0.707307	-0.708634	0.040456	69.3446	-0.707745	-2.496143E+9	-1.620746E-11	NaN
266	1.000000	0.432462	7.36766e+06	-51939.1	955.819	-29750.9	0.000000	0.000000	6.432920	-0.052487	NaN	0.000000	0.001694	0.001705	28.0772	0.076125	0.002156	35.3014	105.511	16.5477	-0.089054	0.431106	-0.697292	-0.698647	-0.052487	35.3014	-0.696176	-1.735032E+9	3.025142E-11	NaN
266	1.000000	0.442446	7.36766e+06	-51939.1	955.818	-29750.9	0.000000	0.000000	6.442906	0.004652	NaN	0.000000	0.001686	0.001674	28.0774	0.099468	0.002034	48.8955	-116.584	-163.626	0.034275	0.441177	-0.687308	-0.688577	0.004652	48.8955	-0.687379	-1.315509E+9	-3.536272E-12	NaN
266	1.000000	0.452481	7.36766e+06	-51939.1	955.819	-29750.9	0.000000	0.000000	6.452940	-0.003150	NaN	0.000000	0.001700	0.001713	28.0774	0.015450	0.001988	7.773224	-30.0761	18.1676	0.061118	0.451146	-0.677273	-0.678608	-0.003150	7.773224	-0.676969	-9.478633E+8	3.322909E-12	NaN
266	1.000000	0.462455	7.36766e+06	-51939.1	955.819	-29750.9	0.000000	0.000000	6.462916	0.022956	NaN	0.000000	0.001717	0.001703	28.0775	0.147152	0.001846	79.7045	173.138	-168.26	-0.046176	0.461199	-0.667298	-0.668554	0.022956	79.7045	-0.667514	-7.036652E+8	-3.262308E-11	NaN
266	1.000000	0.472473	7.36766e+06	-51939.1	955.818	-29750.9	0.000000	0.000000	6.472935	0.073209	NaN	0.000000	0.001719	0.001654	28.0775	0.041816	0.002053	20.3663	71.0156	13.6889	0.026925	0.471132	-0.657281	-0.658622	0.073209	20.3663	-0.659977	-5.548234E+8	-1.319507E-10	NaN
266	1.000000	0.482468	7.36766e+06	-51939.1	955.819	-29750.9	0.000000	0.000000	6.482927	-0.014914	NaN	0.000000	0.001742	0.001716	28.0775	0.035696	0.001946	18.3385	12.2327	-165.261	-0.007055	0.481161	-0.647285	-0.648593	-0.014914	18.3385	-0.646675	-3.646303E+8	4.090136E-11	NaN
266	1.000000	0.492492	7.36766e+06	-51939.1	955.818	-29750.9	0.000000	0.000000	6.492950	-0.021869	NaN	0.000000	0.001780	0.001739	28.0776	0.112766	0.002004	56.2731	-153.978	15.4561	-0.037596	0.491132	-0.637262	-0.638622	-0.021869	56.2731	-0.636971	-2.683614E+8	8.149012E-11	NaN
266	1.000000	0.502491	7.36766e+06	-51939.1	955.82	-29750.9	0.000000	0.000000	6.502949	-0.033010	NaN	0.000000	0.001802	0.001666	28.0775	0.040866	0.001988	20.5529	90.0151	-167.242	-0.061611	0.501143	-0.627263	-0.628610	-0.033010	20.5529	-0.626058	-1.900579E+8	1.736831E-10	NaN
266	1.000000	0.512495	7.36766e+06	-51939.1	955.819	-29750.9	0.000000	0.000000	6.512956	0.044406	NaN	0.000000	0.001694	0.001665	28.0773	0.029962	0.002026	14.7888	-136.242	15.3832	-0.089849	0.511141	-0.617259	-0.618612	0.044406	14.7888	-0.619511	-1.544939E+8	-2.874314E-10	NaN
266	1.000000	0.522486	7.36766e+06	-51939.1	955.819	-29750.9	0.000000	0.000000	6.522944	-0.046786	NaN	0.000000	0.001705	0.001670	28.0775	0.184785	0.001922	96.1645	-156.243	-165.544	-0.016238	0.521221	-0.607267	-0.608532	-0.046786	96.1645	-0.606902	-1.036309E+8	4.514643E-10	NaN
266	1.000000	0.532469	7.36766e+06	-51939.1	955.818	-29750.9	0.000000	0.000000	6.532927	-0.043293	NaN	0.000000	0.001707	0.001645	28.0774	0.085866	0.002025	42.4119	136.107	17.9637	-0.032574	0.531096	-0.597285	-0.598658	-0.043293	42.4119	-0.596519	-7.456165E+7	5.806300E-10	NaN
266	1.000000	0.542477	7.36766e+06	-51939.1	955.818	-29750.9	0.000000	0.000000	6.542936	-0.001339	NaN	0.000000	0.001709	0.001695	28.0776	0.074506	0.002113	35.264	135.121	-163.307	-0.061897	0.541196	-0.587277	-0.588557	-0.001339	35.264	-0.587249	-5.555578E+7	2.410517E-11	NaN
266	1.000000	0.552492	7.36766e+06	-51939.1	955.818	-29750.9	0.000000	0.000000	6.552949	-0.058522	NaN	0.000000	0.001675	0.001681	28.0774	0.028197	0.001991	14.1635	106.907	11.6781	0.090701	0.551142	-0.577262	-0.578611	-0.058522	14.1635	-0.574163	-3.665544E+7	1.596536E-9	NaN
266	1.000000	0.562506	7.36766e+06	-51939.1	955.818	-29750.9	0.000000	0.000000	6.562967	0.015554	NaN	0.000000	0.001686	0.001691	28.0777	0.083921	0.001991	42.1435	43.8701	-163.852	0.032051	0.561204	-0.567247	-0.568550	0.015554	42.1435	-0.567524	-2.967690E+7	-5.241136E-10	NaN
266	1.000000	0.572525	7.36766e+06	-51939.1	955.819	-29750.9	0.000000	0.000000	6.572983	-0.051264	NaN	0.000000	0.001681	0.001682	28.0791	0.077611	0.001903	40.776	-141.819	14.0961	0.066490	0.571134	-0.557228	-0.558619	-0.051264	40.776	-0.556285	-2.074822E+7	2.470787E-9	NaN
266	1.000000	0.582525	7.36766e+06	-51939.1	955.819	-29750.9	0.000000	0.000000	6.582984	-0.013100	NaN	0.000000	0.001760	0.001707	28.079	0.064428	0.001977	32.5858	171.527	-162.33	-0.021258	0.581220	-0.547229	-0.548534	-0.013100	32.5858	-0.546928	-1.539543E+7	8.509086E-10	NaN
266	1.000000	0.592504	7.36766e+06	-51939.1	955.818	-29750.9	0.000000	0.000000	6.592963	-0.021195	NaN	0.000000	0.001714	0.001675	28.0787	0.041504	0.002023	20.5124	-61.1203	14.4592	-0.059852	0.591135	-0.537250	-0.538619	-0.021195	20.5124	-0.536475	-1.102693E+7	1.922148E-9	NaN
266	1.000000	0.602533	7.36766e+06	-51939.1	955.819	-29750.9	0.000000	0.000000	6.602991	-0.047964	NaN	0.000000	0.001650	0.001683	28.0791	0.073315	0.001929	38.0133	-106.434	-163.78	-0.074344	0.601160	-0.527221	-0.528594	-0.047964	38.0133	-0.526274	-7.95829e+06	6.026920E-9	NaN
266	1.000000	0.612521	7.36766e+06	-51939.1	955.819	-29750.9	0.000000	0.000000	6.612980	-0.022462	NaN	0.000000	0.001659	0.001679	28.0787	0.047540	0.001965	24.196	70.656	16.7914	-0.066654	0.611230	-0.517233	-0.518524	-0.022462	24.196	-0.516536	-5.82656e+06	3.855114E-9	NaN
266	1.000000	0.622555	7.36766e+06	-51939.1	955.818	-29750.9	0.000000	0.000000	6.623015	0.002953	NaN	0.000000	0.001644	0.001669	28.0787	0.061455	0.002022	30.3874	51.6766	-165.372	-0.071698	0.621250	-0.507199	-0.508503	0.002953	30.3874	-0.507272	-4.32918e+06	-6.821648E-10	NaN
266	1.000000	0.632537	7.36766e+06	-51939.1	955.818	-29750.9	0.000000	0.000000	6.632997	-0.005042	NaN	0.000000	0.001686	0.001673	28.0798	0.108106	0.001937	55.8158	-1.757166	15.4067	-0.060814	0.631221	-0.497216	-0.498532	-0.005042	55.8158	-0.497149	-3.12772e+06	1.612107E-9	NaN
266	1.000000	0.642586	7.36766e+06	-51939.1	955.819	-29750.9	0.000000	0.000000	6.643045	-0.026531	NaN	0.000000	0.001678	0.001663	28.0788	0.063666	0.001959	32.4953	-124.145	-161.941	0.010387	0.641225	-0.487167	-0.488528	-0.026531	32.4953	-0.486555	-2.22453e+06	1.192670E-8	NaN
266	1.000000	0.652515	7.36766e+06	-51939.1	955.819	-29750.9	0.000000	0.000000	6.652976	0.015065	NaN	0.000000	0.001684	0.001655	28.0788	0.132124	0.002043	64.6746	-62.2439	16.8061	0.011181	0.651205	-0.477238	-0.478549	0.015065	64.6746	-0.477413	-1.65693e+06	-9.092017E-9	NaN
266	1.000000	0.662572	7.36766e+06	-51939.1	955.819	-29750.9	0.000000	0.000000	6.663034	0.065941	NaN	0.000000	0.001638	0.001692	28.0787	0.035234	0.001851	19.0323	51.6186	-165.706	0.034352	0.661189	-0.467182	-0.468565	0.065941	19.0323	-0.469780	-1.29517e+06	-5.091334E-8	NaN
266	1.000000	0.672559	7.36766e+06	-51939.1	955.819	-29750.9	0.000000	0.000000	6.673017	-0.020060	NaN	0.000000	0.001626	0.001677	28.0786	0.043918	0.001961	22.3948	-96.6219	12.8779	-0.046862	0.671224	-0.457195	-0.458530	-0.020060	22.3948	-0.456523	-843612	2.377861E-8	NaN
266	1.000000	0.682576	7.36766e+06	-51939.1	955.818	-29750.9	0.000000	0.000000	6.683035	-0.025005	NaN	0.000000	0.001640	0.001694	28.0788	0.055803	0.001969	28.3454	82.0742	-167.855	-0.015185	0.681235	-0.447178	-0.448519	-0.025005	28.3454	-0.446516	-609905	4.099787E-8	NaN
266	1.000000	0.692574	7.36766e+06	-51939.1	955.819	-29750.9	0.000000	0.000000	6.693033	-0.031321	NaN	0.000000	0.001666	0.001674	28.0786	0.066649	0.001975	33.7518	87.368	14.4197	0.024950	0.691183	-0.437179	-0.438571	-0.031321	33.7518	-0.436483	-440262	7.114164E-8	NaN
266	1.000000	0.702533	7.36766e+06	-51939.1	955.818	-29750.9	0.000000	0.000000	6.702992	-0.009445	NaN	0.000000	0.001619	0.001702	28.0777	0.039531	0.002151	18.3819	128.78	-167.037	-0.042018	0.701237	-0.427221	-0.428516	-0.009445	18.3819	-0.426835	-321568	2.937195E-8	NaN
266	1.000000	0.712550	7.36766e+06	-51939.1	955.819	-29750.9	0.000000	0.000000	6.713009	-0.019001	NaN	0.000000	0.001632	0.001685	28.0773	0.032812	0.001867	17.5726	-51.5421	14.0345	0.048948	0.711160	-0.417204	-0.418593	-0.019001	17.5726	-0.416393	-228683	8.308745E-8	NaN
266	1.000000	0.722584	7.36766e+06	-51939.1	955.818	-29750.9	0.000000	0.000000	6.723040	-0.071175	NaN	0.000000	0.001648	0.001700	28.0775	0.052384	0.002139	24.4851	-16.9305	-166.002	-0.095458	0.721292	-0.407170	-0.408462	-0.071175	24.4851	-0.404990	-157436	4.520875E-7	NaN
266	1.000000	0.732549	7.36766e+06	-51939.1	955.818	-29750.9	0.000000	0.000000	6.733007	-0.024973	NaN	0.000000	0.001662	0.001671	28.0773	0.027991	0.001992	14.0505	170.76	13.8376	-0.063046	0.731225	-0.397205	-0.398529	-0.024973	14.0505	-0.395872	-116704	2.139874E-7	NaN
266	1.000000	0.742569	7.36766e+06	-51939.1	955.818	-29750.9	0.000000	0.000000	6.743027	-0.025861	NaN	0.000000	0.001631	0.001684	28.0774	0.091289	0.001989	45.9076	41.6839	-167.831	-0.043938	0.741293	-0.387185	-0.388461	-0.025861	45.9076	-0.386763	-86463.8	2.990965E-7	NaN
266	1.000000	0.752590	7.36766e+06	-51939.1	955.819	-29750.9	0.000000	0.000000	6.753050	-0.004281	NaN	0.000000	0.001554	0.001650	28.0774	0.072883	0.001891	38.5462	21.2397	15.6285	-0.088030	0.751225	-0.377163	-0.378529	-0.004281	38.5462	-0.377080	-62800.3	6.816263E-8	NaN
266	1.000000	0.762580	7.36766e+06	-51939.1	955.819	-29750.9	0.000000	0.000000	6.763039	-0.028414	NaN	0.000000	0.001591	0.001647	28.0775	0.072942	0.001939	37.6104	167.384	-167.367	-0.075662	0.761323	-0.367174	-0.368431	-0.028414	37.6104	-0.366607	-44384.7	6.401813E-7	NaN
266	1.000000	0.772572	7.36766e+06	-51939.1	955.819	-29750.9	0.000000	0.000000	6.773033	0.043151	NaN	0.000000	0.001618	0.001657	28.0773	0.021760	0.002059	10.5695	-76.3729	13.6566	-0.073391	0.771245	-0.357182	-0.358509	0.043151	10.5695	-0.360244	-35922.8	-1.201221E-6	NaN
266	1.000000	0.782598	7.36766e+06	-51939.1	955.818	-29750.9	0.000000	0.000000	6.783057	-0.006353	NaN	0.000000	0.001633	0.001699	28.0775	0.121807	0.002112	57.6693	0.438684	-166.859	0.034111	0.781265	-0.347156	-0.348489	-0.006353	57.6693	-0.347073	-23147.3	2.744741E-7	NaN
266	1.000000	0.792599	7.36766e+06	-51939.1	955.818	-29750.9	0.000000	0.000000	6.793057	-0.026602	NaN	0.000000	0.001620	0.001658	28.0776	0.124135	0.001989	62.3993	-117.766	16.9206	0.014818	0.791266	-0.337155	-0.338488	-0.026602	62.3993	-0.336835	-16420.6	1.620016E-6	NaN
266	1.000000	0.802606	7.36766e+06	-51939.1	955.819	-29750.9	0.000000	0.000000	6.803066	0.007292	NaN	0.000000	0.001587	0.001669	28.0777	0.050667	0.002086	24.2903	134.245	-165.156	0.009011	0.801335	-0.327147	-0.328419	0.007292	24.2903	-0.327373	-11938.4	-6.107912E-7	NaN
266	1.000000	0.812585	7.36766e+06	-51939.1	955.818	-29750.9	0.000000	0.000000	6.813046	0.040295	NaN	0.000000	0.001646	0.001655	28.0777	0.054821	0.002019	27.1572	-76.5837	14.0599	0.006849	0.811302	-0.317169	-0.318451	0.040295	27.1572	-0.318282	-8776.88	-4.591093E-6	NaN
266	1.000000	0.822601	7.36766e+06	-51939.1	955.819	-29750.9	0.000000	0.000000	6.823062	0.025520	NaN	0.000000	0.001585	0.001707	28.0776	0.048207	0.001894	25.4575	-75.8958	-164.38	0.078783	0.821311	-0.307152	-0.308442	0.025520	25.4575	-0.307904	-6166.24	-4.138648E-6	NaN
266	1.000000	0.832629	7.36766e+06	-51939.1	955.819	-29750.9	0.000000	0.000000	6.833087	-0.037767	NaN	0.000000	0.001625	0.001660	28.0778	0.093519	0.001963	47.6298	172.544	14.0545	-0.056556	0.831277	-0.297125	-0.298477	-0.037767	47.6298	-0.296530	-4177.6	9.040402E-6	NaN
266	1.000000	0.842621	7.36766e+06	-51939.1	955.819	-29750.9	0.000000	0.000000	6.843082	0.044023	NaN	0.000000	0.001608	0.001688	28.0785	0.010440	0.001996	5.229631	-82.4651	-169.997	-0.003906	0.841344	-0.287133	-0.288410	0.044023	5.229631	-0.293447	-3757.32	-1.171667E-5	NaN
266	1.000000	0.852625	7.36766e+06	-51939.1	955.818	-29750.9	0.000000	0.000000	6.853085	0.011029	NaN	0.000000	0.001626	0.001669	28.0789	0.043733	0.002054	21.2872	-178.25	13.0901	0.057222	0.851267	-0.277129	-0.278486	0.011029	21.2872	-0.277517	-2165.11	-5.093962E-6	NaN
266	1.000000	0.862623	7.36766e+06	-51939.1	955.819	-29750.9	0.000000	0.000000	6.863081	-0.038716	NaN	0.000000	0.001598	0.001660	28.0788	0.042274	0.002098	20.1463	-144.281	-162	-0.055987	0.861377	-0.267130	-0.268377	-0.038716	20.1463	-0.265689	-1431.86	2.703905E-5	NaN
266	1.000000	0.872632	7.36766e+06	-51939.1	955.819	-29750.9	0.000000	0.000000	6.873090	-0.023372	NaN	0.000000	0.001599	0.001695	28.079	0.059686	0.002036	29.3115	-8.794504	12.5121	-0.067283	0.871224	-0.257122	-0.258530	-0.023372	29.3115	-0.256524	-1036.48	2.254976E-5	NaN
266	1.000000	0.882618	7.36766e+06	-51939.1	955.819	-29750.9	0.000000	0.000000	6.883078	0.010723	NaN	0.000000	0.001577	0.001666	28.0788	0.026861	0.001916	14.0224	77.6431	-166.772	0.033620	0.881302	-0.247136	-0.248451	0.010723	14.0224	-0.247710	-757.714	-1.415195E-5	NaN
266	1.000000	0.892653	7.36766e+06	-51939.1	955.818	-29750.9	0.000000	0.000000	6.893110	-0.048228	NaN	0.000000	0.001582	0.001651	28.0788	0.080192	0.001943	41.2773	178.102	13.0576	-0.109098	0.891217	-0.237101	-0.238537	-0.048228	41.2773	-0.236225	-501.726	9.612430E-5	NaN
266	1.000000	0.902637	7.36766e+06	-51939.1	955.819	-29750.9	0.000000	0.000000	6.903096	-0.026343	NaN	0.000000	0.001570	0.001701	28.0787	0.009832	0.001965	5.002686	39.0705	-164.234	0.014465	0.901350	-0.227117	-0.228403	-0.026343	5.002686	-0.223167	-312.026	8.442705E-5	NaN
266	1.000000	0.912651	7.36766e+06	-51939.1	955.818	-29750.9	0.000000	0.000000	6.913109	-0.045358	NaN	0.000000	0.001596	0.001682	28.079	0.082069	0.002152	38.1384	-0.989515	15.5755	-0.152751	0.911297	-0.217102	-0.218457	-0.045358	38.1384	-0.216211	-241.529	0.000188	NaN
266	1.000000	0.922653	7.36766e+06	-51939.1	955.82	-29750.9	0.000000	0.000000	6.923116	0.084129	NaN	0.000000	0.001621	0.001659	28.0787	0.052722	0.001935	27.246	-149.068	-171.279	-0.011870	0.921361	-0.207100	-0.208392	0.084129	27.246	-0.209416	-187.656	-0.000448	NaN
266	1.000000	0.932679	7.36766e+06	-51939.1	955.819	-29750.9	0.000000	0.000000	6.933138	-0.019441	NaN	0.000000	0.001594	0.001673	28.0789	0.082849	0.001805	45.9117	99.3534	14.1677	-0.130373	0.931305	-0.197075	-0.198449	-0.019441	45.9117	-0.196757	-116.485	0.000167	NaN
266	1.000000	0.942686	7.36766e+06	-51939.1	955.818	-29750.9	0.000000	0.000000	6.943146	0.014401	NaN	0.000000	0.001597	0.001691	28.079	0.030575	0.001876	16.2996	9.776168	-166.514	0.013157	0.941373	-0.187068	-0.188380	0.014401	16.2996	-0.187731	-82.4221	-0.000175	NaN
266	1.000000	0.952685	7.36766e+06	-51939.1	955.818	-29750.9	0.000000	0.000000	6.953143	-0.040222	NaN	0.000000	0.001616	0.001638	28.0792	0.039819	0.001931	20.6254	-72.504	15.5727	-0.066891	0.951324	-0.177068	-0.178430	-0.040222	20.6254	-0.175606	-51.3314	0.000784	NaN
266	1.000000	0.962656	7.36766e+06	-51939.1	955.818	-29750.9	0.000000	0.000000	6.963115	-0.016842	NaN	0.000000	0.001629	0.001672	28.0791	0.059603	0.002041	29.2025	-0.928446	-161.788	-0.041525	0.961320	-0.167097	-0.168434	-0.016842	29.2025	-0.166665	-35.9323	0.000469	NaN
266	1.000000	0.972652	7.36766e+06	-51939.1	955.818	-29750.9	0.000000	0.000000	6.973113	0.022704	NaN	0.000000	0.001576	0.001627	28.0791	0.053396	0.002002	26.6689	55.3392	10.6948	-0.001622	0.971250	-0.157101	-0.158504	0.022704	26.6689	-0.157740	-24.9867	-0.000909	NaN
266	1.000000	0.982717	7.36766e+06	-51939.1	955.819	-29750.9	0.000000	0.000000	6.983177	0.019139	NaN	0.000000	0.001642	0.001656	28.078	0.033551	0.002027	16.549	-83.9118	-168.253	0.018320	0.981340	-0.147037	-0.148413	0.019139	16.549	-0.147904	-16.5832	-0.001154	NaN
266	1.000000	0.992708	7.36766e+06	-51939.1	955.819	-29750.9	0.000000	0.000000	6.993171	0.067241	NaN	0.000000	0.001604	0.001688	28.0779	0.042759	0.001956	21.8639	-111.48	12.5054	0.008218	0.991342	-0.137045	-0.138411	0.067241	21.8639	-0.139352	-11.5022	-0.005846	NaN
266	1.000000	1.002692	7.36766e+06	-51939.1	955.819	-29750.9	0.000000	0.000000	7.003155	0.077554	NaN	0.000000	0.001671	0.001695	28.0779	0.107572	0.002165	49.6907	69.9954	-165.751	0.072795	1.001380	-0.127061	-0.128373	0.077554	49.6907	-0.128232	-7.039712	-0.011017	NaN
266	1.000000	1.012733	7.36766e+06	-51939.1	955.818	-29750.9	0.000000	0.000000	7.013194	0.034655	NaN	0.000000	0.001611	0.001660	28.078	0.075736	0.001993	38.0015	51.537	14.0558	-0.052418	1.011334	-0.117020	-0.118420	0.034655	38.0015	-0.117704	-4.340386	-0.007984	NaN
266	1.000000	1.022695	7.36766e+06	-51939.1	955.818	-29750.9	0.000000	0.000000	7.023154	-0.018855	NaN	0.000000	0.001648	0.001681	28.0777	0.123787	0.002053	60.2884	-87.8123	-164.529	-0.033748	1.021375	-0.107059	-0.108379	-0.018855	60.2884	-0.106824	-2.572795	0.007329	NaN
266	1.000000	1.032684	7.36766e+06	-51939.1	955.82	-29750.9	0.000000	0.000000	7.033141	-0.052032	NaN	0.000000	0.001652	0.001699	28.0777	0.099138	0.002038	48.6501	138.808	10.5998	-0.096852	1.031307	-0.097070	-0.098447	-0.052032	48.6501	-0.096268	-1.507283	0.034520	NaN
266	1.000000	1.042704	7.36766e+06	-51939.1	955.819	-29750.9	0.000000	0.000000	7.043162	-0.049393	NaN	0.000000	0.001622	0.001724	28.0779	0.037811	0.001867	20.2492	137.383	-170.655	-0.013170	1.041373	-0.087050	-0.088381	-0.049393	20.2492	-0.085220	-0.831768	0.059383	NaN
266	1.000000	1.052676	7.36766e+06	-51939.1	955.819	-29750.9	0.000000	0.000000	7.053136	0.000309	NaN	0.000000	0.001632	0.001717	28.0777	0.057670	0.001959	29.4408	-82.2083	13.0439	-0.019432	1.051360	-0.077077	-0.078394	0.000309	29.4408	-0.077085	-0.522489	-0.000592	NaN
266	1.000000	1.062739	7.36766e+06	-51939.1	955.819	-29750.9	0.000000	0.000000	7.063198	-0.020609	NaN	0.000000	0.001593	0.001693	28.0781	0.023124	0.001906	12.1315	40.7183	-168.956	-0.030079	1.061408	-0.067015	-0.068346	-0.020609	12.1315	-0.065741	-0.261262	0.078882	NaN
266	1.000000	1.072726	7.36766e+06	-51939.1	955.819	-29750.9	0.000000	0.000000	7.073185	-0.019080	NaN	0.000000	0.001608	0.001676	28.0778	0.017135	0.002013	8.510322	-104.243	11.1507	-0.027501	1.071386	-0.057028	-0.058368	-0.019080	8.510322	-0.055346	-0.131847	0.144710	NaN
266	1.000000	1.082704	7.36766e+06	-51939.1	955.818	-29750.9	0.000000	0.000000	7.083163	-0.012388	NaN	0.000000	0.001617	0.001726	28.0779	0.095462	0.001966	48.5443	-154.774	-166.301	-0.071078	1.081403	-0.047050	-0.048351	-0.012388	48.5443	-0.046858	-0.073242	0.169133	NaN
266	1.000000	1.092758	7.36766e+06	-51939.1	955.818	-29750.9	0.000000	0.000000	7.093218	0.013096	NaN	0.000000	0.001606	0.001658	28.0778	0.050470	0.001971	25.6042	117.936	16.8916	0.070620	1.091350	-0.036995	-0.038403	0.013096	25.6042	-0.037379	-0.037689	-0.347481	NaN
266	1.000000	1.102745	7.36766e+06	-51939.1	955.818	-29750.9	0.000000	0.000000	7.103203	-0.045164	NaN	0.000000	0.001672	0.001655	28.0781	0.079565	0.001922	41.3869	-160.637	-166.45	0.005940	1.101449	-0.027008	-0.028305	-0.045164	41.3869	-0.026190	-0.018131	2.490936	NaN
266	1.000000	1.112734	7.36766e+06	-51939.1	955.818	-29750.9	0.000000	0.000000	7.113192	-0.029405	NaN	0.000000	0.001665	0.001679	28.0788	0.017700	0.001914	9.247344	-146.059	16.193	-0.072370	1.111382	-0.017020	-0.018372	-0.029405	9.247344	-0.014635	-0.009058	3.246391	NaN
266	1.000000	1.122723	7.36766e+06	-51939.1	955.818	-29750.9	0.000000	0.000000	7.123181	-0.047160	NaN	0.000000	0.001706	0.001741	28.0787	0.108054	0.002001	53.9869	-105.53	-165.869	-0.016520	1.121426	-0.007030	-0.008328	-0.047160	53.9869	-0.006375	-0.004265	11.0583	NaN
266	1.000000	1.132722	7.36766e+06	-51939.1	955.818	-29750.9	0.000000	0.000000	7.133241	1.450503	NaN	0.000000	0.001640	0.001678	28.0792	2.273764	0.001929	1178.84	12.0279	8.602550	0.541310	1.131347	0.002968	0.001593	1.450503	1178.84	0.002045	0.001591	911.463	26998.4
266	2.000000	1.140296	7.36766e+06	-51939.1	955.819	-29750.9	0.000000	0.000000	7.141176	10.2151	NaN	0.000000	0.001647	0.001669	28.0792	10.2301	0.001698	6025.08	9.311382	-177.078	10.3686	1.139976	0.010542	0.010223	10.2151	6025.08	0.009271	0.008382	1218.64	60124.8
266	2.000000	1.142738	7.36766e+06	-51939.1	955.819	-29750.9	0.000000	0.000000	7.143749	13.4023	NaN	0.000000	0.001642	0.001694	28.0793	13.247	0.001727	7670.02	6.341774	2.834411	11.7649	1.142452	0.012984	0.012698	13.4023	7670.02	0.011674	0.011101	1207.26	66508.9
266	2.000000	1.145239	7.36766e+06	-51939.1	955.819	-29750.9	0.000000	0.000000	7.146455	18.3898	NaN	0.000000	0.001640	0.001683	28.0794	16.3158	0.001762	9257.75	6.046684	-177.328	16.6025	1.144944	0.015485	0.015190	18.3898	9257.75	0.013995	0.013969	1316.49	71564.6
266	2.000000	1.147717	7.36766e+06	-51939.1	955.819	-29750.9	0.000000	0.000000	7.149136	23.3149	NaN	0.000000	0.001603	0.001658	28.0795	18.1071	0.001675	10809	2.899073	4.630009	20.5666	1.147381	0.017963	0.017627	23.3149	10809	0.016346	0.017122	1361.69	75470.9
266	2.000000	1.150241	7.36766e+06	-51939.1	955.82	-29750.9	0.000000	0.000000	7.151878	28.6165	NaN	0.000000	0.001605	0.001670	28.0792	20.8831	0.001731	12063.3	5.498023	-178.253	29.2175	1.149898	0.020487	0.020144	28.6165	12063.3	0.018708	0.020553	1392.34	76878
266	2.000000	1.152694	7.36766e+06	-51939.1	955.819	-29750.9	0.000000	0.000000	7.154583	34.7578	NaN	0.000000	0.001604	0.001685	28.0792	23.5855	0.001747	13502.1	1.961356	4.264744	32.733	1.152375	0.022940	0.022622	34.7578	13502.1	0.021010	0.024154	1439.01	79374.7
266	2.000000	1.155146	7.36766e+06	-51939.1	955.819	-29750.9	0.000000	0.000000	7.157238	39.6978	NaN	0.000000	0.001577	0.001712	28.0792	26.2377	0.001814	14467.1	2.282014	-176.246	37.4988	1.154846	0.025392	0.025092	39.6978	14467.1	0.023334	0.028055	1415	78913
266	2.000000	1.157662	7.36766e+06	-51939.1	955.82	-29750.9	0.000000	0.000000	7.160049	46.8635	NaN	0.000000	0.001625	0.001734	28.0794	28.5362	0.001699	16797.9	4.346419	0.333843	43.5388	1.157336	0.027909	0.027582	46.8635	16797.9	0.025816	0.032517	1441.19	85108.3
266	2.000000	1.160182	7.36766e+06	-51939.1	955.82	-29750.9	0.000000	0.000000	7.162881	54.4674	NaN	0.000000	0.001557	0.001717	28.0793	31.4749	0.001616	19472.6	9.114083	174.21	56.1362	1.159905	0.030428	0.030151	54.4674	19472.6	0.028330	0.037353	1458.16	92051.7
266	2.000000	1.162641	7.36766e+06	-51939.1	955.82	-29750.9	0.000000	0.000000	7.165683	62.7984	NaN	0.000000	0.001610	0.001718	28.079	34.9309	0.001842	18964.7	7.060227	-4.091365	60.4239	1.162313	0.032887	0.032559	62.7984	18964.7	0.030404	0.041585	1510.12	84966.8
266	2.000000	1.165155	7.36766e+06	-51939.1	955.82	-29750.9	0.000000	0.000000	7.168542	71.1712	NaN	0.000000	0.001591	0.001727	28.0795	36.7608	0.001813	20274.5	3.320905	179.633	69.9911	1.164841	0.035401	0.035087	71.1712	20274.5	0.032768	0.046677	1524.75	85737.4
266	2.000000	1.167671	7.36766e+06	-51939.1	955.819	-29750.9	0.000000	0.000000	7.171409	79.7023	NaN	0.000000	0.001557	0.001707	28.0781	38.6175	0.001755	21998.6	3.293278	-0.390201	78.0949	1.167372	0.037917	0.037618	79.7023	21998.6	0.035200	0.052213	1526.48	87958.8
266	2.000000	1.170110	7.36766e+06	-51939.1	955.819	-29750.9	0.000000	0.000000	7.174164	87.3853	NaN	0.000000	0.001597	0.001742	28.0781	41.8626	0.001804	23202.5	5.410076	175.046	84.544	1.169850	0.040357	0.040097	87.3853	23202.5	0.037532	0.057806	1511.7	88170
266	2.000000	1.172679	7.36766e+06	-51939.1	955.82	-29750.9	0.000000	0.000000	7.177334	102.014	NaN	0.000000	0.001587	0.001709	28.0779	44.6685	0.001938	23052	5.035372	-2.023506	101.838	1.172145	0.042925	0.042391	102.014	23052	0.039606	0.063015	1618.88	83899.7
266	2.000000	1.175138	7.36766e+06	-51939.1	955.819	-29750.9	0.000000	0.000000	7.180015	107.405	NaN	0.000000	0.001553	0.001747	28.0781	46.37	0.001856	24978	4.494967	176.186	106.784	1.174853	0.045384	0.045100	107.405	24978	0.042159	0.069728	1540.33	86422.3
266	2.000000	1.177693	7.36766e+06	-51939.1	955.82	-29750.9	0.000000	0.000000	7.183065	119.434	NaN	0.000000	0.001642	0.001716	28.078	47.8736	0.001836	26081.6	1.928347	-0.877355	119.049	1.177286	0.047939	0.047532	119.434	26081.6	0.044505	0.076188	1567.62	86330.5
266	2.000000	1.180129	7.36766e+06	-51939.1	955.821	-29750.9	0.000000	0.000000	7.185913	129.455	NaN	0.000000	0.001642	0.001719	28.0781	49.4086	0.001673	29540.5	3.974748	175.453	127.781	1.179827	0.050375	0.050073	129.455	29540.5	0.047089	0.083627	1548	93329.2
266	2.000000	1.182582	7.36766e+06	-51939.1	955.82	-29750.9	0.000000	0.000000	7.188765	139.151	NaN	0.000000	0.001667	0.001720	28.0779	52.9602	0.001895	27951.7	2.460775	-2.670999	135.035	1.182366	0.052829	0.052612	139.151	27951.7	0.049095	0.089636	1552.39	85298.1
266	2.000000	1.185115	7.36766e+06	-51939.1	955.82	-29750.9	0.000000	0.000000	7.191995	156.103	NaN	0.000000	0.001550	0.001733	28.0783	54.7905	0.001794	30544.2	-0.005977	179.035	153.407	1.184852	0.055362	0.055098	156.103	30544.2	0.051529	0.097196	1606.06	89511.1
266	2.000000	1.187642	7.36766e+06	-51939.1	955.819	-29750.9	0.000000	0.000000	7.195087	169.849	NaN	0.000000	0.001591	0.001707	28.078	57.3533	0.001751	32748.4	7.143813	-8.603704	167.613	1.187272	0.057888	0.057519	169.849	32748.4	0.053998	0.105171	1614.98	92260.4
266	2.000000	1.190141	7.36766e+06	-51939.1	955.82	-29750.9	0.000000	0.000000	7.197752	173.895	NaN	0.000000	0.001585	0.001745	28.0779	58.921	0.001836	32097.8	6.250522	172.879	172.538	1.189747	0.060387	0.059993	173.895	32097.8	0.056324	0.112958	1539.47	87255.1
266	2.000000	1.192680	7.36766e+06	-51939.1	955.819	-29750.9	0.000000	0.000000	7.200961	190.165	NaN	0.000000	0.001572	0.001730	28.0777	61.6929	0.001783	34604.4	7.526272	-9.175885	190.393	1.192121	0.062927	0.062368	190.165	34604.4	0.058805	0.121558	1564.39	90680.2
266	2.000000	1.195096	7.36766e+06	-51939.1	955.819	-29750.9	0.000000	0.000000	7.203830	201.193	NaN	0.000000	0.001577	0.001689	28.078	63.9643	0.001743	36689	4.329637	172.902	197.488	1.194933	0.065342	0.065179	201.193	36689	0.061229	0.130253	1544.63	92878.6
266	2.000000	1.197536	7.36766e+06	-51939.1	955.819	-29750.9	0.000000	0.000000	7.206886	216.18	NaN	0.000000	0.001577	0.001708	28.0779	64.8403	0.001648	39353.2	0.105607	-3.329399	209.535	1.197365	0.067782	0.067612	216.18	39353.2	0.063662	0.139267	1552.27	96345
266	2.000000	1.200054	7.36766e+06	-51939.1	955.819	-29750.9	0.000000	0.000000	7.210081	232.636	NaN	0.000000	0.001570	0.001725	28.0779	68.5664	0.001866	36738.5	2.833227	175.008	229.674	1.199801	0.070300	0.070048	232.636	36738.5	0.065551	0.146463	1588.36	87706
266	2.000000	1.202487	7.36766e+06	-51939.1	955.819	-29750.9	0.000000	0.000000	7.213287	251.451	NaN	0.000000	0.001595	0.001708	28.0791	71.6545	0.001795	39926.5	7.457558	-9.846980	243.246	1.202150	0.072733	0.072397	251.451	39926.5	0.068010	0.156085	1610.98	92332.3
266	2.000000	1.205050	7.36766e+06	-51939.1	955.82	-29750.9	0.000000	0.000000	7.215853	251.495	NaN	0.000000	0.001616	0.001700	28.0793	73.6943	0.001704	43248.7	2.620623	173.674	248.25	1.204957	0.075297	0.075203	251.495	43248.7	0.070935	0.167914	1497.76	96427.9
266	2.000000	1.207642	7.36766e+06	-51939.1	955.82	-29750.9	0.000000	0.000000	7.219460	276.195	NaN	0.000000	0.001575	0.001707	28.0791	77.0776	0.001879	41021.8	8.186854	-10.4899	275.941	1.207169	0.077888	0.077415	276.195	41021.8	0.072838	0.175825	1570.85	89381.6
266	2.000000	1.210042	7.36766e+06	-51939.1	955.82	-29750.9	0.000000	0.000000	7.222505	291.851	NaN	0.000000	0.001596	0.001705	28.0789	77.0916	0.001618	47658.1	-0.060470	175.873	288.095	1.209786	0.080289	0.080033	291.851	47658.1	0.075696	0.188027	1552.18	100415
266	2.000000	1.212540	7.36766e+06	-51939.1	955.818	-29750.9	0.000000	0.000000	7.225879	313.159	NaN	0.000000	0.001629	0.001682	28.0804	80.5781	0.001829	44065.8	2.172099	-5.625942	308.971	1.212257	0.082786	0.082503	313.159	44065.8	0.077456	0.195735	1599.91	90999.7
266	2.000000	1.215136	7.36766e+06	-51939.1	955.82	-29750.9	0.000000	0.000000	7.229012	326.221	NaN	0.000000	0.001591	0.001681	28.0791	83.6659	0.001746	47923.3	6.797763	169.351	328.79	1.214773	0.085383	0.085019	326.221	47923.3	0.080277	0.208389	1565.44	95914.2
266	2.000000	1.217627	7.36766e+06	-51939.1	955.819	-29750.9	0.000000	0.000000	7.232406	348.186	NaN	0.000000	0.001585	0.001718	28.0791	84.381	0.001710	49348.1	1.552612	-5.683685	344.572	1.217221	0.087873	0.087467	348.186	49348.1	0.082582	0.219000	1589.89	96343.2
266	2.000000	1.220056	7.36766e+06	-51939.1	955.819	-29750.9	0.000000	0.000000	7.235376	361.345	NaN	0.000000	0.001534	0.001657	28.0787	86.718	0.001689	51352.5	3.521038	171.51	359.238	1.219768	0.090302	0.090014	361.345	51352.5	0.085025	0.230519	1567.53	97719.5
266	2.000000	1.222520	7.36766e+06	-51939.1	955.819	-29750.9	0.000000	0.000000	7.238619	380.281	NaN	0.000000	0.001542	0.001690	28.079	89.8099	0.001757	51124.2	4.617825	-9.056642	372.462	1.222213	0.092766	0.092459	380.281	51124.2	0.087187	0.240945	1578.29	95156.9
266	2.000000	1.225047	7.36766e+06	-51939.1	955.82	-29750.9	0.000000	0.000000	7.242168	405.111	NaN	0.000000	0.001564	0.001720	28.079	93.8101	0.001772	52933.5	4.912859	169.987	402.235	1.224733	0.095294	0.094980	405.111	52933.5	0.089554	0.252602	1603.75	96224.4
266	2.000000	1.227643	7.36766e+06	-51939.1	955.82	-29750.9	0.000000	0.000000	7.245460	422.042	NaN	0.000000	0.001534	0.001713	28.079	95.1783	0.001810	52586.6	3.834772	-7.998020	420.548	1.227157	0.097889	0.097403	422.042	52586.6	0.091870	0.264260	1597.07	93461.5
266	2.000000	1.230073	7.36766e+06	-51939.1	955.82	-29750.9	0.000000	0.000000	7.248780	443.678	NaN	0.000000	0.001581	0.001697	28.0788	97.646	0.001864	52375.2	5.257019	170.212	441.714	1.229766	0.100320	0.100012	443.678	52375.2	0.093966	0.275023	1613.24	91246
266	2.000000	1.232436	7.36766e+06	-51939.1	955.82	-29750.9	0.000000	0.000000	7.251914	462.435	NaN	0.000000	0.001579	0.001697	28.0791	100.58	0.001769	56854.8	4.223071	-9.445991	451.444	1.232053	0.102682	0.102300	462.435	56854.8	0.096582	0.288734	1601.6	96669.9
266	2.000000	1.235054	7.36766e+06	-51939.1	955.819	-29750.9	0.000000	0.000000	7.254934	472.215	NaN	0.000000	0.001603	0.001698	28.0776	103.089	0.001744	59122.5	0.073823	174.339	470.624	1.234914	0.105300	0.105161	472.215	59122.5	0.099310	0.303365	1556.59	98071.5
266	2.000000	1.237602	7.36766e+06	-51939.1	955.819	-29750.9	0.000000	0.000000	7.258605	499.524	NaN	0.000000	0.001579	0.001746	28.0777	105.611	0.001815	58183.1	4.516250	-9.813641	497.927	1.237229	0.107849	0.107476	499.524	58183.1	0.101410	0.314856	1586.52	94735.8
266	2.000000	1.238009	7.36766e+06	-51939.1	955.82	-29750.9	0.000000	0.000000	7.259256	505.454	NaN	0.000000	0.001595	0.001766	28.0775	106.45	0.001846	57672.6	2.009123	172.948	501.236	1.237801	0.108256	0.108047	505.454	57672.6	0.101683	0.316365	1597.69	93680.3