File: remote_trans/data/nanoindenter/0828-1/data/Data_2025-08-06,11h17m57s/2025-07-22_16-23-58_1_754.txt
2025-07-22, 16:23:58, 1
Index	Phase	Displacement	Time	Pos X	Pos Y	Pos Z	Rot A	Rot B	Piezo Z	Force A	Force B	Gripper	Voltage A	Voltage B	Temperature	Amplitude force	Amplitude pos	Stiffness	Phase shift	Phase excitation	Force A raw	Displacement raw	HMax	HMax raw	Real Force	Real Stiffness	Contact Depth	Area	Hardness	Reduced Mod.
[#]	[#]	[um]	[s]	[um]	[um]	[um]	[m°]	[m°]	[um]	[uN]	[uN]	[V]	[V]	[V]	[°C]	[uN]	[um]	[N/m]	[°]	[°]	[uN]	[um]	[um]	[um]	[uN]	[N/m]	[um]	[um^2]	[MPa]	[MPa]
754	1.000000	0.003043	7.37243e+06	-39389.1	1005.82	-29794	0.000000	0.000000	6.002778	0.008848	NaN	0.000000	0.001643	0.001763	28.0832	0.108431	0.000866	125.209	22.8408	-168.196	-0.010284	0.001811	-1.119211	-1.120442	0.008848	125.209	-1.119264	-9.090596E+14	-9.732762E-18	NaN
754	1.000000	0.013132	7.37243e+06	-39389.1	1005.82	-29794	0.000000	0.000000	6.012866	-0.011023	NaN	0.000000	0.001640	0.001743	28.0816	0.072145	0.001158	62.2858	-168.574	12.3251	-0.008092	0.011591	-1.109122	-1.110662	-0.011023	62.2858	-1.108989	-6.617858E+14	1.665605E-17	NaN
754	1.000000	0.023038	7.37243e+06	-39389.1	1005.82	-29794	0.000000	0.000000	6.022775	0.039124	NaN	0.000000	0.001625	0.001743	28.0814	0.047907	0.001661	28.8416	44.5891	-166.077	0.086086	0.021733	-1.099215	-1.100521	0.039124	28.8416	-1.100233	-5.048817E+14	-7.749147E-17	NaN
754	1.000000	0.033047	7.37243e+06	-39389.1	1005.82	-29794	0.000000	0.000000	6.032784	0.056639	NaN	0.000000	0.001621	0.001704	28.0817	0.100978	0.001922	52.5462	-15.7897	15.191	0.005815	0.031634	-1.089207	-1.090620	0.056639	52.5462	-1.090015	-3.681440E+14	-1.538506E-16	NaN
754	1.000000	0.043021	7.37243e+06	-39389.1	1005.82	-29794	0.000000	0.000000	6.042757	0.019214	NaN	0.000000	0.001613	0.001716	28.0816	0.038784	0.001933	20.0644	177.376	-167.924	0.039527	0.041755	-1.079233	-1.080499	0.019214	20.0644	-1.079951	-2.696857E+14	-7.124568E-17	NaN
754	1.000000	0.053026	7.37243e+06	-39389.1	1005.82	-29794	0.000000	0.000000	6.052762	0.029445	NaN	0.000000	0.001583	0.001736	28.0814	0.044689	0.001985	22.5132	30.2354	11.404	-0.030096	0.051656	-1.069228	-1.070597	0.029445	22.5132	-1.070209	-1.995222E+14	-1.475800E-16	NaN
754	1.000000	0.063043	7.37243e+06	-39389.1	1005.82	-29794	0.000000	0.000000	6.062779	0.027665	NaN	0.000000	0.001614	0.001717	28.0814	0.065064	0.002074	31.3706	-136.048	-167.972	0.037704	0.061741	-1.059210	-1.060513	0.027665	31.3706	-1.059872	-1.449100E+14	-1.909102E-16	NaN
754	1.000000	0.073013	7.37243e+06	-39389.1	1005.82	-29794	0.000000	0.000000	6.072750	0.051340	NaN	0.000000	0.001698	0.001721	28.0813	0.087873	0.001981	44.3567	-127.196	13.967	0.011907	0.071620	-1.049240	-1.050633	0.051340	44.3567	-1.050109	-1.071205E+14	-4.792738E-16	NaN
754	1.000000	0.083011	7.37243e+06	-39389.1	1005.82	-29794	0.000000	0.000000	6.082747	0.028694	NaN	0.000000	0.001675	0.001719	28.0815	0.024197	0.001988	12.174	-64.4891	-166.998	0.069464	0.081744	-1.039242	-1.040510	0.028694	12.174	-1.041010	-8.082559E+13	-3.550082E-16	NaN
754	1.000000	0.093039	7.37243e+06	-39389.1	1005.82	-29794	0.000000	0.000000	6.092776	0.059642	NaN	0.000000	0.001676	0.001735	28.0813	0.064568	0.002141	30.1539	-104.2	13.0415	0.150725	0.091719	-1.029214	-1.030535	0.059642	30.1539	-1.030698	-5.873108E+13	-1.015518E-15	NaN
754	1.000000	0.103061	7.37243e+06	-39389.1	1005.82	-29794	0.000000	0.000000	6.102796	0.003904	NaN	0.000000	0.001679	0.001734	28.0814	0.102835	0.002024	50.7983	-9.034558	-164.039	-0.018101	0.101711	-1.019192	-1.020543	0.003904	50.7983	-1.019250	-4.119644E+13	-9.477203E-17	NaN
754	1.000000	0.113028	7.37243e+06	-39389.1	1005.82	-29794	0.000000	0.000000	6.112763	-0.008560	NaN	0.000000	0.001725	0.001701	28.0813	0.018984	0.002028	9.360715	-61.0194	14.3889	0.041121	0.111650	-1.009225	-1.010604	-0.008560	9.360715	-1.008540	-2.956148E+13	2.895526E-16	NaN
754	1.000000	0.123047	7.37243e+06	-39389.1	1005.82	-29794	0.000000	0.000000	6.122783	0.039183	NaN	0.000000	0.001675	0.001781	28.0817	0.129353	0.001971	65.6129	-135.611	-166.831	-0.004958	0.121758	-0.999207	-1.000496	0.039183	65.6129	-0.999655	-2.244497E+13	-1.745747E-15	NaN
754	1.000000	0.133061	7.37243e+06	-39389.1	1005.82	-29794	0.000000	0.000000	6.132798	0.052546	NaN	0.000000	0.001671	0.001763	28.0814	0.021310	0.001929	11.0454	16.0522	12.4557	0.048728	0.131711	-0.989192	-0.990543	0.052546	11.0454	-0.992760	-1.812524E+13	-2.899047E-15	NaN
754	1.000000	0.143056	7.37243e+06	-39389.1	1005.82	-29794	0.000000	0.000000	6.142793	0.060829	NaN	0.000000	0.001669	0.001790	28.0828	0.052970	0.001915	27.6652	-2.438263	-165.792	0.043695	0.141655	-0.979198	-0.980598	0.060829	27.6652	-0.980847	-1.252610E+13	-4.856140E-15	NaN
754	1.000000	0.153064	7.37243e+06	-39389.1	1005.82	-29794	0.000000	0.000000	6.152798	-0.025015	NaN	0.000000	0.001662	0.001755	28.083	0.063566	0.002115	30.0519	-29.0497	15.4053	0.031644	0.151657	-0.969190	-0.970597	-0.025015	30.0519	-0.968565	-8.557118E+12	2.923344E-15	NaN
754	1.000000	0.163048	7.37243e+06	-39389.1	1005.82	-29794	0.000000	0.000000	6.162783	0.018348	NaN	0.000000	0.001714	0.001743	28.083	0.032881	0.001822	18.0449	117.333	-165.531	-0.071788	0.161689	-0.959206	-0.960565	0.018348	18.0449	-0.959968	-6.553028E+12	-2.799863E-15	NaN
754	1.000000	0.173071	7.37243e+06	-39389.1	1005.82	-29794	0.000000	0.000000	6.172801	-0.100131	NaN	0.000000	0.001640	0.001760	28.083	0.032352	0.002005	16.1378	-148.625	14.1019	-0.026037	0.171709	-0.949183	-0.950544	-0.100131	16.1378	-0.944529	-4.057344E+12	2.467904E-14	NaN
754	1.000000	0.183046	7.37243e+06	-39389.1	1005.82	-29794	0.000000	0.000000	6.182783	0.044567	NaN	0.000000	0.001631	0.001761	28.0831	0.056167	0.002069	27.1404	7.881229	-167.133	-0.034539	0.181744	-0.939208	-0.940510	0.044567	27.1404	-0.940439	-3.573245E+12	-1.247253E-14	NaN
754	1.000000	0.193051	7.37243e+06	-39389.1	1005.82	-29794	0.000000	0.000000	6.192787	0.033894	NaN	0.000000	0.001567	0.001751	28.0829	0.073743	0.002112	34.9172	-70.2225	11.0813	-0.002453	0.191663	-0.929202	-0.930591	0.033894	34.9172	-0.929930	-2.577842E+12	-1.314828E-14	NaN
754	1.000000	0.203071	7.37243e+06	-39389.1	1005.82	-29794	0.000000	0.000000	6.202806	0.020550	NaN	0.000000	0.001567	0.001779	28.083	0.106710	0.001787	59.7178	-13.6267	-167.113	0.113710	0.201752	-0.919183	-0.920502	0.020550	59.7178	-0.919441	-1.860631E+12	-1.104451E-14	NaN
754	1.000000	0.213061	7.37243e+06	-39389.1	1005.82	-29794	0.000000	0.000000	6.212798	0.070537	NaN	0.000000	0.001585	0.001770	28.0828	0.122625	0.001997	61.4101	-116.223	14.6416	0.055293	0.211701	-0.909193	-0.910553	0.070537	61.4101	-0.910054	-1.389621E+12	-5.075952E-14	NaN
754	1.000000	0.223048	7.37243e+06	-39389.1	1005.82	-29794	0.000000	0.000000	6.222785	0.059823	NaN	0.000000	0.001612	0.001758	28.0833	0.094092	0.001979	47.5571	70.6576	-169.81	0.076104	0.221793	-0.899206	-0.900461	0.059823	47.5571	-0.900149	-1.021125E+12	-5.858500E-14	NaN
754	1.000000	0.233085	7.37243e+06	-39389.1	1005.82	-29794	0.000000	0.000000	6.232820	0.002969	NaN	0.000000	0.001545	0.001772	28.0828	0.058299	0.001934	30.141	127.477	12.9017	0.076616	0.231755	-0.889168	-0.890498	0.002969	30.141	-0.889242	-7.272314E+11	-4.082393E-15	NaN
754	1.000000	0.243091	7.37243e+06	-39389.1	1005.82	-29794	0.000000	0.000000	6.242826	0.012828	NaN	0.000000	0.001564	0.001779	28.083	0.108370	0.002072	52.2955	141.944	-169.065	-0.018277	0.241797	-0.879163	-0.880456	0.012828	52.2955	-0.879347	-5.344060E+11	-2.400511E-14	NaN
754	1.000000	0.253083	7.37243e+06	-39389.1	1005.82	-29794	0.000000	0.000000	6.252818	0.005935	NaN	0.000000	0.001577	0.001755	28.0826	0.109213	0.002122	51.4776	-45.0997	12.4358	0.029374	0.251703	-0.869171	-0.870551	0.005935	51.4776	-0.869257	-3.902959E+11	-1.520575E-14	NaN
754	1.000000	0.263098	7.37243e+06	-39389.1	1005.82	-29794	0.000000	0.000000	6.262831	-0.037594	NaN	0.000000	0.001632	0.001785	28.0833	0.086019	0.002073	41.4908	65.7849	-165.244	-0.060335	0.261798	-0.859156	-0.860455	-0.037594	41.4908	-0.858476	-2.789276E+11	1.347815E-13	NaN
754	1.000000	0.273086	7.37243e+06	-39389.1	1005.82	-29794	0.000000	0.000000	6.272818	-0.055260	NaN	0.000000	0.001616	0.001733	28.0827	0.182362	0.002025	90.0447	-32.6398	16.4054	-0.010162	0.271799	-0.849168	-0.850455	-0.055260	90.0447	-0.848707	-2.056994E+11	2.686428E-13	NaN
754	1.000000	0.283093	7.37243e+06	-39389.1	1005.82	-29794	0.000000	0.000000	6.282827	-0.016193	NaN	0.000000	0.001615	0.001732	28.0817	0.075678	0.002007	37.7011	-87.4917	-167.243	-0.018170	0.281800	-0.839160	-0.840453	-0.016193	37.7011	-0.838838	-1.512004E+11	1.070941E-13	NaN
754	1.000000	0.293120	7.37243e+06	-39389.1	1005.82	-29794	0.000000	0.000000	6.292853	-0.050883	NaN	0.000000	0.001627	0.001692	28.0819	0.062932	0.001971	31.9252	15.8489	16.0237	-0.002644	0.291738	-0.829134	-0.830515	-0.050883	31.9252	-0.827938	-1.076060E+11	4.728662E-13	NaN
754	1.000000	0.303104	7.37243e+06	-39389.1	1005.82	-29794	0.000000	0.000000	6.302840	0.024984	NaN	0.000000	0.001630	0.001708	28.0821	0.026731	0.001964	13.6103	48.149	-167.57	-0.003688	0.301871	-0.819149	-0.820383	0.024984	13.6103	-0.820526	-8.537780E+10	-2.926329E-13	NaN
754	1.000000	0.313135	7.37243e+06	-39389.1	1005.82	-29794	0.000000	0.000000	6.312871	0.035703	NaN	0.000000	0.001639	0.001711	28.0816	0.022124	0.002148	10.2986	8.173671	16.9314	0.023269	0.311832	-0.809119	-0.810422	0.035703	10.2986	-0.811719	-6.484724E+10	-5.505650E-13	NaN
754	1.000000	0.323077	7.37243e+06	-39389.1	1005.82	-29794	0.000000	0.000000	6.322813	0.012096	NaN	0.000000	0.001569	0.001752	28.0816	0.076903	0.001914	40.177	117.283	-167.288	-0.064925	0.321850	-0.799176	-0.800404	0.012096	40.177	-0.799402	-4.413118E+10	-2.740989E-13	NaN
754	1.000000	0.333140	7.37243e+06	-39389.1	1005.82	-29794	0.000000	0.000000	6.332876	0.024387	NaN	0.000000	0.001593	0.001741	28.0815	0.064378	0.001965	32.7597	101.182	12.4566	0.081961	0.331748	-0.789114	-0.790506	0.024387	32.7597	-0.789672	-3.255565E+10	-7.491017E-13	NaN
754	1.000000	0.343110	7.37243e+06	-39389.1	1005.82	-29794	0.000000	0.000000	6.342845	-0.005559	NaN	0.000000	0.001572	0.001710	28.082	0.032929	0.001971	16.7039	-67.0149	-166.543	-0.026849	0.341824	-0.779143	-0.780430	-0.005559	16.7039	-0.778894	-2.323802E+10	2.392163E-13	NaN
754	1.000000	0.353113	7.37243e+06	-39389.1	1005.82	-29794	0.000000	0.000000	6.352853	0.115133	NaN	0.000000	0.001606	0.001725	28.0816	0.047763	0.002122	22.511	-163.023	13.0813	0.042166	0.351742	-0.769141	-0.770512	0.115133	22.511	-0.772976	-1.930952E+10	-5.962498E-12	NaN
754	1.000000	0.363169	7.37243e+06	-39389.1	1005.82	-29794	0.000000	0.000000	6.362906	0.049405	NaN	0.000000	0.001614	0.001717	28.0815	0.081222	0.001955	41.5506	-112.012	-164.293	0.049043	0.361870	-0.759084	-0.760384	0.049405	41.5506	-0.759976	-1.285220E+10	-3.844121E-12	NaN
754	1.000000	0.373108	7.37243e+06	-39389.1	1005.82	-29794	0.000000	0.000000	6.372843	0.013999	NaN	0.000000	0.001633	0.001681	28.0817	0.054246	0.001850	29.3205	164.351	14.1791	0.052706	0.371796	-0.749146	-0.750458	0.013999	29.3205	-0.749504	-9.256928E+9	-1.512257E-12	NaN
754	1.000000	0.383159	7.37243e+06	-39389.1	1005.82	-29794	0.000000	0.000000	6.382892	-0.032975	NaN	0.000000	0.001660	0.001672	28.0817	0.032309	0.001960	16.4802	-77.8192	-165.203	-0.056327	0.381825	-0.739095	-0.740428	-0.032975	16.4802	-0.737594	-6.372074E+9	5.174882E-12	NaN
754	1.000000	0.393142	7.37243e+06	-39389.1	1005.82	-29794	0.000000	0.000000	6.392877	-0.013852	NaN	0.000000	0.001639	0.001704	28.0815	0.025114	0.001987	12.6392	35.6149	12.9899	0.021962	0.391827	-0.729111	-0.730427	-0.013852	12.6392	-0.728289	-4.758720E+9	2.910839E-12	NaN
754	1.000000	0.403143	7.37243e+06	-39389.1	1005.82	-29794	0.000000	0.000000	6.402877	-0.024017	NaN	0.000000	0.001638	0.001704	28.0824	0.064679	0.001946	33.2454	167.445	-169.049	-0.012766	0.401775	-0.719111	-0.720478	-0.024017	33.2454	-0.718569	-3.507159E+9	6.848111E-12	NaN
754	1.000000	0.413166	7.37243e+06	-39389.1	1005.82	-29794	0.000000	0.000000	6.412898	-0.059996	NaN	0.000000	0.001627	0.001714	28.082	0.080970	0.002017	40.1529	3.660381	15.6741	0.023599	0.411827	-0.709088	-0.710427	-0.059996	40.1529	-0.707967	-2.513647E+9	2.386794E-11	NaN
754	1.000000	0.423161	7.37243e+06	-39389.1	1005.82	-29794	0.000000	0.000000	6.422895	-0.012158	NaN	0.000000	0.001619	0.001708	28.0831	0.077413	0.001998	38.7495	19.8123	-164.763	-0.032440	0.421818	-0.699093	-0.700436	-0.012158	38.7495	-0.698857	-1.887661E+9	6.440946E-12	NaN
754	1.000000	0.433167	7.37243e+06	-39389.1	1005.82	-29794	0.000000	0.000000	6.432904	0.042811	NaN	0.000000	0.001657	0.001695	28.0832	0.111744	0.001911	58.4601	-158.94	13.5791	0.014660	0.431809	-0.689087	-0.690444	0.042811	58.4601	-0.689636	-1.412342E+9	-3.031187E-11	NaN
754	1.000000	0.443156	7.37243e+06	-39389.1	1005.82	-29794	0.000000	0.000000	6.442893	0.044780	NaN	0.000000	0.001651	0.001729	28.0829	0.009903	0.002114	4.684732	124.17	-167.408	0.002025	0.441854	-0.679098	-0.680400	0.044780	4.684732	-0.686267	-1.270256E+9	-3.525309E-11	NaN
754	1.000000	0.453166	7.37243e+06	-39389.1	1005.82	-29794	0.000000	0.000000	6.452903	0.055057	NaN	0.000000	0.001666	0.001714	28.0833	0.030293	0.001934	15.665	42.8459	12.5568	0.076294	0.451839	-0.669087	-0.670415	0.055057	15.665	-0.671723	-8.034833E+8	-6.852337E-11	NaN
754	1.000000	0.463185	7.37243e+06	-39389.1	1005.82	-29794	0.000000	0.000000	6.462919	-0.007740	NaN	0.000000	0.001655	0.001727	28.0831	0.171829	0.002074	82.8619	-178.527	-167.076	-0.086413	0.461856	-0.659069	-0.660398	-0.007740	82.8619	-0.658999	-5.379623E+8	1.438779E-11	NaN
754	1.000000	0.473164	7.37243e+06	-39389.1	1005.82	-29794	0.000000	0.000000	6.472896	-0.062713	NaN	0.000000	0.001633	0.001692	28.083	0.003506	0.002047	1.712320	-39.9461	11.2459	-0.079148	0.471800	-0.649090	-0.650453	-0.062713	1.712320	-0.621621	-1.651626E+8	3.797077E-10	NaN
754	1.000000	0.483185	7.37243e+06	-39389.1	1005.82	-29794	0.000000	0.000000	6.482920	-0.003573	NaN	0.000000	0.001648	0.001693	28.083	0.103483	0.001976	52.3812	33.7291	-166.387	0.091393	0.481880	-0.639068	-0.640374	-0.003573	52.3812	-0.639017	-2.862901E+8	1.248118E-11	NaN
754	1.000000	0.493181	7.37243e+06	-39389.1	1005.82	-29794	0.000000	0.000000	6.492919	0.062708	NaN	0.000000	0.001672	0.001716	28.0831	0.057643	0.002079	27.7277	-152.378	14.5719	0.054420	0.491851	-0.629072	-0.630403	0.062708	27.7277	-0.630768	-2.205840E+8	-2.842816E-10	NaN
754	1.000000	0.503238	7.37243e+06	-39389.1	1005.82	-29794	0.000000	0.000000	6.502971	-0.036640	NaN	0.000000	0.001646	0.001683	28.0829	0.096228	0.002047	47.0134	-1.875366	-168.889	-0.078064	0.501860	-0.619016	-0.620394	-0.036640	47.0134	-0.618432	-1.493043E+8	2.454072E-10	NaN
754	1.000000	0.513204	7.37243e+06	-39389.1	1005.82	-29794	0.000000	0.000000	6.512938	-0.025287	NaN	0.000000	0.001641	0.001698	28.0831	0.016850	0.001984	8.494121	54.2129	15.6167	-0.044229	0.511815	-0.609050	-0.610439	-0.025287	8.494121	-0.606817	-1.033509E+8	2.446712E-10	NaN
754	1.000000	0.523224	7.37243e+06	-39389.1	1005.82	-29794	0.000000	0.000000	6.522957	-0.040273	NaN	0.000000	0.001638	0.001710	28.0834	0.079485	0.001916	41.4865	149.395	-167.969	0.015926	0.521907	-0.599029	-0.600347	-0.040273	41.4865	-0.598301	-7.889726E+7	5.104461E-10	NaN
754	1.000000	0.533222	7.37243e+06	-39389.1	1005.82	-29794	0.000000	0.000000	6.532958	0.034538	NaN	0.000000	0.001668	0.001726	28.0832	0.072187	0.001938	37.2514	-92.4435	10.3117	0.039454	0.531857	-0.589032	-0.590396	0.034538	37.2514	-0.589727	-6.010397E+7	-5.746334E-10	NaN
754	1.000000	0.543225	7.37243e+06	-39389.1	1005.82	-29794	0.000000	0.000000	6.542962	0.050060	NaN	0.000000	0.001645	0.001737	28.0833	0.051190	0.001981	25.844	81.9924	-169.042	0.072148	0.541877	-0.579028	-0.580376	0.050060	25.844	-0.580481	-4.480912E+7	-1.117190E-9	NaN
754	1.000000	0.553226	7.37243e+06	-39389.1	1005.82	-29794	0.000000	0.000000	6.552962	0.039071	NaN	0.000000	0.001639	0.001692	28.0821	0.119244	0.002187	54.5311	-128.46	12.4329	0.063260	0.551822	-0.569028	-0.570431	0.039071	54.5311	-0.569565	-3.166836E+7	-1.233766E-9	NaN
754	1.000000	0.563243	7.37243e+06	-39389.1	1005.82	-29794	0.000000	0.000000	6.562979	0.047181	NaN	0.000000	0.001637	0.001698	28.082	0.065617	0.001966	33.3834	-70.6379	-165.005	0.035463	0.561876	-0.559011	-0.560377	0.047181	33.3834	-0.560071	-2.340775E+7	-2.015611E-9	NaN
754	1.000000	0.573245	7.37243e+06	-39389.1	1005.82	-29794	0.000000	0.000000	6.572978	-0.044910	NaN	0.000000	0.001693	0.001738	28.082	0.045158	0.001983	22.7728	-142.994	14.4845	0.015241	0.571884	-0.549009	-0.550370	-0.044910	22.7728	-0.547530	-1.569396E+7	2.861584E-9	NaN
754	1.000000	0.583214	7.37243e+06	-39389.1	1005.82	-29794	0.000000	0.000000	6.582950	0.011459	NaN	0.000000	0.001668	0.001739	28.0819	0.041357	0.001975	20.9375	126.173	-164.887	0.035635	0.581941	-0.539039	-0.540312	0.011459	20.9375	-0.539450	-1.212619E+7	-9.449523E-10	NaN
754	1.000000	0.593233	7.37243e+06	-39389.1	1005.82	-29794	0.000000	0.000000	6.592968	0.009882	NaN	0.000000	0.001669	0.001732	28.082	0.030319	0.002010	15.0821	132.316	16.6466	0.164110	0.591859	-0.529021	-0.530395	0.009882	15.0821	-0.529512	-8.82675e+06	-1.119583E-9	NaN
754	1.000000	0.603251	7.37243e+06	-39389.1	1005.82	-29794	0.000000	0.000000	6.602989	0.062760	NaN	0.000000	0.001643	0.001732	28.0819	0.074363	0.001969	37.7751	17.9252	-165.316	-0.015367	0.601949	-0.519002	-0.520305	0.062760	37.7751	-0.520248	-6.56224e+06	-9.563863E-9	NaN
754	1.000000	0.613258	7.37243e+06	-39389.1	1005.82	-29794	0.000000	0.000000	6.612995	0.046029	NaN	0.000000	0.001660	0.001733	28.0818	0.092177	0.002016	45.7161	-64.9821	12.73	0.041846	0.611894	-0.508995	-0.510360	0.046029	45.7161	-0.509750	-4.68747e+06	-9.819579E-9	NaN
754	1.000000	0.623260	7.37243e+06	-39389.1	1005.82	-29794	0.000000	0.000000	6.622998	0.069676	NaN	0.000000	0.001619	0.001720	28.0818	0.042630	0.002038	20.9126	-104.74	-166.066	0.011353	0.621945	-0.498994	-0.500308	0.069676	20.9126	-0.501493	-3.59615e+06	-1.937525E-8	NaN
754	1.000000	0.633244	7.37243e+06	-39389.1	1005.82	-29794	0.000000	0.000000	6.632982	0.063663	NaN	0.000000	0.001639	0.001682	28.0821	0.081809	0.001936	42.249	39.9056	10.4877	0.046131	0.631907	-0.489009	-0.490346	0.063663	42.249	-0.490139	-2.49656e+06	-2.550037E-8	NaN
754	1.000000	0.643253	7.37243e+06	-39389.1	1005.82	-29794	0.000000	0.000000	6.642989	0.036199	NaN	0.000000	0.001653	0.001673	28.0819	0.119730	0.001944	61.6015	175.165	-167.078	0.062972	0.641915	-0.479001	-0.480339	0.036199	61.6015	-0.479441	-1.76891e+06	-2.046387E-8	NaN
754	1.000000	0.653258	7.37243e+06	-39389.1	1005.82	-29794	0.000000	0.000000	6.652994	0.022184	NaN	0.000000	0.001637	0.001728	28.0819	0.044129	0.002051	21.52	-154.919	12.7684	0.009412	0.651888	-0.468995	-0.470366	0.022184	21.52	-0.469768	-1.29467e+06	-1.713512E-8	NaN
754	1.000000	0.663275	7.37243e+06	-39389.1	1005.82	-29794	0.000000	0.000000	6.663010	0.010689	NaN	0.000000	0.001642	0.001706	28.0821	0.091705	0.002245	40.8441	-72.1052	-169.312	0.005324	0.661946	-0.458978	-0.460308	0.010689	40.8441	-0.459175	-919218	-1.162831E-8	NaN
754	1.000000	0.673278	7.37243e+06	-39389.1	1005.82	-29794	0.000000	0.000000	6.673016	0.097755	NaN	0.000000	0.001604	0.001751	28.0821	0.190992	0.002182	87.5365	146.791	12.159	0.045877	0.671929	-0.448976	-0.450324	0.097755	87.5365	-0.449814	-678762	-1.440202E-7	NaN
754	1.000000	0.683276	7.37243e+06	-39389.1	1005.82	-29794	0.000000	0.000000	6.683012	0.032702	NaN	0.000000	0.001647	0.001697	28.0821	0.112931	0.002015	56.0516	69.768	-167.063	0.004177	0.681912	-0.438977	-0.440341	0.032702	56.0516	-0.439415	-484290	-6.752661E-8	NaN
754	1.000000	0.693290	7.37243e+06	-39389.1	1005.82	-29794	0.000000	0.000000	6.693027	0.041561	NaN	0.000000	0.001621	0.001750	28.0831	0.090861	0.001946	46.6978	40.373	13.8302	0.027756	0.691893	-0.428963	-0.430360	0.041561	46.6978	-0.429631	-352240	-1.179902E-7	NaN
754	1.000000	0.703276	7.37243e+06	-39389.1	1005.82	-29794	0.000000	0.000000	6.703014	0.062965	NaN	0.000000	0.001625	0.001705	28.0832	0.033212	0.002039	16.2857	65.4521	-169.107	0.042220	0.701951	-0.418977	-0.420303	0.062965	16.2857	-0.421877	-273546	-2.301819E-7	NaN
754	1.000000	0.713271	7.37243e+06	-39389.1	1005.82	-29794	0.000000	0.000000	6.713007	0.014867	NaN	0.000000	0.001599	0.001711	28.0833	0.097076	0.002003	48.4632	153.341	11.0468	-0.044586	0.711938	-0.408982	-0.410316	0.014867	48.4632	-0.409212	-180801	-8.223117E-8	NaN
754	1.000000	0.723292	7.37243e+06	-39389.1	1005.82	-29794	0.000000	0.000000	6.723028	0.037610	NaN	0.000000	0.001588	0.001688	28.083	0.096953	0.002117	45.7999	116.369	-166.895	-0.011890	0.721998	-0.398962	-0.400255	0.037610	45.7999	-0.399578	-131817	-2.853223E-7	NaN
754	1.000000	0.733291	7.37243e+06	-39389.1	1005.82	-29794	0.000000	0.000000	6.733024	-0.039781	NaN	0.000000	0.001586	0.001765	28.0829	0.056556	0.001972	28.6763	-157.315	12.0459	0.020729	0.731935	-0.388963	-0.390319	-0.039781	28.6763	-0.387922	-89833.3	4.428329E-7	NaN
754	1.000000	0.743289	7.37243e+06	-39389.1	1005.82	-29794	0.000000	0.000000	6.743023	-0.018419	NaN	0.000000	0.001613	0.001720	28.0832	0.089265	0.002040	43.7608	-125.45	-165.205	-0.046641	0.742003	-0.378964	-0.380251	-0.018419	43.7608	-0.378648	-66143.7	2.784746E-7	NaN
754	1.000000	0.753335	7.37243e+06	-39389.1	1005.82	-29794	0.000000	0.000000	6.753070	0.007651	NaN	0.000000	0.001631	0.001731	28.0833	0.081961	0.002001	40.957	12.9118	12.4201	0.046370	0.751943	-0.368919	-0.370310	0.007651	40.957	-0.369059	-48147.7	-1.589111E-7	NaN
754	1.000000	0.763315	7.37243e+06	-39389.1	1005.82	-29794	0.000000	0.000000	6.763049	-0.000380	NaN	0.000000	0.001622	0.001719	28.083	0.057298	0.002036	28.1492	-122.093	-167.166	0.066655	0.762041	-0.358939	-0.360212	-0.000380	28.1492	-0.358929	-34384	1.106495E-8	NaN
754	1.000000	0.773314	7.37243e+06	-39389.1	1005.82	-29794	0.000000	0.000000	6.773050	0.027679	NaN	0.000000	0.001635	0.001713	28.0829	0.026574	0.002007	13.2382	42.7474	15.8532	0.012204	0.771962	-0.348939	-0.350292	0.027679	13.2382	-0.350508	-25963.8	-1.066052E-6	NaN
754	1.000000	0.783322	7.37243e+06	-39389.1	1005.82	-29794	0.000000	0.000000	6.783058	0.015439	NaN	0.000000	0.001618	0.001710	28.0833	0.083056	0.002089	39.7538	-142.479	-167.707	0.036158	0.782022	-0.338931	-0.340232	0.015439	39.7538	-0.339223	-17791.8	-8.677590E-7	NaN
754	1.000000	0.793312	7.37243e+06	-39389.1	1005.82	-29794	0.000000	0.000000	6.793048	0.044608	NaN	0.000000	0.001598	0.001746	28.0829	0.039190	0.002033	19.2777	-17.6116	15.3033	0.035839	0.791954	-0.328942	-0.330299	0.044608	19.2777	-0.330677	-13346.5	-3.342273E-6	NaN
754	1.000000	0.803322	7.37243e+06	-39389.1	1005.82	-29794	0.000000	0.000000	6.803056	-0.016641	NaN	0.000000	0.001641	0.001755	28.083	0.123903	0.002084	59.4635	90.1995	-164.861	0.017689	0.802000	-0.318932	-0.320254	-0.016641	59.4635	-0.318722	-8908.73	1.867929E-6	NaN
754	1.000000	0.813328	7.37243e+06	-39389.1	1005.82	-29794	0.000000	0.000000	6.813063	0.017732	NaN	0.000000	0.001687	0.001764	28.0831	0.007803	0.001952	3.996817	123.072	13.2821	0.002398	0.811958	-0.308926	-0.310296	0.017732	3.996817	-0.312253	-7151.18	-2.479580E-6	NaN
754	1.000000	0.823361	7.37243e+06	-39389.1	1005.82	-29794	0.000000	0.000000	6.823095	-0.021310	NaN	0.000000	0.001627	0.001766	28.0832	0.058504	0.001942	30.127	135.876	-168.488	0.023678	0.821993	-0.298893	-0.300261	-0.021310	30.127	-0.298362	-4448.82	4.790054E-6	NaN
754	1.000000	0.833331	7.37243e+06	-39389.1	1005.82	-29794	0.000000	0.000000	6.833067	0.026652	NaN	0.000000	0.001653	0.001737	28.0818	0.121508	0.001915	63.438	101.939	11.1247	0.038837	0.831992	-0.288923	-0.290261	0.026652	63.438	-0.289238	-3249.97	-8.200584E-6	NaN
754	1.000000	0.843331	7.37243e+06	-39389.1	1005.82	-29794	0.000000	0.000000	6.843065	-0.002095	NaN	0.000000	0.001641	0.001733	28.0818	0.094520	0.002068	45.7097	-77.5039	-168.067	-0.015197	0.842024	-0.278923	-0.280229	-0.002095	45.7097	-0.278888	-2270.88	9.223719E-7	NaN
754	1.000000	0.853334	7.37243e+06	-39389.1	1005.82	-29794	0.000000	0.000000	6.853072	0.070513	NaN	0.000000	0.001653	0.001740	28.0819	0.062796	0.002156	29.1204	147.668	15.8335	0.087389	0.851950	-0.268920	-0.270303	0.070513	29.1204	-0.270736	-1708.93	-4.126158E-5	NaN
754	1.000000	0.863319	7.37243e+06	-39389.1	1005.82	-29794	0.000000	0.000000	6.863055	0.038609	NaN	0.000000	0.001673	0.001725	28.082	0.094087	0.001999	47.0681	119.908	-168.012	0.027439	0.861980	-0.258935	-0.260273	0.038609	47.0681	-0.259550	-1153.51	-3.347058E-5	NaN
754	1.000000	0.873388	7.37243e+06	-39389.1	1005.82	-29794	0.000000	0.000000	6.873125	0.053095	NaN	0.000000	0.001663	0.001753	28.0817	0.064019	0.001937	33.0546	-121.032	11.3493	0.092368	0.871962	-0.248865	-0.250291	0.053095	33.0546	-0.250070	-824.227	-6.441856E-5	NaN
754	1.000000	0.883350	7.37243e+06	-39389.1	1005.82	-29794	0.000000	0.000000	6.883087	0.042324	NaN	0.000000	0.001679	0.001733	28.0817	0.084383	0.002034	41.4844	-19.1586	-165.771	0.091099	0.881989	-0.238903	-0.240264	0.042324	41.4844	-0.239668	-568.033	-7.451049E-5	NaN
754	1.000000	0.893348	7.37243e+06	-39389.1	1005.82	-29794	0.000000	0.000000	6.893085	0.050879	NaN	0.000000	0.001672	0.001755	28.0818	0.165108	0.002272	72.6799	50.2994	13.4181	-0.008658	0.892001	-0.228905	-0.230253	0.050879	72.6799	-0.229431	-392.213	-0.000130	NaN
754	1.000000	0.903361	7.37243e+06	-39389.1	1005.82	-29794	0.000000	0.000000	6.903097	0.029033	NaN	0.000000	0.001653	0.001717	28.0817	0.066341	0.002066	32.107	-75.0454	-164.114	-0.029038	0.902028	-0.218892	-0.220226	0.029033	32.107	-0.219570	-273.407	-0.000106	NaN
754	1.000000	0.913351	7.37243e+06	-39389.1	1005.82	-29794	0.000000	0.000000	6.913085	-0.029402	NaN	0.000000	0.001640	0.001755	28.0818	0.058667	0.002091	28.0591	145.46	14.5594	0.024133	0.912005	-0.208902	-0.210248	-0.029402	28.0591	-0.208116	-178.761	0.000164	NaN
754	1.000000	0.923374	7.37243e+06	-39389.1	1005.82	-29794	0.000000	0.000000	6.923109	0.005718	NaN	0.000000	0.001603	0.001745	28.0817	0.087266	0.001960	44.513	-111.415	-162.812	0.032519	0.922002	-0.198880	-0.200252	0.005718	44.513	-0.198976	-126.724	-4.512147E-5	NaN
754	1.000000	0.933396	7.37243e+06	-39389.1	1005.82	-29794	0.000000	0.000000	6.933130	-0.018447	NaN	0.000000	0.001646	0.001695	28.082	0.105853	0.002043	51.8042	-171.25	13.1253	0.050395	0.932039	-0.188858	-0.190214	-0.018447	51.8042	-0.188591	-85.203	0.000217	NaN
754	1.000000	0.943336	7.37243e+06	-39389.1	1005.82	-29794	0.000000	0.000000	6.943072	0.030142	NaN	0.000000	0.001653	0.001724	28.0819	0.139037	0.002108	65.9474	-161.221	-168.931	0.017055	0.942129	-0.178917	-0.180125	0.030142	65.9474	-0.179260	-59.2749	-0.000509	NaN
754	1.000000	0.953381	7.37243e+06	-39389.1	1005.82	-29794	0.000000	0.000000	6.953122	0.142272	NaN	0.000000	0.001652	0.001703	28.0817	0.180108	0.002015	89.3926	-103.902	13.9621	0.125280	0.952071	-0.168873	-0.170183	0.142272	89.3926	-0.170066	-41.1873	-0.003454	NaN
754	1.000000	0.963431	7.37243e+06	-39389.1	1005.82	-29794	0.000000	0.000000	6.963166	0.005664	NaN	0.000000	0.001641	0.001722	28.083	0.020527	0.001956	10.4964	-126.655	-167.005	-0.022630	0.962083	-0.158823	-0.160170	0.005664	10.4964	-0.159228	-26.5614	-0.000213	NaN
754	1.000000	0.973381	7.37243e+06	-39389.1	1005.82	-29794	0.000000	0.000000	6.973116	0.005418	NaN	0.000000	0.001656	0.001740	28.0832	0.176262	0.002068	85.2199	32.2016	13.4351	-0.043578	0.972039	-0.148873	-0.150214	0.005418	85.2199	-0.148921	-17.3097	-0.000313	NaN
754	1.000000	0.983428	7.37243e+06	-39389.1	1005.82	-29794	0.000000	0.000000	6.983164	0.017979	NaN	0.000000	0.001639	0.001747	28.0831	0.027047	0.001954	13.8398	178.701	-166.013	0.043734	0.982110	-0.138825	-0.140144	0.017979	13.8398	-0.139800	-11.7274	-0.001533	NaN
754	1.000000	0.993422	7.37243e+06	-39389.1	1005.82	-29794	0.000000	0.000000	6.993158	0.026365	NaN	0.000000	0.001658	0.001709	28.0827	0.034512	0.002078	16.6099	-3.725074	11.1349	-0.040897	0.991993	-0.128832	-0.130260	0.026365	16.6099	-0.130022	-7.628573	-0.003456	NaN
754	1.000000	1.003415	7.37243e+06	-39389.1	1005.82	-29794	0.000000	0.000000	7.003153	0.082746	NaN	0.000000	0.001662	0.001726	28.0832	0.063005	0.001903	33.1072	-18.0597	-163.831	0.094048	1.002065	-0.118838	-0.120189	0.082746	33.1072	-0.120713	-4.994019	-0.016569	NaN
754	1.000000	1.013432	7.37243e+06	-39389.1	1005.82	-29794	0.000000	0.000000	7.013169	0.045534	NaN	0.000000	0.001633	0.001758	28.0831	0.026040	0.001984	13.127	73.1918	15.8391	0.028815	1.012028	-0.108821	-0.110225	0.045534	13.127	-0.111423	-3.219431	-0.014144	NaN
754	1.000000	1.023414	7.37243e+06	-39389.1	1005.82	-29794	0.000000	0.000000	7.023149	-0.003412	NaN	0.000000	0.001634	0.001697	28.0832	0.024701	0.002070	11.9314	-146.985	-162.684	-0.037687	1.022089	-0.098839	-0.100165	-0.003412	11.9314	-0.098625	-1.702841	0.002004	NaN
754	1.000000	1.033406	7.37243e+06	-39389.1	1005.82	-29794	0.000000	0.000000	7.033140	-0.008823	NaN	0.000000	0.001672	0.001721	28.0832	0.087729	0.001932	45.4058	116.748	12.6668	-0.014078	1.032013	-0.088848	-0.090241	-0.008823	45.4058	-0.088702	-1.007510	0.008758	NaN
754	1.000000	1.043434	7.37243e+06	-39389.1	1005.82	-29794	0.000000	0.000000	7.043168	-0.025869	NaN	0.000000	0.001635	0.001709	28.0835	0.042929	0.001840	23.3271	-135.889	-166.632	-0.034947	1.042121	-0.078819	-0.080133	-0.025869	23.3271	-0.077988	-0.550834	0.046963	NaN
754	1.000000	1.053421	7.37243e+06	-39389.1	1005.82	-29794	0.000000	0.000000	7.053156	0.018592	NaN	0.000000	0.001618	0.001708	28.083	0.065298	0.002056	31.759	129.295	13.9342	-0.008782	1.052102	-0.068833	-0.070152	0.018592	31.759	-0.069272	-0.326090	-0.057015	NaN
754	1.000000	1.063444	7.37243e+06	-39389.1	1005.82	-29794	0.000000	0.000000	7.063179	-0.008392	NaN	0.000000	0.001677	0.001709	28.0833	0.062298	0.002051	30.3816	110.569	-164.855	0.009697	1.062117	-0.058809	-0.060137	-0.008392	30.3816	-0.058602	-0.164141	0.051125	NaN
754	1.000000	1.073441	7.37243e+06	-39389.1	1005.82	-29794	0.000000	0.000000	7.073176	0.011547	NaN	0.000000	0.001678	0.001716	28.0832	0.070642	0.002088	33.8349	110.682	11.8726	0.011937	1.072095	-0.048813	-0.050159	0.011547	33.8349	-0.049069	-0.085514	-0.135031	NaN
754	1.000000	1.083408	7.37243e+06	-39389.1	1005.82	-29794	0.000000	0.000000	7.083142	-0.015353	NaN	0.000000	0.001683	0.001700	28.0834	0.150547	0.002060	73.0837	94.2782	-167.36	-0.029254	1.082133	-0.038846	-0.040120	-0.015353	73.0837	-0.038688	-0.041269	0.372027	NaN
754	1.000000	1.093448	7.37243e+06	-39389.1	1005.82	-29794	0.000000	0.000000	7.093181	-0.058378	NaN	0.000000	0.001620	0.001686	28.0831	0.149943	0.002028	73.9541	-17.4897	11.2835	0.003474	1.092088	-0.028805	-0.030166	-0.058378	73.9541	-0.028213	-0.020547	2.841122	NaN
754	1.000000	1.103435	7.37243e+06	-39389.1	1005.82	-29794	0.000000	0.000000	7.103169	-0.027513	NaN	0.000000	0.001706	0.001703	28.0821	0.069980	0.001931	36.2394	87.238	-165.9	-0.084252	1.102122	-0.018818	-0.020132	-0.027513	36.2394	-0.018249	-0.011329	2.428460	NaN
754	1.000000	1.113436	7.37243e+06	-39389.1	1005.82	-29794	0.000000	0.000000	7.113172	0.046951	NaN	0.000000	0.001689	0.001674	28.0821	0.051437	0.002003	25.6811	-87.6233	16.7147	-0.039241	1.112126	-0.008818	-0.010128	0.046951	25.6811	-0.010189	-0.006495	-7.228354	NaN
754	1.000000	1.123436	7.37243e+06	-39389.1	1005.82	-29794	0.000000	0.000000	7.123306	3.286961	NaN	0.000000	0.001718	0.001703	28.0819	4.058452	0.001910	2124.42	11.2964	-169.066	2.125130	1.122143	0.001183	-0.000111	3.286961	2124.42	2.242420E-5	1.676509E-5	196060	474035
754	2.000000	1.130577	7.37243e+06	-39389.1	1005.82	-29794	0.000000	0.000000	7.130728	10.1256	NaN	0.000000	0.001653	0.001694	28.0818	10.6259	0.001638	6488.96	6.587741	8.610607	9.260222	1.130229	0.008324	0.007976	10.1256	6488.96	0.007153	0.006186	1636.84	75377.5
754	2.000000	1.133021	7.37243e+06	-39389.1	1005.82	-29794	0.000000	0.000000	7.133375	15.0656	NaN	0.000000	0.001643	0.001690	28.0821	14.2028	0.001713	8291.37	7.265951	-176.576	14.1724	1.132697	0.010767	0.010444	15.0656	8291.37	0.009405	0.008527	1766.72	82033.3
754	2.000000	1.135521	7.37243e+06	-39389.1	1005.82	-29794	0.000000	0.000000	7.135987	17.7865	NaN	0.000000	0.001658	0.001686	28.082	16.2766	0.001638	9935.38	4.535922	5.200939	17.7548	1.135111	0.013268	0.012858	17.7865	9935.38	0.011925	0.011400	1560.16	85015.2
754	2.000000	1.137998	7.37243e+06	-39389.1	1005.82	-29794	0.000000	0.000000	7.138610	21.353	NaN	0.000000	0.001708	0.001718	28.0818	19.6485	0.001835	10708.4	7.850155	-179.122	20.9517	1.137682	0.015744	0.015428	21.353	10708.4	0.014249	0.014297	1493.55	81823.8
754	2.000000	1.140514	7.37243e+06	-39389.1	1005.82	-29794	0.000000	0.000000	7.141550	31.6652	NaN	0.000000	0.001683	0.001703	28.0817	21.1016	0.001806	11684.2	5.908932	3.583075	31.0921	1.140114	0.018260	0.017860	31.6652	11684.2	0.016227	0.016957	1867.37	81977.5
754	2.000000	1.142924	7.37243e+06	-39389.1	1005.82	-29794	0.000000	0.000000	7.143997	32.5737	NaN	0.000000	0.001652	0.001711	28.0817	23.3419	0.001635	14280.2	4.523458	-179.523	30.7943	1.142617	0.020670	0.020363	32.5737	14280.2	0.018960	0.020934	1556.04	90174.8
754	2.000000	1.145474	7.37243e+06	-39389.1	1005.82	-29794	0.000000	0.000000	7.146837	39.6314	NaN	0.000000	0.001721	0.001672	28.0817	26.3658	0.001831	14397.3	6.990599	-1.094839	39.5629	1.145130	0.023220	0.022876	39.6314	14397.3	0.021156	0.024391	1624.83	84224.4
754	2.000000	1.147936	7.37243e+06	-39389.1	1005.82	-29794	0.000000	0.000000	7.149540	45.506	NaN	0.000000	0.001751	0.001666	28.0816	29.3744	0.001987	14786.4	5.060246	-178.988	43.2082	1.147626	0.025682	0.025372	45.506	14786.4	0.023374	0.028124	1618.07	80556.2
754	2.000000	1.150447	7.37243e+06	-39389.1	1005.82	-29794	0.000000	0.000000	7.152345	52.6346	NaN	0.000000	0.001704	0.001656	28.0816	30.9705	0.001697	18248.4	4.634969	0.232341	51.1062	1.150014	0.028193	0.027760	52.6346	18248.4	0.026030	0.032916	1599.05	91895.3
754	2.000000	1.152930	7.37243e+06	-39389.1	1005.82	-29794	0.000000	0.000000	7.155131	60.0037	NaN	0.000000	0.001715	0.001685	28.0816	33.5256	0.001795	18681.4	4.897944	178.206	57.9534	1.152707	0.030677	0.030453	60.0037	18681.4	0.028268	0.037230	1611.71	88457.9
754	2.000000	1.155425	7.37243e+06	-39389.1	1005.82	-29794	0.000000	0.000000	7.158109	71.7593	NaN	0.000000	0.001750	0.001683	28.0819	36.3177	0.001716	21166.5	6.215473	-4.040262	69.5439	1.155107	0.033171	0.032854	71.7593	21166.5	0.030629	0.042057	1706.24	94298.2
754	2.000000	1.157922	7.37243e+06	-39389.1	1005.82	-29794	0.000000	0.000000	7.161049	82.5493	NaN	0.000000	0.001735	0.001682	28.0829	39.5483	0.001762	22442.1	4.992333	176.76	81.4634	1.157645	0.035668	0.035391	82.5493	22442.1	0.032909	0.046990	1756.75	94587.5
754	2.000000	1.160392	7.37243e+06	-39389.1	1005.82	-29794	0.000000	0.000000	7.164109	96.8924	NaN	0.000000	0.001754	0.001703	28.0828	41.7937	0.001658	25205.3	6.991410	-5.495624	93.0169	1.159953	0.038139	0.037699	96.8924	25205.3	0.035255	0.052342	1851.13	100656
754	2.000000	1.162902	7.37243e+06	-39389.1	1005.82	-29794	0.000000	0.000000	7.167095	108.506	NaN	0.000000	0.001750	0.001719	28.083	44.3177	0.001689	26236.7	6.145675	175.286	107.022	1.162542	0.040648	0.040289	108.506	26236.7	0.037546	0.057841	1875.94	99670.1
754	2.000000	1.165348	7.37243e+06	-39389.1	1005.82	-29794	0.000000	0.000000	7.170006	119.819	NaN	0.000000	0.001762	0.001756	28.083	47.5912	0.001823	26112.5	6.255234	-5.829330	115.256	1.165017	0.043094	0.042764	119.819	26112.5	0.039653	0.063134	1897.86	94949.2
754	2.000000	1.167964	7.37244e+06	-39389.1	1005.82	-29794	0.000000	0.000000	7.173141	132.421	NaN	0.000000	0.001738	0.001757	28.0828	49.9322	0.001841	27127.1	4.654459	176.217	133.075	1.167600	0.045711	0.045347	132.421	27127.1	0.042050	0.069432	1907.2	94058.2
754	2.000000	1.170441	7.37244e+06	-39389.1	1005.82	-29794	0.000000	0.000000	7.176396	151.38	NaN	0.000000	0.001781	0.001717	28.0831	52.2282	0.001807	28900	7.826218	-7.268926	150.214	1.170021	0.048187	0.047767	151.38	28900	0.044258	0.075496	2005.14	96097
754	2.000000	1.172926	7.37244e+06	-39389.1	1005.82	-29794	0.000000	0.000000	7.179392	163.789	NaN	0.000000	0.001747	0.001698	28.083	54.4607	0.001814	30017	4.698371	175.388	164.572	1.172629	0.050673	0.050376	163.789	30017	0.046580	0.082137	1994.1	95690.9
754	2.000000	1.175350	7.37244e+06	-39389.1	1005.82	-29794	0.000000	0.000000	7.182516	180.835	NaN	0.000000	0.001770	0.001716	28.0829	57.4189	0.001740	32993.4	5.263317	-7.135263	175.676	1.175030	0.053096	0.052776	180.835	32993.4	0.048986	0.089304	2024.94	100871
754	2.000000	1.177863	7.37244e+06	-39389.1	1005.82	-29794	0.000000	0.000000	7.185857	200.982	NaN	0.000000	0.001730	0.001677	28.0828	60.9295	0.001784	34150.8	7.833272	171.089	198.765	1.177546	0.055610	0.055292	200.982	34150.8	0.051196	0.096145	2090.41	100626
754	2.000000	1.180462	7.37244e+06	-39389.1	1005.82	-29794	0.000000	0.000000	7.188817	209.784	NaN	0.000000	0.001733	0.001703	28.0827	61.1195	0.001741	35104.6	2.060018	-3.146322	210.667	1.180152	0.058208	0.057899	209.784	35104.6	0.053726	0.104277	2011.8	99321.4
754	2.000000	1.182873	7.37244e+06	-39389.1	1005.82	-29794	0.000000	0.000000	7.191931	226.87	NaN	0.000000	0.001751	0.001735	28.0833	64.1875	0.001922	33388.5	2.118726	176.315	224.451	1.182623	0.060620	0.060369	226.87	33388.5	0.055524	0.110248	2057.81	91872.2
754	2.000000	1.185350	7.37244e+06	-39389.1	1005.82	-29794	0.000000	0.000000	7.195125	244.325	NaN	0.000000	0.001710	0.001690	28.0828	65.0442	0.001723	37755.2	0.569560	-2.964401	240.604	1.185002	0.063097	0.062749	244.325	37755.2	0.058243	0.119584	2043.14	99750.3
754	2.000000	1.187856	7.37244e+06	-39389.1	1005.82	-29794	0.000000	0.000000	7.198592	267.708	NaN	0.000000	0.001715	0.001703	28.083	68.6226	0.001736	39524.7	2.647814	174.329	265.902	1.187589	0.065603	0.065336	267.708	39524.7	0.060523	0.127690	2096.54	101056
754	2.000000	1.190317	7.37244e+06	-39389.1	1005.82	-29794	0.000000	0.000000	7.201683	283.035	NaN	0.000000	0.001729	0.001721	28.0815	71.2841	0.001838	38784.8	5.508484	-8.326474	276.394	1.190134	0.068064	0.067880	283.035	38784.8	0.062591	0.135261	2092.51	96349.1
754	2.000000	1.192870	7.37244e+06	-39389.1	1005.82	-29794	0.000000	0.000000	7.205300	308.926	NaN	0.000000	0.001708	0.001700	28.0818	72.6203	0.001732	41917.8	0.040119	177.372	308.624	1.192587	0.070617	0.070333	308.926	41917.8	0.065090	0.144689	2135.11	100683
754	2.000000	1.195330	7.37244e+06	-39389.1	1005.82	-29794	0.000000	0.000000	7.208614	329.716	NaN	0.000000	0.001739	0.001731	28.0816	75.1304	0.001772	42387.6	1.798825	-5.165704	324.272	1.195028	0.073076	0.072775	329.716	42387.6	0.067242	0.153052	2154.28	98990.4
754	2.000000	1.197814	7.37244e+06	-39389.1	1005.82	-29794	0.000000	0.000000	7.212025	352.264	NaN	0.000000	0.001689	0.001717	28.0819	78.5074	0.001752	44803.7	4.959713	171.377	349.149	1.197505	0.075561	0.075252	352.264	44803.7	0.069664	0.162723	2164.81	101476
754	2.000000	1.200398	7.37244e+06	-39389.1	1005.82	-29794	0.000000	0.000000	7.215687	378.518	NaN	0.000000	0.001717	0.001682	28.0818	81.7066	0.001817	44969.2	9.389855	-12.566	376.671	1.199970	0.078144	0.077716	378.518	44969.2	0.071831	0.171617	2205.6	99176.3
754	2.000000	1.202837	7.37244e+06	-39389.1	1005.82	-29794	0.000000	0.000000	7.218885	396.997	NaN	0.000000	0.001667	0.001693	28.082	82.1886	0.001754	46865	0.190950	176.064	394.864	1.202616	0.080583	0.080363	396.997	46865	0.074230	0.181719	2184.68	100444
754	2.000000	1.205305	7.37244e+06	-39389.1	1005.82	-29794	0.000000	0.000000	7.222248	418.761	NaN	0.000000	0.001701	0.001706	28.0818	85.0777	0.001689	50364.6	1.917898	-6.239919	412.664	1.204925	0.083051	0.082671	418.761	50364.6	0.076815	0.192910	2170.75	104766
754	2.000000	1.207819	7.37244e+06	-39389.1	1005.82	-29794	0.000000	0.000000	7.225433	435.088	NaN	0.000000	0.001683	0.001699	28.082	89.9951	0.001886	47705.7	5.308587	170.489	432.727	1.207623	0.085565	0.085369	435.088	47705.7	0.078725	0.201379	2160.54	97126.1
754	2.000000	1.210287	7.37244e+06	-39389.1	1005.82	-29794	0.000000	0.000000	7.229453	472.862	NaN	0.000000	0.001743	0.001729	28.0821	89.8948	0.001737	51739.5	1.478771	-5.833835	465.056	1.209845	0.088034	0.087591	472.862	51739.5	0.081179	0.212513	2225.1	102542
754	2.000000	1.212745	7.37244e+06	-39389.1	1005.82	-29794	0.000000	0.000000	7.233043	500.41	NaN	0.000000	0.001736	0.001750	28.0821	91.9923	0.001776	51810.2	3.095040	172.468	493.48	1.212466	0.090491	0.090212	500.41	51810.2	0.083247	0.222111	2252.97	100439
754	2.000000	1.215217	7.37244e+06	-39389.1	1005.82	-29794	0.000000	0.000000	7.236412	522.253	NaN	0.000000	0.001725	0.001755	28.0816	95.6915	0.001750	54666.6	3.961585	-8.916481	514.373	1.215040	0.092963	0.092786	522.253	54666.6	0.085798	0.234223	2229.73	103200
754	2.000000	1.217836	7.37244e+06	-39389.1	1005.82	-29794	0.000000	0.000000	7.239694	538.361	NaN	0.000000	0.001718	0.001707	28.0819	99.2321	0.001864	53246.8	2.893367	172.007	535.641	1.217731	0.095582	0.095478	538.361	53246.8	0.087999	0.244918	2198.13	98300.7
754	2.000000	1.220386	7.37244e+06	-39389.1	1005.82	-29794	0.000000	0.000000	7.243863	577.755	NaN	0.000000	0.001712	0.001727	28.0819	101.001	0.001811	55780.4	4.774010	-9.509515	574.267	1.220113	0.098133	0.097860	577.755	55780.4	0.090364	0.256655	2251.1	100596
754	2.000000	1.222750	7.37244e+06	-39389.1	1005.82	-29794	0.000000	0.000000	7.247599	611.157	NaN	0.000000	0.001715	0.001708	28.0818	101.493	0.001749	58040.5	-0.025931	174.683	604.098	1.222360	0.100496	0.100106	611.157	58040.5	0.092599	0.267978	2280.62	102436
754	2.000000	1.225217	7.37244e+06	-39389.1	1005.82	-29794	0.000000	0.000000	7.251089	636.047	NaN	0.000000	0.001760	0.001667	28.0828	103.837	0.001721	60322.4	5.621476	-11.4029	626.438	1.224918	0.102963	0.102664	636.047	60322.4	0.095055	0.280691	2266.01	104025
754	2.000000	1.227703	7.37244e+06	-39389.1	1005.82	-29794	0.000000	0.000000	7.254700	663.442	NaN	0.000000	0.001740	0.001715	28.0842	106.626	0.001782	59835.5	3.189178	171.381	655.918	1.227437	0.105449	0.105183	663.442	59835.5	0.097133	0.291662	2274.69	101226