File: remote_trans/data/nanoindenter/0828-1/data/Data_2025-08-06,11h17m57s/2025-07-22_16-23-58_1_611.txt
2025-07-22, 16:23:58, 1
Index	Phase	Displacement	Time	Pos X	Pos Y	Pos Z	Rot A	Rot B	Piezo Z	Force A	Force B	Gripper	Voltage A	Voltage B	Temperature	Amplitude force	Amplitude pos	Stiffness	Phase shift	Phase excitation	Force A raw	Displacement raw	HMax	HMax raw	Real Force	Real Stiffness	Contact Depth	Area	Hardness	Reduced Mod.
[#]	[#]	[um]	[s]	[um]	[um]	[um]	[m°]	[m°]	[um]	[uN]	[uN]	[V]	[V]	[V]	[°C]	[uN]	[um]	[N/m]	[°]	[°]	[uN]	[um]	[um]	[um]	[uN]	[N/m]	[um]	[um^2]	[MPa]	[MPa]
611	1.000000	0.003040	7.37103e+06	-46539.1	1005.82	-29768.8	0.000000	0.000000	6.002785	-0.018096	NaN	0.000000	0.001548	0.001669	28.0832	0.118412	0.001042	113.666	-87.6187	-162.005	-0.000241	0.001769	-1.144075	-1.145346	-0.018096	113.666	-1.143956	-1.948863E+15	9.285627E-18	NaN
611	1.000000	0.013112	7.37103e+06	-46539.1	1005.82	-29768.8	0.000000	0.000000	6.012859	0.028885	NaN	0.000000	0.001550	0.001676	28.0827	0.099801	0.001095	91.1146	-75.6375	17.3272	0.034739	0.011673	-1.134003	-1.135442	0.028885	91.1146	-1.134241	-1.443781E+15	-2.000627E-17	NaN
611	1.000000	0.023025	7.37103e+06	-46539.1	1005.82	-29768.8	0.000000	0.000000	6.022771	0.001140	NaN	0.000000	0.001565	0.001685	28.0828	0.054101	0.001827	29.6188	-157.559	-163.927	-0.006365	0.021702	-1.124090	-1.125413	0.001140	29.6188	-1.124119	-1.056164E+15	-1.079680E-18	NaN
611	1.000000	0.033017	7.37103e+06	-46539.1	1005.82	-29768.8	0.000000	0.000000	6.032766	0.073770	NaN	0.000000	0.001598	0.001682	28.0826	0.052079	0.001919	27.142	-61.7163	14.0996	0.095015	0.031682	-1.114098	-1.115433	0.073770	27.142	-1.116136	-8.253303E+14	-8.938283E-17	NaN
611	1.000000	0.043002	7.37103e+06	-46539.1	1005.82	-29768.8	0.000000	0.000000	6.042746	-0.046223	NaN	0.000000	0.001610	0.001638	28.0828	0.077026	0.001906	40.4199	127.254	-165.679	-0.032852	0.041702	-1.104113	-1.105413	-0.046223	40.4199	-1.103255	-5.543229E+14	8.338613E-17	NaN
611	1.000000	0.053007	7.37103e+06	-46539.1	1005.82	-29768.8	0.000000	0.000000	6.052753	-0.016083	NaN	0.000000	0.001599	0.001646	28.0827	0.024775	0.002008	12.3393	-62.7002	14.9369	-0.021790	0.051646	-1.094108	-1.095469	-0.016083	12.3393	-1.093130	-4.053580E+14	3.967696E-17	NaN
611	1.000000	0.062981	7.37103e+06	-46539.1	1005.82	-29768.8	0.000000	0.000000	6.062727	-0.002426	NaN	0.000000	0.001629	0.001671	28.0825	0.014086	0.001900	7.415459	38.5144	-163.869	0.035577	0.061620	-1.084134	-1.085495	-0.002426	7.415459	-1.083888	-3.046085E+14	7.964263E-18	NaN
611	1.000000	0.073047	7.37103e+06	-46539.1	1005.82	-29768.8	0.000000	0.000000	6.072793	0.010602	NaN	0.000000	0.001590	0.001648	28.0823	0.062930	0.001939	32.4531	-117.566	16.7959	-0.034557	0.071665	-1.074068	-1.075450	0.010602	32.4531	-1.074313	-2.265354E+14	-4.680146E-17	NaN
611	1.000000	0.083019	7.37103e+06	-46539.1	1005.82	-29768.8	0.000000	0.000000	6.082763	-0.039110	NaN	0.000000	0.001585	0.001645	28.0828	0.081148	0.002041	39.7636	32.4646	-165.388	-0.034478	0.081724	-1.064096	-1.065391	-0.039110	39.7636	-1.063359	-1.614194E+14	2.422909E-16	NaN
611	1.000000	0.093014	7.37103e+06	-46539.1	1005.82	-29768.8	0.000000	0.000000	6.092760	-0.004821	NaN	0.000000	0.001608	0.001647	28.0826	0.080122	0.002051	39.0575	82.1569	17.5777	0.068757	0.091685	-1.054101	-1.055430	-0.004821	39.0575	-1.054008	-1.208622E+14	3.989192E-17	NaN
611	1.000000	0.102996	7.37103e+06	-46539.1	1005.82	-29768.8	0.000000	0.000000	6.102742	0.004091	NaN	0.000000	0.001615	0.001621	28.0813	0.113670	0.001998	56.899	121.741	-163.879	-0.049130	0.101715	-1.044119	-1.045400	0.004091	56.899	-1.044173	-8.914177E+13	-4.589699E-17	NaN
611	1.000000	0.113039	7.37103e+06	-46539.1	1005.82	-29768.8	0.000000	0.000000	6.112786	0.036502	NaN	0.000000	0.001571	0.001618	28.0815	0.058232	0.002051	28.3939	149.883	13.7703	-0.011355	0.111695	-1.034076	-1.035420	0.036502	28.3939	-1.035041	-6.718525E+13	-5.433070E-16	NaN
611	1.000000	0.123040	7.37103e+06	-46539.1	1005.82	-29768.8	0.000000	0.000000	6.122785	-0.010598	NaN	0.000000	0.001600	0.001639	28.0817	0.043419	0.002027	21.4169	130.649	-167.536	-0.028534	0.121699	-1.024075	-1.025416	-0.010598	21.4169	-1.023704	-4.729175E+13	2.241080E-16	NaN
611	1.000000	0.133009	7.37103e+06	-46539.1	1005.82	-29768.8	0.000000	0.000000	6.132753	-0.037742	NaN	0.000000	0.001637	0.001618	28.0812	0.079340	0.002096	37.8496	-8.591396	16.5986	-0.085978	0.131684	-1.014106	-1.015431	-0.037742	37.8496	-1.013358	-3.432268E+13	1.099630E-15	NaN
611	1.000000	0.143030	7.37103e+06	-46539.1	1005.82	-29768.8	0.000000	0.000000	6.142776	0.009949	NaN	0.000000	0.001620	0.001661	28.0815	0.092809	0.002002	46.3485	-87.6947	-166.19	0.032797	0.141678	-1.004085	-1.005437	0.009949	46.3485	-1.004246	-2.587788E+13	-3.844520E-16	NaN
611	1.000000	0.153050	7.37103e+06	-46539.1	1005.82	-29768.8	0.000000	0.000000	6.152796	-0.000823	NaN	0.000000	0.001644	0.001670	28.0815	0.039339	0.002022	19.4586	9.603712	17.3258	-0.057991	0.151700	-0.994065	-0.995415	-0.000823	19.4586	-0.994033	-1.885491E+13	4.363014E-17	NaN
611	1.000000	0.163042	7.37103e+06	-46539.1	1005.82	-29768.8	0.000000	0.000000	6.162784	-0.093909	NaN	0.000000	0.001638	0.001668	28.0819	0.083680	0.002034	41.1324	-29.5473	-167.437	-0.061323	0.161768	-0.984073	-0.985347	-0.093909	41.1324	-0.982361	-1.312843E+13	7.153132E-15	NaN
611	1.000000	0.172990	7.37103e+06	-46539.1	1005.82	-29768.8	0.000000	0.000000	6.172736	0.013753	NaN	0.000000	0.001613	0.001704	28.0816	0.039857	0.002056	19.3853	84.4911	12.8677	-0.009027	0.171694	-0.974125	-0.975421	0.013753	19.3853	-0.974657	-1.033776E+13	-1.330317E-15	NaN
611	1.000000	0.183040	7.37103e+06	-46539.1	1005.82	-29768.8	0.000000	0.000000	6.182785	-0.031150	NaN	0.000000	0.001588	0.001662	28.0816	0.096797	0.002028	47.7191	175.738	-164.984	0.000275	0.181736	-0.964075	-0.965379	-0.031150	47.7191	-0.963586	-7.331708E+12	4.248624E-15	NaN
611	1.000000	0.193065	7.37103e+06	-46539.1	1005.82	-29768.8	0.000000	0.000000	6.192810	-0.031808	NaN	0.000000	0.001629	0.001662	28.0815	0.097350	0.002005	48.5649	-1.281679	12.9573	-0.036249	0.191650	-0.954050	-0.955465	-0.031808	48.5649	-0.953558	-5.370487E+12	5.922711E-15	NaN
611	1.000000	0.203069	7.37103e+06	-46539.1	1005.82	-29768.8	0.000000	0.000000	6.202816	0.010261	NaN	0.000000	0.001623	0.001648	28.0818	0.044046	0.001919	22.9573	10.7669	-162.864	0.052277	0.201710	-0.944046	-0.945405	0.010261	22.9573	-0.944381	-4.038641E+12	-2.540708E-15	NaN
611	1.000000	0.213087	7.37103e+06	-46539.1	1005.82	-29768.8	0.000000	0.000000	6.212830	-0.062637	NaN	0.000000	0.001652	0.001636	28.0812	0.082033	0.002107	38.9414	162.303	14.8714	-0.014053	0.211700	-0.934028	-0.935415	-0.062637	38.9414	-0.932822	-2.820209E+12	2.221018E-14	NaN
611	1.000000	0.223066	7.37103e+06	-46539.1	1005.82	-29768.8	0.000000	0.000000	6.222814	0.045011	NaN	0.000000	0.001628	0.001636	28.0814	0.041190	0.001905	21.6205	-114.687	-164.53	0.056170	0.221764	-0.924049	-0.925351	0.045011	21.6205	-0.925610	-2.253968E+12	-1.996954E-14	NaN
611	1.000000	0.233072	7.37103e+06	-46539.1	1005.82	-29768.8	0.000000	0.000000	6.232817	-0.007947	NaN	0.000000	0.001609	0.001641	28.0815	0.064242	0.002131	30.15	65.0433	16.6718	-0.065867	0.231743	-0.914043	-0.915372	-0.007947	30.15	-0.913846	-1.563516E+12	5.082981E-15	NaN
611	1.000000	0.243081	7.37103e+06	-46539.1	1005.82	-29768.8	0.000000	0.000000	6.242827	-0.004994	NaN	0.000000	0.001628	0.001658	28.0828	0.043363	0.002046	21.1906	-145.567	-166.327	-0.023541	0.241802	-0.904034	-0.905313	-0.004994	21.1906	-0.903857	-1.145991E+12	4.357395E-15	NaN
611	1.000000	0.253091	7.37103e+06	-46539.1	1005.82	-29768.8	0.000000	0.000000	6.252837	0.005056	NaN	0.000000	0.001642	0.001662	28.0825	0.027409	0.001845	14.8596	14.0051	13.2856	0.036129	0.251740	-0.894024	-0.895375	0.005056	14.8596	-0.894279	-8.506644E+11	-5.944099E-15	NaN
611	1.000000	0.263086	7.37103e+06	-46539.1	1005.82	-29768.8	0.000000	0.000000	6.262832	0.011554	NaN	0.000000	0.001635	0.001683	28.0826	0.034899	0.001917	18.2019	-119.648	-162.563	0.032940	0.261730	-0.884029	-0.885385	0.011554	18.2019	-0.884505	-6.275234E+11	-1.841157E-14	NaN
611	1.000000	0.273100	7.37103e+06	-46539.1	1005.82	-29768.8	0.000000	0.000000	6.272846	-0.001013	NaN	0.000000	0.001635	0.001679	28.0829	0.009595	0.001909	5.026338	-152.065	17.0878	-0.030356	0.271752	-0.874015	-0.875363	-0.001013	5.026338	-0.873864	-4.505207E+11	2.247406E-15	NaN
611	1.000000	0.283054	7.37103e+06	-46539.1	1005.82	-29768.8	0.000000	0.000000	6.282801	0.036864	NaN	0.000000	0.001559	0.001669	28.0826	0.060146	0.002048	29.3713	3.547453	-165.495	0.032707	0.281746	-0.864061	-0.865369	0.036864	29.3713	-0.865002	-3.418394E+11	-1.078403E-13	NaN
611	1.000000	0.293091	7.37103e+06	-46539.1	1005.82	-29768.8	0.000000	0.000000	6.292835	-0.032521	NaN	0.000000	0.001610	0.001650	28.0825	0.143179	0.002009	71.2646	-120.939	16.3015	0.007696	0.291731	-0.854024	-0.855384	-0.032521	71.2646	-0.853682	-2.402127E+11	1.353844E-13	NaN
611	1.000000	0.303127	7.37103e+06	-46539.1	1005.82	-29768.8	0.000000	0.000000	6.302873	0.013040	NaN	0.000000	0.001620	0.001646	28.0827	0.064595	0.001991	32.4374	-77.8895	-164.641	-0.089053	0.301817	-0.843988	-0.845298	0.013040	32.4374	-0.844290	-1.792277E+11	-7.275425E-14	NaN
611	1.000000	0.313127	7.37103e+06	-46539.1	1005.82	-29768.8	0.000000	0.000000	6.312871	-0.060464	NaN	0.000000	0.001615	0.001606	28.0827	0.085269	0.001908	44.6997	50.5429	16.9867	0.025921	0.311745	-0.833988	-0.835370	-0.060464	44.6997	-0.832973	-1.259158E+11	4.801914E-13	NaN
611	1.000000	0.323119	7.37103e+06	-46539.1	1005.82	-29768.8	0.000000	0.000000	6.322864	-0.034075	NaN	0.000000	0.001636	0.001653	28.0825	0.077179	0.001908	40.4457	-26.665	-159.62	0.044144	0.321783	-0.823996	-0.825332	-0.034075	40.4457	-0.823364	-9.328831E+10	3.652693E-13	NaN
611	1.000000	0.333110	7.37103e+06	-46539.1	1005.82	-29768.8	0.000000	0.000000	6.332853	-0.073609	NaN	0.000000	0.001633	0.001616	28.0827	0.091851	0.002078	44.1984	155.031	16.1559	-0.083687	0.331687	-0.814005	-0.815428	-0.073609	44.1984	-0.812756	-6.698176E+10	1.098939E-12	NaN
611	1.000000	0.343122	7.37103e+06	-46539.1	1005.82	-29768.8	0.000000	0.000000	6.342866	-0.034201	NaN	0.000000	0.001604	0.001707	28.083	0.065634	0.002145	30.6043	-179.25	-167.245	0.011005	0.341845	-0.803993	-0.805270	-0.034201	30.6043	-0.803155	-4.962376E+10	6.892044E-13	NaN
611	1.000000	0.353133	7.37103e+06	-46539.1	1005.82	-29768.8	0.000000	0.000000	6.352878	-0.020656	NaN	0.000000	0.001591	0.001679	28.0827	0.030963	0.001959	15.8078	25.8634	18.3412	0.083103	0.351797	-0.793982	-0.795318	-0.020656	15.8078	-0.793002	-3.612835E+10	5.717449E-13	NaN
611	1.000000	0.363160	7.37103e+06	-46539.1	1005.82	-29768.8	0.000000	0.000000	6.362906	0.011767	NaN	0.000000	0.001656	0.001679	28.0826	0.047908	0.001918	24.9741	-135.893	-167.157	-0.003467	0.361832	-0.783955	-0.785283	0.011767	24.9741	-0.784309	-2.752807E+10	-4.274533E-13	NaN
611	1.000000	0.373156	7.37103e+06	-46539.1	1005.82	-29768.8	0.000000	0.000000	6.372905	0.057543	NaN	0.000000	0.001615	0.001701	28.0826	0.001135	0.002041	0.555892	79.5821	17.3982	-0.001429	0.371748	-0.773959	-0.775367	0.057543	0.555892	-0.851594	-2.250746E+11	-2.556607E-13	NaN
611	1.000000	0.383144	7.37103e+06	-46539.1	1005.82	-29768.8	0.000000	0.000000	6.382890	0.005503	NaN	0.000000	0.001636	0.001701	28.0814	0.033900	0.001982	17.1064	120.952	-166.017	-0.054970	0.381816	-0.763971	-0.765299	0.005503	17.1064	-0.764212	-1.467581E+10	-3.749909E-13	NaN
611	1.000000	0.393150	7.37103e+06	-46539.1	1005.82	-29768.8	0.000000	0.000000	6.392895	-0.004581	NaN	0.000000	0.001613	0.001684	28.0814	0.020012	0.002089	9.580369	-88.216	14.8442	-0.042925	0.391798	-0.753965	-0.755317	-0.004581	9.580369	-0.753607	-1.052717E+10	4.351140E-13	NaN
611	1.000000	0.403150	7.37103e+06	-46539.1	1005.82	-29768.8	0.000000	0.000000	6.402895	-0.012474	NaN	0.000000	0.001629	0.001706	28.0815	0.078595	0.002011	39.0882	-153.487	-163.597	0.044642	0.401860	-0.743965	-0.745255	-0.012474	39.0882	-0.743726	-7.723202E+9	1.615189E-12	NaN
611	1.000000	0.413141	7.37103e+06	-46539.1	1005.82	-29768.8	0.000000	0.000000	6.412885	-0.043715	NaN	0.000000	0.001594	0.001701	28.0815	0.040668	0.001919	21.1962	34.5877	15.2298	-0.095089	0.411830	-0.733974	-0.735285	-0.043715	21.1962	-0.732427	-5.418553E+9	8.067686E-12	NaN
611	1.000000	0.423171	7.37103e+06	-46539.1	1005.82	-29768.8	0.000000	0.000000	6.422918	0.040792	NaN	0.000000	0.001611	0.001693	28.0812	0.069308	0.002083	33.2749	-142.317	-164.939	0.047662	0.421877	-0.723944	-0.725238	0.040792	33.2749	-0.724864	-4.273619E+9	-9.545106E-12	NaN
611	1.000000	0.433177	7.37103e+06	-46539.1	1005.82	-29768.8	0.000000	0.000000	6.432926	0.062559	NaN	0.000000	0.001575	0.001665	28.0813	0.107465	0.002045	52.5484	147.362	16.9391	-0.038989	0.431810	-0.713938	-0.715305	0.062559	52.5484	-0.714831	-3.118602E+9	-2.005981E-11	NaN
611	1.000000	0.443156	7.37103e+06	-46539.1	1005.82	-29768.8	0.000000	0.000000	6.442902	0.004502	NaN	0.000000	0.001593	0.001725	28.0816	0.112262	0.002050	54.7609	35.7785	-165.992	0.043763	0.441907	-0.703959	-0.705208	0.004502	54.7609	-0.704021	-2.220410E+9	-2.027413E-12	NaN
611	1.000000	0.453193	7.37103e+06	-46539.1	1005.82	-29768.8	0.000000	0.000000	6.452938	-0.025793	NaN	0.000000	0.001633	0.001719	28.0816	0.053870	0.001913	28.1646	165.774	17.9119	-0.003696	0.451826	-0.693922	-0.695289	-0.025793	28.1646	-0.693235	-1.581689E+9	1.630718E-11	NaN
611	1.000000	0.463173	7.37103e+06	-46539.1	1005.82	-29768.8	0.000000	0.000000	6.462923	0.081955	NaN	0.000000	0.001609	0.001674	28.0815	0.097486	0.001948	50.0457	-67.5188	-165.312	0.051724	0.461851	-0.683942	-0.685264	0.081955	50.0457	-0.685170	-1.227144E+9	-6.678512E-11	NaN
611	1.000000	0.473211	7.37103e+06	-46539.1	1005.82	-29768.8	0.000000	0.000000	6.472956	-0.003304	NaN	0.000000	0.001614	0.001692	28.0815	0.145251	0.002163	67.1441	178.108	13.5663	0.020302	0.471817	-0.673904	-0.675298	-0.003304	67.1441	-0.673868	-8.596402E+8	3.843792E-12	NaN
611	1.000000	0.483224	7.37103e+06	-46539.1	1005.82	-29768.8	0.000000	0.000000	6.482970	0.002929	NaN	0.000000	0.001563	0.001708	28.0818	0.057707	0.001996	28.9064	141.622	-166.504	-0.032956	0.481858	-0.663891	-0.665257	0.002929	28.9064	-0.663967	-6.292102E+8	-4.654980E-12	NaN
611	1.000000	0.493207	7.37103e+06	-46539.1	1005.82	-29768.8	0.000000	0.000000	6.492951	-0.033515	NaN	0.000000	0.001629	0.001698	28.0816	0.041256	0.001801	22.9049	-35.7114	16.0605	-0.064024	0.491791	-0.653908	-0.655324	-0.033515	22.9049	-0.652811	-4.425534E+8	7.573017E-11	NaN
611	1.000000	0.503194	7.37103e+06	-46539.1	1005.82	-29768.8	0.000000	0.000000	6.502938	-0.038867	NaN	0.000000	0.001594	0.001720	28.0815	0.048777	0.001937	25.1764	6.975932	-161.935	0.005251	0.501937	-0.643921	-0.645178	-0.038867	25.1764	-0.642763	-3.222520E+8	1.206102E-10	NaN
611	1.000000	0.513195	7.37103e+06	-46539.1	1005.82	-29768.8	0.000000	0.000000	6.512941	-0.002218	NaN	0.000000	0.001600	0.001696	28.0829	0.013783	0.001967	7.008090	116.583	13.51	0.061560	0.511824	-0.633920	-0.635291	-0.002218	7.008090	-0.633683	-2.418728E+8	9.169283E-12	NaN
611	1.000000	0.523204	7.37103e+06	-46539.1	1005.82	-29768.8	0.000000	0.000000	6.522949	-0.035266	NaN	0.000000	0.001603	0.001704	28.0829	0.151823	0.002070	73.3618	-91.5824	-163.785	-0.006023	0.521905	-0.623911	-0.625210	-0.035266	73.3618	-0.623550	-1.755588E+8	2.008768E-10	NaN
611	1.000000	0.533210	7.37103e+06	-46539.1	1005.82	-29768.8	0.000000	0.000000	6.532954	-0.053967	NaN	0.000000	0.001563	0.001714	28.083	0.068934	0.001924	35.8372	90.1979	14.0478	-0.082819	0.531892	-0.613905	-0.615223	-0.053967	35.8372	-0.612775	-1.248224E+8	4.323542E-10	NaN
611	1.000000	0.543178	7.37103e+06	-46539.1	1005.82	-29768.8	0.000000	0.000000	6.542925	0.030376	NaN	0.000000	0.001576	0.001716	28.0828	0.070103	0.002141	32.7474	140.341	-162.685	3.859927E-6	0.541887	-0.603937	-0.605228	0.030376	32.7474	-0.604633	-9.643785E+7	-3.149779E-10	NaN
611	1.000000	0.553245	7.37103e+06	-46539.1	1005.82	-29768.8	0.000000	0.000000	6.552988	-0.049406	NaN	0.000000	0.001559	0.001703	28.083	0.078330	0.001872	41.8405	-134.035	15.2498	-0.016921	0.551920	-0.593870	-0.595195	-0.049406	41.8405	-0.592985	-6.665162E+7	7.412601E-10	NaN
611	1.000000	0.563212	7.37103e+06	-46539.1	1005.82	-29768.8	0.000000	0.000000	6.562958	-0.016637	NaN	0.000000	0.001573	0.001693	28.0829	0.043417	0.001906	22.7828	146.392	-167.624	0.097823	0.561888	-0.583903	-0.585227	-0.016637	22.7828	-0.583355	-4.909317E+7	3.388932E-10	NaN
611	1.000000	0.573213	7.37103e+06	-46539.1	1005.82	-29768.8	0.000000	0.000000	6.572956	-0.079349	NaN	0.000000	0.001588	0.001699	28.0829	0.080153	0.001971	40.6569	-153.185	13.3892	0.031116	0.571889	-0.573902	-0.575226	-0.079349	40.6569	-0.572438	-3.469896E+7	2.286785E-9	NaN
611	1.000000	0.583241	7.37103e+06	-46539.1	1005.82	-29768.8	0.000000	0.000000	6.582987	0.007474	NaN	0.000000	0.001573	0.001722	28.0827	0.065986	0.002119	31.1419	-26.4958	-166.875	0.060280	0.581932	-0.563874	-0.565183	0.007474	31.1419	-0.564054	-2.657352E+7	-2.812448E-10	NaN
611	1.000000	0.593218	7.37103e+06	-46539.1	1005.82	-29768.8	0.000000	0.000000	6.592963	-0.014072	NaN	0.000000	0.001588	0.001730	28.0828	0.080199	0.001918	41.8115	57.0588	13.9278	-0.001174	0.591830	-0.553897	-0.555285	-0.014072	41.8115	-0.553645	-1.907325E+7	7.377677E-10	NaN
611	1.000000	0.603252	7.37103e+06	-46539.1	1005.82	-29768.8	0.000000	0.000000	6.602998	0.008862	NaN	0.000000	0.001565	0.001728	28.0832	0.036067	0.001947	18.5244	-92.9851	-162.744	0.014947	0.601903	-0.543863	-0.545212	0.008862	18.5244	-0.544222	-1.412194E+7	-6.275399E-10	NaN
611	1.000000	0.613248	7.37103e+06	-46539.1	1005.82	-29768.8	0.000000	0.000000	6.612996	0.034913	NaN	0.000000	0.001570	0.001711	28.0829	0.141864	0.002030	69.8947	1.041141	15.7384	-0.026234	0.611858	-0.533867	-0.535257	0.034913	69.8947	-0.534241	-1.026736E+7	-3.400374E-9	NaN
611	1.000000	0.623222	7.37103e+06	-46539.1	1005.82	-29768.8	0.000000	0.000000	6.622968	0.014161	NaN	0.000000	0.001570	0.001710	28.0827	0.041647	0.001913	21.7677	-131.195	-165.594	-0.021702	0.621913	-0.523893	-0.525202	0.014161	21.7677	-0.524381	-7.49046e+06	-1.890504E-9	NaN
611	1.000000	0.633268	7.37103e+06	-46539.1	1005.82	-29768.8	0.000000	0.000000	6.633012	-0.030244	NaN	0.000000	0.001622	0.001736	28.0827	0.058996	0.002026	29.1246	-2.012031	15.6957	-0.046587	0.631892	-0.513847	-0.515223	-0.030244	29.1246	-0.513069	-5.21372e+06	5.800800E-9	NaN
611	1.000000	0.643274	7.37103e+06	-46539.1	1005.82	-29768.8	0.000000	0.000000	6.643021	0.022193	NaN	0.000000	0.001643	0.001698	28.0826	0.038885	0.002050	18.9637	-167.888	-163.856	0.054571	0.641953	-0.503841	-0.505162	0.022193	18.9637	-0.504719	-3.98861e+06	-5.564121E-9	NaN
611	1.000000	0.653249	7.37103e+06	-46539.1	1005.82	-29768.8	0.000000	0.000000	6.652992	-0.081111	NaN	0.000000	0.001639	0.001704	28.0814	0.061567	0.002030	30.3284	111.541	12.6415	-0.062262	0.651949	-0.493866	-0.495166	-0.081111	30.3284	-0.491860	-2.63866e+06	3.073949E-8	NaN
611	1.000000	0.663256	7.37103e+06	-46539.1	1005.82	-29768.8	0.000000	0.000000	6.663002	-0.003409	NaN	0.000000	0.001626	0.001707	28.0816	0.040433	0.002015	20.0677	-172.762	-165.195	0.012285	0.661935	-0.483859	-0.485180	-0.003409	20.0677	-0.483732	-2.03119e+06	1.678293E-9	NaN
611	1.000000	0.673266	7.37103e+06	-46539.1	1005.82	-29768.8	0.000000	0.000000	6.673012	0.012481	NaN	0.000000	0.001620	0.001713	28.0817	0.034128	0.002071	16.4756	75.0311	12.4449	0.031072	0.671926	-0.473849	-0.475189	0.012481	16.4756	-0.474417	-1.5043e+06	-8.297159E-9	NaN
611	1.000000	0.683264	7.37103e+06	-46539.1	1005.82	-29768.8	0.000000	0.000000	6.683012	0.051190	NaN	0.000000	0.001680	0.001733	28.0814	0.031490	0.001981	15.8983	155.185	-164.817	-0.012214	0.681991	-0.463851	-0.465124	0.051190	15.8983	-0.466266	-1.15617e+06	-4.427524E-8	NaN
611	1.000000	0.693240	7.37103e+06	-46539.1	1005.82	-29768.8	0.000000	0.000000	6.692986	0.016659	NaN	0.000000	0.001673	0.001702	28.0816	0.098027	0.001998	49.0572	-96.8307	13.0922	0.051191	0.691891	-0.453875	-0.455224	0.016659	49.0572	-0.454130	-780685	-2.133946E-8	NaN
611	1.000000	0.703293	7.37103e+06	-46539.1	1005.82	-29768.8	0.000000	0.000000	6.703040	0.025632	NaN	0.000000	0.001682	0.001727	28.0816	0.035817	0.001970	18.1777	143.899	-165.246	0.013134	0.701953	-0.443822	-0.445162	0.025632	18.1777	-0.444880	-578355	-4.431896E-8	NaN
611	1.000000	0.713300	7.37103e+06	-46539.1	1005.82	-29768.8	0.000000	0.000000	6.713044	-0.050396	NaN	0.000000	0.001662	0.001703	28.0817	0.114055	0.002104	54.2133	136.515	14.08	-0.072769	0.711907	-0.433815	-0.435208	-0.050396	54.2133	-0.433117	-394591	1.277166E-7	NaN
611	1.000000	0.723278	7.37103e+06	-46539.1	1005.82	-29768.8	0.000000	0.000000	6.723025	0.022940	NaN	0.000000	0.001720	0.001727	28.0815	0.041494	0.001897	21.8786	-14.6364	-164.056	-0.002896	0.721950	-0.423837	-0.425165	0.022940	21.8786	-0.424623	-299187	-7.667420E-8	NaN
611	1.000000	0.733275	7.37103e+06	-46539.1	1005.82	-29768.8	0.000000	0.000000	6.733019	-0.038040	NaN	0.000000	0.001688	0.001734	28.0816	0.061989	0.002054	30.1769	-84.711	14.2448	0.011013	0.731935	-0.413840	-0.415180	-0.038040	30.1769	-0.412895	-203964	1.865058E-7	NaN
611	1.000000	0.743302	7.37103e+06	-46539.1	1005.82	-29768.8	0.000000	0.000000	6.743049	0.039204	NaN	0.000000	0.001643	0.001698	28.082	0.063951	0.002004	31.9197	179.409	-164.426	0.086665	0.742013	-0.403813	-0.405102	0.039204	31.9197	-0.404734	-156123	-2.511120E-7	NaN
611	1.000000	0.753276	7.37103e+06	-46539.1	1005.82	-29768.8	0.000000	0.000000	6.753023	0.031808	NaN	0.000000	0.001614	0.001730	28.0817	0.053683	0.001926	27.8793	120.512	14.1731	0.000383	0.751967	-0.393839	-0.395148	0.031808	27.8793	-0.394695	-112273	-2.833078E-7	NaN
611	1.000000	0.763282	7.37103e+06	-46539.1	1005.82	-29768.8	0.000000	0.000000	6.763030	0.064315	NaN	0.000000	0.001568	0.001765	28.0818	0.040979	0.001924	21.3006	117.279	-164.28	-0.008824	0.761982	-0.383833	-0.385133	0.064315	21.3006	-0.386098	-84589.4	-7.603215E-7	NaN
611	1.000000	0.773310	7.37103e+06	-46539.1	1005.82	-29768.8	0.000000	0.000000	6.773057	0.020527	NaN	0.000000	0.001590	0.001744	28.0813	0.024156	0.001996	12.1019	7.190889	14.1144	-0.060504	0.771980	-0.373805	-0.375135	0.020527	12.1019	-0.375077	-58773.5	-3.492546E-7	NaN
611	1.000000	0.783302	7.37103e+06	-46539.1	1005.82	-29768.8	0.000000	0.000000	6.783044	-0.095969	NaN	0.000000	0.001556	0.001778	28.0819	0.116203	0.002027	57.3279	173.249	-165.004	-0.052374	0.781991	-0.363813	-0.365124	-0.095969	57.3279	-0.362557	-38796.5	2.473641E-6	NaN
611	1.000000	0.793322	7.37103e+06	-46539.1	1005.82	-29768.8	0.000000	0.000000	6.793068	-0.004332	NaN	0.000000	0.001577	0.001732	28.0825	0.094551	0.001921	49.2216	-119.998	16.7076	-0.027572	0.791960	-0.353793	-0.355155	-0.004332	49.2216	-0.353727	-28910.5	1.498543E-7	NaN
611	1.000000	0.803327	7.37103e+06	-46539.1	1005.82	-29768.8	0.000000	0.000000	6.803074	0.028962	NaN	0.000000	0.001566	0.001691	28.0827	0.038669	0.002053	18.835	27.3925	-164.543	0.021256	0.802011	-0.343788	-0.345104	0.028962	18.835	-0.344942	-21552.9	-1.343768E-6	NaN
611	1.000000	0.813286	7.37103e+06	-46539.1	1005.82	-29768.8	0.000000	0.000000	6.813032	0.004882	NaN	0.000000	0.001578	0.001719	28.0826	0.113192	0.002043	55.3926	142.505	13.152	-0.016299	0.812033	-0.333829	-0.335082	0.004882	55.3926	-0.333895	-14874.3	-3.282390E-7	NaN
611	1.000000	0.823302	7.37103e+06	-46539.1	1005.82	-29768.8	0.000000	0.000000	6.823047	-0.014146	NaN	0.000000	0.001591	0.001761	28.0826	0.088807	0.001977	44.9234	140.822	-164.062	-0.050867	0.822016	-0.323813	-0.325099	-0.014146	44.9234	-0.323577	-10501.2	1.347052E-6	NaN
611	1.000000	0.833315	7.37103e+06	-46539.1	1005.82	-29768.8	0.000000	0.000000	6.833062	0.015200	NaN	0.000000	0.001562	0.001722	28.0826	0.032354	0.002024	15.9845	43.67	16.9658	0.000848	0.831963	-0.313800	-0.315152	0.015200	15.9845	-0.314513	-7722.5	-1.968319E-6	NaN
611	1.000000	0.843350	7.37103e+06	-46539.1	1005.82	-29768.8	0.000000	0.000000	6.843097	0.018576	NaN	0.000000	0.001580	0.001715	28.0824	0.045406	0.002035	22.3122	52.1776	-162.55	0.012748	0.842013	-0.303765	-0.305102	0.018576	22.3122	-0.304389	-5468.71	-3.396696E-6	NaN
611	1.000000	0.853326	7.37103e+06	-46539.1	1005.82	-29768.8	0.000000	0.000000	6.853072	0.006031	NaN	0.000000	0.001572	0.001671	28.0828	0.070877	0.001902	37.2728	136.746	16.8438	0.015056	0.851975	-0.293789	-0.295140	0.006031	37.2728	-0.293910	-3817.75	-1.579698E-6	NaN
611	1.000000	0.863304	7.37103e+06	-46539.1	1005.82	-29768.8	0.000000	0.000000	6.863049	-0.024671	NaN	0.000000	0.001610	0.001708	28.0825	0.069111	0.001992	34.6868	-140.526	-166.179	-0.006172	0.862001	-0.283811	-0.285114	-0.024671	34.6868	-0.283277	-2644.58	9.328888E-6	NaN
611	1.000000	0.873312	7.37103e+06	-46539.1	1005.82	-29768.8	0.000000	0.000000	6.873058	-0.002780	NaN	0.000000	0.001587	0.001650	28.0826	0.049395	0.002014	24.5299	-93.4515	17.4121	0.033299	0.871996	-0.273803	-0.275119	-0.002780	24.5299	-0.273718	-1896.61	1.465767E-6	NaN
611	1.000000	0.883360	7.37103e+06	-46539.1	1005.82	-29768.8	0.000000	0.000000	6.883106	0.001834	NaN	0.000000	0.001612	0.001681	28.0828	0.061311	0.001925	31.854	-51.2842	-166.907	0.048252	0.882051	-0.263755	-0.265064	0.001834	31.854	-0.263798	-1339.77	-1.368973E-6	NaN
611	1.000000	0.893350	7.37103e+06	-46539.1	1005.82	-29768.8	0.000000	0.000000	6.893093	-0.056186	NaN	0.000000	0.001602	0.001702	28.0826	0.144709	0.001966	73.614	-110.343	17.2197	-0.138286	0.892021	-0.253765	-0.255094	-0.056186	73.614	-0.253193	-921.03	6.100378E-5	NaN
611	1.000000	0.903361	7.37103e+06	-46539.1	1005.82	-29768.8	0.000000	0.000000	6.903106	-0.012522	NaN	0.000000	0.001629	0.001679	28.0827	0.110473	0.002016	54.7957	128.886	-165.566	-0.024981	0.902056	-0.243754	-0.245059	-0.012522	54.7957	-0.243583	-653.749	1.915489E-5	NaN
611	1.000000	0.913359	7.37103e+06	-46539.1	1005.82	-29768.8	0.000000	0.000000	6.913104	-0.004339	NaN	0.000000	0.001587	0.001716	28.0825	0.037886	0.001995	18.9889	24.6689	14.7361	0.020507	0.912019	-0.233756	-0.235096	-0.004339	18.9889	-0.233585	-456.048	9.515275E-6	NaN
611	1.000000	0.923373	7.37103e+06	-46539.1	1005.82	-29768.8	0.000000	0.000000	6.923119	0.004758	NaN	0.000000	0.001615	0.001725	28.0817	0.119589	0.001799	66.4617	26.7042	-160.388	0.072404	0.922049	-0.223742	-0.225066	0.004758	66.4617	-0.223796	-319.297	-1.490132E-5	NaN
611	1.000000	0.933356	7.37103e+06	-46539.1	1005.82	-29768.8	0.000000	0.000000	6.933103	0.038405	NaN	0.000000	0.001615	0.001675	28.0813	0.075482	0.001936	38.9902	62.7914	15.2657	-0.014884	0.931988	-0.213759	-0.215127	0.038405	38.9902	-0.214498	-226.691	-0.000169	NaN
611	1.000000	0.943371	7.37103e+06	-46539.1	1005.82	-29768.8	0.000000	0.000000	6.943114	-0.064949	NaN	0.000000	0.001624	0.001691	28.0816	0.138994	0.001992	69.7821	42.3932	-164.951	-0.011579	0.942022	-0.203744	-0.205093	-0.064949	69.7821	-0.203046	-147.79	0.000439	NaN
611	1.000000	0.953384	7.37103e+06	-46539.1	1005.82	-29768.8	0.000000	0.000000	6.953130	-0.000524	NaN	0.000000	0.001630	0.001703	28.0815	0.118689	0.002125	55.8665	-133.954	16.7334	0.003191	0.952087	-0.193731	-0.195028	-0.000524	55.8665	-0.193724	-103.762	5.045975E-6	NaN
611	1.000000	0.963401	7.37103e+06	-46539.1	1005.82	-29768.8	0.000000	0.000000	6.963144	-0.063712	NaN	0.000000	0.001599	0.001707	28.0818	0.065185	0.002032	32.0829	63.1231	-167.805	-0.050935	0.962102	-0.183714	-0.185013	-0.063712	32.0829	-0.182225	-66.5639	0.000957	NaN
611	1.000000	0.973384	7.37103e+06	-46539.1	1005.82	-29768.8	0.000000	0.000000	6.973130	0.008208	NaN	0.000000	0.001639	0.001669	28.0815	0.165779	0.002040	81.2744	120.023	13.3837	-0.025473	0.972007	-0.173731	-0.175108	0.008208	81.2744	-0.173807	-47.803	-0.000172	NaN
611	1.000000	0.983424	7.37103e+06	-46539.1	1005.82	-29768.8	0.000000	0.000000	6.983170	-0.016326	NaN	0.000000	0.001653	0.001698	28.0815	0.046437	0.001958	23.7185	8.792654	-168.052	0.003292	0.982073	-0.163691	-0.165042	-0.016326	23.7185	-0.163174	-31.2017	0.000523	NaN
611	1.000000	0.993383	7.37103e+06	-46539.1	1005.82	-29768.8	0.000000	0.000000	6.993127	-0.041411	NaN	0.000000	0.001590	0.001678	28.0816	0.031041	0.002077	14.9478	-171.899	10.2444	0.052306	0.992048	-0.153732	-0.155067	-0.041411	14.9478	-0.151654	-19.4135	0.002133	NaN
611	1.000000	1.003420	7.37103e+06	-46539.1	1005.82	-29768.8	0.000000	0.000000	7.003168	0.045393	NaN	0.000000	0.001556	0.001722	28.0815	0.003337	0.001989	1.677875	-36.0159	-167.241	0.014435	1.002115	-0.143695	-0.145000	0.045393	1.677875	-0.163986	-32.2455	-0.001408	NaN
611	1.000000	1.013403	7.37103e+06	-46539.1	1005.82	-29768.8	0.000000	0.000000	7.013148	-0.029366	NaN	0.000000	0.001599	0.001727	28.0814	0.107952	0.001974	54.6979	27.3137	16.1197	-0.059023	1.012051	-0.133712	-0.135064	-0.029366	54.6979	-0.133309	-8.829016	0.003326	NaN
611	1.000000	1.023398	7.37103e+06	-46539.1	1005.82	-29768.8	0.000000	0.000000	7.023145	0.015489	NaN	0.000000	0.001609	0.001714	28.0812	0.063628	0.001973	32.2577	108.847	-169.564	-0.011349	1.022111	-0.123717	-0.125004	0.015489	32.2577	-0.124077	-5.830331	-0.002657	NaN
611	1.000000	1.033408	7.37103e+06	-46539.1	1005.82	-29768.8	0.000000	0.000000	7.033154	0.001275	NaN	0.000000	0.001625	0.001678	28.0817	0.110006	0.002063	53.3333	170.901	16.8948	0.036461	1.032049	-0.113707	-0.115066	0.001275	53.3333	-0.113725	-3.595402	-0.000355	NaN
611	1.000000	1.043406	7.37103e+06	-46539.1	1005.82	-29768.8	0.000000	0.000000	7.043153	0.008065	NaN	0.000000	0.001609	0.001704	28.0813	0.031989	0.002065	15.4892	-100.796	-167.478	0.006127	1.042153	-0.103709	-0.104962	0.008065	15.4892	-0.104099	-2.247356	-0.003589	NaN
611	1.000000	1.053424	7.37103e+06	-46539.1	1005.82	-29768.8	0.000000	0.000000	7.053169	-0.028948	NaN	0.000000	0.001614	0.001692	28.0812	0.158901	0.002001	79.4235	86.2389	15.2671	-0.066356	1.052012	-0.093691	-0.095103	-0.028948	79.4235	-0.093418	-1.297772	0.022306	NaN
611	1.000000	1.063377	7.37103e+06	-46539.1	1005.82	-29768.8	0.000000	0.000000	7.063121	-0.047983	NaN	0.000000	0.001600	0.001725	28.0826	0.005039	0.002079	2.423536	104.839	-166.886	-0.071084	1.062065	-0.083738	-0.085050	-0.047983	2.423536	-0.068889	-0.318429	0.150688	NaN
611	1.000000	1.073410	7.37103e+06	-46539.1	1005.82	-29768.8	0.000000	0.000000	7.073156	0.011417	NaN	0.000000	0.001633	0.001715	28.0824	0.098186	0.001932	50.8272	34.9066	15.3758	0.027464	1.072104	-0.073705	-0.075011	0.011417	50.8272	-0.073874	-0.431781	-0.026441	NaN
611	1.000000	1.083432	7.37103e+06	-46539.1	1005.82	-29768.8	0.000000	0.000000	7.083177	-0.005862	NaN	0.000000	0.001589	0.001712	28.0825	0.063467	0.001953	32.4974	6.633087	-167.255	-0.015458	1.082102	-0.063683	-0.065013	-0.005862	32.4974	-0.063548	-0.227036	0.025821	NaN
611	1.000000	1.093433	7.37103e+06	-46539.1	1005.82	-29768.8	0.000000	0.000000	7.093177	-0.049127	NaN	0.000000	0.001589	0.001695	28.0824	0.045424	0.002138	21.2436	-6.572918	13.6611	0.056083	1.092051	-0.053682	-0.055064	-0.049127	21.2436	-0.051947	-0.104450	0.470336	NaN
611	1.000000	1.103437	7.37103e+06	-46539.1	1005.82	-29768.8	0.000000	0.000000	7.103183	0.003565	NaN	0.000000	0.001607	0.001733	28.0826	0.052158	0.001969	26.4963	54.6681	-167.686	0.050839	1.102135	-0.043678	-0.044980	0.003565	26.4963	-0.043779	-0.058973	-0.060445	NaN
611	1.000000	1.113421	7.37103e+06	-46539.1	1005.82	-29768.8	0.000000	0.000000	7.113165	-0.027385	NaN	0.000000	0.001620	0.001707	28.0823	0.032229	0.002050	15.7229	-48.6317	16.0946	0.021318	1.112052	-0.033694	-0.035063	-0.027385	15.7229	-0.032388	-0.026886	1.018573	NaN
611	1.000000	1.123444	7.37103e+06	-46539.1	1005.82	-29768.8	0.000000	0.000000	7.123190	0.003573	NaN	0.000000	0.001597	0.001691	28.0825	0.058193	0.001917	30.3512	140.942	-165.896	-0.047548	1.122166	-0.023671	-0.024949	0.003573	30.3512	-0.023759	-0.015665	-0.228102	NaN
611	1.000000	1.133422	7.37103e+06	-46539.1	1005.82	-29768.8	0.000000	0.000000	7.133167	-0.013371	NaN	0.000000	0.001593	0.001707	28.0825	0.042826	0.001965	21.7967	-102.306	14.6824	0.072285	1.132077	-0.013693	-0.015038	-0.013371	21.7967	-0.013233	-0.008237	1.623366	NaN
611	1.000000	1.143461	7.37103e+06	-46539.1	1005.82	-29768.8	0.000000	0.000000	7.143204	-0.069820	NaN	0.000000	0.001579	0.001712	28.0826	0.081286	0.001847	44.0026	-164.423	-164.95	-0.078522	1.142120	-0.003654	-0.004995	-0.069820	44.0026	-0.002464	-0.001758	39.7078	NaN
611	1.000000	1.153430	7.37103e+06	-46539.1	1005.82	-29768.8	0.000000	0.000000	7.153251	1.803903	NaN	0.000000	0.001582	0.001716	28.0825	2.576285	0.001861	1384.03	17.0918	7.781375	0.806391	1.152028	0.006316	0.004913	1.803903	1384.03	0.005338	0.004444	405.925	18968.6
611	2.000000	1.161128	7.37103e+06	-46539.1	1005.82	-29768.8	0.000000	0.000000	7.161185	7.574881	NaN	0.000000	0.001581	0.001700	28.0824	8.986141	0.001807	4972.18	9.965227	-174.92	7.375877	1.160874	0.014013	0.013759	7.574881	4972.18	0.012870	0.012550	603.598	40551.4
611	2.000000	1.163621	7.37103e+06	-46539.1	1005.82	-29768.8	0.000000	0.000000	7.163794	10.393	NaN	0.000000	0.001540	0.001709	28.0827	10.857	0.001698	6393	6.185486	9.022005	10.2414	1.163278	0.016506	0.016163	10.393	6393	0.015287	0.015670	663.252	46660.3
611	2.000000	1.166081	7.37103e+06	-46539.1	1005.82	-29768.8	0.000000	0.000000	7.166447	15.0752	NaN	0.000000	0.001582	0.001659	28.0824	13.812	0.001697	8140.24	7.891746	-176.178	15.2914	1.165752	0.018966	0.018637	15.0752	8140.24	0.017577	0.018877	798.607	54130.9
611	2.000000	1.168531	7.37103e+06	-46539.1	1005.82	-29768.8	0.000000	0.000000	7.169069	19.2697	NaN	0.000000	0.001593	0.001697	28.0819	16.1331	0.001720	9377.58	5.012839	3.967836	18.219	1.168200	0.021416	0.021085	19.2697	9377.58	0.019875	0.022346	862.316	57313.9
611	2.000000	1.171065	7.37103e+06	-46539.1	1005.82	-29768.8	0.000000	0.000000	7.171695	21.5008	NaN	0.000000	0.001632	0.001693	28.0814	18.9458	0.001733	10933.7	5.168040	-176.36	22.0038	1.170748	0.023950	0.023633	21.5008	10933.7	0.022475	0.026582	808.85	61270.1
611	2.000000	1.173505	7.37103e+06	-46539.1	1005.82	-29768.8	0.000000	0.000000	7.174525	31.0016	NaN	0.000000	0.001658	0.001694	28.0814	20.7602	0.001704	12184.8	2.538149	5.421128	29.5151	1.173068	0.026390	0.025953	31.0016	12184.8	0.024481	0.030079	1030.67	64188.9
611	2.000000	1.175977	7.37103e+06	-46539.1	1005.82	-29768.8	0.000000	0.000000	7.177236	36.7956	NaN	0.000000	0.001669	0.001699	28.0813	23.9948	0.001796	13358.4	6.796354	179.237	36.1705	1.175642	0.028862	0.028527	36.7956	13358.4	0.026796	0.034365	1070.73	65836.8
611	2.000000	1.178482	7.37103e+06	-46539.1	1005.82	-29768.8	0.000000	0.000000	7.180046	44.2433	NaN	0.000000	0.001684	0.001701	28.0813	26.1653	0.001635	15999.2	3.611765	0.793212	43.499	1.178180	0.031367	0.031065	44.2433	15999.2	0.029293	0.039290	1126.06	73744.3
611	2.000000	1.181013	7.37103e+06	-46539.1	1005.82	-29768.8	0.000000	0.000000	7.182697	47.151	NaN	0.000000	0.001694	0.001700	28.0814	30.7807	0.001895	16242.3	9.115227	176.183	47.3031	1.180754	0.033898	0.033639	47.151	16242.3	0.031721	0.044385	1062.31	70436.8
611	2.000000	1.183462	7.37103e+06	-46539.1	1005.82	-29768.8	0.000000	0.000000	7.185557	57.1574	NaN	0.000000	0.001741	0.001724	28.0814	32.1509	0.001718	18717.9	3.858057	-0.802496	53.6495	1.183168	0.036347	0.036053	57.1574	18717.9	0.034056	0.049572	1153.02	76809
611	2.000000	1.185985	7.37103e+06	-46539.1	1005.82	-29768.8	0.000000	0.000000	7.188510	67.6213	NaN	0.000000	0.001710	0.001697	28.0813	34.7011	0.001734	20015.2	3.966523	178.714	66.8335	1.185727	0.038870	0.038612	67.6213	20015.2	0.036336	0.054902	1231.68	78044.3
611	2.000000	1.188482	7.37103e+06	-46539.1	1005.82	-29768.8	0.000000	0.000000	7.191408	77.3634	NaN	0.000000	0.001676	0.001702	28.0815	38.0735	0.001874	20317.9	7.205656	-4.569752	76.617	1.188212	0.041367	0.041097	77.3634	20317.9	0.038511	0.060237	1284.33	75634.6
611	2.000000	1.190975	7.37103e+06	-46539.1	1005.82	-29768.8	0.000000	0.000000	7.194448	90.6515	NaN	0.000000	0.001670	0.001727	28.0813	39.9108	0.001890	21122.3	3.937600	179.192	90.7663	1.190634	0.043860	0.043519	90.6515	21122.3	0.040641	0.065696	1379.86	75291.1
611	2.000000	1.193480	7.37103e+06	-46539.1	1005.82	-29768.8	0.000000	0.000000	7.197394	101.38	NaN	0.000000	0.001680	0.001718	28.0812	41.3516	0.001742	23734.2	6.296467	-3.530364	100.112	1.193032	0.046365	0.045917	101.38	23734.2	0.043161	0.072453	1399.25	80559.8
611	2.000000	1.195949	7.37103e+06	-46539.1	1005.82	-29768.8	0.000000	0.000000	7.200413	114.748	NaN	0.000000	0.001670	0.001727	28.0812	42.7464	0.001729	24717.9	3.688271	178.031	112.731	1.195597	0.048834	0.048482	114.748	24717.9	0.045353	0.078592	1460.06	80555.9
611	2.000000	1.198442	7.37103e+06	-46539.1	1005.82	-29768.8	0.000000	0.000000	7.203183	121.496	NaN	0.000000	0.001685	0.001711	28.0815	45.4484	0.001667	27266.5	2.702115	-2.387305	119.113	1.198167	0.051327	0.051052	121.496	27266.5	0.047986	0.086288	1408.02	84805.9
611	2.000000	1.200954	7.37103e+06	-46539.1	1005.82	-29768.8	0.000000	0.000000	7.206089	131.088	NaN	0.000000	0.001667	0.001730	28.0814	49.823	0.001777	28034.9	5.647025	174.572	129.922	1.200652	0.053839	0.053537	131.088	28034.9	0.050332	0.093442	1402.87	83791.5
611	2.000000	1.203498	7.37103e+06	-46539.1	1005.82	-29768.8	0.000000	0.000000	7.209355	148.641	NaN	0.000000	0.001664	0.001709	28.0826	50.7699	0.001885	26930.5	5.922865	-4.121707	148.025	1.203114	0.056383	0.055999	148.641	26930.5	0.052244	0.099474	1494.27	78012.2
611	2.000000	1.206001	7.37103e+06	-46539.1	1005.82	-29768.8	0.000000	0.000000	7.212144	155.608	NaN	0.000000	0.001632	0.001737	28.0825	53.9195	0.001792	30081.3	4.355242	175.047	156.401	1.205645	0.058886	0.058530	155.608	30081.3	0.055006	0.108513	1434	83431.3
611	2.000000	1.208478	7.37103e+06	-46539.1	1005.82	-29768.8	0.000000	0.000000	7.215195	169.578	NaN	0.000000	0.001627	0.001714	28.0825	56.2544	0.001812	31038.3	6.767959	-7.349190	167.675	1.208039	0.061363	0.060924	169.578	31038.3	0.057265	0.116184	1459.56	83195.3
611	2.000000	1.211040	7.37103e+06	-46539.1	1005.82	-29768.8	0.000000	0.000000	7.218225	180.946	NaN	0.000000	0.001612	0.001727	28.0826	58.6706	0.001785	32876.6	3.503715	174.82	183.595	1.210652	0.063925	0.063537	180.946	32876.6	0.059798	0.125083	1446.61	84929.9
611	2.000000	1.213477	7.37103e+06	-46539.1	1005.82	-29768.8	0.000000	0.000000	7.221371	198.194	NaN	0.000000	0.001639	0.001707	28.0826	60.6333	0.001736	34919.3	6.493656	-8.199418	195.748	1.213130	0.066362	0.066015	198.194	34919.3	0.062105	0.133466	1484.97	87328
611	2.000000	1.215942	7.37103e+06	-46539.1	1005.82	-29768.8	0.000000	0.000000	7.224445	213.032	NaN	0.000000	0.001667	0.001721	28.0825	62.3701	0.001839	33920.7	4.030530	174.401	211.139	1.215622	0.068827	0.068507	213.032	33920.7	0.064116	0.140982	1511.06	82538.5
611	2.000000	1.218453	7.37103e+06	-46539.1	1005.82	-29768.8	0.000000	0.000000	7.227686	230.767	NaN	0.000000	0.001648	0.001688	28.0826	65.0168	0.001780	36520.4	2.074633	-4.836721	229.251	1.218160	0.071338	0.071045	230.767	36520.4	0.066599	0.150529	1533.04	85999.9
611	2.000000	1.220929	7.37103e+06	-46539.1	1005.82	-29768.8	0.000000	0.000000	7.230770	245.565	NaN	0.000000	0.001629	0.001735	28.0829	68.6084	0.001785	38438.1	0.208896	177.121	244.687	1.220635	0.073814	0.073520	245.565	38438.1	0.069022	0.160133	1533.51	87759.7
611	2.000000	1.223453	7.37103e+06	-46539.1	1005.82	-29768.8	0.000000	0.000000	7.233945	261.411	NaN	0.000000	0.001660	0.001726	28.0827	69.6031	0.001804	38586.8	2.798788	-5.039195	259.891	1.223214	0.076338	0.076099	261.411	38586.8	0.071257	0.169238	1544.63	85696.5
611	2.000000	1.225888	7.37103e+06	-46539.1	1005.82	-29768.8	0.000000	0.000000	7.237086	278.58	NaN	0.000000	0.001657	0.001727	28.0827	71.9873	0.001738	41427.9	6.404364	170.299	273.897	1.225543	0.078773	0.078428	278.58	41427.9	0.073729	0.179589	1551.21	89315.4
611	2.000000	1.228381	7.37103e+06	-46539.1	1005.82	-29768.8	0.000000	0.000000	7.240127	291.905	NaN	0.000000	0.001646	0.001706	28.0829	75.4249	0.001715	43968.9	6.886720	-11.163	287.597	1.228134	0.081266	0.081019	291.905	43968.9	0.076287	0.190598	1531.52	92015.1
611	2.000000	1.230995	7.37103e+06	-46539.1	1005.82	-29768.8	0.000000	0.000000	7.243459	309.358	NaN	0.000000	0.001627	0.001680	28.0827	77.5736	0.001822	42566.8	2.982509	173.735	312.075	1.230690	0.083880	0.083575	309.358	42566.8	0.078429	0.200058	1546.34	86949.3
611	2.000000	1.233395	7.37103e+06	-46539.1	1005.82	-29768.8	0.000000	0.000000	7.246899	334.659	NaN	0.000000	0.001652	0.001724	28.0827	79.9081	0.001814	44062.4	5.057373	-8.484108	330.266	1.232995	0.086280	0.085880	334.659	44062.4	0.080584	0.209786	1595.23	87892.7
611	2.000000	1.235898	7.37103e+06	-46539.1	1005.82	-29768.8	0.000000	0.000000	7.250048	350.381	NaN	0.000000	0.001683	0.001702	28.0827	82.6187	0.001872	44125	6.059593	170.272	346.042	1.235502	0.088783	0.088387	350.381	44125	0.082827	0.220146	1591.58	85921.6
611	2.000000	1.238446	7.37103e+06	-46539.1	1005.82	-29768.8	0.000000	0.000000	7.253244	366.128	NaN	0.000000	0.001681	0.001715	28.0817	84.2232	0.001743	48317.9	3.774842	-7.906095	363.986	1.238041	0.091331	0.090926	366.128	48317.9	0.085648	0.233503	1567.98	91355.5
611	2.000000	1.240868	7.37103e+06	-46539.1	1005.82	-29768.8	0.000000	0.000000	7.256524	387.027	NaN	0.000000	0.001695	0.001737	28.0814	87.9153	0.001840	47774.3	3.356877	172.162	383.522	1.240532	0.093753	0.093417	387.027	47774.3	0.087677	0.243336	1590.5	88483.9
611	2.000000	1.243381	7.37103e+06	-46539.1	1005.82	-29768.8	0.000000	0.000000	7.259805	405.692	NaN	0.000000	0.001624	0.001727	28.0814	89.3904	0.001915	46671	3.575086	-7.500532	402.407	1.243132	0.096266	0.096017	405.692	46671	0.089747	0.253564	1599.96	84679.3
611	2.000000	1.245971	7.37103e+06	-46539.1	1005.82	-29768.8	0.000000	0.000000	7.262572	410.006	NaN	0.000000	0.001621	0.001738	28.0814	91.4062	0.001826	50063.6	5.469538	169.512	410.391	1.245799	0.098856	0.098684	410.006	50063.6	0.092714	0.268568	1526.64	88260.8
611	2.000000	1.248330	7.37103e+06	-46539.1	1005.82	-29768.8	0.000000	0.000000	7.266254	442.191	NaN	0.000000	0.001599	0.001771	28.0818	92.6549	0.001729	53589.9	4.593760	-9.599473	436.609	1.248006	0.101215	0.100891	442.191	53589.9	0.095026	0.280541	1576.21	92439.6
611	2.000000	1.250946	7.37103e+06	-46539.1	1005.82	-29768.8	0.000000	0.000000	7.269549	458.697	NaN	0.000000	0.001613	0.001764	28.0815	95.9138	0.001785	53722.4	4.855456	170.16	460.872	1.250642	0.103831	0.103527	458.697	53722.4	0.097427	0.293231	1564.29	90640.7
611	2.000000	1.253416	7.37103e+06	-46539.1	1005.82	-29768.8	0.000000	0.000000	7.272843	478.76	NaN	0.000000	0.001632	0.001731	28.0815	97.0036	0.001836	52821.2	4.721081	-9.913564	475.342	1.253087	0.106301	0.105972	478.76	52821.2	0.099503	0.304412	1572.74	87468.4
611	2.000000	1.255843	7.37104e+06	-46539.1	1005.82	-29768.8	0.000000	0.000000	7.276251	502.592	NaN	0.000000	0.001642	0.001750	28.0816	99.7816	0.001777	56144.7	6.426011	168.102	499.702	1.255614	0.108728	0.108499	502.592	56144.7	0.102015	0.318204	1579.46	90934.5
611	2.000000	1.258379	7.37104e+06	-46539.1	1005.82	-29768.8	0.000000	0.000000	7.279684	524.424	NaN	0.000000	0.001617	0.001720	28.0815	102.616	0.001790	57332.4	5.596330	-10.9035	521.335	1.258014	0.111264	0.110899	524.424	57332.4	0.104404	0.331591	1581.54	90964.5
611	2.000000	1.258857	7.37104e+06	-46539.1	1005.82	-29768.8	0.000000	0.000000	7.280339	528.728	NaN	0.000000	0.001629	0.001724	28.0816	103.215	0.001866	55308.5	5.611917	169.292	526.372	1.258603	0.111742	0.111488	528.728	55308.5	0.104573	0.332546	1589.94	87627.3