File: remote_trans/data/nanoindenter/0828-1/data/Data_2025-08-06,11h17m57s/2025-07-22_16-23-58_1_127.txt
2025-07-22, 16:23:58, 1
Index	Phase	Displacement	Time	Pos X	Pos Y	Pos Z	Rot A	Rot B	Piezo Z	Force A	Force B	Gripper	Voltage A	Voltage B	Temperature	Amplitude force	Amplitude pos	Stiffness	Phase shift	Phase excitation	Force A raw	Displacement raw	HMax	HMax raw	Real Force	Real Stiffness	Contact Depth	Area	Hardness	Reduced Mod.
[#]	[#]	[um]	[s]	[um]	[um]	[um]	[m°]	[m°]	[um]	[uN]	[uN]	[V]	[V]	[V]	[°C]	[uN]	[um]	[N/m]	[°]	[°]	[uN]	[um]	[um]	[um]	[uN]	[N/m]	[um]	[um^2]	[MPa]	[MPa]
127	1.000000	0.003293	7.36628e+06	-44989.1	955.818	-29774.4	0.000000	0.000000	6.002804	-0.016066	NaN	0.000000	0.001571	0.001747	28.0958	0.079122	0.000982	80.5565	-45.8034	-167.363	0.037614	0.002087	-1.148154	-1.149360	-0.016066	80.5565	-1.148004	-2.208323E+15	7.275151E-18	NaN
127	1.000000	0.013342	7.36628e+06	-44989.1	955.819	-29774.4	0.000000	0.000000	6.012852	-0.035101	NaN	0.000000	0.001591	0.001732	28.1297	0.051992	0.001274	40.8177	33.6246	22.9575	-0.104507	0.011910	-1.138105	-1.139537	-0.035101	40.8177	-1.137460	-1.594703E+15	2.201081E-17	NaN
127	1.000000	0.023246	7.36628e+06	-44989.1	955.818	-29774.4	0.000000	0.000000	6.022763	0.125308	NaN	0.000000	0.001545	0.001726	28.0986	0.028911	0.001724	16.7672	-37.7309	-164.899	0.024422	0.021895	-1.128201	-1.129552	0.125308	16.7672	-1.133806	-1.424524E+15	-8.796451E-17	NaN
127	1.000000	0.033226	7.36628e+06	-44989.1	955.817	-29774.4	0.000000	0.000000	6.032737	-0.012195	NaN	0.000000	0.001564	0.001741	28.0793	0.104740	0.001923	54.454	117.376	12.4387	-0.017904	0.031871	-1.118221	-1.119576	-0.012195	54.454	-1.118054	-8.757013E+14	1.392566E-17	NaN
127	1.000000	0.043226	7.36628e+06	-44989.1	955.819	-29774.4	0.000000	0.000000	6.042738	0.016931	NaN	0.000000	0.001581	0.001744	28.0955	0.094515	0.001964	48.1226	145.451	-168.256	0.020261	0.041937	-1.108221	-1.109510	0.016931	48.1226	-1.108485	-6.515658E+14	-2.598491E-17	NaN
127	1.000000	0.053236	7.36628e+06	-44989.1	955.818	-29774.4	0.000000	0.000000	6.052747	-0.021044	NaN	0.000000	0.001575	0.001775	28.1303	0.140886	0.001905	73.9634	-81.351	11.7509	0.030317	0.051883	-1.098211	-1.099564	-0.021044	73.9634	-1.097997	-4.711764E+14	4.466221E-17	NaN
127	1.000000	0.063256	7.36628e+06	-44989.1	955.818	-29774.4	0.000000	0.000000	6.062768	0.003857	NaN	0.000000	0.001556	0.001756	28.0968	0.081024	0.001915	42.3121	-89.6819	-168.842	-0.022399	0.061916	-1.088191	-1.089531	0.003857	42.3121	-1.088260	-3.486936E+14	-1.106022E-17	NaN
127	1.000000	0.073251	7.36628e+06	-44989.1	955.818	-29774.4	0.000000	0.000000	6.072762	-0.001430	NaN	0.000000	0.001575	0.001798	28.0785	0.037274	0.001911	19.5024	-59.9657	14.0801	-0.043772	0.071861	-1.078196	-1.079586	-0.001430	19.5024	-1.078141	-2.550087E+14	5.606347E-18	NaN
127	1.000000	0.083262	7.36628e+06	-44989.1	955.819	-29774.4	0.000000	0.000000	6.082773	-0.024236	NaN	0.000000	0.001559	0.001784	28.0941	0.026714	0.001907	14.005	87.8595	-165.108	0.021019	0.081912	-1.068185	-1.069535	-0.024236	14.005	-1.066887	-1.800366E+14	1.346182E-16	NaN
127	1.000000	0.093255	7.36628e+06	-44989.1	955.819	-29774.4	0.000000	0.000000	6.092768	0.019314	NaN	0.000000	0.001554	0.001774	28.1296	0.135315	0.002036	66.4514	16.95	11.6525	0.005251	0.091875	-1.058192	-1.059572	0.019314	66.4514	-1.058410	-1.385002E+14	-1.394536E-16	NaN
127	1.000000	0.103277	7.36628e+06	-44989.1	955.818	-29774.4	0.000000	0.000000	6.102790	0.027447	NaN	0.000000	0.001529	0.001805	28.0978	0.020948	0.002027	10.3331	150.104	-166.038	0.141284	0.101937	-1.048170	-1.049510	0.027447	10.3331	-1.050162	-1.072973E+14	-2.558020E-16	NaN
127	1.000000	0.113255	7.36628e+06	-44989.1	955.818	-29774.4	0.000000	0.000000	6.112764	-0.061624	NaN	0.000000	0.001624	0.001789	28.0789	0.088012	0.002013	43.7163	-20.7556	13.5127	-0.074007	0.111855	-1.038192	-1.039592	-0.061624	43.7163	-1.037135	-7.168661E+13	8.596349E-16	NaN
127	1.000000	0.123249	7.36628e+06	-44989.1	955.818	-29774.4	0.000000	0.000000	6.122760	-0.018624	NaN	0.000000	0.001577	0.001758	28.0961	0.068540	0.001966	34.8616	108.756	-163.388	0.037509	0.121960	-1.028198	-1.029487	-0.018624	34.8616	-1.027797	-5.368509E+13	3.469129E-16	NaN
127	1.000000	0.133255	7.36628e+06	-44989.1	955.818	-29774.4	0.000000	0.000000	6.132767	0.016805	NaN	0.000000	0.001520	0.001784	28.1316	0.056395	0.001921	29.3537	124.012	11.3489	-0.065916	0.131862	-1.018192	-1.019585	0.016805	29.3537	-1.018622	-4.040249E+13	-4.159506E-16	NaN
127	1.000000	0.143285	7.36628e+06	-44989.1	955.818	-29774.4	0.000000	0.000000	6.142800	0.070758	NaN	0.000000	0.001539	0.001741	28.0984	0.104649	0.002032	51.4965	91.0048	-166.155	0.086865	0.141966	-1.008162	-1.009481	0.070758	51.4965	-1.009192	-3.016567E+13	-2.345656E-15	NaN
127	1.000000	0.153283	7.36628e+06	-44989.1	955.818	-29774.4	0.000000	0.000000	6.152795	0.014823	NaN	0.000000	0.001583	0.001775	28.0782	0.047326	0.002046	23.134	-129.181	11.6444	0.056321	0.151898	-0.998164	-0.999549	0.014823	23.134	-0.998645	-2.175317E+13	-6.814138E-16	NaN
127	1.000000	0.163285	7.36628e+06	-44989.1	955.818	-29774.4	0.000000	0.000000	6.162797	0.025065	NaN	0.000000	0.001579	0.001761	28.0953	0.044682	0.001944	22.9804	166.139	-169.323	0.077491	0.162007	-0.988162	-0.989440	0.025065	22.9804	-0.988980	-1.612057E+13	-1.554840E-15	NaN
127	1.000000	0.173320	7.36628e+06	-44989.1	955.818	-29774.4	0.000000	0.000000	6.172831	0.001629	NaN	0.000000	0.001548	0.001767	28.1307	0.049312	0.001887	26.1279	128.004	12.7875	0.082923	0.171923	-0.978127	-0.979524	0.001629	26.1279	-0.978174	-1.152954E+13	-1.413196E-16	NaN
127	1.000000	0.183297	7.36628e+06	-44989.1	955.818	-29774.4	0.000000	0.000000	6.182809	0.000154	NaN	0.000000	0.001575	0.001741	28.0995	0.052550	0.002058	25.5369	-88.3076	-164.8	0.056977	0.182013	-0.968150	-0.969434	0.000154	25.5369	-0.968154	-8.448703E+12	-1.827928E-17	NaN
127	1.000000	0.193255	7.36628e+06	-44989.1	955.818	-29774.4	0.000000	0.000000	6.192766	-0.004457	NaN	0.000000	0.001549	0.001700	28.0799	0.055982	0.001982	28.2477	-178.994	15.8151	0.000759	0.191962	-0.958192	-0.959485	-0.004457	28.2477	-0.958074	-6.178731E+12	7.213993E-16	NaN
127	1.000000	0.203282	7.36628e+06	-44989.1	955.819	-29774.4	0.000000	0.000000	6.202793	0.003128	NaN	0.000000	0.001571	0.001712	28.0957	0.045136	0.002030	22.2352	65.5052	-168.106	0.087021	0.202013	-0.948165	-0.949434	0.003128	22.2352	-0.948271	-4.557312E+12	-6.864325E-16	NaN
127	1.000000	0.213297	7.36628e+06	-44989.1	955.819	-29774.4	0.000000	0.000000	6.212808	-0.022839	NaN	0.000000	0.001543	0.001742	28.1318	0.020815	0.001960	10.6204	131.317	15.291	-0.011527	0.211962	-0.938150	-0.939485	-0.022839	10.6204	-0.936537	-3.165291E+12	7.215330E-15	NaN
127	1.000000	0.223292	7.36628e+06	-44989.1	955.818	-29774.4	0.000000	0.000000	6.222803	-0.017934	NaN	0.000000	0.001645	0.001730	28.0979	0.066146	0.002098	31.5256	103.539	-164.172	0.082551	0.221994	-0.928155	-0.929453	-0.017934	31.5256	-0.927728	-2.407334E+12	7.449597E-15	NaN
127	1.000000	0.233351	7.36628e+06	-44989.1	955.818	-29774.4	0.000000	0.000000	6.232864	0.026962	NaN	0.000000	0.001672	0.001742	28.0804	0.073958	0.001944	38.0528	124.167	12.7781	0.057218	0.231965	-0.918096	-0.919482	0.026962	38.0528	-0.918627	-1.814123E+12	-1.486211E-14	NaN
127	1.000000	0.243334	7.36628e+06	-44989.1	955.819	-29774.4	0.000000	0.000000	6.242848	0.047488	NaN	0.000000	0.001651	0.001741	28.0951	0.041352	0.001957	21.1319	168.668	-169.172	0.071121	0.242007	-0.908113	-0.909440	0.047488	21.1319	-0.909798	-1.378604E+12	-3.444666E-14	NaN
127	1.000000	0.253287	7.36628e+06	-44989.1	955.818	-29774.4	0.000000	0.000000	6.252800	0.017232	NaN	0.000000	0.001644	0.001767	28.1313	0.139597	0.002037	68.5167	179.666	13.7121	-0.023571	0.251961	-0.898160	-0.899486	0.017232	68.5167	-0.898348	-9.654849E+11	-1.784775E-14	NaN
127	1.000000	0.263319	7.36628e+06	-44989.1	955.818	-29774.4	0.000000	0.000000	6.262832	0.024429	NaN	0.000000	0.001639	0.001767	28.0997	0.109010	0.002047	53.2501	126.898	-163.379	-0.054369	0.261983	-0.888128	-0.889464	0.024429	53.2501	-0.888472	-7.099991E+11	-3.440648E-14	NaN
127	1.000000	0.273327	7.36628e+06	-44989.1	955.818	-29774.4	0.000000	0.000000	6.272840	0.016120	NaN	0.000000	0.001683	0.001769	28.0812	0.123440	0.001910	64.6381	-163.758	13.5628	-0.077588	0.271991	-0.878120	-0.879456	0.016120	64.6381	-0.878307	-5.173765E+11	-3.115688E-14	NaN
127	1.000000	0.283366	7.36628e+06	-44989.1	955.818	-29774.4	0.000000	0.000000	6.282874	-0.080017	NaN	0.000000	0.001632	0.001742	28.0943	0.045997	0.002052	22.4201	-140.155	-164.901	0.011358	0.282040	-0.868081	-0.869407	-0.080017	22.4201	-0.865405	-3.461502E+11	2.311640E-13	NaN
127	1.000000	0.293355	7.36628e+06	-44989.1	955.818	-29774.4	0.000000	0.000000	6.292866	-0.012474	NaN	0.000000	0.001595	0.001752	28.1307	0.056163	0.001997	28.1217	-179.2	12.4972	-0.011471	0.292001	-0.858092	-0.859446	-0.012474	28.1217	-0.857759	-2.727675E+11	4.573197E-14	NaN
127	1.000000	0.303345	7.36628e+06	-44989.1	955.818	-29774.4	0.000000	0.000000	6.302856	-0.007745	NaN	0.000000	0.001580	0.001720	28.0984	0.065706	0.002077	31.6338	20.1832	-165.628	0.032783	0.302073	-0.848102	-0.849374	-0.007745	31.6338	-0.847919	-2.007029E+11	3.858888E-14	NaN
127	1.000000	0.313344	7.36628e+06	-44989.1	955.818	-29774.4	0.000000	0.000000	6.312855	0.005892	NaN	0.000000	0.001600	0.001723	28.0801	0.022634	0.002029	11.154	159.716	17.9729	-0.005723	0.311959	-0.838103	-0.839488	0.005892	11.154	-0.838500	-1.496120E+11	-3.938316E-14	NaN
127	1.000000	0.323327	7.36628e+06	-44989.1	955.818	-29774.4	0.000000	0.000000	6.322842	0.081014	NaN	0.000000	0.001592	0.001749	28.0931	0.066066	0.001993	33.1455	-134.358	-161.473	0.051944	0.322049	-0.828120	-0.829398	0.081014	33.1455	-0.829953	-1.145918E+11	-7.069827E-13	NaN
127	1.000000	0.333348	7.36628e+06	-44989.1	955.818	-29774.4	0.000000	0.000000	6.332860	0.001443	NaN	0.000000	0.001610	0.001772	28.1302	0.059929	0.002032	29.4914	-62.6732	9.484216	-0.023672	0.331968	-0.818099	-0.819479	0.001443	29.4914	-0.818136	-7.923747E+10	-1.821091E-14	NaN
127	1.000000	0.343374	7.36628e+06	-44989.1	955.818	-29774.4	0.000000	0.000000	6.342884	-0.031472	NaN	0.000000	0.001540	0.001783	28.1	0.093277	0.001972	47.2987	135.269	-162.441	-0.089910	0.342016	-0.808073	-0.809431	-0.031472	47.2987	-0.807574	-5.697181E+10	5.524121E-13	NaN
127	1.000000	0.353344	7.36628e+06	-44989.1	955.818	-29774.4	0.000000	0.000000	6.352856	0.015842	NaN	0.000000	0.001547	0.001786	28.0794	0.061026	0.001931	31.6096	57.5826	13.2551	0.095218	0.351991	-0.798103	-0.799456	0.015842	31.6096	-0.798479	-4.287628E+10	-3.694786E-13	NaN
127	1.000000	0.363358	7.36628e+06	-44989.1	955.818	-29774.4	0.000000	0.000000	6.362869	-0.034622	NaN	0.000000	0.001520	0.001734	28.0951	0.151801	0.002109	71.9658	123.077	-164.498	-0.016667	0.362065	-0.788089	-0.789382	-0.034622	71.9658	-0.787728	-3.063531E+10	1.130148E-12	NaN
127	1.000000	0.373370	7.36628e+06	-44989.1	955.818	-29774.4	0.000000	0.000000	6.372882	0.010042	NaN	0.000000	0.001533	0.001733	28.1307	0.115874	0.002039	56.8255	83.025	14.2404	-0.064202	0.372069	-0.778077	-0.779378	0.010042	56.8255	-0.778210	-2.274586E+10	-4.414703E-13	NaN
127	1.000000	0.383380	7.36628e+06	-44989.1	955.818	-29774.4	0.000000	0.000000	6.382891	-0.001000	NaN	0.000000	0.001573	0.001763	28.0999	0.081303	0.002009	40.4705	168.356	-167.507	0.039784	0.382052	-0.768067	-0.769395	-0.001000	40.4705	-0.768049	-1.654914E+10	6.045021E-14	NaN
127	1.000000	0.393364	7.36628e+06	-44989.1	955.819	-29774.4	0.000000	0.000000	6.392877	0.040459	NaN	0.000000	0.001622	0.001745	28.0792	0.028674	0.001970	14.5545	-101.274	15.4751	-0.035594	0.392041	-0.758083	-0.759406	0.040459	14.5545	-0.760168	-1.292969E+10	-3.129144E-12	NaN
127	1.000000	0.403400	7.36628e+06	-44989.1	955.819	-29774.4	0.000000	0.000000	6.402913	0.028312	NaN	0.000000	0.001637	0.001777	28.0951	0.126396	0.002068	61.1317	-43.3055	-168.223	-0.015443	0.402061	-0.748047	-0.749386	0.028312	61.1317	-0.748394	-8.940395E+9	-3.166708E-12	NaN
127	1.000000	0.413378	7.36628e+06	-44989.1	955.818	-29774.4	0.000000	0.000000	6.412889	-0.013168	NaN	0.000000	0.001655	0.001769	28.1317	0.079100	0.002115	37.3914	-63.3522	12.8628	-0.056475	0.411983	-0.738069	-0.739464	-0.013168	37.3914	-0.737805	-6.414452E+9	2.052807E-12	NaN
127	1.000000	0.423404	7.36628e+06	-44989.1	955.818	-29774.4	0.000000	0.000000	6.422917	0.024848	NaN	0.000000	0.001652	0.001738	28.1018	0.112735	0.002068	54.5018	3.757943	-165.395	-0.057460	0.422067	-0.728043	-0.729380	0.024848	54.5018	-0.728385	-4.773040E+9	-5.205839E-12	NaN
127	1.000000	0.433401	7.36628e+06	-44989.1	955.818	-29774.4	0.000000	0.000000	6.432916	0.065409	NaN	0.000000	0.001602	0.001772	28.0828	0.021907	0.002021	10.8409	-111.901	11.3844	-0.002948	0.432046	-0.718046	-0.719401	0.065409	10.8409	-0.722571	-3.976797E+9	-1.644778E-11	NaN
127	1.000000	0.443389	7.36628e+06	-44989.1	955.819	-29774.4	0.000000	0.000000	6.442902	0.042967	NaN	0.000000	0.001648	0.001750	28.0953	0.220984	0.001996	110.738	-147.666	-165.488	0.037403	0.442074	-0.708058	-0.709373	0.042967	110.738	-0.708349	-2.544014E+9	-1.688960E-11	NaN
127	1.000000	0.453396	7.36628e+06	-44989.1	955.819	-29774.4	0.000000	0.000000	6.452908	0.004925	NaN	0.000000	0.001601	0.001746	28.1314	0.007772	0.002069	3.756359	-116.585	13.3667	0.022288	0.452052	-0.698051	-0.699395	0.004925	3.756359	-0.699035	-1.898236E+9	-2.594720E-12	NaN
127	1.000000	0.463399	7.36628e+06	-44989.1	955.818	-29774.4	0.000000	0.000000	6.462911	0.005671	NaN	0.000000	0.001635	0.001776	28.1003	0.077629	0.001996	38.885	-124.017	-166.567	-0.032483	0.462067	-0.688048	-0.689380	0.005671	38.885	-0.688157	-1.348142E+9	-4.206387E-12	NaN
127	1.000000	0.473405	7.36628e+06	-44989.1	955.818	-29774.4	0.000000	0.000000	6.472919	0.061755	NaN	0.000000	0.001651	0.001778	28.0787	0.062228	0.002053	30.3033	-102.283	14.2126	0.115263	0.472080	-0.678042	-0.679367	0.061755	30.3033	-0.679571	-1.028802E+9	-6.002630E-11	NaN
127	1.000000	0.483436	7.36628e+06	-44989.1	955.819	-29774.4	0.000000	0.000000	6.482950	0.054716	NaN	0.000000	0.001618	0.001770	28.0935	0.041024	0.001973	20.7951	77.7855	-167.318	0.054968	0.482112	-0.668011	-0.669335	0.054716	20.7951	-0.669984	-7.606359E+8	-7.193471E-11	NaN
127	1.000000	0.493427	7.36628e+06	-44989.1	955.818	-29774.4	0.000000	0.000000	6.492937	-0.037180	NaN	0.000000	0.001632	0.001763	28.1301	0.070376	0.002030	34.6748	14.4055	15.9106	-0.022308	0.491989	-0.658020	-0.659458	-0.037180	34.6748	-0.657216	-5.085439E+8	7.311168E-11	NaN
127	1.000000	0.503421	7.36628e+06	-44989.1	955.818	-29774.4	0.000000	0.000000	6.502932	-0.022962	NaN	0.000000	0.001630	0.001761	28.1013	0.070346	0.002097	33.5451	55.3567	-165.317	0.027696	0.502104	-0.648026	-0.649343	-0.022962	33.5451	-0.647513	-3.743989E+8	6.133013E-11	NaN
127	1.000000	0.513431	7.36628e+06	-44989.1	955.819	-29774.4	0.000000	0.000000	6.512944	0.030039	NaN	0.000000	0.001593	0.001768	28.0805	0.050055	0.002048	24.442	103.192	12.4605	0.053700	0.512111	-0.638016	-0.639336	0.030039	24.442	-0.638938	-2.855714E+8	-1.051904E-10	NaN
127	1.000000	0.523451	7.36628e+06	-44989.1	955.818	-29774.4	0.000000	0.000000	6.522963	0.013341	NaN	0.000000	0.001631	0.001799	28.0945	0.015253	0.001861	8.195787	-109.835	-167.674	-0.068541	0.522148	-0.627996	-0.629299	0.013341	8.195787	-0.629217	-2.100252E+8	-6.352301E-11	NaN
127	1.000000	0.533431	7.36628e+06	-44989.1	955.818	-29774.4	0.000000	0.000000	6.532943	0.017587	NaN	0.000000	0.001619	0.001794	28.1301	0.090249	0.002150	41.9763	-52.8601	13.7445	-0.014456	0.532022	-0.618016	-0.619425	0.017587	41.9763	-0.618330	-1.488268E+8	-1.181737E-10	NaN
127	1.000000	0.543455	7.36628e+06	-44989.1	955.818	-29774.4	0.000000	0.000000	6.542966	-0.008133	NaN	0.000000	0.001628	0.001804	28.0994	0.021515	0.002068	10.4037	-176.033	-169.908	0.076853	0.542156	-0.607992	-0.609291	-0.008133	10.4037	-0.607406	-1.052968E+8	7.724115E-11	NaN
127	1.000000	0.553471	7.36628e+06	-44989.1	955.817	-29774.4	0.000000	0.000000	6.552981	-0.050041	NaN	0.000000	0.001624	0.001770	28.0793	0.022128	0.001879	11.7759	72.923	12.5866	-0.040125	0.552120	-0.597976	-0.599327	-0.050041	11.7759	-0.594789	-7.057822E+7	7.090078E-10	NaN
127	1.000000	0.563463	7.36628e+06	-44989.1	955.818	-29774.4	0.000000	0.000000	6.562979	0.096474	NaN	0.000000	0.001636	0.001733	28.0925	0.127763	0.001943	65.7437	-99.7296	-165.322	0.005565	0.562170	-0.587984	-0.589277	0.096474	65.7437	-0.589084	-5.888993E+7	-1.638214E-9	NaN
127	1.000000	0.573485	7.36628e+06	-44989.1	955.818	-29774.4	0.000000	0.000000	6.572995	-0.043336	NaN	0.000000	0.001663	0.001785	28.1287	0.040001	0.002050	19.5128	134.338	15.1974	-0.000188	0.572059	-0.577962	-0.579388	-0.043336	19.5128	-0.576296	-3.922764E+7	1.104737E-9	NaN
127	1.000000	0.583447	7.36628e+06	-44989.1	955.818	-29774.4	0.000000	0.000000	6.582959	0.000739	NaN	0.000000	0.001654	0.001769	28.1005	0.054317	0.002115	25.6875	-176.308	-166.566	0.005969	0.582105	-0.568000	-0.569342	0.000739	25.6875	-0.568022	-3.015057E+7	-2.449613E-11	NaN
127	1.000000	0.593478	7.36628e+06	-44989.1	955.818	-29774.4	0.000000	0.000000	6.592991	0.034977	NaN	0.000000	0.001640	0.001764	28.0795	0.077118	0.001916	40.242	-137.47	11.7164	0.053042	0.592111	-0.557969	-0.559336	0.034977	40.242	-0.558621	-2.235140E+7	-1.564851E-9	NaN
127	1.000000	0.603462	7.36628e+06	-44989.1	955.819	-29774.4	0.000000	0.000000	6.602974	0.001025	NaN	0.000000	0.001621	0.001776	28.0944	0.137004	0.001978	69.2625	62.9222	-164.694	0.015063	0.602158	-0.547985	-0.549289	0.001025	69.2625	-0.547996	-1.592935E+7	-6.433819E-11	NaN
127	1.000000	0.613473	7.36628e+06	-44989.1	955.818	-29774.4	0.000000	0.000000	6.612986	0.014996	NaN	0.000000	0.001565	0.001749	28.1302	0.033271	0.001954	17.0231	22.3353	14.6652	-0.001910	0.612137	-0.537974	-0.539310	0.014996	17.0231	-0.538634	-1.181447E+7	-1.269267E-9	NaN
127	1.000000	0.623474	7.36628e+06	-44989.1	955.819	-29774.4	0.000000	0.000000	6.622985	-0.025016	NaN	0.000000	0.001590	0.001705	28.1008	0.019890	0.001924	10.3356	-106.978	-166.679	-0.018365	0.622212	-0.527973	-0.529235	-0.025016	10.3356	-0.526158	-7.9287e+06	3.155174E-9	NaN
127	1.000000	0.633476	7.36628e+06	-44989.1	955.818	-29774.4	0.000000	0.000000	6.632988	-0.002711	NaN	0.000000	0.001595	0.001757	28.0787	0.021759	0.002156	10.0912	6.965145	12.8568	-0.039418	0.632139	-0.517971	-0.519308	-0.002711	10.0912	-0.517769	-6.06135e+06	4.472399E-10	NaN
127	1.000000	0.643520	7.36628e+06	-44989.1	955.818	-29774.4	0.000000	0.000000	6.643033	0.028152	NaN	0.000000	0.001562	0.001711	28.0922	0.021749	0.001880	11.5695	-137.432	-165.928	0.010744	0.642138	-0.507927	-0.509309	0.028152	11.5695	-0.509752	-4.68768e+06	-6.005561E-9	NaN
127	1.000000	0.653451	7.36628e+06	-44989.1	955.818	-29774.4	0.000000	0.000000	6.652962	-0.026274	NaN	0.000000	0.001554	0.001766	28.1289	0.092723	0.001811	51.1957	-134.713	12.4118	-0.053225	0.652165	-0.497996	-0.499282	-0.026274	51.1957	-0.497611	-3.17452e+06	8.276611E-9	NaN
127	1.000000	0.663494	7.36628e+06	-44989.1	955.819	-29774.4	0.000000	0.000000	6.663007	0.013727	NaN	0.000000	0.001585	0.001779	28.1016	0.054331	0.002023	26.8581	146.864	-168.013	0.059027	0.662167	-0.487953	-0.489280	0.013727	26.8581	-0.488336	-2.35579e+06	-5.826872E-9	NaN
127	1.000000	0.673484	7.36628e+06	-44989.1	955.819	-29774.4	0.000000	0.000000	6.672995	0.004202	NaN	0.000000	0.001609	0.001750	28.0797	0.067010	0.001918	34.9442	46.0545	11.657	0.075358	0.672136	-0.477963	-0.479311	0.004202	34.9442	-0.478054	-1.69152e+06	-2.484307E-9	NaN
127	1.000000	0.683539	7.36628e+06	-44989.1	955.818	-29774.4	0.000000	0.000000	6.683050	-0.008930	NaN	0.000000	0.001595	0.001781	28.0938	0.065969	0.002091	31.5525	51.1562	-164.494	-0.072194	0.682230	-0.467908	-0.469217	-0.008930	31.5525	-0.467696	-1.21083e+06	7.374882E-9	NaN
127	1.000000	0.693507	7.36628e+06	-44989.1	955.818	-29774.4	0.000000	0.000000	6.693017	-0.037299	NaN	0.000000	0.001567	0.001717	28.1308	0.072488	0.002129	34.0427	17.0798	14.385	0.024365	0.692161	-0.457940	-0.459286	-0.037299	34.0427	-0.457118	-860024	4.336940E-8	NaN
127	1.000000	0.703511	7.36628e+06	-44989.1	955.818	-29774.4	0.000000	0.000000	6.703021	-0.048716	NaN	0.000000	0.001565	0.001723	28.1013	0.074585	0.002012	37.0676	-151.631	-166.219	-0.030592	0.702236	-0.447936	-0.449211	-0.048716	37.0676	-0.446950	-618561	7.875631E-8	NaN
127	1.000000	0.713512	7.36628e+06	-44989.1	955.818	-29774.4	0.000000	0.000000	6.713022	-0.037792	NaN	0.000000	0.001664	0.001781	28.0789	0.047082	0.002109	22.3234	43.7214	14.3952	-0.005073	0.712146	-0.437935	-0.439301	-0.037792	22.3234	-0.436665	-442871	8.533514E-8	NaN
127	1.000000	0.723531	7.36628e+06	-44989.1	955.819	-29774.4	0.000000	0.000000	6.723044	0.030042	NaN	0.000000	0.001639	0.001759	28.093	0.097859	0.002022	48.399	-128.747	-165.787	-0.029921	0.722186	-0.427916	-0.429261	0.030042	48.399	-0.428382	-338190	-8.883126E-8	NaN
127	1.000000	0.733540	7.36628e+06	-44989.1	955.819	-29774.4	0.000000	0.000000	6.733051	0.003645	NaN	0.000000	0.001558	0.001753	28.1298	0.028069	0.002115	13.2719	164.162	11.0704	-0.062478	0.732167	-0.417907	-0.419280	0.003645	13.2719	-0.418113	-241909	-1.506799E-8	NaN
127	1.000000	0.743529	7.36628e+06	-44989.1	955.819	-29774.4	0.000000	0.000000	6.743043	0.050645	NaN	0.000000	0.001586	0.001773	28.1022	0.064454	0.002100	30.6879	-130.334	-165.091	0.059059	0.742238	-0.407918	-0.409209	0.050645	30.6879	-0.409156	-180465	-2.806332E-7	NaN
127	1.000000	0.753562	7.36628e+06	-44989.1	955.818	-29774.4	0.000000	0.000000	6.753072	-0.045200	NaN	0.000000	0.001578	0.001776	28.0807	0.092348	0.001984	46.5346	-102.096	11.1508	0.014821	0.752200	-0.397885	-0.399247	-0.045200	46.5346	-0.397157	-121739	3.712843E-7	NaN
127	1.000000	0.763526	7.36628e+06	-44989.1	955.82	-29774.4	0.000000	0.000000	6.763037	-0.017102	NaN	0.000000	0.001564	0.001781	28.0936	0.091653	0.001965	46.6325	-75.617	-163.265	0.043543	0.762227	-0.387921	-0.389220	-0.017102	46.6325	-0.387645	-89017.2	1.921156E-7	NaN
127	1.000000	0.773530	7.36628e+06	-44989.1	955.818	-29774.4	0.000000	0.000000	6.773040	-0.029238	NaN	0.000000	0.001596	0.001763	28.1312	0.094937	0.001971	48.1662	-79.7299	15.5091	0.022660	0.772193	-0.377917	-0.379254	-0.029238	48.1662	-0.377462	-63599.2	4.597274E-7	NaN
127	1.000000	0.783542	7.36628e+06	-44989.1	955.819	-29774.4	0.000000	0.000000	6.783055	0.033194	NaN	0.000000	0.001577	0.001762	28.1014	0.017170	0.002022	8.493101	132.295	-164.161	0.077979	0.782228	-0.367905	-0.369219	0.033194	8.493101	-0.370837	-51071	-6.499539E-7	NaN
127	1.000000	0.793549	7.36628e+06	-44989.1	955.819	-29774.4	0.000000	0.000000	6.793061	-0.006113	NaN	0.000000	0.001571	0.001774	28.08	0.072268	0.002073	34.8548	100.34	15.6812	0.053122	0.792170	-0.357898	-0.359277	-0.006113	34.8548	-0.357766	-33077.9	1.848097E-7	NaN
127	1.000000	0.803555	7.36628e+06	-44989.1	955.819	-29774.4	0.000000	0.000000	6.803067	0.008536	NaN	0.000000	0.001500	0.001780	28.0923	0.035210	0.001914	18.3941	-170.803	-167.18	0.004259	0.802222	-0.347892	-0.349225	0.008536	18.3941	-0.348240	-24068.9	-3.546395E-7	NaN
127	1.000000	0.813568	7.36628e+06	-44989.1	955.818	-29774.4	0.000000	0.000000	6.813080	0.015707	NaN	0.000000	0.001523	0.001731	28.1284	0.099375	0.001885	52.7064	32.3028	10.2746	-0.044283	0.812180	-0.337879	-0.339267	0.015707	52.7064	-0.338103	-17135.2	-9.166423E-7	NaN
127	1.000000	0.823573	7.36628e+06	-44989.1	955.819	-29774.4	0.000000	0.000000	6.823084	-0.021342	NaN	0.000000	0.001525	0.001789	28.1018	0.034392	0.001904	18.0599	47.0589	-166.971	0.000869	0.822230	-0.327874	-0.329217	-0.021342	18.0599	-0.326987	-11784.1	1.811043E-6	NaN
127	1.000000	0.833572	7.36628e+06	-44989.1	955.819	-29774.4	0.000000	0.000000	6.833084	0.014932	NaN	0.000000	0.001539	0.001703	28.0799	0.094580	0.001998	47.3459	-36.1589	14.9256	0.021385	0.832185	-0.317875	-0.319262	0.014932	47.3459	-0.318112	-8726.35	-1.711118E-6	NaN
127	1.000000	0.843591	7.36628e+06	-44989.1	955.818	-29774.4	0.000000	0.000000	6.843104	0.036349	NaN	0.000000	0.001498	0.001762	28.0919	0.057165	0.001964	29.0996	19.1169	-167.256	0.030763	0.842289	-0.307856	-0.309158	0.036349	29.0996	-0.308793	-6356.1	-5.718756E-6	NaN
127	1.000000	0.853571	7.36628e+06	-44989.1	955.819	-29774.4	0.000000	0.000000	6.853082	-0.025164	NaN	0.000000	0.001569	0.001742	28.1295	0.086076	0.001842	46.7388	121.757	13.6151	-0.044862	0.852205	-0.297876	-0.299242	-0.025164	46.7388	-0.297472	-4314.95	5.831725E-6	NaN
127	1.000000	0.863577	7.36628e+06	-44989.1	955.818	-29774.4	0.000000	0.000000	6.863087	-0.045233	NaN	0.000000	0.001568	0.001777	28.1011	0.103129	0.001907	54.0889	-30.4342	-164.299	0.013867	0.862295	-0.287870	-0.289152	-0.045233	54.0889	-0.287242	-3033.55	1.491090E-5	NaN
127	1.000000	0.873576	7.36628e+06	-44989.1	955.818	-29774.4	0.000000	0.000000	6.873087	-0.023944	NaN	0.000000	0.001562	0.001754	28.0777	0.067294	0.001987	33.8616	-41.4449	11.6029	0.054068	0.872224	-0.277871	-0.279223	-0.023944	33.8616	-0.277340	-2151.83	1.112724E-5	NaN
127	1.000000	0.883618	7.36628e+06	-44989.1	955.818	-29774.4	0.000000	0.000000	6.883130	0.013070	NaN	0.000000	0.001564	0.001764	28.0909	0.049261	0.001906	25.8427	86.5682	-165.889	-0.037064	0.882267	-0.267829	-0.269180	0.013070	25.8427	-0.268209	-1564.2	-8.355498E-6	NaN
127	1.000000	0.893590	7.36628e+06	-44989.1	955.818	-29774.4	0.000000	0.000000	6.893102	0.009920	NaN	0.000000	0.001536	0.001773	28.1281	0.063803	0.001979	32.2443	94.812	10.1092	0.005521	0.892213	-0.257857	-0.259234	0.009920	32.2443	-0.258088	-1095.44	-9.055380E-6	NaN
127	1.000000	0.903609	7.36628e+06	-44989.1	955.819	-29774.4	0.000000	0.000000	6.903121	0.002694	NaN	0.000000	0.001537	0.001777	28.1018	0.069369	0.002027	34.2273	-118.421	-167.537	-0.010944	0.902318	-0.247838	-0.249129	0.002694	34.2273	-0.247897	-762.803	-3.531902E-6	NaN
127	1.000000	0.913590	7.36628e+06	-44989.1	955.818	-29774.4	0.000000	0.000000	6.913101	-0.011178	NaN	0.000000	0.001556	0.001758	28.0793	0.054547	0.002060	26.4829	154.919	13.1816	0.038834	0.912270	-0.237857	-0.239177	-0.011178	26.4829	-0.237540	-526.119	2.124622E-5	NaN
127	1.000000	0.923620	7.36628e+06	-44989.1	955.819	-29774.4	0.000000	0.000000	6.923132	0.004299	NaN	0.000000	0.001555	0.001757	28.0923	0.028335	0.002015	14.0617	-114.234	-167.819	-0.020732	0.922290	-0.227827	-0.229157	0.004299	14.0617	-0.228057	-373.076	-1.152335E-5	NaN
127	1.000000	0.933614	7.36628e+06	-44989.1	955.819	-29774.4	0.000000	0.000000	6.933127	0.039222	NaN	0.000000	0.001544	0.001766	28.1292	0.138573	0.002023	68.5101	130.93	13.4659	-0.005597	0.932175	-0.217833	-0.219272	0.039222	68.5101	-0.218262	-260.541	-0.000151	NaN
127	1.000000	0.943634	7.36628e+06	-44989.1	955.819	-29774.4	0.000000	0.000000	6.943148	0.045773	NaN	0.000000	0.001549	0.001752	28.1029	0.060546	0.002022	29.9392	73.1863	-164.777	0.030085	0.942286	-0.207813	-0.209161	0.045773	29.9392	-0.208959	-184.481	-0.000248	NaN
127	1.000000	0.953611	7.36628e+06	-44989.1	955.819	-29774.4	0.000000	0.000000	6.953122	-0.010994	NaN	0.000000	0.001534	0.001743	28.0792	0.037634	0.002009	18.7295	163.5	10.6072	-0.063464	0.952235	-0.197836	-0.199212	-0.010994	18.7295	-0.197396	-119.35	9.211828E-5	NaN
127	1.000000	0.963636	7.36628e+06	-44989.1	955.818	-29774.4	0.000000	0.000000	6.963147	-0.006944	NaN	0.000000	0.001568	0.001757	28.0927	0.043242	0.001957	22.0924	-78.1822	-166.794	-0.070153	0.962284	-0.187811	-0.189163	-0.006944	22.0924	-0.187576	-81.9297	8.475857E-5	NaN
127	1.000000	0.973630	7.36628e+06	-44989.1	955.819	-29774.4	0.000000	0.000000	6.973144	0.049185	NaN	0.000000	0.001579	0.001779	28.1295	0.008249	0.001969	4.189551	-176.033	14.7146	0.007975	0.972228	-0.177817	-0.179219	0.049185	4.189551	-0.186622	-78.9635	-0.000623	NaN
127	1.000000	0.983614	7.36628e+06	-44989.1	955.819	-29774.4	0.000000	0.000000	6.983127	0.023202	NaN	0.000000	0.001542	0.001767	28.1037	0.083769	0.001803	46.4592	64.1974	-167.968	0.017157	0.982328	-0.167833	-0.169119	0.023202	46.4592	-0.168208	-38.2322	-0.000607	NaN
127	1.000000	0.993595	7.36628e+06	-44989.1	955.818	-29774.4	0.000000	0.000000	6.993109	0.058764	NaN	0.000000	0.001551	0.001778	28.0812	0.086586	0.002043	42.3732	97.257	12.8629	0.082818	0.992254	-0.157852	-0.159193	0.058764	42.3732	-0.158892	-26.198	-0.002243	NaN
127	1.000000	1.003637	7.36628e+06	-44989.1	955.819	-29774.4	0.000000	0.000000	7.003147	-0.028645	NaN	0.000000	0.001539	0.001766	28.0932	0.114441	0.001861	61.5035	172.766	-167.326	-0.081515	1.002326	-0.147810	-0.149121	-0.028645	61.5035	-0.147461	-16.2755	0.001760	NaN
127	1.000000	1.013622	7.36628e+06	-44989.1	955.819	-29774.4	0.000000	0.000000	7.013134	0.006488	NaN	0.000000	0.001574	0.001763	28.1306	0.100822	0.001989	50.7007	128.003	10.5878	0.073541	1.012274	-0.137825	-0.139173	0.006488	50.7007	-0.137921	-10.8091	-0.000600	NaN
127	1.000000	1.023631	7.36628e+06	-44989.1	955.819	-29774.4	0.000000	0.000000	7.023142	-0.012726	NaN	0.000000	0.001581	0.001758	28.1031	0.073706	0.001978	37.2679	-139.757	-164.209	-0.030463	1.022354	-0.127816	-0.129093	-0.012726	37.2679	-0.127560	-6.829817	0.001863	NaN
127	1.000000	1.033674	7.36628e+06	-44989.1	955.819	-29774.4	0.000000	0.000000	7.033188	0.046670	NaN	0.000000	0.001592	0.001749	28.0792	0.101815	0.001985	51.3006	-56.3265	12.494	0.031716	1.032277	-0.117773	-0.119170	0.046670	51.3006	-0.118455	-4.495799	-0.010381	NaN
127	1.000000	1.043645	7.36628e+06	-44989.1	955.819	-29774.4	0.000000	0.000000	7.043154	-0.063396	NaN	0.000000	0.001566	0.001751	28.0912	0.039318	0.002034	19.3292	83.4958	-166.048	-0.058868	1.042335	-0.107802	-0.109112	-0.063396	19.3292	-0.105342	-2.390872	0.026516	NaN
127	1.000000	1.053657	7.36628e+06	-44989.1	955.819	-29774.4	0.000000	0.000000	7.053172	0.091806	NaN	0.000000	0.001593	0.001765	28.1296	0.034344	0.001834	18.7266	-18.0481	16.3559	0.037151	1.052291	-0.097790	-0.099156	0.091806	18.7266	-0.101467	-1.968666	-0.046633	NaN
127	1.000000	1.063651	7.36628e+06	-44989.1	955.82	-29774.4	0.000000	0.000000	7.063164	0.031998	NaN	0.000000	0.001583	0.001741	28.1037	0.066869	0.001786	37.4351	40.1982	-166.634	0.045811	1.062304	-0.087796	-0.089143	0.031998	37.4351	-0.088437	-0.993053	-0.032222	NaN
127	1.000000	1.073659	7.36628e+06	-44989.1	955.82	-29774.4	0.000000	0.000000	7.073172	0.029286	NaN	0.000000	0.001597	0.001775	28.0811	0.048062	0.002001	24.0179	37.6465	15.4914	0.026517	1.072293	-0.077788	-0.079154	0.029286	24.0179	-0.078702	-0.574239	-0.051000	NaN
127	1.000000	1.083639	7.36628e+06	-44989.1	955.819	-29774.4	0.000000	0.000000	7.083151	0.007480	NaN	0.000000	0.001606	0.001777	28.0911	0.051290	0.002021	25.3791	-35.5146	-163.848	-0.058886	1.082344	-0.067808	-0.069103	0.007480	25.3791	-0.068029	-0.301797	-0.024785	NaN
127	1.000000	1.093669	7.36628e+06	-44989.1	955.819	-29774.4	0.000000	0.000000	7.093182	0.041810	NaN	0.000000	0.001567	0.001767	28.1295	0.053899	0.001977	27.2605	81.1617	11.7868	0.098228	1.092243	-0.057778	-0.059204	0.041810	27.2605	-0.058929	-0.167750	-0.249241	NaN
127	1.000000	1.103675	7.36628e+06	-44989.1	955.819	-29774.4	0.000000	0.000000	7.103187	0.000630	NaN	0.000000	0.001596	0.001762	28.1023	0.093757	0.002112	44.4004	83.2948	-164.694	-0.033463	1.102349	-0.047772	-0.049098	0.000630	44.4004	-0.047782	-0.078151	-0.008067	NaN
127	1.000000	1.113648	7.36628e+06	-44989.1	955.819	-29774.4	0.000000	0.000000	7.113161	0.028688	NaN	0.000000	0.001546	0.001783	28.0792	0.048619	0.002071	23.4719	-141.241	15.4969	0.058322	1.112392	-0.037799	-0.039055	0.028688	23.4719	-0.038716	-0.041348	-0.693829	NaN
127	1.000000	1.123646	7.36628e+06	-44989.1	955.82	-29774.4	0.000000	0.000000	7.123156	-0.029151	NaN	0.000000	0.001579	0.001797	28.0894	0.063525	0.002114	30.056	25.8508	-165.763	-0.002663	1.122375	-0.027801	-0.029072	-0.029151	30.056	-0.027074	-0.019142	1.522876	NaN
127	1.000000	1.133692	7.36628e+06	-44989.1	955.82	-29774.4	0.000000	0.000000	7.133202	-0.044386	NaN	0.000000	0.001597	0.001775	28.1281	0.018607	0.001920	9.692263	14.76	17.7805	-0.047992	1.132333	-0.017755	-0.019114	-0.044386	9.692263	-0.014320	-0.008871	5.003232	NaN
127	1.000000	1.143694	7.36628e+06	-44989.1	955.82	-29774.4	0.000000	0.000000	7.143210	0.082699	NaN	0.000000	0.001565	0.001807	28.1038	0.051573	0.001929	26.7397	124.862	-166.305	-0.002150	1.142387	-0.007753	-0.009060	0.082699	26.7397	-0.010072	-0.006429	-12.8642	NaN
127	1.000000	1.153665	7.36628e+06	-44989.1	955.82	-29774.4	0.000000	0.000000	7.153223	1.135974	NaN	0.000000	0.001593	0.001826	28.0792	1.808175	0.001915	944.43	8.403460	11.3595	0.138350	1.152339	0.002218	0.000892	1.135974	944.43	0.001316	0.001009	1125.78	27163.5
127	2.000000	1.161261	7.36628e+06	-44989.1	955.82	-29774.4	0.000000	0.000000	7.161190	10.1573	NaN	0.000000	0.001586	0.001801	28.0906	10.0826	0.001539	6549.5	5.548859	-173.906	9.441717	1.161016	0.009814	0.009569	10.1573	6549.5	0.008651	0.007720	1315.66	68102.7
127	2.000000	1.163768	7.36628e+06	-44989.1	955.82	-29774.4	0.000000	0.000000	7.163891	14.8764	NaN	0.000000	0.001606	0.001821	28.1293	12.763	0.001591	8021.84	9.205474	1.350504	13.3125	1.163426	0.012321	0.011979	14.8764	8021.84	0.010930	0.010233	1453.77	72451.1
127	2.000000	1.166220	7.36628e+06	-44989.1	955.82	-29774.4	0.000000	0.000000	7.166539	19.6294	NaN	0.000000	0.001570	0.001834	28.1028	16.1836	0.001631	9924.09	5.563060	-176.425	18.8534	1.165930	0.014773	0.014483	19.6294	9924.09	0.013290	0.013072	1501.63	79303.2
127	2.000000	1.168702	7.36628e+06	-44989.1	955.82	-29774.4	0.000000	0.000000	7.169263	25.5242	NaN	0.000000	0.001583	0.001821	28.0777	19.1164	0.001701	11236.1	6.289341	1.854881	23.7633	1.168366	0.017255	0.016919	25.5242	11236.1	0.015551	0.016027	1592.57	81088.9
127	2.000000	1.171213	7.36628e+06	-44989.1	955.821	-29774.4	0.000000	0.000000	7.172087	33.1454	NaN	0.000000	0.001571	0.001817	28.089	22.2944	0.001781	12515.8	5.024665	-177.608	32.3113	1.170910	0.019766	0.019463	33.1454	12515.8	0.017779	0.019172	1728.81	82583.8
127	2.000000	1.173800	7.36628e+06	-44989.1	955.821	-29774.4	0.000000	0.000000	7.175053	42.3622	NaN	0.000000	0.001577	0.001788	28.1288	24.4916	0.001854	13209.4	6.069395	2.178519	44.2598	1.173376	0.022353	0.021929	42.3622	13209.4	0.019948	0.022460	1886.1	80528.6
127	2.000000	1.176187	7.36628e+06	-44989.1	955.821	-29774.4	0.000000	0.000000	7.177555	45.1615	NaN	0.000000	0.001593	0.001766	28.1056	27.7325	0.001913	14495.6	5.583625	-179.812	45.3398	1.175892	0.024740	0.024445	45.1615	14495.6	0.022403	0.026460	1706.76	81416.5
127	2.000000	1.178639	7.36628e+06	-44989.1	955.82	-29774.4	0.000000	0.000000	7.180559	58.6052	NaN	0.000000	0.001592	0.001756	28.0809	29.8034	0.001720	17326.9	4.218285	-0.890817	55.2621	1.178343	0.027192	0.026896	58.6052	17326.9	0.024655	0.030391	1928.4	90808
127	2.000000	1.181156	7.36628e+06	-44989.1	955.82	-29774.4	0.000000	0.000000	7.183346	65.1543	NaN	0.000000	0.001559	0.001767	28.0913	32.6695	0.001797	18181.1	2.746378	-179.659	61.5747	1.180791	0.029709	0.029344	65.1543	18181.1	0.027021	0.034795	1872.51	89050
127	2.000000	1.183686	7.36628e+06	-44989.1	955.821	-29774.4	0.000000	0.000000	7.186396	77.7957	NaN	0.000000	0.001576	0.001750	28.1304	34.3806	0.001719	20002.2	2.383628	0.271447	75.3117	1.183310	0.032239	0.031863	77.7957	20002.2	0.029322	0.039350	1976.99	92124.6
127	2.000000	1.186181	7.36628e+06	-44989.1	955.821	-29774.4	0.000000	0.000000	7.189222	85.8545	NaN	0.000000	0.001557	0.001792	28.1052	36.6421	0.001657	22111.6	6.042137	175.897	84.8896	1.185811	0.034734	0.034364	85.8545	22111.6	0.031822	0.044605	1924.77	95653.6
127	2.000000	1.188640	7.36628e+06	-44989.1	955.82	-29774.4	0.000000	0.000000	7.192079	95.5239	NaN	0.000000	0.001544	0.001760	28.0795	39.8218	0.001827	21793.9	8.861552	-7.269493	92.3746	1.188275	0.037193	0.036828	95.5239	21793.9	0.033906	0.049229	1940.39	89742.4
127	2.000000	1.191158	7.36628e+06	-44989.1	955.82	-29774.4	0.000000	0.000000	7.195141	108.774	NaN	0.000000	0.001590	0.001783	28.0901	41.7271	0.001762	23686.4	1.310621	179.542	108.004	1.190861	0.039711	0.039414	108.774	23686.4	0.036266	0.054736	1987.27	92498.9
127	2.000000	1.193773	7.36628e+06	-44989.1	955.82	-29774.4	0.000000	0.000000	7.198062	116.204	NaN	0.000000	0.001573	0.001753	28.1293	43.7608	0.001814	24130.2	4.354293	-1.794429	118.534	1.193280	0.042326	0.041833	116.204	24130.2	0.038715	0.060749	1912.85	89446.8
127	2.000000	1.196232	7.36628e+06	-44989.1	955.82	-29774.4	0.000000	0.000000	7.201120	130.783	NaN	0.000000	0.001569	0.001774	28.1057	46.0357	0.001832	25123.9	6.566499	175.455	132.35	1.195788	0.044785	0.044341	130.783	25123.9	0.040881	0.066326	1971.83	89128.9
127	2.000000	1.198624	7.36628e+06	-44989.1	955.821	-29774.4	0.000000	0.000000	7.204085	144.728	NaN	0.000000	0.001541	0.001766	28.0812	48.0378	0.001856	25882.8	4.674278	-2.831564	141.776	1.198260	0.047177	0.046813	144.728	25882.8	0.042984	0.071966	2011.06	88149.7
127	2.000000	1.201103	7.36628e+06	-44989.1	955.819	-29774.4	0.000000	0.000000	7.206989	155.049	NaN	0.000000	0.001521	0.001790	28.0919	51.2202	0.001716	29851.7	5.322595	173.883	152.89	1.200921	0.049656	0.049474	155.049	29851.7	0.045761	0.079762	1943.89	96570.4
127	2.000000	1.203715	7.36628e+06	-44989.1	955.82	-29774.4	0.000000	0.000000	7.210330	172.802	NaN	0.000000	0.001527	0.001777	28.13	53.6709	0.001824	29426.6	9.912323	-9.196421	172.526	1.203176	0.052268	0.051729	172.802	29426.6	0.047863	0.085924	2011.11	91718.4
127	2.000000	1.206151	7.36628e+06	-44989.1	955.821	-29774.4	0.000000	0.000000	7.213185	182.984	NaN	0.000000	0.001537	0.001796	28.1048	54.9593	0.001655	33205.2	1.156103	177.977	183.861	1.205772	0.054704	0.054324	182.984	33205.2	0.050571	0.094186	1942.78	98851.9
127	2.000000	1.208604	7.36628e+06	-44989.1	955.82	-29774.4	0.000000	0.000000	7.215894	189.238	NaN	0.000000	0.001513	0.001786	28.0791	57.8808	0.001806	32056.4	3.025330	-4.455112	185.303	1.208309	0.057157	0.056862	189.238	32056.4	0.052729	0.101036	1872.99	92140.6
127	2.000000	1.211079	7.36628e+06	-44989.1	955.821	-29774.4	0.000000	0.000000	7.219206	209.59	NaN	0.000000	0.001578	0.001779	28.0889	60.6175	0.001769	34265.5	4.705608	173.159	205.577	1.210779	0.059632	0.059332	209.59	34265.5	0.055044	0.108641	1929.21	94980.6
127	2.000000	1.213629	7.36628e+06	-44989.1	955.821	-29774.4	0.000000	0.000000	7.222571	229.42	NaN	0.000000	0.001566	0.001738	28.1275	63.1368	0.001799	35093	6.572769	-8.336909	226.284	1.213350	0.062182	0.061903	229.42	35093	0.057279	0.116231	1973.83	94044.5
127	2.000000	1.216061	7.36628e+06	-44989.1	955.821	-29774.4	0.000000	0.000000	7.225521	242.01	NaN	0.000000	0.001561	0.001751	28.1057	65.3359	0.001861	35112.8	4.178048	173.893	238.154	1.215802	0.064614	0.064355	242.01	35112.8	0.059445	0.123826	1954.44	91166
127	2.000000	1.218618	7.36628e+06	-44989.1	955.821	-29774.4	0.000000	0.000000	7.228774	258.949	NaN	0.000000	0.001549	0.001777	28.0805	67.662	0.001793	37738.8	2.274034	-4.562240	257.181	1.218300	0.067171	0.066853	258.949	37738.8	0.062025	0.133168	1944.52	94484.5
127	2.000000	1.221179	7.36628e+06	-44989.1	955.821	-29774.4	0.000000	0.000000	7.232262	281.514	NaN	0.000000	0.001566	0.001753	28.0896	71.411	0.001813	39388.8	6.689687	170.877	283.39	1.220776	0.069732	0.069329	281.514	39388.8	0.064371	0.141948	1983.22	95517.2
127	2.000000	1.223660	7.36628e+06	-44989.1	955.821	-29774.4	0.000000	0.000000	7.235353	296.337	NaN	0.000000	0.001578	0.001771	28.1286	72.2734	0.001812	39882.6	2.377847	-4.461619	294.561	1.223272	0.072213	0.071825	296.337	39882.6	0.066641	0.150692	1966.51	93866.7
127	2.000000	1.226070	7.36628e+06	-44989.1	955.821	-29774.4	0.000000	0.000000	7.238432	312.633	NaN	0.000000	0.001569	0.001797	28.1043	74.4342	0.001711	43504.5	3.373427	173.108	309.495	1.225759	0.074623	0.074312	312.633	43504.5	0.069233	0.160981	1942.04	99064.8
127	2.000000	1.228597	7.36629e+06	-44989.1	955.821	-29774.4	0.000000	0.000000	7.241886	335.165	NaN	0.000000	0.001545	0.001807	28.0787	78.7524	0.001769	44509.2	8.224672	-11.6304	330.545	1.228185	0.077150	0.076738	335.165	44509.2	0.071502	0.170252	1968.64	98554.6
127	2.000000	1.231058	7.36629e+06	-44989.1	955.82	-29774.4	0.000000	0.000000	7.245223	356.478	NaN	0.000000	0.001561	0.001779	28.0881	80.1901	0.001769	45334.2	2.194587	173.997	352.736	1.230861	0.079611	0.079414	356.478	45334.2	0.073713	0.179520	1985.72	97755.8
127	2.000000	1.233572	7.36629e+06	-44989.1	955.821	-29774.4	0.000000	0.000000	7.248507	375.208	NaN	0.000000	0.001561	0.001766	28.1277	82.8001	0.001759	47074.9	6.049664	-9.921196	370.111	1.233261	0.082125	0.081814	375.208	47074.9	0.076147	0.189987	1974.91	98673.6
127	2.000000	1.236167	7.36629e+06	-44989.1	955.821	-29774.4	0.000000	0.000000	7.252054	398.385	NaN	0.000000	0.001583	0.001756	28.1066	85.3557	0.001854	46042.2	4.845625	171.54	400.384	1.235739	0.084720	0.084292	398.385	46042.2	0.078230	0.199169	2000.23	94257.9
127	2.000000	1.238605	7.36629e+06	-44989.1	955.822	-29774.4	0.000000	0.000000	7.255596	425.224	NaN	0.000000	0.001557	0.001790	28.079	87.5763	0.001885	46464.4	5.211751	-8.487060	422.434	1.238154	0.087158	0.086707	425.224	46464.4	0.080294	0.208467	2039.77	92976.8
127	2.000000	1.241067	7.36629e+06	-44989.1	955.822	-29774.4	0.000000	0.000000	7.258943	446.759	NaN	0.000000	0.001525	0.001764	28.0895	89.9239	0.001772	50748.3	5.141956	170.32	444.099	1.240746	0.089620	0.089299	446.759	50748.3	0.083017	0.221034	2021.22	98620.1
127	2.000000	1.243556	7.36629e+06	-44989.1	955.82	-29774.4	0.000000	0.000000	7.262307	468.048	NaN	0.000000	0.001546	0.001777	28.1296	91.3081	0.001828	49958.7	3.555286	-7.530284	461.739	1.243210	0.092108	0.091763	468.048	49958.7	0.085082	0.230793	2028	95010.9
127	2.000000	1.246182	7.36629e+06	-44989.1	955.821	-29774.4	0.000000	0.000000	7.265532	482.608	NaN	0.000000	0.001541	0.001767	28.1058	93.3935	0.001774	52643.8	3.002948	172.409	486.762	1.245898	0.094735	0.094451	482.608	52643.8	0.087860	0.244231	1976.03	97324
127	2.000000	1.248509	7.36629e+06	-44989.1	955.82	-29774.4	0.000000	0.000000	7.269196	515.146	NaN	0.000000	0.001544	0.001769	28.0801	95.8121	0.001798	53294.2	1.942635	-6.450666	507.479	1.248197	0.097062	0.096750	515.146	53294.2	0.089812	0.253892	2029	96633.7
127	2.000000	1.251024	7.36629e+06	-44989.1	955.821	-29774.4	0.000000	0.000000	7.272189	526.747	NaN	0.000000	0.001561	0.001757	28.0897	99.8672	0.001847	54060	5.938666	168.784	521.636	1.250777	0.099577	0.099330	526.747	54060	0.092270	0.266296	1978.05	95712.1
127	2.000000	1.253506	7.36629e+06	-44989.1	955.821	-29774.4	0.000000	0.000000	7.276072	560.857	NaN	0.000000	0.001560	0.001775	28.1284	100.17	0.001703	58807.7	4.438704	-9.573622	552.876	1.253163	0.102059	0.101716	560.857	58807.7	0.094906	0.279914	2003.68	101554
127	2.000000	1.256024	7.36629e+06	-44989.1	955.821	-29774.4	0.000000	0.000000	7.279137	574.16	NaN	0.000000	0.001608	0.001790	28.1066	101.469	0.001707	59453.5	4.956994	169.372	569.089	1.255866	0.104577	0.104419	574.16	59453.5	0.097334	0.292732	1961.38	100396
127	2.000000	1.258465	7.36629e+06	-44989.1	955.82	-29774.4	0.000000	0.000000	7.282865	605.459	NaN	0.000000	0.001544	0.001782	28.0812	104.845	0.001775	59071	6.580118	-11.5273	595.771	1.258147	0.107018	0.106700	605.459	59071	0.099331	0.303477	1995.08	97968.2
127	2.000000	1.259128	7.36629e+06	-44989.1	955.82	-29774.4	0.000000	0.000000	7.283638	608.145	NaN	0.000000	0.001556	0.001775	28.0908	105.146	0.001766	59537.9	6.157069	169.049	610.51	1.258698	0.107681	0.107251	608.145	59537.9	0.100020	0.307228	1979.46	98137.9