File: remote_trans/data/nanoindenter/0828-1/data/Data_2025-08-06,11h17m57s/2025-07-22_16-23-58_1_799.txt
2025-07-22, 16:23:58, 1
Index	Phase	Displacement	Time	Pos X	Pos Y	Pos Z	Rot A	Rot B	Piezo Z	Force A	Force B	Gripper	Voltage A	Voltage B	Temperature	Amplitude force	Amplitude pos	Stiffness	Phase shift	Phase excitation	Force A raw	Displacement raw	HMax	HMax raw	Real Force	Real Stiffness	Contact Depth	Area	Hardness	Reduced Mod.
[#]	[#]	[um]	[s]	[um]	[um]	[um]	[m°]	[m°]	[um]	[uN]	[uN]	[V]	[V]	[V]	[°C]	[uN]	[um]	[N/m]	[°]	[°]	[uN]	[um]	[um]	[um]	[uN]	[N/m]	[um]	[um^2]	[MPa]	[MPa]
799	1.000000	0.002885	7.37287e+06	-40089.1	1055.82	-29791.3	0.000000	0.000000	6.002810	0.001217	NaN	0.000000	0.001524	0.001799	28.0826	0.046474	0.000991	46.8855	95.975	-166.2	-0.015462	0.001637	-1.129050	-1.130298	0.001217	46.8855	-1.129070	-1.230681E+15	-9.886716E-19	NaN
799	1.000000	0.012943	7.37287e+06	-40089.1	1055.82	-29791.3	0.000000	0.000000	6.012871	0.092680	NaN	0.000000	0.001582	0.001801	28.0825	0.023662	0.001238	19.1069	98.3256	14.8827	0.042906	0.011444	-1.118993	-1.120492	0.092680	19.1069	-1.122631	-1.008718E+15	-9.187925E-17	NaN
799	1.000000	0.022843	7.37287e+06	-40089.1	1055.82	-29791.3	0.000000	0.000000	6.022768	-0.000782	NaN	0.000000	0.001548	0.001797	28.0824	0.075813	0.001706	44.4428	-172.462	-167.079	0.010296	0.021551	-1.109093	-1.110384	-0.000782	44.4428	-1.109079	-6.636388E+14	1.177955E-18	NaN
799	1.000000	0.032828	7.37287e+06	-40089.1	1055.82	-29791.3	0.000000	0.000000	6.032751	-0.027801	NaN	0.000000	0.001534	0.001775	28.0824	0.063479	0.001961	32.3728	-168.902	9.907176	0.019167	0.031464	-1.099108	-1.100472	-0.027801	32.3728	-1.098464	-4.780156E+14	5.816018E-17	NaN
799	1.000000	0.042832	7.37287e+06	-40089.1	1055.82	-29791.3	0.000000	0.000000	6.042756	-0.015023	NaN	0.000000	0.001550	0.001804	28.0826	0.133414	0.002053	64.9888	-95.9565	-166.547	-0.042234	0.041531	-1.089104	-1.090404	-0.015023	64.9888	-1.088930	-3.559995E+14	4.220009E-17	NaN
799	1.000000	0.052815	7.37287e+06	-40089.1	1055.82	-29791.3	0.000000	0.000000	6.052739	0.001922	NaN	0.000000	0.001521	0.001811	28.0824	0.064699	0.001868	34.6426	-89.305	13.6663	-2.883710E-5	0.051418	-1.079121	-1.080518	0.001922	34.6426	-1.079163	-2.631913E+14	-7.302542E-18	NaN
799	1.000000	0.062828	7.37287e+06	-40089.1	1055.82	-29791.3	0.000000	0.000000	6.062754	0.048438	NaN	0.000000	0.001557	0.001817	28.0824	0.089540	0.002007	44.6161	-25.7222	-163.916	-0.009544	0.061578	-1.069108	-1.070358	0.048438	44.6161	-1.069922	-1.977639E+14	-2.449307E-16	NaN
799	1.000000	0.072812	7.37287e+06	-40089.1	1055.82	-29791.3	0.000000	0.000000	6.072735	-0.027623	NaN	0.000000	0.001559	0.001792	28.0824	0.074408	0.002009	37.0297	149.75	15.2098	0.002567	0.071519	-1.059124	-1.060416	-0.027623	37.0297	-1.058564	-1.391628E+14	1.984933E-16	NaN
799	1.000000	0.082833	7.37287e+06	-40089.1	1055.82	-29791.3	0.000000	0.000000	6.082755	-0.055306	NaN	0.000000	0.001530	0.001796	28.0828	0.073239	0.002020	36.2636	61.4874	-165.384	-0.045215	0.081542	-1.049102	-1.050394	-0.055306	36.2636	-1.047959	-1.002240E+14	5.518226E-16	NaN
799	1.000000	0.092817	7.37287e+06	-40089.1	1055.82	-29791.3	0.000000	0.000000	6.092738	-0.074608	NaN	0.000000	0.001549	0.001821	28.084	0.086019	0.001919	44.8174	145.697	13.0924	-0.053229	0.091501	-1.039119	-1.040434	-0.074608	44.8174	-1.037871	-7.333883E+13	1.017302E-15	NaN
799	1.000000	0.102843	7.37287e+06	-40089.1	1055.82	-29791.3	0.000000	0.000000	6.102768	0.007527	NaN	0.000000	0.001558	0.001775	28.0837	0.071277	0.001961	36.3527	42.1232	-167.038	0.056931	0.101502	-1.029092	-1.030434	0.007527	36.3527	-1.029248	-5.615150E+13	-1.340535E-16	NaN
799	1.000000	0.112854	7.37287e+06	-40089.1	1055.82	-29791.3	0.000000	0.000000	6.112781	0.046197	NaN	0.000000	0.001562	0.001807	28.084	0.098829	0.001989	49.6883	28.1488	14.2808	0.054115	0.111494	-1.019081	-1.020441	0.046197	49.6883	-1.019779	-4.187681E+13	-1.103166E-15	NaN
799	1.000000	0.122872	7.37287e+06	-40089.1	1055.82	-29791.3	0.000000	0.000000	6.122798	0.043697	NaN	0.000000	0.001534	0.001822	28.0842	0.113603	0.001940	58.5473	113.163	-166.227	-0.049051	0.121521	-1.009064	-1.010415	0.043697	58.5473	-1.009624	-3.057167E+13	-1.429326E-15	NaN
799	1.000000	0.132857	7.37287e+06	-40089.1	1055.82	-29791.3	0.000000	0.000000	6.132780	-0.036596	NaN	0.000000	0.001577	0.001803	28.0839	0.083802	0.001927	43.4795	-61.4306	16.272	-0.095513	0.131515	-0.999078	-1.000421	-0.036596	43.4795	-0.998447	-2.162030E+13	1.692679E-15	NaN
799	1.000000	0.142851	7.37287e+06	-40089.1	1055.82	-29791.3	0.000000	0.000000	6.142778	0.052829	NaN	0.000000	0.001519	0.001789	28.0842	0.039489	0.001951	20.2366	-105.367	-165.855	0.077220	0.141579	-0.989085	-0.990357	0.052829	20.2366	-0.991043	-1.718512E+13	-3.074111E-15	NaN
799	1.000000	0.152862	7.37287e+06	-40089.1	1055.82	-29791.3	0.000000	0.000000	6.152789	0.059614	NaN	0.000000	0.001523	0.001822	28.0841	0.078692	0.001975	39.8371	100.075	15.5239	0.104270	0.151550	-0.979074	-0.980386	0.059614	39.8371	-0.980196	-1.227592E+13	-4.856175E-15	NaN
799	1.000000	0.162881	7.37287e+06	-40089.1	1055.82	-29791.3	0.000000	0.000000	6.162807	0.027812	NaN	0.000000	0.001530	0.001767	28.0843	0.011135	0.001986	5.606109	107.09	-166.584	0.055153	0.161549	-0.969054	-0.970386	0.027812	5.606109	-0.972775	-9.751326E+12	-2.852157E-15	NaN
799	1.000000	0.172916	7.37287e+06	-40089.1	1055.82	-29791.3	0.000000	0.000000	6.172841	0.015972	NaN	0.000000	0.001609	0.001832	28.0839	0.068026	0.001982	34.3266	131.833	16.0138	0.052549	0.171505	-0.959020	-0.960431	0.015972	34.3266	-0.959369	-6.432177E+12	-2.483114E-15	NaN
799	1.000000	0.182835	7.37287e+06	-40089.1	1055.82	-29791.3	0.000000	0.000000	6.182760	0.010624	NaN	0.000000	0.001646	0.001814	28.0842	0.081590	0.001919	42.5083	49.6515	-169.559	-0.108348	0.181618	-0.949101	-0.950318	0.010624	42.5083	-0.949288	-4.703543E+12	-2.258769E-15	NaN
799	1.000000	0.192870	7.37287e+06	-40089.1	1055.82	-29791.3	0.000000	0.000000	6.192794	-0.008637	NaN	0.000000	0.001609	0.001812	28.084	0.121463	0.002043	59.44	149.344	14.5021	0.054172	0.191463	-0.939066	-0.940473	-0.008637	59.44	-0.938957	-3.412426E+12	2.531096E-15	NaN
799	1.000000	0.202883	7.37287e+06	-40089.1	1055.82	-29791.3	0.000000	0.000000	6.202808	0.015139	NaN	0.000000	0.001622	0.001798	28.084	0.044842	0.002036	22.0273	-156.118	-166.518	-0.031447	0.201546	-0.929053	-0.930390	0.015139	22.0273	-0.929568	-2.549019E+12	-5.939178E-15	NaN
799	1.000000	0.212886	7.37287e+06	-40089.1	1055.82	-29791.3	0.000000	0.000000	6.212810	-0.013675	NaN	0.000000	0.001619	0.001795	28.0839	0.016959	0.001930	8.785628	-97.6445	15.645	-0.050302	0.211537	-0.919049	-0.920399	-0.013675	8.785628	-0.917882	-1.772593E+12	7.714942E-15	NaN
799	1.000000	0.222897	7.37287e+06	-40089.1	1055.82	-29791.3	0.000000	0.000000	6.222820	-0.019037	NaN	0.000000	0.001646	0.001786	28.0841	0.085512	0.001843	46.4071	84.8349	-168.212	0.098872	0.221573	-0.909039	-0.910363	-0.019037	46.4071	-0.908731	-1.333606E+12	1.427501E-14	NaN
799	1.000000	0.232925	7.37287e+06	-40089.1	1055.82	-29791.3	0.000000	0.000000	6.232851	0.031884	NaN	0.000000	0.001602	0.001780	28.0829	0.034475	0.002119	16.2728	-53.4537	15.4556	-0.030901	0.231450	-0.899011	-0.900486	0.031884	16.2728	-0.900480	-1.031710E+12	-3.090450E-14	NaN
799	1.000000	0.242909	7.37287e+06	-40089.1	1055.82	-29791.3	0.000000	0.000000	6.242834	0.021233	NaN	0.000000	0.001601	0.001783	28.0828	0.010465	0.001997	5.240131	-132.218	-164.36	-0.038963	0.241579	-0.889027	-0.890357	0.021233	5.240131	-0.892066	-7.940441E+11	-2.674025E-14	NaN
799	1.000000	0.252900	7.37287e+06	-40089.1	1055.82	-29791.3	0.000000	0.000000	6.252824	-0.007518	NaN	0.000000	0.001602	0.001788	28.0825	0.052686	0.001986	26.5275	104.146	14.9671	0.031131	0.251541	-0.879036	-0.880395	-0.007518	26.5275	-0.878823	-5.257640E+11	1.429881E-14	NaN
799	1.000000	0.262906	7.37287e+06	-40089.1	1055.82	-29791.3	0.000000	0.000000	6.262833	0.060683	NaN	0.000000	0.001570	0.001808	28.0828	0.097823	0.001948	50.2128	93.5122	-166.172	0.045795	0.261676	-0.869030	-0.870260	0.060683	50.2128	-0.869936	-3.986382E+11	-1.522262E-13	NaN
799	1.000000	0.272945	7.37287e+06	-40089.1	1055.82	-29791.3	0.000000	0.000000	6.272868	-0.027221	NaN	0.000000	0.001618	0.001778	28.0828	0.033884	0.002027	16.7195	-179.072	16.9285	-0.023037	0.271601	-0.858991	-0.860334	-0.027221	16.7195	-0.857770	-2.728568E+11	9.976371E-14	NaN
799	1.000000	0.282920	7.37287e+06	-40089.1	1055.82	-29791.3	0.000000	0.000000	6.282841	-0.067213	NaN	0.000000	0.001578	0.001804	28.0828	0.058202	0.002036	28.591	133.198	-162.841	-0.055566	0.281604	-0.849016	-0.850332	-0.067213	28.591	-0.847253	-1.965781E+11	3.419141E-13	NaN
799	1.000000	0.292937	7.37287e+06	-40089.1	1055.82	-29791.3	0.000000	0.000000	6.292863	0.035458	NaN	0.000000	0.001597	0.001788	28.0828	0.100814	0.002034	49.56	99.6066	13.6132	0.063131	0.291588	-0.838999	-0.840348	0.035458	49.56	-0.839536	-1.545256E+11	-2.294654E-13	NaN
799	1.000000	0.302901	7.37287e+06	-40089.1	1055.82	-29791.3	0.000000	0.000000	6.302824	-0.037732	NaN	0.000000	0.001583	0.001797	28.0829	0.053024	0.002080	25.4979	45.7856	-168.923	-0.018813	0.301650	-0.829035	-0.830286	-0.037732	25.4979	-0.827925	-1.075608E+11	3.507944E-13	NaN
799	1.000000	0.312923	7.37287e+06	-40089.1	1055.82	-29791.3	0.000000	0.000000	6.312846	-0.053808	NaN	0.000000	0.001573	0.001808	28.0827	0.071458	0.001841	38.8121	172.187	17.7925	0.066577	0.311587	-0.819012	-0.820348	-0.053808	38.8121	-0.817973	-7.883447E+10	6.825379E-13	NaN
799	1.000000	0.322945	7.37287e+06	-40089.1	1055.82	-29791.3	0.000000	0.000000	6.322869	-0.014988	NaN	0.000000	0.001561	0.001771	28.0828	0.053339	0.002070	25.7664	-178.266	-165.179	-0.012148	0.321636	-0.808990	-0.810300	-0.014988	25.7664	-0.808554	-5.874254E+10	2.551409E-13	NaN
799	1.000000	0.332915	7.37287e+06	-40089.1	1055.82	-29791.3	0.000000	0.000000	6.332838	-0.038662	NaN	0.000000	0.001595	0.001786	28.0828	0.030295	0.002076	14.5921	-136.854	12.4141	-0.158340	0.331544	-0.799021	-0.800391	-0.038662	14.5921	-0.797033	-4.098178E+10	9.433948E-13	NaN
799	1.000000	0.342956	7.37287e+06	-40089.1	1055.82	-29791.3	0.000000	0.000000	6.342879	-0.035474	NaN	0.000000	0.001544	0.001834	28.083	0.075034	0.002122	35.3533	-98.6413	-161.959	-0.080846	0.341676	-0.788980	-0.790259	-0.035474	35.3533	-0.788227	-3.111743E+10	1.140005E-12	NaN
799	1.000000	0.352969	7.37287e+06	-40089.1	1055.82	-29791.3	0.000000	0.000000	6.352893	-0.015103	NaN	0.000000	0.001559	0.001834	28.0828	0.014026	0.001875	7.479882	-147.422	11.3533	-0.019558	0.351616	-0.778966	-0.780320	-0.015103	7.479882	-0.777452	-2.221291E+10	6.799036E-13	NaN
799	1.000000	0.362961	7.37287e+06	-40089.1	1055.82	-29791.3	0.000000	0.000000	6.362883	-0.050005	NaN	0.000000	0.001519	0.001833	28.0833	0.063579	0.001935	32.8518	-79.7073	-168.381	-0.066374	0.361656	-0.768975	-0.770280	-0.050005	32.8518	-0.767833	-1.643783E+10	3.042086E-12	NaN
799	1.000000	0.372933	7.37287e+06	-40089.1	1055.82	-29791.3	0.000000	0.000000	6.372856	-0.038177	NaN	0.000000	0.001525	0.001849	28.0842	0.029134	0.001917	15.2001	-134.874	14.3354	-0.008608	0.371619	-0.759003	-0.760317	-0.038177	15.2001	-0.757119	-1.175192E+10	3.248595E-12	NaN
799	1.000000	0.382955	7.37287e+06	-40089.1	1055.82	-29791.3	0.000000	0.000000	6.382879	-0.004977	NaN	0.000000	0.001535	0.001845	28.0841	0.055881	0.002077	26.9106	-87.6088	-167.037	0.021617	0.381615	-0.748981	-0.750321	-0.004977	26.9106	-0.748842	-9.066910E+9	5.489708E-13	NaN
799	1.000000	0.392990	7.37287e+06	-40089.1	1055.82	-29791.3	0.000000	0.000000	6.392915	0.006208	NaN	0.000000	0.001586	0.001824	28.0845	0.033646	0.001944	17.3098	-57.8379	12.5278	-0.037203	0.391604	-0.738946	-0.740332	0.006208	17.3098	-0.739215	-6.704423E+9	-9.260249E-13	NaN
799	1.000000	0.402949	7.37287e+06	-40089.1	1055.82	-29791.3	0.000000	0.000000	6.402871	-0.053504	NaN	0.000000	0.001595	0.001812	28.0843	0.063465	0.002003	31.6807	-176.353	-164.468	-0.014485	0.401653	-0.728987	-0.730283	-0.053504	31.6807	-0.727720	-4.674466E+9	1.144607E-11	NaN
799	1.000000	0.413004	7.37287e+06	-40089.1	1055.82	-29791.3	0.000000	0.000000	6.412928	-0.017760	NaN	0.000000	0.001632	0.001821	28.0844	0.071137	0.002022	35.1837	8.373484	14.4009	0.060710	0.411676	-0.718932	-0.720259	-0.017760	35.1837	-0.718553	-3.505431E+9	5.066294E-12	NaN
799	1.000000	0.422981	7.37287e+06	-40089.1	1055.82	-29791.3	0.000000	0.000000	6.422905	-0.013760	NaN	0.000000	0.001611	0.001806	28.0843	0.101260	0.002140	47.3119	-164.467	-167.606	-0.039201	0.421687	-0.708955	-0.710249	-0.013760	47.3119	-0.708737	-2.575194E+9	5.343291E-12	NaN
799	1.000000	0.432979	7.37287e+06	-40089.1	1055.82	-29791.3	0.000000	0.000000	6.432905	0.048961	NaN	0.000000	0.001631	0.001827	28.0845	0.077294	0.002164	35.7226	8.347160	16.4	-0.014521	0.431610	-0.698957	-0.700326	0.048961	35.7226	-0.699985	-1.955787E+9	-2.503411E-11	NaN
799	1.000000	0.442990	7.37287e+06	-40089.1	1055.82	-29791.3	0.000000	0.000000	6.442914	-0.012640	NaN	0.000000	0.001591	0.001778	28.0842	0.068340	0.002115	32.3098	8.763750	-163.504	-0.012496	0.441687	-0.688946	-0.690249	-0.012640	32.3098	-0.688652	-1.369300E+9	9.230996E-12	NaN
799	1.000000	0.452999	7.37287e+06	-40089.1	1055.82	-29791.3	0.000000	0.000000	6.452922	-0.027110	NaN	0.000000	0.001547	0.001800	28.0842	0.072138	0.002012	35.8579	163.461	12.7182	0.071241	0.451631	-0.678937	-0.680304	-0.027110	35.8579	-0.678370	-9.906244E+8	2.736693E-11	NaN
799	1.000000	0.463004	7.37287e+06	-40089.1	1055.82	-29791.3	0.000000	0.000000	6.462927	-0.041708	NaN	0.000000	0.001616	0.001800	28.0842	0.015573	0.001927	8.079675	156.314	-163.271	-0.088909	0.461676	-0.668932	-0.670259	-0.041708	8.079675	-0.665060	-6.512750E+8	6.404115E-11	NaN
799	1.000000	0.472988	7.37287e+06	-40089.1	1055.82	-29791.3	0.000000	0.000000	6.472910	-0.055689	NaN	0.000000	0.001623	0.001803	28.0843	0.070025	0.002070	33.8265	-23.2351	15.3215	-0.043118	0.471655	-0.658947	-0.660281	-0.055689	33.8265	-0.657713	-5.165769E+8	1.078045E-10	NaN
799	1.000000	0.482967	7.37287e+06	-40089.1	1055.82	-29791.3	0.000000	0.000000	6.482892	0.025562	NaN	0.000000	0.001596	0.001808	28.0841	0.019472	0.001905	10.2226	82.5573	-167.679	0.011584	0.481669	-0.648969	-0.650266	0.025562	10.2226	-0.650844	-4.159189E+8	-6.145916E-11	NaN
799	1.000000	0.493007	7.37287e+06	-40089.1	1055.82	-29791.3	0.000000	0.000000	6.492932	0.004296	NaN	0.000000	0.001584	0.001826	28.0842	0.084491	0.002004	42.1628	-6.811335	10.0263	0.009018	0.491626	-0.638928	-0.640310	0.004296	42.1628	-0.639005	-2.861759E+8	-1.501113E-11	NaN
799	1.000000	0.503032	7.37287e+06	-40089.1	1055.82	-29791.3	0.000000	0.000000	6.502957	0.001503	NaN	0.000000	0.001626	0.001800	28.0826	0.064263	0.002140	30.0325	-69.4586	-167.197	0.053048	0.501707	-0.628903	-0.630229	0.001503	30.0325	-0.628941	-2.081990E+8	-7.221314E-12	NaN
799	1.000000	0.513015	7.37287e+06	-40089.1	1055.82	-29791.3	0.000000	0.000000	6.512939	-0.016803	NaN	0.000000	0.001577	0.001826	28.0827	0.070430	0.002127	33.118	116.022	17.4835	-0.024009	0.511648	-0.618920	-0.620287	-0.016803	33.118	-0.618540	-1.498175E+8	1.121538E-10	NaN
799	1.000000	0.523050	7.37287e+06	-40089.1	1055.82	-29791.3	0.000000	0.000000	6.522973	-0.038910	NaN	0.000000	0.001557	0.001822	28.0828	0.074249	0.002001	37.1087	-66.8461	-165.452	0.103595	0.521683	-0.608885	-0.610253	-0.038910	37.1087	-0.608099	-1.076359E+8	3.614988E-10	NaN
799	1.000000	0.533008	7.37287e+06	-40089.1	1055.82	-29791.3	0.000000	0.000000	6.532932	-0.018015	NaN	0.000000	0.001608	0.001810	28.0829	0.021441	0.001993	10.7578	156.958	16.4024	-0.100068	0.531669	-0.598927	-0.600267	-0.018015	10.7578	-0.597671	-7.733676E+7	2.329437E-10	NaN
799	1.000000	0.543034	7.37287e+06	-40089.1	1055.82	-29791.3	0.000000	0.000000	6.542959	0.012671	NaN	0.000000	0.001630	0.001795	28.083	0.042326	0.001925	21.9886	152.184	-166.376	-0.034595	0.541727	-0.588902	-0.590208	0.012671	21.9886	-0.589334	-5.935930E+7	-2.134656E-10	NaN
799	1.000000	0.553022	7.37287e+06	-40089.1	1055.82	-29791.3	0.000000	0.000000	6.552948	0.029526	NaN	0.000000	0.001650	0.001795	28.0833	0.078418	0.001924	40.7586	-122.443	14.9094	0.020863	0.551625	-0.578913	-0.580311	0.029526	40.7586	-0.579457	-4.337368E+7	-6.807394E-10	NaN
799	1.000000	0.563020	7.37287e+06	-40089.1	1055.82	-29791.3	0.000000	0.000000	6.562943	-0.049278	NaN	0.000000	0.001626	0.001816	28.083	0.017413	0.001973	8.823680	-148.355	-163.399	0.005116	0.561794	-0.568916	-0.570142	-0.049278	8.823680	-0.564727	-2.714887E+7	1.815100E-9	NaN
799	1.000000	0.573031	7.37287e+06	-40089.1	1055.82	-29791.3	0.000000	0.000000	6.572956	-0.000153	NaN	0.000000	0.001619	0.001797	28.0832	0.100564	0.002072	48.5267	22.841	19.1273	-0.060091	0.571762	-0.558904	-0.560173	-0.000153	48.5267	-0.558902	-2.255209E+7	6.774021E-12	NaN
799	1.000000	0.583042	7.37287e+06	-40089.1	1055.82	-29791.3	0.000000	0.000000	6.582965	-0.013922	NaN	0.000000	0.001661	0.001790	28.083	0.094088	0.001988	47.3237	38.3086	-166.371	-0.012129	0.581761	-0.548894	-0.550175	-0.013922	47.3237	-0.548673	-1.627723E+7	8.553315E-10	NaN
799	1.000000	0.593043	7.37287e+06	-40089.1	1055.82	-29791.3	0.000000	0.000000	6.592970	0.064756	NaN	0.000000	0.001639	0.001837	28.0834	0.093146	0.001950	47.7766	-179.835	16.8973	0.012933	0.591668	-0.538893	-0.540268	0.064756	47.7766	-0.539909	-1.230555E+7	-5.262375E-9	NaN
799	1.000000	0.603074	7.37287e+06	-40089.1	1055.82	-29791.3	0.000000	0.000000	6.602998	0.005269	NaN	0.000000	0.001641	0.001794	28.0828	0.066121	0.002035	32.4888	44.9845	-164.882	0.021030	0.601744	-0.528862	-0.530192	0.005269	32.4888	-0.528984	-8.67882e+06	-6.071238E-10	NaN
799	1.000000	0.613028	7.37287e+06	-40089.1	1055.82	-29791.3	0.000000	0.000000	6.612950	-0.055453	NaN	0.000000	0.001616	0.001784	28.0831	0.089382	0.001990	44.9121	-63.9325	12.1858	-0.027436	0.611698	-0.518908	-0.520237	-0.055453	44.9121	-0.517982	-6.10273e+06	9.086634E-9	NaN
799	1.000000	0.623026	7.37287e+06	-40089.1	1055.82	-29791.3	0.000000	0.000000	6.622950	-0.029832	NaN	0.000000	0.001663	0.001789	28.0828	0.053536	0.001957	27.3517	-92.7143	-165.573	-0.067895	0.621753	-0.508909	-0.510183	-0.029832	27.3517	-0.508091	-4.44454e+06	6.712167E-9	NaN
799	1.000000	0.633056	7.37287e+06	-40089.1	1055.82	-29791.3	0.000000	0.000000	6.632978	-0.052779	NaN	0.000000	0.001619	0.001813	28.0831	0.056085	0.002010	27.9029	44.4518	15.5308	0.024821	0.631720	-0.498880	-0.500216	-0.052779	27.9029	-0.497461	-3.15929e+06	1.670593E-8	NaN
799	1.000000	0.643057	7.37287e+06	-40089.1	1055.82	-29791.3	0.000000	0.000000	6.642982	0.031430	NaN	0.000000	0.001604	0.001800	28.0841	0.104898	0.001936	54.1809	-12.3803	-164.682	-0.027170	0.641766	-0.488879	-0.490169	0.031430	54.1809	-0.489314	-2.43112e+06	-1.292809E-8	NaN
799	1.000000	0.653070	7.37287e+06	-40089.1	1055.82	-29791.3	0.000000	0.000000	6.652991	-0.064566	NaN	0.000000	0.001660	0.001816	28.0843	0.121530	0.002026	59.9941	-178.057	15.5546	-0.064268	0.651736	-0.478866	-0.480200	-0.064566	59.9941	-0.478059	-1.69181e+06	3.816358E-8	NaN
799	1.000000	0.663090	7.37287e+06	-40089.1	1055.82	-29791.3	0.000000	0.000000	6.663016	0.034541	NaN	0.000000	0.001696	0.001792	28.0844	0.012762	0.001942	6.569978	8.136602	-165.899	0.042363	0.661788	-0.468846	-0.470148	0.034541	6.569978	-0.472789	-1.4273e+06	-2.420009E-8	NaN
799	1.000000	0.673087	7.37287e+06	-40089.1	1055.82	-29791.3	0.000000	0.000000	6.673012	0.012497	NaN	0.000000	0.001674	0.001777	28.0842	0.059811	0.002084	28.694	-169.346	13.8562	-0.084619	0.671714	-0.458848	-0.460221	0.012497	28.694	-0.459175	-919228	-1.359483E-8	NaN
799	1.000000	0.683076	7.37287e+06	-40089.1	1055.82	-29791.3	0.000000	0.000000	6.682999	-0.033482	NaN	0.000000	0.001690	0.001783	28.0841	0.002938	0.001989	1.477526	-80.989	-162.875	-0.124414	0.681805	-0.448859	-0.450131	-0.033482	1.477526	-0.431864	-378809	8.838839E-8	NaN
799	1.000000	0.693102	7.37287e+06	-40089.1	1055.82	-29791.3	0.000000	0.000000	6.693029	0.051499	NaN	0.000000	0.001647	0.001787	28.0841	0.099877	0.002023	49.3638	156.757	11.092	0.044173	0.691743	-0.438834	-0.440193	0.051499	49.3638	-0.439616	-487465	-1.056459E-7	NaN
799	1.000000	0.703081	7.37287e+06	-40089.1	1055.82	-29791.3	0.000000	0.000000	6.703005	-0.029136	NaN	0.000000	0.001681	0.001823	28.0843	0.075696	0.001956	38.7049	128.925	-163.28	0.050375	0.701769	-0.428854	-0.430167	-0.029136	38.7049	-0.428290	-337180	8.641077E-8	NaN
799	1.000000	0.713094	7.37287e+06	-40089.1	1055.82	-29791.3	0.000000	0.000000	6.713014	-0.089407	NaN	0.000000	0.001644	0.001799	28.084	0.084497	0.002055	41.1225	-144.986	13.387	-0.068937	0.711734	-0.418842	-0.420202	-0.089407	41.1225	-0.417212	-234884	3.806420E-7	NaN
799	1.000000	0.723119	7.37287e+06	-40089.1	1055.82	-29791.3	0.000000	0.000000	6.723045	0.029275	NaN	0.000000	0.001633	0.001804	28.084	0.049949	0.001971	25.3412	82.1912	-163.731	0.037235	0.721797	-0.408816	-0.410139	0.029275	25.3412	-0.409683	-183607	-1.594421E-7	NaN
799	1.000000	0.733125	7.37287e+06	-40089.1	1055.82	-29791.3	0.000000	0.000000	6.733046	-0.088311	NaN	0.000000	0.001652	0.001803	28.0841	0.106887	0.001967	54.3274	105.985	16.5858	0.012998	0.731776	-0.398811	-0.400159	-0.088311	54.3274	-0.397591	-123491	7.151220E-7	NaN
799	1.000000	0.743131	7.37287e+06	-40089.1	1055.82	-29791.3	0.000000	0.000000	6.743054	-0.037764	NaN	0.000000	0.001628	0.001807	28.0839	0.081520	0.002037	40.0277	-29.933	-168.913	0.009476	0.741790	-0.388805	-0.390145	-0.037764	40.0277	-0.388097	-90352.9	4.179615E-7	NaN
799	1.000000	0.753086	7.37287e+06	-40089.1	1055.82	-29791.3	0.000000	0.000000	6.753009	-0.035864	NaN	0.000000	0.001642	0.001808	28.0838	0.110747	0.002008	55.1604	-97.9938	18.0671	-0.062059	0.751751	-0.378849	-0.380185	-0.035864	55.1604	-0.378362	-65519.8	5.473703E-7	NaN
799	1.000000	0.763148	7.37287e+06	-40089.1	1055.82	-29791.3	0.000000	0.000000	6.763071	-0.030148	NaN	0.000000	0.001625	0.001822	28.084	0.128513	0.001968	65.3129	-151.975	-166.248	-0.106593	0.761852	-0.368787	-0.370084	-0.030148	65.3129	-0.368441	-47170.8	6.391177E-7	NaN
799	1.000000	0.773116	7.37287e+06	-40089.1	1055.82	-29791.3	0.000000	0.000000	6.773040	-0.021630	NaN	0.000000	0.001653	0.001780	28.0836	0.029486	0.001962	15.0254	143.35	13.0365	-0.059868	0.771806	-0.358820	-0.360130	-0.021630	15.0254	-0.357740	-33049.2	6.544773E-7	NaN
799	1.000000	0.783117	7.37287e+06	-40089.1	1055.82	-29791.3	0.000000	0.000000	6.783040	-0.032373	NaN	0.000000	0.001687	0.001792	28.0825	0.038414	0.002010	19.1156	-146.867	-168.101	-0.000188	0.781829	-0.348819	-0.350107	-0.032373	19.1156	-0.347549	-23518.4	1.376489E-6	NaN
799	1.000000	0.793124	7.37287e+06	-40089.1	1055.82	-29791.3	0.000000	0.000000	6.793050	0.054753	NaN	0.000000	0.001672	0.001773	28.083	0.097756	0.002128	45.9407	-82.9045	12.6507	-0.005475	0.791713	-0.338812	-0.340223	0.054753	45.9407	-0.339706	-18082.9	-3.027870E-6	NaN
799	1.000000	0.803128	7.37287e+06	-40089.1	1055.82	-29791.3	0.000000	0.000000	6.803054	0.027465	NaN	0.000000	0.001683	0.001845	28.083	0.048512	0.001893	25.6297	-101.345	-164.754	0.078336	0.801833	-0.328808	-0.330103	0.027465	25.6297	-0.329611	-12875.3	-2.133149E-6	NaN
799	1.000000	0.813169	7.37287e+06	-40089.1	1055.82	-29791.3	0.000000	0.000000	6.813093	0.012774	NaN	0.000000	0.001668	0.001820	28.083	0.092081	0.002029	45.3779	130.56	19.004	-0.044906	0.811810	-0.318767	-0.320126	0.012774	45.3779	-0.318978	-8986.63	-1.421494E-6	NaN
799	1.000000	0.823148	7.37287e+06	-40089.1	1055.82	-29791.3	0.000000	0.000000	6.823071	-0.023402	NaN	0.000000	0.001696	0.001786	28.0828	0.061030	0.002110	28.9274	77.9336	-163.533	0.008047	0.821893	-0.308788	-0.310043	-0.023402	28.9274	-0.308181	-6224.85	3.759378E-6	NaN
799	1.000000	0.833168	7.37287e+06	-40089.1	1055.82	-29791.3	0.000000	0.000000	6.833093	0.013055	NaN	0.000000	0.001688	0.001809	28.0829	0.044872	0.001979	22.6728	-163.968	13.9158	0.025904	0.831785	-0.298768	-0.300151	0.013055	22.6728	-0.299199	-4578.4	-2.851391E-6	NaN
799	1.000000	0.843173	7.37287e+06	-40089.1	1055.82	-29791.3	0.000000	0.000000	6.843097	-0.027853	NaN	0.000000	0.001677	0.001815	28.0831	0.054597	0.001980	27.5766	-43.3249	-165.159	-0.031548	0.841817	-0.288762	-0.290119	-0.027853	27.5766	-0.288005	-3114.52	8.942919E-6	NaN
799	1.000000	0.853170	7.37287e+06	-40089.1	1055.82	-29791.3	0.000000	0.000000	6.853092	-0.064934	NaN	0.000000	0.001690	0.001784	28.083	0.048051	0.001918	25.0467	96.8649	14.1174	-0.048802	0.851818	-0.278766	-0.280118	-0.064934	25.0467	-0.276821	-2113.28	3.072634E-5	NaN
799	1.000000	0.863163	7.37287e+06	-40089.1	1055.82	-29791.3	0.000000	0.000000	6.863088	0.008996	NaN	0.000000	0.001682	0.001820	28.0829	0.015985	0.001968	8.123369	-59.9446	-161.613	0.044220	0.861861	-0.268773	-0.270075	0.008996	8.123369	-0.269603	-1642.52	-5.476822E-6	NaN
799	1.000000	0.873184	7.37287e+06	-40089.1	1055.82	-29791.3	0.000000	0.000000	6.873111	0.055577	NaN	0.000000	0.001654	0.001800	28.0828	0.059771	0.002184	27.3719	95.4701	13.5886	0.067570	0.871865	-0.258752	-0.260071	0.055577	27.3719	-0.260275	-1183.38	-4.696494E-5	NaN
799	1.000000	0.883157	7.37287e+06	-40089.1	1055.82	-29791.3	0.000000	0.000000	6.883079	-0.059294	NaN	0.000000	0.001639	0.001779	28.0831	0.082523	0.002065	39.9665	158.46	-168.353	-0.011040	0.881845	-0.248779	-0.250091	-0.059294	39.9665	-0.247666	-756.538	7.837484E-5	NaN
799	1.000000	0.893193	7.37287e+06	-40089.1	1055.82	-29791.3	0.000000	0.000000	6.893117	-0.002115	NaN	0.000000	0.001572	0.001766	28.083	0.104957	0.002020	51.9623	164.157	13.5522	-0.077558	0.891750	-0.238743	-0.240185	-0.002115	51.9623	-0.238712	-548.816	3.853905E-6	NaN
799	1.000000	0.903203	7.37287e+06	-40089.1	1055.82	-29791.3	0.000000	0.000000	6.903124	-0.068010	NaN	0.000000	0.001621	0.001796	28.083	0.069328	0.001963	35.3148	-39.6956	-164.545	-0.071227	0.901879	-0.228733	-0.230056	-0.068010	35.3148	-0.227289	-362.775	0.000187	NaN
799	1.000000	0.913176	7.37287e+06	-40089.1	1055.82	-29791.3	0.000000	0.000000	6.913098	-0.037448	NaN	0.000000	0.001618	0.001835	28.084	0.022530	0.002096	10.7485	46.6038	12.6681	0.007023	0.911834	-0.218760	-0.220102	-0.037448	10.7485	-0.216147	-240.963	0.000155	NaN
799	1.000000	0.923172	7.37287e+06	-40089.1	1055.82	-29791.3	0.000000	0.000000	6.923097	0.006241	NaN	0.000000	0.001626	0.001792	28.0842	0.029793	0.001940	15.3539	175.534	-164.639	0.097246	0.921864	-0.208764	-0.210071	0.006241	15.3539	-0.209069	-185.236	-3.369228E-5	NaN
799	1.000000	0.933201	7.37287e+06	-40089.1	1055.82	-29791.3	0.000000	0.000000	6.933125	-0.018394	NaN	0.000000	0.001621	0.001771	28.084	0.089623	0.002113	42.4232	162.303	12.7516	0.002444	0.931847	-0.198735	-0.200088	-0.018394	42.4232	-0.198410	-124.031	0.000148	NaN
799	1.000000	0.943222	7.37287e+06	-40089.1	1055.82	-29791.3	0.000000	0.000000	6.943148	0.038924	NaN	0.000000	0.001627	0.001768	28.084	0.070178	0.002032	34.5341	56.6435	-166.103	-0.016102	0.941913	-0.188714	-0.190023	0.038924	34.5341	-0.189559	-88.4414	-0.000440	NaN
799	1.000000	0.953211	7.37287e+06	-40089.1	1055.82	-29791.3	0.000000	0.000000	6.953137	0.048935	NaN	0.000000	0.001565	0.001819	28.0843	0.021804	0.001884	11.5753	66.9814	11.2353	0.085545	0.951857	-0.178725	-0.180079	0.048935	11.5753	-0.181895	-65.7139	-0.000745	NaN
799	1.000000	0.963200	7.37287e+06	-40089.1	1055.82	-29791.3	0.000000	0.000000	6.963121	-0.076123	NaN	0.000000	0.001593	0.001802	28.084	0.053943	0.002032	26.5462	-100.703	-167.695	-0.120786	0.961926	-0.168736	-0.170009	-0.076123	26.5462	-0.166585	-35.8171	0.002125	NaN
799	1.000000	0.973191	7.37287e+06	-40089.1	1055.82	-29791.3	0.000000	0.000000	6.973117	0.051480	NaN	0.000000	0.001598	0.001788	28.0842	0.039248	0.002026	19.377	-71.2528	13.4896	0.132226	0.971877	-0.158745	-0.160059	0.051480	19.377	-0.160738	-28.2543	-0.001822	NaN
799	1.000000	0.983216	7.37287e+06	-40089.1	1055.82	-29791.3	0.000000	0.000000	6.983138	-0.041982	NaN	0.000000	0.001615	0.001788	28.084	0.075159	0.001962	38.3106	-165.481	-162.315	-0.105328	0.981927	-0.148720	-0.150008	-0.041982	38.3106	-0.147898	-16.5791	0.002532	NaN
799	1.000000	0.993179	7.37287e+06	-40089.1	1055.82	-29791.3	0.000000	0.000000	6.993103	-0.004917	NaN	0.000000	0.001626	0.001787	28.0845	0.088201	0.002004	44.0081	111.015	14.2465	-0.000701	0.991854	-0.138757	-0.140082	-0.004917	44.0081	-0.138673	-11.1684	0.000440	NaN
799	1.000000	1.003221	7.37287e+06	-40089.1	1055.82	-29791.3	0.000000	0.000000	7.003146	0.006992	NaN	0.000000	0.001632	0.001819	28.0842	0.035310	0.002045	17.2655	17.1633	-168.857	0.002408	1.001900	-0.128715	-0.130036	0.006992	17.2655	-0.129018	-7.293016	-0.000959	NaN
799	1.000000	1.013225	7.37287e+06	-40089.1	1055.82	-29791.3	0.000000	0.000000	7.013149	0.001805	NaN	0.000000	0.001671	0.001804	28.084	0.061907	0.001959	31.5941	68.6276	11.138	-0.011267	1.011875	-0.118711	-0.120061	0.001805	31.5941	-0.118754	-4.559023	-0.000396	NaN
799	1.000000	1.023204	7.37287e+06	-40089.1	1055.82	-29791.3	0.000000	0.000000	7.023126	-0.069677	NaN	0.000000	0.001653	0.001751	28.0841	0.062230	0.002113	29.4496	-171.81	-165.629	-0.014003	1.021916	-0.108732	-0.110020	-0.069677	29.4496	-0.106957	-2.589695	0.026906	NaN
799	1.000000	1.033211	7.37288e+06	-40089.1	1055.82	-29791.3	0.000000	0.000000	7.033133	-0.059178	NaN	0.000000	0.001697	0.001809	28.0843	0.055206	0.002001	27.593	99.3764	14.4528	-0.029348	1.031866	-0.098725	-0.100069	-0.059178	27.593	-0.097116	-1.575228	0.037568	NaN
799	1.000000	1.043230	7.37288e+06	-40089.1	1055.82	-29791.3	0.000000	0.000000	7.043155	0.013441	NaN	0.000000	0.001622	0.001780	28.0841	0.082527	0.001988	41.5104	50.9538	-165.369	-0.006205	1.041931	-0.088706	-0.090004	0.013441	41.5104	-0.088948	-1.021091	-0.013164	NaN
799	1.000000	1.053234	7.37288e+06	-40089.1	1055.82	-29791.3	0.000000	0.000000	7.053156	-0.060950	NaN	0.000000	0.001561	0.001783	28.0829	0.022930	0.002079	11.0315	104.316	18.2818	0.019271	1.051895	-0.078702	-0.080041	-0.060950	11.0315	-0.074558	-0.449848	0.135491	NaN
799	1.000000	1.063250	7.37288e+06	-40089.1	1055.82	-29791.3	0.000000	0.000000	7.063173	-0.033420	NaN	0.000000	0.001623	0.001767	28.0829	0.054914	0.002042	26.8905	-80.5546	-165.567	-0.041880	1.061936	-0.068686	-0.070000	-0.033420	26.8905	-0.067754	-0.296653	0.112655	NaN
799	1.000000	1.073237	7.37288e+06	-40089.1	1055.82	-29791.3	0.000000	0.000000	7.073162	0.019585	NaN	0.000000	0.001599	0.001822	28.083	0.135402	0.002000	67.6987	-134.243	14.6123	0.020163	1.071897	-0.058698	-0.060039	0.019585	67.6987	-0.058915	-0.167602	-0.116854	NaN
799	1.000000	1.083246	7.37288e+06	-40089.1	1055.82	-29791.3	0.000000	0.000000	7.083171	0.019975	NaN	0.000000	0.001609	0.001800	28.0828	0.026431	0.002038	12.9715	168.184	-168.077	-0.091391	1.081953	-0.048690	-0.049983	0.019975	12.9715	-0.049844	-0.090268	-0.221281	NaN
799	1.000000	1.093271	7.37288e+06	-40089.1	1055.82	-29791.3	0.000000	0.000000	7.093197	0.020283	NaN	0.000000	0.001632	0.001785	28.083	0.050443	0.002019	24.9839	-154.023	10.7395	0.010401	1.091870	-0.038664	-0.040066	0.020283	24.9839	-0.039273	-0.042984	-0.471870	NaN
799	1.000000	1.103253	7.37288e+06	-40089.1	1055.82	-29791.3	0.000000	0.000000	7.103177	0.003064	NaN	0.000000	0.001619	0.001780	28.0828	0.142382	0.001876	75.8841	-137.304	-167.845	0.064086	1.101906	-0.028683	-0.030030	0.003064	75.8841	-0.028713	-0.021204	-0.144488	NaN
799	1.000000	1.113273	7.37288e+06	-40089.1	1055.82	-29791.3	0.000000	0.000000	7.113199	0.048853	NaN	0.000000	0.001560	0.001790	28.0827	0.137984	0.002114	65.2586	155.873	13.4139	0.081974	1.111854	-0.018663	-0.020081	0.048853	65.2586	-0.019225	-0.012002	-4.070369	NaN
799	1.000000	1.123249	7.37288e+06	-40089.1	1055.82	-29791.3	0.000000	0.000000	7.123172	-0.031667	NaN	0.000000	0.001629	0.001799	28.0827	0.080559	0.001997	40.3417	-20.474	-170.536	-0.080977	1.121965	-0.008687	-0.009970	-0.031667	40.3417	-0.008098	-0.005289	5.987325	NaN
799	1.000000	1.133239	7.37288e+06	-40089.1	1055.82	-29791.3	0.000000	0.000000	7.133461	7.241767	NaN	0.000000	0.001598	0.001795	28.0827	7.503120	0.001754	4276.63	15.5536	5.334358	6.158019	1.131886	0.001303	-4.966981E-5	7.241767	4276.63	3.329829E-5	2.490016E-5	290832	783021
799	2.000000	1.136847	7.37288e+06	-40089.1	1055.82	-29791.3	0.000000	0.000000	7.137254	11.7577	NaN	0.000000	0.001609	0.001817	28.0829	10.4063	0.001595	6525.75	5.997673	-174.069	11.3772	1.136570	0.004911	0.004635	11.7577	6525.75	0.003560	0.002856	4116.37	111558
799	2.000000	1.139313	7.37288e+06	-40089.1	1055.82	-29791.3	0.000000	0.000000	7.139857	15.0644	NaN	0.000000	0.001572	0.001788	28.0828	13.2162	0.001696	7790.45	4.306095	7.247687	14.02	1.139001	0.007378	0.007065	15.0644	7790.45	0.005927	0.004996	3015.52	100703
799	2.000000	1.141818	7.37288e+06	-40089.1	1055.82	-29791.3	0.000000	0.000000	7.142549	19.6377	NaN	0.000000	0.001610	0.001763	28.0827	15.8271	0.001637	9668.5	4.527785	-175.462	18.5361	1.141534	0.009882	0.009599	19.6377	9668.5	0.008359	0.007414	2648.73	102590
799	2.000000	1.144318	7.37288e+06	-40089.1	1055.82	-29791.3	0.000000	0.000000	7.145215	23.6816	NaN	0.000000	0.001578	0.001811	28.0829	18.1897	0.001607	11318	5.623808	1.697804	22.1801	1.143953	0.012382	0.012018	23.6816	11318	0.010813	0.010099	2345.04	102899
799	2.000000	1.146745	7.37288e+06	-40089.1	1055.82	-29791.3	0.000000	0.000000	7.147903	30.0192	NaN	0.000000	0.001544	0.001787	28.0838	21.569	0.001974	10927.4	7.749907	-177.824	28.9277	1.146455	0.014809	0.014519	30.0192	10927.4	0.012748	0.012399	2421.1	89659.1
799	2.000000	1.149284	7.37288e+06	-40089.1	1055.82	-29791.3	0.000000	0.000000	7.150604	33.9529	NaN	0.000000	0.001602	0.001789	28.0843	23.4875	0.001894	12400.1	7.830425	-0.469218	33.5444	1.148915	0.017349	0.016980	33.9529	12400.1	0.015295	0.015681	2165.25	90472.3
799	2.000000	1.151780	7.37288e+06	-40089.1	1055.82	-29791.3	0.000000	0.000000	7.153271	38.1299	NaN	0.000000	0.001580	0.001789	28.0839	25.9907	0.001932	13456	8.059849	178.996	37.6741	1.151488	0.019844	0.019552	38.1299	13456	0.017719	0.019084	1998	88992.7
799	2.000000	1.154240	7.37288e+06	-40089.1	1055.82	-29791.3	0.000000	0.000000	7.156055	46.0064	NaN	0.000000	0.001589	0.001815	28.0841	27.1642	0.001815	14968.6	7.000967	-0.533902	44.3251	1.153943	0.022304	0.022007	46.0064	14968.6	0.019999	0.022540	2041.09	91091.1
799	2.000000	1.156701	7.37288e+06	-40089.1	1055.82	-29791.3	0.000000	0.000000	7.158837	53.8135	NaN	0.000000	0.001594	0.001786	28.084	28.343	0.001774	15980.8	1.560800	-176.665	51.0268	1.156437	0.024766	0.024501	53.8135	15980.8	0.022240	0.026185	2055.09	90228.3
799	2.000000	1.159284	7.37288e+06	-40089.1	1055.82	-29791.3	0.000000	0.000000	7.161642	59.2214	NaN	0.000000	0.001621	0.001792	28.084	32.1805	0.001764	18239.8	8.730241	-4.830824	58.6427	1.158840	0.027349	0.026904	59.2214	18239.8	0.024913	0.030858	1919.13	94864.9
799	2.000000	1.161744	7.37288e+06	-40089.1	1055.82	-29791.3	0.000000	0.000000	7.164530	69.6165	NaN	0.000000	0.001605	0.001832	28.0837	33.8369	0.001777	19039	1.592288	-177.275	69.7842	1.161485	0.029809	0.029550	69.6165	19039	0.027066	0.034882	1995.76	93135.4
799	2.000000	1.164217	7.37288e+06	-40089.1	1055.82	-29791.3	0.000000	0.000000	7.167414	79.6227	NaN	0.000000	0.001575	0.001820	28.084	35.9769	0.001805	19930.1	2.219622	2.217463	76.8862	1.163807	0.032281	0.031871	79.6227	19930.1	0.029285	0.039275	2027.31	91880.9
799	2.000000	1.166697	7.37288e+06	-40089.1	1055.82	-29791.3	0.000000	0.000000	7.170340	90.4881	NaN	0.000000	0.001617	0.001817	28.0839	38.9004	0.001783	21812.1	6.417344	176.708	89.1441	1.166410	0.034761	0.034475	90.4881	21812.1	0.031650	0.044233	2045.71	94753.9
799	2.000000	1.169179	7.37288e+06	-40089.1	1055.82	-29791.3	0.000000	0.000000	7.173261	101.165	NaN	0.000000	0.001600	0.001800	28.0839	40.7819	0.001785	22843.1	3.589250	0.150497	98.3049	1.168855	0.037243	0.036919	101.165	22843.1	0.033922	0.049265	2053.49	94028.6
799	2.000000	1.171707	7.37288e+06	-40089.1	1055.82	-29791.3	0.000000	0.000000	7.176222	111.703	NaN	0.000000	0.001550	0.001833	28.0838	44.3063	0.001829	24229.4	3.084300	178.771	110.182	1.171436	0.039771	0.039500	111.703	24229.4	0.036314	0.054849	2036.56	94522.2
799	2.000000	1.174290	7.37288e+06	-40089.1	1055.82	-29791.3	0.000000	0.000000	7.179264	122.877	NaN	0.000000	0.001555	0.001824	28.0848	46.7117	0.001812	25772.8	10.3966	-7.699527	124.322	1.173836	0.042354	0.041900	122.877	25772.8	0.038779	0.060910	2017.35	95409.2
799	2.000000	1.176683	7.37288e+06	-40089.1	1055.82	-29791.3	0.000000	0.000000	7.182166	135.288	NaN	0.000000	0.001582	0.001839	28.0839	47.4335	0.001687	28111.6	2.831278	177.842	132.293	1.176393	0.044747	0.044457	135.288	28111.6	0.041137	0.067001	2019.2	99224.5
799	2.000000	1.179245	7.37288e+06	-40089.1	1055.82	-29791.3	0.000000	0.000000	7.185182	146.306	NaN	0.000000	0.001592	0.001838	28.0839	50.8268	0.001650	30813	2.473184	-2.507311	145.796	1.178922	0.047309	0.046986	146.306	30813	0.043748	0.074073	1975.17	103437
799	2.000000	1.181657	7.37288e+06	-40089.1	1055.82	-29791.3	0.000000	0.000000	7.188109	158.836	NaN	0.000000	0.001599	0.001834	28.0823	54.421	0.001836	29634.3	4.532279	175.679	155.672	1.181465	0.049722	0.049529	158.836	29634.3	0.045702	0.079592	1995.64	95969.6
799	2.000000	1.184198	7.37288e+06	-40089.1	1055.82	-29791.3	0.000000	0.000000	7.191310	174.907	NaN	0.000000	0.001577	0.001819	28.0826	55.3628	0.001766	31348.5	2.224355	-2.210451	171.627	1.183895	0.052262	0.051960	174.907	31348.5	0.048078	0.086564	2020.54	97346.4
799	2.000000	1.186658	7.37288e+06	-40089.1	1055.82	-29791.3	0.000000	0.000000	7.194384	189.857	NaN	0.000000	0.001603	0.001854	28.0825	58.0827	0.001879	30914.3	4.514932	175.552	187.955	1.186362	0.054722	0.054426	189.857	30914.3	0.050116	0.092771	2046.51	92731.1
799	2.000000	1.189209	7.37288e+06	-40089.1	1055.82	-29791.3	0.000000	0.000000	7.197518	204.032	NaN	0.000000	0.001599	0.001808	28.0825	59.6254	0.001762	33839.3	4.901746	-5.178755	201.976	1.188804	0.057273	0.056868	204.032	33839.3	0.052751	0.101107	2017.99	97230.9
799	2.000000	1.191758	7.37288e+06	-40089.1	1055.82	-29791.3	0.000000	0.000000	7.200221	207.778	NaN	0.000000	0.001597	0.001794	28.0825	62.6929	0.001656	37853.1	2.287433	175.268	210.014	1.191561	0.059822	0.059625	207.778	37853.1	0.055705	0.110860	1874.25	103870
799	2.000000	1.194237	7.37288e+06	-40089.1	1055.82	-29791.3	0.000000	0.000000	7.203540	228.199	NaN	0.000000	0.001590	0.001854	28.0827	65.4287	0.001807	36204.2	3.711935	-5.210738	227.208	1.193951	0.062302	0.062015	228.199	36204.2	0.057574	0.117254	1946.19	96598
799	2.000000	1.196651	7.37288e+06	-40089.1	1055.82	-29791.3	0.000000	0.000000	7.206877	250.674	NaN	0.000000	0.001584	0.001835	28.0825	67.4192	0.001735	38856.6	4.774444	172.809	247.318	1.196380	0.064715	0.064444	250.674	38856.6	0.059877	0.125366	1999.53	100265
799	2.000000	1.199071	7.37288e+06	-40089.1	1055.82	-29791.3	0.000000	0.000000	7.209841	263.929	NaN	0.000000	0.001551	0.001792	28.0827	70.8831	0.001793	39542.5	3.938744	-6.433968	256.992	1.198834	0.067135	0.066898	263.929	39542.5	0.062129	0.133553	1976.21	98857.5
799	2.000000	1.201629	7.37288e+06	-40089.1	1055.82	-29791.3	0.000000	0.000000	7.213280	285.37	NaN	0.000000	0.001656	0.001815	28.0825	74.2799	0.001793	41420.7	3.744221	173.66	282.1	1.201339	0.069693	0.069403	285.37	41420.7	0.064526	0.142535	2002.11	100237
799	2.000000	1.204196	7.37288e+06	-40089.1	1055.82	-29791.3	0.000000	0.000000	7.216596	303.575	NaN	0.000000	0.001699	0.001828	28.0828	75.9007	0.001745	43500.1	4.392725	-6.805917	301.909	1.203804	0.072261	0.071868	303.575	43500.1	0.067027	0.152203	1994.53	101871
799	2.000000	1.206603	7.37288e+06	-40089.1	1055.82	-29791.3	0.000000	0.000000	7.219880	324.941	NaN	0.000000	0.001660	0.001804	28.0827	78.8469	0.001822	43282	9.189490	168.626	321.015	1.206288	0.074667	0.074352	324.941	43282	0.069036	0.160190	2028.48	98801.5
799	2.000000	1.209063	7.37288e+06	-40089.1	1055.82	-29791.3	0.000000	0.000000	7.222925	339.155	NaN	0.000000	0.001640	0.001833	28.0829	80.6155	0.001764	45711.8	4.182037	-6.910021	330.07	1.208790	0.077127	0.076854	339.155	45711.8	0.071563	0.170503	1989.15	101143
799	2.000000	1.211611	7.37288e+06	-40089.1	1055.82	-29791.3	0.000000	0.000000	7.226428	362.403	NaN	0.000000	0.001700	0.001826	28.0825	83.3954	0.001734	48081.6	2.998781	173.551	358.74	1.211292	0.079675	0.079356	362.403	48081.6	0.074023	0.180835	2004.05	103302
799	2.000000	1.214133	7.37288e+06	-40089.1	1055.82	-29791.3	0.000000	0.000000	7.229718	381.102	NaN	0.000000	0.001639	0.001833	28.0829	85.5973	0.001836	46611.2	3.938597	-6.958254	376.333	1.213780	0.082197	0.081844	381.102	46611.2	0.076065	0.189630	2009.71	97793.5
799	2.000000	1.216629	7.37288e+06	-40089.1	1055.82	-29791.3	0.000000	0.000000	7.233170	404.37	NaN	0.000000	0.001594	0.001838	28.0838	86.8133	0.001822	47637.1	2.491186	174.935	399.878	1.216242	0.084693	0.084306	404.37	47637.1	0.078326	0.199598	2025.92	97418.2
799	2.000000	1.219098	7.37288e+06	-40089.1	1055.82	-29791.3	0.000000	0.000000	7.236137	416.455	NaN	0.000000	0.001616	0.001806	28.084	89.7063	0.001866	48064.2	4.282804	-8.131527	408.814	1.218893	0.087163	0.086957	416.455	48064.2	0.080664	0.210154	1981.67	95791.5
799	2.000000	1.221640	7.37288e+06	-40089.1	1055.82	-29791.3	0.000000	0.000000	7.239760	442.759	NaN	0.000000	0.001587	0.001795	28.084	92.2168	0.001764	52287.7	4.284580	171.419	439.98	1.221273	0.089705	0.089337	442.759	52287.7	0.083354	0.222611	1988.94	101251
799	2.000000	1.224198	7.37288e+06	-40089.1	1055.82	-29791.3	0.000000	0.000000	7.242941	457.912	NaN	0.000000	0.001602	0.001767	28.0842	94.1935	0.001909	49344.8	5.759083	-9.401076	456.883	1.223866	0.092263	0.091930	457.912	49344.8	0.085303	0.231848	1975.05	93629.4
799	2.000000	1.226583	7.37288e+06	-40089.1	1055.82	-29791.3	0.000000	0.000000	7.246376	483.478	NaN	0.000000	0.001566	0.001812	28.0839	95.0561	0.001750	54304.3	2.538757	172.993	479.094	1.226328	0.094648	0.094392	483.478	54304.3	0.087970	0.244775	1975.2	100282
799	2.000000	1.229075	7.37288e+06	-40089.1	1055.82	-29791.3	0.000000	0.000000	7.249841	507.165	NaN	0.000000	0.001602	0.001806	28.0841	97.552	0.001816	53709.4	4.561924	-8.566716	501.291	1.228701	0.097139	0.096765	507.165	53709.4	0.090057	0.255113	1988	97153.3
799	2.000000	1.231754	7.37288e+06	-40089.1	1055.82	-29791.3	0.000000	0.000000	7.253243	524.766	NaN	0.000000	0.001584	0.001821	28.0842	99.8607	0.001738	57470.4	2.529883	172.858	530.079	1.231394	0.099818	0.099458	524.766	57470.4	0.092970	0.269881	1944.44	101072
799	2.000000	1.233278	7.37288e+06	-40089.1	1055.82	-29791.3	0.000000	0.000000	7.254781	525.106	NaN	0.000000	0.001632	0.001816	28.084	100.598	0.001791	56167.4	1.728422	-6.504661	529.096	1.233050	0.101342	0.101114	525.106	56167.4	0.094331	0.276913	1896.28	97518.1