File: remote_trans/data/nanoindenter/0828-1/data/Data_2025-08-06,11h17m57s/2025-07-22_16-23-58_1_344.txt
2025-07-22, 16:23:58, 1
Index	Phase	Displacement	Time	Pos X	Pos Y	Pos Z	Rot A	Rot B	Piezo Z	Force A	Force B	Gripper	Voltage A	Voltage B	Temperature	Amplitude force	Amplitude pos	Stiffness	Phase shift	Phase excitation	Force A raw	Displacement raw	HMax	HMax raw	Real Force	Real Stiffness	Contact Depth	Area	Hardness	Reduced Mod.
[#]	[#]	[um]	[s]	[um]	[um]	[um]	[m°]	[m°]	[um]	[uN]	[uN]	[V]	[V]	[V]	[°C]	[uN]	[um]	[N/m]	[°]	[°]	[uN]	[um]	[um]	[um]	[uN]	[N/m]	[um]	[um^2]	[MPa]	[MPa]
344	1.000000	0.002517	7.36843e+06	-55839.1	955.818	-29740.9	0.000000	0.000000	6.002798	0.001817	NaN	0.000000	0.001598	0.001720	28.0784	0.070648	0.000861	82.0111	154.317	-169.597	-0.023369	0.001240	-1.022481	-1.023757	0.001817	82.0111	-1.022498	-4.555749E+13	-3.987775E-17	NaN
344	1.000000	0.010454	7.36843e+06	-55839.1	955.82	-29740.9	0.000000	0.000000	6.010736	0.017342	NaN	0.000000	0.001595	0.001734	28.0785	0.023628	0.000900	26.2628	113.323	-162.782	-0.029562	0.009145	-1.014544	-1.015853	0.017342	26.2628	-1.015039	-3.615744E+13	-4.796379E-16	NaN
344	1.000000	0.018466	7.36843e+06	-55839.1	955.818	-29740.9	0.000000	0.000000	6.018746	-0.029324	NaN	0.000000	0.001584	0.001688	28.0784	0.071768	0.001848	38.8272	-58.398	-168.084	0.005943	0.017207	-1.006531	-1.007791	-0.029324	38.8272	-1.005965	-2.729419E+13	1.074383E-15	NaN
344	1.000000	0.026490	7.36843e+06	-55839.1	955.818	-29740.9	0.000000	0.000000	6.026771	-0.005680	NaN	0.000000	0.001585	0.001681	28.0784	0.081840	0.001782	45.9194	-171.684	-166.007	-0.072058	0.025147	-0.998508	-0.999851	-0.005680	45.9194	-0.998415	-2.159870E+13	2.629793E-16	NaN
344	1.000000	0.034461	7.36843e+06	-55839.1	955.819	-29740.9	0.000000	0.000000	6.034741	-0.037952	NaN	0.000000	0.001622	0.001701	28.0781	0.071252	0.001901	37.4772	10.7432	-166.983	-0.040988	0.033183	-0.990537	-0.991815	-0.037952	37.4772	-0.989777	-1.652398E+13	2.296768E-15	NaN
344	1.000000	0.042476	7.36843e+06	-55839.1	955.819	-29740.9	0.000000	0.000000	6.042754	-0.059739	NaN	0.000000	0.001603	0.001708	28.0783	0.062997	0.001909	32.9957	122.963	-167.185	-0.066500	0.041160	-0.982522	-0.983838	-0.059739	32.9957	-0.981164	-1.265015E+13	4.722370E-15	NaN
344	1.000000	0.050463	7.36843e+06	-55839.1	955.818	-29740.9	0.000000	0.000000	6.050745	0.006144	NaN	0.000000	0.001573	0.001733	28.0795	0.090117	0.001907	47.2555	-123.464	-166.628	0.057281	0.049139	-0.974535	-0.975859	0.006144	47.2555	-0.974632	-1.032969E+13	-5.947847E-16	NaN
344	1.000000	0.058467	7.36843e+06	-55839.1	955.818	-29740.9	0.000000	0.000000	6.058750	0.039609	NaN	0.000000	0.001606	0.001743	28.0799	0.050751	0.002155	23.5464	73.4547	-168.177	0.031915	0.057150	-0.966531	-0.967848	0.039609	23.5464	-0.967792	-8.354259E+12	-4.741165E-15	NaN
344	1.000000	0.066490	7.36843e+06	-55839.1	955.817	-29740.9	0.000000	0.000000	6.066772	0.011671	NaN	0.000000	0.001594	0.001696	28.0796	0.054223	0.001994	27.1919	84.2613	-170.644	-0.004373	0.065193	-0.958508	-0.959805	0.011671	27.1919	-0.958830	-6.325415E+12	-1.845021E-15	NaN
344	1.000000	0.074455	7.36843e+06	-55839.1	955.818	-29740.9	0.000000	0.000000	6.074738	0.040640	NaN	0.000000	0.001569	0.001678	28.0795	0.055504	0.001948	28.4887	25.5735	-165.346	0.082868	0.073147	-0.950543	-0.951851	0.040640	28.4887	-0.951613	-5.055703E+12	-8.038503E-15	NaN
344	1.000000	0.082483	7.36843e+06	-55839.1	955.818	-29740.9	0.000000	0.000000	6.082763	-0.023844	NaN	0.000000	0.001565	0.001710	28.0798	0.063363	0.001977	32.0464	12.862	-168.858	-0.016304	0.081164	-0.942515	-0.943834	-0.023844	32.0464	-0.941957	-3.745779E+12	6.365645E-15	NaN
344	1.000000	0.090482	7.36843e+06	-55839.1	955.818	-29740.9	0.000000	0.000000	6.090763	0.001273	NaN	0.000000	0.001622	0.001655	28.0796	0.100471	0.002066	48.6285	36.3	-166.359	0.041019	0.089185	-0.934516	-0.935813	0.001273	48.6285	-0.934536	-2.974459E+12	-4.280055E-16	NaN
344	1.000000	0.098506	7.36843e+06	-55839.1	955.817	-29740.9	0.000000	0.000000	6.098790	0.059838	NaN	0.000000	0.001574	0.001699	28.0796	0.131687	0.001978	66.5852	131.856	-164.799	0.085044	0.097164	-0.926492	-0.927834	0.059838	66.5852	-0.927166	-2.365598E+12	-2.529529E-14	NaN
344	1.000000	0.106502	7.36843e+06	-55839.1	955.818	-29740.9	0.000000	0.000000	6.106782	-0.016172	NaN	0.000000	0.001581	0.001673	28.0794	0.068180	0.001977	34.478	-11.1272	-166.764	0.037673	0.105227	-0.918496	-0.919770	-0.016172	34.478	-0.918144	-1.787098E+12	9.049470E-15	NaN
344	1.000000	0.114442	7.36843e+06	-55839.1	955.818	-29740.9	0.000000	0.000000	6.114728	0.103433	NaN	0.000000	0.001618	0.001661	28.0793	0.052972	0.002116	25.0378	-75.7145	-168.216	0.053265	0.113147	-0.910556	-0.911851	0.103433	25.0378	-0.913654	-1.554216E+12	-6.655021E-14	NaN
344	1.000000	0.122507	7.36843e+06	-55839.1	955.818	-29740.9	0.000000	0.000000	6.122789	0.010504	NaN	0.000000	0.001622	0.001677	28.0794	0.026170	0.001938	13.5014	79.3657	-167.206	0.034686	0.121175	-0.902491	-0.903823	0.010504	13.5014	-0.903074	-1.118423E+12	-9.391610E-15	NaN
344	1.000000	0.130506	7.36843e+06	-55839.1	955.818	-29740.9	0.000000	0.000000	6.130789	0.047047	NaN	0.000000	0.001597	0.001677	28.0794	0.030677	0.001832	16.7411	-169.761	-170.236	-0.044422	0.129215	-0.894492	-0.895782	0.047047	16.7411	-0.896599	-9.143488E+11	-5.145445E-14	NaN
344	1.000000	0.138515	7.36843e+06	-55839.1	955.818	-29740.9	0.000000	0.000000	6.138796	-0.012721	NaN	0.000000	0.001607	0.001698	28.0795	0.103171	0.001995	51.7253	82.5301	-166.679	0.089778	0.137167	-0.886483	-0.887831	-0.012721	51.7253	-0.886298	-6.635508E+11	1.917179E-14	NaN
344	1.000000	0.146532	7.36843e+06	-55839.1	955.819	-29740.9	0.000000	0.000000	6.146815	0.042776	NaN	0.000000	0.001584	0.001701	28.0791	0.090496	0.001891	47.8473	142.616	-166.965	0.020739	0.145168	-0.878466	-0.879830	0.042776	47.8473	-0.879136	-5.309159E+11	-8.057087E-14	NaN
344	1.000000	0.154497	7.36843e+06	-55839.1	955.818	-29740.9	0.000000	0.000000	6.154778	0.009992	NaN	0.000000	0.001583	0.001728	28.0796	0.034106	0.002003	17.0264	-141.577	-165.905	0.040798	0.153165	-0.870501	-0.871833	0.009992	17.0264	-0.870941	-4.113204E+11	-2.429247E-14	NaN
344	1.000000	0.162508	7.36843e+06	-55839.1	955.819	-29740.9	0.000000	0.000000	6.162789	-0.003652	NaN	0.000000	0.001601	0.001721	28.0797	0.075115	0.001939	38.7437	168.191	-166.741	0.013392	0.161159	-0.862490	-0.863839	-0.003652	38.7437	-0.862419	-3.154022E+11	1.157827E-14	NaN
344	1.000000	0.170496	7.36843e+06	-55839.1	955.818	-29740.9	0.000000	0.000000	6.170776	-0.036711	NaN	0.000000	0.001582	0.001667	28.0794	0.047062	0.002030	23.1814	171.937	-169.621	0.039867	0.169186	-0.854502	-0.855812	-0.036711	23.1814	-0.853314	-2.374703E+11	1.545922E-13	NaN
344	1.000000	0.178506	7.36843e+06	-55839.1	955.817	-29740.9	0.000000	0.000000	6.178787	-0.011797	NaN	0.000000	0.001632	0.001692	28.0795	0.024576	0.001945	12.6337	-118.786	-164.281	0.021012	0.177156	-0.846492	-0.847842	-0.011797	12.6337	-0.845791	-1.878188E+11	6.281227E-14	NaN
344	1.000000	0.186543	7.36843e+06	-55839.1	955.819	-29740.9	0.000000	0.000000	6.186824	0.003209	NaN	0.000000	0.001604	0.001663	28.0781	0.172121	0.002128	80.9023	131.89	-163.043	-0.025941	0.185240	-0.838455	-0.839758	0.003209	80.9023	-0.838485	-1.495412E+11	-2.145987E-14	NaN
344	1.000000	0.194520	7.36843e+06	-55839.1	955.819	-29740.9	0.000000	0.000000	6.194804	0.060848	NaN	0.000000	0.001604	0.001740	28.0784	0.035474	0.001902	18.6518	18.7124	-168.873	-0.016730	0.193199	-0.830478	-0.831799	0.060848	18.6518	-0.832924	-1.257240E+11	-4.839831E-13	NaN
344	1.000000	0.202537	7.36843e+06	-55839.1	955.819	-29740.9	0.000000	0.000000	6.202819	0.006901	NaN	0.000000	0.001592	0.001741	28.0783	0.073782	0.002093	35.2519	-114.155	-169.524	0.028030	0.201159	-0.822461	-0.823838	0.006901	35.2519	-0.822607	-9.111034E+10	-7.573959E-14	NaN
344	1.000000	0.210527	7.36843e+06	-55839.1	955.818	-29740.9	0.000000	0.000000	6.210804	-0.092710	NaN	0.000000	0.001600	0.001736	28.0782	0.054520	0.002099	25.9793	-18.4082	-163.86	-0.084307	0.209194	-0.814471	-0.815804	-0.092710	25.9793	-0.811795	-6.500059E+10	1.426301E-12	NaN
344	1.000000	0.218541	7.36843e+06	-55839.1	955.819	-29740.9	0.000000	0.000000	6.218822	-0.004846	NaN	0.000000	0.001607	0.001665	28.0783	0.130385	0.002025	64.4023	-97.8458	-166.661	-0.014895	0.217267	-0.806457	-0.807731	-0.004846	64.4023	-0.806401	-5.492034E+10	8.824368E-14	NaN
344	1.000000	0.226577	7.36843e+06	-55839.1	955.819	-29740.9	0.000000	0.000000	6.226861	0.080717	NaN	0.000000	0.001595	0.001675	28.0783	0.059123	0.002069	28.5776	-95.4989	-166.453	0.114774	0.225276	-0.798421	-0.799722	0.080717	28.5776	-0.800539	-4.572807E+10	-1.765152E-12	NaN
344	1.000000	0.234556	7.36843e+06	-55839.1	955.818	-29740.9	0.000000	0.000000	6.234835	-0.042035	NaN	0.000000	0.001587	0.001660	28.0783	0.069640	0.002067	33.6949	-176.288	-164.237	-0.044399	0.233239	-0.790442	-0.791758	-0.042035	33.6949	-0.789506	-3.238748E+10	1.297871E-12	NaN
344	1.000000	0.242546	7.36843e+06	-55839.1	955.818	-29740.9	0.000000	0.000000	6.242829	0.042830	NaN	0.000000	0.001606	0.001698	28.0781	0.083965	0.001955	42.9559	-27.9359	-168.799	0.030483	0.241194	-0.782452	-0.783804	0.042830	42.9559	-0.783199	-2.658911E+10	-1.610825E-12	NaN
344	1.000000	0.250538	7.36843e+06	-55839.1	955.818	-29740.9	0.000000	0.000000	6.250819	0.011058	NaN	0.000000	0.001586	0.001715	28.0783	0.127605	0.001781	71.6461	-143.018	-167.84	0.002018	0.249242	-0.774460	-0.775755	0.011058	71.6461	-0.774576	-2.030083E+10	-5.447173E-13	NaN
344	1.000000	0.258569	7.36843e+06	-55839.1	955.818	-29740.9	0.000000	0.000000	6.258848	-0.048657	NaN	0.000000	0.001591	0.001733	28.078	0.130966	0.001979	66.1855	69.8803	-165.129	0.002047	0.257235	-0.766429	-0.767763	-0.048657	66.1855	-0.765878	-1.546153E+10	3.146985E-12	NaN
344	1.000000	0.266581	7.36843e+06	-55839.1	955.818	-29740.9	0.000000	0.000000	6.266861	-0.024951	NaN	0.000000	0.001601	0.001718	28.0782	0.081370	0.002053	39.6294	92.3057	-167.097	-0.026071	0.265276	-0.758417	-0.759721	-0.024951	39.6294	-0.757944	-1.205969E+10	2.068936E-12	NaN
344	1.000000	0.274541	7.36843e+06	-55839.1	955.818	-29740.9	0.000000	0.000000	6.274821	-0.043935	NaN	0.000000	0.001597	0.001645	28.0783	0.083084	0.002075	40.0487	162.877	-170.482	0.061452	0.273202	-0.750456	-0.751796	-0.043935	40.0487	-0.749634	-9.294661E+9	4.726945E-12	NaN
344	1.000000	0.282562	7.36843e+06	-55839.1	955.818	-29740.9	0.000000	0.000000	6.282846	0.061980	NaN	0.000000	0.001589	0.001703	28.078	0.099053	0.001958	50.5912	1.154286	-164.781	0.034880	0.281253	-0.742436	-0.743745	0.061980	50.5912	-0.743355	-7.633911E+9	-8.119005E-12	NaN
344	1.000000	0.290542	7.36843e+06	-55839.1	955.818	-29740.9	0.000000	0.000000	6.290823	-0.004654	NaN	0.000000	0.001592	0.001711	28.0783	0.072962	0.001983	36.7873	-55.2657	-163.542	0.038319	0.289250	-0.734456	-0.735748	-0.004654	36.7873	-0.734361	-5.757484E+9	8.082525E-13	NaN
344	1.000000	0.298545	7.36843e+06	-55839.1	955.819	-29740.9	0.000000	0.000000	6.298827	0.024959	NaN	0.000000	0.001592	0.001701	28.0778	0.075521	0.002043	36.9743	4.138842	-163.925	-0.006255	0.297242	-0.726453	-0.727756	0.024959	36.9743	-0.726959	-4.564175E+9	-5.468427E-12	NaN
344	1.000000	0.306567	7.36843e+06	-55839.1	955.818	-29740.9	0.000000	0.000000	6.306846	-0.036548	NaN	0.000000	0.001571	0.001675	28.078	0.065663	0.001949	33.6927	84.2965	-166.931	0.002779	0.305265	-0.718431	-0.719733	-0.036548	33.6927	-0.717618	-3.403929E+9	1.073688E-11	NaN
344	1.000000	0.314595	7.36843e+06	-55839.1	955.819	-29740.9	0.000000	0.000000	6.314879	0.076295	NaN	0.000000	0.001600	0.001651	28.0781	0.011847	0.002207	5.366999	-109.194	-166.335	0.014468	0.313253	-0.710403	-0.711744	0.076295	5.366999	-0.721065	-3.793076E+9	-2.011433E-11	NaN
344	1.000000	0.322593	7.36843e+06	-55839.1	955.818	-29740.9	0.000000	0.000000	6.322875	0.003146	NaN	0.000000	0.001570	0.001678	28.0791	0.101021	0.002019	50.0395	-25.821	-165.61	-0.027311	0.321258	-0.702405	-0.703739	0.003146	50.0395	-0.702452	-2.113543E+9	-1.488417E-12	NaN
344	1.000000	0.330579	7.36843e+06	-55839.1	955.819	-29740.9	0.000000	0.000000	6.330862	0.049172	NaN	0.000000	0.001615	0.001708	28.0793	0.076231	0.001900	40.1288	84.8445	-167.143	0.056794	0.329252	-0.694419	-0.695746	0.049172	40.1288	-0.695338	-1.689889E+9	-2.909749E-11	NaN
344	1.000000	0.338552	7.36843e+06	-55839.1	955.818	-29740.9	0.000000	0.000000	6.338834	0.011598	NaN	0.000000	0.001578	0.001700	28.0791	0.038550	0.001873	20.581	148.241	-166.705	0.030971	0.337256	-0.686446	-0.687741	0.011598	20.581	-0.686868	-1.294543E+9	-8.959421E-12	NaN
344	1.000000	0.346597	7.36843e+06	-55839.1	955.818	-29740.9	0.000000	0.000000	6.346877	-0.017627	NaN	0.000000	0.001592	0.001650	28.0792	0.045839	0.002031	22.5655	178.06	-166.089	-0.004986	0.345252	-0.678401	-0.679745	-0.017627	22.5655	-0.677815	-9.734778E+8	1.810725E-11	NaN
344	1.000000	0.354568	7.36843e+06	-55839.1	955.819	-29740.9	0.000000	0.000000	6.354848	-0.034706	NaN	0.000000	0.001641	0.001632	28.0793	0.162578	0.002042	79.6257	-154.127	-168.233	0.038813	0.353263	-0.670429	-0.671735	-0.034706	79.6257	-0.670103	-7.634734E+8	4.545779E-11	NaN
344	1.000000	0.362595	7.36843e+06	-55839.1	955.818	-29740.9	0.000000	0.000000	6.362874	-0.049487	NaN	0.000000	0.001610	0.001639	28.0793	0.014803	0.001999	7.403995	-172.999	-163.42	0.005107	0.361283	-0.662403	-0.663715	-0.049487	7.403995	-0.657390	-5.113513E+8	9.677758E-11	NaN
344	1.000000	0.370613	7.36843e+06	-55839.1	955.818	-29740.9	0.000000	0.000000	6.370896	0.025379	NaN	0.000000	0.001608	0.001640	28.0796	0.083280	0.002084	39.9662	139.75	-168.128	0.052400	0.369300	-0.654384	-0.655698	0.025379	39.9662	-0.654861	-4.721245E+8	-5.375535E-11	NaN
344	1.000000	0.378591	7.36843e+06	-55839.1	955.819	-29740.9	0.000000	0.000000	6.378870	-0.038438	NaN	0.000000	0.001655	0.001681	28.0792	0.090167	0.002044	44.1183	-125.768	-166.201	-0.021765	0.377283	-0.646407	-0.647715	-0.038438	44.1183	-0.645754	-3.541707E+8	1.085306E-10	NaN
344	1.000000	0.386608	7.36843e+06	-55839.1	955.819	-29740.9	0.000000	0.000000	6.386890	0.036878	NaN	0.000000	0.001583	0.001678	28.0795	0.075337	0.002002	37.6319	-48.8612	-164.381	0.096864	0.385307	-0.638390	-0.639691	0.036878	37.6319	-0.639125	-2.872661E+8	-1.283749E-10	NaN
344	1.000000	0.394603	7.36843e+06	-55839.1	955.819	-29740.9	0.000000	0.000000	6.394882	-0.059351	NaN	0.000000	0.001569	0.001656	28.0795	0.041173	0.001931	21.3213	-76.5244	-169.328	0.026479	0.393306	-0.630395	-0.631692	-0.059351	21.3213	-0.628307	-2.040674E+8	2.908393E-10	NaN
344	1.000000	0.402608	7.36843e+06	-55839.1	955.818	-29740.9	0.000000	0.000000	6.402890	0.018596	NaN	0.000000	0.001563	0.001674	28.0793	0.173075	0.001896	91.2732	-99.5971	-165.367	-0.020551	0.401353	-0.622389	-0.623645	0.018596	91.2732	-0.622542	-1.700486E+8	-1.093553E-10	NaN
344	1.000000	0.410593	7.36843e+06	-55839.1	955.818	-29740.9	0.000000	0.000000	6.410872	-0.048518	NaN	0.000000	0.001606	0.001657	28.0797	0.082862	0.001977	41.9169	101.298	-165.142	-0.083450	0.409304	-0.614405	-0.615694	-0.048518	41.9169	-0.613537	-1.278685E+8	3.794352E-10	NaN
344	1.000000	0.418617	7.36843e+06	-55839.1	955.819	-29740.9	0.000000	0.000000	6.418898	-0.008817	NaN	0.000000	0.001569	0.001664	28.0793	0.069400	0.002108	32.9239	167.835	-167.264	0.033896	0.417310	-0.606381	-0.607688	-0.008817	32.9239	-0.606180	-1.012863E+8	8.704823E-11	NaN
344	1.000000	0.426599	7.36843e+06	-55839.1	955.818	-29740.9	0.000000	0.000000	6.426881	0.019860	NaN	0.000000	0.001646	0.001675	28.0792	0.008526	0.002105	4.050354	-160.088	-171.995	-0.030361	0.425315	-0.598399	-0.599683	0.019860	4.050354	-0.602076	-8.893135E+7	-2.233208E-10	NaN
344	1.000000	0.434611	7.36843e+06	-55839.1	955.818	-29740.9	0.000000	0.000000	6.434890	-0.069259	NaN	0.000000	0.001611	0.001700	28.0794	0.121406	0.002063	58.8362	-133.087	-163.861	-0.050652	0.433275	-0.590386	-0.591723	-0.069259	58.8362	-0.589503	-5.967891E+7	1.160536E-9	NaN
344	1.000000	0.442627	7.36843e+06	-55839.1	955.819	-29740.9	0.000000	0.000000	6.442907	-0.025713	NaN	0.000000	0.001630	0.001683	28.0795	0.031069	0.001870	16.6121	179.421	-168.912	0.008532	0.441330	-0.582371	-0.583668	-0.025713	16.6121	-0.581210	-4.585880E+7	5.606970E-10	NaN
344	1.000000	0.450649	7.36843e+06	-55839.1	955.818	-29740.9	0.000000	0.000000	6.450930	-0.003915	NaN	0.000000	0.001613	0.001654	28.0793	0.055646	0.002044	27.2268	106.594	-164.272	-0.021279	0.449282	-0.574349	-0.575716	-0.003915	27.2268	-0.574241	-3.674629E+7	1.065301E-10	NaN
344	1.000000	0.458650	7.36843e+06	-55839.1	955.818	-29740.9	0.000000	0.000000	6.458932	0.011427	NaN	0.000000	0.001598	0.001639	28.0781	0.030080	0.001895	15.876	-120.534	-165.218	0.026074	0.457308	-0.566347	-0.567689	0.011427	15.876	-0.566887	-2.908136E+7	-3.929178E-10	NaN
344	1.000000	0.466643	7.36843e+06	-55839.1	955.818	-29740.9	0.000000	0.000000	6.466926	0.037018	NaN	0.000000	0.001581	0.001639	28.0785	0.056204	0.002022	27.7982	-163.52	-167.893	0.044503	0.465351	-0.558355	-0.559647	0.037018	27.7982	-0.559354	-2.287901E+7	-1.618004E-9	NaN
344	1.000000	0.474639	7.36843e+06	-55839.1	955.819	-29740.9	0.000000	0.000000	6.474920	-0.010244	NaN	0.000000	0.001576	0.001638	28.0781	0.132649	0.002080	63.7815	28.9518	-169.362	-0.011237	0.473333	-0.550359	-0.551664	-0.010244	63.7815	-0.550238	-1.711018E+7	5.987061E-10	NaN
344	1.000000	0.482659	7.36843e+06	-55839.1	955.817	-29740.9	0.000000	0.000000	6.482942	0.033129	NaN	0.000000	0.001579	0.001638	28.0781	0.063780	0.002055	31.0389	-115.649	-165.476	-0.044139	0.481352	-0.542338	-0.543646	0.033129	31.0389	-0.543139	-1.364211E+7	-2.428456E-9	NaN
344	1.000000	0.490651	7.36843e+06	-55839.1	955.818	-29740.9	0.000000	0.000000	6.490930	-0.041082	NaN	0.000000	0.001566	0.001656	28.078	0.085102	0.002061	41.3002	25.9837	-167.292	-0.017168	0.489401	-0.534347	-0.535597	-0.041082	41.3002	-0.533601	-1.005943E+7	4.083881E-9	NaN
344	1.000000	0.498651	7.36843e+06	-55839.1	955.818	-29740.9	0.000000	0.000000	6.498929	-0.061804	NaN	0.000000	0.001558	0.001674	28.0783	0.067986	0.002061	32.9906	-91.6132	-165.616	-0.033038	0.497355	-0.526347	-0.527642	-0.061804	32.9906	-0.524942	-7.62614e+06	8.104207E-9	NaN
344	1.000000	0.506669	7.36843e+06	-55839.1	955.818	-29740.9	0.000000	0.000000	6.506951	0.007521	NaN	0.000000	0.001566	0.001616	28.0785	0.070263	0.001913	36.7233	-85.9486	-164.99	0.079924	0.505306	-0.518328	-0.519692	0.007521	36.7233	-0.518482	-6.20131e+06	-1.212853E-9	NaN
344	1.000000	0.514690	7.36843e+06	-55839.1	955.819	-29740.9	0.000000	0.000000	6.514973	0.031402	NaN	0.000000	0.001612	0.001619	28.0783	0.083853	0.001964	42.6959	-159.613	-164.584	0.095250	0.513383	-0.510308	-0.511615	0.031402	42.6959	-0.510859	-4.85717e+06	-6.464997E-9	NaN
344	1.000000	0.522658	7.36843e+06	-55839.1	955.818	-29740.9	0.000000	0.000000	6.522940	-0.000402	NaN	0.000000	0.001583	0.001577	28.0785	0.030913	0.002080	14.8632	13.7033	-166.315	-0.012597	0.521343	-0.502339	-0.503655	-0.000402	14.8632	-0.502319	-3.69288e+06	1.089308E-10	NaN
344	1.000000	0.530684	7.36843e+06	-55839.1	955.818	-29740.9	0.000000	0.000000	6.530967	0.065573	NaN	0.000000	0.001592	0.001577	28.0783	0.127034	0.002016	63.0107	-40.6109	-164.651	0.061383	0.529271	-0.494314	-0.495726	0.065573	63.0107	-0.495095	-2.92791e+06	-2.239595E-8	NaN
344	1.000000	0.538669	7.36843e+06	-55839.1	955.819	-29740.9	0.000000	0.000000	6.538949	-0.018094	NaN	0.000000	0.001566	0.001573	28.0779	0.076910	0.001907	40.3388	178.105	-166.483	0.047630	0.537344	-0.486329	-0.487654	-0.018094	40.3388	-0.485993	-2.18461e+06	8.282434E-9	NaN
344	1.000000	0.546665	7.36843e+06	-55839.1	955.819	-29740.9	0.000000	0.000000	6.546949	0.057266	NaN	0.000000	0.001558	0.001594	28.0779	0.102516	0.002031	50.4825	169.795	-165.918	-0.048817	0.545366	-0.478332	-0.479632	0.057266	50.4825	-0.479183	-1.75426e+06	-3.264409E-8	NaN
344	1.000000	0.554659	7.36843e+06	-55839.1	955.818	-29740.9	0.000000	0.000000	6.554940	-0.011515	NaN	0.000000	0.001576	0.001576	28.0778	0.015085	0.002154	7.001733	-76.3388	-166.859	0.078251	0.553344	-0.470339	-0.471654	-0.011515	7.001733	-0.469105	-1.26724e+06	9.087093E-9	NaN
344	1.000000	0.562668	7.36843e+06	-55839.1	955.818	-29740.9	0.000000	0.000000	6.562951	0.039236	NaN	0.000000	0.001577	0.001578	28.0779	0.067522	0.001915	35.2542	-71.3765	-164.464	-0.011901	0.561325	-0.462330	-0.463673	0.039236	35.2542	-0.463165	-1.04586e+06	-3.751581E-8	NaN
344	1.000000	0.570694	7.36843e+06	-55839.1	955.819	-29740.9	0.000000	0.000000	6.570976	0.001931	NaN	0.000000	0.001579	0.001598	28.0777	0.037106	0.002049	18.1091	119.014	-168.073	-0.033712	0.569359	-0.454303	-0.455639	0.001931	18.1091	-0.454383	-787121	-2.453081E-9	NaN
344	1.000000	0.578693	7.36843e+06	-55839.1	955.818	-29740.9	0.000000	0.000000	6.578974	-0.007047	NaN	0.000000	0.001640	0.001610	28.0779	0.112213	0.002043	54.9162	172.938	-168.086	0.029202	0.577408	-0.446305	-0.447590	-0.007047	54.9162	-0.446209	-603857	1.166985E-8	NaN
344	1.000000	0.586708	7.36843e+06	-55839.1	955.819	-29740.9	0.000000	0.000000	6.586990	0.019931	NaN	0.000000	0.001621	0.001607	28.078	0.095086	0.002019	47.1067	116.802	-167.578	-0.085444	0.585424	-0.438290	-0.439574	0.019931	47.1067	-0.438607	-471735	-4.224976E-8	NaN
344	1.000000	0.594700	7.36843e+06	-55839.1	955.819	-29740.9	0.000000	0.000000	6.594983	0.038664	NaN	0.000000	0.001642	0.001619	28.0795	0.125604	0.001872	67.1074	-129.069	-168.787	0.018117	0.593414	-0.430297	-0.431584	0.038664	67.1074	-0.430729	-365073	-1.059078E-7	NaN
344	1.000000	0.602683	7.36843e+06	-55839.1	955.819	-29740.9	0.000000	0.000000	6.602963	-0.023591	NaN	0.000000	0.001644	0.001576	28.0794	0.039319	0.002070	18.9928	-78.1996	-165.601	0.073471	0.601404	-0.422315	-0.423594	-0.023591	18.9928	-0.421383	-269169	8.764285E-8	NaN
344	1.000000	0.610719	7.36843e+06	-55839.1	955.819	-29740.9	0.000000	0.000000	6.611002	0.030185	NaN	0.000000	0.001649	0.001642	28.079	0.076808	0.001930	39.8053	-163.506	-161.529	0.022251	0.609357	-0.414279	-0.415640	0.030185	39.8053	-0.414847	-217415	-1.388354E-7	NaN
344	1.000000	0.618706	7.36843e+06	-55839.1	955.818	-29740.9	0.000000	0.000000	6.618988	0.015772	NaN	0.000000	0.001646	0.001633	28.0793	0.038799	0.001895	20.4738	-138.484	-163.87	0.030572	0.617387	-0.406292	-0.407611	0.015772	20.4738	-0.406870	-167443	-9.419279E-8	NaN
344	1.000000	0.626706	7.36843e+06	-55839.1	955.819	-29740.9	0.000000	0.000000	6.626990	0.061840	NaN	0.000000	0.001661	0.001634	28.0791	0.078045	0.002047	38.1295	177.698	-168.237	0.029502	0.625457	-0.398291	-0.399541	0.061840	38.1295	-0.399508	-131515	-4.702151E-7	NaN
344	1.000000	0.634686	7.36843e+06	-55839.1	955.818	-29740.9	0.000000	0.000000	6.634969	0.040755	NaN	0.000000	0.001631	0.001612	28.0792	0.060292	0.002104	28.6546	166.187	-165.278	0.064330	0.633429	-0.390312	-0.391569	0.040755	28.6546	-0.391378	-100666	-4.048543E-7	NaN
344	1.000000	0.642698	7.36843e+06	-55839.1	955.818	-29740.9	0.000000	0.000000	6.642980	0.029114	NaN	0.000000	0.001637	0.001597	28.0792	0.060783	0.001984	30.6438	-72.4601	-164.692	0.014331	0.641405	-0.382300	-0.383592	0.029114	30.6438	-0.383013	-76401.3	-3.810693E-7	NaN
344	1.000000	0.650728	7.36843e+06	-55839.1	955.817	-29740.9	0.000000	0.000000	6.651010	0.033329	NaN	0.000000	0.001635	0.001613	28.0791	0.159095	0.001866	85.266	118.796	-167.886	0.070572	0.649419	-0.374270	-0.375578	0.033329	85.266	-0.374563	-57781.9	-5.768134E-7	NaN
344	1.000000	0.658734	7.36843e+06	-55839.1	955.818	-29740.9	0.000000	0.000000	6.659016	0.025541	NaN	0.000000	0.001668	0.001660	28.0793	0.057485	0.001945	29.5618	-10.6328	-166.852	0.021067	0.657414	-0.366264	-0.367584	0.025541	29.5618	-0.366912	-44836.2	-5.696561E-7	NaN
344	1.000000	0.666724	7.36843e+06	-55839.1	955.819	-29740.9	0.000000	0.000000	6.667007	0.043116	NaN	0.000000	0.001633	0.001620	28.0793	0.079581	0.001956	40.6822	40.1247	-167.302	0.135450	0.665433	-0.358274	-0.359564	0.043116	40.6822	-0.359069	-34544.6	-1.248124E-6	NaN
344	1.000000	0.674724	7.36843e+06	-55839.1	955.819	-29740.9	0.000000	0.000000	6.675004	-0.036899	NaN	0.000000	0.001679	0.001616	28.0803	0.029394	0.001908	15.4074	150.554	-166.995	0.001149	0.673402	-0.350274	-0.351596	-0.036899	15.4074	-0.348478	-24260.6	1.520933E-6	NaN
344	1.000000	0.682763	7.36843e+06	-55839.1	955.818	-29740.9	0.000000	0.000000	6.683043	-0.028267	NaN	0.000000	0.001682	0.001599	28.0796	0.097699	0.001934	50.515	-16.5559	-164.728	0.070540	0.681449	-0.342235	-0.343548	-0.028267	50.515	-0.341815	-19409	1.456388E-6	NaN
344	1.000000	0.690767	7.36843e+06	-55839.1	955.819	-29740.9	0.000000	0.000000	6.691051	0.059460	NaN	0.000000	0.001679	0.001595	28.0793	0.135893	0.002046	66.4074	120.427	-167.627	0.009717	0.689436	-0.334231	-0.335562	0.059460	66.4074	-0.334902	-15387.1	-3.864257E-6	NaN
344	1.000000	0.698760	7.36843e+06	-55839.1	955.818	-29740.9	0.000000	0.000000	6.699042	0.010313	NaN	0.000000	0.001632	0.001596	28.0795	0.043789	0.002022	21.6525	144.546	-166.503	0.044635	0.697434	-0.326238	-0.327564	0.010313	21.6525	-0.326595	-11629	-8.868677E-7	NaN
344	1.000000	0.706721	7.36843e+06	-55839.1	955.818	-29740.9	0.000000	0.000000	6.707000	-0.048200	NaN	0.000000	0.001641	0.001592	28.0794	0.110641	0.001900	58.2228	99.669	-168.655	0.005299	0.705434	-0.318277	-0.319564	-0.048200	58.2228	-0.317656	-8592.49	5.609574E-6	NaN
344	1.000000	0.714737	7.36843e+06	-55839.1	955.818	-29740.9	0.000000	0.000000	6.715020	0.039087	NaN	0.000000	0.001596	0.001599	28.0794	0.072321	0.002003	36.1138	137.844	-164.927	-0.027986	0.713500	-0.310261	-0.311497	0.039087	36.1138	-0.311072	-6869.41	-5.690006E-6	NaN
344	1.000000	0.722764	7.36843e+06	-55839.1	955.818	-29740.9	0.000000	0.000000	6.723046	0.032831	NaN	0.000000	0.001601	0.001608	28.0796	0.071476	0.002056	34.7573	90.1867	-164.412	0.004228	0.721408	-0.302234	-0.303590	0.032831	34.7573	-0.302942	-5204.73	-6.307935E-6	NaN
344	1.000000	0.730755	7.36843e+06	-55839.1	955.818	-29740.9	0.000000	0.000000	6.731034	-0.065235	NaN	0.000000	0.001612	0.001593	28.0781	0.107098	0.001911	56.0539	150.332	-168.364	0.001605	0.729488	-0.294242	-0.295510	-0.065235	56.0539	-0.293370	-3747.38	1.740827E-5	NaN
344	1.000000	0.738754	7.36843e+06	-55839.1	955.818	-29740.9	0.000000	0.000000	6.739035	-0.003892	NaN	0.000000	0.001586	0.001655	28.0782	0.137774	0.001866	73.8345	123.252	-166.092	-0.021356	0.737425	-0.286244	-0.287573	-0.003892	73.8345	-0.286204	-2926.6	1.330018E-6	NaN
344	1.000000	0.746755	7.36843e+06	-55839.1	955.818	-29740.9	0.000000	0.000000	6.747037	0.003392	NaN	0.000000	0.001633	0.001644	28.0781	0.052743	0.001992	26.4793	-158.98	-165.233	0.014945	0.745506	-0.278242	-0.279492	0.003392	26.4793	-0.278339	-2227.87	-1.522595E-6	NaN
344	1.000000	0.754769	7.36843e+06	-55839.1	955.818	-29740.9	0.000000	0.000000	6.755050	-0.000721	NaN	0.000000	0.001612	0.001626	28.0781	0.068167	0.001957	34.8247	102.778	-167.339	-0.012629	0.753488	-0.270229	-0.271510	-0.000721	34.8247	-0.270214	-1678.01	4.296860E-7	NaN
344	1.000000	0.762770	7.36843e+06	-55839.1	955.818	-29740.9	0.000000	0.000000	6.763049	-0.042361	NaN	0.000000	0.001618	0.001672	28.078	0.059664	0.001962	30.4024	14.8921	-164.01	-0.020153	0.761464	-0.262228	-0.263534	-0.042361	30.4024	-0.261183	-1221.92	3.466792E-5	NaN
344	1.000000	0.770756	7.36843e+06	-55839.1	955.818	-29740.9	0.000000	0.000000	6.771037	-0.001695	NaN	0.000000	0.001583	0.001668	28.0782	0.022927	0.002024	11.3289	-59.9337	-162.453	-0.023443	0.769427	-0.254242	-0.255571	-0.001695	11.3289	-0.254129	-952.155	1.780474E-6	NaN
344	1.000000	0.778782	7.36843e+06	-55839.1	955.818	-29740.9	0.000000	0.000000	6.779061	-0.036635	NaN	0.000000	0.001600	0.001649	28.0781	0.093044	0.002134	43.6079	-172.318	-167.148	0.007317	0.777505	-0.246216	-0.247493	-0.036635	43.6079	-0.245586	-702.357	5.215971E-5	NaN
344	1.000000	0.786724	7.36843e+06	-55839.1	955.819	-29740.9	0.000000	0.000000	6.787005	-0.006764	NaN	0.000000	0.001605	0.001631	28.0782	0.038149	0.001940	19.6675	70.4303	-166.859	-0.028859	0.785477	-0.238274	-0.239521	-0.006764	19.6675	-0.238016	-535.211	1.263794E-5	NaN
344	1.000000	0.794765	7.36843e+06	-55839.1	955.819	-29740.9	0.000000	0.000000	6.795045	-0.033891	NaN	0.000000	0.001604	0.001651	28.0785	0.031573	0.001996	15.8195	-128.039	-162.399	-0.070311	0.793445	-0.230233	-0.231552	-0.033891	15.8195	-0.228626	-380.891	8.897898E-5	NaN
344	1.000000	0.802771	7.36843e+06	-55839.1	955.819	-29740.9	0.000000	0.000000	6.803052	-0.008757	NaN	0.000000	0.001562	0.001627	28.078	0.164669	0.002101	78.3695	-38.5678	-166.597	-0.066481	0.801459	-0.222227	-0.223539	-0.008757	78.3695	-0.222143	-300.525	2.913857E-5	NaN
344	1.000000	0.810791	7.36843e+06	-55839.1	955.818	-29740.9	0.000000	0.000000	6.811071	-0.035561	NaN	0.000000	0.001587	0.001653	28.0784	0.054067	0.001924	28.101	69.3683	-168.771	0.011130	0.809453	-0.214207	-0.215545	-0.035561	28.101	-0.213258	-216.501	0.000164	NaN
344	1.000000	0.818787	7.36843e+06	-55839.1	955.818	-29740.9	0.000000	0.000000	6.819071	0.066594	NaN	0.000000	0.001590	0.001643	28.0783	0.045523	0.001910	23.8334	-78.416	-168.256	0.018538	0.817473	-0.206211	-0.207524	0.066594	23.8334	-0.208307	-180.039	-0.000370	NaN
344	1.000000	0.826826	7.36843e+06	-55839.1	955.818	-29740.9	0.000000	0.000000	6.827109	0.041220	NaN	0.000000	0.001586	0.001655	28.0788	0.058049	0.002013	28.8312	-9.533605	-167.998	0.022821	0.825433	-0.198172	-0.199564	0.041220	28.8312	-0.199244	-128.019	-0.000322	NaN
344	1.000000	0.834805	7.36843e+06	-55839.1	955.819	-29740.9	0.000000	0.000000	6.835086	-0.012451	NaN	0.000000	0.001610	0.001682	28.0786	0.098498	0.002001	49.226	32.7477	-167.95	0.018765	0.833438	-0.190192	-0.191560	-0.012451	49.226	-0.190003	-89.9651	0.000138	NaN
344	1.000000	0.842808	7.36843e+06	-55839.1	955.818	-29740.9	0.000000	0.000000	6.843088	-0.027003	NaN	0.000000	0.001610	0.001689	28.0783	0.044597	0.002058	21.6715	114.635	-165.608	-0.058972	0.841466	-0.182190	-0.183532	-0.027003	21.6715	-0.181256	-64.0921	0.000421	NaN
344	1.000000	0.850791	7.36843e+06	-55839.1	955.818	-29740.9	0.000000	0.000000	6.851074	0.046944	NaN	0.000000	0.001576	0.001646	28.0786	0.023752	0.002083	11.4048	-171.036	-167.29	0.046223	0.849530	-0.174207	-0.175468	0.046944	11.4048	-0.177294	-54.8672	-0.000856	NaN
344	1.000000	0.858785	7.36843e+06	-55839.1	955.818	-29740.9	0.000000	0.000000	6.859069	0.058694	NaN	0.000000	0.001571	0.001638	28.0783	0.087850	0.002018	43.5304	57.6521	-166.215	0.036109	0.857499	-0.166213	-0.167499	0.058694	43.5304	-0.167224	-36.7501	-0.001597	NaN
344	1.000000	0.866818	7.36843e+06	-55839.1	955.819	-29740.9	0.000000	0.000000	6.867103	0.091030	NaN	0.000000	0.001590	0.001640	28.0797	0.109736	0.001838	59.7176	-17.0111	-164.817	0.021531	0.865474	-0.158180	-0.159524	0.091030	59.7176	-0.159323	-26.6654	-0.003414	NaN
344	1.000000	0.874818	7.36843e+06	-55839.1	955.818	-29740.9	0.000000	0.000000	6.875099	-0.025177	NaN	0.000000	0.001542	0.001657	28.0798	0.032290	0.001878	17.193	-57.0837	-163.999	-0.010227	0.873483	-0.150179	-0.151515	-0.025177	17.193	-0.149081	-17.4271	0.001445	NaN
344	1.000000	0.882826	7.36843e+06	-55839.1	955.819	-29740.9	0.000000	0.000000	6.883109	0.043523	NaN	0.000000	0.001568	0.001669	28.0794	0.053896	0.001933	27.8813	109.722	-165.689	0.001942	0.881516	-0.142172	-0.143482	0.043523	27.8813	-0.143343	-13.6595	-0.003186	NaN
344	1.000000	0.890820	7.36843e+06	-55839.1	955.819	-29740.9	0.000000	0.000000	6.891100	-0.027578	NaN	0.000000	0.001586	0.001594	28.0795	0.119447	0.001953	61.1671	-174.137	-164.459	-0.020140	0.889446	-0.134178	-0.135552	-0.027578	61.1671	-0.133840	-9.038607	0.003051	NaN
344	1.000000	0.898825	7.36843e+06	-55839.1	955.818	-29740.9	0.000000	0.000000	6.899105	-0.029222	NaN	0.000000	0.001572	0.001651	28.0792	0.040674	0.002030	20.0355	-17.6227	-163.609	-0.024805	0.897528	-0.126172	-0.127470	-0.029222	20.0355	-0.125079	-6.103079	0.004788	NaN
344	1.000000	0.906851	7.36843e+06	-55839.1	955.819	-29740.9	0.000000	0.000000	6.907134	0.045472	NaN	0.000000	0.001595	0.001632	28.0794	0.082445	0.001976	41.7206	-40.4193	-163.211	0.034033	0.905488	-0.118147	-0.119509	0.045472	41.7206	-0.118964	-4.603964	-0.009877	NaN
344	1.000000	0.914821	7.36843e+06	-55839.1	955.819	-29740.9	0.000000	0.000000	6.915104	0.027376	NaN	0.000000	0.001596	0.001656	28.0794	0.084932	0.002123	40.0014	66.8707	-165.309	0.059292	0.913537	-0.110177	-0.111461	0.027376	40.0014	-0.110690	-3.107393	-0.008810	NaN
344	1.000000	0.922823	7.36843e+06	-55839.1	955.819	-29740.9	0.000000	0.000000	6.923103	-0.031969	NaN	0.000000	0.001594	0.001678	28.0793	0.098349	0.001889	52.0734	107.822	-170.37	-0.112122	0.921515	-0.102175	-0.103483	-0.031969	52.0734	-0.101714	-1.993433	0.016037	NaN
344	1.000000	0.930842	7.36843e+06	-55839.1	955.818	-29740.9	0.000000	0.000000	6.931124	0.021174	NaN	0.000000	0.001575	0.001691	28.0795	0.018180	0.001880	9.668647	150.065	-166.519	-0.002617	0.929474	-0.094156	-0.095524	0.021174	9.668647	-0.095798	-1.470814	-0.014396	NaN
344	1.000000	0.938829	7.36843e+06	-55839.1	955.819	-29740.9	0.000000	0.000000	6.939111	0.036040	NaN	0.000000	0.001560	0.001665	28.0793	0.166957	0.002135	78.1818	-41.5672	-164.875	0.012777	0.937525	-0.086169	-0.087472	0.036040	78.1818	-0.086515	-0.893652	-0.040328	NaN
344	1.000000	0.946834	7.36843e+06	-55839.1	955.819	-29740.9	0.000000	0.000000	6.947115	-0.012933	NaN	0.000000	0.001569	0.001677	28.0794	0.101648	0.002096	48.5054	-66.5857	-166.701	0.000266	0.945517	-0.078164	-0.079481	-0.012933	48.5054	-0.077964	-0.550068	0.023512	NaN
344	1.000000	0.954827	7.36843e+06	-55839.1	955.819	-29740.9	0.000000	0.000000	6.955108	0.006573	NaN	0.000000	0.001595	0.001666	28.0795	0.015310	0.002028	7.548430	112.231	-164.979	0.042131	0.953528	-0.070171	-0.071470	0.006573	7.548430	-0.070824	-0.358842	-0.018317	NaN
344	1.000000	0.962820	7.36843e+06	-55839.1	955.817	-29740.9	0.000000	0.000000	6.963099	-0.062081	NaN	0.000000	0.001592	0.001701	28.0794	0.041369	0.001878	22.025	164.021	-166.137	-0.012139	0.961531	-0.062178	-0.063466	-0.062081	22.025	-0.060064	-0.180850	0.343273	NaN
344	1.000000	0.970853	7.36843e+06	-55839.1	955.818	-29740.9	0.000000	0.000000	6.971137	0.045321	NaN	0.000000	0.001568	0.001681	28.0797	0.037760	0.001994	18.9401	52.6174	-163.499	-0.021914	0.969548	-0.054144	-0.055450	0.045321	18.9401	-0.055939	-0.137253	-0.330203	NaN
344	1.000000	0.978885	7.36843e+06	-55839.1	955.817	-29740.9	0.000000	0.000000	6.979168	0.038415	NaN	0.000000	0.001571	0.001668	28.0793	0.103328	0.001952	52.9437	80.5345	-167.117	-0.011638	0.977549	-0.046113	-0.047448	0.038415	52.9437	-0.046657	-0.072213	-0.531967	NaN
344	1.000000	0.986873	7.36843e+06	-55839.1	955.818	-29740.9	0.000000	0.000000	6.987151	-0.073734	NaN	0.000000	0.001592	0.001704	28.0794	0.087906	0.002063	42.6168	117.657	-166.448	-0.146577	0.985540	-0.038125	-0.039458	-0.073734	42.6168	-0.036827	-0.036282	2.032256	NaN
344	1.000000	0.994869	7.36843e+06	-55839.1	955.819	-29740.9	0.000000	0.000000	6.995153	0.062387	NaN	0.000000	0.001587	0.001694	28.0797	0.073815	0.002025	36.4466	176.799	-162.283	0.010114	0.993560	-0.030129	-0.031438	0.062387	36.4466	-0.031412	-0.025216	-2.474088	NaN
344	1.000000	1.002842	7.36843e+06	-55839.1	955.819	-29740.9	0.000000	0.000000	7.003122	-0.029740	NaN	0.000000	0.001664	0.001688	28.0783	0.139641	0.001916	72.8772	-114.323	-166.64	-0.029112	1.001544	-0.022156	-0.023454	-0.029740	72.8772	-0.021850	-0.013997	2.124721	NaN
344	1.000000	1.010849	7.36843e+06	-55839.1	955.818	-29740.9	0.000000	0.000000	7.011153	0.541799	NaN	0.000000	0.001653	0.001649	28.0785	0.619256	0.001890	327.628	4.962280	-168.146	0.452700	1.009557	-0.014148	-0.015441	0.541799	327.628	-0.015389	-0.009510	-56.9744	NaN
344	1.000000	1.018878	7.36843e+06	-55839.1	955.818	-29740.9	0.000000	0.000000	7.019163	0.075513	NaN	0.000000	0.001604	0.001704	28.0781	0.071403	0.002077	34.3774	45.7872	-167.569	0.066496	1.017543	-0.006119	-0.007455	0.075513	34.3774	-0.007767	-0.005095	-14.8214	NaN
344	1.000000	1.026867	7.36843e+06	-55839.1	955.817	-29740.9	0.000000	0.000000	7.027188	0.951615	NaN	0.000000	0.001579	0.001677	28.0783	1.270834	0.001964	647.106	8.614990	-168.785	0.481198	1.025526	0.001869	0.000528	0.951615	647.106	0.000766	0.000581	1636.8	24519.7
344	1.000000	1.034739	7.36843e+06	-55839.1	955.818	-29740.9	0.000000	0.000000	7.035333	7.603553	NaN	0.000000	0.001620	0.001709	28.0779	7.322691	0.001659	4413.17	9.534918	-170.362	6.305361	1.033502	0.009741	0.008504	7.603553	4413.17	0.008449	0.007508	1012.75	46533.7
344	2.000000	1.037519	7.36843e+06	-55839.1	955.817	-29740.9	0.000000	0.000000	7.038229	10.4242	NaN	0.000000	0.001619	0.001627	28.0786	10.4674	0.001777	5890.91	10.2968	-176.436	10.4106	1.037206	0.012521	0.012209	10.4242	5890.91	0.011194	0.010538	989.162	52428.5
344	2.000000	1.039472	7.36843e+06	-55839.1	955.817	-29740.9	0.000000	0.000000	7.040338	14.2104	NaN	0.000000	0.001614	0.001640	28.0781	11.8427	0.001763	6718.74	6.765294	-172.66	14.7058	1.039177	0.014474	0.014180	14.2104	6718.74	0.012888	0.012571	1130.41	54749
344	2.000000	1.041461	7.36843e+06	-55839.1	955.818	-29740.9	0.000000	0.000000	7.042424	16.5573	NaN	0.000000	0.001639	0.001636	28.0779	14.3763	0.001752	8205.46	8.766585	-177.607	16.8563	1.041108	0.016463	0.016110	16.5573	8205.46	0.014950	0.015219	1087.95	60769.7
344	2.000000	1.043495	7.36843e+06	-55839.1	955.818	-29740.9	0.000000	0.000000	7.044559	19.0231	NaN	0.000000	0.001628	0.001604	28.0784	16.1817	0.001840	8792.11	2.615222	-170.265	18.5813	1.043078	0.018497	0.018080	19.0231	8792.11	0.016874	0.017866	1064.74	60096.3
344	2.000000	1.045454	7.36843e+06	-55839.1	955.818	-29740.9	0.000000	0.000000	7.046538	19.4982	NaN	0.000000	0.001638	0.001645	28.0781	18.1175	0.001763	10277.2	8.440445	-179.898	19.8635	1.045162	0.020456	0.020164	19.4982	10277.2	0.019033	0.021046	926.447	64723.4
344	2.000000	1.047491	7.36843e+06	-55839.1	955.819	-29740.9	0.000000	0.000000	7.048760	24.0113	NaN	0.000000	0.001617	0.001684	28.0785	20.4277	0.002025	10088	7.391640	-178.047	23.9244	1.047173	0.022493	0.022176	24.0113	10088	0.020708	0.023666	1014.57	59911.8
344	2.000000	1.049438	7.36843e+06	-55839.1	955.817	-29740.9	0.000000	0.000000	7.050862	27.7872	NaN	0.000000	0.001628	0.001679	28.0781	21.2187	0.001742	12181.6	8.332016	179.515	28.5567	1.049183	0.024440	0.024185	27.7872	12181.6	0.022729	0.027014	1028.62	67715
344	2.000000	1.051401	7.36843e+06	-55839.1	955.818	-29740.9	0.000000	0.000000	7.052928	30.2791	NaN	0.000000	0.001618	0.001679	28.0781	23.1364	0.001755	13186.2	6.794651	179.644	29.4588	1.051117	0.026404	0.026119	30.2791	13186.2	0.024681	0.030439	994.758	69052.7
344	2.000000	1.053492	7.36843e+06	-55839.1	955.818	-29740.9	0.000000	0.000000	7.055131	33.0187	NaN	0.000000	0.001613	0.001684	28.078	24.956	0.001772	14082.7	5.291630	-177.127	35.4855	1.053171	0.028494	0.028173	33.0187	14082.7	0.026735	0.034249	964.088	69524.6
344	2.000000	1.055415	7.36843e+06	-55839.1	955.818	-29740.9	0.000000	0.000000	7.057172	35.884	NaN	0.000000	0.001643	0.001701	28.0781	26.665	0.001878	14202	10.1134	176.889	36.3374	1.055120	0.030417	0.030122	35.884	14202	0.028522	0.037736	950.928	66795.2
344	2.000000	1.057420	7.36843e+06	-55839.1	955.818	-29740.9	0.000000	0.000000	7.059504	43.8076	NaN	0.000000	0.001614	0.001696	28.079	28.9	0.001703	16966.4	7.537770	176.946	43.4721	1.057096	0.032423	0.032098	43.8076	16966.4	0.030486	0.041757	1049.1	75857
344	2.000000	1.059349	7.36843e+06	-55839.1	955.818	-29740.9	0.000000	0.000000	7.061661	49.35	NaN	0.000000	0.001586	0.001718	28.078	30.08	0.001667	18039.1	5.317676	178.568	46.9954	1.059074	0.034351	0.034077	49.35	18039.1	0.032300	0.045645	1081.17	77142.1
344	2.000000	1.061397	7.36843e+06	-55839.1	955.818	-29740.9	0.000000	0.000000	7.063902	54.0697	NaN	0.000000	0.001618	0.001730	28.0794	33.5434	0.001910	17559.1	7.102800	177.174	53.7199	1.061083	0.036399	0.036085	54.0697	17559.1	0.034089	0.049647	1089.09	71999.7
344	2.000000	1.063390	7.36843e+06	-55839.1	955.819	-29740.9	0.000000	0.000000	7.066049	57.8015	NaN	0.000000	0.001636	0.001706	28.0793	34.7438	0.001969	17646	5.286121	179.577	55.6651	1.063050	0.038392	0.038052	57.8015	17646	0.035936	0.053947	1071.44	69412
344	2.000000	1.065408	7.36843e+06	-55839.1	955.819	-29740.9	0.000000	0.000000	7.068359	64.9016	NaN	0.000000	0.001625	0.001734	28.0793	36.2374	0.001797	20162.5	8.158217	174.545	65.5139	1.065074	0.040410	0.040076	64.9016	20162.5	0.037996	0.058952	1100.93	75869.9
344	2.000000	1.067345	7.36843e+06	-55839.1	955.819	-29740.9	0.000000	0.000000	7.070634	73.1091	NaN	0.000000	0.001660	0.001693	28.0795	39.1653	0.001769	22137.9	5.230056	176.303	71.0086	1.067139	0.042347	0.042141	73.1091	22137.9	0.039871	0.063694	1147.81	80141.7
344	2.000000	1.069346	7.36843e+06	-55839.1	955.819	-29740.9	0.000000	0.000000	7.072833	77.9208	NaN	0.000000	0.001653	0.001716	28.0791	39.7037	0.001798	22080	5.472773	176.851	74.9861	1.069011	0.044349	0.044013	77.9208	22080	0.041702	0.068500	1137.52	77077
344	2.000000	1.071314	7.36843e+06	-55839.1	955.82	-29740.9	0.000000	0.000000	7.075295	89.9275	NaN	0.000000	0.001647	0.001686	28.0794	42.4793	0.001758	24165.6	5.940519	174.508	85.4495	1.070908	0.046316	0.045910	89.9275	24165.6	0.043525	0.073455	1224.25	81462.7
344	2.000000	1.073375	7.36843e+06	-55839.1	955.819	-29740.9	0.000000	0.000000	7.077580	95.3844	NaN	0.000000	0.001671	0.001718	28.0792	44.2928	0.001761	25155.9	5.062353	176.672	93.7211	1.073069	0.048377	0.048072	95.3844	25155.9	0.045533	0.079108	1205.75	81715.1
344	2.000000	1.075422	7.36843e+06	-55839.1	955.819	-29740.9	0.000000	0.000000	7.079731	97.9009	NaN	0.000000	0.001636	0.001678	28.0795	46.0512	0.001784	25810	3.995523	176.617	99.0876	1.075078	0.050425	0.050080	97.9009	25810	0.047580	0.085079	1150.7	80844.4
344	2.000000	1.077414	7.36843e+06	-55839.1	955.819	-29740.9	0.000000	0.000000	7.082240	110.46	NaN	0.000000	0.001622	0.001679	28.0795	47.721	0.001724	27679.3	6.048512	174.314	111.176	1.077089	0.052417	0.052091	110.46	27679.3	0.049423	0.090639	1218.68	83998.2
344	2.000000	1.079414	7.36843e+06	-55839.1	955.819	-29740.9	0.000000	0.000000	7.084450	115.559	NaN	0.000000	0.001675	0.001705	28.0794	48.5344	0.001753	27693.2	4.728405	175.747	115.824	1.079102	0.054417	0.054104	115.559	27693.2	0.051287	0.096432	1198.34	81476.9
344	2.000000	1.081284	7.36843e+06	-55839.1	955.819	-29740.9	0.000000	0.000000	7.086687	124.491	NaN	0.000000	0.001648	0.001704	28.0806	51.3946	0.001778	28909.1	0.805458	179.499	120.878	1.081011	0.056286	0.056013	124.491	28909.1	0.053056	0.102094	1219.38	82662.3
344	2.000000	1.083373	7.36843e+06	-55839.1	955.82	-29740.9	0.000000	0.000000	7.089035	130.803	NaN	0.000000	0.001665	0.001682	28.0794	53.7757	0.001845	29148.1	1.646031	178.236	128.204	1.083110	0.058375	0.058113	130.803	29148.1	0.055009	0.108522	1205.31	80839.5
344	2.000000	1.085304	7.36843e+06	-55839.1	955.819	-29740.9	0.000000	0.000000	7.091171	135.768	NaN	0.000000	0.001646	0.001700	28.0793	55.0287	0.001780	30916.1	2.604910	176.68	131.398	1.085038	0.060306	0.060041	135.768	30916.1	0.057013	0.115315	1177.37	83179.2
344	2.000000	1.087371	7.36843e+06	-55839.1	955.821	-29740.9	0.000000	0.000000	7.093576	144.005	NaN	0.000000	0.001653	0.001684	28.0794	58.1831	0.001736	33522.9	6.515225	171.587	143.412	1.087044	0.062373	0.062047	144.005	33522.9	0.059151	0.122782	1172.85	87407.1
344	2.000000	1.089388	7.36843e+06	-55839.1	955.819	-29740.9	0.000000	0.000000	7.096029	154.591	NaN	0.000000	0.001654	0.001675	28.079	58.7301	0.001852	31709.7	4.612747	174.568	157.245	1.089066	0.064390	0.064068	154.591	31709.7	0.060734	0.128452	1203.49	80834
344	2.000000	1.091300	7.36843e+06	-55839.1	955.82	-29740.9	0.000000	0.000000	7.098435	166.597	NaN	0.000000	0.001639	0.001708	28.08	60.1051	0.001834	32765.4	5.654494	173.131	163.152	1.090966	0.066302	0.065968	166.597	32765.4	0.062489	0.134883	1235.12	81510
344	2.000000	1.093407	7.36843e+06	-55839.1	955.819	-29740.9	0.000000	0.000000	7.100869	174.546	NaN	0.000000	0.001639	0.001688	28.0792	61.8524	0.001784	34665.7	4.522738	174.12	174.625	1.093042	0.068409	0.068044	174.546	34665.7	0.064633	0.142942	1221.09	83770.9
344	2.000000	1.095400	7.36843e+06	-55839.1	955.819	-29740.9	0.000000	0.000000	7.103282	184.76	NaN	0.000000	0.001662	0.001705	28.078	63.6956	0.001802	35345.3	6.843311	171.632	188.171	1.095101	0.070402	0.070103	184.76	35345.3	0.066482	0.150071	1231.15	83359.9
344	2.000000	1.097388	7.36843e+06	-55839.1	955.82	-29740.9	0.000000	0.000000	7.105580	192.27	NaN	0.000000	0.001612	0.001692	28.078	66.3126	0.001772	37428.9	7.552670	170.479	193.915	1.097131	0.072391	0.072134	192.27	37428.9	0.068538	0.158192	1215.42	85978.3
344	2.000000	1.099333	7.36843e+06	-55839.1	955.819	-29740.9	0.000000	0.000000	7.108173	208.054	NaN	0.000000	0.001622	0.001685	28.0778	67.1924	0.001781	37722.9	7.213469	171.038	207.57	1.098991	0.074335	0.073993	208.054	37722.9	0.070199	0.164897	1261.72	84873.5
344	2.000000	1.101302	7.36843e+06	-55839.1	955.82	-29740.9	0.000000	0.000000	7.110467	215.942	NaN	0.000000	0.001662	0.001670	28.0782	68.7634	0.001765	38969.6	6.376107	171.459	214.59	1.100963	0.076304	0.075965	215.942	38969.6	0.072148	0.172937	1248.67	85615.9
344	2.000000	1.103335	7.36843e+06	-55839.1	955.82	-29740.9	0.000000	0.000000	7.112927	226.342	NaN	0.000000	0.001648	0.001661	28.0779	70.9424	0.001791	39620.5	4.136553	173.765	221.396	1.102938	0.078337	0.077940	226.342	39620.5	0.074052	0.180961	1250.78	85094.1
344	2.000000	1.105351	7.36843e+06	-55839.1	955.82	-29740.9	0.000000	0.000000	7.115246	233.695	NaN	0.000000	0.001625	0.001684	28.078	72.9065	0.001827	39911	2.416057	174.973	233.194	1.104947	0.080353	0.079949	233.695	39911	0.075961	0.189179	1235.31	83835.8
344	2.000000	1.107326	7.36843e+06	-55839.1	955.82	-29740.9	0.000000	0.000000	7.117410	238.302	NaN	0.000000	0.001637	0.001694	28.0781	74.9591	0.001767	42429.5	1.682449	175.068	236.815	1.107246	0.082328	0.082248	238.302	42429.5	0.078115	0.198658	1199.56	86973.7
344	2.000000	1.109412	7.36843e+06	-55839.1	955.819	-29740.9	0.000000	0.000000	7.120392	260.056	NaN	0.000000	0.001613	0.001655	28.078	76.9749	0.001784	43143.7	7.955007	170.358	262.243	1.109018	0.084415	0.084021	260.056	43143.7	0.079894	0.206647	1258.45	86711.2
344	2.000000	1.111329	7.36843e+06	-55839.1	955.819	-29740.9	0.000000	0.000000	7.122828	272.695	NaN	0.000000	0.001618	0.001671	28.0781	78.0739	0.001730	45119.2	5.637932	170.654	272.122	1.111014	0.086331	0.086016	272.695	45119.2	0.081798	0.215364	1266.2	88827.6
344	2.000000	1.113461	7.36843e+06	-55839.1	955.819	-29740.9	0.000000	0.000000	7.125304	281.057	NaN	0.000000	0.001633	0.001671	28.078	80.4817	0.001775	45354.5	5.044249	171.858	286.001	1.113039	0.088463	0.088042	281.057	45354.5	0.083815	0.224783	1250.35	87400.2
344	2.000000	1.115351	7.36843e+06	-55839.1	955.818	-29740.9	0.000000	0.000000	7.127686	292.994	NaN	0.000000	0.001598	0.001673	28.0784	82.9991	0.001840	45097	8.841178	167.14	296.647	1.115068	0.090353	0.090070	292.994	45097	0.085480	0.232698	1259.11	85413.1
344	2.000000	1.117275	7.36843e+06	-55839.1	955.82	-29740.9	0.000000	0.000000	7.130380	311.718	NaN	0.000000	0.001616	0.001685	28.0782	83.4445	0.001742	47905.1	1.107077	174.904	307.39	1.117020	0.092278	0.092022	311.718	47905.1	0.087397	0.241971	1288.25	88976.2
344	2.000000	1.119242	7.36843e+06	-55839.1	955.818	-29740.9	0.000000	0.000000	7.132708	320.489	NaN	0.000000	0.001607	0.001658	28.078	85.3565	0.001883	45321.3	6.120450	170.474	315.583	1.118892	0.094245	0.093894	320.489	45321.3	0.088941	0.249560	1284.22	82887.3
344	2.000000	1.121236	7.36843e+06	-55839.1	955.819	-29740.9	0.000000	0.000000	7.135182	332.168	NaN	0.000000	0.001628	0.001651	28.078	87.9106	0.001744	50415.1	8.899370	167.433	325.701	1.120789	0.096238	0.095791	332.168	50415.1	0.091297	0.261351	1270.96	90099.3
344	2.000000	1.123403	7.36843e+06	-55839.1	955.819	-29740.9	0.000000	0.000000	7.137817	343.529	NaN	0.000000	0.001616	0.001632	28.0779	90.6246	0.001889	47977	7.338919	169.977	344.711	1.122923	0.098405	0.097925	343.529	47977	0.093035	0.270217	1271.31	84323.8
344	2.000000	1.125331	7.36843e+06	-55839.1	955.82	-29740.9	0.000000	0.000000	7.140383	359.047	NaN	0.000000	0.001659	0.001667	28.0785	92.3232	0.001743	52972.7	8.699790	166.604	359.739	1.124954	0.100333	0.099956	359.047	52972.7	0.095250	0.281711	1274.52	91185.1
344	2.000000	1.127345	7.36843e+06	-55839.1	955.821	-29740.9	0.000000	0.000000	7.142805	368.967	NaN	0.000000	0.001635	0.001664	28.078	94.9856	0.001839	51659.1	6.862683	168.281	367.882	1.127105	0.102347	0.102108	368.967	51659.1	0.096991	0.290904	1268.35	87507.4
344	2.000000	1.129424	7.36843e+06	-55839.1	955.821	-29740.9	0.000000	0.000000	7.145595	386.245	NaN	0.000000	0.001650	0.001690	28.079	94.3135	0.001735	54362.2	2.261503	173.066	389.701	1.129055	0.104426	0.104057	386.245	54362.2	0.099097	0.302211	1278.07	90347.4
344	2.000000	1.131365	7.36843e+06	-55839.1	955.82	-29740.9	0.000000	0.000000	7.148095	399.84	NaN	0.000000	0.001650	0.001706	28.079	98.3009	0.001905	51600	5.341380	170.402	404.672	1.131100	0.106367	0.106102	399.84	51600	0.100556	0.310158	1289.15	84650.9
344	2.000000	1.133336	7.36843e+06	-55839.1	955.82	-29740.9	0.000000	0.000000	7.151159	426.416	NaN	0.000000	0.001639	0.001733	28.0791	99.1078	0.001769	56020.8	7.829004	167.974	425.943	1.132817	0.108338	0.107819	426.416	56020.8	0.102629	0.321623	1325.82	90250.3
344	2.000000	1.134296	7.36843e+06	-55839.1	955.82	-29740.9	0.000000	0.000000	7.151946	422.18	NaN	0.000000	0.001658	0.001724	28.0789	99.2253	0.001747	56801.9	3.731202	170.978	420.483	1.134024	0.109298	0.109026	422.18	56801.9	0.103724	0.327755	1288.09	90648.6