File: remote_trans/data/nanoindenter/0828-1/data/Data_2025-08-06,11h17m57s/2025-07-22_16-23-58_1_1019.txt
2025-07-22, 16:23:58, 1
Index	Phase	Displacement	Time	Pos X	Pos Y	Pos Z	Rot A	Rot B	Piezo Z	Force A	Force B	Gripper	Voltage A	Voltage B	Temperature	Amplitude force	Amplitude pos	Stiffness	Phase shift	Phase excitation	Force A raw	Displacement raw	HMax	HMax raw	Real Force	Real Stiffness	Contact Depth	Area	Hardness	Reduced Mod.
[#]	[#]	[um]	[s]	[um]	[um]	[um]	[m°]	[m°]	[um]	[uN]	[uN]	[V]	[V]	[V]	[°C]	[uN]	[um]	[N/m]	[°]	[°]	[uN]	[um]	[um]	[um]	[uN]	[N/m]	[um]	[um^2]	[MPa]	[MPa]
1019	1.000000	0.002547	7.37502e+06	-51089.1	1055.82	-29753.4	0.000000	0.000000	6.002773	0.010425	NaN	0.000000	0.001539	0.001694	28.0833	0.122057	0.000916	133.205	-95.4923	-165.863	0.034278	0.001303	-1.071792	-1.073036	0.010425	133.205	-1.071851	-2.099217E+14	-4.966171E-17	NaN
1019	1.000000	0.010515	7.37502e+06	-51089.1	1055.82	-29753.4	0.000000	0.000000	6.010741	0.022097	NaN	0.000000	0.001534	0.001701	28.0836	0.049314	0.000918	53.742	93.1494	-160.115	0.030409	0.009251	-1.063825	-1.065088	0.022097	53.742	-1.064133	-1.653332E+14	-1.336537E-16	NaN
1019	1.000000	0.018504	7.37502e+06	-51089.1	1055.82	-29753.4	0.000000	0.000000	6.018727	-0.067854	NaN	0.000000	0.001551	0.001660	28.0835	0.028563	0.001735	16.4663	-158.027	-165.226	-0.045270	0.017206	-1.055835	-1.057133	-0.067854	16.4663	-1.052744	-1.162260E+14	5.838135E-16	NaN
1019	1.000000	0.026558	7.37502e+06	-51089.1	1055.82	-29753.4	0.000000	0.000000	6.026786	0.058468	NaN	0.000000	0.001541	0.001696	28.0836	0.081657	0.001933	42.2349	-154.523	-164.138	0.072427	0.025271	-1.047781	-1.049069	0.058468	42.2349	-1.048819	-1.029295E+14	-5.680439E-16	NaN
1019	1.000000	0.034511	7.37502e+06	-51089.1	1055.82	-29753.4	0.000000	0.000000	6.034738	0.021575	NaN	0.000000	0.001506	0.001675	28.0846	0.047353	0.001928	24.5581	-115.617	-166.97	0.026125	0.033202	-1.039828	-1.041137	0.021575	24.5581	-1.040487	-7.952703E+13	-2.712876E-16	NaN
1019	1.000000	0.042546	7.37502e+06	-51089.1	1055.82	-29753.4	0.000000	0.000000	6.042772	0.010882	NaN	0.000000	0.001515	0.001719	28.0845	0.056236	0.002051	27.4199	-85.9149	-167.708	-0.065490	0.041197	-1.031793	-1.033143	0.010882	27.4199	-1.032090	-6.131938E+13	-1.774700E-16	NaN
1019	1.000000	0.050516	7.37502e+06	-51089.1	1055.82	-29753.4	0.000000	0.000000	6.050741	-0.015115	NaN	0.000000	0.001487	0.001726	28.0848	0.064030	0.001954	32.776	-104.27	-165.171	0.014190	0.049152	-1.023823	-1.025187	-0.015115	32.776	-1.023477	-4.696101E+13	3.218722E-16	NaN
1019	1.000000	0.058499	7.37502e+06	-51089.1	1055.82	-29753.4	0.000000	0.000000	6.058725	0.012259	NaN	0.000000	0.001470	0.001688	28.0845	0.079203	0.001949	40.6287	137.508	-168.561	0.050643	0.057266	-1.015840	-1.017074	0.012259	40.6287	-1.016066	-3.732668E+13	-3.284317E-16	NaN
1019	1.000000	0.066539	7.37502e+06	-51089.1	1055.82	-29753.4	0.000000	0.000000	6.066763	-0.034697	NaN	0.000000	0.001550	0.001685	28.0848	0.055794	0.002068	26.984	39.3323	-166.884	-0.033429	0.065228	-1.007801	-1.009111	-0.034697	26.984	-1.006836	-2.804141E+13	1.237345E-15	NaN
1019	1.000000	0.074550	7.37502e+06	-51089.1	1055.82	-29753.4	0.000000	0.000000	6.074775	-0.018206	NaN	0.000000	0.001519	0.001692	28.0845	0.067753	0.002006	33.7732	94.5377	-164.607	0.037912	0.073213	-0.999789	-1.001126	-0.018206	33.7732	-0.999384	-2.225778E+13	8.179479E-16	NaN
1019	1.000000	0.082536	7.37502e+06	-51089.1	1055.82	-29753.4	0.000000	0.000000	6.082761	-0.028249	NaN	0.000000	0.001524	0.001666	28.0846	0.089014	0.002001	44.4861	-172.986	-165.552	0.020587	0.081228	-0.991803	-0.993111	-0.028249	44.4861	-0.991327	-1.733716E+13	1.629392E-15	NaN
1019	1.000000	0.090543	7.37502e+06	-51089.1	1055.82	-29753.4	0.000000	0.000000	6.090765	-0.068643	NaN	0.000000	0.001568	0.001721	28.0845	0.113386	0.001928	58.8166	3.756226	-163.288	-0.109872	0.089251	-0.983797	-0.985089	-0.068643	58.8166	-0.982921	-1.335873E+13	5.138469E-15	NaN
1019	1.000000	0.098527	7.37502e+06	-51089.1	1055.82	-29753.4	0.000000	0.000000	6.098753	0.002786	NaN	0.000000	0.001596	0.001685	28.0845	0.026700	0.001946	13.7185	92.2018	-165.85	0.041320	0.097226	-0.975812	-0.977113	0.002786	13.7185	-0.975965	-1.076561E+13	-2.587677E-16	NaN
1019	1.000000	0.106546	7.37502e+06	-51089.1	1055.82	-29753.4	0.000000	0.000000	6.106771	-0.017014	NaN	0.000000	0.001564	0.001687	28.0848	0.080230	0.001878	42.7224	128.206	-163.632	-0.083696	0.105189	-0.967793	-0.969150	-0.017014	42.7224	-0.967494	-8.277378E+12	2.055431E-15	NaN
1019	1.000000	0.114561	7.37502e+06	-51089.1	1055.82	-29753.4	0.000000	0.000000	6.114785	-0.030512	NaN	0.000000	0.001597	0.001730	28.0845	0.090503	0.001866	48.505	-46.7107	-166.004	0.044772	0.113253	-0.959779	-0.961087	-0.030512	48.505	-0.959307	-6.419851E+12	4.752798E-15	NaN
1019	1.000000	0.122547	7.37502e+06	-51089.1	1055.82	-29753.4	0.000000	0.000000	6.122774	0.039144	NaN	0.000000	0.001556	0.001715	28.0845	0.022195	0.002145	10.3451	-42.3633	-168.51	0.108856	0.121246	-0.951792	-0.953093	0.039144	10.3451	-0.954630	-5.552209E+12	-7.050131E-15	NaN
1019	1.000000	0.130554	7.37502e+06	-51089.1	1055.82	-29753.4	0.000000	0.000000	6.130779	-0.005379	NaN	0.000000	0.001541	0.001721	28.0843	0.022175	0.002030	10.9213	17.1679	-165.986	0.037179	0.129255	-0.943786	-0.945085	-0.005379	10.9213	-0.943416	-3.919455E+12	1.372280E-15	NaN
1019	1.000000	0.138562	7.37502e+06	-51089.1	1055.82	-29753.4	0.000000	0.000000	6.138788	0.017738	NaN	0.000000	0.001539	0.001722	28.0842	0.079046	0.002028	38.9857	-173.605	-165.842	0.064827	0.137268	-0.935777	-0.937072	0.017738	38.9857	-0.936118	-3.124388E+12	-5.677403E-15	NaN
1019	1.000000	0.146531	7.37502e+06	-51089.1	1055.82	-29753.4	0.000000	0.000000	6.146757	0.031506	NaN	0.000000	0.001545	0.001732	28.0844	0.030592	0.001878	16.2892	135.252	-161.532	0.052477	0.145200	-0.927809	-0.929139	0.031506	16.2892	-0.929259	-2.524632E+12	-1.247936E-14	NaN
1019	1.000000	0.154543	7.37502e+06	-51089.1	1055.82	-29753.4	0.000000	0.000000	6.154769	0.030126	NaN	0.000000	0.001581	0.001708	28.0843	0.147853	0.001928	76.6792	167.713	-164.82	-0.037189	0.153220	-0.919797	-0.921119	0.030126	76.6792	-0.920091	-1.898621E+12	-1.586734E-14	NaN
1019	1.000000	0.162592	7.37502e+06	-51089.1	1055.82	-29753.4	0.000000	0.000000	6.162817	-0.019255	NaN	0.000000	0.001543	0.001737	28.0849	0.070457	0.001992	35.3623	-23.0224	-167.391	-0.050603	0.161221	-0.911747	-0.913118	-0.019255	35.3623	-0.911339	-1.446261E+12	1.331365E-14	NaN
1019	1.000000	0.170586	7.37502e+06	-51089.1	1055.82	-29753.4	0.000000	0.000000	6.170811	-0.025494	NaN	0.000000	0.001544	0.001734	28.0833	0.030910	0.002016	15.3332	112.949	-163.301	-0.020104	0.169222	-0.903753	-0.905118	-0.025494	15.3332	-0.902506	-1.098822E+12	2.320086E-14	NaN
1019	1.000000	0.178550	7.37502e+06	-51089.1	1055.82	-29753.4	0.000000	0.000000	6.178771	-0.097892	NaN	0.000000	0.001531	0.001673	28.0831	0.110182	0.001983	55.5751	-151.334	-167.769	-0.082743	0.177310	-0.895789	-0.897029	-0.097892	55.5751	-0.894468	-8.556780E+11	1.144023E-13	NaN
1019	1.000000	0.186571	7.37502e+06	-51089.1	1055.82	-29753.4	0.000000	0.000000	6.186797	-0.002456	NaN	0.000000	0.001521	0.001701	28.0831	0.037625	0.001921	19.5847	113.474	-168.284	-0.083029	0.185208	-0.887768	-0.889131	-0.002456	19.5847	-0.887674	-6.925769E+11	3.546226E-15	NaN
1019	1.000000	0.194559	7.37502e+06	-51089.1	1055.82	-29753.4	0.000000	0.000000	6.194784	-0.025390	NaN	0.000000	0.001535	0.001685	28.0832	0.032855	0.001840	17.8518	26.9042	-166.466	0.055485	0.193265	-0.879780	-0.881074	-0.025390	17.8518	-0.878713	-5.239692E+11	4.845699E-14	NaN
1019	1.000000	0.202572	7.37502e+06	-51089.1	1055.82	-29753.4	0.000000	0.000000	6.202797	-0.016523	NaN	0.000000	0.001539	0.001695	28.0833	0.028104	0.002089	13.4562	-102.433	-166.358	-0.075299	0.201292	-0.871767	-0.873047	-0.016523	13.4562	-0.870846	-4.100977E+11	4.029145E-14	NaN
1019	1.000000	0.210562	7.37502e+06	-51089.1	1055.82	-29753.4	0.000000	0.000000	6.210788	0.021176	NaN	0.000000	0.001533	0.001716	28.0833	0.123536	0.001979	62.4288	162.462	-166.313	-0.030127	0.209277	-0.863778	-0.865062	0.021176	62.4288	-0.864032	-3.316574E+11	-6.384873E-14	NaN
1019	1.000000	0.218581	7.37502e+06	-51089.1	1055.82	-29753.4	0.000000	0.000000	6.218804	-0.057957	NaN	0.000000	0.001537	0.001760	28.0836	0.104344	0.001896	55.0266	61.7724	-165.053	-0.023230	0.217253	-0.855758	-0.857086	-0.057957	55.0266	-0.854968	-2.500389E+11	2.317923E-13	NaN
1019	1.000000	0.226568	7.37502e+06	-51089.1	1055.82	-29753.4	0.000000	0.000000	6.226792	-0.018000	NaN	0.000000	0.001538	0.001688	28.0834	0.167491	0.002032	82.4172	39.0451	-165.317	-0.091617	0.225338	-0.847772	-0.849002	-0.018000	82.4172	-0.847608	-1.987663E+11	9.056082E-14	NaN
1019	1.000000	0.234606	7.37502e+06	-51089.1	1055.82	-29753.4	0.000000	0.000000	6.234832	0.012303	NaN	0.000000	0.001515	0.001692	28.0833	0.045617	0.002047	22.2805	-65.5613	-164.256	0.090898	0.233261	-0.839733	-0.841078	0.012303	22.2805	-0.840147	-1.575018E+11	-7.811257E-14	NaN
1019	1.000000	0.242591	7.37502e+06	-51089.1	1055.82	-29753.4	0.000000	0.000000	6.242814	-0.051118	NaN	0.000000	0.001538	0.001731	28.0838	0.063103	0.001990	31.7056	152.645	-165.794	0.034502	0.241302	-0.831748	-0.833038	-0.051118	31.7056	-0.830539	-1.167053E+11	4.380084E-13	NaN
1019	1.000000	0.250614	7.37502e+06	-51089.1	1055.82	-29753.4	0.000000	0.000000	6.250839	-0.005209	NaN	0.000000	0.001527	0.001709	28.0833	0.147317	0.001980	74.4177	135.732	-167.002	-0.001353	0.249315	-0.823725	-0.825024	-0.005209	74.4177	-0.823673	-9.419141E+10	5.530545E-14	NaN
1019	1.000000	0.258607	7.37502e+06	-51089.1	1055.82	-29753.4	0.000000	0.000000	6.258832	-0.017910	NaN	0.000000	0.001514	0.001704	28.0839	0.060207	0.002084	28.8862	-169.837	-168.338	-0.038281	0.257284	-0.815732	-0.817055	-0.017910	28.8862	-0.815267	-7.244668E+10	2.472159E-13	NaN
1019	1.000000	0.266609	7.37502e+06	-51089.1	1055.82	-29753.4	0.000000	0.000000	6.266831	-0.091999	NaN	0.000000	0.001535	0.001694	28.0834	0.028669	0.002080	13.7817	-178.854	-165.587	-0.060110	0.265338	-0.807730	-0.809001	-0.091999	13.7817	-0.802724	-4.895900E+10	1.879109E-12	NaN
1019	1.000000	0.274605	7.37502e+06	-51089.1	1055.82	-29753.4	0.000000	0.000000	6.274829	-0.023279	NaN	0.000000	0.001533	0.001686	28.0833	0.045987	0.001995	23.0516	111.712	-168.058	-0.071877	0.273312	-0.799734	-0.801027	-0.023279	23.0516	-0.798977	-4.354866E+10	5.345579E-13	NaN
1019	1.000000	0.282642	7.37502e+06	-51089.1	1055.82	-29753.4	0.000000	0.000000	6.282867	-0.010522	NaN	0.000000	0.001541	0.001709	28.0832	0.019492	0.001980	9.844492	-82.9835	-165.092	0.047568	0.281267	-0.791697	-0.793073	-0.010522	9.844492	-0.790896	-3.382601E+10	3.110486E-13	NaN
1019	1.000000	0.290621	7.37502e+06	-51089.1	1055.82	-29753.4	0.000000	0.000000	6.290847	0.011930	NaN	0.000000	0.001537	0.001681	28.0833	0.097724	0.001958	49.9137	57.2409	-164.92	-0.012759	0.289332	-0.783718	-0.785007	0.011930	49.9137	-0.783897	-2.717611E+10	-4.389953E-13	NaN
1019	1.000000	0.298641	7.37502e+06	-51089.1	1055.82	-29753.4	0.000000	0.000000	6.298867	0.029600	NaN	0.000000	0.001576	0.001720	28.0835	0.095957	0.001965	48.8254	65.118	-166.696	0.047927	0.297301	-0.775698	-0.777038	0.029600	48.8254	-0.776153	-2.132811E+10	-1.387862E-12	NaN
1019	1.000000	0.306615	7.37502e+06	-51089.1	1055.82	-29753.4	0.000000	0.000000	6.306842	0.047126	NaN	0.000000	0.001573	0.001727	28.0845	0.016569	0.002009	8.247056	-3.143885	-163.5	0.107395	0.305322	-0.767724	-0.769017	0.047126	8.247056	-0.772010	-1.873414E+10	-2.515502E-12	NaN
1019	1.000000	0.314658	7.37502e+06	-51089.1	1055.82	-29753.4	0.000000	0.000000	6.314881	-0.065246	NaN	0.000000	0.001569	0.001693	28.0847	0.029399	0.001919	15.3202	-127.57	-164.152	-0.017330	0.313335	-0.759681	-0.761004	-0.065246	15.3202	-0.756487	-1.152129E+10	5.663079E-12	NaN
1019	1.000000	0.322638	7.37502e+06	-51089.1	1055.82	-29753.4	0.000000	0.000000	6.322863	-0.014925	NaN	0.000000	0.001568	0.001678	28.0845	0.061519	0.001999	30.782	-101.356	-164.972	-0.043014	0.321345	-0.751702	-0.752994	-0.014925	30.782	-0.751338	-9.804629E+9	1.522259E-12	NaN
1019	1.000000	0.330631	7.37502e+06	-51089.1	1055.82	-29753.4	0.000000	0.000000	6.330859	0.061673	NaN	0.000000	0.001510	0.001664	28.0845	0.031987	0.001861	17.1845	-174.034	-163.506	0.065766	0.329333	-0.743708	-0.745006	0.061673	17.1845	-0.746400	-8.398584E+9	-7.343251E-12	NaN
1019	1.000000	0.338643	7.37502e+06	-51089.1	1055.82	-29753.4	0.000000	0.000000	6.338869	0.011156	NaN	0.000000	0.001569	0.001659	28.0846	0.072659	0.001958	37.107	-31.7531	-164.682	-0.011755	0.337349	-0.735696	-0.736990	0.011156	37.107	-0.735921	-6.046385E+9	-1.845111E-12	NaN
1019	1.000000	0.346646	7.37502e+06	-51089.1	1055.82	-29753.4	0.000000	0.000000	6.346872	0.025147	NaN	0.000000	0.001554	0.001659	28.0845	0.094639	0.001972	47.9978	-14.2479	-162.447	-0.068439	0.345272	-0.727694	-0.729067	0.025147	47.9978	-0.728087	-4.728543E+9	-5.318024E-12	NaN
1019	1.000000	0.354635	7.37502e+06	-51089.1	1055.82	-29753.4	0.000000	0.000000	6.354862	0.030470	NaN	0.000000	0.001548	0.001645	28.0848	0.053177	0.001989	26.7389	46.2106	-162.97	0.039344	0.353343	-0.719704	-0.720997	0.030470	26.7389	-0.720559	-3.733280E+9	-8.161711E-12	NaN
1019	1.000000	0.362648	7.37502e+06	-51089.1	1055.82	-29753.4	0.000000	0.000000	6.362875	0.027489	NaN	0.000000	0.001544	0.001613	28.0846	0.059508	0.002092	28.444	-24.7057	-166.975	0.056395	0.361383	-0.711691	-0.712956	0.027489	28.444	-0.712416	-2.890776E+9	-9.509326E-12	NaN
1019	1.000000	0.370641	7.37502e+06	-51089.1	1055.82	-29753.4	0.000000	0.000000	6.370866	-0.010075	NaN	0.000000	0.001541	0.001634	28.0849	0.067589	0.002089	32.3476	104.152	-162.882	-0.033673	0.369357	-0.703698	-0.704982	-0.010075	32.3476	-0.703464	-2.181906E+9	4.617510E-12	NaN
1019	1.000000	0.378654	7.37502e+06	-51089.1	1055.82	-29753.4	0.000000	0.000000	6.378881	0.042473	NaN	0.000000	0.001577	0.001643	28.0846	0.007827	0.002052	3.813737	-140.117	-170.79	-0.048258	0.377261	-0.695685	-0.697079	0.042473	3.813737	-0.704038	-2.221602E+9	-1.911828E-11	NaN
1019	1.000000	0.386646	7.37502e+06	-51089.1	1055.82	-29753.4	0.000000	0.000000	6.386868	-0.078282	NaN	0.000000	0.001554	0.001668	28.0846	0.024194	0.001963	12.3255	160.172	-163.221	-0.024816	0.385321	-0.687693	-0.689019	-0.078282	12.3255	-0.682930	-1.143582E+9	6.845362E-11	NaN
1019	1.000000	0.394681	7.37502e+06	-51089.1	1055.82	-29753.4	0.000000	0.000000	6.394904	-0.051635	NaN	0.000000	0.001585	0.001640	28.0847	0.065032	0.002017	32.2388	141.201	-161.046	-0.017036	0.393360	-0.679658	-0.680979	-0.051635	32.2388	-0.678457	-9.933541E+8	5.198006E-11	NaN
1019	1.000000	0.402659	7.37502e+06	-51089.1	1055.82	-29753.4	0.000000	0.000000	6.402883	-0.055574	NaN	0.000000	0.001593	0.001634	28.0846	0.117453	0.001989	59.0567	-46.179	-166.808	-0.129176	0.401348	-0.671680	-0.672991	-0.055574	59.0567	-0.670974	-7.847338E+8	7.081901E-11	NaN
1019	1.000000	0.410666	7.37502e+06	-51089.1	1055.82	-29753.4	0.000000	0.000000	6.410892	0.011389	NaN	0.000000	0.001666	0.001680	28.0849	0.113529	0.001987	57.1315	107.874	-163.485	-0.058824	0.409343	-0.663674	-0.664996	0.011389	57.1315	-0.663823	-6.263654E+8	-1.818281E-11	NaN
1019	1.000000	0.418673	7.37502e+06	-51089.1	1055.82	-29753.4	0.000000	0.000000	6.418900	0.029651	NaN	0.000000	0.001678	0.001715	28.0847	0.139209	0.001760	79.1141	-137.457	-163.542	0.033959	0.417324	-0.655666	-0.657016	0.029651	79.1141	-0.655947	-4.885916E+8	-6.068575E-11	NaN
1019	1.000000	0.426711	7.37502e+06	-51089.1	1055.82	-29753.4	0.000000	0.000000	6.426937	0.002944	NaN	0.000000	0.001663	0.001710	28.0849	0.063603	0.001998	31.8344	36.7179	-162.263	-0.005900	0.425376	-0.647628	-0.648964	0.002944	31.8344	-0.647697	-3.765888E+8	-7.818266E-12	NaN
1019	1.000000	0.434699	7.37502e+06	-51089.1	1055.82	-29753.4	0.000000	0.000000	6.434922	-0.050704	NaN	0.000000	0.001650	0.001717	28.0847	0.063958	0.002107	30.3525	-37.5433	-164.831	0.051096	0.433365	-0.639641	-0.640974	-0.050704	30.3525	-0.638388	-2.806503E+8	1.806654E-10	NaN
1019	1.000000	0.442703	7.37502e+06	-51089.1	1055.82	-29753.4	0.000000	0.000000	6.442927	-0.035044	NaN	0.000000	0.001617	0.001728	28.0834	0.042446	0.002106	20.1519	83.1841	-164.227	-0.036501	0.441345	-0.631637	-0.632994	-0.035044	20.1519	-0.630332	-2.175640E+8	1.610761E-10	NaN
1019	1.000000	0.450703	7.37502e+06	-51089.1	1055.82	-29753.4	0.000000	0.000000	6.450927	-0.029364	NaN	0.000000	0.001617	0.001647	28.0835	0.031849	0.002065	15.4213	-56.2095	-163.361	-0.031040	0.449340	-0.623636	-0.624999	-0.029364	15.4213	-0.622208	-1.682600E+8	1.745147E-10	NaN
1019	1.000000	0.458698	7.37502e+06	-51089.1	1055.82	-29753.4	0.000000	0.000000	6.458923	-0.011580	NaN	0.000000	0.001564	0.001668	28.0833	0.107072	0.002020	53.0052	41.2447	-165.389	0.009171	0.457380	-0.615641	-0.616959	-0.011580	53.0052	-0.615477	-1.359723E+8	8.516101E-11	NaN
1019	1.000000	0.466681	7.37502e+06	-51089.1	1055.82	-29753.5	0.000000	0.000000	6.466908	0.029934	NaN	0.000000	0.001578	0.001669	28.0837	0.063539	0.002011	31.5957	-127.478	-170.338	0.008604	0.465368	-0.607658	-0.608971	0.029934	31.5957	-0.608369	-1.085595E+8	-2.757373E-10	NaN
1019	1.000000	0.474710	7.37502e+06	-51089.1	1055.82	-29753.5	0.000000	0.000000	6.474934	-0.042087	NaN	0.000000	0.001602	0.001685	28.0835	0.099003	0.002081	47.5772	125.934	-163.783	-0.065635	0.473373	-0.599629	-0.600967	-0.042087	47.5772	-0.598966	-8.057785E+7	5.223143E-10	NaN
1019	1.000000	0.482688	7.37502e+06	-51089.1	1055.82	-29753.5	0.000000	0.000000	6.482915	0.016667	NaN	0.000000	0.001602	0.001721	28.0836	0.080340	0.001971	40.7631	-80.8343	-165.238	-0.000309	0.481367	-0.591651	-0.592973	0.016667	40.7631	-0.591957	-6.451337E+7	-2.583513E-10	NaN
1019	1.000000	0.490708	7.37502e+06	-51089.1	1055.82	-29753.5	0.000000	0.000000	6.490933	-0.017626	NaN	0.000000	0.001597	0.001725	28.0834	0.076742	0.001897	40.463	133.249	-162.733	-0.080277	0.489349	-0.583631	-0.584991	-0.017626	40.463	-0.583305	-4.901472E+7	3.596015E-10	NaN
1019	1.000000	0.498726	7.37502e+06	-51089.1	1055.82	-29753.4	0.000000	0.000000	6.498949	-0.050564	NaN	0.000000	0.001594	0.001705	28.0834	0.080596	0.001846	43.667	-149.248	-164.247	0.041590	0.497451	-0.575613	-0.576888	-0.050564	43.667	-0.574745	-3.734004E+7	1.354146E-9	NaN
1019	1.000000	0.506717	7.37502e+06	-51089.1	1055.82	-29753.5	0.000000	0.000000	6.506941	-0.035034	NaN	0.000000	0.001605	0.001695	28.0835	0.062695	0.001973	31.7725	128.757	-166.091	-0.086187	0.505465	-0.567622	-0.568874	-0.035034	31.7725	-0.566795	-2.899608E+7	1.208246E-9	NaN
1019	1.000000	0.514726	7.37502e+06	-51089.1	1055.82	-29753.5	0.000000	0.000000	6.514952	0.017034	NaN	0.000000	0.001576	0.001677	28.0836	0.062077	0.002129	29.162	-51.1621	-167.772	-0.025952	0.513417	-0.559613	-0.560922	0.017034	29.162	-0.560051	-2.339297E+7	-7.281824E-10	NaN
1019	1.000000	0.522708	7.37502e+06	-51089.1	1055.82	-29753.5	0.000000	0.000000	6.522933	-0.000130	NaN	0.000000	0.001578	0.001685	28.0838	0.025688	0.002117	12.1364	-38.8941	-163.751	0.003634	0.521427	-0.551631	-0.552913	-0.000130	12.1364	-0.551623	-1.788287E+7	7.254243E-12	NaN
1019	1.000000	0.530719	7.37502e+06	-51089.1	1055.82	-29753.5	0.000000	0.000000	6.530941	-0.063693	NaN	0.000000	0.001581	0.001697	28.0835	0.065718	0.002158	30.4501	-153.723	-165.674	-0.031470	0.529490	-0.543621	-0.544849	-0.063693	30.4501	-0.542052	-1.317682E+7	4.833685E-9	NaN
1019	1.000000	0.538743	7.37502e+06	-51089.1	1055.82	-29753.5	0.000000	0.000000	6.538969	0.007196	NaN	0.000000	0.001571	0.001689	28.0835	0.071552	0.001884	37.9721	-73.7191	-166.233	0.022797	0.537388	-0.535596	-0.536951	0.007196	37.9721	-0.535738	-1.077055E+7	-6.680858E-10	NaN
1019	1.000000	0.546720	7.37502e+06	-51089.1	1055.82	-29753.5	0.000000	0.000000	6.546944	-0.030872	NaN	0.000000	0.001593	0.001720	28.0836	0.023074	0.002039	11.3172	-163.29	-163.059	-0.021127	0.545457	-0.527619	-0.528882	-0.030872	11.3172	-0.525573	-7.78181e+06	3.967184E-9	NaN
1019	1.000000	0.554727	7.37502e+06	-51089.1	1055.82	-29753.5	0.000000	0.000000	6.554952	-0.015127	NaN	0.000000	0.001571	0.001727	28.0834	0.071089	0.002015	35.2787	-141.106	-165.604	0.026377	0.553450	-0.519612	-0.520889	-0.015127	35.2787	-0.519291	-6.36406e+06	2.376932E-9	NaN
1019	1.000000	0.562723	7.37502e+06	-51089.1	1055.82	-29753.5	0.000000	0.000000	6.562947	-0.024780	NaN	0.000000	0.001581	0.001723	28.0836	0.019571	0.001945	10.0635	48.6422	-166.669	-0.017603	0.561420	-0.511616	-0.512920	-0.024780	10.0635	-0.509770	-4.69036e+06	5.283220E-9	NaN
1019	1.000000	0.570754	7.37502e+06	-51089.1	1055.82	-29753.5	0.000000	0.000000	6.570979	-0.027144	NaN	0.000000	0.001591	0.001714	28.0833	0.106903	0.001916	55.7842	75.1807	-161.941	-0.026347	0.569403	-0.503585	-0.504936	-0.027144	55.7842	-0.503220	-3.80127e+06	7.140648E-9	NaN
1019	1.000000	0.578767	7.37502e+06	-51089.1	1055.82	-29753.5	0.000000	0.000000	6.578993	0.026175	NaN	0.000000	0.001560	0.001689	28.0847	0.042384	0.001985	21.3499	30.0849	-165.191	-0.012131	0.577448	-0.495572	-0.496892	0.026175	21.3499	-0.496492	-3.06241e+06	-8.547257E-9	NaN
1019	1.000000	0.586780	7.37502e+06	-51089.1	1055.82	-29753.5	0.000000	0.000000	6.587003	-0.057213	NaN	0.000000	0.001605	0.001720	28.0844	0.044525	0.001981	22.4782	-147.729	-165.635	-0.027595	0.585399	-0.487559	-0.488941	-0.057213	22.4782	-0.485650	-2.16066e+06	2.647943E-8	NaN
1019	1.000000	0.594749	7.37502e+06	-51089.1	1055.82	-29753.5	0.000000	0.000000	6.594974	-0.011958	NaN	0.000000	0.001577	0.001658	28.0845	0.031677	0.001992	15.9006	-31.5203	-164.68	-0.033238	0.593464	-0.479590	-0.480875	-0.011958	15.9006	-0.479026	-1.74538e+06	6.851098E-9	NaN
1019	1.000000	0.602759	7.37502e+06	-51089.1	1055.82	-29753.5	0.000000	0.000000	6.602983	-0.025156	NaN	0.000000	0.001613	0.001694	28.0844	0.025872	0.001927	13.428	70.5567	-162.917	-0.082596	0.601400	-0.471580	-0.472939	-0.025156	13.428	-0.470175	-1.31179e+06	1.917690E-8	NaN
1019	1.000000	0.610766	7.37502e+06	-51089.1	1055.82	-29753.5	0.000000	0.000000	6.610991	-0.013092	NaN	0.000000	0.001587	0.001643	28.0845	0.095134	0.002034	46.7754	-79.1185	-168.804	0.013769	0.609462	-0.463574	-0.464878	-0.013092	46.7754	-0.463364	-1.05262e+06	1.243797E-8	NaN
1019	1.000000	0.618762	7.37502e+06	-51089.1	1055.82	-29753.5	0.000000	0.000000	6.618987	-0.014164	NaN	0.000000	0.001567	0.001666	28.0846	0.070868	0.002030	34.9101	159.476	-166.262	-0.004568	0.617451	-0.455577	-0.456888	-0.014164	34.9101	-0.455272	-810121	1.748357E-8	NaN
1019	1.000000	0.626771	7.37502e+06	-51089.1	1055.82	-29753.5	0.000000	0.000000	6.626996	-0.013400	NaN	0.000000	0.001570	0.001665	28.0843	0.119454	0.001881	63.5138	-32.4201	-164.845	0.023703	0.625461	-0.447568	-0.448878	-0.013400	63.5138	-0.447410	-627850	2.134308E-8	NaN
1019	1.000000	0.634789	7.37502e+06	-51089.1	1055.82	-29753.5	0.000000	0.000000	6.635012	-0.063800	NaN	0.000000	0.001603	0.001709	28.0847	0.058522	0.002003	29.2115	-141.733	-167.251	-0.026829	0.633516	-0.439550	-0.440823	-0.063800	29.2115	-0.437912	-461198	1.383346E-7	NaN
1019	1.000000	0.642781	7.37502e+06	-51089.1	1055.82	-29753.5	0.000000	0.000000	6.643009	0.045924	NaN	0.000000	0.001573	0.001708	28.0846	0.033523	0.001931	17.3601	171.047	-164.986	-0.048516	0.641480	-0.431558	-0.432859	0.045924	17.3601	-0.433542	-400082	-1.147864E-7	NaN
1019	1.000000	0.650775	7.37502e+06	-51089.1	1055.82	-29753.5	0.000000	0.000000	6.651000	-0.010715	NaN	0.000000	0.001592	0.001702	28.0846	0.109217	0.002094	52.1495	-19.1509	-165.29	-0.104577	0.649397	-0.423564	-0.424943	-0.010715	52.1495	-0.423410	-287580	3.725848E-8	NaN
1019	1.000000	0.658774	7.37502e+06	-51089.1	1055.82	-29753.5	0.000000	0.000000	6.659001	0.025402	NaN	0.000000	0.001574	0.001703	28.0845	0.087125	0.001909	45.6311	-40.3768	-162.963	-0.024135	0.657507	-0.415565	-0.416832	0.025402	45.6311	-0.415983	-225636	-1.125784E-7	NaN
1019	1.000000	0.666806	7.37502e+06	-51089.1	1055.82	-29753.5	0.000000	0.000000	6.667029	-0.069396	NaN	0.000000	0.001596	0.001689	28.0845	0.034355	0.002012	17.0747	-152.723	-163.955	-0.037179	0.665459	-0.407533	-0.408881	-0.069396	17.0747	-0.404485	-154851	4.481443E-7	NaN
1019	1.000000	0.674796	7.37502e+06	-51089.1	1055.82	-29753.5	0.000000	0.000000	6.675021	-0.025018	NaN	0.000000	0.001582	0.001695	28.0845	0.104758	0.001950	53.7114	-114.208	-164.087	-0.021932	0.673467	-0.399543	-0.400872	-0.025018	53.7114	-0.399194	-130164	1.922007E-7	NaN
1019	1.000000	0.682806	7.37502e+06	-51089.1	1055.82	-29753.5	0.000000	0.000000	6.683031	-0.016278	NaN	0.000000	0.001597	0.001717	28.0846	0.109374	0.002070	52.8391	-102.709	-165.398	-0.036979	0.681456	-0.391533	-0.392883	-0.016278	52.8391	-0.391302	-100411	1.621113E-7	NaN
1019	1.000000	0.690770	7.37502e+06	-51089.1	1055.82	-29753.5	0.000000	0.000000	6.690993	-0.043623	NaN	0.000000	0.001583	0.001731	28.0846	0.113084	0.002022	55.9154	-36.9284	-161.401	0.046806	0.689476	-0.383570	-0.384863	-0.043623	55.9154	-0.382984	-76330.5	5.714986E-7	NaN
1019	1.000000	0.698809	7.37502e+06	-51089.1	1055.82	-29753.5	0.000000	0.000000	6.699034	-0.022572	NaN	0.000000	0.001562	0.001724	28.0844	0.106370	0.002032	52.3577	26.5068	-164.037	0.004770	0.697460	-0.375530	-0.376879	-0.022572	52.3577	-0.375207	-59026.3	3.824087E-7	NaN
1019	1.000000	0.706833	7.37502e+06	-51089.1	1055.82	-29753.5	0.000000	0.000000	6.707058	-0.011780	NaN	0.000000	0.001603	0.001695	28.0845	0.042349	0.002078	20.3758	177.14	-161.398	-0.016655	0.705465	-0.367506	-0.368874	-0.011780	20.3758	-0.367073	-45076.2	2.613281E-7	NaN
1019	1.000000	0.714801	7.37502e+06	-51089.1	1055.82	-29753.5	0.000000	0.000000	6.715026	-0.010077	NaN	0.000000	0.001584	0.001699	28.0834	0.063686	0.002054	31.0116	79.828	-166.594	-0.076437	0.713517	-0.359538	-0.360822	-0.010077	31.0116	-0.359295	-34805.4	2.895262E-7	NaN
1019	1.000000	0.722805	7.37502e+06	-51089.1	1055.82	-29753.5	0.000000	0.000000	6.723028	-0.062533	NaN	0.000000	0.001584	0.001682	28.0833	0.063526	0.001954	32.5052	-56.8616	-162.105	0.006349	0.721507	-0.351534	-0.352832	-0.062533	32.5052	-0.350091	-25605.2	2.442204E-6	NaN
1019	1.000000	0.730798	7.37502e+06	-51089.1	1055.82	-29753.5	0.000000	0.000000	6.731021	-0.060928	NaN	0.000000	0.001588	0.001688	28.0835	0.054275	0.001828	29.684	11.6396	-166.661	-0.118985	0.729460	-0.343542	-0.344880	-0.060928	29.684	-0.342002	-19531	3.119554E-6	NaN
1019	1.000000	0.738790	7.37502e+06	-51089.1	1055.82	-29753.5	0.000000	0.000000	6.739014	-0.025147	NaN	0.000000	0.001613	0.001719	28.0837	0.086991	0.001979	43.9547	-27.1571	-166.338	-0.044328	0.737555	-0.335549	-0.336784	-0.025147	43.9547	-0.335120	-15500.4	1.622312E-6	NaN
1019	1.000000	0.746809	7.37502e+06	-51089.1	1055.82	-29753.5	0.000000	0.000000	6.747034	-0.017994	NaN	0.000000	0.001590	0.001677	28.0833	0.041265	0.002015	20.4797	56.9511	-165.688	-0.051999	0.745515	-0.327530	-0.328824	-0.017994	20.4797	-0.326871	-11738	1.532979E-6	NaN
1019	1.000000	0.754831	7.37502e+06	-51089.1	1055.82	-29753.5	0.000000	0.000000	6.755057	0.011872	NaN	0.000000	0.001597	0.001717	28.0834	0.097351	0.002013	48.3696	126.865	-164.428	0.043012	0.753488	-0.319509	-0.320851	0.011872	48.3696	-0.319693	-9206.91	-1.289479E-6	NaN
1019	1.000000	0.762803	7.37502e+06	-51089.1	1055.82	-29753.5	0.000000	0.000000	6.763025	-0.083960	NaN	0.000000	0.001586	0.001710	28.0834	0.165302	0.002039	81.0717	-172.065	-165.902	-0.066094	0.761516	-0.311537	-0.312823	-0.083960	81.0717	-0.310760	-6796.72	1.235307E-5	NaN
1019	1.000000	0.770792	7.37502e+06	-51089.1	1055.82	-29753.5	0.000000	0.000000	6.771017	-0.009878	NaN	0.000000	0.001591	0.001696	28.0835	0.018258	0.002100	8.693280	129.784	-164.201	-0.081228	0.769551	-0.303547	-0.304788	-0.009878	8.693280	-0.302695	-5160.86	1.913954E-6	NaN
1019	1.000000	0.778803	7.37502e+06	-51089.1	1055.82	-29753.5	0.000000	0.000000	6.779030	0.027818	NaN	0.000000	0.001614	0.001720	28.0835	0.104879	0.001998	52.4962	155.016	-161.241	-0.051873	0.777530	-0.295536	-0.296809	0.027818	52.4962	-0.295933	-4092.79	-6.796906E-6	NaN
1019	1.000000	0.786845	7.37502e+06	-51089.1	1055.82	-29753.5	0.000000	0.000000	6.787067	-0.072066	NaN	0.000000	0.001606	0.001673	28.0836	0.117015	0.001942	60.2674	-19.4703	-162.176	0.002785	0.785500	-0.287495	-0.288840	-0.072066	60.2674	-0.286598	-2966.7	2.429161E-5	NaN
1019	1.000000	0.794854	7.37502e+06	-51089.1	1055.82	-29753.5	0.000000	0.000000	6.795080	0.024658	NaN	0.000000	0.001576	0.001719	28.0833	0.052551	0.002152	24.4142	-134.943	-163.838	0.088378	0.793518	-0.279485	-0.280821	0.024658	24.4142	-0.280243	-2380.31	-1.035925E-5	NaN
1019	1.000000	0.802820	7.37502e+06	-51089.1	1055.82	-29753.5	0.000000	0.000000	6.803045	-0.001746	NaN	0.000000	0.001565	0.001704	28.0834	0.091795	0.001858	49.3993	124.24	-162.239	-0.016616	0.801494	-0.271519	-0.272845	-0.001746	49.3993	-0.271493	-1754.79	9.948980E-7	NaN
1019	1.000000	0.810844	7.37502e+06	-51089.1	1055.82	-29753.5	0.000000	0.000000	6.811069	-0.016700	NaN	0.000000	0.001550	0.001721	28.0834	0.054665	0.002093	26.123	118.1	-165.938	0.034760	0.809538	-0.263495	-0.264801	-0.016700	26.123	-0.263016	-1303.41	1.281283E-5	NaN
1019	1.000000	0.818826	7.37502e+06	-51089.1	1055.82	-29753.5	0.000000	0.000000	6.819049	-0.058732	NaN	0.000000	0.001588	0.001704	28.0831	0.065024	0.001925	33.7711	37.2402	-163.427	-0.036226	0.817497	-0.255514	-0.256842	-0.058732	33.7711	-0.254209	-954.86	6.150873E-5	NaN
1019	1.000000	0.826861	7.37502e+06	-51089.1	1055.82	-29753.5	0.000000	0.000000	6.827088	0.031971	NaN	0.000000	0.001598	0.001715	28.0836	0.079791	0.002006	39.7815	-178.154	-163.217	-0.034958	0.825583	-0.247478	-0.248756	0.031971	39.7815	-0.248081	-767.825	-4.163871E-5	NaN
1019	1.000000	0.834859	7.37502e+06	-51089.1	1055.82	-29753.5	0.000000	0.000000	6.835085	0.004974	NaN	0.000000	0.001536	0.001696	28.0836	0.063145	0.002134	29.5969	152.055	-165.82	0.036659	0.833503	-0.239480	-0.240836	0.004974	29.5969	-0.239606	-566.755	-8.776431E-6	NaN
1019	1.000000	0.842854	7.37502e+06	-51089.1	1055.82	-29753.5	0.000000	0.000000	6.843081	0.022714	NaN	0.000000	0.001553	0.001706	28.0833	0.092787	0.001864	49.7795	-87.2059	-165.459	0.028372	0.841629	-0.231485	-0.232710	0.022714	49.7795	-0.231827	-427.9	-5.308188E-5	NaN
1019	1.000000	0.850866	7.37502e+06	-51089.1	1055.82	-29753.5	0.000000	0.000000	6.851090	-0.026473	NaN	0.000000	0.001571	0.001700	28.0844	0.105193	0.002066	50.9263	74.9023	-167.088	-0.037029	0.849527	-0.223473	-0.224812	-0.026473	50.9263	-0.223083	-311.068	8.510236E-5	NaN
1019	1.000000	0.858834	7.37502e+06	-51089.1	1055.82	-29753.5	0.000000	0.000000	6.859060	0.020389	NaN	0.000000	0.001602	0.001717	28.0845	0.059197	0.001996	29.6626	17.8573	-164.029	0.015088	0.857493	-0.215505	-0.216846	0.020389	29.6626	-0.216021	-239.841	-8.500917E-5	NaN
1019	1.000000	0.866868	7.37502e+06	-51089.1	1055.82	-29753.5	0.000000	0.000000	6.867095	0.023403	NaN	0.000000	0.001582	0.001697	28.0848	0.097627	0.002022	48.2858	113.292	-166.128	0.081839	0.865555	-0.207471	-0.208784	0.023403	48.2858	-0.207835	-176.888	-0.000132	NaN
1019	1.000000	0.874846	7.37502e+06	-51089.1	1055.82	-29753.5	0.000000	0.000000	6.875071	0.002830	NaN	0.000000	0.001562	0.001715	28.0848	0.120781	0.002020	59.7929	153.276	-164.335	-0.030043	0.873571	-0.199493	-0.200768	0.002830	59.7929	-0.199529	-129.406	-2.187023E-5	NaN
1019	1.000000	0.882869	7.37502e+06	-51089.1	1055.82	-29753.5	0.000000	0.000000	6.883092	-0.057993	NaN	0.000000	0.001555	0.001664	28.0845	0.105375	0.002017	52.2369	111.01	-165.532	-0.064211	0.881551	-0.191470	-0.192788	-0.057993	52.2369	-0.190637	-92.1874	0.000629	NaN
1019	1.000000	0.890889	7.37502e+06	-51089.1	1055.82	-29753.5	0.000000	0.000000	6.891115	0.010312	NaN	0.000000	0.001595	0.001687	28.0846	0.023955	0.002002	11.9645	98.6867	-168.78	0.039049	0.889535	-0.183450	-0.184804	0.010312	11.9645	-0.184097	-71.5972	-0.000144	NaN
1019	1.000000	0.898873	7.37502e+06	-51089.1	1055.82	-29753.5	0.000000	0.000000	6.899100	0.042715	NaN	0.000000	0.001571	0.001716	28.0846	0.059475	0.001960	30.3455	-60.6031	-166.337	-0.029641	0.897594	-0.175466	-0.176745	0.042715	30.3455	-0.176522	-53.2219	-0.000803	NaN
1019	1.000000	0.906871	7.37502e+06	-51089.1	1055.82	-29753.5	0.000000	0.000000	6.907101	0.091384	NaN	0.000000	0.001574	0.001672	28.0846	0.053214	0.001926	27.6251	172.452	-168.956	-0.032362	0.905538	-0.167468	-0.168802	0.091384	27.6251	-0.169949	-40.9946	-0.002229	NaN
1019	1.000000	0.914859	7.37502e+06	-51089.1	1055.82	-29753.5	0.000000	0.000000	6.915084	-0.004625	NaN	0.000000	0.001566	0.001693	28.0847	0.024912	0.002047	12.1727	63.2727	-168.865	0.075148	0.913554	-0.159480	-0.160785	-0.004625	12.1727	-0.159196	-26.5263	0.000174	NaN
1019	1.000000	0.922890	7.37502e+06	-51089.1	1055.82	-29753.5	0.000000	0.000000	6.923113	-0.047827	NaN	0.000000	0.001574	0.001667	28.0845	0.113307	0.001998	56.7128	164.468	-163.198	-0.058712	0.921553	-0.151449	-0.152787	-0.047827	56.7128	-0.150817	-18.7451	0.002551	NaN
1019	1.000000	0.930900	7.37502e+06	-51089.1	1055.82	-29753.5	0.000000	0.000000	6.931126	0.019084	NaN	0.000000	0.001533	0.001708	28.0845	0.034056	0.002062	16.5168	3.377300	-163.177	0.065973	0.929505	-0.143439	-0.144834	0.019084	16.5168	-0.144306	-14.2334	-0.001341	NaN
1019	1.000000	0.938914	7.37502e+06	-51089.1	1055.82	-29753.5	0.000000	0.000000	6.939137	-0.057471	NaN	0.000000	0.001566	0.001687	28.0846	0.043857	0.001994	21.9985	131.666	-163.634	-0.113567	0.937539	-0.135425	-0.136800	-0.057471	21.9985	-0.133465	-8.890326	0.006464	NaN
1019	1.000000	0.946925	7.37502e+06	-51089.1	1055.82	-29753.5	0.000000	0.000000	6.947153	0.058961	NaN	0.000000	0.001566	0.001719	28.0845	0.093803	0.002054	45.6597	111.887	-165.111	0.060941	0.945604	-0.127414	-0.128736	0.058961	45.6597	-0.128382	-7.087602	-0.008319	NaN
1019	1.000000	0.954882	7.37502e+06	-51089.1	1055.82	-29753.5	0.000000	0.000000	6.955107	-0.010433	NaN	0.000000	0.001579	0.001732	28.0846	0.096775	0.001979	48.912	90.0294	-167.909	0.016924	0.953588	-0.119457	-0.120751	-0.010433	48.912	-0.119297	-4.675999	0.002231	NaN
1019	1.000000	0.962903	7.37502e+06	-51089.1	1055.82	-29753.5	0.000000	0.000000	6.963126	-0.062438	NaN	0.000000	0.001597	0.001688	28.0846	0.077588	0.002106	36.8327	-147.956	-162.497	-0.015733	0.961570	-0.111436	-0.112769	-0.062438	36.8327	-0.110164	-3.029285	0.020611	NaN
1019	1.000000	0.970912	7.37502e+06	-51089.1	1055.82	-29753.5	0.000000	0.000000	6.971136	-0.033152	NaN	0.000000	0.001582	0.001718	28.0846	0.085108	0.002031	41.9126	24.9182	-166.216	-0.066314	0.969590	-0.103427	-0.104749	-0.033152	41.9126	-0.102834	-2.109242	0.015718	NaN
1019	1.000000	0.978904	7.37502e+06	-51089.1	1055.82	-29753.5	0.000000	0.000000	6.979129	-0.021287	NaN	0.000000	0.001559	0.001716	28.0847	0.051111	0.001987	25.7169	52.4386	-167.573	-0.049326	0.977577	-0.095435	-0.096762	-0.021287	25.7169	-0.094815	-1.396967	0.015238	NaN
1019	1.000000	0.986931	7.37502e+06	-51089.1	1055.82	-29753.5	0.000000	0.000000	6.987156	-0.003978	NaN	0.000000	0.001573	0.001714	28.0833	0.048415	0.002063	23.4672	5.372926	-167.939	0.002540	0.985549	-0.087408	-0.088790	-0.003978	23.4672	-0.087281	-0.932155	0.004267	NaN
1019	1.000000	0.994955	7.37502e+06	-51089.1	1055.82	-29753.5	0.000000	0.000000	6.995179	-0.017069	NaN	0.000000	0.001583	0.001688	28.0833	0.067904	0.002105	32.2626	79.0852	-165.113	0.061949	0.993600	-0.079385	-0.080740	-0.017069	32.2626	-0.078988	-0.583833	0.029237	NaN
1019	1.000000	1.002915	7.37502e+06	-51089.1	1055.82	-29753.5	0.000000	0.000000	7.003138	-0.053320	NaN	0.000000	0.001570	0.001746	28.0832	0.047711	0.001935	24.6511	-150.126	-163.748	-0.077630	1.001615	-0.071424	-0.072724	-0.053320	24.6511	-0.069802	-0.336960	0.158240	NaN
1019	1.000000	1.010945	7.37502e+06	-51089.1	1055.82	-29753.5	0.000000	0.000000	7.011172	0.024665	NaN	0.000000	0.001601	0.001741	28.0833	0.089058	0.002095	42.5193	81.9076	-165.985	0.047772	1.009656	-0.063394	-0.064683	0.024665	42.5193	-0.063829	-0.231189	-0.106688	NaN
1019	1.000000	1.018943	7.37502e+06	-51089.1	1055.82	-29753.5	0.000000	0.000000	7.019167	-0.040310	NaN	0.000000	0.001627	0.001725	28.0833	0.006037	0.001943	3.106516	-5.065565	-165.491	0.002478	1.017600	-0.055396	-0.056739	-0.040310	3.106516	-0.045664	-0.067345	0.598562	NaN
1019	1.000000	1.026939	7.37502e+06	-51089.1	1055.82	-29753.5	0.000000	0.000000	7.027161	-0.079654	NaN	0.000000	0.001604	0.001701	28.0835	0.071398	0.001927	37.0502	126.421	-164.705	0.064791	1.025575	-0.047401	-0.048764	-0.079654	37.0502	-0.045788	-0.067935	1.172504	NaN
1019	1.000000	1.034932	7.37502e+06	-51089.1	1055.82	-29753.5	0.000000	0.000000	7.035158	0.014097	NaN	0.000000	0.001577	0.001683	28.0834	0.051376	0.002047	25.1039	-27.7679	-166.135	0.041232	1.033629	-0.039407	-0.040710	0.014097	25.1039	-0.039828	-0.044682	-0.315506	NaN
1019	1.000000	1.042906	7.37502e+06	-51089.1	1055.82	-29753.5	0.000000	0.000000	7.043132	0.006627	NaN	0.000000	0.001593	0.001702	28.0839	0.074161	0.002096	35.3741	121.883	-162.594	0.046560	1.041650	-0.031433	-0.032689	0.006627	35.3741	-0.031574	-0.025483	-0.260048	NaN
1019	1.000000	1.050939	7.37502e+06	-51089.1	1055.82	-29753.5	0.000000	0.000000	7.051163	-0.036268	NaN	0.000000	0.001576	0.001705	28.0834	0.067630	0.002017	33.5259	66.8476	-167.466	0.010370	1.049616	-0.023400	-0.024723	-0.036268	33.5259	-0.022589	-0.014618	2.481103	NaN
1019	1.000000	1.058947	7.37502e+06	-51089.1	1055.82	-29753.5	0.000000	0.000000	7.059172	-0.007097	NaN	0.000000	0.001554	0.001728	28.0835	0.084714	0.002005	42.2593	159.678	-167.57	-0.063065	1.057691	-0.015393	-0.016649	-0.007097	42.2593	-0.015267	-0.009436	0.752134	NaN
1019	1.000000	1.066973	7.37502e+06	-51089.1	1055.82	-29753.5	0.000000	0.000000	7.067198	-0.009825	NaN	0.000000	0.001583	0.001683	28.0834	0.081074	0.002033	39.8793	4.492372	-166.44	-0.030203	1.065612	-0.007366	-0.008727	-0.009825	39.8793	-0.007182	-0.004749	2.068920	NaN
1019	1.000000	1.074940	7.37502e+06	-51089.1	1055.82	-29753.5	0.000000	0.000000	7.075163	-0.057649	NaN	0.000000	0.001563	0.001694	28.0837	0.053382	0.002038	26.1894	48.3506	-169.662	-0.052079	1.073634	0.000601	-0.000705	-0.057649	26.1894	0.002252	0.001759	-32.7677	570.461
1019	1.000000	1.082928	7.37502e+06	-51089.1	1055.82	-29753.5	0.000000	0.000000	7.083379	5.479088	NaN	0.000000	0.001560	0.001690	28.0836	6.442006	0.001728	3727.08	11.9343	-168.805	4.153194	1.081614	0.008589	0.007275	5.479088	3727.08	0.007486	0.006520	840.415	42173
1019	2.000000	1.087522	7.37502e+06	-51089.1	1055.82	-29753.5	0.000000	0.000000	7.088218	11.4258	NaN	0.000000	0.001545	0.001692	28.0837	10.6841	0.001550	6893.52	11.7488	-177.508	11.9785	1.087126	0.013183	0.012787	11.4258	6893.52	0.011940	0.011418	1000.66	58940.7
1019	2.000000	1.089460	7.37502e+06	-51089.1	1055.82	-29753.5	0.000000	0.000000	7.090319	15.4066	NaN	0.000000	0.001611	0.001740	28.0838	14.0731	0.001742	8080	8.729535	-178.478	14.4459	1.089187	0.015121	0.014848	15.4066	8080	0.013691	0.013579	1134.61	63351.1
1019	2.000000	1.091483	7.37502e+06	-51089.1	1055.82	-29753.5	0.000000	0.000000	7.092450	18.0359	NaN	0.000000	0.001583	0.001746	28.0838	15.3653	0.001572	9777.04	2.523530	-170.588	18.0725	1.091135	0.017144	0.016795	18.0359	9777.04	0.015760	0.016313	1105.63	69938.5
1019	2.000000	1.093444	7.37502e+06	-51089.1	1055.82	-29753.5	0.000000	0.000000	7.094584	22.2428	NaN	0.000000	0.001578	0.001723	28.0838	17.8091	0.001811	9832.91	6.683346	-176.114	21.4816	1.093168	0.019105	0.018829	22.2428	9832.91	0.017408	0.018632	1193.8	65815.3
1019	2.000000	1.095435	7.37502e+06	-51089.1	1055.82	-29753.5	0.000000	0.000000	7.096694	25.1369	NaN	0.000000	0.001575	0.001692	28.0848	19.9593	0.001792	11138.8	6.774305	-176.529	24.6773	1.095135	0.021096	0.020796	25.1369	11138.8	0.019403	0.021613	1163.02	69222.7
1019	2.000000	1.097403	7.37502e+06	-51089.1	1055.82	-29753.5	0.000000	0.000000	7.098945	32.0064	NaN	0.000000	0.001584	0.001689	28.085	20.7497	0.001680	12353.2	1.245213	-172.261	31.0166	1.097134	0.023064	0.022795	32.0064	12353.2	0.021121	0.024334	1315.29	72351.1
1019	2.000000	1.099410	7.37502e+06	-51089.1	1055.82	-29753.5	0.000000	0.000000	7.101077	35.0336	NaN	0.000000	0.001675	0.001662	28.0847	24.2809	0.001734	14005.1	6.278316	-178.911	34.8572	1.099063	0.025071	0.024724	35.0336	14005.1	0.023195	0.027814	1259.59	76723.9
1019	2.000000	1.101476	7.37502e+06	-51089.1	1055.82	-29753.5	0.000000	0.000000	7.103431	42.0476	NaN	0.000000	0.001663	0.001664	28.0848	27.4636	0.001870	14688.2	8.523817	178.582	43.0095	1.101109	0.027137	0.026770	42.0476	14688.2	0.024990	0.030998	1356.48	76221.5
1019	2.000000	1.103403	7.37502e+06	-51089.1	1055.82	-29753.5	0.000000	0.000000	7.105533	46.3064	NaN	0.000000	0.001671	0.001694	28.0847	29.3825	0.001686	17430.2	9.118519	177.179	47.9824	1.103176	0.029064	0.028837	46.3064	17430.2	0.027072	0.034893	1327.11	85252.8
1019	2.000000	1.105390	7.37502e+06	-51089.1	1055.82	-29753.5	0.000000	0.000000	7.107938	56.4901	NaN	0.000000	0.001673	0.001683	28.0848	31.2952	0.001763	17753.3	4.835367	-177.947	56.1195	1.105028	0.031050	0.030689	56.4901	17753.3	0.028664	0.038020	1485.8	83185
1019	2.000000	1.107418	7.37502e+06	-51089.1	1055.82	-29753.5	0.000000	0.000000	7.110341	65.617	NaN	0.000000	0.001677	0.001695	28.0851	33.0027	0.001772	18625.9	6.205133	179.262	65.5518	1.106980	0.033078	0.032641	65.617	18625.9	0.030436	0.041653	1575.34	83381.7
1019	2.000000	1.109378	7.37502e+06	-51089.1	1055.82	-29753.5	0.000000	0.000000	7.112489	70.1529	NaN	0.000000	0.001660	0.001723	28.0848	36.7007	0.001866	19663	7.407604	176.897	70.4122	1.109102	0.035039	0.034763	70.1529	19663	0.032363	0.045784	1532.24	83958.2
1019	2.000000	1.111347	7.37502e+06	-51089.1	1055.82	-29753.5	0.000000	0.000000	7.114835	79.3349	NaN	0.000000	0.001651	0.001727	28.0857	38.2067	0.001844	20720.2	5.276705	178.806	76.9604	1.111075	0.037007	0.036736	79.3349	20720.2	0.034136	0.049753	1594.58	84870.9
1019	2.000000	1.113398	7.37502e+06	-51089.1	1055.82	-29753.5	0.000000	0.000000	7.117154	85.8417	NaN	0.000000	0.001631	0.001725	28.0847	39.3148	0.001767	22247	6.698993	178.061	87.7221	1.113040	0.039059	0.038701	85.8417	22247	0.036165	0.054493	1575.28	87071.3
1019	2.000000	1.115406	7.37502e+06	-51089.1	1055.82	-29753.5	0.000000	0.000000	7.119471	93.3666	NaN	0.000000	0.001655	0.001682	28.0847	41.9671	0.001929	21756.7	5.982129	179.361	93.3885	1.115065	0.041067	0.040726	93.3666	21756.7	0.037849	0.058587	1593.65	82123.5
1019	2.000000	1.117323	7.37502e+06	-51089.1	1055.82	-29753.5	0.000000	0.000000	7.121740	101.932	NaN	0.000000	0.001674	0.001708	28.0847	42.3309	0.001761	24032.3	2.520654	-179.756	98.8323	1.117134	0.042984	0.042795	101.932	24032.3	0.039802	0.063519	1604.75	87119.8
1019	2.000000	1.119408	7.37502e+06	-51089.1	1055.82	-29753.5	0.000000	0.000000	7.124047	107.32	NaN	0.000000	0.001667	0.001711	28.0849	45.8966	0.001866	24594.1	5.434011	177.448	109.1	1.119119	0.045069	0.044780	107.32	24594.1	0.041796	0.068753	1560.97	85696
1019	2.000000	1.121394	7.37502e+06	-51089.1	1055.82	-29753.5	0.000000	0.000000	7.126544	119.753	NaN	0.000000	0.001657	0.001729	28.0852	47.6798	0.001800	26492.8	7.168491	175.111	119.628	1.121049	0.047055	0.046710	119.753	26492.8	0.043665	0.073841	1621.75	89073.9
1019	2.000000	1.123246	7.37502e+06	-51089.1	1055.82	-29753.5	0.000000	0.000000	7.128756	128.494	NaN	0.000000	0.001655	0.001744	28.0847	48.3151	0.001864	25920.3	0.643406	-177.897	123.808	1.123071	0.048907	0.048731	128.494	25920.3	0.045189	0.078125	1644.72	84726.3
1019	2.000000	1.125301	7.37502e+06	-51089.1	1055.82	-29753.5	0.000000	0.000000	7.131297	140.307	NaN	0.000000	0.001570	0.001730	28.0847	51.3317	0.001759	29181.9	5.099950	175.804	136.733	1.125089	0.050962	0.050750	140.307	29181.9	0.047356	0.084416	1662.08	91764
1019	2.000000	1.127321	7.37502e+06	-51089.1	1055.82	-29753.5	0.000000	0.000000	7.133732	150.418	NaN	0.000000	0.001538	0.001710	28.0845	51.7658	0.001704	30371	1.004459	179.861	147.085	1.127035	0.052982	0.052696	150.418	30371	0.049267	0.090162	1668.31	92410.6
1019	2.000000	1.129304	7.37502e+06	-51089.1	1055.82	-29753.5	0.000000	0.000000	7.136189	161.942	NaN	0.000000	0.001571	0.001753	28.0834	54.5659	0.001697	32145.7	2.447269	177.704	158.246	1.128976	0.054965	0.054636	161.942	32145.7	0.051186	0.096115	1684.87	94732.5
1019	2.000000	1.131338	7.37502e+06	-51089.1	1055.82	-29753.5	0.000000	0.000000	7.138609	171.343	NaN	0.000000	0.001564	0.001715	28.0835	57.2064	0.001757	32551.6	5.096144	175.485	169.855	1.131024	0.056999	0.056685	171.343	32551.6	0.053051	0.102076	1678.58	93086.1
1019	2.000000	1.133301	7.37502e+06	-51089.1	1055.82	-29753.5	0.000000	0.000000	7.141031	182.475	NaN	0.000000	0.001554	0.001732	28.0834	58.4691	0.001699	34411.8	6.059256	174.078	179.794	1.132949	0.058962	0.058610	182.475	34411.8	0.054985	0.108442	1682.7	95473.5
1019	2.000000	1.135315	7.37502e+06	-51089.1	1055.82	-29753.5	0.000000	0.000000	7.143365	190.279	NaN	0.000000	0.001536	0.001699	28.0835	61.5577	0.001898	32430.2	4.260651	176.18	186.875	1.135019	0.060976	0.060680	190.279	32430.2	0.056575	0.113815	1671.83	87826.3
1019	2.000000	1.137312	7.37502e+06	-51089.1	1055.82	-29753.5	0.000000	0.000000	7.145855	202.26	NaN	0.000000	0.001586	0.001772	28.0834	62.3592	0.001838	33924	4.074201	176.145	199.066	1.136974	0.062973	0.062635	202.26	33924	0.058501	0.120489	1678.65	89290.8
1019	2.000000	1.139353	7.37502e+06	-51089.1	1055.82	-29753.5	0.000000	0.000000	7.148299	212.044	NaN	0.000000	0.001577	0.001699	28.0834	65.3246	0.001816	35973.8	3.030235	177.025	211.463	1.138904	0.065014	0.064565	212.044	35973.8	0.060593	0.127944	1657.31	91886.1
1019	2.000000	1.141415	7.37502e+06	-51089.1	1055.82	-29753.5	0.000000	0.000000	7.150639	218.816	NaN	0.000000	0.001577	0.001734	28.0834	67.7701	0.001865	36343.5	6.576700	174.166	221.216	1.141024	0.067076	0.066685	218.816	36343.5	0.062560	0.135149	1619.07	90321.8
1019	2.000000	1.143286	7.37502e+06	-51089.1	1055.82	-29753.5	0.000000	0.000000	7.153147	234.307	NaN	0.000000	0.001542	0.001708	28.0834	68.3983	0.001797	38057.5	1.734296	177.868	230.365	1.142915	0.068947	0.068576	234.307	38057.5	0.064330	0.141790	1652.5	92340.3
1019	2.000000	1.145321	7.37502e+06	-51089.1	1055.82	-29753.5	0.000000	0.000000	7.155455	240.957	NaN	0.000000	0.001549	0.001681	28.0836	70.2042	0.001668	42079.8	5.064236	173.113	238.794	1.145073	0.070982	0.070734	240.957	42079.8	0.066687	0.150872	1597.09	98978.9
1019	2.000000	1.147286	7.37502e+06	-51089.1	1055.82	-29753.5	0.000000	0.000000	7.157967	254.251	NaN	0.000000	0.001560	0.001682	28.0833	71.5169	0.001713	41748.3	6.241269	171.946	251.563	1.147068	0.072947	0.072728	254.251	41748.3	0.068379	0.157557	1613.7	96093.4
1019	2.000000	1.149279	7.37502e+06	-51089.1	1055.82	-29753.5	0.000000	0.000000	7.160375	264.327	NaN	0.000000	0.001574	0.001695	28.0835	74.7739	0.001784	41920.6	5.736668	173.119	262.02	1.148960	0.074940	0.074620	264.327	41920.6	0.070211	0.164948	1602.49	94303.5
1019	2.000000	1.151365	7.37502e+06	-51089.1	1055.82	-29753.5	0.000000	0.000000	7.163018	277.888	NaN	0.000000	0.001587	0.001747	28.0834	76.8678	0.001919	40062.8	2.239428	177.031	276.744	1.151034	0.077025	0.076695	277.888	40062.8	0.071823	0.171584	1619.55	88364.2
1019	2.000000	1.153305	7.37502e+06	-51089.1	1055.82	-29753.5	0.000000	0.000000	7.165602	293.542	NaN	0.000000	0.001571	0.001704	28.0833	78.4182	0.001822	43043.3	5.866882	173.962	291.333	1.152934	0.078966	0.078595	293.542	43043.3	0.073851	0.180107	1629.82	92664.6
1019	2.000000	1.155285	7.37502e+06	-51089.1	1055.82	-29753.5	0.000000	0.000000	7.167993	303.543	NaN	0.000000	0.001610	0.001720	28.0836	80.5573	0.001836	43867.8	0.727460	177.447	300.769	1.155023	0.080946	0.080684	303.543	43867.8	0.075756	0.188288	1612.13	92365.1
1019	2.000000	1.157303	7.37502e+06	-51089.1	1055.82	-29753.5	0.000000	0.000000	7.170651	319.107	NaN	0.000000	0.001600	0.001749	28.0833	81.0156	0.001719	47143.1	3.666887	174.49	317.386	1.156992	0.082963	0.082652	319.107	47143.1	0.077887	0.197642	1614.57	96884
1019	2.000000	1.159280	7.37502e+06	-51089.1	1055.82	-29753.5	0.000000	0.000000	7.173337	336.342	NaN	0.000000	0.001576	0.001742	28.0836	84.5669	0.001873	45147.1	4.395954	173.766	335.888	1.158880	0.084940	0.084540	336.342	45147.1	0.079353	0.204202	1647.11	91279.6
1019	2.000000	1.161350	7.37502e+06	-51089.1	1055.82	-29753.5	0.000000	0.000000	7.175784	345.512	NaN	0.000000	0.001540	0.001719	28.0832	85.9384	0.001778	48341.3	3.507711	174.235	344.226	1.160955	0.087011	0.086616	345.512	48341.3	0.081651	0.214683	1609.4	95321.9
1019	2.000000	1.163461	7.37502e+06	-51089.1	1055.82	-29753.5	0.000000	0.000000	7.178221	353.438	NaN	0.000000	0.001582	0.001667	28.0844	87.1767	0.001806	48259.3	3.929220	173.948	360.031	1.163045	0.089121	0.088706	353.438	48259.3	0.083629	0.223903	1578.53	93180.2
1019	2.000000	1.165302	7.37502e+06	-51089.1	1055.82	-29753.5	0.000000	0.000000	7.180974	375.601	NaN	0.000000	0.001528	0.001690	28.0848	90.3382	0.001805	50037	11.2679	166.784	373	1.164880	0.090963	0.090541	375.601	50037	0.085333	0.231993	1619.02	94913.3
1019	2.000000	1.167263	7.37502e+06	-51089.1	1055.82	-29753.5	0.000000	0.000000	7.183665	393.367	NaN	0.000000	0.001559	0.001672	28.0844	90.2013	0.001796	50232.9	4.686088	173.031	390.09	1.166958	0.092924	0.092619	393.367	50232.9	0.087051	0.240283	1637.1	93626.8
1019	2.000000	1.169270	7.37502e+06	-51089.1	1055.82	-29753.5	0.000000	0.000000	7.185967	400.55	NaN	0.000000	0.001571	0.001689	28.0845	93.3392	0.001822	51241.2	6.418707	170.627	398.575	1.169175	0.094930	0.094836	400.55	51241.2	0.089068	0.250187	1601	93596.7
1019	2.000000	1.171374	7.37502e+06	-51089.1	1055.82	-29753.5	0.000000	0.000000	7.189088	425.266	NaN	0.000000	0.001560	0.001706	28.0845	94.2492	0.001830	51496.9	2.255525	175.274	427.019	1.170950	0.097035	0.096611	425.266	51496.9	0.090841	0.259053	1641.61	92439.9
1019	2.000000	1.173228	7.37502e+06	-51089.1	1055.82	-29753.5	0.000000	0.000000	7.191541	439.837	NaN	0.000000	0.001554	0.001686	28.0844	95.6423	0.001748	54707.7	4.645589	172.004	436.007	1.172957	0.098889	0.098618	439.837	54707.7	0.092859	0.269314	1633.18	96314.6
1019	2.000000	1.175355	7.37502e+06	-51089.1	1055.82	-29753.5	0.000000	0.000000	7.194245	453.87	NaN	0.000000	0.001613	0.001669	28.0846	98.4884	0.001769	55682.1	2.355318	174.01	454.673	1.175072	0.101016	0.100732	453.87	55682.1	0.094902	0.279894	1621.58	96159.5
1019	2.000000	1.177234	7.37502e+06	-51089.1	1055.82	-29753.5	0.000000	0.000000	7.197353	483.753	NaN	0.000000	0.001613	0.001667	28.0844	99.8043	0.001824	54714.6	7.098320	170.258	480.02	1.176951	0.102895	0.102611	483.753	54714.6	0.096264	0.287049	1685.26	93303.5
1019	2.000000	1.179305	7.37502e+06	-51089.1	1055.82	-29753.5	0.000000	0.000000	7.199783	492.481	NaN	0.000000	0.001596	0.001646	28.0844	101.958	0.001713	59524.9	5.818814	170.994	491.871	1.178886	0.104966	0.104547	492.481	59524.9	0.098761	0.300391	1639.47	99226.7
1019	2.000000	1.181332	7.37502e+06	-51089.1	1055.82	-29753.5	0.000000	0.000000	7.202693	513.971	NaN	0.000000	0.001630	0.001635	28.0844	105.683	0.001939	54495.2	7.881413	169.891	514.174	1.180910	0.106992	0.106571	513.971	54495.2	0.099919	0.306676	1675.94	89906.5
1019	2.000000	1.183204	7.37502e+06	-51089.1	1055.82	-29753.5	0.000000	0.000000	7.205233	530.206	NaN	0.000000	0.001614	0.001661	28.0847	106.003	0.001772	59806.1	3.900988	172.202	526.445	1.182974	0.108865	0.108634	530.206	59806.1	0.102216	0.319320	1660.42	96695.3
1019	2.000000	1.184814	7.37502e+06	-51089.1	1055.82	-29753.5	0.000000	0.000000	7.207307	541.483	NaN	0.000000	0.001530	0.001660	28.0846	108.402	0.001708	63470.4	6.678315	-10.6543	539.654	1.184443	0.110474	0.110104	541.483	63470.4	0.104076	0.329738	1642.16	100986