File: remote_trans/data/nanoindenter/0828-1/data/Data_2025-08-06,11h17m57s/2025-07-22_16-23-58_1_439.txt
2025-07-22, 16:23:58, 1
Index	Phase	Displacement	Time	Pos X	Pos Y	Pos Z	Rot A	Rot B	Piezo Z	Force A	Force B	Gripper	Voltage A	Voltage B	Temperature	Amplitude force	Amplitude pos	Stiffness	Phase shift	Phase excitation	Force A raw	Displacement raw	HMax	HMax raw	Real Force	Real Stiffness	Contact Depth	Area	Hardness	Reduced Mod.
[#]	[#]	[um]	[s]	[um]	[um]	[um]	[m°]	[m°]	[um]	[uN]	[uN]	[V]	[V]	[V]	[°C]	[uN]	[um]	[N/m]	[°]	[°]	[uN]	[um]	[um]	[um]	[uN]	[N/m]	[um]	[um^2]	[MPa]	[MPa]
439	1.000000	0.002477	7.36935e+06	-55139.1	1005.82	-29742.3	0.000000	0.000000	6.002793	0.053436	NaN	0.000000	0.001594	0.001779	28.081	0.103169	0.001058	97.5185	-124.353	-160.886	0.066487	0.001212	-1.056161	-1.057425	0.053436	97.5185	-1.056572	-1.308420E+14	-4.083996E-16	NaN
439	1.000000	0.010456	7.36935e+06	-55139.1	1005.82	-29742.3	0.000000	0.000000	6.010773	0.048568	NaN	0.000000	0.001575	0.001775	28.0809	0.033364	0.001051	31.7338	-114.779	-165.18	-0.032318	0.009139	-1.048181	-1.049498	0.048568	31.7338	-1.049329	-1.045679E+14	-4.644655E-16	NaN
439	1.000000	0.018440	7.36935e+06	-55139.1	1005.82	-29742.3	0.000000	0.000000	6.018754	-0.024761	NaN	0.000000	0.001588	0.001812	28.0809	0.066559	0.001604	41.4914	-146.353	-165.649	-0.007818	0.017093	-1.040197	-1.041544	-0.024761	41.4914	-1.039750	-7.773221E+13	3.185463E-16	NaN
439	1.000000	0.026478	7.36935e+06	-55139.1	1005.82	-29742.3	0.000000	0.000000	6.026792	-0.010247	NaN	0.000000	0.001551	0.001796	28.0807	0.015122	0.001836	8.237941	-161.316	-161.566	-0.034917	0.025102	-1.032159	-1.033535	-0.010247	8.237941	-1.031226	-5.970044E+13	1.716420E-16	NaN
439	1.000000	0.034422	7.36935e+06	-55139.1	1005.82	-29742.3	0.000000	0.000000	6.034738	0.034027	NaN	0.000000	0.001543	0.001772	28.0807	0.038045	0.001857	20.4906	61.671	-164.295	-0.003967	0.033144	-1.024215	-1.025494	0.034027	20.4906	-1.025460	-4.993620E+13	-6.814077E-16	NaN
439	1.000000	0.042432	7.36935e+06	-55139.1	1005.82	-29742.3	0.000000	0.000000	6.042747	0.000273	NaN	0.000000	0.001591	0.001794	28.0806	0.064256	0.002003	32.0752	94.0154	-164.663	-0.025789	0.041114	-1.016205	-1.017523	0.000273	32.0752	-1.016211	-3.749503E+13	-7.280880E-18	NaN
439	1.000000	0.050440	7.36935e+06	-55139.1	1005.82	-29742.3	0.000000	0.000000	6.050755	0.010132	NaN	0.000000	0.001604	0.001806	28.0808	0.071381	0.002043	34.933	-159.464	-166.052	0.017420	0.049152	-1.008197	-1.009486	0.010132	34.933	-1.008415	-2.944750E+13	-3.440718E-16	NaN
439	1.000000	0.058436	7.36935e+06	-55139.1	1005.82	-29742.3	0.000000	0.000000	6.058751	0.012476	NaN	0.000000	0.001602	0.001784	28.0809	0.066903	0.002117	31.6028	-69.2086	-163.647	0.003354	0.057088	-1.000201	-1.001550	0.012476	31.6028	-1.000497	-2.303903E+13	-5.415193E-16	NaN
439	1.000000	0.066457	7.36935e+06	-55139.1	1005.82	-29742.3	0.000000	0.000000	6.066773	0.043989	NaN	0.000000	0.001610	0.001794	28.0808	0.115681	0.002140	54.0678	-101.154	-166.143	0.020997	0.065168	-0.992181	-0.993470	0.043989	54.0678	-0.992791	-1.814246E+13	-2.424637E-15	NaN
439	1.000000	0.074456	7.36935e+06	-55139.1	1005.82	-29742.3	0.000000	0.000000	6.074769	-0.032347	NaN	0.000000	0.001577	0.001729	28.081	0.055366	0.001944	28.4805	-123.538	-168.195	0.042393	0.073146	-0.984182	-0.985492	-0.032347	28.4805	-0.983330	-1.352908E+13	2.390934E-15	NaN
439	1.000000	0.082441	7.36935e+06	-55139.1	1005.82	-29742.3	0.000000	0.000000	6.082756	0.018560	NaN	0.000000	0.001587	0.001750	28.0809	0.103978	0.002135	48.7078	104.032	-158.054	0.055885	0.081139	-0.976197	-0.977499	0.018560	48.7078	-0.976483	-1.094006E+13	-1.696517E-15	NaN
439	1.000000	0.090443	7.36935e+06	-55139.1	1005.82	-29742.3	0.000000	0.000000	6.090757	-0.017695	NaN	0.000000	0.001623	0.001786	28.081	0.033478	0.001889	17.7187	58.228	-165.78	-0.039637	0.089135	-0.968194	-0.969502	-0.017695	17.7187	-0.967445	-8.264788E+12	2.141009E-15	NaN
439	1.000000	0.098462	7.36935e+06	-55139.1	1005.82	-29742.3	0.000000	0.000000	6.098776	-0.024568	NaN	0.000000	0.001619	0.001777	28.0811	0.038069	0.001975	19.2775	-138.816	-165.367	-0.071309	0.097131	-0.960175	-0.961506	-0.024568	19.2775	-0.959220	-6.402468E+12	3.837282E-15	NaN
439	1.000000	0.106456	7.36935e+06	-55139.1	1005.82	-29742.3	0.000000	0.000000	6.106769	-0.045301	NaN	0.000000	0.001598	0.001766	28.0808	0.074199	0.001922	38.5973	-88.3917	-163.023	-0.071146	0.105148	-0.952181	-0.953490	-0.045301	38.5973	-0.951301	-5.006902E+12	9.047748E-15	NaN
439	1.000000	0.114424	7.36935e+06	-55139.1	1005.82	-29742.3	0.000000	0.000000	6.114740	0.027864	NaN	0.000000	0.001631	0.001761	28.0812	0.046758	0.001863	25.0921	88.8797	-163.146	0.073744	0.113146	-0.944213	-0.945492	0.027864	25.0921	-0.945046	-4.122960E+12	-6.758251E-15	NaN
439	1.000000	0.122440	7.36935e+06	-55139.1	1005.82	-29742.3	0.000000	0.000000	6.122756	0.022651	NaN	0.000000	0.001590	0.001760	28.0808	0.086962	0.002027	42.8969	-83.1469	-166.346	-0.014009	0.121132	-0.936197	-0.937506	0.022651	42.8969	-0.936593	-3.170787E+12	-7.143585E-15	NaN
439	1.000000	0.130451	7.36935e+06	-55139.1	1005.82	-29742.3	0.000000	0.000000	6.130766	0.029813	NaN	0.000000	0.001584	0.001765	28.081	0.035002	0.001963	17.8345	-178.201	-162.396	-0.042207	0.129145	-0.928187	-0.929493	0.029813	17.8345	-0.929441	-2.538902E+12	-1.174264E-14	NaN
439	1.000000	0.138466	7.36935e+06	-55139.1	1005.82	-29742.3	0.000000	0.000000	6.138780	-0.026330	NaN	0.000000	0.001578	0.001772	28.0799	0.065626	0.002087	31.4376	-169.903	-165.456	-0.036686	0.137157	-0.920171	-0.921480	-0.026330	31.4376	-0.919543	-1.866545E+12	1.410625E-14	NaN
439	1.000000	0.146461	7.36935e+06	-55139.1	1005.82	-29742.3	0.000000	0.000000	6.146778	0.050417	NaN	0.000000	0.001568	0.001772	28.0797	0.025792	0.002055	12.5514	88.4668	-165.497	0.044992	0.145134	-0.912176	-0.913503	0.050417	12.5514	-0.915189	-1.630192E+12	-3.092703E-14	NaN
439	1.000000	0.154477	7.36935e+06	-55139.1	1005.82	-29742.3	0.000000	0.000000	6.154791	-0.016428	NaN	0.000000	0.001585	0.001786	28.08	0.122179	0.002000	61.0752	104.53	-164.926	0.040379	0.153194	-0.904160	-0.905443	-0.016428	61.0752	-0.903958	-1.149604E+12	1.429027E-14	NaN
439	1.000000	0.162478	7.36935e+06	-55139.1	1005.82	-29742.3	0.000000	0.000000	6.162790	-0.055237	NaN	0.000000	0.001600	0.001740	28.0797	0.029785	0.001952	15.2614	-102.354	-163	-0.047292	0.161212	-0.896159	-0.897425	-0.055237	15.2614	-0.893445	-8.288537E+11	6.664307E-14	NaN
439	1.000000	0.170489	7.36935e+06	-55139.1	1005.82	-29742.3	0.000000	0.000000	6.170802	-0.030470	NaN	0.000000	0.001602	0.001785	28.0797	0.023960	0.002045	11.7181	-82.2814	-163.141	0.000456	0.169155	-0.888148	-0.889482	-0.030470	11.7181	-0.886198	-6.614817E+11	4.606307E-14	NaN
439	1.000000	0.178522	7.36935e+06	-55139.1	1005.82	-29742.3	0.000000	0.000000	6.178835	-0.037565	NaN	0.000000	0.001571	0.001725	28.0795	0.065066	0.001936	33.6133	141.59	-167.785	-0.033755	0.177154	-0.880115	-0.881483	-0.037565	33.6133	-0.879277	-5.332491E+11	7.044577E-14	NaN
439	1.000000	0.186460	7.36935e+06	-55139.1	1005.82	-29742.3	0.000000	0.000000	6.186774	0.003933	NaN	0.000000	0.001583	0.001750	28.0796	0.045997	0.002069	22.236	34.0432	-166.264	0.032084	0.185186	-0.872178	-0.873451	0.003933	22.236	-0.872310	-4.292410E+11	-9.163324E-15	NaN
439	1.000000	0.194514	7.36935e+06	-55139.1	1005.82	-29742.3	0.000000	0.000000	6.194827	-0.035931	NaN	0.000000	0.001616	0.001739	28.0797	0.104002	0.002078	50.0493	-60.9685	-162.847	0.055515	0.193166	-0.864124	-0.865471	-0.035931	50.0493	-0.863585	-3.270729E+11	1.098570E-13	NaN
439	1.000000	0.202486	7.36935e+06	-55139.1	1005.82	-29742.3	0.000000	0.000000	6.202803	0.052495	NaN	0.000000	0.001621	0.001745	28.0793	0.024459	0.002105	11.6187	46.3511	-164.886	-0.015344	0.201221	-0.856151	-0.857417	0.052495	11.6187	-0.859540	-2.883322E+11	-1.820652E-13	NaN
439	1.000000	0.210514	7.36935e+06	-55139.1	1005.82	-29742.3	0.000000	0.000000	6.210827	-0.053138	NaN	0.000000	0.001607	0.001698	28.0799	0.060771	0.002066	29.4158	-166.04	-166.861	-0.060079	0.209204	-0.848123	-0.849433	-0.053138	29.4158	-0.846768	-1.936300E+11	2.744297E-13	NaN
439	1.000000	0.218473	7.36935e+06	-55139.1	1005.82	-29742.3	0.000000	0.000000	6.218786	-0.030442	NaN	0.000000	0.001624	0.001747	28.0794	0.114849	0.002140	53.6759	128.638	-165.238	-0.135464	0.217184	-0.840164	-0.841454	-0.030442	53.6759	-0.839739	-1.555099E+11	1.957546E-13	NaN
439	1.000000	0.226495	7.36935e+06	-55139.1	1005.82	-29742.3	0.000000	0.000000	6.226810	-0.000610	NaN	0.000000	0.001625	0.001759	28.0797	0.068498	0.002051	33.4023	161.976	-161.63	-0.053305	0.225184	-0.832142	-0.833453	-0.000610	33.4023	-0.832129	-1.226405E+11	4.971374E-15	NaN
439	1.000000	0.234511	7.36935e+06	-55139.1	1005.82	-29742.3	0.000000	0.000000	6.234828	0.057275	NaN	0.000000	0.001618	0.001749	28.0795	0.086510	0.002109	41.0175	77.4171	-167.406	0.095003	0.233274	-0.824126	-0.825364	0.057275	41.0175	-0.825174	-9.870977E+10	-5.802369E-13	NaN
439	1.000000	0.242497	7.36935e+06	-55139.1	1005.82	-29742.3	0.000000	0.000000	6.242809	-0.051190	NaN	0.000000	0.001643	0.001747	28.0794	0.027067	0.001930	14.0237	-1.484063	-162.87	-0.055900	0.241205	-0.816141	-0.817432	-0.051190	14.0237	-0.813403	-6.834998E+10	7.489378E-13	NaN
439	1.000000	0.250508	7.36935e+06	-55139.1	1005.82	-29742.3	0.000000	0.000000	6.250824	0.021139	NaN	0.000000	0.001653	0.001749	28.0796	0.035221	0.001947	18.0931	-132.903	-164.787	-0.026668	0.249156	-0.808129	-0.809481	0.021139	18.0931	-0.809005	-5.957630E+10	-3.548190E-13	NaN
439	1.000000	0.258519	7.36935e+06	-55139.1	1005.82	-29742.3	0.000000	0.000000	6.258834	0.013437	NaN	0.000000	0.001628	0.001741	28.0793	0.040243	0.001971	20.4166	142.137	-160.893	-0.015238	0.257199	-0.800119	-0.801438	0.013437	20.4166	-0.800612	-4.583241E+10	-2.931673E-13	NaN
439	1.000000	0.266520	7.36935e+06	-55139.1	1005.82	-29742.3	0.000000	0.000000	6.266833	-0.040102	NaN	0.000000	0.001633	0.001730	28.0797	0.090975	0.001909	47.6554	-91.1911	-164.621	-0.011488	0.265186	-0.792118	-0.793451	-0.040102	47.6554	-0.791487	-3.445670E+10	1.163845E-12	NaN
439	1.000000	0.274547	7.36935e+06	-55139.1	1005.82	-29742.3	0.000000	0.000000	6.274863	0.035349	NaN	0.000000	0.001616	0.001721	28.0802	0.054028	0.001982	27.2655	-53.589	-164.861	-0.000228	0.273207	-0.784090	-0.785430	0.035349	27.2655	-0.785063	-2.818505E+10	-1.254158E-12	NaN
439	1.000000	0.282532	7.36935e+06	-55139.1	1005.82	-29742.3	0.000000	0.000000	6.282849	0.053188	NaN	0.000000	0.001628	0.001733	28.081	0.074149	0.002011	36.8685	79.9535	-168.986	0.046215	0.281223	-0.776105	-0.777414	0.053188	36.8685	-0.777187	-2.202942E+10	-2.414391E-12	NaN
439	1.000000	0.290545	7.36935e+06	-55139.1	1005.82	-29742.3	0.000000	0.000000	6.290859	-0.019084	NaN	0.000000	0.001715	0.001713	28.0808	0.012433	0.001997	6.227068	52.3507	-165.319	0.064835	0.289261	-0.768092	-0.769376	-0.019084	6.227068	-0.765794	-1.542085E+10	1.237534E-12	NaN
439	1.000000	0.298528	7.36935e+06	-55139.1	1005.82	-29742.3	0.000000	0.000000	6.298843	0.004303	NaN	0.000000	0.001596	0.001735	28.0806	0.028672	0.002122	13.5139	78.3821	-165.76	0.019725	0.297212	-0.760109	-0.761425	0.004303	13.5139	-0.760348	-1.300268E+10	-3.309252E-13	NaN
439	1.000000	0.306524	7.36935e+06	-55139.1	1005.82	-29742.3	0.000000	0.000000	6.306839	0.011585	NaN	0.000000	0.001629	0.001742	28.081	0.085800	0.002030	42.2697	41.1996	-165.673	0.094698	0.305214	-0.752113	-0.753424	0.011585	42.2697	-0.752319	-1.011077E+10	-1.145848E-12	NaN
439	1.000000	0.314572	7.36935e+06	-55139.1	1005.82	-29742.3	0.000000	0.000000	6.314885	-0.048136	NaN	0.000000	0.001665	0.001779	28.0809	0.064916	0.002019	32.1473	152.79	-164.117	-0.077806	0.313273	-0.744065	-0.745364	-0.048136	32.1473	-0.742942	-7.535767E+9	6.387665E-12	NaN
439	1.000000	0.322543	7.36935e+06	-55139.1	1005.82	-29742.3	0.000000	0.000000	6.322854	-0.083441	NaN	0.000000	0.001636	0.001748	28.081	0.082174	0.002087	39.3706	10.8072	-165.692	-0.006185	0.321216	-0.736095	-0.737422	-0.083441	39.3706	-0.734505	-5.783652E+9	1.442708E-11	NaN
439	1.000000	0.330562	7.36935e+06	-55139.1	1005.82	-29742.3	0.000000	0.000000	6.330879	0.047487	NaN	0.000000	0.001627	0.001732	28.0809	0.030738	0.001916	16.0426	-138.684	-162.206	0.064163	0.329224	-0.728075	-0.729414	0.047487	16.0426	-0.730295	-5.067978E+9	-9.369925E-12	NaN
439	1.000000	0.338537	7.36935e+06	-55139.1	1005.82	-29742.3	0.000000	0.000000	6.338853	0.022001	NaN	0.000000	0.001576	0.001746	28.0812	0.041117	0.001932	21.2856	-127.152	-168.854	0.026502	0.337244	-0.720100	-0.721394	0.022001	21.2856	-0.720875	-3.770596E+9	-5.834934E-12	NaN
439	1.000000	0.346545	7.36935e+06	-55139.1	1005.82	-29742.3	0.000000	0.000000	6.346860	0.013003	NaN	0.000000	0.001643	0.001749	28.0809	0.029463	0.002105	13.9986	-124.079	-164.662	-0.034600	0.345259	-0.712093	-0.713378	0.013003	13.9986	-0.712789	-2.924901E+9	-4.445745E-12	NaN
439	1.000000	0.354571	7.36935e+06	-55139.1	1005.82	-29742.3	0.000000	0.000000	6.354885	-0.023491	NaN	0.000000	0.001616	0.001776	28.0808	0.033757	0.002096	16.1039	13.9596	-168.883	-0.053501	0.353261	-0.704066	-0.705376	-0.023491	16.1039	-0.702972	-2.148401E+9	1.093403E-11	NaN
439	1.000000	0.362561	7.36935e+06	-55139.1	1005.82	-29742.3	0.000000	0.000000	6.362877	0.021801	NaN	0.000000	0.001630	0.001753	28.0811	0.116500	0.001996	58.3644	58.3368	-165.367	0.005059	0.361223	-0.696076	-0.697415	0.021801	58.3644	-0.696356	-1.744868E+9	-1.249419E-11	NaN
439	1.000000	0.370559	7.36935e+06	-55139.1	1005.82	-29742.3	0.000000	0.000000	6.370875	0.024974	NaN	0.000000	0.001642	0.001712	28.0808	0.105017	0.002111	49.7496	-133.423	-164.633	0.012942	0.369257	-0.688078	-0.689380	0.024974	49.7496	-0.688454	-1.360801E+9	-1.835233E-11	NaN
439	1.000000	0.378585	7.36935e+06	-55139.1	1005.82	-29742.3	0.000000	0.000000	6.378900	0.009768	NaN	0.000000	0.001638	0.001735	28.081	0.163676	0.001935	84.6012	-34.8157	-164.837	-0.001120	0.377256	-0.680052	-0.681381	0.009768	84.6012	-0.680139	-1.047373E+9	-9.326279E-12	NaN
439	1.000000	0.386589	7.36935e+06	-55139.1	1005.82	-29742.3	0.000000	0.000000	6.386903	-0.027675	NaN	0.000000	0.001669	0.001722	28.0808	0.048236	0.002101	22.9601	-105.221	-165.756	0.016913	0.385294	-0.672048	-0.673343	-0.027675	22.9601	-0.671144	-7.889422E+8	3.507855E-11	NaN
439	1.000000	0.394598	7.36935e+06	-55139.1	1005.82	-29742.3	0.000000	0.000000	6.394912	-0.005739	NaN	0.000000	0.001661	0.001759	28.0806	0.012777	0.002110	6.056159	30.7731	-166.062	-0.031859	0.393287	-0.664040	-0.665351	-0.005739	6.056159	-0.663329	-6.166854E+8	9.305684E-12	NaN
439	1.000000	0.402573	7.36935e+06	-55139.1	1005.82	-29742.3	0.000000	0.000000	6.402888	0.015017	NaN	0.000000	0.001666	0.001720	28.081	0.080910	0.002008	40.3004	87.2309	-168.665	0.112382	0.401230	-0.656065	-0.657407	0.015017	40.3004	-0.656344	-4.947481E+8	-3.035242E-11	NaN
439	1.000000	0.410572	7.36935e+06	-55139.1	1005.82	-29742.3	0.000000	0.000000	6.410884	-0.059618	NaN	0.000000	0.001639	0.001706	28.0801	0.115280	0.001989	57.9672	-35.7163	-165.286	-0.103272	0.409323	-0.648065	-0.649314	-0.059618	57.9672	-0.647294	-3.718209E+8	1.603410E-10	NaN
439	1.000000	0.418598	7.36935e+06	-55139.1	1005.82	-29742.3	0.000000	0.000000	6.418912	-0.005925	NaN	0.000000	0.001629	0.001703	28.0797	0.044081	0.001937	22.7611	-7.778195	-165.076	-0.022983	0.417250	-0.640039	-0.641387	-0.005925	22.7611	-0.639844	-2.938662E+8	2.016236E-11	NaN
439	1.000000	0.426602	7.36935e+06	-55139.1	1005.82	-29742.3	0.000000	0.000000	6.426916	-0.015500	NaN	0.000000	0.001618	0.001713	28.0796	0.094663	0.001880	50.3566	-21.876	-164.354	0.026481	0.425314	-0.632036	-0.633323	-0.015500	50.3566	-0.631805	-2.279317E+8	6.800313E-11	NaN
439	1.000000	0.434585	7.36935e+06	-55139.1	1005.82	-29742.3	0.000000	0.000000	6.434901	0.038766	NaN	0.000000	0.001577	0.001748	28.0797	0.080356	0.002001	40.1536	-78.4686	-161.412	-0.001073	0.433250	-0.624053	-0.625387	0.038766	40.1536	-0.624777	-1.825065E+8	-2.124074E-10	NaN
439	1.000000	0.442615	7.36935e+06	-55139.1	1005.82	-29742.3	0.000000	0.000000	6.442928	-0.044638	NaN	0.000000	0.001631	0.001722	28.0799	0.046406	0.002039	22.759	-174.04	-166.675	-0.060637	0.441253	-0.616022	-0.617384	-0.044638	22.759	-0.614551	-1.320423E+8	3.380596E-10	NaN
439	1.000000	0.450599	7.36935e+06	-55139.1	1005.82	-29742.3	0.000000	0.000000	6.450916	0.060644	NaN	0.000000	0.001660	0.001719	28.0797	0.067951	0.001951	34.8237	32.0668	-164.123	0.114463	0.449311	-0.608038	-0.609326	0.060644	34.8237	-0.609344	-1.119682E+8	-5.416178E-10	NaN
439	1.000000	0.458600	7.36935e+06	-55139.1	1005.82	-29742.3	0.000000	0.000000	6.458920	0.121026	NaN	0.000000	0.001642	0.001767	28.0795	0.077310	0.001947	39.7066	-78.1412	-162.786	0.029088	0.457301	-0.600037	-0.601336	0.121026	39.7066	-0.602323	-8.962943E+7	-1.350289E-9	NaN
439	1.000000	0.466594	7.36935e+06	-55139.1	1005.82	-29742.3	0.000000	0.000000	6.466910	0.048242	NaN	0.000000	0.001619	0.001756	28.0798	0.050827	0.001958	25.9602	-60.6285	-164.434	-0.021733	0.465280	-0.592044	-0.593357	0.048242	25.9602	-0.593437	-6.761591E+7	-7.134714E-10	NaN
439	1.000000	0.474629	7.36935e+06	-55139.1	1005.82	-29742.3	0.000000	0.000000	6.474944	-0.004501	NaN	0.000000	0.001639	0.001717	28.0799	0.050333	0.002068	24.335	66.8938	-167.78	-0.063080	0.473262	-0.584008	-0.585375	-0.004501	24.335	-0.583869	-4.990201E+7	9.019754E-11	NaN
439	1.000000	0.482590	7.36935e+06	-55139.1	1005.82	-29742.3	0.000000	0.000000	6.482904	-0.000891	NaN	0.000000	0.001601	0.001722	28.0802	0.054734	0.001922	28.4751	136.23	-167.089	-0.015517	0.481292	-0.576048	-0.577345	-0.000891	28.4751	-0.576024	-3.889039E+7	2.290882E-11	NaN
439	1.000000	0.490627	7.36935e+06	-55139.1	1005.82	-29742.3	0.000000	0.000000	6.490941	-0.005528	NaN	0.000000	0.001668	0.001712	28.0796	0.163745	0.001949	84.0207	-109.933	-165.728	-0.009773	0.489343	-0.568011	-0.569294	-0.005528	84.0207	-0.567961	-3.009254E+7	1.836998E-10	NaN
439	1.000000	0.498627	7.36935e+06	-55139.1	1005.82	-29742.3	0.000000	0.000000	6.498940	-0.031959	NaN	0.000000	0.001606	0.001737	28.08	0.028639	0.001938	14.7796	30.372	-164.367	-0.025281	0.497300	-0.560011	-0.561337	-0.031959	14.7796	-0.558389	-2.218650E+7	1.440458E-9	NaN
439	1.000000	0.506636	7.36935e+06	-55139.1	1005.82	-29742.3	0.000000	0.000000	6.506948	-0.067529	NaN	0.000000	0.001615	0.001725	28.0797	0.074209	0.002000	37.0969	-102.95	-167.177	-0.086197	0.505313	-0.552002	-0.553324	-0.067529	37.0969	-0.550636	-1.732881E+7	3.896947E-9	NaN
439	1.000000	0.514624	7.36935e+06	-55139.1	1005.82	-29742.3	0.000000	0.000000	6.514937	-0.024000	NaN	0.000000	0.001574	0.001735	28.0798	0.061003	0.002127	28.6838	67.6559	-165.23	-0.054076	0.513340	-0.544014	-0.545297	-0.024000	28.6838	-0.543386	-1.375016E+7	1.745424E-9	NaN
439	1.000000	0.522632	7.36935e+06	-55139.1	1005.82	-29742.3	0.000000	0.000000	6.522947	-0.008588	NaN	0.000000	0.001622	0.001686	28.0797	0.011336	0.001991	5.694812	-142.147	-162.097	-0.013297	0.521293	-0.536005	-0.537344	-0.008588	5.694812	-0.534874	-1.047706E+7	8.197061E-10	NaN
439	1.000000	0.530630	7.36935e+06	-55139.1	1005.82	-29742.3	0.000000	0.000000	6.530947	0.047697	NaN	0.000000	0.001606	0.001719	28.0795	0.049078	0.002013	24.3812	30.6224	-165.533	0.001000	0.529334	-0.528007	-0.529303	0.047697	24.3812	-0.529474	-8.81598e+06	-5.410232E-9	NaN
439	1.000000	0.538640	7.36935e+06	-55139.1	1005.82	-29742.3	0.000000	0.000000	6.538954	-0.015567	NaN	0.000000	0.001623	0.001752	28.0803	0.040993	0.001961	20.8997	61.1874	-161.029	-0.017262	0.537326	-0.519998	-0.521312	-0.015567	20.8997	-0.519439	-6.39431e+06	2.434461E-9	NaN
439	1.000000	0.546656	7.36935e+06	-55139.1	1005.82	-29742.3	0.000000	0.000000	6.546969	-0.047466	NaN	0.000000	0.001604	0.001735	28.0799	0.085124	0.002014	42.2704	122.79	-166.896	-0.041554	0.545314	-0.511981	-0.513323	-0.047466	42.2704	-0.511139	-4.90098e+06	9.685035E-9	NaN
439	1.000000	0.554647	7.36935e+06	-55139.1	1005.82	-29742.3	0.000000	0.000000	6.554959	-0.072223	NaN	0.000000	0.001632	0.001727	28.0807	0.030989	0.002002	15.4808	21.8379	-162.392	-0.083174	0.553366	-0.503990	-0.505271	-0.072223	15.4808	-0.500491	-3.48236e+06	2.073959E-8	NaN
439	1.000000	0.562640	7.36935e+06	-55139.1	1005.82	-29742.3	0.000000	0.000000	6.562958	0.086220	NaN	0.000000	0.001618	0.001768	28.0807	0.016031	0.001971	8.134256	169.12	-167.188	0.081580	0.561344	-0.495997	-0.497294	0.086220	8.134256	-0.503947	-3.89101e+06	-2.215873E-8	NaN
439	1.000000	0.570671	7.36935e+06	-55139.1	1005.82	-29742.3	0.000000	0.000000	6.570986	0.006920	NaN	0.000000	0.001618	0.001727	28.0808	0.081455	0.001941	41.9699	-155.72	-165.314	-0.021679	0.569358	-0.487967	-0.489280	0.006920	41.9699	-0.488090	-2.33724e+06	-2.960652E-9	NaN
439	1.000000	0.578661	7.36935e+06	-55139.1	1005.82	-29742.3	0.000000	0.000000	6.578976	0.007558	NaN	0.000000	0.001622	0.001745	28.0808	0.057197	0.001917	29.836	62.8913	-166.777	0.020726	0.577346	-0.479976	-0.481291	0.007558	29.836	-0.480166	-1.81073e+06	-4.174051E-9	NaN
439	1.000000	0.586687	7.36935e+06	-55139.1	1005.82	-29742.3	0.000000	0.000000	6.587001	-0.010739	NaN	0.000000	0.001554	0.001757	28.0808	0.033624	0.001992	16.8813	-78.7126	-167.026	0.028387	0.585352	-0.471950	-0.473285	-0.010739	16.8813	-0.471473	-1.36794e+06	7.850735E-9	NaN
439	1.000000	0.594675	7.36935e+06	-55139.1	1005.82	-29742.3	0.000000	0.000000	6.594990	0.003694	NaN	0.000000	0.001591	0.001736	28.0808	0.012739	0.001985	6.416883	27.2385	-165.712	-0.049891	0.593357	-0.463962	-0.465281	0.003694	6.416883	-0.464394	-1.08828e+06	-3.394288E-9	NaN
439	1.000000	0.602668	7.36935e+06	-55139.1	1005.82	-29742.3	0.000000	0.000000	6.602984	0.046029	NaN	0.000000	0.001571	0.001718	28.0806	0.111600	0.001999	55.8162	144.107	-163.229	0.008683	0.601306	-0.455969	-0.457332	0.046029	55.8162	-0.456588	-845381	-5.444783E-8	NaN
439	1.000000	0.610657	7.36935e+06	-55139.1	1005.82	-29742.3	0.000000	0.000000	6.610970	-0.029987	NaN	0.000000	0.001606	0.001766	28.0809	0.096565	0.002060	46.8768	132.576	-163.036	-0.060171	0.609352	-0.447980	-0.449285	-0.029987	46.8768	-0.447501	-629704	4.762138E-8	NaN
439	1.000000	0.618677	7.36935e+06	-55139.1	1005.82	-29742.3	0.000000	0.000000	6.618991	-0.014771	NaN	0.000000	0.001587	0.001763	28.0806	0.084514	0.002001	42.2452	-73.4808	-167.991	-0.024312	0.617350	-0.439961	-0.441287	-0.014771	42.2452	-0.439698	-488772	3.022151E-8	NaN
439	1.000000	0.626671	7.36935e+06	-55139.1	1005.82	-29742.3	0.000000	0.000000	6.626986	-0.016045	NaN	0.000000	0.001603	0.001697	28.0806	0.065619	0.001992	32.9493	-159.957	-168.389	-0.019400	0.625356	-0.431966	-0.433282	-0.016045	32.9493	-0.431601	-375579	4.271970E-8	NaN
439	1.000000	0.634679	7.36936e+06	-55139.1	1005.82	-29742.3	0.000000	0.000000	6.634994	0.005088	NaN	0.000000	0.001538	0.001762	28.0807	0.172636	0.001929	89.5168	25.2841	-164.522	0.050504	0.633368	-0.423958	-0.425269	0.005088	89.5168	-0.424001	-293175	-1.735521E-8	NaN
439	1.000000	0.642691	7.36936e+06	-55139.1	1005.82	-29742.3	0.000000	0.000000	6.643005	-0.034438	NaN	0.000000	0.001570	0.001768	28.0806	0.032033	0.002128	15.0508	48.8568	-166.331	-0.019040	0.641413	-0.415946	-0.417224	-0.034438	15.0508	-0.414230	-213068	1.616272E-7	NaN
439	1.000000	0.650694	7.36936e+06	-55139.1	1005.82	-29742.3	0.000000	0.000000	6.651009	-0.012576	NaN	0.000000	0.001594	0.001735	28.0813	0.032249	0.002090	15.433	90.2544	-163.366	-0.063408	0.649414	-0.407943	-0.409223	-0.012576	15.433	-0.407332	-169998	7.397470E-8	NaN
439	1.000000	0.658709	7.36936e+06	-55139.1	1005.82	-29742.3	0.000000	0.000000	6.659023	-0.013681	NaN	0.000000	0.001610	0.001750	28.0806	0.099606	0.002103	47.3613	-27.81	-165.715	-0.011233	0.657378	-0.399928	-0.401259	-0.013681	47.3613	-0.399712	-132398	1.033352E-7	NaN
439	1.000000	0.666686	7.36936e+06	-55139.1	1005.82	-29742.3	0.000000	0.000000	6.666999	-0.037838	NaN	0.000000	0.001558	0.001776	28.0806	0.015694	0.002086	7.523588	-17.8691	-162.643	-0.020148	0.665425	-0.391952	-0.393213	-0.037838	7.523588	-0.388180	-90598.3	4.176439E-7	NaN
439	1.000000	0.674697	7.36936e+06	-55139.1	1005.82	-29742.3	0.000000	0.000000	6.675010	-0.039237	NaN	0.000000	0.001566	0.001744	28.0805	0.042958	0.001993	21.5595	103.184	-166.34	0.002782	0.673394	-0.383940	-0.385243	-0.039237	21.5595	-0.382575	-75306.2	5.210355E-7	NaN
439	1.000000	0.682671	7.36936e+06	-55139.1	1005.82	-29742.3	0.000000	0.000000	6.682986	-0.009707	NaN	0.000000	0.001572	0.001749	28.0804	0.068772	0.001945	35.351	-164.138	-164.185	0.035756	0.681370	-0.375966	-0.377267	-0.009707	35.351	-0.375760	-60117	1.614629E-7	NaN
439	1.000000	0.690687	7.36936e+06	-55139.1	1005.82	-29742.3	0.000000	0.000000	6.691000	-0.054437	NaN	0.000000	0.001631	0.001753	28.0799	0.131350	0.001889	69.5215	133.523	-168.441	-0.025889	0.689374	-0.367950	-0.369263	-0.054437	69.5215	-0.367363	-45512	1.196095E-6	NaN
439	1.000000	0.698725	7.36936e+06	-55139.1	1005.82	-29742.3	0.000000	0.000000	6.699040	0.007363	NaN	0.000000	0.001670	0.001720	28.0793	0.069859	0.002051	34.0531	-73.292	-166.015	0.031139	0.697421	-0.359912	-0.361216	0.007363	34.0531	-0.360074	-35720.6	-2.061372E-7	NaN
439	1.000000	0.706694	7.36936e+06	-55139.1	1005.82	-29742.3	0.000000	0.000000	6.707009	0.001377	NaN	0.000000	0.001666	0.001751	28.0797	0.009176	0.001885	4.867644	96.0953	-164.5	-0.002726	0.705386	-0.351943	-0.353251	0.001377	4.867644	-0.352155	-27432.9	-5.018716E-8	NaN
439	1.000000	0.714714	7.36936e+06	-55139.1	1005.82	-29742.3	0.000000	0.000000	6.715029	0.003716	NaN	0.000000	0.001601	0.001733	28.0795	0.032261	0.001963	16.436	150.96	-164.179	0.065732	0.713386	-0.343923	-0.345252	0.003716	16.436	-0.344093	-20948.6	-1.773770E-7	NaN
439	1.000000	0.722721	7.36936e+06	-55139.1	1005.82	-29742.3	0.000000	0.000000	6.723036	0.007734	NaN	0.000000	0.001597	0.001723	28.0794	0.069857	0.002090	33.4315	-147.576	-165.411	-0.034904	0.721418	-0.335916	-0.337219	0.007734	33.4315	-0.336089	-16014	-4.829446E-7	NaN
439	1.000000	0.730732	7.36936e+06	-55139.1	1005.82	-29742.3	0.000000	0.000000	6.731045	-0.043143	NaN	0.000000	0.001632	0.001752	28.0797	0.039236	0.002125	18.466	28.3231	-163.516	-0.116678	0.729393	-0.327905	-0.329245	-0.043143	18.466	-0.326153	-11456.6	3.765743E-6	NaN
439	1.000000	0.738754	7.36936e+06	-55139.1	1005.82	-29742.3	0.000000	0.000000	6.739066	-0.061419	NaN	0.000000	0.001701	0.001759	28.0794	0.043946	0.002117	20.7589	-122.975	-163.026	-0.023183	0.737409	-0.319883	-0.321229	-0.061419	20.7589	-0.317664	-8594.84	7.146029E-6	NaN
439	1.000000	0.746756	7.36936e+06	-55139.1	1005.82	-29742.3	0.000000	0.000000	6.747069	-0.031761	NaN	0.000000	0.001626	0.001747	28.0796	0.108132	0.002090	51.7275	-148.905	-163.634	-0.011730	0.745445	-0.311881	-0.313193	-0.031761	51.7275	-0.311421	-6951.42	4.569011E-6	NaN
439	1.000000	0.754726	7.36936e+06	-55139.1	1005.82	-29742.3	0.000000	0.000000	6.755041	-0.009532	NaN	0.000000	0.001630	0.001702	28.0797	0.041387	0.002014	20.5462	-91.0718	-167.978	0.060941	0.753437	-0.303911	-0.305200	-0.009532	20.5462	-0.303563	-5316.42	1.792924E-6	NaN
439	1.000000	0.762752	7.36936e+06	-55139.1	1005.82	-29742.3	0.000000	0.000000	6.763068	0.015431	NaN	0.000000	0.001591	0.001716	28.0798	0.100300	0.002017	49.7227	-153.617	-168.402	-0.006433	0.761381	-0.295885	-0.297257	0.015431	49.7227	-0.296118	-4118.81	-3.746582E-6	NaN
439	1.000000	0.770753	7.36936e+06	-55139.1	1005.82	-29742.3	0.000000	0.000000	6.771072	0.105734	NaN	0.000000	0.001588	0.001694	28.0795	0.063817	0.002025	31.5088	8.075832	-163.43	0.039368	0.769445	-0.287884	-0.289192	0.105734	31.5088	-0.290401	-3383.05	-3.125405E-5	NaN
439	1.000000	0.778733	7.36936e+06	-55139.1	1005.82	-29742.3	0.000000	0.000000	6.779049	0.023524	NaN	0.000000	0.001625	0.001729	28.0795	0.040788	0.002107	19.3624	-14.6597	-165.348	-0.007818	0.777445	-0.279904	-0.281193	0.023524	19.3624	-0.280815	-2428.1	-9.688396E-6	NaN
439	1.000000	0.786737	7.36936e+06	-55139.1	1005.82	-29742.3	0.000000	0.000000	6.787053	0.047928	NaN	0.000000	0.001609	0.001722	28.0796	0.027534	0.002074	13.2749	16.9672	-165.687	0.036270	0.785418	-0.271901	-0.273219	0.047928	13.2749	-0.274609	-1956.46	-2.449743E-5	NaN
439	1.000000	0.794766	7.36936e+06	-55139.1	1005.82	-29742.3	0.000000	0.000000	6.795082	0.044366	NaN	0.000000	0.001629	0.001726	28.0796	0.096652	0.001957	49.3784	7.374800	-163.709	-0.022089	0.793469	-0.263872	-0.265169	0.044366	49.3784	-0.264546	-1375.47	-3.225485E-5	NaN
439	1.000000	0.802746	7.36936e+06	-55139.1	1005.82	-29742.3	0.000000	0.000000	6.803062	0.024004	NaN	0.000000	0.001607	0.001746	28.0796	0.041227	0.002103	19.6031	-6.098014	-165.284	0.071247	0.801420	-0.255891	-0.257218	0.024004	19.6031	-0.256810	-1047.01	-2.292647E-5	NaN
439	1.000000	0.810725	7.36936e+06	-55139.1	1005.82	-29742.3	0.000000	0.000000	6.811037	-0.047393	NaN	0.000000	0.001617	0.001769	28.0793	0.077349	0.001983	38.9991	20.1076	-162.018	-0.041575	0.809407	-0.247913	-0.249231	-0.047393	38.9991	-0.247001	-738.791	6.414998E-5	NaN
439	1.000000	0.818786	7.36936e+06	-55139.1	1005.82	-29742.3	0.000000	0.000000	6.819101	0.018741	NaN	0.000000	0.001635	0.001708	28.0793	0.092317	0.001930	47.8317	-138.676	-162.645	0.037965	0.817443	-0.239851	-0.241194	0.018741	47.8317	-0.240145	-577.858	-3.243255E-5	NaN
439	1.000000	0.826750	7.36936e+06	-55139.1	1005.82	-29742.3	0.000000	0.000000	6.827064	-0.016459	NaN	0.000000	0.001634	0.001756	28.0806	0.138452	0.002123	65.2286	66.9806	-167.694	-0.077548	0.825452	-0.231887	-0.233186	-0.016459	65.2286	-0.231698	-425.897	3.864641E-5	NaN
439	1.000000	0.834752	7.36936e+06	-55139.1	1005.82	-29742.3	0.000000	0.000000	6.835066	-0.022719	NaN	0.000000	0.001650	0.001743	28.0807	0.027062	0.002085	12.9779	-5.146493	-165.94	0.020758	0.833474	-0.223885	-0.225163	-0.022719	12.9779	-0.222572	-305.29	7.441696E-5	NaN
439	1.000000	0.842755	7.36936e+06	-55139.1	1005.82	-29742.3	0.000000	0.000000	6.843071	0.027710	NaN	0.000000	0.001653	0.001749	28.0811	0.090625	0.001968	46.0545	4.517382	-163.234	0.058249	0.841425	-0.215882	-0.217212	0.027710	46.0545	-0.216333	-242.627	-0.000114	NaN
439	1.000000	0.850756	7.36936e+06	-55139.1	1005.82	-29742.3	0.000000	0.000000	6.851069	-0.043908	NaN	0.000000	0.001648	0.001760	28.0807	0.076178	0.001940	39.2701	-175.845	-165.613	-0.016296	0.849474	-0.207882	-0.209164	-0.043908	39.2701	-0.207043	-171.725	0.000256	NaN
439	1.000000	0.858756	7.36936e+06	-55139.1	1005.82	-29742.3	0.000000	0.000000	6.859069	-0.061116	NaN	0.000000	0.001624	0.001779	28.0805	0.130542	0.002107	61.9711	-124.099	-165.945	0.040621	0.857488	-0.199881	-0.201149	-0.061116	61.9711	-0.199141	-127.52	0.000479	NaN
439	1.000000	0.866749	7.36936e+06	-55139.1	1005.82	-29742.3	0.000000	0.000000	6.867064	-0.001784	NaN	0.000000	0.001617	0.001777	28.0809	0.099268	0.001986	49.9829	106.435	-167.324	-0.010967	0.865504	-0.191888	-0.193133	-0.001784	49.9829	-0.191862	-96.6224	1.846572E-5	NaN
439	1.000000	0.874798	7.36936e+06	-55139.1	1005.82	-29742.3	0.000000	0.000000	6.875113	0.006066	NaN	0.000000	0.001625	0.001766	28.0807	0.084677	0.001933	43.8138	-93.0413	-166.387	-0.028164	0.873516	-0.183840	-0.185122	0.006066	43.8138	-0.183943	-71.1718	-8.522873E-5	NaN
439	1.000000	0.882778	7.36936e+06	-55139.1	1005.82	-29742.3	0.000000	0.000000	6.883092	-0.015982	NaN	0.000000	0.001629	0.001750	28.0809	0.035467	0.001958	18.1111	155.994	-169.212	-0.054073	0.881455	-0.175859	-0.177182	-0.015982	18.1111	-0.175197	-50.5093	0.000316	NaN
439	1.000000	0.890801	7.36936e+06	-55139.1	1005.82	-29742.3	0.000000	0.000000	6.891112	-0.070318	NaN	0.000000	0.001619	0.001758	28.0807	0.084830	0.001972	43.0092	-169.483	-162.7	-0.022404	0.889492	-0.167837	-0.169145	-0.070318	43.0092	-0.166611	-35.8538	0.001961	NaN
439	1.000000	0.898776	7.36936e+06	-55139.1	1005.82	-29742.3	0.000000	0.000000	6.899090	-0.005607	NaN	0.000000	0.001657	0.001714	28.0812	0.080047	0.001995	40.1298	81.3903	-170.834	-0.048678	0.897440	-0.159862	-0.161198	-0.005607	40.1298	-0.159757	-27.1433	0.000207	NaN
439	1.000000	0.906789	7.36936e+06	-55139.1	1005.82	-29742.3	0.000000	0.000000	6.907103	-0.032546	NaN	0.000000	0.001638	0.001778	28.0806	0.019244	0.002032	9.470381	27.2836	-168.218	-0.046491	0.905495	-0.151848	-0.153143	-0.032546	9.470381	-0.149271	-17.5667	0.001853	NaN
439	1.000000	0.914812	7.36936e+06	-55139.1	1005.82	-29742.3	0.000000	0.000000	6.915125	-0.051815	NaN	0.000000	0.001616	0.001762	28.0807	0.083819	0.002049	40.9078	130.968	-163.827	-0.008325	0.913525	-0.143825	-0.145112	-0.051815	40.9078	-0.142875	-13.3887	0.003870	NaN
439	1.000000	0.922792	7.36936e+06	-55139.1	1005.82	-29742.3	0.000000	0.000000	6.923106	-0.009070	NaN	0.000000	0.001619	0.001763	28.0807	0.147168	0.002085	70.5684	109.867	-164.842	-0.030790	0.921494	-0.135846	-0.137144	-0.009070	70.5684	-0.135749	-9.830508	0.000923	NaN
439	1.000000	0.930799	7.36936e+06	-55139.1	1005.82	-29742.3	0.000000	0.000000	6.931114	-0.005624	NaN	0.000000	0.001649	0.001753	28.0808	0.094964	0.002071	45.8618	-17.4529	-163.371	0.003347	0.929468	-0.127838	-0.129169	-0.005624	45.8618	-0.127746	-6.887333	0.000817	NaN
439	1.000000	0.938789	7.36936e+06	-55139.1	1005.82	-29742.3	0.000000	0.000000	6.939101	-0.062608	NaN	0.000000	0.001634	0.001778	28.0815	0.057453	0.001917	29.9715	73.4916	-162.694	-0.057843	0.937486	-0.119849	-0.121151	-0.062608	29.9715	-0.118282	-4.459512	0.014039	NaN
439	1.000000	0.946790	7.36936e+06	-55139.1	1005.82	-29742.3	0.000000	0.000000	6.947103	-0.043681	NaN	0.000000	0.001646	0.001780	28.0806	0.052601	0.001922	27.3687	86.0376	-166.485	-0.025615	0.945534	-0.111847	-0.113103	-0.043681	27.3687	-0.110650	-3.101432	0.014084	NaN
439	1.000000	0.954828	7.36936e+06	-55139.1	1005.82	-29742.3	0.000000	0.000000	6.955144	0.028139	NaN	0.000000	0.001631	0.001808	28.0806	0.035280	0.002109	16.7314	-93.7185	-169.46	-0.013257	0.953581	-0.103809	-0.105056	0.028139	16.7314	-0.105071	-2.358862	-0.011929	NaN
439	1.000000	0.962824	7.36936e+06	-55139.1	1005.82	-29742.3	0.000000	0.000000	6.963138	-0.012893	NaN	0.000000	0.001646	0.001835	28.0793	0.085024	0.002017	42.1544	96.0115	-169.708	-0.049228	0.961520	-0.095813	-0.097117	-0.012893	42.1544	-0.095584	-1.454457	0.008865	NaN
439	1.000000	0.970774	7.36936e+06	-55139.1	1005.82	-29742.3	0.000000	0.000000	6.971086	-0.056564	NaN	0.000000	0.001644	0.001733	28.0793	0.045589	0.002038	22.3674	-105.669	-166.828	0.011245	0.969467	-0.087864	-0.089170	-0.056564	22.3674	-0.085967	-0.866991	0.065242	NaN
439	1.000000	0.978826	7.36936e+06	-55139.1	1005.82	-29742.3	0.000000	0.000000	6.979140	-0.014843	NaN	0.000000	0.001643	0.001766	28.0796	0.078012	0.001946	40.0894	-148.784	-166.687	-0.080912	0.977497	-0.079811	-0.081141	-0.014843	40.0894	-0.079533	-0.602560	0.024633	NaN
439	1.000000	0.986836	7.36936e+06	-55139.1	1005.82	-29742.3	0.000000	0.000000	6.987151	0.017170	NaN	0.000000	0.001655	0.001768	28.0796	0.082949	0.002043	40.6077	-51.2943	-164.918	0.076037	0.985497	-0.071802	-0.073140	0.017170	40.6077	-0.072119	-0.388359	-0.044211	NaN
439	1.000000	0.994847	7.36936e+06	-55139.1	1005.82	-29742.3	0.000000	0.000000	6.995162	0.006221	NaN	0.000000	0.001680	0.001733	28.0796	0.047843	0.001915	24.9819	134.163	-168.571	-0.111852	0.993504	-0.063790	-0.065133	0.006221	24.9819	-0.063977	-0.233403	-0.026656	NaN
439	1.000000	1.002820	7.36936e+06	-55139.1	1005.82	-29742.3	0.000000	0.000000	7.003133	-0.039446	NaN	0.000000	0.001648	0.001766	28.0794	0.043771	0.002103	20.8134	-122.389	-166.905	0.030903	1.001460	-0.055817	-0.057177	-0.039446	20.8134	-0.054396	-0.123581	0.319191	NaN
439	1.000000	1.010840	7.36936e+06	-55139.1	1005.82	-29742.3	0.000000	0.000000	7.011153	-0.030024	NaN	0.000000	0.001644	0.001763	28.0793	0.115348	0.002079	55.4741	48.2809	-166.368	-0.070771	1.009523	-0.047798	-0.049114	-0.030024	55.4741	-0.047392	-0.076038	0.394864	NaN
439	1.000000	1.018858	7.36936e+06	-55139.1	1005.82	-29742.3	0.000000	0.000000	7.019170	-0.052823	NaN	0.000000	0.001659	0.001784	28.0795	0.081811	0.002023	40.4482	-59.1047	-164.208	-0.026864	1.017521	-0.039780	-0.041116	-0.052823	40.4482	-0.038800	-0.041591	1.270044	NaN
439	1.000000	1.026849	7.36936e+06	-55139.1	1005.82	-29742.3	0.000000	0.000000	7.027163	-0.007587	NaN	0.000000	0.001663	0.001799	28.0794	0.084440	0.002091	40.385	-112.991	-163.963	0.029660	1.025500	-0.031789	-0.033137	-0.007587	40.385	-0.031648	-0.025608	0.296295	NaN
439	1.000000	1.034845	7.36936e+06	-55139.1	1005.82	-29742.3	0.000000	0.000000	7.035158	-0.030775	NaN	0.000000	0.001661	0.001777	28.0795	0.066747	0.001937	34.4613	-60.0261	-167.274	-0.011735	1.033522	-0.023793	-0.025115	-0.030775	34.4613	-0.023123	-0.015085	2.040070	NaN
439	1.000000	1.042815	7.36936e+06	-55139.1	1005.82	-29742.3	0.000000	0.000000	7.043129	-0.019974	NaN	0.000000	0.001628	0.001770	28.0794	0.029803	0.002066	14.426	-11.6666	-166.647	-0.041059	1.041581	-0.015823	-0.017056	-0.019974	14.426	-0.014784	-0.009147	2.183790	NaN
439	1.000000	1.050836	7.36936e+06	-55139.1	1005.82	-29742.3	0.000000	0.000000	7.051152	0.028941	NaN	0.000000	0.001573	0.001801	28.0795	0.057196	0.002158	26.5009	157.777	-167.263	0.041519	1.049549	-0.007801	-0.009088	0.028941	26.5009	-0.008620	-0.005593	-5.174427	NaN
439	1.000000	1.058830	7.36936e+06	-55139.1	1005.82	-29742.3	0.000000	0.000000	7.059145	0.010400	NaN	0.000000	0.001653	0.001752	28.0793	0.195328	0.001970	99.1327	-24.742	-166.789	-0.057939	1.057547	0.000193	-0.001090	0.010400	99.1327	0.000114	8.555029E-5	121.565	9792.18
439	1.000000	1.066724	7.36936e+06	-55139.1	1005.82	-29742.3	0.000000	0.000000	7.067344	7.436260	NaN	0.000000	0.001642	0.001761	28.0795	7.497775	0.001713	4376.09	7.816650	-170.724	5.749921	1.065515	0.008086	0.006878	7.436260	4376.09	0.006812	0.005848	1271.51	52280.7
439	2.000000	1.069438	7.36936e+06	-55139.1	1005.82	-29742.3	0.000000	0.000000	7.070139	9.376360	NaN	0.000000	0.001679	0.001783	28.0793	9.919419	0.001521	6522.45	6.744365	-175.097	8.570052	1.069104	0.010801	0.010467	9.376360	6522.45	0.009723	0.008875	1056.5	63255.9
439	2.000000	1.071437	7.36936e+06	-55139.1	1005.82	-29742.3	0.000000	0.000000	7.072257	12.2738	NaN	0.000000	0.001631	0.001763	28.0794	13.1829	0.001709	7714.45	10.9693	178.644	11.5252	1.071143	0.012800	0.012506	12.2738	7714.45	0.011607	0.011022	1113.54	67133.7
439	2.000000	1.073402	7.36936e+06	-55139.1	1005.82	-29742.3	0.000000	0.000000	7.074322	14.704	NaN	0.000000	0.001629	0.001775	28.0792	14.3039	0.001738	8228.14	5.887165	-174.094	14.0636	1.073093	0.014765	0.014456	14.704	8228.14	0.013425	0.013242	1110.43	65328.6
439	2.000000	1.075418	7.36936e+06	-55139.1	1005.82	-29742.3	0.000000	0.000000	7.076476	18.0687	NaN	0.000000	0.001620	0.001773	28.0805	17.0866	0.001765	9680.02	4.429089	-175.488	18.7811	1.075058	0.016781	0.016421	18.0687	9680.02	0.015381	0.015797	1143.84	70366.9
439	2.000000	1.077396	7.36936e+06	-55139.1	1005.82	-29742.3	0.000000	0.000000	7.078664	23.1964	NaN	0.000000	0.001651	0.001723	28.0809	19.6765	0.001827	10767.8	11.6191	178.86	22.6391	1.077042	0.018758	0.018405	23.1964	10767.8	0.017143	0.018249	1271.07	72824
439	2.000000	1.079417	7.36936e+06	-55139.1	1005.82	-29742.3	0.000000	0.000000	7.080827	26.6295	NaN	0.000000	0.001610	0.001734	28.0805	21.6215	0.001754	12327	9.625262	178.35	27.5469	1.079003	0.020780	0.020366	26.6295	12327	0.019159	0.021239	1253.83	77280.2
439	2.000000	1.081392	7.36936e+06	-55139.1	1005.82	-29742.3	0.000000	0.000000	7.082884	28.6171	NaN	0.000000	0.001649	0.001733	28.0807	24.182	0.001736	13930.5	7.071754	178.887	29.6806	1.081128	0.022755	0.022491	28.6171	13930.5	0.021214	0.024486	1168.72	81336.2
439	2.000000	1.083359	7.36936e+06	-55139.1	1005.82	-29742.3	0.000000	0.000000	7.085216	37.5081	NaN	0.000000	0.001681	0.001727	28.0807	26.4016	0.001827	14448.5	5.055023	179.998	35.8946	1.083065	0.024721	0.024427	37.5081	14448.5	0.022774	0.027091	1384.53	80201.8
439	2.000000	1.085324	7.36936e+06	-55139.1	1005.82	-29742.3	0.000000	0.000000	7.087266	39.5576	NaN	0.000000	0.001666	0.001720	28.0806	28.4057	0.001772	16032	3.575312	-179.171	38.404	1.085044	0.026687	0.026407	39.5576	16032	0.024836	0.030718	1287.76	83572.6
439	2.000000	1.087359	7.36936e+06	-55139.1	1005.82	-29742.3	0.000000	0.000000	7.089501	44.4058	NaN	0.000000	0.001670	0.001776	28.0811	30.5598	0.001860	16433.4	5.795121	-178.876	45.1987	1.087032	0.028722	0.028394	44.4058	16433.4	0.026695	0.034173	1299.46	81220.1
439	2.000000	1.089355	7.36936e+06	-55139.1	1005.82	-29742.3	0.000000	0.000000	7.091718	49.8093	NaN	0.000000	0.001647	0.001749	28.0808	32.4328	0.001834	17681.5	7.493885	176.616	51.2757	1.089125	0.030717	0.030488	49.8093	17681.5	0.028605	0.037901	1314.2	82978.8
439	2.000000	1.091329	7.36936e+06	-55139.1	1005.82	-29742.3	0.000000	0.000000	7.093928	55.5342	NaN	0.000000	0.001683	0.001741	28.081	35.1653	0.001789	19656.2	8.864152	174.816	54.6286	1.091011	0.032691	0.032373	55.5342	19656.2	0.030572	0.041938	1324.19	87693.7
439	2.000000	1.093349	7.36936e+06	-55139.1	1005.82	-29742.3	0.000000	0.000000	7.096208	61.8499	NaN	0.000000	0.001679	0.001760	28.0816	35.4824	0.001731	20499.6	2.713839	-179.369	61.5517	1.092956	0.034712	0.034319	61.8499	20499.6	0.032449	0.045973	1345.35	87350.9
439	2.000000	1.095351	7.36936e+06	-55139.1	1005.82	-29742.3	0.000000	0.000000	7.098486	68.5688	NaN	0.000000	0.001667	0.001744	28.0808	38.4612	0.001854	20745.4	10.2689	172.914	69.8708	1.094977	0.036713	0.036340	68.5688	20745.4	0.034234	0.049978	1371.97	84782
439	2.000000	1.097374	7.36936e+06	-55139.1	1005.82	-29742.3	0.000000	0.000000	7.100831	76.3713	NaN	0.000000	0.001696	0.001729	28.081	39.2219	0.001707	22973.4	5.545120	176.279	78.1708	1.097074	0.038737	0.038437	76.3713	22973.4	0.036244	0.054682	1396.65	89758.8
439	2.000000	1.099341	7.36936e+06	-55139.1	1005.82	-29742.3	0.000000	0.000000	7.103034	82.1331	NaN	0.000000	0.001640	0.001761	28.0808	41.5015	0.001767	23492.2	7.615976	173.752	83.4595	1.099070	0.040703	0.040433	82.1331	23492.2	0.038081	0.059164	1388.24	88240.7
439	2.000000	1.101349	7.36936e+06	-55139.1	1005.82	-29742.3	0.000000	0.000000	7.105365	89.9751	NaN	0.000000	0.001645	0.001758	28.081	44.2623	0.001885	23484.4	10.6125	170.369	90.343	1.100986	0.042712	0.042348	89.9751	23484.4	0.039838	0.063611	1414.46	85072.2
439	2.000000	1.103276	7.36936e+06	-55139.1	1005.82	-29742.3	0.000000	0.000000	7.107741	100.881	NaN	0.000000	0.001636	0.001746	28.0816	44.5633	0.001732	25734.8	5.348922	174.809	97.273	1.102912	0.044639	0.044275	100.881	25734.8	0.041699	0.068493	1472.86	89840.1
439	2.000000	1.105316	7.36936e+06	-55139.1	1005.82	-29742.3	0.000000	0.000000	7.110142	109.675	NaN	0.000000	0.001646	0.001764	28.0809	47.435	0.001739	27269.6	4.274222	176.476	109.783	1.104969	0.046679	0.046331	109.675	27269.6	0.043662	0.073835	1485.41	91689.8
439	2.000000	1.107384	7.36936e+06	-55139.1	1005.82	-29742.3	0.000000	0.000000	7.112463	115.821	NaN	0.000000	0.001661	0.001752	28.081	50.0203	0.001779	28123.2	7.881754	173.371	117.008	1.106962	0.048746	0.048324	115.821	28123.2	0.045658	0.079465	1457.5	91148.3
439	2.000000	1.109285	7.36936e+06	-55139.1	1005.82	-29742.3	0.000000	0.000000	7.114785	126.046	NaN	0.000000	0.001629	0.001752	28.0796	51.769	0.001798	28791.6	6.493471	174.017	123.742	1.108951	0.050647	0.050314	126.046	28791.6	0.047364	0.084440	1492.72	90524.3
439	2.000000	1.111365	7.36936e+06	-55139.1	1005.82	-29742.3	0.000000	0.000000	7.117051	130.572	NaN	0.000000	0.001626	0.001749	28.0797	53.8957	0.001718	31368.5	6.233239	174.283	132.438	1.110983	0.052728	0.052346	130.572	31368.5	0.049606	0.091200	1431.71	94900.7
439	2.000000	1.113340	7.36936e+06	-55139.1	1005.82	-29742.3	0.000000	0.000000	7.119364	138.796	NaN	0.000000	0.001645	0.001728	28.0798	54.6842	0.001733	31548.6	4.148805	175.429	141.074	1.112944	0.054702	0.054306	138.796	31548.6	0.051403	0.096798	1433.88	92644.6
439	2.000000	1.115307	7.36936e+06	-55139.1	1005.82	-29742.3	0.000000	0.000000	7.121769	149.44	NaN	0.000000	0.001659	0.001770	28.0795	57.895	0.001778	32563.3	6.001236	172.751	148.974	1.114937	0.056670	0.056300	149.44	32563.3	0.053228	0.102651	1455.82	92858.2
439	2.000000	1.117316	7.36936e+06	-55139.1	1005.82	-29742.3	0.000000	0.000000	7.124181	159.225	NaN	0.000000	0.001659	0.001779	28.0799	59.6182	0.001757	33931.5	3.435560	175.263	156.387	1.117106	0.058679	0.058469	159.225	33931.5	0.055159	0.109024	1460.46	93888.8
439	2.000000	1.119308	7.36936e+06	-55139.1	1005.82	-29742.3	0.000000	0.000000	7.126620	170.098	NaN	0.000000	0.001626	0.001761	28.0795	61.029	0.001698	35933.9	4.619545	173.444	171.909	1.118976	0.060671	0.060339	170.098	35933.9	0.057120	0.115685	1470.35	96524.8
439	2.000000	1.121307	7.36936e+06	-55139.1	1005.82	-29742.3	0.000000	0.000000	7.128937	177.829	NaN	0.000000	0.001657	0.001747	28.0797	64.5663	0.001824	35406	7.447655	170.669	178.61	1.121013	0.062670	0.062376	177.829	35406	0.058903	0.121905	1458.76	92648.9
439	2.000000	1.123307	7.36936e+06	-55139.1	1005.82	-29742.3	0.000000	0.000000	7.131528	192.205	NaN	0.000000	0.001606	0.001749	28.0797	65.0648	0.001799	36160.4	7.577193	171.11	192.206	1.122904	0.064670	0.064267	192.205	36160.4	0.060683	0.128269	1498.45	92245.5
439	2.000000	1.125285	7.36936e+06	-55139.1	1005.82	-29742.3	0.000000	0.000000	7.133806	199.504	NaN	0.000000	0.001639	0.001765	28.0796	68.564	0.001873	36615.5	6.467977	171.656	199.856	1.125003	0.066647	0.066365	199.504	36615.5	0.062561	0.135151	1476.16	90997.4
439	2.000000	1.127266	7.36936e+06	-55139.1	1005.82	-29742.3	0.000000	0.000000	7.136565	218.392	NaN	0.000000	0.001671	0.001757	28.0798	69.7973	0.001823	38296.6	5.034766	173.518	217.228	1.126917	0.068629	0.068280	218.392	38296.6	0.064352	0.141873	1539.35	92892.9
439	2.000000	1.129225	7.36936e+06	-55139.1	1005.82	-29742.3	0.000000	0.000000	7.138697	222.602	NaN	0.000000	0.001651	0.001755	28.0795	70.8565	0.001740	40721.7	7.924097	169.852	218.456	1.128832	0.070587	0.070195	222.602	40721.7	0.066488	0.150094	1483.08	96032.2
439	2.000000	1.131244	7.36936e+06	-55139.1	1005.82	-29742.3	0.000000	0.000000	7.141306	236.951	NaN	0.000000	0.001652	0.001749	28.0795	73.0881	0.001721	42463	3.035049	173.916	233.795	1.130943	0.072607	0.072306	236.951	42463	0.068421	0.157726	1502.29	97686
439	2.000000	1.133255	7.36936e+06	-55139.1	1005.82	-29742.3	0.000000	0.000000	7.143828	249.377	NaN	0.000000	0.001641	0.001770	28.0795	74.2027	0.001729	42912.7	5.056859	172.185	247.087	1.132867	0.074618	0.074230	249.377	42912.7	0.070259	0.165145	1510.05	96477.7
439	2.000000	1.135227	7.36936e+06	-55139.1	1005.82	-29742.3	0.000000	0.000000	7.146010	254.466	NaN	0.000000	0.001622	0.001755	28.0796	78.0303	0.001799	43381.6	3.811859	172.261	251.199	1.135059	0.076590	0.076422	254.466	43381.6	0.072191	0.173114	1469.93	95260.5
439	2.000000	1.137281	7.36936e+06	-55139.1	1005.82	-29742.3	0.000000	0.000000	7.148832	273.143	NaN	0.000000	0.001645	0.001731	28.0799	79.8221	0.001891	42210.3	6.333209	171.597	270.784	1.136882	0.078644	0.078245	273.143	42210.3	0.073791	0.179850	1518.72	90936.1
439	2.000000	1.139267	7.36936e+06	-55139.1	1005.82	-29742.3	0.000000	0.000000	7.151484	289.342	NaN	0.000000	0.001631	0.001737	28.0795	81.239	0.001745	46549.5	5.722097	170.758	288.61	1.138830	0.080630	0.080193	289.342	46549.5	0.075968	0.189208	1529.22	97772.7
439	2.000000	1.141190	7.36936e+06	-55139.1	1005.82	-29742.3	0.000000	0.000000	7.153909	301.536	NaN	0.000000	0.001649	0.001748	28.0795	84.9576	0.001813	46863.3	5.102863	170.744	296.556	1.140982	0.082553	0.082345	301.536	46863.3	0.077727	0.196932	1531.17	96482.4
439	2.000000	1.143226	7.36936e+06	-55139.1	1005.82	-29742.3	0.000000	0.000000	7.156777	321.778	NaN	0.000000	0.001647	0.001710	28.0807	84.9581	0.001693	50172.6	2.820671	173.077	317.41	1.142800	0.084588	0.084163	321.778	50172.6	0.079778	0.206123	1561.09	100966
439	2.000000	1.145279	7.36936e+06	-55139.1	1005.82	-29742.3	0.000000	0.000000	7.159172	330.096	NaN	0.000000	0.001597	0.001743	28.0807	88.6866	0.001761	50368.2	5.402830	170.424	328.386	1.144931	0.086641	0.086294	330.096	50368.2	0.081726	0.215032	1535.1	99238
439	2.000000	1.147407	7.36936e+06	-55139.1	1005.82	-29742.3	0.000000	0.000000	7.161592	337.183	NaN	0.000000	0.001643	0.001735	28.0808	90.5516	0.001724	52524.2	4.020260	171.842	343.371	1.147011	0.088770	0.088374	337.183	52524.2	0.083955	0.225441	1495.66	101069
439	2.000000	1.149261	7.36936e+06	-55139.1	1005.82	-29742.3	0.000000	0.000000	7.164214	355.835	NaN	0.000000	0.001608	0.001756	28.081	92.0975	0.001772	51960.2	5.152467	170.787	357.75	1.148879	0.090624	0.090242	355.835	51960.2	0.085488	0.232734	1528.93	98404.2
439	2.000000	1.151210	7.36936e+06	-55139.1	1005.82	-29742.3	0.000000	0.000000	7.166487	363.717	NaN	0.000000	0.001607	0.001763	28.0809	95.0072	0.001790	53091.4	2.677053	172.184	360.201	1.151093	0.092572	0.092456	363.717	53091.4	0.087434	0.242151	1502.02	98572.1
439	2.000000	1.153280	7.36936e+06	-55139.1	1005.82	-29742.3	0.000000	0.000000	7.169197	379.287	NaN	0.000000	0.001618	0.001748	28.0807	96.3538	0.001795	53679.8	5.971751	168.737	378.893	1.153166	0.094642	0.094528	379.287	53679.8	0.089343	0.251554	1507.77	97784.2
439	2.000000	1.155231	7.36936e+06	-55139.1	1005.82	-29742.3	0.000000	0.000000	7.172334	408.114	NaN	0.000000	0.001617	0.001737	28.0806	98.0002	0.001827	53629.6	0.804473	174.648	406.242	1.154857	0.096594	0.096219	408.114	53629.6	0.090886	0.259278	1574.04	96226.6
439	2.000000	1.157346	7.36936e+06	-55139.1	1005.82	-29742.3	0.000000	0.000000	7.174421	407.435	NaN	0.000000	0.001628	0.001748	28.0807	100.171	0.001777	56374.6	3.232978	171.585	410.073	1.157188	0.098709	0.098551	407.435	56374.6	0.093288	0.271521	1500.57	98845.1
439	2.000000	1.159266	7.36936e+06	-55139.1	1005.82	-29742.3	0.000000	0.000000	7.177587	437.736	NaN	0.000000	0.001645	0.001766	28.0808	102.201	0.001850	55253.1	8.700061	167.554	437.08	1.158830	0.100628	0.100193	437.736	55253.1	0.094687	0.278767	1570.26	95611.2
439	2.000000	1.161246	7.36936e+06	-55139.1	1005.82	-29742.3	0.000000	0.000000	7.180422	458.512	NaN	0.000000	0.001682	0.001767	28.0809	104.692	0.001770	59161.2	9.872232	164.826	456.774	1.160774	0.102609	0.102136	458.512	59161.2	0.096796	0.289870	1581.79	100394
439	2.000000	1.163229	7.36936e+06	-55139.1	1005.82	-29742.3	0.000000	0.000000	7.183006	473.117	NaN	0.000000	0.001676	0.001766	28.081	105.454	0.001821	57905.3	8.450647	166.714	472.223	1.162803	0.104591	0.104165	473.117	57905.3	0.098464	0.298789	1583.45	96785.4
439	2.000000	1.165210	7.36936e+06	-55139.1	1005.82	-29742.3	0.000000	0.000000	7.185570	487.292	NaN	0.000000	0.001614	0.001758	28.081	108.832	0.001849	58857.1	4.572097	169.926	484.678	1.164980	0.106573	0.106342	487.292	58857.1	0.100363	0.309104	1576.46	96720.7
439	2.000000	1.166268	7.36936e+06	-55139.1	1005.82	-29742.3	0.000000	0.000000	7.187240	502.176	NaN	0.000000	0.001612	0.001761	28.0814	109.372	0.001730	63238.1	8.697831	165.881	501.631	1.165764	0.107630	0.107127	502.176	63238.1	0.101675	0.316320	1587.56	102728