File: remote_trans/data/nanoindenter/0828-1/data/Data_2025-08-06,11h17m57s/2025-07-22_16-23-58_1_232.txt
2025-07-22, 16:23:58, 1
Index	Phase	Displacement	Time	Pos X	Pos Y	Pos Z	Rot A	Rot B	Piezo Z	Force A	Force B	Gripper	Voltage A	Voltage B	Temperature	Amplitude force	Amplitude pos	Stiffness	Phase shift	Phase excitation	Force A raw	Displacement raw	HMax	HMax raw	Real Force	Real Stiffness	Contact Depth	Area	Hardness	Reduced Mod.
[#]	[#]	[um]	[s]	[um]	[um]	[um]	[m°]	[m°]	[um]	[uN]	[uN]	[V]	[V]	[V]	[°C]	[uN]	[um]	[N/m]	[°]	[°]	[uN]	[um]	[um]	[um]	[uN]	[N/m]	[um]	[um^2]	[MPa]	[MPa]
232	1.000000	0.001925	7.36731e+06	-50239.1	955.818	-29756.8	0.000000	0.000000	6.002808	-0.002938	NaN	0.000000	0.001698	0.001619	28.0788	0.053071	0.000991	53.5275	103.994	-170.199	-0.060680	0.000632	-1.012094	-1.013387	-0.002938	53.5275	-1.012053	-3.296176E+13	8.914628E-17	NaN
232	1.000000	0.009889	7.36731e+06	-50239.1	955.819	-29756.8	0.000000	0.000000	6.010772	-0.004339	NaN	0.000000	0.001661	0.001607	28.0783	0.032193	0.001036	31.0756	124.703	-165.912	0.013998	0.008570	-1.004130	-1.005449	-0.004339	31.0756	-1.004026	-2.570198E+13	1.688128E-16	NaN
232	1.000000	0.017880	7.36731e+06	-50239.1	955.818	-29756.8	0.000000	0.000000	6.018763	-0.001564	NaN	0.000000	0.001689	0.001607	28.0773	0.070087	0.001652	42.4188	-113.586	-165.813	0.024650	0.016572	-0.996139	-0.997447	-0.001564	42.4188	-0.996111	-2.010999E+13	7.775900E-17	NaN
232	1.000000	0.025917	7.36731e+06	-50239.1	955.818	-29756.8	0.000000	0.000000	6.026800	-0.021615	NaN	0.000000	0.001719	0.001617	28.0772	0.067161	0.001853	36.2393	148.633	-161.693	-0.022958	0.024552	-0.988102	-0.989467	-0.021615	36.2393	-0.987654	-1.547110E+13	1.397136E-15	NaN
232	1.000000	0.033853	7.36731e+06	-50239.1	955.818	-29756.8	0.000000	0.000000	6.034732	-0.098614	NaN	0.000000	0.001716	0.001591	28.0771	0.116174	0.001947	59.6637	-4.276305	-167.245	-0.136067	0.032619	-0.980166	-0.981400	-0.098614	59.6637	-0.978927	-1.180184E+13	8.355834E-15	NaN
232	1.000000	0.041872	7.36731e+06	-50239.1	955.819	-29756.8	0.000000	0.000000	6.042753	-0.056441	NaN	0.000000	0.001765	0.001622	28.0774	0.010305	0.001998	5.157420	-158.754	-165.61	-0.021473	0.040574	-0.972147	-0.973445	-0.056441	5.157420	-0.963939	-7.412633E+12	7.614167E-15	NaN
232	1.000000	0.049838	7.36731e+06	-50239.1	955.818	-29756.8	0.000000	0.000000	6.050723	0.033613	NaN	0.000000	0.001658	0.001567	28.0769	0.052049	0.001808	28.7864	-3.654799	-163.222	0.041444	0.048534	-0.964181	-0.965485	0.033613	28.7864	-0.965056	-7.674172E+12	-4.379957E-15	NaN
232	1.000000	0.057859	7.36731e+06	-50239.1	955.819	-29756.8	0.000000	0.000000	6.058742	-0.012223	NaN	0.000000	0.001643	0.001586	28.0773	0.038326	0.001903	20.1389	160.399	-160.389	-0.015723	0.056602	-0.956160	-0.957417	-0.012223	20.1389	-0.955705	-5.740629E+12	2.129183E-15	NaN
232	1.000000	0.065879	7.36731e+06	-50239.1	955.818	-29756.8	0.000000	0.000000	6.066765	0.060630	NaN	0.000000	0.001646	0.001629	28.0768	0.034433	0.001985	17.3452	133.979	-165.832	0.083689	0.064518	-0.948140	-0.949501	0.060630	17.3452	-0.950762	-4.923830E+12	-1.231356E-14	NaN
232	1.000000	0.073872	7.36731e+06	-50239.1	955.819	-29756.8	0.000000	0.000000	6.074755	-0.008916	NaN	0.000000	0.001658	0.001612	28.0771	0.057330	0.002181	26.281	-37.6383	-165.021	-0.019880	0.072528	-0.940147	-0.941491	-0.008916	26.281	-0.939893	-3.513090E+12	2.537828E-15	NaN
232	1.000000	0.081889	7.36731e+06	-50239.1	955.819	-29756.8	0.000000	0.000000	6.082773	0.022005	NaN	0.000000	0.001647	0.001598	28.0773	0.055199	0.002038	27.0876	-85.7811	-166.891	0.036014	0.080559	-0.932130	-0.933460	0.022005	27.0876	-0.932740	-2.812997E+12	-7.822647E-15	NaN
232	1.000000	0.089845	7.36731e+06	-50239.1	955.818	-29756.8	0.000000	0.000000	6.090727	-0.030659	NaN	0.000000	0.001638	0.001611	28.0768	0.058125	0.001796	32.3648	98.8968	-166.024	-0.053086	0.088596	-0.924174	-0.925423	-0.030659	32.3648	-0.923463	-2.108451E+12	1.454089E-14	NaN
232	1.000000	0.097844	7.36731e+06	-50239.1	955.819	-29756.8	0.000000	0.000000	6.098730	0.048567	NaN	0.000000	0.001633	0.001607	28.077	0.052991	0.002042	25.9463	-93.1684	-165.428	0.019296	0.096594	-0.916175	-0.917425	0.048567	25.9463	-0.917579	-1.755950E+12	-2.765826E-14	NaN
232	1.000000	0.105886	7.36731e+06	-50239.1	955.819	-29756.8	0.000000	0.000000	6.106767	-0.055097	NaN	0.000000	0.001649	0.001562	28.077	0.076363	0.001982	38.531	9.772810	-164.368	-0.040248	0.104598	-0.908133	-0.909421	-0.055097	38.531	-0.907061	-1.266074E+12	4.351787E-14	NaN
232	1.000000	0.113893	7.36731e+06	-50239.1	955.819	-29756.8	0.000000	0.000000	6.114775	-0.028158	NaN	0.000000	0.001683	0.001597	28.0772	0.135491	0.001939	69.8824	18.1044	-161.79	-0.020475	0.112594	-0.900126	-0.901425	-0.028158	69.8824	-0.899824	-1.010857E+12	2.785603E-14	NaN
232	1.000000	0.121873	7.36731e+06	-50239.1	955.819	-29756.8	0.000000	0.000000	6.122756	-0.007186	NaN	0.000000	0.001655	0.001660	28.0771	0.104999	0.001981	52.9959	147.947	-163.245	0.009406	0.120626	-0.892146	-0.893393	-0.007186	52.9959	-0.892044	-7.935065E+11	9.055553E-15	NaN
232	1.000000	0.129884	7.36731e+06	-50239.1	955.819	-29756.8	0.000000	0.000000	6.130765	-0.049812	NaN	0.000000	0.001661	0.001634	28.0772	0.090955	0.002013	45.1886	-0.205434	-165.501	-0.059701	0.128575	-0.884135	-0.885444	-0.049812	45.1886	-0.883309	-6.045740E+11	8.239191E-14	NaN
232	1.000000	0.137894	7.36731e+06	-50239.1	955.818	-29756.8	0.000000	0.000000	6.138777	-0.018360	NaN	0.000000	0.001631	0.001605	28.0772	0.058862	0.001896	31.0375	134.755	-166.315	-0.065045	0.136578	-0.876125	-0.877441	-0.018360	31.0375	-0.875681	-4.767578E+11	3.851061E-14	NaN
232	1.000000	0.145897	7.36731e+06	-50239.1	955.819	-29756.8	0.000000	0.000000	6.146782	0.049045	NaN	0.000000	0.001617	0.001600	28.0772	0.039594	0.001923	20.5855	140.452	-165.87	-0.039432	0.144600	-0.868122	-0.869419	0.049045	20.5855	-0.869909	-3.983037E+11	-1.231335E-13	NaN
232	1.000000	0.153912	7.36731e+06	-50239.1	955.818	-29756.8	0.000000	0.000000	6.154793	-0.054035	NaN	0.000000	0.001668	0.001599	28.0783	0.069078	0.002026	34.1024	110.076	-164.764	-0.095773	0.152605	-0.860107	-0.861414	-0.054035	34.1024	-0.858919	-2.828056E+11	1.910692E-13	NaN
232	1.000000	0.161902	7.36731e+06	-50239.1	955.818	-29756.8	0.000000	0.000000	6.162786	0.018541	NaN	0.000000	0.001660	0.001615	28.0783	0.061767	0.002131	28.9891	73.7315	-172.202	0.128347	0.160581	-0.852117	-0.853438	0.018541	28.9891	-0.852597	-2.322183E+11	-7.984501E-14	NaN
232	1.000000	0.169900	7.36731e+06	-50239.1	955.818	-29756.8	0.000000	0.000000	6.170781	-0.039732	NaN	0.000000	0.001629	0.001586	28.0785	0.042801	0.002040	20.9818	-33.5735	-167.1	-0.069751	0.168549	-0.844120	-0.845470	-0.039732	20.9818	-0.842699	-1.705531E+11	2.329578E-13	NaN
232	1.000000	0.177897	7.36731e+06	-50239.1	955.819	-29756.8	0.000000	0.000000	6.178778	-0.067547	NaN	0.000000	0.001645	0.001598	28.0784	0.126922	0.002030	62.5203	-85.7341	-167.309	0.002160	0.176636	-0.836122	-0.837383	-0.067547	62.5203	-0.835311	-1.354456E+11	4.987044E-13	NaN
232	1.000000	0.185884	7.36731e+06	-50239.1	955.819	-29756.8	0.000000	0.000000	6.186767	-0.004641	NaN	0.000000	0.001669	0.001593	28.0787	0.048265	0.002052	23.526	150.975	-165.381	-0.005428	0.184604	-0.828135	-0.829415	-0.004641	23.526	-0.827987	-1.077701E+11	4.306141E-14	NaN
232	1.000000	0.193935	7.36731e+06	-50239.1	955.818	-29756.8	0.000000	0.000000	6.194818	0.001893	NaN	0.000000	0.001658	0.001544	28.0785	0.037584	0.001990	18.8863	164.064	-164.002	-0.030976	0.192581	-0.820085	-0.821438	0.001893	18.8863	-0.820160	-8.440663E+10	-2.242460E-14	NaN
232	1.000000	0.201935	7.36732e+06	-50239.1	955.819	-29756.8	0.000000	0.000000	6.202819	0.006138	NaN	0.000000	0.001691	0.001561	28.0785	0.042570	0.002127	20.0109	-70.6759	-168.292	-0.100454	0.200549	-0.812084	-0.813470	0.006138	20.0109	-0.812314	-6.606405E+10	-9.290353E-14	NaN
232	1.000000	0.209903	7.36732e+06	-50239.1	955.817	-29756.8	0.000000	0.000000	6.210786	-0.011544	NaN	0.000000	0.001670	0.001592	28.0785	0.051604	0.002081	24.8002	173.681	-168.496	-0.081258	0.208662	-0.804116	-0.805357	-0.011544	24.8002	-0.803767	-5.058092E+10	2.282271E-13	NaN
232	1.000000	0.217948	7.36732e+06	-50239.1	955.819	-29756.8	0.000000	0.000000	6.218833	0.044133	NaN	0.000000	0.001676	0.001598	28.0783	0.034123	0.001998	17.0829	51.1534	-169.089	0.044563	0.216649	-0.796071	-0.797370	0.044133	17.0829	-0.798009	-4.225031E+10	-1.044560E-12	NaN
232	1.000000	0.225939	7.36732e+06	-50239.1	955.818	-29756.8	0.000000	0.000000	6.226824	0.038116	NaN	0.000000	0.001674	0.001607	28.0784	0.123070	0.002077	59.2432	-174.001	-163.339	0.076492	0.224632	-0.788080	-0.789387	0.038116	59.2432	-0.788563	-3.144580E+10	-1.212105E-12	NaN
232	1.000000	0.233950	7.36732e+06	-50239.1	955.818	-29756.8	0.000000	0.000000	6.234832	-0.034701	NaN	0.000000	0.001650	0.001569	28.0786	0.154268	0.002053	75.143	-129.743	-161.74	-0.049533	0.232592	-0.780069	-0.781427	-0.034701	75.143	-0.779723	-2.384861E+10	1.455073E-12	NaN
232	1.000000	0.241944	7.36732e+06	-50239.1	955.819	-29756.8	0.000000	0.000000	6.242829	0.032331	NaN	0.000000	0.001680	0.001570	28.0784	0.039050	0.001939	20.1439	113.899	-169.807	-0.025883	0.240664	-0.772075	-0.773355	0.032331	20.1439	-0.773279	-1.949296E+10	-1.658587E-12	NaN
232	1.000000	0.249935	7.36732e+06	-50239.1	955.819	-29756.8	0.000000	0.000000	6.250817	-0.045791	NaN	0.000000	0.001643	0.001593	28.0786	0.087090	0.002046	42.5573	-133.778	-166.19	-0.098490	0.248695	-0.764084	-0.765324	-0.045791	42.5573	-0.763277	-1.425192E+10	3.212954E-12	NaN
232	1.000000	0.257981	7.36732e+06	-50239.1	955.818	-29756.8	0.000000	0.000000	6.258863	-0.036562	NaN	0.000000	0.001636	0.001584	28.0784	0.050363	0.002048	24.5939	-97.2101	-167.536	-0.059429	0.256607	-0.756038	-0.757412	-0.036562	24.5939	-0.754923	-1.097033E+10	3.332836E-12	NaN
232	1.000000	0.265930	7.36732e+06	-50239.1	955.819	-29756.8	0.000000	0.000000	6.266813	0.012512	NaN	0.000000	0.001626	0.001609	28.0785	0.072489	0.001825	39.7231	-102.147	-165.249	0.035718	0.264624	-0.748089	-0.749395	0.012512	39.7231	-0.748326	-8.921297E+9	-1.402459E-12	NaN
232	1.000000	0.273961	7.36732e+06	-50239.1	955.819	-29756.8	0.000000	0.000000	6.274845	0.030629	NaN	0.000000	0.001619	0.001615	28.0785	0.056527	0.001926	29.3566	48.3733	-165.488	0.008135	0.272640	-0.740058	-0.741379	0.030629	29.3566	-0.740841	-7.055207E+9	-4.341287E-12	NaN
232	1.000000	0.282000	7.36732e+06	-50239.1	955.818	-29756.8	0.000000	0.000000	6.282885	0.017270	NaN	0.000000	0.001619	0.001557	28.0783	0.046935	0.002069	22.6854	112.728	-164.933	-0.000704	0.280672	-0.732019	-0.733347	0.017270	22.6854	-0.732590	-5.446267E+9	-3.170921E-12	NaN
232	1.000000	0.289975	7.36732e+06	-50239.1	955.819	-29756.8	0.000000	0.000000	6.290859	0.018274	NaN	0.000000	0.001620	0.001593	28.0775	0.019688	0.001971	9.990241	-147.441	-165.557	0.029915	0.288656	-0.724044	-0.725363	0.018274	9.990241	-0.725416	-4.348291E+9	-4.202549E-12	NaN
232	1.000000	0.297982	7.36732e+06	-50239.1	955.819	-29756.8	0.000000	0.000000	6.298865	-0.013701	NaN	0.000000	0.001602	0.001600	28.0772	0.092963	0.001919	48.432	169.805	-166.078	-0.035890	0.296710	-0.716037	-0.717309	-0.013701	48.432	-0.715824	-3.217507E+9	4.258283E-12	NaN
232	1.000000	0.305960	7.36732e+06	-50239.1	955.819	-29756.8	0.000000	0.000000	6.306840	-0.079872	NaN	0.000000	0.001700	0.001602	28.0772	0.104486	0.002014	51.8673	-43.5157	-167.594	-0.026608	0.304696	-0.708059	-0.709323	-0.079872	51.8673	-0.706904	-2.431037E+9	3.285524E-11	NaN
232	1.000000	0.313971	7.36732e+06	-50239.1	955.818	-29756.8	0.000000	0.000000	6.314856	0.016860	NaN	0.000000	0.001681	0.001571	28.0772	0.143376	0.001916	74.8337	-49.0174	-167.165	0.019962	0.312602	-0.700048	-0.701417	0.016860	74.8337	-0.700217	-1.970102E+9	-8.558066E-12	NaN
232	1.000000	0.322000	7.36732e+06	-50239.1	955.817	-29756.8	0.000000	0.000000	6.322885	0.017705	NaN	0.000000	0.001720	0.001585	28.0771	0.099812	0.001967	50.7395	-162.165	-164.271	-0.021517	0.320618	-0.692019	-0.693402	0.017705	50.7395	-0.692280	-1.534898E+9	-1.153527E-11	NaN
232	1.000000	0.329998	7.36732e+06	-50239.1	955.818	-29756.8	0.000000	0.000000	6.330877	-0.107514	NaN	0.000000	0.001695	0.001589	28.0772	0.065638	0.002166	30.2979	128.191	-167.088	-0.098565	0.328677	-0.684021	-0.685342	-0.107514	30.2979	-0.681359	-1.088414E+9	9.878023E-11	NaN
232	1.000000	0.337984	7.36732e+06	-50239.1	955.819	-29756.8	0.000000	0.000000	6.338869	0.021659	NaN	0.000000	0.001718	0.001616	28.0772	0.057208	0.002011	28.4435	123.997	-165.708	-0.048000	0.336675	-0.676035	-0.677344	0.021659	28.4435	-0.676606	-9.370860E+8	-2.311339E-11	NaN
232	1.000000	0.346020	7.36732e+06	-50239.1	955.818	-29756.8	0.000000	0.000000	6.346900	-0.074425	NaN	0.000000	0.001697	0.001584	28.0773	0.125093	0.001939	64.5077	127.669	-162.627	0.003027	0.344656	-0.667999	-0.669363	-0.074425	64.5077	-0.667134	-6.952737E+8	1.070435E-10	NaN
232	1.000000	0.353987	7.36732e+06	-50239.1	955.819	-29756.8	0.000000	0.000000	6.354869	-0.030412	NaN	0.000000	0.001710	0.001614	28.0772	0.048770	0.001937	25.1833	-94.4765	-162.031	-0.044387	0.352703	-0.660032	-0.661316	-0.030412	25.1833	-0.659126	-5.401350E+8	5.630531E-11	NaN
232	1.000000	0.362003	7.36732e+06	-50239.1	955.819	-29756.8	0.000000	0.000000	6.362888	0.022923	NaN	0.000000	0.001681	0.001609	28.0772	0.094819	0.002067	45.8663	6.960044	-165.946	0.020730	0.360675	-0.652016	-0.653344	0.022923	45.8663	-0.652391	-4.367239E+8	-5.248899E-11	NaN
232	1.000000	0.370003	7.36732e+06	-50239.1	955.818	-29756.8	0.000000	0.000000	6.370886	0.009403	NaN	0.000000	0.001684	0.001587	28.0776	0.108002	0.001997	54.083	93.1241	-166.554	-0.038630	0.368704	-0.644016	-0.645315	0.009403	54.083	-0.644147	-3.366479E+8	-2.793203E-11	NaN
232	1.000000	0.377991	7.36732e+06	-50239.1	955.819	-29756.8	0.000000	0.000000	6.378875	-5.842110E-5	NaN	0.000000	0.001651	0.001629	28.0771	0.057711	0.001904	30.3137	166.83	-166.605	-0.016935	0.376663	-0.636028	-0.637356	-5.842110E-5	30.3137	-0.636026	-2.604696E+8	2.242915E-13	NaN
232	1.000000	0.386040	7.36732e+06	-50239.1	955.818	-29756.8	0.000000	0.000000	6.386923	-0.004365	NaN	0.000000	0.001715	0.001639	28.0772	0.059881	0.001946	30.7691	82.6465	-163.17	0.038276	0.384742	-0.627979	-0.629277	-0.004365	30.7691	-0.627873	-2.012834E+8	2.168792E-11	NaN
232	1.000000	0.394009	7.36732e+06	-50239.1	955.82	-29756.8	0.000000	0.000000	6.394893	0.010624	NaN	0.000000	0.001720	0.001606	28.0771	0.078544	0.002039	38.5202	-171.293	-169.197	-0.018537	0.392714	-0.620010	-0.621305	0.010624	38.5202	-0.620217	-1.579831E+8	-6.724828E-11	NaN
232	1.000000	0.402021	7.36732e+06	-50239.1	955.818	-29756.8	0.000000	0.000000	6.402907	0.044075	NaN	0.000000	0.001772	0.001645	28.0773	0.141547	0.001876	75.4417	148.072	-168.711	0.032400	0.400735	-0.611998	-0.613284	0.044075	75.4417	-0.612436	-1.234881E+8	-3.569202E-10	NaN
232	1.000000	0.409993	7.36732e+06	-50239.1	955.819	-29756.8	0.000000	0.000000	6.410879	0.072146	NaN	0.000000	0.001728	0.001633	28.0774	0.068936	0.002024	34.0594	126.728	-165.364	0.025302	0.408704	-0.604026	-0.605315	0.072146	34.0594	-0.605615	-9.948794E+7	-7.251783E-10	NaN
232	1.000000	0.418005	7.36732e+06	-50239.1	955.818	-29756.8	0.000000	0.000000	6.418889	0.012399	NaN	0.000000	0.001699	0.001606	28.0772	0.076719	0.001975	38.844	-169.702	-166.597	-0.025604	0.416745	-0.596014	-0.597274	0.012399	38.844	-0.596253	-7.393429E+7	-1.676994E-10	NaN
232	1.000000	0.426027	7.36732e+06	-50239.1	955.819	-29756.8	0.000000	0.000000	6.426909	-0.018118	NaN	0.000000	0.001720	0.001619	28.0784	0.083038	0.002071	40.1035	63.9499	-166.019	-0.042268	0.424711	-0.587992	-0.589308	-0.018118	40.1035	-0.587653	-5.627435E+7	3.219564E-10	NaN
232	1.000000	0.434058	7.36732e+06	-50239.1	955.818	-29756.8	0.000000	0.000000	6.434943	0.031400	NaN	0.000000	0.001734	0.001606	28.0785	0.021469	0.002182	9.838857	176.395	-164.426	-0.020181	0.432692	-0.579961	-0.581327	0.031400	9.838857	-0.582355	-4.755785E+7	-6.602561E-10	NaN
232	1.000000	0.442042	7.36732e+06	-50239.1	955.818	-29756.8	0.000000	0.000000	6.442925	-0.004174	NaN	0.000000	0.001703	0.001641	28.0786	0.089990	0.002138	42.0829	47.9482	-166.666	-0.011611	0.440717	-0.571977	-0.573302	-0.004174	42.0829	-0.571902	-3.411264E+7	1.223686E-10	NaN
232	1.000000	0.450049	7.36732e+06	-50239.1	955.818	-29756.8	0.000000	0.000000	6.450931	-0.050339	NaN	0.000000	0.001741	0.001635	28.0785	0.114044	0.002044	55.7962	-160.031	-167.597	-0.076591	0.448694	-0.563970	-0.565325	-0.050339	55.7962	-0.563293	-2.593722E+7	1.940801E-9	NaN
232	1.000000	0.458074	7.36732e+06	-50239.1	955.818	-29756.8	0.000000	0.000000	6.458952	-0.136150	NaN	0.000000	0.001708	0.001633	28.0789	0.089917	0.001925	46.7057	-41.3429	-164.104	-0.103479	0.456739	-0.555945	-0.557280	-0.136150	46.7057	-0.553759	-1.914298E+7	7.112287E-9	NaN
232	1.000000	0.466044	7.36732e+06	-50239.1	955.818	-29756.8	0.000000	0.000000	6.466926	-0.039458	NaN	0.000000	0.001737	0.001613	28.0787	0.031522	0.002070	15.2272	-147.925	-166.955	-0.035241	0.464710	-0.547975	-0.549309	-0.039458	15.2272	-0.546031	-1.496130E+7	2.637318E-9	NaN
232	1.000000	0.474048	7.36732e+06	-50239.1	955.819	-29756.8	0.000000	0.000000	6.474932	0.001727	NaN	0.000000	0.001676	0.001625	28.0786	0.173945	0.001982	87.7486	179.103	-163.217	-0.042848	0.472730	-0.539971	-0.541289	0.001727	87.7486	-0.539986	-1.233561E+7	-1.399849E-10	NaN
232	1.000000	0.482059	7.36732e+06	-50239.1	955.819	-29756.8	0.000000	0.000000	6.482945	0.068280	NaN	0.000000	0.001640	0.001614	28.0785	0.088323	0.001956	45.1473	-98.4234	-163.28	0.084949	0.480744	-0.531960	-0.533275	0.068280	45.1473	-0.533094	-9.89774e+06	-6.898589E-9	NaN
232	1.000000	0.490072	7.36732e+06	-50239.1	955.819	-29756.8	0.000000	0.000000	6.490955	-0.008532	NaN	0.000000	0.001742	0.001652	28.0787	0.002256	0.001916	1.177387	-110.394	-165.333	-0.068971	0.488760	-0.523947	-0.525259	-0.008532	1.177387	-0.518512	-6.20724e+06	1.374562E-9	NaN
232	1.000000	0.498064	7.36732e+06	-50239.1	955.819	-29756.8	0.000000	0.000000	6.498946	-0.028906	NaN	0.000000	0.001736	0.001623	28.0791	0.025150	0.002067	12.1692	153.52	-168.77	0.024344	0.496728	-0.515955	-0.517291	-0.028906	12.1692	-0.514174	-5.4017e+06	5.351336E-9	NaN
232	1.000000	0.506052	7.36732e+06	-50239.1	955.817	-29756.8	0.000000	0.000000	6.506934	-0.038152	NaN	0.000000	0.001645	0.001611	28.0784	0.123901	0.001957	63.2999	145.317	-164.892	-0.025327	0.504757	-0.507967	-0.509262	-0.038152	63.2999	-0.507515	-4.36313e+06	8.744094E-9	NaN
232	1.000000	0.514079	7.36732e+06	-50239.1	955.819	-29756.8	0.000000	0.000000	6.514962	-0.006381	NaN	0.000000	0.001688	0.001649	28.0785	0.008330	0.002027	4.108982	57.0975	-166.713	-0.064574	0.512791	-0.499940	-0.501228	-0.006381	4.108982	-0.498775	-3.29555e+06	1.936147E-9	NaN
232	1.000000	0.522078	7.36732e+06	-50239.1	955.818	-29756.8	0.000000	0.000000	6.522959	-0.048970	NaN	0.000000	0.001665	0.001613	28.0786	0.114265	0.002110	54.1559	133.522	-165.326	-0.045798	0.520821	-0.491941	-0.493198	-0.048970	54.1559	-0.491263	-2.58845e+06	1.891847E-8	NaN
232	1.000000	0.530048	7.36732e+06	-50239.1	955.818	-29756.8	0.000000	0.000000	6.530930	-0.029045	NaN	0.000000	0.001634	0.001595	28.0785	0.076661	0.001947	39.3754	-155.3	-166.205	-0.071298	0.528685	-0.483971	-0.485334	-0.029045	39.3754	-0.483418	-2.01077e+06	1.444482E-8	NaN
232	1.000000	0.538074	7.36732e+06	-50239.1	955.819	-29756.8	0.000000	0.000000	6.538956	-0.036014	NaN	0.000000	0.001683	0.001607	28.0785	0.094799	0.001940	48.8582	2.905896	-163.224	-0.070403	0.536752	-0.475945	-0.477267	-0.036014	48.8582	-0.475392	-1.55237e+06	2.319951E-8	NaN
232	1.000000	0.546055	7.36732e+06	-50239.1	955.819	-29756.8	0.000000	0.000000	6.546940	0.058317	NaN	0.000000	0.001645	0.001614	28.0786	0.140473	0.001999	70.2769	-10.3528	-167.386	0.109855	0.544765	-0.467964	-0.469254	0.058317	70.2769	-0.468587	-1.24619e+06	-4.679646E-8	NaN
232	1.000000	0.554083	7.36732e+06	-50239.1	955.819	-29756.8	0.000000	0.000000	6.554967	0.020305	NaN	0.000000	0.001653	0.001665	28.0788	0.096504	0.002020	47.7741	83.319	-169.02	0.051425	0.552737	-0.459936	-0.461282	0.020305	47.7741	-0.460255	-951919	-2.133015E-8	NaN
232	1.000000	0.562068	7.36732e+06	-50239.1	955.818	-29756.8	0.000000	0.000000	6.562953	0.040666	NaN	0.000000	0.001657	0.001706	28.0774	0.080131	0.001941	41.2834	-107.5	-163.507	-0.036820	0.560759	-0.451951	-0.453260	0.040666	41.2834	-0.452690	-745100	-5.457753E-8	NaN
232	1.000000	0.570083	7.36732e+06	-50239.1	955.818	-29756.8	0.000000	0.000000	6.570963	-0.100993	NaN	0.000000	0.001657	0.001626	28.0773	0.037889	0.001918	19.7581	119.599	-166.838	-0.053349	0.568783	-0.443936	-0.445236	-0.100993	19.7581	-0.440102	-495225	2.039336E-7	NaN
232	1.000000	0.578080	7.36732e+06	-50239.1	955.819	-29756.8	0.000000	0.000000	6.578963	-0.013362	NaN	0.000000	0.001652	0.001622	28.0772	0.032422	0.001915	16.9322	-150.523	-167.095	-0.063077	0.576821	-0.435939	-0.437198	-0.013362	16.9322	-0.435347	-424285	3.149299E-8	NaN
232	1.000000	0.586074	7.36732e+06	-50239.1	955.818	-29756.8	0.000000	0.000000	6.586959	0.048496	NaN	0.000000	0.001647	0.001623	28.0772	0.097223	0.002052	47.3752	-91.0524	-165.496	0.017062	0.584804	-0.427945	-0.429215	0.048496	47.3752	-0.428713	-341864	-1.418573E-7	NaN
232	1.000000	0.594080	7.36732e+06	-50239.1	955.818	-29756.8	0.000000	0.000000	6.594961	-0.059711	NaN	0.000000	0.001625	0.001633	28.0776	0.083957	0.001931	43.4843	94.5838	-167.832	-0.126148	0.592767	-0.419939	-0.421252	-0.059711	43.4843	-0.418909	-248278	2.405000E-7	NaN
232	1.000000	0.602080	7.36732e+06	-50239.1	955.819	-29756.8	0.000000	0.000000	6.602963	-0.008109	NaN	0.000000	0.001682	0.001605	28.0774	0.025547	0.002021	12.6382	-140.536	-164.608	0.073032	0.600817	-0.411939	-0.413202	-0.008109	12.6382	-0.411458	-194594	4.166885E-8	NaN
232	1.000000	0.610123	7.36732e+06	-50239.1	955.817	-29756.8	0.000000	0.000000	6.611004	-0.060978	NaN	0.000000	0.001618	0.001610	28.0771	0.106415	0.002081	51.1431	139.443	-168.079	-0.036774	0.608815	-0.403896	-0.405204	-0.060978	51.1431	-0.403002	-147499	4.134129E-7	NaN
232	1.000000	0.618119	7.36732e+06	-50239.1	955.818	-29756.8	0.000000	0.000000	6.619001	-0.052451	NaN	0.000000	0.001639	0.001651	28.0774	0.092734	0.001853	50.0518	-172.905	-165.638	-0.095530	0.616783	-0.395900	-0.397236	-0.052451	50.0518	-0.395114	-113830	4.607827E-7	NaN
232	1.000000	0.626114	7.36732e+06	-50239.1	955.818	-29756.8	0.000000	0.000000	6.626996	-0.035434	NaN	0.000000	0.001652	0.001613	28.0772	0.021864	0.001900	11.5083	17.1231	-163.444	-0.038717	0.624786	-0.387905	-0.389233	-0.035434	11.5083	-0.385596	-83200.4	4.258901E-7	NaN
232	1.000000	0.634106	7.36732e+06	-50239.1	955.818	-29756.8	0.000000	0.000000	6.634989	-0.016421	NaN	0.000000	0.001671	0.001630	28.0774	0.091527	0.001971	46.4434	-172.047	-165.472	-0.089471	0.632831	-0.379913	-0.381188	-0.016421	46.4434	-0.379647	-68364.2	2.401948E-7	NaN
232	1.000000	0.642127	7.36732e+06	-50239.1	955.818	-29756.8	0.000000	0.000000	6.643011	0.026124	NaN	0.000000	0.001656	0.001638	28.0773	0.042352	0.002051	20.6492	-123.912	-168.046	0.051417	0.640790	-0.371892	-0.373229	0.026124	20.6492	-0.372841	-54578.7	-4.786552E-7	NaN
232	1.000000	0.650111	7.36732e+06	-50239.1	955.819	-29756.8	0.000000	0.000000	6.650995	0.024458	NaN	0.000000	0.001679	0.001641	28.0774	0.028568	0.001967	14.5234	-55.102	-165.238	0.030785	0.648815	-0.363908	-0.365204	0.024458	14.5234	-0.365171	-42318.2	-5.779486E-7	NaN
232	1.000000	0.658108	7.36732e+06	-50239.1	955.819	-29756.8	0.000000	0.000000	6.658992	0.026934	NaN	0.000000	0.001676	0.001652	28.0774	0.091072	0.001965	46.3406	-40.9416	-169.432	0.017952	0.656825	-0.355911	-0.357194	0.026934	46.3406	-0.356347	-31550.2	-8.536920E-7	NaN
232	1.000000	0.666149	7.36732e+06	-50239.1	955.819	-29756.8	0.000000	0.000000	6.667034	0.017205	NaN	0.000000	0.001684	0.001658	28.0772	0.046713	0.002062	22.6571	-18.5304	-160.523	-0.015203	0.664865	-0.347870	-0.349154	0.017205	22.6571	-0.348439	-24229.3	-7.101120E-7	NaN
232	1.000000	0.674141	7.36732e+06	-50239.1	955.819	-29756.8	0.000000	0.000000	6.675025	0.009028	NaN	0.000000	0.001659	0.001638	28.0771	0.114475	0.001939	59.0382	-34.1083	-164.82	0.009061	0.672785	-0.339878	-0.341234	0.009028	59.0382	-0.339992	-18257.5	-4.944743E-7	NaN
232	1.000000	0.682160	7.36732e+06	-50239.1	955.819	-29756.8	0.000000	0.000000	6.683042	-0.026014	NaN	0.000000	0.001698	0.001650	28.0771	0.060242	0.002052	29.361	-175.142	-163.491	0.067351	0.680822	-0.331859	-0.333197	-0.026014	29.361	-0.331195	-13581.3	1.915400E-6	NaN
232	1.000000	0.690123	7.36732e+06	-50239.1	955.819	-29756.8	0.000000	0.000000	6.691006	-0.020581	NaN	0.000000	0.001669	0.001588	28.0771	0.151999	0.002053	74.0553	-18.8564	-164.828	-0.119397	0.688876	-0.323896	-0.325143	-0.020581	74.0553	-0.323688	-10540.5	1.952546E-6	NaN
232	1.000000	0.698160	7.36732e+06	-50239.1	955.818	-29756.8	0.000000	0.000000	6.699044	0.014723	NaN	0.000000	0.001656	0.001602	28.0785	0.011190	0.002026	5.522114	60.0687	-164.925	0.006375	0.696863	-0.315859	-0.317156	0.014723	5.522114	-0.317859	-8651.81	-1.701731E-6	NaN
232	1.000000	0.706136	7.36732e+06	-50239.1	955.819	-29756.8	0.000000	0.000000	6.707020	0.005458	NaN	0.000000	0.001636	0.001587	28.0783	0.113100	0.001919	58.9224	82.0628	-165.293	-0.056156	0.704857	-0.307883	-0.309162	0.005458	58.9224	-0.307953	-6176.45	-8.836389E-7	NaN
232	1.000000	0.714143	7.36732e+06	-50239.1	955.818	-29756.8	0.000000	0.000000	6.715025	-0.036211	NaN	0.000000	0.001637	0.001627	28.0784	0.063240	0.001960	32.2599	-33.3501	-165.318	0.056701	0.712835	-0.299876	-0.301184	-0.036211	32.2599	-0.299035	-4552.59	7.953982E-6	NaN
232	1.000000	0.722191	7.36732e+06	-50239.1	955.817	-29756.8	0.000000	0.000000	6.723077	0.077791	NaN	0.000000	0.001660	0.001650	28.0784	0.029867	0.002026	14.7432	-47.2045	-166.356	0.039894	0.720840	-0.291828	-0.293179	0.077791	14.7432	-0.295786	-4072.1	-1.910328E-5	NaN
232	1.000000	0.730151	7.36732e+06	-50239.1	955.819	-29756.8	0.000000	0.000000	6.731036	0.020047	NaN	0.000000	0.001690	0.001558	28.0785	0.065682	0.001987	33.0607	-19.0906	-165.502	-0.061938	0.728805	-0.283868	-0.285214	0.020047	33.0607	-0.284323	-2742.08	-7.310869E-6	NaN
232	1.000000	0.738138	7.36732e+06	-50239.1	955.819	-29756.8	0.000000	0.000000	6.739022	0.005574	NaN	0.000000	0.001676	0.001623	28.0787	0.065551	0.001967	33.3314	158.236	-166.546	0.062540	0.736834	-0.275881	-0.277185	0.005574	33.3314	-0.276006	-2054.16	-2.713649E-6	NaN
232	1.000000	0.746163	7.36732e+06	-50239.1	955.818	-29756.8	0.000000	0.000000	6.747046	0.000783	NaN	0.000000	0.001674	0.001644	28.0783	0.052590	0.002034	25.8548	158.884	-166.919	0.023963	0.744840	-0.267856	-0.269179	0.000783	25.8548	-0.267879	-1546.24	-5.062889E-7	NaN
232	1.000000	0.754162	7.36732e+06	-50239.1	955.819	-29756.8	0.000000	0.000000	6.755043	-0.048725	NaN	0.000000	0.001691	0.001605	28.0784	0.080204	0.001966	40.8045	47.8377	-164.157	-0.081961	0.752895	-0.259857	-0.261124	-0.048725	40.8045	-0.258962	-1129.78	4.312782E-5	NaN
232	1.000000	0.762156	7.36732e+06	-50239.1	955.818	-29756.8	0.000000	0.000000	6.763039	-0.004818	NaN	0.000000	0.001677	0.001584	28.0785	0.074158	0.001949	38.0494	-42.9289	-166.401	0.066375	0.760874	-0.251863	-0.253145	-0.004818	38.0494	-0.251768	-875.567	5.502942E-6	NaN
232	1.000000	0.770169	7.36732e+06	-50239.1	955.818	-29756.8	0.000000	0.000000	6.771053	0.007554	NaN	0.000000	0.001688	0.001586	28.0782	0.063247	0.002042	30.9729	-134.021	-169.715	0.013027	0.768895	-0.243850	-0.245124	0.007554	30.9729	-0.244033	-664.373	-1.136957E-5	NaN
232	1.000000	0.778180	7.36732e+06	-50239.1	955.818	-29756.8	0.000000	0.000000	6.779062	-0.018590	NaN	0.000000	0.001671	0.001602	28.0783	0.019219	0.001938	9.919390	20.3577	-165.908	-0.073191	0.776873	-0.235839	-0.237146	-0.018590	9.919390	-0.234434	-470.279	3.953021E-5	NaN
232	1.000000	0.786204	7.36732e+06	-50239.1	955.819	-29756.8	0.000000	0.000000	6.787084	-0.079981	NaN	0.000000	0.001673	0.001603	28.0784	0.042244	0.002049	20.6165	102.67	-164.867	-0.059311	0.784907	-0.227815	-0.229112	-0.079981	20.6165	-0.224905	-332.53	0.000241	NaN
232	1.000000	0.794195	7.36732e+06	-50239.1	955.817	-29756.8	0.000000	0.000000	6.795079	0.011146	NaN	0.000000	0.001654	0.001587	28.0784	0.058687	0.001972	29.765	176.693	-166.88	-0.052138	0.792908	-0.219824	-0.221111	0.011146	29.765	-0.220105	-278.837	-3.997492E-5	NaN
232	1.000000	0.802200	7.36732e+06	-50239.1	955.818	-29756.8	0.000000	0.000000	6.803083	-0.010038	NaN	0.000000	0.001660	0.001581	28.0784	0.036249	0.002073	17.4859	-42.5289	-164.335	0.050911	0.800875	-0.211819	-0.213144	-0.010038	17.4859	-0.211388	-201.967	4.970088E-5	NaN
232	1.000000	0.810198	7.36732e+06	-50239.1	955.819	-29756.8	0.000000	0.000000	6.811079	-0.053258	NaN	0.000000	0.001668	0.001570	28.0783	0.073069	0.002020	36.1657	-150.806	-164.237	0.109148	0.808909	-0.203821	-0.205110	-0.053258	36.1657	-0.202716	-145.965	0.000365	NaN
232	1.000000	0.818176	7.36732e+06	-50239.1	955.819	-29756.8	0.000000	0.000000	6.819061	0.027301	NaN	0.000000	0.001646	0.001553	28.0782	0.060360	0.001991	30.311	-42.0199	-165.496	0.005289	0.816903	-0.195843	-0.197116	0.027301	30.311	-0.196518	-115.43	-0.000237	NaN
232	1.000000	0.826214	7.36732e+06	-50239.1	955.818	-29756.8	0.000000	0.000000	6.827098	0.020737	NaN	0.000000	0.001663	0.001585	28.0785	0.045800	0.002061	22.2196	75.8691	-168.669	-0.029346	0.824924	-0.187805	-0.189095	0.020737	22.2196	-0.188505	-84.9222	-0.000244	NaN
232	1.000000	0.834198	7.36732e+06	-50239.1	955.818	-29756.8	0.000000	0.000000	6.835079	-0.049942	NaN	0.000000	0.001658	0.001603	28.0772	0.154327	0.002157	71.5463	-38.2394	-166.19	0.012678	0.832848	-0.179821	-0.181171	-0.049942	71.5463	-0.179298	-59.3624	0.000841	NaN
232	1.000000	0.842215	7.36732e+06	-50239.1	955.819	-29756.8	0.000000	0.000000	6.843099	0.022520	NaN	0.000000	0.001699	0.001618	28.0772	0.055843	0.001984	28.1445	-74.1607	-166.455	0.067595	0.840912	-0.171804	-0.173107	0.022520	28.1445	-0.172404	-45.2121	-0.000498	NaN
232	1.000000	0.850185	7.36732e+06	-50239.1	955.818	-29756.8	0.000000	0.000000	6.851068	-0.013577	NaN	0.000000	0.001686	0.001573	28.0773	0.075938	0.002036	37.2963	-9.358877	-166.045	0.005417	0.848903	-0.163834	-0.165116	-0.013577	37.2963	-0.163561	-31.6953	0.000428	NaN
232	1.000000	0.858174	7.36732e+06	-50239.1	955.818	-29756.8	0.000000	0.000000	6.859059	0.032091	NaN	0.000000	0.001661	0.001603	28.0771	0.084924	0.001952	43.513	103.128	-165.023	0.025156	0.856886	-0.155845	-0.157133	0.032091	43.513	-0.156398	-23.6425	-0.001357	NaN
232	1.000000	0.866225	7.36732e+06	-50239.1	955.818	-29756.8	0.000000	0.000000	6.867111	0.063415	NaN	0.000000	0.001646	0.001567	28.0773	0.061811	0.002055	30.0756	12.4404	-166.033	0.103804	0.864877	-0.147794	-0.149142	0.063415	30.0756	-0.149375	-17.6441	-0.003594	NaN
232	1.000000	0.874212	7.36732e+06	-50239.1	955.819	-29756.8	0.000000	0.000000	6.875093	-0.044111	NaN	0.000000	0.001637	0.001577	28.0773	0.058580	0.002116	27.6801	176.143	-165.277	-0.063853	0.872932	-0.139807	-0.141087	-0.044111	27.6801	-0.138612	-11.1388	0.003960	NaN
232	1.000000	0.882245	7.36732e+06	-50239.1	955.819	-29756.8	0.000000	0.000000	6.883130	0.033070	NaN	0.000000	0.001628	0.001574	28.0775	0.112643	0.001892	59.5343	25.9648	-165.951	0.015536	0.880922	-0.131774	-0.133097	0.033070	59.5343	-0.132191	-8.402374	-0.003936	NaN
232	1.000000	0.890196	7.36732e+06	-50239.1	955.819	-29756.8	0.000000	0.000000	6.891077	-0.064718	NaN	0.000000	0.001639	0.001573	28.0775	0.020793	0.001963	10.5904	-132.448	-165.961	-0.011038	0.888879	-0.123823	-0.125140	-0.064718	10.5904	-0.119240	-4.663541	0.013877	NaN
232	1.000000	0.898232	7.36732e+06	-50239.1	955.819	-29756.8	0.000000	0.000000	6.899114	-0.027134	NaN	0.000000	0.001654	0.001587	28.0773	0.062550	0.002005	31.1948	-150.014	-168.656	-0.029719	0.896893	-0.115787	-0.117126	-0.027134	31.1948	-0.115135	-3.844902	0.007057	NaN
232	1.000000	0.906222	7.36732e+06	-50239.1	955.818	-29756.8	0.000000	0.000000	6.907106	0.009512	NaN	0.000000	0.001674	0.001556	28.0773	0.047187	0.001929	24.4579	149.206	-165.587	-0.020172	0.904896	-0.107797	-0.109123	0.009512	24.4579	-0.108089	-2.737698	-0.003475	NaN
232	1.000000	0.914260	7.36732e+06	-50239.1	955.818	-29756.8	0.000000	0.000000	6.915142	-0.015964	NaN	0.000000	0.001647	0.001595	28.0771	0.024157	0.002000	12.078	-14.8537	-165.799	0.019417	0.912900	-0.099759	-0.101119	-0.015964	12.078	-0.098768	-1.715432	0.009306	NaN
232	1.000000	0.922217	7.36732e+06	-50239.1	955.818	-29756.8	0.000000	0.000000	6.923100	-0.006195	NaN	0.000000	0.001647	0.001564	28.0771	0.046767	0.002020	23.1483	45.9757	-165.731	-0.062100	0.920927	-0.091802	-0.093092	-0.006195	23.1483	-0.091602	-1.178192	0.005258	NaN
232	1.000000	0.930253	7.36732e+06	-50239.1	955.818	-29756.8	0.000000	0.000000	6.931136	-0.004823	NaN	0.000000	0.001648	0.001581	28.0772	0.027659	0.001992	13.8827	-92.0267	-162.131	0.010946	0.928914	-0.083766	-0.085105	-0.004823	13.8827	-0.083506	-0.755681	0.006382	NaN
232	1.000000	0.938210	7.36732e+06	-50239.1	955.818	-29756.8	0.000000	0.000000	6.939092	-0.031682	NaN	0.000000	0.001632	0.001572	28.0772	0.090989	0.002077	43.8016	-65.6021	-164.034	-0.068827	0.936951	-0.075809	-0.077068	-0.031682	43.8016	-0.075267	-0.469261	0.067515	NaN
232	1.000000	0.946251	7.36732e+06	-50239.1	955.818	-29756.8	0.000000	0.000000	6.947133	-0.048269	NaN	0.000000	0.001677	0.001602	28.0774	0.067327	0.001889	35.6491	-24.9575	-163.229	-0.054926	0.944910	-0.067768	-0.069109	-0.048269	35.6491	-0.066752	-0.278542	0.173292	NaN
232	1.000000	0.954229	7.36732e+06	-50239.1	955.818	-29756.8	0.000000	0.000000	6.955110	-0.078431	NaN	0.000000	0.001681	0.001591	28.0771	0.067143	0.001911	35.1263	-148.115	-162.599	0.007504	0.952919	-0.059790	-0.061100	-0.078431	35.1263	-0.058115	-0.158893	0.493610	NaN
232	1.000000	0.962248	7.36732e+06	-50239.1	955.818	-29756.8	0.000000	0.000000	6.963130	-0.041692	NaN	0.000000	0.001648	0.001598	28.0771	0.071308	0.002019	35.3131	-33.69	-165.96	0.030899	0.960944	-0.051771	-0.053075	-0.041692	35.3131	-0.050886	-0.097045	0.429614	NaN
232	1.000000	0.970242	7.36732e+06	-50239.1	955.819	-29756.8	0.000000	0.000000	6.971124	-0.032570	NaN	0.000000	0.001667	0.001583	28.0784	0.075609	0.001875	40.3265	-177.296	-168.511	-0.059027	0.968973	-0.043777	-0.045046	-0.032570	40.3265	-0.043172	-0.056503	0.576421	NaN
232	1.000000	0.978227	7.36732e+06	-50239.1	955.819	-29756.8	0.000000	0.000000	6.979114	0.077240	NaN	0.000000	0.001703	0.001614	28.0786	0.033637	0.002130	15.7914	-67.0329	-167.945	0.039153	0.976970	-0.035792	-0.037049	0.077240	15.7914	-0.039460	-0.043548	-1.773687	NaN
232	1.000000	0.986234	7.36732e+06	-50239.1	955.819	-29756.8	0.000000	0.000000	6.987116	-0.022746	NaN	0.000000	0.001644	0.001590	28.079	0.055680	0.002145	25.9606	-163.948	-167.042	0.026083	0.984965	-0.027785	-0.029054	-0.022746	25.9606	-0.027128	-0.019206	1.184297	NaN
232	1.000000	0.994285	7.36732e+06	-50239.1	955.818	-29756.8	0.000000	0.000000	6.995168	-0.019131	NaN	0.000000	0.001639	0.001595	28.0783	0.136686	0.002012	67.9284	7.919309	-165.867	0.021390	0.992993	-0.019734	-0.021026	-0.019131	67.9284	-0.019523	-0.012214	1.566289	NaN
232	1.000000	1.002257	7.36732e+06	-50239.1	955.819	-29756.8	0.000000	0.000000	7.003141	0.012202	NaN	0.000000	0.001669	0.001615	28.0784	0.067633	0.001793	37.7191	117.552	-166.697	0.054221	1.000994	-0.011762	-0.013025	0.012202	37.7191	-0.012004	-0.007531	-1.620271	NaN
232	1.000000	1.010302	7.36732e+06	-50239.1	955.819	-29756.8	0.000000	0.000000	7.011186	0.010424	NaN	0.000000	0.001667	0.001594	28.0784	0.057527	0.001908	30.1474	-145.519	-164.104	-0.022630	1.008978	-0.003717	-0.005041	0.010424	30.1474	-0.003976	-0.002763	-3.772324	NaN
232	1.000000	1.018304	7.36732e+06	-50239.1	955.818	-29756.8	0.000000	0.000000	7.019225	0.918342	NaN	0.000000	0.001658	0.001577	28.0786	1.415849	0.001968	719.322	8.861339	-167.202	0.278227	1.016978	0.004285	0.002959	0.918342	719.322	0.003328	0.002658	345.558	12748.4
232	1.000000	1.026190	7.36732e+06	-50239.1	955.819	-29756.8	0.000000	0.000000	7.027374	7.320286	NaN	0.000000	0.001675	0.001588	28.0789	7.695858	0.001745	4411.25	16.2359	-175.258	6.830055	1.024984	0.012171	0.010965	7.320286	4411.25	0.010926	0.010229	715.635	39848.9
232	2.000000	1.028858	7.36732e+06	-50239.1	955.819	-29756.8	0.000000	0.000000	7.030214	11.5033	NaN	0.000000	0.001732	0.001630	28.0785	10.1076	0.001613	6265.04	2.881167	-169.473	10.8333	1.028513	0.014839	0.014494	11.5033	6265.04	0.013461	0.013288	865.679	49655.2
232	2.000000	1.030895	7.36732e+06	-50239.1	955.818	-29756.8	0.000000	0.000000	7.032313	12.9899	NaN	0.000000	0.001721	0.001571	28.0786	13.4536	0.001743	7720.12	8.682742	-175.492	13.543	1.030539	0.016876	0.016520	12.9899	7720.12	0.015614	0.016113	806.158	55565.3
232	2.000000	1.032811	7.36732e+06	-50239.1	955.818	-29756.8	0.000000	0.000000	7.034357	16.1282	NaN	0.000000	0.001726	0.001592	28.0785	14.4879	0.001665	8699.86	6.214637	-173.53	16.7573	1.032540	0.018792	0.018521	16.1282	8699.86	0.017401	0.018622	866.088	58247.1
232	2.000000	1.034807	7.36732e+06	-50239.1	955.819	-29756.8	0.000000	0.000000	7.036590	21.875	NaN	0.000000	0.001731	0.001569	28.0786	17.6924	0.001818	9734.02	6.989250	-175.54	21.0038	1.034454	0.020788	0.020435	21.875	9734.02	0.019103	0.021152	1034.2	61149.6
232	2.000000	1.036792	7.36732e+06	-50239.1	955.819	-29756.8	0.000000	0.000000	7.038740	25.9033	NaN	0.000000	0.001729	0.001638	28.0786	19.6061	0.001887	10391.9	4.115916	-173.127	24.6749	1.036455	0.022773	0.022436	25.9033	10391.9	0.020903	0.023981	1080.14	61309.7
232	2.000000	1.038791	7.36732e+06	-50239.1	955.819	-29756.8	0.000000	0.000000	7.040837	28.2758	NaN	0.000000	0.001680	0.001597	28.0786	21.4694	0.001844	11641.7	6.565847	-178.046	27.1563	1.038533	0.024772	0.024514	28.2758	11641.7	0.022950	0.027392	1032.26	64265.2
232	2.000000	1.040776	7.36732e+06	-50239.1	955.819	-29756.8	0.000000	0.000000	7.043067	34.2111	NaN	0.000000	0.001685	0.001615	28.0786	23.4325	0.001733	13523.2	4.295954	-176.913	33.1027	1.040465	0.026757	0.026446	34.2111	13523.2	0.024860	0.030761	1112.15	70445
232	2.000000	1.042805	7.36732e+06	-50239.1	955.819	-29756.8	0.000000	0.000000	7.045256	38.1111	NaN	0.000000	0.001663	0.001616	28.0786	24.5765	0.001814	13547.1	7.814510	-178.398	39.1972	1.042458	0.028786	0.028439	38.1111	13547.1	0.026677	0.034136	1116.43	66990.1
232	2.000000	1.044735	7.36732e+06	-50239.1	955.819	-29756.8	0.000000	0.000000	7.047349	42.1073	NaN	0.000000	0.001597	0.001600	28.0786	27.3795	0.001832	14942.2	3.964636	-178.392	39.2715	1.044421	0.030716	0.030402	42.1073	14942.2	0.028602	0.037896	1111.13	70128
232	2.000000	1.046811	7.36732e+06	-50239.1	955.818	-29756.8	0.000000	0.000000	7.049662	47.849	NaN	0.000000	0.001616	0.001606	28.0774	29.5815	0.001737	17030.9	11.0167	175.816	48.3023	1.046328	0.032792	0.032309	47.849	17030.9	0.030685	0.042175	1134.54	75767.9
232	2.000000	1.048722	7.36732e+06	-50239.1	955.819	-29756.8	0.000000	0.000000	7.051723	51.5029	NaN	0.000000	0.001591	0.001634	28.0775	30.983	0.001829	16936.2	5.653131	179.587	49.9766	1.048463	0.034703	0.034444	51.5029	16936.2	0.032422	0.045913	1121.75	72213.8
232	2.000000	1.050747	7.36732e+06	-50239.1	955.818	-29756.8	0.000000	0.000000	7.054041	58.6266	NaN	0.000000	0.001580	0.001585	28.0774	33.5979	0.001769	18988.9	6.454570	177.86	56.8749	1.050363	0.036728	0.036343	58.6266	18988.9	0.034412	0.050386	1163.55	77289.3
232	2.000000	1.052716	7.36732e+06	-50239.1	955.819	-29756.8	0.000000	0.000000	7.056141	61.7989	NaN	0.000000	0.001592	0.001567	28.0777	34.609	0.001692	20450.9	6.503482	176.829	60.3684	1.052420	0.038697	0.038401	61.7989	20450.9	0.036431	0.055130	1120.97	79577.6
232	2.000000	1.054699	7.36732e+06	-50239.1	955.82	-29756.8	0.000000	0.000000	7.058331	66.8246	NaN	0.000000	0.001627	0.001589	28.0773	38.0998	0.001835	20761.5	8.681414	174.535	64.3616	1.054414	0.040680	0.040395	66.8246	20761.5	0.038266	0.059625	1120.75	77681.6
232	2.000000	1.056763	7.36732e+06	-50239.1	955.819	-29756.8	0.000000	0.000000	7.060592	71.6213	NaN	0.000000	0.001598	0.001555	28.0773	39.048	0.001793	21778.1	6.618394	176.72	72.4132	1.056457	0.042744	0.042438	71.6213	21778.1	0.040277	0.064747	1106.16	78195.6
232	2.000000	1.058725	7.36732e+06	-50239.1	955.819	-29756.8	0.000000	0.000000	7.062831	78.3716	NaN	0.000000	0.001649	0.001592	28.0776	41.1252	0.001834	22422.7	6.986942	175.898	78.1786	1.058485	0.044706	0.044466	78.3716	22422.7	0.042085	0.069527	1127.21	77693.5
232	2.000000	1.060808	7.36732e+06	-50239.1	955.819	-29756.8	0.000000	0.000000	7.065197	85.2419	NaN	0.000000	0.001642	0.001630	28.0774	42.3668	0.001767	23974.5	4.484626	177.745	85.9846	1.060500	0.046789	0.046481	85.2419	23974.5	0.044122	0.075115	1134.82	79920.8
232	2.000000	1.062688	7.36732e+06	-50239.1	955.82	-29756.8	0.000000	0.000000	7.067417	93.5086	NaN	0.000000	0.001638	0.001667	28.0774	43.3444	0.001614	26861.6	1.425393	179.142	91.4004	1.062476	0.048669	0.048457	93.5086	26861.6	0.046059	0.080621	1159.86	86433.3
232	2.000000	1.064780	7.36732e+06	-50239.1	955.819	-29756.8	0.000000	0.000000	7.069872	102.35	NaN	0.000000	0.001631	0.001629	28.0776	46.3756	0.001726	26873.2	4.960624	176.486	104.737	1.064476	0.050761	0.050457	102.35	26873.2	0.047904	0.086046	1189.48	83700.3
232	2.000000	1.066860	7.36732e+06	-50239.1	955.819	-29756.8	0.000000	0.000000	7.072212	108.672	NaN	0.000000	0.001663	0.001609	28.0773	49.2278	0.001770	27805.1	8.298137	173.806	113.825	1.066490	0.052841	0.052471	108.672	27805.1	0.049910	0.092134	1179.5	83692.9
232	2.000000	1.068727	7.36732e+06	-50239.1	955.82	-29756.8	0.000000	0.000000	7.074542	119.923	NaN	0.000000	0.001663	0.001635	28.078	50.3479	0.001711	29422	8.173392	172.838	120.563	1.068420	0.054708	0.054401	119.923	29422	0.051651	0.097586	1228.9	86050.3
232	2.000000	1.070818	7.36732e+06	-50239.1	955.819	-29756.8	0.000000	0.000000	7.076717	121.982	NaN	0.000000	0.001635	0.001646	28.0775	53.6599	0.001847	29047	11.8894	169.921	125.319	1.070387	0.056799	0.056368	121.982	29047	0.053649	0.104025	1172.62	82282.2
232	2.000000	1.072728	7.36732e+06	-50239.1	955.819	-29756.8	0.000000	0.000000	7.079011	131.312	NaN	0.000000	0.001608	0.001577	28.0773	53.8476	0.001703	31619.9	7.335431	172.229	133.127	1.072463	0.058709	0.058444	131.312	31619.9	0.055595	0.110487	1188.48	86911.6
232	2.000000	1.074665	7.36732e+06	-50239.1	955.82	-29756.8	0.000000	0.000000	7.081269	139.116	NaN	0.000000	0.001602	0.001607	28.0774	57.1155	0.001860	30703.5	5.587948	175.089	136.573	1.074396	0.060646	0.060377	139.116	30703.5	0.057247	0.116123	1198	82319.3
232	2.000000	1.076757	7.36732e+06	-50239.1	955.82	-29756.8	0.000000	0.000000	7.083872	151.549	NaN	0.000000	0.001598	0.001581	28.0772	59.2403	0.001856	31925.4	7.674185	172.686	151.993	1.076384	0.062738	0.062365	151.549	31925.4	0.059178	0.122876	1233.35	83210.1
232	2.000000	1.078655	7.36732e+06	-50239.1	955.819	-29756.8	0.000000	0.000000	7.086133	160.372	NaN	0.000000	0.001635	0.001607	28.0776	60.0178	0.001827	32842	4.508690	175.281	157.136	1.078416	0.064636	0.064397	160.372	32842	0.060973	0.129322	1240.1	83438.5
232	2.000000	1.080699	7.36732e+06	-50239.1	955.819	-29756.8	0.000000	0.000000	7.088547	169.346	NaN	0.000000	0.001617	0.001633	28.0783	63.5534	0.001805	35208.2	5.393938	173.611	168.111	1.080474	0.066680	0.066455	169.346	35208.2	0.063073	0.137058	1235.58	86889.1
232	2.000000	1.082655	7.36732e+06	-50239.1	955.819	-29756.8	0.000000	0.000000	7.091094	183.745	NaN	0.000000	0.001632	0.001630	28.0786	63.3623	0.001695	37379.6	5.579976	172.613	180.13	1.082334	0.068636	0.068315	183.745	37379.6	0.064949	0.144150	1274.68	89949.8
232	2.000000	1.084667	7.36732e+06	-50239.1	955.818	-29756.8	0.000000	0.000000	7.093510	193.567	NaN	0.000000	0.001610	0.001580	28.0787	66.7636	0.001843	36223	5.097091	173.489	190.817	1.084290	0.070648	0.070271	193.567	36223	0.066640	0.150688	1284.56	85254.6
232	2.000000	1.086812	7.36732e+06	-50239.1	955.82	-29756.8	0.000000	0.000000	7.095956	200.869	NaN	0.000000	0.001643	0.001609	28.0786	68.5938	0.001885	36382.2	4.134708	175.009	204.219	1.086494	0.072793	0.072475	200.869	36382.2	0.068653	0.158650	1266.11	83452.9
232	2.000000	1.088599	7.36732e+06	-50239.1	955.819	-29756.8	0.000000	0.000000	7.098153	210.843	NaN	0.000000	0.001613	0.001605	28.0794	69.6765	0.001884	36989.5	1.284635	177.319	204.542	1.088335	0.074580	0.074316	210.843	36989.5	0.070305	0.165332	1275.27	83113.7
232	2.000000	1.090668	7.36732e+06	-50239.1	955.819	-29756.8	0.000000	0.000000	7.100669	221.729	NaN	0.000000	0.001655	0.001585	28.0786	72.5682	0.001874	38733	5.098355	173.1	220.055	1.090331	0.076649	0.076312	221.729	38733	0.072356	0.173802	1275.75	84884.1
232	2.000000	1.092730	7.36732e+06	-50239.1	955.819	-29756.8	0.000000	0.000000	7.103142	231.736	NaN	0.000000	0.001645	0.001630	28.0788	73.665	0.001763	41778	6.425971	171.223	232.746	1.092393	0.078711	0.078374	231.736	41778	0.074551	0.183091	1265.69	89204.8
232	2.000000	1.094637	7.36732e+06	-50239.1	955.819	-29756.8	0.000000	0.000000	7.105505	242.807	NaN	0.000000	0.001626	0.001601	28.0787	75.8941	0.001847	41092.6	6.215227	171.501	238.702	1.094295	0.080618	0.080276	242.807	41092.6	0.076187	0.190161	1276.85	86094.5
232	2.000000	1.096670	7.36732e+06	-50239.1	955.819	-29756.8	0.000000	0.000000	7.107807	249.36	NaN	0.000000	0.001671	0.001600	28.0782	76.7974	0.001817	42256.7	5.462872	172.751	246.468	1.096334	0.082651	0.082315	249.36	42256.7	0.078225	0.199146	1252.14	86513.4
232	2.000000	1.098675	7.36732e+06	-50239.1	955.82	-29756.8	0.000000	0.000000	7.110439	264.608	NaN	0.000000	0.001657	0.001621	28.0783	77.4534	0.001733	44680.6	2.674209	174.557	261.073	1.098395	0.084656	0.084376	264.608	44680.6	0.080214	0.208103	1271.52	89485.5
232	2.000000	1.100669	7.36732e+06	-50239.1	955.82	-29756.8	0.000000	0.000000	7.112870	275.231	NaN	0.000000	0.001627	0.001654	28.0785	81.4169	0.001905	42728.2	6.046022	172.256	273.331	1.100419	0.086650	0.086400	275.231	42728.2	0.081819	0.215459	1277.42	84101.8
232	2.000000	1.102676	7.36732e+06	-50239.1	955.819	-29756.8	0.000000	0.000000	7.115561	291.864	NaN	0.000000	0.001655	0.001617	28.0788	82.2135	0.001749	46996.4	7.961991	168.801	289.963	1.102369	0.088657	0.088350	291.864	46996.4	0.083999	0.225649	1293.44	90390.1
232	2.000000	1.104747	7.36732e+06	-50239.1	955.82	-29756.8	0.000000	0.000000	7.117645	292.181	NaN	0.000000	0.001656	0.001589	28.0789	84.2101	0.001848	45569.5	5.688502	171.674	296.01	1.104443	0.090728	0.090424	292.181	45569.5	0.085919	0.234807	1244.35	85919.5
232	2.000000	1.106726	7.36732e+06	-50239.1	955.819	-29756.8	0.000000	0.000000	7.120453	312.355	NaN	0.000000	0.001640	0.001604	28.0786	85.813	0.001825	47033.6	2.921321	174.142	313.042	1.106350	0.092707	0.092331	312.355	47033.6	0.087726	0.243576	1282.37	87069
232	2.000000	1.108683	7.36732e+06	-50239.1	955.819	-29756.8	0.000000	0.000000	7.123064	328.227	NaN	0.000000	0.001661	0.001592	28.0787	87.3431	0.001806	48371.1	4.748386	172.265	328.422	1.108294	0.094664	0.094275	328.227	48371.1	0.089575	0.252709	1298.83	87912.1
232	2.000000	1.110643	7.36732e+06	-50239.1	955.818	-29756.8	0.000000	0.000000	7.125734	345.506	NaN	0.000000	0.001655	0.001592	28.0785	89.7337	0.001671	53701.4	5.527766	170.869	343.353	1.110329	0.096624	0.096310	345.506	53701.4	0.091798	0.263895	1309.25	95508.8
232	2.000000	1.112681	7.36732e+06	-50239.1	955.819	-29756.8	0.000000	0.000000	7.128114	353.826	NaN	0.000000	0.001627	0.001619	28.0787	90.3834	0.001699	53187.4	5.569453	170.383	353.212	1.112333	0.098662	0.098314	353.826	53187.4	0.093673	0.273504	1293.68	92918.1
232	2.000000	1.114607	7.36732e+06	-50239.1	955.819	-29756.8	0.000000	0.000000	7.130859	373.757	NaN	0.000000	0.001675	0.001579	28.0782	93.5232	0.001800	51959.9	3.889303	172.192	369.321	1.114256	0.100588	0.100237	373.757	51959.9	0.095193	0.281412	1328.15	89489.1
232	2.000000	1.116680	7.36732e+06	-50239.1	955.818	-29756.8	0.000000	0.000000	7.133319	383.161	NaN	0.000000	0.001673	0.001595	28.0772	95.6234	0.001757	54413.3	4.293789	171.695	378.845	1.116286	0.102661	0.102267	383.161	54413.3	0.097380	0.292977	1307.82	91846.2
232	2.000000	1.118759	7.36732e+06	-50239.1	955.819	-29756.8	0.000000	0.000000	7.135743	391.527	NaN	0.000000	0.001672	0.001586	28.0774	97.803	0.001831	53417.4	6.008152	170.103	397.615	1.118480	0.104740	0.104461	391.527	53417.4	0.099243	0.303003	1292.16	88661.1
232	2.000000	1.120561	7.36732e+06	-50239.1	955.819	-29756.8	0.000000	0.000000	7.138353	411.203	NaN	0.000000	0.001639	0.001555	28.0773	97.4249	0.001771	55011.5	1.011604	175.365	405.73	1.120333	0.106542	0.106314	411.203	55011.5	0.100936	0.312244	1316.93	89945.5
232	2.000000	1.122693	7.36732e+06	-50239.1	955.818	-29756.8	0.000000	0.000000	7.141096	426.042	NaN	0.000000	0.001630	0.001616	28.0777	99.8818	0.001766	56559.3	7.814518	167.804	427.641	1.122315	0.108674	0.108296	426.042	56559.3	0.103025	0.323833	1315.62	90806.5
232	2.000000	1.124610	7.36732e+06	-50239.1	955.819	-29756.8	0.000000	0.000000	7.143668	441.967	NaN	0.000000	0.001669	0.001600	28.0776	102.586	0.001778	57688.3	2.776063	172.684	438.797	1.124303	0.110591	0.110284	441.967	57688.3	0.104845	0.334092	1322.89	91186
232	2.000000	1.125592	7.36732e+06	-50239.1	955.819	-29756.8	0.000000	0.000000	7.145203	455.418	NaN	0.000000	0.001682	0.001614	28.0773	102.29	0.001837	55678.2	1.210874	175.125	452.508	1.125282	0.111573	0.111263	455.418	55678.2	0.105439	0.337469	1349.51	87567.1