File: remote_trans/data/nanoindenter/0828-1/data/Data_2025-08-06,11h17m57s/2025-07-22_16-23-58_1_27.txt
2025-07-22, 16:23:58, 1
Index	Phase	Displacement	Time	Pos X	Pos Y	Pos Z	Rot A	Rot B	Piezo Z	Force A	Force B	Gripper	Voltage A	Voltage B	Temperature	Amplitude force	Amplitude pos	Stiffness	Phase shift	Phase excitation	Force A raw	Displacement raw	HMax	HMax raw	Real Force	Real Stiffness	Contact Depth	Area	Hardness	Reduced Mod.
[#]	[#]	[um]	[s]	[um]	[um]	[um]	[m°]	[m°]	[um]	[uN]	[uN]	[V]	[V]	[V]	[°C]	[uN]	[um]	[N/m]	[°]	[°]	[uN]	[um]	[um]	[um]	[uN]	[N/m]	[um]	[um^2]	[MPa]	[MPa]
27	1.000000	0.002870	7.3653e+06	-39989.1	955.82	-29792.3	0.000000	0.000000	6.002806	0.002777	NaN	0.000000	0.001678	0.001611	28.0817	0.133967	0.001076	124.485	-148.129	-172.081	-0.071411	0.001613	-1.069397	-1.070655	0.002777	124.485	-1.069414	-1.946775E+14	-1.426522E-17	NaN
27	1.000000	0.012919	7.3653e+06	-39989.1	955.819	-29792.3	0.000000	0.000000	6.012854	-0.030190	NaN	0.000000	0.001671	0.001628	28.0941	0.131188	0.001306	100.457	-110.958	19.0962	-0.072021	0.011499	-1.059348	-1.060768	-0.030190	100.457	-1.059123	-1.415895E+14	2.132219E-16	NaN
27	1.000000	0.022812	7.3653e+06	-39989.1	955.818	-29792.3	0.000000	0.000000	6.022748	0.020678	NaN	0.000000	0.001648	0.001604	28.1312	0.075092	0.001675	44.8291	-122.977	-166.121	0.035663	0.021535	-1.049456	-1.050733	0.020678	44.8291	-1.049801	-1.061073E+14	-1.948786E-16	NaN
27	1.000000	0.032805	7.3653e+06	-39989.1	955.818	-29792.3	0.000000	0.000000	6.032740	-0.014008	NaN	0.000000	0.001641	0.001616	28.1029	0.035903	0.001950	18.4139	-11.5634	12.5658	-0.043958	0.031462	-1.039463	-1.040805	-0.014008	18.4139	-1.038892	-7.569570E+13	1.850504E-16	NaN
27	1.000000	0.042815	7.3653e+06	-39989.1	955.818	-29792.3	0.000000	0.000000	6.042749	-0.033728	NaN	0.000000	0.001653	0.001625	28.0799	0.097735	0.001972	49.573	-160.999	-167.343	0.050601	0.041592	-1.029452	-1.030676	-0.033728	49.573	-1.028942	-5.562227E+13	6.063726E-16	NaN
27	1.000000	0.052827	7.3653e+06	-39989.1	955.819	-29792.3	0.000000	0.000000	6.052764	0.055772	NaN	0.000000	0.001633	0.001626	28.0933	0.039192	0.002127	18.4238	0.524859	14.4394	0.076351	0.051455	-1.019441	-1.020812	0.055772	18.4238	-1.021711	-4.446063E+13	-1.254410E-15	NaN
27	1.000000	0.062802	7.3653e+06	-39989.1	955.818	-29792.3	0.000000	0.000000	6.062737	-0.012190	NaN	0.000000	0.001667	0.001613	28.1326	0.073037	0.002041	35.7894	-166.505	-166.204	-0.023362	0.061532	-1.009465	-1.010736	-0.012190	35.7894	-1.009209	-3.018162E+13	4.038832E-16	NaN
27	1.000000	0.072807	7.3653e+06	-39989.1	955.819	-29792.3	0.000000	0.000000	6.072744	0.037822	NaN	0.000000	0.001648	0.001590	28.104	0.104496	0.002002	52.19	-76.5342	13.3865	-0.012056	0.071488	-0.999460	-1.000780	0.037822	52.19	-1.000004	-2.268909E+13	-1.666952E-15	NaN
27	1.000000	0.082839	7.3653e+06	-39989.1	955.818	-29792.3	0.000000	0.000000	6.082774	-0.019868	NaN	0.000000	0.001633	0.001640	28.0789	0.055422	0.001936	28.6307	-137.292	-166.15	-0.014224	0.081547	-0.989428	-0.990720	-0.019868	28.6307	-0.988908	-1.608437E+13	1.235217E-15	NaN
27	1.000000	0.092820	7.3653e+06	-39989.1	955.819	-29792.3	0.000000	0.000000	6.092757	0.058260	NaN	0.000000	0.001630	0.001606	28.0905	0.073813	0.001921	38.4285	79.0305	10.0943	0.078446	0.091447	-0.979448	-0.980820	0.058260	38.4285	-0.980585	-1.242484E+13	-4.689035E-15	NaN
27	1.000000	0.102846	7.3653e+06	-39989.1	955.819	-29792.3	0.000000	0.000000	6.102783	0.030793	NaN	0.000000	0.001673	0.001655	28.1296	0.031409	0.002029	15.4819	-143.905	-166.567	-0.046867	0.101531	-0.969421	-0.970737	0.030793	15.4819	-0.970913	-9.203855E+12	-3.345664E-15	NaN
27	1.000000	0.112848	7.3653e+06	-39989.1	955.818	-29792.3	0.000000	0.000000	6.112784	0.008676	NaN	0.000000	0.001665	0.001609	28.1024	0.082386	0.002027	40.6442	55.2231	14.9591	-0.006970	0.111505	-0.959420	-0.960763	0.008676	40.6442	-0.959580	-6.474433E+12	-1.340036E-15	NaN
27	1.000000	0.122834	7.3653e+06	-39989.1	955.818	-29792.3	0.000000	0.000000	6.122770	-0.006127	NaN	0.000000	0.001638	0.001626	28.079	0.115983	0.002005	57.8393	-6.505138	-167.603	-0.048903	0.121520	-0.949433	-0.950747	-0.006127	57.8393	-0.949353	-4.713115E+12	1.300007E-15	NaN
27	1.000000	0.132855	7.3653e+06	-39989.1	955.819	-29792.3	0.000000	0.000000	6.132793	0.057302	NaN	0.000000	0.001695	0.001613	28.0923	0.025744	0.002026	12.7098	-113.37	13.1731	0.035725	0.131467	-0.939413	-0.940800	0.057302	12.7098	-0.942794	-3.844403E+12	-1.490524E-14	NaN
27	1.000000	0.142842	7.3653e+06	-39989.1	955.818	-29792.3	0.000000	0.000000	6.142778	0.007090	NaN	0.000000	0.001661	0.001603	28.1311	0.062191	0.002045	30.4092	-129.481	-165.662	0.021410	0.141524	-0.929426	-0.930744	0.007090	30.4092	-0.929600	-2.551557E+12	-2.778713E-15	NaN
27	1.000000	0.152872	7.3653e+06	-39989.1	955.819	-29792.3	0.000000	0.000000	6.152807	-0.000412	NaN	0.000000	0.001645	0.001622	28.1038	0.038335	0.002092	18.3254	-175.032	15.8071	0.021014	0.151500	-0.919395	-0.920768	-0.000412	18.3254	-0.919379	-1.857019E+12	2.216388E-16	NaN
27	1.000000	0.162867	7.3653e+06	-39989.1	955.818	-29792.3	0.000000	0.000000	6.162806	0.063989	NaN	0.000000	0.001639	0.001601	28.0808	0.095746	0.001984	48.2657	160.847	-164.949	0.005391	0.161564	-0.909400	-0.910704	0.063989	48.2657	-0.910394	-1.404392E+12	-4.556371E-14	NaN
27	1.000000	0.172868	7.3653e+06	-39989.1	955.818	-29792.3	0.000000	0.000000	6.172803	-0.013535	NaN	0.000000	0.001601	0.001605	28.0916	0.063629	0.001871	34.0096	88.6304	10.7946	0.006873	0.171528	-0.899400	-0.900740	-0.013535	34.0096	-0.899101	-9.883721E+11	1.369444E-14	NaN
27	1.000000	0.182838	7.3653e+06	-39989.1	955.818	-29792.3	0.000000	0.000000	6.182772	-0.056736	NaN	0.000000	0.001607	0.001590	28.1296	0.004814	0.001999	2.408442	-137.149	-167.121	0.025416	0.181535	-0.889429	-0.890732	-0.056736	2.408442	-0.871761	-4.219578E+11	1.344594E-13	NaN
27	1.000000	0.192874	7.3653e+06	-39989.1	955.818	-29792.3	0.000000	0.000000	6.192811	0.041905	NaN	0.000000	0.001637	0.001580	28.1024	0.071796	0.001890	37.9939	-147.47	14.9659	-0.020404	0.191534	-0.879394	-0.880733	0.041905	37.9939	-0.880221	-5.491539E+11	-7.630880E-14	NaN
27	1.000000	0.202888	7.3653e+06	-39989.1	955.819	-29792.3	0.000000	0.000000	6.202824	0.000504	NaN	0.000000	0.001644	0.001574	28.0796	0.030483	0.002114	14.4183	-139.029	-166.66	-0.021056	0.201583	-0.869379	-0.870684	0.000504	14.4183	-0.869406	-3.921040E+11	-1.285559E-15	NaN
27	1.000000	0.212893	7.3653e+06	-39989.1	955.818	-29792.3	0.000000	0.000000	6.212827	-0.018800	NaN	0.000000	0.001586	0.001598	28.0931	0.022573	0.002112	10.6854	-25.8995	14.7584	-0.106950	0.211564	-0.859375	-0.860704	-0.018800	10.6854	-0.858055	-2.752925E+11	6.829178E-14	NaN
27	1.000000	0.222875	7.3653e+06	-39989.1	955.819	-29792.3	0.000000	0.000000	6.222811	0.026053	NaN	0.000000	0.001594	0.001600	28.1308	0.089458	0.002037	43.9221	42.8841	-167.703	-0.030311	0.221550	-0.849393	-0.850718	0.026053	43.9221	-0.849837	-2.130773E+11	-1.222683E-13	NaN
27	1.000000	0.232896	7.3653e+06	-39989.1	955.819	-29792.3	0.000000	0.000000	6.232831	-0.008383	NaN	0.000000	0.001554	0.001562	28.1056	0.131024	0.001918	68.3171	-137.269	13.3921	0.040219	0.231509	-0.839372	-0.840759	-0.008383	68.3171	-0.839279	-1.532961E+11	5.468424E-14	NaN
27	1.000000	0.242894	7.3653e+06	-39989.1	955.819	-29792.3	0.000000	0.000000	6.242830	0.005178	NaN	0.000000	0.001575	0.001628	28.0828	0.123751	0.002046	60.4697	29.8348	-164.489	0.067687	0.241581	-0.829373	-0.830686	0.005178	60.4697	-0.829437	-1.127600E+11	-4.592056E-14	NaN
27	1.000000	0.252905	7.3653e+06	-39989.1	955.819	-29792.3	0.000000	0.000000	6.252842	0.039600	NaN	0.000000	0.001578	0.001619	28.0927	0.049449	0.001889	26.1712	-102.134	13.0259	-0.000958	0.251558	-0.819362	-0.820709	0.039600	26.1712	-0.820497	-8.530118E+10	-4.642404E-13	NaN
27	1.000000	0.262906	7.3653e+06	-39989.1	955.819	-29792.3	0.000000	0.000000	6.262841	-0.013661	NaN	0.000000	0.001571	0.001594	28.1313	0.114965	0.001989	57.7939	-139.074	-165.737	-0.005457	0.261577	-0.809361	-0.810691	-0.013661	57.7939	-0.809184	-5.990952E+10	2.280326E-13	NaN
27	1.000000	0.272897	7.3653e+06	-39989.1	955.818	-29792.3	0.000000	0.000000	6.272835	0.068145	NaN	0.000000	0.001580	0.001636	28.1052	0.059037	0.001860	31.7439	-4.580255	13.688	0.039911	0.271542	-0.799370	-0.800725	0.068145	31.7439	-0.800980	-4.636281E+10	-1.469813E-12	NaN
27	1.000000	0.282910	7.3653e+06	-39989.1	955.818	-29792.3	0.000000	0.000000	6.282848	0.044346	NaN	0.000000	0.001560	0.001594	28.0811	0.100750	0.002100	47.9792	-5.428054	-167.141	0.055554	0.281618	-0.789357	-0.790649	0.044346	47.9792	-0.790050	-3.294327E+10	-1.346139E-12	NaN
27	1.000000	0.292898	7.3653e+06	-39989.1	955.819	-29792.3	0.000000	0.000000	6.292836	0.057421	NaN	0.000000	0.001579	0.001620	28.0933	0.072874	0.001985	36.7196	-163.545	15.0724	0.008686	0.291565	-0.779369	-0.780703	0.057421	36.7196	-0.780542	-2.446781E+10	-2.346800E-12	NaN
27	1.000000	0.302941	7.3653e+06	-39989.1	955.818	-29792.3	0.000000	0.000000	6.302875	-0.019413	NaN	0.000000	0.001547	0.001647	28.132	0.066352	0.001987	33.3877	-94.4038	-167.669	0.032609	0.301593	-0.769327	-0.770674	-0.019413	33.3877	-0.768891	-1.699111E+10	1.142543E-12	NaN
27	1.000000	0.312921	7.3653e+06	-39989.1	955.818	-29792.3	0.000000	0.000000	6.312855	-0.047392	NaN	0.000000	0.001566	0.001599	28.1065	0.085390	0.001985	43.0199	107.885	15.2443	-0.065046	0.311562	-0.759346	-0.760705	-0.047392	43.0199	-0.758520	-1.227913E+10	3.859533E-12	NaN
27	1.000000	0.322915	7.3653e+06	-39989.1	955.818	-29792.3	0.000000	0.000000	6.322853	0.057470	NaN	0.000000	0.001571	0.001604	28.0821	0.025465	0.001987	12.8175	150.154	-168.635	0.028230	0.321658	-0.749352	-0.750609	0.057470	12.8175	-0.752715	-1.023703E+10	-5.613962E-12	NaN
27	1.000000	0.332954	7.3653e+06	-39989.1	955.818	-29792.3	0.000000	0.000000	6.332888	-0.030051	NaN	0.000000	0.001579	0.001602	28.0925	0.065845	0.001991	33.0779	151.23	13.1782	-0.083717	0.331553	-0.739314	-0.740715	-0.030051	33.0779	-0.738633	-6.583083E+9	4.564889E-12	NaN
27	1.000000	0.342946	7.3653e+06	-39989.1	955.818	-29792.3	0.000000	0.000000	6.342882	0.018379	NaN	0.000000	0.001561	0.001638	28.1306	0.051402	0.002094	24.55	-76.3998	-168.105	-0.008315	0.341617	-0.729322	-0.730650	0.018379	24.55	-0.729883	-5.002821E+9	-3.673799E-12	NaN
27	1.000000	0.352951	7.3653e+06	-39989.1	955.818	-29792.3	0.000000	0.000000	6.352886	-0.009380	NaN	0.000000	0.001557	0.001621	28.1048	0.082145	0.002127	38.6279	134.452	9.508132	0.016114	0.351546	-0.719317	-0.720721	-0.009380	38.6279	-0.719135	-3.570014E+9	2.627472E-12	NaN
27	1.000000	0.362936	7.3653e+06	-39989.1	955.819	-29792.3	0.000000	0.000000	6.362872	0.024553	NaN	0.000000	0.001560	0.001574	28.0804	0.057945	0.001920	30.1867	-19.0035	-166.245	-0.104063	0.361658	-0.709332	-0.710610	0.024553	30.1867	-0.709942	-2.674556E+9	-9.180387E-12	NaN
27	1.000000	0.372950	7.3653e+06	-39989.1	955.818	-29792.3	0.000000	0.000000	6.372886	0.027777	NaN	0.000000	0.001573	0.001603	28.0921	0.082218	0.001955	42.0646	134.72	14.478	0.074665	0.371590	-0.699318	-0.700677	0.027777	42.0646	-0.699813	-1.945251E+9	-1.427953E-11	NaN
27	1.000000	0.382957	7.3653e+06	-39989.1	955.819	-29792.3	0.000000	0.000000	6.382893	0.004385	NaN	0.000000	0.001588	0.001570	28.1309	0.065357	0.002076	31.4834	18.9685	-166.476	0.046739	0.381635	-0.689310	-0.690632	0.004385	31.4834	-0.689415	-1.402553E+9	-3.126744E-12	NaN
27	1.000000	0.392974	7.3653e+06	-39989.1	955.819	-29792.3	0.000000	0.000000	6.392910	0.012201	NaN	0.000000	0.001571	0.001598	28.105	0.040781	0.001932	21.1129	75.6801	15.474	-0.006981	0.391599	-0.679293	-0.680669	0.012201	21.1129	-0.679726	-1.033867E+9	-1.180177E-11	NaN
27	1.000000	0.402942	7.3653e+06	-39989.1	955.818	-29792.3	0.000000	0.000000	6.402877	-0.003309	NaN	0.000000	0.001571	0.001605	28.08	0.050143	0.002037	24.6204	119.892	-166.874	-0.063206	0.401660	-0.669325	-0.670608	-0.003309	24.6204	-0.669224	-7.426350E+8	4.456412E-12	NaN
27	1.000000	0.412980	7.3653e+06	-39989.1	955.818	-29792.3	0.000000	0.000000	6.412915	-0.022047	NaN	0.000000	0.001565	0.001617	28.0907	0.087217	0.001891	46.1114	80.4431	12.5681	0.048713	0.411571	-0.659287	-0.660696	-0.022047	46.1114	-0.658929	-5.367783E+8	4.107262E-11	NaN
27	1.000000	0.422970	7.3653e+06	-39989.1	955.819	-29792.3	0.000000	0.000000	6.422906	0.009380	NaN	0.000000	0.001578	0.001587	28.1294	0.086467	0.001994	43.3634	96.8336	-167.639	-0.047936	0.421673	-0.649298	-0.650595	0.009380	43.3634	-0.649460	-3.981365E+8	-2.355955E-11	NaN
27	1.000000	0.432990	7.3653e+06	-39989.1	955.818	-29792.3	0.000000	0.000000	6.432928	0.053166	NaN	0.000000	0.001577	0.001595	28.1041	0.019528	0.002116	9.229813	113.327	12.8187	-0.015570	0.431612	-0.639277	-0.640655	0.053166	9.229813	-0.643597	-3.308576E+8	-1.606911E-10	NaN
27	1.000000	0.442982	7.3653e+06	-39989.1	955.818	-29792.3	0.000000	0.000000	6.442915	-0.048563	NaN	0.000000	0.001598	0.001584	28.0789	0.036757	0.001940	18.9429	-146.923	-163.789	-0.019647	0.441640	-0.629286	-0.630627	-0.048563	18.9429	-0.627363	-1.980638E+8	2.451881E-10	NaN
27	1.000000	0.452979	7.3653e+06	-39989.1	955.819	-29792.3	0.000000	0.000000	6.452913	-0.047755	NaN	0.000000	0.001552	0.001609	28.091	0.020275	0.001985	10.2146	-176.271	8.708921	-0.077168	0.451625	-0.619288	-0.620643	-0.047755	10.2146	-0.615782	-1.372914E+8	3.478378E-10	NaN
27	1.000000	0.463018	7.3653e+06	-39989.1	955.818	-29792.3	0.000000	0.000000	6.462953	-0.020716	NaN	0.000000	0.001552	0.001660	28.1305	0.018779	0.002065	9.096324	152.346	-169.511	-0.003906	0.461685	-0.609249	-0.610582	-0.020716	9.096324	-0.607541	-1.057497E+8	1.958997E-10	NaN
27	1.000000	0.473005	7.3653e+06	-39989.1	955.819	-29792.3	0.000000	0.000000	6.472940	-0.026315	NaN	0.000000	0.001548	0.001636	28.1054	0.031670	0.002074	15.2689	13.6259	12.6178	-0.032324	0.471606	-0.599262	-0.600661	-0.026315	15.2689	-0.597970	-7.807170E+7	3.370658E-10	NaN
27	1.000000	0.483006	7.3653e+06	-39989.1	955.818	-29792.3	0.000000	0.000000	6.482939	-0.074429	NaN	0.000000	0.001552	0.001626	28.0803	0.044647	0.002065	21.6181	125.426	-166.796	-0.133779	0.481732	-0.589261	-0.590536	-0.074429	21.6181	-0.586679	-5.455953E+7	1.364175E-9	NaN
27	1.000000	0.493001	7.3653e+06	-39989.1	955.818	-29792.3	0.000000	0.000000	6.492937	0.011035	NaN	0.000000	0.001562	0.001623	28.0903	0.022551	0.001877	12.0166	3.184159	15.762	-0.016344	0.491661	-0.579266	-0.580606	0.011035	12.0166	-0.579955	-4.406640E+7	-2.504082E-10	NaN
27	1.000000	0.503017	7.36531e+06	-39989.1	955.818	-29792.3	0.000000	0.000000	6.502951	-0.035965	NaN	0.000000	0.001578	0.001637	28.1308	0.076279	0.002103	36.266	-69.5468	-166.745	-0.064041	0.501751	-0.569250	-0.570516	-0.035965	36.266	-0.568506	-3.061920E+7	1.174574E-9	NaN
27	1.000000	0.513009	7.36531e+06	-39989.1	955.819	-29792.3	0.000000	0.000000	6.512945	-0.006801	NaN	0.000000	0.001552	0.001609	28.1067	0.068333	0.001930	35.4142	43.4616	13.0201	-0.076138	0.511648	-0.559258	-0.560619	-0.006801	35.4142	-0.559114	-2.270500E+7	2.995276E-10	NaN
27	1.000000	0.523018	7.36531e+06	-39989.1	955.817	-29792.3	0.000000	0.000000	6.522954	0.001477	NaN	0.000000	0.001598	0.001616	28.0813	0.064537	0.001863	34.6334	-170.296	-165.485	0.046609	0.521743	-0.549249	-0.550524	0.001477	34.6334	-0.549281	-1.659582E+7	-8.898400E-11	NaN
27	1.000000	0.533010	7.36531e+06	-39989.1	955.818	-29792.3	0.000000	0.000000	6.532947	0.025897	NaN	0.000000	0.001585	0.001627	28.0926	0.069164	0.002018	34.2768	-41.9473	10.4911	0.035696	0.531660	-0.539257	-0.540608	0.025897	34.2768	-0.539824	-1.227205E+7	-2.110237E-9	NaN
27	1.000000	0.543028	7.36531e+06	-39989.1	955.818	-29792.3	0.000000	0.000000	6.542963	-0.011756	NaN	0.000000	0.001587	0.001617	28.1314	0.149110	0.001985	75.1063	75.9144	-168.537	-0.086061	0.541726	-0.529240	-0.530542	-0.011756	75.1063	-0.529122	-8.71732e+06	1.348568E-9	NaN
27	1.000000	0.553039	7.36531e+06	-39989.1	955.819	-29792.3	0.000000	0.000000	6.552974	-0.001171	NaN	0.000000	0.001581	0.001617	28.1075	0.057820	0.001876	30.8179	-22.3528	14.0456	0.026076	0.551704	-0.519229	-0.520563	-0.001171	30.8179	-0.519200	-6.34558e+06	1.845943E-10	NaN
27	1.000000	0.563053	7.36531e+06	-39989.1	955.819	-29792.3	0.000000	0.000000	6.562990	0.057997	NaN	0.000000	0.001607	0.001623	28.0834	0.125970	0.002001	62.9684	-126.448	-165.913	-0.021067	0.561712	-0.509215	-0.510555	0.057997	62.9684	-0.509906	-4.71087e+06	-1.231123E-8	NaN
27	1.000000	0.573045	7.36531e+06	-39989.1	955.819	-29792.3	0.000000	0.000000	6.572978	-0.041569	NaN	0.000000	0.001588	0.001616	28.0915	0.019861	0.002068	9.602930	-33.4879	10.9135	-0.052736	0.571687	-0.499223	-0.500581	-0.041569	9.602930	-0.495976	-3.01206e+06	1.380093E-8	NaN
27	1.000000	0.583021	7.36531e+06	-39989.1	955.818	-29792.3	0.000000	0.000000	6.582956	-0.009425	NaN	0.000000	0.001589	0.001626	28.1302	0.070605	0.002066	34.1747	163.827	-164.874	-0.036457	0.581712	-0.489246	-0.490555	-0.009425	34.1747	-0.489040	-2.40974e+06	3.911230E-9	NaN
27	1.000000	0.593041	7.36531e+06	-39989.1	955.819	-29792.3	0.000000	0.000000	6.592979	0.050508	NaN	0.000000	0.001564	0.001583	28.1064	0.116114	0.001994	58.2399	131.79	11.3107	-0.021138	0.591690	-0.479226	-0.480578	0.050508	58.2399	-0.479877	-1.79392e+06	-2.815497E-8	NaN
27	1.000000	0.603047	7.36531e+06	-39989.1	955.818	-29792.3	0.000000	0.000000	6.602984	0.033962	NaN	0.000000	0.001576	0.001584	28.0803	0.079921	0.001943	41.1299	72.68	-162.845	0.054908	0.601745	-0.469221	-0.470523	0.033962	41.1299	-0.469840	-1.29767e+06	-2.617182E-8	NaN
27	1.000000	0.613057	7.36531e+06	-39989.1	955.818	-29792.3	0.000000	0.000000	6.612990	-0.060349	NaN	0.000000	0.001558	0.001562	28.0917	0.084273	0.002085	40.4146	94.5493	14.2824	-0.072711	0.611697	-0.459210	-0.460570	-0.060349	40.4146	-0.458090	-887507	6.799776E-8	NaN
27	1.000000	0.623020	7.36531e+06	-39989.1	955.818	-29792.3	0.000000	0.000000	6.622957	0.026467	NaN	0.000000	0.001571	0.001606	28.1318	0.006977	0.001959	3.562362	157.609	-167.737	-0.010270	0.621747	-0.449247	-0.450520	0.026467	3.562362	-0.454819	-798317	-3.315304E-8	NaN
27	1.000000	0.633062	7.36531e+06	-39989.1	955.819	-29792.3	0.000000	0.000000	6.632998	0.011681	NaN	0.000000	0.001613	0.001572	28.1075	0.042873	0.002063	20.7779	19.1447	10.8934	0.058089	0.631704	-0.439205	-0.440564	0.011681	20.7779	-0.439627	-487635	-2.395380E-8	NaN
27	1.000000	0.643043	7.36531e+06	-39989.1	955.818	-29792.3	0.000000	0.000000	6.642979	0.022709	NaN	0.000000	0.001547	0.001606	28.0806	0.067322	0.001923	35.0128	45.5172	-169.161	-0.008964	0.641739	-0.429224	-0.430528	0.022709	35.0128	-0.429711	-353159	-6.430202E-8	NaN
27	1.000000	0.653076	7.36531e+06	-39989.1	955.818	-29792.3	0.000000	0.000000	6.653012	0.017955	NaN	0.000000	0.001582	0.001575	28.0892	0.077008	0.001963	39.2293	53.6369	13.7191	-0.022245	0.651700	-0.419192	-0.420568	0.017955	39.2293	-0.419535	-253406	-7.085504E-8	NaN
27	1.000000	0.663063	7.36531e+06	-39989.1	955.819	-29792.3	0.000000	0.000000	6.662999	0.018474	NaN	0.000000	0.001564	0.001583	28.1291	0.113270	0.001983	57.1255	-56.63	-166.128	-0.026899	0.661749	-0.409205	-0.410519	0.018474	57.1255	-0.409447	-182197	-1.013975E-7	NaN
27	1.000000	0.673110	7.36531e+06	-39989.1	955.818	-29792.3	0.000000	0.000000	6.673046	0.010336	NaN	0.000000	0.001529	0.001593	28.1062	0.071597	0.002033	35.213	100.674	11.0036	0.019815	0.671731	-0.399157	-0.400536	0.010336	35.213	-0.399377	-130952	-7.892648E-8	NaN
27	1.000000	0.683076	7.36531e+06	-39989.1	955.817	-29792.3	0.000000	0.000000	6.683012	0.006104	NaN	0.000000	0.001601	0.001598	28.0795	0.054300	0.002146	25.3047	66.0421	-166.865	-0.055843	0.681777	-0.389191	-0.390490	0.006104	25.3047	-0.389372	-94229.5	-6.477531E-8	NaN
27	1.000000	0.693061	7.36531e+06	-39989.1	955.818	-29792.3	0.000000	0.000000	6.692997	-0.008565	NaN	0.000000	0.001574	0.001584	28.0906	0.047547	0.002001	23.7634	67.9553	13.8073	-0.010078	0.691726	-0.379206	-0.380542	-0.008565	23.7634	-0.378936	-66774.5	1.282674E-7	NaN
27	1.000000	0.703096	7.36531e+06	-39989.1	955.818	-29792.3	0.000000	0.000000	6.703032	0.022958	NaN	0.000000	0.001543	0.001578	28.1297	0.035372	0.001934	18.2886	-107.578	-162.927	0.001521	0.701766	-0.369172	-0.370501	0.022958	18.2886	-0.370113	-49860.4	-4.604432E-7	NaN
27	1.000000	0.713106	7.36531e+06	-39989.1	955.819	-29792.3	0.000000	0.000000	6.713044	0.047928	NaN	0.000000	0.001543	0.001577	28.1079	0.025629	0.001991	12.8713	65.1962	13.1238	-0.020354	0.711748	-0.359161	-0.360520	0.047928	12.8713	-0.361954	-38025.7	-1.260398E-6	NaN
27	1.000000	0.723081	7.36531e+06	-39989.1	955.818	-29792.3	0.000000	0.000000	6.723016	-0.000536	NaN	0.000000	0.001553	0.001616	28.0805	0.019390	0.002056	9.430476	-13.3482	-166.717	-0.077207	0.721819	-0.349186	-0.350448	-0.000536	9.430476	-0.349144	-24806.9	2.161306E-8	NaN
27	1.000000	0.733102	7.36531e+06	-39989.1	955.819	-29792.3	0.000000	0.000000	6.733038	0.011359	NaN	0.000000	0.001538	0.001553	28.0896	0.016525	0.002107	7.843906	-129.411	12.5371	0.010727	0.731778	-0.339165	-0.340490	0.011359	7.843906	-0.340251	-18416.9	-6.167862E-7	NaN
27	1.000000	0.743084	7.36531e+06	-39989.1	955.819	-29792.3	0.000000	0.000000	6.743018	-0.024246	NaN	0.000000	0.001539	0.001555	28.1285	0.056178	0.001950	28.8043	78.5429	-165.668	-0.034756	0.741821	-0.329184	-0.330447	-0.024246	28.8043	-0.328552	-12423.4	1.951662E-6	NaN
27	1.000000	0.753098	7.36531e+06	-39989.1	955.818	-29792.3	0.000000	0.000000	6.753033	-0.023418	NaN	0.000000	0.001555	0.001566	28.1059	0.065724	0.001911	34.3854	-82.8156	14.1114	-0.089693	0.751738	-0.319169	-0.320530	-0.023418	34.3854	-0.318658	-8889.64	2.634307E-6	NaN
27	1.000000	0.763120	7.36531e+06	-39989.1	955.818	-29792.3	0.000000	0.000000	6.763058	0.071190	NaN	0.000000	0.001553	0.001631	28.0799	0.067960	0.002070	32.832	39.705	-164.482	0.014625	0.761784	-0.309148	-0.310483	0.071190	32.832	-0.310774	-6799.98	-1.046909E-5	NaN
27	1.000000	0.773098	7.36531e+06	-39989.1	955.818	-29792.3	0.000000	0.000000	6.773032	-0.028757	NaN	0.000000	0.001563	0.001626	28.0921	0.081553	0.002110	38.6594	-175.153	14.0684	-0.085093	0.771787	-0.299170	-0.300480	-0.028757	38.6594	-0.298612	-4487.04	6.408851E-6	NaN
27	1.000000	0.783104	7.36531e+06	-39989.1	955.818	-29792.3	0.000000	0.000000	6.783038	-0.038678	NaN	0.000000	0.001580	0.001619	28.1311	0.015462	0.001993	7.758000	-18.7288	-166.352	-0.062696	0.781819	-0.289164	-0.290448	-0.038678	7.758000	-0.285425	-2848.71	1.357743E-5	NaN
27	1.000000	0.793114	7.36531e+06	-39989.1	955.819	-29792.3	0.000000	0.000000	6.793048	-0.033788	NaN	0.000000	0.001578	0.001622	28.109	0.106750	0.002030	52.585	-17.0172	15.9989	0.036948	0.791764	-0.279153	-0.280503	-0.033788	52.585	-0.278671	-2253.79	1.499159E-5	NaN
27	1.000000	0.803147	7.36531e+06	-39989.1	955.818	-29792.3	0.000000	0.000000	6.803082	-0.010496	NaN	0.000000	0.001584	0.001632	28.0808	0.089781	0.002065	43.4782	44.0141	-165.835	0.048374	0.801762	-0.269121	-0.270506	-0.010496	43.4782	-0.268940	-1604.79	6.540209E-6	NaN
27	1.000000	0.813111	7.36531e+06	-39989.1	955.819	-29792.3	0.000000	0.000000	6.813044	-0.055157	NaN	0.000000	0.001567	0.001628	28.0912	0.056624	0.001948	29.0729	55.7023	13.9255	0.036603	0.811787	-0.259157	-0.260480	-0.055157	29.0729	-0.257734	-1081.8	5.098599E-5	NaN
27	1.000000	0.823135	7.36531e+06	-39989.1	955.817	-29792.3	0.000000	0.000000	6.823070	-0.032209	NaN	0.000000	0.001584	0.001615	28.13	0.083037	0.001983	41.8662	161.142	-168.979	0.008899	0.821816	-0.249132	-0.250452	-0.032209	41.8662	-0.248555	-780.915	4.124456E-5	NaN
27	1.000000	0.833149	7.36531e+06	-39989.1	955.819	-29792.3	0.000000	0.000000	6.833083	-0.033388	NaN	0.000000	0.001586	0.001646	28.1073	0.080499	0.002017	39.9159	-162.907	15.0069	-0.086006	0.831769	-0.239118	-0.240498	-0.033388	39.9159	-0.238491	-544.46	6.132347E-5	NaN
27	1.000000	0.843157	7.36531e+06	-39989.1	955.818	-29792.3	0.000000	0.000000	6.843092	-0.010540	NaN	0.000000	0.001519	0.001652	28.0807	0.094703	0.001794	52.7744	-125.448	-169.105	0.046370	0.841872	-0.229110	-0.230396	-0.010540	52.7744	-0.228960	-385.557	2.733652E-5	NaN
27	1.000000	0.853172	7.36531e+06	-39989.1	955.818	-29792.3	0.000000	0.000000	6.853108	0.010141	NaN	0.000000	0.001586	0.001639	28.091	0.018822	0.002046	9.200504	-126.434	12.9289	-0.023674	0.851794	-0.219095	-0.220473	0.010141	9.200504	-0.219922	-276.964	-3.661494E-5	NaN
27	1.000000	0.863158	7.36531e+06	-39989.1	955.818	-29792.3	0.000000	0.000000	6.863094	0.010276	NaN	0.000000	0.001635	0.001634	28.1303	0.055882	0.002030	27.5329	-164.032	-168.253	0.023224	0.861866	-0.209109	-0.210401	0.010276	27.5329	-0.209389	-187.466	-5.481388E-5	NaN
27	1.000000	0.873181	7.36531e+06	-39989.1	955.818	-29792.3	0.000000	0.000000	6.873118	0.029824	NaN	0.000000	0.001635	0.001630	28.1084	0.054114	0.001983	27.2923	-58.2723	15.3618	0.067021	0.871836	-0.199086	-0.200431	0.029824	27.2923	-0.199906	-131.266	-0.000227	NaN
27	1.000000	0.883153	7.36531e+06	-39989.1	955.819	-29792.3	0.000000	0.000000	6.883090	0.040036	NaN	0.000000	0.001621	0.001604	28.0807	0.063395	0.002088	30.3687	-20.749	-165.988	0.012611	0.881900	-0.189114	-0.190367	0.040036	30.3687	-0.190103	-90.3125	-0.000443	NaN
27	1.000000	0.893166	7.36531e+06	-39989.1	955.819	-29792.3	0.000000	0.000000	6.893101	-0.024111	NaN	0.000000	0.001606	0.001630	28.0903	0.076021	0.002027	37.5039	-18.9371	13.2842	-0.057896	0.891805	-0.179101	-0.180462	-0.024111	37.5039	-0.178619	-57.802	0.000417	NaN
27	1.000000	0.903149	7.36531e+06	-39989.1	955.818	-29792.3	0.000000	0.000000	6.903081	-0.091220	NaN	0.000000	0.001519	0.001616	28.1296	0.006399	0.001931	3.313514	-123.667	-165.605	-0.121138	0.901889	-0.169119	-0.170379	-0.091220	3.313514	-0.148471	-16.985	0.005371	NaN
27	1.000000	0.913180	7.36531e+06	-39989.1	955.818	-29792.3	0.000000	0.000000	6.913117	0.014681	NaN	0.000000	0.001538	0.001659	28.1067	0.070562	0.001894	37.2495	14.006	14.4839	-0.093771	0.911788	-0.159087	-0.160479	0.014681	37.2495	-0.159383	-26.7304	-0.000549	NaN
27	1.000000	0.923185	7.36531e+06	-39989.1	955.818	-29792.3	0.000000	0.000000	6.923119	-0.037342	NaN	0.000000	0.001532	0.001611	28.0791	0.016173	0.001999	8.090275	-141.591	-165.733	-0.010290	0.921887	-0.149082	-0.150381	-0.037342	8.090275	-0.145620	-15.0534	0.002481	NaN
27	1.000000	0.933177	7.36531e+06	-39989.1	955.818	-29792.3	0.000000	0.000000	6.933115	0.061044	NaN	0.000000	0.001515	0.001627	28.0896	0.026148	0.001988	13.1545	58.6581	12.6272	0.023298	0.931864	-0.139090	-0.140403	0.061044	13.1545	-0.142571	-13.2147	-0.004619	NaN
27	1.000000	0.943220	7.36531e+06	-39989.1	955.817	-29792.3	0.000000	0.000000	6.943157	0.043689	NaN	0.000000	0.001506	0.001617	28.1287	0.041255	0.001990	20.7319	89.2725	-167.638	0.014573	0.941924	-0.129047	-0.130343	0.043689	20.7319	-0.130628	-7.837804	-0.005574	NaN
27	1.000000	0.953194	7.36531e+06	-39989.1	955.819	-29792.3	0.000000	0.000000	6.953130	0.013946	NaN	0.000000	0.001513	0.001585	28.108	0.020396	0.002003	10.1821	-23.1029	11.253	-0.001594	0.951808	-0.119074	-0.120459	0.013946	10.1821	-0.120101	-4.854240	-0.002873	NaN
27	1.000000	0.963206	7.36531e+06	-39989.1	955.818	-29792.3	0.000000	0.000000	6.963146	0.098650	NaN	0.000000	0.001528	0.001621	28.0805	0.008980	0.002120	4.235183	58.5542	-168.69	0.122327	0.961911	-0.109061	-0.110356	0.098650	4.235183	-0.126531	-6.519282	-0.015132	NaN
27	1.000000	0.973177	7.36531e+06	-39989.1	955.817	-29792.3	0.000000	0.000000	6.973117	0.112924	NaN	0.000000	0.001549	0.001615	28.0879	0.071954	0.002107	34.1562	-136.446	12.1505	0.068438	0.971861	-0.099091	-0.100407	0.112924	34.1562	-0.101570	-1.978970	-0.057062	NaN
27	1.000000	0.983226	7.36531e+06	-39989.1	955.817	-29792.3	0.000000	0.000000	6.983163	0.032405	NaN	0.000000	0.001532	0.001626	28.1274	0.036539	0.002173	16.8114	-59.8152	-166.827	0.037844	0.981919	-0.089041	-0.090349	0.032405	16.8114	-0.090487	-1.109753	-0.029201	NaN
27	1.000000	0.993215	7.36531e+06	-39989.1	955.818	-29792.3	0.000000	0.000000	6.993148	-0.064939	NaN	0.000000	0.001558	0.001616	28.1067	0.108087	0.001906	56.7012	31.6359	14.257	-0.081063	0.991865	-0.079052	-0.080402	-0.064939	56.7012	-0.078193	-0.557487	0.116486	NaN
27	1.000000	1.003185	7.36531e+06	-39989.1	955.817	-29792.3	0.000000	0.000000	7.003121	0.032518	NaN	0.000000	0.001555	0.001602	28.0787	0.117709	0.001972	59.6894	143.827	-161.696	-0.030695	1.001874	-0.069083	-0.070393	0.032518	59.6894	-0.069491	-0.330552	-0.098375	NaN
27	1.000000	1.013259	7.36531e+06	-39989.1	955.818	-29792.3	0.000000	0.000000	7.013194	-0.021506	NaN	0.000000	0.001528	0.001592	28.0885	0.084659	0.002001	42.305	162.826	14.1813	0.005867	1.011810	-0.059008	-0.060457	-0.021506	42.305	-0.058627	-0.164416	0.130802	NaN
27	1.000000	1.023227	7.36531e+06	-39989.1	955.817	-29792.3	0.000000	0.000000	7.023163	0.006065	NaN	0.000000	0.001614	0.001594	28.1292	0.148558	0.002065	71.9235	166.651	-166.272	-0.021659	1.021876	-0.049040	-0.050391	0.006065	71.9235	-0.049103	-0.085719	-0.070752	NaN
27	1.000000	1.033217	7.36531e+06	-39989.1	955.818	-29792.3	0.000000	0.000000	7.033154	0.023871	NaN	0.000000	0.001602	0.001642	28.1086	0.059236	0.001893	31.2896	-1.067029	14.6187	-0.010524	1.031934	-0.039050	-0.040334	0.023871	31.2896	-0.039623	-0.044045	-0.541977	NaN
27	1.000000	1.043211	7.36531e+06	-39989.1	955.818	-29792.3	0.000000	0.000000	7.043147	0.008771	NaN	0.000000	0.001625	0.001607	28.0805	0.046557	0.001967	23.6748	-142.147	-166.892	0.040282	1.041893	-0.029056	-0.030375	0.008771	23.6748	-0.029334	-0.022054	-0.397705	NaN
27	1.000000	1.053227	7.36531e+06	-39989.1	955.817	-29792.3	0.000000	0.000000	7.053164	0.036264	NaN	0.000000	0.001588	0.001634	28.0892	0.028926	0.002016	14.3462	119.597	15.2503	0.012905	1.051844	-0.019040	-0.020423	0.036264	14.3462	-0.020936	-0.013268	-2.733170	NaN
27	1.000000	1.063230	7.36531e+06	-39989.1	955.818	-29792.3	0.000000	0.000000	7.063166	0.022832	NaN	0.000000	0.001575	0.001597	28.1295	0.031025	0.002027	15.3029	-85.2417	-166.985	-0.001867	1.061951	-0.009038	-0.010316	0.022832	15.3029	-0.010157	-0.006477	-3.525181	NaN
27	1.000000	1.073246	7.36531e+06	-39989.1	955.818	-29792.3	0.000000	0.000000	7.073180	-0.044560	NaN	0.000000	0.001601	0.001602	28.1086	0.092739	0.001997	46.4436	89.3635	15.3183	0.049676	1.071878	0.000979	-0.000389	-0.044560	46.4436	0.001698	0.001312	-33.9588	1171.4
27	1.000000	1.083253	7.36531e+06	-39989.1	955.818	-29792.3	0.000000	0.000000	7.083188	0.002002	NaN	0.000000	0.001566	0.001600	28.0815	0.098589	0.001987	49.6263	139.799	-170.554	-0.037440	1.081980	0.010985	0.009712	0.002002	49.6263	0.010955	0.010262	0.195037	447.568
27	1.000000	1.093262	7.36531e+06	-39989.1	955.818	-29792.3	0.000000	0.000000	7.093199	0.040692	NaN	0.000000	0.001567	0.001599	28.0901	0.014722	0.002086	7.057288	-33.9586	12.6185	0.069821	1.091901	0.020994	0.019633	0.040692	7.057288	0.016670	0.017577	2.315110	48.6342
27	1.000000	1.103243	7.36531e+06	-39989.1	955.818	-29792.3	0.000000	0.000000	7.103182	0.101625	NaN	0.000000	0.001565	0.001606	28.1304	0.130801	0.001955	66.8919	156.242	-165.596	0.080293	1.101929	0.030975	0.029662	0.101625	66.8919	0.029836	0.040404	2.515204	304.042
27	1.000000	1.113261	7.36531e+06	-39989.1	955.818	-29792.3	0.000000	0.000000	7.113196	-0.012857	NaN	0.000000	0.001611	0.001621	28.1104	0.089078	0.001994	44.6811	-172.582	14.8228	0.012046	1.111887	0.040993	0.039620	-0.012857	44.6811	0.041209	0.067190	-0.191357	157.486
27	1.000000	1.123270	7.36531e+06	-39989.1	955.818	-29792.3	0.000000	0.000000	7.123214	0.208323	NaN	0.000000	0.001609	0.001655	28.0826	0.456777	0.001999	228.5	20.1879	-169.158	0.123367	1.121918	0.051002	0.049650	0.208323	228.5	0.050319	0.093400	2.230433	683.1
27	1.000000	1.133254	7.36531e+06	-39989.1	955.818	-29792.3	0.000000	0.000000	7.133336	3.578612	NaN	0.000000	0.001630	0.001658	28.088	1.757157	0.002019	870.437	10.8956	11.3384	2.823056	1.131893	0.060986	0.059625	3.578612	870.437	0.057903	0.118396	30.2259	2311.23
27	1.000000	1.143120	7.36531e+06	-39989.1	955.819	-29792.3	0.000000	0.000000	7.143448	9.552471	NaN	0.000000	0.001583	0.001651	28.1291	3.709124	0.001965	1887.14	14.4041	-170.805	8.680642	1.141981	0.070852	0.069714	9.552471	1887.14	0.067056	0.152319	62.7137	4417.76
27	2.000000	1.146229	7.36531e+06	-39989.1	955.818	-29792.3	0.000000	0.000000	7.146598	10.5409	NaN	0.000000	0.001598	0.001637	28.1095	4.176412	0.001859	2246.28	9.750817	9.744001	10.2979	1.145951	0.073961	0.073684	10.5409	2246.28	0.070442	0.165891	63.5415	5038.8
27	2.000000	1.148740	7.36531e+06	-39989.1	955.817	-29792.3	0.000000	0.000000	7.149157	11.7152	NaN	0.000000	0.001612	0.001615	28.0809	4.412882	0.001876	2351.82	4.546691	-166.905	11.8164	1.148418	0.076473	0.076150	11.7152	2351.82	0.072737	0.175399	66.7919	5130.55
27	2.000000	1.151217	7.36531e+06	-39989.1	955.818	-29792.3	0.000000	0.000000	7.151683	12.8947	NaN	0.000000	0.001601	0.001636	28.0906	4.748558	0.001945	2441.79	5.454544	10.5718	12.7877	1.150937	0.078950	0.078670	12.8947	2441.79	0.074989	0.184974	69.7109	5187.12
27	2.000000	1.153702	7.36531e+06	-39989.1	955.817	-29792.3	0.000000	0.000000	7.154223	14.2672	NaN	0.000000	0.001627	0.001635	28.1287	5.459440	0.002005	2722.3	8.056632	-170.897	14.3204	1.153413	0.081434	0.081146	14.2672	2722.3	0.077504	0.195944	72.8129	5618.79
27	2.000000	1.156185	7.36531e+06	-39989.1	955.817	-29792.3	0.000000	0.000000	7.156775	15.9251	NaN	0.000000	0.001546	0.001657	28.1101	6.013251	0.001856	3239.16	11.6464	4.445525	15.6427	1.155825	0.083918	0.083558	15.9251	3239.16	0.080230	0.208176	76.4984	6486.2
27	2.000000	1.158699	7.36531e+06	-39989.1	955.818	-29792.3	0.000000	0.000000	7.159300	16.1962	NaN	0.000000	0.001558	0.001631	28.081	6.395867	0.001939	3298.68	9.607434	-173.498	16.3523	1.158374	0.086432	0.086106	16.1962	3298.68	0.082749	0.219782	73.6922	6428.6
27	2.000000	1.161169	7.36531e+06	-39989.1	955.817	-29792.3	0.000000	0.000000	7.161716	14.8797	NaN	0.000000	0.001552	0.001684	28.0888	6.327568	0.001919	3297.24	5.862148	12.1711	14.9826	1.160857	0.088902	0.088590	14.8797	3297.24	0.085517	0.232875	63.8959	6242.55
27	2.000000	1.163673	7.36531e+06	-39989.1	955.817	-29792.3	0.000000	0.000000	7.164185	14.0348	NaN	0.000000	0.001596	0.001666	28.1281	6.442889	0.001950	3304.17	10.5564	-172.506	14.1343	1.163351	0.091406	0.091084	14.0348	3304.17	0.088220	0.246001	57.0519	6086.5
27	2.000000	1.166181	7.36531e+06	-39989.1	955.817	-29792.3	0.000000	0.000000	7.166708	14.3922	NaN	0.000000	0.001560	0.001666	28.1084	6.478025	0.002099	3086.69	8.240609	10.6466	14.3349	1.165854	0.093914	0.093587	14.3922	3086.69	0.090417	0.256916	56.019	5563.78
27	2.000000	1.168642	7.36531e+06	-39989.1	955.816	-29792.3	0.000000	0.000000	7.169158	14.1228	NaN	0.000000	0.001542	0.001631	28.08	6.433107	0.002108	3051.6	9.919548	-169.11	13.9089	1.168327	0.096375	0.096060	14.1228	3051.6	0.092904	0.269544	52.395	5370.14
27	2.000000	1.171206	7.36531e+06	-39989.1	955.817	-29792.3	0.000000	0.000000	7.171681	13.1352	NaN	0.000000	0.001557	0.001624	28.0881	6.294349	0.002117	2972.86	9.414962	13.9926	13.4385	1.170838	0.098939	0.098571	13.1352	2972.86	0.095625	0.283681	46.3026	5099.55
27	2.000000	1.173668	7.36531e+06	-39989.1	955.817	-29792.3	0.000000	0.000000	7.173821	5.290845	NaN	0.000000	0.001587	0.001639	28.1285	5.839438	0.002044	2856.42	14.3583	-170.8	5.336146	1.173353	0.101400	0.101086	5.290845	2856.42	0.100011	0.307179	17.224	4708.69
27	2.000000	1.176156	7.36531e+06	-39989.1	955.818	-29792.3	0.000000	0.000000	7.176412	7.788998	NaN	0.000000	0.001554	0.001621	28.11	8.070982	0.001962	4113.77	16.8873	4.007425	7.313117	1.175729	0.103889	0.103462	7.788998	4113.77	0.102469	0.320730	24.2852	6636.58
27	2.000000	1.178614	7.36531e+06	-39989.1	955.819	-29792.3	0.000000	0.000000	7.178989	10.7004	NaN	0.000000	0.001577	0.001664	28.0812	10.5083	0.001806	5817.86	10.3749	-173.876	10.1404	1.178313	0.106346	0.106045	10.7004	5817.86	0.104967	0.334783	31.9621	9186.59
27	2.000000	1.181118	7.36531e+06	-39989.1	955.818	-29792.3	0.000000	0.000000	7.181696	15.6337	NaN	0.000000	0.001607	0.001656	28.0873	13.4526	0.001879	7157.83	11.8845	2.431753	14.0826	1.180723	0.108850	0.108456	15.6337	7157.83	0.107212	0.347656	44.9687	11091.2
27	2.000000	1.183655	7.36531e+06	-39989.1	955.818	-29792.3	0.000000	0.000000	7.184450	20.8971	NaN	0.000000	0.001566	0.001587	28.1278	15.6552	0.001675	9347.33	7.649949	-177.158	20.9658	1.183306	0.111388	0.111038	20.8971	9347.33	0.109711	0.362253	57.6865	14189.1
27	2.000000	1.186091	7.36531e+06	-39989.1	955.817	-29792.3	0.000000	0.000000	7.187268	30.2141	NaN	0.000000	0.001554	0.001651	28.109	18.6561	0.001679	11111.9	8.148835	0.542461	28.8592	1.185807	0.113823	0.113540	30.2141	11111.9	0.111784	0.374574	80.6626	16587.9
27	2.000000	1.188612	7.36531e+06	-39989.1	955.817	-29792.3	0.000000	0.000000	7.190220	40.7121	NaN	0.000000	0.001591	0.001618	28.0814	22.2133	0.001860	11941.5	7.545375	-179.201	39.6602	1.188284	0.116344	0.116017	40.7121	11941.5	0.113787	0.386666	105.29	17545.5
27	2.000000	1.191100	7.36531e+06	-39989.1	955.817	-29792.3	0.000000	0.000000	7.193232	53.4489	NaN	0.000000	0.001626	0.001636	28.0895	24.5061	0.001716	14282.8	7.671522	-1.799348	51.2402	1.190784	0.118833	0.118516	53.4489	14282.8	0.116026	0.400396	133.49	20622.5
27	2.000000	1.193551	7.36531e+06	-39989.1	955.818	-29792.3	0.000000	0.000000	7.196447	72.0359	NaN	0.000000	0.001585	0.001641	28.1293	26.6155	0.001790	14867.9	4.885878	-178.45	68.9135	1.193209	0.121284	0.120942	72.0359	14867.9	0.117650	0.410498	175.484	21201.5
27	2.000000	1.196079	7.36531e+06	-39989.1	955.816	-29792.3	0.000000	0.000000	7.199580	86.7416	NaN	0.000000	0.001581	0.001655	28.1112	30.122	0.001782	16901.7	4.091042	0.111990	84.0502	1.195758	0.123812	0.123491	86.7416	16901.7	0.119963	0.425093	204.053	23684.3
27	2.000000	1.198567	7.36531e+06	-39989.1	955.818	-29792.3	0.000000	0.000000	7.202752	103.405	NaN	0.000000	0.001577	0.001624	28.0828	31.4515	0.001783	17643	1.573696	-177.788	100.839	1.198274	0.126299	0.126007	103.405	17643	0.121904	0.437527	236.339	24369.3
27	2.000000	1.201067	7.36531e+06	-39989.1	955.818	-29792.3	0.000000	0.000000	7.206011	121.869	NaN	0.000000	0.001594	0.001639	28.0889	33.9844	0.001873	18146.2	6.919927	-2.707126	118.602	1.200733	0.128800	0.128466	121.869	18146.2	0.123763	0.449597	271.063	24725.7
27	2.000000	1.203580	7.36531e+06	-39989.1	955.818	-29792.3	0.000000	0.000000	7.209468	144.855	NaN	0.000000	0.001570	0.001596	28.1283	35.683	0.001726	20671.1	3.519411	178.727	143.04	1.203209	0.131313	0.130941	144.855	20671.1	0.126057	0.464710	311.711	27704.2
27	2.000000	1.206012	7.36531e+06	-39989.1	955.817	-29792.3	0.000000	0.000000	7.212842	167.766	NaN	0.000000	0.001590	0.001633	28.1112	39.1668	0.001876	20874.3	4.562737	-2.124466	162.942	1.205723	0.133745	0.133455	167.766	20874.3	0.127717	0.475795	352.602	27648.8
27	2.000000	1.208559	7.36531e+06	-39989.1	955.818	-29792.3	0.000000	0.000000	7.216250	188.742	NaN	0.000000	0.001544	0.001644	28.0808	42.276	0.001880	22492.2	5.937505	175.437	185.806	1.208240	0.136291	0.135972	188.742	22492.2	0.129998	0.491230	384.223	29319.9
27	2.000000	1.211169	7.36531e+06	-39989.1	955.816	-29792.3	0.000000	0.000000	7.219542	205.319	NaN	0.000000	0.001606	0.001608	28.0893	44.4425	0.001742	25514.8	4.625528	-3.975792	206.111	1.210859	0.138902	0.138592	205.319	25514.8	0.132866	0.510980	401.814	32610.9
27	2.000000	1.213535	7.36531e+06	-39989.1	955.816	-29792.3	0.000000	0.000000	7.222857	228.418	NaN	0.000000	0.001594	0.001621	28.1298	45.8387	0.001771	25881.4	2.647418	177.688	225.504	1.213225	0.141268	0.140957	228.418	25881.4	0.134649	0.523441	436.377	32683.4
27	2.000000	1.216076	7.36531e+06	-39989.1	955.817	-29792.3	0.000000	0.000000	7.226595	257.53	NaN	0.000000	0.001601	0.001648	28.1116	48.0281	0.001829	26252.5	3.888081	-3.658444	253.672	1.215681	0.143809	0.143413	257.53	26252.5	0.136452	0.536196	480.291	32755.4
27	2.000000	1.218598	7.36531e+06	-39989.1	955.818	-29792.3	0.000000	0.000000	7.230091	281.26	NaN	0.000000	0.001609	0.001654	28.0811	51.1225	0.001811	28224.7	4.944760	174.838	282.05	1.218275	0.146330	0.146008	281.26	28224.7	0.138857	0.553441	508.202	34663
27	2.000000	1.221132	7.36531e+06	-39989.1	955.819	-29792.3	0.000000	0.000000	7.233891	312.045	NaN	0.000000	0.001639	0.001631	28.0883	53.2788	0.001862	28606.7	6.660897	-4.616017	311.023	1.220702	0.148865	0.148435	312.045	28606.7	0.140684	0.566722	550.613	34718
27	2.000000	1.223449	7.36531e+06	-39989.1	955.818	-29792.3	0.000000	0.000000	7.236927	329.531	NaN	0.000000	0.001623	0.001647	28.1267	54.3898	0.001805	30127.5	1.847073	177.505	324.67	1.223221	0.151182	0.150954	329.531	30127.5	0.142978	0.583616	564.638	36030.7
27	2.000000	1.226027	7.36531e+06	-39989.1	955.818	-29792.3	0.000000	0.000000	7.240689	358.367	NaN	0.000000	0.001572	0.001641	28.1107	56.9628	0.001839	30977.1	1.390625	-2.213603	353.825	1.225733	0.153760	0.153466	358.367	30977.1	0.145083	0.599328	597.948	36558
27	2.000000	1.228592	7.36531e+06	-39989.1	955.818	-29792.3	0.000000	0.000000	7.244610	391.363	NaN	0.000000	0.001567	0.001625	28.0791	60.3003	0.001885	31987.9	7.970335	172.195	390.659	1.228085	0.156324	0.155818	391.363	31987.9	0.147148	0.614944	636.421	37268.5
27	2.000000	1.231210	7.36531e+06	-39989.1	955.818	-29792.3	0.000000	0.000000	7.247706	402.983	NaN	0.000000	0.001591	0.001657	28.0878	61.3869	0.001856	33067.1	5.255223	-4.603336	410.159	1.230617	0.158943	0.158349	402.983	33067.1	0.149803	0.635307	634.313	37903.3
27	2.000000	1.233434	7.36531e+06	-39989.1	955.818	-29792.3	0.000000	0.000000	7.251441	439.746	NaN	0.000000	0.001566	0.001623	28.128	62.8086	0.001876	33486.2	5.529745	173.571	433.138	1.233079	0.161167	0.160812	439.746	33486.2	0.151318	0.647075	679.591	38033.1
27	2.000000	1.235968	7.36531e+06	-39989.1	955.82	-29792.3	0.000000	0.000000	7.254985	464.341	NaN	0.000000	0.001571	0.001654	28.1116	62.0826	0.001732	35835.9	-1.110272	-0.989099	456.346	1.235624	0.163700	0.163356	464.341	35835.9	0.153982	0.668032	695.088	40058.4
27	2.000000	1.238490	7.36531e+06	-39989.1	955.819	-29792.3	0.000000	0.000000	7.258490	488.266	NaN	0.000000	0.001573	0.001660	28.0822	66.3323	0.001763	37616	2.900867	174.741	483.175	1.238222	0.166222	0.165955	488.266	37616	0.156487	0.688038	709.649	41432.3
27	2.000000	1.241064	7.36531e+06	-39989.1	955.819	-29792.3	0.000000	0.000000	7.262426	521.406	NaN	0.000000	0.001593	0.001612	28.0868	68.1718	0.001894	36003	4.090091	-6.380351	518.107	1.240790	0.168796	0.168522	521.406	36003	0.157935	0.699733	745.15	39322.9
27	2.000000	1.242572	7.36531e+06	-39989.1	955.819	-29792.3	0.000000	0.000000	7.265031	548.098	NaN	0.000000	0.001597	0.001632	28.0787	70.6304	0.001914	36899.8	7.398651	171.804	546.934	1.242089	0.170305	0.169822	548.098	36899.8	0.159164	0.709744	772.247	40017.2