File: remote_trans/data/nanoindenter/0828-1/data/Data_2025-08-06,11h17m57s/2025-07-22_16-23-58_1_1164.txt
2025-07-22, 16:23:58, 1
Index	Phase	Displacement	Time	Pos X	Pos Y	Pos Z	Rot A	Rot B	Piezo Z	Force A	Force B	Gripper	Voltage A	Voltage B	Temperature	Amplitude force	Amplitude pos	Stiffness	Phase shift	Phase excitation	Force A raw	Displacement raw	HMax	HMax raw	Real Force	Real Stiffness	Contact Depth	Area	Hardness	Reduced Mod.
[#]	[#]	[um]	[s]	[um]	[um]	[um]	[m°]	[m°]	[um]	[uN]	[uN]	[V]	[V]	[V]	[°C]	[uN]	[um]	[N/m]	[°]	[°]	[uN]	[um]	[um]	[um]	[uN]	[N/m]	[um]	[um^2]	[MPa]	[MPa]
1164	1.000000	0.002607	7.37644e+06	-57389.1	1105.82	-29736.8	0.000000	0.000000	6.002789	0.024472	NaN	0.000000	0.001684	0.001671	28.0804	0.091481	0.001033	88.517	148.05	-165.171	0.042765	0.001361	-1.075901	-1.077148	0.024472	88.517	-1.076109	-2.394690E+14	-1.021948E-16	NaN
1164	1.000000	0.012687	7.37644e+06	-57389.1	1105.82	-29736.8	0.000000	0.000000	6.012867	-0.018946	NaN	0.000000	0.001644	0.001685	28.0804	0.075797	0.001169	64.8245	69.5491	13.3188	-0.011011	0.011288	-1.065821	-1.067220	-0.018946	64.8245	-1.065602	-1.730196E+14	1.095022E-16	NaN
1164	1.000000	0.022577	7.37644e+06	-57389.1	1105.82	-29736.8	0.000000	0.000000	6.022757	-0.022896	NaN	0.000000	0.001662	0.001658	28.0809	0.141693	0.001766	80.2519	122.037	-169.318	0.031738	0.021255	-1.055931	-1.057253	-0.022896	80.2519	-1.055717	-1.274272E+14	1.796784E-16	NaN
1164	1.000000	0.032550	7.37644e+06	-57389.1	1105.82	-29736.8	0.000000	0.000000	6.032729	-0.033972	NaN	0.000000	0.001651	0.001675	28.0819	0.127340	0.002004	63.5326	145.432	15.7549	-0.035335	0.031201	-1.045959	-1.047307	-0.033972	63.5326	-1.045558	-9.304511E+13	3.651100E-16	NaN
1164	1.000000	0.042600	7.37644e+06	-57389.1	1105.82	-29736.8	0.000000	0.000000	6.042780	-0.014533	NaN	0.000000	0.001640	0.001664	28.0819	0.053195	0.002005	26.5325	112.988	-166.268	-0.069320	0.041249	-1.035908	-1.037260	-0.014533	26.5325	-1.035498	-6.814310E+13	2.132752E-16	NaN
1164	1.000000	0.052602	7.37644e+06	-57389.1	1105.82	-29736.8	0.000000	0.000000	6.052782	-0.011413	NaN	0.000000	0.001645	0.001666	28.082	0.093772	0.001958	47.892	27.6989	14.7324	-0.016533	0.051214	-1.025906	-1.027295	-0.011413	47.892	-1.025728	-5.035140E+13	2.266572E-16	NaN
1164	1.000000	0.062595	7.37644e+06	-57389.1	1105.82	-29736.8	0.000000	0.000000	6.062777	0.033361	NaN	0.000000	0.001646	0.001662	28.0818	0.068768	0.001999	34.4074	10.7215	-166.061	-0.013869	0.061210	-1.015913	-1.017299	0.033361	34.4074	-1.016640	-3.799668E+13	-8.779888E-16	NaN
1164	1.000000	0.072599	7.37644e+06	-57389.1	1105.82	-29736.8	0.000000	0.000000	6.072779	-0.017415	NaN	0.000000	0.001634	0.001642	28.0817	0.092571	0.001905	48.5988	-131.284	15.241	0.014962	0.071250	-1.005909	-1.007259	-0.017415	48.5988	-1.005641	-2.702126E+13	6.444900E-16	NaN
1164	1.000000	0.082541	7.37644e+06	-57389.1	1105.82	-29736.8	0.000000	0.000000	6.082721	-0.016398	NaN	0.000000	0.001591	0.001670	28.0819	0.079258	0.002022	39.204	-143.082	-165.727	-0.054144	0.081261	-0.995968	-0.997247	-0.016398	39.204	-0.995654	-1.982669E+13	8.270533E-16	NaN
1164	1.000000	0.092563	7.37644e+06	-57389.1	1105.82	-29736.8	0.000000	0.000000	6.092741	-0.083726	NaN	0.000000	0.001616	0.001711	28.0819	0.055152	0.001906	28.9293	117.872	12.6074	-0.211261	0.091227	-0.985945	-0.987282	-0.083726	28.9293	-0.983774	-1.371693E+13	6.103810E-15	NaN
1164	1.000000	0.102598	7.37644e+06	-57389.1	1105.82	-29736.8	0.000000	0.000000	6.102778	-0.017235	NaN	0.000000	0.001598	0.001682	28.0817	0.043723	0.002001	21.85	-123.764	-165.858	-3.242915E-6	0.101254	-0.975910	-0.977254	-0.017235	21.85	-0.975319	-1.055204E+13	1.633286E-15	NaN
1164	1.000000	0.112597	7.37644e+06	-57389.1	1105.82	-29736.8	0.000000	0.000000	6.112778	-0.009599	NaN	0.000000	0.001639	0.001680	28.0816	0.031530	0.002162	14.5864	43.5765	14.82	0.037276	0.111235	-0.965911	-0.967273	-0.009599	14.5864	-0.965418	-7.760741E+12	1.236807E-15	NaN
1164	1.000000	0.122590	7.37644e+06	-57389.1	1105.82	-29736.8	0.000000	0.000000	6.122771	-0.013634	NaN	0.000000	0.001648	0.001706	28.0819	0.139500	0.001981	70.427	-91.615	-166.406	0.063294	0.121274	-0.955918	-0.957235	-0.013634	70.427	-0.955773	-5.752767E+12	2.369920E-15	NaN
1164	1.000000	0.132638	7.37644e+06	-57389.1	1105.82	-29736.8	0.000000	0.000000	6.132820	0.035481	NaN	0.000000	0.001646	0.001662	28.0818	0.040151	0.001951	20.584	-26.3223	13.5595	3.666996E-5	0.131264	-0.945871	-0.947244	0.035481	20.584	-0.947163	-4.403221E+12	-8.058068E-15	NaN
1164	1.000000	0.142599	7.37644e+06	-57389.1	1105.82	-29736.8	0.000000	0.000000	6.142780	-0.001211	NaN	0.000000	0.001648	0.001701	28.0817	0.040441	0.002056	19.6697	144.525	-163.766	-0.022676	0.141308	-0.935909	-0.937200	-0.001211	19.6697	-0.935863	-3.099668E+12	3.908157E-16	NaN
1164	1.000000	0.152645	7.37644e+06	-57389.1	1105.82	-29736.8	0.000000	0.000000	6.152822	-0.078731	NaN	0.000000	0.001619	0.001659	28.0817	0.099258	0.001981	50.1138	-76.7037	13.0153	0.004179	0.151254	-0.925864	-0.927254	-0.078731	50.1138	-0.924685	-2.190081E+12	3.594906E-14	NaN
1164	1.000000	0.162612	7.37644e+06	-57389.1	1105.82	-29736.8	0.000000	0.000000	6.162792	-0.010270	NaN	0.000000	0.001642	0.001673	28.081	0.079090	0.001932	40.9445	49.8531	-168.682	0.030932	0.161295	-0.915896	-0.917213	-0.010270	40.9445	-0.915708	-1.656742E+12	6.199009E-15	NaN
1164	1.000000	0.172630	7.37644e+06	-57389.1	1105.82	-29736.8	0.000000	0.000000	6.172807	-0.102853	NaN	0.000000	0.001622	0.001688	28.0808	0.060661	0.001987	30.5302	-26.2716	19.1493	-0.041805	0.171280	-0.905878	-0.907228	-0.102853	30.5302	-0.903352	-1.128115E+12	9.117284E-14	NaN
1164	1.000000	0.182617	7.37644e+06	-57389.1	1105.82	-29736.8	0.000000	0.000000	6.182797	-0.024706	NaN	0.000000	0.001653	0.001694	28.0807	0.089470	0.001876	47.7025	-2.458911	-165.734	-0.039140	0.181286	-0.895891	-0.897222	-0.024706	47.7025	-0.895503	-8.836691E+11	2.795847E-14	NaN
1164	1.000000	0.192635	7.37644e+06	-57389.1	1105.82	-29736.8	0.000000	0.000000	6.192814	-0.031960	NaN	0.000000	0.001621	0.001632	28.0805	0.025723	0.001873	13.7345	-86.9634	16.671	0.005976	0.191264	-0.885874	-0.887244	-0.031960	13.7345	-0.884128	-6.202039E+11	5.153087E-14	NaN
1164	1.000000	0.202627	7.37644e+06	-57389.1	1105.82	-29736.8	0.000000	0.000000	6.202809	0.013163	NaN	0.000000	0.001632	0.001663	28.081	0.106379	0.002064	51.5375	34.7892	-164.19	-0.007700	0.201308	-0.875881	-0.877200	0.013163	51.5375	-0.876072	-4.826021E+11	-2.727552E-14	NaN
1164	1.000000	0.212617	7.37644e+06	-57389.1	1105.82	-29736.8	0.000000	0.000000	6.212798	0.022012	NaN	0.000000	0.001661	0.001654	28.0807	0.113775	0.002193	51.8829	49.0574	11.2858	0.045219	0.211258	-0.865892	-0.867251	0.022012	51.8829	-0.866210	-3.549459E+11	-6.201612E-14	NaN
1164	1.000000	0.222633	7.37644e+06	-57389.1	1105.82	-29736.8	0.000000	0.000000	6.222813	-0.009766	NaN	0.000000	0.001665	0.001699	28.0806	0.032102	0.002044	15.7048	151.499	-161.316	0.066307	0.221293	-0.855875	-0.857216	-0.009766	15.7048	-0.855409	-2.534976E+11	3.852438E-14	NaN
1164	1.000000	0.232646	7.37644e+06	-57389.1	1105.82	-29736.8	0.000000	0.000000	6.232828	0.021856	NaN	0.000000	0.001642	0.001726	28.0807	0.116582	0.001975	59.016	83.1904	13.9814	0.032128	0.231258	-0.845862	-0.847250	0.021856	59.016	-0.846140	-1.898713E+11	-1.151116E-13	NaN
1164	1.000000	0.242648	7.37644e+06	-57389.1	1105.82	-29736.8	0.000000	0.000000	6.242830	0.023871	NaN	0.000000	0.001656	0.001697	28.0809	0.040709	0.002094	19.4441	-152.6	-165.751	-0.001684	0.241356	-0.835861	-0.837153	0.023871	19.4441	-0.836781	-1.418024E+11	-1.683404E-13	NaN
1164	1.000000	0.252676	7.37644e+06	-57389.1	1105.82	-29736.8	0.000000	0.000000	6.252858	0.027658	NaN	0.000000	0.001673	0.001697	28.0806	0.063241	0.002025	31.2334	142.414	14.4851	0.058842	0.251271	-0.825832	-0.827238	0.027658	31.2334	-0.826497	-1.028714E+11	-2.688641E-13	NaN
1164	1.000000	0.262650	7.37644e+06	-57389.1	1105.82	-29736.8	0.000000	0.000000	6.262829	-0.039601	NaN	0.000000	0.001655	0.001667	28.0806	0.055876	0.001909	29.2677	98.6187	-165.436	0.044773	0.261340	-0.815858	-0.817168	-0.039601	29.2677	-0.814843	-7.149494E+10	5.539055E-13	NaN
1164	1.000000	0.272646	7.37644e+06	-57389.1	1105.82	-29736.8	0.000000	0.000000	6.272828	0.025303	NaN	0.000000	0.001668	0.001669	28.0809	0.066816	0.002055	32.5091	127.094	15.436	0.040046	0.271304	-0.805862	-0.807205	0.025303	32.5091	-0.806446	-5.499792E+10	-4.600760E-13	NaN
1164	1.000000	0.282635	7.37644e+06	-57389.1	1105.82	-29736.8	0.000000	0.000000	6.282811	-0.101433	NaN	0.000000	0.001682	0.001674	28.0808	0.096138	0.001898	50.6401	133.395	-167.447	-0.046312	0.281341	-0.795874	-0.797167	-0.101433	50.6401	-0.794371	-3.770907E+10	2.689889E-12	NaN
1164	1.000000	0.292637	7.37644e+06	-57389.1	1105.82	-29736.8	0.000000	0.000000	6.292818	-0.002440	NaN	0.000000	0.001655	0.001643	28.0807	0.080837	0.002046	39.5003	-116.237	15.1933	0.028145	0.291323	-0.785871	-0.787186	-0.002440	39.5003	-0.785825	-2.886506E+10	8.454397E-14	NaN
1164	1.000000	0.302674	7.37644e+06	-57389.1	1105.82	-29736.8	0.000000	0.000000	6.302856	0.026057	NaN	0.000000	0.001646	0.001645	28.0821	0.049704	0.001981	25.0924	9.515992	-163.751	-0.021570	0.301378	-0.775834	-0.777131	0.026057	25.0924	-0.776613	-2.163715E+10	-1.204275E-12	NaN
1164	1.000000	0.312665	7.37644e+06	-57389.1	1105.82	-29736.8	0.000000	0.000000	6.312842	-0.107806	NaN	0.000000	0.001640	0.001679	28.0821	0.042134	0.001982	21.2589	62.7579	15.1606	-0.105003	0.311286	-0.765843	-0.767223	-0.107806	21.2589	-0.762040	-1.371037E+10	7.863082E-12	NaN
1164	1.000000	0.322671	7.37644e+06	-57389.1	1105.82	-29736.8	0.000000	0.000000	6.322852	-0.005562	NaN	0.000000	0.001645	0.001624	28.0819	0.056906	0.001930	29.4923	-69.1298	-164.623	-0.021370	0.321353	-0.755837	-0.757155	-0.005562	29.4923	-0.755696	-1.123939E+10	4.948780E-13	NaN
1164	1.000000	0.332691	7.37644e+06	-57389.1	1105.82	-29736.8	0.000000	0.000000	6.332873	0.007994	NaN	0.000000	0.001615	0.001630	28.0819	0.110631	0.002050	53.9562	-142.005	16.2981	-0.097672	0.331304	-0.745817	-0.747204	0.007994	53.9562	-0.745928	-8.275305E+9	-9.659862E-13	NaN
1164	1.000000	0.342713	7.37644e+06	-57389.1	1105.82	-29736.8	0.000000	0.000000	6.342893	-0.022707	NaN	0.000000	0.001657	0.001680	28.0819	0.042173	0.002025	20.8299	114.852	-164.052	0.002912	0.341388	-0.735796	-0.737120	-0.022707	20.8299	-0.734978	-5.870090E+9	3.868178E-12	NaN
1164	1.000000	0.352668	7.37644e+06	-57389.1	1105.82	-29736.8	0.000000	0.000000	6.352848	-0.013635	NaN	0.000000	0.001650	0.001640	28.0822	0.024580	0.001958	12.5517	-66.9623	14.4905	-0.047052	0.351276	-0.725840	-0.727232	-0.013635	12.5517	-0.725025	-4.295352E+9	3.174277E-12	NaN
1164	1.000000	0.362704	7.37644e+06	-57389.1	1105.82	-29736.8	0.000000	0.000000	6.362881	-0.091717	NaN	0.000000	0.001604	0.001636	28.0819	0.053447	0.002016	26.5144	-25.2866	-164.724	-0.112710	0.361422	-0.715804	-0.717086	-0.091717	26.5144	-0.713210	-2.963801E+9	3.094565E-11	NaN
1164	1.000000	0.372701	7.37644e+06	-57389.1	1105.82	-29736.8	0.000000	0.000000	6.372885	0.063836	NaN	0.000000	0.001612	0.001639	28.082	0.078687	0.001900	41.4233	5.066769	15.4036	0.027571	0.371338	-0.705807	-0.707171	0.063836	41.4233	-0.706963	-2.435535E+9	-2.621012E-11	NaN
1164	1.000000	0.382706	7.37644e+06	-57389.1	1105.82	-29736.8	0.000000	0.000000	6.382888	0.031723	NaN	0.000000	0.001569	0.001672	28.082	0.066768	0.002071	32.2328	174.455	-165.453	0.034074	0.381407	-0.695802	-0.697101	0.031723	32.2328	-0.696540	-1.755007E+9	-1.807590E-11	NaN
1164	1.000000	0.392712	7.37644e+06	-57389.1	1105.82	-29736.8	0.000000	0.000000	6.392892	-0.017356	NaN	0.000000	0.001595	0.001672	28.0821	0.130411	0.002016	64.676	39.9304	16.2605	-0.011891	0.391349	-0.685796	-0.687159	-0.017356	64.676	-0.685595	-1.243673E+9	1.395574E-11	NaN
1164	1.000000	0.402705	7.37644e+06	-57389.1	1105.82	-29736.8	0.000000	0.000000	6.402886	0.002466	NaN	0.000000	0.001612	0.001688	28.082	0.026928	0.002038	13.2107	-77.9028	-163.016	-0.030207	0.401398	-0.675803	-0.677110	0.002466	13.2107	-0.675943	-9.177239E+8	-2.687598E-12	NaN
1164	1.000000	0.412705	7.37644e+06	-57389.1	1105.82	-29736.8	0.000000	0.000000	6.412881	-0.106040	NaN	0.000000	0.001659	0.001699	28.082	0.050140	0.002098	23.8939	53.2206	16.2148	-0.030689	0.411389	-0.665803	-0.667120	-0.106040	23.8939	-0.662475	-6.002987E+8	1.766449E-10	NaN
1164	1.000000	0.422751	7.37644e+06	-57389.1	1105.82	-29736.8	0.000000	0.000000	6.422930	-0.033080	NaN	0.000000	0.001607	0.001680	28.0821	0.060715	0.002065	29.4042	-29.3612	-167.355	-0.092310	0.421438	-0.655757	-0.657070	-0.033080	29.4042	-0.654914	-4.729164E+8	6.994817E-11	NaN
1164	1.000000	0.432726	7.37644e+06	-57389.1	1105.82	-29736.8	0.000000	0.000000	6.432904	-0.053425	NaN	0.000000	0.001590	0.001676	28.0821	0.055614	0.002154	25.8209	-163.6	16.8515	-0.038564	0.431319	-0.645783	-0.647190	-0.053425	25.8209	-0.644231	-3.375419E+8	1.582758E-10	NaN
1164	1.000000	0.442741	7.37644e+06	-57389.1	1105.82	-29736.8	0.000000	0.000000	6.442922	0.013235	NaN	0.000000	0.001589	0.001705	28.0807	0.086475	0.002022	42.7638	173.357	-167.376	-0.038560	0.441390	-0.635767	-0.637119	0.013235	42.7638	-0.635999	-2.602491E+8	-5.085454E-11	NaN
1164	1.000000	0.452731	7.37644e+06	-57389.1	1105.82	-29736.8	0.000000	0.000000	6.452913	0.012135	NaN	0.000000	0.001639	0.001700	28.081	0.131626	0.002052	64.1335	-175.07	17.0006	0.045973	0.451366	-0.625777	-0.627142	0.012135	64.1335	-0.625919	-1.892209E+8	-6.412997E-11	NaN
1164	1.000000	0.462751	7.37644e+06	-57389.1	1105.82	-29736.8	0.000000	0.000000	6.462930	-0.044987	NaN	0.000000	0.001591	0.001712	28.081	0.126533	0.001921	65.8715	-126.385	-161.522	-0.019551	0.461433	-0.615757	-0.617075	-0.044987	65.8715	-0.615245	-1.349758E+8	3.332984E-10	NaN
1164	1.000000	0.472751	7.37644e+06	-57389.1	1105.82	-29736.8	0.000000	0.000000	6.472931	-0.006704	NaN	0.000000	0.001590	0.001692	28.0808	0.055101	0.002097	26.2804	-74.2976	16.8697	-0.095993	0.471293	-0.605758	-0.607215	-0.006704	26.2804	-0.605566	-9.933491E+7	6.749250E-11	NaN
1164	1.000000	0.482753	7.37644e+06	-57389.1	1105.82	-29736.8	0.000000	0.000000	6.482934	0.006321	NaN	0.000000	0.001578	0.001690	28.0807	0.036985	0.001981	18.6697	155.292	-164.282	-0.071076	0.481426	-0.595755	-0.597082	0.006321	18.6697	-0.596009	-7.336447E+7	-8.615515E-11	NaN
1164	1.000000	0.492755	7.37644e+06	-57389.1	1105.82	-29736.8	0.000000	0.000000	6.492937	0.031152	NaN	0.000000	0.001592	0.001728	28.0812	0.020250	0.002140	9.461477	87.5682	16.6178	0.026939	0.491378	-0.585753	-0.587130	0.031152	9.461477	-0.588223	-5.730072E+7	-5.436668E-10	NaN
1164	1.000000	0.502766	7.37644e+06	-57389.1	1105.82	-29736.8	0.000000	0.000000	6.502943	-0.092758	NaN	0.000000	0.001568	0.001721	28.0807	0.023774	0.001985	11.9773	-35.4083	-161.375	-0.085954	0.501434	-0.575743	-0.577074	-0.092758	11.9773	-0.569934	-3.204232E+7	2.894844E-9	NaN
1164	1.000000	0.512774	7.37644e+06	-57389.1	1105.82	-29736.8	0.000000	0.000000	6.512954	-0.005621	NaN	0.000000	0.001582	0.001724	28.0809	0.066769	0.002045	32.6513	-173.779	13.3143	0.003669	0.511352	-0.565735	-0.567157	-0.005621	32.6513	-0.565606	-2.791895E+7	2.013372E-10	NaN
1164	1.000000	0.522724	7.37644e+06	-57389.1	1105.82	-29736.8	0.000000	0.000000	6.522906	0.010480	NaN	0.000000	0.001589	0.001689	28.0809	0.045433	0.001991	22.8234	73.7886	-162.181	0.060983	0.521455	-0.555784	-0.557053	0.010480	22.8234	-0.556128	-2.064457E+7	-5.076287E-10	NaN
1164	1.000000	0.532767	7.37644e+06	-57389.1	1105.82	-29736.8	0.000000	0.000000	6.532948	-0.002442	NaN	0.000000	0.001570	0.001681	28.0811	0.062080	0.002066	30.0463	-61.8945	14.1453	0.055741	0.531368	-0.545741	-0.547140	-0.002442	30.0463	-0.545680	-1.479459E+7	1.650347E-10	NaN
1164	1.000000	0.542754	7.37644e+06	-57389.1	1105.82	-29736.8	0.000000	0.000000	6.542935	0.011535	NaN	0.000000	0.001591	0.001679	28.081	0.145061	0.002059	70.4583	-170.332	-169.461	-0.025051	0.541488	-0.535755	-0.537020	0.011535	70.4583	-0.535878	-1.081853E+7	-1.066245E-9	NaN
1164	1.000000	0.552778	7.37644e+06	-57389.1	1105.82	-29736.8	0.000000	0.000000	6.552956	-0.066056	NaN	0.000000	0.001583	0.001685	28.0809	0.100317	0.001959	51.2021	147.882	11.8616	-0.065020	0.551456	-0.525731	-0.527052	-0.066056	51.2021	-0.524763	-7.58261e+06	8.711491E-9	NaN
1164	1.000000	0.562772	7.37644e+06	-57389.1	1105.82	-29736.8	0.000000	0.000000	6.562951	-0.042201	NaN	0.000000	0.001588	0.001732	28.081	0.028233	0.002082	13.5635	56.6533	-164.584	-0.052376	0.561483	-0.515737	-0.517025	-0.042201	13.5635	-0.513403	-5.26995e+06	8.007832E-9	NaN
1164	1.000000	0.572787	7.37644e+06	-57389.1	1105.82	-29736.8	0.000000	0.000000	6.572965	-0.069582	NaN	0.000000	0.001629	0.001730	28.0821	0.038225	0.001964	19.466	145.379	16.0455	-0.103200	0.571437	-0.505721	-0.507072	-0.069582	19.466	-0.503040	-3.77938e+06	1.841105E-8	NaN
1164	1.000000	0.582765	7.37644e+06	-57389.1	1105.82	-29736.8	0.000000	0.000000	6.582944	-0.057064	NaN	0.000000	0.001642	0.001723	28.0822	0.116981	0.001952	59.9419	82.417	-165.753	-0.086885	0.581477	-0.495743	-0.497032	-0.057064	59.9419	-0.495029	-2.92174e+06	1.953080E-8	NaN
1164	1.000000	0.592781	7.37644e+06	-57389.1	1105.82	-29736.8	0.000000	0.000000	6.592958	-0.094728	NaN	0.000000	0.001619	0.001718	28.0822	0.037719	0.001943	19.4175	166.016	15.4188	-0.052250	0.591433	-0.485727	-0.487076	-0.094728	19.4175	-0.482068	-1.9252e+06	4.920438E-8	NaN
1164	1.000000	0.602797	7.37644e+06	-57389.1	1105.82	-29736.8	0.000000	0.000000	6.602978	-0.004756	NaN	0.000000	0.001575	0.001688	28.0823	0.107827	0.002165	49.8053	99.3945	-160.318	0.043597	0.601438	-0.475711	-0.477071	-0.004756	49.8053	-0.475640	-1.56482e+06	3.039586E-9	NaN
1164	1.000000	0.612812	7.37644e+06	-57389.1	1105.82	-29736.8	0.000000	0.000000	6.612993	-0.000801	NaN	0.000000	0.001584	0.001691	28.0822	0.061395	0.002102	29.2102	169.146	14.9518	-0.011299	0.611444	-0.465696	-0.467065	-0.000801	29.2102	-0.465675	-1.1343e+06	7.060486E-10	NaN
1164	1.000000	0.622801	7.37644e+06	-57389.1	1105.82	-29736.8	0.000000	0.000000	6.622982	-0.007723	NaN	0.000000	0.001620	0.001699	28.0822	0.069038	0.001975	34.9626	163.551	-164.453	-0.033135	0.621523	-0.455707	-0.456986	-0.007723	34.9626	-0.455542	-817217	9.449825E-9	NaN
1164	1.000000	0.632807	7.37644e+06	-57389.1	1105.82	-29736.8	0.000000	0.000000	6.632990	0.040527	NaN	0.000000	0.001544	0.001742	28.0822	0.046913	0.001983	23.6609	100.221	15.7994	0.075147	0.631424	-0.445701	-0.447085	0.040527	23.6609	-0.446986	-619267	-6.544354E-8	NaN
1164	1.000000	0.642848	7.37644e+06	-57389.1	1105.82	-29736.8	0.000000	0.000000	6.643031	0.054947	NaN	0.000000	0.001574	0.001703	28.0825	0.103271	0.002003	51.5473	111.484	-165.019	-0.049125	0.641459	-0.435660	-0.437049	0.054947	51.5473	-0.436459	-439919	-1.249032E-7	NaN
1164	1.000000	0.652808	7.37644e+06	-57389.1	1105.82	-29736.8	0.000000	0.000000	6.652987	-0.046808	NaN	0.000000	0.001597	0.001690	28.0822	0.139813	0.002001	69.8666	-129.872	11.6462	-0.061958	0.651487	-0.425700	-0.427022	-0.046808	69.8666	-0.425198	-304848	1.535446E-7	NaN
1164	1.000000	0.662826	7.37644e+06	-57389.1	1105.82	-29736.8	0.000000	0.000000	6.663005	-0.054594	NaN	0.000000	0.001563	0.001700	28.0824	0.073316	0.002067	35.4652	-73.652	-165.328	-0.099153	0.661547	-0.415682	-0.416961	-0.054594	35.4652	-0.414527	-215152	2.537444E-7	NaN
1164	1.000000	0.672810	7.37644e+06	-57389.1	1105.82	-29736.8	0.000000	0.000000	6.672990	-0.021070	NaN	0.000000	0.001601	0.001677	28.0822	0.114549	0.001982	57.7891	172.422	15.868	-0.003679	0.671438	-0.405698	-0.407070	-0.021070	57.7891	-0.405425	-159697	1.319379E-7	NaN
1164	1.000000	0.682823	7.37644e+06	-57389.1	1105.82	-29736.8	0.000000	0.000000	6.683004	0.000958	NaN	0.000000	0.001598	0.001694	28.0824	0.040324	0.002043	19.7381	148.529	-162.687	-0.028613	0.681543	-0.395685	-0.396965	0.000958	19.7381	-0.395722	-116130	-8.249975E-9	NaN
1164	1.000000	0.692849	7.37644e+06	-57389.1	1105.82	-29736.8	0.000000	0.000000	6.693029	-0.005753	NaN	0.000000	0.001584	0.001714	28.0822	0.079100	0.001941	40.7589	124.786	17.3784	-0.031536	0.691460	-0.385660	-0.387048	-0.005753	40.7589	-0.385554	-83084.3	6.924001E-8	NaN
1164	1.000000	0.702825	7.37644e+06	-57389.1	1105.82	-29736.8	0.000000	0.000000	6.703008	0.051315	NaN	0.000000	0.001594	0.001691	28.0822	0.079420	0.002127	37.3312	168.171	-166.671	0.067479	0.701467	-0.375683	-0.377041	0.051315	37.3312	-0.376714	-62044.7	-8.270632E-7	NaN
1164	1.000000	0.712842	7.37644e+06	-57389.1	1105.82	-29736.8	0.000000	0.000000	6.713021	-0.049533	NaN	0.000000	0.001541	0.001681	28.0812	0.051027	0.002098	24.3188	21.4371	13.6895	-0.007676	0.711484	-0.365666	-0.367025	-0.049533	24.3188	-0.364139	-40890.8	1.211336E-6	NaN
1164	1.000000	0.722845	7.37644e+06	-57389.1	1105.82	-29736.8	0.000000	0.000000	6.723025	-0.039179	NaN	0.000000	0.001593	0.001713	28.0812	0.111650	0.001945	57.3976	118.888	-165.939	-0.057177	0.721548	-0.355663	-0.356960	-0.039179	57.3976	-0.355151	-30316.7	1.292328E-6	NaN
1164	1.000000	0.732848	7.37644e+06	-57389.1	1105.82	-29736.8	0.000000	0.000000	6.733028	-0.032843	NaN	0.000000	0.001631	0.001716	28.0806	0.044230	0.002061	21.464	68.4115	12.0056	0.036724	0.731502	-0.345660	-0.347007	-0.032843	21.464	-0.344512	-21245.4	1.545911E-6	NaN
1164	1.000000	0.742837	7.37644e+06	-57389.1	1105.82	-29736.8	0.000000	0.000000	6.743016	-0.030040	NaN	0.000000	0.001680	0.001699	28.081	0.070320	0.001953	36.0003	118.01	-166.763	-0.066484	0.741519	-0.335672	-0.336989	-0.030040	36.0003	-0.335046	-15461.7	1.942879E-6	NaN
1164	1.000000	0.752870	7.37644e+06	-57389.1	1105.82	-29736.8	0.000000	0.000000	6.753049	-0.053416	NaN	0.000000	0.001660	0.001692	28.081	0.144393	0.001966	73.4575	-59.4965	14.8088	-0.099270	0.751474	-0.325638	-0.327035	-0.053416	73.4575	-0.325093	-11053.5	4.832454E-6	NaN
1164	1.000000	0.762859	7.37644e+06	-57389.1	1105.82	-29736.8	0.000000	0.000000	6.763040	0.002110	NaN	0.000000	0.001666	0.001673	28.0809	0.059991	0.002001	29.9833	-49.8881	-165.638	0.039562	0.761546	-0.315649	-0.316962	0.002110	29.9833	-0.315702	-8040.86	-2.623583E-7	NaN
1164	1.000000	0.772854	7.37644e+06	-57389.1	1105.82	-29736.8	0.000000	0.000000	6.773032	-0.068996	NaN	0.000000	0.001679	0.001669	28.081	0.018312	0.002075	8.825429	-169.06	15.9525	0.039605	0.771538	-0.305655	-0.306970	-0.068996	8.825429	-0.299791	-4672.31	1.476691E-5	NaN
1164	1.000000	0.782875	7.37644e+06	-57389.1	1105.82	-29736.8	0.000000	0.000000	6.783058	0.046474	NaN	0.000000	0.001679	0.001691	28.0809	0.096024	0.002005	47.8964	-131.039	-164.163	0.046493	0.781553	-0.295633	-0.296956	0.046474	47.8964	-0.296361	-4153.42	-1.118936E-5	NaN
1164	1.000000	0.792878	7.37644e+06	-57389.1	1105.82	-29736.8	0.000000	0.000000	6.793059	0.012638	NaN	0.000000	0.001664	0.001671	28.0808	0.033836	0.001856	18.2303	-30.4557	16.0521	-0.042251	0.791491	-0.285631	-0.287017	0.012638	18.2303	-0.286151	-2921.18	-4.326428E-6	NaN
1164	1.000000	0.802869	7.37644e+06	-57389.1	1105.82	-29736.8	0.000000	0.000000	6.803052	0.056818	NaN	0.000000	0.001674	0.001658	28.081	0.018812	0.001929	9.754693	74.4807	-163.896	0.019362	0.801612	-0.275640	-0.276896	0.056818	9.754693	-0.280008	-2360.98	-2.406542E-5	NaN
1164	1.000000	0.812892	7.37644e+06	-57389.1	1105.82	-29736.8	0.000000	0.000000	6.813073	0.011007	NaN	0.000000	0.001652	0.001668	28.0809	0.074759	0.002039	36.6587	51.3156	12.7668	0.060167	0.811503	-0.265617	-0.267006	0.011007	36.6587	-0.265842	-1439.58	-7.646195E-6	NaN
1164	1.000000	0.822924	7.37644e+06	-57389.1	1105.82	-29736.8	0.000000	0.000000	6.823102	-0.057381	NaN	0.000000	0.001607	0.001719	28.081	0.046178	0.002074	22.2606	11.6497	-164.276	-0.038190	0.821565	-0.255585	-0.256944	-0.057381	22.2606	-0.253651	-936.14	6.129534E-5	NaN
1164	1.000000	0.832903	7.37644e+06	-57389.1	1105.82	-29736.8	0.000000	0.000000	6.833082	-0.065318	NaN	0.000000	0.001682	0.001722	28.0808	0.065375	0.002031	32.1863	-4.211315	14.1181	-0.094072	0.831518	-0.245605	-0.246990	-0.065318	32.1863	-0.244083	-665.567	9.813899E-5	NaN
1164	1.000000	0.842871	7.37644e+06	-57389.1	1105.82	-29736.8	0.000000	0.000000	6.843049	-0.058195	NaN	0.000000	0.001669	0.001682	28.0809	0.064810	0.002020	32.0884	-90.1492	-170.548	-0.021740	0.841615	-0.235638	-0.236893	-0.058195	32.0884	-0.234278	-467.627	0.000124	NaN
1164	1.000000	0.852895	7.37644e+06	-57389.1	1105.82	-29736.8	0.000000	0.000000	6.853075	-0.010803	NaN	0.000000	0.001679	0.001672	28.0823	0.013006	0.002089	6.226681	-79.4889	16.9761	0.058733	0.851623	-0.225614	-0.226885	-0.010803	6.226681	-0.224312	-325.394	3.320066E-5	NaN
1164	1.000000	0.862941	7.37644e+06	-57389.1	1105.82	-29736.8	0.000000	0.000000	6.863117	-0.123041	NaN	0.000000	0.001638	0.001691	28.0823	0.057794	0.002229	25.9327	25.0686	-164.604	-0.129623	0.861611	-0.215568	-0.216897	-0.123041	25.9327	-0.212009	-206.685	0.000595	NaN
1164	1.000000	0.872917	7.37644e+06	-57389.1	1105.82	-29736.8	0.000000	0.000000	6.873097	-0.016921	NaN	0.000000	0.001594	0.001686	28.0821	0.102447	0.002091	48.9946	-159.039	17.2173	-0.068847	0.871561	-0.205591	-0.206947	-0.016921	48.9946	-0.205332	-161.055	0.000105	NaN
1164	1.000000	0.882911	7.37644e+06	-57389.1	1105.82	-29736.8	0.000000	0.000000	6.883092	-0.002400	NaN	0.000000	0.001631	0.001715	28.082	0.026200	0.001899	13.797	-91.5775	-161.417	-0.021011	0.881675	-0.195597	-0.196833	-0.002400	13.797	-0.195467	-110.899	2.163897E-5	NaN
1164	1.000000	0.892914	7.37644e+06	-57389.1	1105.82	-29736.8	0.000000	0.000000	6.893095	-0.013354	NaN	0.000000	0.001598	0.001685	28.0835	0.082901	0.001928	43.0057	-139.662	14.2072	0.011416	0.891560	-0.185594	-0.186948	-0.013354	43.0057	-0.185361	-75.1997	0.000178	NaN
1164	1.000000	0.902916	7.37644e+06	-57389.1	1105.82	-29736.8	0.000000	0.000000	6.903095	-0.025604	NaN	0.000000	0.001593	0.001705	28.0821	0.053806	0.001936	27.7949	-118.3	-169.537	-0.055227	0.901610	-0.175593	-0.176899	-0.025604	27.7949	-0.174902	-49.9222	0.000513	NaN
1164	1.000000	0.912914	7.37644e+06	-57389.1	1105.82	-29736.8	0.000000	0.000000	6.913095	-0.000514	NaN	0.000000	0.001593	0.001641	28.0823	0.130064	0.001979	65.7357	139.844	18.3413	0.029668	0.911575	-0.165594	-0.166934	-0.000514	65.7357	-0.165588	-34.4055	1.493908E-5	NaN
1164	1.000000	0.922940	7.37644e+06	-57389.1	1105.82	-29736.8	0.000000	0.000000	6.923119	-0.040257	NaN	0.000000	0.001608	0.001684	28.0819	0.120437	0.001910	63.0563	58.1614	-166.683	-0.069271	0.921599	-0.155568	-0.156909	-0.040257	63.0563	-0.155090	-22.3972	0.001797	NaN
1164	1.000000	0.932938	7.37644e+06	-57389.1	1105.82	-29736.8	0.000000	0.000000	6.933117	-0.044440	NaN	0.000000	0.001631	0.001692	28.0823	0.051934	0.001944	26.7198	-170.426	15.5831	-0.030554	0.931547	-0.145571	-0.146962	-0.044440	26.7198	-0.144323	-14.244	0.003120	NaN
1164	1.000000	0.942939	7.37644e+06	-57389.1	1105.82	-29736.8	0.000000	0.000000	6.943120	0.004455	NaN	0.000000	0.001607	0.001694	28.082	0.028276	0.001976	14.3133	-106.211	-163.035	0.058279	0.941619	-0.135569	-0.136889	0.004455	14.3133	-0.135803	-9.853627	-0.000452	NaN
1164	1.000000	0.952948	7.37644e+06	-57389.1	1105.82	-29736.8	0.000000	0.000000	6.953126	-0.067026	NaN	0.000000	0.001597	0.001703	28.0823	0.065800	0.002065	31.8649	-151.247	10.2797	-0.062944	0.951574	-0.125560	-0.126935	-0.067026	31.8649	-0.123983	-5.805271	0.011546	NaN
1164	1.000000	0.962945	7.37644e+06	-57389.1	1105.82	-29736.8	0.000000	0.000000	6.963124	-0.039490	NaN	0.000000	0.001591	0.001686	28.082	0.040328	0.001923	20.9658	-54.7327	-165.716	-0.027772	0.961642	-0.115564	-0.116866	-0.039490	20.9658	-0.114151	-3.669175	0.010763	NaN
1164	1.000000	0.972924	7.37644e+06	-57389.1	1105.82	-29736.8	0.000000	0.000000	6.973103	-0.038996	NaN	0.000000	0.001581	0.001699	28.0822	0.042578	0.001989	21.4111	-98.7634	14.4191	-0.031621	0.971561	-0.105585	-0.106948	-0.038996	21.4111	-0.104219	-2.260800	0.017249	NaN
1164	1.000000	0.982977	7.37644e+06	-57389.1	1105.82	-29736.8	0.000000	0.000000	6.983160	0.045830	NaN	0.000000	0.001611	0.001725	28.0809	0.029091	0.001978	14.7044	-149.763	-165.092	0.066084	0.981638	-0.095532	-0.096870	0.045830	14.7044	-0.097869	-1.637819	-0.027983	NaN
1164	1.000000	0.992975	7.37644e+06	-57389.1	1105.82	-29736.8	0.000000	0.000000	6.993155	-0.004407	NaN	0.000000	0.001608	0.001691	28.081	0.034423	0.001947	17.6836	110.277	16.0375	0.014456	0.991555	-0.085534	-0.086953	-0.004407	17.6836	-0.085347	-0.837644	0.005261	NaN
1164	1.000000	1.002952	7.37644e+06	-57389.1	1105.82	-29736.8	0.000000	0.000000	7.003132	-0.023410	NaN	0.000000	0.001598	0.001671	28.081	0.065847	0.001880	35.0286	94.6916	-165.628	-0.057354	1.001631	-0.075556	-0.076878	-0.023410	35.0286	-0.075055	-0.463391	0.050519	NaN
1164	1.000000	1.012968	7.37644e+06	-57389.1	1105.82	-29736.8	0.000000	0.000000	7.013147	-0.040604	NaN	0.000000	0.001588	0.001679	28.0808	0.025974	0.001947	13.3384	0.380541	12.4429	0.004941	1.011557	-0.065540	-0.066951	-0.040604	13.3384	-0.063257	-0.222811	0.182236	NaN
1164	1.000000	1.022978	7.37644e+06	-57389.1	1105.82	-29736.8	0.000000	0.000000	7.023159	0.004949	NaN	0.000000	0.001606	0.001684	28.0808	0.049671	0.001979	25.0959	144.904	-164.311	-0.041156	1.021674	-0.055530	-0.056834	0.004949	25.0959	-0.055678	-0.134849	-0.036700	NaN
1164	1.000000	1.032964	7.37644e+06	-57389.1	1105.82	-29736.8	0.000000	0.000000	7.033143	-0.041502	NaN	0.000000	0.001614	0.001715	28.0809	0.035591	0.002015	17.6611	-67.53	13.0336	0.000594	1.031619	-0.045545	-0.046890	-0.041502	17.6611	-0.043782	-0.058986	0.703580	NaN
1164	1.000000	1.042955	7.37644e+06	-57389.1	1105.82	-29736.8	0.000000	0.000000	7.043136	-0.009888	NaN	0.000000	0.001600	0.001679	28.0811	0.135495	0.001952	69.4292	111.794	-162.532	0.035406	1.041664	-0.035553	-0.036845	-0.009888	69.4292	-0.035446	-0.033010	0.299539	NaN
1164	1.000000	1.052993	7.37644e+06	-57389.1	1105.82	-29736.8	0.000000	0.000000	7.053171	-0.076222	NaN	0.000000	0.001575	0.001674	28.081	0.026055	0.001984	13.1297	-129.201	13.8639	-1.545971E-6	1.051585	-0.025515	-0.026923	-0.076222	13.1297	-0.021161	-0.013444	5.669565	NaN
1164	1.000000	1.062972	7.37644e+06	-57389.1	1105.82	-29736.8	0.000000	0.000000	7.063151	-0.052264	NaN	0.000000	0.001619	0.001677	28.0808	0.077054	0.002036	37.8405	-16.2884	-167.55	-0.076253	1.061692	-0.015536	-0.016816	-0.052264	37.8405	-0.014500	-0.008978	5.821517	NaN
1164	1.000000	1.073004	7.37644e+06	-57389.1	1105.82	-29736.8	0.000000	0.000000	7.073182	-0.058336	NaN	0.000000	0.001584	0.001669	28.0809	0.017967	0.001957	9.182515	159.537	16.8564	-0.024655	1.071628	-0.005504	-0.006880	-0.058336	9.182515	-0.000740	-0.000545	107.05	NaN
1164	1.000000	1.082989	7.37644e+06	-57389.1	1105.82	-29736.8	0.000000	0.000000	7.083308	3.376110	NaN	0.000000	0.001577	0.001715	28.0808	4.348426	0.001809	2403.34	12.4335	-168.99	2.100165	1.081718	0.004480	0.003210	3.376110	2403.34	0.003427	0.002742	1231.14	41930.9
1164	2.000000	1.088984	7.37644e+06	-57389.1	1105.82	-29736.8	0.000000	0.000000	7.089646	11.6973	NaN	0.000000	0.001612	0.001703	28.0804	10.197	0.001703	5986.97	5.962608	10.2543	10.7854	1.088665	0.010476	0.010156	11.6973	5986.97	0.009010	0.008102	1443.69	60767.9
1164	2.000000	1.091480	7.37644e+06	-57389.1	1105.82	-29736.8	0.000000	0.000000	7.092253	14.3951	NaN	0.000000	0.001611	0.001717	28.0808	12.693	0.001645	7716.9	9.431560	-175.414	15.0996	1.091157	0.012971	0.012649	14.3951	7716.9	0.011572	0.010982	1310.8	67278.9
1164	2.000000	1.093926	7.37644e+06	-57389.1	1105.82	-29736.8	0.000000	0.000000	7.094873	18.6208	NaN	0.000000	0.001631	0.001712	28.0809	14.9692	0.001592	9403.9	1.446198	8.396679	17.386	1.093542	0.015418	0.015034	18.6208	9403.9	0.013933	0.013888	1340.76	72905.1
1164	2.000000	1.096449	7.37644e+06	-57389.1	1105.82	-29736.8	0.000000	0.000000	7.097461	20.2141	NaN	0.000000	0.001596	0.001710	28.082	18.3521	0.001995	9199.77	8.145431	-175.21	19.8318	1.096128	0.017940	0.017620	20.2141	9199.77	0.016292	0.017048	1185.74	64375
1164	2.000000	1.098907	7.37644e+06	-57389.1	1105.82	-29736.8	0.000000	0.000000	7.100166	26.2079	NaN	0.000000	0.001584	0.001664	28.0822	21.0421	0.001817	11583.3	8.982007	0.344399	24.5697	1.098514	0.020399	0.020006	26.2079	11583.3	0.018702	0.020543	1275.75	73836.5
1164	2.000000	1.101450	7.37644e+06	-57389.1	1105.82	-29736.8	0.000000	0.000000	7.102967	32.4579	NaN	0.000000	0.001593	0.001675	28.082	22.8331	0.001725	13233.4	7.856043	-177.841	33.2742	1.101061	0.022942	0.022553	32.4579	13233.4	0.021102	0.024304	1335.48	77553.6
1164	2.000000	1.103904	7.37644e+06	-57389.1	1105.82	-29736.8	0.000000	0.000000	7.105682	38.8349	NaN	0.000000	0.001603	0.001677	28.0822	25.6439	0.001738	14754.9	3.332895	4.546165	38.5847	1.103607	0.025395	0.025099	38.8349	14754.9	0.023421	0.028206	1376.83	80267.4
1164	2.000000	1.106381	7.37644e+06	-57389.1	1105.82	-29736.8	0.000000	0.000000	7.108330	42.9682	NaN	0.000000	0.001596	0.001672	28.082	29.2166	0.001814	16105	5.695736	-179.888	42.0365	1.106122	0.027873	0.027614	42.9682	16105	0.025872	0.032621	1317.2	81468
1164	2.000000	1.108883	7.37644e+06	-57389.1	1105.82	-29736.8	0.000000	0.000000	7.111206	52.0716	NaN	0.000000	0.001590	0.001719	28.0822	30.864	0.001733	17811.7	5.526088	0.492565	50.1858	1.108438	0.030374	0.029929	52.0716	17811.7	0.028182	0.037059	1405.09	84534
1164	2.000000	1.111425	7.37644e+06	-57389.1	1105.82	-29736.8	0.000000	0.000000	7.114014	58.5136	NaN	0.000000	0.001603	0.001721	28.0821	33.0915	0.001956	16921.7	6.972966	-179.056	59.6387	1.110982	0.032917	0.032474	58.5136	16921.7	0.030324	0.041417	1412.78	75967.2
1164	2.000000	1.113860	7.37644e+06	-57389.1	1105.82	-29736.8	0.000000	0.000000	7.116619	62.6553	NaN	0.000000	0.001640	0.001669	28.0823	36.1266	0.001783	20263.1	6.436887	-2.716707	59.7545	1.113528	0.035352	0.035019	62.6553	20263.1	0.033032	0.047264	1325.65	85155.9
1164	2.000000	1.116384	7.37644e+06	-57389.1	1105.82	-29736.8	0.000000	0.000000	7.119611	74.0384	NaN	0.000000	0.001601	0.001672	28.0822	38.142	0.001790	21303.5	3.309627	-179.464	72.2124	1.116068	0.037875	0.037559	74.0384	21303.5	0.035269	0.052374	1413.65	85048.6
1164	2.000000	1.118835	7.37644e+06	-57389.1	1105.82	-29736.8	0.000000	0.000000	7.122285	79.4518	NaN	0.000000	0.001639	0.001673	28.0821	40.1773	0.001752	22928.3	4.571270	-1.627237	75.727	1.118510	0.040326	0.040002	79.4518	22928.3	0.037727	0.058287	1363.11	86767.5
1164	2.000000	1.121352	7.37644e+06	-57389.1	1105.82	-29736.8	0.000000	0.000000	7.125226	89.7695	NaN	0.000000	0.001612	0.001679	28.082	41.2109	0.001669	24690.4	0.927304	-178.388	86.4955	1.120984	0.042844	0.042476	89.7695	24690.4	0.040117	0.064331	1395.43	88938.8
1164	2.000000	1.123854	7.37644e+06	-57389.1	1105.82	-29736.8	0.000000	0.000000	7.128062	97.8876	NaN	0.000000	0.001570	0.001643	28.0821	44.5292	0.001814	24550	3.726146	-1.017329	95.1833	1.123532	0.045345	0.045024	97.8876	24550	0.042355	0.070256	1393.3	84621.9
1164	2.000000	1.126332	7.37644e+06	-57389.1	1105.82	-29736.8	0.000000	0.000000	7.130971	108.361	NaN	0.000000	0.001582	0.001665	28.0819	46.3702	0.001798	25783.7	0.922820	-178.645	105.877	1.126150	0.047823	0.047642	108.361	25783.7	0.044671	0.076657	1413.58	85082.9
1164	2.000000	1.128875	7.37644e+06	-57389.1	1105.82	-29736.8	0.000000	0.000000	7.133900	117.732	NaN	0.000000	0.001622	0.001674	28.0817	48.3797	0.001830	26443.1	4.607188	-1.671021	115.212	1.128436	0.050366	0.049927	117.732	26443.1	0.047027	0.083446	1410.87	83633.7
1164	2.000000	1.131338	7.37644e+06	-57389.1	1105.82	-29736.8	0.000000	0.000000	7.136749	127.114	NaN	0.000000	0.001596	0.001683	28.0808	51.1568	0.001869	27364.6	6.583965	175.642	125.625	1.130986	0.052829	0.052477	127.114	27364.6	0.049346	0.090401	1406.12	83152.7
1164	2.000000	1.133806	7.37644e+06	-57389.1	1105.82	-29736.8	0.000000	0.000000	7.139721	139.378	NaN	0.000000	0.001605	0.001657	28.0809	53.9605	0.001746	30903.1	7.357514	-7.414405	134.448	1.133402	0.055298	0.054894	139.378	30903.1	0.051915	0.098424	1416.09	89996.3
1164	2.000000	1.136262	7.37644e+06	-57389.1	1105.82	-29736.8	0.000000	0.000000	7.142659	151.088	NaN	0.000000	0.001587	0.001689	28.0809	57.1148	0.001852	30838.4	6.933781	174.214	147.552	1.136001	0.057753	0.057493	151.088	30838.4	0.054079	0.105436	1432.99	86770.2
1164	2.000000	1.138788	7.37644e+06	-57389.1	1105.82	-29736.8	0.000000	0.000000	7.145666	162.771	NaN	0.000000	0.001583	0.001658	28.081	57.5752	0.001675	34368.8	2.360750	-1.891616	157.091	1.138483	0.060280	0.059974	162.771	34368.8	0.056728	0.114336	1423.61	92863.6
1164	2.000000	1.141326	7.37644e+06	-57389.1	1105.82	-29736.8	0.000000	0.000000	7.148755	176.158	NaN	0.000000	0.001593	0.001707	28.0808	60.4318	0.001761	34319.7	9.183694	170.807	175.137	1.141030	0.062818	0.062521	176.158	34319.7	0.058968	0.122135	1442.32	89721.5
1164	2.000000	1.143820	7.37644e+06	-57389.1	1105.82	-29736.8	0.000000	0.000000	7.151444	180.902	NaN	0.000000	0.001631	0.001700	28.0807	63.2419	0.001763	35870.9	6.130207	-7.241007	178.67	1.143598	0.065312	0.065090	180.902	35870.9	0.061529	0.131349	1377.26	90427.7
1164	2.000000	1.146279	7.37644e+06	-57389.1	1105.82	-29736.8	0.000000	0.000000	7.154611	198.118	NaN	0.000000	0.001595	0.001670	28.0808	65.7386	0.001815	36223.8	6.233744	173.073	194.944	1.146031	0.067771	0.067523	198.118	36223.8	0.063669	0.139292	1422.32	88675.6
1164	2.000000	1.148937	7.37644e+06	-57389.1	1105.82	-29736.8	0.000000	0.000000	7.157742	209.624	NaN	0.000000	0.001598	0.001680	28.0809	68.8075	0.001853	37126.8	13.2291	-12.6738	214.072	1.148351	0.070428	0.069843	209.624	37126.8	0.066194	0.148950	1407.35	87890.3
1164	2.000000	1.151364	7.37644e+06	-57389.1	1105.82	-29736.8	0.000000	0.000000	7.160686	222.173	NaN	0.000000	0.001583	0.001690	28.0808	70.4547	0.001764	39936.1	5.868937	173.301	225.482	1.150972	0.072856	0.072464	222.173	39936.1	0.068684	0.158774	1399.3	91569.2
1164	2.000000	1.153839	7.37644e+06	-57389.1	1105.82	-29736.8	0.000000	0.000000	7.163686	234.937	NaN	0.000000	0.001606	0.001669	28.0806	72.5974	0.001817	39946.4	5.160468	-5.722101	234.733	1.153493	0.075330	0.074984	234.937	39946.4	0.070919	0.167847	1399.71	89082.7
1164	2.000000	1.156277	7.37644e+06	-57389.1	1105.82	-29736.8	0.000000	0.000000	7.166688	248.624	NaN	0.000000	0.001569	0.001725	28.0807	75.2345	0.001863	40393.6	5.360551	173.486	246.418	1.156090	0.077769	0.077582	248.624	40393.6	0.073153	0.177149	1403.48	87683.3
1164	2.000000	1.158879	7.37644e+06	-57389.1	1105.82	-29736.8	0.000000	0.000000	7.169765	260.182	NaN	0.000000	0.001562	0.001699	28.0806	75.8427	0.001814	41807	1.488346	-2.607534	259.226	1.158477	0.080371	0.079968	260.182	41807	0.075704	0.188060	1383.51	88079.4
1164	2.000000	1.161215	7.37644e+06	-57389.1	1105.82	-29736.8	0.000000	0.000000	7.172947	280.741	NaN	0.000000	0.001576	0.001716	28.0807	78.6985	0.001818	43277.2	5.678366	172.564	275.838	1.160897	0.082707	0.082389	280.741	43277.2	0.077841	0.197440	1421.9	88984.6
1164	2.000000	1.163807	7.37644e+06	-57389.1	1105.82	-29736.8	0.000000	0.000000	7.175970	291.235	NaN	0.000000	0.001570	0.001716	28.0819	80.723	0.001800	44834.2	5.276646	-7.306406	288.728	1.163572	0.085298	0.085064	291.235	44834.2	0.080426	0.209068	1393.01	89585.6
1164	2.000000	1.166265	7.37644e+06	-57389.1	1105.82	-29736.8	0.000000	0.000000	7.179248	311.148	NaN	0.000000	0.001580	0.001712	28.0823	82.3256	0.001665	49432.3	1.274727	175.868	307.4	1.165922	0.087757	0.087414	311.148	49432.3	0.083036	0.221123	1407.13	96043.2
1164	2.000000	1.168840	7.37644e+06	-57389.1	1105.82	-29736.8	0.000000	0.000000	7.182270	322.016	NaN	0.000000	0.001585	0.001743	28.0822	84.7873	0.001671	50729.5	5.756936	-8.892125	321.377	1.168551	0.090332	0.090043	322.016	50729.5	0.085571	0.233132	1381.26	95991.6
1164	2.000000	1.171312	7.37644e+06	-57389.1	1105.82	-29736.8	0.000000	0.000000	7.185602	342.919	NaN	0.000000	0.001561	0.001716	28.0822	86.736	0.001744	49724	6.554091	170.687	343.455	1.170918	0.092804	0.092410	342.919	49724	0.087632	0.243116	1410.52	92136.7
1164	2.000000	1.173689	7.37644e+06	-57389.1	1105.82	-29736.8	0.000000	0.000000	7.188804	362.988	NaN	0.000000	0.001589	0.001684	28.082	89.9716	0.001728	52063.9	5.846597	-8.701469	353.704	1.173267	0.095180	0.094759	362.988	52063.9	0.089951	0.254586	1425.8	94274.2
1164	2.000000	1.176289	7.37644e+06	-57389.1	1105.82	-29736.8	0.000000	0.000000	7.191979	376.947	NaN	0.000000	0.001585	0.001718	28.0829	94.8678	0.001885	50320.5	10.0241	167.771	375.804	1.175979	0.097781	0.097471	376.947	50320.5	0.092163	0.265751	1418.42	89182.9
1164	2.000000	1.178775	7.37644e+06	-57389.1	1105.82	-29736.8	0.000000	0.000000	7.195354	398.532	NaN	0.000000	0.001583	0.001732	28.0858	95.3742	0.001906	50036.3	9.247535	-10.7166	395.266	1.178307	0.100267	0.099798	398.532	50036.3	0.094293	0.276720	1440.2	86903.7
1164	2.000000	1.181254	7.37644e+06	-57389.1	1105.82	-29736.8	0.000000	0.000000	7.198624	417.771	NaN	0.000000	0.001567	0.001717	28.0829	97.2462	0.001869	52026.9	10.439	167.15	415.248	1.180785	0.102746	0.102276	417.771	52026.9	0.096723	0.289484	1443.16	88346.4
1164	2.000000	1.183832	7.37644e+06	-57389.1	1105.82	-29736.8	0.000000	0.000000	7.201922	435.277	NaN	0.000000	0.001584	0.001683	28.0825	100.233	0.001831	54745.9	7.431464	-10.2397	435.108	1.183413	0.105323	0.104904	435.277	54745.9	0.099360	0.303636	1433.55	90771.2
1164	2.000000	1.186389	7.37644e+06	-57389.1	1105.82	-29736.8	0.000000	0.000000	7.204938	446.423	NaN	0.000000	0.001549	0.001718	28.0823	102.396	0.001831	55922.8	5.447193	171.502	451.597	1.186097	0.107881	0.107588	446.423	55922.8	0.101894	0.317534	1405.9	90670.6