File: remote_trans/data/nanoindenter/0828-1/data/Data_2025-08-06,11h17m57s/2025-07-22_16-23-58_1_700.txt
2025-07-22, 16:23:58, 1
Index	Phase	Displacement	Time	Pos X	Pos Y	Pos Z	Rot A	Rot B	Piezo Z	Force A	Force B	Gripper	Voltage A	Voltage B	Temperature	Amplitude force	Amplitude pos	Stiffness	Phase shift	Phase excitation	Force A raw	Displacement raw	HMax	HMax raw	Real Force	Real Stiffness	Contact Depth	Area	Hardness	Reduced Mod.
[#]	[#]	[um]	[s]	[um]	[um]	[um]	[m°]	[m°]	[um]	[uN]	[uN]	[V]	[V]	[V]	[°C]	[uN]	[um]	[N/m]	[°]	[°]	[uN]	[um]	[um]	[um]	[uN]	[N/m]	[um]	[um^2]	[MPa]	[MPa]
700	1.000000	0.002744	7.3719e+06	-42089.1	1005.82	-29783.8	0.000000	0.000000	6.002800	-0.038352	NaN	0.000000	0.001605	0.001738	28.0844	0.023081	0.001036	22.277	-107.484	-164.498	-0.075444	0.001449	-1.071471	-1.072766	-0.038352	22.277	-1.070180	-1.993434E+14	1.923911E-16	NaN
700	1.000000	0.010709	7.3719e+06	-42089.1	1005.82	-29783.8	0.000000	0.000000	6.010766	-0.023982	NaN	0.000000	0.001602	0.001753	28.084	0.100278	0.001048	95.7191	27.5783	-162.448	0.032389	0.009437	-1.063505	-1.064778	-0.023982	95.7191	-1.063318	-1.612141E+14	1.487578E-16	NaN
700	1.000000	0.018712	7.3719e+06	-42089.1	1005.82	-29783.8	0.000000	0.000000	6.018771	0.019436	NaN	0.000000	0.001628	0.001735	28.083	0.016834	0.001634	10.3028	146.028	-165.9	0.062673	0.017397	-1.055503	-1.056817	0.019436	10.3028	-1.056918	-1.322497E+14	-1.469653E-16	NaN
700	1.000000	0.026704	7.3719e+06	-42089.1	1005.82	-29783.9	0.000000	0.000000	6.026762	-0.017986	NaN	0.000000	0.001587	0.001718	28.0831	0.102355	0.001958	52.2822	-58.6737	-163.551	0.072082	0.025358	-1.047511	-1.048857	-0.017986	52.2822	-1.047253	-9.805708E+13	1.834242E-16	NaN
700	1.000000	0.034702	7.3719e+06	-42089.1	1005.82	-29783.9	0.000000	0.000000	6.034763	0.071298	NaN	0.000000	0.001624	0.001720	28.0828	0.020378	0.001968	10.3562	1.553448	-165.68	0.064751	0.033412	-1.039513	-1.040803	0.071298	10.3562	-1.044676	-9.054077E+13	-7.874639E-16	NaN
700	1.000000	0.042691	7.3719e+06	-42089.1	1005.82	-29783.9	0.000000	0.000000	6.042745	-0.091127	NaN	0.000000	0.001588	0.001688	28.083	0.047470	0.002012	23.5885	-130.458	-165.667	-0.073932	0.041433	-1.031524	-1.032782	-0.091127	23.5885	-1.028627	-5.508182E+13	1.654396E-15	NaN
700	1.000000	0.050691	7.3719e+06	-42089.1	1005.82	-29783.9	0.000000	0.000000	6.050750	0.024956	NaN	0.000000	0.001582	0.001703	28.083	0.118849	0.001965	60.4753	72.4462	-162.394	0.001320	0.049420	-1.023523	-1.024795	0.024956	60.4753	-1.023833	-4.748115E+13	-5.255932E-16	NaN
700	1.000000	0.058725	7.3719e+06	-42089.1	1005.82	-29783.9	0.000000	0.000000	6.058783	0.006176	NaN	0.000000	0.001576	0.001740	28.083	0.090697	0.002044	44.3756	178.134	-165.301	0.054041	0.057364	-1.015490	-1.016850	0.006176	44.3756	-1.015594	-3.678509E+13	-1.678893E-16	NaN
700	1.000000	0.066708	7.3719e+06	-42089.1	1005.82	-29783.9	0.000000	0.000000	6.066765	-0.018313	NaN	0.000000	0.001573	0.001749	28.0834	0.022287	0.001897	11.7508	-140.515	-162.383	0.077399	0.065381	-1.007507	-1.008833	-0.018313	11.7508	-1.006338	-2.761154E+13	6.632364E-16	NaN
700	1.000000	0.074696	7.3719e+06	-42089.1	1005.82	-29783.9	0.000000	0.000000	6.074755	0.031598	NaN	0.000000	0.001579	0.001728	28.083	0.190725	0.001943	98.1773	107.025	-162.348	0.047473	0.073374	-0.999519	-1.000840	0.031598	98.1773	-0.999761	-2.251876E+13	-1.403207E-15	NaN
700	1.000000	0.082705	7.3719e+06	-42089.1	1005.82	-29783.9	0.000000	0.000000	6.082762	-0.025183	NaN	0.000000	0.001587	0.001714	28.0835	0.074757	0.001958	38.1734	85.3602	-164.316	-0.070134	0.081342	-0.991510	-0.992872	-0.025183	38.1734	-0.991015	-1.717049E+13	1.466623E-15	NaN
700	1.000000	0.090721	7.3719e+06	-42089.1	1005.82	-29783.9	0.000000	0.000000	6.090781	0.050626	NaN	0.000000	0.001560	0.001714	28.0832	0.031817	0.001944	16.3678	6.283749	-167.963	0.089018	0.089400	-0.983494	-0.984815	0.050626	16.3678	-0.985814	-1.461263E+13	-3.464528E-15	NaN
700	1.000000	0.098714	7.3719e+06	-42089.1	1005.82	-29783.9	0.000000	0.000000	6.098770	-0.048689	NaN	0.000000	0.001556	0.001682	28.0832	0.032697	0.002015	16.2294	-102.868	-166.377	-0.025498	0.097420	-0.975501	-0.976795	-0.048689	16.2294	-0.973251	-9.896305E+12	4.919891E-15	NaN
700	1.000000	0.106721	7.3719e+06	-42089.1	1005.82	-29783.9	0.000000	0.000000	6.106778	-0.022154	NaN	0.000000	0.001552	0.001673	28.0835	0.052596	0.002095	25.1073	99.4362	-163.867	-0.122028	0.105469	-0.967493	-0.968746	-0.022154	25.1073	-0.966832	-8.108872E+12	2.732102E-15	NaN
700	1.000000	0.114707	7.3719e+06	-42089.1	1005.82	-29783.9	0.000000	0.000000	6.114765	-0.023403	NaN	0.000000	0.001546	0.001657	28.0832	0.074735	0.002005	37.2654	154.504	-166.425	-0.037106	0.113424	-0.959507	-0.960790	-0.023403	37.2654	-0.959036	-6.366151E+12	3.676168E-15	NaN
700	1.000000	0.122715	7.3719e+06	-42089.1	1005.82	-29783.9	0.000000	0.000000	6.122775	0.039270	NaN	0.000000	0.001519	0.001656	28.0834	0.076811	0.002013	38.1547	-58.9906	-166.435	-0.002129	0.121420	-0.951499	-0.952795	0.039270	38.1547	-0.952271	-5.160085E+12	-7.610436E-15	NaN
700	1.000000	0.130713	7.3719e+06	-42089.1	1005.82	-29783.9	0.000000	0.000000	6.130772	0.021548	NaN	0.000000	0.001539	0.001676	28.0834	0.037213	0.001960	18.9888	-32.3869	-162.348	-0.005334	0.129408	-0.943501	-0.944806	0.021548	18.9888	-0.944352	-4.035085E+12	-5.340142E-15	NaN
700	1.000000	0.138694	7.3719e+06	-42089.1	1005.82	-29783.9	0.000000	0.000000	6.138752	-0.002779	NaN	0.000000	0.001528	0.001674	28.0835	0.079019	0.002002	39.4611	3.114073	-164.043	-0.077763	0.137401	-0.935521	-0.936813	-0.002779	39.4611	-0.935468	-3.061889E+12	9.074859E-16	NaN
700	1.000000	0.146737	7.3719e+06	-42089.1	1005.82	-29783.9	0.000000	0.000000	6.146797	0.048357	NaN	0.000000	0.001575	0.001654	28.0834	0.070838	0.002075	34.1342	66.2444	-164.28	0.027925	0.145412	-0.927478	-0.928803	0.048357	34.1342	-0.928540	-2.468848E+12	-1.958681E-14	NaN
700	1.000000	0.154735	7.3719e+06	-42089.1	1005.82	-29783.9	0.000000	0.000000	6.154794	0.022942	NaN	0.000000	0.001580	0.001661	28.0845	0.048241	0.001985	24.2975	170.667	-165.013	-0.016386	0.153365	-0.919480	-0.920849	0.022942	24.2975	-0.920188	-1.904325E+12	-1.204732E-14	NaN
700	1.000000	0.162729	7.3719e+06	-42089.1	1005.82	-29783.9	0.000000	0.000000	6.162787	-0.008985	NaN	0.000000	0.001609	0.001638	28.0843	0.038430	0.002108	18.2279	151.088	-166.844	0.038668	0.161487	-0.911485	-0.912728	-0.008985	18.2279	-0.911116	-1.436259E+12	6.255754E-15	NaN
700	1.000000	0.170740	7.3719e+06	-42089.1	1005.82	-29783.9	0.000000	0.000000	6.170801	0.068855	NaN	0.000000	0.001556	0.001671	28.0845	0.129386	0.002091	61.8666	-68.7407	-165.369	0.032762	0.169455	-0.903475	-0.904760	0.068855	61.8666	-0.904309	-1.162231E+12	-5.924348E-14	NaN
700	1.000000	0.178749	7.3719e+06	-42089.1	1005.82	-29783.9	0.000000	0.000000	6.178807	0.000648	NaN	0.000000	0.001587	0.001646	28.0843	0.050252	0.002077	24.2002	-156.687	-164.644	0.052131	0.177447	-0.895466	-0.896767	0.000648	24.2002	-0.895486	-8.832130E+11	-7.333894E-16	NaN
700	1.000000	0.186738	7.3719e+06	-42089.1	1005.82	-29783.9	0.000000	0.000000	6.186797	0.010812	NaN	0.000000	0.001549	0.001622	28.0842	0.066421	0.001901	34.936	91.8782	-167.107	0.080798	0.185468	-0.887476	-0.888746	0.010812	34.936	-0.887709	-6.933274E+11	-1.559462E-14	NaN
700	1.000000	0.194746	7.3719e+06	-42089.1	1005.82	-29783.9	0.000000	0.000000	6.194802	-0.060538	NaN	0.000000	0.001581	0.001628	28.0843	0.185430	0.001992	93.073	-113.067	-165.12	0.012526	0.193450	-0.879469	-0.880764	-0.060538	93.073	-0.878981	-5.283526E+11	1.145789E-13	NaN
700	1.000000	0.202755	7.3719e+06	-42089.1	1005.82	-29783.9	0.000000	0.000000	6.202812	-0.015030	NaN	0.000000	0.001590	0.001605	28.0843	0.068423	0.001771	38.6275	-11.018	-164.474	-0.018566	0.201417	-0.871460	-0.872797	-0.015030	38.6275	-0.871168	-4.142335E+11	3.628382E-14	NaN
700	1.000000	0.210744	7.3719e+06	-42089.1	1005.82	-29783.9	0.000000	0.000000	6.210800	-0.041466	NaN	0.000000	0.001623	0.001577	28.0841	0.140668	0.001996	70.4767	-111.541	-165.461	-0.049867	0.209448	-0.863471	-0.864767	-0.041466	70.4767	-0.863029	-3.214569E+11	1.289925E-13	NaN
700	1.000000	0.218740	7.3719e+06	-42089.1	1005.82	-29783.9	0.000000	0.000000	6.218798	-0.019189	NaN	0.000000	0.001590	0.001565	28.0841	0.060934	0.002025	30.0868	106.892	-165.107	0.038583	0.217443	-0.855474	-0.856772	-0.019189	30.0868	-0.854996	-2.502535E+11	7.667916E-14	NaN
700	1.000000	0.226752	7.3719e+06	-42089.1	1005.82	-29783.9	0.000000	0.000000	6.226808	-0.037703	NaN	0.000000	0.001574	0.001588	28.0845	0.046861	0.002051	22.8461	-150.071	-165.385	-0.023880	0.225488	-0.847463	-0.848727	-0.037703	22.8461	-0.846225	-1.903775E+11	1.980459E-13	NaN
700	1.000000	0.234750	7.3719e+06	-42089.1	1005.82	-29783.9	0.000000	0.000000	6.234808	-0.001348	NaN	0.000000	0.001579	0.001584	28.0843	0.030965	0.001983	15.6158	133.339	-165.379	-0.024708	0.233499	-0.839465	-0.840716	-0.001348	15.6158	-0.839400	-1.538738E+11	8.763166E-15	NaN
700	1.000000	0.242780	7.3719e+06	-42089.1	1005.82	-29783.9	0.000000	0.000000	6.242839	0.040395	NaN	0.000000	0.001570	0.001637	28.0844	0.144501	0.001969	73.3753	84.1978	-161.308	0.074146	0.241491	-0.831435	-0.832724	0.040395	73.3753	-0.831848	-1.215709E+11	-3.322758E-13	NaN
700	1.000000	0.250760	7.3719e+06	-42089.1	1005.82	-29783.9	0.000000	0.000000	6.250820	0.025047	NaN	0.000000	0.001602	0.001579	28.0842	0.042113	0.002022	20.8248	-28.2927	-162.831	0.083077	0.249518	-0.823454	-0.824696	0.025047	20.8248	-0.824356	-9.622280E+10	-2.603061E-13	NaN
700	1.000000	0.258771	7.3719e+06	-42089.1	1005.82	-29783.9	0.000000	0.000000	6.258831	0.054360	NaN	0.000000	0.001581	0.001592	28.0841	0.082133	0.002025	40.561	13.3216	-163.071	0.031419	0.257458	-0.815444	-0.816756	0.054360	40.561	-0.816449	-7.517149E+10	-7.231455E-13	NaN
700	1.000000	0.266789	7.3719e+06	-42089.1	1005.82	-29783.9	0.000000	0.000000	6.266843	-0.098480	NaN	0.000000	0.001611	0.001589	28.0842	0.091264	0.002030	44.9466	151.097	-168.562	-0.102627	0.265463	-0.807426	-0.808751	-0.098480	44.9466	-0.805783	-5.387011E+10	1.828105E-12	NaN
700	1.000000	0.274746	7.3719e+06	-42089.1	1005.82	-29783.9	0.000000	0.000000	6.274806	0.037636	NaN	0.000000	0.001618	0.001588	28.084	0.093566	0.002086	44.8488	141.909	-165.852	0.050188	0.273465	-0.799468	-0.800750	0.037636	44.8488	-0.800098	-4.510130E+10	-8.344737E-13	NaN
700	1.000000	0.282776	7.3719e+06	-42089.1	1005.82	-29783.9	0.000000	0.000000	6.282835	0.015081	NaN	0.000000	0.001563	0.001584	28.0838	0.023338	0.001973	11.8265	102.781	-160.525	0.137748	0.281444	-0.791438	-0.792771	0.015081	11.8265	-0.792395	-3.544897E+10	-4.254236E-13	NaN
700	1.000000	0.290804	7.3719e+06	-42089.1	1005.82	-29783.9	0.000000	0.000000	6.290864	0.027266	NaN	0.000000	0.001572	0.001584	28.0828	0.056829	0.002037	27.8976	83.4567	-167.177	-0.001552	0.289474	-0.783410	-0.784741	0.027266	27.8976	-0.784143	-2.738595E+10	-9.956235E-13	NaN
700	1.000000	0.298783	7.3719e+06	-42089.1	1005.82	-29783.9	0.000000	0.000000	6.298841	-0.014919	NaN	0.000000	0.001645	0.001614	28.0828	0.067033	0.002066	32.4494	24.123	-161.724	-0.019808	0.297506	-0.775431	-0.776708	-0.014919	32.4494	-0.775086	-2.062784E+10	7.232678E-13	NaN
700	1.000000	0.306776	7.3719e+06	-42089.1	1005.82	-29783.9	0.000000	0.000000	6.306836	0.039632	NaN	0.000000	0.001615	0.001590	28.083	0.025036	0.001936	12.9316	166.886	-161.874	-0.023567	0.305497	-0.767439	-0.768718	0.039632	12.9316	-0.769737	-1.744746E+10	-2.271490E-12	NaN
700	1.000000	0.314791	7.3719e+06	-42089.1	1005.82	-29783.9	0.000000	0.000000	6.314850	0.027180	NaN	0.000000	0.001655	0.001620	28.083	0.023121	0.002065	11.1965	-5.798133	-164.164	-0.004144	0.313465	-0.759424	-0.760750	0.027180	11.1965	-0.761245	-1.337317E+10	-2.032439E-12	NaN
700	1.000000	0.322820	7.3719e+06	-42089.1	1005.82	-29783.9	0.000000	0.000000	6.322876	-0.048703	NaN	0.000000	0.001645	0.001609	28.0829	0.115452	0.001882	61.3367	-111.584	-162.219	-0.022718	0.321505	-0.751395	-0.752710	-0.048703	61.3367	-0.750799	-9.640484E+9	5.051952E-12	NaN
700	1.000000	0.330810	7.3719e+06	-42089.1	1005.82	-29783.9	0.000000	0.000000	6.330868	-0.005161	NaN	0.000000	0.001638	0.001605	28.0829	0.036145	0.001858	19.452	176.852	-161.606	-0.051463	0.329506	-0.743405	-0.744709	-0.005161	19.452	-0.743206	-7.598319E+9	6.792345E-13	NaN
700	1.000000	0.338845	7.3719e+06	-42089.1	1005.82	-29783.9	0.000000	0.000000	6.338902	-0.013655	NaN	0.000000	0.001600	0.001601	28.0829	0.102953	0.001996	51.5885	-83.6751	-164.599	0.020448	0.337500	-0.735370	-0.736715	-0.013655	51.5885	-0.735172	-5.905813E+9	2.312058E-12	NaN
700	1.000000	0.346846	7.3719e+06	-42089.1	1005.82	-29783.9	0.000000	0.000000	6.346904	-0.002204	NaN	0.000000	0.001650	0.001642	28.0833	0.065615	0.001873	35.0278	-44.4129	-166.405	2.701574E-5	0.345490	-0.727369	-0.728724	-0.002204	35.0278	-0.727321	-4.616333E+9	4.773996E-13	NaN
700	1.000000	0.354840	7.3719e+06	-42089.1	1005.82	-29783.9	0.000000	0.000000	6.354898	0.000145	NaN	0.000000	0.001671	0.001593	28.0828	0.021228	0.001909	11.1187	111.996	-164.635	-0.019614	0.353527	-0.719375	-0.720687	0.000145	11.1187	-0.719384	-3.598123E+9	-4.034986E-14	NaN
700	1.000000	0.362807	7.3719e+06	-42089.1	1005.82	-29783.9	0.000000	0.000000	6.362866	0.018083	NaN	0.000000	0.001667	0.001599	28.0827	0.201402	0.002184	92.2115	-123.409	-165.795	0.078366	0.361541	-0.711408	-0.712673	0.018083	92.2115	-0.711555	-2.813624E+9	-6.426839E-12	NaN
700	1.000000	0.370842	7.3719e+06	-42089.1	1005.82	-29783.9	0.000000	0.000000	6.370904	0.082898	NaN	0.000000	0.001678	0.001582	28.0829	0.083019	0.002020	41.0952	-44.4803	-165.287	-0.024920	0.369516	-0.703373	-0.704698	0.082898	41.0952	-0.704886	-2.281596E+9	-3.633324E-11	NaN
700	1.000000	0.378807	7.3719e+06	-42089.1	1005.82	-29783.9	0.000000	0.000000	6.378867	0.049196	NaN	0.000000	0.001708	0.001617	28.0829	0.066221	0.002039	32.4785	-138.465	-166.196	0.035772	0.377550	-0.695408	-0.696665	0.049196	32.4785	-0.696544	-1.755188E+9	-2.802887E-11	NaN
700	1.000000	0.386827	7.3719e+06	-42089.1	1005.82	-29783.9	0.000000	0.000000	6.386884	-0.028357	NaN	0.000000	0.001722	0.001603	28.0829	0.061054	0.002038	29.9604	-79.7989	-165.603	-0.034009	0.385516	-0.687387	-0.688698	-0.028357	29.9604	-0.686678	-1.286789E+9	2.203723E-11	NaN
700	1.000000	0.394843	7.3719e+06	-42089.1	1005.82	-29783.9	0.000000	0.000000	6.394902	0.020999	NaN	0.000000	0.001708	0.001602	28.0827	0.031282	0.002016	15.516	-77.8313	-163.676	-0.022397	0.393555	-0.679371	-0.680660	0.020999	15.516	-0.680386	-1.055572E+9	-1.989388E-11	NaN
700	1.000000	0.402844	7.3719e+06	-42089.1	1005.82	-29783.9	0.000000	0.000000	6.402904	0.025544	NaN	0.000000	0.001685	0.001642	28.0827	0.076171	0.001937	39.3294	-35.4597	-163.611	0.031552	0.401514	-0.671370	-0.672700	0.025544	39.3294	-0.671857	-8.068843E+8	-3.165718E-11	NaN
700	1.000000	0.410838	7.3719e+06	-42089.1	1005.82	-29783.9	0.000000	0.000000	6.410895	-0.032553	NaN	0.000000	0.001681	0.001652	28.0827	0.086976	0.001960	44.3806	70.1968	-163.162	-0.051888	0.409532	-0.663377	-0.664683	-0.032553	44.3806	-0.662827	-6.069898E+8	5.362977E-11	NaN
700	1.000000	0.418848	7.3719e+06	-42089.1	1005.82	-29783.9	0.000000	0.000000	6.418906	-0.010084	NaN	0.000000	0.001683	0.001612	28.0828	0.084652	0.001894	44.7039	-151.535	-164.17	0.072427	0.417486	-0.655367	-0.656729	-0.010084	44.7039	-0.655198	-4.771714E+8	2.113389E-11	NaN
700	1.000000	0.426878	7.3719e+06	-42089.1	1005.82	-29783.9	0.000000	0.000000	6.426937	0.033578	NaN	0.000000	0.001660	0.001641	28.084	0.055387	0.001986	27.8901	-31.6627	-163.821	-0.009081	0.425559	-0.647337	-0.648655	0.033578	27.8901	-0.648240	-3.830924E+8	-8.765001E-11	NaN
700	1.000000	0.434858	7.3719e+06	-42089.1	1005.82	-29783.9	0.000000	0.000000	6.434915	-0.037376	NaN	0.000000	0.001645	0.001634	28.0838	0.063810	0.002023	31.5454	103.992	-164.86	-0.084114	0.433528	-0.639356	-0.640686	-0.037376	31.5454	-0.638468	-2.813607E+8	1.328414E-10	NaN
700	1.000000	0.442821	7.3719e+06	-42089.1	1005.82	-29783.9	0.000000	0.000000	6.442878	-0.020855	NaN	0.000000	0.001665	0.001608	28.0842	0.091369	0.002035	44.8907	-171.615	-163.871	-0.124766	0.441558	-0.631394	-0.632656	-0.020855	44.8907	-0.631045	-2.225258E+8	9.372102E-11	NaN
700	1.000000	0.450884	7.3719e+06	-42089.1	1005.82	-29783.9	0.000000	0.000000	6.450942	-0.010056	NaN	0.000000	0.001680	0.001628	28.0841	0.032410	0.002010	16.1268	-120.129	-159.955	-0.009101	0.449560	-0.623331	-0.624654	-0.010056	16.1268	-0.622863	-1.717826E+8	5.853783E-11	NaN
700	1.000000	0.458904	7.3719e+06	-42089.1	1005.82	-29783.9	0.000000	0.000000	6.458965	0.056743	NaN	0.000000	0.001671	0.001620	28.0841	0.063390	0.002056	30.8382	162.711	-165.644	0.030094	0.457531	-0.615310	-0.616684	0.056743	30.8382	-0.616690	-1.412977E+8	-4.015817E-10	NaN
700	1.000000	0.466857	7.3719e+06	-42089.1	1005.82	-29783.9	0.000000	0.000000	6.466912	-0.079213	NaN	0.000000	0.001593	0.001574	28.0837	0.048634	0.002101	23.1471	99.8695	-165.942	-0.033879	0.465588	-0.607358	-0.608627	-0.079213	23.1471	-0.604791	-9.692358E+7	8.172733E-10	NaN
700	1.000000	0.474843	7.3719e+06	-42089.1	1005.82	-29783.9	0.000000	0.000000	6.474900	-0.035295	NaN	0.000000	0.001598	0.001575	28.0837	0.128309	0.002123	60.4467	-77.4324	-164.459	-0.035248	0.473533	-0.599371	-0.600682	-0.035295	60.4467	-0.598934	-8.049553E+7	4.384712E-10	NaN
700	1.000000	0.482871	7.3719e+06	-42089.1	1005.82	-29783.9	0.000000	0.000000	6.482928	-0.027592	NaN	0.000000	0.001610	0.001587	28.0841	0.014706	0.001990	7.388400	-34.9608	-164.475	-0.040656	0.481569	-0.591343	-0.592645	-0.027592	7.388400	-0.588542	-5.788531E+7	4.766653E-10	NaN
700	1.000000	0.490871	7.3719e+06	-42089.1	1005.82	-29783.9	0.000000	0.000000	6.490929	-0.000417	NaN	0.000000	0.001563	0.001610	28.084	0.093575	0.001851	50.5563	51.3617	-163.976	-0.023718	0.489574	-0.583344	-0.584640	-0.000417	50.5563	-0.583338	-4.906621E+7	8.503302E-12	NaN
700	1.000000	0.498880	7.3719e+06	-42089.1	1005.82	-29783.9	0.000000	0.000000	6.498940	0.045813	NaN	0.000000	0.001578	0.001568	28.0843	0.053934	0.002094	25.7532	-130.768	-168.048	-0.047547	0.497516	-0.575335	-0.576699	0.045813	25.7532	-0.576669	-3.969606E+7	-1.154088E-9	NaN
700	1.000000	0.506894	7.3719e+06	-42089.1	1005.82	-29783.9	0.000000	0.000000	6.506949	-0.070488	NaN	0.000000	0.001633	0.001594	28.084	0.135795	0.002065	65.755	134.888	-161.63	-0.084212	0.505606	-0.567321	-0.568609	-0.070488	65.755	-0.566517	-2.874074E+7	2.452555E-9	NaN
700	1.000000	0.514894	7.3719e+06	-42089.1	1005.82	-29783.9	0.000000	0.000000	6.514952	-0.011266	NaN	0.000000	0.001708	0.001612	28.084	0.024163	0.002046	11.8076	99.5641	-166.038	-0.017217	0.513581	-0.559320	-0.560634	-0.011266	11.8076	-0.558605	-2.233967E+7	5.043081E-10	NaN
700	1.000000	0.522895	7.3719e+06	-42089.1	1005.82	-29783.9	0.000000	0.000000	6.522954	0.015917	NaN	0.000000	0.001675	0.001620	28.0839	0.086630	0.001933	44.8066	-93.3675	-165.229	0.007630	0.521595	-0.551320	-0.552620	0.015917	44.8066	-0.551586	-1.786168E+7	-8.911019E-10	NaN
700	1.000000	0.530889	7.3719e+06	-42089.1	1005.82	-29783.9	0.000000	0.000000	6.530949	0.039508	NaN	0.000000	0.001670	0.001620	28.084	0.164954	0.001981	83.2655	-17.9508	-165.171	0.022748	0.529562	-0.543325	-0.544653	0.039508	83.2655	-0.543681	-1.388024E+7	-2.846316E-9	NaN
700	1.000000	0.538906	7.3719e+06	-42089.1	1005.82	-29783.9	0.000000	0.000000	6.538963	-0.029325	NaN	0.000000	0.001673	0.001615	28.0838	0.065614	0.001999	32.8217	171.948	-165.321	-0.031589	0.537582	-0.535308	-0.536632	-0.029325	32.8217	-0.534638	-1.039849E+7	2.820085E-9	NaN
700	1.000000	0.546896	7.3719e+06	-42089.1	1005.82	-29783.9	0.000000	0.000000	6.546953	-0.030015	NaN	0.000000	0.001691	0.001619	28.084	0.033340	0.002076	16.0612	58.7025	-165.622	0.021744	0.545608	-0.527318	-0.528606	-0.030015	16.0612	-0.525917	-7.86773e+06	3.814941E-9	NaN
700	1.000000	0.554898	7.3719e+06	-42089.1	1005.82	-29783.9	0.000000	0.000000	6.554955	-0.029000	NaN	0.000000	0.001660	0.001631	28.0846	0.071753	0.002130	33.6813	119.375	-163.127	-0.056331	0.553629	-0.519316	-0.520585	-0.029000	33.6813	-0.518671	-6.2389e+06	4.648304E-9	NaN
700	1.000000	0.562889	7.3719e+06	-42089.1	1005.82	-29783.9	0.000000	0.000000	6.562946	-0.012404	NaN	0.000000	0.001673	0.001597	28.0828	0.025414	0.001974	12.8724	-0.572926	-164.674	-0.023936	0.561588	-0.511326	-0.512626	-0.012404	12.8724	-0.510603	-4.81746e+06	2.574857E-9	NaN
700	1.000000	0.570917	7.3719e+06	-42089.1	1005.82	-29783.9	0.000000	0.000000	6.570976	0.020880	NaN	0.000000	0.001661	0.001600	28.0827	0.076921	0.001886	40.7752	154.181	-165.281	0.020904	0.569559	-0.503298	-0.504656	0.020880	40.7752	-0.503682	-3.85803e+06	-5.412007E-9	NaN
700	1.000000	0.578925	7.3719e+06	-42089.1	1005.82	-29783.9	0.000000	0.000000	6.578984	0.015934	NaN	0.000000	0.001616	0.001613	28.0827	0.071649	0.002008	35.6751	-55.8728	-164.707	0.076841	0.577617	-0.495290	-0.496598	0.015934	35.6751	-0.495625	-2.97824e+06	-5.350121E-9	NaN
700	1.000000	0.586907	7.3719e+06	-42089.1	1005.82	-29783.9	0.000000	0.000000	6.586966	0.030062	NaN	0.000000	0.001630	0.001615	28.0829	0.033725	0.001888	17.86	36.7533	-164.658	0.079416	0.585614	-0.487308	-0.488600	0.030062	17.86	-0.488570	-2.3736e+06	-1.266519E-8	NaN
700	1.000000	0.594902	7.3719e+06	-42089.1	1005.82	-29783.9	0.000000	0.000000	6.594961	0.007862	NaN	0.000000	0.001680	0.001602	28.0831	0.012732	0.001994	6.386042	3.362528	-166.749	0.024790	0.593603	-0.479312	-0.480612	0.007862	6.386042	-0.480236	-1.8148e+06	-4.332112E-9	NaN
700	1.000000	0.602935	7.3719e+06	-42089.1	1005.82	-29783.9	0.000000	0.000000	6.602991	-0.030331	NaN	0.000000	0.001623	0.001618	28.0828	0.145312	0.001884	77.1266	-12.9384	-166.967	0.077291	0.601649	-0.471280	-0.472565	-0.030331	77.1266	-0.470985	-1.34655e+06	2.252494E-8	NaN
700	1.000000	0.610943	7.3719e+06	-42089.1	1005.82	-29783.9	0.000000	0.000000	6.611000	-0.047961	NaN	0.000000	0.001580	0.001614	28.0828	0.057718	0.001987	29.045	38.954	-164.195	-0.106094	0.609610	-0.463271	-0.464605	-0.047961	29.045	-0.462033	-1.00828e+06	4.756749E-8	NaN
700	1.000000	0.618928	7.3719e+06	-42089.1	1005.82	-29783.9	0.000000	0.000000	6.618983	-0.077923	NaN	0.000000	0.001597	0.001584	28.0827	0.024210	0.002044	11.8417	-27.3258	-164.857	-0.035053	0.617605	-0.455287	-0.456610	-0.077923	11.8417	-0.450352	-690705	1.128166E-7	NaN
700	1.000000	0.626970	7.3719e+06	-42089.1	1005.82	-29783.9	0.000000	0.000000	6.627026	-0.068208	NaN	0.000000	0.001592	0.001630	28.083	0.051386	0.002101	24.4601	13.2081	-163.583	-0.012824	0.625648	-0.447244	-0.448566	-0.068208	24.4601	-0.445153	-583509	1.168933E-7	NaN
700	1.000000	0.634981	7.3719e+06	-42089.1	1005.82	-29783.9	0.000000	0.000000	6.635040	0.024648	NaN	0.000000	0.001566	0.001644	28.0831	0.072467	0.001968	36.8208	-74.7202	-164.621	0.081858	0.633629	-0.439234	-0.440585	0.024648	36.8208	-0.439736	-489364	-5.036673E-8	NaN
700	1.000000	0.642951	7.3719e+06	-42089.1	1005.82	-29783.9	0.000000	0.000000	6.643009	-0.007644	NaN	0.000000	0.001603	0.001625	28.0833	0.151548	0.001936	78.2913	-46.0465	-162.746	0.037092	0.641631	-0.431263	-0.432584	-0.007644	78.2913	-0.431190	-370591	2.062656E-8	NaN
700	1.000000	0.650940	7.3719e+06	-42089.1	1005.82	-29783.9	0.000000	0.000000	6.650998	-0.008167	NaN	0.000000	0.001588	0.001577	28.0832	0.095669	0.001760	54.3555	57.7952	-165.084	0.002677	0.649641	-0.423275	-0.424573	-0.008167	54.3555	-0.423162	-285261	2.862902E-8	NaN
700	1.000000	0.658940	7.3719e+06	-42089.1	1005.82	-29783.9	0.000000	0.000000	6.658999	0.015918	NaN	0.000000	0.001593	0.001607	28.0831	0.069127	0.001983	34.8601	98.9924	-161.484	0.026911	0.657645	-0.415275	-0.416569	0.015918	34.8601	-0.415617	-222958	-7.139417E-8	NaN
700	1.000000	0.666960	7.3719e+06	-42089.1	1005.82	-29783.9	0.000000	0.000000	6.667020	0.031766	NaN	0.000000	0.001607	0.001628	28.0831	0.035467	0.002146	16.5263	48.2079	-165.282	-0.070042	0.665638	-0.407254	-0.408576	0.031766	16.5263	-0.408696	-177768	-1.786963E-7	NaN
700	1.000000	0.674960	7.3719e+06	-42089.1	1005.82	-29783.9	0.000000	0.000000	6.675017	-0.045033	NaN	0.000000	0.001615	0.001613	28.0826	0.034346	0.002028	16.935	-135.66	-164.811	-0.031644	0.673671	-0.399254	-0.400543	-0.045033	16.935	-0.397260	-122152	3.686613E-7	NaN
700	1.000000	0.682978	7.3719e+06	-42089.1	1005.82	-29783.9	0.000000	0.000000	6.683034	-0.035240	NaN	0.000000	0.001594	0.001641	28.083	0.042110	0.002017	20.8747	55.8319	-163.205	-0.006820	0.681679	-0.391237	-0.392536	-0.035240	20.8747	-0.389971	-96105.6	3.666813E-7	NaN
700	1.000000	0.690953	7.3719e+06	-42089.1	1005.82	-29783.9	0.000000	0.000000	6.691009	-0.046347	NaN	0.000000	0.001596	0.001628	28.0828	0.078209	0.002096	37.3097	154.249	-164.485	-0.045920	0.689694	-0.383262	-0.384521	-0.046347	37.3097	-0.382330	-74699.3	6.204481E-7	NaN
700	1.000000	0.698975	7.3719e+06	-42089.1	1005.82	-29783.9	0.000000	0.000000	6.699032	-0.031036	NaN	0.000000	0.001546	0.001621	28.0841	0.047205	0.002057	22.9522	-149.696	-163.42	-0.093052	0.697624	-0.375240	-0.376590	-0.031036	22.9522	-0.374226	-57139.8	5.431665E-7	NaN
700	1.000000	0.706958	7.3719e+06	-42089.1	1005.82	-29783.9	0.000000	0.000000	6.707016	0.003007	NaN	0.000000	0.001578	0.001581	28.0844	0.102153	0.001982	51.5516	-84.5496	-165.692	-0.021883	0.705665	-0.367256	-0.368550	0.003007	51.5516	-0.367300	-45417.9	-6.620738E-8	NaN
700	1.000000	0.714966	7.3719e+06	-42089.1	1005.82	-29783.9	0.000000	0.000000	6.715025	0.023593	NaN	0.000000	0.001558	0.001585	28.084	0.076268	0.001933	39.457	-152.738	-164.66	0.065121	0.713649	-0.359248	-0.360565	0.023593	39.457	-0.359697	-35274.6	-6.688237E-7	NaN
700	1.000000	0.722963	7.3719e+06	-42089.1	1005.82	-29783.9	0.000000	0.000000	6.723020	-0.029399	NaN	0.000000	0.001557	0.001588	28.0843	0.014131	0.002085	6.776147	175.703	-166.987	-0.012470	0.721670	-0.351251	-0.352545	-0.029399	6.776147	-0.347997	-23873.8	1.231424E-6	NaN
700	1.000000	0.730981	7.3719e+06	-42089.1	1005.82	-29783.9	0.000000	0.000000	6.731038	-0.041581	NaN	0.000000	0.001608	0.001601	28.0841	0.048323	0.002204	21.9284	-106.066	-165.808	-0.066508	0.729722	-0.343233	-0.344493	-0.041581	21.9284	-0.341811	-19406.4	2.142627E-6	NaN
700	1.000000	0.738995	7.3719e+06	-42089.1	1005.82	-29783.9	0.000000	0.000000	6.739054	0.018371	NaN	0.000000	0.001587	0.001640	28.0843	0.011222	0.001978	5.673848	1.398630	-162.09	-0.004743	0.737682	-0.335220	-0.336532	0.018371	5.673848	-0.337648	-16875.3	-1.088647E-6	NaN
700	1.000000	0.746972	7.3719e+06	-42089.1	1005.82	-29783.9	0.000000	0.000000	6.747030	-0.005609	NaN	0.000000	0.001593	0.001644	28.0843	0.134029	0.002039	65.725	-137.341	-162.874	0.000908	0.745634	-0.327243	-0.328580	-0.005609	65.725	-0.327179	-11860.6	4.728755E-7	NaN
700	1.000000	0.754970	7.3719e+06	-42089.1	1005.82	-29783.9	0.000000	0.000000	6.755029	0.008651	NaN	0.000000	0.001622	0.001619	28.084	0.025965	0.001972	13.1664	51.6711	-165.667	0.019955	0.753690	-0.319244	-0.320525	0.008651	13.1664	-0.319737	-9220.81	-9.381574E-7	NaN
700	1.000000	0.762981	7.3719e+06	-42089.1	1005.82	-29783.9	0.000000	0.000000	6.763040	0.032322	NaN	0.000000	0.001620	0.001594	28.0842	0.010767	0.002000	5.383358	134.726	-160.111	0.015209	0.761709	-0.311234	-0.312506	0.032322	5.383358	-0.315737	-8050.4	-4.014906E-6	NaN
700	1.000000	0.771002	7.3719e+06	-42089.1	1005.82	-29783.9	0.000000	0.000000	6.771060	-0.018886	NaN	0.000000	0.001622	0.001609	28.0841	0.093927	0.002099	44.7468	-177.096	-162.356	-0.000642	0.769686	-0.303212	-0.304528	-0.018886	44.7468	-0.302896	-5196.42	3.634509E-6	NaN
700	1.000000	0.778994	7.3719e+06	-42089.1	1005.82	-29783.9	0.000000	0.000000	6.779054	0.036777	NaN	0.000000	0.001587	0.001601	28.0842	0.094423	0.002076	45.4781	-105.189	-163.789	0.018583	0.777691	-0.295220	-0.296524	0.036777	45.4781	-0.295827	-4077.87	-9.018747E-6	NaN
700	1.000000	0.786984	7.3719e+06	-42089.1	1005.82	-29783.9	0.000000	0.000000	6.787040	-0.034137	NaN	0.000000	0.001625	0.001620	28.0839	0.112652	0.001991	56.5871	168.013	-162.709	0.030827	0.785686	-0.287231	-0.288528	-0.034137	56.5871	-0.286778	-2985.29	1.143521E-5	NaN
700	1.000000	0.794986	7.3719e+06	-42089.1	1005.82	-29783.9	0.000000	0.000000	6.795045	0.005507	NaN	0.000000	0.001587	0.001636	28.084	0.083428	0.002129	39.1882	-88.917	-165.013	0.018628	0.793634	-0.279228	-0.280580	0.005507	39.1882	-0.279334	-2306.3	-2.387954E-6	NaN
700	1.000000	0.803030	7.3719e+06	-42089.1	1005.82	-29783.9	0.000000	0.000000	6.803090	0.021957	NaN	0.000000	0.001604	0.001587	28.084	0.021627	0.001926	11.2291	149.438	-163.158	0.072919	0.801695	-0.271184	-0.272520	0.021957	11.2291	-0.272651	-1827.24	-1.201640E-5	NaN
700	1.000000	0.810975	7.3719e+06	-42089.1	1005.82	-29783.9	0.000000	0.000000	6.811032	-0.016817	NaN	0.000000	0.001609	0.001591	28.0838	0.035255	0.001854	19.0165	-67.2119	-163.98	-0.055630	0.809698	-0.263240	-0.264516	-0.016817	19.0165	-0.262577	-1283.41	1.310359E-5	NaN
700	1.000000	0.819032	7.3719e+06	-42089.1	1005.82	-29783.9	0.000000	0.000000	6.819093	0.057016	NaN	0.000000	0.001616	0.001603	28.0838	0.082647	0.001993	41.4787	122.938	-162.453	0.066046	0.817761	-0.255182	-0.256453	0.057016	41.4787	-0.256213	-1025.14	-5.561807E-5	NaN
700	1.000000	0.826999	7.3719e+06	-42089.1	1005.82	-29783.9	0.000000	0.000000	6.827056	-0.025037	NaN	0.000000	0.001609	0.001592	28.0837	0.044543	0.001960	22.7217	132.521	-166.945	-0.076026	0.825689	-0.247216	-0.248526	-0.025037	22.7217	-0.246389	-722.816	3.463757E-5	NaN
700	1.000000	0.835026	7.3719e+06	-42089.1	1005.82	-29783.9	0.000000	0.000000	6.835082	-0.067738	NaN	0.000000	0.001607	0.001624	28.0826	0.130007	0.002084	62.3737	162.153	-163.921	-0.073856	0.833679	-0.239188	-0.240536	-0.067738	62.3737	-0.238374	-542.166	0.000125	NaN
700	1.000000	0.843017	7.3719e+06	-42089.1	1005.82	-29783.9	0.000000	0.000000	6.843074	-0.022191	NaN	0.000000	0.001598	0.001611	28.0829	0.023980	0.001986	12.0742	-104.051	-167.389	0.105935	0.841693	-0.231198	-0.232522	-0.022191	12.0742	-0.229820	-397.802	5.578525E-5	NaN
700	1.000000	0.851001	7.3719e+06	-42089.1	1005.82	-29783.9	0.000000	0.000000	6.851058	-0.037178	NaN	0.000000	0.001596	0.001582	28.0825	0.113894	0.001936	58.8333	-165.539	-164.642	-0.068302	0.849728	-0.223214	-0.224486	-0.037178	58.8333	-0.222740	-307.174	0.000121	NaN
700	1.000000	0.859008	7.3719e+06	-42089.1	1005.82	-29783.9	0.000000	0.000000	6.859065	-0.028770	NaN	0.000000	0.001611	0.001561	28.0827	0.109584	0.002050	53.4539	67.6143	-165.694	-0.143201	0.857796	-0.215207	-0.216419	-0.028770	53.4539	-0.214803	-229.272	0.000125	NaN
700	1.000000	0.867043	7.3719e+06	-42089.1	1005.82	-29783.9	0.000000	0.000000	6.867103	0.032440	NaN	0.000000	0.001614	0.001586	28.0827	0.014503	0.001910	7.591857	18.0297	-160.974	-0.002373	0.865736	-0.207171	-0.208479	0.032440	7.591857	-0.210376	-194.494	-0.000167	NaN
700	1.000000	0.875030	7.3719e+06	-42089.1	1005.82	-29783.9	0.000000	0.000000	6.875088	-0.014602	NaN	0.000000	0.001629	0.001569	28.083	0.050342	0.002036	24.7262	5.321349	-163.919	0.000666	0.873755	-0.199184	-0.200459	-0.014602	24.7262	-0.198741	-125.601	0.000116	NaN
700	1.000000	0.883047	7.3719e+06	-42089.1	1005.82	-29783.9	0.000000	0.000000	6.883106	0.017523	NaN	0.000000	0.001638	0.001563	28.083	0.083961	0.001958	42.8747	-79.9916	-162.326	0.053644	0.881740	-0.191168	-0.192474	0.017523	42.8747	-0.191474	-95.1975	-0.000184	NaN
700	1.000000	0.891052	7.3719e+06	-42089.1	1005.82	-29783.9	0.000000	0.000000	6.891110	-0.003154	NaN	0.000000	0.001646	0.001573	28.0832	0.017443	0.002040	8.550442	-29.2109	-166.669	0.007072	0.889744	-0.183162	-0.184471	-0.003154	8.550442	-0.182886	-68.3013	4.617462E-5	NaN
700	1.000000	0.899046	7.3719e+06	-42089.1	1005.82	-29783.9	0.000000	0.000000	6.899105	0.011782	NaN	0.000000	0.001641	0.001557	28.083	0.004960	0.002031	2.441905	-23.1009	-167.174	0.043127	0.897770	-0.175169	-0.176444	0.011782	2.441905	-0.178787	-58.185	-0.000202	NaN
700	1.000000	0.907029	7.3719e+06	-42089.1	1005.82	-29783.9	0.000000	0.000000	6.907088	0.008815	NaN	0.000000	0.001644	0.001550	28.0827	0.071697	0.001845	38.8568	88.3175	-169.119	-0.022053	0.905751	-0.167185	-0.168464	0.008815	38.8568	-0.167355	-36.9449	-0.000239	NaN
700	1.000000	0.915058	7.3719e+06	-42089.1	1005.82	-29783.9	0.000000	0.000000	6.915113	-0.073629	NaN	0.000000	0.001644	0.001589	28.0829	0.062510	0.002071	30.1821	25.4409	-163.908	-0.024922	0.913723	-0.159157	-0.160492	-0.073629	30.1821	-0.157327	-24.5657	0.002997	NaN
700	1.000000	0.923053	7.3719e+06	-42089.1	1005.82	-29783.9	0.000000	0.000000	6.923111	-0.000192	NaN	0.000000	0.001630	0.001598	28.0825	0.076014	0.001874	40.5676	-39.4662	-164.272	0.008290	0.921708	-0.151162	-0.152507	-0.000192	40.5676	-0.151159	-19.0152	1.008415E-5	NaN
700	1.000000	0.931046	7.3719e+06	-42089.1	1005.82	-29783.9	0.000000	0.000000	6.931101	-0.070546	NaN	0.000000	0.001631	0.001624	28.0827	0.092867	0.001946	47.7177	53.0155	-166.256	0.045288	0.929778	-0.143169	-0.144437	-0.070546	47.7177	-0.142060	-12.9281	0.005457	NaN
700	1.000000	0.939060	7.3719e+06	-42089.1	1005.82	-29783.9	0.000000	0.000000	6.939120	0.044878	NaN	0.000000	0.001622	0.001586	28.0827	0.148744	0.001950	76.2928	-107.871	-163.848	-0.034374	0.937770	-0.135155	-0.136445	0.044878	76.2928	-0.135596	-9.764754	-0.004596	NaN
700	1.000000	0.947059	7.3719e+06	-42089.1	1005.82	-29783.9	0.000000	0.000000	6.947119	0.042784	NaN	0.000000	0.001609	0.001587	28.0828	0.046616	0.001898	24.5627	117.53	-165.171	0.000650	0.945770	-0.127155	-0.128445	0.042784	24.5627	-0.128462	-7.112885	-0.006015	NaN
700	1.000000	0.955046	7.3719e+06	-42089.1	1005.82	-29783.9	0.000000	0.000000	6.955106	0.044825	NaN	0.000000	0.001621	0.001589	28.0832	0.023373	0.001946	12.0095	85.3131	-166.89	0.048836	0.953777	-0.119169	-0.120438	0.044825	12.0095	-0.121968	-5.292351	-0.008470	NaN
700	1.000000	0.963057	7.3719e+06	-42089.1	1005.82	-29783.9	0.000000	0.000000	6.963113	-0.050998	NaN	0.000000	0.001616	0.001580	28.0828	0.013873	0.001933	7.178593	24.609	-162.615	-0.079089	0.961764	-0.111157	-0.112451	-0.050998	7.178593	-0.105829	-2.449352	0.020821	NaN
700	1.000000	0.971070	7.3719e+06	-42089.1	1005.82	-29783.9	0.000000	0.000000	6.971129	0.033393	NaN	0.000000	0.001586	0.001633	28.0842	0.096178	0.002065	46.585	54.0249	-167.377	0.065037	0.969734	-0.103145	-0.104481	0.033393	46.585	-0.103683	-2.201005	-0.015172	NaN
700	1.000000	0.979058	7.3719e+06	-42089.1	1005.82	-29783.9	0.000000	0.000000	6.979117	0.019595	NaN	0.000000	0.001598	0.001628	28.084	0.092553	0.002005	46.1638	141.712	-164.572	0.017361	0.977753	-0.095157	-0.096462	0.019595	46.1638	-0.095475	-1.446188	-0.013549	NaN
700	1.000000	0.987105	7.3719e+06	-42089.1	1005.82	-29783.9	0.000000	0.000000	6.987163	-0.001321	NaN	0.000000	0.001619	0.001597	28.0841	0.059162	0.002185	27.0731	-84.4231	-165.896	-0.010656	0.985771	-0.087110	-0.088444	-0.001321	27.0731	-0.087073	-0.921556	0.001433	NaN
700	1.000000	0.995069	7.3719e+06	-42089.1	1005.82	-29783.9	0.000000	0.000000	6.995126	-0.039437	NaN	0.000000	0.001617	0.001580	28.084	0.167419	0.002022	82.7892	177.36	-166.043	-0.099025	0.993761	-0.079145	-0.080453	-0.039437	82.7892	-0.078788	-0.577103	0.068337	NaN
700	1.000000	1.003091	7.3719e+06	-42089.1	1005.82	-29783.9	0.000000	0.000000	7.003149	0.002471	NaN	0.000000	0.001619	0.001607	28.0838	0.137871	0.001993	69.175	-91.8443	-163.12	0.002995	1.001773	-0.071124	-0.072441	0.002471	69.175	-0.071151	-0.366093	-0.006749	NaN
700	1.000000	1.011076	7.3719e+06	-42089.1	1005.82	-29783.9	0.000000	0.000000	7.011135	0.029650	NaN	0.000000	0.001610	0.001562	28.0855	0.078654	0.001929	40.7698	96.9326	-163.717	0.072468	1.009753	-0.063139	-0.064462	0.029650	40.7698	-0.063685	-0.229044	-0.129449	NaN
700	1.000000	1.019085	7.3719e+06	-42089.1	1005.82	-29783.9	0.000000	0.000000	7.019141	-0.067936	NaN	0.000000	0.001631	0.001585	28.0841	0.043058	0.001944	22.1519	-34.4308	-162.974	-0.132000	1.017715	-0.055129	-0.056499	-0.067936	22.1519	-0.052829	-0.110997	0.612056	NaN
700	1.000000	1.027099	7.3719e+06	-42089.1	1005.82	-29783.9	0.000000	0.000000	7.027160	0.061064	NaN	0.000000	0.001628	0.001584	28.084	0.044917	0.001988	22.5968	30.4816	-165.154	0.055258	1.025786	-0.047115	-0.048428	0.061064	22.5968	-0.049142	-0.085952	-0.710440	NaN
700	1.000000	1.035109	7.3719e+06	-42089.1	1005.82	-29783.9	0.000000	0.000000	7.035165	-0.045450	NaN	0.000000	0.001644	0.001603	28.0841	0.060971	0.002108	28.9288	157.927	-166.707	-0.105899	1.033727	-0.039106	-0.040488	-0.045450	28.9288	-0.037927	-0.039145	1.161061	NaN
700	1.000000	1.043100	7.3719e+06	-42089.1	1005.82	-29783.9	0.000000	0.000000	7.043157	-0.034829	NaN	0.000000	0.001666	0.001571	28.0841	0.031062	0.001999	15.5422	109.885	-164.876	-0.014403	1.041825	-0.031114	-0.032389	-0.034829	15.5422	-0.029434	-0.022194	1.569266	NaN
700	1.000000	1.051082	7.3719e+06	-42089.1	1005.82	-29783.9	0.000000	0.000000	7.051141	0.003264	NaN	0.000000	0.001623	0.001622	28.0843	0.073903	0.001930	38.3006	-152.669	-163.565	0.034570	1.049787	-0.023132	-0.024427	0.003264	38.3006	-0.023196	-0.015151	-0.215432	NaN
700	1.000000	1.059103	7.3719e+06	-42089.1	1005.82	-29783.9	0.000000	0.000000	7.059161	0.012961	NaN	0.000000	0.001620	0.001591	28.0839	0.026509	0.001960	13.5234	70.1647	-165.661	-0.035502	1.057847	-0.015112	-0.016368	0.012961	13.5234	-0.015831	-0.009779	-1.325416	NaN
700	1.000000	1.067122	7.3719e+06	-42089.1	1005.82	-29783.9	0.000000	0.000000	7.067182	0.041089	NaN	0.000000	0.001628	0.001541	28.084	0.095503	0.002119	45.0747	-95.426	-166.99	0.055596	1.065855	-0.007093	-0.008359	0.041089	45.0747	-0.007776	-0.005100	-8.056080	NaN
700	1.000000	1.075117	7.3719e+06	-42089.1	1005.82	-29783.9	0.000000	0.000000	7.075177	0.053451	NaN	0.000000	0.001655	0.001604	28.0838	0.121920	0.002063	59.1005	38.8087	-168.288	-0.033443	1.073806	0.000902	-0.000409	0.053451	59.1005	0.000224	0.000168	318.341	4167.1
700	1.000000	1.083071	7.3719e+06	-42089.1	1005.82	-29783.9	0.000000	0.000000	7.083391	6.355815	NaN	0.000000	0.001643	0.001602	28.0838	4.320357	0.001715	2519.57	7.096032	-166.339	4.376456	1.081761	0.008857	0.007546	6.355815	2519.57	0.006965	0.005999	1059.45	29720.4
700	2.000000	1.087599	7.3719e+06	-42089.1	1005.82	-29783.9	0.000000	0.000000	7.088115	11.1519	NaN	0.000000	0.001604	0.001610	28.0836	7.770831	0.001719	4520.94	6.543694	-168.763	10.8525	1.087341	0.013384	0.013126	11.1519	4520.94	0.011534	0.010937	1019.67	39496.4
700	2.000000	1.089597	7.3719e+06	-42089.1	1005.82	-29783.9	0.000000	0.000000	7.090335	16.5175	NaN	0.000000	0.001596	0.001596	28.0839	10.8383	0.001705	6358.46	7.541357	-174.135	16.027	1.089311	0.015383	0.015096	16.5175	6358.46	0.013435	0.013254	1246.21	50460.2
700	2.000000	1.091606	7.3719e+06	-42089.1	1005.82	-29783.9	0.000000	0.000000	7.092301	15.5049	NaN	0.000000	0.001572	0.001611	28.0837	12.2106	0.001864	6551.38	9.735755	-173.352	15.4792	1.091249	0.017391	0.017035	15.5049	6551.38	0.015616	0.016116	962.084	47149.7
700	2.000000	1.093548	7.3719e+06	-42089.1	1005.82	-29783.9	0.000000	0.000000	7.094365	18.4724	NaN	0.000000	0.001599	0.001625	28.0825	13.6942	0.001798	7615.11	2.969869	-168.308	17.9856	1.093268	0.019333	0.019053	18.4724	7615.11	0.017514	0.018785	983.333	50762
700	2.000000	1.095574	7.3719e+06	-42089.1	1005.82	-29783.9	0.000000	0.000000	7.096518	21.5585	NaN	0.000000	0.001594	0.001593	28.0826	15.8855	0.001782	8915.81	8.214638	-174.788	22.111	1.095260	0.021359	0.021045	21.5585	8915.81	0.019546	0.021834	987.4	55127.9
700	2.000000	1.097530	7.3719e+06	-42089.1	1005.82	-29783.9	0.000000	0.000000	7.098589	24.3464	NaN	0.000000	0.001586	0.001609	28.0827	17.6369	0.001674	10536.4	6.787009	-176.106	23.5761	1.097218	0.023315	0.023003	24.3464	10536.4	0.021582	0.025090	970.37	60773.7
700	2.000000	1.099538	7.3719e+06	-42089.1	1005.82	-29783.9	0.000000	0.000000	7.100821	29.79	NaN	0.000000	0.001586	0.001618	28.0824	20.4129	0.001800	11342.4	8.124161	-177.669	29.7275	1.099209	0.025324	0.024994	29.79	11342.4	0.023354	0.028089	1060.56	61831.5
700	2.000000	1.101525	7.3719e+06	-42089.1	1005.82	-29783.9	0.000000	0.000000	7.102950	33.2534	NaN	0.000000	0.001569	0.001589	28.0829	22.2684	0.001734	12839.1	6.333034	-176.742	32.6537	1.101180	0.027310	0.026965	33.2534	12839.1	0.025368	0.031688	1049.39	65895.8
700	2.000000	1.103504	7.3719e+06	-42089.1	1005.82	-29783.9	0.000000	0.000000	7.105193	39.6731	NaN	0.000000	0.001622	0.001587	28.0823	23.6553	0.001618	14622.4	3.383198	-174.984	39.2255	1.103166	0.029289	0.028951	39.6731	14622.4	0.027254	0.035245	1125.63	71161
700	2.000000	1.105518	7.3719e+06	-42089.1	1005.82	-29783.9	0.000000	0.000000	7.107232	40.2855	NaN	0.000000	0.001600	0.001595	28.0826	26.571	0.001746	15221.2	3.684854	-176.092	39.1665	1.105256	0.031303	0.031041	40.2855	15221.2	0.029318	0.039342	1023.98	70112
700	2.000000	1.107471	7.3719e+06	-42089.1	1005.82	-29783.9	0.000000	0.000000	7.109521	48.4449	NaN	0.000000	0.001589	0.001672	28.0828	28.614	0.001831	15628.6	10.8919	176.441	46.9944	1.107152	0.033257	0.032938	48.4449	15628.6	0.030932	0.042697	1134.61	69102.4
700	2.000000	1.109501	7.3719e+06	-42089.1	1005.82	-29783.9	0.000000	0.000000	7.111754	53.4251	NaN	0.000000	0.001562	0.001651	28.0825	30.6961	0.001776	17282.6	4.081151	-177.513	53.5303	1.109216	0.035286	0.035001	53.4251	17282.6	0.032967	0.047119	1133.83	72741.6
700	2.000000	1.111505	7.3719e+06	-42089.1	1005.82	-29783.9	0.000000	0.000000	7.113979	58.7803	NaN	0.000000	0.001574	0.001668	28.0829	33.0738	0.001821	18159.8	6.500912	179.832	58.1046	1.111255	0.037290	0.037040	58.7803	18159.8	0.034862	0.051426	1143.01	73163.2
700	2.000000	1.113481	7.3719e+06	-42089.1	1005.82	-29783.9	0.000000	0.000000	7.116477	71.5003	NaN	0.000000	0.001586	0.001645	28.0825	34.2956	0.001731	19816.6	4.502209	-178.857	69.8487	1.113122	0.039266	0.038907	71.5003	19816.6	0.036560	0.055440	1289.68	76893.3
700	2.000000	1.115503	7.3719e+06	-42089.1	1005.82	-29783.9	0.000000	0.000000	7.118551	72.7349	NaN	0.000000	0.001566	0.001701	28.0829	37.8864	0.001826	20754	8.424983	176.371	72.2005	1.115171	0.041288	0.040956	72.7349	20754	0.038660	0.060611	1200.03	77019.1
700	2.000000	1.117541	7.3719e+06	-42089.1	1005.82	-29783.9	0.000000	0.000000	7.120803	77.9386	NaN	0.000000	0.001619	0.001634	28.0828	39.2803	0.001841	21337	6.670949	178.34	78.7282	1.117190	0.043327	0.042976	77.9386	21337	0.040587	0.065554	1188.92	76138.8
700	2.000000	1.119476	7.3719e+06	-42089.1	1005.82	-29783.9	0.000000	0.000000	7.123227	89.8496	NaN	0.000000	0.001618	0.001634	28.0826	41.198	0.001679	24535.9	4.576502	178.186	90.2262	1.119151	0.045261	0.044936	89.8496	24535.9	0.042515	0.070689	1271.05	84314
700	2.000000	1.121503	7.3719e+06	-42089.1	1005.82	-29783.9	0.000000	0.000000	7.125674	100.072	NaN	0.000000	0.001576	0.001636	28.083	43.3402	0.001776	24400.9	5.246990	178.027	97.6692	1.121080	0.047288	0.046866	100.072	24400.9	0.044213	0.075368	1327.79	81205.8
700	2.000000	1.123456	7.3719e+06	-42089.1	1005.82	-29783.9	0.000000	0.000000	7.127944	107.789	NaN	0.000000	0.001613	0.001637	28.0826	45.253	0.001677	26981.6	5.249549	177.847	106.555	1.123100	0.049241	0.048886	107.789	26981.6	0.046245	0.081161	1328.09	86529.8
700	2.000000	1.125486	7.3719e+06	-42089.1	1005.82	-29783.9	0.000000	0.000000	7.130186	112.937	NaN	0.000000	0.001582	0.001644	28.0845	48.034	0.001785	26917.3	5.999469	177.421	112.992	1.125164	0.051271	0.050949	112.937	26917.3	0.048125	0.086705	1302.54	83518.6
700	2.000000	1.127445	7.3719e+06	-42089.1	1005.82	-29783.9	0.000000	0.000000	7.132729	127.149	NaN	0.000000	0.001592	0.001633	28.0841	49.1522	0.001711	28729.1	6.562800	175.589	124.478	1.127084	0.053230	0.052869	127.149	28729.1	0.049911	0.092138	1379.98	86472
700	2.000000	1.129347	7.3719e+06	-42089.1	1005.82	-29783.9	0.000000	0.000000	7.134763	130.364	NaN	0.000000	0.001583	0.001668	28.084	51.366	0.001827	28114.7	5.404478	176.394	124.514	1.129080	0.055132	0.054866	130.364	28114.7	0.051654	0.097595	1335.77	82223.1
700	2.000000	1.131535	7.3719e+06	-42089.1	1005.82	-29783.9	0.000000	0.000000	7.137443	142.326	NaN	0.000000	0.001597	0.001674	28.0843	52.0758	0.001672	31147.9	-1.021596	-177.571	142.858	1.131123	0.057321	0.056908	142.326	31147.9	0.053894	0.104827	1357.72	87895.3
700	2.000000	1.133504	7.3719e+06	-42089.1	1005.82	-29783.9	0.000000	0.000000	7.140022	157.164	NaN	0.000000	0.001600	0.001649	28.084	54.7425	0.001756	31178.2	8.953975	172.834	159.523	1.133105	0.059289	0.058890	157.164	31178.2	0.055509	0.110198	1426.2	85810
700	2.000000	1.135507	7.3719e+06	-42089.1	1005.82	-29783.9	0.000000	0.000000	7.142510	168.988	NaN	0.000000	0.001627	0.001659	28.0842	57.6772	0.001685	34222.9	0.313458	-178.668	172.839	1.135158	0.061292	0.060944	168.988	34222.9	0.057589	0.117305	1440.59	91291.9
700	2.000000	1.137387	7.3719e+06	-42089.1	1005.82	-29783.9	0.000000	0.000000	7.144825	179.577	NaN	0.000000	0.001596	0.001652	28.0843	59.576	0.001755	33943.1	6.618625	173.866	175.56	1.137236	0.063172	0.063022	179.577	33943.1	0.059204	0.122970	1460.33	88435.3
700	2.000000	1.139446	7.3719e+06	-42089.1	1005.82	-29783.9	0.000000	0.000000	7.147236	188.121	NaN	0.000000	0.001580	0.001628	28.0842	61.5736	0.001799	34222.5	5.346509	174.904	186.346	1.139135	0.065232	0.064920	188.121	34222.5	0.061109	0.129815	1449.15	86780.5
700	2.000000	1.141478	7.3719e+06	-42089.1	1005.82	-29783.9	0.000000	0.000000	7.150053	207.217	NaN	0.000000	0.001686	0.001675	28.0844	63.3688	0.001714	36962.5	5.374156	174.389	205.652	1.141159	0.067264	0.066944	207.217	36962.5	0.063059	0.137006	1512.47	91235.7
700	2.000000	1.143406	7.3719e+06	-42089.1	1005.82	-29783.9	0.000000	0.000000	7.152551	221.102	NaN	0.000000	0.001664	0.001659	28.0842	64.382	0.001737	37066	2.821798	177.076	219.752	1.143061	0.069191	0.068847	221.102	37066	0.064718	0.143266	1543.3	89469.9
700	2.000000	1.145493	7.3719e+06	-42089.1	1005.82	-29783.9	0.000000	0.000000	7.154902	227.499	NaN	0.000000	0.001657	0.001710	28.0839	68.378	0.001745	39179.4	6.182525	173.11	230.155	1.145078	0.071279	0.070864	227.499	39179.4	0.066924	0.151800	1498.67	91874.5
700	2.000000	1.147423	7.3719e+06	-42089.1	1005.82	-29783.9	0.000000	0.000000	7.157506	243.911	NaN	0.000000	0.001681	0.001672	28.0841	68.6556	0.001684	40773.7	1.702766	177.339	243.958	1.147133	0.073209	0.072918	243.911	40773.7	0.068722	0.158929	1534.72	93444.1
700	2.000000	1.149445	7.3719e+06	-42089.1	1005.82	-29783.9	0.000000	0.000000	7.159919	253.44	NaN	0.000000	0.001738	0.001641	28.0842	72.1609	0.001795	40191.5	4.780461	174.368	252.109	1.149186	0.075231	0.074972	253.44	40191.5	0.070501	0.166133	1525.53	90090.6
700	2.000000	1.151476	7.3719e+06	-42089.1	1005.82	-29783.9	0.000000	0.000000	7.162552	268.065	NaN	0.000000	0.001717	0.001659	28.0841	74.8744	0.001771	42266.7	6.845922	172.109	268.964	1.151161	0.077262	0.076947	268.065	42266.7	0.072505	0.174427	1536.83	92462.5
700	2.000000	1.153472	7.3719e+06	-42089.1	1005.82	-29783.9	0.000000	0.000000	7.165008	279.268	NaN	0.000000	0.001707	0.001634	28.0839	76.0241	0.001895	40108.2	7.842985	171.864	280.863	1.153129	0.079257	0.078914	279.268	40108.2	0.074035	0.180889	1543.86	86158.9
700	2.000000	1.155436	7.3719e+06	-42089.1	1005.82	-29783.9	0.000000	0.000000	7.167535	292.975	NaN	0.000000	0.001739	0.001678	28.0839	77.8581	0.001909	40775	2.712665	176.242	290.872	1.155306	0.081221	0.081091	292.975	40775	0.075832	0.188618	1553.27	85777.9
700	2.000000	1.157473	7.3719e+06	-42089.1	1005.82	-29783.9	0.000000	0.000000	7.170230	308.981	NaN	0.000000	0.001710	0.001627	28.0839	79.3698	0.001768	44882.4	9.597751	168.351	310.505	1.157145	0.083258	0.082931	308.981	44882.4	0.078095	0.198567	1556.06	92022.8
700	2.000000	1.159386	7.3719e+06	-42089.1	1005.82	-29783.9	0.000000	0.000000	7.172747	323.677	NaN	0.000000	0.001729	0.001610	28.0829	80.8019	0.001806	44752.5	3.212754	175.571	320.635	1.159102	0.085171	0.084888	323.677	44752.5	0.079747	0.205981	1571.39	90090.1
700	2.000000	1.161553	7.3719e+06	-42089.1	1005.82	-29783.9	0.000000	0.000000	7.175421	336.004	NaN	0.000000	0.001696	0.001625	28.0828	83.5272	0.001811	46110	7.108096	171.786	341.318	1.161056	0.087339	0.086842	336.004	46110	0.081873	0.215712	1557.65	90704.9
700	2.000000	1.163421	7.3719e+06	-42089.1	1005.82	-29783.9	0.000000	0.000000	7.177844	349.519	NaN	0.000000	0.001705	0.001628	28.0831	84.544	0.001769	47794.9	5.402879	172.798	346.71	1.163070	0.089207	0.088856	349.519	47794.9	0.083722	0.224343	1557.97	92193.1
700	2.000000	1.165486	7.3719e+06	-42089.1	1005.82	-29783.9	0.000000	0.000000	7.180508	364.112	NaN	0.000000	0.001688	0.001629	28.0826	87.3116	0.001707	51159.6	5.633479	171.908	366.041	1.165146	0.091271	0.090932	364.112	51159.6	0.085933	0.234873	1550.25	96445.9
700	2.000000	1.167389	7.3719e+06	-42089.1	1005.82	-29783.9	0.000000	0.000000	7.183247	384.419	NaN	0.000000	0.001700	0.001669	28.083	88.1015	0.001754	50239.6	4.540823	172.88	381.692	1.167173	0.093175	0.092958	384.419	50239.6	0.087436	0.242158	1587.47	93275.9
700	2.000000	1.169346	7.3719e+06	-42089.1	1005.82	-29783.9	0.000000	0.000000	7.185726	397.116	NaN	0.000000	0.001697	0.001668	28.083	91.5362	0.001956	46803.9	5.809554	172.172	391.088	1.169036	0.095132	0.094821	397.116	46803.9	0.088768	0.248705	1596.74	85745.9
700	2.000000	1.171453	7.3719e+06	-42089.1	1005.82	-29783.9	0.000000	0.000000	7.188497	413.287	NaN	0.000000	0.001662	0.001672	28.083	92.8654	0.001812	51239.6	4.896044	172.278	412.902	1.171184	0.097239	0.096969	413.287	51239.6	0.091189	0.260810	1584.63	91667.9
700	2.000000	1.173434	7.3719e+06	-42089.1	1005.82	-29783.9	0.000000	0.000000	7.191226	431.478	NaN	0.000000	0.001674	0.001639	28.0833	93.1383	0.001804	51619.8	5.132142	172.433	431.005	1.173067	0.099220	0.098853	431.478	51619.8	0.092951	0.269784	1599.35	90799
700	2.000000	1.175393	7.3719e+06	-42089.1	1005.82	-29783.9	0.000000	0.000000	7.193811	446.71	NaN	0.000000	0.001698	0.001627	28.0833	96.1487	0.001753	54849.8	4.070901	172.958	446.454	1.175070	0.101178	0.100855	446.71	54849.8	0.095070	0.280771	1591.01	94574.1
700	2.000000	1.177383	7.3719e+06	-42089.1	1005.82	-29783.9	0.000000	0.000000	7.196718	469.029	NaN	0.000000	0.001697	0.001716	28.0829	95.705	0.001689	56648.6	5.172852	171.664	467.787	1.177012	0.103169	0.102798	469.029	56648.6	0.096959	0.290735	1613.25	95987.3
700	2.000000	1.179330	7.3719e+06	-42089.1	1005.82	-29783.9	0.000000	0.000000	7.199266	483.659	NaN	0.000000	0.001711	0.001756	28.0827	100.184	0.001762	56865.5	9.983501	166.648	477.725	1.178923	0.105115	0.104708	483.659	56865.5	0.098737	0.300261	1610.8	94814.1
700	2.000000	1.181449	7.3719e+06	-42089.1	1005.82	-29783.9	0.000000	0.000000	7.202098	500.997	NaN	0.000000	0.001641	0.001745	28.0827	101.044	0.001705	59247.4	2.511660	174.015	499.852	1.181094	0.107235	0.106879	500.997	59247.4	0.100893	0.312009	1605.71	96907.8
700	2.000000	1.183296	7.3719e+06	-42089.1	1005.82	-29783.9	0.000000	0.000000	7.204273	508.969	NaN	0.000000	0.001631	0.001764	28.0826	103.449	0.001790	57805.6	2.845873	173.543	502.315	1.182989	0.109082	0.108774	508.969	57805.6	0.102478	0.320780	1586.66	93247.9
700	2.000000	1.184859	7.3719e+06	-42089.1	1005.82	-29783.9	0.000000	0.000000	7.206792	532.236	NaN	0.000000	0.001607	0.001774	28.0828	105.412	0.001756	60014.5	5.112747	-8.857070	525.531	1.184563	0.110644	0.110348	532.236	60014.5	0.103993	0.329270	1616.41	95554.9