File: remote_trans/data/nanoindenter/0828-1/data/Data_2025-08-06,11h17m57s/2025-07-22_16-23-58_1_704.txt
2025-07-22, 16:23:58, 1
Index	Phase	Displacement	Time	Pos X	Pos Y	Pos Z	Rot A	Rot B	Piezo Z	Force A	Force B	Gripper	Voltage A	Voltage B	Temperature	Amplitude force	Amplitude pos	Stiffness	Phase shift	Phase excitation	Force A raw	Displacement raw	HMax	HMax raw	Real Force	Real Stiffness	Contact Depth	Area	Hardness	Reduced Mod.
[#]	[#]	[um]	[s]	[um]	[um]	[um]	[m°]	[m°]	[um]	[uN]	[uN]	[V]	[V]	[V]	[°C]	[uN]	[um]	[N/m]	[°]	[°]	[uN]	[um]	[um]	[um]	[uN]	[N/m]	[um]	[um^2]	[MPa]	[MPa]
704	1.000000	0.002271	7.37194e+06	-41889.1	1005.82	-29784.5	0.000000	0.000000	6.002799	0.025237	NaN	0.000000	0.001641	0.001711	28.0822	0.036247	0.000967	37.4688	-146.428	-172.369	0.062599	0.001079	-1.194936	-1.196128	0.025237	37.4688	-1.195441	-9.543356E+15	-2.644499E-18	NaN
704	1.000000	0.012318	7.37194e+06	-41889.1	1005.82	-29784.5	0.000000	0.000000	6.012845	0.002436	NaN	0.000000	0.001651	0.001741	28.082	0.077273	0.001212	63.7526	156.886	14.5654	-0.030559	0.010900	-1.184889	-1.186307	0.002436	63.7526	-1.184917	-6.898358E+15	-3.530833E-19	NaN
704	1.000000	0.022212	7.37194e+06	-41889.1	1005.82	-29784.5	0.000000	0.000000	6.022737	-0.031898	NaN	0.000000	0.001648	0.001738	28.0822	0.111918	0.001636	68.4024	-53.4517	-165.015	-0.055858	0.020911	-1.174996	-1.176296	-0.031898	68.4024	-1.174646	-5.025013E+15	6.347942E-18	NaN
704	1.000000	0.032244	7.37194e+06	-41889.1	1005.82	-29784.5	0.000000	0.000000	6.032772	0.035846	NaN	0.000000	0.001718	0.001704	28.0824	0.039034	0.001974	19.7755	129.225	13.1159	0.098318	0.030850	-1.164963	-1.166357	0.035846	19.7755	-1.166323	-3.886927E+15	-9.222316E-18	NaN
704	1.000000	0.042221	7.37194e+06	-41889.1	1005.82	-29784.5	0.000000	0.000000	6.042746	-0.045702	NaN	0.000000	0.001746	0.001765	28.0811	0.082219	0.001956	42.0252	-20.3898	-167.084	-0.064155	0.040925	-1.154986	-1.156282	-0.045702	42.0252	-1.154171	-2.671364E+15	1.710798E-17	NaN
704	1.000000	0.052227	7.37194e+06	-41889.1	1005.82	-29784.5	0.000000	0.000000	6.052751	-0.068375	NaN	0.000000	0.001754	0.001723	28.0807	0.066040	0.001795	36.7872	18.2344	15.1053	-0.074197	0.050876	-1.144980	-1.146332	-0.068375	36.7872	-1.143586	-1.926727E+15	3.548773E-17	NaN
704	1.000000	0.062215	7.37194e+06	-41889.1	1005.82	-29784.5	0.000000	0.000000	6.062744	0.053964	NaN	0.000000	0.001765	0.001797	28.0808	0.131933	0.001933	68.2648	-23.1673	-164.463	-0.013932	0.060928	-1.134992	-1.136279	0.053964	68.2648	-1.135585	-1.504967E+15	-3.585698E-17	NaN
704	1.000000	0.072236	7.37194e+06	-41889.1	1005.82	-29784.5	0.000000	0.000000	6.072762	-0.005759	NaN	0.000000	0.001752	0.001800	28.0808	0.061709	0.001922	32.1046	-147.547	11.5268	0.031194	0.070923	-1.124972	-1.126285	-0.005759	32.1046	-1.124837	-1.079853E+15	5.332956E-18	NaN
704	1.000000	0.082241	7.37194e+06	-41889.1	1005.82	-29784.5	0.000000	0.000000	6.082769	0.049926	NaN	0.000000	0.001756	0.001753	28.0808	0.061435	0.001966	31.2457	137.921	-167.299	0.050600	0.080914	-1.114967	-1.116293	0.049926	31.2457	-1.116165	-8.260709E+14	-6.043738E-17	NaN
704	1.000000	0.092234	7.37194e+06	-41889.1	1005.82	-29784.5	0.000000	0.000000	6.092763	0.057375	NaN	0.000000	0.001760	0.001790	28.0805	0.087710	0.001945	45.0937	57.9695	13.9007	0.006261	0.090887	-1.104973	-1.106320	0.057375	45.0937	-1.105927	-6.020427E+14	-9.530009E-17	NaN
704	1.000000	0.102213	7.37194e+06	-41889.1	1005.82	-29784.5	0.000000	0.000000	6.102738	-0.035354	NaN	0.000000	0.001786	0.001769	28.0807	0.080552	0.002041	39.4684	-76.5516	-167.279	0.031306	0.100963	-1.094994	-1.096244	-0.035354	39.4684	-1.094322	-4.205791E+14	8.406008E-17	NaN
704	1.000000	0.112256	7.37194e+06	-41889.1	1005.82	-29784.5	0.000000	0.000000	6.112785	0.056816	NaN	0.000000	0.001772	0.001791	28.0808	0.041208	0.002031	20.2927	-113.171	13.735	0.019335	0.110936	-1.084952	-1.086272	0.056816	20.2927	-1.087051	-3.359074E+14	-1.691410E-16	NaN
704	1.000000	0.122282	7.37194e+06	-41889.1	1005.82	-29784.5	0.000000	0.000000	6.122808	-0.008973	NaN	0.000000	0.001798	0.001758	28.081	0.103843	0.002171	47.8276	0.356829	-167.339	-0.048471	0.120937	-1.074925	-1.076270	-0.008973	47.8276	-1.074785	-2.298619E+14	3.903764E-17	NaN
704	1.000000	0.132245	7.37194e+06	-41889.1	1005.82	-29784.5	0.000000	0.000000	6.132770	-0.049279	NaN	0.000000	0.001799	0.001778	28.0808	0.091674	0.001928	47.545	101.423	13.7403	0.002227	0.130895	-1.064962	-1.066312	-0.049279	47.545	-1.064184	-1.655968E+14	2.975861E-16	NaN
704	1.000000	0.142255	7.37194e+06	-41889.1	1005.82	-29784.5	0.000000	0.000000	6.142783	0.010986	NaN	0.000000	0.001796	0.001764	28.0811	0.061874	0.001931	32.0458	-168.579	-165.752	0.019720	0.140985	-1.054952	-1.056223	0.010986	32.0458	-1.055209	-1.254382E+14	-8.758080E-17	NaN
704	1.000000	0.152264	7.37194e+06	-41889.1	1005.82	-29784.5	0.000000	0.000000	6.152788	-0.055361	NaN	0.000000	0.001748	0.001753	28.0812	0.027683	0.002007	13.7912	60.6007	14.2242	-0.073912	0.150931	-1.044943	-1.046276	-0.055361	13.7912	-1.041933	-8.316775E+13	6.656585E-16	NaN
704	1.000000	0.162253	7.37194e+06	-41889.1	1005.82	-29784.5	0.000000	0.000000	6.162779	-0.020887	NaN	0.000000	0.001778	0.001768	28.081	0.087116	0.001893	46.0174	134.866	-167.267	-0.099537	0.161017	-1.034954	-1.036190	-0.020887	46.0174	-1.034613	-6.630269E+13	3.150224E-16	NaN
704	1.000000	0.172278	7.37194e+06	-41889.1	1005.82	-29784.5	0.000000	0.000000	6.172803	-0.027289	NaN	0.000000	0.001764	0.001800	28.0807	0.013759	0.001935	7.111059	78.9912	14.6597	0.002635	0.170958	-1.024929	-1.026249	-0.027289	7.111059	-1.022051	-4.493127E+13	6.073583E-16	NaN
704	1.000000	0.182284	7.37194e+06	-41889.1	1005.82	-29784.5	0.000000	0.000000	6.182809	-0.037087	NaN	0.000000	0.001756	0.001781	28.0823	0.153766	0.001952	78.7863	-20.8112	-165.618	0.087731	0.180970	-1.014923	-1.016238	-0.037087	78.7863	-1.014570	-3.563572E+13	1.040713E-15	NaN
704	1.000000	0.192293	7.37194e+06	-41889.1	1005.82	-29784.5	0.000000	0.000000	6.192820	0.015978	NaN	0.000000	0.001702	0.001762	28.0822	0.052297	0.001972	26.5231	73.1583	13.7323	-0.023892	0.190924	-1.004914	-1.006284	0.015978	26.5231	-1.005366	-2.679205E+13	-5.963541E-16	NaN
704	1.000000	0.202262	7.37194e+06	-41889.1	1005.82	-29784.5	0.000000	0.000000	6.202789	0.023667	NaN	0.000000	0.001783	0.001731	28.0823	0.133154	0.002094	63.5788	-112.965	-166.264	0.047698	0.201018	-0.994946	-0.996189	0.023667	63.5788	-0.995225	-1.956463E+13	-1.209659E-15	NaN
704	1.000000	0.212280	7.37194e+06	-41889.1	1005.82	-29784.5	0.000000	0.000000	6.212803	-0.070592	NaN	0.000000	0.001791	0.001748	28.0821	0.048936	0.002018	24.2453	42.1401	17.1962	-0.041511	0.210943	-0.984928	-0.986265	-0.070592	24.2453	-0.982744	-1.328542E+13	5.313526E-15	NaN
704	1.000000	0.222308	7.37194e+06	-41889.1	1005.82	-29784.5	0.000000	0.000000	6.222833	-0.017848	NaN	0.000000	0.001693	0.001765	28.0821	0.099281	0.002070	47.9504	135.268	-164.752	-0.001430	0.220992	-0.974900	-0.976216	-0.017848	47.9504	-0.974621	-1.032594E+13	1.728505E-15	NaN
704	1.000000	0.232270	7.37194e+06	-41889.1	1005.82	-29784.5	0.000000	0.000000	6.232796	-0.017633	NaN	0.000000	0.001702	0.001774	28.0823	0.046921	0.002010	23.3466	172.739	17.5628	0.046327	0.230947	-0.964937	-0.966260	-0.017633	23.3466	-0.964371	-7.512575E+12	2.347078E-15	NaN
704	1.000000	0.242314	7.37194e+06	-41889.1	1005.82	-29784.5	0.000000	0.000000	6.242843	0.046457	NaN	0.000000	0.001715	0.001763	28.0822	0.141660	0.001925	73.6038	-159.506	-167.391	-0.029692	0.240930	-0.954893	-0.956277	0.046457	73.6038	-0.955367	-5.680640E+12	-8.178183E-15	NaN
704	1.000000	0.252312	7.37194e+06	-41889.1	1005.82	-29784.5	0.000000	0.000000	6.252838	-0.034628	NaN	0.000000	0.001698	0.001720	28.0821	0.105058	0.001997	52.6181	-157.059	14.8717	-0.097814	0.250974	-0.944895	-0.946233	-0.034628	52.6181	-0.944401	-4.041212E+12	8.568644E-15	NaN
704	1.000000	0.262316	7.37194e+06	-41889.1	1005.82	-29784.5	0.000000	0.000000	6.262842	-0.017150	NaN	0.000000	0.001706	0.001731	28.0825	0.040757	0.001986	20.5172	-26.7071	-167.573	0.115470	0.261007	-0.934891	-0.936201	-0.017150	20.5172	-0.934264	-2.949465E+12	5.814621E-15	NaN
704	1.000000	0.272309	7.37194e+06	-41889.1	1005.82	-29784.5	0.000000	0.000000	6.272835	-0.009828	NaN	0.000000	0.001713	0.001731	28.0823	0.036213	0.001796	20.1582	-78.2019	15.0437	0.009568	0.270940	-0.924898	-0.926268	-0.009828	20.1582	-0.924533	-2.179706E+12	4.508825E-15	NaN
704	1.000000	0.282315	7.37194e+06	-41889.1	1005.82	-29784.5	0.000000	0.000000	6.282838	-0.078319	NaN	0.000000	0.001708	0.001735	28.0825	0.204232	0.002084	98.0012	-133.102	-164.285	-0.055533	0.280991	-0.914892	-0.916216	-0.078319	98.0012	-0.914293	-1.585410E+12	4.939997E-14	NaN
704	1.000000	0.292313	7.37194e+06	-41889.1	1005.82	-29784.5	0.000000	0.000000	6.292839	-0.021223	NaN	0.000000	0.001724	0.001723	28.0821	0.070289	0.002044	34.3921	-158.46	12.6913	-0.044186	0.290961	-0.904894	-0.906246	-0.021223	34.3921	-0.904431	-1.166650E+12	1.819111E-14	NaN
704	1.000000	0.302326	7.37194e+06	-41889.1	1005.82	-29784.5	0.000000	0.000000	6.302854	0.038495	NaN	0.000000	0.001662	0.001750	28.0825	0.035180	0.002070	16.9947	-74.4275	-165.806	0.053096	0.301076	-0.894881	-0.896132	0.038495	16.9947	-0.896580	-9.138006E+11	-4.212674E-14	NaN
704	1.000000	0.312339	7.37194e+06	-41889.1	1005.82	-29784.5	0.000000	0.000000	6.312866	0.016030	NaN	0.000000	0.001680	0.001747	28.0823	0.095794	0.002040	46.9686	-42.8979	13.6926	0.008455	0.310988	-0.884868	-0.886219	0.016030	46.9686	-0.885124	-6.397290E+11	-2.505693E-14	NaN
704	1.000000	0.322339	7.37194e+06	-41889.1	1005.82	-29784.5	0.000000	0.000000	6.322865	-0.010519	NaN	0.000000	0.001778	0.001705	28.081	0.115986	0.002003	57.9202	-7.042301	-163.476	-0.013837	0.320963	-0.874868	-0.876244	-0.010519	57.9202	-0.874732	-4.628715E+11	2.272568E-14	NaN
704	1.000000	0.332335	7.37194e+06	-41889.1	1005.82	-29784.5	0.000000	0.000000	6.332860	-0.034448	NaN	0.000000	0.001759	0.001743	28.0811	0.076278	0.001988	38.3763	127.951	15.3249	-0.009634	0.330958	-0.864873	-0.866249	-0.034448	38.3763	-0.864199	-3.333928E+11	1.033260E-13	NaN
704	1.000000	0.342329	7.37194e+06	-41889.1	1005.82	-29784.5	0.000000	0.000000	6.342857	0.037302	NaN	0.000000	0.001766	0.001699	28.0813	0.057251	0.001904	30.0721	58.6744	-165.957	-0.010971	0.341026	-0.854879	-0.856181	0.037302	30.0721	-0.855809	-2.566774E+11	-1.453273E-13	NaN
704	1.000000	0.352347	7.37194e+06	-41889.1	1005.82	-29784.5	0.000000	0.000000	6.352874	0.010589	NaN	0.000000	0.001688	0.001768	28.0811	0.098258	0.002129	46.1487	54.74	15.5795	0.062213	0.350955	-0.844860	-0.846253	0.010589	46.1487	-0.845032	-1.834244E+11	-5.773091E-14	NaN
704	1.000000	0.362369	7.37194e+06	-41889.1	1005.82	-29784.5	0.000000	0.000000	6.362896	0.011375	NaN	0.000000	0.001727	0.001750	28.081	0.058073	0.001894	30.6548	107.358	-166.069	-0.011853	0.361040	-0.834838	-0.836167	0.011375	30.6548	-0.835117	-1.346251E+11	-8.449540E-14	NaN
704	1.000000	0.372381	7.37194e+06	-41889.1	1005.82	-29784.5	0.000000	0.000000	6.372909	0.032309	NaN	0.000000	0.001711	0.001716	28.0812	0.047006	0.001762	26.6712	63.2069	11.4485	0.012915	0.371020	-0.824826	-0.826187	0.032309	26.6712	-0.825735	-1.004541E+11	-3.216305E-13	NaN
704	1.000000	0.382333	7.37194e+06	-41889.1	1005.82	-29784.5	0.000000	0.000000	6.382860	0.013323	NaN	0.000000	0.001706	0.001729	28.0811	0.029062	0.002099	13.8434	59.4125	-166.287	-0.021532	0.381123	-0.814875	-0.816085	0.013323	13.8434	-0.815596	-7.319620E+10	-1.820164E-13	NaN
704	1.000000	0.392352	7.37194e+06	-41889.1	1005.82	-29784.5	0.000000	0.000000	6.392878	-0.009707	NaN	0.000000	0.001723	0.001710	28.081	0.141704	0.001852	76.5221	167.093	12.8813	0.008838	0.391036	-0.804855	-0.806172	-0.009707	76.5221	-0.804760	-5.217546E+10	1.860376E-13	NaN
704	1.000000	0.402386	7.37194e+06	-41889.1	1005.82	-29784.5	0.000000	0.000000	6.402911	-0.042526	NaN	0.000000	0.001716	0.001701	28.081	0.113823	0.001986	57.3106	-160.524	-167.736	-0.047686	0.401049	-0.794821	-0.796158	-0.042526	57.3106	-0.794265	-3.758337E+10	1.131505E-12	NaN
704	1.000000	0.412381	7.37194e+06	-41889.1	1005.82	-29784.5	0.000000	0.000000	6.412905	-0.046267	NaN	0.000000	0.001716	0.001758	28.0812	0.108972	0.002034	53.5728	93.8722	15.8802	-0.034312	0.411067	-0.784826	-0.786140	-0.046267	53.5728	-0.784179	-2.741634E+10	1.687556E-12	NaN
704	1.000000	0.422382	7.37194e+06	-41889.1	1005.82	-29784.5	0.000000	0.000000	6.422907	-0.032419	NaN	0.000000	0.001689	0.001722	28.081	0.049245	0.002031	24.2432	62.7711	-169.196	-0.043837	0.421085	-0.774825	-0.776122	-0.032419	24.2432	-0.773822	-1.982759E+10	1.635020E-12	NaN
704	1.000000	0.432387	7.37194e+06	-41889.1	1005.82	-29784.5	0.000000	0.000000	6.432910	-0.074622	NaN	0.000000	0.001716	0.001706	28.0811	0.050137	0.002039	24.5923	-159.162	11.7277	-0.145872	0.431028	-0.764820	-0.766179	-0.074622	24.5923	-0.762545	-1.392890E+10	5.357353E-12	NaN
704	1.000000	0.442371	7.37194e+06	-41889.1	1005.82	-29784.5	0.000000	0.000000	6.442895	-0.066865	NaN	0.000000	0.001705	0.001767	28.0809	0.017688	0.001950	9.070774	-161.479	-167.875	-0.048262	0.440989	-0.754836	-0.756219	-0.066865	9.070774	-0.749308	-9.200230E+9	7.267738E-12	NaN
704	1.000000	0.452387	7.37194e+06	-41889.1	1005.82	-29784.5	0.000000	0.000000	6.452914	0.007938	NaN	0.000000	0.001657	0.001762	28.0824	0.079719	0.002013	39.5977	120.654	17.3536	0.044378	0.451056	-0.744820	-0.746151	0.007938	39.5977	-0.744970	-8.030566E+9	-9.884663E-13	NaN
704	1.000000	0.462411	7.37194e+06	-41889.1	1005.82	-29784.5	0.000000	0.000000	6.462935	-0.053362	NaN	0.000000	0.001711	0.001730	28.0822	0.026325	0.002123	12.4013	129.329	-165.871	-0.074140	0.461075	-0.734797	-0.736132	-0.053362	12.4013	-0.731569	-5.274671E+9	1.011661E-11	NaN
704	1.000000	0.472405	7.37194e+06	-41889.1	1005.82	-29784.5	0.000000	0.000000	6.472929	-0.057925	NaN	0.000000	0.001701	0.001755	28.0824	0.054248	0.001874	28.9503	145.62	15.9952	-0.068875	0.471020	-0.724802	-0.726188	-0.057925	28.9503	-0.723301	-4.069044E+9	1.423550E-11	NaN
704	1.000000	0.482394	7.37194e+06	-41889.1	1005.82	-29784.5	0.000000	0.000000	6.482917	-0.076970	NaN	0.000000	0.001668	0.001777	28.0823	0.017563	0.001829	9.603690	62.3412	-166.493	-0.020354	0.481094	-0.714814	-0.716113	-0.076970	9.603690	-0.708803	-2.580513E+9	2.982741E-11	NaN
704	1.000000	0.492406	7.37194e+06	-41889.1	1005.82	-29784.5	0.000000	0.000000	6.492930	-0.052096	NaN	0.000000	0.001649	0.001804	28.0826	0.124788	0.002079	60.024	116.46	13.1651	-0.036583	0.491059	-0.704801	-0.706148	-0.052096	60.024	-0.704151	-2.229487E+9	2.336663E-11	NaN
704	1.000000	0.502374	7.37194e+06	-41889.1	1005.82	-29784.5	0.000000	0.000000	6.502899	-0.034156	NaN	0.000000	0.001635	0.001771	28.0822	0.122540	0.002113	57.9898	23.6309	-165.371	-0.056328	0.501089	-0.694834	-0.696119	-0.034156	57.9898	-0.694392	-1.640323E+9	2.082242E-11	NaN
704	1.000000	0.512449	7.37194e+06	-41889.1	1005.82	-29784.5	0.000000	0.000000	6.512977	0.026715	NaN	0.000000	0.001705	0.001741	28.0823	0.087194	0.002151	40.5432	-164.948	10.7051	0.069360	0.511093	-0.684758	-0.686114	0.026715	40.5432	-0.685252	-1.230322E+9	-2.171378E-11	NaN
704	1.000000	0.522419	7.37194e+06	-41889.1	1005.82	-29784.5	0.000000	0.000000	6.522943	-0.053150	NaN	0.000000	0.001732	0.001781	28.0825	0.054782	0.002043	26.8109	-121.351	-163.823	-0.098570	0.521139	-0.674789	-0.676068	-0.053150	26.8109	-0.673302	-8.444542E+8	6.294014E-11	NaN
704	1.000000	0.532446	7.37194e+06	-41889.1	1005.82	-29784.5	0.000000	0.000000	6.532968	-0.109585	NaN	0.000000	0.001711	0.001783	28.0823	0.076470	0.001935	39.5153	-149.968	14.2904	-0.143267	0.531049	-0.664761	-0.666158	-0.109585	39.5153	-0.662681	-6.042128E+8	1.813675E-10	NaN
704	1.000000	0.542416	7.37194e+06	-41889.1	1005.82	-29784.5	0.000000	0.000000	6.542945	0.044086	NaN	0.000000	0.001741	0.001754	28.082	0.112616	0.002061	54.6532	-15.9096	-165.448	0.124660	0.541042	-0.654791	-0.656166	0.044086	54.6532	-0.655396	-4.801677E+8	-9.181475E-11	NaN
704	1.000000	0.552422	7.37194e+06	-41889.1	1005.82	-29784.5	0.000000	0.000000	6.552947	-0.039159	NaN	0.000000	0.001716	0.001788	28.0825	0.093797	0.002020	46.4432	159.331	15.8056	-0.026642	0.551079	-0.644785	-0.646128	-0.039159	46.4432	-0.644153	-3.367126E+8	1.162975E-10	NaN
704	1.000000	0.562442	7.37194e+06	-41889.1	1005.82	-29784.5	0.000000	0.000000	6.562967	-0.035887	NaN	0.000000	0.001741	0.001787	28.0827	0.086239	0.001927	44.7563	101.336	-166.968	-0.032828	0.561142	-0.634765	-0.636065	-0.035887	44.7563	-0.634164	-2.455779E+8	1.461342E-10	NaN
704	1.000000	0.572447	7.37194e+06	-41889.1	1005.82	-29784.5	0.000000	0.000000	6.572973	-0.021650	NaN	0.000000	0.001740	0.001778	28.0823	0.078100	0.001968	39.6831	-149.844	16.6405	-3.441262E-5	0.571090	-0.624760	-0.626118	-0.021650	39.6831	-0.624351	-1.800624E+8	1.202383E-10	NaN
704	1.000000	0.582454	7.37194e+06	-41889.1	1005.82	-29784.5	0.000000	0.000000	6.582977	-0.075766	NaN	0.000000	0.001713	0.001791	28.0823	0.102270	0.001982	51.6035	41.5301	-165.712	-0.121643	0.581171	-0.614753	-0.616036	-0.075766	51.6035	-0.613652	-1.283373E+8	5.903703E-10	NaN
704	1.000000	0.592425	7.37194e+06	-41889.1	1005.82	-29784.5	0.000000	0.000000	6.592951	-0.013692	NaN	0.000000	0.001739	0.001764	28.0813	0.043246	0.001898	22.784	104.293	13.1186	0.025418	0.591095	-0.604782	-0.606112	-0.013692	22.784	-0.604331	-9.552063E+7	1.433449E-10	NaN
704	1.000000	0.602452	7.37194e+06	-41889.1	1005.82	-29784.5	0.000000	0.000000	6.602977	-0.046921	NaN	0.000000	0.001723	0.001788	28.0813	0.076487	0.002049	37.3377	67.9982	-167.343	-0.001156	0.601193	-0.594755	-0.596014	-0.046921	37.3377	-0.593813	-6.842615E+7	6.857108E-10	NaN
704	1.000000	0.612447	7.37194e+06	-41889.1	1005.82	-29784.5	0.000000	0.000000	6.612971	-0.040405	NaN	0.000000	0.001736	0.001767	28.0812	0.148572	0.002063	72.0315	-18.1004	11.4335	-0.048986	0.611094	-0.584761	-0.586113	-0.040405	72.0315	-0.584340	-5.065360E+7	7.976637E-10	NaN
704	1.000000	0.622462	7.37194e+06	-41889.1	1005.82	-29784.5	0.000000	0.000000	6.622988	0.004063	NaN	0.000000	0.001706	0.001762	28.0811	0.020407	0.002106	9.691426	-177.595	-163.525	-0.027307	0.621146	-0.574746	-0.576061	0.004063	9.691426	-0.575060	-3.771629E+7	-1.077330E-10	NaN
704	1.000000	0.632464	7.37194e+06	-41889.1	1005.82	-29784.5	0.000000	0.000000	6.632988	-0.066541	NaN	0.000000	0.001748	0.001746	28.0812	0.056770	0.001962	28.9369	26.4223	16.4257	-0.020314	0.631094	-0.564743	-0.566113	-0.066541	28.9369	-0.563018	-2.571145E+7	2.587981E-9	NaN
704	1.000000	0.642468	7.37194e+06	-41889.1	1005.82	-29784.5	0.000000	0.000000	6.642994	-0.003010	NaN	0.000000	0.001734	0.001792	28.0812	0.111997	0.001908	58.6975	103.329	-166.203	-0.021268	0.641186	-0.554739	-0.556022	-0.003010	58.6975	-0.554701	-1.972650E+7	1.525645E-10	NaN
704	1.000000	0.652471	7.37194e+06	-41889.1	1005.82	-29784.5	0.000000	0.000000	6.652999	0.022015	NaN	0.000000	0.001680	0.001759	28.081	0.079036	0.002034	38.8638	68.2502	12.1198	-0.056287	0.651103	-0.544736	-0.546104	0.022015	38.8638	-0.545161	-1.455155E+7	-1.512890E-9	NaN
704	1.000000	0.662489	7.37194e+06	-41889.1	1005.82	-29784.5	0.000000	0.000000	6.663015	0.007116	NaN	0.000000	0.001699	0.001750	28.0811	0.089965	0.001941	46.3424	-172.89	-164.706	-0.041463	0.661227	-0.534719	-0.535980	0.007116	46.3424	-0.534834	-1.046365E+7	-6.800785E-10	NaN
704	1.000000	0.672511	7.37194e+06	-41889.1	1005.82	-29784.5	0.000000	0.000000	6.673036	-0.029521	NaN	0.000000	0.001693	0.001770	28.0814	0.075809	0.002017	37.5912	-68.7921	16.0226	-0.030137	0.671112	-0.524697	-0.526095	-0.029521	37.5912	-0.524108	-7.4252e+06	3.975821E-9	NaN
704	1.000000	0.682500	7.37194e+06	-41889.1	1005.82	-29784.5	0.000000	0.000000	6.683028	0.036740	NaN	0.000000	0.001725	0.001771	28.0813	0.074134	0.001950	38.0221	131.705	-168.22	0.045625	0.681171	-0.514708	-0.516036	0.036740	38.0221	-0.515432	-5.62405e+06	-6.532699E-9	NaN
704	1.000000	0.692491	7.37194e+06	-41889.1	1005.82	-29784.5	0.000000	0.000000	6.693018	0.016396	NaN	0.000000	0.001694	0.001755	28.0812	0.075601	0.001942	38.938	130.954	10.139	-0.031197	0.691126	-0.504717	-0.506081	0.016396	38.938	-0.505032	-4.02899e+06	-4.069516E-9	NaN
704	1.000000	0.702486	7.37194e+06	-41889.1	1005.82	-29784.5	0.000000	0.000000	6.703011	-0.041535	NaN	0.000000	0.001718	0.001733	28.0813	0.174568	0.001932	90.3443	-10.7817	-167.529	-0.009189	0.701158	-0.494721	-0.496049	-0.041535	90.3443	-0.494376	-2.86105e+06	1.451750E-8	NaN
704	1.000000	0.712507	7.37194e+06	-41889.1	1005.82	-29784.5	0.000000	0.000000	6.713034	0.015963	NaN	0.000000	0.001710	0.001718	28.0813	0.076132	0.002189	34.7831	-177.553	13.4137	0.032907	0.711127	-0.484700	-0.486080	0.015963	34.7831	-0.485044	-2.1189e+06	-7.533639E-9	NaN
704	1.000000	0.722501	7.37194e+06	-41889.1	1005.82	-29784.5	0.000000	0.000000	6.723026	-0.038635	NaN	0.000000	0.001685	0.001735	28.0811	0.078058	0.001991	39.2078	-27.7337	-167.202	0.004152	0.721120	-0.474706	-0.476087	-0.038635	39.2078	-0.473967	-1.4826e+06	2.605865E-8	NaN
704	1.000000	0.732493	7.37194e+06	-41889.1	1005.82	-29784.5	0.000000	0.000000	6.733020	0.001389	NaN	0.000000	0.001724	0.001737	28.0824	0.096071	0.001936	49.6333	-35.0188	13.1066	0.013781	0.731118	-0.464714	-0.466089	0.001389	49.6333	-0.464735	-1.10033e+06	-1.262711E-9	NaN
704	1.000000	0.742515	7.37194e+06	-41889.1	1005.82	-29784.5	0.000000	0.000000	6.743038	-0.068758	NaN	0.000000	0.001702	0.001705	28.0826	0.051184	0.002006	25.5167	-166.26	-169.189	-0.040523	0.741202	-0.454693	-0.456005	-0.068758	25.5167	-0.452672	-744654	9.233517E-8	NaN
704	1.000000	0.752535	7.37194e+06	-41889.1	1005.82	-29784.5	0.000000	0.000000	6.753064	0.060946	NaN	0.000000	0.001716	0.001742	28.0822	0.087747	0.001980	44.3129	-107.835	13.1388	0.075467	0.751133	-0.444672	-0.446074	0.060946	44.3129	-0.445704	-594036	-1.025957E-7	NaN
704	1.000000	0.762512	7.37194e+06	-41889.1	1005.82	-29784.5	0.000000	0.000000	6.763039	0.024958	NaN	0.000000	0.001714	0.001767	28.0822	0.027014	0.001919	14.0807	-96.3549	-164.611	-0.017189	0.761197	-0.434695	-0.436010	0.024958	14.0807	-0.436025	-433744	-5.754134E-8	NaN
704	1.000000	0.772528	7.37194e+06	-41889.1	1005.82	-29784.5	0.000000	0.000000	6.773053	-0.037740	NaN	0.000000	0.001744	0.001711	28.0823	0.063550	0.001945	32.6745	112.963	13.7623	-0.030658	0.771130	-0.424679	-0.426077	-0.037740	32.6745	-0.423813	-291385	1.295197E-7	NaN
704	1.000000	0.782486	7.37194e+06	-41889.1	1005.82	-29784.5	0.000000	0.000000	6.783012	-0.030529	NaN	0.000000	0.001695	0.001722	28.0825	0.040157	0.001909	21.0315	93.738	-166.47	-0.017834	0.781203	-0.414721	-0.416004	-0.030529	21.0315	-0.413632	-208942	1.461140E-7	NaN
704	1.000000	0.792533	7.37194e+06	-41889.1	1005.82	-29784.5	0.000000	0.000000	6.793056	-0.086196	NaN	0.000000	0.001711	0.001733	28.0822	0.121516	0.002036	59.6944	-38.4122	13.3545	-0.084666	0.791234	-0.404674	-0.405973	-0.086196	59.6944	-0.403591	-150376	5.732083E-7	NaN
704	1.000000	0.802541	7.37194e+06	-41889.1	1005.82	-29784.5	0.000000	0.000000	6.803068	-0.002680	NaN	0.000000	0.001706	0.001740	28.0824	0.091534	0.001905	48.0607	-102.785	-168.252	-0.031649	0.801190	-0.394666	-0.396017	-0.002680	48.0607	-0.394624	-112013	2.392424E-8	NaN
704	1.000000	0.812519	7.37194e+06	-41889.1	1005.82	-29784.5	0.000000	0.000000	6.813045	-0.004219	NaN	0.000000	0.001715	0.001763	28.0822	0.096852	0.001940	49.9129	-119.132	10.018	-0.012818	0.811182	-0.384688	-0.386025	-0.004219	49.9129	-0.384625	-80576.7	5.236474E-8	NaN
704	1.000000	0.822569	7.37194e+06	-41889.1	1005.82	-29784.5	0.000000	0.000000	6.823095	0.004430	NaN	0.000000	0.001687	0.001748	28.0822	0.059297	0.001894	31.3089	127.463	-167.275	0.001788	0.821271	-0.374639	-0.375936	0.004430	31.3089	-0.374745	-58130.2	-7.620120E-8	NaN
704	1.000000	0.832543	7.37194e+06	-41889.1	1005.82	-29784.5	0.000000	0.000000	6.833070	0.005495	NaN	0.000000	0.001734	0.001766	28.0822	0.023191	0.002004	11.5718	175.816	9.710264	0.038724	0.831168	-0.364664	-0.366040	0.005495	11.5718	-0.365020	-42105.7	-1.305158E-7	NaN
704	1.000000	0.842540	7.37194e+06	-41889.1	1005.82	-29784.5	0.000000	0.000000	6.843067	-0.004566	NaN	0.000000	0.001733	0.001713	28.0823	0.006233	0.002078	2.999446	-42.6918	-165.382	0.107477	0.841280	-0.354667	-0.355927	-0.004566	2.999446	-0.353525	-28716.5	1.589944E-7	NaN
704	1.000000	0.852556	7.37194e+06	-41889.1	1005.82	-29784.5	0.000000	0.000000	6.853082	-0.020590	NaN	0.000000	0.001714	0.001708	28.0825	0.050075	0.001959	25.5631	-47.9158	13.5982	0.006970	0.851169	-0.344651	-0.346038	-0.020590	25.5631	-0.344047	-20916.9	9.843673E-7	NaN
704	1.000000	0.862517	7.37194e+06	-41889.1	1005.82	-29784.5	0.000000	0.000000	6.863042	-0.031981	NaN	0.000000	0.001690	0.001729	28.0809	0.086592	0.001828	47.3595	-160.777	-168.952	-0.082542	0.861257	-0.334691	-0.335950	-0.031981	47.3595	-0.334184	-15019.9	2.129273E-6	NaN
704	1.000000	0.872583	7.37194e+06	-41889.1	1005.82	-29784.5	0.000000	0.000000	6.873111	0.025109	NaN	0.000000	0.001696	0.001754	28.081	0.076263	0.001921	39.6944	-49.9521	11.1741	0.017357	0.871186	-0.324624	-0.326021	0.025109	39.6944	-0.325098	-11055.5	-2.271209E-6	NaN
704	1.000000	0.882591	7.37194e+06	-41889.1	1005.82	-29784.5	0.000000	0.000000	6.883116	-0.040178	NaN	0.000000	0.001698	0.001745	28.0809	0.022545	0.002061	10.9373	154.9	-166.695	-0.010703	0.881281	-0.314616	-0.315927	-0.040178	10.9373	-0.311861	-7056.48	5.693761E-6	NaN
704	1.000000	0.892580	7.37194e+06	-41889.1	1005.82	-29784.5	0.000000	0.000000	6.893106	-0.016126	NaN	0.000000	0.001676	0.001769	28.0814	0.084213	0.001985	42.4273	26.6399	14.6537	0.082963	0.891203	-0.304627	-0.306004	-0.016126	42.4273	-0.304342	-5459.98	2.953563E-6	NaN
704	1.000000	0.902561	7.37194e+06	-41889.1	1005.82	-29784.5	0.000000	0.000000	6.903091	0.088493	NaN	0.000000	0.001688	0.001759	28.081	0.048763	0.001849	26.3694	175.666	-168.338	0.018401	0.901253	-0.294646	-0.295954	0.088493	26.3694	-0.297163	-4269.4	-2.072728E-5	NaN
704	1.000000	0.912569	7.37194e+06	-41889.1	1005.82	-29784.5	0.000000	0.000000	6.913097	0.031802	NaN	0.000000	0.001697	0.001732	28.0811	0.111280	0.002202	50.5282	-139.28	14.7151	-0.028477	0.911214	-0.284638	-0.285993	0.031802	50.5282	-0.285110	-2817.9	-1.128580E-5	NaN
704	1.000000	0.922593	7.37194e+06	-41889.1	1005.82	-29784.5	0.000000	0.000000	6.923118	-0.027173	NaN	0.000000	0.001717	0.001761	28.0811	0.020783	0.001971	10.5437	-138.834	-164.092	-0.002794	0.921214	-0.274614	-0.275993	-0.027173	10.5437	-0.272681	-1829.2	1.485508E-5	NaN
704	1.000000	0.932595	7.37194e+06	-41889.1	1005.82	-29784.5	0.000000	0.000000	6.933123	0.033703	NaN	0.000000	0.001698	0.001747	28.0813	0.088884	0.001891	47.0029	60.2264	10.091	-0.034151	0.931207	-0.264613	-0.266000	0.033703	47.0029	-0.265150	-1405.02	-2.398755E-5	NaN
704	1.000000	0.942603	7.37194e+06	-41889.1	1005.82	-29784.5	0.000000	0.000000	6.943125	-0.093887	NaN	0.000000	0.001672	0.001734	28.081	0.093330	0.001846	50.5488	112.632	-167.537	-0.105154	0.941248	-0.254605	-0.255959	-0.093887	50.5488	-0.253212	-921.643	0.000102	NaN
704	1.000000	0.952572	7.37194e+06	-41889.1	1005.82	-29784.5	0.000000	0.000000	6.953098	-0.006394	NaN	0.000000	0.001684	0.001744	28.081	0.024404	0.001970	12.3866	8.247909	12.4146	-0.013209	0.951253	-0.244635	-0.245954	-0.006394	12.3866	-0.244248	-669.521	9.550213E-6	NaN
704	1.000000	0.962584	7.37194e+06	-41889.1	1005.82	-29784.5	0.000000	0.000000	6.963108	-0.049576	NaN	0.000000	0.001643	0.001719	28.0813	0.056856	0.002151	26.4329	45.905	-163.849	0.004105	0.961314	-0.234624	-0.235893	-0.049576	26.4329	-0.233217	-450.01	0.000110	NaN
704	1.000000	0.972603	7.37194e+06	-41889.1	1005.82	-29784.5	0.000000	0.000000	6.973130	0.000193	NaN	0.000000	0.001701	0.001748	28.081	0.078333	0.001910	41.0013	15.7409	13.6419	-0.027969	0.971294	-0.224604	-0.225914	0.000193	41.0013	-0.224607	-328.925	-5.866145E-7	NaN
704	1.000000	0.982594	7.37194e+06	-41889.1	1005.82	-29784.5	0.000000	0.000000	6.983121	0.016880	NaN	0.000000	0.001720	0.001754	28.0811	0.048826	0.002023	24.1369	-175.81	-162.445	0.099632	0.981317	-0.214614	-0.215891	0.016880	24.1369	-0.215138	-232.133	-7.271749E-5	NaN
704	1.000000	0.992641	7.37194e+06	-41889.1	1005.82	-29784.5	0.000000	0.000000	6.993167	-0.002268	NaN	0.000000	0.001697	0.001751	28.081	0.056408	0.001980	28.4835	-35.1501	12.4157	0.010476	0.991263	-0.204566	-0.205945	-0.002268	28.4835	-0.204507	-156.137	1.452646E-5	NaN
704	1.000000	1.002616	7.37194e+06	-41889.1	1005.82	-29784.5	0.000000	0.000000	7.003140	-0.067178	NaN	0.000000	0.001722	0.001750	28.0823	0.093330	0.002155	43.307	-12.0464	-166.394	-0.113333	1.001274	-0.194591	-0.195933	-0.067178	43.307	-0.193428	-102.595	0.000655	NaN
704	1.000000	1.012635	7.37194e+06	-41889.1	1005.82	-29784.5	0.000000	0.000000	7.013162	0.021188	NaN	0.000000	0.001741	0.001734	28.082	0.038726	0.002005	19.3135	-59.497	12.6863	-0.007738	1.011256	-0.184573	-0.185951	0.021188	19.3135	-0.185395	-75.2998	-0.000281	NaN
704	1.000000	1.022651	7.37194e+06	-41889.1	1005.82	-29784.5	0.000000	0.000000	7.023177	-0.013919	NaN	0.000000	0.001722	0.001732	28.0822	0.060402	0.001973	30.6199	135.75	-165.758	0.049815	1.021244	-0.174556	-0.175963	-0.013919	30.6199	-0.174215	-48.583	0.000287	NaN
704	1.000000	1.032650	7.37194e+06	-41889.1	1005.82	-29784.5	0.000000	0.000000	7.033178	0.037953	NaN	0.000000	0.001735	0.001715	28.0824	0.143249	0.001994	71.8395	89.6135	13.6893	0.093363	1.031290	-0.164557	-0.165917	0.037953	71.8395	-0.164953	-33.5341	-0.001132	NaN
704	1.000000	1.042644	7.37194e+06	-41889.1	1005.82	-29784.5	0.000000	0.000000	7.043169	-0.041397	NaN	0.000000	0.001706	0.001733	28.0823	0.026126	0.002076	12.584	-111.143	-161.791	-0.044796	1.041320	-0.154563	-0.155887	-0.041397	12.584	-0.152096	-19.7753	0.002093	NaN
704	1.000000	1.052628	7.37194e+06	-41889.1	1005.82	-29784.5	0.000000	0.000000	7.053153	-0.045559	NaN	0.000000	0.001838	0.001718	28.0821	0.106677	0.002050	52.0448	106.787	14.0493	-0.056709	1.051324	-0.144579	-0.145883	-0.045559	52.0448	-0.143923	-14.0026	0.003254	NaN
704	1.000000	1.062643	7.37194e+06	-41889.1	1005.82	-29784.5	0.000000	0.000000	7.063172	0.056382	NaN	0.000000	0.001779	0.001716	28.0821	0.029091	0.002157	13.4851	-7.613631	-165.449	0.014050	1.061332	-0.134565	-0.135876	0.056382	13.4851	-0.137700	-10.7056	-0.005267	NaN
704	1.000000	1.072664	7.37194e+06	-41889.1	1005.82	-29784.5	0.000000	0.000000	7.073190	-0.003530	NaN	0.000000	0.001772	0.001773	28.0821	0.030113	0.001917	15.712	119.489	12.0231	0.057770	1.071276	-0.124544	-0.125931	-0.003530	15.712	-0.124375	-5.910351	0.000597	NaN
704	1.000000	1.082643	7.37194e+06	-41889.1	1005.82	-29784.5	0.000000	0.000000	7.083168	-0.041420	NaN	0.000000	0.001786	0.001770	28.0822	0.063787	0.002029	31.4443	5.135569	-166.386	0.008127	1.081329	-0.114564	-0.115879	-0.041420	31.4443	-0.113576	-3.569924	0.011603	NaN
704	1.000000	1.092659	7.37194e+06	-41889.1	1005.82	-29784.5	0.000000	0.000000	7.093187	0.016749	NaN	0.000000	0.001757	0.001749	28.0821	0.051841	0.002004	25.868	-6.593965	13.2901	-0.073935	1.091280	-0.104548	-0.105928	0.016749	25.868	-0.105033	-2.354487	-0.007114	NaN
704	1.000000	1.102668	7.37194e+06	-41889.1	1005.82	-29784.5	0.000000	0.000000	7.103197	0.052230	NaN	0.000000	0.001769	0.001729	28.0821	0.043678	0.002122	20.5842	-10.4453	-165.916	-0.056881	1.101417	-0.094539	-0.095790	0.052230	20.5842	-0.096442	-1.521067	-0.034338	NaN
704	1.000000	1.112638	7.37194e+06	-41889.1	1005.82	-29784.5	0.000000	0.000000	7.113164	-0.013405	NaN	0.000000	0.001801	0.001716	28.0823	0.131803	0.002104	62.657	-135.62	17.3588	0.053790	1.111315	-0.084569	-0.085892	-0.013405	62.657	-0.084409	-0.794948	0.016863	NaN
704	1.000000	1.122652	7.37194e+06	-41889.1	1005.82	-29784.5	0.000000	0.000000	7.123178	0.003506	NaN	0.000000	0.001784	0.001741	28.0824	0.015837	0.001929	8.209809	131.154	-165.767	0.033717	1.121315	-0.074556	-0.075892	0.003506	8.209809	-0.074876	-0.458468	-0.007647	NaN
704	1.000000	1.132659	7.37194e+06	-41889.1	1005.82	-29784.5	0.000000	0.000000	7.133185	0.007822	NaN	0.000000	0.001779	0.001745	28.0822	0.062119	0.002016	30.8129	161.903	13.2364	-0.058063	1.131300	-0.064549	-0.065907	0.007822	30.8129	-0.064739	-0.245094	-0.031913	NaN
704	1.000000	1.142662	7.37194e+06	-41889.1	1005.82	-29784.5	0.000000	0.000000	7.143189	0.011506	NaN	0.000000	0.001770	0.001743	28.0823	0.025880	0.001995	12.97	41.5694	-165.291	0.031996	1.141329	-0.054546	-0.055879	0.011506	12.97	-0.055211	-0.130639	-0.088073	NaN
704	1.000000	1.152665	7.37194e+06	-41889.1	1005.82	-29784.5	0.000000	0.000000	7.153191	0.005999	NaN	0.000000	0.001718	0.001709	28.0812	0.036647	0.001913	19.1531	-98.3036	13.2188	-0.015000	1.151359	-0.044543	-0.045848	0.005999	19.1531	-0.044777	-0.063269	-0.094815	NaN
704	1.000000	1.162670	7.37194e+06	-41889.1	1005.82	-29784.5	0.000000	0.000000	7.163197	0.018953	NaN	0.000000	0.001754	0.001749	28.081	0.053622	0.002088	25.6812	-40.022	-167.638	0.001954	1.161401	-0.034537	-0.035806	0.018953	25.6812	-0.035091	-0.032222	-0.588193	NaN
704	1.000000	1.172683	7.37194e+06	-41889.1	1005.82	-29784.5	0.000000	0.000000	7.173208	-0.031786	NaN	0.000000	0.001720	0.001756	28.081	0.093039	0.002119	43.9047	146.765	9.986268	-0.092615	1.171294	-0.024525	-0.025913	-0.031786	43.9047	-0.023982	-0.015873	2.002465	NaN
704	1.000000	1.182678	7.37194e+06	-41889.1	1005.82	-29784.5	0.000000	0.000000	7.183203	-0.048865	NaN	0.000000	0.001755	0.001708	28.0809	0.067581	0.001956	34.5517	-19.7226	-169.095	-0.005062	1.181394	-0.014529	-0.015813	-0.048865	34.5517	-0.013468	-0.008373	5.835928	NaN
704	1.000000	1.192683	7.37194e+06	-41889.1	1005.82	-29784.5	0.000000	0.000000	7.193212	0.044312	NaN	0.000000	0.001725	0.001695	28.0813	0.131985	0.001909	69.1349	36.5672	11.4935	-0.022689	1.191339	-0.004524	-0.005868	0.044312	69.1349	-0.005005	-0.003420	-12.9582	NaN
704	2.000000	1.202071	7.37194e+06	-41889.1	1005.82	-29784.5	0.000000	0.000000	7.203014	10.1336	NaN	0.000000	0.001721	0.001758	28.081	9.136806	0.001690	5405.45	11.365	-174.387	8.778291	1.201295	0.004863	0.004088	10.1336	5405.45	0.003457	0.002768	3660.37	93861.1
704	2.000000	1.204721	7.37194e+06	-41889.1	1005.82	-29784.5	0.000000	0.000000	7.205877	15.3265	NaN	0.000000	0.001716	0.001737	28.081	11.6096	0.001509	7691.38	2.500770	9.444327	13.4585	1.204329	0.007513	0.007122	15.3265	7691.38	0.006019	0.005082	3015.55	98568.8
704	2.000000	1.207196	7.37194e+06	-41889.1	1005.82	-29784.5	0.000000	0.000000	7.208573	20.6945	NaN	0.000000	0.001714	0.001717	28.081	15.391	0.001759	8749.41	10.6828	179.999	19.9837	1.206814	0.009988	0.009607	20.6945	8749.41	0.008214	0.007264	2848.99	93792.8
704	2.000000	1.209727	7.37194e+06	-41889.1	1005.82	-29784.5	0.000000	0.000000	7.211241	24.0372	NaN	0.000000	0.001716	0.001746	28.0812	17.861	0.001590	11230.7	4.404965	3.361177	24.4395	1.209414	0.012520	0.012206	24.0372	11230.7	0.010914	0.010216	2353.01	101519
704	2.000000	1.212163	7.37194e+06	-41889.1	1005.82	-29784.5	0.000000	0.000000	7.214019	32.3456	NaN	0.000000	0.001716	0.001762	28.0811	21.2694	0.001699	12519.6	2.844772	-176.375	31.8487	1.211833	0.014956	0.014626	32.3456	12519.6	0.013018	0.012733	2540.31	101368
704	2.000000	1.214691	7.37194e+06	-41889.1	1005.82	-29784.5	0.000000	0.000000	7.216850	39.7151	NaN	0.000000	0.001737	0.001729	28.0809	23.6958	0.001727	13720.7	4.083358	2.482340	39.5222	1.214417	0.017484	0.017210	39.7151	13720.7	0.015313	0.015705	2528.88	100031
704	2.000000	1.217118	7.37194e+06	-41889.1	1005.82	-29784.5	0.000000	0.000000	7.219660	49.0356	NaN	0.000000	0.001696	0.001765	28.0812	25.7831	0.001648	15641.9	3.247937	-178.494	47.0859	1.216804	0.019911	0.019597	49.0356	15641.9	0.017560	0.018852	2601.14	104085
704	2.000000	1.219673	7.37194e+06	-41889.1	1005.82	-29784.5	0.000000	0.000000	7.222616	58.7955	NaN	0.000000	0.001720	0.001763	28.0824	29.1191	0.001759	16553.4	7.059900	-2.567572	58.6911	1.219305	0.022465	0.022097	58.7955	16553.4	0.019802	0.022231	2644.71	101433
704	2.000000	1.222199	7.37194e+06	-41889.1	1005.82	-29784.5	0.000000	0.000000	7.225590	69.6935	NaN	0.000000	0.001745	0.001752	28.0824	32.432	0.001822	17802.9	6.031674	178.295	71.3747	1.221844	0.024992	0.024637	69.6935	17802.9	0.022056	0.025876	2693.36	101115
704	2.000000	1.224669	7.37194e+06	-41889.1	1005.82	-29784.5	0.000000	0.000000	7.228471	79.6898	NaN	0.000000	0.001729	0.001767	28.0823	34.0273	0.001748	19469.4	5.151850	-2.231935	79.1903	1.224265	0.027462	0.027058	79.6898	19469.4	0.024392	0.029919	2663.5	102837
704	2.000000	1.227082	7.37194e+06	-41889.1	1005.82	-29784.5	0.000000	0.000000	7.231341	90.8304	NaN	0.000000	0.001725	0.001768	28.0824	37.2001	0.001809	20567	6.418053	175.481	88.0949	1.226865	0.029874	0.029657	90.8304	20567	0.026562	0.033919	2677.85	102028
704	2.000000	1.229557	7.37194e+06	-41889.1	1005.82	-29784.5	0.000000	0.000000	7.234388	104.724	NaN	0.000000	0.001730	0.001752	28.0823	38.537	0.001711	22518.3	3.613678	-1.939187	100.677	1.229341	0.032350	0.032134	104.724	22518.3	0.028862	0.038418	2725.94	104965
704	2.000000	1.232042	7.37194e+06	-41889.1	1005.82	-29784.5	0.000000	0.000000	7.237234	113.503	NaN	0.000000	0.001684	0.001789	28.0824	41.2427	0.001732	23810.9	0.741665	-179.819	109.628	1.231792	0.034835	0.034584	113.503	23810.9	0.031260	0.043395	2615.56	104431
704	2.000000	1.234640	7.37194e+06	-41889.1	1005.82	-29784.5	0.000000	0.000000	7.240368	126.549	NaN	0.000000	0.001690	0.001802	28.0823	43.5686	0.001791	24325.1	3.703487	-1.684011	125.4	1.234257	0.037433	0.037050	126.549	24325.1	0.033531	0.048381	2615.68	101039
704	2.000000	1.237056	7.37194e+06	-41889.1	1005.82	-29784.5	0.000000	0.000000	7.243473	143.332	NaN	0.000000	0.001685	0.001759	28.0824	45.8665	0.001720	26671.4	2.917197	177.197	139.879	1.236708	0.039849	0.039501	143.332	26671.4	0.035818	0.053668	2670.7	105187
704	2.000000	1.239565	7.37194e+06	-41889.1	1005.82	-29784.5	0.000000	0.000000	7.246553	157.202	NaN	0.000000	0.001677	0.001790	28.086	48.8138	0.001823	26778.2	3.369920	-3.036465	153.459	1.239255	0.042358	0.042048	157.202	26778.2	0.037955	0.058850	2671.21	100851
704	2.000000	1.242095	7.37194e+06	-41889.1	1005.82	-29784.5	0.000000	0.000000	7.249853	175.95	NaN	0.000000	0.001651	0.001809	28.083	51.4424	0.001797	28618.9	4.945490	174.599	174.8	1.241794	0.044888	0.044586	175.95	28618.9	0.040277	0.064747	2717.51	102758
704	2.000000	1.244694	7.37194e+06	-41889.1	1005.82	-29784.5	0.000000	0.000000	7.253105	191.839	NaN	0.000000	0.001694	0.001754	28.083	52.9597	0.001739	30459.5	3.706942	-3.034950	193.757	1.244201	0.047486	0.046994	191.839	30459.5	0.042763	0.071363	2688.2	104174
704	2.000000	1.247118	7.37194e+06	-41889.1	1005.82	-29784.5	0.000000	0.000000	7.255989	203.025	NaN	0.000000	0.001703	0.001745	28.0826	53.9338	0.001555	34685.3	2.102311	176.123	202.642	1.246701	0.049911	0.049494	203.025	34685.3	0.045521	0.079074	2567.54	112694
704	2.000000	1.249587	7.37194e+06	-41889.1	1005.82	-29784.5	0.000000	0.000000	7.259170	220.375	NaN	0.000000	0.001703	0.001764	28.0824	57.6143	0.001644	35046.5	6.433761	-8.263075	218.461	1.249229	0.052379	0.052022	220.375	35046.5	0.047663	0.085328	2582.68	109616
704	2.000000	1.252046	7.37194e+06	-41889.1	1005.82	-29784.5	0.000000	0.000000	7.262313	236.991	NaN	0.000000	0.001725	0.001719	28.0823	60.8756	0.001797	33883	2.329719	175.808	234.516	1.251753	0.054839	0.054546	236.991	33883	0.049593	0.091161	2599.7	102530
704	2.000000	1.254537	7.37194e+06	-41889.1	1005.82	-29784.5	0.000000	0.000000	7.265521	254.437	NaN	0.000000	0.001722	0.001782	28.0812	63.653	0.001828	34827.7	3.727889	-5.477844	250.797	1.254195	0.057330	0.056988	254.437	34827.7	0.051851	0.098219	2590.5	101531
704	2.000000	1.257129	7.37194e+06	-41889.1	1005.82	-29784.5	0.000000	0.000000	7.269066	277.633	NaN	0.000000	0.001698	0.001780	28.0814	66.3575	0.001733	38284.2	4.672070	172.471	278.578	1.256702	0.059922	0.059495	277.633	38284.2	0.054483	0.106771	2600.27	107045
704	2.000000	1.259483	7.37194e+06	-41889.1	1005.82	-29784.5	0.000000	0.000000	7.272175	296.007	NaN	0.000000	0.001685	0.001762	28.0812	67.7346	0.001823	37151.5	2.756699	-4.992457	289.424	1.259146	0.062276	0.061939	296.007	37151.5	0.056300	0.112877	2622.38	101029
704	2.000000	1.262038	7.37194e+06	-41889.1	1005.82	-29784.5	0.000000	0.000000	7.274662	294.342	NaN	0.000000	0.001651	0.001732	28.0811	70.3933	0.001855	37943.1	3.655134	173.383	289.189	1.261769	0.064831	0.064561	294.342	37943.1	0.059013	0.122292	2406.89	99130.7
704	2.000000	1.264522	7.37194e+06	-41889.1	1005.82	-29784.5	0.000000	0.000000	7.278259	321.416	NaN	0.000000	0.001680	0.001800	28.0811	71.7719	0.001859	38614	3.571045	-5.469569	317.257	1.264227	0.067315	0.067020	321.416	38614	0.061072	0.129682	2478.5	97966.8
704	2.000000	1.267080	7.37194e+06	-41889.1	1005.82	-29784.5	0.000000	0.000000	7.281536	338.914	NaN	0.000000	0.001666	0.001756	28.0813	73.6175	0.001646	44723	3.038140	173.028	337.528	1.266827	0.069873	0.069620	338.914	44723	0.064190	0.141259	2399.24	108717
704	2.000000	1.269502	7.37194e+06	-41889.1	1005.82	-29784.5	0.000000	0.000000	7.284810	359.658	NaN	0.000000	0.001648	0.001786	28.0818	77.0401	0.001733	44456.9	5.754285	-9.668436	352.411	1.269154	0.072294	0.071947	359.658	44456.9	0.066227	0.149079	2412.53	105197
704	2.000000	1.272079	7.37194e+06	-41889.1	1005.82	-29784.5	0.000000	0.000000	7.288130	377.748	NaN	0.000000	0.001702	0.001769	28.0811	80.2535	0.001800	44588	7.520513	168.463	376.568	1.271805	0.074871	0.074598	377.748	44588	0.068517	0.158109	2389.16	102450
704	2.000000	1.274510	7.37194e+06	-41889.1	1005.82	-29784.5	0.000000	0.000000	7.291670	404.729	NaN	0.000000	0.001702	0.001761	28.0816	81.9077	0.001939	42234.9	5.635915	-8.336441	400.943	1.274281	0.077303	0.077074	404.729	42234.9	0.070116	0.164559	2459.48	95122.7
704	2.000000	1.276991	7.37194e+06	-41889.1	1005.82	-29784.5	0.000000	0.000000	7.295420	435.598	NaN	0.000000	0.001675	0.001757	28.0812	84.3263	0.001778	47429.3	5.485372	170.25	432.088	1.276684	0.079784	0.079477	435.598	47429.3	0.072896	0.176068	2474.03	103271
704	2.000000	1.279465	7.37194e+06	-41889.1	1005.82	-29784.5	0.000000	0.000000	7.298668	454.429	NaN	0.000000	0.001711	0.001754	28.0819	86.678	0.001717	50482.9	3.460578	-7.771243	447.517	1.279050	0.082258	0.081843	454.429	50482.9	0.075507	0.187208	2427.4	106599
704	2.000000	1.282158	7.37194e+06	-41889.1	1005.82	-29784.5	0.000000	0.000000	7.302181	474.376	NaN	0.000000	0.001717	0.001754	28.0811	92.0197	0.001995	46115.1	6.818921	170.686	477.583	1.281668	0.084951	0.084461	474.376	46115.1	0.077236	0.194763	2435.66	95469.3
704	2.000000	1.284751	7.37194e+06	-41889.1	1005.82	-29784.5	0.000000	0.000000	7.305426	490.262	NaN	0.000000	0.001701	0.001793	28.082	92.247	0.001769	52151.3	3.798635	-7.309191	496.986	1.284138	0.087543	0.086930	490.262	52151.3	0.080493	0.209371	2341.6	104131
704	2.000000	1.287025	7.37194e+06	-41889.1	1005.82	-29784.5	0.000000	0.000000	7.309115	524.679	NaN	0.000000	0.001689	0.001801	28.0813	93.9405	0.001814	51791.1	4.876327	170.324	523.516	1.286714	0.089818	0.089507	524.679	51791.1	0.082220	0.217318	2414.34	101504
704	2.000000	1.289436	7.37194e+06	-41889.1	1005.82	-29784.5	0.000000	0.000000	7.312022	536.756	NaN	0.000000	0.001761	0.001770	28.0827	96.2109	0.001764	54526.9	2.109423	-7.163098	529.132	1.289146	0.092229	0.091938	536.756	54526.9	0.084846	0.229666	2337.11	103953
704	2.000000	1.291991	7.37194e+06	-41889.1	1005.82	-29784.5	0.000000	0.000000	7.315867	568.121	NaN	0.000000	0.001799	0.001788	28.0823	99.4375	0.001823	54551.5	2.604950	172.409	564.401	1.291769	0.094784	0.094562	568.121	54551.5	0.086973	0.239904	2368.12	101756
704	2.000000	1.294399	7.37194e+06	-41889.1	1005.82	-29784.5	0.000000	0.000000	7.319109	588.418	NaN	0.000000	0.001727	0.001839	28.0827	100.452	0.001717	58507.7	4.989915	-10.4271	577.279	1.294079	0.097192	0.096872	588.418	58507.7	0.089649	0.253077	2325.06	106258
704	2.000000	1.296994	7.37194e+06	-41889.1	1005.82	-29784.5	0.000000	0.000000	7.322961	618.999	NaN	0.000000	0.001715	0.001776	28.0822	102.913	0.001832	56171.5	2.516922	172.221	614.661	1.296718	0.099787	0.099510	618.999	56171.5	0.091522	0.262495	2358.13	100168
704	2.000000	1.299460	7.37194e+06	-41889.1	1005.82	-29784.5	0.000000	0.000000	7.326517	645.542	NaN	0.000000	0.001745	0.001760	28.0824	104.605	0.001783	58656.7	4.174214	-9.593552	639.14	1.299234	0.102252	0.102027	645.542	58656.7	0.093998	0.275189	2345.81	102159
704	2.000000	1.300489	7.37194e+06	-41889.1	1005.82	-29784.5	0.000000	0.000000	7.328306	664.035	NaN	0.000000	0.001709	0.001802	28.0822	104.628	0.001715	60994.3	1.634242	-7.148067	658.202	1.300073	0.103282	0.102866	664.035	60994.3	0.095116	0.281013	2363	105123