File: remote_trans/data/nanoindenter/0828-1/data/Data_2025-08-06,11h17m57s/2025-07-22_16-23-58_1_176.txt
2025-07-22, 16:23:58, 1
Index	Phase	Displacement	Time	Pos X	Pos Y	Pos Z	Rot A	Rot B	Piezo Z	Force A	Force B	Gripper	Voltage A	Voltage B	Temperature	Amplitude force	Amplitude pos	Stiffness	Phase shift	Phase excitation	Force A raw	Displacement raw	HMax	HMax raw	Real Force	Real Stiffness	Contact Depth	Area	Hardness	Reduced Mod.
[#]	[#]	[um]	[s]	[um]	[um]	[um]	[m°]	[m°]	[um]	[uN]	[uN]	[V]	[V]	[V]	[°C]	[uN]	[um]	[N/m]	[°]	[°]	[uN]	[um]	[um]	[um]	[uN]	[N/m]	[um]	[um^2]	[MPa]	[MPa]
176	1.000000	0.002763	7.36676e+06	-47439.1	955.818	-29766.4	0.000000	0.000000	6.002766	0.009108	NaN	0.000000	0.001615	0.001700	28.0837	0.039000	0.000983	39.6867	-124.852	-164.768	0.009393	0.001554	-1.094408	-1.095618	0.009108	39.6867	-1.094580	-4.239409E+14	-2.148509E-17	NaN
176	1.000000	0.012839	7.36676e+06	-47439.1	955.819	-29766.4	0.000000	0.000000	6.012841	-0.008856	NaN	0.000000	0.001584	0.001717	28.0896	0.122751	0.001247	98.4278	-127.127	15.9606	-0.037199	0.011391	-1.084332	-1.085780	-0.008856	98.4278	-1.084265	-3.081766E+14	2.873621E-17	NaN
176	1.000000	0.022764	7.36676e+06	-47439.1	955.819	-29766.4	0.000000	0.000000	6.022767	0.006481	NaN	0.000000	0.001601	0.001702	28.1276	0.026792	0.001756	15.2552	-165.204	-164.865	0.011749	0.021440	-1.074407	-1.075732	0.006481	15.2552	-1.074725	-2.294413E+14	-2.824558E-17	NaN
176	1.000000	0.032770	7.36676e+06	-47439.1	955.819	-29766.4	0.000000	0.000000	6.032771	-0.027098	NaN	0.000000	0.001623	0.001726	28.1085	0.089761	0.001981	45.322	87.752	16.0512	-0.017740	0.031397	-1.064402	-1.065774	-0.027098	45.322	-1.063953	-1.644162E+14	1.648113E-16	NaN
176	1.000000	0.042733	7.36676e+06	-47439.1	955.818	-29766.4	0.000000	0.000000	6.042733	-0.057719	NaN	0.000000	0.001591	0.001705	28.0805	0.096228	0.002042	47.1165	-17.6338	-163.579	-0.054778	0.041436	-1.054438	-1.055735	-0.057719	47.1165	-1.053519	-1.190481E+14	4.848402E-16	NaN
176	1.000000	0.052753	7.36676e+06	-47439.1	955.818	-29766.4	0.000000	0.000000	6.052754	-0.045293	NaN	0.000000	0.001605	0.001641	28.088	0.110052	0.001955	56.2895	-18.7379	17.503	0.009091	0.051393	-1.044418	-1.045778	-0.045293	56.2895	-1.043815	-8.815723E+13	5.137723E-16	NaN
176	1.000000	0.062774	7.36676e+06	-47439.1	955.819	-29766.4	0.000000	0.000000	6.062774	-0.061203	NaN	0.000000	0.001599	0.001699	28.1279	0.057113	0.002046	27.9147	70.2564	-169.991	-0.048831	0.061453	-1.034397	-1.035718	-0.061203	27.9147	-1.032752	-6.258937E+13	9.778499E-16	NaN
176	1.000000	0.072775	7.36676e+06	-47439.1	955.818	-29766.4	0.000000	0.000000	6.072779	0.026845	NaN	0.000000	0.001562	0.001715	28.1095	0.074405	0.002068	35.9865	62.2788	15.2391	0.033834	0.071385	-1.024396	-1.025786	0.026845	35.9865	-1.024955	-4.916110E+13	-5.460643E-16	NaN
176	1.000000	0.082757	7.36676e+06	-47439.1	955.819	-29766.4	0.000000	0.000000	6.082761	0.043003	NaN	0.000000	0.001592	0.001673	28.0804	0.078881	0.001963	40.1867	169.141	-163.249	0.040289	0.081442	-1.014414	-1.015730	0.043003	40.1867	-1.015217	-3.635703E+13	-1.182788E-15	NaN
176	1.000000	0.092767	7.36676e+06	-47439.1	955.82	-29766.4	0.000000	0.000000	6.092768	-0.031237	NaN	0.000000	0.001590	0.001693	28.087	0.019772	0.002009	9.842084	0.107755	15.0467	-0.014191	0.091362	-1.004404	-1.005809	-0.031237	9.842084	-1.002024	-2.415530E+13	1.293164E-15	NaN
176	1.000000	0.102754	7.36676e+06	-47439.1	955.819	-29766.4	0.000000	0.000000	6.102756	-0.005036	NaN	0.000000	0.001627	0.001693	28.1269	0.087999	0.001998	44.0456	106.775	-164.198	-0.061989	0.101424	-0.994418	-0.995747	-0.005036	44.0456	-0.994332	-1.903040E+13	2.646383E-16	NaN
176	1.000000	0.112771	7.36676e+06	-47439.1	955.819	-29766.4	0.000000	0.000000	6.112773	-0.023299	NaN	0.000000	0.001601	0.001681	28.1089	0.052358	0.001981	26.4238	-142.697	14.4735	-0.033472	0.111369	-0.984400	-0.985802	-0.023299	26.4238	-0.983738	-1.370166E+13	1.700440E-15	NaN
176	1.000000	0.122798	7.36676e+06	-47439.1	955.818	-29766.4	0.000000	0.000000	6.122802	0.037141	NaN	0.000000	0.001592	0.001678	28.0793	0.065084	0.001907	34.127	51.3027	-163.72	-0.036206	0.121469	-0.974373	-0.975702	0.037141	34.127	-0.975189	-1.050968E+13	-3.533940E-15	NaN
176	1.000000	0.132766	7.36676e+06	-47439.1	955.818	-29766.4	0.000000	0.000000	6.132769	-0.002155	NaN	0.000000	0.001635	0.001701	28.0875	0.079789	0.001977	40.3633	-151.559	14.709	-0.017616	0.131446	-0.964405	-0.965725	-0.002155	40.3633	-0.964365	-7.511234E+12	2.869337E-16	NaN
176	1.000000	0.142808	7.36676e+06	-47439.1	955.819	-29766.4	0.000000	0.000000	6.142810	0.002128	NaN	0.000000	0.001618	0.001703	28.1279	0.030573	0.002019	15.145	-81.5323	-163.409	-0.003497	0.141472	-0.954363	-0.955699	0.002128	15.145	-0.954469	-5.524491E+12	-3.852827E-16	NaN
176	1.000000	0.152762	7.36676e+06	-47439.1	955.818	-29766.4	0.000000	0.000000	6.152764	-0.008509	NaN	0.000000	0.001645	0.001712	28.1105	0.195910	0.002056	95.2699	6.926213	13.9105	-0.060482	0.151358	-0.944409	-0.945813	-0.008509	95.2699	-0.944342	-4.033836E+12	2.109327E-15	NaN
176	1.000000	0.162813	7.36676e+06	-47439.1	955.819	-29766.4	0.000000	0.000000	6.162811	-0.104292	NaN	0.000000	0.001653	0.001725	28.0841	0.083950	0.001993	42.1313	-160.792	-164.07	-0.043462	0.161472	-0.934358	-0.935699	-0.104292	42.1313	-0.932502	-2.792288E+12	3.735006E-14	NaN
176	1.000000	0.172793	7.36676e+06	-47439.1	955.819	-29766.4	0.000000	0.000000	6.172794	-0.035713	NaN	0.000000	0.001619	0.001713	28.0887	0.097844	0.001944	50.3378	161.685	15.1095	-0.092812	0.171420	-0.924378	-0.925751	-0.035713	50.3378	-0.923846	-2.133687E+12	1.673761E-14	NaN
176	1.000000	0.182833	7.36676e+06	-47439.1	955.819	-29766.4	0.000000	0.000000	6.182834	-0.032484	NaN	0.000000	0.001612	0.001683	28.1282	0.072005	0.002131	33.7879	159.998	-167.676	-0.022092	0.181509	-0.914338	-0.915663	-0.032484	33.7879	-0.913617	-1.552430E+12	2.092480E-14	NaN
176	1.000000	0.192796	7.36676e+06	-47439.1	955.818	-29766.4	0.000000	0.000000	6.192798	-0.014617	NaN	0.000000	0.001634	0.001675	28.1103	0.096832	0.001984	48.8121	90.0487	15.8665	-0.009632	0.191455	-0.904375	-0.905716	-0.014617	48.8121	-0.904151	-1.156505E+12	1.263895E-14	NaN
176	1.000000	0.202817	7.36676e+06	-47439.1	955.819	-29766.4	0.000000	0.000000	6.202819	0.000244	NaN	0.000000	0.001619	0.001709	28.0818	0.058121	0.002195	26.4733	9.615434	-166.376	-0.069255	0.201551	-0.894354	-0.895620	0.000244	26.4733	-0.894361	-8.528350E+11	-2.861798E-16	NaN
176	1.000000	0.212810	7.36676e+06	-47439.1	955.819	-29766.4	0.000000	0.000000	6.212810	-0.051641	NaN	0.000000	0.001580	0.001671	28.0885	0.052748	0.002046	25.7785	36.7239	12.33	0.029731	0.211439	-0.884361	-0.885732	-0.051641	25.7785	-0.882859	-5.961641E+11	8.662209E-14	NaN
176	1.000000	0.222836	7.36676e+06	-47439.1	955.818	-29766.4	0.000000	0.000000	6.222837	-0.012079	NaN	0.000000	0.001592	0.001678	28.1292	0.124351	0.002054	60.5374	-1.775758	-165.026	0.022427	0.221530	-0.874336	-0.875641	-0.012079	60.5374	-0.874186	-4.550643E+11	2.654368E-14	NaN
176	1.000000	0.232839	7.36676e+06	-47439.1	955.819	-29766.4	0.000000	0.000000	6.232846	0.102064	NaN	0.000000	0.001597	0.001663	28.112	0.104344	0.001959	53.255	-60.4297	14.4303	0.048217	0.231481	-0.864332	-0.865690	0.102064	53.255	-0.865769	-3.501060E+11	-2.915245E-13	NaN
176	1.000000	0.242780	7.36676e+06	-47439.1	955.818	-29766.4	0.000000	0.000000	6.242784	0.036593	NaN	0.000000	0.001604	0.001717	28.0819	0.064886	0.002022	32.0941	66.9134	-166.831	0.039657	0.241434	-0.854391	-0.855738	0.036593	32.0941	-0.855246	-2.522130E+11	-1.450887E-13	NaN
176	1.000000	0.252860	7.36676e+06	-47439.1	955.818	-29766.4	0.000000	0.000000	6.252864	0.045366	NaN	0.000000	0.001602	0.001715	28.0875	0.137362	0.002093	65.6171	-21.2265	15.2526	0.005293	0.251460	-0.844311	-0.845712	0.045366	65.6171	-0.844830	-1.822714E+11	-2.488909E-13	NaN
176	1.000000	0.262860	7.36676e+06	-47439.1	955.818	-29766.4	0.000000	0.000000	6.262862	-0.020152	NaN	0.000000	0.001615	0.001663	28.128	0.037171	0.002036	18.2561	-81.174	-165.666	-0.090697	0.261504	-0.834311	-0.835667	-0.020152	18.2561	-0.833483	-1.279352E+11	1.575186E-13	NaN
176	1.000000	0.272833	7.36676e+06	-47439.1	955.819	-29766.4	0.000000	0.000000	6.272834	-0.019193	NaN	0.000000	0.001615	0.001681	28.1107	0.046906	0.002098	22.3523	-164.402	17.3185	-0.001508	0.271478	-0.824339	-0.825693	-0.019193	22.3523	-0.823695	-9.425573E+10	2.036265E-13	NaN
176	1.000000	0.282861	7.36676e+06	-47439.1	955.819	-29766.4	0.000000	0.000000	6.282861	-0.036970	NaN	0.000000	0.001613	0.001712	28.081	0.091102	0.002004	45.458	169.574	-163.408	-0.052110	0.281563	-0.814311	-0.815608	-0.036970	45.458	-0.813701	-6.898834E+10	5.358872E-13	NaN
176	1.000000	0.292860	7.36676e+06	-47439.1	955.818	-29766.4	0.000000	0.000000	6.292861	-0.032017	NaN	0.000000	0.001587	0.001710	28.0882	0.045789	0.001853	24.7082	15.2336	12.6909	0.080655	0.291521	-0.804312	-0.805650	-0.032017	24.7082	-0.803340	-4.991078E+10	6.414780E-13	NaN
176	1.000000	0.302869	7.36676e+06	-47439.1	955.819	-29766.4	0.000000	0.000000	6.302872	0.017419	NaN	0.000000	0.001594	0.001686	28.1278	0.114858	0.001954	58.7774	-71.408	-165.681	-0.064829	0.301589	-0.794303	-0.795582	0.017419	58.7774	-0.794525	-3.789057E+10	-4.597071E-13	NaN
176	1.000000	0.312889	7.36676e+06	-47439.1	955.818	-29766.4	0.000000	0.000000	6.312893	0.030884	NaN	0.000000	0.001586	0.001677	28.111	0.097533	0.002068	47.152	-19.6529	12.7302	-0.054777	0.311501	-0.784282	-0.785670	0.030884	47.152	-0.784773	-2.793084E+10	-1.105727E-12	NaN
176	1.000000	0.322880	7.36676e+06	-47439.1	955.818	-29766.4	0.000000	0.000000	6.322882	-0.021654	NaN	0.000000	0.001566	0.001680	28.0812	0.001843	0.002026	0.909580	78.4846	-164.961	-0.089569	0.321550	-0.774291	-0.775621	-0.021654	0.909580	-0.756435	-1.150284E+10	1.882531E-12	NaN
176	1.000000	0.332855	7.36676e+06	-47439.1	955.818	-29766.4	0.000000	0.000000	6.332859	0.043849	NaN	0.000000	0.001561	0.001702	28.0864	0.068737	0.002062	33.3333	-118.786	15.7216	-0.005325	0.331563	-0.764316	-0.765608	0.043849	33.3333	-0.765303	-1.518569E+10	-2.887530E-12	NaN
176	1.000000	0.342894	7.36676e+06	-47439.1	955.819	-29766.4	0.000000	0.000000	6.342894	-0.037802	NaN	0.000000	0.001557	0.001693	28.1268	0.076744	0.002057	37.3018	58.6466	-165.745	-0.042074	0.341627	-0.754278	-0.755544	-0.037802	37.3018	-0.753518	-1.049777E+10	3.600950E-12	NaN
176	1.000000	0.352866	7.36676e+06	-47439.1	955.819	-29766.4	0.000000	0.000000	6.352868	-0.011381	NaN	0.000000	0.001562	0.001664	28.1105	0.063924	0.001931	33.1123	-20.7357	15.2455	-0.083892	0.351544	-0.744305	-0.745627	-0.011381	33.1123	-0.744047	-7.801466E+9	1.458887E-12	NaN
176	1.000000	0.362890	7.36676e+06	-47439.1	955.819	-29766.4	0.000000	0.000000	6.362893	0.007613	NaN	0.000000	0.001567	0.001680	28.08	0.129561	0.002013	64.3547	110.733	-165.614	-0.031596	0.361569	-0.734281	-0.735602	0.007613	64.3547	-0.734370	-5.759075E+9	-1.321904E-12	NaN
176	1.000000	0.372874	7.36676e+06	-47439.1	955.819	-29766.4	0.000000	0.000000	6.372874	-0.056809	NaN	0.000000	0.001585	0.001715	28.0877	0.079062	0.001976	40.0012	44.689	13.9235	0.004502	0.371493	-0.724297	-0.725678	-0.056809	40.0012	-0.723232	-4.060158E+9	1.399187E-11	NaN
176	1.000000	0.382928	7.36676e+06	-47439.1	955.819	-29766.4	0.000000	0.000000	6.382930	-0.002914	NaN	0.000000	0.001608	0.001709	28.1275	0.015830	0.001887	8.387472	131.89	-167.497	-0.008850	0.381637	-0.714243	-0.715534	-0.002914	8.387472	-0.713983	-3.036658E+9	9.595219E-13	NaN
176	1.000000	0.392889	7.36676e+06	-47439.1	955.819	-29766.4	0.000000	0.000000	6.392891	0.003269	NaN	0.000000	0.001605	0.001680	28.1116	0.032848	0.002017	16.2891	-65.6766	13.32	0.039178	0.391572	-0.704283	-0.705599	0.003269	16.2891	-0.704433	-2.249375E+9	-1.453256E-12	NaN
176	1.000000	0.402916	7.36676e+06	-47439.1	955.818	-29766.4	0.000000	0.000000	6.402924	0.142252	NaN	0.000000	0.001540	0.001736	28.0811	0.048657	0.001998	24.3524	169.539	-164.342	0.033521	0.401544	-0.694255	-0.695627	0.142252	24.3524	-0.698636	-1.874579E+9	-7.588460E-11	NaN
176	1.000000	0.412911	7.36676e+06	-47439.1	955.819	-29766.4	0.000000	0.000000	6.412915	0.044792	NaN	0.000000	0.001554	0.001719	28.0862	0.075647	0.002023	37.4028	-130.62	15.3309	0.047056	0.411558	-0.684260	-0.685613	0.044792	37.4028	-0.685158	-1.226696E+9	-3.651407E-11	NaN
176	1.000000	0.422900	7.36676e+06	-47439.1	955.819	-29766.4	0.000000	0.000000	6.422902	-0.025884	NaN	0.000000	0.001582	0.001682	28.1259	0.011403	0.001983	5.749346	104.885	-166.025	-0.041392	0.421519	-0.674271	-0.675652	-0.025884	5.749346	-0.670894	-7.827662E+8	3.306782E-11	NaN
176	1.000000	0.432942	7.36676e+06	-47439.1	955.819	-29766.4	0.000000	0.000000	6.432943	-0.030588	NaN	0.000000	0.001612	0.001689	28.1116	0.076435	0.002020	37.8387	-143.742	18.1563	-0.045472	0.431580	-0.664229	-0.665591	-0.030588	37.8387	-0.663623	-6.224196E+8	4.914444E-11	NaN
176	1.000000	0.442906	7.36676e+06	-47439.1	955.819	-29766.4	0.000000	0.000000	6.442909	0.016411	NaN	0.000000	0.001605	0.001679	28.0807	0.035719	0.001961	18.2151	85.1916	-162.359	0.006571	0.441633	-0.654266	-0.655538	0.016411	18.2151	-0.654941	-4.733280E+8	-3.467168E-11	NaN
176	1.000000	0.452903	7.36676e+06	-47439.1	955.819	-29766.4	0.000000	0.000000	6.452907	0.035219	NaN	0.000000	0.001613	0.001701	28.0888	0.142629	0.001990	71.682	5.554477	13.611	-0.116310	0.451545	-0.644268	-0.645626	0.035219	71.682	-0.644636	-3.418917E+8	-1.030108E-10	NaN
176	1.000000	0.462926	7.36676e+06	-47439.1	955.817	-29766.4	0.000000	0.000000	6.462929	0.016346	NaN	0.000000	0.001604	0.001697	28.1283	0.123310	0.001952	63.1662	-135.318	-164.158	0.074224	0.461600	-0.634245	-0.635571	0.016346	63.1662	-0.634440	-2.477301E+8	-6.598466E-11	NaN
176	1.000000	0.472908	7.36676e+06	-47439.1	955.819	-29766.4	0.000000	0.000000	6.472909	-0.026437	NaN	0.000000	0.001575	0.001659	28.1134	0.020802	0.002016	10.3208	66.5162	15.51	-0.068615	0.471575	-0.624263	-0.625596	-0.026437	10.3208	-0.622342	-1.689744E+8	1.564534E-10	NaN
176	1.000000	0.482952	7.36676e+06	-47439.1	955.819	-29766.4	0.000000	0.000000	6.482955	0.016230	NaN	0.000000	0.001581	0.001691	28.0826	0.061653	0.002083	29.602	96.472	-164.56	0.044309	0.481606	-0.614219	-0.615566	0.016230	29.602	-0.614630	-1.323748E+8	-1.226054E-10	NaN
176	1.000000	0.492919	7.36676e+06	-47439.1	955.819	-29766.4	0.000000	0.000000	6.492922	0.019996	NaN	0.000000	0.001626	0.001669	28.087	0.107922	0.002000	53.9626	62.8819	12.0311	0.066625	0.491562	-0.604253	-0.605609	0.019996	53.9626	-0.604531	-9.612641E+7	-2.080153E-10	NaN
176	1.000000	0.502921	7.36676e+06	-47439.1	955.819	-29766.4	0.000000	0.000000	6.502925	0.038232	NaN	0.000000	0.001586	0.001698	28.127	0.051658	0.001987	25.9993	-36.287	-164.456	0.020716	0.501639	-0.594250	-0.595533	0.038232	25.9993	-0.595353	-7.185376E+7	-5.320854E-10	NaN
176	1.000000	0.512936	7.36676e+06	-47439.1	955.818	-29766.4	0.000000	0.000000	6.512938	-0.007883	NaN	0.000000	0.001557	0.001703	28.1124	0.052807	0.001988	26.5592	-138.913	15.4972	0.018689	0.511596	-0.584235	-0.585575	-0.007883	26.5592	-0.584012	-5.012927E+7	1.572479E-10	NaN
176	1.000000	0.522920	7.36676e+06	-47439.1	955.819	-29766.4	0.000000	0.000000	6.522924	0.045800	NaN	0.000000	0.001555	0.001697	28.0815	0.062615	0.002056	30.4561	-131.585	-164.319	0.077552	0.521598	-0.574251	-0.575573	0.045800	30.4561	-0.575379	-3.810102E+7	-1.202073E-9	NaN
176	1.000000	0.532952	7.36676e+06	-47439.1	955.82	-29766.4	0.000000	0.000000	6.532954	-0.026188	NaN	0.000000	0.001564	0.001702	28.0881	0.082929	0.002025	40.9568	120.522	16.7684	-0.003234	0.531621	-0.564219	-0.565551	-0.026188	40.9568	-0.563739	-2.630839E+7	9.954258E-10	NaN
176	1.000000	0.542970	7.36676e+06	-47439.1	955.819	-29766.4	0.000000	0.000000	6.542972	0.010826	NaN	0.000000	0.001578	0.001748	28.1281	0.109183	0.002002	54.5241	55.7091	-164.596	-0.040307	0.541659	-0.554202	-0.555512	0.010826	54.5241	-0.554351	-1.950734E+7	-5.549845E-10	NaN
176	1.000000	0.552952	7.36676e+06	-47439.1	955.819	-29766.4	0.000000	0.000000	6.552955	0.011970	NaN	0.000000	0.001561	0.001698	28.1134	0.107990	0.002083	51.8504	131.995	15.6813	0.064690	0.551614	-0.544219	-0.545557	0.011970	51.8504	-0.544392	-1.419899E+7	-8.430522E-10	NaN
176	1.000000	0.562958	7.36676e+06	-47439.1	955.819	-29766.4	0.000000	0.000000	6.562962	0.051178	NaN	0.000000	0.001578	0.001695	28.0824	0.046633	0.001969	23.6793	-137.183	-166.384	0.071087	0.561646	-0.534213	-0.535525	0.051178	23.6793	-0.535834	-1.080360E+7	-4.737101E-9	NaN
176	1.000000	0.572970	7.36676e+06	-47439.1	955.818	-29766.4	0.000000	0.000000	6.572972	0.004848	NaN	0.000000	0.001587	0.001683	28.0844	0.052656	0.001992	26.4298	-99.1252	15.44	0.067876	0.571598	-0.524202	-0.525573	0.004848	26.4298	-0.524339	-7.48042e+06	-6.481565E-10	NaN
176	1.000000	0.582958	7.36676e+06	-47439.1	955.818	-29766.4	0.000000	0.000000	6.582965	0.117214	NaN	0.000000	0.001582	0.001704	28.1253	0.053608	0.002030	26.4139	-61.2444	-166.685	0.053177	0.581673	-0.514213	-0.515498	0.117214	26.4139	-0.517541	-6.01724e+06	-1.947969E-8	NaN
176	1.000000	0.592997	7.36676e+06	-47439.1	955.819	-29766.4	0.000000	0.000000	6.593001	0.049717	NaN	0.000000	0.001549	0.001671	28.1112	0.097220	0.001971	49.3293	112.282	14.8034	0.107275	0.591673	-0.504174	-0.505498	0.049717	49.3293	-0.504930	-4.01581e+06	-1.238029E-8	NaN
176	1.000000	0.602977	7.36676e+06	-47439.1	955.819	-29766.4	0.000000	0.000000	6.602981	0.046597	NaN	0.000000	0.001567	0.001690	28.0806	0.069394	0.002053	33.7939	-81.5824	-167.141	-0.029053	0.601688	-0.494194	-0.495483	0.046597	33.7939	-0.495228	-2.9405e+06	-1.584652E-8	NaN
176	1.000000	0.613004	7.36676e+06	-47439.1	955.819	-29766.4	0.000000	0.000000	6.613006	-0.021242	NaN	0.000000	0.001572	0.001669	28.0864	0.070328	0.002109	33.352	-5.768937	14.5813	0.047577	0.611625	-0.484167	-0.485546	-0.021242	33.352	-0.483689	-2.02842e+06	1.047230E-8	NaN
176	1.000000	0.623025	7.36676e+06	-47439.1	955.819	-29766.4	0.000000	0.000000	6.623030	0.057423	NaN	0.000000	0.001572	0.001664	28.126	0.071747	0.002170	33.0621	60.6812	-166.786	-0.006682	0.621678	-0.474146	-0.475494	0.057423	33.0621	-0.475449	-1.55522e+06	-3.692243E-8	NaN
176	1.000000	0.632991	7.36676e+06	-47439.1	955.818	-29766.4	0.000000	0.000000	6.632993	-0.021729	NaN	0.000000	0.001578	0.001645	28.1129	0.114031	0.001918	59.4564	50.8846	14.2445	0.018710	0.631663	-0.464180	-0.465509	-0.021729	59.4564	-0.463906	-1.07123e+06	2.028459E-8	NaN
176	1.000000	0.642975	7.36676e+06	-47439.1	955.819	-29766.4	0.000000	0.000000	6.642978	-0.008791	NaN	0.000000	0.001567	0.001601	28.0814	0.087550	0.001988	44.0342	40.0221	-165.503	0.019619	0.641716	-0.454196	-0.455455	-0.008791	44.0342	-0.454046	-778566	1.129132E-8	NaN
176	1.000000	0.653005	7.36676e+06	-47439.1	955.819	-29766.4	0.000000	0.000000	6.653009	0.035449	NaN	0.000000	0.001593	0.001630	28.0861	0.013698	0.002022	6.775145	77.9695	14.9064	0.093722	0.651616	-0.444167	-0.445555	0.035449	6.775145	-0.448091	-641875	-5.522776E-8	NaN
176	1.000000	0.663003	7.36676e+06	-47439.1	955.819	-29766.4	0.000000	0.000000	6.663008	0.048433	NaN	0.000000	0.001573	0.001655	28.125	0.092655	0.001939	47.7822	-159.822	-165.353	0.010545	0.661649	-0.434168	-0.435522	0.048433	47.7822	-0.434928	-418539	-1.157185E-7	NaN
176	1.000000	0.673005	7.36676e+06	-47439.1	955.819	-29766.4	0.000000	0.000000	6.673008	0.008754	NaN	0.000000	0.001623	0.001652	28.1117	0.113015	0.002028	55.7274	7.274995	15.9948	-0.057599	0.671667	-0.424166	-0.425504	0.008754	55.7274	-0.424284	-295894	-2.958406E-8	NaN
176	1.000000	0.683003	7.36676e+06	-47439.1	955.819	-29766.4	0.000000	0.000000	6.683008	0.053081	NaN	0.000000	0.001614	0.001685	28.0808	0.010705	0.001926	5.559334	-1.060332	-164.26	0.044576	0.681729	-0.414168	-0.415443	0.053081	5.559334	-0.421329	-268697	-1.975505E-7	NaN
176	1.000000	0.693023	7.36676e+06	-47439.1	955.818	-29766.4	0.000000	0.000000	6.693023	-0.048428	NaN	0.000000	0.001606	0.001681	28.0868	0.082262	0.001953	42.1168	-27.5056	13.3233	-0.053840	0.691658	-0.404148	-0.405513	-0.048428	42.1168	-0.403286	-148879	3.252852E-7	NaN
176	1.000000	0.703044	7.36676e+06	-47439.1	955.818	-29766.4	0.000000	0.000000	6.703043	-0.091437	NaN	0.000000	0.001582	0.001689	28.1266	0.087829	0.002009	43.7257	-138.554	-167.025	-0.096356	0.701680	-0.394127	-0.395491	-0.091437	43.7257	-0.392559	-104654	8.737041E-7	NaN
176	1.000000	0.713009	7.36676e+06	-47439.1	955.818	-29766.4	0.000000	0.000000	6.713007	-0.091020	NaN	0.000000	0.001611	0.001707	28.1141	0.133448	0.002115	63.0894	-82.5892	12.1797	-0.160139	0.711623	-0.384162	-0.385548	-0.091020	63.0894	-0.383080	-76572.8	1.188677E-6	NaN
176	1.000000	0.723046	7.36676e+06	-47439.1	955.819	-29766.4	0.000000	0.000000	6.723050	0.033507	NaN	0.000000	0.001607	0.001704	28.0821	0.064219	0.001906	33.6959	-68.2914	-162.332	-0.005528	0.721714	-0.374125	-0.375457	0.033507	33.6959	-0.374871	-58373.9	-5.740085E-7	NaN
176	1.000000	0.733037	7.36676e+06	-47439.1	955.819	-29766.4	0.000000	0.000000	6.733042	0.046120	NaN	0.000000	0.001600	0.001729	28.0865	0.055540	0.001903	29.1808	124.851	17.1531	0.058062	0.731700	-0.364134	-0.365471	0.046120	29.1808	-0.365319	-42526.5	-1.084499E-6	NaN
176	1.000000	0.743028	7.36676e+06	-47439.1	955.818	-29766.4	0.000000	0.000000	6.743031	0.033691	NaN	0.000000	0.001601	0.001698	28.1257	0.088729	0.002051	43.2549	115.015	-168.803	0.003219	0.741708	-0.354144	-0.355463	0.033691	43.2549	-0.354728	-29891.9	-1.127096E-6	NaN
176	1.000000	0.753049	7.36676e+06	-47439.1	955.819	-29766.4	0.000000	0.000000	6.753053	0.028974	NaN	0.000000	0.001677	0.001695	28.1133	0.100048	0.002042	48.9958	-1.217833	13.7672	0.022674	0.751664	-0.344122	-0.345507	0.028974	48.9958	-0.344565	-21283	-1.361380E-6	NaN
176	1.000000	0.763048	7.36676e+06	-47439.1	955.819	-29766.4	0.000000	0.000000	6.763051	0.013020	NaN	0.000000	0.001694	0.001682	28.0814	0.036300	0.001997	18.1795	-98.5873	-162.704	0.018406	0.761717	-0.334123	-0.335455	0.013020	18.1795	-0.334660	-15262.4	-8.530637E-7	NaN
176	1.000000	0.773024	7.36676e+06	-47439.1	955.82	-29766.4	0.000000	0.000000	6.773027	0.015300	NaN	0.000000	0.001606	0.001706	28.0873	0.062859	0.001987	31.6356	39.8141	17.015	-0.028119	0.771662	-0.324147	-0.325509	0.015300	31.6356	-0.324510	-10837.7	-1.411731E-6	NaN
176	1.000000	0.783065	7.36676e+06	-47439.1	955.819	-29766.4	0.000000	0.000000	6.783070	0.045516	NaN	0.000000	0.001650	0.001681	28.1272	0.037431	0.001981	18.899	111.727	-164.547	0.066070	0.781746	-0.314106	-0.315426	0.045516	18.899	-0.315912	-8098.55	-5.620290E-6	NaN
176	1.000000	0.793043	7.36676e+06	-47439.1	955.819	-29766.4	0.000000	0.000000	6.793046	0.018231	NaN	0.000000	0.001620	0.001735	28.1151	0.088795	0.001994	44.5351	158.935	17.3678	0.009954	0.791701	-0.304128	-0.305470	0.018231	44.5351	-0.304436	-5477.42	-3.328315E-6	NaN
176	1.000000	0.803072	7.36676e+06	-47439.1	955.818	-29766.4	0.000000	0.000000	6.803070	-0.125975	NaN	0.000000	0.001612	0.001753	28.0821	0.024022	0.002042	11.7667	121.379	-167.189	-0.102162	0.801748	-0.294099	-0.295423	-0.125975	11.7667	-0.286069	-2912.97	4.324634E-5	NaN
176	1.000000	0.813049	7.36676e+06	-47439.1	955.819	-29766.4	0.000000	0.000000	6.813052	-0.005277	NaN	0.000000	0.001592	0.001734	28.0859	0.066360	0.001964	33.7896	-65.2283	14.9854	-0.102123	0.811700	-0.284122	-0.285471	-0.005277	33.7896	-0.284005	-2712.06	1.945892E-6	NaN
176	1.000000	0.823074	7.36676e+06	-47439.1	955.818	-29766.4	0.000000	0.000000	6.823076	-0.019732	NaN	0.000000	0.001606	0.001709	28.126	0.103015	0.002074	49.678	-114.686	-167.404	-0.058255	0.821732	-0.274097	-0.275439	-0.019732	49.678	-0.273799	-1902	1.037440E-5	NaN
176	1.000000	0.833069	7.36676e+06	-47439.1	955.818	-29766.4	0.000000	0.000000	6.833074	0.054637	NaN	0.000000	0.001610	0.001686	28.1144	0.053503	0.002043	26.1914	106.614	16.8801	0.051251	0.831696	-0.264102	-0.265475	0.054637	26.1914	-0.265666	-1430.72	-3.818853E-5	NaN
176	1.000000	0.843072	7.36676e+06	-47439.1	955.818	-29766.4	0.000000	0.000000	6.843073	-0.027040	NaN	0.000000	0.001614	0.001705	28.0801	0.039634	0.001794	22.0959	-143.399	-164.495	0.016473	0.841788	-0.254100	-0.255383	-0.027040	22.0959	-0.253182	-920.664	2.936970E-5	NaN
176	1.000000	0.853085	7.36676e+06	-47439.1	955.819	-29766.4	0.000000	0.000000	6.853088	0.003225	NaN	0.000000	0.001594	0.001700	28.0852	0.118152	0.001901	62.1482	31.9411	13.0835	0.052360	0.851734	-0.244086	-0.245437	0.003225	62.1482	-0.244125	-666.569	-4.838731E-6	NaN
176	1.000000	0.863065	7.36676e+06	-47439.1	955.818	-29766.4	0.000000	0.000000	6.863065	-0.061245	NaN	0.000000	0.001600	0.001720	28.1252	0.042415	0.001849	22.9384	116.229	-164.993	-0.096369	0.861759	-0.234106	-0.235412	-0.061245	22.9384	-0.232103	-432.208	0.000142	NaN
176	1.000000	0.873063	7.36676e+06	-47439.1	955.818	-29766.4	0.000000	0.000000	6.873067	0.029188	NaN	0.000000	0.001621	0.001763	28.1139	0.077098	0.001943	39.67	63.4686	15.1488	-0.037167	0.871762	-0.224108	-0.225409	0.029188	39.67	-0.224660	-329.558	-8.856844E-5	NaN
176	1.000000	0.883115	7.36676e+06	-47439.1	955.82	-29766.4	0.000000	0.000000	6.883115	-0.051636	NaN	0.000000	0.001608	0.001676	28.0812	0.064161	0.001974	32.5018	-127.289	-164.046	-0.054288	0.881779	-0.214056	-0.215392	-0.051636	32.5018	-0.212865	-213.362	0.000242	NaN
176	1.000000	0.893106	7.36676e+06	-47439.1	955.819	-29766.4	0.000000	0.000000	6.893111	0.045870	NaN	0.000000	0.001605	0.001689	28.0851	0.092763	0.002009	46.1768	-166.941	17.2206	0.003026	0.891752	-0.204065	-0.205420	0.045870	46.1768	-0.204810	-157.927	-0.000290	NaN
176	1.000000	0.903120	7.36676e+06	-47439.1	955.818	-29766.4	0.000000	0.000000	6.903122	-0.010163	NaN	0.000000	0.001608	0.001712	28.1246	0.106283	0.002051	51.8324	-153.625	-163.19	-0.023781	0.901833	-0.194052	-0.195339	-0.010163	51.8324	-0.193905	-104.482	9.727214E-5	NaN
176	1.000000	0.913109	7.36676e+06	-47439.1	955.819	-29766.4	0.000000	0.000000	6.913109	-0.040176	NaN	0.000000	0.001649	0.001701	28.1132	0.059592	0.002008	29.671	115.815	13.5905	0.004902	0.911734	-0.184062	-0.185438	-0.040176	29.671	-0.183047	-68.7315	0.000585	NaN
176	1.000000	0.923109	7.36676e+06	-47439.1	955.819	-29766.4	0.000000	0.000000	6.923109	-0.042633	NaN	0.000000	0.001604	0.001679	28.0812	0.058794	0.002018	29.1407	-38.9006	-163.607	0.062800	0.921763	-0.174062	-0.175408	-0.042633	29.1407	-0.172965	-46.2318	0.000922	NaN
176	1.000000	0.933098	7.36676e+06	-47439.1	955.818	-29766.4	0.000000	0.000000	6.933100	-0.005816	NaN	0.000000	0.001616	0.001702	28.0859	0.111354	0.001881	59.2001	-126.497	16.0621	-0.015366	0.931750	-0.164074	-0.165421	-0.005816	59.2001	-0.164000	-32.2645	0.000180	NaN
176	1.000000	0.943137	7.36676e+06	-47439.1	955.819	-29766.4	0.000000	0.000000	6.943140	-0.003394	NaN	0.000000	0.001639	0.001712	28.1252	0.009305	0.002048	4.544359	79.4481	-166.43	0.018908	0.941806	-0.154034	-0.155365	-0.003394	4.544359	-0.153474	-20.9441	0.000162	NaN
176	1.000000	0.953114	7.36676e+06	-47439.1	955.819	-29766.4	0.000000	0.000000	6.953114	-0.069763	NaN	0.000000	0.001592	0.001707	28.1145	0.127946	0.002039	62.7618	-0.640281	12.7698	-0.036958	0.951756	-0.144057	-0.145415	-0.069763	62.7618	-0.143223	-13.5898	0.005133	NaN
176	1.000000	0.963132	7.36676e+06	-47439.1	955.818	-29766.4	0.000000	0.000000	6.963132	-0.050539	NaN	0.000000	0.001598	0.001672	28.082	0.029900	0.002026	14.7551	74.0836	-164.434	-0.109318	0.961824	-0.134039	-0.135348	-0.050539	14.7551	-0.131470	-8.137567	0.006211	NaN
176	1.000000	0.973110	7.36676e+06	-47439.1	955.819	-29766.4	0.000000	0.000000	6.973114	0.040123	NaN	0.000000	0.001576	0.001676	28.0848	0.035587	0.001855	19.1809	80.2371	10.7047	0.017483	0.971761	-0.124061	-0.125410	0.040123	19.1809	-0.125630	-6.258135	-0.006411	NaN
176	1.000000	0.983150	7.36676e+06	-47439.1	955.82	-29766.4	0.000000	0.000000	6.983154	0.039605	NaN	0.000000	0.001595	0.001700	28.1252	0.095003	0.002053	46.28	99.9831	-164.081	0.014830	0.981789	-0.114021	-0.115382	0.039605	46.28	-0.114663	-3.759643	-0.010534	NaN
176	1.000000	0.993148	7.36676e+06	-47439.1	955.82	-29766.4	0.000000	0.000000	6.993149	-0.033405	NaN	0.000000	0.001571	0.001686	28.1146	0.038307	0.001855	20.6553	108.175	15.9752	-0.054311	0.991780	-0.104023	-0.105391	-0.033405	20.6553	-0.102810	-2.106700	0.015857	NaN
176	1.000000	1.003150	7.36676e+06	-47439.1	955.819	-29766.4	0.000000	0.000000	7.003154	0.040228	NaN	0.000000	0.001588	0.001725	28.082	0.094115	0.001951	48.2452	174.753	-161.699	0.123124	1.001794	-0.094021	-0.095377	0.040228	48.2452	-0.094646	-1.384682	-0.029052	NaN
176	1.000000	1.013175	7.36676e+06	-47439.1	955.82	-29766.4	0.000000	0.000000	7.013177	-0.000334	NaN	0.000000	0.001637	0.001688	28.0867	0.042965	0.002063	20.8233	-31.768	14.8476	0.046186	1.011795	-0.083996	-0.085376	-0.000334	20.8233	-0.083984	-0.776282	0.000430	NaN
176	1.000000	1.023175	7.36676e+06	-47439.1	955.82	-29766.4	0.000000	0.000000	7.023179	0.036333	NaN	0.000000	0.001621	0.001690	28.1256	0.104032	0.001978	52.6045	-45.1794	-162.963	-0.007555	1.021869	-0.073996	-0.075302	0.036333	52.6045	-0.074514	-0.448681	-0.080978	NaN
176	1.000000	1.033171	7.36676e+06	-47439.1	955.821	-29766.4	0.000000	0.000000	7.033173	-0.027778	NaN	0.000000	0.001631	0.001689	28.1159	0.076500	0.002014	37.9905	104.518	15.0834	0.017432	1.031826	-0.064000	-0.065345	-0.027778	37.9905	-0.063452	-0.225628	0.123114	NaN
176	1.000000	1.043145	7.36676e+06	-47439.1	955.82	-29766.4	0.000000	0.000000	7.043147	-0.006902	NaN	0.000000	0.001571	0.001697	28.0827	0.073461	0.001994	36.8323	29.3494	-163.431	0.005078	1.041791	-0.054026	-0.055380	-0.006902	36.8323	-0.053886	-0.119348	0.057828	NaN
176	1.000000	1.053154	7.36676e+06	-47439.1	955.82	-29766.4	0.000000	0.000000	7.053154	-0.049870	NaN	0.000000	0.001636	0.001717	28.085	0.061179	0.002023	30.2347	112.557	16.4173	-0.005884	1.051783	-0.044017	-0.045388	-0.049870	30.2347	-0.042780	-0.054968	0.907259	NaN
176	1.000000	1.063143	7.36676e+06	-47439.1	955.82	-29766.4	0.000000	0.000000	7.063143	-0.041346	NaN	0.000000	0.001613	0.001766	28.1254	0.035528	0.001977	17.9737	-143.962	-164.481	-0.055353	1.061914	-0.034028	-0.035257	-0.041346	17.9737	-0.032303	-0.026735	1.546493	NaN
176	1.000000	1.073179	7.36676e+06	-47439.1	955.818	-29766.4	0.000000	0.000000	7.073179	-0.052812	NaN	0.000000	0.001648	0.001728	28.1152	0.062045	0.002010	30.8661	88.9549	12.5769	-0.096013	1.071783	-0.023992	-0.025389	-0.052812	30.8661	-0.022709	-0.014722	3.587396	NaN
176	1.000000	1.083170	7.36676e+06	-47439.1	955.818	-29766.4	0.000000	0.000000	7.083172	-0.025537	NaN	0.000000	0.001686	0.001671	28.0823	0.128065	0.001881	68.0803	-172.445	-165.541	0.000925	1.081887	-0.014001	-0.015285	-0.025537	68.0803	-0.013719	-0.008519	2.997560	NaN
176	1.000000	1.093204	7.36676e+06	-47439.1	955.819	-29766.4	0.000000	0.000000	7.093204	-0.050314	NaN	0.000000	0.001568	0.001683	28.0863	0.061157	0.002072	29.5091	-164.441	13.479	0.009533	1.091832	-0.003968	-0.005340	-0.050314	29.5091	-0.002689	-0.001911	26.3269	NaN
176	1.000000	1.103172	7.36676e+06	-47439.1	955.819	-29766.4	0.000000	0.000000	7.103289	2.794938	NaN	0.000000	0.001569	0.001686	28.1258	3.693828	0.001896	1947.8	11.704	-168.928	1.605500	1.101868	0.006001	0.004697	2.794938	1947.8	0.004924	0.004065	687.639	27913.3
176	2.000000	1.110218	7.36676e+06	-47439.1	955.819	-29766.4	0.000000	0.000000	7.110640	10.2049	NaN	0.000000	0.001593	0.001695	28.1156	9.935891	0.001596	6227.43	7.029831	5.432287	9.518366	1.109934	0.013046	0.012762	10.2049	6227.43	0.011817	0.011272	905.324	53589.6
176	2.000000	1.112700	7.36676e+06	-47439.1	955.819	-29766.4	0.000000	0.000000	7.113222	12.6159	NaN	0.000000	0.001577	0.001741	28.0816	12.2012	0.001641	7436.86	3.146804	-170.79	12.2867	1.112451	0.015529	0.015280	12.6159	7436.86	0.014257	0.014307	881.781	56804.7
176	2.000000	1.115233	7.36676e+06	-47439.1	955.82	-29766.4	0.000000	0.000000	7.115951	17.4087	NaN	0.000000	0.001598	0.001721	28.0834	15.3911	0.001640	9382.07	7.170412	4.138927	17.095	1.114809	0.018062	0.017638	17.4087	9382.07	0.016670	0.017577	990.398	64653.7
176	2.000000	1.117641	7.36676e+06	-47439.1	955.82	-29766.4	0.000000	0.000000	7.118639	24.2141	NaN	0.000000	0.001609	0.001712	28.1236	17.7917	0.001720	10346.8	7.626257	-177.873	22.7729	1.117356	0.020470	0.020185	24.2141	10346.8	0.018715	0.020563	1177.55	65922.8
176	2.000000	1.120109	7.36676e+06	-47439.1	955.82	-29766.4	0.000000	0.000000	7.121279	28.4049	NaN	0.000000	0.001573	0.001692	28.1144	21.2658	0.001809	11755.3	10.1638	-0.773500	26.0061	1.119815	0.022937	0.022644	28.4049	11755.3	0.021125	0.024341	1166.95	68839.1
176	2.000000	1.122652	7.36676e+06	-47439.1	955.82	-29766.4	0.000000	0.000000	7.124152	36.4231	NaN	0.000000	0.001564	0.001690	28.0818	23.354	0.001755	13308.8	1.644390	-173.271	36.7964	1.122351	0.025481	0.025180	36.4231	13308.8	0.023429	0.028219	1290.74	72384
176	2.000000	1.125151	7.36676e+06	-47439.1	955.82	-29766.4	0.000000	0.000000	7.126892	42.307	NaN	0.000000	0.001592	0.001688	28.0854	26.5612	0.001846	14390.1	7.641808	0.559006	40.2879	1.124773	0.027979	0.027602	42.307	14390.1	0.025774	0.032440	1304.18	72996.2
176	2.000000	1.127582	7.36676e+06	-47439.1	955.819	-29766.4	0.000000	0.000000	7.129717	51.8746	NaN	0.000000	0.001552	0.001693	28.1243	28.7462	0.001801	15965.7	6.082473	-179.2	50.2659	1.127328	0.030411	0.030156	51.8746	15965.7	0.027974	0.036649	1415.44	76195.4
176	2.000000	1.130075	7.36676e+06	-47439.1	955.819	-29766.4	0.000000	0.000000	7.132490	58.6783	NaN	0.000000	0.001559	0.001674	28.1159	31.0317	0.001792	17320	4.833493	0.923658	55.7559	1.129739	0.032904	0.032568	58.6783	17320	0.030363	0.041500	1413.95	77678.1
176	2.000000	1.132595	7.36676e+06	-47439.1	955.819	-29766.4	0.000000	0.000000	7.135265	64.9071	NaN	0.000000	0.001556	0.001651	28.0814	34.0017	0.001744	19492.6	2.733720	-179	63.0352	1.132342	0.035423	0.035170	64.9071	19492.6	0.032926	0.047027	1380.21	82123.9
176	2.000000	1.135159	7.36676e+06	-47439.1	955.82	-29766.4	0.000000	0.000000	7.138332	77.1265	NaN	0.000000	0.001583	0.001688	28.0839	36.2328	0.001768	20499.3	3.559194	0.446276	74.8865	1.134764	0.037988	0.037593	77.1265	20499.3	0.035166	0.052133	1479.41	82026.5
176	2.000000	1.137584	7.36676e+06	-47439.1	955.82	-29766.4	0.000000	0.000000	7.141120	85.9597	NaN	0.000000	0.001609	0.001706	28.1234	38.0569	0.001738	21892.1	1.898697	-179.15	84.2393	1.137281	0.040413	0.040109	85.9597	21892.1	0.037468	0.057648	1491.11	83304.5
176	2.000000	1.140119	7.36676e+06	-47439.1	955.819	-29766.4	0.000000	0.000000	7.143996	94.2223	NaN	0.000000	0.001585	0.001690	28.1152	41.0967	0.001736	23674.7	3.381160	-0.326377	93.8788	1.139807	0.042948	0.042636	94.2223	23674.7	0.039963	0.063933	1473.76	85544.7
176	2.000000	1.142557	7.36676e+06	-47439.1	955.82	-29766.4	0.000000	0.000000	7.146899	105.572	NaN	0.000000	0.001576	0.001695	28.0804	44.237	0.001707	25917.5	6.226368	174.955	103.426	1.142296	0.045385	0.045125	105.572	25917.5	0.042330	0.070190	1504.1	89377.7
176	2.000000	1.145090	7.36676e+06	-47439.1	955.82	-29766.4	0.000000	0.000000	7.149932	117.718	NaN	0.000000	0.001576	0.001711	28.0856	45.6755	0.001764	25888.5	4.415964	-2.083194	114.81	1.144863	0.047918	0.047691	117.718	25888.5	0.044508	0.076197	1544.92	85686.3
176	2.000000	1.147549	7.36676e+06	-47439.1	955.82	-29766.4	0.000000	0.000000	7.152921	130.593	NaN	0.000000	0.001621	0.001715	28.125	49.1529	0.001773	27723.4	4.843312	176.118	128.046	1.147270	0.050378	0.050099	130.593	27723.4	0.046845	0.082912	1575.08	87965.1
176	2.000000	1.150145	7.36676e+06	-47439.1	955.821	-29766.4	0.000000	0.000000	7.155859	138.922	NaN	0.000000	0.001603	0.001676	28.118	52.151	0.001825	28570.7	7.121534	-6.011686	139.195	1.149740	0.052974	0.052568	138.922	28570.7	0.049327	0.090345	1537.68	86844.3
176	2.000000	1.152615	7.36676e+06	-47439.1	955.819	-29766.4	0.000000	0.000000	7.158921	153.345	NaN	0.000000	0.001611	0.001679	28.0836	53.6225	0.001806	29685.8	5.822256	176.127	153.262	1.152198	0.055443	0.055026	153.345	29685.8	0.051569	0.097325	1575.6	86938.1
176	2.000000	1.155065	7.36676e+06	-47439.1	955.821	-29766.4	0.000000	0.000000	7.161916	166.583	NaN	0.000000	0.001595	0.001705	28.0861	55.6936	0.001767	31523.2	4.403339	-3.390165	162.848	1.154728	0.057894	0.057557	166.583	31523.2	0.053931	0.104949	1587.28	88902.6
176	2.000000	1.157633	7.36676e+06	-47439.1	955.82	-29766.4	0.000000	0.000000	7.164901	176.71	NaN	0.000000	0.001581	0.001729	28.1237	58.3811	0.001772	32939	7.873876	172.271	179.91	1.157336	0.060462	0.060165	176.71	32939	0.056438	0.113347	1559.02	89387.8
176	2.000000	1.160003	7.36676e+06	-47439.1	955.82	-29766.4	0.000000	0.000000	7.167950	193.241	NaN	0.000000	0.001585	0.001681	28.1162	60.1228	0.001731	34732.6	0.166069	-0.744014	187.787	1.159717	0.062832	0.062546	193.241	34732.6	0.058659	0.121044	1596.46	91209.4
176	2.000000	1.162488	7.36676e+06	-47439.1	955.82	-29766.4	0.000000	0.000000	7.170953	205.839	NaN	0.000000	0.001577	0.001736	28.0821	63.5357	0.001868	34005.6	1.869476	178.265	199.914	1.162216	0.065317	0.065045	205.839	34005.6	0.060777	0.128609	1600.51	86634.1
176	2.000000	1.165095	7.36676e+06	-47439.1	955.82	-29766.4	0.000000	0.000000	7.173915	214.489	NaN	0.000000	0.001590	0.001724	28.0855	65.1775	0.001826	35693.9	2.373931	-3.017292	212.308	1.164898	0.067924	0.067727	214.489	35693.9	0.063417	0.138345	1550.4	87677
176	2.000000	1.167514	7.36676e+06	-47439.1	955.82	-29766.4	0.000000	0.000000	7.177150	234.322	NaN	0.000000	0.001582	0.001708	28.1244	67.9856	0.001833	37096.6	5.682857	173.077	231.759	1.167250	0.070342	0.070079	234.322	37096.6	0.065605	0.146671	1597.61	88498.5
176	2.000000	1.169977	7.36676e+06	-47439.1	955.82	-29766.4	0.000000	0.000000	7.180191	248.395	NaN	0.000000	0.001578	0.001718	28.1177	70.7131	0.001748	40446.6	4.162727	-5.734292	242.551	1.169680	0.072806	0.072508	248.395	40446.6	0.068200	0.156842	1583.73	93309.2
176	2.000000	1.172568	7.36676e+06	-47439.1	955.82	-29766.4	0.000000	0.000000	7.183172	257.853	NaN	0.000000	0.001561	0.001730	28.0837	73.4262	0.001769	41495.8	1.797613	176.013	257.503	1.172333	0.075397	0.075162	257.853	41495.8	0.070737	0.167098	1543.12	92745.3
176	2.000000	1.175051	7.36676e+06	-47439.1	955.82	-29766.4	0.000000	0.000000	7.186515	278.793	NaN	0.000000	0.001579	0.001739	28.0835	75.6133	0.001856	40729.5	5.202782	-6.404694	273.87	1.174671	0.077880	0.077500	278.793	40729.5	0.072746	0.175438	1589.12	88842.4
176	2.000000	1.177441	7.36676e+06	-47439.1	955.82	-29766.4	0.000000	0.000000	7.189490	293.005	NaN	0.000000	0.001567	0.001702	28.1236	76.4392	0.001792	42653.2	1.876145	176.347	285.496	1.177177	0.080270	0.080006	293.005	42653.2	0.075118	0.185529	1579.3	90473.1
176	2.000000	1.180035	7.36676e+06	-47439.1	955.821	-29766.4	0.000000	0.000000	7.192801	310.454	NaN	0.000000	0.001594	0.001706	28.1156	79.4401	0.001751	45363.7	3.695932	-5.850984	307.513	1.179648	0.082864	0.082477	310.454	45363.7	0.077731	0.196952	1576.29	93390.3
176	2.000000	1.182523	7.36676e+06	-47439.1	955.821	-29766.4	0.000000	0.000000	7.195614	318.352	NaN	0.000000	0.001595	0.001738	28.081	83.6081	0.001932	43286.5	4.599894	173.074	315.51	1.182297	0.085352	0.085126	318.352	43286.5	0.079836	0.206386	1542.51	87053.3
176	2.000000	1.185028	7.36676e+06	-47439.1	955.82	-29766.4	0.000000	0.000000	7.199061	341.276	NaN	0.000000	0.001586	0.001741	28.0841	85.0545	0.001908	44582.2	5.574908	-7.511129	335.91	1.184677	0.087857	0.087506	341.276	44582.2	0.082116	0.216835	1573.9	87472.1
176	2.000000	1.187528	7.36676e+06	-47439.1	955.821	-29766.4	0.000000	0.000000	7.202308	359.43	NaN	0.000000	0.001619	0.001737	28.1229	86.1833	0.001714	50268.3	2.855367	174.256	359.561	1.187188	0.090357	0.090017	359.43	50268.3	0.084994	0.230375	1560.2	95686.4
176	2.000000	1.189971	7.36676e+06	-47439.1	955.82	-29766.4	0.000000	0.000000	7.205575	379.473	NaN	0.000000	0.001598	0.001745	28.1166	87.7324	0.001756	49968.4	4.232097	-7.111569	375.41	1.189645	0.092800	0.092474	379.473	49968.4	0.087105	0.240543	1577.57	93083.4
176	2.000000	1.192565	7.36676e+06	-47439.1	955.82	-29766.4	0.000000	0.000000	7.208922	397.806	NaN	0.000000	0.001593	0.001748	28.0832	90.6264	0.001763	51415.8	6.589000	170.093	396.9	1.192159	0.095394	0.094987	397.806	51415.8	0.089591	0.252787	1573.68	93431.2
176	2.000000	1.195053	7.36676e+06	-47439.1	955.82	-29766.4	0.000000	0.000000	7.212332	420.207	NaN	0.000000	0.001612	0.001737	28.0825	92.562	0.001781	51980.7	7.316268	-10.399	416.307	1.194588	0.097882	0.097416	420.207	51980.7	0.091819	0.264003	1591.68	92429.7
176	2.000000	1.197432	7.36676e+06	-47439.1	955.819	-29766.4	0.000000	0.000000	7.215577	441.301	NaN	0.000000	0.001588	0.001726	28.1219	95.0056	0.001699	55914.2	7.942184	168.338	435.129	1.197063	0.100261	0.099892	441.301	55914.2	0.094341	0.276969	1593.32	97068.8
176	2.000000	1.199957	7.36676e+06	-47439.1	955.82	-29766.4	0.000000	0.000000	7.218740	456.808	NaN	0.000000	0.001611	0.001738	28.1157	96.6573	0.001793	53900.7	1.891949	-5.551854	449.165	1.199632	0.102786	0.102461	456.808	53900.7	0.096430	0.287928	1586.54	91775.3
176	2.000000	1.202621	7.36676e+06	-47439.1	955.821	-29766.4	0.000000	0.000000	7.221922	469.415	NaN	0.000000	0.001612	0.001726	28.0815	101.214	0.001876	53945.8	5.475074	171.058	476.905	1.202302	0.105450	0.105131	469.415	53945.8	0.098923	0.301270	1558.12	89795
176	2.000000	1.205091	7.36676e+06	-47439.1	955.821	-29766.4	0.000000	0.000000	7.225450	495.12	NaN	0.000000	0.001573	0.001735	28.0837	102.869	0.001798	57212.7	6.829714	-10.6058	494.901	1.204654	0.107920	0.107483	495.12	57212.7	0.101430	0.314967	1571.97	93139.3
176	2.000000	1.207484	7.36676e+06	-47439.1	955.82	-29766.4	0.000000	0.000000	7.228779	517.901	NaN	0.000000	0.001621	0.001718	28.1227	103.644	0.001778	58296	3.697335	172.132	514.148	1.207114	0.110313	0.109942	517.901	58296	0.103650	0.327337	1582.16	93092.4