File: remote_trans/data/nanoindenter/0828-1/data/Data_2025-08-06,11h17m57s/2025-07-22_16-23-58_1_265.txt
2025-07-22, 16:23:58, 1
Index	Phase	Displacement	Time	Pos X	Pos Y	Pos Z	Rot A	Rot B	Piezo Z	Force A	Force B	Gripper	Voltage A	Voltage B	Temperature	Amplitude force	Amplitude pos	Stiffness	Phase shift	Phase excitation	Force A raw	Displacement raw	HMax	HMax raw	Real Force	Real Stiffness	Contact Depth	Area	Hardness	Reduced Mod.
[#]	[#]	[um]	[s]	[um]	[um]	[um]	[m°]	[m°]	[um]	[uN]	[uN]	[V]	[V]	[V]	[°C]	[uN]	[um]	[N/m]	[°]	[°]	[uN]	[um]	[um]	[um]	[uN]	[N/m]	[um]	[um^2]	[MPa]	[MPa]
265	1.000000	0.002798	7.36764e+06	-51889.1	955.819	-29750.9	0.000000	0.000000	6.002857	0.024620	NaN	0.000000	0.001565	0.001624	28.0807	0.049040	0.000898	54.6342	111.375	-166.607	0.141686	0.001528	-1.196091	-1.197361	0.024620	54.6342	-1.196429	-9.838537E+15	-2.502387E-18	NaN
265	1.000000	0.012798	7.36764e+06	-51889.1	955.819	-29750.9	0.000000	0.000000	6.012857	0.000574	NaN	0.000000	0.001579	0.001664	28.081	0.039209	0.001175	33.3777	76.8416	12.6005	-0.009976	0.011348	-1.186090	-1.187541	0.000574	33.3777	-1.186103	-7.155365E+15	-8.020862E-20	NaN
265	1.000000	0.022700	7.36764e+06	-51889.1	955.819	-29750.9	0.000000	0.000000	6.022759	0.022490	NaN	0.000000	0.001591	0.001660	28.0811	0.038081	0.001845	20.6404	-143.103	-163.826	0.020379	0.021426	-1.176189	-1.177463	0.022490	20.6404	-1.177006	-5.404539E+15	-4.161238E-18	NaN
265	1.000000	0.032686	7.36764e+06	-51889.1	955.819	-29750.9	0.000000	0.000000	6.032745	0.022451	NaN	0.000000	0.001592	0.001659	28.0809	0.022461	0.002035	11.0371	-33.5184	17.3766	0.030897	0.031303	-1.166203	-1.167586	0.022451	11.0371	-1.167729	-4.059287E+15	-5.530878E-18	NaN
265	1.000000	0.042672	7.36764e+06	-51889.1	955.818	-29750.9	0.000000	0.000000	6.042732	0.042712	NaN	0.000000	0.001580	0.001666	28.0808	0.026587	0.002052	12.9564	161.892	-165.143	0.079162	0.041407	-1.156217	-1.157482	0.042712	12.9564	-1.158690	-3.071187E+15	-1.390742E-17	NaN
265	1.000000	0.052685	7.36764e+06	-51889.1	955.819	-29750.9	0.000000	0.000000	6.052745	0.040888	NaN	0.000000	0.001607	0.001673	28.0811	0.076359	0.002143	35.6305	-142.345	13.0976	0.098034	0.051321	-1.146204	-1.147568	0.040888	35.6305	-1.147065	-2.145187E+15	-1.906011E-17	NaN
265	1.000000	0.062718	7.36764e+06	-51889.1	955.818	-29750.9	0.000000	0.000000	6.062778	0.044429	NaN	0.000000	0.001597	0.001696	28.0808	0.107462	0.001862	57.7213	178.703	-164.781	-0.018002	0.061413	-1.136171	-1.137476	0.044429	57.7213	-1.136749	-1.560042E+15	-2.847915E-17	NaN
265	1.000000	0.072704	7.36764e+06	-51889.1	955.819	-29750.9	0.000000	0.000000	6.072763	0.021778	NaN	0.000000	0.001601	0.001677	28.0811	0.064739	0.001964	32.9547	-11.2926	12.6264	-0.058783	0.071320	-1.126185	-1.127569	0.021778	32.9547	-1.126680	-1.143123E+15	-1.905101E-17	NaN
265	1.000000	0.082691	7.36764e+06	-51889.1	955.818	-29750.9	0.000000	0.000000	6.082751	0.035314	NaN	0.000000	0.001601	0.001682	28.0805	0.022574	0.001967	11.474	-17.2778	-161.289	0.131099	0.081406	-1.116198	-1.117483	0.035314	11.474	-1.118506	-8.880365E+14	-3.976590E-17	NaN
265	1.000000	0.092706	7.36764e+06	-51889.1	955.819	-29750.9	0.000000	0.000000	6.092764	0.013333	NaN	0.000000	0.001594	0.001647	28.0812	0.052130	0.001918	27.1745	48.4226	13.9371	-0.003557	0.091317	-1.106183	-1.107571	0.013333	27.1745	-1.106551	-6.137643E+14	-2.172328E-17	NaN
265	1.000000	0.102717	7.36765e+06	-51889.1	955.818	-29750.9	0.000000	0.000000	6.102778	0.073452	NaN	0.000000	0.001603	0.001626	28.0808	0.137285	0.002004	68.5193	39.3789	-164.849	0.036340	0.101408	-1.096172	-1.097480	0.073452	68.5193	-1.096976	-4.565309E+14	-1.608925E-16	NaN
265	1.000000	0.112728	7.36765e+06	-51889.1	955.818	-29750.9	0.000000	0.000000	6.112787	0.015530	NaN	0.000000	0.001588	0.001654	28.0812	0.027777	0.001931	14.3844	-75.8	18.8079	-0.018694	0.111343	-1.086161	-1.087546	0.015530	14.3844	-1.086971	-3.350696E+14	-4.634852E-17	NaN
265	1.000000	0.122712	7.36765e+06	-51889.1	955.819	-29750.9	0.000000	0.000000	6.122773	0.068489	NaN	0.000000	0.001585	0.001657	28.0806	0.080310	0.001980	40.5597	-75.649	-162.768	0.048111	0.121425	-1.076177	-1.077464	0.068489	40.5597	-1.077443	-2.495619E+14	-2.744380E-16	NaN
265	1.000000	0.132741	7.36765e+06	-51889.1	955.819	-29750.9	0.000000	0.000000	6.132800	0.009338	NaN	0.000000	0.001606	0.001655	28.0823	0.058833	0.002006	29.3324	86.1201	13.5615	0.050356	0.131373	-1.066147	-1.067516	0.009338	29.3324	-1.066386	-1.772702E+14	-5.267778E-17	NaN
265	1.000000	0.142726	7.36765e+06	-51889.1	955.818	-29750.9	0.000000	0.000000	6.142783	-0.027343	NaN	0.000000	0.001603	0.001624	28.0817	0.061671	0.001970	31.3103	-62.7752	-167.674	-0.013543	0.141466	-1.056163	-1.057422	-0.027343	31.3103	-1.055508	-1.266033E+14	2.159766E-16	NaN
265	1.000000	0.152728	7.36765e+06	-51889.1	955.818	-29750.9	0.000000	0.000000	6.152787	0.030997	NaN	0.000000	0.001599	0.001674	28.0818	0.081625	0.002033	40.1559	-130.88	14.2157	0.063189	0.151390	-1.046161	-1.047499	0.030997	40.1559	-1.046740	-9.651333E+13	-3.211633E-16	NaN
265	1.000000	0.162725	7.36765e+06	-51889.1	955.818	-29750.9	0.000000	0.000000	6.162782	-0.023499	NaN	0.000000	0.001591	0.001639	28.082	0.143891	0.002073	69.4151	-80.4277	-163.324	-0.039457	0.161409	-1.036164	-1.037480	-0.023499	69.4151	-1.035910	-6.901850E+13	3.404754E-16	NaN
265	1.000000	0.172737	7.36765e+06	-51889.1	955.819	-29750.9	0.000000	0.000000	6.172793	-0.046312	NaN	0.000000	0.001575	0.001692	28.0822	0.144027	0.002136	67.4314	30.2343	15.3614	-0.101087	0.171342	-1.026152	-1.027547	-0.046312	67.4314	-1.025637	-5.021008E+13	9.223550E-16	NaN
265	1.000000	0.182737	7.36765e+06	-51889.1	955.819	-29750.9	0.000000	0.000000	6.182794	-0.047363	NaN	0.000000	0.001591	0.001664	28.0816	0.044110	0.002020	21.8366	2.246392	-164.724	0.001043	0.181454	-1.016152	-1.017435	-0.047363	21.8366	-1.014525	-3.558598E+13	1.330952E-15	NaN
265	1.000000	0.192750	7.36765e+06	-51889.1	955.819	-29750.9	0.000000	0.000000	6.192808	0.005245	NaN	0.000000	0.001642	0.001636	28.0819	0.132032	0.001995	66.18	82.4819	16.361	0.062070	0.191400	-1.006139	-1.007489	0.005245	66.18	-1.006199	-2.749264E+13	-1.907673E-16	NaN
265	1.000000	0.202731	7.36765e+06	-51889.1	955.819	-29750.9	0.000000	0.000000	6.202789	-0.015439	NaN	0.000000	0.001648	0.001663	28.0816	0.073819	0.001789	41.2595	32.6282	-165.554	0.075310	0.201468	-0.996157	-0.997421	-0.015439	41.2595	-0.995877	-1.996423E+13	7.733083E-16	NaN
265	1.000000	0.212766	7.36765e+06	-51889.1	955.818	-29750.9	0.000000	0.000000	6.212825	0.033420	NaN	0.000000	0.001614	0.001651	28.0816	0.035783	0.001996	17.9246	0.683643	16.6085	0.109223	0.211426	-0.986123	-0.987463	0.033420	17.9246	-0.987522	-1.540754E+13	-2.169077E-15	NaN
265	1.000000	0.222755	7.36765e+06	-51889.1	955.818	-29750.9	0.000000	0.000000	6.222816	0.074729	NaN	0.000000	0.001621	0.001707	28.0814	0.022244	0.001980	11.2325	-25.911	-163.797	0.019974	0.221447	-0.976134	-0.977442	0.074729	11.2325	-0.981123	-1.263414E+13	-5.914809E-15	NaN
265	1.000000	0.232757	7.36765e+06	-51889.1	955.819	-29750.9	0.000000	0.000000	6.232816	0.021093	NaN	0.000000	0.001607	0.001671	28.0817	0.042599	0.002068	20.6012	103.885	17.4789	0.010320	0.231388	-0.966132	-0.967501	0.021093	20.6012	-0.966900	-8.125993E+12	-2.595776E-15	NaN
265	1.000000	0.242779	7.36765e+06	-51889.1	955.819	-29750.9	0.000000	0.000000	6.242838	0.015883	NaN	0.000000	0.001610	0.001651	28.0816	0.122953	0.001910	64.3724	-102.863	-164.087	0.062207	0.241452	-0.956110	-0.957437	0.015883	64.3724	-0.956295	-5.846717E+12	-2.716557E-15	NaN
265	1.000000	0.252779	7.36765e+06	-51889.1	955.817	-29750.9	0.000000	0.000000	6.252836	-0.019540	NaN	0.000000	0.001623	0.001662	28.0821	0.034199	0.001914	17.8666	-161.292	14.1385	-0.003244	0.251413	-0.946110	-0.947476	-0.019540	17.8666	-0.945290	-4.154298E+12	4.703495E-15	NaN
265	1.000000	0.262777	7.36765e+06	-51889.1	955.819	-29750.9	0.000000	0.000000	6.262835	-0.002748	NaN	0.000000	0.001632	0.001667	28.0817	0.017085	0.002048	8.344103	132.815	-163.81	-0.062124	0.261423	-0.936112	-0.937466	-0.002748	8.344103	-0.935865	-3.099917E+12	8.866209E-16	NaN
265	1.000000	0.272796	7.36765e+06	-51889.1	955.819	-29750.9	0.000000	0.000000	6.272856	0.030473	NaN	0.000000	0.001653	0.001664	28.0803	0.094900	0.002031	46.7358	26.465	16.0495	0.056492	0.271401	-0.926093	-0.927488	0.030473	46.7358	-0.926582	-2.323042E+12	-1.311777E-14	NaN
265	1.000000	0.282783	7.36765e+06	-51889.1	955.818	-29750.9	0.000000	0.000000	6.282842	0.022357	NaN	0.000000	0.001660	0.001680	28.0805	0.057256	0.001982	28.8814	93.6769	-164.05	0.011916	0.281472	-0.916106	-0.917417	0.022357	28.8814	-0.916687	-1.707913E+12	-1.309031E-14	NaN
265	1.000000	0.292792	7.36765e+06	-51889.1	955.819	-29750.9	0.000000	0.000000	6.292851	0.022007	NaN	0.000000	0.001663	0.001681	28.0802	0.057152	0.001942	29.4367	-166.535	17.9471	0.002446	0.291466	-0.906097	-0.907423	0.022007	29.4367	-0.906658	-1.250308E+12	-1.760158E-14	NaN
265	1.000000	0.302809	7.36765e+06	-51889.1	955.819	-29750.9	0.000000	0.000000	6.302868	0.015488	NaN	0.000000	0.001685	0.001671	28.0804	0.138693	0.001945	71.3197	16.6668	-163.453	0.003620	0.301511	-0.896080	-0.897378	0.015488	71.3197	-0.896243	-9.042579E+11	-1.712817E-14	NaN
265	1.000000	0.312785	7.36765e+06	-51889.1	955.818	-29750.9	0.000000	0.000000	6.312844	0.025123	NaN	0.000000	0.001659	0.001718	28.0804	0.060516	0.002146	28.2057	144.579	15.7326	0.033401	0.311409	-0.886104	-0.887480	0.025123	28.2057	-0.886772	-6.734022E+11	-3.730814E-14	NaN
265	1.000000	0.322826	7.36765e+06	-51889.1	955.819	-29750.9	0.000000	0.000000	6.322884	-0.011118	NaN	0.000000	0.001699	0.001699	28.0809	0.120087	0.002007	59.8375	52.494	-159.035	-0.021177	0.321542	-0.876063	-0.877347	-0.011118	59.8375	-0.875923	-4.803669E+11	2.314402E-14	NaN
265	1.000000	0.332789	7.36765e+06	-51889.1	955.818	-29750.9	0.000000	0.000000	6.332847	0.016398	NaN	0.000000	0.001689	0.001672	28.0804	0.109413	0.002066	52.9703	-19.1299	15.7738	0.084699	0.331427	-0.866100	-0.867462	0.016398	52.9703	-0.866333	-3.563047E+11	-4.602339E-14	NaN
265	1.000000	0.342810	7.36765e+06	-51889.1	955.818	-29750.9	0.000000	0.000000	6.342868	-0.009380	NaN	0.000000	0.001707	0.001676	28.0807	0.025038	0.002089	11.9851	-32.9906	-163.902	-0.062480	0.341521	-0.856079	-0.857368	-0.009380	11.9851	-0.855492	-2.541534E+11	3.690665E-14	NaN
265	1.000000	0.352812	7.36765e+06	-51889.1	955.818	-29750.9	0.000000	0.000000	6.352869	-0.025983	NaN	0.000000	0.001618	0.001658	28.0803	0.025426	0.002024	12.5636	-112.2	14.1333	-0.058277	0.351445	-0.846077	-0.847444	-0.025983	12.5636	-0.844526	-1.805526E+11	1.439070E-13	NaN
265	1.000000	0.362798	7.36765e+06	-51889.1	955.819	-29750.9	0.000000	0.000000	6.362856	0.004776	NaN	0.000000	0.001662	0.001695	28.0805	0.185343	0.001924	96.342	-168.3	-165.378	0.105073	0.361510	-0.836091	-0.837379	0.004776	96.342	-0.836128	-1.389421E+11	-3.437509E-14	NaN
265	1.000000	0.372825	7.36765e+06	-51889.1	955.819	-29750.9	0.000000	0.000000	6.372883	0.013256	NaN	0.000000	0.001643	0.001695	28.0803	0.014575	0.002019	7.219666	-126.586	16.4652	0.051978	0.371471	-0.826064	-0.827418	0.013256	7.219666	-0.827441	-1.059508E+11	-1.251151E-13	NaN
265	1.000000	0.382830	7.36765e+06	-51889.1	955.819	-29750.9	0.000000	0.000000	6.382889	0.040966	NaN	0.000000	0.001610	0.001677	28.0803	0.053001	0.001966	26.9523	-89.4342	-165.97	0.036675	0.381549	-0.816059	-0.817340	0.040966	26.9523	-0.817199	-7.695382E+10	-5.323417E-13	NaN
265	1.000000	0.392853	7.36765e+06	-51889.1	955.819	-29750.9	0.000000	0.000000	6.392913	0.028932	NaN	0.000000	0.001657	0.001685	28.0804	0.063483	0.002100	30.2346	-110.247	18.1487	0.079260	0.391548	-0.806036	-0.807341	0.028932	30.2346	-0.806753	-5.552870E+10	-5.210243E-13	NaN
265	1.000000	0.402828	7.36765e+06	-51889.1	955.818	-29750.9	0.000000	0.000000	6.402885	-0.013433	NaN	0.000000	0.001613	0.001656	28.0804	0.157396	0.001948	80.8093	137.926	-167.439	-0.048962	0.401510	-0.796061	-0.797379	-0.013433	80.8093	-0.795936	-3.960014E+10	3.392180E-13	NaN
265	1.000000	0.412867	7.36765e+06	-51889.1	955.82	-29750.9	0.000000	0.000000	6.412922	-0.072572	NaN	0.000000	0.001587	0.001675	28.0815	0.110512	0.001876	58.9073	136.006	15.4405	-0.052183	0.411487	-0.786022	-0.787402	-0.072572	58.9073	-0.785098	-2.821644E+10	2.571963E-12	NaN
265	1.000000	0.422832	7.36765e+06	-51889.1	955.819	-29750.9	0.000000	0.000000	6.422888	-0.054507	NaN	0.000000	0.001596	0.001665	28.0816	0.071104	0.001787	39.8005	21.2471	-165.057	-0.054459	0.421521	-0.776057	-0.777368	-0.054507	39.8005	-0.775030	-2.059121E+10	2.647109E-12	NaN
265	1.000000	0.432859	7.36765e+06	-51889.1	955.818	-29750.9	0.000000	0.000000	6.432918	0.026333	NaN	0.000000	0.001606	0.001684	28.0818	0.101323	0.002100	48.2471	84.5413	13.468	0.048803	0.431448	-0.766030	-0.767441	0.026333	48.2471	-0.766440	-1.573595E+10	-1.673425E-12	NaN
265	1.000000	0.442858	7.36765e+06	-51889.1	955.819	-29750.9	0.000000	0.000000	6.442919	0.081037	NaN	0.000000	0.001609	0.001696	28.0818	0.074472	0.001976	37.6887	155.345	-169.185	0.083989	0.441563	-0.756031	-0.757326	0.081037	37.6887	-0.757644	-1.194673E+10	-6.783203E-12	NaN
265	1.000000	0.452879	7.36765e+06	-51889.1	955.818	-29750.9	0.000000	0.000000	6.452937	-0.005782	NaN	0.000000	0.001616	0.001670	28.0816	0.082429	0.001993	41.3489	21.122	15.0244	0.036464	0.451506	-0.746010	-0.747383	-0.005782	41.3489	-0.745905	-8.269374E+9	6.991771E-13	NaN
265	1.000000	0.462871	7.36765e+06	-51889.1	955.818	-29750.9	0.000000	0.000000	6.462930	0.006517	NaN	0.000000	0.001593	0.001676	28.0818	0.164524	0.002031	81.0176	-166.154	-162.972	0.006452	0.461532	-0.736018	-0.737357	0.006517	81.0176	-0.736078	-6.076139E+9	-1.072638E-12	NaN
265	1.000000	0.472882	7.36765e+06	-51889.1	955.819	-29750.9	0.000000	0.000000	6.472941	0.011783	NaN	0.000000	0.001611	0.001675	28.082	0.063091	0.001916	32.9241	46.8753	14.2742	0.050790	0.471536	-0.726007	-0.727353	0.011783	32.9241	-0.726275	-4.467245E+9	-2.637693E-12	NaN
265	1.000000	0.482854	7.36765e+06	-51889.1	955.819	-29750.9	0.000000	0.000000	6.482913	0.018381	NaN	0.000000	0.001634	0.001686	28.0819	0.057707	0.001992	28.9758	30.4219	-164.003	-0.012489	0.481550	-0.716035	-0.717339	0.018381	28.9758	-0.716511	-3.287605E+9	-5.591053E-12	NaN
265	1.000000	0.492902	7.36765e+06	-51889.1	955.82	-29750.9	0.000000	0.000000	6.492960	0.000232	NaN	0.000000	0.001593	0.001673	28.0818	0.056290	0.002136	26.359	99.8772	14.4565	-0.079204	0.491542	-0.705987	-0.707347	0.000232	26.359	-0.705993	-2.362443E+9	-9.819754E-14	NaN
265	1.000000	0.502885	7.36765e+06	-51889.1	955.818	-29750.9	0.000000	0.000000	6.502944	0.019571	NaN	0.000000	0.001615	0.001700	28.0819	0.098250	0.002013	48.8072	2.155185	-164.291	0.079568	0.501601	-0.696004	-0.697288	0.019571	48.8072	-0.696305	-1.742057E+9	-1.123461E-11	NaN
265	1.000000	0.512886	7.36765e+06	-51889.1	955.819	-29750.9	0.000000	0.000000	6.512943	-0.008528	NaN	0.000000	0.001590	0.001657	28.0819	0.140094	0.002056	68.1404	117.455	14.7294	-0.049831	0.511559	-0.686003	-0.687329	-0.008528	68.1404	-0.685909	-1.256052E+9	6.789683E-12	NaN
265	1.000000	0.522890	7.36765e+06	-51889.1	955.819	-29750.9	0.000000	0.000000	6.522948	0.002682	NaN	0.000000	0.001597	0.001684	28.0816	0.102186	0.002000	51.0947	177.15	-164.704	0.076345	0.521613	-0.675999	-0.677276	0.002682	51.0947	-0.676038	-9.204878E+8	-2.913285E-12	NaN
265	1.000000	0.532876	7.36765e+06	-51889.1	955.818	-29750.9	0.000000	0.000000	6.532937	0.068388	NaN	0.000000	0.001629	0.001674	28.0819	0.123963	0.001964	63.1022	-60.7318	17.2499	0.019784	0.531590	-0.666013	-0.667299	0.068388	63.1022	-0.666825	-6.885477E+8	-9.932238E-11	NaN
265	1.000000	0.542922	7.36765e+06	-51889.1	955.818	-29750.9	0.000000	0.000000	6.542983	0.058014	NaN	0.000000	0.001627	0.001689	28.0809	0.093480	0.002001	46.7213	-103.292	-164.665	0.022290	0.541575	-0.655967	-0.657314	0.058014	46.7213	-0.656898	-5.034683E+8	-1.152288E-10	NaN
265	1.000000	0.552895	7.36765e+06	-51889.1	955.819	-29750.9	0.000000	0.000000	6.552952	-0.034082	NaN	0.000000	0.001605	0.001668	28.081	0.127735	0.002032	62.8657	-125.678	16.8698	-0.021344	0.551527	-0.645994	-0.647362	-0.034082	62.8657	-0.645587	-3.523117E+8	9.673829E-11	NaN
265	1.000000	0.562902	7.36765e+06	-51889.1	955.818	-29750.9	0.000000	0.000000	6.562962	0.042222	NaN	0.000000	0.001608	0.001629	28.0807	0.046217	0.002065	22.3799	-109.273	-163.408	0.012709	0.561555	-0.635987	-0.637334	0.042222	22.3799	-0.637402	-2.720409E+8	-1.552056E-10	NaN
265	1.000000	0.572934	7.36765e+06	-51889.1	955.818	-29750.9	0.000000	0.000000	6.572994	0.042854	NaN	0.000000	0.001623	0.001681	28.0806	0.108568	0.001936	56.0782	121.578	15.5637	0.047118	0.571552	-0.625955	-0.627337	0.042854	56.0782	-0.626528	-1.929035E+8	-2.221523E-10	NaN
265	1.000000	0.582941	7.36765e+06	-51889.1	955.819	-29750.9	0.000000	0.000000	6.583000	0.022733	NaN	0.000000	0.001616	0.001689	28.0808	0.030774	0.001976	15.5736	143.066	-164.448	0.026517	0.581669	-0.615948	-0.617220	0.022733	15.5736	-0.617043	-1.428846E+8	-1.591028E-10	NaN
265	1.000000	0.592934	7.36765e+06	-51889.1	955.819	-29750.9	0.000000	0.000000	6.592994	0.048183	NaN	0.000000	0.001611	0.001679	28.0806	0.097572	0.001964	49.6837	-45.5166	11.0799	0.052594	0.591562	-0.605955	-0.607326	0.048183	49.6837	-0.606683	-1.029112E+8	-4.681981E-10	NaN
265	1.000000	0.602935	7.36765e+06	-51889.1	955.818	-29750.9	0.000000	0.000000	6.602999	0.134998	NaN	0.000000	0.001587	0.001684	28.0804	0.090668	0.001993	45.4878	-29.8077	-166.498	0.087504	0.601625	-0.595954	-0.597264	0.134998	45.4878	-0.598180	-7.859410E+7	-1.717667E-9	NaN
265	1.000000	0.612904	7.36765e+06	-51889.1	955.819	-29750.9	0.000000	0.000000	6.612960	-0.033057	NaN	0.000000	0.001632	0.001655	28.0804	0.083476	0.001918	43.5248	-110.616	13.6932	-0.017491	0.611581	-0.585985	-0.587308	-0.033057	43.5248	-0.585416	-5.241419E+7	6.306813E-10	NaN
265	1.000000	0.622932	7.36765e+06	-51889.1	955.818	-29750.9	0.000000	0.000000	6.622994	0.083415	NaN	0.000000	0.001620	0.001684	28.0808	0.081836	0.002055	39.8306	-87.1133	-165.852	-0.026169	0.621581	-0.575957	-0.577308	0.083415	39.8306	-0.577527	-4.079382E+7	-2.044803E-9	NaN
265	1.000000	0.632963	7.36765e+06	-51889.1	955.82	-29750.9	0.000000	0.000000	6.633022	0.005855	NaN	0.000000	0.001589	0.001689	28.0806	0.016797	0.001980	8.485166	58.4392	14.1973	0.082737	0.631625	-0.565926	-0.567264	0.005855	8.485166	-0.566443	-2.867317E+7	-2.041882E-10	NaN
265	1.000000	0.642975	7.36765e+06	-51889.1	955.819	-29750.9	0.000000	0.000000	6.643033	-0.018824	NaN	0.000000	0.001596	0.001660	28.0808	0.060582	0.002020	29.9957	171.568	-167.148	-0.034213	0.641675	-0.555914	-0.557214	-0.018824	29.9957	-0.555443	-2.019856E+7	9.319429E-10	NaN
265	1.000000	0.652914	7.36765e+06	-51889.1	955.818	-29750.9	0.000000	0.000000	6.652976	0.091367	NaN	0.000000	0.001712	0.001676	28.0805	0.061878	0.001897	32.6232	-65.8531	14.5578	0.057294	0.651540	-0.545975	-0.547349	0.091367	32.6232	-0.548075	-1.596957E+7	-5.721323E-9	NaN
265	1.000000	0.662919	7.36765e+06	-51889.1	955.818	-29750.9	0.000000	0.000000	6.662980	0.076008	NaN	0.000000	0.001723	0.001670	28.0812	0.058504	0.002040	28.6767	26.354	-163.467	0.090817	0.661669	-0.535970	-0.537220	0.076008	28.6767	-0.537958	-1.156201E+7	-6.573937E-9	NaN
265	1.000000	0.672974	7.36765e+06	-51889.1	955.82	-29750.9	0.000000	0.000000	6.673029	-0.066410	NaN	0.000000	0.001681	0.001647	28.0806	0.040445	0.002102	19.2413	167.818	14.2811	-0.075103	0.671638	-0.525915	-0.527251	-0.066410	19.2413	-0.523326	-7.24186e+06	9.170279E-9	NaN
265	1.000000	0.682930	7.36765e+06	-51889.1	955.818	-29750.9	0.000000	0.000000	6.682987	-0.038718	NaN	0.000000	0.001665	0.001658	28.082	0.065960	0.002024	32.5878	-58.7923	-162.179	0.046470	0.681695	-0.515959	-0.517194	-0.038718	32.5878	-0.515068	-5.55872e+06	6.965349E-9	NaN
265	1.000000	0.692955	7.36765e+06	-51889.1	955.819	-29750.9	0.000000	0.000000	6.693014	0.013578	NaN	0.000000	0.001703	0.001637	28.0818	0.028286	0.001922	14.7186	9.113536	12.1833	0.085510	0.691595	-0.505934	-0.507294	0.013578	14.7186	-0.506626	-4.24039e+06	-3.201993E-9	NaN
265	1.000000	0.702981	7.36765e+06	-51889.1	955.819	-29750.9	0.000000	0.000000	6.703041	0.049483	NaN	0.000000	0.001701	0.001679	28.0821	0.101542	0.001981	51.245	-142.299	-162.044	0.050749	0.701677	-0.495908	-0.497212	0.049483	51.245	-0.496632	-3.07626e+06	-1.608550E-8	NaN
265	1.000000	0.712967	7.36765e+06	-51889.1	955.82	-29750.9	0.000000	0.000000	6.713025	0.000392	NaN	0.000000	0.001707	0.001695	28.082	0.042523	0.002148	19.7996	-167.989	16.0363	-0.052748	0.711616	-0.485922	-0.487273	0.000392	19.7996	-0.485937	-2.18067e+06	-1.798008E-10	NaN
265	1.000000	0.722957	7.36765e+06	-51889.1	955.818	-29750.9	0.000000	0.000000	6.723017	0.055143	NaN	0.000000	0.001714	0.001713	28.082	0.146386	0.001971	74.284	171.975	-164.906	0.080825	0.721707	-0.475932	-0.477182	0.055143	74.284	-0.476489	-1.60826e+06	-3.428705E-8	NaN
265	1.000000	0.732990	7.36765e+06	-51889.1	955.819	-29750.9	0.000000	0.000000	6.733046	-0.034945	NaN	0.000000	0.001740	0.001708	28.0821	0.096911	0.002030	47.7338	61.5429	14.8232	-0.032126	0.731636	-0.465899	-0.467253	-0.034945	47.7338	-0.465350	-1.12245e+06	3.113281E-8	NaN
265	1.000000	0.742989	7.36765e+06	-51889.1	955.818	-29750.9	0.000000	0.000000	6.743048	0.017006	NaN	0.000000	0.001682	0.001688	28.0822	0.013675	0.002122	6.442982	153.248	-167.019	-0.069232	0.741696	-0.455900	-0.457193	0.017006	6.442982	-0.457880	-881488	-1.929233E-8	NaN
265	1.000000	0.752992	7.36765e+06	-51889.1	955.818	-29750.9	0.000000	0.000000	6.753052	0.060055	NaN	0.000000	0.001667	0.001713	28.0819	0.057798	0.001939	29.8142	94.4725	18.2317	-0.055844	0.751643	-0.445897	-0.447245	0.060055	29.8142	-0.447408	-627816	-9.565631E-8	NaN
265	1.000000	0.762969	7.36765e+06	-51889.1	955.819	-29750.9	0.000000	0.000000	6.763029	0.026387	NaN	0.000000	0.001711	0.001686	28.0821	0.091811	0.002022	45.3979	56.9734	-163.995	-0.107583	0.761755	-0.435920	-0.437134	0.026387	45.3979	-0.436356	-438435	-6.018546E-8	NaN
265	1.000000	0.772977	7.36765e+06	-51889.1	955.818	-29750.9	0.000000	0.000000	6.773036	0.000995	NaN	0.000000	0.001660	0.001687	28.0821	0.064973	0.002100	30.9421	134.038	15.8374	-0.065030	0.771593	-0.425911	-0.427296	0.000995	30.9421	-0.425936	-312272	-3.186468E-9	NaN
265	1.000000	0.783033	7.36765e+06	-51889.1	955.819	-29750.9	0.000000	0.000000	6.783092	0.027279	NaN	0.000000	0.001676	0.001653	28.082	0.028179	0.002118	13.3061	159.141	-163.923	0.086409	0.781706	-0.415856	-0.417183	0.027279	13.3061	-0.417394	-236288	-1.154476E-7	NaN
265	1.000000	0.793032	7.36765e+06	-51889.1	955.819	-29750.9	0.000000	0.000000	6.793090	0.013975	NaN	0.000000	0.001737	0.001669	28.0818	0.069745	0.002034	34.2957	106.348	13.5047	0.094522	0.791667	-0.405857	-0.407222	0.013975	34.2957	-0.406163	-163609	-8.541909E-8	NaN
265	1.000000	0.803027	7.36765e+06	-51889.1	955.818	-29750.9	0.000000	0.000000	6.803084	-0.016791	NaN	0.000000	0.001699	0.001688	28.0818	0.168831	0.001975	85.4645	-148.206	-162.378	-0.057164	0.801705	-0.395862	-0.397184	-0.016791	85.4645	-0.395715	-116103	1.446239E-7	NaN
265	1.000000	0.813009	7.36765e+06	-51889.1	955.818	-29750.9	0.000000	0.000000	6.813070	0.080770	NaN	0.000000	0.001697	0.001696	28.0812	0.071297	0.002046	34.8549	5.432651	13.9024	-0.016354	0.811651	-0.385880	-0.387238	0.080770	34.8549	-0.387618	-88937.2	-9.081719E-7	NaN
265	1.000000	0.823010	7.36765e+06	-51889.1	955.818	-29750.9	0.000000	0.000000	6.823066	-0.054293	NaN	0.000000	0.001688	0.001656	28.0804	0.101420	0.001877	54.0231	73.3212	-165.036	-0.067488	0.821768	-0.375879	-0.377121	-0.054293	54.0231	-0.375125	-58866.5	9.223057E-7	NaN
265	1.000000	0.832999	7.36765e+06	-51889.1	955.818	-29750.9	0.000000	0.000000	6.833056	-0.008197	NaN	0.000000	0.001656	0.001680	28.0806	0.092404	0.002028	45.5679	18.675	13.6682	-0.005930	0.831676	-0.365890	-0.367213	-0.008197	45.5679	-0.365755	-43147.2	1.899876E-7	NaN
265	1.000000	0.842995	7.36765e+06	-51889.1	955.818	-29750.9	0.000000	0.000000	6.843054	0.014328	NaN	0.000000	0.001699	0.001663	28.0806	0.095773	0.002012	47.6045	-168	-164.169	0.064917	0.841747	-0.355894	-0.357142	0.014328	47.6045	-0.356120	-31311.8	-4.575777E-7	NaN
265	1.000000	0.853030	7.36765e+06	-51889.1	955.819	-29750.9	0.000000	0.000000	6.853087	-0.027270	NaN	0.000000	0.001666	0.001683	28.0809	0.117744	0.002055	57.2874	-4.964566	16.5878	-0.011794	0.851642	-0.345859	-0.347247	-0.027270	57.2874	-0.345502	-21961.6	1.241711E-6	NaN
265	1.000000	0.863024	7.36765e+06	-51889.1	955.818	-29750.9	0.000000	0.000000	6.863084	0.041166	NaN	0.000000	0.001675	0.001647	28.0806	0.113893	0.002039	55.8486	55.882	-163.289	0.048881	0.861744	-0.335865	-0.337145	0.041166	55.8486	-0.336418	-16191.7	-2.542438E-6	NaN
265	1.000000	0.873034	7.36765e+06	-51889.1	955.818	-29750.9	0.000000	0.000000	6.873094	0.035007	NaN	0.000000	0.001653	0.001667	28.0807	0.055963	0.001898	29.4892	82.7852	14.532	0.162422	0.871648	-0.325855	-0.327241	0.035007	29.4892	-0.326745	-11688.1	-2.995074E-6	NaN
265	1.000000	0.883037	7.36765e+06	-51889.1	955.817	-29750.9	0.000000	0.000000	6.883096	0.022552	NaN	0.000000	0.001663	0.001651	28.0808	0.089698	0.002000	44.8469	113.786	-161.909	0.005178	0.881741	-0.315852	-0.317148	0.022552	44.8469	-0.316229	-8186.17	-2.754906E-6	NaN
265	1.000000	0.893057	7.36765e+06	-51889.1	955.819	-29750.9	0.000000	0.000000	6.893114	-0.030795	NaN	0.000000	0.001670	0.001647	28.0808	0.022855	0.001943	11.7658	-178.829	14.9573	0.079613	0.891692	-0.305832	-0.307197	-0.030795	11.7658	-0.303869	-5372.31	5.732129E-6	NaN
265	1.000000	0.903035	7.36765e+06	-51889.1	955.818	-29750.9	0.000000	0.000000	6.903095	0.024700	NaN	0.000000	0.001642	0.001661	28.0807	0.009715	0.002087	4.654284	176.155	-165.564	0.057755	0.901736	-0.295853	-0.297153	0.024700	4.654284	-0.299834	-4679.08	-5.278917E-6	NaN
265	1.000000	0.913047	7.36765e+06	-51889.1	955.819	-29750.9	0.000000	0.000000	6.913107	0.051225	NaN	0.000000	0.001617	0.001640	28.0808	0.093422	0.001967	47.5059	-121.914	16.4807	0.071250	0.911672	-0.285842	-0.287216	0.051225	47.5059	-0.286651	-2972.11	-1.723504E-5	NaN
265	1.000000	0.923058	7.36765e+06	-51889.1	955.819	-29750.9	0.000000	0.000000	6.923118	0.033257	NaN	0.000000	0.001627	0.001685	28.0807	0.061506	0.002007	30.6419	-34.6301	-163.236	0.059224	0.921695	-0.275830	-0.277194	0.033257	30.6419	-0.276644	-2100.32	-1.583443E-5	NaN
265	1.000000	0.933053	7.36765e+06	-51889.1	955.818	-29750.9	0.000000	0.000000	6.933113	0.047609	NaN	0.000000	0.001614	0.001639	28.0806	0.062760	0.002021	31.0606	-73.3533	15.5116	0.043213	0.931715	-0.265836	-0.267174	0.047609	31.0606	-0.266986	-1498.54	-3.177005E-5	NaN
265	1.000000	0.943085	7.36765e+06	-51889.1	955.818	-29750.9	0.000000	0.000000	6.943145	0.039840	NaN	0.000000	0.001620	0.001664	28.0806	0.010620	0.002134	4.976090	-105.128	-165.206	-0.074138	0.941744	-0.255803	-0.257145	0.039840	4.976090	-0.261808	-1249.14	-3.189417E-5	NaN
265	1.000000	0.953088	7.36765e+06	-51889.1	955.818	-29750.9	0.000000	0.000000	6.953147	0.020128	NaN	0.000000	0.001614	0.001666	28.082	0.098684	0.001992	49.5513	6.458686	18.9024	6.035285E-5	0.951677	-0.245801	-0.247211	0.020128	49.5513	-0.246106	-715.529	-2.813079E-5	NaN
265	1.000000	0.963052	7.36765e+06	-51889.1	955.818	-29750.9	0.000000	0.000000	6.963110	0.005638	NaN	0.000000	0.001621	0.001663	28.0822	0.076623	0.002018	37.9641	48.9373	-162.818	0.046640	0.961733	-0.235837	-0.237156	0.005638	37.9641	-0.235948	-496.745	-1.135074E-5	NaN
265	1.000000	0.973080	7.36765e+06	-51889.1	955.818	-29750.9	0.000000	0.000000	6.973141	0.073281	NaN	0.000000	0.001626	0.001687	28.082	0.071185	0.002129	33.4353	-49.8955	16.9032	0.075388	0.971683	-0.225809	-0.227206	0.073281	33.4353	-0.227453	-364.953	-0.000201	NaN
265	1.000000	0.983087	7.36765e+06	-51889.1	955.819	-29750.9	0.000000	0.000000	6.983149	0.087474	NaN	0.000000	0.001578	0.001702	28.0818	0.030140	0.001994	15.1121	85.4467	-163.521	0.025616	0.981754	-0.215802	-0.217134	0.087474	15.1121	-0.220143	-279.229	-0.000313	NaN
265	1.000000	0.993093	7.36765e+06	-51889.1	955.819	-29750.9	0.000000	0.000000	6.993153	0.044832	NaN	0.000000	0.001627	0.001689	28.0821	0.047442	0.002006	23.6446	-161.132	14.8994	0.086926	0.991672	-0.205795	-0.207217	0.044832	23.6446	-0.207218	-172.85	-0.000259	NaN
265	1.000000	1.003121	7.36765e+06	-51889.1	955.82	-29750.9	0.000000	0.000000	7.003181	0.044567	NaN	0.000000	0.001575	0.001695	28.082	0.108036	0.002050	52.7021	-68.3927	-166.533	-0.039189	1.001785	-0.195768	-0.197104	0.044567	52.7021	-0.196402	-114.921	-0.000388	NaN
265	1.000000	1.013091	7.36765e+06	-51889.1	955.819	-29750.9	0.000000	0.000000	7.013148	-0.033148	NaN	0.000000	0.001593	0.001683	28.0822	0.035934	0.002022	17.7735	109.829	11.0194	0.021432	1.011715	-0.185798	-0.187174	-0.033148	17.7735	-0.184399	-72.4443	0.000458	NaN
265	1.000000	1.023100	7.36765e+06	-51889.1	955.82	-29750.9	0.000000	0.000000	7.023159	0.026580	NaN	0.000000	0.001608	0.001684	28.0822	0.144323	0.001978	72.9519	129.534	-164.795	0.077733	1.021786	-0.175789	-0.177103	0.026580	72.9519	-0.176063	-52.266	-0.000509	NaN
265	1.000000	1.033109	7.36765e+06	-51889.1	955.819	-29750.9	0.000000	0.000000	7.033169	0.058484	NaN	0.000000	0.001576	0.001701	28.0823	0.020305	0.002120	9.577201	140.581	17.7847	0.050431	1.031701	-0.165780	-0.167187	0.058484	9.577201	-0.170360	-41.6742	-0.001403	NaN
265	1.000000	1.043097	7.36765e+06	-51889.1	955.819	-29750.9	0.000000	0.000000	7.043156	0.016836	NaN	0.000000	0.001598	0.001671	28.082	0.038037	0.001903	19.99	-75.7143	-164.414	-0.005617	1.041819	-0.155792	-0.157070	0.016836	19.99	-0.156424	-23.6677	-0.000711	NaN
265	1.000000	1.053111	7.36765e+06	-51889.1	955.819	-29750.9	0.000000	0.000000	7.053172	0.072646	NaN	0.000000	0.001579	0.001702	28.0821	0.079691	0.002039	39.0858	90.1739	13.8388	0.036497	1.051763	-0.145778	-0.147126	0.072646	39.0858	-0.147172	-16.0779	-0.004518	NaN
265	1.000000	1.063094	7.36765e+06	-51889.1	955.819	-29750.9	0.000000	0.000000	7.063151	-0.015021	NaN	0.000000	0.001596	0.001684	28.0819	0.078051	0.002061	37.8718	161.772	-164.822	0.011869	1.061806	-0.135795	-0.137083	-0.015021	37.8718	-0.135498	-9.722622	0.001545	NaN
265	1.000000	1.073101	7.36765e+06	-51889.1	955.818	-29750.9	0.000000	0.000000	7.073161	0.042476	NaN	0.000000	0.001583	0.001739	28.082	0.078656	0.002006	39.2033	139.534	16.976	0.047300	1.071722	-0.125788	-0.127167	0.042476	39.2033	-0.126601	-6.539912	-0.006495	NaN
265	1.000000	1.083110	7.36765e+06	-51889.1	955.818	-29750.9	0.000000	0.000000	7.083169	0.023990	NaN	0.000000	0.001592	0.001705	28.0821	0.102295	0.002031	50.3556	-70.6719	-163.681	0.085788	1.081831	-0.115779	-0.117058	0.023990	50.3556	-0.116136	-4.031546	-0.005951	NaN
265	1.000000	1.093109	7.36765e+06	-51889.1	955.818	-29750.9	0.000000	0.000000	7.093167	-0.007930	NaN	0.000000	0.001630	0.001704	28.0808	0.080299	0.001921	41.8003	152.541	12.9067	-0.062753	1.091803	-0.105780	-0.107086	-0.007930	41.8003	-0.105638	-2.426227	0.003268	NaN
265	1.000000	1.103168	7.36765e+06	-51889.1	955.819	-29750.9	0.000000	0.000000	7.103226	0.000851	NaN	0.000000	0.001618	0.001714	28.0807	0.020407	0.002054	9.934422	-130.599	-165.574	0.029612	1.101823	-0.095721	-0.097066	0.000851	9.934422	-0.095785	-1.469837	-0.000579	NaN
265	1.000000	1.113163	7.36765e+06	-51889.1	955.817	-29750.9	0.000000	0.000000	7.113221	0.004090	NaN	0.000000	0.001605	0.001719	28.081	0.108396	0.001948	55.6459	-55.6658	17.3207	-0.017729	1.111758	-0.085726	-0.087131	0.004090	55.6459	-0.085781	-0.858095	-0.004766	NaN
265	1.000000	1.123128	7.36765e+06	-51889.1	955.818	-29750.9	0.000000	0.000000	7.123189	0.081427	NaN	0.000000	0.001627	0.001684	28.0807	0.020862	0.002167	9.628152	-120.509	-166.379	0.078658	1.121785	-0.075761	-0.077104	0.081427	9.628152	-0.082104	-0.698119	-0.116638	NaN
265	1.000000	1.133135	7.36765e+06	-51889.1	955.818	-29750.9	0.000000	0.000000	7.133194	0.020675	NaN	0.000000	0.001598	0.001689	28.0809	0.075348	0.002067	36.4472	-156.003	14.9415	-0.025145	1.131764	-0.065754	-0.067125	0.020675	36.4472	-0.066180	-0.268636	-0.076962	NaN
265	1.000000	1.143127	7.36765e+06	-51889.1	955.817	-29750.9	0.000000	0.000000	7.143189	0.077040	NaN	0.000000	0.001622	0.001676	28.0805	0.026471	0.001968	13.4525	-129.422	-164.373	0.014018	1.141857	-0.055762	-0.057032	0.077040	13.4525	-0.060057	-0.180770	-0.426178	NaN
265	1.000000	1.153171	7.36765e+06	-51889.1	955.819	-29750.9	0.000000	0.000000	7.153232	0.070255	NaN	0.000000	0.001621	0.001690	28.0809	0.023151	0.001933	11.9785	53.2257	18.3185	0.136609	1.151823	-0.045718	-0.047066	0.070255	11.9785	-0.050117	-0.091995	-0.763677	NaN
265	1.000000	1.163142	7.36765e+06	-51889.1	955.817	-29750.9	0.000000	0.000000	7.163200	0.009157	NaN	0.000000	0.001595	0.001654	28.0808	0.031596	0.002077	15.2104	-178.583	-165.202	0.028843	1.161884	-0.035747	-0.037005	0.009157	15.2104	-0.036199	-0.034751	-0.263517	NaN
265	1.000000	1.173156	7.36765e+06	-51889.1	955.818	-29750.9	0.000000	0.000000	7.173214	-0.006717	NaN	0.000000	0.001718	0.001693	28.0806	0.097728	0.001969	49.6307	-163.665	14.9777	-0.008340	1.171803	-0.025733	-0.027086	-0.006717	49.6307	-0.025631	-0.017525	0.383260	NaN
265	1.000000	1.183151	7.36765e+06	-51889.1	955.818	-29750.9	0.000000	0.000000	7.183211	0.053406	NaN	0.000000	0.001709	0.001693	28.0806	0.097527	0.002031	48.0206	92.447	-162.58	0.053586	1.181867	-0.015738	-0.017022	0.053406	48.0206	-0.016572	-0.010239	-5.215732	NaN
265	1.000000	1.193193	7.36765e+06	-51889.1	955.818	-29750.9	0.000000	0.000000	7.193250	-0.025318	NaN	0.000000	0.001675	0.001647	28.0809	0.050642	0.002096	24.1595	-9.013673	15.0572	-0.005572	1.191808	-0.005696	-0.007081	-0.025318	24.1595	-0.004910	-0.003360	7.534780	NaN
265	1.000000	1.203161	7.36765e+06	-51889.1	955.818	-29750.9	0.000000	0.000000	7.203339	2.907577	NaN	0.000000	0.001654	0.001668	28.0808	3.598365	0.001791	2009.22	6.409872	-164.884	1.532339	1.201842	0.004272	0.002954	2.907577	2009.22	0.003187	0.002538	1145.73	36439.8
265	2.000000	1.210178	7.36765e+06	-51889.1	955.819	-29750.9	0.000000	0.000000	7.210786	13.3813	NaN	0.000000	0.001675	0.001673	28.0807	10.4997	0.001552	6765.61	3.545046	8.909297	11.929	1.209834	0.011289	0.010946	13.3813	6765.61	0.009805	0.008966	1492.49	65280.8
265	2.000000	1.212646	7.36765e+06	-51889.1	955.819	-29750.9	0.000000	0.000000	7.213352	15.7629	NaN	0.000000	0.001665	0.001647	28.0814	13.0418	0.001586	8221.97	2.975116	-171.243	14.7128	1.212288	0.013757	0.013399	15.7629	8221.97	0.012319	0.011874	1327.49	68936.1
265	2.000000	1.215094	7.36765e+06	-51889.1	955.819	-29750.9	0.000000	0.000000	7.216018	21.0484	NaN	0.000000	0.001679	0.001675	28.0818	16.2653	0.001655	9828.21	4.719576	4.449994	19.4975	1.214755	0.016205	0.015866	21.0484	9828.21	0.014599	0.014755	1426.55	73923.5
265	2.000000	1.217604	7.36765e+06	-51889.1	955.818	-29750.9	0.000000	0.000000	7.218732	25.9947	NaN	0.000000	0.001650	0.001683	28.0817	19.5715	0.001698	11528.3	6.794947	-177.032	26.7501	1.217372	0.018716	0.018483	25.9947	11528.3	0.017024	0.018080	1437.73	78331
265	2.000000	1.220110	7.36765e+06	-51889.1	955.819	-29750.9	0.000000	0.000000	7.221522	32.9201	NaN	0.000000	0.001697	0.001685	28.0817	21.6632	0.001694	12791.1	5.653687	3.626335	31.0397	1.219701	0.021221	0.020812	32.9201	12791.1	0.019291	0.021440	1535.44	79812
265	2.000000	1.222550	7.36765e+06	-51889.1	955.818	-29750.9	0.000000	0.000000	7.224122	36.8204	NaN	0.000000	0.001686	0.001697	28.0818	24.7207	0.001823	13563.2	7.645515	-179.45	34.827	1.222326	0.023661	0.023437	36.8204	13563.2	0.021625	0.025160	1463.47	78123.7
265	2.000000	1.225061	7.36765e+06	-51889.1	955.818	-29750.9	0.000000	0.000000	7.226838	41.8012	NaN	0.000000	0.001694	0.001673	28.0817	28.1342	0.001739	16175	5.645936	-0.131658	40.7266	1.224711	0.026172	0.025822	41.8012	16175	0.024234	0.029636	1410.47	85842.7
265	2.000000	1.227581	7.36765e+06	-51889.1	955.818	-29750.9	0.000000	0.000000	7.229598	47.6328	NaN	0.000000	0.001695	0.001653	28.0818	30.3554	0.001750	17344.6	1.997265	-176.533	47.7765	1.227292	0.028692	0.028403	47.6328	17344.6	0.026632	0.034051	1398.85	85875.7
265	2.000000	1.230022	7.36765e+06	-51889.1	955.819	-29750.9	0.000000	0.000000	7.232438	57.3361	NaN	0.000000	0.001678	0.001718	28.0818	32.0387	0.001732	18503.2	3.327725	1.826225	54.578	1.229722	0.031133	0.030833	57.3361	18503.2	0.028809	0.038311	1496.6	86369.3
265	2.000000	1.232496	7.36765e+06	-51889.1	955.817	-29750.9	0.000000	0.000000	7.235297	66.7075	NaN	0.000000	0.001715	0.001670	28.0817	35.0149	0.001819	19245.1	4.126100	-179.702	64.5478	1.232255	0.033607	0.033366	66.7075	19245.1	0.031007	0.042857	1556.53	84934.3
265	2.000000	1.235025	7.36765e+06	-51889.1	955.817	-29750.9	0.000000	0.000000	7.237980	70.433	NaN	0.000000	0.001705	0.001697	28.0818	37.2736	0.001826	20407.6	3.511950	0.901448	68.8537	1.234726	0.036136	0.035837	70.433	20407.6	0.033548	0.048419	1454.65	84733.8
265	2.000000	1.237577	7.36765e+06	-51889.1	955.818	-29750.9	0.000000	0.000000	7.240923	79.9596	NaN	0.000000	0.001713	0.001662	28.0816	38.948	0.001748	22281	1.736558	-178.167	79.5884	1.237232	0.038688	0.038343	79.9596	22281	0.035996	0.054091	1478.24	87527.8
265	2.000000	1.240069	7.36765e+06	-51889.1	955.817	-29750.9	0.000000	0.000000	7.243743	87.9177	NaN	0.000000	0.001699	0.001668	28.0816	40.9743	0.001772	23126.3	1.894567	1.796434	86.8166	1.239718	0.041180	0.040829	87.9177	23126.3	0.038329	0.059782	1470.65	86416.3
265	2.000000	1.242555	7.36765e+06	-51889.1	955.818	-29750.9	0.000000	0.000000	7.246685	98.9977	NaN	0.000000	0.001682	0.001667	28.0817	43.8964	0.001864	23545.3	4.951475	178.251	99.8747	1.242206	0.043666	0.043317	98.9977	23545.3	0.040513	0.065360	1514.65	84143.7
265	2.000000	1.245027	7.36765e+06	-51889.1	955.818	-29750.9	0.000000	0.000000	7.249595	109.657	NaN	0.000000	0.001685	0.001654	28.0817	45.4287	0.001770	25670.4	3.275191	-0.225685	108.236	1.244657	0.046138	0.045768	109.657	25670.4	0.042934	0.071830	1526.61	87508.9
265	2.000000	1.247573	7.36765e+06	-51889.1	955.818	-29750.9	0.000000	0.000000	7.252487	118.062	NaN	0.000000	0.001668	0.001680	28.0806	48.4521	0.001779	27239.2	6.251763	176.392	119.005	1.247250	0.048684	0.048362	118.062	27239.2	0.045433	0.078823	1497.82	88642.5
265	2.000000	1.250045	7.36765e+06	-51889.1	955.819	-29750.9	0.000000	0.000000	7.255553	132.501	NaN	0.000000	0.001662	0.001650	28.0806	50.2718	0.001831	27457	6.963920	-4.125747	130.381	1.249562	0.051157	0.050673	132.501	27457	0.047537	0.084953	1559.7	86067.1
265	2.000000	1.252499	7.36765e+06	-51889.1	955.818	-29750.9	0.000000	0.000000	7.258465	143.666	NaN	0.000000	0.001695	0.001670	28.0808	52.6667	0.001766	29824.6	4.917889	177.032	142.602	1.252143	0.053610	0.053254	143.666	29824.6	0.049997	0.092404	1554.76	89640.1
265	2.000000	1.254965	7.36765e+06	-51889.1	955.817	-29750.9	0.000000	0.000000	7.261415	155.417	NaN	0.000000	0.001686	0.001696	28.0805	55.5394	0.001758	31589	5.278166	-4.373386	151.726	1.254650	0.056076	0.055761	155.417	31589	0.052386	0.099932	1555.22	91297
265	2.000000	1.257541	7.36765e+06	-51889.1	955.817	-29750.9	0.000000	0.000000	7.264308	163.126	NaN	0.000000	0.001698	0.001699	28.0807	59.4007	0.001905	31177.6	5.545070	175.489	164.717	1.257223	0.058652	0.058334	163.126	31177.6	0.054728	0.107585	1516.25	86844
265	2.000000	1.260032	7.36765e+06	-51889.1	955.819	-29750.9	0.000000	0.000000	7.267402	177.802	NaN	0.000000	0.001730	0.001692	28.0807	60.6271	0.001806	33562.3	3.538062	-2.012216	177.321	1.259646	0.061143	0.060757	177.802	33562.3	0.057170	0.115855	1534.7	90088.3
265	2.000000	1.262481	7.36765e+06	-51889.1	955.818	-29750.9	0.000000	0.000000	7.270549	194.749	NaN	0.000000	0.001690	0.001631	28.0809	62.0155	0.001729	35866.5	4.419190	176.301	192.161	1.262134	0.063592	0.063245	194.749	35866.5	0.059520	0.124092	1569.39	93022.9
265	2.000000	1.264976	7.36765e+06	-51889.1	955.818	-29750.9	0.000000	0.000000	7.273341	201.99	NaN	0.000000	0.001726	0.001653	28.0807	66.7189	0.001888	35330.1	6.684710	-6.710939	200.752	1.264627	0.066087	0.065738	201.99	35330.1	0.061799	0.132339	1526.31	88730.8
265	2.000000	1.267486	7.36765e+06	-51889.1	955.818	-29750.9	0.000000	0.000000	7.276624	220.784	NaN	0.000000	0.001709	0.001657	28.081	68.2136	0.001736	39303.7	2.825870	175.825	218.968	1.267175	0.068597	0.068286	220.784	39303.7	0.064384	0.141998	1554.84	95294.1
265	2.000000	1.269959	7.36765e+06	-51889.1	955.819	-29750.9	0.000000	0.000000	7.279914	240.644	NaN	0.000000	0.001678	0.001664	28.0806	70.6862	0.001849	38230.4	8.341635	-8.594994	234.83	1.269537	0.071070	0.070648	240.644	38230.4	0.066349	0.149554	1609.08	90320
265	2.000000	1.272401	7.36765e+06	-51889.1	955.818	-29750.9	0.000000	0.000000	7.282913	254.202	NaN	0.000000	0.001709	0.001693	28.0809	72.0374	0.001769	40717.5	5.747737	173.179	249.852	1.272169	0.073512	0.073281	254.202	40717.5	0.068830	0.159360	1595.15	93189.2
265	2.000000	1.275065	7.36765e+06	-51889.1	955.819	-29750.9	0.000000	0.000000	7.285984	264.077	NaN	0.000000	0.001677	0.001684	28.0805	75.9866	0.001764	43083.8	5.415464	-6.909287	265.768	1.274673	0.076176	0.075784	264.077	43083.8	0.071579	0.170572	1548.19	95309
265	2.000000	1.277465	7.36765e+06	-51889.1	955.818	-29750.9	0.000000	0.000000	7.289233	284.74	NaN	0.000000	0.001712	0.001683	28.0807	78.1457	0.001750	44659.5	5.274936	173.725	282.348	1.277208	0.078576	0.078319	284.74	44659.5	0.073794	0.179863	1583.1	96209.2
265	2.000000	1.279946	7.36765e+06	-51889.1	955.818	-29750.9	0.000000	0.000000	7.292157	295.507	NaN	0.000000	0.001691	0.001701	28.0806	79.9933	0.001774	45103.7	4.591534	-5.851204	291.082	1.279713	0.081057	0.080824	295.507	45103.7	0.076143	0.189971	1555.54	94545.5
265	2.000000	1.282434	7.36765e+06	-51889.1	955.818	-29750.9	0.000000	0.000000	7.295411	314.121	NaN	0.000000	0.001689	0.001702	28.0817	81.7375	0.001807	45242.5	5.117397	173.806	310.088	1.282240	0.083545	0.083351	314.121	45242.5	0.078338	0.199648	1573.37	92509.6
265	2.000000	1.284969	7.36765e+06	-51889.1	955.818	-29750.9	0.000000	0.000000	7.298869	336.571	NaN	0.000000	0.001660	0.001697	28.0816	83.1308	0.001738	47827.7	3.962936	-5.854482	332.902	1.284605	0.086080	0.085716	336.571	47827.7	0.080802	0.210785	1596.75	95177.2
265	2.000000	1.287458	7.36765e+06	-51889.1	955.818	-29750.9	0.000000	0.000000	7.301989	351.936	NaN	0.000000	0.001664	0.001679	28.0819	86.9324	0.001801	48276.6	3.812738	173.74	351.059	1.287157	0.088569	0.088268	351.936	48276.6	0.083101	0.221426	1589.4	93733.6
265	2.000000	1.289925	7.36765e+06	-51889.1	955.819	-29750.9	0.000000	0.000000	7.305496	377.209	NaN	0.000000	0.001636	0.001677	28.082	87.9711	0.001762	49932.8	4.340557	-5.971380	371.588	1.289605	0.091036	0.090716	377.209	49932.8	0.085370	0.232169	1624.71	94679.7
265	2.000000	1.292597	7.36765e+06	-51889.1	955.818	-29750.9	0.000000	0.000000	7.308367	382.025	NaN	0.000000	0.001674	0.001673	28.0822	90.3026	0.001797	50256.7	8.024256	169.493	389.97	1.292223	0.093708	0.093334	382.025	50256.7	0.088007	0.244955	1559.57	92773.4
265	2.000000	1.294895	7.36765e+06	-51889.1	955.819	-29750.9	0.000000	0.000000	7.311561	403.828	NaN	0.000000	0.001640	0.001703	28.0819	92.4226	0.001671	55305	5.376289	-9.281473	396.411	1.294666	0.096006	0.095777	403.828	55305	0.090529	0.257483	1568.37	99578
265	2.000000	1.297803	7.36765e+06	-51889.1	955.819	-29750.9	0.000000	0.000000	7.314667	408.631	NaN	0.000000	0.001651	0.001692	28.0822	96.3576	0.001760	54750.8	3.070326	173.901	428.199	1.297317	0.098914	0.098428	408.631	54750.8	0.093317	0.271666	1504.17	95972.3
265	2.000000	1.299935	7.36765e+06	-51889.1	955.818	-29750.9	0.000000	0.000000	7.318271	444.429	NaN	0.000000	0.001670	0.001730	28.0822	98.2453	0.001751	56093.8	4.202619	-7.230180	439.084	1.299562	0.101046	0.100673	444.429	56093.8	0.095104	0.280948	1581.89	96688.5
265	2.000000	1.302399	7.36765e+06	-51889.1	955.817	-29750.9	0.000000	0.000000	7.321416	460.993	NaN	0.000000	0.001688	0.001711	28.082	101.072	0.001749	57781.4	2.316113	174.025	457.185	1.302124	0.103511	0.103235	460.993	57781.4	0.097527	0.293763	1569.27	97400.9
265	2.000000	1.304909	7.36765e+06	-51889.1	955.818	-29750.9	0.000000	0.000000	7.324962	486.184	NaN	0.000000	0.001678	0.001686	28.0817	103.57	0.001667	62142.3	4.524214	-8.391789	480.715	1.304719	0.106020	0.105831	486.184	62142.3	0.100152	0.307948	1578.78	102311
265	2.000000	1.307454	7.36765e+06	-51889.1	955.818	-29750.9	0.000000	0.000000	7.328353	506.743	NaN	0.000000	0.001671	0.001691	28.0818	107.629	0.001681	64015.2	5.554212	170.188	505.755	1.307057	0.108565	0.108168	506.743	64015.2	0.102628	0.321619	1575.6	103130