File: remote_trans/data/nanoindenter/0828-1/data/Data_2025-08-06,11h17m57s/2025-07-22_16-23-58_1_615.txt
2025-07-22, 16:23:58, 1
Index	Phase	Displacement	Time	Pos X	Pos Y	Pos Z	Rot A	Rot B	Piezo Z	Force A	Force B	Gripper	Voltage A	Voltage B	Temperature	Amplitude force	Amplitude pos	Stiffness	Phase shift	Phase excitation	Force A raw	Displacement raw	HMax	HMax raw	Real Force	Real Stiffness	Contact Depth	Area	Hardness	Reduced Mod.
[#]	[#]	[um]	[s]	[um]	[um]	[um]	[m°]	[m°]	[um]	[uN]	[uN]	[V]	[V]	[V]	[°C]	[uN]	[um]	[N/m]	[°]	[°]	[uN]	[um]	[um]	[um]	[uN]	[N/m]	[um]	[um^2]	[MPa]	[MPa]
615	1.000000	0.002353	7.37107e+06	-46339.1	1005.82	-29769.4	0.000000	0.000000	6.002812	-0.009720	NaN	0.000000	0.001472	0.001677	28.083	0.019782	0.000848	23.3328	149.648	-163.694	-0.107092	0.001089	-1.142208	-1.143471	-0.009720	23.3328	-1.141895	-1.828734E+15	5.315237E-18	NaN
615	1.000000	0.012403	7.37107e+06	-46339.1	1005.82	-29769.4	0.000000	0.000000	6.012863	-0.002529	NaN	0.000000	0.001484	0.001681	28.0823	0.058511	0.001203	48.6406	64.4471	17.1954	0.126469	0.010967	-1.132157	-1.133593	-0.002529	48.6406	-1.132118	-1.352153E+15	1.870294E-18	NaN
615	1.000000	0.022311	7.37107e+06	-46339.1	1005.82	-29769.4	0.000000	0.000000	6.022772	0.034460	NaN	0.000000	0.001478	0.001629	28.0824	0.115166	0.001739	66.2265	-71.402	-165.358	0.040808	0.020964	-1.122249	-1.123596	0.034460	66.2265	-1.122639	-1.008977E+15	-3.415381E-17	NaN
615	1.000000	0.032287	7.37107e+06	-46339.1	1005.82	-29769.4	0.000000	0.000000	6.032747	0.011309	NaN	0.000000	0.001535	0.001689	28.0822	0.106228	0.002043	51.9899	137.163	14.5674	-0.031435	0.030954	-1.112273	-1.113606	0.011309	51.9899	-1.112436	-7.361711E+14	-1.536132E-17	NaN
615	1.000000	0.042313	7.37107e+06	-46339.1	1005.82	-29769.4	0.000000	0.000000	6.042773	-0.003151	NaN	0.000000	0.001508	0.001696	28.0826	0.036216	0.001924	18.827	-178.524	-164.514	0.008489	0.041009	-1.102247	-1.103551	-0.003151	18.827	-1.102121	-5.352335E+14	5.887629E-18	NaN
615	1.000000	0.052328	7.37107e+06	-46339.1	1005.82	-29769.4	0.000000	0.000000	6.052788	-0.010893	NaN	0.000000	0.001520	0.001667	28.0822	0.078331	0.001983	39.4961	77.4927	13.8884	0.019505	0.050970	-1.092232	-1.093591	-0.010893	39.4961	-1.092025	-3.917407E+14	2.780762E-17	NaN
615	1.000000	0.062304	7.37107e+06	-46339.1	1005.82	-29769.4	0.000000	0.000000	6.062761	-0.074290	NaN	0.000000	0.001529	0.001685	28.0823	0.038081	0.001908	19.9578	-108.264	-166.567	-0.050632	0.061011	-1.082256	-1.083550	-0.074290	19.9578	-1.079464	-2.656594E+14	2.796426E-16	NaN
615	1.000000	0.072300	7.37107e+06	-46339.1	1005.82	-29769.4	0.000000	0.000000	6.072760	-0.006477	NaN	0.000000	0.001517	0.001685	28.0824	0.044401	0.001985	22.368	-27.2282	15.3898	0.043875	0.070962	-1.072260	-1.073598	-0.006477	22.368	-1.072043	-2.111700E+14	3.067208E-17	NaN
615	1.000000	0.082307	7.37107e+06	-46339.1	1005.82	-29769.4	0.000000	0.000000	6.082766	-0.010401	NaN	0.000000	0.001509	0.001696	28.0826	0.074466	0.001872	39.7819	0.593820	-167.509	0.000529	0.080982	-1.062253	-1.063579	-0.010401	39.7819	-1.062057	-1.550467E+14	6.708619E-17	NaN
615	1.000000	0.092307	7.37107e+06	-46339.1	1005.82	-29769.4	0.000000	0.000000	6.092768	0.035112	NaN	0.000000	0.001533	0.001686	28.0825	0.037092	0.001954	18.9778	71.6916	13.4134	0.018546	0.090973	-1.052253	-1.053588	0.035112	18.9778	-1.053641	-1.194963E+14	-2.938300E-16	NaN
615	1.000000	0.102322	7.37107e+06	-46339.1	1005.82	-29769.4	0.000000	0.000000	6.102780	-0.056774	NaN	0.000000	0.001517	0.001674	28.0825	0.085033	0.001999	42.5475	152.01	-163.995	-0.055393	0.100954	-1.042238	-1.043607	-0.056774	42.5475	-1.041237	-8.139579E+13	6.975064E-16	NaN
615	1.000000	0.112317	7.37107e+06	-46339.1	1005.82	-29769.4	0.000000	0.000000	6.112777	0.004508	NaN	0.000000	0.001495	0.001676	28.0822	0.063402	0.002020	31.3871	73.7468	14.3867	0.059086	0.110970	-1.032243	-1.033590	0.004508	31.3871	-1.032351	-6.181629E+13	-7.292797E-17	NaN
615	1.000000	0.122304	7.37107e+06	-46339.1	1005.82	-29769.4	0.000000	0.000000	6.122763	-0.024501	NaN	0.000000	0.001511	0.001684	28.0812	0.004659	0.001867	2.494985	41.3266	-167.842	0.009461	0.120969	-1.022256	-1.023591	-0.024501	2.494985	-1.014891	-3.599184E+13	6.807339E-16	NaN
615	1.000000	0.132336	7.37107e+06	-46339.1	1005.82	-29769.4	0.000000	0.000000	6.132793	-0.059793	NaN	0.000000	0.001518	0.001694	28.0811	0.014952	0.001941	7.701748	136.006	16.429	-0.109194	0.130985	-1.012224	-1.013575	-0.059793	7.701748	-1.006401	-2.766584E+13	2.161261E-15	NaN
615	1.000000	0.142334	7.37107e+06	-46339.1	1005.82	-29769.4	0.000000	0.000000	6.142795	0.025585	NaN	0.000000	0.001534	0.001674	28.081	0.086316	0.001971	43.7958	-75.8387	-166.65	0.089114	0.140992	-1.002226	-1.003568	0.025585	43.7958	-1.002664	-2.463956E+13	-1.038384E-15	NaN
615	1.000000	0.152323	7.37107e+06	-46339.1	1005.82	-29769.4	0.000000	0.000000	6.152781	-0.050896	NaN	0.000000	0.001530	0.001671	28.0813	0.055296	0.002052	26.949	128.609	11.6408	-0.038156	0.150946	-0.992237	-0.993614	-0.050896	26.949	-0.990820	-1.706704E+13	2.982109E-15	NaN
615	1.000000	0.162339	7.37107e+06	-46339.1	1005.82	-29769.4	0.000000	0.000000	6.162798	-0.008644	NaN	0.000000	0.001546	0.001690	28.0811	0.095880	0.001986	48.266	95.905	-166.754	-0.025233	0.161061	-0.982221	-0.983500	-0.008644	48.266	-0.982087	-1.301740E+13	6.640412E-16	NaN
615	1.000000	0.172323	7.37107e+06	-46339.1	1005.82	-29769.4	0.000000	0.000000	6.172783	0.001646	NaN	0.000000	0.001539	0.001678	28.0812	0.130634	0.001957	66.756	-125.61	12.5834	-0.082815	0.170940	-0.972237	-0.973620	0.001646	66.756	-0.972255	-9.595256E+12	-1.715767E-16	NaN
615	1.000000	0.182349	7.37107e+06	-46339.1	1005.82	-29769.4	0.000000	0.000000	6.182812	0.092164	NaN	0.000000	0.001551	0.001664	28.0808	0.043698	0.002015	21.6857	133.94	-165.279	0.086518	0.181042	-0.962211	-0.963518	0.092164	21.6857	-0.965399	-7.756109E+12	-1.188274E-14	NaN
615	1.000000	0.192348	7.37107e+06	-46339.1	1005.82	-29769.4	0.000000	0.000000	6.192808	-0.000163	NaN	0.000000	0.001528	0.001677	28.0815	0.053986	0.002140	25.2294	61.7024	14.9522	0.047519	0.190985	-0.952212	-0.953575	-0.000163	25.2294	-0.952207	-5.149856E+12	3.173191E-17	NaN
615	1.000000	0.202343	7.37107e+06	-46339.1	1005.82	-29769.4	0.000000	0.000000	6.202805	0.056812	NaN	0.000000	0.001523	0.001675	28.081	0.064236	0.002039	31.496	9.241148	-167.177	-0.048307	0.201028	-0.942217	-0.943532	0.056812	31.496	-0.943570	-3.938197E+12	-1.442599E-14	NaN
615	1.000000	0.212369	7.37107e+06	-46339.1	1005.82	-29769.4	0.000000	0.000000	6.212830	0.034307	NaN	0.000000	0.001546	0.001660	28.0812	0.066941	0.001963	34.101	-85.7132	12.7481	0.080574	0.210956	-0.932191	-0.933604	0.034307	34.101	-0.932946	-2.831062E+12	-1.211799E-14	NaN
615	1.000000	0.222345	7.37107e+06	-46339.1	1005.82	-29769.4	0.000000	0.000000	6.222806	0.020018	NaN	0.000000	0.001520	0.001641	28.081	0.033816	0.002019	16.7466	-74.9819	-169.776	0.046609	0.221066	-0.922215	-0.923494	0.020018	16.7466	-0.923111	-2.085516E+12	-9.598396E-15	NaN
615	1.000000	0.232346	7.37107e+06	-46339.1	1005.82	-29769.4	0.000000	0.000000	6.232806	0.014669	NaN	0.000000	0.001501	0.001655	28.0812	0.080824	0.001849	43.7216	98.7722	13.0272	-0.033217	0.230954	-0.912214	-0.913606	0.014669	43.7216	-0.912466	-1.497836E+12	-9.793364E-15	NaN
615	1.000000	0.242346	7.37107e+06	-46339.1	1005.82	-29769.4	0.000000	0.000000	6.242810	0.090750	NaN	0.000000	0.001497	0.001659	28.081	0.083651	0.001961	42.6664	70.1308	-165.566	0.034239	0.241056	-0.902214	-0.903504	0.090750	42.6664	-0.903809	-1.144277E+12	-7.930761E-14	NaN
615	1.000000	0.252397	7.37107e+06	-46339.1	1005.82	-29769.4	0.000000	0.000000	6.252856	0.001408	NaN	0.000000	0.001556	0.001684	28.0821	0.066273	0.001965	33.7207	110.486	16.5696	-0.026576	0.251032	-0.892163	-0.893528	0.001408	33.7207	-0.892195	-7.972261E+11	-1.766140E-15	NaN
615	1.000000	0.262380	7.37107e+06	-46339.1	1005.82	-29769.4	0.000000	0.000000	6.262839	-0.009174	NaN	0.000000	0.001519	0.001655	28.0824	0.035289	0.002072	17.0276	-25.254	-165.853	-0.059924	0.261132	-0.882180	-0.883428	-0.009174	17.0276	-0.881776	-5.764056E+11	1.591576E-14	NaN
615	1.000000	0.272366	7.37107e+06	-46339.1	1005.82	-29769.4	0.000000	0.000000	6.272826	0.017511	NaN	0.000000	0.001563	0.001679	28.0824	0.047626	0.001998	23.8422	-176.312	6.793066	0.006595	0.271033	-0.872195	-0.873527	0.017511	23.8422	-0.872745	-4.350960E+11	-4.024702E-14	NaN
615	1.000000	0.282369	7.37107e+06	-46339.1	1005.82	-29769.4	0.000000	0.000000	6.282826	-0.067280	NaN	0.000000	0.001520	0.001693	28.0825	0.129308	0.002036	63.5077	-87.8127	-166.204	-0.039128	0.281065	-0.862191	-0.863495	-0.067280	63.5077	-0.861397	-3.055109E+11	2.202225E-13	NaN
615	1.000000	0.292367	7.37107e+06	-46339.1	1005.82	-29769.4	0.000000	0.000000	6.292827	0.001139	NaN	0.000000	0.001514	0.001691	28.0824	0.037198	0.002010	18.5101	-61.9648	13.7496	-0.030674	0.291038	-0.852193	-0.853522	0.001139	18.5101	-0.852239	-2.296454E+11	-4.957891E-15	NaN
615	1.000000	0.302426	7.37107e+06	-46339.1	1005.82	-29769.4	0.000000	0.000000	6.302885	-0.035088	NaN	0.000000	0.001524	0.001695	28.0825	0.109865	0.002173	50.5507	-61.4935	-169.368	0.012744	0.301124	-0.842134	-0.843436	-0.035088	50.5507	-0.841613	-1.648720E+11	2.128225E-13	NaN
615	1.000000	0.312392	7.37107e+06	-46339.1	1005.82	-29769.4	0.000000	0.000000	6.312850	-0.037195	NaN	0.000000	0.001563	0.001697	28.0825	0.049093	0.001970	24.921	19.7678	13.6566	0.046470	0.311016	-0.832168	-0.833544	-0.037195	24.921	-0.831049	-1.185768E+11	3.136782E-13	NaN
615	1.000000	0.322409	7.37107e+06	-46339.1	1005.82	-29769.4	0.000000	0.000000	6.322871	0.043133	NaN	0.000000	0.001550	0.001687	28.0823	0.032312	0.002057	15.7119	-60.7169	-167.194	0.038251	0.321081	-0.822151	-0.823480	0.043133	15.7119	-0.824210	-9.578443E+10	-4.503147E-13	NaN
615	1.000000	0.332407	7.37107e+06	-46339.1	1005.82	-29769.4	0.000000	0.000000	6.332867	-0.008068	NaN	0.000000	0.001549	0.001671	28.0825	0.065099	0.001952	33.3525	176.996	17.0992	-0.028364	0.331080	-0.812153	-0.813481	-0.008068	33.3525	-0.811971	-6.536025E+10	1.234355E-13	NaN
615	1.000000	0.342387	7.37107e+06	-46339.1	1005.82	-29769.4	0.000000	0.000000	6.342846	-0.007706	NaN	0.000000	0.001512	0.001694	28.0825	0.061170	0.001936	31.5912	-98.5208	-164.829	0.005169	0.341111	-0.802173	-0.803449	-0.007706	31.5912	-0.801990	-4.784928E+10	1.610418E-13	NaN
615	1.000000	0.352404	7.37107e+06	-46339.1	1005.82	-29769.4	0.000000	0.000000	6.352861	-0.062588	NaN	0.000000	0.001510	0.001719	28.0826	0.132796	0.002043	65.0163	152.25	16.6776	-0.081525	0.351078	-0.792156	-0.793483	-0.062588	65.0163	-0.791434	-3.440039E+10	1.819396E-12	NaN
615	1.000000	0.362412	7.37107e+06	-46339.1	1005.82	-29769.4	0.000000	0.000000	6.362872	-0.000568	NaN	0.000000	0.001500	0.001710	28.0822	0.079544	0.002011	39.5535	94.293	-167.69	0.003618	0.361108	-0.782148	-0.783452	-0.000568	39.5535	-0.782137	-2.572025E+10	2.208666E-14	NaN
615	1.000000	0.372433	7.37107e+06	-46339.1	1005.82	-29769.4	0.000000	0.000000	6.372893	0.000747	NaN	0.000000	0.001485	0.001688	28.0825	0.022347	0.001887	11.8456	24.5334	15.9345	0.014857	0.371017	-0.772127	-0.773543	0.000747	11.8456	-0.772174	-1.883070E+10	-3.968377E-14	NaN
615	1.000000	0.382452	7.37107e+06	-46339.1	1005.82	-29769.4	0.000000	0.000000	6.382908	-0.086569	NaN	0.000000	0.001481	0.001687	28.0824	0.066143	0.001927	34.32	-164.499	-167.585	-0.082118	0.381145	-0.762108	-0.763415	-0.086569	34.32	-0.760216	-1.294911E+10	6.685293E-12	NaN
615	1.000000	0.392440	7.37107e+06	-46339.1	1005.82	-29769.4	0.000000	0.000000	6.392898	-0.049064	NaN	0.000000	0.001484	0.001649	28.0813	0.050260	0.002151	23.3629	-111.395	16.3308	-0.018179	0.391048	-0.752120	-0.753512	-0.049064	23.3629	-0.750545	-9.563962E+9	5.130094E-12	NaN
615	1.000000	0.402440	7.37107e+06	-46339.1	1005.82	-29769.4	0.000000	0.000000	6.402898	-0.042568	NaN	0.000000	0.001487	0.001639	28.0812	0.064410	0.001932	33.3338	-126.119	-167.659	0.046446	0.401185	-0.742120	-0.743375	-0.042568	33.3338	-0.741162	-7.126691E+9	5.973022E-12	NaN
615	1.000000	0.412449	7.37107e+06	-46339.1	1005.82	-29769.4	0.000000	0.000000	6.412909	0.004784	NaN	0.000000	0.001514	0.001654	28.0814	0.048084	0.002019	23.8145	-167.611	13.425	0.010485	0.411109	-0.732111	-0.733451	0.004784	23.8145	-0.732262	-5.390581E+9	-8.875504E-13	NaN
615	1.000000	0.422453	7.37107e+06	-46339.1	1005.82	-29769.4	0.000000	0.000000	6.422914	0.013559	NaN	0.000000	0.001516	0.001666	28.0812	0.037635	0.001945	19.3513	106.174	-163.061	0.064504	0.421109	-0.722107	-0.723451	0.013559	19.3513	-0.722632	-3.984433E+9	-3.403046E-12	NaN
615	1.000000	0.432438	7.37107e+06	-46339.1	1005.82	-29769.4	0.000000	0.000000	6.432895	-0.057216	NaN	0.000000	0.001499	0.001687	28.0811	0.125064	0.001999	62.5673	-28.9795	12.8633	0.007293	0.431099	-0.712122	-0.713461	-0.057216	62.5673	-0.711437	-2.803190E+9	2.041109E-11	NaN
615	1.000000	0.442433	7.37107e+06	-46339.1	1005.82	-29769.4	0.000000	0.000000	6.442892	-0.010551	NaN	0.000000	0.001497	0.001681	28.0814	0.079640	0.002035	39.1294	120.955	-162.234	-0.005775	0.441130	-0.702127	-0.703430	-0.010551	39.1294	-0.701925	-2.078820E+9	5.075653E-12	NaN
615	1.000000	0.452477	7.37107e+06	-46339.1	1005.82	-29769.4	0.000000	0.000000	6.452937	0.001829	NaN	0.000000	0.001483	0.001687	28.0813	0.062114	0.001995	31.1312	161.76	12.3765	-0.011738	0.451047	-0.692083	-0.693513	0.001829	31.1312	-0.692127	-1.527508E+9	-1.197567E-12	NaN
615	1.000000	0.462486	7.37107e+06	-46339.1	1005.82	-29769.4	0.000000	0.000000	6.462944	-0.031075	NaN	0.000000	0.001505	0.001682	28.0811	0.045620	0.001983	23.0101	98.3319	-165.148	-0.010780	0.461122	-0.682074	-0.683439	-0.031075	23.0101	-0.681061	-1.078245E+9	2.882001E-11	NaN
615	1.000000	0.472454	7.37107e+06	-46339.1	1005.82	-29769.4	0.000000	0.000000	6.472913	-0.027398	NaN	0.000000	0.001509	0.001668	28.0813	0.007751	0.002088	3.711510	-67.3702	13.5892	-0.002841	0.471086	-0.672106	-0.673474	-0.027398	3.711510	-0.666569	-6.830144E+8	4.011356E-11	NaN
615	1.000000	0.482498	7.37107e+06	-46339.1	1005.82	-29769.4	0.000000	0.000000	6.482957	-0.030739	NaN	0.000000	0.001536	0.001707	28.0815	0.097608	0.001922	50.7968	179.247	-168.313	-0.052428	0.481177	-0.662062	-0.663383	-0.030739	50.7968	-0.661608	-5.841058E+8	5.262563E-11	NaN
615	1.000000	0.492467	7.37107e+06	-46339.1	1005.82	-29769.4	0.000000	0.000000	6.492929	0.052968	NaN	0.000000	0.001534	0.001681	28.0814	0.031366	0.001895	16.5546	41.6394	12.0558	0.006917	0.491140	-0.652093	-0.653420	0.052968	16.5546	-0.654493	-4.666764E+8	-1.135003E-10	NaN
615	1.000000	0.502476	7.37107e+06	-46339.1	1005.82	-29769.4	0.000000	0.000000	6.502934	-0.036029	NaN	0.000000	0.001526	0.001685	28.0813	0.141638	0.002035	69.6021	-43.4603	-165.295	-0.015708	0.501160	-0.642084	-0.643400	-0.036029	69.6021	-0.641696	-3.115713E+8	1.156357E-10	NaN
615	1.000000	0.512498	7.37107e+06	-46339.1	1005.82	-29769.4	0.000000	0.000000	6.512957	-0.010971	NaN	0.000000	0.001532	0.001673	28.0811	0.092410	0.001981	46.6485	-174.841	16.1185	-0.030861	0.511082	-0.632063	-0.633478	-0.010971	46.6485	-0.631886	-2.285196E+8	4.800790E-11	NaN
615	1.000000	0.522512	7.37107e+06	-46339.1	1005.82	-29769.4	0.000000	0.000000	6.522971	-0.009834	NaN	0.000000	0.001591	0.001671	28.0817	0.046671	0.002053	22.7336	56.9255	-168.312	-0.058381	0.521195	-0.622048	-0.623365	-0.009834	22.7336	-0.621724	-1.657005E+8	5.934603E-11	NaN
615	1.000000	0.532476	7.37107e+06	-46339.1	1005.82	-29769.4	0.000000	0.000000	6.532934	-0.039728	NaN	0.000000	0.001592	0.001683	28.0826	0.112913	0.001891	59.6961	-42.1761	13.7379	-0.038110	0.531137	-0.612084	-0.613423	-0.039728	59.6961	-0.611585	-1.202024E+8	3.305130E-10	NaN
615	1.000000	0.542487	7.37107e+06	-46339.1	1005.82	-29769.4	0.000000	0.000000	6.542945	-0.027696	NaN	0.000000	0.001550	0.001683	28.0822	0.084849	0.002037	41.6527	-140.922	-167.888	-0.027440	0.541224	-0.602073	-0.603336	-0.027696	41.6527	-0.601575	-8.752774E+7	3.164237E-10	NaN
615	1.000000	0.552512	7.37107e+06	-46339.1	1005.82	-29769.4	0.000000	0.000000	6.552969	-0.048092	NaN	0.000000	0.001642	0.001712	28.0825	0.071603	0.001909	37.5154	-9.046964	12.2484	-0.018804	0.551166	-0.592048	-0.593394	-0.048092	37.5154	-0.591087	-6.275513E+7	7.663373E-10	NaN
615	1.000000	0.562501	7.37107e+06	-46339.1	1005.82	-29769.4	0.000000	0.000000	6.562961	0.012972	NaN	0.000000	0.001567	0.001715	28.0825	0.124849	0.002014	61.9752	159.433	-165.49	0.009794	0.561178	-0.582059	-0.583382	0.012972	61.9752	-0.582216	-4.734856E+7	-2.739609E-10	NaN
615	1.000000	0.572516	7.37107e+06	-46339.1	1005.82	-29769.4	0.000000	0.000000	6.572978	0.072708	NaN	0.000000	0.001571	0.001678	28.0823	0.065651	0.002024	32.438	80.7767	10.4746	0.133346	0.571168	-0.572044	-0.573392	0.072708	32.438	-0.573726	-3.614910E+7	-2.011327E-9	NaN
615	1.000000	0.582509	7.37107e+06	-46339.1	1005.82	-29769.4	0.000000	0.000000	6.582968	-0.021640	NaN	0.000000	0.001578	0.001716	28.0821	0.057550	0.002027	28.3979	134.142	-168.606	-0.007931	0.581269	-0.562051	-0.563291	-0.021640	28.3979	-0.561480	-2.448198E+7	8.839076E-10	NaN
615	1.000000	0.592511	7.37107e+06	-46339.1	1005.82	-29769.4	0.000000	0.000000	6.592972	0.031426	NaN	0.000000	0.001564	0.001667	28.0824	0.076608	0.002060	37.1964	-153.909	13.1595	-0.015850	0.591157	-0.552049	-0.553403	0.031426	37.1964	-0.552682	-1.849712E+7	-1.698950E-9	NaN
615	1.000000	0.602520	7.37107e+06	-46339.1	1005.82	-29769.4	0.000000	0.000000	6.602980	0.003683	NaN	0.000000	0.001549	0.001671	28.0823	0.038424	0.002002	19.1931	77.051	-168.716	0.022993	0.601141	-0.542040	-0.543419	0.003683	19.1931	-0.542184	-1.323248E+7	-2.783053E-10	NaN
615	1.000000	0.612511	7.37107e+06	-46339.1	1005.82	-29769.4	0.000000	0.000000	6.612970	-0.020312	NaN	0.000000	0.001524	0.001687	28.0833	0.038624	0.002058	18.7658	109.416	17.2015	0.069395	0.611161	-0.532049	-0.533399	-0.020312	18.7658	-0.531237	-9.32732e+06	2.177639E-9	NaN
615	1.000000	0.622536	7.37107e+06	-46339.1	1005.82	-29769.4	0.000000	0.000000	6.622992	-0.079667	NaN	0.000000	0.001589	0.001664	28.0824	0.082041	0.002023	40.5585	-54.3813	-162.961	-0.016336	0.621267	-0.522024	-0.523293	-0.079667	40.5585	-0.520551	-6.62619e+06	1.202310E-8	NaN
615	1.000000	0.632527	7.37107e+06	-46339.1	1005.82	-29769.4	0.000000	0.000000	6.632990	0.089730	NaN	0.000000	0.001561	0.001645	28.0824	0.047676	0.001998	23.86	-53.5017	12.6708	0.059947	0.631219	-0.512033	-0.513341	0.089730	23.86	-0.514854	-5.52072e+06	-1.625336E-8	NaN
615	1.000000	0.642560	7.37107e+06	-46339.1	1005.82	-29769.4	0.000000	0.000000	6.643017	-0.053232	NaN	0.000000	0.001546	0.001650	28.0825	0.008788	0.002073	4.239162	-76.2226	-164.354	-0.006891	0.641179	-0.502000	-0.503381	-0.053232	4.239162	-0.492582	-2.70068e+06	1.971070E-8	NaN
615	1.000000	0.652566	7.37107e+06	-46339.1	1005.82	-29769.4	0.000000	0.000000	6.653023	-0.052609	NaN	0.000000	0.001549	0.001650	28.0823	0.071853	0.001960	36.6586	-128.502	10.9406	-0.002975	0.651215	-0.491994	-0.493345	-0.052609	36.6586	-0.490918	-2.5599e+06	2.055135E-8	NaN
615	1.000000	0.662540	7.37107e+06	-46339.1	1005.82	-29769.4	0.000000	0.000000	6.662999	-0.010853	NaN	0.000000	0.001516	0.001678	28.0812	0.007950	0.001868	4.256690	127.356	-168.467	-0.022301	0.661211	-0.482020	-0.483349	-0.010853	4.256690	-0.480108	-1.80733e+06	6.004876E-9	NaN
615	1.000000	0.672564	7.37107e+06	-46339.1	1005.82	-29769.4	0.000000	0.000000	6.673023	-0.024642	NaN	0.000000	0.001511	0.001653	28.081	0.077387	0.001959	39.4957	-68.0301	12.8976	-0.044049	0.671211	-0.471996	-0.473349	-0.024642	39.4957	-0.471528	-1.37036e+06	1.798209E-8	NaN
615	1.000000	0.682579	7.37107e+06	-46339.1	1005.82	-29769.4	0.000000	0.000000	6.683038	-0.013599	NaN	0.000000	0.001543	0.001662	28.0812	0.069573	0.001965	35.4089	105.536	-165.495	0.048471	0.681269	-0.461981	-0.463291	-0.013599	35.4089	-0.461693	-997248	1.363689E-8	NaN
615	1.000000	0.692560	7.37107e+06	-46339.1	1005.82	-29769.4	0.000000	0.000000	6.693016	-0.103252	NaN	0.000000	0.001547	0.001670	28.0812	0.033623	0.002131	15.777	95.194	16.1206	-0.092258	0.691198	-0.452000	-0.453362	-0.103252	15.777	-0.447092	-621402	1.661597E-7	NaN
615	1.000000	0.702590	7.37107e+06	-46339.1	1005.82	-29769.4	0.000000	0.000000	6.703050	0.003609	NaN	0.000000	0.001521	0.001687	28.0812	0.051162	0.002002	25.5584	27.402	-167.029	0.038827	0.701240	-0.441970	-0.443320	0.003609	25.5584	-0.442076	-528019	-6.835582E-9	NaN
615	1.000000	0.712576	7.37107e+06	-46339.1	1005.82	-29769.4	0.000000	0.000000	6.713034	-0.051655	NaN	0.000000	0.001552	0.001717	28.0811	0.066560	0.002082	31.9714	-26.1008	13.9358	-0.091568	0.711176	-0.431984	-0.433384	-0.051655	31.9714	-0.430772	-365582	1.412952E-7	NaN
615	1.000000	0.722580	7.37107e+06	-46339.1	1005.82	-29769.4	0.000000	0.000000	6.723044	0.120400	NaN	0.000000	0.001530	0.001728	28.0812	0.061822	0.002049	30.1725	-69.2601	-166.994	0.082875	0.721324	-0.421981	-0.423236	0.120400	30.1725	-0.424973	-302625	-3.978534E-7	NaN
615	1.000000	0.732568	7.37107e+06	-46339.1	1005.82	-29769.4	0.000000	0.000000	6.733027	-0.026551	NaN	0.000000	0.001524	0.001692	28.0812	0.127710	0.001880	67.9256	155.231	14.6839	-0.020646	0.731238	-0.411992	-0.413322	-0.026551	67.9256	-0.411699	-196135	1.353722E-7	NaN
615	1.000000	0.742581	7.37107e+06	-46339.1	1005.82	-29769.4	0.000000	0.000000	6.743041	0.019605	NaN	0.000000	0.001551	0.001684	28.081	0.079958	0.001948	41.0505	67.3596	-168.381	-0.066527	0.741296	-0.401979	-0.403264	0.019605	41.0505	-0.402338	-144318	-1.358447E-7	NaN
615	1.000000	0.752588	7.37107e+06	-46339.1	1005.82	-29769.4	0.000000	0.000000	6.753047	-0.002146	NaN	0.000000	0.001516	0.001658	28.0809	0.045318	0.001998	22.6797	154.849	15.6071	0.035969	0.751197	-0.391972	-0.393364	-0.002146	22.6797	-0.391901	-102413	2.095694E-8	NaN
615	1.000000	0.762591	7.37107e+06	-46339.1	1005.82	-29769.4	0.000000	0.000000	6.763050	-0.025341	NaN	0.000000	0.001570	0.001640	28.0811	0.068071	0.002007	33.9217	140.335	-169.225	-0.015982	0.761264	-0.381969	-0.383296	-0.025341	33.9217	-0.381409	-72460.9	3.497247E-7	NaN
615	1.000000	0.772601	7.37107e+06	-46339.1	1005.82	-29769.4	0.000000	0.000000	6.773063	0.052870	NaN	0.000000	0.001597	0.001732	28.0813	0.127348	0.001993	63.9053	-69.9751	15.0547	0.104734	0.771227	-0.371959	-0.373333	0.052870	63.9053	-0.372579	-54107.1	-9.771294E-7	NaN
615	1.000000	0.782592	7.37107e+06	-46339.1	1005.82	-29769.4	0.000000	0.000000	6.783049	-0.062092	NaN	0.000000	0.001559	0.001720	28.0812	0.018504	0.001973	9.378384	72.4345	-167.26	-0.039020	0.781286	-0.361968	-0.363274	-0.062092	9.378384	-0.357002	-32246.9	1.925521E-6	NaN
615	1.000000	0.792586	7.37107e+06	-46339.1	1005.82	-29769.4	0.000000	0.000000	6.793044	-0.040357	NaN	0.000000	0.001498	0.001692	28.0811	0.062364	0.002086	29.892	66.3885	14.9675	-0.015932	0.791213	-0.351974	-0.353347	-0.040357	29.892	-0.350962	-26360.6	1.530960E-6	NaN
615	1.000000	0.802609	7.37107e+06	-46339.1	1005.82	-29769.4	0.000000	0.000000	6.803067	-0.038816	NaN	0.000000	0.001495	0.001674	28.0825	0.176337	0.001969	89.555	-74.1358	-167.898	0.006961	0.801272	-0.341951	-0.343288	-0.038816	89.555	-0.341626	-19286.2	2.012610E-6	NaN
615	1.000000	0.812617	7.37107e+06	-46339.1	1005.82	-29769.4	0.000000	0.000000	6.813080	0.076562	NaN	0.000000	0.001554	0.001691	28.0826	0.018662	0.001967	9.487778	-160.631	14.5083	0.063839	0.811260	-0.331943	-0.333300	0.076562	9.487778	-0.337995	-17073.4	-4.484293E-6	NaN
615	1.000000	0.822604	7.37107e+06	-46339.1	1005.82	-29769.4	0.000000	0.000000	6.823064	0.015710	NaN	0.000000	0.001492	0.001682	28.0825	0.069335	0.001970	35.1946	-57.0417	-168.143	0.041186	0.821334	-0.321956	-0.323226	0.015710	35.1946	-0.322291	-10054.1	-1.562570E-6	NaN
615	1.000000	0.832616	7.37107e+06	-46339.1	1005.82	-29769.4	0.000000	0.000000	6.833077	0.041002	NaN	0.000000	0.001512	0.001698	28.0824	0.066594	0.002156	30.8817	66.6647	14.7071	0.040275	0.831292	-0.311944	-0.313268	0.041002	30.8817	-0.312940	-7320.3	-5.601148E-6	NaN
615	1.000000	0.842625	7.37107e+06	-46339.1	1005.82	-29769.4	0.000000	0.000000	6.843081	-0.098831	NaN	0.000000	0.001623	0.001646	28.0827	0.123219	0.001992	61.8576	-137.989	-168.621	-0.050816	0.841322	-0.301935	-0.303238	-0.098831	61.8576	-0.300737	-4826.15	2.047832E-5	NaN
615	1.000000	0.852670	7.37107e+06	-46339.1	1005.82	-29769.4	0.000000	0.000000	6.853129	-0.021221	NaN	0.000000	0.001606	0.001670	28.0825	0.125063	0.002021	61.8904	-23.3826	17.4605	-0.018678	0.851310	-0.291890	-0.293250	-0.021221	61.8904	-0.291633	-3529.8	6.011852E-6	NaN
615	1.000000	0.862656	7.37107e+06	-46339.1	1005.82	-29769.4	0.000000	0.000000	6.863115	-0.028102	NaN	0.000000	0.001575	0.001708	28.0825	0.120835	0.001931	62.5612	-171.013	-168.858	-0.036107	0.861305	-0.281904	-0.283255	-0.028102	62.5612	-0.281567	-2492.27	1.127555E-5	NaN
615	1.000000	0.872601	7.37107e+06	-46339.1	1005.82	-29769.4	0.000000	0.000000	6.873060	-0.010134	NaN	0.000000	0.001583	0.001705	28.0823	0.181300	0.001901	95.3551	145.249	10.6994	-0.045126	0.871238	-0.271959	-0.273322	-0.010134	95.3551	-0.271879	-1778.66	5.697345E-6	NaN
615	1.000000	0.882617	7.37107e+06	-46339.1	1005.82	-29769.4	0.000000	0.000000	6.883079	0.047455	NaN	0.000000	0.001575	0.001726	28.0829	0.038159	0.002069	18.4452	-100.501	-165.342	0.046811	0.881365	-0.261943	-0.263195	0.047455	18.4452	-0.263872	-1343.29	-3.532695E-5	NaN
615	1.000000	0.892636	7.37107e+06	-46339.1	1005.82	-29769.4	0.000000	0.000000	6.893095	-1.213235E-6	NaN	0.000000	0.001581	0.001699	28.0823	0.108834	0.002104	51.7195	-150.62	14.2829	-0.005784	0.891288	-0.251924	-0.253272	-1.213235E-6	51.7195	-0.251924	-880.44	1.377988E-9	NaN
615	1.000000	0.902631	7.37107e+06	-46339.1	1005.82	-29769.4	0.000000	0.000000	6.903091	0.014131	NaN	0.000000	0.001565	0.001670	28.0827	0.133576	0.002039	65.4991	-47.817	-166.37	-0.000671	0.901348	-0.241929	-0.243212	0.014131	65.4991	-0.242091	-619.687	-2.280293E-5	NaN
615	1.000000	0.912629	7.37107e+06	-46339.1	1005.82	-29769.4	0.000000	0.000000	6.913087	-0.030312	NaN	0.000000	0.001608	0.001676	28.0825	0.070922	0.002121	33.4331	160.707	10.8436	-0.001375	0.911362	-0.231931	-0.233198	-0.030312	33.4331	-0.231251	-419.048	7.233650E-5	NaN
615	1.000000	0.922631	7.37107e+06	-46339.1	1005.82	-29769.4	0.000000	0.000000	6.923090	0.000392	NaN	0.000000	0.001563	0.001691	28.0836	0.070968	0.001994	35.5825	-154.166	-165.768	-0.036313	0.921389	-0.221929	-0.223171	0.000392	35.5825	-0.221938	-298.266	-1.315486E-6	NaN
615	1.000000	0.932672	7.37107e+06	-46339.1	1005.82	-29769.4	0.000000	0.000000	6.933132	0.005809	NaN	0.000000	0.001538	0.001684	28.0819	0.075355	0.002039	36.9645	94.5567	15.6548	0.070143	0.931327	-0.211888	-0.213233	0.005809	36.9645	-0.212006	-206.662	-2.810929E-5	NaN
615	1.000000	0.942694	7.37107e+06	-46339.1	1005.82	-29769.4	0.000000	0.000000	6.943154	-0.008663	NaN	0.000000	0.001508	0.001698	28.0814	0.016082	0.001968	8.171752	-136.485	-164.802	-0.010724	0.941332	-0.201866	-0.203228	-0.008663	8.171752	-0.201071	-137.176	6.315113E-5	NaN
615	1.000000	0.952665	7.37107e+06	-46339.1	1005.82	-29769.4	0.000000	0.000000	6.953123	-0.033007	NaN	0.000000	0.001517	0.001685	28.0814	0.072016	0.001995	36.1033	-103.889	13.1889	-0.035647	0.951293	-0.191895	-0.193267	-0.033007	36.1033	-0.191209	-94.2341	0.000350	NaN
615	1.000000	0.962651	7.37107e+06	-46339.1	1005.82	-29769.4	0.000000	0.000000	6.963111	0.009014	NaN	0.000000	0.001527	0.001690	28.0815	0.031008	0.002040	15.2032	40.2372	-164.57	0.035597	0.961342	-0.181909	-0.183218	0.009014	15.2032	-0.182353	-66.8985	-0.000135	NaN
615	1.000000	0.972698	7.37107e+06	-46339.1	1005.82	-29769.4	0.000000	0.000000	6.973156	-0.035386	NaN	0.000000	0.001505	0.001690	28.0812	0.086390	0.002071	41.7127	-109.981	12.3799	-0.057275	0.971343	-0.171862	-0.173217	-0.035386	41.7127	-0.171226	-43.1398	0.000820	NaN
615	1.000000	0.982663	7.37107e+06	-46339.1	1005.82	-29769.4	0.000000	0.000000	6.983124	0.021948	NaN	0.000000	0.001489	0.001661	28.0814	0.039394	0.002069	19.036	-95.6372	-169.625	-0.009568	0.981394	-0.161897	-0.163166	0.021948	19.036	-0.162762	-30.683	-0.000715	NaN
615	1.000000	0.992696	7.37107e+06	-46339.1	1005.82	-29769.4	0.000000	0.000000	6.993155	-0.020997	NaN	0.000000	0.001477	0.001713	28.0813	0.027720	0.001811	15.3058	128.591	13.1006	-0.062707	0.991320	-0.151864	-0.153240	-0.020997	15.3058	-0.150835	-18.7593	0.001119	NaN
615	1.000000	1.002706	7.37107e+06	-46339.1	1005.82	-29769.4	0.000000	0.000000	7.003168	0.042062	NaN	0.000000	0.001489	0.001672	28.0811	0.031087	0.002011	15.4592	49.4825	-163.81	0.084589	1.001360	-0.141854	-0.143200	0.042062	15.4592	-0.143894	-13.9855	-0.003008	NaN
615	1.000000	1.012678	7.37107e+06	-46339.1	1005.82	-29769.4	0.000000	0.000000	7.013137	-0.019504	NaN	0.000000	0.001448	0.001699	28.0812	0.034851	0.002060	16.9206	-123.149	14.888	-0.070432	1.011360	-0.131882	-0.133200	-0.019504	16.9206	-0.131018	-7.975281	0.002446	NaN
615	1.000000	1.022694	7.37107e+06	-46339.1	1005.82	-29769.4	0.000000	0.000000	7.023158	0.097900	NaN	0.000000	0.001514	0.001693	28.0813	0.056447	0.002068	27.3013	-48.035	-167.049	0.005120	1.021361	-0.121866	-0.123199	0.097900	27.3013	-0.124555	-5.959207	-0.016428	NaN
615	1.000000	1.032706	7.37107e+06	-46339.1	1005.82	-29769.4	0.000000	0.000000	7.033164	-0.026862	NaN	0.000000	0.001559	0.001673	28.0814	0.039815	0.002004	19.8677	-92.39	14.8872	0.020142	1.031333	-0.111854	-0.113227	-0.026862	19.8677	-0.110840	-3.130073	0.008582	NaN
615	1.000000	1.042704	7.37107e+06	-46339.1	1005.82	-29769.4	0.000000	0.000000	7.043161	-0.054793	NaN	0.000000	0.001507	0.001729	28.0813	0.052873	0.002032	26.0222	-158.077	-164.894	-0.052654	1.041300	-0.101856	-0.103260	-0.054793	26.0222	-0.100277	-1.853141	0.029568	NaN
615	1.000000	1.052705	7.37107e+06	-46339.1	1005.82	-29769.4	0.000000	0.000000	7.053160	-0.111739	NaN	0.000000	0.001493	0.001727	28.0812	0.036975	0.002019	18.3164	-164.566	13.57	-0.069613	1.051392	-0.091855	-0.093168	-0.111739	18.3164	-0.087280	-0.932084	0.119881	NaN
615	1.000000	1.062702	7.37107e+06	-46339.1	1005.82	-29769.4	0.000000	0.000000	7.063162	0.004970	NaN	0.000000	0.001484	0.001725	28.0813	0.049845	0.002091	23.8348	105.544	-166.667	-0.017851	1.061360	-0.081858	-0.083200	0.004970	23.8348	-0.082014	-0.694566	-0.007156	NaN
615	1.000000	1.072715	7.37107e+06	-46339.1	1005.82	-29769.4	0.000000	0.000000	7.073173	-0.047461	NaN	0.000000	0.001550	0.001701	28.0824	0.134634	0.002039	66.0168	-120.925	11.2015	-0.086890	1.071356	-0.071845	-0.073204	-0.047461	66.0168	-0.071306	-0.369580	0.128418	NaN
615	1.000000	1.082737	7.37107e+06	-46339.1	1005.82	-29769.4	0.000000	0.000000	7.083197	0.005552	NaN	0.000000	0.001580	0.001660	28.0824	0.037820	0.001880	20.1143	55.0963	-168.405	-0.020372	1.081350	-0.061823	-0.063210	0.005552	20.1143	-0.062030	-0.205755	-0.026985	NaN
615	1.000000	1.092725	7.37107e+06	-46339.1	1005.82	-29769.4	0.000000	0.000000	7.093183	-0.043792	NaN	0.000000	0.001569	0.001690	28.0827	0.111787	0.001936	57.7463	-8.513823	15.7904	-0.078513	1.091379	-0.051835	-0.053181	-0.043792	57.7463	-0.051266	-0.099639	0.439504	NaN
615	1.000000	1.102750	7.37107e+06	-46339.1	1005.82	-29769.4	0.000000	0.000000	7.103208	-0.039798	NaN	0.000000	0.001578	0.001669	28.0826	0.075547	0.001917	39.4037	2.209069	-164.747	-0.136852	1.101417	-0.041810	-0.043143	-0.039798	39.4037	-0.041053	-0.048684	0.817476	NaN
615	1.000000	1.112721	7.37107e+06	-46339.1	1005.82	-29769.4	0.000000	0.000000	7.113180	-0.014014	NaN	0.000000	0.001555	0.001724	28.0826	0.064623	0.001951	33.1288	133.721	17.3594	-0.005722	1.111375	-0.031839	-0.033185	-0.014014	33.1288	-0.031521	-0.025397	0.551791	NaN
615	1.000000	1.122757	7.37107e+06	-46339.1	1005.82	-29769.4	0.000000	0.000000	7.123216	-0.024085	NaN	0.000000	0.001551	0.001662	28.0826	0.040757	0.002088	19.5154	-175.58	-164.614	0.018939	1.121432	-0.021803	-0.023128	-0.024085	19.5154	-0.020877	-0.013223	1.821478	NaN
615	1.000000	1.132718	7.37107e+06	-46339.1	1005.82	-29769.4	0.000000	0.000000	7.133175	-0.074423	NaN	0.000000	0.001566	0.001684	28.0826	0.032395	0.002107	15.3747	147.193	13.9792	-0.101565	1.131393	-0.011842	-0.013167	-0.074423	15.3747	-0.008212	-0.005355	13.8968	NaN
615	1.000000	1.142717	7.37107e+06	-46339.1	1005.82	-29769.4	0.000000	0.000000	7.143187	0.248510	NaN	0.000000	0.001562	0.001736	28.0829	0.539005	0.002001	269.4	11.6692	-164.251	-0.043720	1.141401	-0.001843	-0.003159	0.248510	269.4	-0.002535	-0.001807	-137.547	NaN
615	2.000000	1.151821	7.37107e+06	-46339.1	1005.82	-29769.4	0.000000	0.000000	7.152614	8.111946	NaN	0.000000	0.001522	0.001665	28.0823	8.347391	0.001650	5059.21	8.525998	8.714410	7.484875	1.151223	0.007261	0.006663	8.111946	5059.21	0.006058	0.005120	1584.32	64597.3
615	2.000000	1.154353	7.37107e+06	-46339.1	1005.82	-29769.4	0.000000	0.000000	7.155260	10.8691	NaN	0.000000	0.001563	0.001680	28.0825	11.5367	0.001623	7109.51	5.627184	-174.094	9.816763	1.154039	0.009793	0.009479	10.8691	7109.51	0.008646	0.007716	1408.71	73948.1
615	2.000000	1.156858	7.37107e+06	-46339.1	1005.82	-29769.4	0.000000	0.000000	7.157930	14.8866	NaN	0.000000	0.001550	0.001704	28.0824	13.7046	0.001694	8088.19	3.198191	8.036367	13.0999	1.156494	0.012298	0.011934	14.8866	8088.19	0.010918	0.010219	1456.73	73099.8
615	2.000000	1.159330	7.37107e+06	-46339.1	1005.82	-29769.4	0.000000	0.000000	7.160632	20.4813	NaN	0.000000	0.001527	0.001709	28.0825	16.3634	0.001699	9633.79	3.863783	-175.201	19.121	1.159011	0.014770	0.014451	20.4813	9633.79	0.013176	0.012929	1584.16	77409
615	2.000000	1.161794	7.37107e+06	-46339.1	1005.82	-29769.4	0.000000	0.000000	7.163236	23.8938	NaN	0.000000	0.001569	0.001692	28.0827	19.2343	0.001790	10748.3	1.242711	7.699117	22.4046	1.161459	0.017234	0.016899	23.8938	10748.3	0.015567	0.016049	1488.83	77516.1
615	2.000000	1.164308	7.37107e+06	-46339.1	1005.82	-29769.4	0.000000	0.000000	7.166030	30.7049	NaN	0.000000	0.001586	0.001660	28.0825	21.9072	0.001791	12233.9	4.405060	-177.019	29.4512	1.164009	0.019748	0.019449	30.7049	12233.9	0.017865	0.019298	1591.06	80459.9
615	2.000000	1.166816	7.37107e+06	-46339.1	1005.82	-29769.4	0.000000	0.000000	7.168824	37.669	NaN	0.000000	0.001562	0.001697	28.0815	23.8731	0.001749	13652.7	7.107049	0.733290	38.0472	1.166447	0.022255	0.021887	37.669	13652.7	0.020186	0.022836	1649.57	82544
615	2.000000	1.169304	7.37107e+06	-46339.1	1005.82	-29769.4	0.000000	0.000000	7.171557	43.6343	NaN	0.000000	0.001579	0.001690	28.0813	27.025	0.001731	15612.3	9.289922	175.333	44.3566	1.168957	0.024744	0.024397	43.6343	15612.3	0.022647	0.026874	1623.64	87010.2
615	2.000000	1.171775	7.37107e+06	-46339.1	1005.82	-29769.4	0.000000	0.000000	7.174420	53.1498	NaN	0.000000	0.001562	0.001690	28.0815	30.2536	0.001856	16298.4	6.085180	-1.818972	50.9131	1.171384	0.027215	0.026824	53.1498	16298.4	0.024770	0.030598	1737.05	85128.5
615	2.000000	1.174299	7.37107e+06	-46339.1	1005.82	-29769.4	0.000000	0.000000	7.177151	58.2081	NaN	0.000000	0.001576	0.001743	28.0812	32.2415	0.001849	17434.4	4.750270	179.467	57.7028	1.173994	0.029738	0.029434	58.2081	17434.4	0.027234	0.035206	1653.34	84892.5
615	2.000000	1.176784	7.37107e+06	-46339.1	1005.82	-29769.4	0.000000	0.000000	7.179919	65.0748	NaN	0.000000	0.001506	0.001651	28.0815	34.3972	0.001721	19985.4	8.201025	-6.046187	62.8626	1.176444	0.032224	0.031884	65.0748	19985.4	0.029782	0.040293	1615.04	90964.2
615	2.000000	1.179249	7.37107e+06	-46339.1	1005.82	-29769.4	0.000000	0.000000	7.182908	77.8395	NaN	0.000000	0.001495	0.001682	28.0813	35.5578	0.001732	20527.8	4.594238	177.837	75.924	1.178948	0.034689	0.034388	77.8395	20527.8	0.031845	0.044654	1743.17	88753.8
615	2.000000	1.181753	7.37107e+06	-46339.1	1005.82	-29769.4	0.000000	0.000000	7.185756	86.1907	NaN	0.000000	0.001487	0.001695	28.0817	39.2938	0.001845	21298.2	6.207250	-3.250922	85.9599	1.181385	0.037193	0.036825	86.1907	21298.2	0.034158	0.049803	1730.64	87194.4
615	2.000000	1.184249	7.37107e+06	-46339.1	1005.82	-29769.4	0.000000	0.000000	7.188778	98.9948	NaN	0.000000	0.001485	0.001693	28.0816	41.9075	0.001803	23249.4	6.781558	175.858	98.345	1.183885	0.039689	0.039325	98.9948	23249.4	0.036496	0.055286	1790.6	90339.5
615	2.000000	1.186781	7.37107e+06	-46339.1	1005.82	-29769.4	0.000000	0.000000	7.191876	112.752	NaN	0.000000	0.001486	0.001683	28.0826	43.0126	0.001805	23827.8	4.906393	-2.584601	111.975	1.186414	0.042221	0.041854	112.752	23827.8	0.038672	0.060641	1859.35	88404.5
615	2.000000	1.189297	7.37107e+06	-46339.1	1005.82	-29769.4	0.000000	0.000000	7.194674	119.61	NaN	0.000000	0.001546	0.001708	28.0815	45.355	0.001774	25564.8	4.006764	176.942	121.109	1.188984	0.044737	0.044424	119.61	25564.8	0.041228	0.067241	1778.84	90073.9
615	2.000000	1.191748	7.37107e+06	-46339.1	1005.82	-29769.4	0.000000	0.000000	7.197704	133.688	NaN	0.000000	0.001544	0.001667	28.082	48.8697	0.001700	28745.5	4.258382	-3.547952	133.596	1.191337	0.047188	0.046777	133.688	28745.5	0.043700	0.073940	1808.07	96583.6
615	2.000000	1.194169	7.37107e+06	-46339.1	1005.82	-29769.4	0.000000	0.000000	7.200633	146.064	NaN	0.000000	0.001521	0.001694	28.0815	51.9136	0.001827	28419.1	3.242115	176.532	141.196	1.193945	0.049609	0.049385	146.064	28419.1	0.045754	0.079743	1831.69	91947.1
615	2.000000	1.196683	7.37107e+06	-46339.1	1005.82	-29769.4	0.000000	0.000000	7.203591	156.852	NaN	0.000000	0.001510	0.001697	28.0815	53.4076	0.001723	30997.5	4.639606	-4.241739	151.408	1.196333	0.052123	0.051773	156.852	30997.5	0.048328	0.087315	1796.4	95842
615	2.000000	1.199263	7.37107e+06	-46339.1	1005.82	-29769.4	0.000000	0.000000	7.206757	171.099	NaN	0.000000	0.001522	0.001737	28.0821	56.2367	0.001889	29773.4	5.144786	175.339	169.691	1.198894	0.054703	0.054334	171.099	29773.4	0.050393	0.093632	1827.35	88897.3
615	2.000000	1.201680	7.37107e+06	-46339.1	1005.82	-29769.4	0.000000	0.000000	7.209643	182.532	NaN	0.000000	0.001487	0.001722	28.0828	57.8006	0.001751	33017.4	2.814877	-4.097396	177.93	1.201346	0.057120	0.056786	182.532	33017.4	0.052974	0.101825	1792.6	94534
615	2.000000	1.204219	7.37107e+06	-46339.1	1005.82	-29769.4	0.000000	0.000000	7.212935	200.839	NaN	0.000000	0.001512	0.001707	28.0829	61.4121	0.001786	34392	5.663045	174.012	199.125	1.203898	0.059659	0.059338	200.839	34392	0.055279	0.109427	1835.37	94988
615	2.000000	1.206778	7.37107e+06	-46339.1	1005.82	-29769.4	0.000000	0.000000	7.215970	212.43	NaN	0.000000	0.001530	0.001662	28.0827	62.5123	0.001763	35452.3	3.897569	-4.706465	210.75	1.206310	0.062218	0.061750	212.43	35452.3	0.057724	0.117772	1803.73	94383.6
615	2.000000	1.209134	7.37107e+06	-46339.1	1005.82	-29769.4	0.000000	0.000000	7.219174	233.049	NaN	0.000000	0.001530	0.001684	28.0827	65.1044	0.001787	36422.8	5.031977	172.898	228.594	1.208904	0.064574	0.064344	233.049	36422.8	0.059775	0.125003	1864.35	94121.1
615	2.000000	1.211696	7.37107e+06	-46339.1	1005.82	-29769.4	0.000000	0.000000	7.222218	244.771	NaN	0.000000	0.001535	0.001693	28.0834	67.4618	0.001733	38932.1	5.835621	-8.276957	240.964	1.211369	0.067136	0.066809	244.771	38932.1	0.062420	0.134630	1818.11	96941.8
615	2.000000	1.214204	7.37107e+06	-46339.1	1005.82	-29769.4	0.000000	0.000000	7.225397	261.087	NaN	0.000000	0.001538	0.001667	28.0828	69.9718	0.001737	40280.4	5.108410	172.522	260.674	1.213914	0.069644	0.069354	261.087	40280.4	0.064783	0.143516	1819.21	97144.1
615	2.000000	1.216660	7.37107e+06	-46339.1	1005.82	-29769.4	0.000000	0.000000	7.228514	277.161	NaN	0.000000	0.001536	0.001679	28.0829	72.0879	0.001934	37281.5	6.307745	-7.879664	271.87	1.216279	0.072100	0.071719	277.161	37281.5	0.066525	0.150239	1844.8	87877
615	2.000000	1.219226	7.37107e+06	-46339.1	1005.82	-29769.4	0.000000	0.000000	7.231695	292.128	NaN	0.000000	0.001500	0.001653	28.0827	73.7531	0.001752	42105.8	8.543663	168.513	291.556	1.218887	0.074666	0.074327	292.128	42105.8	0.069462	0.161907	1804.3	95605.3
615	2.000000	1.221760	7.37107e+06	-46339.1	1005.82	-29769.4	0.000000	0.000000	7.234771	305.313	NaN	0.000000	0.001527	0.001667	28.0827	76.2932	0.001791	42601.1	5.245631	-7.757052	305.642	1.221145	0.077200	0.076585	305.313	42601.1	0.071825	0.171591	1779.31	93960.7
615	2.000000	1.224185	7.37107e+06	-46339.1	1005.82	-29769.4	0.000000	0.000000	7.237879	321.927	NaN	0.000000	0.001493	0.001668	28.0826	80.0062	0.001758	45510.9	9.235345	167.323	319.033	1.223826	0.079625	0.079266	321.927	45510.9	0.074320	0.182102	1767.84	97438.7
615	2.000000	1.226677	7.37107e+06	-46339.1	1005.82	-29769.4	0.000000	0.000000	7.241119	340.127	NaN	0.000000	0.001525	0.001673	28.0827	80.8146	0.001852	43634.6	6.022544	-8.450720	334.114	1.226362	0.082117	0.081802	340.127	43634.6	0.076271	0.190527	1785.18	91332.4
615	2.000000	1.229202	7.37107e+06	-46339.1	1005.82	-29769.4	0.000000	0.000000	7.244421	359.041	NaN	0.000000	0.001566	0.001652	28.0827	83.3941	0.001821	45801.2	5.444750	171.765	358.283	1.228855	0.084642	0.084295	359.041	45801.2	0.078762	0.201547	1781.43	93210
615	2.000000	1.231678	7.37107e+06	-46339.1	1005.82	-29769.4	0.000000	0.000000	7.247710	378.803	NaN	0.000000	0.001526	0.001637	28.0827	86.0143	0.001823	47175	3.925976	-7.444235	375.133	1.231434	0.087118	0.086873	378.803	47175	0.081095	0.212128	1785.73	93580.6
615	2.000000	1.234166	7.37107e+06	-46339.1	1005.82	-29769.4	0.000000	0.000000	7.251186	402.826	NaN	0.000000	0.001553	0.001683	28.0813	88.3742	0.001847	47850.4	4.528820	172.22	399.284	1.233863	0.089606	0.089303	402.826	47850.4	0.083292	0.222321	1811.91	92719
615	2.000000	1.236616	7.37107e+06	-46339.1	1005.82	-29769.4	0.000000	0.000000	7.254335	419.85	NaN	0.000000	0.001524	0.001647	28.0814	89.0712	0.001683	52913.2	3.410924	-7.127675	413.168	1.236243	0.092056	0.091683	419.85	52913.2	0.086105	0.235700	1781.29	99576.7
615	2.000000	1.239209	7.37107e+06	-46339.1	1005.82	-29769.4	0.000000	0.000000	7.257807	441.227	NaN	0.000000	0.001574	0.001694	28.0814	91.4221	0.001736	52648.7	3.651306	171.968	442.342	1.238852	0.094649	0.094292	441.227	52648.7	0.088363	0.246707	1788.46	96843.4
615	2.000000	1.241650	7.37107e+06	-46339.1	1005.82	-29769.4	0.000000	0.000000	7.261107	462.129	NaN	0.000000	0.001566	0.001691	28.0812	95.4089	0.001766	54013.9	8.497794	-12.5932	457.82	1.241299	0.097090	0.096739	462.129	54013.9	0.090673	0.258205	1789.78	97117.3
615	2.000000	1.244180	7.37107e+06	-46339.1	1005.82	-29769.4	0.000000	0.000000	7.264503	483.197	NaN	0.000000	0.001576	0.001677	28.0813	97.553	0.001867	52243.5	5.161342	171.142	481.518	1.243832	0.099620	0.099271	483.197	52243.5	0.092683	0.268410	1800.22	92131
615	2.000000	1.246690	7.37107e+06	-46339.1	1005.82	-29769.4	0.000000	0.000000	7.267749	501.066	NaN	0.000000	0.001603	0.001647	28.0814	98.3347	0.001715	57341.6	6.081721	-10.6155	496.999	1.246327	0.102130	0.101767	501.066	57341.6	0.095577	0.283427	1767.89	98406.2
615	2.000000	1.249193	7.37107e+06	-46339.1	1005.82	-29769.4	0.000000	0.000000	7.271153	523.021	NaN	0.000000	0.001570	0.001681	28.0816	99.8188	0.001820	54851.2	3.516472	171.569	522.653	1.248876	0.104633	0.104315	523.021	54851.2	0.097481	0.293518	1781.9	92500.1
615	2.000000	1.250186	7.37107e+06	-46339.1	1005.82	-29769.4	0.000000	0.000000	7.272668	535.702	NaN	0.000000	0.001588	0.001678	28.0816	103.142	0.001771	58253.4	9.482010	165.48	534.21	1.249811	0.105626	0.105251	535.702	58253.4	0.098729	0.300219	1784.37	97134.9