File: remote_trans/data/nanoindenter/0828-1/data/Data_2025-08-06,11h17m57s/2025-07-22_16-23-58_1_494.txt
2025-07-22, 16:23:58, 1
Index	Phase	Displacement	Time	Pos X	Pos Y	Pos Z	Rot A	Rot B	Piezo Z	Force A	Force B	Gripper	Voltage A	Voltage B	Temperature	Amplitude force	Amplitude pos	Stiffness	Phase shift	Phase excitation	Force A raw	Displacement raw	HMax	HMax raw	Real Force	Real Stiffness	Contact Depth	Area	Hardness	Reduced Mod.
[#]	[#]	[um]	[s]	[um]	[um]	[um]	[m°]	[m°]	[um]	[uN]	[uN]	[V]	[V]	[V]	[°C]	[uN]	[um]	[N/m]	[°]	[°]	[uN]	[um]	[um]	[um]	[uN]	[N/m]	[um]	[um^2]	[MPa]	[MPa]
494	1.000000	0.002398	7.36988e+06	-52389.1	1005.82	-29749.4	0.000000	0.000000	6.002802	0.012409	NaN	0.000000	0.001668	0.001798	28.0831	0.051325	0.000836	61.4035	-101.468	-159.783	0.095273	0.001147	-1.111949	-1.113200	0.012409	61.4035	-1.112101	-7.285878E+14	-1.703127E-17	NaN
494	1.000000	0.012433	7.36988e+06	-52389.1	1005.82	-29749.4	0.000000	0.000000	6.012837	0.012585	NaN	0.000000	0.001641	0.001790	28.083	0.098698	0.001185	83.2837	137.227	18.8608	0.114349	0.011017	-1.101915	-1.103330	0.012585	83.2837	-1.102028	-5.336917E+14	-2.358049E-17	NaN
494	1.000000	0.022352	7.36988e+06	-52389.1	1005.82	-29749.4	0.000000	0.000000	6.022755	-0.016718	NaN	0.000000	0.001656	0.001774	28.0828	0.075904	0.001747	43.4407	-75.5169	-167.464	-0.036852	0.021109	-1.091995	-1.093238	-0.016718	43.4407	-1.091707	-3.879064E+14	4.309889E-17	NaN
494	1.000000	0.032363	7.36988e+06	-52389.1	1005.82	-29749.4	0.000000	0.000000	6.032767	0.007420	NaN	0.000000	0.001611	0.001787	28.0829	0.107510	0.001853	58.0213	15.8286	16.7135	0.107980	0.030977	-1.081985	-1.083371	0.007420	58.0213	-1.082081	-2.880465E+14	-2.575834E-17	NaN
494	1.000000	0.042362	7.36988e+06	-52389.1	1005.82	-29749.4	0.000000	0.000000	6.042766	0.000420	NaN	0.000000	0.001679	0.001732	28.083	0.041430	0.001996	20.7524	29.5898	-163.1	-0.069101	0.041060	-1.071985	-1.073288	0.000420	20.7524	-1.072000	-2.108941E+14	-1.991865E-18	NaN
494	1.000000	0.052358	7.36988e+06	-52389.1	1005.82	-29749.4	0.000000	0.000000	6.052763	0.045150	NaN	0.000000	0.001627	0.001807	28.0832	0.085939	0.001972	43.5761	88.405	10.5818	0.098372	0.050943	-1.061990	-1.063404	0.045150	43.5761	-1.062767	-1.584896E+14	-2.848762E-16	NaN
494	1.000000	0.062378	7.36988e+06	-52389.1	1005.82	-29749.4	0.000000	0.000000	6.062782	0.001148	NaN	0.000000	0.001615	0.001732	28.0826	0.127787	0.002011	63.5487	-88.4617	-163.897	0.115644	0.061032	-1.051969	-1.053316	0.001148	63.5487	-1.051983	-1.135185E+14	-1.011071E-17	NaN
494	1.000000	0.072350	7.36989e+06	-52389.1	1005.82	-29749.4	0.000000	0.000000	6.072754	0.000927	NaN	0.000000	0.001653	0.001770	28.0819	0.090760	0.002062	44.0155	-76.5828	16.4893	-0.089366	0.070955	-1.041997	-1.043393	0.000927	44.0155	-1.042013	-8.337369E+13	-1.112264E-17	NaN
494	1.000000	0.082351	7.36989e+06	-52389.1	1005.82	-29749.4	0.000000	0.000000	6.082756	0.029079	NaN	0.000000	0.001652	0.001797	28.0814	0.126643	0.001961	64.5943	100.175	-164.515	0.076433	0.081050	-1.031996	-1.033297	0.029079	64.5943	-1.032334	-6.178275E+13	-4.706695E-16	NaN
494	1.000000	0.092349	7.36989e+06	-52389.1	1005.82	-29749.4	0.000000	0.000000	6.092752	-0.025776	NaN	0.000000	0.001626	0.001790	28.0815	0.009999	0.001947	5.134427	57.1123	14.9821	0.011749	0.090974	-1.021999	-1.023373	-0.025776	5.134427	-1.018233	-3.991915E+13	6.457174E-16	NaN
494	1.000000	0.102360	7.36989e+06	-52389.1	1005.82	-29749.4	0.000000	0.000000	6.102767	0.084777	NaN	0.000000	0.001643	0.001775	28.0813	0.052144	0.001925	27.0835	150.852	-161.737	0.047217	0.101048	-1.011988	-1.013299	0.084777	27.0835	-1.014335	-3.537748E+13	-2.396366E-15	NaN
494	1.000000	0.112348	7.36989e+06	-52389.1	1005.82	-29749.4	0.000000	0.000000	6.112753	0.025130	NaN	0.000000	0.001635	0.001778	28.0816	0.004579	0.002001	2.287634	-76.8432	12.8367	0.042182	0.110959	-1.001999	-1.003388	0.025130	2.287634	-1.010238	-3.115931E+13	-8.065145E-16	NaN
494	1.000000	0.122381	7.36989e+06	-52389.1	1005.82	-29749.4	0.000000	0.000000	6.122783	-0.053126	NaN	0.000000	0.001618	0.001751	28.0814	0.018145	0.001948	9.316535	-42.9861	-165.775	-0.024935	0.121085	-0.991966	-0.993262	-0.053126	9.316535	-0.987689	-1.548777E+13	3.430218E-15	NaN
494	1.000000	0.132400	7.36989e+06	-52389.1	1005.82	-29749.4	0.000000	0.000000	6.132801	-0.064087	NaN	0.000000	0.001607	0.001776	28.0815	0.072591	0.002034	35.6919	31.5506	11.225	-0.054136	0.131074	-0.981947	-0.983273	-0.064087	35.6919	-0.980601	-1.243095E+13	5.155431E-15	NaN
494	1.000000	0.142373	7.36989e+06	-52389.1	1005.82	-29749.4	0.000000	0.000000	6.142776	-0.016034	NaN	0.000000	0.001571	0.001759	28.0814	0.042051	0.002030	20.7103	129.652	-164.957	-0.057316	0.141081	-0.971974	-0.973266	-0.016034	20.7103	-0.971394	-9.342139E+12	1.716319E-15	NaN
494	1.000000	0.152389	7.36989e+06	-52389.1	1005.82	-29749.4	0.000000	0.000000	6.152795	0.054128	NaN	0.000000	0.001552	0.001778	28.0818	0.068159	0.001918	35.5282	-82.495	16.0617	0.064740	0.151040	-0.961958	-0.963308	0.054128	35.5282	-0.963101	-7.222272E+12	-7.494570E-15	NaN
494	1.000000	0.162393	7.36989e+06	-52389.1	1005.82	-29749.4	0.000000	0.000000	6.162799	0.049424	NaN	0.000000	0.001571	0.001804	28.0815	0.123967	0.002042	60.6985	-34.5625	-162.653	-0.039953	0.161092	-0.951954	-0.953255	0.049424	60.6985	-0.952565	-5.207306E+12	-9.491258E-15	NaN
494	1.000000	0.172386	7.36989e+06	-52389.1	1005.82	-29749.4	0.000000	0.000000	6.172793	0.072462	NaN	0.000000	0.001607	0.001782	28.0815	0.039558	0.001857	21.2985	156.262	17.4674	0.048023	0.171042	-0.941961	-0.943305	0.072462	21.2985	-0.944513	-4.055268E+12	-1.786851E-14	NaN
494	1.000000	0.182394	7.36989e+06	-52389.1	1005.82	-29749.4	0.000000	0.000000	6.182797	-0.026895	NaN	0.000000	0.001588	0.001764	28.0816	0.111824	0.001983	56.3967	110.61	-167.976	-0.015077	0.181106	-0.931953	-0.933241	-0.026895	56.3967	-0.931596	-2.714754E+12	9.907132E-15	NaN
494	1.000000	0.192429	7.36989e+06	-52389.1	1005.82	-29749.4	0.000000	0.000000	6.192831	-0.042979	NaN	0.000000	0.001585	0.001734	28.0816	0.043415	0.001974	21.993	-96.1387	15.0817	0.001139	0.191048	-0.921918	-0.923299	-0.042979	21.993	-0.920452	-1.920061E+12	2.238422E-14	NaN
494	1.000000	0.202405	7.36989e+06	-52389.1	1005.82	-29749.4	0.000000	0.000000	6.202807	-0.034293	NaN	0.000000	0.001578	0.001760	28.0815	0.018187	0.002073	8.775074	71.0024	-164.656	-0.066205	0.201070	-0.911942	-0.913278	-0.034293	8.775074	-0.909011	-1.345272E+12	2.549138E-14	NaN
494	1.000000	0.212415	7.36989e+06	-52389.1	1005.82	-29749.4	0.000000	0.000000	6.212820	0.023203	NaN	0.000000	0.001532	0.001774	28.0828	0.039787	0.002168	18.3526	-40.5164	15.8538	0.075458	0.211075	-0.901932	-0.903272	0.023203	18.3526	-0.902880	-1.111683E+12	-2.087236E-14	NaN
494	1.000000	0.222448	7.36989e+06	-52389.1	1005.82	-29749.4	0.000000	0.000000	6.222853	0.023659	NaN	0.000000	0.001602	0.001782	28.0831	0.037208	0.002011	18.5061	155.919	-164.854	-0.015409	0.221115	-0.891899	-0.893232	0.023659	18.5061	-0.892858	-8.138485E+11	-2.907095E-14	NaN
494	1.000000	0.232405	7.36989e+06	-52389.1	1005.82	-29749.4	0.000000	0.000000	6.232811	0.044840	NaN	0.000000	0.001623	0.001773	28.0828	0.027597	0.002115	13.051	-129.143	16.1736	0.074902	0.231043	-0.881942	-0.883304	0.044840	13.051	-0.884519	-6.277889E+11	-7.142602E-14	NaN
494	1.000000	0.242425	7.36989e+06	-52389.1	1005.82	-29749.4	0.000000	0.000000	6.242829	-0.000785	NaN	0.000000	0.001632	0.001771	28.0829	0.061039	0.002029	30.0832	-7.596799	-169.12	-0.030880	0.241143	-0.871922	-0.873205	-0.000785	30.0832	-0.871903	-4.238250E+11	1.851372E-15	NaN
494	1.000000	0.252433	7.36989e+06	-52389.1	1005.82	-29749.4	0.000000	0.000000	6.252835	-0.046664	NaN	0.000000	0.001583	0.001743	28.083	0.006015	0.001921	3.131281	58.8575	20.2654	-0.016940	0.251059	-0.861915	-0.863288	-0.046664	3.131281	-0.850738	-2.191434E+11	2.129384E-13	NaN
494	1.000000	0.262443	7.36989e+06	-52389.1	1005.82	-29749.4	0.000000	0.000000	6.262846	-0.022756	NaN	0.000000	0.001619	0.001758	28.0827	0.088819	0.001964	45.2187	146.675	-166.461	-0.046128	0.261101	-0.851904	-0.853246	-0.022756	45.2187	-0.851526	-2.245984E+11	1.013172E-13	NaN
494	1.000000	0.272439	7.36989e+06	-52389.1	1005.82	-29749.4	0.000000	0.000000	6.272841	-0.063769	NaN	0.000000	0.001599	0.001773	28.0827	0.098240	0.001924	51.0652	-76.5184	16.7071	-0.071489	0.271087	-0.841908	-0.843260	-0.063769	51.0652	-0.840971	-1.616038E+11	3.946024E-13	NaN
494	1.000000	0.282435	7.36989e+06	-52389.1	1005.82	-29749.4	0.000000	0.000000	6.282839	-0.011509	NaN	0.000000	0.001572	0.001763	28.0827	0.072615	0.001976	36.745	-150.833	-162.806	-0.058574	0.281159	-0.831912	-0.833188	-0.011509	36.745	-0.831677	-1.209240E+11	9.517815E-14	NaN
494	1.000000	0.292418	7.36989e+06	-52389.1	1005.82	-29749.4	0.000000	0.000000	6.292825	0.061230	NaN	0.000000	0.001604	0.001748	28.0828	0.080902	0.001990	40.6527	57.3738	15.3795	0.031414	0.291130	-0.821929	-0.823218	0.061230	40.6527	-0.823058	-9.240239E+10	-6.626504E-13	NaN
494	1.000000	0.302409	7.36989e+06	-52389.1	1005.82	-29749.4	0.000000	0.000000	6.302808	-0.108547	NaN	0.000000	0.001635	0.001756	28.0827	0.032123	0.001927	16.6697	-71.4523	-165.814	-0.120050	0.301177	-0.811938	-0.813171	-0.108547	16.6697	-0.807055	-5.605408E+10	1.936466E-12	NaN
494	1.000000	0.312459	7.36989e+06	-52389.1	1005.82	-29749.4	0.000000	0.000000	6.312863	-0.010361	NaN	0.000000	0.001637	0.001742	28.0826	0.035503	0.001874	18.943	79.1181	17.1736	0.025694	0.311070	-0.801888	-0.803278	-0.010361	18.943	-0.801478	-4.708924E+10	2.200324E-13	NaN
494	1.000000	0.322489	7.36989e+06	-52389.1	1005.82	-29749.4	0.000000	0.000000	6.322894	0.024275	NaN	0.000000	0.001602	0.001798	28.0829	0.090102	0.002110	42.6978	43.8359	-163.363	0.060598	0.321196	-0.791858	-0.793151	0.024275	42.6978	-0.792285	-3.532729E+10	-6.871496E-13	NaN
494	1.000000	0.332463	7.36989e+06	-52389.1	1005.82	-29749.4	0.000000	0.000000	6.332867	0.004531	NaN	0.000000	0.001592	0.001737	28.0827	0.122075	0.002051	59.5177	-93.4876	19.828	0.073999	0.331060	-0.781884	-0.783287	0.004531	59.5177	-0.781942	-2.556309E+10	-1.772504E-13	NaN
494	1.000000	0.342486	7.36989e+06	-52389.1	1005.82	-29749.4	0.000000	0.000000	6.342889	-0.012440	NaN	0.000000	0.001661	0.001766	28.0826	0.082822	0.002092	39.5887	-26.2857	-162.036	-0.010327	0.341158	-0.771862	-0.773190	-0.012440	39.5887	-0.771626	-1.851024E+10	6.720752E-13	NaN
494	1.000000	0.352500	7.36989e+06	-52389.1	1005.82	-29749.4	0.000000	0.000000	6.352905	0.021001	NaN	0.000000	0.001643	0.001743	28.0815	0.042237	0.002046	20.6471	9.645779	14.0266	-0.002860	0.351070	-0.761847	-0.763278	0.021001	20.6471	-0.762610	-1.395732E+10	-1.504650E-12	NaN
494	1.000000	0.362478	7.36989e+06	-52389.1	1005.82	-29749.4	0.000000	0.000000	6.362883	0.004923	NaN	0.000000	0.001636	0.001791	28.0819	0.139561	0.001964	71.0486	-55.704	-162.863	0.011472	0.361134	-0.751869	-0.753214	0.004923	71.0486	-0.751921	-9.985373E+9	-4.930320E-13	NaN
494	1.000000	0.372488	7.36989e+06	-52389.1	1005.82	-29749.4	0.000000	0.000000	6.372893	0.025478	NaN	0.000000	0.001609	0.001784	28.0816	0.110270	0.002038	54.1141	-44.0447	15.6328	-0.080018	0.371136	-0.741859	-0.743212	0.025478	54.1141	-0.742213	-7.365297E+9	-3.459256E-12	NaN
494	1.000000	0.382476	7.36989e+06	-52389.1	1005.82	-29749.4	0.000000	0.000000	6.382882	0.036481	NaN	0.000000	0.001543	0.001761	28.0818	0.053933	0.002040	26.4418	140.341	-164.136	0.061249	0.381175	-0.731871	-0.733172	0.036481	26.4418	-0.732906	-5.500535E+9	-6.632300E-12	NaN
494	1.000000	0.392487	7.36989e+06	-52389.1	1005.82	-29749.4	0.000000	0.000000	6.392890	-0.017896	NaN	0.000000	0.001572	0.001770	28.0816	0.023866	0.001951	12.2307	-56.6612	13.537	-0.019286	0.391122	-0.721860	-0.723226	-0.017896	12.2307	-0.720763	-3.757300E+9	4.762891E-12	NaN
494	1.000000	0.402496	7.36989e+06	-52389.1	1005.82	-29749.4	0.000000	0.000000	6.402897	-0.068380	NaN	0.000000	0.001621	0.001813	28.0821	0.051291	0.002181	23.5134	-114.164	-165.896	-0.027501	0.401174	-0.711851	-0.713173	-0.068380	23.5134	-0.709670	-2.651836E+9	2.578584E-11	NaN
494	1.000000	0.412481	7.36989e+06	-52389.1	1005.82	-29749.4	0.000000	0.000000	6.412886	0.010386	NaN	0.000000	0.001613	0.001814	28.0817	0.115923	0.002199	52.7171	167.651	15.2724	-0.017448	0.411197	-0.701866	-0.703150	0.010386	52.7171	-0.702014	-2.084639E+9	-4.981953E-12	NaN
494	1.000000	0.422489	7.36989e+06	-52389.1	1005.82	-29749.4	0.000000	0.000000	6.422890	-0.067628	NaN	0.000000	0.001674	0.001803	28.0817	0.124114	0.002048	60.6122	-126.551	-163.623	-0.029219	0.421212	-0.691858	-0.693136	-0.067628	60.6122	-0.691021	-1.475283E+9	4.584074E-11	NaN
494	1.000000	0.432515	7.36989e+06	-52389.1	1005.82	-29749.4	0.000000	0.000000	6.432918	-0.026296	NaN	0.000000	0.001658	0.001776	28.082	0.037707	0.001999	18.859	147.299	18.6148	-0.002011	0.431190	-0.681832	-0.683157	-0.026296	18.859	-0.680786	-1.068958E+9	2.459938E-11	NaN
494	1.000000	0.442504	7.36989e+06	-52389.1	1005.82	-29749.4	0.000000	0.000000	6.442909	0.035330	NaN	0.000000	0.001668	0.001824	28.0819	0.042102	0.002008	20.9669	-127.296	-160.973	0.056375	0.441203	-0.671843	-0.673145	0.035330	20.9669	-0.673107	-8.392894E+8	-4.209537E-11	NaN
494	1.000000	0.452516	7.36989e+06	-52389.1	1005.82	-29749.4	0.000000	0.000000	6.452920	0.008950	NaN	0.000000	0.001690	0.001810	28.0817	0.042651	0.002043	20.8788	68.5935	19.2839	0.019839	0.451183	-0.661831	-0.663164	0.008950	20.8788	-0.662153	-5.942264E+8	-1.506152E-11	NaN
494	1.000000	0.462526	7.36989e+06	-52389.1	1005.82	-29749.4	0.000000	0.000000	6.462932	0.050235	NaN	0.000000	0.001667	0.001798	28.0818	0.207219	0.001980	104.646	-11.1788	-165.362	0.031613	0.461222	-0.651822	-0.653125	0.050235	104.646	-0.652182	-4.338523E+8	-1.157886E-10	NaN
494	1.000000	0.472531	7.36989e+06	-52389.1	1005.82	-29749.4	0.000000	0.000000	6.472934	-0.030400	NaN	0.000000	0.001657	0.001783	28.0821	0.062814	0.001982	31.6917	126.766	16.2542	-0.085005	0.471138	-0.641816	-0.643210	-0.030400	31.6917	-0.641096	-3.057255E+8	9.943463E-11	NaN
494	1.000000	0.482513	7.36989e+06	-52389.1	1005.82	-29749.4	0.000000	0.000000	6.482919	0.038802	NaN	0.000000	0.001707	0.001766	28.0831	0.076496	0.001960	39.0311	102.718	-165.174	-0.002430	0.481162	-0.631834	-0.633185	0.038802	39.0311	-0.632580	-2.335846E+8	-1.661135E-10	NaN
494	1.000000	0.492511	7.36989e+06	-52389.1	1005.82	-29749.4	0.000000	0.000000	6.492914	-0.026919	NaN	0.000000	0.001686	0.001794	28.0831	0.095998	0.002016	47.6164	120.476	14.3625	0.018452	0.491167	-0.621836	-0.623180	-0.026919	47.6164	-0.621412	-1.640754E+8	1.640636E-10	NaN
494	1.000000	0.502546	7.36989e+06	-52389.1	1005.82	-29749.4	0.000000	0.000000	6.502949	-0.013750	NaN	0.000000	0.001683	0.001793	28.0832	0.007874	0.002082	3.781962	-148.81	-164.346	-0.024876	0.501206	-0.611802	-0.613142	-0.013750	3.781962	-0.609075	-1.110160E+8	1.238527E-10	NaN
494	1.000000	0.512550	7.36989e+06	-52389.1	1005.82	-29749.4	0.000000	0.000000	6.512951	-0.049994	NaN	0.000000	0.001688	0.001822	28.0832	0.035172	0.001997	17.6129	-14.146	15.1941	-0.083824	0.511185	-0.601798	-0.603162	-0.049994	17.6129	-0.599669	-8.239473E+7	6.067578E-10	NaN
494	1.000000	0.522538	7.36989e+06	-52389.1	1005.82	-29749.4	0.000000	0.000000	6.522942	-0.007265	NaN	0.000000	0.001703	0.001799	28.0833	0.121156	0.002104	57.5931	-96.1712	-164.476	-0.007014	0.521246	-0.591809	-0.593101	-0.007265	57.5931	-0.591715	-6.401803E+7	1.134767E-10	NaN
494	1.000000	0.532537	7.36989e+06	-52389.1	1005.82	-29749.4	0.000000	0.000000	6.532939	-0.041883	NaN	0.000000	0.001683	0.001819	28.0831	0.113679	0.002139	53.1464	88.365	17.4975	-0.018293	0.531185	-0.581811	-0.583162	-0.041883	53.1464	-0.581219	-4.587283E+7	9.130261E-10	NaN
494	1.000000	0.542579	7.36989e+06	-52389.1	1005.82	-29749.4	0.000000	0.000000	6.542985	0.054958	NaN	0.000000	0.001648	0.001796	28.0834	0.102995	0.002077	49.5924	70.4221	-166.584	0.099544	0.541241	-0.571768	-0.573106	0.054958	49.5924	-0.572600	-3.487753E+7	-1.575732E-9	NaN
494	1.000000	0.552558	7.36989e+06	-52389.1	1005.82	-29749.4	0.000000	0.000000	6.552963	0.010406	NaN	0.000000	0.001651	0.001749	28.0833	0.079381	0.002028	39.1451	-129.703	14.0437	-0.064151	0.551184	-0.561789	-0.563163	0.010406	39.1451	-0.561988	-2.488174E+7	-4.182072E-10	NaN
494	1.000000	0.562547	7.36989e+06	-52389.1	1005.82	-29749.4	0.000000	0.000000	6.562953	0.051064	NaN	0.000000	0.001658	0.001807	28.0831	0.118467	0.001910	62.0298	-51.5243	-163.043	-0.013693	0.561220	-0.551800	-0.553128	0.051064	62.0298	-0.552418	-1.834170E+7	-2.784046E-9	NaN
494	1.000000	0.572551	7.36989e+06	-52389.1	1005.82	-29749.4	0.000000	0.000000	6.572956	0.026950	NaN	0.000000	0.001664	0.001791	28.0833	0.034995	0.001941	18.0278	160.248	12.5471	0.016525	0.571177	-0.541796	-0.543170	0.026950	18.0278	-0.542918	-1.354609E+7	-1.989519E-9	NaN
494	1.000000	0.582593	7.36989e+06	-52389.1	1005.82	-29749.4	0.000000	0.000000	6.582996	-0.021257	NaN	0.000000	0.001681	0.001772	28.0832	0.010898	0.001983	5.495939	-64.0513	-164.727	0.006687	0.581296	-0.531754	-0.533051	-0.021257	5.495939	-0.528853	-8.64271e+06	2.459541E-9	NaN
494	1.000000	0.592587	7.36989e+06	-52389.1	1005.82	-29749.4	0.000000	0.000000	6.592994	0.061700	NaN	0.000000	0.001643	0.001779	28.0831	0.109937	0.001957	56.1849	-146.179	15.0432	0.038198	0.591154	-0.521760	-0.523193	0.061700	56.1849	-0.522584	-7.07171e+06	-8.724849E-9	NaN
494	1.000000	0.602574	7.36989e+06	-52389.1	1005.82	-29749.4	0.000000	0.000000	6.602975	-0.070983	NaN	0.000000	0.001705	0.001790	28.0829	0.080588	0.002006	40.1768	178.654	-168.78	-0.021561	0.601256	-0.511773	-0.513091	-0.070983	40.1768	-0.510448	-4.79351e+06	1.480820E-8	NaN
494	1.000000	0.612574	7.36989e+06	-52389.1	1005.82	-29749.4	0.000000	0.000000	6.612976	-0.038831	NaN	0.000000	0.001678	0.001801	28.0829	0.045836	0.002027	22.6141	-134.747	17.9364	0.005445	0.611233	-0.501774	-0.503114	-0.038831	22.6141	-0.500486	-3.48172e+06	1.115287E-8	NaN
494	1.000000	0.622600	7.36989e+06	-52389.1	1005.82	-29749.4	0.000000	0.000000	6.623009	0.122118	NaN	0.000000	0.001684	0.001796	28.0817	0.039874	0.002035	19.5894	-96.6886	-166.05	0.084940	0.621259	-0.491747	-0.493088	0.122118	19.5894	-0.496422	-3.05558e+06	-3.996555E-8	NaN
494	1.000000	0.632603	7.36989e+06	-52389.1	1005.82	-29749.4	0.000000	0.000000	6.633006	-0.020012	NaN	0.000000	0.001650	0.001792	28.0817	0.008348	0.002047	4.077913	1.906165	13.4389	-0.032808	0.631267	-0.481745	-0.483080	-0.020012	4.077913	-0.478064	-1.69208e+06	1.182708E-8	NaN
494	1.000000	0.642605	7.36989e+06	-52389.1	1005.82	-29749.4	0.000000	0.000000	6.643011	0.041951	NaN	0.000000	0.001661	0.001773	28.0818	0.061460	0.002024	30.3666	116.536	-164.736	0.043960	0.641275	-0.471742	-0.473072	0.041951	30.3666	-0.472778	-1.4268e+06	-2.940239E-8	NaN
494	1.000000	0.652630	7.36989e+06	-52389.1	1005.82	-29749.4	0.000000	0.000000	6.653036	0.069527	NaN	0.000000	0.001680	0.001776	28.0821	0.048283	0.002011	24.0075	-7.100217	15.0862	0.023933	0.651253	-0.461718	-0.463094	0.069527	24.0075	-0.463890	-1.07067e+06	-6.493761E-8	NaN
494	1.000000	0.662607	7.36989e+06	-52389.1	1005.82	-29749.4	0.000000	0.000000	6.663012	0.035772	NaN	0.000000	0.001660	0.001783	28.0818	0.092021	0.001948	47.2357	84.6111	-165.136	-0.024829	0.661329	-0.451740	-0.453018	0.035772	47.2357	-0.452308	-735940	-4.860743E-8	NaN
494	1.000000	0.672650	7.36989e+06	-52389.1	1005.82	-29749.4	0.000000	0.000000	6.673053	-0.008669	NaN	0.000000	0.001626	0.001770	28.0817	0.058123	0.002044	28.4348	-160.864	16.7882	-0.009394	0.671297	-0.441697	-0.443050	-0.008669	28.4348	-0.441469	-517713	1.674468E-8	NaN
494	1.000000	0.682616	7.36989e+06	-52389.1	1005.82	-29749.4	0.000000	0.000000	6.683017	-0.062739	NaN	0.000000	0.001622	0.001794	28.0816	0.033204	0.001959	16.9472	-179	-163.666	-0.103775	0.681309	-0.431731	-0.433038	-0.062739	16.9472	-0.428955	-344564	1.820819E-7	NaN
494	1.000000	0.692613	7.36989e+06	-52389.1	1005.82	-29749.4	0.000000	0.000000	6.693014	-0.066179	NaN	0.000000	0.001649	0.001831	28.0818	0.064748	0.002111	30.6701	-54.103	14.2007	0.005373	0.691230	-0.421735	-0.423117	-0.066179	30.6701	-0.420116	-258265	2.562439E-7	NaN
494	1.000000	0.702619	7.36989e+06	-52389.1	1005.82	-29749.4	0.000000	0.000000	6.703023	-0.003987	NaN	0.000000	0.001651	0.001781	28.0816	0.118914	0.002076	57.2781	-117.771	-164.545	-0.017262	0.701321	-0.411728	-0.413026	-0.003987	57.2781	-0.411676	-195986	2.034535E-8	NaN
494	1.000000	0.712629	7.36989e+06	-52389.1	1005.82	-29749.4	0.000000	0.000000	6.713030	-0.063767	NaN	0.000000	0.001590	0.001764	28.0818	0.032979	0.002063	15.9858	-88.4653	16.9105	0.011910	0.711260	-0.401718	-0.403088	-0.063767	15.9858	-0.398726	-128182	4.974710E-7	NaN
494	1.000000	0.722632	7.36989e+06	-52389.1	1005.82	-29749.4	0.000000	0.000000	6.723035	-0.022815	NaN	0.000000	0.001534	0.001769	28.0819	0.072515	0.001968	36.8507	45.4998	-163.079	-0.044313	0.721300	-0.391715	-0.393047	-0.022815	36.8507	-0.391251	-100243	2.275934E-7	NaN
494	1.000000	0.732612	7.36989e+06	-52389.1	1005.82	-29749.4	0.000000	0.000000	6.733017	0.027391	NaN	0.000000	0.001551	0.001826	28.0818	0.104628	0.001844	56.7409	64.7682	15.7094	0.111666	0.731296	-0.381735	-0.383051	0.027391	56.7409	-0.382097	-74126.2	-3.695168E-7	NaN
494	1.000000	0.742635	7.36989e+06	-52389.1	1005.82	-29749.4	0.000000	0.000000	6.743040	0.028541	NaN	0.000000	0.001590	0.001852	28.0815	0.012083	0.002005	6.026613	106.734	-161.363	-0.019813	0.741354	-0.371712	-0.372993	0.028541	6.026613	-0.375264	-59138.4	-4.826065E-7	NaN
494	1.000000	0.752644	7.36989e+06	-52389.1	1005.82	-29749.4	0.000000	0.000000	6.753049	0.043391	NaN	0.000000	0.001592	0.001787	28.0833	0.140166	0.001978	70.867	154.078	15.6589	0.016078	0.751253	-0.361703	-0.363094	0.043391	70.867	-0.362163	-38290.9	-1.133207E-6	NaN
494	1.000000	0.762648	7.36989e+06	-52389.1	1005.82	-29749.4	0.000000	0.000000	6.763049	-0.056337	NaN	0.000000	0.001600	0.001796	28.083	0.133388	0.002019	66.0663	-148.119	-168.182	-0.081034	0.761360	-0.351699	-0.352987	-0.056337	66.0663	-0.351060	-26447.3	2.130167E-6	NaN
494	1.000000	0.772652	7.36989e+06	-52389.1	1005.82	-29749.4	0.000000	0.000000	6.773055	-0.017987	NaN	0.000000	0.001646	0.001752	28.083	0.101931	0.001944	52.4222	155.87	14.3241	0.058127	0.771319	-0.341695	-0.343028	-0.017987	52.4222	-0.341438	-19164.9	9.385589E-7	NaN
494	1.000000	0.782622	7.36989e+06	-52389.1	1005.82	-29749.4	0.000000	0.000000	6.783023	-0.048297	NaN	0.000000	0.001644	0.001770	28.0829	0.072308	0.001992	36.3043	-39.8631	-164.166	-0.057273	0.781319	-0.331726	-0.333029	-0.048297	36.3043	-0.330728	-13369.3	3.612520E-6	NaN
494	1.000000	0.792649	7.36989e+06	-52389.1	1005.82	-29749.4	0.000000	0.000000	6.793054	0.022889	NaN	0.000000	0.001642	0.001778	28.0833	0.105154	0.001912	55.0091	-30.4055	14.9255	0.071603	0.791352	-0.321698	-0.322995	0.022889	55.0091	-0.322010	-9958.83	-2.298396E-6	NaN
494	1.000000	0.802649	7.36989e+06	-52389.1	1005.82	-29749.4	0.000000	0.000000	6.803053	-0.009882	NaN	0.000000	0.001622	0.001761	28.083	0.111474	0.002006	55.5659	-6.583996	-163.605	-0.011511	0.801334	-0.311698	-0.313013	-0.009882	55.5659	-0.311565	-6985.6	1.414651E-6	NaN
494	1.000000	0.812683	7.36989e+06	-52389.1	1005.82	-29749.4	0.000000	0.000000	6.813090	0.075762	NaN	0.000000	0.001653	0.001786	28.083	0.112215	0.002015	55.698	-80.5486	17.4097	-0.014762	0.811296	-0.301664	-0.303051	0.075762	55.698	-0.302684	-5158.96	-1.468559E-5	NaN
494	1.000000	0.822643	7.36989e+06	-52389.1	1005.82	-29749.4	0.000000	0.000000	6.823046	-0.027233	NaN	0.000000	0.001647	0.001791	28.083	0.087071	0.001933	45.0413	-29.9916	-162.134	0.060192	0.821370	-0.291704	-0.292978	-0.027233	45.0413	-0.291251	-3483.63	7.817480E-6	NaN
494	1.000000	0.832672	7.36989e+06	-52389.1	1005.82	-29749.4	0.000000	0.000000	6.833074	-0.036157	NaN	0.000000	0.001650	0.001797	28.0831	0.048812	0.002019	24.1769	-97.4837	15.0742	-0.027263	0.831288	-0.281675	-0.283059	-0.036157	24.1769	-0.280554	-2406.14	1.502705E-5	NaN
494	1.000000	0.842696	7.36989e+06	-52389.1	1005.82	-29749.4	0.000000	0.000000	6.843100	-0.010707	NaN	0.000000	0.001651	0.001809	28.0831	0.070824	0.001997	35.4692	-32.6665	-165.449	0.024092	0.841370	-0.271651	-0.272978	-0.010707	35.4692	-0.271425	-1750.6	6.116437E-6	NaN
494	1.000000	0.852707	7.36989e+06	-52389.1	1005.82	-29749.4	0.000000	0.000000	6.853113	0.052130	NaN	0.000000	0.001665	0.001778	28.0828	0.007512	0.002155	3.486035	26.1193	15.1832	0.035897	0.851347	-0.261640	-0.263001	0.052130	3.486035	-0.272856	-1840.37	-2.832599E-5	NaN
494	1.000000	0.862701	7.36989e+06	-52389.1	1005.82	-29749.4	0.000000	0.000000	6.863107	0.052591	NaN	0.000000	0.001626	0.001790	28.0831	0.058840	0.002049	28.7175	79.9741	-165.416	0.059439	0.861362	-0.251647	-0.252985	0.052591	28.7175	-0.253020	-915.392	-5.745172E-5	NaN
494	1.000000	0.872705	7.36989e+06	-52389.1	1005.82	-29749.4	0.000000	0.000000	6.873106	-0.066554	NaN	0.000000	0.001626	0.001854	28.0828	0.113439	0.001880	60.3536	-157.067	13.7921	-0.048453	0.871356	-0.241643	-0.242991	-0.066554	60.3536	-0.240816	-591.953	0.000112	NaN
494	1.000000	0.882662	7.36989e+06	-52389.1	1005.82	-29749.4	0.000000	0.000000	6.883067	0.030559	NaN	0.000000	0.001665	0.001781	28.0828	0.065350	0.002051	31.8551	111.198	-166.879	0.024167	0.881385	-0.231686	-0.232962	0.030559	31.8551	-0.232405	-436.963	-6.993443E-5	NaN
494	1.000000	0.892712	7.36989e+06	-52389.1	1005.82	-29749.4	0.000000	0.000000	6.893118	0.040771	NaN	0.000000	0.001626	0.001785	28.0817	0.047569	0.002057	23.1215	-89.4705	10.4348	0.002814	0.891361	-0.221635	-0.222986	0.040771	23.1215	-0.222957	-309.635	-0.000132	NaN
494	1.000000	0.902702	7.36989e+06	-52389.1	1005.82	-29749.4	0.000000	0.000000	6.903107	0.007603	NaN	0.000000	0.001615	0.001797	28.082	0.011373	0.001950	5.831931	-33.3467	-166.609	0.018347	0.901404	-0.211645	-0.212944	0.007603	5.831931	-0.212623	-211.453	-3.595641E-5	NaN
494	1.000000	0.912701	7.36989e+06	-52389.1	1005.82	-29749.4	0.000000	0.000000	6.913103	-0.034481	NaN	0.000000	0.001660	0.001796	28.0818	0.039625	0.001949	20.3261	-155.02	17.3658	0.001082	0.911389	-0.201647	-0.202958	-0.034481	20.3261	-0.200374	-133.614	0.000258	NaN
494	1.000000	0.922694	7.36989e+06	-52389.1	1005.82	-29749.4	0.000000	0.000000	6.923099	0.032285	NaN	0.000000	0.001664	0.001789	28.0817	0.099275	0.002118	46.861	168.889	-165.963	-0.027707	0.921397	-0.191653	-0.192950	0.032285	46.861	-0.192170	-97.7712	-0.000330	NaN
494	1.000000	0.932693	7.36989e+06	-52389.1	1005.82	-29749.4	0.000000	0.000000	6.933096	-0.036941	NaN	0.000000	0.001651	0.001783	28.0819	0.093588	0.002027	46.1682	-169.088	18.8988	-0.043129	0.931390	-0.181654	-0.182957	-0.036941	46.1682	-0.181054	-63.588	0.000581	NaN
494	1.000000	0.942690	7.36989e+06	-52389.1	1005.82	-29749.4	0.000000	0.000000	6.943094	0.013629	NaN	0.000000	0.001660	0.001745	28.082	0.085137	0.001975	43.1174	-15.9057	-161.998	-0.054402	0.941420	-0.171658	-0.172927	0.013629	43.1174	-0.171895	-44.3045	-0.000308	NaN
494	1.000000	0.952709	7.36989e+06	-52389.1	1005.82	-29749.4	0.000000	0.000000	6.953115	0.051939	NaN	0.000000	0.001658	0.001809	28.0817	0.067684	0.001792	37.7742	101.623	13.4332	0.101918	0.951335	-0.161638	-0.163012	0.051939	37.7742	-0.162670	-30.5685	-0.001699	NaN
494	1.000000	0.962715	7.36989e+06	-52389.1	1005.82	-29749.4	0.000000	0.000000	6.963117	-0.040774	NaN	0.000000	0.001629	0.001816	28.0819	0.120660	0.001938	62.2631	-93.7725	-161.934	-0.093374	0.961403	-0.151632	-0.152945	-0.040774	62.2631	-0.151141	-19.0013	0.002146	NaN
494	1.000000	0.972739	7.36989e+06	-52389.1	1005.82	-29749.4	0.000000	0.000000	6.973142	-0.036830	NaN	0.000000	0.001636	0.001792	28.082	0.094192	0.002111	44.6285	169.62	12.3011	-0.053458	0.971389	-0.141608	-0.142958	-0.036830	44.6285	-0.140989	-12.3457	0.002983	NaN
494	1.000000	0.982749	7.36989e+06	-52389.1	1005.82	-29749.4	0.000000	0.000000	6.983151	-0.053076	NaN	0.000000	0.001654	0.001792	28.0819	0.064704	0.002061	31.3987	92.2074	-164.335	0.014328	0.981461	-0.131598	-0.132886	-0.053076	31.3987	-0.130330	-7.734400	0.006862	NaN
494	1.000000	0.992733	7.36989e+06	-52389.1	1005.82	-29749.4	0.000000	0.000000	6.993137	0.021182	NaN	0.000000	0.001622	0.001748	28.0818	0.139042	0.002025	68.6515	-71.6327	16.5007	0.005633	0.991367	-0.121615	-0.122980	0.021182	68.6515	-0.121846	-5.262631	-0.004025	NaN
494	1.000000	1.002705	7.36989e+06	-52389.1	1005.82	-29749.4	0.000000	0.000000	7.003109	0.002928	NaN	0.000000	0.001622	0.001701	28.082	0.060543	0.001999	30.2936	-90.4867	-165.845	-0.012195	1.001431	-0.111643	-0.112916	0.002928	30.2936	-0.111715	-3.265086	-0.000897	NaN
494	1.000000	1.012761	7.36989e+06	-52389.1	1005.82	-29749.4	0.000000	0.000000	7.013166	0.027058	NaN	0.000000	0.001642	0.001702	28.0816	0.114629	0.001985	57.7456	-78.3199	15.2897	0.022523	1.011436	-0.101586	-0.102912	0.027058	57.7456	-0.101938	-2.016094	-0.013421	NaN
494	1.000000	1.022772	7.36989e+06	-52389.1	1005.82	-29749.4	0.000000	0.000000	7.023177	0.035219	NaN	0.000000	0.001664	0.001756	28.0817	0.091829	0.001914	47.9782	102.908	-164.75	0.078895	1.021454	-0.091576	-0.092893	0.035219	47.9782	-0.092126	-1.211673	-0.029066	NaN
494	1.000000	1.032781	7.36989e+06	-52389.1	1005.82	-29749.4	0.000000	0.000000	7.033183	-0.048042	NaN	0.000000	0.001590	0.001735	28.0829	0.103788	0.002026	51.2326	-166.663	14.0383	0.044539	1.031364	-0.081566	-0.082983	-0.048042	51.2326	-0.080863	-0.650427	0.073862	NaN
494	1.000000	1.042768	7.36989e+06	-52389.1	1005.82	-29749.4	0.000000	0.000000	7.043181	0.232319	NaN	0.000000	0.001636	0.001730	28.0831	0.258860	0.001850	139.908	22.9326	-164.876	0.143614	1.041417	-0.071579	-0.072930	0.232319	139.908	-0.072825	-0.405340	-0.573147	NaN
494	1.000000	1.052767	7.36989e+06	-52389.1	1005.82	-29749.4	0.000000	0.000000	7.053188	0.414933	NaN	0.000000	0.001625	0.001775	28.083	0.398885	0.001970	202.473	26.1781	12.6641	0.384555	1.051411	-0.061580	-0.062936	0.414933	202.473	-0.063117	-0.220807	-1.879163	NaN
494	1.000000	1.062769	7.36989e+06	-52389.1	1005.82	-29749.4	0.000000	0.000000	7.063205	0.776156	NaN	0.000000	0.001597	0.001780	28.0829	0.902790	0.002032	444.319	30.7174	-164.698	0.780770	1.061401	-0.051578	-0.052946	0.776156	444.319	-0.052888	-0.111449	-6.964240	NaN
494	1.000000	1.072740	7.36989e+06	-52389.1	1005.82	-29749.4	0.000000	0.000000	7.073201	1.380394	NaN	0.000000	0.001640	0.001749	28.0831	1.589318	0.001973	805.652	25.9272	13.7569	1.200099	1.071436	-0.041607	-0.042911	1.380394	805.652	-0.042892	-0.055404	-24.9152	NaN
494	1.000000	1.082764	7.36989e+06	-52389.1	1005.82	-29749.4	0.000000	0.000000	7.083265	2.364322	NaN	0.000000	0.001603	0.001744	28.0833	2.531295	0.002016	1255.63	20.0451	-164.988	2.147776	1.081457	-0.031583	-0.032890	2.364322	1255.63	-0.032995	-0.027989	-84.4724	NaN
494	1.000000	1.092742	7.36989e+06	-52389.1	1005.82	-29749.4	0.000000	0.000000	7.093294	3.615015	NaN	0.000000	0.001578	0.001756	28.0831	3.513166	0.001839	1910.84	21.6574	13.3236	3.476276	1.091457	-0.021606	-0.022890	3.615015	1910.84	-0.023025	-0.014998	-241.029	NaN
494	1.000000	1.102798	7.36989e+06	-52389.1	1005.82	-29749.4	0.000000	0.000000	7.103373	4.165805	NaN	0.000000	0.001575	0.001741	28.0831	4.221236	0.002040	2068.78	24.2078	-171.113	4.248011	1.101452	-0.011549	-0.012896	4.165805	2068.78	-0.013060	-0.008137	-511.977	NaN
494	1.000000	1.112803	7.36989e+06	-52389.1	1005.82	-29749.4	0.000000	0.000000	7.113421	5.207088	NaN	0.000000	0.001576	0.001742	28.0831	5.617867	0.001920	2925.78	21.3677	9.044960	4.807724	1.111357	-0.001544	-0.002990	5.207088	2925.78	-0.002879	-0.002039	-2553.53	NaN
494	2.000000	1.120373	7.36989e+06	-52389.1	1005.82	-29749.4	0.000000	0.000000	7.121099	7.812117	NaN	0.000000	0.001607	0.001746	28.0833	8.482563	0.001920	4418.11	13.0353	-170.734	7.951917	1.120043	0.006026	0.005696	7.812117	4418.11	0.004700	0.003861	2023.17	64959.3
494	2.000000	1.122824	7.36989e+06	-52389.1	1005.82	-29749.4	0.000000	0.000000	7.123707	11.6429	NaN	0.000000	0.001585	0.001769	28.0835	11.5074	0.001705	6748.51	5.907515	9.547761	11.4211	1.122473	0.008477	0.008125	11.6429	6748.51	0.007183	0.006215	1873.3	78208.8
494	2.000000	1.125234	7.36989e+06	-52389.1	1005.82	-29749.4	0.000000	0.000000	7.126351	17.3485	NaN	0.000000	0.001585	0.001720	28.0831	14.4084	0.001507	9563.45	7.095662	-176.258	16.4794	1.124943	0.010886	0.010595	17.3485	9563.45	0.009526	0.008659	2003.44	93895.6
494	2.000000	1.127714	7.36989e+06	-52389.1	1005.82	-29749.4	0.000000	0.000000	7.128988	21.1402	NaN	0.000000	0.001606	0.001730	28.0838	17.5919	0.001718	10239.4	6.387057	6.108565	19.0641	1.127411	0.013367	0.013064	21.1402	10239.4	0.011819	0.011273	1875.22	88108.8
494	2.000000	1.130265	7.36989e+06	-52389.1	1005.82	-29749.4	0.000000	0.000000	7.131786	27.1599	NaN	0.000000	0.001602	0.001701	28.0824	21.2752	0.001800	11818.8	5.706861	-176.293	26.1591	1.130010	0.015918	0.015663	27.1599	11818.8	0.014195	0.014226	1909.13	90531.6
494	2.000000	1.132773	7.36989e+06	-52389.1	1005.82	-29749.4	0.000000	0.000000	7.134636	35.4817	NaN	0.000000	0.001596	0.001731	28.0822	23.0613	0.001638	14082.6	4.615282	3.972746	34.4892	1.132438	0.018426	0.018091	35.4817	14082.6	0.016536	0.017389	2040.5	97571.3
494	2.000000	1.135212	7.36989e+06	-52389.1	1005.82	-29749.4	0.000000	0.000000	7.137324	41.5204	NaN	0.000000	0.001580	0.001724	28.0818	26.1926	0.001731	15132	3.869816	-176.372	39.3991	1.134900	0.020865	0.020553	41.5204	15132	0.018807	0.020702	2005.61	96086.4
494	2.000000	1.137693	7.36989e+06	-52389.1	1005.82	-29749.4	0.000000	0.000000	7.140265	52.7157	NaN	0.000000	0.001579	0.001749	28.0826	29.2265	0.001859	15718.7	5.688671	1.839777	50.1153	1.137405	0.023346	0.023058	52.7157	15718.7	0.020831	0.023865	2208.94	92963.5
494	2.000000	1.140239	7.36989e+06	-52389.1	1005.82	-29749.4	0.000000	0.000000	7.143091	59.5334	NaN	0.000000	0.001549	0.001748	28.0819	31.2517	0.001783	17525.7	4.850091	-178.683	59.8594	1.140028	0.025891	0.025680	59.5334	17525.7	0.023344	0.028071	2120.8	95569.4
494	2.000000	1.142725	7.36989e+06	-52389.1	1005.82	-29749.4	0.000000	0.000000	7.146065	71.3753	NaN	0.000000	0.001519	0.001778	28.0825	32.4726	0.001742	18643.5	4.038430	2.695415	70.7107	1.142358	0.028378	0.028011	71.3753	18643.5	0.025507	0.031944	2234.37	95302.2
494	2.000000	1.145241	7.36989e+06	-52389.1	1005.82	-29749.4	0.000000	0.000000	7.148797	76.6365	NaN	0.000000	0.001532	0.001733	28.0819	35.2388	0.001677	21009.2	5.240914	179.884	78.0189	1.144945	0.030894	0.030597	76.6365	21009.2	0.028158	0.037013	2070.55	99771.8
494	2.000000	1.147706	7.36989e+06	-52389.1	1005.82	-29749.4	0.000000	0.000000	7.151541	83.4459	NaN	0.000000	0.001528	0.001739	28.0822	36.8289	0.001806	20394.3	1.925512	3.300804	81.0515	1.147429	0.033358	0.033082	83.4459	20394.3	0.030290	0.041346	2018.22	91635.7
494	2.000000	1.150131	7.36989e+06	-52389.1	1005.82	-29749.4	0.000000	0.000000	7.154168	88.3228	NaN	0.000000	0.001618	0.001722	28.082	39.5113	0.001754	22520	2.270448	-178.644	85.2437	1.149940	0.035784	0.035593	88.3228	22520	0.032843	0.046842	1885.55	95065.7
494	2.000000	1.152754	7.36989e+06	-52389.1	1005.82	-29749.4	0.000000	0.000000	7.157328	101.403	NaN	0.000000	0.001610	0.001766	28.083	40.9959	0.001745	23489.2	3.454651	0.906126	99.6921	1.152315	0.038407	0.037968	101.403	23489.2	0.035169	0.052140	1944.83	93984.5
494	2.000000	1.155151	7.36989e+06	-52389.1	1005.82	-29749.4	0.000000	0.000000	7.159954	106.958	NaN	0.000000	0.001593	0.001781	28.0818	43.8206	0.001789	24491.9	7.161329	176.033	104.922	1.154900	0.040804	0.040552	106.958	24491.9	0.037529	0.057797	1850.57	93076.8
494	2.000000	1.157661	7.36989e+06	-52389.1	1005.82	-29749.4	0.000000	0.000000	7.162898	117.532	NaN	0.000000	0.001617	0.001721	28.0823	45.8485	0.001829	25063.4	4.608654	-0.890111	115.426	1.157315	0.043313	0.042968	117.532	25063.4	0.039796	0.063503	1850.82	90869.3
494	2.000000	1.160108	7.36989e+06	-52389.1	1005.82	-29749.4	0.000000	0.000000	7.165678	125.611	NaN	0.000000	0.001608	0.001747	28.0818	47.3167	0.001853	25539.7	4.668442	178.967	121.236	1.159822	0.045761	0.045475	125.611	25539.7	0.042072	0.069494	1807.51	88514.6
494	2.000000	1.162758	7.36989e+06	-52389.1	1005.82	-29749.4	0.000000	0.000000	7.168529	130.509	NaN	0.000000	0.001635	0.001735	28.0828	48.9202	0.001761	27780.9	6.610027	-4.240928	131.359	1.162342	0.048410	0.047995	130.509	27780.9	0.044887	0.077267	1689.07	91311.1
494	2.000000	1.165166	7.36989e+06	-52389.1	1005.82	-29749.4	0.000000	0.000000	7.171226	137.518	NaN	0.000000	0.001594	0.001744	28.0831	51.7051	0.001839	28115.7	6.050810	176.231	137.418	1.164863	0.050819	0.050516	137.518	28115.7	0.047150	0.083809	1640.85	88731.2
494	2.000000	1.167695	7.36989e+06	-52389.1	1005.82	-29749.4	0.000000	0.000000	7.174124	146.491	NaN	0.000000	0.001621	0.001723	28.0839	53.7459	0.001918	28020.8	5.474513	-3.279554	144.123	1.167282	0.053348	0.052935	146.491	28020.8	0.049427	0.090649	1616.02	85029.7
494	2.000000	1.170162	7.36989e+06	-52389.1	1005.82	-29749.4	0.000000	0.000000	7.176959	155.455	NaN	0.000000	0.001645	0.001733	28.0829	55.7199	0.001887	29522.8	4.575443	177.002	152.939	1.169927	0.055815	0.055580	155.455	29522.8	0.051866	0.098267	1581.97	86045.4
494	2.000000	1.172624	7.36989e+06	-52389.1	1005.82	-29749.4	0.000000	0.000000	7.179926	167.719	NaN	0.000000	0.001598	0.001765	28.0836	57.0313	0.001817	31388.6	4.511141	-3.697011	162.03	1.172311	0.058277	0.057964	167.719	31388.6	0.054269	0.106065	1581.29	88056
494	2.000000	1.175197	7.36989e+06	-52389.1	1005.82	-29749.4	0.000000	0.000000	7.182892	177.285	NaN	0.000000	0.001566	0.001744	28.0831	58.8704	0.001788	32930	5.018137	175.905	177.896	1.174874	0.060850	0.060527	177.285	32930	0.056812	0.114625	1546.65	88863.8
494	2.000000	1.177661	7.36989e+06	-52389.1	1005.82	-29749.4	0.000000	0.000000	7.185724	186.237	NaN	0.000000	0.001605	0.001707	28.0836	61.6995	0.001859	33196.3	4.042712	-3.316029	184.658	1.177318	0.063314	0.062971	186.237	33196.3	0.059106	0.122622	1518.79	86612.1
494	2.000000	1.180078	7.36989e+06	-52389.1	1005.82	-29749.4	0.000000	0.000000	7.188737	200.722	NaN	0.000000	0.001631	0.001705	28.0831	63.7893	0.001855	34385.9	5.457836	175.243	195.299	1.179837	0.065731	0.065489	200.722	34385.9	0.061353	0.130704	1535.69	86897.7
494	2.000000	1.182696	7.36989e+06	-52389.1	1005.82	-29749.4	0.000000	0.000000	7.192098	218.785	NaN	0.000000	0.001640	0.001735	28.0833	65.1147	0.001781	36558	6.450559	-5.621538	217.803	1.182248	0.068349	0.067901	218.785	36558	0.063860	0.140013	1562.6	89262.9
494	2.000000	1.185245	7.36989e+06	-52389.1	1005.82	-29749.4	0.000000	0.000000	7.194628	218.325	NaN	0.000000	0.001574	0.001701	28.0831	67.396	0.001822	36986.4	3.632728	176.437	223.201	1.184906	0.070898	0.070559	218.325	36986.4	0.066470	0.150027	1455.24	87243
494	2.000000	1.187712	7.36989e+06	-52389.1	1005.82	-29749.4	0.000000	0.000000	7.197671	232.346	NaN	0.000000	0.001619	0.001727	28.0833	68.8692	0.001806	38138.3	1.805530	-2.420201	232.886	1.187398	0.073365	0.073051	232.346	38138.3	0.068795	0.159222	1459.25	87323.8
494	2.000000	1.190186	7.36989e+06	-52389.1	1005.82	-29749.4	0.000000	0.000000	7.200932	251.463	NaN	0.000000	0.001630	0.001744	28.0832	71.7091	0.001818	39451.2	7.100455	172.513	252.339	1.189799	0.075838	0.075452	251.463	39451.2	0.071058	0.168418	1493.09	87829.2
494	2.000000	1.192739	7.36989e+06	-52389.1	1005.82	-29749.4	0.000000	0.000000	7.203903	261.612	NaN	0.000000	0.001577	0.001749	28.0833	73.6908	0.001774	41544.9	8.993367	-10.1606	263.392	1.192293	0.078392	0.077946	261.612	41544.9	0.073669	0.179333	1458.81	89631.6
494	2.000000	1.195277	7.36989e+06	-52389.1	1005.82	-29749.4	0.000000	0.000000	7.206956	274.151	NaN	0.000000	0.001626	0.001737	28.0833	75.4306	0.001841	40980.3	10.6068	169.345	278.644	1.194654	0.080930	0.080307	274.151	40980.3	0.075912	0.188966	1450.79	86130.3
494	2.000000	1.197618	7.36989e+06	-52389.1	1005.82	-29749.4	0.000000	0.000000	7.209712	284.241	NaN	0.000000	0.001550	0.001727	28.0831	75.4201	0.001768	42653	2.715430	-3.510516	282.355	1.197341	0.083270	0.082994	284.241	42653	0.078272	0.199358	1425.79	87278.3
494	2.000000	1.200059	7.36989e+06	-52389.1	1005.82	-29749.4	0.000000	0.000000	7.212700	297.538	NaN	0.000000	0.001518	0.001724	28.0818	78.1818	0.001609	48589.6	2.541862	175.33	292.416	1.199811	0.085712	0.085464	297.538	48589.6	0.081120	0.212239	1401.9	96361.5
494	2.000000	1.202648	7.36989e+06	-52389.1	1005.82	-29749.4	0.000000	0.000000	7.215687	307.222	NaN	0.000000	0.001573	0.001732	28.0816	81.0333	0.001829	44310.1	4.943248	-6.296996	304.519	1.202438	0.088301	0.088091	307.222	44310.1	0.083101	0.221426	1387.47	86032.4
494	2.000000	1.205109	7.36989e+06	-52389.1	1005.82	-29749.4	0.000000	0.000000	7.219151	331.604	NaN	0.000000	0.001524	0.001730	28.082	84.1462	0.001863	45160.1	7.354867	170.897	329.284	1.204760	0.090762	0.090412	331.604	45160.1	0.085255	0.231618	1431.69	85731.9
494	2.000000	1.207565	7.36989e+06	-52389.1	1005.82	-29749.4	0.000000	0.000000	7.222180	345.523	NaN	0.000000	0.001521	0.001763	28.0816	86.257	0.001828	47180.8	4.910671	-6.699032	340.835	1.207290	0.093218	0.092943	345.523	47180.8	0.087726	0.243576	1418.55	87341.7
494	2.000000	1.210145	7.36989e+06	-52389.1	1005.82	-29749.4	0.000000	0.000000	7.225483	363.108	NaN	0.000000	0.001507	0.001787	28.0816	88.8281	0.001787	49714.9	6.773777	171.475	362.272	1.209755	0.095798	0.095408	363.108	49714.9	0.090320	0.256433	1416	89696
494	2.000000	1.212653	7.36989e+06	-52389.1	1005.82	-29749.4	0.000000	0.000000	7.228272	369.952	NaN	0.000000	0.001491	0.001740	28.0816	90.3427	0.001791	50441.9	4.658679	-7.056011	367.338	1.212374	0.098306	0.098027	369.952	50441.9	0.092805	0.269037	1375.1	88850.2
494	2.000000	1.215123	7.36989e+06	-52389.1	1005.82	-29749.4	0.000000	0.000000	7.231591	390.589	NaN	0.000000	0.001543	0.001732	28.0819	92.5076	0.001823	50757.3	7.014568	170.689	389.715	1.214745	0.100776	0.100397	390.589	50757.3	0.095004	0.280427	1392.84	87571.3
494	2.000000	1.217555	7.36989e+06	-52389.1	1005.82	-29749.4	0.000000	0.000000	7.234841	410.472	NaN	0.000000	0.001534	0.001762	28.0816	93.9887	0.001771	53062.8	6.655862	-9.402034	406.747	1.217207	0.103208	0.102860	410.472	53062.8	0.097406	0.293118	1400.37	89545.1
494	2.000000	1.218075	7.36989e+06	-52389.1	1005.82	-29749.4	0.000000	0.000000	7.235569	415.531	NaN	0.000000	0.001516	0.001740	28.0817	94.4624	0.001812	52122.1	5.945494	171.304	412.766	1.217703	0.103728	0.103356	415.531	52122.1	0.097749	0.294951	1408.82	87683.9