File: remote_trans/data/nanoindenter/0828-1/data/Data_2025-08-06,11h17m57s/2025-07-22_16-23-58_1_1188.txt
2025-07-22, 16:23:58, 1
Index	Phase	Displacement	Time	Pos X	Pos Y	Pos Z	Rot A	Rot B	Piezo Z	Force A	Force B	Gripper	Voltage A	Voltage B	Temperature	Amplitude force	Amplitude pos	Stiffness	Phase shift	Phase excitation	Force A raw	Displacement raw	HMax	HMax raw	Real Force	Real Stiffness	Contact Depth	Area	Hardness	Reduced Mod.
[#]	[#]	[um]	[s]	[um]	[um]	[um]	[m°]	[m°]	[um]	[uN]	[uN]	[V]	[V]	[V]	[°C]	[uN]	[um]	[N/m]	[°]	[°]	[uN]	[um]	[um]	[um]	[uN]	[N/m]	[um]	[um^2]	[MPa]	[MPa]
1188	1.000000	0.002397	7.37666e+06	-56189.1	1105.82	-29739.5	0.000000	0.000000	6.002778	-0.011273	NaN	0.000000	0.001581	0.001693	28.0809	0.055128	0.000991	55.6305	125.652	-172.876	-0.035693	0.001146	-1.061796	-1.063047	-0.011273	55.6305	-1.061644	-1.530782E+14	7.364329E-17	NaN
1188	1.000000	0.010386	7.37666e+06	-56189.1	1105.82	-29739.5	0.000000	0.000000	6.010766	-0.031394	NaN	0.000000	0.001627	0.001699	28.0807	0.025097	0.000961	26.103	177.665	-158.287	-0.014181	0.009055	-1.053807	-1.055138	-0.031394	26.103	-1.052905	-1.168057E+14	2.687706E-16	NaN
1188	1.000000	0.018378	7.37666e+06	-56189.1	1105.82	-29739.5	0.000000	0.000000	6.018761	0.021722	NaN	0.000000	0.001622	0.001685	28.0807	0.059698	0.001731	34.4822	-142.755	-164.529	0.058644	0.017053	-1.045815	-1.047140	0.021722	34.4822	-1.046287	-9.517104E+13	-2.282369E-16	NaN
1188	1.000000	0.026406	7.37666e+06	-56189.1	1105.82	-29739.5	0.000000	0.000000	6.026788	0.021415	NaN	0.000000	0.001639	0.001691	28.0805	0.104087	0.001772	58.7296	54.7228	-165.637	0.011341	0.025032	-1.037787	-1.039161	0.021415	58.7296	-1.038061	-7.377145E+13	-2.902851E-16	NaN
1188	1.000000	0.034356	7.37666e+06	-56189.1	1105.82	-29739.5	0.000000	0.000000	6.034738	-0.001167	NaN	0.000000	0.001635	0.001699	28.0805	0.053928	0.001992	27.0716	66.4152	-164.386	0.009097	0.033037	-1.029837	-1.031156	-0.001167	27.0716	-1.029804	-5.712816E+13	2.042984E-17	NaN
1188	1.000000	0.042364	7.37666e+06	-56189.1	1105.82	-29739.5	0.000000	0.000000	6.042748	0.060040	NaN	0.000000	0.001637	0.001716	28.0802	0.066589	0.001817	36.6399	169.006	-169.651	0.045779	0.041052	-1.021829	-1.023142	0.060040	36.6399	-1.023058	-4.635439E+13	-1.295232E-15	NaN
1188	1.000000	0.050379	7.37666e+06	-56189.1	1105.82	-29739.5	0.000000	0.000000	6.050760	-0.029146	NaN	0.000000	0.001626	0.001689	28.0802	0.060334	0.001859	32.4531	-164.878	-165.901	0.019663	0.049045	-1.013814	-1.015148	-0.029146	32.4531	-1.013140	-3.409115E+13	8.549533E-16	NaN
1188	1.000000	0.058389	7.37666e+06	-56189.1	1105.82	-29739.5	0.000000	0.000000	6.058771	0.013919	NaN	0.000000	0.001626	0.001687	28.0816	0.040556	0.001900	21.3488	-21.2344	-166.608	-0.044355	0.057065	-1.005804	-1.007128	0.013919	21.3488	-1.006293	-2.757340E+13	-5.047868E-16	NaN
1188	1.000000	0.066373	7.37666e+06	-56189.1	1105.82	-29739.5	0.000000	0.000000	6.066755	0.014509	NaN	0.000000	0.001610	0.001690	28.0813	0.048440	0.002197	22.053	-142.523	-165.868	0.109475	0.065145	-0.997820	-0.999048	0.014509	22.053	-0.998314	-2.153115E+13	-6.738710E-16	NaN
1188	1.000000	0.074381	7.37666e+06	-56189.1	1105.82	-29739.5	0.000000	0.000000	6.074761	-0.031516	NaN	0.000000	0.001611	0.001678	28.0815	0.052245	0.002099	24.8963	106.925	-166.948	0.084229	0.073072	-0.989812	-0.991121	-0.031516	24.8963	-0.988863	-1.606195E+13	1.962177E-15	NaN
1188	1.000000	0.082348	7.37666e+06	-56189.1	1105.82	-29739.5	0.000000	0.000000	6.082729	-0.003967	NaN	0.000000	0.001641	0.001690	28.0815	0.039684	0.002223	17.8524	136.113	-163.255	-0.007692	0.081091	-0.981845	-0.983102	-0.003967	17.8524	-0.981679	-1.285364E+13	3.086354E-16	NaN
1188	1.000000	0.090392	7.37666e+06	-56189.1	1105.82	-29739.5	0.000000	0.000000	6.090774	0.000374	NaN	0.000000	0.001626	0.001703	28.0817	0.095558	0.002202	43.3887	60.0428	-167.076	-0.059661	0.089068	-0.973801	-0.975125	0.000374	43.3887	-0.973808	-1.006874E+13	-3.713733E-17	NaN
1188	1.000000	0.098385	7.37666e+06	-56189.1	1105.82	-29739.5	0.000000	0.000000	6.098766	-0.029022	NaN	0.000000	0.001622	0.001713	28.0817	0.102074	0.001779	57.3655	-42.8079	-165.469	0.030538	0.097095	-0.965808	-0.967098	-0.029022	57.3655	-0.965429	-7.763335E+12	3.738350E-15	NaN
1188	1.000000	0.106390	7.37666e+06	-56189.1	1105.82	-29739.5	0.000000	0.000000	6.106771	-0.016564	NaN	0.000000	0.001635	0.001721	28.0815	0.082311	0.001998	41.1905	-146.061	-163.815	-0.065417	0.105057	-0.957803	-0.959136	-0.016564	41.1905	-0.957501	-6.069878E+12	2.728887E-15	NaN
1188	1.000000	0.114412	7.37666e+06	-56189.1	1105.82	-29739.5	0.000000	0.000000	6.114793	-0.014297	NaN	0.000000	0.001622	0.001698	28.0813	0.111128	0.001901	58.4519	79.1675	-168.064	-0.006488	0.113073	-0.949781	-0.951120	-0.014297	58.4519	-0.949597	-4.748940E+12	3.010530E-15	NaN
1188	1.000000	0.122385	7.37666e+06	-56189.1	1105.82	-29739.5	0.000000	0.000000	6.122766	-0.018036	NaN	0.000000	0.001635	0.001710	28.0815	0.094844	0.001949	48.6513	148.262	-165.096	0.052450	0.121096	-0.941808	-0.943097	-0.018036	48.6513	-0.941530	-3.696346E+12	4.879363E-15	NaN
1188	1.000000	0.130391	7.37666e+06	-56189.1	1105.82	-29739.5	0.000000	0.000000	6.130774	0.050751	NaN	0.000000	0.001567	0.001695	28.0822	0.107452	0.002056	52.2675	-121.322	-165.268	0.006781	0.129072	-0.933802	-0.935121	0.050751	52.2675	-0.934531	-2.973983E+12	-1.706501E-14	NaN
1188	1.000000	0.138428	7.37667e+06	-56189.1	1105.82	-29739.5	0.000000	0.000000	6.138808	-0.033920	NaN	0.000000	0.001560	0.001667	28.0816	0.063866	0.002013	31.7301	179.973	-165.42	0.018789	0.137049	-0.925765	-0.927144	-0.033920	31.7301	-0.924963	-2.209069E+12	1.535468E-14	NaN
1188	1.000000	0.146400	7.37667e+06	-56189.1	1105.82	-29739.5	0.000000	0.000000	6.146783	0.017707	NaN	0.000000	0.001547	0.001711	28.0816	0.014489	0.002067	7.009340	-87.3632	-168.803	0.084962	0.145114	-0.917793	-0.919079	0.017707	7.009340	-0.919687	-1.874930E+12	-9.443830E-15	NaN
1188	1.000000	0.154416	7.37667e+06	-56189.1	1105.82	-29739.5	0.000000	0.000000	6.154798	-0.010846	NaN	0.000000	0.001618	0.001664	28.0817	0.032532	0.002000	16.2664	-106.456	-165.768	-0.068464	0.153093	-0.909777	-0.911100	-0.010846	16.2664	-0.909277	-1.356409E+12	7.996197E-15	NaN
1188	1.000000	0.162400	7.37667e+06	-56189.1	1105.82	-29739.5	0.000000	0.000000	6.162781	-0.022813	NaN	0.000000	0.001580	0.001642	28.0816	0.025082	0.002047	12.2528	27.8492	-166.702	-0.033509	0.161094	-0.901793	-0.903099	-0.022813	12.2528	-0.900396	-1.029011E+12	2.216984E-14	NaN
1188	1.000000	0.170421	7.37667e+06	-56189.1	1105.82	-29739.5	0.000000	0.000000	6.170800	-0.041204	NaN	0.000000	0.001550	0.001687	28.0817	0.081839	0.002009	40.7293	103.256	-167.217	0.009011	0.169124	-0.893772	-0.895069	-0.041204	40.7293	-0.893014	-8.178091E+11	5.038394E-14	NaN
1188	1.000000	0.178439	7.37667e+06	-56189.1	1105.82	-29739.5	0.000000	0.000000	6.178818	-0.065156	NaN	0.000000	0.001543	0.001687	28.0814	0.098769	0.002005	49.2545	0.076632	-167.813	-0.009628	0.177115	-0.885754	-0.887078	-0.065156	49.2545	-0.884762	-6.325552E+11	1.030051E-13	NaN
1188	1.000000	0.186427	7.37667e+06	-56189.1	1105.82	-29739.5	0.000000	0.000000	6.186809	0.001556	NaN	0.000000	0.001575	0.001686	28.0817	0.077673	0.002043	38.0277	-69.0536	-167.052	-0.039551	0.185105	-0.877766	-0.879088	0.001556	38.0277	-0.877797	-5.092266E+11	-3.054925E-15	NaN
1188	1.000000	0.194421	7.37667e+06	-56189.1	1105.82	-29739.5	0.000000	0.000000	6.194800	-0.056243	NaN	0.000000	0.001518	0.001679	28.0805	0.069505	0.001856	37.4481	-166.653	-167.017	-0.132627	0.193065	-0.869772	-0.871128	-0.056243	37.4481	-0.868646	-3.829308E+11	1.468753E-13	NaN
1188	1.000000	0.202397	7.37667e+06	-56189.1	1105.82	-29739.5	0.000000	0.000000	6.202777	-0.030330	NaN	0.000000	0.001587	0.001663	28.0803	0.085926	0.001945	44.1819	-41.499	-166.899	-0.079765	0.201154	-0.861796	-0.863039	-0.030330	44.1819	-0.861281	-3.044134E+11	9.963565E-14	NaN
1188	1.000000	0.210422	7.37667e+06	-56189.1	1105.82	-29739.5	0.000000	0.000000	6.210803	-0.017747	NaN	0.000000	0.001553	0.001664	28.0805	0.035325	0.001991	17.7414	113.907	-162.886	0.093559	0.209131	-0.853771	-0.855062	-0.017747	17.7414	-0.853020	-2.353069E+11	7.541898E-14	NaN
1188	1.000000	0.218426	7.37667e+06	-56189.1	1105.82	-29739.5	0.000000	0.000000	6.218807	-0.033003	NaN	0.000000	0.001548	0.001664	28.0802	0.048768	0.002097	23.2527	-147.604	-166.332	-0.048435	0.217096	-0.845767	-0.847097	-0.033003	23.2527	-0.844702	-1.815476E+11	1.817849E-13	NaN
1188	1.000000	0.226418	7.37667e+06	-56189.1	1105.82	-29739.5	0.000000	0.000000	6.226798	-0.018195	NaN	0.000000	0.001551	0.001657	28.0807	0.067242	0.001960	34.3053	-149.646	-164.808	-0.097015	0.225097	-0.837775	-0.839096	-0.018195	34.3053	-0.837378	-1.444654E+11	1.259437E-13	NaN
1188	1.000000	0.234453	7.37667e+06	-56189.1	1105.82	-29739.5	0.000000	0.000000	6.234832	-0.046118	NaN	0.000000	0.001569	0.001654	28.0803	0.071835	0.001900	37.806	-57.5528	-166.353	-0.005798	0.233061	-0.829740	-0.831132	-0.046118	37.806	-0.828826	-1.106281E+11	4.168707E-13	NaN
1188	1.000000	0.242451	7.37667e+06	-56189.1	1105.82	-29739.5	0.000000	0.000000	6.242834	0.014767	NaN	0.000000	0.001553	0.001608	28.0804	0.105321	0.002002	52.612	53.1421	-166.689	0.028731	0.241129	-0.821742	-0.823064	0.014767	52.612	-0.821952	-8.926547E+10	-1.654260E-13	NaN
1188	1.000000	0.250471	7.37667e+06	-56189.1	1105.82	-29739.5	0.000000	0.000000	6.250853	0.031324	NaN	0.000000	0.001550	0.001610	28.0807	0.109903	0.002017	54.4794	49.4094	-167.96	0.045694	0.249136	-0.813723	-0.815057	0.031324	54.4794	-0.814154	-6.997145E+10	-4.476650E-13	NaN
1188	1.000000	0.258467	7.37667e+06	-56189.1	1105.82	-29739.5	0.000000	0.000000	6.258846	-0.043133	NaN	0.000000	0.001548	0.001598	28.0802	0.071050	0.002047	34.7026	-10.0142	-162.165	0.003398	0.257134	-0.805727	-0.807060	-0.043133	34.7026	-0.804794	-5.223169E+10	8.258045E-13	NaN
1188	1.000000	0.266443	7.37667e+06	-56189.1	1105.82	-29739.5	0.000000	0.000000	6.266822	-0.051995	NaN	0.000000	0.001542	0.001659	28.0806	0.094526	0.002069	45.6814	-113.565	-165.833	-0.046654	0.265129	-0.797750	-0.799064	-0.051995	45.6814	-0.796897	-4.080710E+10	1.274159E-12	NaN
1188	1.000000	0.274454	7.37667e+06	-56189.1	1105.82	-29739.5	0.000000	0.000000	6.274836	0.010206	NaN	0.000000	0.001561	0.001693	28.0804	0.066274	0.002003	33.0868	170.04	-166.269	-0.044494	0.273158	-0.789739	-0.791035	0.010206	33.0868	-0.789970	-3.286113E+10	-3.105665E-13	NaN
1188	1.000000	0.282458	7.37667e+06	-56189.1	1105.82	-29739.5	0.000000	0.000000	6.282840	0.004621	NaN	0.000000	0.001579	0.001687	28.0806	0.078840	0.001992	39.5871	-57.7724	-164.404	0.011272	0.281147	-0.781735	-0.783046	0.004621	39.5871	-0.781822	-2.546801E+10	-1.814574E-13	NaN
1188	1.000000	0.290446	7.37667e+06	-56189.1	1105.82	-29739.5	0.000000	0.000000	6.290828	0.006446	NaN	0.000000	0.001555	0.001665	28.0803	0.037086	0.002003	18.5148	-170.863	-167.082	-0.023034	0.289104	-0.773747	-0.775089	0.006446	18.5148	-0.774008	-1.994321E+10	-3.232303E-13	NaN
1188	1.000000	0.298478	7.37667e+06	-56189.1	1105.82	-29739.5	0.000000	0.000000	6.298859	-0.014720	NaN	0.000000	0.001581	0.001663	28.0803	0.053475	0.001950	27.4177	-45.9637	-167.032	-0.012344	0.297200	-0.765715	-0.766993	-0.014720	27.4177	-0.765312	-1.519013E+10	9.690364E-13	NaN
1188	1.000000	0.306472	7.37667e+06	-56189.1	1105.82	-29739.5	0.000000	0.000000	6.306854	0.003971	NaN	0.000000	0.001578	0.001678	28.0809	0.030320	0.001907	15.8998	142.172	-163.851	-0.042469	0.305168	-0.757721	-0.759025	0.003971	15.8998	-0.757908	-1.204601E+10	-3.296604E-13	NaN
1188	1.000000	0.314461	7.37667e+06	-56189.1	1105.82	-29739.5	0.000000	0.000000	6.314842	-0.022494	NaN	0.000000	0.001604	0.001683	28.0804	0.075657	0.002065	36.637	-149.737	-168.095	-0.065908	0.313212	-0.749732	-0.750981	-0.022494	36.637	-0.749271	-9.189714E+9	2.447715E-12	NaN
1188	1.000000	0.322452	7.37667e+06	-56189.1	1105.82	-29739.5	0.000000	0.000000	6.322830	-0.081495	NaN	0.000000	0.001557	0.001669	28.0807	0.087374	0.001900	45.9788	174.363	-163.678	-0.043246	0.321150	-0.741741	-0.743043	-0.081495	45.9788	-0.740412	-6.960868E+9	1.170766E-11	NaN
1188	1.000000	0.330496	7.37667e+06	-56189.1	1105.82	-29739.5	0.000000	0.000000	6.330876	-0.020048	NaN	0.000000	0.001572	0.001702	28.0818	0.069055	0.001979	34.8913	19.1009	-167.657	-0.067525	0.329152	-0.733697	-0.735041	-0.020048	34.8913	-0.733267	-5.563183E+9	3.603726E-12	NaN
1188	1.000000	0.338477	7.37667e+06	-56189.1	1105.82	-29739.5	0.000000	0.000000	6.338857	-0.030361	NaN	0.000000	0.001562	0.001698	28.0816	0.094686	0.002094	45.2256	77.9141	-167.478	-0.052685	0.337162	-0.725716	-0.727031	-0.030361	45.2256	-0.725213	-4.320664E+9	7.026827E-12	NaN
1188	1.000000	0.346488	7.37667e+06	-56189.1	1105.82	-29739.5	0.000000	0.000000	6.346868	-0.038471	NaN	0.000000	0.001572	0.001697	28.0819	0.134266	0.002030	66.1286	138.218	-164.006	-0.025830	0.345187	-0.717705	-0.719006	-0.038471	66.1286	-0.717269	-3.366823E+9	1.142646E-11	NaN
1188	1.000000	0.354490	7.37667e+06	-56189.1	1105.82	-29739.5	0.000000	0.000000	6.354873	0.037825	NaN	0.000000	0.001571	0.001705	28.0816	0.133307	0.002045	65.1994	-11.3077	-165.7	-0.007158	0.353131	-0.709704	-0.711062	0.037825	65.1994	-0.710139	-2.691164E+9	-1.405544E-11	NaN
1188	1.000000	0.362500	7.37667e+06	-56189.1	1105.82	-29739.5	0.000000	0.000000	6.362881	-0.001536	NaN	0.000000	0.001538	0.001633	28.0817	0.087743	0.002089	42.0093	163.178	-163.658	-0.069789	0.361263	-0.701693	-0.702930	-0.001536	42.0093	-0.701666	-2.061954E+9	7.450088E-13	NaN
1188	1.000000	0.370513	7.37667e+06	-56189.1	1105.82	-29739.5	0.000000	0.000000	6.370893	-0.046469	NaN	0.000000	0.001569	0.001671	28.0817	0.134246	0.001840	72.9728	-139.577	-169.563	-0.082278	0.369190	-0.693680	-0.695003	-0.046469	72.9728	-0.693203	-1.580087E+9	2.940912E-11	NaN
1188	1.000000	0.378474	7.37667e+06	-56189.1	1105.82	-29739.5	0.000000	0.000000	6.378855	-0.025221	NaN	0.000000	0.001547	0.001690	28.0818	0.039314	0.002031	19.3579	16.8147	-165.491	-0.002502	0.377158	-0.685719	-0.687035	-0.025221	19.3579	-0.684742	-1.210721E+9	2.083153E-11	NaN
1188	1.000000	0.386513	7.37667e+06	-56189.1	1105.82	-29739.5	0.000000	0.000000	6.386894	-0.015662	NaN	0.000000	0.001559	0.001698	28.0819	0.093896	0.002027	46.3205	-167.698	-163.717	0.090821	0.385174	-0.677680	-0.679019	-0.015662	46.3205	-0.677426	-9.616099E+8	1.628745E-11	NaN
1188	1.000000	0.394528	7.37667e+06	-56189.1	1105.82	-29739.5	0.000000	0.000000	6.394909	-0.019051	NaN	0.000000	0.001542	0.001679	28.0818	0.128164	0.001969	65.0939	-34.2623	-166.688	-0.063659	0.393173	-0.669665	-0.671020	-0.019051	65.0939	-0.669445	-7.478172E+8	2.547482E-11	NaN
1188	1.000000	0.402524	7.37667e+06	-56189.1	1105.82	-29739.5	0.000000	0.000000	6.402904	-0.045712	NaN	0.000000	0.001540	0.001687	28.0819	0.106255	0.002024	52.5071	-139.172	-165.844	0.008217	0.401205	-0.661669	-0.662988	-0.045712	52.5071	-0.661016	-5.733059E+8	7.973464E-11	NaN
1188	1.000000	0.410518	7.37667e+06	-56189.1	1105.82	-29739.5	0.000000	0.000000	6.410896	-0.086553	NaN	0.000000	0.001565	0.001673	28.0819	0.046787	0.001889	24.7666	-129.929	-163.261	-0.001962	0.409255	-0.653675	-0.654938	-0.086553	24.7666	-0.651054	-4.186881E+8	2.067243E-10	NaN
1188	1.000000	0.418510	7.37667e+06	-56189.1	1105.82	-29739.5	0.000000	0.000000	6.418892	0.000161	NaN	0.000000	0.001585	0.001636	28.0817	0.059228	0.001969	30.0732	-154.19	-164.734	-0.065740	0.417214	-0.645683	-0.646979	0.000161	30.0732	-0.645687	-3.534240E+8	-4.549166E-13	NaN
1188	1.000000	0.426509	7.37667e+06	-56189.1	1105.82	-29739.5	0.000000	0.000000	6.426889	-0.028984	NaN	0.000000	0.001573	0.001666	28.0818	0.121575	0.002050	59.3015	-174.637	-164.1	0.056415	0.425216	-0.637684	-0.638977	-0.028984	59.3015	-0.637318	-2.713212E+8	1.068256E-10	NaN
1188	1.000000	0.434528	7.37667e+06	-56189.1	1105.82	-29739.5	0.000000	0.000000	6.434910	0.005591	NaN	0.000000	0.001564	0.001693	28.0818	0.063987	0.001996	32.0656	-47.5996	-163.756	-0.046167	0.433205	-0.629665	-0.630988	0.005591	32.0656	-0.629796	-2.139064E+8	-2.613690E-11	NaN
1188	1.000000	0.442511	7.37667e+06	-56189.1	1105.82	-29739.5	0.000000	0.000000	6.442889	-0.083684	NaN	0.000000	0.001633	0.001714	28.0819	0.071088	0.002022	35.1547	-124.594	-167.642	0.010477	0.441211	-0.621682	-0.622982	-0.083684	35.1547	-0.619897	-1.563925E+8	5.350922E-10	NaN
1188	1.000000	0.450523	7.37667e+06	-56189.1	1105.82	-29739.5	0.000000	0.000000	6.450905	-0.000188	NaN	0.000000	0.001583	0.001701	28.0818	0.076267	0.001884	40.4883	-77.0367	-165.187	-0.018374	0.449262	-0.613670	-0.614931	-0.000188	40.4883	-0.613666	-1.283944E+8	1.466328E-12	NaN
1188	1.000000	0.458545	7.37667e+06	-56189.1	1105.82	-29739.5	0.000000	0.000000	6.458923	-0.096171	NaN	0.000000	0.001630	0.001704	28.0822	0.068150	0.002072	32.8964	61.6165	-168.573	-0.041787	0.457233	-0.605648	-0.606960	-0.096171	32.8964	-0.603455	-9.290428E+7	1.035160E-9	NaN
1188	1.000000	0.466542	7.37667e+06	-56189.1	1105.82	-29739.5	0.000000	0.000000	6.466923	-0.012865	NaN	0.000000	0.001596	0.001709	28.0806	0.032468	0.001905	17.0417	156.012	-167.951	-0.088490	0.465248	-0.597651	-0.598945	-0.012865	17.0417	-0.597085	-7.591102E+7	1.694776E-10	NaN
1188	1.000000	0.474543	7.37667e+06	-56189.1	1105.82	-29739.5	0.000000	0.000000	6.474923	-0.047623	NaN	0.000000	0.001607	0.001665	28.0807	0.102390	0.001926	53.174	7.243734	-165.75	-0.018211	0.473223	-0.589650	-0.590970	-0.047623	53.174	-0.588978	-5.869234E+7	8.114034E-10	NaN
1188	1.000000	0.482537	7.37667e+06	-56189.1	1105.82	-29739.5	0.000000	0.000000	6.482919	-0.002515	NaN	0.000000	0.001650	0.001685	28.0808	0.041303	0.001856	22.2591	-145.589	-167.506	0.014314	0.481248	-0.581656	-0.582945	-0.002515	22.2591	-0.581571	-4.638790E+7	5.422228E-11	NaN
1188	1.000000	0.490566	7.37667e+06	-56189.1	1105.82	-29739.5	0.000000	0.000000	6.490948	-0.003809	NaN	0.000000	0.001598	0.001684	28.0807	0.099617	0.001968	50.6068	-61.4536	-165.967	0.002458	0.489213	-0.573627	-0.574980	-0.003809	50.6068	-0.573570	-3.597124E+7	1.059012E-10	NaN
1188	1.000000	0.498551	7.37667e+06	-56189.1	1105.82	-29739.5	0.000000	0.000000	6.498933	-0.001722	NaN	0.000000	0.001556	0.001703	28.0809	0.024129	0.002078	11.6136	-95.7751	-166.857	-0.063886	0.497270	-0.565642	-0.566923	-0.001722	11.6136	-0.565531	-2.785225E+7	6.184111E-11	NaN
1188	1.000000	0.506546	7.37667e+06	-56189.1	1105.82	-29739.5	0.000000	0.000000	6.506927	-0.020552	NaN	0.000000	0.001541	0.001689	28.0806	0.095380	0.002061	46.2774	-155.544	-169.605	-0.016277	0.505272	-0.557647	-0.558921	-0.020552	46.2774	-0.557314	-2.143961E+7	9.585771E-10	NaN
1188	1.000000	0.514556	7.37667e+06	-56189.1	1105.82	-29739.5	0.000000	0.000000	6.514936	-0.027307	NaN	0.000000	0.001537	0.001726	28.0808	0.070067	0.002065	33.9239	-9.499708	-164.115	-0.042316	0.513343	-0.549637	-0.550850	-0.027307	33.9239	-0.549033	-1.646517E+7	1.658498E-9	NaN
1188	1.000000	0.522577	7.37667e+06	-56189.1	1105.82	-29739.5	0.000000	0.000000	6.522957	-0.051130	NaN	0.000000	0.001532	0.001689	28.0806	0.011353	0.001986	5.717703	-69.6703	-163.237	-0.076144	0.521237	-0.541616	-0.542956	-0.051130	5.717703	-0.534909	-1.048878E+7	4.874705E-9	NaN
1188	1.000000	0.530574	7.37667e+06	-56189.1	1105.82	-29739.5	0.000000	0.000000	6.530956	0.009311	NaN	0.000000	0.001591	0.001701	28.0806	0.170285	0.002027	84.0205	-172.959	-165.288	-0.017599	0.529272	-0.533619	-0.534921	0.009311	84.0205	-0.533702	-1.009204E+7	-9.226023E-10	NaN
1188	1.000000	0.538558	7.37667e+06	-56189.1	1105.82	-29739.5	0.000000	0.000000	6.538939	0.001042	NaN	0.000000	0.001580	0.001729	28.0806	0.083223	0.002035	40.8889	138.943	-164.796	-0.026478	0.537283	-0.525636	-0.526910	0.001042	40.8889	-0.525655	-7.80206e+06	-1.335617E-10	NaN
1188	1.000000	0.546582	7.37667e+06	-56189.1	1105.82	-29739.5	0.000000	0.000000	6.546965	0.026984	NaN	0.000000	0.001586	0.001669	28.0806	0.040732	0.001996	20.4073	143.281	-167.532	0.076318	0.545274	-0.517611	-0.518919	0.026984	20.4073	-0.518602	-6.22525e+06	-4.334651E-9	NaN
1188	1.000000	0.554554	7.37667e+06	-56189.1	1105.82	-29739.5	0.000000	0.000000	6.554933	-0.059406	NaN	0.000000	0.001575	0.001687	28.0812	0.058375	0.002029	28.7762	-38.7014	-166.759	-0.066985	0.553278	-0.509639	-0.510915	-0.059406	28.7762	-0.508091	-4.44443e+06	1.336642E-8	NaN
1188	1.000000	0.562603	7.37667e+06	-56189.1	1105.82	-29739.5	0.000000	0.000000	6.562983	-0.028275	NaN	0.000000	0.001591	0.001697	28.0805	0.141166	0.001979	71.3405	162.338	-162.212	-0.058822	0.561261	-0.501590	-0.502932	-0.028275	71.3405	-0.501293	-3.57319e+06	7.913237E-9	NaN
1188	1.000000	0.570552	7.37667e+06	-56189.1	1105.82	-29739.5	0.000000	0.000000	6.570936	0.068543	NaN	0.000000	0.001543	0.001672	28.0806	0.088518	0.002041	43.3799	121.418	-168.146	0.058640	0.569292	-0.493641	-0.494901	0.068543	43.3799	-0.494826	-2.90275e+06	-2.361304E-8	NaN
1188	1.000000	0.578596	7.37667e+06	-56189.1	1105.82	-29739.5	0.000000	0.000000	6.578978	-0.005242	NaN	0.000000	0.001577	0.001692	28.0805	0.037627	0.001879	20.0211	139.869	-164.391	0.009160	0.577269	-0.485597	-0.486924	-0.005242	20.0211	-0.485400	-2.14334e+06	2.445645E-9	NaN
1188	1.000000	0.586601	7.37667e+06	-56189.1	1105.82	-29739.5	0.000000	0.000000	6.586982	-0.030130	NaN	0.000000	0.001552	0.001680	28.0804	0.030822	0.002010	15.3332	90.7831	-167.632	0.013586	0.585317	-0.477592	-0.478876	-0.030130	15.3332	-0.476118	-1.58914e+06	1.895998E-8	NaN
1188	1.000000	0.594589	7.37667e+06	-56189.1	1105.82	-29739.5	0.000000	0.000000	6.594971	0.027656	NaN	0.000000	0.001569	0.001684	28.0809	0.074363	0.002070	35.9324	-126.868	-161.959	-0.006275	0.593264	-0.469605	-0.470929	0.027656	35.9324	-0.470182	-1.31207e+06	-2.107778E-8	NaN
1188	1.000000	0.602596	7.37667e+06	-56189.1	1105.82	-29739.5	0.000000	0.000000	6.602974	-0.087271	NaN	0.000000	0.001525	0.001699	28.0818	0.047253	0.001962	24.0796	171.286	-164.283	0.001408	0.601322	-0.461597	-0.462871	-0.087271	24.0796	-0.458879	-910459	9.585341E-8	NaN
1188	1.000000	0.610613	7.37667e+06	-56189.1	1105.82	-29739.5	0.000000	0.000000	6.610991	-0.096396	NaN	0.000000	0.001566	0.001714	28.0817	0.056385	0.002069	27.2465	172.695	-166.507	-0.050563	0.609324	-0.453580	-0.454870	-0.096396	27.2465	-0.450927	-703703	1.369838E-7	NaN
1188	1.000000	0.618628	7.37667e+06	-56189.1	1105.82	-29739.5	0.000000	0.000000	6.619009	-0.029404	NaN	0.000000	0.001539	0.001680	28.0816	0.111110	0.001956	56.7959	18.8465	-168.556	-0.024799	0.617331	-0.445565	-0.446862	-0.029404	56.7959	-0.445176	-583953	5.035292E-8	NaN
1188	1.000000	0.626598	7.37667e+06	-56189.1	1105.82	-29739.5	0.000000	0.000000	6.626979	-0.008019	NaN	0.000000	0.001555	0.001674	28.0816	0.029972	0.002025	14.7996	-78.4251	-165.831	-0.061682	0.625309	-0.437595	-0.438884	-0.008019	14.7996	-0.437189	-450483	1.780089E-8	NaN
1188	1.000000	0.634616	7.37667e+06	-56189.1	1105.82	-29739.5	0.000000	0.000000	6.634998	0.011651	NaN	0.000000	0.001566	0.001707	28.082	0.083226	0.002103	39.5827	-159.681	-165.64	0.081969	0.633343	-0.429577	-0.430850	0.011651	39.5827	-0.429798	-354158	-3.289646E-8	NaN
1188	1.000000	0.642610	7.37667e+06	-56189.1	1105.82	-29739.5	0.000000	0.000000	6.642994	0.057929	NaN	0.000000	0.001549	0.001660	28.0816	0.025756	0.001937	13.2945	95.0672	-168.055	0.026308	0.641305	-0.421584	-0.422888	0.057929	13.2945	-0.424851	-301425	-1.921825E-7	NaN
1188	1.000000	0.650624	7.37667e+06	-56189.1	1105.82	-29739.5	0.000000	0.000000	6.651008	0.052420	NaN	0.000000	0.001560	0.001700	28.0818	0.096816	0.001851	52.3052	145.252	-167.475	-0.012841	0.649315	-0.413569	-0.414878	0.052420	52.3052	-0.414320	-213698	-2.452986E-7	NaN
1188	1.000000	0.658616	7.37667e+06	-56189.1	1105.82	-29739.5	0.000000	0.000000	6.658997	0.003643	NaN	0.000000	0.001567	0.001692	28.0817	0.015374	0.002099	7.322790	42.9378	-164.345	0.017406	0.657327	-0.405577	-0.406866	0.003643	7.322790	-0.405950	-162473	-2.242041E-8	NaN
1188	1.000000	0.666638	7.37667e+06	-56189.1	1105.82	-29739.5	0.000000	0.000000	6.667018	-0.061321	NaN	0.000000	0.001586	0.001682	28.0816	0.059865	0.001983	30.1933	114.524	-166.87	0.033297	0.665335	-0.397555	-0.398858	-0.061321	30.1933	-0.396031	-117318	5.226876E-7	NaN
1188	1.000000	0.674635	7.37667e+06	-56189.1	1105.82	-29739.5	0.000000	0.000000	6.675017	0.005719	NaN	0.000000	0.001589	0.001703	28.0821	0.099292	0.001932	51.3985	19.6434	-164.21	0.093310	0.673297	-0.389558	-0.390896	0.005719	51.3985	-0.389641	-95067.8	-6.015915E-8	NaN
1188	1.000000	0.682635	7.37667e+06	-56189.1	1105.82	-29739.5	0.000000	0.000000	6.683015	-0.020804	NaN	0.000000	0.001567	0.001701	28.0817	0.091765	0.002034	45.1216	-153.102	-162.904	-0.047899	0.681321	-0.381558	-0.382872	-0.020804	45.1216	-0.381213	-71992.5	2.889771E-7	NaN
1188	1.000000	0.690616	7.37667e+06	-56189.1	1105.82	-29739.5	0.000000	0.000000	6.690997	-0.014339	NaN	0.000000	0.001609	0.001652	28.0821	0.096399	0.001960	49.1756	-68.394	-168.005	-0.007909	0.689286	-0.373577	-0.374907	-0.014339	49.1756	-0.373359	-55522.5	2.582585E-7	NaN
1188	1.000000	0.698625	7.37667e+06	-56189.1	1105.82	-29739.5	0.000000	0.000000	6.699008	0.044307	NaN	0.000000	0.001571	0.001714	28.0817	0.045037	0.001931	23.3231	150.123	-166.642	0.004966	0.697380	-0.365568	-0.366813	0.044307	23.3231	-0.366993	-44957.3	-9.855326E-7	NaN
1188	1.000000	0.706641	7.37667e+06	-56189.1	1105.82	-29739.5	0.000000	0.000000	6.707022	-0.013974	NaN	0.000000	0.001555	0.001659	28.0819	0.065096	0.001985	32.7963	77.9247	-166.169	-0.092598	0.705343	-0.357552	-0.358850	-0.013974	32.7963	-0.357232	-32494.8	4.300269E-7	NaN
1188	1.000000	0.714659	7.37667e+06	-56189.1	1105.82	-29739.5	0.000000	0.000000	6.715037	-0.097126	NaN	0.000000	0.001527	0.001683	28.0818	0.055665	0.002061	27.0066	91.268	-163.441	-0.137006	0.713346	-0.349534	-0.350847	-0.097126	27.0066	-0.346836	-22964.5	4.229417E-6	NaN
1188	1.000000	0.722636	7.37667e+06	-56189.1	1105.82	-29739.5	0.000000	0.000000	6.723017	-0.012654	NaN	0.000000	0.001626	0.001629	28.0816	0.113422	0.001907	59.4811	44.3826	-166.753	-0.019673	0.721393	-0.341557	-0.342800	-0.012654	59.4811	-0.341398	-19139.1	6.611633E-7	NaN
1188	1.000000	0.730672	7.37667e+06	-56189.1	1105.82	-29739.5	0.000000	0.000000	6.731056	0.058799	NaN	0.000000	0.001637	0.001663	28.0821	0.080564	0.002055	39.2068	-152.911	-166.43	0.047350	0.729295	-0.333521	-0.334898	0.058799	39.2068	-0.334646	-15254.9	-3.854453E-6	NaN
1188	1.000000	0.738681	7.37667e+06	-56189.1	1105.82	-29739.5	0.000000	0.000000	6.739062	-0.001811	NaN	0.000000	0.001638	0.001657	28.0805	0.098166	0.001944	50.4853	-29.7737	-163.106	0.002918	0.737343	-0.325512	-0.326851	-0.001811	50.4853	-0.325485	-11201.1	1.616925E-7	NaN
1188	1.000000	0.746688	7.37667e+06	-56189.1	1105.82	-29739.5	0.000000	0.000000	6.747070	-0.011418	NaN	0.000000	0.001626	0.001641	28.081	0.101981	0.001984	51.4057	-122.821	-167.557	-0.031012	0.745333	-0.317505	-0.318860	-0.011418	51.4057	-0.317338	-8500.23	1.343219E-6	NaN
1188	1.000000	0.754673	7.37667e+06	-56189.1	1105.82	-29739.5	0.000000	0.000000	6.755055	0.012978	NaN	0.000000	0.001609	0.001645	28.0805	0.033922	0.001982	17.1143	-62.3988	-169.258	0.008927	0.753329	-0.309521	-0.310864	0.012978	17.1143	-0.310089	-6643.19	-1.953598E-6	NaN
1188	1.000000	0.762675	7.37667e+06	-56189.1	1105.82	-29739.5	0.000000	0.000000	6.763054	-0.057754	NaN	0.000000	0.001630	0.001681	28.0807	0.053199	0.002116	25.1382	-27.4733	-165.065	-0.066050	0.761397	-0.301518	-0.302796	-0.057754	25.1382	-0.299795	-4672.9	1.235938E-5	NaN
1188	1.000000	0.770670	7.37667e+06	-56189.1	1105.82	-29739.5	0.000000	0.000000	6.771053	0.023305	NaN	0.000000	0.001626	0.001691	28.0805	0.027730	0.002034	13.636	169.471	-165.602	0.041217	0.769378	-0.293523	-0.294815	0.023305	13.636	-0.294805	-3937.06	-5.919358E-6	NaN
1188	1.000000	0.778664	7.37667e+06	-56189.1	1105.82	-29739.5	0.000000	0.000000	6.779042	-0.087063	NaN	0.000000	0.001619	0.001667	28.0805	0.082094	0.001985	41.3484	-72.2656	-164.705	-0.084797	0.777350	-0.285529	-0.286843	-0.087063	41.3484	-0.283949	-2706.87	3.216387E-5	NaN
1188	1.000000	0.786632	7.37667e+06	-56189.1	1105.82	-29739.5	0.000000	0.000000	6.787015	0.028350	NaN	0.000000	0.001621	0.001698	28.0809	0.077561	0.002017	38.4474	122.141	-167.632	0.027224	0.785373	-0.277561	-0.278820	0.028350	38.4474	-0.278114	-2210.55	-1.282490E-5	NaN
1188	1.000000	0.794660	7.37667e+06	-56189.1	1105.82	-29739.5	0.000000	0.000000	6.795041	-0.012564	NaN	0.000000	0.001651	0.001696	28.0805	0.145894	0.002041	71.4678	-72.3285	-166.655	-0.009340	0.793351	-0.269533	-0.270842	-0.012564	71.4678	-0.269402	-1630.97	7.703425E-6	NaN
1188	1.000000	0.802698	7.37667e+06	-56189.1	1105.82	-29739.5	0.000000	0.000000	6.803076	-0.092536	NaN	0.000000	0.001575	0.001720	28.0808	0.050005	0.001980	25.2609	83.0382	-167.048	-0.069698	0.801338	-0.261495	-0.262855	-0.092536	25.2609	-0.258748	-1121.29	8.252621E-5	NaN
1188	1.000000	0.810654	7.37667e+06	-56189.1	1105.82	-29739.5	0.000000	0.000000	6.811031	-0.116070	NaN	0.000000	0.001569	0.001707	28.0806	0.066596	0.002042	32.616	39.375	-166.971	-0.011451	0.809391	-0.253539	-0.254802	-0.116070	32.616	-0.250870	-848.042	0.000137	NaN
1188	1.000000	0.818677	7.37667e+06	-56189.1	1105.82	-29739.5	0.000000	0.000000	6.819057	-0.039331	NaN	0.000000	0.001553	0.001754	28.0808	0.066251	0.002112	31.3756	112.027	-165.416	-0.042317	0.817421	-0.245517	-0.246772	-0.039331	31.3756	-0.244576	-677.433	5.805882E-5	NaN
1188	1.000000	0.826710	7.37667e+06	-56189.1	1105.82	-29739.5	0.000000	0.000000	6.827089	-0.047403	NaN	0.000000	0.001558	0.001706	28.0807	0.035056	0.001978	17.7271	-72.5356	-167.382	0.001625	0.825356	-0.237484	-0.238837	-0.047403	17.7271	-0.235478	-488.374	9.706349E-5	NaN
1188	1.000000	0.834719	7.37667e+06	-56189.1	1105.82	-29739.5	0.000000	0.000000	6.835101	0.004616	NaN	0.000000	0.001557	0.001684	28.0807	0.015878	0.001933	8.214090	-69.1711	-169.623	-0.031654	0.833378	-0.229474	-0.230815	0.004616	8.214090	-0.229895	-398.897	-1.157107E-5	NaN
1188	1.000000	0.842686	7.37667e+06	-56189.1	1105.82	-29739.5	0.000000	0.000000	6.843064	-0.077805	NaN	0.000000	0.001540	0.001689	28.0814	0.102013	0.001953	52.2446	148.383	-166.384	-0.060816	0.841322	-0.221507	-0.222871	-0.077805	52.2446	-0.220390	-281.78	0.000276	NaN
1188	1.000000	0.850697	7.37667e+06	-56189.1	1105.82	-29739.5	0.000000	0.000000	6.851078	0.006475	NaN	0.000000	0.001561	0.001683	28.0807	0.075524	0.001929	39.1545	146.178	-161.389	-0.026633	0.849424	-0.213497	-0.214769	0.006475	39.1545	-0.213621	-219.435	-2.950759E-5	NaN
1188	1.000000	0.858698	7.37667e+06	-56189.1	1105.82	-29739.5	0.000000	0.000000	6.859080	0.024141	NaN	0.000000	0.001564	0.001683	28.0808	0.011861	0.001958	6.056884	136.52	-167.673	0.016306	0.857414	-0.205495	-0.206779	0.024141	6.056884	-0.208485	-181.24	-0.000133	NaN
1188	1.000000	0.866700	7.37667e+06	-56189.1	1105.82	-29739.5	0.000000	0.000000	6.867082	0.024768	NaN	0.000000	0.001545	0.001669	28.0807	0.104521	0.002081	50.2233	-172.559	-165.467	-0.021373	0.865348	-0.197493	-0.198845	0.024768	50.2233	-0.197863	-121.485	-0.000204	NaN
1188	1.000000	0.874719	7.37667e+06	-56189.1	1105.82	-29739.5	0.000000	0.000000	6.875099	-0.026408	NaN	0.000000	0.001565	0.001674	28.0819	0.076551	0.001961	39.041	97.6413	-167.028	-0.080980	0.873441	-0.189474	-0.190752	-0.026408	39.041	-0.188967	-86.4485	0.000305	NaN
1188	1.000000	0.882705	7.37667e+06	-56189.1	1105.82	-29739.5	0.000000	0.000000	6.883087	0.013315	NaN	0.000000	0.001565	0.001665	28.0824	0.066517	0.001944	34.2218	-175.718	-167.297	-0.018745	0.881435	-0.181489	-0.182758	0.013315	34.2218	-0.181780	-65.4193	-0.000204	NaN
1188	1.000000	0.890752	7.37667e+06	-56189.1	1105.82	-29739.5	0.000000	0.000000	6.891133	-0.003052	NaN	0.000000	0.001529	0.001654	28.082	0.113411	0.001979	57.3117	-62.0754	-164.476	-0.075527	0.889365	-0.173441	-0.174828	-0.003052	57.3117	-0.173401	-47.0394	6.489158E-5	NaN
1188	1.000000	0.898724	7.37667e+06	-56189.1	1105.82	-29739.5	0.000000	0.000000	6.899106	0.011336	NaN	0.000000	0.001539	0.001643	28.0818	0.047202	0.002063	22.8786	-127.765	-163.607	0.027903	0.897400	-0.165469	-0.166793	0.011336	22.8786	-0.165841	-34.7585	-0.000326	NaN
1188	1.000000	0.906701	7.37667e+06	-56189.1	1105.82	-29739.5	0.000000	0.000000	6.907083	0.010017	NaN	0.000000	0.001562	0.001647	28.0819	0.047193	0.001880	25.1046	26.1235	-167.45	-0.062411	0.905450	-0.157492	-0.158743	0.010017	25.1046	-0.157792	-25.0402	-0.000400	NaN
1188	1.000000	0.914785	7.37667e+06	-56189.1	1105.82	-29739.5	0.000000	0.000000	6.915165	-0.026214	NaN	0.000000	0.001545	0.001652	28.0818	0.040327	0.001909	21.1192	-172.224	-163.804	-0.046219	0.913429	-0.149408	-0.150764	-0.026214	21.1192	-0.148477	-16.9893	0.001543	NaN
1188	1.000000	0.922733	7.37667e+06	-56189.1	1105.82	-29739.5	0.000000	0.000000	6.923114	-0.001630	NaN	0.000000	0.001570	0.001657	28.0821	0.150320	0.001818	82.6681	165.55	-165.802	0.020932	0.921452	-0.141461	-0.142742	-0.001630	82.6681	-0.141446	-12.5911	0.000129	NaN
1188	1.000000	0.930752	7.37667e+06	-56189.1	1105.82	-29739.5	0.000000	0.000000	6.931133	-0.017638	NaN	0.000000	0.001566	0.001684	28.0818	0.093977	0.002033	46.2178	42.4637	-166.21	-0.029862	0.929418	-0.133441	-0.134775	-0.017638	46.2178	-0.133155	-8.769085	0.002011	NaN
1188	1.000000	0.938748	7.37667e+06	-56189.1	1105.82	-29739.5	0.000000	0.000000	6.939129	-0.010241	NaN	0.000000	0.001593	0.001668	28.082	0.107115	0.001935	55.3566	-59.0329	-165.493	-0.029697	0.937389	-0.125446	-0.126804	-0.010241	55.3566	-0.125307	-6.166810	0.001661	NaN
1188	1.000000	0.946742	7.37667e+06	-56189.1	1105.82	-29739.5	0.000000	0.000000	6.947124	-0.003048	NaN	0.000000	0.001565	0.001629	28.0829	0.080868	0.001859	43.4932	146.798	-166.186	-0.082616	0.945394	-0.117451	-0.118799	-0.003048	43.4932	-0.117398	-4.278496	0.000712	NaN
1188	1.000000	0.954737	7.37667e+06	-56189.1	1105.82	-29739.5	0.000000	0.000000	6.955118	-0.006922	NaN	0.000000	0.001524	0.001669	28.082	0.070822	0.001953	36.2669	-135.139	-165.4	-0.068131	0.953434	-0.109456	-0.110759	-0.006922	36.2669	-0.109313	-2.906442	0.002382	NaN
1188	1.000000	0.962773	7.37667e+06	-56189.1	1105.82	-29739.5	0.000000	0.000000	6.963151	-0.096106	NaN	0.000000	0.001586	0.001650	28.082	0.041755	0.002029	20.5794	-12.7483	-165.871	-0.070277	0.961417	-0.101420	-0.102776	-0.096106	20.5794	-0.097917	-1.641889	0.058534	NaN
1188	1.000000	0.970750	7.37667e+06	-56189.1	1105.82	-29739.5	0.000000	0.000000	6.971134	0.046795	NaN	0.000000	0.001553	0.001671	28.0818	0.130542	0.001958	66.6611	174.732	-167.141	0.033048	0.969402	-0.093443	-0.094791	0.046795	66.6611	-0.093970	-1.336184	-0.035021	NaN
1188	1.000000	0.978740	7.37667e+06	-56189.1	1105.82	-29739.5	0.000000	0.000000	6.979119	-0.081185	NaN	0.000000	0.001577	0.001673	28.0822	0.067623	0.002065	32.7502	-149.1	-162.341	-0.127630	0.977469	-0.085453	-0.086724	-0.081185	32.7502	-0.083594	-0.759427	0.106903	NaN
1188	1.000000	0.986725	7.37667e+06	-56189.1	1105.82	-29739.5	0.000000	0.000000	6.987105	-0.025181	NaN	0.000000	0.001576	0.001714	28.0818	0.160831	0.002001	80.3568	13.8988	-167.825	-0.000204	0.985428	-0.077469	-0.078765	-0.025181	80.3568	-0.077233	-0.527060	0.047776	NaN
1188	1.000000	0.994750	7.37667e+06	-56189.1	1105.82	-29739.5	0.000000	0.000000	6.995128	-0.066701	NaN	0.000000	0.001556	0.001688	28.0819	0.119429	0.001987	60.0959	102.992	-166.702	-0.068100	0.993487	-0.069443	-0.070706	-0.066701	60.0959	-0.068611	-0.312969	0.213124	NaN
1188	1.000000	1.002751	7.37667e+06	-56189.1	1105.82	-29739.5	0.000000	0.000000	7.003130	-0.082054	NaN	0.000000	0.001554	0.001689	28.0819	0.096365	0.001935	49.7983	85.3543	-167.068	-0.153969	1.001452	-0.061442	-0.062741	-0.082054	49.7983	-0.060206	-0.182557	0.449470	NaN
1188	1.000000	1.010786	7.37667e+06	-56189.1	1105.82	-29739.5	0.000000	0.000000	7.011168	-0.005844	NaN	0.000000	0.001582	0.001703	28.0806	0.064963	0.002138	30.3897	175.745	-167.078	0.014007	1.009482	-0.053407	-0.054711	-0.005844	30.3897	-0.053262	-0.114354	0.051105	NaN
1188	1.000000	1.018753	7.37667e+06	-56189.1	1105.82	-29739.5	0.000000	0.000000	7.019134	-0.022055	NaN	0.000000	0.001560	0.001745	28.0807	0.039476	0.001982	19.9187	19.5079	-164.279	-0.021256	1.017512	-0.045440	-0.046681	-0.022055	19.9187	-0.044610	-0.062525	0.352740	NaN
1188	1.000000	1.026790	7.37667e+06	-56189.1	1105.82	-29739.5	0.000000	0.000000	7.027171	-0.022662	NaN	0.000000	0.001576	0.001737	28.081	0.079308	0.001939	40.9017	-130.375	-164.075	-0.030575	1.025437	-0.037403	-0.038757	-0.022662	40.9017	-0.036988	-0.036685	0.617736	NaN
1188	1.000000	1.034779	7.37667e+06	-56189.1	1105.82	-29739.5	0.000000	0.000000	7.035158	-0.052838	NaN	0.000000	0.001536	0.001699	28.0806	0.066318	0.001945	34.1015	-85.1142	-164.897	0.006424	1.033475	-0.029414	-0.030718	-0.052838	34.1015	-0.028252	-0.020598	2.565216	NaN
1188	1.000000	1.042748	7.37667e+06	-56189.1	1105.82	-29739.5	0.000000	0.000000	7.043128	-0.032302	NaN	0.000000	0.001572	0.001697	28.0805	0.044720	0.002003	22.328	142.484	-163.354	-0.017807	1.041493	-0.021445	-0.022700	-0.032302	22.328	-0.020360	-0.012829	2.517962	NaN
1188	1.000000	1.050760	7.37667e+06	-56189.1	1105.82	-29739.5	0.000000	0.000000	7.051139	-0.044936	NaN	0.000000	0.001579	0.001719	28.0803	0.053677	0.002031	26.4265	-107.614	-166.558	-0.008842	1.049442	-0.013433	-0.014751	-0.044936	26.4265	-0.012158	-0.007619	5.897853	NaN
1188	1.000000	1.058786	7.37667e+06	-56189.1	1105.82	-29739.5	0.000000	0.000000	7.059169	0.051226	NaN	0.000000	0.001568	0.001698	28.0805	0.107104	0.001925	55.6521	72.8595	-165.681	-0.060386	1.057455	-0.005407	-0.006739	0.051226	55.6521	-0.006098	-0.004096	-12.5064	NaN
1188	1.000000	1.066764	7.37667e+06	-56189.1	1105.82	-29739.5	0.000000	0.000000	7.067314	4.104748	NaN	0.000000	0.001537	0.001746	28.0804	4.924576	0.001723	2858.22	8.427488	-167.573	2.602287	1.065460	0.002571	0.001267	4.104748	2858.22	0.001493	0.001149	3571.51	77028.6
1188	2.000000	1.071430	7.37667e+06	-56189.1	1105.82	-29739.5	0.000000	0.000000	7.072252	10.7017	NaN	0.000000	0.001550	0.001699	28.0806	10.6686	0.001608	6633.75	7.382486	-174.8	10.9878	1.071051	0.007237	0.006858	10.7017	6633.75	0.006027	0.005090	2102.47	84951.3
1188	2.000000	1.073362	7.37667e+06	-56189.1	1105.82	-29739.5	0.000000	0.000000	7.074311	13.7995	NaN	0.000000	0.001570	0.001724	28.0802	13.1042	0.001790	7320.52	6.328939	-172.472	14.1956	1.073027	0.009169	0.008834	13.7995	7320.52	0.007755	0.006792	2031.85	81157.6
1188	2.000000	1.075326	7.37667e+06	-56189.1	1105.82	-29739.5	0.000000	0.000000	7.076467	18.4626	NaN	0.000000	0.001538	0.001753	28.0803	15.0512	0.001700	8854.05	10.6244	-179.054	18.6194	1.074995	0.011133	0.010802	18.4626	8854.05	0.009569	0.008707	2120.55	86694.7
1188	2.000000	1.077351	7.37667e+06	-56189.1	1105.82	-29739.5	0.000000	0.000000	7.078639	22.0409	NaN	0.000000	0.001585	0.001728	28.0802	18.1396	0.001891	9593.96	10.9796	178.91	21.6916	1.077013	0.013158	0.012820	22.0409	9593.96	0.011435	0.010820	2037	84265.8
1188	2.000000	1.079361	7.37667e+06	-56189.1	1105.82	-29739.5	0.000000	0.000000	7.080757	24.6615	NaN	0.000000	0.001517	0.001720	28.0804	18.9857	0.001746	10874.4	0.334259	-171.443	24.4794	1.078993	0.015168	0.014800	24.6615	10874.4	0.013467	0.013295	1855	86166.7
1188	2.000000	1.081324	7.37667e+06	-56189.1	1105.82	-29739.5	0.000000	0.000000	7.082892	28.8387	NaN	0.000000	0.001548	0.001674	28.0809	20.683	0.001845	11211.6	7.793772	-178.305	29.3471	1.081011	0.017131	0.016818	28.8387	11211.6	0.015202	0.015555	1853.96	82130.2
1188	2.000000	1.083281	7.37667e+06	-56189.1	1105.82	-29739.5	0.000000	0.000000	7.085019	32.9727	NaN	0.000000	0.001566	0.001712	28.0802	22.9981	0.001756	13098.4	6.072807	-179.402	32.3261	1.083005	0.019088	0.018812	32.9727	13098.4	0.017200	0.018331	1798.71	88388.5
1188	2.000000	1.085310	7.37667e+06	-56189.1	1105.82	-29739.5	0.000000	0.000000	7.087269	38.3551	NaN	0.000000	0.001580	0.001711	28.0804	24.5168	0.001861	13174	6.964221	-179.02	38.3909	1.084984	0.021117	0.020791	38.3551	13174	0.018933	0.020894	1835.73	83269
1188	2.000000	1.087258	7.37667e+06	-56189.1	1105.82	-29739.5	0.000000	0.000000	7.089509	45.4309	NaN	0.000000	0.001604	0.001705	28.0806	26.1737	0.001729	15135.6	4.900229	-178.841	43.3227	1.086879	0.023065	0.022686	45.4309	15135.6	0.020814	0.023838	1905.84	89565.2
1188	2.000000	1.089329	7.37667e+06	-56189.1	1105.82	-29739.5	0.000000	0.000000	7.091701	48.377	NaN	0.000000	0.001616	0.001696	28.0816	28.8497	0.001690	17075.8	6.251491	179.126	49.0443	1.088974	0.025136	0.024781	48.377	17075.8	0.023012	0.027497	1759.34	94082.8
1188	2.000000	1.091267	7.37667e+06	-56189.1	1105.82	-29739.5	0.000000	0.000000	7.093918	55.1615	NaN	0.000000	0.001639	0.001683	28.0817	30.624	0.001721	17792.1	6.926675	177.004	53.3441	1.090943	0.027074	0.026750	55.1615	17792.1	0.024749	0.030560	1805.02	92987.1
1188	2.000000	1.093254	7.37667e+06	-56189.1	1105.82	-29739.5	0.000000	0.000000	7.096168	61.5557	NaN	0.000000	0.001643	0.001689	28.0814	32.1398	0.001654	19428.7	0.876264	-177.764	60.2279	1.092953	0.029061	0.028760	61.5557	19428.7	0.026685	0.034152	1802.38	96052
1188	2.000000	1.095239	7.37667e+06	-56189.1	1105.82	-29739.5	0.000000	0.000000	7.098377	66.9926	NaN	0.000000	0.001637	0.001679	28.0818	33.766	0.001683	20057.6	3.451625	179.956	65.2594	1.094962	0.031046	0.030769	66.9926	20057.6	0.028541	0.037774	1773.5	94287.6
1188	2.000000	1.097187	7.37667e+06	-56189.1	1105.82	-29739.5	0.000000	0.000000	7.100442	69.8627	NaN	0.000000	0.001640	0.001668	28.0816	36.3184	0.001650	22008.3	2.327890	179.271	66.0583	1.096973	0.032994	0.032780	69.8627	22008.3	0.030613	0.042023	1662.47	98087.6
1188	2.000000	1.099304	7.37667e+06	-56189.1	1105.82	-29739.5	0.000000	0.000000	7.102956	79.4917	NaN	0.000000	0.001626	0.001717	28.0815	39.2323	0.001852	21182.3	3.625073	179.709	79.5281	1.098964	0.035111	0.034770	79.4917	21182.3	0.032297	0.045639	1741.75	90589.4
1188	2.000000	1.101281	7.37667e+06	-56189.1	1105.82	-29739.5	0.000000	0.000000	7.105243	87.0143	NaN	0.000000	0.001604	0.001727	28.0817	40.635	0.001849	21981.8	4.884704	179.145	87.1738	1.100914	0.037088	0.036721	87.0143	21981.8	0.034119	0.049715	1750.25	90072.4
1188	2.000000	1.103294	7.37667e+06	-56189.1	1105.82	-29739.5	0.000000	0.000000	7.107447	91.6601	NaN	0.000000	0.001619	0.001722	28.0814	43.9655	0.001866	23560.3	4.003801	177.835	92.0757	1.102961	0.039101	0.038768	91.6601	23560.3	0.036183	0.054537	1680.7	92174.2
1188	2.000000	1.105259	7.37667e+06	-56189.1	1105.82	-29739.5	0.000000	0.000000	7.109859	102.524	NaN	0.000000	0.001593	0.001716	28.0816	44.3571	0.001859	23860.6	4.208699	177.974	101.331	1.104895	0.041066	0.040702	102.524	23860.6	0.037844	0.058574	1750.33	90074.5
1188	2.000000	1.107234	7.37667e+06	-56189.1	1105.82	-29739.5	0.000000	0.000000	7.112007	106.748	NaN	0.000000	0.001585	0.001710	28.0814	47.1399	0.001842	25586.3	5.591426	175.281	105.984	1.106956	0.043041	0.042763	106.748	25586.3	0.039912	0.063801	1673.14	92547.8
1188	2.000000	1.109268	7.37667e+06	-56189.1	1105.82	-29739.5	0.000000	0.000000	7.114493	117.729	NaN	0.000000	0.001582	0.001687	28.0815	48.5634	0.001844	26342.8	3.013145	178.98	118.035	1.108908	0.045075	0.044714	117.729	26342.8	0.041724	0.068558	1717.2	91919
1188	2.000000	1.111210	7.37667e+06	-56189.1	1105.82	-29739.5	0.000000	0.000000	7.116773	125.927	NaN	0.000000	0.001573	0.001661	28.0819	49.5064	0.001676	29543.2	4.380446	175.081	122.797	1.110943	0.047017	0.046750	125.927	29543.2	0.043820	0.074274	1695.44	99040.6
1188	2.000000	1.113227	7.37667e+06	-56189.1	1105.82	-29739.5	0.000000	0.000000	7.119175	135.307	NaN	0.000000	0.001580	0.001689	28.0814	53.2712	0.001954	27267.1	5.589941	175.085	134.193	1.112902	0.049034	0.048709	135.307	27267.1	0.045312	0.078476	1724.19	88929.2
1188	2.000000	1.115202	7.37667e+06	-56189.1	1105.82	-29739.5	0.000000	0.000000	7.121200	136.508	NaN	0.000000	0.001616	0.001704	28.0816	53.1417	0.001744	30469.5	0.722667	178.446	134.593	1.115059	0.051009	0.050866	136.508	30469.5	0.047649	0.085285	1600.61	95324.2
1188	2.000000	1.117207	7.37667e+06	-56189.1	1105.82	-29739.5	0.000000	0.000000	7.123884	153.034	NaN	0.000000	0.001637	0.001712	28.0815	55.9906	0.001816	30840.3	4.511835	175.514	151.939	1.116958	0.053014	0.052765	153.034	30840.3	0.049292	0.090238	1695.89	93798.5
1188	2.000000	1.119245	7.37667e+06	-56189.1	1105.82	-29739.5	0.000000	0.000000	7.126235	160.629	NaN	0.000000	0.001621	0.001703	28.0817	57.9818	0.001875	30925.2	6.882021	173.286	159.677	1.118936	0.055052	0.054743	160.629	30925.2	0.051156	0.096021	1672.85	91180.7
1188	2.000000	1.121203	7.37667e+06	-56189.1	1105.82	-29739.5	0.000000	0.000000	7.128648	171.697	NaN	0.000000	0.001608	0.001706	28.0817	58.8728	0.001768	33301.7	2.354377	176.789	169.953	1.120931	0.057010	0.056738	171.697	33301.7	0.053143	0.102375	1677.14	95091.6
1188	2.000000	1.123217	7.37667e+06	-56189.1	1105.82	-29739.5	0.000000	0.000000	7.131057	181.302	NaN	0.000000	0.001606	0.001693	28.0802	61.4361	0.001907	32218.2	1.019775	178.254	179.686	1.122955	0.059024	0.058762	181.302	32218.2	0.054803	0.107836	1681.27	89638
1188	2.000000	1.125203	7.37667e+06	-56189.1	1105.82	-29739.5	0.000000	0.000000	7.133440	190.953	NaN	0.000000	0.001613	0.001688	28.0803	63.1654	0.001855	34050.8	6.946057	172.454	188.704	1.124892	0.061009	0.060699	190.953	34050.8	0.056804	0.114596	1666.31	91899.8
1188	2.000000	1.127213	7.37667e+06	-56189.1	1105.82	-29739.5	0.000000	0.000000	7.136057	205.701	NaN	0.000000	0.001620	0.001740	28.0803	64.2517	0.001664	38605.1	5.710763	172.005	203.861	1.126877	0.063020	0.062684	205.701	38605.1	0.059024	0.122330	1681.52	100844
1188	2.000000	1.129293	7.37667e+06	-56189.1	1105.82	-29739.5	0.000000	0.000000	7.138462	213.586	NaN	0.000000	0.001610	0.001777	28.0805	66.7866	0.001783	37449.7	2.444555	176.141	213.584	1.129021	0.065100	0.064828	213.586	37449.7	0.060822	0.128774	1658.61	95347
1188	2.000000	1.131175	7.37667e+06	-56189.1	1105.82	-29739.5	0.000000	0.000000	7.140857	226.069	NaN	0.000000	0.001579	0.001775	28.0804	69.2388	0.001908	36286.4	5.573193	172.876	225.311	1.130972	0.066982	0.066779	226.069	36286.4	0.062310	0.134221	1684.31	90491.5
1188	2.000000	1.133232	7.37667e+06	-56189.1	1105.82	-29739.5	0.000000	0.000000	7.143552	241.57	NaN	0.000000	0.001537	0.001722	28.0804	70.8363	0.001791	39544.2	5.128594	172.81	240.977	1.132932	0.069039	0.068739	241.57	39544.2	0.064458	0.142277	1697.89	95783.1
1188	2.000000	1.135221	7.37667e+06	-56189.1	1105.82	-29739.5	0.000000	0.000000	7.146277	259.474	NaN	0.000000	0.001522	0.001749	28.0803	70.9248	0.001806	39268.3	4.889616	173.059	257.933	1.134885	0.071027	0.070691	259.474	39268.3	0.066072	0.148476	1747.58	93108.1
1188	2.000000	1.137181	7.37667e+06	-56189.1	1105.82	-29739.5	0.000000	0.000000	7.148653	269.565	NaN	0.000000	0.001576	0.001770	28.0802	72.776	0.001776	40972.2	1.466306	176.147	266.401	1.136834	0.072988	0.072641	269.565	40972.2	0.068054	0.156260	1725.1	94697.4
1188	2.000000	1.139274	7.37667e+06	-56189.1	1105.82	-29739.5	0.000000	0.000000	7.151058	277.14	NaN	0.000000	0.001575	0.001780	28.0802	76.0242	0.001864	40784.9	6.492491	171.682	279.27	1.138886	0.075081	0.074693	277.14	40784.9	0.069985	0.164027	1689.61	92005.9
1188	2.000000	1.141209	7.37667e+06	-56189.1	1105.82	-29739.5	0.000000	0.000000	7.153657	293.31	NaN	0.000000	0.001553	0.001747	28.0803	76.6957	0.001828	41958.5	4.343909	173.124	292.951	1.140879	0.077016	0.076686	293.31	41958.5	0.071773	0.171375	1711.51	92601.9
1188	2.000000	1.143198	7.37667e+06	-56189.1	1105.82	-29739.5	0.000000	0.000000	7.156070	303.616	NaN	0.000000	0.001540	0.001823	28.0804	80.3184	0.001817	44199.7	7.450117	169.078	302.389	1.142885	0.079005	0.078692	303.616	44199.7	0.073853	0.180114	1685.69	95152.4
1188	2.000000	1.145143	7.37667e+06	-56189.1	1105.82	-29739.5	0.000000	0.000000	7.158519	315.853	NaN	0.000000	0.001568	0.001758	28.0804	79.8992	0.001624	49196.7	4.103249	171.592	309.629	1.144832	0.080950	0.080639	315.853	49196.7	0.076135	0.189936	1662.95	103135
1188	2.000000	1.147165	7.37667e+06	-56189.1	1105.82	-29739.5	0.000000	0.000000	7.161075	328.846	NaN	0.000000	0.001536	0.001743	28.0804	81.9361	0.001834	44668.3	3.490438	173.874	325.803	1.146914	0.082972	0.082721	328.846	44668.3	0.077450	0.195708	1680.29	92250.5
1188	2.000000	1.149209	7.37667e+06	-56189.1	1105.82	-29739.5	0.000000	0.000000	7.163841	346.385	NaN	0.000000	0.001541	0.001715	28.0803	84.6151	0.001893	44709.1	4.354468	172.698	343.645	1.148842	0.085016	0.084649	346.385	44709.1	0.079205	0.203536	1701.83	90541.5
1188	2.000000	1.151151	7.37667e+06	-56189.1	1105.82	-29739.5	0.000000	0.000000	7.166600	366.232	NaN	0.000000	0.001531	0.001718	28.0804	85.9265	0.001913	44925.2	9.424171	168.299	363.841	1.150752	0.086958	0.086559	366.232	44925.2	0.080844	0.210977	1735.88	89360.5
1188	2.000000	1.153183	7.37667e+06	-56189.1	1105.82	-29739.5	0.000000	0.000000	7.169000	375.182	NaN	0.000000	0.001570	0.001741	28.0806	86.7666	0.001665	52127.7	-1.041573	176.969	373.108	1.152976	0.088990	0.088783	375.182	52127.7	0.083592	0.223732	1676.93	100688
1188	2.000000	1.155057	7.37667e+06	-56189.1	1105.82	-29739.5	0.000000	0.000000	7.171705	395.383	NaN	0.000000	0.001576	0.001721	28.0803	87.6955	0.001786	49113	4.565381	171.986	389.153	1.154870	0.090864	0.090677	395.383	49113	0.084826	0.229573	1722.25	93650.2
1188	2.000000	1.157074	7.37667e+06	-56189.1	1105.82	-29739.5	0.000000	0.000000	7.174246	408.133	NaN	0.000000	0.001543	0.001742	28.0814	91.4988	0.001811	50534.9	2.667864	173.486	399.026	1.156701	0.092881	0.092508	408.133	50534.9	0.086824	0.239178	1706.4	94407
1188	2.000000	1.159279	7.37667e+06	-56189.1	1105.82	-29739.5	0.000000	0.000000	7.177118	424.344	NaN	0.000000	0.001549	0.001770	28.0817	93.9705	0.001822	51583	5.773664	170.188	428.055	1.159020	0.095086	0.094826	424.344	51583	0.088916	0.249437	1701.21	94362.5
1188	2.000000	1.161205	7.37667e+06	-56189.1	1105.82	-29739.5	0.000000	0.000000	7.179466	434.585	NaN	0.000000	0.001550	0.001704	28.0817	94.7028	0.001716	55192.8	3.835834	171.371	434.493	1.161057	0.097012	0.096864	434.585	55192.8	0.091106	0.260390	1668.98	98819.6
1188	2.000000	1.163248	7.37667e+06	-56189.1	1105.82	-29739.5	0.000000	0.000000	7.182370	455.546	NaN	0.000000	0.001576	0.001740	28.0817	97.8007	0.001706	57326.5	3.716494	171.611	458.042	1.162955	0.099055	0.098762	455.546	57326.5	0.093095	0.270523	1683.94	100699
1188	2.000000	1.165213	7.37667e+06	-56189.1	1105.82	-29739.5	0.000000	0.000000	7.184998	471.629	NaN	0.000000	0.001579	0.001693	28.0818	98.7748	0.001773	55715.2	2.134405	173.764	470.99	1.164811	0.101020	0.100618	471.629	55715.2	0.094671	0.278687	1692.32	96424.7
1188	2.000000	1.167144	7.37667e+06	-56189.1	1105.82	-29739.5	0.000000	0.000000	7.187654	489.269	NaN	0.000000	0.001535	0.001731	28.082	101.691	0.001768	57526.5	8.521724	166.837	486.314	1.166832	0.102950	0.102639	489.269	57526.5	0.096572	0.288678	1694.86	97821.4
1188	2.000000	1.168604	7.37667e+06	-56189.1	1105.82	-29739.5	0.000000	0.000000	7.189955	509.716	NaN	0.000000	0.001512	0.001703	28.0818	101.476	0.001787	56779.5	2.378055	-6.577581	501.962	1.168209	0.104411	0.104015	509.716	56779.5	0.097678	0.294569	1730.38	95581