File: remote_trans/data/nanoindenter/0828-1/data/Data_2025-08-06,11h17m57s/2025-07-22_16-23-58_1_441.txt
2025-07-22, 16:23:58, 1
Index	Phase	Displacement	Time	Pos X	Pos Y	Pos Z	Rot A	Rot B	Piezo Z	Force A	Force B	Gripper	Voltage A	Voltage B	Temperature	Amplitude force	Amplitude pos	Stiffness	Phase shift	Phase excitation	Force A raw	Displacement raw	HMax	HMax raw	Real Force	Real Stiffness	Contact Depth	Area	Hardness	Reduced Mod.
[#]	[#]	[um]	[s]	[um]	[um]	[um]	[m°]	[m°]	[um]	[uN]	[uN]	[V]	[V]	[V]	[°C]	[uN]	[um]	[N/m]	[°]	[°]	[uN]	[um]	[um]	[um]	[uN]	[N/m]	[um]	[um^2]	[MPa]	[MPa]
441	1.000000	0.003207	7.36937e+06	-55039.1	1005.82	-29742.3	0.000000	0.000000	6.002819	0.009631	NaN	0.000000	0.001607	0.001741	28.0811	0.066050	0.001066	61.944	-111.004	-167.187	-0.019222	0.001941	-1.234792	-1.236058	0.009631	61.944	-1.234909	-3.221266E+16	-2.989678E-19	NaN
441	1.000000	0.013270	7.36937e+06	-55039.1	1005.82	-29742.3	0.000000	0.000000	6.012881	-0.025634	NaN	0.000000	0.001640	0.001770	28.0806	0.061889	0.001309	47.2883	-86.8814	13.9293	-0.025065	0.011779	-1.224729	-1.226220	-0.025634	47.2883	-1.224323	-2.324669E+16	1.102694E-18	NaN
441	1.000000	0.023128	7.36937e+06	-55039.1	1005.82	-29742.3	0.000000	0.000000	6.022740	0.000758	NaN	0.000000	0.001660	0.001697	28.0807	0.092330	0.001864	49.5371	-64.5581	-165.074	0.014519	0.021868	-1.214871	-1.216131	0.000758	49.5371	-1.214883	-1.737823E+16	-4.361603E-20	NaN
441	1.000000	0.033144	7.36937e+06	-55039.1	1005.82	-29742.3	0.000000	0.000000	6.032756	0.008708	NaN	0.000000	0.001610	0.001711	28.0807	0.119357	0.001886	63.297	-140.776	10.9887	0.012218	0.031749	-1.204856	-1.206251	0.008708	63.297	-1.204959	-1.279810E+16	-6.803934E-19	NaN
441	1.000000	0.043138	7.36937e+06	-55039.1	1005.82	-29742.3	0.000000	0.000000	6.042750	-0.002678	NaN	0.000000	0.001635	0.001754	28.0812	0.092027	0.002079	44.2607	18.8722	-169.48	0.052586	0.041840	-1.194862	-1.196159	-0.002678	44.2607	-1.194816	-9.361130E+15	2.861106E-19	NaN
441	1.000000	0.053129	7.36937e+06	-55039.1	1005.82	-29742.3	0.000000	0.000000	6.052742	0.014768	NaN	0.000000	0.001657	0.001668	28.0808	0.029783	0.001927	15.4518	50.6244	13.1913	0.007367	0.051793	-1.184870	-1.186207	0.014768	15.4518	-1.185587	-7.042291E+15	-2.097023E-18	NaN
441	1.000000	0.063123	7.36937e+06	-55039.1	1005.82	-29742.3	0.000000	0.000000	6.062733	-0.042838	NaN	0.000000	0.001711	0.001703	28.0813	0.064077	0.001794	35.7142	-131.096	-164.872	-0.071438	0.061848	-1.174877	-1.176151	-0.042838	35.7142	-1.173977	-4.922391E+15	8.702735E-18	NaN
441	1.000000	0.073115	7.36937e+06	-55039.1	1005.82	-29742.3	0.000000	0.000000	6.072728	0.042274	NaN	0.000000	0.001720	0.001725	28.0808	0.034828	0.002012	17.3129	-34.8139	12.7505	0.071011	0.071779	-1.164885	-1.166220	0.042274	17.3129	-1.166716	-3.934412E+15	-1.074479E-17	NaN
441	1.000000	0.083146	7.36937e+06	-55039.1	1005.82	-29742.3	0.000000	0.000000	6.082759	0.019678	NaN	0.000000	0.001675	0.001686	28.0809	0.074339	0.001983	37.4791	-168.761	-166.568	-0.044337	0.081818	-1.154854	-1.156181	0.019678	37.4791	-1.155248	-2.761636E+15	-7.125354E-18	NaN
441	1.000000	0.093146	7.36937e+06	-55039.1	1005.82	-29742.3	0.000000	0.000000	6.092757	-0.005912	NaN	0.000000	0.001583	0.001717	28.0806	0.036279	0.001917	18.9275	132.882	13.984	-0.001483	0.091841	-1.144854	-1.146159	-0.005912	18.9275	-1.144620	-1.989216E+15	2.972014E-18	NaN
441	1.000000	0.103158	7.36937e+06	-55039.1	1005.82	-29742.3	0.000000	0.000000	6.102768	-0.049627	NaN	0.000000	0.001616	0.001734	28.0797	0.052995	0.001818	29.1478	-49.8178	-163.483	-0.065978	0.101813	-1.134842	-1.136187	-0.049627	29.1478	-1.133565	-1.413947E+15	3.509808E-17	NaN
441	1.000000	0.113162	7.36937e+06	-55039.1	1005.82	-29742.3	0.000000	0.000000	6.112773	-0.027430	NaN	0.000000	0.001634	0.001748	28.0796	0.146985	0.001923	76.4419	-27.6455	15.0675	0.036911	0.111851	-1.124838	-1.126149	-0.027430	76.4419	-1.124569	-1.070940E+15	2.561313E-17	NaN
441	1.000000	0.123168	7.36937e+06	-55039.1	1005.82	-29742.3	0.000000	0.000000	6.122780	-0.017317	NaN	0.000000	0.001576	0.001731	28.0794	0.077813	0.002078	37.4509	-68.7631	-167.111	-0.096450	0.121816	-1.114831	-1.116184	-0.017317	37.4509	-1.114484	-7.842684E+14	2.208067E-17	NaN
441	1.000000	0.133154	7.36937e+06	-55039.1	1005.82	-29742.3	0.000000	0.000000	6.132766	-0.009082	NaN	0.000000	0.001634	0.001728	28.0793	0.034298	0.002104	16.3013	-112.679	14.4263	-0.012244	0.131816	-1.104845	-1.106183	-0.009082	16.3013	-1.104428	-5.747766E+14	1.580155E-17	NaN
441	1.000000	0.143194	7.36937e+06	-55039.1	1005.82	-29742.3	0.000000	0.000000	6.142803	-0.074371	NaN	0.000000	0.001626	0.001748	28.0796	0.052766	0.001979	26.6671	-150.215	-168.776	0.009008	0.141856	-1.094805	-1.096143	-0.074371	26.6671	-1.092714	-4.001727E+14	1.858475E-16	NaN
441	1.000000	0.153191	7.36937e+06	-55039.1	1005.82	-29742.3	0.000000	0.000000	6.152806	0.069630	NaN	0.000000	0.001646	0.001699	28.0795	0.052504	0.002159	24.3144	5.662424	10.2276	-0.017710	0.151831	-1.084808	-1.086168	0.069630	24.3144	-1.086956	-3.349152E+14	-2.079046E-16	NaN
441	1.000000	0.163185	7.36937e+06	-55039.1	1005.82	-29742.3	0.000000	0.000000	6.162793	-0.090864	NaN	0.000000	0.001625	0.001727	28.0799	0.053461	0.002033	26.2964	-57.2864	-165.535	-0.015101	0.161843	-1.074815	-1.076156	-0.090864	26.2964	-1.072223	-2.123523E+14	4.278926E-16	NaN
441	1.000000	0.173190	7.36937e+06	-55039.1	1005.82	-29742.3	0.000000	0.000000	6.172804	0.043529	NaN	0.000000	0.001634	0.001739	28.0795	0.055364	0.002075	26.6778	178.967	15.6999	-0.010217	0.171854	-1.064809	-1.066146	0.043529	26.6778	-1.066033	-1.753445E+14	-2.482495E-16	NaN
441	1.000000	0.183215	7.36937e+06	-55039.1	1005.82	-29742.3	0.000000	0.000000	6.182829	0.041190	NaN	0.000000	0.001617	0.001689	28.0796	0.112270	0.002018	55.6303	104.662	-168.104	0.068486	0.181916	-1.054784	-1.056083	0.041190	55.6303	-1.055340	-1.259467E+14	-3.270402E-16	NaN
441	1.000000	0.193189	7.36937e+06	-55039.1	1005.82	-29742.3	0.000000	0.000000	6.192801	3.264952E-5	NaN	0.000000	0.001598	0.001718	28.0793	0.052484	0.002093	25.0727	159.969	13.9163	-0.002594	0.191779	-1.044810	-1.046220	3.264952E-5	25.0727	-1.044811	-9.091962E+13	-3.591031E-19	NaN
441	1.000000	0.203200	7.36937e+06	-55039.1	1005.82	-29742.3	0.000000	0.000000	6.202810	-0.050623	NaN	0.000000	0.001664	0.001742	28.0797	0.105205	0.002000	52.5917	-103.599	-168.327	-0.004448	0.201907	-1.034799	-1.036093	-0.050623	52.5917	-1.034077	-6.521122E+13	7.762968E-16	NaN
441	1.000000	0.213226	7.36937e+06	-55039.1	1005.82	-29742.3	0.000000	0.000000	6.212838	-0.003832	NaN	0.000000	0.001665	0.001684	28.0796	0.131227	0.001991	65.8947	133.053	13.4884	0.092534	0.211800	-1.024774	-1.026199	-0.003832	65.8947	-1.024730	-4.881926E+13	7.850347E-17	NaN
441	1.000000	0.223195	7.36937e+06	-55039.1	1005.82	-29742.3	0.000000	0.000000	6.222807	0.011875	NaN	0.000000	0.001657	0.001710	28.0795	0.096734	0.001968	49.1657	-88.747	-166.084	0.030116	0.221872	-1.014805	-1.016127	0.011875	49.1657	-1.014986	-3.609781E+13	-3.289592E-16	NaN
441	1.000000	0.233194	7.36937e+06	-55039.1	1005.82	-29742.3	0.000000	0.000000	6.232807	0.017465	NaN	0.000000	0.001635	0.001703	28.0799	0.054409	0.001981	27.4657	177.396	15.007	0.008299	0.231821	-1.004806	-1.006179	0.017465	27.4657	-1.005282	-2.672289E+13	-6.535678E-16	NaN
441	1.000000	0.243196	7.36937e+06	-55039.1	1005.82	-29742.3	0.000000	0.000000	6.242810	0.040102	NaN	0.000000	0.001636	0.001721	28.0809	0.015130	0.002180	6.938970	23.7643	-169.322	0.156649	0.241898	-0.994804	-0.996101	0.040102	6.938970	-0.999138	-2.208836E+13	-1.815532E-15	NaN
441	1.000000	0.253211	7.36937e+06	-55039.1	1005.82	-29742.3	0.000000	0.000000	6.252823	-0.000826	NaN	0.000000	0.001618	0.001724	28.0811	0.093864	0.002005	46.8068	-104.907	15.0691	0.062454	0.251827	-0.984788	-0.986172	-0.000826	46.8068	-0.984775	-1.414935E+13	5.834487E-17	NaN
441	1.000000	0.263221	7.36937e+06	-55039.1	1005.82	-29742.3	0.000000	0.000000	6.262832	-0.022092	NaN	0.000000	0.001687	0.001696	28.081	0.078014	0.001992	39.1584	-0.000986	-169.942	-0.035949	0.261904	-0.974778	-0.976095	-0.022092	39.1584	-0.974355	-1.024127E+13	2.157131E-15	NaN
441	1.000000	0.273243	7.36937e+06	-55039.1	1005.82	-29742.3	0.000000	0.000000	6.272856	0.027511	NaN	0.000000	0.001661	0.001702	28.081	0.115190	0.002071	55.6176	160.405	11.2883	-0.003604	0.271866	-0.964757	-0.966133	0.027511	55.6176	-0.965128	-7.691146E+12	-3.576920E-15	NaN
441	1.000000	0.283233	7.36937e+06	-55039.1	1005.82	-29742.3	0.000000	0.000000	6.282845	-0.000327	NaN	0.000000	0.001661	0.001730	28.0812	0.121116	0.001961	61.7622	74.4829	-166.574	0.004176	0.281892	-0.954766	-0.956107	-0.000327	61.7622	-0.954762	-5.575034E+12	5.860765E-17	NaN
441	1.000000	0.293247	7.36937e+06	-55039.1	1005.82	-29742.3	0.000000	0.000000	6.292858	-0.017655	NaN	0.000000	0.001621	0.001701	28.0812	0.040810	0.001986	20.5525	-1.452094	10.4936	-0.034646	0.291866	-0.944752	-0.946133	-0.017655	20.5525	-0.944108	-4.004571E+12	4.408732E-15	NaN
441	1.000000	0.303238	7.36937e+06	-55039.1	1005.82	-29742.3	0.000000	0.000000	6.302848	-0.040870	NaN	0.000000	0.001588	0.001699	28.0809	0.069192	0.001915	36.1324	-65.4507	-167.284	0.004939	0.301894	-0.934762	-0.936106	-0.040870	36.1324	-0.933913	-2.917477E+12	1.400874E-14	NaN
441	1.000000	0.313254	7.36937e+06	-55039.1	1005.82	-29742.3	0.000000	0.000000	6.312867	0.005533	NaN	0.000000	0.001573	0.001685	28.0812	0.061199	0.002076	29.4781	67.3406	11.8806	-0.006276	0.311912	-0.924745	-0.926087	0.005533	29.4781	-0.924886	-2.203779E+12	-2.510647E-15	NaN
441	1.000000	0.323240	7.36937e+06	-55039.1	1005.82	-29742.3	0.000000	0.000000	6.322854	0.054970	NaN	0.000000	0.001635	0.001690	28.0813	0.081515	0.002018	40.3943	172.482	-165.587	0.038899	0.321944	-0.914760	-0.916055	0.054970	40.3943	-0.915780	-1.660450E+12	-3.310534E-14	NaN
441	1.000000	0.333298	7.36937e+06	-55039.1	1005.82	-29742.3	0.000000	0.000000	6.332909	-0.030164	NaN	0.000000	0.001631	0.001716	28.0809	0.138708	0.001985	69.8837	-172.123	15.4623	-0.012853	0.331862	-0.904702	-0.906137	-0.030164	69.8837	-0.904378	-1.164705E+12	2.589826E-14	NaN
441	1.000000	0.343260	7.36937e+06	-55039.1	1005.82	-29742.3	0.000000	0.000000	6.342872	0.001406	NaN	0.000000	0.001634	0.001736	28.0809	0.006162	0.002056	2.996345	-105.538	-166.848	-0.022090	0.341948	-0.894740	-0.896051	0.001406	2.996345	-0.895092	-8.724456E+11	-1.611982E-15	NaN
441	1.000000	0.353261	7.36937e+06	-55039.1	1005.82	-29742.3	0.000000	0.000000	6.352875	0.041608	NaN	0.000000	0.001598	0.001727	28.0808	0.123929	0.002033	60.9544	40.0575	19.4312	0.023883	0.351935	-0.884738	-0.886064	0.041608	60.9544	-0.885250	-6.422504E+11	-6.478544E-14	NaN
441	1.000000	0.363268	7.36937e+06	-55039.1	1005.82	-29742.3	0.000000	0.000000	6.362882	0.023729	NaN	0.000000	0.001634	0.001722	28.081	0.088854	0.001962	45.2888	89.9425	-168.215	-0.028898	0.361970	-0.874731	-0.876030	0.023729	45.2888	-0.875124	-4.685531E+11	-5.064275E-14	NaN
441	1.000000	0.373265	7.36937e+06	-55039.1	1005.82	-29742.3	0.000000	0.000000	6.372879	0.061466	NaN	0.000000	0.001627	0.001718	28.0796	0.066475	0.001977	33.6164	24.5857	13.132	0.022358	0.371920	-0.864735	-0.866079	0.061466	33.6164	-0.866106	-3.538005E+11	-1.737312E-13	NaN
441	1.000000	0.383257	7.36937e+06	-55039.1	1005.82	-29742.3	0.000000	0.000000	6.382868	-0.040603	NaN	0.000000	0.001597	0.001709	28.0796	0.068811	0.001772	38.8306	-0.334017	-165.339	0.046886	0.381958	-0.854742	-0.856041	-0.040603	38.8306	-0.853958	-2.422850E+11	1.675832E-13	NaN
441	1.000000	0.393313	7.36937e+06	-55039.1	1005.82	-29742.3	0.000000	0.000000	6.392926	0.010934	NaN	0.000000	0.001593	0.001678	28.0798	0.112716	0.001998	56.4191	-119.493	15.665	-0.026601	0.391927	-0.844686	-0.846072	0.010934	56.4191	-0.844831	-1.822801E+11	-5.998735E-14	NaN
441	1.000000	0.403287	7.36937e+06	-55039.1	1005.82	-29742.3	0.000000	0.000000	6.402898	-0.022111	NaN	0.000000	0.001610	0.001718	28.0799	0.127409	0.001977	64.4563	-21.2136	-164.608	-0.019766	0.401920	-0.834713	-0.836079	-0.022111	64.4563	-0.834455	-1.318761E+11	1.676663E-13	NaN
441	1.000000	0.413303	7.36937e+06	-55039.1	1005.82	-29742.3	0.000000	0.000000	6.412914	-0.020811	NaN	0.000000	0.001601	0.001795	28.0797	0.085310	0.001964	43.4278	-37.2018	13.5514	-0.065694	0.411936	-0.824696	-0.826063	-0.020811	43.4278	-0.824337	-9.616511E+10	2.164081E-13	NaN
441	1.000000	0.423301	7.36937e+06	-55039.1	1005.82	-29742.3	0.000000	0.000000	6.422911	-0.052084	NaN	0.000000	0.001631	0.001741	28.0797	0.162480	0.001959	82.9356	-64.9138	-164.603	-0.027244	0.421911	-0.814698	-0.816089	-0.052084	82.9356	-0.814227	-7.013254E+10	7.426519E-13	NaN
441	1.000000	0.433295	7.36937e+06	-55039.1	1005.82	-29742.3	0.000000	0.000000	6.432907	-0.003438	NaN	0.000000	0.001640	0.001695	28.0801	0.081850	0.002110	38.7835	69.7166	14.0668	-0.013970	0.431915	-0.804705	-0.806084	-0.003438	38.7835	-0.804638	-5.197728E+10	6.615340E-14	NaN
441	1.000000	0.443308	7.36937e+06	-55039.1	1005.82	-29742.3	0.000000	0.000000	6.442918	-0.045225	NaN	0.000000	0.001619	0.001701	28.0798	0.048823	0.001938	25.1914	-62.2141	-165.503	-0.082764	0.442007	-0.794692	-0.795992	-0.045225	25.1914	-0.793345	-3.651834E+10	1.238416E-12	NaN
441	1.000000	0.453304	7.36937e+06	-55039.1	1005.82	-29742.3	0.000000	0.000000	6.452919	0.047377	NaN	0.000000	0.001642	0.001665	28.0797	0.106251	0.001894	56.0942	10.8094	13.1465	0.009605	0.451947	-0.784695	-0.786053	0.047377	56.0942	-0.785328	-2.842022E+10	-1.667025E-12	NaN
441	1.000000	0.463288	7.36937e+06	-55039.1	1005.82	-29742.3	0.000000	0.000000	6.462901	0.021444	NaN	0.000000	0.001662	0.001724	28.0799	0.121564	0.002012	60.4186	151.733	-162.064	0.028472	0.462000	-0.774711	-0.775999	0.021444	60.4186	-0.774978	-2.055762E+10	-1.043119E-12	NaN
441	1.000000	0.473335	7.36937e+06	-55039.1	1005.82	-29742.3	0.000000	0.000000	6.472947	-0.008476	NaN	0.000000	0.001603	0.001711	28.0798	0.025669	0.002096	12.2464	-88.9604	12.5893	0.021155	0.471975	-0.764664	-0.766025	-0.008476	12.2464	-0.764145	-1.464482E+10	5.787800E-13	NaN
441	1.000000	0.483305	7.36937e+06	-55039.1	1005.82	-29742.3	0.000000	0.000000	6.482919	0.043668	NaN	0.000000	0.001648	0.001697	28.0798	0.027763	0.002022	13.7308	-140.331	-164.59	-0.009773	0.482038	-0.754694	-0.755961	0.043668	13.7308	-0.757079	-1.173715E+10	-3.720507E-12	NaN
441	1.000000	0.493323	7.36937e+06	-55039.1	1005.82	-29742.3	0.000000	0.000000	6.492937	0.054307	NaN	0.000000	0.001659	0.001703	28.0798	0.043780	0.001939	22.5792	124.585	13.6933	0.001843	0.491954	-0.744677	-0.746045	0.054307	22.5792	-0.746481	-8.419897E+9	-6.449865E-12	NaN
441	1.000000	0.503375	7.36937e+06	-55039.1	1005.82	-29742.3	0.000000	0.000000	6.502989	0.034497	NaN	0.000000	0.001616	0.001721	28.0802	0.049126	0.002019	24.3267	173.041	-167.387	0.028881	0.502021	-0.734624	-0.735979	0.034497	24.3267	-0.735688	-6.002217E+9	-5.747387E-12	NaN
441	1.000000	0.513331	7.36937e+06	-55039.1	1005.82	-29742.3	0.000000	0.000000	6.512941	-0.047924	NaN	0.000000	0.001623	0.001732	28.0809	0.124924	0.002078	60.1298	-19.3001	11.2057	0.007127	0.511980	-0.724669	-0.726020	-0.047924	60.1298	-0.724071	-4.168538E+9	1.149664E-11	NaN
441	1.000000	0.523321	7.36937e+06	-55039.1	1005.82	-29742.3	0.000000	0.000000	6.522934	0.033184	NaN	0.000000	0.001585	0.001695	28.0811	0.074230	0.001939	38.2807	-100.56	-164.504	0.065601	0.522008	-0.714679	-0.715992	0.033184	38.2807	-0.715329	-3.167803E+9	-1.047551E-11	NaN
441	1.000000	0.533339	7.36937e+06	-55039.1	1005.82	-29742.3	0.000000	0.000000	6.532952	0.028509	NaN	0.000000	0.001614	0.001717	28.081	0.071547	0.001991	35.9362	-59.4126	14.6339	-0.007796	0.532007	-0.704660	-0.705992	0.028509	35.9362	-0.705255	-2.308274E+9	-1.235066E-11	NaN
441	1.000000	0.543347	7.36937e+06	-55039.1	1005.82	-29742.3	0.000000	0.000000	6.542959	-0.018665	NaN	0.000000	0.001616	0.001742	28.0813	0.025862	0.001885	13.7218	-101.253	-164.416	0.024356	0.542065	-0.694652	-0.695934	-0.018665	13.7218	-0.693632	-1.601568E+9	1.165430E-11	NaN
441	1.000000	0.553336	7.36937e+06	-55039.1	1005.82	-29742.3	0.000000	0.000000	6.552947	-0.020107	NaN	0.000000	0.001645	0.001744	28.0809	0.109924	0.001928	57.0121	102.327	16.4151	-0.001109	0.552051	-0.684663	-0.685949	-0.020107	57.0121	-0.684399	-1.197721E+9	1.678762E-11	NaN
441	1.000000	0.563326	7.36937e+06	-55039.1	1005.82	-29742.3	0.000000	0.000000	6.562936	-0.036870	NaN	0.000000	0.001609	0.001724	28.0812	0.036005	0.002010	17.9092	-33.9845	-166.333	0.008135	0.562077	-0.674673	-0.675922	-0.036870	17.9092	-0.673129	-8.398799E+8	4.389912E-11	NaN
441	1.000000	0.573325	7.36937e+06	-55039.1	1005.82	-29742.3	0.000000	0.000000	6.572935	-0.048906	NaN	0.000000	0.001600	0.001716	28.0822	0.008434	0.002069	4.076915	63.2439	17.1769	-0.015720	0.571979	-0.664674	-0.666021	-0.048906	4.076915	-0.655677	-4.844500E+8	1.009510E-10	NaN
441	1.000000	0.583342	7.36937e+06	-55039.1	1005.82	-29742.3	0.000000	0.000000	6.582953	-0.035901	NaN	0.000000	0.001634	0.001735	28.0812	0.055253	0.002049	26.9714	153.194	-166.68	0.006837	0.582066	-0.654657	-0.655934	-0.035901	26.9714	-0.653659	-4.545549E+8	7.898129E-11	NaN
441	1.000000	0.593379	7.36937e+06	-55039.1	1005.82	-29742.3	0.000000	0.000000	6.592990	-0.032203	NaN	0.000000	0.001616	0.001685	28.0811	0.085512	0.002026	42.2167	167.702	16.3431	-0.055558	0.592069	-0.644620	-0.645931	-0.032203	42.2167	-0.644048	-3.356028E+8	9.595422E-11	NaN
441	1.000000	0.603352	7.36937e+06	-55039.1	1005.82	-29742.3	0.000000	0.000000	6.602963	-0.026384	NaN	0.000000	0.001655	0.001701	28.0813	0.100234	0.002118	47.3262	21.0279	-167.372	-0.016292	0.602044	-0.634648	-0.635955	-0.026384	47.3262	-0.634229	-2.460906E+8	1.072141E-10	NaN
441	1.000000	0.613367	7.36937e+06	-55039.1	1005.82	-29742.3	0.000000	0.000000	6.612976	-0.085453	NaN	0.000000	0.001645	0.001676	28.0814	0.136915	0.001991	68.7691	-43.7176	12.9241	-0.047440	0.611990	-0.624632	-0.626010	-0.085453	68.7691	-0.623700	-1.763950E+8	4.844385E-10	NaN
441	1.000000	0.623346	7.36937e+06	-55039.1	1005.82	-29742.3	0.000000	0.000000	6.622955	-0.059309	NaN	0.000000	0.001622	0.001720	28.0811	0.080622	0.002080	38.7518	116.729	-164.111	-0.076100	0.622046	-0.614654	-0.615953	-0.059309	38.7518	-0.613506	-1.277446E+8	4.642807E-10	NaN
441	1.000000	0.633373	7.36937e+06	-55039.1	1005.82	-29742.3	0.000000	0.000000	6.632982	-0.057743	NaN	0.000000	0.001599	0.001746	28.0813	0.093614	0.001860	50.323	34.4511	12.4526	0.006597	0.631974	-0.604627	-0.606026	-0.057743	50.323	-0.603766	-9.382519E+7	6.154364E-10	NaN
441	1.000000	0.643380	7.36937e+06	-55039.1	1005.82	-29742.3	0.000000	0.000000	6.642991	-0.021170	NaN	0.000000	0.001615	0.001730	28.0802	0.022117	0.002022	10.9404	17.5043	-167.423	-0.036127	0.642072	-0.594619	-0.595927	-0.021170	10.9404	-0.593168	-6.704061E+7	3.157758E-10	NaN
441	1.000000	0.653389	7.36937e+06	-55039.1	1005.82	-29742.3	0.000000	0.000000	6.653004	0.051270	NaN	0.000000	0.001605	0.001733	28.08	0.075754	0.001994	37.9819	-6.445564	15.1407	-0.023610	0.652031	-0.584610	-0.585968	0.051270	37.9819	-0.585622	-5.275917E+7	-9.717740E-10	NaN
441	1.000000	0.663422	7.36937e+06	-55039.1	1005.82	-29742.3	0.000000	0.000000	6.663034	-0.002367	NaN	0.000000	0.001637	0.001706	28.0798	0.100336	0.002147	46.7242	138.149	-168.029	-0.078744	0.662024	-0.574577	-0.575975	-0.002367	46.7242	-0.574539	-3.709676E+7	6.379810E-11	NaN
441	1.000000	0.673395	7.36937e+06	-55039.1	1005.82	-29742.3	0.000000	0.000000	6.673005	-0.041036	NaN	0.000000	0.001607	0.001692	28.0797	0.054995	0.002012	27.3291	75.3967	16.6513	-0.037240	0.672019	-0.564604	-0.565980	-0.041036	27.3291	-0.563478	-2.609061E+7	1.572837E-9	NaN
441	1.000000	0.683397	7.36937e+06	-55039.1	1005.82	-29742.3	0.000000	0.000000	6.683009	-0.009346	NaN	0.000000	0.001647	0.001719	28.0799	0.091610	0.001936	47.31	14.0463	-164.213	0.074663	0.682092	-0.554602	-0.555908	-0.009346	47.31	-0.554454	-1.957169E+7	4.775269E-10	NaN
441	1.000000	0.693387	7.36937e+06	-55039.1	1005.82	-29742.3	0.000000	0.000000	6.693001	0.043432	NaN	0.000000	0.001640	0.001721	28.0797	0.126556	0.001974	64.1272	155.419	13.8118	0.028190	0.692043	-0.544613	-0.545957	0.043432	64.1272	-0.545121	-1.453286E+7	-2.988531E-9	NaN
441	1.000000	0.703398	7.36937e+06	-55039.1	1005.82	-29742.3	0.000000	0.000000	6.703012	0.039929	NaN	0.000000	0.001635	0.001728	28.0798	0.017988	0.001883	9.550793	-118.45	-169.824	0.036373	0.702083	-0.534601	-0.535916	0.039929	9.550793	-0.537737	-1.148062E+7	-3.477964E-9	NaN
441	1.000000	0.713440	7.36937e+06	-55039.1	1005.82	-29742.3	0.000000	0.000000	6.713055	0.077150	NaN	0.000000	0.001673	0.001736	28.0798	0.051442	0.002109	24.3893	77.8951	16.1461	-0.003842	0.712096	-0.524559	-0.525903	0.077150	24.3893	-0.526932	-8.1275e+06	-9.492522E-9	NaN
441	1.000000	0.723420	7.36937e+06	-55039.1	1005.82	-29742.3	0.000000	0.000000	6.723031	-0.014690	NaN	0.000000	0.001658	0.001743	28.08	0.093890	0.001997	47.0058	-127.498	-166.789	-0.066755	0.722087	-0.514580	-0.515912	-0.014690	47.0058	-0.514345	-5.43153e+06	2.704549E-9	NaN
441	1.000000	0.733430	7.36937e+06	-55039.1	1005.82	-29742.3	0.000000	0.000000	6.733041	-0.023152	NaN	0.000000	0.001630	0.001739	28.08	0.011797	0.001914	6.164773	108.65	9.066649	-0.081609	0.732062	-0.504569	-0.505937	-0.023152	6.164773	-0.501753	-3.6263e+06	6.384596E-9	NaN
441	1.000000	0.743395	7.36937e+06	-55039.1	1005.82	-29742.3	0.000000	0.000000	6.743006	-0.042695	NaN	0.000000	0.001632	0.001741	28.0801	0.052443	0.002085	25.1562	75.9989	-163.56	0.041961	0.742086	-0.494604	-0.495913	-0.042695	25.1562	-0.493331	-2.7665e+06	1.543286E-8	NaN
441	1.000000	0.753429	7.36937e+06	-55039.1	1005.82	-29742.3	0.000000	0.000000	6.753041	-0.013168	NaN	0.000000	0.001642	0.001689	28.08	0.068218	0.001990	34.2721	177.771	15.9309	-0.002030	0.752050	-0.484570	-0.485949	-0.013168	34.2721	-0.484282	-2.0675e+06	6.369065E-9	NaN
441	1.000000	0.763417	7.36937e+06	-55039.1	1005.82	-29742.3	0.000000	0.000000	6.763029	0.012220	NaN	0.000000	0.001643	0.001715	28.08	0.050542	0.002074	24.3688	36.1389	-166.516	0.010104	0.762183	-0.474583	-0.475817	0.012220	24.3688	-0.474959	-1.53082e+06	-7.982450E-9	NaN
441	1.000000	0.773414	7.36938e+06	-55039.1	1005.82	-29742.3	0.000000	0.000000	6.773026	0.005264	NaN	0.000000	0.001591	0.001707	28.08	0.030019	0.002046	14.6705	132.947	11.593	-0.049831	0.772094	-0.464585	-0.465905	0.005264	14.6705	-0.464854	-1.1046e+06	-4.765681E-9	NaN
441	1.000000	0.783448	7.36938e+06	-55039.1	1005.82	-29742.3	0.000000	0.000000	6.783061	0.013480	NaN	0.000000	0.001614	0.001720	28.081	0.089806	0.002050	43.8055	-132.309	-163.511	0.023391	0.782153	-0.454551	-0.455847	0.013480	43.8055	-0.454782	-797344	-1.690587E-8	NaN
441	1.000000	0.793468	7.36938e+06	-55039.1	1005.82	-29742.3	0.000000	0.000000	6.793077	-0.062744	NaN	0.000000	0.001594	0.001661	28.0813	0.088286	0.002146	41.1354	-115.117	10.5861	0.009924	0.792085	-0.444532	-0.445914	-0.062744	41.1354	-0.443388	-551011	1.138711E-7	NaN
441	1.000000	0.803456	7.36938e+06	-55039.1	1005.82	-29742.3	0.000000	0.000000	6.803069	0.016473	NaN	0.000000	0.001601	0.001683	28.0811	0.134734	0.001973	68.2848	-132.237	-168.069	-0.033362	0.802103	-0.434543	-0.435896	0.016473	68.2848	-0.434724	-415777	-3.962102E-8	NaN
441	1.000000	0.813434	7.36938e+06	-55039.1	1005.82	-29742.3	0.000000	0.000000	6.813045	-0.026874	NaN	0.000000	0.001618	0.001685	28.0811	0.054752	0.001948	28.1106	135.845	14.1185	-0.025205	0.812089	-0.424565	-0.425910	-0.026874	28.1106	-0.423848	-291719	9.212165E-8	NaN
441	1.000000	0.823472	7.36938e+06	-55039.1	1005.82	-29742.3	0.000000	0.000000	6.823083	-0.009947	NaN	0.000000	0.001660	0.001696	28.081	0.089543	0.002068	43.301	55.3091	-165.348	-0.014246	0.822186	-0.414528	-0.415813	-0.009947	43.301	-0.414355	-213944	4.649380E-8	NaN
441	1.000000	0.833453	7.36938e+06	-55039.1	1005.82	-29742.3	0.000000	0.000000	6.833064	-0.026597	NaN	0.000000	0.001640	0.001690	28.0811	0.020641	0.001919	10.757	116.989	10.1869	-0.054394	0.832067	-0.404546	-0.405932	-0.026597	10.757	-0.402691	-146003	1.821639E-7	NaN
441	1.000000	0.843477	7.36938e+06	-55039.1	1005.82	-29742.3	0.000000	0.000000	6.843088	-0.017562	NaN	0.000000	0.001599	0.001732	28.081	0.094972	0.002035	46.6704	-116.014	-167.203	-0.031831	0.842174	-0.394522	-0.395825	-0.017562	46.6704	-0.394240	-110607	1.587774E-7	NaN
441	1.000000	0.853473	7.36938e+06	-55039.1	1005.82	-29742.3	0.000000	0.000000	6.853083	-0.045977	NaN	0.000000	0.001635	0.001721	28.0808	0.085111	0.002026	42.0178	88.0661	12.4397	-0.033353	0.852144	-0.384527	-0.385855	-0.045977	42.0178	-0.383706	-78170.8	5.881550E-7	NaN
441	1.000000	0.863469	7.36938e+06	-55039.1	1005.82	-29742.3	0.000000	0.000000	6.863083	0.046101	NaN	0.000000	0.001626	0.001749	28.081	0.034691	0.002026	17.1267	-137.619	-165.114	-8.656903E-5	0.862145	-0.374530	-0.375855	0.046101	17.1267	-0.376549	-61707.2	-7.470998E-7	NaN
441	1.000000	0.873462	7.36938e+06	-55039.1	1005.82	-29742.3	0.000000	0.000000	6.873075	0.044166	NaN	0.000000	0.001638	0.001744	28.0811	0.094644	0.002086	45.3763	82.2215	12.122	-0.058679	0.872100	-0.364538	-0.365899	0.044166	45.3763	-0.365268	-42453.9	-1.040323E-6	NaN
441	1.000000	0.883486	7.36938e+06	-55039.1	1005.82	-29742.3	0.000000	0.000000	6.883096	-0.042724	NaN	0.000000	0.001619	0.001695	28.081	0.092774	0.001860	49.8707	-162.027	-166.857	0.014759	0.882220	-0.354514	-0.355780	-0.042724	49.8707	-0.353871	-29049.7	1.470709E-6	NaN
441	1.000000	0.893501	7.36938e+06	-55039.1	1005.82	-29742.3	0.000000	0.000000	6.893112	-0.019013	NaN	0.000000	0.001620	0.001749	28.081	0.070053	0.002035	34.4208	-149.624	14.1947	-0.023423	0.892185	-0.344499	-0.345815	-0.019013	34.4208	-0.344084	-20942.9	9.078466E-7	NaN
441	1.000000	0.903489	7.36938e+06	-55039.1	1005.82	-29742.3	0.000000	0.000000	6.903098	-0.071659	NaN	0.000000	0.001609	0.001713	28.0811	0.144960	0.002007	72.2419	-45.3329	-164.84	-0.066776	0.902191	-0.334510	-0.335808	-0.071659	72.2419	-0.333766	-14810	4.838573E-6	NaN
441	1.000000	0.913492	7.36938e+06	-55039.1	1005.82	-29742.3	0.000000	0.000000	6.913104	-0.001540	NaN	0.000000	0.001621	0.001699	28.081	0.130570	0.002003	65.1764	13.2002	13.8849	-0.022200	0.912142	-0.324507	-0.325858	-0.001540	65.1764	-0.324490	-10830.4	1.421530E-7	NaN
441	1.000000	0.923506	7.36938e+06	-55039.1	1005.82	-29742.3	0.000000	0.000000	6.923117	-0.027690	NaN	0.000000	0.001618	0.001686	28.0798	0.074101	0.002035	36.41	170.475	-164.937	-0.051899	0.922203	-0.314493	-0.315796	-0.027690	36.41	-0.313922	-7569.04	3.658375E-6	NaN
441	1.000000	0.933464	7.36938e+06	-55039.1	1005.82	-29742.3	0.000000	0.000000	6.933078	0.056223	NaN	0.000000	0.001658	0.001710	28.0797	0.078627	0.002106	37.3295	-152.03	13.3525	-0.026335	0.932173	-0.304536	-0.305827	0.056223	37.3295	-0.305665	-5712.51	-9.842061E-6	NaN
441	1.000000	0.943520	7.36938e+06	-55039.1	1005.82	-29742.3	0.000000	0.000000	6.943131	-0.018508	NaN	0.000000	0.001679	0.001692	28.0801	0.137614	0.001986	69.3022	134.664	-168.106	-0.019591	0.942159	-0.294480	-0.295840	-0.018508	69.3022	-0.294279	-3866.55	4.786725E-6	NaN
441	1.000000	0.953491	7.36938e+06	-55039.1	1005.82	-29742.3	0.000000	0.000000	6.953103	0.010524	NaN	0.000000	0.001754	0.001677	28.0796	0.121080	0.001989	60.8746	-44.7838	15.6852	-0.017814	0.952180	-0.284508	-0.285819	0.010524	60.8746	-0.284638	-2772.2	-3.796224E-6	NaN
441	1.000000	0.963523	7.36938e+06	-55039.1	1005.82	-29742.3	0.000000	0.000000	6.963136	0.029086	NaN	0.000000	0.001719	0.001709	28.0799	0.019927	0.002066	9.644633	-136.983	-165.498	-0.021448	0.962228	-0.274477	-0.275771	0.029086	9.644633	-0.276738	-2107.21	-1.380316E-5	NaN
441	1.000000	0.973512	7.36938e+06	-55039.1	1005.82	-29742.3	0.000000	0.000000	6.973126	0.038447	NaN	0.000000	0.001749	0.001709	28.0798	0.061836	0.001924	32.1373	125.453	13.8902	0.008361	0.972219	-0.264487	-0.265781	0.038447	32.1373	-0.265384	-1416.62	-2.713963E-5	NaN
441	1.000000	0.983526	7.36938e+06	-55039.1	1005.82	-29742.3	0.000000	0.000000	6.983137	-0.027984	NaN	0.000000	0.001748	0.001697	28.08	0.034520	0.001947	17.7277	-171.424	-168.734	-0.088738	0.982208	-0.254473	-0.255792	-0.027984	17.7277	-0.253289	-924.178	3.027973E-5	NaN
441	1.000000	0.993527	7.36938e+06	-55039.1	1005.82	-29742.3	0.000000	0.000000	6.993138	-0.022492	NaN	0.000000	0.001776	0.001695	28.0799	0.096414	0.001892	50.9708	152.761	13.9725	0.020631	0.992143	-0.244472	-0.245856	-0.022492	50.9708	-0.244141	-666.957	3.372373E-5	NaN
441	1.000000	1.003532	7.36938e+06	-55039.1	1005.82	-29742.3	0.000000	0.000000	7.003145	0.019952	NaN	0.000000	0.001778	0.001723	28.0801	0.023918	0.002034	11.7606	-37.2843	-164.638	-0.029612	1.002253	-0.234468	-0.235747	0.019952	11.7606	-0.235740	-493.022	-4.046972E-5	NaN
441	1.000000	1.013558	7.36938e+06	-55039.1	1005.82	-29742.3	0.000000	0.000000	7.013168	-0.050656	NaN	0.000000	0.001746	0.001721	28.08	0.018040	0.001930	9.346723	151.309	15.8322	-0.087782	1.012196	-0.224441	-0.225803	-0.050656	9.346723	-0.220376	-281.636	0.000180	NaN
441	1.000000	1.023530	7.36938e+06	-55039.1	1005.82	-29742.3	0.000000	0.000000	7.023144	0.042511	NaN	0.000000	0.001742	0.001690	28.08	0.049981	0.002020	24.7416	-165.279	-167.31	0.095417	1.022248	-0.214469	-0.215752	0.042511	24.7416	-0.215758	-237.521	-0.000179	NaN
441	1.000000	1.033555	7.36938e+06	-55039.1	1005.82	-29742.3	0.000000	0.000000	7.033164	-0.070497	NaN	0.000000	0.001740	0.001694	28.0799	0.033238	0.002099	15.8352	138.4	15.4762	-0.006422	1.032176	-0.204444	-0.205823	-0.070497	15.8352	-0.201105	-137.357	0.000513	NaN
441	1.000000	1.043538	7.36938e+06	-55039.1	1005.82	-29742.3	0.000000	0.000000	7.043148	-0.055539	NaN	0.000000	0.001720	0.001687	28.0802	0.083763	0.001871	44.7657	53.0679	-166.156	-0.032848	1.042247	-0.194462	-0.195752	-0.055539	44.7657	-0.193531	-103.001	0.000539	NaN
441	1.000000	1.053545	7.36938e+06	-55039.1	1005.82	-29742.3	0.000000	0.000000	7.053156	-0.038008	NaN	0.000000	0.001738	0.001689	28.0807	0.093820	0.001882	49.8465	153.846	13.3593	-0.070621	1.052127	-0.184454	-0.185872	-0.038008	49.8465	-0.183882	-71.0025	0.000535	NaN
441	1.000000	1.063571	7.36938e+06	-55039.1	1005.82	-29742.3	0.000000	0.000000	7.063182	-0.016854	NaN	0.000000	0.001753	0.001738	28.0813	0.066104	0.002048	32.2805	111.505	-164.376	0.007624	1.062211	-0.174428	-0.175788	-0.016854	32.2805	-0.174037	-48.2404	0.000349	NaN
441	1.000000	1.073564	7.36938e+06	-55039.1	1005.82	-29742.3	0.000000	0.000000	7.073174	-0.066547	NaN	0.000000	0.001758	0.001682	28.0811	0.067111	0.002013	33.3431	-21.8917	16.9305	-0.069749	1.072239	-0.164435	-0.165760	-0.066547	33.3431	-0.162938	-30.9039	0.002153	NaN
441	1.000000	1.083543	7.36938e+06	-55039.1	1005.82	-29742.3	0.000000	0.000000	7.083153	-0.040831	NaN	0.000000	0.001735	0.001699	28.0814	0.068950	0.002097	32.8729	168.791	-168.909	-0.006499	1.082221	-0.154457	-0.155779	-0.040831	32.8729	-0.153525	-20.9887	0.001945	NaN
441	1.000000	1.093594	7.36938e+06	-55039.1	1005.82	-29742.3	0.000000	0.000000	7.093207	0.035819	NaN	0.000000	0.001753	0.001671	28.0811	0.042630	0.001970	21.6422	25.368	14.9783	-0.022103	1.092195	-0.144406	-0.145804	0.035819	21.6422	-0.145647	-15.0703	-0.002377	NaN
441	1.000000	1.103575	7.36938e+06	-55039.1	1005.82	-29742.3	0.000000	0.000000	7.103186	-0.022464	NaN	0.000000	0.001778	0.001686	28.0813	0.059850	0.002112	28.3423	-74.1476	-163.633	0.076410	1.102292	-0.134425	-0.135708	-0.022464	28.3423	-0.133830	-9.034750	0.002486	NaN
441	1.000000	1.113574	7.36938e+06	-55039.1	1005.82	-29742.3	0.000000	0.000000	7.113188	0.044699	NaN	0.000000	0.001776	0.001691	28.0812	0.075047	0.002010	37.332	-64.1866	16.4592	-0.018866	1.112212	-0.124425	-0.125787	0.044699	37.332	-0.125323	-6.171400	-0.007243	NaN
441	1.000000	1.123592	7.36938e+06	-55039.1	1005.82	-29742.3	0.000000	0.000000	7.123205	0.022961	NaN	0.000000	0.001761	0.001678	28.0815	0.092053	0.002045	45.0068	-53.2555	-166.156	-0.035525	1.122243	-0.114407	-0.115756	0.022961	45.0068	-0.114790	-3.782462	-0.006070	NaN
441	1.000000	1.133578	7.36938e+06	-55039.1	1005.82	-29742.3	0.000000	0.000000	7.133192	0.032240	NaN	0.000000	0.001785	0.001683	28.0811	0.066640	0.001930	34.5269	-66.3537	14.1717	0.015746	1.132231	-0.104421	-0.105769	0.032240	34.5269	-0.105121	-2.364785	-0.013633	NaN
441	1.000000	1.143601	7.36938e+06	-55039.1	1005.82	-29742.3	0.000000	0.000000	7.143213	-0.003561	NaN	0.000000	0.001780	0.001662	28.0811	0.043939	0.001855	23.6865	64.0493	-165.544	0.025095	1.142229	-0.094398	-0.095770	-0.003561	23.6865	-0.094286	-1.358639	0.002621	NaN
441	1.000000	1.153625	7.36938e+06	-55039.1	1005.82	-29742.3	0.000000	0.000000	7.153238	0.014432	NaN	0.000000	0.001777	0.001689	28.0811	0.025383	0.001920	13.2167	-89.5764	14.288	-0.020121	1.152285	-0.084374	-0.085714	0.014432	13.2167	-0.085193	-0.830520	-0.017377	NaN
441	1.000000	1.163604	7.36938e+06	-55039.1	1005.82	-29742.3	0.000000	0.000000	7.163215	-0.015208	NaN	0.000000	0.001784	0.001700	28.0812	0.014359	0.001910	7.516294	-39.6571	-166.939	-0.051424	1.162304	-0.074395	-0.075695	-0.015208	7.516294	-0.072878	-0.406647	0.037398	NaN
441	1.000000	1.173607	7.36938e+06	-55039.1	1005.82	-29742.3	0.000000	0.000000	7.173217	-0.054384	NaN	0.000000	0.001779	0.001687	28.0812	0.010548	0.001834	5.749785	-131.436	13.3518	0.034324	1.172250	-0.064392	-0.065749	-0.054384	5.749785	-0.057298	-0.150428	0.361524	NaN
441	1.000000	1.183605	7.36938e+06	-55039.1	1005.82	-29742.3	0.000000	0.000000	7.183217	-0.019907	NaN	0.000000	0.001728	0.001657	28.0812	0.081434	0.001968	41.3754	147.595	-168.82	0.009698	1.182322	-0.054394	-0.055677	-0.019907	41.3754	-0.054033	-0.120557	0.165122	NaN
441	1.000000	1.193609	7.36938e+06	-55039.1	1005.82	-29742.3	0.000000	0.000000	7.193220	-0.012060	NaN	0.000000	0.001736	0.001679	28.0801	0.107317	0.002034	52.7667	-147.82	12.4393	-0.043153	1.192258	-0.044391	-0.045742	-0.012060	52.7667	-0.044219	-0.060830	0.198253	NaN
441	1.000000	1.203605	7.36938e+06	-55039.1	1005.82	-29742.3	0.000000	0.000000	7.203219	0.042712	NaN	0.000000	0.001810	0.001699	28.0801	0.069888	0.002043	34.2138	96.1352	-167.71	0.040433	1.202266	-0.034394	-0.035734	0.042712	34.2138	-0.035330	-0.032751	-1.304150	NaN
441	1.000000	1.213622	7.36938e+06	-55039.1	1005.82	-29742.3	0.000000	0.000000	7.213233	-0.021120	NaN	0.000000	0.001779	0.001691	28.0798	0.029096	0.001982	14.6824	100.659	15.3798	-0.056144	1.212243	-0.024378	-0.025756	-0.021120	14.6824	-0.023299	-0.015243	1.385515	NaN
441	1.000000	1.223637	7.36938e+06	-55039.1	1005.82	-29742.3	0.000000	0.000000	7.223253	0.079032	NaN	0.000000	0.001748	0.001708	28.0801	0.066676	0.001933	34.4851	-171.372	-167.565	-0.019885	1.222310	-0.014362	-0.015690	0.079032	34.4851	-0.016081	-0.009933	-7.956638	NaN
441	1.000000	1.233638	7.36938e+06	-55039.1	1005.82	-29742.3	0.000000	0.000000	7.233250	-0.007592	NaN	0.000000	0.001747	0.001677	28.08	0.105538	0.002092	50.452	-164.016	14.3319	-0.018239	1.232227	-0.004361	-0.005772	-0.007592	50.452	-0.004248	-0.002939	2.583268	NaN
441	1.000000	1.243614	7.36938e+06	-55039.1	1005.82	-29742.3	0.000000	0.000000	7.243262	0.886165	NaN	0.000000	0.001776	0.001669	28.0799	1.250548	0.001935	646.369	10.3633	-167.989	0.349215	1.242309	0.005614	0.004310	0.886165	646.369	0.004586	0.003759	235.755	9632.22
441	2.000000	1.252724	7.36938e+06	-55039.1	1005.82	-29742.3	0.000000	0.000000	7.252752	10.126	NaN	0.000000	0.001763	0.001690	28.0798	4.149554	0.001751	2369.4	7.290228	9.164758	9.417041	1.252126	0.014724	0.014127	10.126	2369.4	0.011519	0.010919	927.384	20716.8
441	2.000000	1.255243	7.36938e+06	-55039.1	1005.82	-29742.3	0.000000	0.000000	7.255428	13.9364	NaN	0.000000	0.001732	0.001677	28.08	5.729769	0.001889	3032.63	6.320484	-170.816	13.3399	1.254894	0.017243	0.016894	13.9364	3032.63	0.013797	0.013714	1016.22	23659.8
441	2.000000	1.257731	7.36938e+06	-55039.1	1005.82	-29742.3	0.000000	0.000000	7.258122	18.9245	NaN	0.000000	0.001732	0.001721	28.0797	8.036490	0.001950	4121.75	5.595897	9.344445	18.2248	1.257361	0.019732	0.019361	18.9245	4121.75	0.016288	0.017042	1110.48	28846.8
441	2.000000	1.260222	7.36938e+06	-55039.1	1005.82	-29742.3	0.000000	0.000000	7.260727	21.7144	NaN	0.000000	0.001735	0.001695	28.0799	9.999635	0.001771	5645.02	5.301989	-173.135	21.5473	1.259908	0.022223	0.021909	21.7144	5645.02	0.019338	0.021512	1009.41	35164
441	2.000000	1.262708	7.36938e+06	-55039.1	1005.82	-29742.3	0.000000	0.000000	7.263427	26.896	NaN	0.000000	0.001631	0.001711	28.08	12.6686	0.001785	7097	8.073171	4.320953	25.5465	1.262354	0.024709	0.024355	26.896	7097	0.021867	0.025561	1052.24	40556.6
441	2.000000	1.265185	7.36938e+06	-55039.1	1005.82	-29742.3	0.000000	0.000000	7.266016	29.6112	NaN	0.000000	0.001684	0.001725	28.08	14.9227	0.001699	8783.63	3.110060	-173.47	28.4897	1.264816	0.027186	0.026817	29.6112	8783.63	0.024658	0.030396	974.182	46029.8
441	2.000000	1.267706	7.36938e+06	-55039.1	1005.82	-29742.3	0.000000	0.000000	7.268694	33.4457	NaN	0.000000	0.001669	0.001725	28.08	17.7856	0.001914	9291.03	5.652125	6.672894	32.8708	1.267309	0.029707	0.029309	33.4457	9291.03	0.027007	0.034768	961.969	45524.7
441	2.000000	1.270165	7.36938e+06	-55039.1	1005.82	-29742.3	0.000000	0.000000	7.271328	37.7002	NaN	0.000000	0.001635	0.001712	28.0798	19.7913	0.001862	10626.5	2.494269	-171.328	35.6166	1.269857	0.032165	0.031857	37.7002	10626.5	0.029505	0.039723	949.074	48712.6
441	2.000000	1.272674	7.36938e+06	-55039.1	1005.82	-29742.3	0.000000	0.000000	7.273992	41.4689	NaN	0.000000	0.001633	0.001714	28.0826	21.6471	0.001715	12619.4	2.628526	5.939382	39.4026	1.272374	0.034675	0.034375	41.4689	12619.4	0.032210	0.045449	912.424	54081.7
441	2.000000	1.275159	7.36938e+06	-55039.1	1005.82	-29742.3	0.000000	0.000000	7.276826	49.9681	NaN	0.000000	0.001672	0.001738	28.0812	24.0899	0.001737	13870	5.106567	-177.595	49.0928	1.274830	0.037159	0.036831	49.9681	13870	0.034457	0.050490	989.669	56396
441	2.000000	1.277657	7.36938e+06	-55039.1	1005.82	-29742.3	0.000000	0.000000	7.279480	53.7396	NaN	0.000000	0.001636	0.001715	28.0816	26.6811	0.001691	15776	7.501406	0.243241	54.9258	1.277268	0.039658	0.039269	53.7396	15776	0.037103	0.056757	946.844	60500.9
441	2.000000	1.280176	7.36938e+06	-55039.1	1005.82	-29742.3	0.000000	0.000000	7.282138	57.1208	NaN	0.000000	0.001675	0.001734	28.081	29.3469	0.001792	16373.3	4.083332	-178.419	58.1056	1.279989	0.042177	0.041989	57.1208	16373.3	0.039560	0.062896	908.174	59648.2
441	2.000000	1.282668	7.36938e+06	-55039.1	1005.82	-29742.3	0.000000	0.000000	7.285019	66.596	NaN	0.000000	0.001688	0.001700	28.0817	31.3371	0.001808	17331.4	5.499190	0.379585	65.4541	1.282318	0.044668	0.044318	66.596	17331.4	0.041786	0.068727	968.998	60401.1
441	2.000000	1.285124	7.36938e+06	-55039.1	1005.82	-29742.3	0.000000	0.000000	7.287781	74.027	NaN	0.000000	0.001678	0.001704	28.081	33.7322	0.001727	19536.8	4.370995	179.195	72.7578	1.284804	0.047125	0.046805	74.027	19536.8	0.044283	0.075565	979.649	64933.2
441	2.000000	1.287603	7.36938e+06	-55039.1	1005.82	-29742.3	0.000000	0.000000	7.290615	82.6615	NaN	0.000000	0.001693	0.001693	28.0816	37.2495	0.001854	20096.8	6.725107	-2.620080	80.3302	1.287246	0.049603	0.049247	82.6615	20096.8	0.046518	0.081956	1008.61	64137.2
441	2.000000	1.290127	7.36938e+06	-55039.1	1005.82	-29742.3	0.000000	0.000000	7.293377	88.4305	NaN	0.000000	0.001741	0.001706	28.0812	39.8438	0.001873	21267.2	5.731442	177.376	86.8404	1.289873	0.052128	0.051874	88.4305	21267.2	0.049009	0.089376	989.424	64994
441	2.000000	1.292674	7.36938e+06	-55039.1	1005.82	-29742.3	0.000000	0.000000	7.296243	96.1929	NaN	0.000000	0.001726	0.001690	28.0813	40.945	0.001840	22246.7	2.907010	0.529783	95.598	1.292370	0.054674	0.054371	96.1929	22246.7	0.051431	0.096889	992.82	65298.6
441	2.000000	1.295077	7.36938e+06	-55039.1	1005.82	-29742.3	0.000000	0.000000	7.298957	103.754	NaN	0.000000	0.001778	0.001649	28.081	42.9335	0.001752	24501.5	4.473692	177.233	99.722	1.294834	0.057078	0.056835	103.754	24501.5	0.053902	0.104853	989.517	69131.5
441	2.000000	1.297593	7.36938e+06	-55039.1	1005.82	-29742.3	0.000000	0.000000	7.301885	113.764	NaN	0.000000	0.001739	0.001644	28.0809	44.586	0.001720	25922.9	4.189746	-2.298239	109.461	1.297213	0.059594	0.059214	113.764	25922.9	0.056303	0.112884	1007.79	70492
441	2.000000	1.300119	7.36938e+06	-55039.1	1005.82	-29742.3	0.000000	0.000000	7.304653	119.631	NaN	0.000000	0.001730	0.001643	28.081	48.1293	0.001834	26248	6.530530	174.795	119.842	1.299844	0.062120	0.061845	119.631	26248	0.058702	0.121194	987.109	68885.8
441	2.000000	1.302631	7.36938e+06	-55039.1	1005.82	-29742.3	0.000000	0.000000	7.307758	134.08	NaN	0.000000	0.001714	0.001635	28.081	48.6974	0.001707	28532.9	2.634416	-1.396485	131.717	1.302237	0.064631	0.064237	134.08	28532.9	0.061107	0.129808	1032.91	72354.9
441	2.000000	1.305053	7.36938e+06	-55039.1	1005.82	-29742.3	0.000000	0.000000	7.310574	143.644	NaN	0.000000	0.001712	0.001647	28.08	50.4286	0.001780	28326	4.129507	176.402	139.967	1.304815	0.067054	0.066815	143.644	28326	0.063251	0.137722	1042.99	69735.9
441	2.000000	1.307540	7.36938e+06	-55039.1	1005.82	-29742.3	0.000000	0.000000	7.313488	154.019	NaN	0.000000	0.001729	0.001654	28.0798	52.4545	0.001718	30538.6	1.587769	-1.394790	148.371	1.307226	0.069541	0.069227	154.019	30538.6	0.065758	0.147262	1045.88	72706.9
441	2.000000	1.310141	7.36938e+06	-55039.1	1005.82	-29742.3	0.000000	0.000000	7.316233	157.528	NaN	0.000000	0.001702	0.001660	28.0799	56.3815	0.001865	30239.4	2.523826	177.494	157.797	1.309882	0.072142	0.071883	157.528	30239.4	0.068235	0.156981	1003.48	69730.5
441	2.000000	1.312647	7.36938e+06	-55039.1	1005.82	-29742.3	0.000000	0.000000	7.319353	172.436	NaN	0.000000	0.001690	0.001587	28.0798	58.038	0.001906	30447.7	3.151364	-1.966373	171.795	1.312306	0.074648	0.074307	172.436	30447.7	0.070401	0.165721	1040.52	68334.3
441	2.000000	1.315161	7.36938e+06	-55039.1	1005.82	-29742.3	0.000000	0.000000	7.322144	179.193	NaN	0.000000	0.001694	0.001630	28.0799	59.972	0.001859	32257.4	1.593032	178.679	182.864	1.314886	0.077162	0.076887	179.193	32257.4	0.072995	0.176485	1015.34	70153.3
441	2.000000	1.317600	7.36938e+06	-55039.1	1005.82	-29742.3	0.000000	0.000000	7.325310	196.852	NaN	0.000000	0.001738	0.001656	28.0798	61.8362	0.001739	35552.9	5.153353	-5.785068	194.597	1.317245	0.079601	0.079245	196.852	35552.9	0.075448	0.186955	1052.94	75124.4
441	2.000000	1.320100	7.36938e+06	-55039.1	1005.82	-29742.3	0.000000	0.000000	7.328133	204.71	NaN	0.000000	0.001716	0.001656	28.0799	63.7057	0.001857	34307.7	1.052135	178.731	203.181	1.319815	0.082100	0.081816	204.71	34307.7	0.077625	0.196481	1041.88	70713.8
441	2.000000	1.322616	7.36938e+06	-55039.1	1005.82	-29742.3	0.000000	0.000000	7.331212	218.39	NaN	0.000000	0.001713	0.001626	28.0798	65.5153	0.001735	37757.5	3.860884	-4.668870	217.066	1.322339	0.084617	0.084340	218.39	37757.5	0.080279	0.208397	1047.95	75566.8
441	2.000000	1.325104	7.36938e+06	-55039.1	1005.82	-29742.3	0.000000	0.000000	7.334415	235.755	NaN	0.000000	0.001685	0.001633	28.0797	67.4965	0.001840	36687.9	3.207775	176.647	233.97	1.324753	0.087105	0.086753	235.755	36687.9	0.082286	0.217623	1083.32	71852.7
441	2.000000	1.327544	7.36938e+06	-55039.1	1005.82	-29742.3	0.000000	0.000000	7.337302	246.644	NaN	0.000000	0.001694	0.001657	28.0799	70.8986	0.001840	38523.7	4.161271	-5.140644	241.547	1.327191	0.089544	0.089192	246.644	38523.7	0.084743	0.229175	1076.22	73522.1
441	2.000000	1.330151	7.36938e+06	-55039.1	1005.82	-29742.3	0.000000	0.000000	7.340405	258.679	NaN	0.000000	0.001721	0.001648	28.0798	72.8432	0.001788	40750.5	2.526541	176.272	262.101	1.329822	0.092152	0.091823	258.679	40750.5	0.087391	0.241940	1069.18	75692.2
441	2.000000	1.332592	7.36938e+06	-55039.1	1005.82	-29742.3	0.000000	0.000000	7.343591	276.806	NaN	0.000000	0.001746	0.001635	28.0798	75.1836	0.001834	40994.7	4.061140	-5.584251	273.795	1.332228	0.094593	0.094229	276.806	40994.7	0.089529	0.252478	1096.36	74540
441	2.000000	1.335112	7.36938e+06	-55039.1	1005.82	-29742.3	0.000000	0.000000	7.346660	290.146	NaN	0.000000	0.001778	0.001633	28.0797	77.2903	0.001868	41365.4	4.764365	174.013	290.345	1.334725	0.097113	0.096726	290.146	41365.4	0.091852	0.264171	1098.33	73530.6
441	2.000000	1.337609	7.36938e+06	-55039.1	1005.82	-29742.3	0.000000	0.000000	7.349796	305.696	NaN	0.000000	0.001784	0.001623	28.0801	79.6956	0.001785	44650.3	4.161509	-6.378197	303.532	1.337183	0.099610	0.099184	305.696	44650.3	0.094475	0.277663	1100.96	77417.3
441	2.000000	1.340018	7.36938e+06	-55039.1	1005.82	-29742.3	0.000000	0.000000	7.352778	319.619	NaN	0.000000	0.001773	0.001634	28.0811	81.5012	0.001713	47566.3	1.316430	175.775	315.425	1.339814	0.102019	0.101815	319.619	47566.3	0.096979	0.290844	1098.94	80582.9
441	2.000000	1.342576	7.36938e+06	-55039.1	1005.82	-29742.3	0.000000	0.000000	7.356155	339.516	NaN	0.000000	0.001760	0.001680	28.0811	83.9517	0.001807	46468.2	5.549702	-8.137760	335.564	1.342273	0.104577	0.104273	339.516	46468.2	0.099097	0.302211	1123.44	77227.9
441	2.000000	1.345130	7.36938e+06	-55039.1	1005.82	-29742.3	0.000000	0.000000	7.359118	349.462	NaN	0.000000	0.001754	0.001686	28.0809	86.683	0.001775	48826.2	6.859113	170.322	352.289	1.344743	0.107131	0.106744	349.462	48826.2	0.101763	0.316808	1103.07	79255.2
441	2.000000	1.347543	7.36938e+06	-55039.1	1005.82	-29742.3	0.000000	0.000000	7.362604	375.568	NaN	0.000000	0.001764	0.001680	28.0812	88.6079	0.001770	50061.9	2.390091	-5.049154	371.158	1.347196	0.109543	0.109197	375.568	50061.9	0.103917	0.328841	1142.1	79760.4
441	2.000000	1.350115	7.36938e+06	-55039.1	1005.82	-29742.3	0.000000	0.000000	7.365847	391.847	NaN	0.000000	0.001728	0.001669	28.0809	92.3651	0.001696	54465.5	6.735760	169.65	391.114	1.349786	0.112116	0.111786	391.847	54465.5	0.106720	0.344816	1136.4	84742.5
441	2.000000	1.351042	7.36938e+06	-55039.1	1005.82	-29742.3	0.000000	0.000000	7.366831	393.263	NaN	0.000000	0.001750	0.001651	28.0808	93.3059	0.001901	49083.7	6.452017	170.689	391.81	1.350736	0.113042	0.112736	393.263	49083.7	0.107033	0.346621	1134.56	76169.9