File: remote_trans/data/nanoindenter/0828-1/data/Data_2025-08-06,11h17m57s/2025-07-22_16-23-58_1_449.txt
2025-07-22, 16:23:58, 1
Index	Phase	Displacement	Time	Pos X	Pos Y	Pos Z	Rot A	Rot B	Piezo Z	Force A	Force B	Gripper	Voltage A	Voltage B	Temperature	Amplitude force	Amplitude pos	Stiffness	Phase shift	Phase excitation	Force A raw	Displacement raw	HMax	HMax raw	Real Force	Real Stiffness	Contact Depth	Area	Hardness	Reduced Mod.
[#]	[#]	[um]	[s]	[um]	[um]	[um]	[m°]	[m°]	[um]	[uN]	[uN]	[V]	[V]	[V]	[°C]	[uN]	[um]	[N/m]	[°]	[°]	[uN]	[um]	[um]	[um]	[uN]	[N/m]	[um]	[um^2]	[MPa]	[MPa]
449	1.000000	0.001741	7.36945e+06	-54639.1	1005.82	-29743.2	0.000000	0.000000	6.002802	-0.042767	NaN	0.000000	0.001634	0.001753	28.0824	0.105330	0.000879	119.801	-128.049	-168.386	-0.010997	0.000518	-1.055615	-1.056838	-0.042767	119.801	-1.055347	-1.259751E+14	3.394856E-16	NaN
449	1.000000	0.009719	7.36945e+06	-54639.1	1005.82	-29743.2	0.000000	0.000000	6.010782	0.038627	NaN	0.000000	0.001665	0.001761	28.082	0.023016	0.000969	23.7522	-15.7196	-162.217	0.108537	0.008356	-1.047637	-1.049000	0.038627	23.7522	-1.048857	-1.030506E+14	-3.748362E-16	NaN
449	1.000000	0.017683	7.36945e+06	-54639.1	1005.82	-29743.2	0.000000	0.000000	6.018745	0.016184	NaN	0.000000	0.001645	0.001783	28.0818	0.064542	0.001651	39.0972	-135.061	-167.087	0.027447	0.016370	-1.039673	-1.040986	0.016184	39.0972	-1.039984	-7.829803E+13	-2.067032E-16	NaN
449	1.000000	0.025740	7.36945e+06	-54639.1	1005.82	-29743.2	0.000000	0.000000	6.026800	-0.040219	NaN	0.000000	0.001628	0.001732	28.0823	0.045275	0.001896	23.8745	48.5017	-164.821	-0.056083	0.024391	-1.031616	-1.032965	-0.040219	23.8745	-1.030353	-5.810675E+13	6.921653E-16	NaN
449	1.000000	0.033698	7.36945e+06	-54639.1	1005.82	-29743.2	0.000000	0.000000	6.034761	0.024956	NaN	0.000000	0.001575	0.001748	28.0811	0.089966	0.001980	45.4403	-47.7278	-164.622	-0.061327	0.032368	-1.023658	-1.024988	0.024956	45.4403	-1.024070	-4.783087E+13	-5.217571E-16	NaN
449	1.000000	0.041692	7.36945e+06	-54639.1	1005.82	-29743.2	0.000000	0.000000	6.042753	-0.009597	NaN	0.000000	0.001606	0.001747	28.0812	0.062887	0.001908	32.9522	73.5303	-161.633	0.020396	0.040415	-1.015664	-1.016941	-0.009597	32.9522	-1.015446	-3.661597E+13	2.621107E-16	NaN
449	1.000000	0.049679	7.36945e+06	-54639.1	1005.82	-29743.2	0.000000	0.000000	6.050743	0.047802	NaN	0.000000	0.001603	0.001754	28.0809	0.103953	0.002038	51.0043	27.9884	-165.256	0.086925	0.048408	-1.007677	-1.008949	0.047802	51.0043	-1.008380	-2.941574E+13	-1.625058E-15	NaN
449	1.000000	0.057679	7.36945e+06	-54639.1	1005.82	-29743.2	0.000000	0.000000	6.058737	-0.086308	NaN	0.000000	0.001572	0.001762	28.0808	0.011722	0.002110	5.555301	43.1821	-164.596	-0.148697	0.056385	-0.999677	-1.000971	-0.086308	5.555301	-0.988025	-1.564986E+13	5.514919E-15	NaN
449	1.000000	0.065667	7.36945e+06	-54639.1	1005.82	-29743.2	0.000000	0.000000	6.066725	-0.073115	NaN	0.000000	0.001596	0.001760	28.081	0.027041	0.002079	13.0084	-121.398	-169.385	-0.006418	0.064354	-0.991690	-0.993003	-0.073115	13.0084	-0.987474	-1.538481E+13	4.752422E-15	NaN
449	1.000000	0.073687	7.36945e+06	-54639.1	1005.82	-29743.2	0.000000	0.000000	6.074752	0.068029	NaN	0.000000	0.001586	0.001743	28.0811	0.075891	0.002024	37.4936	5.668167	-165.233	0.078110	0.072366	-0.983669	-0.984990	0.068029	37.4936	-0.985030	-1.426158E+13	-4.770066E-15	NaN
449	1.000000	0.081725	7.36945e+06	-54639.1	1005.82	-29743.2	0.000000	0.000000	6.082784	-0.057226	NaN	0.000000	0.001552	0.001748	28.0811	0.133187	0.002023	65.8305	153.622	-164.009	-0.003412	0.080332	-0.975631	-0.977024	-0.057226	65.8305	-0.974979	-1.044149E+13	5.480600E-15	NaN
449	1.000000	0.089684	7.36945e+06	-54639.1	1005.82	-29743.2	0.000000	0.000000	6.090747	0.014589	NaN	0.000000	0.001586	0.001725	28.081	0.053770	0.002006	26.7996	66.4791	-163.284	-0.078317	0.088406	-0.967672	-0.968950	0.014589	26.7996	-0.968080	-8.429247E+12	-1.730783E-15	NaN
449	1.000000	0.097725	7.36945e+06	-54639.1	1005.82	-29743.2	0.000000	0.000000	6.098785	-0.046895	NaN	0.000000	0.001622	0.001745	28.0807	0.097152	0.002076	46.8072	-169.065	-166.348	-0.040501	0.096372	-0.959631	-0.960984	-0.046895	46.8072	-0.958880	-6.335318E+12	7.402142E-15	NaN
449	1.000000	0.105683	7.36945e+06	-54639.1	1005.82	-29743.2	0.000000	0.000000	6.106745	-0.020387	NaN	0.000000	0.001569	0.001748	28.0807	0.066603	0.002005	33.2154	128.886	-161.308	-0.071058	0.104419	-0.951673	-0.952937	-0.020387	33.2154	-0.951212	-4.993167E+12	4.083077E-15	NaN
449	1.000000	0.113694	7.36945e+06	-54639.1	1005.82	-29743.2	0.000000	0.000000	6.114755	-0.036420	NaN	0.000000	0.001581	0.001746	28.0806	0.060219	0.001952	30.853	-141.438	-166.789	-0.068290	0.112482	-0.943662	-0.944874	-0.036420	30.853	-0.942776	-3.842303E+12	9.478731E-15	NaN
449	1.000000	0.121711	7.36945e+06	-54639.1	1005.82	-29743.2	0.000000	0.000000	6.122772	-0.022465	NaN	0.000000	0.001540	0.001740	28.0809	0.059387	0.002075	28.6181	17.688	-167.669	-0.026511	0.120416	-0.935645	-0.936940	-0.022465	28.6181	-0.935057	-3.022996E+12	7.431359E-15	NaN
449	1.000000	0.129756	7.36945e+06	-54639.1	1005.82	-29743.2	0.000000	0.000000	6.130814	-0.097384	NaN	0.000000	0.001590	0.001765	28.081	0.049164	0.002093	23.4943	70.4941	-164.627	0.030020	0.128431	-0.927600	-0.928925	-0.097384	23.4943	-0.924491	-2.176904E+12	4.473515E-14	NaN
449	1.000000	0.137750	7.36945e+06	-54639.1	1005.82	-29743.2	0.000000	0.000000	6.138809	-0.073011	NaN	0.000000	0.001673	0.001741	28.0812	0.054303	0.001884	28.8222	-1.968358	-161.461	-0.045944	0.136385	-0.919606	-0.920971	-0.073011	28.8222	-0.917706	-1.762939E+12	4.141411E-14	NaN
449	1.000000	0.145753	7.36945e+06	-54639.1	1005.82	-29743.2	0.000000	0.000000	6.146816	0.019486	NaN	0.000000	0.001608	0.001760	28.0811	0.092762	0.002034	45.6096	-117.06	-163.251	0.030862	0.144434	-0.911603	-0.912922	0.019486	45.6096	-0.911923	-1.472788E+12	-1.323075E-14	NaN
449	1.000000	0.153724	7.36945e+06	-54639.1	1005.82	-29743.2	0.000000	0.000000	6.154784	-0.039245	NaN	0.000000	0.001578	0.001697	28.0809	0.052949	0.001983	26.7032	17.1801	-164.85	-0.063249	0.152445	-0.903632	-0.904911	-0.039245	26.7032	-0.902530	-1.099646E+12	3.568888E-14	NaN
449	1.000000	0.161731	7.36945e+06	-54639.1	1005.82	-29743.2	0.000000	0.000000	6.162794	0.032692	NaN	0.000000	0.001564	0.001730	28.0812	0.021124	0.001916	11.0264	138.376	-165.896	-0.007798	0.160449	-0.895626	-0.896907	0.032692	11.0264	-0.897849	-9.506098E+11	-3.439053E-14	NaN
449	1.000000	0.169726	7.36945e+06	-54639.1	1005.82	-29743.2	0.000000	0.000000	6.170785	-0.054421	NaN	0.000000	0.001586	0.001733	28.0818	0.069810	0.002079	33.5791	7.887943	-162.05	0.004425	0.168411	-0.887630	-0.888945	-0.054421	33.5791	-0.886415	-6.659572E+11	8.171791E-14	NaN
449	1.000000	0.177726	7.36945e+06	-54639.1	1005.82	-29743.3	0.000000	0.000000	6.178787	-0.015742	NaN	0.000000	0.001590	0.001732	28.0826	0.035023	0.001854	18.8897	-79.3414	-167.08	-0.023547	0.176434	-0.879630	-0.880922	-0.015742	18.8897	-0.879005	-5.287521E+11	2.977117E-14	NaN
449	1.000000	0.185728	7.36945e+06	-54639.1	1005.82	-29743.3	0.000000	0.000000	6.186790	8.105401E-5	NaN	0.000000	0.001575	0.001753	28.0822	0.011329	0.002135	5.306801	-120.712	-164.239	0.011071	0.184447	-0.871628	-0.872909	8.105401E-5	5.306801	-0.871640	-4.203660E+11	-1.928177E-16	NaN
449	1.000000	0.193752	7.36945e+06	-54639.1	1005.82	-29743.3	0.000000	0.000000	6.194814	-0.005617	NaN	0.000000	0.001570	0.001745	28.0821	0.046371	0.002074	22.3538	-144.512	-166.734	0.021815	0.192422	-0.863604	-0.864934	-0.005617	22.3538	-0.863415	-3.253433E+11	1.726621E-14	NaN
449	1.000000	0.201772	7.36945e+06	-54639.1	1005.82	-29743.3	0.000000	0.000000	6.202831	-0.057271	NaN	0.000000	0.001574	0.001723	28.082	0.052239	0.002030	25.733	-120.664	-167.379	-0.047141	0.200402	-0.855585	-0.856954	-0.057271	25.733	-0.853915	-2.419647E+11	2.366923E-13	NaN
449	1.000000	0.209742	7.36945e+06	-54639.1	1005.82	-29743.3	0.000000	0.000000	6.210804	-0.003610	NaN	0.000000	0.001573	0.001715	28.082	0.041653	0.002080	20.0247	71.8628	-165.43	0.069989	0.208444	-0.847614	-0.848912	-0.003610	20.0247	-0.847479	-1.979686E+11	1.823578E-14	NaN
449	1.000000	0.217773	7.36945e+06	-54639.1	1005.82	-29743.3	0.000000	0.000000	6.218833	-0.043903	NaN	0.000000	0.001586	0.001719	28.0824	0.051249	0.002020	25.3673	7.252954	-164.069	-0.017989	0.216418	-0.839583	-0.840938	-0.043903	25.3673	-0.838285	-1.486119E+11	2.954236E-13	NaN
449	1.000000	0.225758	7.36945e+06	-54639.1	1005.82	-29743.3	0.000000	0.000000	6.226819	-0.018984	NaN	0.000000	0.001644	0.001718	28.0829	0.049072	0.001875	26.1716	-149.67	-160.655	-0.076027	0.224439	-0.831598	-0.832917	-0.018984	26.1716	-0.831054	-1.185955E+11	1.600750E-13	NaN
449	1.000000	0.233754	7.36945e+06	-54639.1	1005.82	-29743.3	0.000000	0.000000	6.234816	-0.010150	NaN	0.000000	0.001618	0.001771	28.0819	0.069436	0.001990	34.8941	90.3271	-167.665	-0.045141	0.232474	-0.823602	-0.824882	-0.010150	34.8941	-0.823384	-9.334551E+10	1.087399E-13	NaN
449	1.000000	0.241742	7.36945e+06	-54639.1	1005.82	-29743.3	0.000000	0.000000	6.242804	0.004681	NaN	0.000000	0.001655	0.001785	28.0818	0.016732	0.002011	8.319566	-132.268	-163.868	-0.050614	0.240453	-0.815614	-0.816903	0.004681	8.319566	-0.816036	-7.420796E+10	-6.308235E-14	NaN
449	1.000000	0.249763	7.36945e+06	-54639.1	1005.82	-29743.3	0.000000	0.000000	6.250823	-0.049898	NaN	0.000000	0.001619	0.001781	28.0817	0.115726	0.001984	58.3381	-49.4963	-163.254	-0.006010	0.248484	-0.807593	-0.808872	-0.049898	58.3381	-0.806951	-5.587324E+10	8.930628E-13	NaN
449	1.000000	0.257758	7.36945e+06	-54639.1	1005.82	-29743.3	0.000000	0.000000	6.258820	0.008613	NaN	0.000000	0.001617	0.001715	28.0819	0.140174	0.001972	71.0974	28.2549	-162.356	-0.053727	0.256476	-0.799598	-0.800880	0.008613	71.0974	-0.799689	-4.452834E+10	-1.934218E-13	NaN
449	1.000000	0.265787	7.36945e+06	-54639.1	1005.82	-29743.3	0.000000	0.000000	6.266849	0.016359	NaN	0.000000	0.001586	0.001697	28.0817	0.124010	0.002129	58.2553	151.056	-163.036	-0.037950	0.264426	-0.791569	-0.792930	0.016359	58.2553	-0.791780	-3.477415E+10	-4.704391E-13	NaN
449	1.000000	0.273750	7.36945e+06	-54639.1	1005.82	-29743.3	0.000000	0.000000	6.274812	-0.014746	NaN	0.000000	0.001610	0.001696	28.0817	0.011618	0.002071	5.609666	-33.0093	-166.482	0.006529	0.272453	-0.783606	-0.784903	-0.014746	5.609666	-0.781634	-2.531858E+10	5.824083E-13	NaN
449	1.000000	0.281765	7.36945e+06	-54639.1	1005.82	-29743.3	0.000000	0.000000	6.282827	-0.000468	NaN	0.000000	0.001587	0.001694	28.082	0.019634	0.001982	9.906336	-19.1941	-161.035	-0.092083	0.280487	-0.775591	-0.776869	-0.000468	9.906336	-0.775556	-2.093300E+10	2.236682E-14	NaN
449	1.000000	0.289777	7.36945e+06	-54639.1	1005.82	-29743.3	0.000000	0.000000	6.290839	0.001142	NaN	0.000000	0.001612	0.001694	28.0821	0.083211	0.002065	40.2883	173.258	-164.1	0.038701	0.288444	-0.767579	-0.768912	0.001142	40.2883	-0.767601	-1.631851E+10	-6.996840E-14	NaN
449	1.000000	0.297804	7.36945e+06	-54639.1	1005.82	-29743.3	0.000000	0.000000	6.298867	0.008091	NaN	0.000000	0.001630	0.001729	28.0818	0.059375	0.002016	29.4548	-23.7042	-167.799	0.020504	0.296439	-0.759552	-0.760917	0.008091	29.4548	-0.759758	-1.276454E+10	-6.338994E-13	NaN
449	1.000000	0.305781	7.36945e+06	-54639.1	1005.82	-29743.3	0.000000	0.000000	6.306843	-0.006087	NaN	0.000000	0.001628	0.001703	28.0813	0.074735	0.001900	39.3296	-77.7785	-164.152	-0.007876	0.304495	-0.751575	-0.752861	-0.006087	39.3296	-0.751459	-9.841870E+9	6.185060E-13	NaN
449	1.000000	0.313828	7.36945e+06	-54639.1	1005.82	-29743.3	0.000000	0.000000	6.314892	0.039162	NaN	0.000000	0.001575	0.001745	28.0808	0.126978	0.001923	66.0433	128.605	-162.384	-0.002926	0.312477	-0.743528	-0.744879	0.039162	66.0433	-0.743973	-7.783211E+9	-5.031625E-12	NaN
449	1.000000	0.321805	7.36945e+06	-54639.1	1005.82	-29743.3	0.000000	0.000000	6.322867	-0.008587	NaN	0.000000	0.001621	0.001731	28.081	0.031319	0.002051	15.2677	121.758	-166.386	0.051343	0.320477	-0.735551	-0.736880	-0.008587	15.2677	-0.735129	-5.897927E+9	1.455946E-12	NaN
449	1.000000	0.329841	7.36945e+06	-54639.1	1005.82	-29743.3	0.000000	0.000000	6.330900	-0.070374	NaN	0.000000	0.001590	0.001700	28.0809	0.137313	0.001934	70.9977	-26.6398	-164.833	-0.012370	0.328523	-0.727515	-0.728833	-0.070374	70.9977	-0.726772	-4.537367E+9	1.550980E-11	NaN
449	1.000000	0.337818	7.36945e+06	-54639.1	1005.82	-29743.3	0.000000	0.000000	6.338882	0.039659	NaN	0.000000	0.001585	0.001734	28.0808	0.148066	0.001988	74.4853	76.8548	-165.745	-0.001882	0.336476	-0.719538	-0.720880	0.039659	74.4853	-0.719937	-3.661118E+9	-1.083256E-11	NaN
449	1.000000	0.345811	7.36945e+06	-54639.1	1005.82	-29743.3	0.000000	0.000000	6.346872	-0.011421	NaN	0.000000	0.001583	0.001683	28.081	0.078607	0.001990	39.5101	-25.2649	-165.365	-0.086321	0.344528	-0.711545	-0.712828	-0.011421	39.5101	-0.711329	-2.793692E+9	4.087996E-12	NaN
449	1.000000	0.353827	7.36945e+06	-54639.1	1005.82	-29743.3	0.000000	0.000000	6.354888	-0.019902	NaN	0.000000	0.001576	0.001672	28.081	0.054454	0.001986	27.4236	157.811	-165.264	0.004447	0.352506	-0.703529	-0.704850	-0.019902	27.4236	-0.702984	-2.149239E+9	9.259966E-12	NaN
449	1.000000	0.361806	7.36945e+06	-54639.1	1005.82	-29743.3	0.000000	0.000000	6.362866	-0.056672	NaN	0.000000	0.001568	0.001667	28.081	0.031162	0.002057	15.1478	53.271	-165.266	0.007473	0.360480	-0.695550	-0.696876	-0.056672	15.1478	-0.692744	-1.557436E+9	3.638819E-11	NaN
449	1.000000	0.369832	7.36945e+06	-54639.1	1005.82	-29743.3	0.000000	0.000000	6.370893	-0.026329	NaN	0.000000	0.001597	0.001702	28.0808	0.125752	0.002031	61.9266	-178.348	-168.14	-0.018352	0.368546	-0.687524	-0.688810	-0.026329	61.9266	-0.687205	-1.308337E+9	2.012393E-11	NaN
449	1.000000	0.377847	7.36945e+06	-54639.1	1005.82	-29743.3	0.000000	0.000000	6.378908	-0.014608	NaN	0.000000	0.001539	0.001724	28.0811	0.092565	0.002139	43.2834	-42.1772	-162.577	0.005872	0.376516	-0.679509	-0.680840	-0.014608	43.2834	-0.679256	-1.018660E+9	1.434004E-11	NaN
449	1.000000	0.385834	7.36945e+06	-54639.1	1005.82	-29743.3	0.000000	0.000000	6.386898	0.048228	NaN	0.000000	0.001572	0.001724	28.0807	0.043274	0.002099	20.6154	-178.942	-165.128	-0.029764	0.384485	-0.671522	-0.672871	0.048228	20.6154	-0.673276	-8.437767E+8	-5.715686E-11	NaN
449	1.000000	0.393835	7.36945e+06	-54639.1	1005.82	-29743.3	0.000000	0.000000	6.394895	-0.036656	NaN	0.000000	0.001559	0.001709	28.0808	0.023214	0.002007	11.5677	34.1783	-164.697	-0.074444	0.392508	-0.663522	-0.664848	-0.036656	11.5677	-0.661145	-5.756396E+8	6.367872E-11	NaN
449	1.000000	0.401840	7.36945e+06	-54639.1	1005.82	-29743.3	0.000000	0.000000	6.402900	-0.040275	NaN	0.000000	0.001540	0.001729	28.0806	0.041738	0.002031	20.5499	-3.428704	-163.614	-0.080070	0.400574	-0.655516	-0.656782	-0.040275	20.5499	-0.654046	-4.601495E+8	8.752628E-11	NaN
449	1.000000	0.409805	7.36945e+06	-54639.1	1005.82	-29743.3	0.000000	0.000000	6.410864	-0.063842	NaN	0.000000	0.001576	0.001726	28.0806	0.049377	0.002000	24.6847	119.8	-161.707	-0.021234	0.408483	-0.647551	-0.648873	-0.063842	24.6847	-0.645612	-3.525859E+8	1.810692E-10	NaN
449	1.000000	0.417847	7.36945e+06	-54639.1	1005.82	-29743.3	0.000000	0.000000	6.418908	-0.039233	NaN	0.000000	0.001579	0.001710	28.081	0.056961	0.001874	30.4011	89.5599	-165.121	-0.070596	0.416539	-0.639509	-0.640817	-0.039233	30.4011	-0.638541	-2.820123E+8	1.391194E-10	NaN
449	1.000000	0.425844	7.36945e+06	-54639.1	1005.82	-29743.3	0.000000	0.000000	6.426906	0.015637	NaN	0.000000	0.001602	0.001692	28.0807	0.070561	0.002080	33.9175	19.9329	-164.586	0.007470	0.424548	-0.631512	-0.632808	0.015637	33.9175	-0.631858	-2.283154E+8	-6.848952E-11	NaN
449	1.000000	0.433851	7.36945e+06	-54639.1	1005.82	-29743.3	0.000000	0.000000	6.434913	0.017783	NaN	0.000000	0.001586	0.001713	28.0809	0.112597	0.001983	56.7749	-116.067	-166.609	-0.024097	0.432481	-0.623505	-0.624875	0.017783	56.7749	-0.623740	-1.766180E+8	-1.006887E-10	NaN
449	1.000000	0.441876	7.36945e+06	-54639.1	1005.82	-29743.3	0.000000	0.000000	6.442938	-0.009730	NaN	0.000000	0.001653	0.001716	28.0808	0.051688	0.001974	26.1793	-38.0975	-162.481	0.011358	0.440578	-0.615480	-0.616778	-0.009730	26.1793	-0.615201	-1.347900E+8	7.218675E-11	NaN
449	1.000000	0.449852	7.36945e+06	-54639.1	1005.82	-29743.3	0.000000	0.000000	6.450914	-0.013094	NaN	0.000000	0.001636	0.001725	28.082	0.170913	0.002243	76.2126	-176.224	-167.128	-0.043476	0.448517	-0.607504	-0.608839	-0.013094	76.2126	-0.607375	-1.051943E+8	1.244765E-10	NaN
449	1.000000	0.457866	7.36945e+06	-54639.1	1005.82	-29743.3	0.000000	0.000000	6.458924	-0.082237	NaN	0.000000	0.001669	0.001717	28.0819	0.096111	0.002015	47.7039	-18.7296	-163.144	-0.069965	0.456575	-0.599490	-0.600781	-0.082237	47.7039	-0.598198	-7.863828E+7	1.045759E-9	NaN
449	1.000000	0.465882	7.36945e+06	-54639.1	1005.82	-29743.3	0.000000	0.000000	6.466945	0.015316	NaN	0.000000	0.001658	0.001685	28.0821	0.022122	0.002078	10.6472	-99.8454	-162.003	-0.084135	0.464552	-0.591474	-0.592804	0.015316	10.6472	-0.592552	-6.574330E+7	-2.329617E-10	NaN
449	1.000000	0.473872	7.36945e+06	-54639.1	1005.82	-29743.3	0.000000	0.000000	6.474931	-0.062037	NaN	0.000000	0.001686	0.001673	28.082	0.117756	0.002079	56.6372	179.844	-164.448	-0.066255	0.472551	-0.583484	-0.584805	-0.062037	56.6372	-0.582663	-4.802533E+7	1.291757E-9	NaN
449	1.000000	0.481863	7.36945e+06	-54639.1	1005.82	-29743.3	0.000000	0.000000	6.482925	0.013512	NaN	0.000000	0.001670	0.001757	28.082	0.034061	0.001867	18.2394	88.8241	-161.992	-0.013772	0.480535	-0.575493	-0.576821	0.013512	18.2394	-0.576049	-3.892075E+7	-3.471556E-10	NaN
449	1.000000	0.489896	7.36945e+06	-54639.1	1005.82	-29743.3	0.000000	0.000000	6.490957	-0.019912	NaN	0.000000	0.001681	0.001692	28.0819	0.076141	0.001837	41.4413	107.64	-161.539	-0.038952	0.488598	-0.567460	-0.568758	-0.019912	41.4413	-0.567100	-2.927867E+7	6.800991E-10	NaN
449	1.000000	0.497874	7.36945e+06	-54639.1	1005.82	-29743.3	0.000000	0.000000	6.498935	-0.022277	NaN	0.000000	0.001651	0.001691	28.0818	0.122875	0.001969	62.4196	-98.1544	-164.855	0.107653	0.496568	-0.559482	-0.560788	-0.022277	62.4196	-0.559214	-2.277758E+7	9.780115E-10	NaN
449	1.000000	0.505862	7.36945e+06	-54639.1	1005.82	-29743.3	0.000000	0.000000	6.506923	-0.010716	NaN	0.000000	0.001660	0.001729	28.0822	0.051632	0.001900	27.1746	6.839014	-164.578	-0.009192	0.504583	-0.551494	-0.552773	-0.010716	27.1746	-0.551199	-1.764231E+7	6.073821E-10	NaN
449	1.000000	0.513884	7.36945e+06	-54639.1	1005.82	-29743.3	0.000000	0.000000	6.514944	-0.038449	NaN	0.000000	0.001647	0.001716	28.0819	0.053620	0.001969	27.2344	5.497372	-165.266	-0.031108	0.512575	-0.543472	-0.544781	-0.038449	27.2344	-0.542413	-1.332968E+7	2.884434E-9	NaN
449	1.000000	0.521857	7.36945e+06	-54639.1	1005.82	-29743.3	0.000000	0.000000	6.522919	0.001693	NaN	0.000000	0.001664	0.001759	28.0819	0.136627	0.001950	70.0685	-141.735	-165.121	0.016173	0.520525	-0.535499	-0.536831	0.001693	70.0685	-0.535518	-1.069481E+7	-1.582772E-10	NaN
449	1.000000	0.529913	7.36945e+06	-54639.1	1005.82	-29743.3	0.000000	0.000000	6.530972	-0.066182	NaN	0.000000	0.001659	0.001733	28.0822	0.088899	0.002098	42.3804	117.443	-165.248	-0.051164	0.528604	-0.527443	-0.528752	-0.066182	42.3804	-0.526272	-7.9577e+06	8.316743E-9	NaN
449	1.000000	0.537902	7.36945e+06	-54639.1	1005.82	-29743.3	0.000000	0.000000	6.538962	-0.060627	NaN	0.000000	0.001634	0.001712	28.0821	0.060464	0.001942	31.1401	131.467	-165.043	-0.114852	0.536614	-0.519454	-0.520742	-0.060627	31.1401	-0.517994	-6.10503e+06	9.930730E-9	NaN
449	1.000000	0.545913	7.36945e+06	-54639.1	1005.82	-29743.3	0.000000	0.000000	6.546975	0.018768	NaN	0.000000	0.001614	0.001757	28.0822	0.091456	0.001992	45.9076	-176.373	-165.186	0.039885	0.544532	-0.511443	-0.512824	0.018768	45.9076	-0.511750	-4.9979e+06	-3.755090E-9	NaN
449	1.000000	0.553913	7.36945e+06	-54639.1	1005.82	-29743.3	0.000000	0.000000	6.554973	-0.036822	NaN	0.000000	0.001617	0.001793	28.0821	0.123073	0.002009	61.2673	-11.6479	-163.824	0.072542	0.552577	-0.503443	-0.504779	-0.036822	61.2673	-0.502992	-3.77357e+06	9.757802E-9	NaN
449	1.000000	0.561867	7.36945e+06	-54639.1	1005.82	-29743.3	0.000000	0.000000	6.562925	-0.076823	NaN	0.000000	0.001562	0.001796	28.082	0.068072	0.001945	34.9894	23.4326	-161.217	-0.114583	0.560590	-0.495489	-0.496766	-0.076823	34.9894	-0.493843	-2.81238e+06	2.731595E-8	NaN
449	1.000000	0.569904	7.36945e+06	-54639.1	1005.82	-29743.3	0.000000	0.000000	6.570963	-0.067614	NaN	0.000000	0.001592	0.001763	28.0821	0.040658	0.002121	19.1664	-51.5439	-165.184	-0.085725	0.568639	-0.487452	-0.488717	-0.067614	19.1664	-0.484806	-2.10271e+06	3.215564E-8	NaN
449	1.000000	0.577916	7.36945e+06	-54639.1	1005.82	-29743.3	0.000000	0.000000	6.578977	-0.031372	NaN	0.000000	0.001566	0.001736	28.0823	0.074543	0.001876	39.7247	178.293	-163.803	-0.088441	0.576586	-0.479440	-0.480770	-0.031372	39.7247	-0.478848	-1.73537e+06	1.807797E-8	NaN
449	1.000000	0.585944	7.36945e+06	-54639.1	1005.82	-29743.3	0.000000	0.000000	6.587007	0.027080	NaN	0.000000	0.001551	0.001775	28.081	0.014405	0.001835	7.848141	125.413	-160.64	0.018493	0.584611	-0.471413	-0.472745	0.027080	7.848141	-0.474000	-1.4842e+06	-1.824561E-8	NaN
449	1.000000	0.593915	7.36945e+06	-54639.1	1005.82	-29743.3	0.000000	0.000000	6.594975	-0.054907	NaN	0.000000	0.001596	0.001789	28.0806	0.026677	0.002055	12.9792	129.726	-163.844	-0.004745	0.592611	-0.463441	-0.464745	-0.054907	12.9792	-0.460268	-952327	5.765573E-8	NaN
449	1.000000	0.601918	7.36945e+06	-54639.1	1005.82	-29743.3	0.000000	0.000000	6.602978	-0.044351	NaN	0.000000	0.001540	0.001793	28.0809	0.162292	0.002092	77.5923	-138.193	-162.282	2.650901E-5	0.600601	-0.455438	-0.456755	-0.044351	77.5923	-0.455009	-803245	5.521416E-8	NaN
449	1.000000	0.609944	7.36945e+06	-54639.1	1005.82	-29743.3	0.000000	0.000000	6.611004	-0.043715	NaN	0.000000	0.001562	0.001788	28.0807	0.075344	0.001973	38.1837	-111.27	-166.685	-0.072993	0.608595	-0.447412	-0.448761	-0.043715	38.1837	-0.446554	-610648	7.158759E-8	NaN
449	1.000000	0.617917	7.36945e+06	-54639.1	1005.82	-29743.3	0.000000	0.000000	6.618977	-0.051415	NaN	0.000000	0.001574	0.001765	28.0808	0.041649	0.001979	21.0472	118.403	-162.844	-0.051690	0.616614	-0.439439	-0.440742	-0.051415	21.0472	-0.437607	-456646	1.125933E-7	NaN
449	1.000000	0.625931	7.36945e+06	-54639.1	1005.82	-29743.3	0.000000	0.000000	6.626993	-0.009739	NaN	0.000000	0.001583	0.001780	28.0809	0.051526	0.002093	24.617	164.815	-167.849	-0.002355	0.624693	-0.431425	-0.432663	-0.009739	24.617	-0.431128	-369843	2.633228E-8	NaN
449	1.000000	0.633908	7.36945e+06	-54639.1	1005.82	-29743.3	0.000000	0.000000	6.634969	-0.025793	NaN	0.000000	0.001574	0.001778	28.0807	0.051368	0.002019	25.446	25.6246	-168.318	-0.086833	0.632631	-0.423448	-0.424725	-0.025793	25.446	-0.422688	-280879	9.182889E-8	NaN
449	1.000000	0.641939	7.36945e+06	-54639.1	1005.82	-29743.3	0.000000	0.000000	6.642997	-0.084967	NaN	0.000000	0.001588	0.001787	28.0809	0.060967	0.002015	30.2522	-94.8016	-168.184	-0.050147	0.640645	-0.415417	-0.416711	-0.084967	30.2522	-0.413311	-206755	4.109524E-7	NaN
449	1.000000	0.649943	7.36945e+06	-54639.1	1005.82	-29743.3	0.000000	0.000000	6.651003	-0.044465	NaN	0.000000	0.001589	0.001765	28.0808	0.047064	0.001963	23.9701	13.9824	-164.478	-0.044064	0.648619	-0.407413	-0.408737	-0.044465	23.9701	-0.406022	-162854	2.730354E-7	NaN
449	1.000000	0.657937	7.36945e+06	-54639.1	1005.82	-29743.3	0.000000	0.000000	6.658997	-0.037342	NaN	0.000000	0.001552	0.001780	28.0807	0.120539	0.001871	64.4247	-179.305	-164.814	-0.008372	0.656602	-0.399419	-0.400754	-0.037342	64.4247	-0.398984	-129273	2.888588E-7	NaN
449	1.000000	0.665960	7.36945e+06	-54639.1	1005.82	-29743.3	0.000000	0.000000	6.667021	-0.022555	NaN	0.000000	0.001562	0.001774	28.0809	0.033835	0.001956	17.297	-153.464	-164.315	-0.081836	0.664645	-0.391396	-0.392711	-0.022555	17.297	-0.390418	-97530.4	2.312577E-7	NaN
449	1.000000	0.673947	7.36945e+06	-54639.1	1005.82	-29743.3	0.000000	0.000000	6.675010	0.046552	NaN	0.000000	0.001524	0.001805	28.0808	0.042135	0.001995	21.1176	-120.877	-165.507	0.003554	0.672688	-0.383410	-0.384668	0.046552	21.1176	-0.385063	-81749.7	-5.694428E-7	NaN
449	1.000000	0.681932	7.36945e+06	-54639.1	1005.82	-29743.3	0.000000	0.000000	6.682992	-0.046415	NaN	0.000000	0.001537	0.001789	28.0809	0.035133	0.002042	17.2042	172.474	-159.159	-0.030379	0.680635	-0.375424	-0.376721	-0.046415	17.2042	-0.373401	-55600.5	8.347885E-7	NaN
449	1.000000	0.689976	7.36945e+06	-54639.1	1005.82	-29743.3	0.000000	0.000000	6.691035	-0.061209	NaN	0.000000	0.001602	0.001776	28.0808	0.040117	0.001964	20.426	-66.9725	-166.579	-0.029226	0.688684	-0.367380	-0.368672	-0.061209	20.426	-0.365132	-42263.5	1.448274E-6	NaN
449	1.000000	0.697906	7.36945e+06	-54639.1	1005.82	-29743.3	0.000000	0.000000	6.698967	-0.039956	NaN	0.000000	0.001563	0.001773	28.0811	0.052492	0.002074	25.3062	-52.0385	-166.348	-0.081108	0.696656	-0.359450	-0.360700	-0.039956	25.3062	-0.358266	-33632.9	1.188007E-6	NaN
449	1.000000	0.705947	7.36945e+06	-54639.1	1005.82	-29743.3	0.000000	0.000000	6.707007	-0.045270	NaN	0.000000	0.001538	0.001770	28.081	0.125452	0.001944	64.5308	140.631	-166.349	-0.087284	0.704653	-0.351409	-0.352703	-0.045270	64.5308	-0.350883	-26291.2	1.721878E-6	NaN
449	1.000000	0.713969	7.36945e+06	-54639.1	1005.82	-29743.3	0.000000	0.000000	6.715031	-0.005290	NaN	0.000000	0.001558	0.001811	28.0811	0.059378	0.001890	31.4237	142.445	-164.362	-0.034535	0.712622	-0.343387	-0.344734	-0.005290	31.4237	-0.343261	-20372.6	2.596807E-7	NaN
449	1.000000	0.721952	7.36945e+06	-54639.1	1005.82	-29743.3	0.000000	0.000000	6.723011	-0.064579	NaN	0.000000	0.001586	0.001768	28.0824	0.092091	0.001982	46.4753	-25.5753	-165.791	-0.056566	0.720679	-0.335404	-0.336677	-0.064579	46.4753	-0.334362	-15110	4.273951E-6	NaN
449	1.000000	0.729991	7.36945e+06	-54639.1	1005.82	-29743.3	0.000000	0.000000	6.731052	-0.025662	NaN	0.000000	0.001551	0.001812	28.0821	0.045293	0.001994	22.7199	-170.94	-166.479	-0.009016	0.728697	-0.327365	-0.328659	-0.025662	22.7199	-0.326518	-11598.6	2.212473E-6	NaN
449	1.000000	0.737963	7.36945e+06	-54639.1	1005.82	-29743.3	0.000000	0.000000	6.739027	0.054257	NaN	0.000000	0.001584	0.001781	28.0824	0.085193	0.002081	40.942	-88.2653	-160.22	0.051441	0.736649	-0.319393	-0.320707	0.054257	40.942	-0.320387	-9426.07	-5.756064E-6	NaN
449	1.000000	0.745985	7.36945e+06	-54639.1	1005.82	-29743.3	0.000000	0.000000	6.747046	-0.012087	NaN	0.000000	0.001569	0.001764	28.0821	0.097774	0.002024	48.3036	55.3972	-167.328	-0.091851	0.744628	-0.311371	-0.312728	-0.012087	48.3036	-0.311184	-6895.54	1.752839E-6	NaN
449	1.000000	0.753982	7.36945e+06	-54639.1	1005.82	-29743.3	0.000000	0.000000	6.755044	0.002827	NaN	0.000000	0.001578	0.001786	28.0821	0.083696	0.001954	42.8419	27.2044	-162.923	-0.017510	0.752669	-0.303374	-0.304687	0.002827	42.8419	-0.303423	-5291.07	-5.342202E-7	NaN
449	1.000000	0.761977	7.36945e+06	-54639.1	1005.82	-29743.3	0.000000	0.000000	6.763037	-0.029723	NaN	0.000000	0.001533	0.001785	28.0824	0.040957	0.002045	20.0316	-5.128466	-162.6	0.003355	0.760679	-0.295380	-0.296677	-0.029723	20.0316	-0.294267	-3864.87	7.690551E-6	NaN
449	1.000000	0.769988	7.36945e+06	-54639.1	1005.82	-29743.3	0.000000	0.000000	6.771051	0.020151	NaN	0.000000	0.001588	0.001791	28.082	0.042194	0.001905	22.1519	-58.0451	-164.742	-0.073957	0.768667	-0.287368	-0.288689	0.020151	22.1519	-0.288050	-3119.43	-6.459721E-6	NaN
449	1.000000	0.778018	7.36945e+06	-54639.1	1005.82	-29743.3	0.000000	0.000000	6.779078	-0.028596	NaN	0.000000	0.001635	0.001787	28.0824	0.075430	0.001987	37.967	-64.0858	-162.704	-0.058719	0.776689	-0.279338	-0.280667	-0.028596	37.967	-0.278773	-2261.82	1.264279E-5	NaN
449	1.000000	0.785996	7.36945e+06	-54639.1	1005.82	-29743.3	0.000000	0.000000	6.787056	-0.037980	NaN	0.000000	0.001648	0.001784	28.0818	0.071683	0.001908	37.5676	22.6126	-162.025	-0.080838	0.784696	-0.271360	-0.272660	-0.037980	37.5676	-0.270602	-1700.96	2.232844E-5	NaN
449	1.000000	0.794000	7.36945e+06	-54639.1	1005.82	-29743.3	0.000000	0.000000	6.795060	-0.060180	NaN	0.000000	0.001631	0.001761	28.082	0.161524	0.002009	80.4112	31.7893	-163.201	-0.006499	0.792672	-0.263356	-0.264685	-0.060180	80.4112	-0.262794	-1293.29	4.653254E-5	NaN
449	1.000000	0.801978	7.36945e+06	-54639.1	1005.82	-29743.3	0.000000	0.000000	6.803040	0.005954	NaN	0.000000	0.001626	0.001785	28.0821	0.049441	0.001969	25.1083	74.8474	-166.023	-0.010410	0.800719	-0.255378	-0.256637	0.005954	25.1083	-0.255556	-1001.55	-5.945077E-6	NaN
449	1.000000	0.809987	7.36945e+06	-54639.1	1005.82	-29743.3	0.000000	0.000000	6.811047	-0.034639	NaN	0.000000	0.001594	0.001759	28.0821	0.155863	0.002001	77.8857	-29.6825	-166.386	-0.107035	0.808714	-0.247369	-0.248642	-0.034639	77.8857	-0.247036	-739.705	4.682847E-5	NaN
449	1.000000	0.817978	7.36945e+06	-54639.1	1005.82	-29743.3	0.000000	0.000000	6.819040	-0.002816	NaN	0.000000	0.001610	0.001805	28.0822	0.029146	0.001976	14.7519	170.066	-163.75	-0.049664	0.816669	-0.239378	-0.240687	-0.002816	14.7519	-0.239235	-559.236	5.035763E-6	NaN
449	1.000000	0.826029	7.36945e+06	-54639.1	1005.82	-29743.3	0.000000	0.000000	6.827089	-0.061128	NaN	0.000000	0.001588	0.001794	28.0822	0.145459	0.002116	68.7519	-43.9422	-165.584	-0.070033	0.824730	-0.231327	-0.232626	-0.061128	68.7519	-0.230660	-410.14	0.000149	NaN
449	1.000000	0.834000	7.36945e+06	-54639.1	1005.82	-29743.3	0.000000	0.000000	6.835060	-0.032011	NaN	0.000000	0.001612	0.001800	28.0824	0.133751	0.002031	65.8707	6.565819	-164.315	-0.009615	0.832738	-0.223356	-0.224618	-0.032011	65.8707	-0.222992	-310.03	0.000103	NaN
449	1.000000	0.842026	7.36945e+06	-54639.1	1005.82	-29743.3	0.000000	0.000000	6.843088	0.001905	NaN	0.000000	0.001622	0.001776	28.0822	0.158554	0.001965	80.6923	27.8378	-165.279	-0.004404	0.840647	-0.215330	-0.216709	0.001905	80.6923	-0.215348	-233.94	-8.143251E-6	NaN
449	1.000000	0.850022	7.36945e+06	-54639.1	1005.82	-29743.3	0.000000	0.000000	6.851082	-0.041998	NaN	0.000000	0.001597	0.001748	28.0821	0.114250	0.001976	57.8312	-131.216	-162.235	-0.049536	0.848693	-0.207334	-0.208663	-0.041998	57.8312	-0.206790	-170.103	0.000247	NaN
449	1.000000	0.858027	7.36945e+06	-54639.1	1005.82	-29743.3	0.000000	0.000000	6.859089	-0.005081	NaN	0.000000	0.001611	0.001760	28.0807	0.040739	0.001954	20.8491	57.2565	-167.001	-8.495246E-5	0.856713	-0.199329	-0.200643	-0.005081	20.8491	-0.199146	-127.543	3.983647E-5	NaN
449	1.000000	0.866024	7.36945e+06	-54639.1	1005.82	-29743.3	0.000000	0.000000	6.867085	-0.003878	NaN	0.000000	0.001576	0.001740	28.0804	0.072802	0.002007	36.2786	128.649	-169.197	-0.004399	0.864753	-0.191332	-0.192603	-0.003878	36.2786	-0.191252	-94.39	4.108501E-5	NaN
449	1.000000	0.874046	7.36945e+06	-54639.1	1005.82	-29743.3	0.000000	0.000000	6.875109	0.018788	NaN	0.000000	0.001546	0.001801	28.0806	0.082045	0.002111	38.8645	-51.6829	-165.108	-0.012338	0.872729	-0.183310	-0.184627	0.018788	38.8645	-0.183673	-70.4263	-0.000267	NaN
449	1.000000	0.882019	7.36945e+06	-54639.1	1005.82	-29743.3	0.000000	0.000000	6.883081	0.016803	NaN	0.000000	0.001564	0.001748	28.0806	0.092139	0.002069	44.5403	140.39	-163.638	-0.005598	0.880687	-0.175337	-0.176669	0.016803	44.5403	-0.175620	-51.3611	-0.000327	NaN
449	1.000000	0.890043	7.36945e+06	-54639.1	1005.82	-29743.3	0.000000	0.000000	6.891105	0.001735	NaN	0.000000	0.001573	0.001782	28.0807	0.037422	0.002009	18.6295	-8.878546	-165.037	-0.028639	0.888751	-0.167313	-0.168605	0.001735	18.6295	-0.167382	-36.9853	-4.691801E-5	NaN
449	1.000000	0.898039	7.36945e+06	-54639.1	1005.82	-29743.3	0.000000	0.000000	6.899102	0.020783	NaN	0.000000	0.001572	0.001795	28.0808	0.121431	0.002160	56.2105	0.112841	-165.895	-0.008898	0.896685	-0.159317	-0.160671	0.020783	56.2105	-0.159594	-26.963	-0.000771	NaN
449	1.000000	0.906038	7.36945e+06	-54639.1	1005.82	-29743.3	0.000000	0.000000	6.907098	-0.051256	NaN	0.000000	0.001576	0.001791	28.0808	0.056179	0.001982	28.3433	-50.0584	-162.739	-0.071781	0.904779	-0.151318	-0.152577	-0.051256	28.3433	-0.149961	-18.0842	0.002834	NaN
449	1.000000	0.914029	7.36945e+06	-54639.1	1005.82	-29743.3	0.000000	0.000000	6.915092	0.032477	NaN	0.000000	0.001554	0.001804	28.0808	0.162112	0.001981	81.8209	-25.3952	-163.531	0.022432	0.912730	-0.143327	-0.144626	0.032477	81.8209	-0.143625	-13.8251	-0.002349	NaN
449	1.000000	0.922025	7.36945e+06	-54639.1	1005.82	-29743.3	0.000000	0.000000	6.923086	-0.009154	NaN	0.000000	0.001556	0.001778	28.0808	0.057739	0.002015	28.648	-102.118	-164.881	-0.002141	0.920761	-0.135331	-0.136595	-0.009154	28.648	-0.135092	-9.550758	0.000958	NaN
449	1.000000	0.930067	7.36945e+06	-54639.1	1005.82	-29743.3	0.000000	0.000000	6.931131	0.046258	NaN	0.000000	0.001568	0.001794	28.0807	0.028225	0.001919	14.7101	-107.17	-165.971	0.058063	0.928789	-0.127289	-0.128567	0.046258	14.7101	-0.129647	-7.501627	-0.006166	NaN
449	1.000000	0.938045	7.36945e+06	-54639.1	1005.82	-29743.3	0.000000	0.000000	6.939105	-0.041749	NaN	0.000000	0.001578	0.001775	28.0806	0.041997	0.002019	20.8033	-15.8495	-164.466	-0.079967	0.936733	-0.119311	-0.120623	-0.041749	20.8033	-0.117806	-4.361120	0.009573	NaN
449	1.000000	0.946035	7.36945e+06	-54639.1	1005.82	-29743.3	0.000000	0.000000	6.947097	-0.003582	NaN	0.000000	0.001546	0.001766	28.0809	0.015723	0.001966	7.999263	68.047	-162.876	-0.042094	0.944692	-0.111321	-0.112664	-0.003582	7.999263	-0.110985	-3.152034	0.001136	NaN
449	1.000000	0.954056	7.36945e+06	-54639.1	1005.82	-29743.3	0.000000	0.000000	6.955118	0.025123	NaN	0.000000	0.001572	0.001776	28.0808	0.039028	0.001977	19.7409	48.0599	-164.38	-0.012501	0.952782	-0.103300	-0.104574	0.025123	19.7409	-0.104255	-2.264901	-0.011092	NaN
449	1.000000	0.962025	7.36945e+06	-54639.1	1005.82	-29743.3	0.000000	0.000000	6.963087	-0.015015	NaN	0.000000	0.001559	0.001779	28.0809	0.127392	0.002011	63.3456	2.989649	-167.755	-0.003635	0.960782	-0.095331	-0.096574	-0.015015	63.3456	-0.095153	-1.421994	0.010559	NaN
449	1.000000	0.970075	7.36945e+06	-54639.1	1005.82	-29743.3	0.000000	0.000000	6.971137	-0.007081	NaN	0.000000	0.001554	0.001767	28.0811	0.033738	0.002062	16.3653	77.7957	-166.534	0.053215	0.968758	-0.087281	-0.088598	-0.007081	16.3653	-0.086957	-0.915674	0.007733	NaN
449	1.000000	0.978063	7.36945e+06	-54639.1	1005.82	-29743.3	0.000000	0.000000	6.979123	-0.047231	NaN	0.000000	0.001583	0.001730	28.0811	0.110689	0.001863	59.4067	143.357	-164.848	0.004477	0.976748	-0.079293	-0.080608	-0.047231	59.4067	-0.078697	-0.574055	0.082276	NaN
449	1.000000	0.986101	7.36945e+06	-54639.1	1005.82	-29743.3	0.000000	0.000000	6.987163	0.003561	NaN	0.000000	0.001606	0.001745	28.0811	0.058294	0.001955	29.8257	19.8086	-159.584	0.035508	0.984730	-0.071255	-0.072626	0.003561	29.8257	-0.071345	-0.370471	-0.009613	NaN
449	1.000000	0.994078	7.36945e+06	-54639.1	1005.82	-29743.3	0.000000	0.000000	6.995138	-0.030418	NaN	0.000000	0.001564	0.001765	28.0821	0.073494	0.002037	36.075	-39.3491	-163.424	-0.021316	0.992787	-0.063278	-0.064569	-0.030418	36.075	-0.062646	-0.214162	0.142032	NaN
449	1.000000	1.002099	7.36945e+06	-54639.1	1005.82	-29743.3	0.000000	0.000000	7.003164	0.063600	NaN	0.000000	0.001586	0.001782	28.0821	0.052700	0.002227	23.661	178.671	-161.505	0.140245	1.000762	-0.055257	-0.056594	0.063600	23.661	-0.057273	-0.150175	-0.423507	NaN
449	1.000000	1.010075	7.36945e+06	-54639.1	1005.82	-29743.3	0.000000	0.000000	7.011136	-0.014725	NaN	0.000000	0.001609	0.001771	28.0821	0.058053	0.001948	29.8051	176.245	-167.178	0.004131	1.008775	-0.047281	-0.048581	-0.014725	29.8051	-0.046910	-0.073511	0.200306	NaN
449	1.000000	1.018068	7.36945e+06	-54639.1	1005.82	-29743.3	0.000000	0.000000	7.019130	-0.009905	NaN	0.000000	0.001585	0.001747	28.0821	0.044989	0.001940	23.1955	172.861	-164.415	-0.057371	1.016770	-0.039288	-0.040586	-0.009905	23.1955	-0.038967	-0.042078	0.235390	NaN
449	1.000000	1.026132	7.36945e+06	-54639.1	1005.82	-29743.3	0.000000	0.000000	7.027190	-0.074048	NaN	0.000000	0.001558	0.001746	28.0824	0.155400	0.001963	79.1501	-49.4314	-167.148	-0.072494	1.024805	-0.031224	-0.032551	-0.074048	79.1501	-0.030523	-0.023801	3.111170	NaN
449	1.000000	1.034128	7.36945e+06	-54639.1	1005.82	-29743.3	0.000000	0.000000	7.035188	-0.060945	NaN	0.000000	0.001568	0.001768	28.082	0.062044	0.001890	32.823	-50.8421	-163.948	-0.035795	1.032772	-0.023228	-0.024585	-0.060945	32.823	-0.021835	-0.013985	4.357853	NaN
449	1.000000	1.042095	7.36945e+06	-54639.1	1005.82	-29743.3	0.000000	0.000000	7.043154	-0.083701	NaN	0.000000	0.001569	0.001759	28.0824	0.030111	0.001908	15.7787	8.327489	-165.273	-0.151319	1.040771	-0.015261	-0.016585	-0.083701	15.7787	-0.011282	-0.007119	11.7573	NaN
449	1.000000	1.050121	7.36945e+06	-54639.1	1005.82	-29743.3	0.000000	0.000000	7.051183	-0.008150	NaN	0.000000	0.001586	0.001796	28.0823	0.072390	0.002163	33.4751	-155.144	-164.234	0.023505	1.048822	-0.007235	-0.008534	-0.008150	33.4751	-0.007052	-0.004671	1.744692	NaN
449	1.000000	1.058076	7.36945e+06	-54639.1	1005.82	-29743.3	0.000000	0.000000	7.059148	0.237720	NaN	0.000000	0.001647	0.001741	28.0822	0.635472	0.002041	311.373	17.0501	-166.905	-0.008897	1.056813	0.000720	-0.000543	0.237720	311.373	0.000147	0.000110	2154.31	27081.7
449	1.000000	1.066088	7.36945e+06	-54639.1	1005.82	-29743.3	0.000000	0.000000	7.067373	5.425237	NaN	0.000000	0.001605	0.001773	28.0825	6.186591	0.001749	3537.14	15.9455	-172.6	4.395391	1.064765	0.008731	0.007409	5.425237	3537.14	0.007581	0.006615	820.135	39733.6
449	2.000000	1.070657	7.36945e+06	-54639.1	1005.82	-29743.3	0.000000	0.000000	7.072171	10.9787	NaN	0.000000	0.001588	0.001798	28.0821	10.1607	0.001568	6480.37	4.452159	-171.228	10.1166	1.070278	0.013301	0.012922	10.9787	6480.37	0.012031	0.011527	952.464	55146.9
449	2.000000	1.072643	7.36945e+06	-54639.1	1005.82	-29743.3	0.000000	0.000000	7.074327	15.1083	NaN	0.000000	0.001590	0.001720	28.0824	12.7045	0.001719	7391.66	3.410256	-169.905	14.0752	1.072320	0.015287	0.014964	15.1083	7391.66	0.013754	0.013660	1106.02	57781.3
449	2.000000	1.074599	7.36945e+06	-54639.1	1005.82	-29743.3	0.000000	0.000000	7.076389	17.7093	NaN	0.000000	0.001595	0.001732	28.0824	14.4304	0.001686	8560.73	7.543533	-176.4	16.8583	1.074322	0.017243	0.016966	17.7093	8560.73	0.015691	0.016218	1091.93	61415.8
449	2.000000	1.076605	7.36945e+06	-54639.1	1005.82	-29743.3	0.000000	0.000000	7.078529	20.9506	NaN	0.000000	0.001594	0.001711	28.082	16.6724	0.001868	8927.49	8.108780	-174.131	21.6961	1.076285	0.019249	0.018929	20.9506	8927.49	0.017489	0.018749	1117.44	59568.5
449	2.000000	1.078635	7.36945e+06	-54639.1	1005.82	-29743.3	0.000000	0.000000	7.080742	25.3974	NaN	0.000000	0.001566	0.001691	28.0824	18.7342	0.001704	10991.6	6.763468	-176.166	26.1277	1.078247	0.021279	0.020891	25.3974	10991.6	0.019546	0.021834	1163.18	67961.6
449	2.000000	1.080556	7.36945e+06	-54639.1	1005.82	-29743.3	0.000000	0.000000	7.082816	29.1402	NaN	0.000000	0.001570	0.001695	28.082	20.2034	0.001774	11387.2	5.264173	-174.774	27.9103	1.080289	0.023200	0.022933	29.1402	11387.2	0.021280	0.024594	1184.83	66339.5
449	2.000000	1.082617	7.36945e+06	-54639.1	1005.82	-29743.3	0.000000	0.000000	7.085002	32.188	NaN	0.000000	0.001550	0.001701	28.0823	22.1818	0.001701	13042.9	4.151211	-176.18	32.2698	1.082329	0.025260	0.024973	32.188	13042.9	0.023410	0.028186	1142	70979.6
449	2.000000	1.084514	7.36945e+06	-54639.1	1005.82	-29743.3	0.000000	0.000000	7.087112	37.3534	NaN	0.000000	0.001592	0.001715	28.081	23.0891	0.001730	13346.1	2.083244	-173.864	35.554	1.084255	0.027158	0.026899	37.3534	13346.1	0.025059	0.031122	1200.21	69117.9
449	2.000000	1.086501	7.36945e+06	-54639.1	1005.82	-29743.3	0.000000	0.000000	7.089383	44.2519	NaN	0.000000	0.001595	0.001735	28.0809	26.7147	0.001727	15472.3	6.857222	179.529	41.9148	1.086192	0.029145	0.028836	44.2519	15472.3	0.027000	0.034754	1273.28	75826.9
449	2.000000	1.088570	7.36946e+06	-54639.1	1005.82	-29743.3	0.000000	0.000000	7.091599	47.8075	NaN	0.000000	0.001563	0.001699	28.0811	28.2958	0.001833	15433	4.682642	-177.79	47.0102	1.088213	0.031214	0.030857	47.8075	15433	0.028891	0.038476	1242.53	71883.5
449	2.000000	1.090572	7.36946e+06	-54639.1	1005.82	-29743.3	0.000000	0.000000	7.093829	53.3768	NaN	0.000000	0.001549	0.001700	28.0807	29.613	0.001791	16530.3	4.667108	-176.756	53.7636	1.090187	0.033216	0.032831	53.3768	16530.3	0.030794	0.042405	1258.74	73340.8
449	2.000000	1.092526	7.36946e+06	-54639.1	1005.82	-29743.3	0.000000	0.000000	7.095977	58.0774	NaN	0.000000	0.001558	0.001698	28.0812	32.4715	0.001803	18013.6	2.881049	-176.959	56.6613	1.092199	0.035170	0.034843	58.0774	18013.6	0.032752	0.046641	1245.2	76206.1
449	2.000000	1.094463	7.36946e+06	-54639.1	1005.82	-29743.3	0.000000	0.000000	7.098315	67.8138	NaN	0.000000	0.001561	0.001669	28.081	33.1628	0.001705	19444.6	2.299490	-177.799	64.3744	1.094207	0.037107	0.036851	67.8138	19444.6	0.034492	0.050569	1341.01	79000.4
449	2.000000	1.096520	7.36946e+06	-54639.1	1005.82	-29743.3	0.000000	0.000000	7.100477	70.3713	NaN	0.000000	0.001599	0.001697	28.0812	36.6112	0.001883	19441.7	6.073489	179.355	69.0481	1.096148	0.039164	0.038792	70.3713	19441.7	0.036450	0.055175	1275.42	75619.9
449	2.000000	1.098594	7.36946e+06	-54639.1	1005.82	-29743.3	0.000000	0.000000	7.102897	78.8056	NaN	0.000000	0.001587	0.001686	28.081	38.7851	0.001922	20179.1	6.589587	179.157	79.6779	1.098226	0.041238	0.040870	78.8056	20179.1	0.038309	0.059730	1319.36	75435.9
449	2.000000	1.100516	7.36946e+06	-54639.1	1005.82	-29743.3	0.000000	0.000000	7.105019	83.6503	NaN	0.000000	0.001588	0.001722	28.0808	39.3154	0.001704	23069.5	2.485202	-178.924	82.6864	1.100255	0.043160	0.042899	83.6503	23069.5	0.040441	0.065172	1283.53	82562.1
449	2.000000	1.102535	7.36946e+06	-54639.1	1005.82	-29743.3	0.000000	0.000000	7.107389	92.1813	NaN	0.000000	0.001607	0.001690	28.081	41.4137	0.001828	22655	1.154992	-176.876	91.4804	1.102210	0.045179	0.044854	92.1813	22655	0.042128	0.069643	1323.63	78433
449	2.000000	1.104495	7.36946e+06	-54639.1	1005.82	-29743.3	0.000000	0.000000	7.109676	100.139	NaN	0.000000	0.001576	0.001728	28.0813	42.645	0.001825	23372.5	5.152570	178.313	98.9888	1.104152	0.047139	0.046796	100.139	23372.5	0.043926	0.074568	1342.92	78199.3
449	2.000000	1.106487	7.36946e+06	-54639.1	1005.82	-29743.3	0.000000	0.000000	7.112092	110.441	NaN	0.000000	0.001557	0.001765	28.081	44.7045	0.001636	27323.4	2.029174	179.83	109.375	1.106207	0.049131	0.048851	110.441	27323.4	0.046099	0.080738	1367.89	87855.3
449	2.000000	1.108564	7.36946e+06	-54639.1	1005.82	-29743.3	0.000000	0.000000	7.114283	113.203	NaN	0.000000	0.001576	0.001704	28.0811	48.1868	0.001917	25135.9	4.674598	178.962	114.301	1.108127	0.051208	0.050771	113.203	25135.9	0.047830	0.085825	1318.99	78390
449	2.000000	1.110461	7.36946e+06	-54639.1	1005.82	-29743.3	0.000000	0.000000	7.116530	121.724	NaN	0.000000	0.001559	0.001734	28.0809	49.9706	0.001865	26787.4	7.137866	174.312	118.25	1.110161	0.053105	0.052805	121.724	26787.4	0.049697	0.091478	1330.63	80917.8
449	2.000000	1.112534	7.36946e+06	-54639.1	1005.82	-29743.3	0.000000	0.000000	7.118802	126.549	NaN	0.000000	0.001550	0.001704	28.0807	52.124	0.001885	27651.6	7.149538	175.078	125.577	1.112217	0.055178	0.054861	126.549	27651.6	0.051746	0.097886	1292.83	80748.6
449	2.000000	1.114543	7.36946e+06	-54639.1	1005.82	-29743.3	0.000000	0.000000	7.121294	138.309	NaN	0.000000	0.001543	0.001722	28.0809	51.6484	0.001806	28598.6	-0.312897	-177.878	139.393	1.114219	0.057187	0.056863	138.309	28598.6	0.053560	0.103734	1333.3	81125.6
449	2.000000	1.116442	7.36946e+06	-54639.1	1005.82	-29743.3	0.000000	0.000000	7.123694	150.488	NaN	0.000000	0.001544	0.001713	28.081	54.4603	0.001778	30627.5	6.217502	175.359	146.527	1.116111	0.059086	0.058755	150.488	30627.5	0.055401	0.109835	1370.12	84433.2
449	2.000000	1.118451	7.36946e+06	-54639.1	1005.82	-29743.3	0.000000	0.000000	7.126151	161.372	NaN	0.000000	0.001570	0.001706	28.0822	56.8247	0.001926	29503.1	4.934865	176.82	157.917	1.118107	0.061095	0.060751	161.372	29503.1	0.056993	0.115246	1400.23	79401.2
449	2.000000	1.120477	7.36946e+06	-54639.1	1005.82	-29743.3	0.000000	0.000000	7.128584	171.26	NaN	0.000000	0.001557	0.001713	28.0823	58.0558	0.001755	33072.1	2.925589	177.537	168.235	1.120139	0.063121	0.062783	171.26	33072.1	0.059237	0.123088	1391.36	86124.6
449	2.000000	1.122473	7.36946e+06	-54639.1	1005.82	-29743.3	0.000000	0.000000	7.130790	176.383	NaN	0.000000	0.001582	0.001729	28.0821	61.3463	0.001827	33575.2	7.414114	172.889	176.032	1.122210	0.065117	0.064854	176.383	33575.2	0.061177	0.130061	1356.16	85058.7
449	2.000000	1.124435	7.36946e+06	-54639.1	1005.82	-29743.3	0.000000	0.000000	7.133272	189.014	NaN	0.000000	0.001602	0.001709	28.0821	61.7028	0.001795	34376.1	6.380346	174.053	185.259	1.124154	0.067079	0.066798	189.014	34376.1	0.062955	0.136617	1383.53	84972.1
449	2.000000	1.126449	7.36946e+06	-54639.1	1005.82	-29743.3	0.000000	0.000000	7.135871	203.226	NaN	0.000000	0.001595	0.001714	28.082	63.2176	0.001782	35485	5.462395	174.968	200.229	1.126163	0.069093	0.068806	203.226	35485	0.064798	0.143572	1415.5	85562.4
449	2.000000	1.128551	7.36946e+06	-54639.1	1005.82	-29743.3	0.000000	0.000000	7.138506	216.19	NaN	0.000000	0.001596	0.001712	28.0823	66.5508	0.001889	35230.2	8.656394	172.153	219.511	1.128199	0.071195	0.070843	216.19	35230.2	0.066593	0.150504	1436.45	82968.9
449	2.000000	1.130463	7.36946e+06	-54639.1	1005.82	-29743.3	0.000000	0.000000	7.140826	226.093	NaN	0.000000	0.001588	0.001734	28.0823	67.6564	0.001888	35841.2	8.695894	171.599	223.145	1.130167	0.073107	0.072811	226.093	35841.2	0.068376	0.157546	1435.1	82499.8
449	2.000000	1.132398	7.36946e+06	-54639.1	1005.82	-29743.3	0.000000	0.000000	7.143307	239.386	NaN	0.000000	0.001607	0.001777	28.082	70.0344	0.001862	37614.7	5.406090	174.18	235.047	1.132100	0.075042	0.074744	239.386	37614.7	0.070269	0.165182	1449.22	84557
449	2.000000	1.134476	7.36946e+06	-54639.1	1005.82	-29743.3	0.000000	0.000000	7.146131	257.525	NaN	0.000000	0.001593	0.001721	28.082	68.9687	0.001711	40302.6	1.383393	177.828	256.461	1.134139	0.077120	0.076783	257.525	40302.6	0.072327	0.173684	1482.72	88354
449	2.000000	1.136409	7.36946e+06	-54639.1	1005.82	-29743.3	0.000000	0.000000	7.148392	265.495	NaN	0.000000	0.001589	0.001694	28.0821	73.6973	0.001761	41843.2	6.096474	172.162	261.26	1.136162	0.079053	0.078806	265.495	41843.2	0.074294	0.181993	1458.83	89613.1
449	2.000000	1.138404	7.36946e+06	-54639.1	1005.82	-29743.3	0.000000	0.000000	7.151040	281.378	NaN	0.000000	0.001549	0.001671	28.0823	75.4124	0.001792	42075.8	4.247752	174.892	275.588	1.138124	0.081048	0.080768	281.378	42075.8	0.076032	0.189488	1484.94	88311.1
449	2.000000	1.140575	7.36946e+06	-54639.1	1005.82	-29743.3	0.000000	0.000000	7.153624	291.394	NaN	0.000000	0.001582	0.001707	28.0826	77.636	0.001779	43634.4	6.119860	172.663	296.448	1.140101	0.083219	0.082745	291.394	43634.4	0.078211	0.199082	1463.69	89348.3
449	2.000000	1.142480	7.36946e+06	-54639.1	1005.82	-29743.3	0.000000	0.000000	7.156349	311.334	NaN	0.000000	0.001588	0.001701	28.0823	80.2301	0.001722	46591.5	7.317478	170.609	310.99	1.142179	0.085124	0.084823	311.334	46591.5	0.080112	0.207639	1499.4	93416.8
449	2.000000	1.144449	7.36946e+06	-54639.1	1005.82	-29743.3	0.000000	0.000000	7.159102	330.388	NaN	0.000000	0.001581	0.001693	28.0824	80.3524	0.001642	48949.5	5.924956	171.851	330.678	1.144105	0.087093	0.086749	330.388	48949.5	0.082031	0.216443	1526.44	96127.9
449	2.000000	1.146496	7.36946e+06	-54639.1	1005.82	-29743.3	0.000000	0.000000	7.161629	342.076	NaN	0.000000	0.001578	0.001708	28.0821	83.4124	0.001703	48979	2.388334	175.13	343.793	1.146235	0.089140	0.088879	342.076	48979	0.083902	0.225190	1519.06	94299.3
449	2.000000	1.148459	7.36946e+06	-54639.1	1005.82	-29743.3	0.000000	0.000000	7.164494	364.015	NaN	0.000000	0.001608	0.001720	28.082	86.8786	0.001865	46588.1	7.302865	171.7	361.6	1.148056	0.091103	0.090700	364.015	46588.1	0.085242	0.231560	1572.01	88453.9
449	2.000000	1.150434	7.36946e+06	-54639.1	1005.82	-29743.3	0.000000	0.000000	7.167156	380.701	NaN	0.000000	0.001584	0.001731	28.0824	87.1045	0.001712	50883.9	2.183110	175.504	378.013	1.150119	0.093078	0.092763	380.701	50883.9	0.087466	0.242307	1571.15	94443.2
449	2.000000	1.152444	7.36946e+06	-54639.1	1005.82	-29743.3	0.000000	0.000000	7.169809	396.337	NaN	0.000000	0.001560	0.001720	28.0813	90.9584	0.001845	49288.3	4.308590	173.331	393.883	1.152143	0.095088	0.094787	396.337	49288.3	0.089057	0.250135	1584.49	90038.9
449	2.000000	1.154421	7.36946e+06	-54639.1	1005.82	-29743.3	0.000000	0.000000	7.172725	419.175	NaN	0.000000	0.001665	0.001715	28.0812	91.372	0.001699	53778.8	8.557969	168.472	416.786	1.154118	0.097065	0.096761	419.175	53778.8	0.091219	0.260957	1606.3	96183.3
449	2.000000	1.156351	7.36946e+06	-54639.1	1005.82	-29743.3	0.000000	0.000000	7.175638	443.05	NaN	0.000000	0.001647	0.001715	28.0807	93.1906	0.001728	53938.6	2.409563	174.506	438.579	1.156064	0.098995	0.098708	443.05	53938.6	0.092834	0.269186	1645.88	94983.1
449	2.000000	1.158447	7.36946e+06	-54639.1	1005.82	-29743.3	0.000000	0.000000	7.178509	461.91	NaN	0.000000	0.001647	0.001756	28.0808	95.5121	0.001753	54488.9	3.138450	174.264	459.351	1.158097	0.101091	0.100741	461.91	54488.9	0.094733	0.279009	1655.54	94247.9
449	2.000000	1.160514	7.36946e+06	-54639.1	1005.82	-29743.3	0.000000	0.000000	7.181333	480.3	NaN	0.000000	0.001641	0.001747	28.0812	98.1211	0.001702	57663.5	7.006283	169.853	482.127	1.160145	0.103158	0.102789	480.3	57663.5	0.096911	0.290482	1653.46	97749.5
449	2.000000	1.162464	7.36946e+06	-54639.1	1005.82	-29743.3	0.000000	0.000000	7.184075	499.562	NaN	0.000000	0.001663	0.001716	28.0811	101.461	0.001766	57466.1	5.641458	171.081	499.559	1.162128	0.105108	0.104772	499.562	57466.1	0.098588	0.299459	1668.21	95943.6
449	2.000000	1.164572	7.36946e+06	-54639.1	1005.82	-29743.3	0.000000	0.000000	7.186782	514.103	NaN	0.000000	0.001635	0.001753	28.081	102.789	0.001777	57859.7	6.637387	170.422	521.328	1.164128	0.107216	0.106772	514.103	57859.7	0.100552	0.310140	1657.65	94922.8
449	2.000000	1.166457	7.36946e+06	-54639.1	1005.82	-29743.3	0.000000	0.000000	7.189733	540.024	NaN	0.000000	0.001571	0.001759	28.0809	105.523	0.001841	57315.9	5.768798	172.141	538.569	1.165987	0.109101	0.108631	540.024	57315.9	0.102035	0.318315	1696.51	92815.4
449	2.000000	1.167917	7.36946e+06	-54639.1	1005.82	-29743.3	0.000000	0.000000	7.191415	545.442	NaN	0.000000	0.001575	0.001723	28.0811	106.574	0.001861	57260.2	4.907573	-8.279473	541.187	1.167501	0.110561	0.110145	545.442	57260.2	0.103416	0.326027	1672.99	91621.8