File: remote_trans/data/nanoindenter/0828-1/data/Data_2025-08-06,11h17m57s/2025-07-22_16-23-58_1_1067.txt
2025-07-22, 16:23:58, 1
Index	Phase	Displacement	Time	Pos X	Pos Y	Pos Z	Rot A	Rot B	Piezo Z	Force A	Force B	Gripper	Voltage A	Voltage B	Temperature	Amplitude force	Amplitude pos	Stiffness	Phase shift	Phase excitation	Force A raw	Displacement raw	HMax	HMax raw	Real Force	Real Stiffness	Contact Depth	Area	Hardness	Reduced Mod.
[#]	[#]	[um]	[s]	[um]	[um]	[um]	[m°]	[m°]	[um]	[uN]	[uN]	[V]	[V]	[V]	[°C]	[uN]	[um]	[N/m]	[°]	[°]	[uN]	[um]	[um]	[um]	[uN]	[N/m]	[um]	[um^2]	[MPa]	[MPa]
1067	1.000000	0.002344	7.37548e+06	-53489.1	1055.82	-29746.1	0.000000	0.000000	6.002836	-0.041465	NaN	0.000000	0.001554	0.001657	28.0825	0.041146	0.000926	44.4121	-30.2641	-162.422	-0.000970	0.001044	-1.104881	-1.106181	-0.041465	44.4121	-1.104181	-5.704046E+14	7.269461E-17	NaN
1067	1.000000	0.012364	7.37548e+06	-53489.1	1055.82	-29746.1	0.000000	0.000000	6.012857	-0.019003	NaN	0.000000	0.001510	0.001613	28.0825	0.096564	0.001302	74.1399	-174.228	14.2658	-0.006558	0.010913	-1.094861	-1.096312	-0.019003	74.1399	-1.094669	-4.251060E+14	4.470086E-17	NaN
1067	1.000000	0.022235	7.37548e+06	-53489.1	1055.82	-29746.1	0.000000	0.000000	6.022728	-0.015762	NaN	0.000000	0.001513	0.001677	28.0824	0.146133	0.001730	84.4543	17.9501	-165.561	-0.045651	0.020959	-1.084990	-1.086266	-0.015762	84.4543	-1.084850	-3.138020E+14	5.023017E-17	NaN
1067	1.000000	0.032269	7.37548e+06	-53489.1	1055.82	-29746.1	0.000000	0.000000	6.032764	0.023759	NaN	0.000000	0.001552	0.001713	28.0822	0.007880	0.001948	4.044523	-44.9245	14.6498	-0.037825	0.030914	-1.074956	-1.076312	0.023759	4.044523	-1.079361	-2.648154E+14	-8.971801E-17	NaN
1067	1.000000	0.042264	7.37548e+06	-53489.1	1055.82	-29746.1	0.000000	0.000000	6.042753	-0.100102	NaN	0.000000	0.001517	0.001702	28.0823	0.157928	0.001913	82.5606	-136.655	-166.19	-0.002057	0.040962	-1.064962	-1.066263	-0.100102	82.5606	-1.064052	-1.649206E+14	6.069728E-16	NaN
1067	1.000000	0.052266	7.37548e+06	-53489.1	1055.82	-29746.1	0.000000	0.000000	6.052759	-0.003367	NaN	0.000000	0.001481	0.001721	28.0823	0.019332	0.001986	9.735147	48.036	16.3148	0.018702	0.050887	-1.054959	-1.056339	-0.003367	9.735147	-1.054700	-1.234775E+14	2.726960E-17	NaN
1067	1.000000	0.062254	7.37548e+06	-53489.1	1055.82	-29746.1	0.000000	0.000000	6.062747	-0.000341	NaN	0.000000	0.001500	0.001716	28.0825	0.097373	0.001961	49.6432	-20.4919	-163.307	-0.000378	0.060987	-1.044971	-1.046239	-0.000341	49.6432	-1.044966	-9.135703E+13	3.733487E-18	NaN
1067	1.000000	0.072258	7.37548e+06	-53489.1	1055.82	-29746.1	0.000000	0.000000	6.072752	0.010954	NaN	0.000000	0.001490	0.001694	28.0824	0.040732	0.002068	19.6949	33.8192	15.5373	-0.029999	0.070896	-1.034967	-1.036329	0.010954	19.6949	-1.035384	-6.790438E+13	-1.613160E-16	NaN
1067	1.000000	0.082270	7.37548e+06	-53489.1	1055.82	-29746.1	0.000000	0.000000	6.082766	0.075624	NaN	0.000000	0.001555	0.001703	28.0824	0.076950	0.001937	39.735	-4.336363	-168.113	0.018408	0.080925	-1.024955	-1.026301	0.075624	39.735	-1.026382	-5.138288E+13	-1.471771E-15	NaN
1067	1.000000	0.092257	7.37548e+06	-53489.1	1055.82	-29746.1	0.000000	0.000000	6.092748	-0.040206	NaN	0.000000	0.001533	0.001725	28.0812	0.023697	0.001965	12.0596	36.0293	15.9591	-0.040662	0.090862	-1.014968	-1.016363	-0.040206	12.0596	-1.012468	-3.338852E+13	1.204186E-15	NaN
1067	1.000000	0.102253	7.37548e+06	-53489.1	1055.82	-29746.1	0.000000	0.000000	6.102745	-0.038019	NaN	0.000000	0.001510	0.001704	28.0811	0.120790	0.002067	58.4439	142.008	-165.338	-0.007095	0.100956	-1.004972	-1.006270	-0.038019	58.4439	-1.004484	-2.606982E+13	1.458362E-15	NaN
1067	1.000000	0.112301	7.37548e+06	-53489.1	1055.82	-29746.1	0.000000	0.000000	6.112794	0.000892	NaN	0.000000	0.001491	0.001738	28.0811	0.057783	0.002052	28.1646	142.017	14.4702	0.029560	0.110871	-0.994925	-0.996355	0.000892	28.1646	-0.994948	-1.939768E+13	-4.601038E-17	NaN
1067	1.000000	0.122292	7.37548e+06	-53489.1	1055.82	-29746.1	0.000000	0.000000	6.122784	-0.022630	NaN	0.000000	0.001499	0.001688	28.0813	0.047073	0.002079	22.6449	-23.2501	-162.963	-0.000249	0.120972	-0.984934	-0.986253	-0.022630	22.6449	-0.984184	-1.389235E+13	1.628962E-15	NaN
1067	1.000000	0.132277	7.37548e+06	-53489.1	1055.82	-29746.1	0.000000	0.000000	6.132770	0.015079	NaN	0.000000	0.001506	0.001690	28.0812	0.067853	0.002026	33.4977	-97.9106	15.8415	0.039858	0.130922	-0.974949	-0.976303	0.015079	33.4977	-0.975286	-1.054140E+13	-1.430452E-15	NaN
1067	1.000000	0.142281	7.37548e+06	-53489.1	1055.82	-29746.1	0.000000	0.000000	6.142773	-0.027846	NaN	0.000000	0.001531	0.001655	28.0812	0.021261	0.002032	10.4631	71.2635	-166.025	-0.020266	0.140961	-0.964945	-0.966264	-0.027846	10.4631	-0.962949	-7.188204E+12	3.873834E-15	NaN
1067	1.000000	0.152288	7.37548e+06	-53489.1	1055.82	-29746.1	0.000000	0.000000	6.152781	0.011529	NaN	0.000000	0.001494	0.001704	28.0814	0.096328	0.001917	50.2519	150.444	15.9238	-0.095828	0.150911	-0.954937	-0.956314	0.011529	50.2519	-0.955110	-5.635482E+12	-2.045714E-15	NaN
1067	1.000000	0.162293	7.37548e+06	-53489.1	1055.82	-29746.1	0.000000	0.000000	6.162786	-0.004687	NaN	0.000000	0.001498	0.001708	28.0812	0.009923	0.001954	5.078779	104.606	-165.826	0.019390	0.160999	-0.944932	-0.946226	-0.004687	5.078779	-0.944240	-4.021017E+12	1.165686E-15	NaN
1067	1.000000	0.172324	7.37548e+06	-53489.1	1055.82	-29746.1	0.000000	0.000000	6.172818	0.010798	NaN	0.000000	0.001535	0.001713	28.0814	0.042841	0.001988	21.5496	95.9213	11.3296	0.015815	0.170893	-0.934901	-0.936333	0.010798	21.5496	-0.935277	-3.043733E+12	-3.547653E-15	NaN
1067	1.000000	0.182310	7.37548e+06	-53489.1	1055.82	-29746.1	0.000000	0.000000	6.182808	0.130817	NaN	0.000000	0.001528	0.001689	28.0812	0.097905	0.002041	47.9624	-125.486	-166.276	0.097360	0.181017	-0.924916	-0.926208	0.130817	47.9624	-0.926961	-2.350613E+12	-5.565230E-14	NaN
1067	1.000000	0.192308	7.37548e+06	-53489.1	1055.82	-29746.1	0.000000	0.000000	6.192800	-0.026639	NaN	0.000000	0.001522	0.001752	28.0813	0.135273	0.001979	68.3659	-170.105	17.3415	-0.060884	0.190942	-0.914918	-0.916283	-0.026639	68.3659	-0.914625	-1.601892E+12	1.662991E-14	NaN
1067	1.000000	0.202319	7.37548e+06	-53489.1	1055.82	-29746.1	0.000000	0.000000	6.202812	-0.007423	NaN	0.000000	0.001546	0.001712	28.0812	0.122140	0.001925	63.4338	15.4218	-166.86	-0.011746	0.201010	-0.904906	-0.906216	-0.007423	63.4338	-0.904819	-1.180789E+12	6.286456E-15	NaN
1067	1.000000	0.212310	7.37548e+06	-53489.1	1055.82	-29746.1	0.000000	0.000000	6.212802	-0.027356	NaN	0.000000	0.001524	0.001688	28.0812	0.012884	0.002016	6.389861	-96.6304	17.2388	-0.030591	0.210977	-0.894915	-0.896248	-0.027356	6.389861	-0.891704	-7.851545E+11	3.484142E-14	NaN
1067	1.000000	0.222325	7.37548e+06	-53489.1	1055.82	-29746.1	0.000000	0.000000	6.222816	-0.056760	NaN	0.000000	0.001523	0.001682	28.081	0.139720	0.002102	66.4601	145.874	-165.317	-0.007789	0.221013	-0.884900	-0.886212	-0.056760	66.4601	-0.884260	-6.227458E+11	9.114453E-14	NaN
1067	1.000000	0.232292	7.37548e+06	-53489.1	1055.82	-29746.1	0.000000	0.000000	6.232788	0.077131	NaN	0.000000	0.001548	0.001694	28.083	0.136973	0.002201	62.2451	5.837144	12.055	0.057976	0.230982	-0.874933	-0.876243	0.077131	62.2451	-0.875863	-4.794615E+11	-1.608691E-13	NaN
1067	1.000000	0.242308	7.37549e+06	-53489.1	1055.82	-29746.1	0.000000	0.000000	6.242806	0.116004	NaN	0.000000	0.001500	0.001681	28.0822	0.029737	0.001926	15.4433	-112.74	-167.891	0.054948	0.241007	-0.864917	-0.866219	0.116004	15.4433	-0.870551	-4.063481E+11	-2.854792E-13	NaN
1067	1.000000	0.252352	7.37549e+06	-53489.1	1055.82	-29746.1	0.000000	0.000000	6.252844	-0.025980	NaN	0.000000	0.001569	0.001706	28.0824	0.094232	0.001960	48.0752	114.297	13.6719	-0.001719	0.250996	-0.854873	-0.856229	-0.025980	48.0752	-0.854468	-2.461701E+11	1.055356E-13	NaN
1067	1.000000	0.262352	7.37549e+06	-53489.1	1055.82	-29746.1	0.000000	0.000000	6.262847	0.022155	NaN	0.000000	0.001559	0.001706	28.0823	0.018564	0.002115	8.777035	-81.2887	-164.481	-0.012287	0.261065	-0.844873	-0.846161	0.022155	8.777035	-0.846766	-1.936154E+11	-1.144264E-13	NaN
1067	1.000000	0.272333	7.37549e+06	-53489.1	1055.82	-29746.1	0.000000	0.000000	6.272824	-0.067942	NaN	0.000000	0.001549	0.001703	28.0827	0.155628	0.001974	78.8239	51.5395	17.4105	-0.101588	0.271047	-0.834892	-0.836178	-0.067942	78.8239	-0.834245	-1.310153E+11	5.185784E-13	NaN
1067	1.000000	0.282347	7.37549e+06	-53489.1	1055.82	-29746.1	0.000000	0.000000	6.282838	-0.054291	NaN	0.000000	0.001559	0.001723	28.0822	0.110212	0.002091	52.7065	112.113	-161.923	-0.091682	0.281014	-0.824878	-0.826211	-0.054291	52.7065	-0.824106	-9.547394E+10	5.686449E-13	NaN
1067	1.000000	0.292383	7.37549e+06	-53489.1	1055.82	-29746.1	0.000000	0.000000	6.292874	-0.038041	NaN	0.000000	0.001530	0.001707	28.0825	0.039607	0.002013	19.6758	-102.79	15.1719	-0.006875	0.291033	-0.814842	-0.816193	-0.038041	19.6758	-0.813392	-6.832689E+10	5.567524E-13	NaN
1067	1.000000	0.302360	7.37549e+06	-53489.1	1055.82	-29746.1	0.000000	0.000000	6.302853	-0.003230	NaN	0.000000	0.001535	0.001742	28.0824	0.134578	0.002060	65.33	161.171	-168.839	-0.022224	0.301051	-0.804865	-0.806175	-0.003230	65.33	-0.804828	-5.228728E+10	6.176774E-14	NaN
1067	1.000000	0.312381	7.37549e+06	-53489.1	1055.82	-29746.1	0.000000	0.000000	6.312876	0.044301	NaN	0.000000	0.001551	0.001733	28.0826	0.056898	0.001988	28.6185	-16.2088	12.5525	0.021325	0.310983	-0.794844	-0.796242	0.044301	28.6185	-0.796005	-3.968537E+10	-1.116306E-12	NaN
1067	1.000000	0.322371	7.37549e+06	-53489.1	1055.82	-29746.1	0.000000	0.000000	6.322862	-0.028445	NaN	0.000000	0.001531	0.001736	28.0823	0.085082	0.001935	43.9637	-123.011	-164.074	-0.087946	0.321003	-0.784855	-0.786223	-0.028445	43.9637	-0.784369	-2.758040E+10	1.031335E-12	NaN
1067	1.000000	0.332368	7.37549e+06	-53489.1	1055.82	-29746.1	0.000000	0.000000	6.332860	-0.042219	NaN	0.000000	0.001566	0.001720	28.0824	0.117162	0.002036	57.5552	154.392	14.9843	-0.016755	0.331000	-0.774857	-0.776226	-0.042219	57.5552	-0.774307	-2.013047E+10	2.097268E-12	NaN
1067	1.000000	0.342379	7.37549e+06	-53489.1	1055.82	-29746.1	0.000000	0.000000	6.342872	0.000924	NaN	0.000000	0.001564	0.001718	28.0823	0.091262	0.002085	43.7605	77.7135	-166.629	-0.007501	0.341081	-0.764846	-0.766144	0.000924	43.7605	-0.764862	-1.497742E+10	-6.170920E-14	NaN
1067	1.000000	0.352383	7.37549e+06	-53489.1	1055.82	-29746.1	0.000000	0.000000	6.352873	-0.060099	NaN	0.000000	0.001530	0.001738	28.0824	0.018198	0.001926	9.449220	-75.6652	15.8017	0.011020	0.350986	-0.754842	-0.756239	-0.060099	9.449220	-0.750072	-9.423321E+9	6.377716E-12	NaN
1067	1.000000	0.362364	7.37549e+06	-53489.1	1055.82	-29746.1	0.000000	0.000000	6.362858	0.017443	NaN	0.000000	0.001524	0.001728	28.082	0.071245	0.001954	36.4552	-161.826	-167.377	-0.064232	0.361076	-0.744861	-0.746150	0.017443	36.4552	-0.745220	-8.093579E+9	-2.155142E-12	NaN
1067	1.000000	0.372411	7.37549e+06	-53489.1	1055.82	-29746.1	0.000000	0.000000	6.372904	-0.017306	NaN	0.000000	0.001532	0.001738	28.081	0.037107	0.002055	18.0571	35.8538	16.3378	-0.019744	0.370987	-0.734814	-0.736238	-0.017306	18.0571	-0.734095	-5.709721E+9	3.030987E-12	NaN
1067	1.000000	0.382391	7.37549e+06	-53489.1	1055.82	-29746.1	0.000000	0.000000	6.382885	0.020148	NaN	0.000000	0.001517	0.001753	28.0811	0.053877	0.001972	27.3215	-139.254	-164.272	0.037717	0.381101	-0.724835	-0.726124	0.020148	27.3215	-0.725388	-4.344478E+9	-4.637725E-12	NaN
1067	1.000000	0.392397	7.37549e+06	-53489.1	1055.82	-29746.1	0.000000	0.000000	6.392889	-0.037907	NaN	0.000000	0.001541	0.001737	28.0808	0.099861	0.002096	47.6378	-138.574	11.0452	-0.119800	0.391023	-0.714828	-0.716202	-0.037907	47.6378	-0.714231	-3.060438E+9	1.238608E-11	NaN
1067	1.000000	0.402397	7.37549e+06	-53489.1	1055.82	-29746.1	0.000000	0.000000	6.402890	0.007145	NaN	0.000000	0.001500	0.001737	28.0809	0.103314	0.001865	55.3931	25.3251	-164.683	0.013722	0.401080	-0.704829	-0.706145	0.007145	55.3931	-0.704925	-2.284464E+9	-3.127693E-12	NaN
1067	1.000000	0.412397	7.37549e+06	-53489.1	1055.82	-29746.1	0.000000	0.000000	6.412891	0.013851	NaN	0.000000	0.001514	0.001732	28.0808	0.028077	0.002036	13.7898	-71.6855	12.1874	-0.083349	0.411000	-0.694828	-0.696225	0.013851	13.7898	-0.695581	-1.702853E+9	-8.134110E-12	NaN
1067	1.000000	0.422391	7.37549e+06	-53489.1	1055.82	-29746.1	0.000000	0.000000	6.422884	-0.007168	NaN	0.000000	0.001541	0.001707	28.0809	0.063507	0.002143	29.6411	-116.46	-167.51	0.012163	0.421084	-0.684834	-0.686141	-0.007168	29.6411	-0.684653	-1.207341E+9	5.936864E-12	NaN
1067	1.000000	0.432408	7.37549e+06	-53489.1	1055.82	-29746.1	0.000000	0.000000	6.432897	-0.101361	NaN	0.000000	0.001531	0.001728	28.0807	0.088986	0.001907	46.6565	165.599	15.5524	-0.035911	0.431087	-0.674817	-0.676139	-0.101361	46.6565	-0.673188	-8.414178E+8	1.204644E-10	NaN
1067	1.000000	0.442421	7.37549e+06	-53489.1	1055.82	-29746.1	0.000000	0.000000	6.442914	0.007312	NaN	0.000000	0.001524	0.001750	28.0808	0.036995	0.001991	18.5804	172.498	-164.608	0.064579	0.441119	-0.664804	-0.666106	0.007312	18.5804	-0.665099	-6.520831E+8	-1.121304E-11	NaN
1067	1.000000	0.452410	7.37549e+06	-53489.1	1055.82	-29746.1	0.000000	0.000000	6.452902	-0.019190	NaN	0.000000	0.001526	0.001708	28.081	0.021641	0.001989	10.8791	-163.942	12.2798	0.017188	0.451069	-0.654815	-0.656157	-0.019190	10.8791	-0.653493	-4.521767E+8	4.243948E-11	NaN
1067	1.000000	0.462447	7.37549e+06	-53489.1	1055.82	-29746.1	0.000000	0.000000	6.462939	-0.020344	NaN	0.000000	0.001515	0.001743	28.0809	0.095199	0.001954	48.7323	167.799	-166.203	-0.048532	0.461127	-0.644778	-0.646098	-0.020344	48.7323	-0.644465	-3.400519E+8	5.982596E-11	NaN
1067	1.000000	0.472415	7.37549e+06	-53489.1	1055.82	-29746.1	0.000000	0.000000	6.472906	-0.037269	NaN	0.000000	0.001492	0.001744	28.0806	0.076973	0.001973	39.0093	160.493	14.9278	-0.082955	0.471127	-0.634811	-0.636099	-0.037269	39.0093	-0.634094	-2.450395E+8	1.520957E-10	NaN
1067	1.000000	0.482430	7.37549e+06	-53489.1	1055.82	-29746.1	0.000000	0.000000	6.482921	-0.060078	NaN	0.000000	0.001536	0.001721	28.081	0.094425	0.002004	47.1099	110.282	-167.856	-0.077966	0.481127	-0.624795	-0.626098	-0.060078	47.1099	-0.623838	-1.771673E+8	3.391011E-10	NaN
1067	1.000000	0.492435	7.37549e+06	-53489.1	1055.82	-29746.1	0.000000	0.000000	6.492925	-0.063753	NaN	0.000000	0.001554	0.001704	28.0807	0.058554	0.001979	29.5851	41.7969	13.7197	-0.093401	0.491118	-0.614791	-0.616107	-0.063753	29.5851	-0.613175	-1.264109E+8	5.043342E-10	NaN
1067	1.000000	0.502437	7.37549e+06	-53489.1	1055.82	-29746.1	0.000000	0.000000	6.502929	-0.014157	NaN	0.000000	0.001598	0.001740	28.082	0.020046	0.001989	10.0801	-165.268	-168.304	-0.055446	0.501173	-0.604788	-0.606052	-0.014157	10.0801	-0.603735	-9.373268E+7	1.510312E-10	NaN
1067	1.000000	0.512459	7.37549e+06	-53489.1	1055.82	-29746.1	0.000000	0.000000	6.512947	-0.115027	NaN	0.000000	0.001584	0.001684	28.082	0.102662	0.001881	54.5805	-147.948	12.7192	-0.016043	0.511080	-0.594766	-0.596145	-0.115027	54.5805	-0.593186	-6.707820E+7	1.714821E-9	NaN
1067	1.000000	0.522461	7.37549e+06	-53489.1	1055.82	-29746.1	0.000000	0.000000	6.522953	-0.036343	NaN	0.000000	0.001507	0.001711	28.0822	0.046255	0.001938	23.8669	35.8148	-166.141	0.037347	0.521144	-0.584764	-0.586082	-0.036343	23.8669	-0.583622	-4.951190E+7	7.340260E-10	NaN
1067	1.000000	0.532471	7.37549e+06	-53489.1	1055.82	-29746.1	0.000000	0.000000	6.532966	0.033105	NaN	0.000000	0.001532	0.001711	28.0821	0.128499	0.001972	65.1734	-152.94	15.5272	0.071196	0.531072	-0.574754	-0.576153	0.033105	65.1734	-0.575135	-3.780639E+7	-8.756515E-10	NaN
1067	1.000000	0.542467	7.37549e+06	-53489.1	1055.82	-29746.1	0.000000	0.000000	6.542961	0.016301	NaN	0.000000	0.001537	0.001704	28.0823	0.062789	0.002024	31.0291	112.189	-166.666	-0.017867	0.541180	-0.564758	-0.566045	0.016301	31.0291	-0.565152	-2.751886E+7	-5.923416E-10	NaN
1067	1.000000	0.552477	7.37549e+06	-53489.1	1055.82	-29746.1	0.000000	0.000000	6.552970	0.009645	NaN	0.000000	0.001551	0.001689	28.0822	0.096354	0.001823	52.8418	-118.392	12.2442	0.002159	0.551060	-0.554749	-0.556166	0.009645	52.8418	-0.554885	-1.984282E+7	-4.860812E-10	NaN
1067	1.000000	0.562460	7.37549e+06	-53489.1	1055.82	-29746.1	0.000000	0.000000	6.562953	-0.014650	NaN	0.000000	0.001503	0.001700	28.083	0.089153	0.002181	40.8861	148.914	-170.681	0.016014	0.561202	-0.544765	-0.546023	-0.014650	40.8861	-0.544496	-1.424612E+7	1.028384E-9	NaN
1067	1.000000	0.572459	7.37549e+06	-53489.1	1055.82	-29746.1	0.000000	0.000000	6.572950	-0.045024	NaN	0.000000	0.001490	0.001747	28.0822	0.102704	0.002115	48.5493	-116.245	13.0866	-0.108184	0.571111	-0.534766	-0.536115	-0.045024	48.5493	-0.534071	-1.021165E+7	4.409057E-9	NaN
1067	1.000000	0.582462	7.37549e+06	-53489.1	1055.82	-29746.1	0.000000	0.000000	6.582952	-0.078757	NaN	0.000000	0.001514	0.001679	28.0824	0.125104	0.001823	68.6385	-110.751	-165.186	-0.054675	0.581172	-0.524763	-0.526053	-0.078757	68.6385	-0.523903	-7.37663e+06	1.067658E-8	NaN
1067	1.000000	0.592470	7.37549e+06	-53489.1	1055.82	-29746.1	0.000000	0.000000	6.592962	-0.019774	NaN	0.000000	0.001494	0.001693	28.0823	0.060310	0.002013	29.9675	-151.13	10.5822	-0.002778	0.591093	-0.514755	-0.516132	-0.019774	29.9675	-0.514260	-5.41674e+06	3.650525E-9	NaN
1067	1.000000	0.602470	7.37549e+06	-53489.1	1055.82	-29746.1	0.000000	0.000000	6.602962	-0.019348	NaN	0.000000	0.001587	0.001665	28.0821	0.058481	0.001992	29.361	-179.776	-166.104	0.002702	0.601172	-0.504755	-0.506053	-0.019348	29.361	-0.504261	-3.93047e+06	4.922459E-9	NaN
1067	1.000000	0.612494	7.37549e+06	-53489.1	1055.82	-29746.1	0.000000	0.000000	6.612985	-0.061710	NaN	0.000000	0.001540	0.001692	28.0822	0.047458	0.002111	22.4807	90.996	11.6499	-0.106458	0.611101	-0.494731	-0.496124	-0.061710	22.4807	-0.492672	-2.70848e+06	2.278387E-8	NaN
1067	1.000000	0.622502	7.37549e+06	-53489.1	1055.82	-29746.1	0.000000	0.000000	6.622996	0.027947	NaN	0.000000	0.001547	0.001737	28.0824	0.065014	0.001995	32.5868	-125.629	-164.946	0.027789	0.621173	-0.484724	-0.486052	0.027947	32.5868	-0.485367	-2.14103e+06	-1.305298E-8	NaN
1067	1.000000	0.632501	7.37549e+06	-53489.1	1055.82	-29746.1	0.000000	0.000000	6.632993	-0.017790	NaN	0.000000	0.001566	0.001693	28.0825	0.075214	0.001938	38.8113	11.5741	14.3523	0.012633	0.631122	-0.474724	-0.476103	-0.017790	38.8113	-0.474380	-1.50251e+06	1.183994E-8	NaN
1067	1.000000	0.642521	7.37549e+06	-53489.1	1055.82	-29746.1	0.000000	0.000000	6.643015	0.001110	NaN	0.000000	0.001532	0.001683	28.081	0.047571	0.002008	23.6882	106.483	-165.771	-0.032344	0.641186	-0.464704	-0.466040	0.001110	23.6882	-0.464739	-1.10048e+06	-1.008594E-9	NaN
1067	1.000000	0.652537	7.37549e+06	-53489.1	1055.82	-29746.1	0.000000	0.000000	6.653030	-0.006411	NaN	0.000000	0.001558	0.001710	28.081	0.019737	0.002122	9.299878	124.488	16.4661	-0.041554	0.651187	-0.454688	-0.456038	-0.006411	9.299878	-0.454171	-781722	8.201460E-9	NaN
1067	1.000000	0.662523	7.37549e+06	-53489.1	1055.82	-29746.1	0.000000	0.000000	6.663012	-0.109236	NaN	0.000000	0.001540	0.001721	28.0813	0.019522	0.002093	9.328470	-50.6887	-167.054	-0.161350	0.661177	-0.444702	-0.446048	-0.109236	9.328470	-0.435919	-432259	2.527102E-7	NaN
1067	1.000000	0.672512	7.37549e+06	-53489.1	1055.82	-29746.1	0.000000	0.000000	6.673006	0.008361	NaN	0.000000	0.001551	0.001712	28.081	0.057582	0.001881	30.6066	-106.881	12.7548	0.013425	0.671147	-0.434713	-0.436078	0.008361	30.6066	-0.434918	-418399	-1.998425E-8	NaN
1067	1.000000	0.682524	7.37549e+06	-53489.1	1055.82	-29746.1	0.000000	0.000000	6.683013	-0.078888	NaN	0.000000	0.001578	0.001708	28.0811	0.071504	0.002078	34.4058	-86.1048	-167.994	-0.046064	0.681245	-0.424702	-0.425980	-0.078888	34.4058	-0.422982	-283591	2.781767E-7	NaN
1067	1.000000	0.692542	7.37549e+06	-53489.1	1055.82	-29746.1	0.000000	0.000000	6.693032	-0.075956	NaN	0.000000	0.001557	0.001730	28.0812	0.032910	0.001891	17.405	-32.0902	11.7053	-0.044516	0.691192	-0.414683	-0.416033	-0.075956	17.405	-0.411410	-194291	3.909391E-7	NaN
1067	1.000000	0.702497	7.37549e+06	-53489.1	1055.82	-29746.1	0.000000	0.000000	6.702989	-0.035912	NaN	0.000000	0.001605	0.001678	28.0814	0.097236	0.002082	46.7033	-85.6176	-167.095	-0.022372	0.701220	-0.404728	-0.406006	-0.035912	46.7033	-0.404151	-153165	2.344657E-7	NaN
1067	1.000000	0.712521	7.37549e+06	-53489.1	1055.82	-29746.1	0.000000	0.000000	6.713013	-0.029614	NaN	0.000000	0.001542	0.001680	28.0811	0.075718	0.001909	39.6672	-3.674291	12.8608	0.039532	0.711189	-0.394704	-0.396036	-0.029614	39.6672	-0.394144	-110258	2.685878E-7	NaN
1067	1.000000	0.722531	7.37549e+06	-53489.1	1055.82	-29746.1	0.000000	0.000000	6.723023	-0.025363	NaN	0.000000	0.001557	0.001727	28.0813	0.103636	0.002132	48.6111	159.329	-167.639	0.004438	0.721242	-0.384694	-0.385983	-0.025363	48.6111	-0.384303	-79724.8	3.181349E-7	NaN
1067	1.000000	0.732507	7.37549e+06	-53489.1	1055.82	-29746.1	0.000000	0.000000	6.732997	-0.082279	NaN	0.000000	0.001566	0.001714	28.0813	0.061906	0.001988	31.1412	-104.165	13.4648	-0.003701	0.731151	-0.374718	-0.376075	-0.082279	31.1412	-0.372736	-54389.4	1.512771E-6	NaN
1067	1.000000	0.742528	7.37549e+06	-53489.1	1055.82	-29746.1	0.000000	0.000000	6.743020	-0.033626	NaN	0.000000	0.001538	0.001728	28.0813	0.058070	0.002138	27.1592	113.536	-166.733	-0.076004	0.741191	-0.364697	-0.366035	-0.033626	27.1592	-0.363769	-40391	8.325108E-7	NaN
1067	1.000000	0.752534	7.37549e+06	-53489.1	1055.82	-29746.1	0.000000	0.000000	6.753026	-0.030760	NaN	0.000000	0.001556	0.001685	28.0812	0.069207	0.001906	36.3129	6.632638	14.9141	-0.026214	0.751225	-0.354691	-0.356001	-0.030760	36.3129	-0.354056	-29229.6	1.052360E-6	NaN
1067	1.000000	0.762575	7.37549e+06	-53489.1	1055.82	-29746.1	0.000000	0.000000	6.763065	-0.092995	NaN	0.000000	0.001542	0.001715	28.0812	0.052907	0.001940	27.2777	145.341	-164.331	-0.127220	0.761230	-0.344650	-0.345995	-0.092995	27.2777	-0.342093	-19590.7	4.746918E-6	NaN
1067	1.000000	0.772577	7.37549e+06	-53489.1	1055.82	-29746.1	0.000000	0.000000	6.773070	-0.005870	NaN	0.000000	0.001557	0.001721	28.0821	0.015878	0.001902	8.346018	131.829	13.8172	-0.003742	0.771207	-0.334648	-0.336018	-0.005870	8.346018	-0.334120	-14987.6	3.916867E-7	NaN
1067	1.000000	0.782556	7.37549e+06	-53489.1	1055.82	-29746.1	0.000000	0.000000	6.783049	0.012409	NaN	0.000000	0.001554	0.001729	28.0825	0.055490	0.002070	26.8036	4.882227	-167.309	-0.095882	0.781214	-0.324669	-0.326011	0.012409	26.8036	-0.325017	-11025.1	-1.125521E-6	NaN
1067	1.000000	0.792598	7.37549e+06	-53489.1	1055.82	-29746.1	0.000000	0.000000	6.793087	-0.099118	NaN	0.000000	0.001531	0.001732	28.0826	0.017811	0.001989	8.952551	49.5672	14.9044	-0.092763	0.791207	-0.314627	-0.316018	-0.099118	8.952551	-0.306323	-5842.38	1.696538E-5	NaN
1067	1.000000	0.802544	7.37549e+06	-53489.1	1055.82	-29746.1	0.000000	0.000000	6.803036	-0.032414	NaN	0.000000	0.001560	0.001738	28.0825	0.063742	0.001901	33.5318	-170.981	-167.354	0.028114	0.801242	-0.304681	-0.305984	-0.032414	33.5318	-0.303956	-5388.36	6.015565E-6	NaN
1067	1.000000	0.812588	7.37549e+06	-53489.1	1055.82	-29746.1	0.000000	0.000000	6.813080	-0.033323	NaN	0.000000	0.001569	0.001682	28.0826	0.059900	0.001969	30.4282	-42.2644	12.788	-0.054579	0.811193	-0.294637	-0.296033	-0.033323	30.4282	-0.293816	-3805.42	8.756844E-6	NaN
1067	1.000000	0.822553	7.37549e+06	-53489.1	1055.82	-29746.1	0.000000	0.000000	6.823046	-0.014950	NaN	0.000000	0.001588	0.001736	28.0825	0.042617	0.001958	21.7628	-106.772	-170.271	-0.016921	0.821295	-0.284672	-0.285931	-0.014950	21.7628	-0.284157	-2726.39	5.483301E-6	NaN
1067	1.000000	0.832565	7.37549e+06	-53489.1	1055.82	-29746.1	0.000000	0.000000	6.833054	-0.107741	NaN	0.000000	0.001554	0.001682	28.0825	0.067676	0.002140	31.617	-7.026747	15.4302	-0.090188	0.831250	-0.274660	-0.275976	-0.107741	31.617	-0.272104	-1792.67	6.010050E-5	NaN
1067	1.000000	0.842586	7.37549e+06	-53489.1	1055.82	-29746.1	0.000000	0.000000	6.843076	-0.078201	NaN	0.000000	0.001551	0.001662	28.0826	0.052587	0.001990	26.4208	90.4817	-167.1	-0.128647	0.841258	-0.264639	-0.265967	-0.078201	26.4208	-0.262420	-1276.33	6.127018E-5	NaN
1067	1.000000	0.852608	7.37549e+06	-53489.1	1055.82	-29746.1	0.000000	0.000000	6.853103	0.038670	NaN	0.000000	0.001578	0.001676	28.0825	0.091591	0.001912	47.9037	-155.873	13.686	0.055421	0.851263	-0.254617	-0.255962	0.038670	47.9037	-0.255223	-989.79	-3.906925E-5	NaN
1067	1.000000	0.862564	7.37549e+06	-53489.1	1055.82	-29746.1	0.000000	0.000000	6.863054	-0.063562	NaN	0.000000	0.001549	0.001665	28.0824	0.071120	0.002014	35.314	20.5615	-167.643	-0.074792	0.861279	-0.244661	-0.245946	-0.063562	35.314	-0.243311	-647.422	9.817684E-5	NaN
1067	1.000000	0.872610	7.37549e+06	-53489.1	1055.82	-29746.1	0.000000	0.000000	6.873105	0.044707	NaN	0.000000	0.001547	0.001691	28.0825	0.021691	0.002114	10.2617	26.3156	16.058	-0.002728	0.871189	-0.234616	-0.236036	0.044707	10.2617	-0.237883	-532.661	-8.393223E-5	NaN
1067	1.000000	0.882608	7.37549e+06	-53489.1	1055.82	-29746.1	0.000000	0.000000	6.883099	-0.047029	NaN	0.000000	0.001526	0.001707	28.0825	0.032312	0.001923	16.7989	41.1265	-165.693	-0.045779	0.881290	-0.224618	-0.225935	-0.047029	16.7989	-0.222518	-304.687	0.000154	NaN
1067	1.000000	0.892614	7.37549e+06	-53489.1	1055.82	-29746.1	0.000000	0.000000	6.893104	-0.060264	NaN	0.000000	0.001564	0.001679	28.0822	0.056020	0.001918	29.2066	64.0534	13.4905	-0.074752	0.891219	-0.214612	-0.216007	-0.060264	29.2066	-0.213064	-214.949	0.000280	NaN
1067	1.000000	0.902600	7.37549e+06	-53489.1	1055.82	-29746.1	0.000000	0.000000	6.903092	-0.026288	NaN	0.000000	0.001562	0.001680	28.0823	0.112393	0.001873	60.0003	-153.819	-166.101	0.039499	0.901248	-0.204626	-0.205977	-0.026288	60.0003	-0.204297	-154.913	0.000170	NaN
1067	1.000000	0.912614	7.37549e+06	-53489.1	1055.82	-29746.1	0.000000	0.000000	6.913108	0.005246	NaN	0.000000	0.001541	0.001681	28.0812	0.064182	0.002001	32.0797	-31.769	10.911	0.011805	0.911263	-0.194611	-0.195963	0.005246	32.0797	-0.194733	-107.842	-4.864729E-5	NaN
1067	1.000000	0.922599	7.37549e+06	-53489.1	1055.82	-29746.1	0.000000	0.000000	6.923088	-0.102638	NaN	0.000000	0.001546	0.001673	28.0813	0.077253	0.002137	36.1572	-74.3742	-165.314	-0.057778	0.921341	-0.184626	-0.185884	-0.102638	36.1572	-0.182497	-67.2735	0.001526	NaN
1067	1.000000	0.932607	7.37549e+06	-53489.1	1055.82	-29746.1	0.000000	0.000000	6.933099	-0.021866	NaN	0.000000	0.001580	0.001698	28.0812	0.116002	0.002183	53.1472	16.278	14.5055	0.006325	0.931221	-0.174619	-0.176004	-0.021866	53.1472	-0.174310	-48.766	0.000448	NaN
1067	1.000000	0.942617	7.37549e+06	-53489.1	1055.82	-29746.1	0.000000	0.000000	6.943110	-0.011537	NaN	0.000000	0.001514	0.001677	28.0812	0.035311	0.002055	17.181	-35.7635	-165.433	-0.063192	0.941300	-0.164608	-0.165926	-0.011537	17.181	-0.164104	-32.4011	0.000356	NaN
1067	1.000000	0.952624	7.37549e+06	-53489.1	1055.82	-29746.1	0.000000	0.000000	6.953116	-0.013770	NaN	0.000000	0.001534	0.001652	28.0813	0.063910	0.001968	32.4797	152.605	15.4187	-0.046252	0.951304	-0.154602	-0.155921	-0.013770	32.4797	-0.154284	-21.6609	0.000636	NaN
1067	1.000000	0.962626	7.37549e+06	-53489.1	1055.82	-29746.1	0.000000	0.000000	6.963119	-0.007303	NaN	0.000000	0.001530	0.001638	28.0813	0.019573	0.002143	9.132292	150.978	-164.392	0.034097	0.961349	-0.144600	-0.145877	-0.007303	9.132292	-0.144000	-14.0487	0.000520	NaN
1067	1.000000	0.972623	7.37549e+06	-53489.1	1055.82	-29746.1	0.000000	0.000000	6.973112	-0.102616	NaN	0.000000	0.001555	0.001709	28.0813	0.188827	0.002106	89.6536	78.9586	13.3837	-0.066402	0.971263	-0.134603	-0.135962	-0.102616	89.6536	-0.133744	-9.000439	0.011401	NaN
1067	1.000000	0.982655	7.37549e+06	-53489.1	1055.82	-29746.1	0.000000	0.000000	6.983146	-0.052693	NaN	0.000000	0.001492	0.001708	28.0812	0.118524	0.001911	62.0075	39.4121	-165.04	-0.059726	0.981337	-0.124570	-0.125888	-0.052693	62.0075	-0.123933	-5.792084	0.009097	NaN
1067	1.000000	0.992640	7.37549e+06	-53489.1	1055.82	-29746.1	0.000000	0.000000	6.993132	-0.019304	NaN	0.000000	0.001530	0.001663	28.0815	0.025819	0.001987	12.9934	-100.945	13.6464	-0.039757	0.991304	-0.114585	-0.115921	-0.019304	12.9934	-0.113471	-3.552090	0.005434	NaN
1067	1.000000	1.002664	7.37549e+06	-53489.1	1055.82	-29746.1	0.000000	0.000000	7.003157	-0.009124	NaN	0.000000	0.001495	0.001681	28.0812	0.095497	0.002069	46.166	-69.8342	-167.271	-0.058965	1.001300	-0.104561	-0.105925	-0.009124	46.166	-0.104413	-2.282819	0.003997	NaN
1067	1.000000	1.012684	7.37549e+06	-53489.1	1055.82	-29746.1	0.000000	0.000000	7.013179	0.024273	NaN	0.000000	0.001560	0.001619	28.0813	0.074746	0.001912	39.0991	83.4249	11.697	0.010215	1.011331	-0.094541	-0.095894	0.024273	39.0991	-0.095006	-1.411111	-0.017202	NaN
1067	1.000000	1.022625	7.37549e+06	-53489.1	1055.82	-29746.1	0.000000	0.000000	7.023118	0.015271	NaN	0.000000	0.001553	0.001653	28.0814	0.054744	0.001902	28.7759	-102.752	-167.393	0.012761	1.021368	-0.084601	-0.085857	0.015271	28.7759	-0.084999	-0.821568	-0.018587	NaN
1067	1.000000	1.032656	7.37549e+06	-53489.1	1055.82	-29746.1	0.000000	0.000000	7.033146	-0.061138	NaN	0.000000	0.001524	0.001681	28.0814	0.070859	0.002116	33.4888	143.38	15.3762	-0.016360	1.031293	-0.074570	-0.075932	-0.061138	33.4888	-0.073200	-0.414640	0.147450	NaN
1067	1.000000	1.042714	7.37549e+06	-53489.1	1055.82	-29746.1	0.000000	0.000000	7.043205	-0.058468	NaN	0.000000	0.001572	0.001648	28.0814	0.154437	0.002005	77.0259	-34.1589	-165.629	-0.063555	1.041396	-0.064511	-0.065829	-0.058468	77.0259	-0.063942	-0.232872	0.251074	NaN
1067	1.000000	1.052687	7.37549e+06	-53489.1	1055.82	-29746.1	0.000000	0.000000	7.053180	0.009459	NaN	0.000000	0.001556	0.001679	28.0824	0.042870	0.002088	20.534	145.559	15.5777	0.004476	1.051300	-0.054538	-0.055925	0.009459	20.534	-0.054884	-0.127763	-0.074036	NaN
1067	1.000000	1.062689	7.37549e+06	-53489.1	1055.82	-29746.1	0.000000	0.000000	7.063183	0.032064	NaN	0.000000	0.001619	0.001652	28.0827	0.082848	0.002041	40.5938	53.62	-165.593	-0.005958	1.061387	-0.044537	-0.045838	0.032064	40.5938	-0.045129	-0.064855	-0.494402	NaN
1067	1.000000	1.072674	7.37549e+06	-53489.1	1055.82	-29746.1	0.000000	0.000000	7.073166	-0.030298	NaN	0.000000	0.001617	0.001638	28.0825	0.074493	0.001935	38.4974	-34.2623	15.6664	0.027951	1.071383	-0.034551	-0.035842	-0.030298	38.4974	-0.033961	-0.029855	1.014831	NaN
1067	1.000000	1.082667	7.37549e+06	-53489.1	1055.82	-29746.1	0.000000	0.000000	7.083160	0.003994	NaN	0.000000	0.001592	0.001647	28.0825	0.035374	0.001983	17.8382	142.601	-165.09	0.017902	1.081351	-0.024558	-0.025875	0.003994	17.8382	-0.024726	-0.016595	-0.240677	NaN
1067	1.000000	1.092678	7.37549e+06	-53489.1	1055.82	-29746.1	0.000000	0.000000	7.093171	-0.003305	NaN	0.000000	0.001605	0.001621	28.0823	0.083600	0.001990	42.0194	-86.2792	12.3053	-0.036784	1.091336	-0.014547	-0.015890	-0.003305	42.0194	-0.014488	-0.008971	0.368402	NaN
1067	1.000000	1.102702	7.37549e+06	-53489.1	1055.82	-29746.1	0.000000	0.000000	7.103193	-0.051280	NaN	0.000000	0.001628	0.001681	28.0827	0.096620	0.001903	50.7817	0.610828	-167.733	-0.025481	1.101400	-0.004523	-0.005825	-0.051280	50.7817	-0.003766	-0.002627	19.5228	NaN
1067	1.000000	1.112631	7.37549e+06	-53489.1	1055.82	-29746.1	0.000000	0.000000	7.113437	7.613669	NaN	0.000000	0.001641	0.001627	28.0823	7.519202	0.001705	4410.42	9.982775	9.445378	5.788531	1.111316	0.005406	0.004091	7.613669	4410.42	0.004111	0.003337	2281.9	69759.6
1067	2.000000	1.116221	7.37549e+06	-53489.1	1055.82	-29746.1	0.000000	0.000000	7.117144	10.4487	NaN	0.000000	0.001548	0.001636	28.0826	11.0887	0.001677	6610.85	7.357067	-174.002	10.3362	1.115948	0.008996	0.008723	10.4487	6610.85	0.007810	0.006848	1525.79	72987.3
1067	2.000000	1.118681	7.37549e+06	-53489.1	1055.82	-29746.1	0.000000	0.000000	7.119727	13.4481	NaN	0.000000	0.001576	0.001601	28.0826	13.1699	0.001636	8049.6	4.147994	8.686437	11.7787	1.118346	0.011456	0.011121	13.4481	8049.6	0.010203	0.009408	1429.5	75824.5
1067	2.000000	1.121161	7.37549e+06	-53489.1	1055.82	-29746.1	0.000000	0.000000	7.122334	16.5274	NaN	0.000000	0.001593	0.001628	28.0826	15.8413	0.001680	9426.98	4.154854	-175.871	14.8245	1.120891	0.013936	0.013666	16.5274	9426.98	0.012621	0.012243	1349.98	77840.6
1067	2.000000	1.123667	7.37549e+06	-53489.1	1055.82	-29746.1	0.000000	0.000000	7.125091	22.6336	NaN	0.000000	0.001564	0.001667	28.0824	19.1863	0.001751	10958.9	5.855619	1.599631	20.9629	1.123332	0.016442	0.016107	22.6336	10958.9	0.014893	0.015143	1494.7	81365.1
1067	2.000000	1.126144	7.37549e+06	-53489.1	1055.82	-29746.1	0.000000	0.000000	7.127685	25.4553	NaN	0.000000	0.001570	0.001654	28.0826	22.3042	0.001781	12526.1	9.704294	177.962	24.2949	1.125860	0.018919	0.018635	25.4553	12526.1	0.017395	0.018613	1367.6	83884.1
1067	2.000000	1.128671	7.37549e+06	-53489.1	1055.82	-29746.1	0.000000	0.000000	7.130484	32.0719	NaN	0.000000	0.001537	0.001687	28.0828	23.5729	0.001748	13488.2	6.270140	2.428915	31.4312	1.128252	0.021446	0.021027	32.0719	13488.2	0.019663	0.022015	1456.82	83055.6
1067	2.000000	1.131102	7.37549e+06	-53489.1	1055.82	-29746.1	0.000000	0.000000	7.133175	38.3989	NaN	0.000000	0.001541	0.001680	28.0817	26.9423	0.001892	14242.9	3.836881	-177.032	37.3888	1.130806	0.023877	0.023581	38.3989	14242.9	0.021855	0.025542	1503.38	81423
1067	2.000000	1.133661	7.37549e+06	-53489.1	1055.82	-29746.1	0.000000	0.000000	7.135991	44.6706	NaN	0.000000	0.001543	0.001642	28.0811	29.1878	0.001738	16798.2	3.450810	1.458381	44.816	1.133325	0.026436	0.026099	44.6706	16798.2	0.024441	0.030007	1488.68	88598.6
1067	2.000000	1.136144	7.37549e+06	-53489.1	1055.82	-29746.1	0.000000	0.000000	7.138742	51.1798	NaN	0.000000	0.001568	0.001665	28.0815	32.9648	0.001933	17050	7.061888	177.13	50.4091	1.135853	0.028919	0.028628	51.1798	17050	0.026667	0.034119	1500.04	84333.5
1067	2.000000	1.138692	7.37549e+06	-53489.1	1055.82	-29746.1	0.000000	0.000000	7.141665	60.2952	NaN	0.000000	0.001548	0.001677	28.0813	34.824	0.001847	18856	8.978581	-4.845633	60.781	1.138238	0.031467	0.031013	60.2952	18856	0.029068	0.038835	1552.61	87420.4
1067	2.000000	1.141098	7.37549e+06	-53489.1	1055.82	-29746.1	0.000000	0.000000	7.144319	66.3075	NaN	0.000000	0.001552	0.001627	28.0814	37.1432	0.001794	20708.4	4.450761	178.348	64.592	1.140873	0.033873	0.033648	66.3075	20708.4	0.031472	0.043849	1512.17	90352.3
1067	2.000000	1.143650	7.37549e+06	-53489.1	1055.82	-29746.1	0.000000	0.000000	7.147141	72.884	NaN	0.000000	0.001547	0.001622	28.0811	40.895	0.001887	21666.8	8.555323	-5.938636	74.4386	1.143244	0.036425	0.036019	72.884	21666.8	0.033902	0.049220	1480.8	89227.8
1067	2.000000	1.146091	7.37549e+06	-53489.1	1055.82	-29746.1	0.000000	0.000000	7.150033	83.8592	NaN	0.000000	0.001546	0.001650	28.0815	42.2657	0.001875	22539.5	1.110703	-178.295	81.9678	1.145824	0.038866	0.038599	83.8592	22539.5	0.036075	0.054279	1544.96	88389.4
1067	2.000000	1.148648	7.37549e+06	-53489.1	1055.82	-29746.1	0.000000	0.000000	7.152995	93.7092	NaN	0.000000	0.001536	0.001697	28.0811	44.5886	0.001817	24546	5.860847	-4.072531	92.2959	1.148230	0.041422	0.041005	93.7092	24546	0.038559	0.060358	1552.57	91282.4
1067	2.000000	1.151090	7.37549e+06	-53489.1	1055.82	-29746.1	0.000000	0.000000	7.155782	102.096	NaN	0.000000	0.001534	0.001690	28.0817	47.5503	0.001893	25118.7	4.178629	176.98	100.587	1.150747	0.043864	0.043522	102.096	25118.7	0.040816	0.066154	1543.31	89226.3
1067	2.000000	1.153601	7.37549e+06	-53489.1	1055.82	-29746.1	0.000000	0.000000	7.158609	109.757	NaN	0.000000	0.001550	0.001662	28.0812	49.0178	0.001801	27223.5	4.076776	-3.959570	107.042	1.153227	0.046376	0.046002	109.757	27223.5	0.043352	0.072978	1503.97	92070.7
1067	2.000000	1.156051	7.37549e+06	-53489.1	1055.82	-29746.1	0.000000	0.000000	7.161352	116.875	NaN	0.000000	0.001526	0.001654	28.0817	50.8017	0.001712	29670.6	0.296823	178.81	114.103	1.155940	0.048826	0.048715	116.875	29670.6	0.045872	0.080081	1459.45	95792.9
1067	2.000000	1.158584	7.37549e+06	-53489.1	1055.82	-29746.1	0.000000	0.000000	7.164612	134.566	NaN	0.000000	0.001517	0.001625	28.0811	52.5109	0.001733	30298.7	3.987239	-4.041767	130.741	1.158221	0.051359	0.050996	134.566	30298.7	0.048028	0.086416	1557.19	94167.4
1067	2.000000	1.161089	7.37549e+06	-53489.1	1055.82	-29746.1	0.000000	0.000000	7.167426	142.068	NaN	0.000000	0.001527	0.001665	28.0816	56.59	0.001848	30619.8	4.216436	175.484	140.881	1.160818	0.053864	0.053593	142.068	30619.8	0.050384	0.093604	1517.75	91438.2
1067	2.000000	1.163607	7.37549e+06	-53489.1	1055.82	-29746.1	0.000000	0.000000	7.170405	153.275	NaN	0.000000	0.001516	0.001726	28.081	57.3406	0.001772	32362.6	-1.411137	0.093829	153.829	1.163456	0.056382	0.056231	153.275	32362.6	0.052830	0.101360	1512.18	92871.7
1067	2.000000	1.166063	7.37549e+06	-53489.1	1055.82	-29746.1	0.000000	0.000000	7.173460	167.857	NaN	0.000000	0.001512	0.001645	28.0829	61.0813	0.001911	31958.8	2.782726	176.643	165.803	1.165742	0.058838	0.058517	167.857	31958.8	0.054899	0.108154	1552.02	88785.8
1067	2.000000	1.168581	7.37549e+06	-53489.1	1055.82	-29746.1	0.000000	0.000000	7.176562	182.053	NaN	0.000000	0.001541	0.001672	28.0824	62.7655	0.001762	35624.4	3.848254	-5.758140	177.599	1.168198	0.061356	0.060972	182.053	35624.4	0.057523	0.117077	1554.99	95122.9
1067	2.000000	1.171067	7.37549e+06	-53489.1	1055.82	-29746.1	0.000000	0.000000	7.179313	188.484	NaN	0.000000	0.001523	0.001710	28.0828	65.2014	0.001755	37148	5.060596	172.761	188.239	1.170729	0.063842	0.063504	188.484	37148	0.060036	0.125938	1496.64	95637.8
1067	2.000000	1.173518	7.37549e+06	-53489.1	1055.82	-29746.1	0.000000	0.000000	7.182360	202.992	NaN	0.000000	0.001541	0.001670	28.0826	68.1538	0.001786	38165.4	7.457154	-8.768877	196.636	1.173106	0.066292	0.065881	202.992	38165.4	0.062303	0.134197	1512.64	95185.8
1067	2.000000	1.176027	7.37549e+06	-53489.1	1055.82	-29746.1	0.000000	0.000000	7.185530	219.053	NaN	0.000000	0.001555	0.001676	28.083	70.3201	0.001756	40049.8	1.637987	176.028	214.909	1.175829	0.068802	0.068604	219.053	40049.8	0.064699	0.143197	1529.73	96695.5
1067	2.000000	1.178511	7.37549e+06	-53489.1	1055.82	-29746.1	0.000000	0.000000	7.188695	235.6	NaN	0.000000	0.001546	0.001697	28.0823	71.996	0.001849	38942.5	5.129039	-6.323550	228.697	1.178097	0.071286	0.070872	235.6	38942.5	0.066748	0.151112	1559.1	91526.5
1067	2.000000	1.180999	7.37549e+06	-53489.1	1055.82	-29746.1	0.000000	0.000000	7.191714	248.526	NaN	0.000000	0.001519	0.001688	28.0826	75.2058	0.001858	40475.4	4.969798	172.578	243.46	1.180764	0.073774	0.073538	248.526	40475.4	0.069169	0.160722	1546.31	92241.5
1067	2.000000	1.183502	7.37549e+06	-53489.1	1055.82	-29746.1	0.000000	0.000000	7.194896	265.03	NaN	0.000000	0.001529	0.001691	28.0825	77.2656	0.001854	41665.8	7.083981	-9.650574	260.821	1.183227	0.076277	0.076002	265.03	41665.8	0.071506	0.170269	1556.53	92253.9
1067	2.000000	1.186048	7.37549e+06	-53489.1	1055.82	-29746.1	0.000000	0.000000	7.198154	282.329	NaN	0.000000	0.001506	0.001651	28.0827	79.4962	0.001855	42847.2	4.298573	173.167	282.012	1.185685	0.078823	0.078460	282.329	42847.2	0.073881	0.180234	1566.46	92209.9
1067	2.000000	1.188640	7.37549e+06	-53489.1	1055.82	-29746.1	0.000000	0.000000	7.201423	298.811	NaN	0.000000	0.001493	0.001628	28.0824	81.5208	0.001911	42649.7	7.956186	-9.079928	300.155	1.188034	0.081414	0.080809	298.811	42649.7	0.076160	0.190043	1572.33	89384.6
1067	2.000000	1.191008	7.37549e+06	-53489.1	1055.82	-29746.1	0.000000	0.000000	7.204263	310.268	NaN	0.000000	0.001478	0.001679	28.0824	82.4874	0.001752	47078.8	4.122859	172.482	306.313	1.190752	0.083783	0.083527	310.268	47078.8	0.078840	0.201895	1536.78	95727.3
1067	2.000000	1.193516	7.37549e+06	-53489.1	1055.82	-29746.1	0.000000	0.000000	7.207550	329.207	NaN	0.000000	0.001499	0.001654	28.0825	85.7446	0.001780	48162.2	3.040790	-7.013938	325.712	1.193245	0.086291	0.086019	329.207	48162.2	0.081165	0.212446	1549.6	95467.4
1067	2.000000	1.196014	7.37549e+06	-53489.1	1055.82	-29746.1	0.000000	0.000000	7.210707	345.236	NaN	0.000000	0.001509	0.001670	28.0825	89.2175	0.001854	48113.6	4.090233	172.738	343.24	1.195728	0.088789	0.088503	345.236	48113.6	0.083407	0.222862	1549.1	93115.8
1067	2.000000	1.198482	7.37549e+06	-53489.1	1055.82	-29746.1	0.000000	0.000000	7.214059	366.725	NaN	0.000000	0.001525	0.001653	28.0823	89.6202	0.001806	49637.3	4.439584	-7.079642	360.127	1.198047	0.091257	0.090822	366.725	49637.3	0.085716	0.233828	1568.36	93785
1067	2.000000	1.201086	7.37549e+06	-53489.1	1055.82	-29746.1	0.000000	0.000000	7.216743	368.651	NaN	0.000000	0.001504	0.001688	28.0811	91.4921	0.001694	53999	0.723467	174.417	367.551	1.200951	0.093861	0.093726	368.651	53999	0.088741	0.248570	1483.09	98954.4
1067	2.000000	1.203461	7.37549e+06	-53489.1	1055.82	-29746.1	0.000000	0.000000	7.220094	392.398	NaN	0.000000	0.001538	0.001676	28.0812	95.5549	0.001774	53856.6	3.479685	-7.956845	385.822	1.203152	0.096236	0.095927	392.398	53856.6	0.090771	0.258699	1516.81	96741.8
1067	2.000000	1.206025	7.37549e+06	-53489.1	1055.82	-29746.1	0.000000	0.000000	7.223620	415.789	NaN	0.000000	0.001561	0.001670	28.0812	98.156	0.001815	54074.3	3.887577	172.039	413.274	1.205598	0.098800	0.098372	415.789	54074.3	0.093033	0.270205	1538.79	95042.3
1067	2.000000	1.208447	7.37549e+06	-53489.1	1055.82	-29746.1	0.000000	0.000000	7.226866	435.824	NaN	0.000000	0.001497	0.001679	28.0811	100.373	0.001811	55425.1	8.329835	-12.2593	427.372	1.208076	0.101222	0.100851	435.824	55425.1	0.095324	0.282101	1544.92	95340.4
1067	2.000000	1.211033	7.37549e+06	-53489.1	1055.82	-29746.1	0.000000	0.000000	7.230076	450.996	NaN	0.000000	0.001523	0.001652	28.0815	102.627	0.001845	55611.1	7.374200	168.316	453.003	1.210796	0.103808	0.103570	450.996	55611.1	0.097726	0.294827	1529.7	93573.1
1067	2.000000	1.212520	7.37549e+06	-53489.1	1055.82	-29746.1	0.000000	0.000000	7.232206	466.621	NaN	0.000000	0.001542	0.001723	28.0813	102.866	0.001741	59078.2	4.120131	-8.835127	462.542	1.212161	0.105295	0.104935	466.621	59078.2	0.099371	0.303695	1536.48	97944.9