File: remote_trans/data/nanoindenter/0828-1/data/Data_2025-08-06,11h17m57s/2025-07-22_16-23-58_1_1083.txt
2025-07-22, 16:23:58, 1
Index	Phase	Displacement	Time	Pos X	Pos Y	Pos Z	Rot A	Rot B	Piezo Z	Force A	Force B	Gripper	Voltage A	Voltage B	Temperature	Amplitude force	Amplitude pos	Stiffness	Phase shift	Phase excitation	Force A raw	Displacement raw	HMax	HMax raw	Real Force	Real Stiffness	Contact Depth	Area	Hardness	Reduced Mod.
[#]	[#]	[um]	[s]	[um]	[um]	[um]	[m°]	[m°]	[um]	[uN]	[uN]	[V]	[V]	[V]	[°C]	[uN]	[um]	[N/m]	[°]	[°]	[uN]	[um]	[um]	[um]	[uN]	[N/m]	[um]	[um^2]	[MPa]	[MPa]
1083	1.000000	0.002295	7.37564e+06	-54289.1	1055.82	-29743.4	0.000000	0.000000	6.002778	0.016151	NaN	0.000000	0.001580	0.001671	28.0808	0.038970	0.000927	42.0524	-16.2986	-167.607	0.041677	0.001048	-1.711778	-1.713025	0.016151	42.0524	-1.712066	-7.357290E+22	-2.195303E-25	NaN
1083	1.000000	0.014360	7.37564e+06	-54289.1	1055.82	-29743.4	0.000000	0.000000	6.014843	0.022495	NaN	0.000000	0.001603	0.001673	28.0808	0.040071	0.001689	23.718	-46.4971	-160.445	0.028622	0.013162	-1.699713	-1.700911	0.022495	23.718	-1.700424	-5.153134E+22	-4.365257E-25	NaN
1083	1.000000	0.026272	7.37564e+06	-54289.1	1055.82	-29743.4	0.000000	0.000000	6.026754	0.011842	NaN	0.000000	0.001563	0.001690	28.0806	0.021418	0.001884	11.3663	-178.047	-166.469	-0.005842	0.024923	-1.687801	-1.689150	0.011842	11.3663	-1.688583	-3.587208E+22	-3.301116E-25	NaN
1083	1.000000	0.038286	7.37564e+06	-54289.1	1055.82	-29743.4	0.000000	0.000000	6.038767	-0.019886	NaN	0.000000	0.001567	0.001691	28.0807	0.042042	0.001780	23.6124	-48.8511	-163.719	0.011202	0.036937	-1.675787	-1.677136	-0.019886	23.6124	-1.675156	-2.378776E+22	8.359835E-25	NaN
1083	1.000000	0.050279	7.37564e+06	-54289.1	1055.82	-29743.4	0.000000	0.000000	6.050762	0.025590	NaN	0.000000	0.001566	0.001710	28.0811	0.042311	0.001949	21.7078	-177.965	-164.448	0.054628	0.048945	-1.663795	-1.665128	0.025590	21.7078	-1.664679	-1.726328E+22	-1.482313E-24	NaN
1083	1.000000	0.062295	7.37564e+06	-54289.1	1055.82	-29743.3	0.000000	0.000000	6.062779	0.043838	NaN	0.000000	0.001573	0.001693	28.0808	0.018414	0.002064	8.923491	9.673306	-168.737	0.066851	0.060916	-1.651778	-1.653157	0.043838	8.923491	-1.655462	-1.302066E+22	-3.366836E-24	NaN
1083	1.000000	0.074286	7.37564e+06	-54289.1	1055.82	-29743.3	0.000000	0.000000	6.074765	-0.075413	NaN	0.000000	0.001599	0.001714	28.0817	0.057734	0.002091	27.6096	-61.1572	-166.092	-0.110223	0.072999	-1.639788	-1.641074	-0.075413	27.6096	-1.637739	-7.569112E+21	9.963315E-24	NaN
1083	1.000000	0.086295	7.37564e+06	-54289.1	1055.82	-29743.3	0.000000	0.000000	6.086777	-0.002709	NaN	0.000000	0.001599	0.001656	28.0821	0.054728	0.001922	28.4733	-9.669702	-167.931	-0.062186	0.084986	-1.627778	-1.629087	-0.002709	28.4733	-1.627707	-5.567620E+21	4.865430E-25	NaN
1083	1.000000	0.098301	7.37564e+06	-54289.1	1055.82	-29743.3	0.000000	0.000000	6.098781	-0.036007	NaN	0.000000	0.001619	0.001681	28.0821	0.077343	0.002080	37.1915	70.2172	-163.323	0.051798	0.096991	-1.615773	-1.617083	-0.036007	37.1915	-1.615046	-3.778570E+21	9.529165E-24	NaN
1083	1.000000	0.110290	7.37564e+06	-54289.1	1055.82	-29743.3	0.000000	0.000000	6.110773	0.026451	NaN	0.000000	0.001556	0.001672	28.0823	0.071760	0.002023	35.4805	-51.3142	-165.25	0.032456	0.108973	-1.603783	-1.605100	0.026451	35.4805	-1.604342	-2.722529E+21	-9.715697E-24	NaN
1083	1.000000	0.122301	7.37564e+06	-54289.1	1055.82	-29743.3	0.000000	0.000000	6.122785	0.055139	NaN	0.000000	0.001562	0.001665	28.0821	0.042761	0.002042	20.9437	26.7671	-165.544	0.034837	0.121007	-1.591772	-1.593066	0.055139	20.9437	-1.593747	-1.968108E+21	-2.801633E-23	NaN
1083	1.000000	0.134318	7.37564e+06	-54289.1	1055.82	-29743.3	0.000000	0.000000	6.134797	-0.060372	NaN	0.000000	0.001560	0.001688	28.0819	0.040241	0.002009	20.0315	-71.3681	-168.483	-0.003971	0.132955	-1.579755	-1.581119	-0.060372	20.0315	-1.577495	-1.196350E+21	5.046327E-23	NaN
1083	1.000000	0.146294	7.37564e+06	-54289.1	1055.82	-29743.3	0.000000	0.000000	6.146776	-0.003219	NaN	0.000000	0.001574	0.001692	28.0821	0.016190	0.001985	8.154514	-79.1776	-165.71	0.023795	0.144975	-1.567779	-1.569098	-0.003219	8.154514	-1.567483	-8.803427E+20	3.656631E-24	NaN
1083	1.000000	0.158302	7.37564e+06	-54289.1	1055.82	-29743.3	0.000000	0.000000	6.158783	-0.030266	NaN	0.000000	0.001563	0.001711	28.0823	0.033851	0.002031	16.6685	-95.8289	-161.101	-0.064891	0.156959	-1.555771	-1.557114	-0.030266	16.6685	-1.554410	-5.897669E+20	5.131779E-23	NaN
1083	1.000000	0.170311	7.37564e+06	-54289.1	1055.82	-29743.3	0.000000	0.000000	6.170793	-0.008183	NaN	0.000000	0.001569	0.001674	28.0819	0.066752	0.001946	34.3	178.621	-165.505	0.002620	0.169004	-1.543762	-1.545069	-0.008183	34.3	-1.543583	-4.232448E+20	1.933382E-23	NaN
1083	1.000000	0.182321	7.37564e+06	-54289.1	1055.82	-29743.3	0.000000	0.000000	6.182804	0.020735	NaN	0.000000	0.001579	0.001679	28.0816	0.074622	0.001945	38.3625	-123.643	-162.913	0.020336	0.181045	-1.531752	-1.533028	0.020735	38.3625	-1.532157	-2.981944E+20	-6.953474E-23	NaN
1083	1.000000	0.194323	7.37564e+06	-54289.1	1055.82	-29743.3	0.000000	0.000000	6.194807	0.044985	NaN	0.000000	0.001603	0.001690	28.0818	0.026620	0.002080	12.797	120.179	-168.659	0.045775	0.193031	-1.519751	-1.521042	0.044985	12.797	-1.522387	-2.210156E+20	-2.035364E-22	NaN
1083	1.000000	0.206304	7.37564e+06	-54289.1	1055.82	-29743.3	0.000000	0.000000	6.206786	0.002628	NaN	0.000000	0.001563	0.001713	28.0809	0.039122	0.002078	18.8266	116.352	-162.351	-0.045021	0.205020	-1.507769	-1.509053	0.002628	18.8266	-1.507874	-1.416369E+20	-1.855637E-23	NaN
1083	1.000000	0.218330	7.37564e+06	-54289.1	1055.82	-29743.3	0.000000	0.000000	6.218812	0.006327	NaN	0.000000	0.001616	0.001726	28.0817	0.037661	0.001896	19.8616	12.237	-166.225	0.056621	0.216998	-1.495743	-1.497075	0.006327	19.8616	-1.495982	-9.835509E+19	-6.432363E-23	NaN
1083	1.000000	0.230328	7.37564e+06	-54289.1	1055.82	-29743.3	0.000000	0.000000	6.230809	-0.011401	NaN	0.000000	0.001569	0.001717	28.0806	0.068528	0.002053	33.3767	13.1903	-167.48	-0.039646	0.229046	-1.483745	-1.485027	-0.011401	33.3767	-1.483489	-6.704851E+19	1.700352E-22	NaN
1083	1.000000	0.242371	7.37564e+06	-54289.1	1055.82	-29743.3	0.000000	0.000000	6.242857	0.095058	NaN	0.000000	0.001580	0.001676	28.0806	0.084636	0.001973	42.8987	170.524	-164.734	0.079707	0.241020	-1.471702	-1.473054	0.095058	42.8987	-1.473364	-4.914636E+19	-1.934176E-21	NaN
1083	1.000000	0.254339	7.37564e+06	-54289.1	1055.82	-29743.3	0.000000	0.000000	6.254821	-0.002673	NaN	0.000000	0.001604	0.001660	28.0803	0.074397	0.001902	39.1207	-30.9272	-167.951	-0.009664	0.253059	-1.459735	-1.461014	-0.002673	39.1207	-1.459683	-3.229987E+19	8.276081E-23	NaN
1083	1.000000	0.266380	7.37564e+06	-54289.1	1055.82	-29743.3	0.000000	0.000000	6.266863	0.024896	NaN	0.000000	0.001589	0.001695	28.0804	0.065064	0.002054	31.6727	-72.4765	-165.173	0.056984	0.265047	-1.447693	-1.449027	0.024896	31.6727	-1.448282	-2.276436E+19	-1.093641E-21	NaN
1083	1.000000	0.278368	7.37564e+06	-54289.1	1055.82	-29743.3	0.000000	0.000000	6.278850	0.001106	NaN	0.000000	0.001594	0.001665	28.0804	0.033911	0.002195	15.4506	174.89	-161.884	-0.017999	0.277052	-1.435705	-1.437022	0.001106	15.4506	-1.435759	-1.549940E+19	-7.136889E-23	NaN
1083	1.000000	0.290363	7.37564e+06	-54289.1	1055.82	-29743.3	0.000000	0.000000	6.290845	0.002673	NaN	0.000000	0.001597	0.001710	28.0804	0.043739	0.001947	22.4634	-101.163	-164.391	0.051728	0.289049	-1.423710	-1.425024	0.002673	22.4634	-1.423799	-1.073653E+19	-2.489764E-22	NaN
1083	1.000000	0.302374	7.37564e+06	-54289.1	1055.82	-29743.3	0.000000	0.000000	6.302856	0.003405	NaN	0.000000	0.001608	0.001648	28.081	0.121893	0.001968	61.9295	-75.8915	-166.6	-0.023218	0.301069	-1.411699	-1.413004	0.003405	61.9295	-1.411741	-7.414119E+18	-4.592800E-22	NaN
1083	1.000000	0.314387	7.37564e+06	-54289.1	1055.82	-29743.3	0.000000	0.000000	6.314870	0.012157	NaN	0.000000	0.001604	0.001673	28.0806	0.047178	0.002111	22.3449	127.844	-166.176	-0.059606	0.313099	-1.399686	-1.400974	0.012157	22.3449	-1.400094	-5.184686E+18	-2.344860E-21	NaN
1083	1.000000	0.326373	7.37564e+06	-54289.1	1055.82	-29743.3	0.000000	0.000000	6.326857	0.043722	NaN	0.000000	0.001645	0.001704	28.0805	0.147089	0.001977	74.4094	-11.183	-163.939	0.112531	0.325104	-1.387700	-1.388969	0.043722	74.4094	-1.388141	-3.591348E+18	-1.217429E-20	NaN
1083	1.000000	0.338377	7.37564e+06	-54289.1	1055.82	-29743.3	0.000000	0.000000	6.338860	0.037953	NaN	0.000000	0.001599	0.001689	28.0805	0.093030	0.002025	45.9362	-9.153715	-164.437	-0.048892	0.337077	-1.375697	-1.376996	0.037953	45.9362	-1.376316	-2.497375E+18	-1.519728E-20	NaN
1083	1.000000	0.350381	7.37564e+06	-54289.1	1055.82	-29743.3	0.000000	0.000000	6.350866	0.070571	NaN	0.000000	0.001619	0.001713	28.0818	0.083166	0.001922	43.2664	-76.3158	-164.184	0.127471	0.349122	-1.363692	-1.364951	0.070571	43.2664	-1.364915	-1.759270E+18	-4.011390E-20	NaN
1083	1.000000	0.362370	7.37564e+06	-54289.1	1055.82	-29743.3	0.000000	0.000000	6.362855	0.076493	NaN	0.000000	0.001605	0.001654	28.0818	0.147022	0.002003	73.4045	-20.6188	-166.263	0.042823	0.361065	-1.351703	-1.353009	0.076493	73.4045	-1.352485	-1.200605E+18	-6.371241E-20	NaN
1083	1.000000	0.374425	7.37564e+06	-54289.1	1055.82	-29743.3	0.000000	0.000000	6.374907	0.004262	NaN	0.000000	0.001559	0.001673	28.0819	0.083117	0.002094	39.7023	-86.8109	-163.009	-0.024701	0.373117	-1.339649	-1.340956	0.004262	39.7023	-1.339729	-8.111361E+17	-5.254190E-21	NaN
1083	1.000000	0.386389	7.37564e+06	-54289.1	1055.82	-29743.3	0.000000	0.000000	6.386871	-0.007330	NaN	0.000000	0.001592	0.001677	28.082	0.062119	0.002008	30.9283	-0.380898	-164.591	0.015689	0.385126	-1.327684	-1.328947	-0.007330	30.9283	-1.327506	-5.570117E+17	1.316001E-20	NaN
1083	1.000000	0.398412	7.37564e+06	-54289.1	1055.82	-29743.3	0.000000	0.000000	6.398895	0.026516	NaN	0.000000	0.001558	0.001683	28.0821	0.078729	0.001942	40.5411	-48.1197	-165.286	0.088067	0.397110	-1.315662	-1.316963	0.026516	40.5411	-1.316152	-3.928285E+17	-6.750091E-20	NaN
1083	1.000000	0.410420	7.37565e+06	-54289.1	1055.82	-29743.3	0.000000	0.000000	6.410904	0.030401	NaN	0.000000	0.001572	0.001673	28.0819	0.038913	0.002086	18.6575	-162.325	-164.452	0.114410	0.409139	-1.303653	-1.304934	0.030401	18.6575	-1.304875	-2.776741E+17	-1.094830E-19	NaN
1083	1.000000	0.422440	7.37565e+06	-54289.1	1055.82	-29743.3	0.000000	0.000000	6.422922	-0.005935	NaN	0.000000	0.001636	0.001673	28.0822	0.082483	0.001941	42.4853	-107.685	-165.643	0.051818	0.421127	-1.291633	-1.292946	-0.005935	42.4853	-1.291529	-1.841552E+17	3.223082E-20	NaN
1083	1.000000	0.434429	7.37565e+06	-54289.1	1055.82	-29743.3	0.000000	0.000000	6.434910	-0.029863	NaN	0.000000	0.001621	0.001725	28.0819	0.038464	0.002090	18.4036	-74.5632	-166.773	-0.010461	0.433113	-1.279644	-1.280961	-0.029863	18.4036	-1.278427	-1.230433E+17	2.426997E-19	NaN
1083	1.000000	0.446405	7.37565e+06	-54289.1	1055.82	-29743.3	0.000000	0.000000	6.446890	0.073717	NaN	0.000000	0.001621	0.001709	28.0818	0.062164	0.001979	31.4168	-131.729	-166.582	0.045200	0.445098	-1.267668	-1.268976	0.073717	31.4168	-1.269428	-9.326926E+16	-7.903632E-19	NaN
1083	1.000000	0.458416	7.37565e+06	-54289.1	1055.82	-29743.3	0.000000	0.000000	6.458900	0.042624	NaN	0.000000	0.001607	0.001698	28.0819	0.095020	0.002006	47.3704	-131.104	-167.415	-0.091737	0.457106	-1.255657	-1.256967	0.042624	47.3704	-1.256332	-6.231745E+16	-6.839769E-19	NaN
1083	1.000000	0.470468	7.37565e+06	-54289.1	1055.82	-29743.3	0.000000	0.000000	6.470952	0.048137	NaN	0.000000	0.001548	0.001691	28.0817	0.043524	0.001942	22.417	-144.817	-165.946	0.027127	0.469097	-1.243606	-1.244976	0.048137	22.417	-1.245216	-4.425135E+16	-1.087817E-18	NaN
1083	1.000000	0.482438	7.37565e+06	-54289.1	1055.82	-29743.3	0.000000	0.000000	6.482920	0.011471	NaN	0.000000	0.001599	0.001670	28.0806	0.027716	0.002047	13.5366	-148.507	-166.063	-0.034981	0.481131	-1.231635	-1.232942	0.011471	13.5366	-1.232271	-2.969795E+16	-3.862447E-19	NaN
1083	1.000000	0.494463	7.37565e+06	-54289.1	1055.82	-29743.3	0.000000	0.000000	6.494947	0.047646	NaN	0.000000	0.001566	0.001696	28.081	0.154232	0.002043	75.49	79.2917	-164.507	0.088506	0.493111	-1.219610	-1.220963	0.047646	75.49	-1.220083	-2.039953E+16	-2.335645E-18	NaN
1083	1.000000	0.506449	7.37565e+06	-54289.1	1055.82	-29743.3	0.000000	0.000000	6.506932	0.009475	NaN	0.000000	0.001617	0.001721	28.0805	0.121800	0.002045	59.5585	-108.865	-160.832	0.171121	0.505105	-1.207624	-1.208968	0.009475	59.5585	-1.207743	-1.394524E+16	-6.794118E-19	NaN
1083	1.000000	0.518477	7.37565e+06	-54289.1	1055.82	-29743.3	0.000000	0.000000	6.518958	-0.029571	NaN	0.000000	0.001651	0.001685	28.0805	0.038098	0.001909	19.9621	-48.7585	-166.063	-0.056493	0.517093	-1.195596	-1.196981	-0.029571	19.9621	-1.194485	-9.266052E+15	3.191319E-18	NaN
1083	1.000000	0.530469	7.37565e+06	-54289.1	1055.82	-29743.3	0.000000	0.000000	6.530950	-0.015322	NaN	0.000000	0.001597	0.001722	28.0807	0.069539	0.002015	34.5161	17.0575	-166.591	0.007539	0.529129	-1.183605	-1.184944	-0.015322	34.5161	-1.183272	-6.556935E+15	2.336806E-18	NaN
1083	1.000000	0.542468	7.37565e+06	-54289.1	1055.82	-29743.3	0.000000	0.000000	6.542955	0.118946	NaN	0.000000	0.001613	0.001736	28.0805	0.142832	0.001907	74.904	-165.722	-166.315	-0.035691	0.541168	-1.171605	-1.172905	0.118946	74.904	-1.172796	-4.746320E+15	-2.506060E-17	NaN
1083	1.000000	0.554463	7.37565e+06	-54289.1	1055.82	-29743.3	0.000000	0.000000	6.554946	0.014175	NaN	0.000000	0.001606	0.001745	28.0804	0.078408	0.001891	41.4722	-21.7346	-164.911	0.037483	0.553158	-1.159610	-1.160915	0.014175	41.4722	-1.159866	-3.184738E+15	-4.450835E-18	NaN
1083	1.000000	0.566477	7.37565e+06	-54289.1	1055.82	-29743.3	0.000000	0.000000	6.566959	0.005946	NaN	0.000000	0.001569	0.001743	28.0807	0.055709	0.001973	28.239	-74.0823	-168.219	0.019872	0.565149	-1.147597	-1.148924	0.005946	28.239	-1.147754	-2.191363E+15	-2.713181E-18	NaN
1083	1.000000	0.578509	7.37565e+06	-54289.1	1055.82	-29743.3	0.000000	0.000000	6.578991	0.000514	NaN	0.000000	0.001594	0.001692	28.0808	0.132950	0.002034	65.376	-133.475	-165.196	-0.013562	0.577201	-1.135564	-1.136872	0.000514	65.376	-1.135570	-1.504293E+15	-3.417649E-19	NaN
1083	1.000000	0.590479	7.37565e+06	-54289.1	1055.82	-29743.3	0.000000	0.000000	6.590964	0.071193	NaN	0.000000	0.001575	0.001735	28.0809	0.081396	0.002027	40.1496	120.126	-167.034	0.103751	0.589236	-1.123594	-1.124837	0.071193	40.1496	-1.124924	-1.082756E+15	-6.575178E-17	NaN
1083	1.000000	0.602489	7.37565e+06	-54289.1	1055.82	-29743.3	0.000000	0.000000	6.602973	0.051202	NaN	0.000000	0.001548	0.001719	28.0808	0.031749	0.001944	16.3314	-1.948569	-163.492	0.072902	0.601189	-1.111584	-1.112884	0.051202	16.3314	-1.113936	-7.710819E+14	-6.640232E-17	NaN
1083	1.000000	0.614528	7.37565e+06	-54289.1	1055.82	-29743.3	0.000000	0.000000	6.615012	0.050731	NaN	0.000000	0.001533	0.001743	28.0815	0.011510	0.001917	6.004778	86.2924	-167.692	0.006774	0.613196	-1.099545	-1.100877	0.050731	6.004778	-1.105881	-6.011905E+14	-8.438359E-17	NaN
1083	1.000000	0.626499	7.37565e+06	-54289.1	1055.82	-29743.3	0.000000	0.000000	6.626980	-0.023519	NaN	0.000000	0.001538	0.001696	28.0817	0.117996	0.002084	56.6294	-24.9985	-164.254	-0.012602	0.625237	-1.087574	-1.088836	-0.023519	56.6294	-1.087263	-3.381083E+14	6.956120E-17	NaN
1083	1.000000	0.638495	7.37565e+06	-54289.1	1055.82	-29743.3	0.000000	0.000000	6.638981	0.103993	NaN	0.000000	0.001580	0.001716	28.0815	0.058361	0.002035	28.6759	-110.036	-165.923	0.060045	0.637175	-1.075578	-1.076899	0.103993	28.6759	-1.078298	-2.562494E+14	-4.058272E-16	NaN
1083	1.000000	0.650500	7.37565e+06	-54289.1	1055.82	-29743.3	0.000000	0.000000	6.650984	0.038170	NaN	0.000000	0.001578	0.001700	28.0819	0.090162	0.002011	44.8255	64.0474	-162.306	0.003084	0.649185	-1.063573	-1.064888	0.038170	44.8255	-1.064211	-1.657350E+14	-2.303103E-16	NaN
1083	1.000000	0.662504	7.37565e+06	-54289.1	1055.82	-29743.3	0.000000	0.000000	6.662988	0.035202	NaN	0.000000	0.001565	0.001740	28.0819	0.056439	0.001970	28.6478	19.2635	-165.059	0.073641	0.661234	-1.051569	-1.052839	0.035202	28.6478	-1.052491	-1.153168E+14	-3.052607E-16	NaN
1083	1.000000	0.674527	7.37565e+06	-54289.1	1055.82	-29743.3	0.000000	0.000000	6.675010	0.012664	NaN	0.000000	0.001563	0.001733	28.0841	0.137671	0.002042	67.4253	76.5196	-165.46	0.013547	0.673193	-1.039546	-1.040880	0.012664	67.4253	-1.039687	-7.758147E+13	-1.632286E-16	NaN
1083	1.000000	0.686543	7.37565e+06	-54289.1	1055.82	-29743.3	0.000000	0.000000	6.687026	0.021759	NaN	0.000000	0.001564	0.001720	28.0827	0.098713	0.002120	46.5523	-120.521	-163.478	-0.012173	0.685257	-1.027530	-1.028816	0.021759	46.5523	-1.027881	-5.382352E+13	-4.042635E-16	NaN
1083	1.000000	0.698540	7.37565e+06	-54289.1	1055.82	-29743.3	0.000000	0.000000	6.699025	0.074400	NaN	0.000000	0.001570	0.001776	28.082	0.070665	0.001911	36.9756	-19.6804	-164.862	-0.074192	0.697237	-1.015534	-1.016836	0.074400	36.9756	-1.017043	-3.847343E+13	-1.933808E-15	NaN
1083	1.000000	0.710531	7.37565e+06	-54289.1	1055.82	-29743.3	0.000000	0.000000	6.711014	0.027741	NaN	0.000000	0.001609	0.001769	28.0817	0.089250	0.002037	43.8095	48.1215	-162.23	0.085200	0.709210	-1.003542	-1.004863	0.027741	43.8095	-1.004017	-2.569511E+13	-1.079630E-15	NaN
1083	1.000000	0.722544	7.37565e+06	-54289.1	1055.82	-29743.3	0.000000	0.000000	6.723026	0.005162	NaN	0.000000	0.001600	0.001712	28.0817	0.077063	0.002009	38.3645	152.989	-164.201	0.054079	0.721225	-0.991529	-0.992848	0.005162	38.3645	-0.991630	-1.750120E+13	-2.949321E-16	NaN
1083	1.000000	0.734564	7.37565e+06	-54289.1	1055.82	-29743.3	0.000000	0.000000	6.735045	-0.042634	NaN	0.000000	0.001538	0.001720	28.0816	0.053295	0.001931	27.6045	152.744	-165.259	0.023231	0.733228	-0.979509	-0.980845	-0.042634	27.6045	-0.978351	-1.159279E+13	3.677611E-15	NaN
1083	1.000000	0.746548	7.37565e+06	-54289.1	1055.82	-29743.3	0.000000	0.000000	6.747028	-0.034668	NaN	0.000000	0.001609	0.001716	28.0817	0.072188	0.001897	38.0628	81.3252	-163.596	-0.020956	0.745291	-0.967526	-0.968782	-0.034668	38.0628	-0.966842	-8.111601E+12	4.273910E-15	NaN
1083	1.000000	0.758562	7.37565e+06	-54289.1	1055.82	-29743.3	0.000000	0.000000	6.759043	-0.022900	NaN	0.000000	0.001603	0.001727	28.0805	0.012469	0.002083	5.986560	63.7006	-163.627	-0.015402	0.757260	-0.955511	-0.956813	-0.022900	5.986560	-0.952642	-5.219816E+12	4.387076E-15	NaN
1083	1.000000	0.770570	7.37565e+06	-54289.1	1055.82	-29743.3	0.000000	0.000000	6.771052	-0.015645	NaN	0.000000	0.001617	0.001731	28.0803	0.119015	0.001868	63.7038	-136.129	-165.955	-0.048801	0.769276	-0.943503	-0.944797	-0.015645	63.7038	-0.943319	-3.907578E+12	4.003811E-15	NaN
1083	1.000000	0.782572	7.37565e+06	-54289.1	1055.82	-29743.3	0.000000	0.000000	6.783056	0.039161	NaN	0.000000	0.001618	0.001722	28.0805	0.084274	0.001947	43.295	-127.685	-166.973	0.056524	0.781274	-0.931501	-0.932800	0.039161	43.295	-0.932179	-2.764446E+12	-1.416598E-14	NaN
1083	1.000000	0.794571	7.37565e+06	-54289.1	1055.82	-29743.3	0.000000	0.000000	6.795050	-0.058810	NaN	0.000000	0.001599	0.001718	28.0806	0.081292	0.002101	38.7005	131.83	-164.061	-0.016694	0.793246	-0.919502	-0.920827	-0.058810	38.7005	-0.918363	-1.799282E+12	3.268519E-14	NaN
1083	1.000000	0.806573	7.37565e+06	-54289.1	1055.82	-29743.3	0.000000	0.000000	6.807054	-0.038486	NaN	0.000000	0.001603	0.001733	28.0806	0.042520	0.002063	20.6072	-150.248	-160.708	0.034132	0.805283	-0.907500	-0.908790	-0.038486	20.6072	-0.906099	-1.228776E+12	3.132048E-14	NaN
1083	1.000000	0.818599	7.37565e+06	-54289.1	1055.82	-29743.3	0.000000	0.000000	6.819082	0.015485	NaN	0.000000	0.001594	0.001689	28.0805	0.129372	0.001923	67.27	156.447	-166.819	0.066419	0.817284	-0.895474	-0.896789	0.015485	67.27	-0.895647	-8.876396E+11	-1.744523E-14	NaN
1083	1.000000	0.830572	7.37565e+06	-54289.1	1055.82	-29743.3	0.000000	0.000000	6.831056	0.046011	NaN	0.000000	0.001603	0.001673	28.0804	0.074095	0.002092	35.4165	161.846	-164.618	0.063328	0.829278	-0.883501	-0.884795	0.046011	35.4165	-0.884476	-6.269433E+11	-7.338931E-14	NaN
1083	1.000000	0.842613	7.37565e+06	-54289.1	1055.82	-29743.3	0.000000	0.000000	6.843097	0.048452	NaN	0.000000	0.001620	0.001682	28.0802	0.132259	0.001958	67.5481	150.699	-165.238	0.001056	0.841251	-0.871460	-0.872822	0.048452	67.5481	-0.871998	-4.250810E+11	-1.139834E-13	NaN
1083	1.000000	0.854599	7.37565e+06	-54289.1	1055.82	-29743.3	0.000000	0.000000	6.855079	-0.042434	NaN	0.000000	0.001606	0.001714	28.0807	0.103830	0.002139	48.5457	70.756	-164.823	-0.053919	0.853366	-0.859475	-0.860707	-0.042434	48.5457	-0.858819	-2.819255E+11	1.505142E-13	NaN
1083	1.000000	0.866569	7.37565e+06	-54289.1	1055.82	-29743.3	0.000000	0.000000	6.867054	0.087205	NaN	0.000000	0.001619	0.001703	28.0806	0.076268	0.002005	38.032	-110.37	-166.001	0.096474	0.865294	-0.847505	-0.848780	0.087205	38.032	-0.849224	-2.090419E+11	-4.171666E-13	NaN
1083	1.000000	0.878623	7.37565e+06	-54289.1	1055.82	-29743.3	0.000000	0.000000	6.879105	0.015432	NaN	0.000000	0.001592	0.001666	28.0806	0.054413	0.001975	27.5492	-81.5858	-165.317	0.057222	0.877311	-0.835450	-0.836762	0.015432	27.5492	-0.835871	-1.378296E+11	-1.119622E-13	NaN
1083	1.000000	0.890602	7.37565e+06	-54289.1	1055.82	-29743.3	0.000000	0.000000	6.891083	-0.022982	NaN	0.000000	0.001594	0.001688	28.0821	0.072997	0.002014	36.237	-111.43	-163.778	-0.001569	0.889309	-0.823471	-0.824764	-0.022982	36.237	-0.822996	-9.222130E+10	2.492039E-13	NaN
1083	1.000000	0.902643	7.37565e+06	-54289.1	1055.82	-29743.3	0.000000	0.000000	6.903124	-0.019163	NaN	0.000000	0.001558	0.001688	28.0819	0.053608	0.001998	26.8284	31.7067	-162.981	-0.063970	0.901332	-0.811430	-0.812741	-0.019163	26.8284	-0.810895	-6.319903E+10	3.032181E-13	NaN
1083	1.000000	0.914652	7.37565e+06	-54289.1	1055.82	-29743.3	0.000000	0.000000	6.915135	0.035978	NaN	0.000000	0.001532	0.001698	28.082	0.068575	0.002022	33.9164	147.349	-168.471	0.093984	0.913282	-0.799421	-0.800791	0.035978	33.9164	-0.800217	-4.526958E+10	-7.947576E-13	NaN
1083	1.000000	0.926619	7.37565e+06	-54289.1	1055.82	-29743.3	0.000000	0.000000	6.927102	0.007741	NaN	0.000000	0.001587	0.001670	28.0819	0.014515	0.002054	7.066523	46.191	-162.646	-0.014095	0.925304	-0.787454	-0.788769	0.007741	7.066523	-0.788276	-3.116464E+10	-2.483984E-13	NaN
1083	1.000000	0.938629	7.37565e+06	-54289.1	1055.82	-29743.3	0.000000	0.000000	6.939113	0.056571	NaN	0.000000	0.001575	0.001719	28.0822	0.172197	0.001953	88.156	-89.9259	-170.132	0.013931	0.937293	-0.775444	-0.776780	0.056571	88.156	-0.775926	-2.117668E+10	-2.671383E-12	NaN
1083	1.000000	0.950626	7.37565e+06	-54289.1	1055.82	-29743.3	0.000000	0.000000	6.951112	0.085287	NaN	0.000000	0.001574	0.001717	28.082	0.114813	0.002090	54.9319	-15.5411	-163.497	0.074903	0.949371	-0.763447	-0.764702	0.085287	54.9319	-0.764611	-1.486035E+10	-5.739265E-12	NaN
1083	1.000000	0.962629	7.37565e+06	-54289.1	1055.82	-29743.3	0.000000	0.000000	6.963110	-0.023764	NaN	0.000000	0.001560	0.001713	28.082	0.089345	0.001908	46.8289	-41.5816	-164.498	0.047186	0.961318	-0.751444	-0.752756	-0.023764	46.8289	-0.751063	-9.720663E+9	2.444733E-12	NaN
1083	1.000000	0.974680	7.37565e+06	-54289.1	1055.82	-29743.3	0.000000	0.000000	6.975161	-0.025864	NaN	0.000000	0.001552	0.001717	28.0819	0.089381	0.002062	43.3373	166.92	-163.303	0.033532	0.973362	-0.739393	-0.740711	-0.025864	43.3373	-0.738945	-6.647959E+9	3.890573E-12	NaN
1083	1.000000	0.986651	7.37565e+06	-54289.1	1055.82	-29743.3	0.000000	0.000000	6.987134	0.023405	NaN	0.000000	0.001590	0.001692	28.0821	0.089547	0.001937	46.2197	79.8297	-166.123	0.026536	0.985383	-0.727422	-0.728690	0.023405	46.2197	-0.727802	-4.686514E+9	-4.994192E-12	NaN
1083	1.000000	0.998670	7.37565e+06	-54289.1	1055.82	-29743.3	0.000000	0.000000	6.999152	0.018523	NaN	0.000000	0.001613	0.001760	28.0819	0.048422	0.002002	24.1874	112.997	-164.841	0.009215	0.997317	-0.715403	-0.716756	0.018523	24.1874	-0.715978	-3.233043E+9	-5.729419E-12	NaN
1083	1.000000	1.010651	7.37565e+06	-54289.1	1055.82	-29743.3	0.000000	0.000000	7.011134	0.022072	NaN	0.000000	0.001595	0.001690	28.0821	0.052191	0.002029	25.7229	-96.2321	-167.75	0.029659	1.009347	-0.703422	-0.704727	0.022072	25.7229	-0.704066	-2.223542E+9	-9.926365E-12	NaN
1083	1.000000	1.022678	7.37565e+06	-54289.1	1055.82	-29743.3	0.000000	0.000000	7.023160	-0.005349	NaN	0.000000	0.001582	0.001706	28.0817	0.037194	0.001991	18.6815	-84.1475	-167.542	-0.000854	1.021323	-0.691395	-0.692750	-0.005349	18.6815	-0.691181	-1.482691E+9	3.607868E-12	NaN
1083	1.000000	1.034673	7.37565e+06	-54289.1	1055.82	-29743.3	0.000000	0.000000	7.035156	0.018949	NaN	0.000000	0.001571	0.001724	28.0807	0.039932	0.002062	19.3642	-66.713	-167.196	0.070418	1.033414	-0.679400	-0.680659	0.018949	19.3642	-0.680134	-1.047223E+9	-1.809405E-11	NaN
1083	1.000000	1.046658	7.37565e+06	-54289.1	1055.82	-29743.3	0.000000	0.000000	7.047140	-0.004592	NaN	0.000000	0.001591	0.001688	28.0807	0.027290	0.001916	14.2424	113.187	-165.144	-0.040257	1.045411	-0.667415	-0.668662	-0.004592	14.2424	-0.667173	-6.961460E+8	6.596658E-12	NaN
1083	1.000000	1.058693	7.37565e+06	-54289.1	1055.82	-29743.3	0.000000	0.000000	7.059174	-0.025412	NaN	0.000000	0.001555	0.001703	28.0807	0.001645	0.002067	0.795760	131.234	-165.071	0.003571	1.057363	-0.655380	-0.656711	-0.025412	0.795760	-0.631429	-2.252421E+8	1.128230E-10	NaN
1083	1.000000	1.070692	7.37565e+06	-54289.1	1055.82	-29743.3	0.000000	0.000000	7.071177	0.082477	NaN	0.000000	0.001565	0.001677	28.0806	0.067878	0.002037	33.3246	-55.8151	-163.305	0.089499	1.069399	-0.643381	-0.644674	0.082477	33.3246	-0.645237	-3.484449E+8	-2.367006E-10	NaN
1083	1.000000	1.082700	7.37565e+06	-54289.1	1055.82	-29743.3	0.000000	0.000000	7.083182	0.005515	NaN	0.000000	0.001563	0.001709	28.0805	0.051270	0.001952	26.2597	-63.8958	-165.705	0.026475	1.081395	-0.631373	-0.632678	0.005515	26.2597	-0.631530	-2.259638E+8	-2.440445E-11	NaN
1083	1.000000	1.094701	7.37565e+06	-54289.1	1055.82	-29743.3	0.000000	0.000000	7.095185	0.049862	NaN	0.000000	0.001540	0.001694	28.0808	0.069354	0.002046	33.8908	54.2803	-168.186	0.082881	1.093424	-0.619372	-0.620650	0.049862	33.8908	-0.620476	-1.592848E+8	-3.130386E-10	NaN
1083	1.000000	1.106664	7.37565e+06	-54289.1	1055.82	-29743.3	0.000000	0.000000	7.107148	0.058678	NaN	0.000000	0.001574	0.001694	28.0807	0.066542	0.002058	32.3288	63.362	-166.245	0.013050	1.105360	-0.607410	-0.608713	0.058678	32.3288	-0.608771	-1.099519E+8	-5.336675E-10	NaN
1083	1.000000	1.118681	7.37565e+06	-54289.1	1055.82	-29743.3	0.000000	0.000000	7.119163	-0.011857	NaN	0.000000	0.001551	0.001697	28.0807	0.035359	0.001881	18.7945	5.106131	-163.346	0.056969	1.117381	-0.595392	-0.596692	-0.011857	18.7945	-0.594919	-7.086967E+7	1.673063E-10	NaN
1083	1.000000	1.130731	7.37565e+06	-54289.1	1055.82	-29743.3	0.000000	0.000000	7.131214	0.021077	NaN	0.000000	0.001549	0.001686	28.0807	0.065093	0.001977	32.9212	154.188	-167.729	0.006491	1.129371	-0.583342	-0.584702	0.021077	32.9212	-0.583822	-4.982682E+7	-4.229996E-10	NaN
1083	1.000000	1.142721	7.37565e+06	-54289.1	1055.82	-29743.3	0.000000	0.000000	7.143203	0.005430	NaN	0.000000	0.001521	0.001578	28.0806	0.078825	0.001989	39.6267	83.6988	-164.923	0.073001	1.141438	-0.571352	-0.572635	0.005430	39.6267	-0.571455	-3.363059E+7	-1.614553E-10	NaN
1083	1.000000	1.154731	7.37565e+06	-54289.1	1055.82	-29743.3	0.000000	0.000000	7.155212	-0.023420	NaN	0.000000	0.001528	0.001625	28.0806	0.073663	0.002010	36.6525	-150.632	-167.67	-0.011814	1.153426	-0.559342	-0.560648	-0.023420	36.6525	-0.558863	-2.252401E+7	1.039781E-9	NaN
1083	1.000000	1.166753	7.37565e+06	-54289.1	1055.82	-29743.3	0.000000	0.000000	7.167236	0.018107	NaN	0.000000	0.001543	0.001710	28.0817	0.075061	0.002139	35.0962	116.599	-165.221	-0.005955	1.165454	-0.547320	-0.548619	0.018107	35.0962	-0.547707	-1.578295E+7	-1.147229E-9	NaN
1083	1.000000	1.178724	7.37565e+06	-54289.1	1055.82	-29743.3	0.000000	0.000000	7.179208	0.030245	NaN	0.000000	0.001607	0.001751	28.082	0.111901	0.001961	57.0732	-86.0276	-164.846	-0.002171	1.177418	-0.535349	-0.536655	0.030245	57.0732	-0.535746	-1.077327E+7	-2.807398E-9	NaN
1083	1.000000	1.190731	7.37565e+06	-54289.1	1055.82	-29743.3	0.000000	0.000000	7.191214	0.026651	NaN	0.000000	0.001614	0.001726	28.0819	0.038012	0.001954	19.4487	150.742	-165.027	-0.018254	1.189456	-0.523342	-0.524618	0.026651	19.4487	-0.524370	-7.48781e+06	-3.559268E-9	NaN
1083	1.000000	1.202741	7.37565e+06	-54289.1	1055.82	-29743.3	0.000000	0.000000	7.203223	-0.004094	NaN	0.000000	0.001594	0.001705	28.0819	0.053964	0.001989	27.1334	-5.504969	-165.067	0.062016	1.201467	-0.511332	-0.512606	-0.004094	27.1334	-0.511219	-4.91355e+06	8.333071E-10	NaN
1083	1.000000	1.214738	7.37565e+06	-54289.1	1055.82	-29743.3	0.000000	0.000000	7.215220	0.005331	NaN	0.000000	0.001557	0.001716	28.0819	0.042639	0.002050	20.7997	75.4896	-167.257	0.069966	1.213412	-0.499335	-0.500661	0.005331	20.7997	-0.499527	-3.37615e+06	-1.578870E-9	NaN
1083	1.000000	1.226721	7.37565e+06	-54289.1	1055.82	-29743.3	0.000000	0.000000	7.227202	-0.026419	NaN	0.000000	0.001624	0.001672	28.0818	0.048248	0.001953	24.7004	-169.944	-163.133	-0.069442	1.225459	-0.487352	-0.488614	-0.026419	24.7004	-0.486550	-2.22417e+06	1.187801E-8	NaN
1083	1.000000	1.238764	7.37565e+06	-54289.1	1055.82	-29743.3	0.000000	0.000000	7.239248	0.032881	NaN	0.000000	0.001609	0.001702	28.0817	0.081902	0.001884	43.4738	-3.961300	-167.753	-0.001345	1.237512	-0.475309	-0.476561	0.032881	43.4738	-0.475876	-1.5768e+06	-2.085279E-8	NaN
1083	1.000000	1.250780	7.37565e+06	-54289.1	1055.82	-29743.3	0.000000	0.000000	7.251261	-0.018671	NaN	0.000000	0.001600	0.001675	28.0819	0.110037	0.001900	57.903	-170.235	-161.487	-0.084584	1.249451	-0.463293	-0.464622	-0.018671	57.903	-0.463052	-1.04205e+06	1.791744E-8	NaN
1083	1.000000	1.262781	7.37565e+06	-54289.1	1055.82	-29743.3	0.000000	0.000000	7.263267	0.103056	NaN	0.000000	0.001572	0.001752	28.0821	0.054117	0.002007	26.9636	-48.303	-163.441	0.077426	1.261450	-0.451292	-0.452623	0.103056	26.9636	-0.454159	-781409	-1.318848E-7	NaN
1083	1.000000	1.274795	7.37565e+06	-54289.1	1055.82	-29743.3	0.000000	0.000000	7.275280	0.073789	NaN	0.000000	0.001578	0.001721	28.0818	0.043042	0.002066	20.8361	17.6174	-167.612	0.120950	1.273444	-0.439278	-0.440629	0.073789	20.8361	-0.441934	-525606	-1.403892E-7	NaN
1083	1.000000	1.286787	7.37565e+06	-54289.1	1055.82	-29743.3	0.000000	0.000000	7.287268	-0.025439	NaN	0.000000	0.001573	0.001667	28.082	0.098623	0.001848	53.3668	169.185	-162.828	0.056051	1.285406	-0.427286	-0.428667	-0.025439	53.3668	-0.426929	-322547	7.887045E-8	NaN
1083	1.000000	1.298804	7.37565e+06	-54289.1	1055.82	-29743.3	0.000000	0.000000	7.299286	0.022059	NaN	0.000000	0.001537	0.001667	28.0806	0.019563	0.002054	9.524401	17.2402	-163.12	0.089253	1.297424	-0.415270	-0.416649	0.022059	9.524401	-0.417007	-233316	-9.454460E-8	NaN
1083	1.000000	1.310745	7.37565e+06	-54289.1	1055.82	-29743.3	0.000000	0.000000	7.311229	0.031303	NaN	0.000000	0.001665	0.001683	28.0805	0.072877	0.002083	34.989	-49.2096	-165.859	0.073725	1.309479	-0.403328	-0.404595	0.031303	34.989	-0.403999	-152402	-2.053985E-7	NaN
1083	1.000000	1.322806	7.37565e+06	-54289.1	1055.82	-29743.3	0.000000	0.000000	7.323285	-0.061652	NaN	0.000000	0.001633	0.001687	28.0806	0.066336	0.002042	32.493	-58.2234	-166.108	0.010656	1.321475	-0.391267	-0.392598	-0.061652	32.493	-0.389844	-95705.4	6.441885E-7	NaN
1083	1.000000	1.334811	7.37565e+06	-54289.1	1055.82	-29743.3	0.000000	0.000000	7.335295	0.038199	NaN	0.000000	0.001652	0.001653	28.0805	0.106247	0.001984	53.5499	-62.5265	-165.935	0.108255	1.333463	-0.379262	-0.380610	0.038199	53.5499	-0.379797	-68703.4	-5.559939E-7	NaN
1083	1.000000	1.346836	7.37565e+06	-54289.1	1055.82	-29743.3	0.000000	0.000000	7.347320	0.038522	NaN	0.000000	0.001663	0.001672	28.0805	0.166829	0.001924	86.7134	78.9959	-161.357	0.011913	1.345517	-0.367237	-0.368556	0.038522	86.7134	-0.367570	-45826.4	-8.406165E-7	NaN
1083	1.000000	1.358774	7.37565e+06	-54289.1	1055.82	-29743.3	0.000000	0.000000	7.359256	-0.005547	NaN	0.000000	0.001557	0.001693	28.0807	0.090757	0.001949	46.5641	157.347	-169.627	-0.005566	1.357542	-0.355299	-0.356532	-0.005547	46.5641	-0.355210	-30376.3	1.826168E-7	NaN
1083	1.000000	1.370831	7.37565e+06	-54289.1	1055.82	-29743.3	0.000000	0.000000	7.371315	0.049320	NaN	0.000000	0.001580	0.001706	28.0806	0.051809	0.001981	26.1533	140.547	-166.835	0.001869	1.369538	-0.343242	-0.344535	0.049320	26.1533	-0.344656	-21348	-2.310264E-6	NaN
1083	1.000000	1.382812	7.37565e+06	-54289.1	1055.82	-29743.3	0.000000	0.000000	7.383292	-0.025545	NaN	0.000000	0.001579	0.001684	28.0809	0.102233	0.001848	55.3136	-41.4982	-162.105	0.001004	1.381514	-0.331262	-0.332559	-0.025545	55.3136	-0.330915	-13454	1.898680E-6	NaN
1083	1.000000	1.394832	7.37565e+06	-54289.1	1055.82	-29743.3	0.000000	0.000000	7.395315	0.034435	NaN	0.000000	0.001599	0.001696	28.0807	0.024692	0.002074	11.9074	-30.5635	-166.041	0.012022	1.393512	-0.319242	-0.320561	0.034435	11.9074	-0.321410	-9758.69	-3.528656E-6	NaN
1083	1.000000	1.406843	7.37565e+06	-54289.1	1055.82	-29743.3	0.000000	0.000000	7.407323	-0.035754	NaN	0.000000	0.001589	0.001698	28.0805	0.161540	0.001921	84.1048	178.096	-165.753	-0.088981	1.405497	-0.307231	-0.308576	-0.035754	84.1048	-0.306912	-5960.93	5.997975E-6	NaN
1083	1.000000	1.418824	7.37565e+06	-54289.1	1055.82	-29743.3	0.000000	0.000000	7.419307	0.033333	NaN	0.000000	0.001593	0.001685	28.0806	0.016376	0.002091	7.831585	-109.787	-164.341	0.082140	1.417528	-0.295249	-0.296545	0.033333	7.831585	-0.298441	-4460.89	-7.472172E-6	NaN
1083	1.000000	1.430859	7.37565e+06	-54289.1	1055.82	-29743.3	0.000000	0.000000	7.431341	-0.006572	NaN	0.000000	0.001568	0.001704	28.0804	0.087202	0.001923	45.3496	-111.931	-166.657	-0.010483	1.429565	-0.283214	-0.284509	-0.006572	45.3496	-0.283105	-2628.84	2.499782E-6	NaN
1083	1.000000	1.442874	7.37565e+06	-54289.1	1055.82	-29743.3	0.000000	0.000000	7.443354	-0.035271	NaN	0.000000	0.001629	0.001712	28.0819	0.021546	0.001896	11.3625	-126.684	-163.78	0.043482	1.441527	-0.271199	-0.272547	-0.035271	11.3625	-0.268871	-1600.95	2.203114E-5	NaN
1083	1.000000	1.454853	7.37565e+06	-54289.1	1055.82	-29743.3	0.000000	0.000000	7.455336	0.026492	NaN	0.000000	0.001593	0.001697	28.0819	0.136537	0.002025	67.4362	58.3979	-164.169	0.013471	1.453587	-0.259221	-0.260486	0.026492	67.4362	-0.259515	-1152.09	-2.299518E-5	NaN
1083	1.000000	1.466828	7.37565e+06	-54289.1	1055.82	-29743.3	0.000000	0.000000	7.467312	0.049128	NaN	0.000000	0.001568	0.001708	28.0819	0.124437	0.001943	64.0482	-165.361	-162.936	0.011898	1.465539	-0.247245	-0.248534	0.049128	64.0482	-0.247820	-760.714	-6.458174E-5	NaN
1083	1.000000	1.478845	7.37565e+06	-54289.1	1055.82	-29743.3	0.000000	0.000000	7.479328	0.014435	NaN	0.000000	0.001662	0.001719	28.0819	0.154567	0.002011	76.8739	-95.8983	-161.847	0.011915	1.477544	-0.235228	-0.236529	0.014435	76.8739	-0.235369	-486.446	-2.967447E-5	NaN
1083	1.000000	1.490877	7.37565e+06	-54289.1	1055.82	-29743.3	0.000000	0.000000	7.491358	-0.032829	NaN	0.000000	0.001603	0.001688	28.0818	0.123293	0.001885	65.3981	44.305	-163.215	-0.071182	1.489573	-0.223196	-0.224500	-0.032829	65.3981	-0.222819	-308.073	0.000107	NaN
1083	1.000000	1.502890	7.37565e+06	-54289.1	1055.82	-29743.3	0.000000	0.000000	7.503371	-0.031321	NaN	0.000000	0.001586	0.001702	28.0818	0.006009	0.002091	2.873769	131.819	-164.129	-0.042869	1.501574	-0.211183	-0.212499	-0.031321	2.873769	-0.203009	-147.581	0.000212	NaN
1083	1.000000	1.514888	7.37565e+06	-54289.1	1055.82	-29743.3	0.000000	0.000000	7.515369	-0.038493	NaN	0.000000	0.001605	0.001681	28.0821	0.061803	0.002020	30.5911	-145.386	-165.115	-0.081635	1.513632	-0.199185	-0.200441	-0.038493	30.5911	-0.198241	-123.24	0.000312	NaN
1083	1.000000	1.526856	7.37565e+06	-54289.1	1055.82	-29743.3	0.000000	0.000000	7.527339	0.019336	NaN	0.000000	0.001612	0.001748	28.0817	0.059159	0.001937	30.5351	-13.708	-166.096	0.013186	1.525610	-0.187217	-0.188463	0.019336	30.5351	-0.187692	-82.3	-0.000235	NaN
1083	1.000000	1.538890	7.37565e+06	-54289.1	1055.82	-29743.3	0.000000	0.000000	7.539372	-0.002673	NaN	0.000000	0.001555	0.001737	28.0817	0.138983	0.002012	69.0838	49.1051	-166.176	0.010470	1.537604	-0.175183	-0.176469	-0.002673	69.0838	-0.175154	-50.4229	5.300854E-5	NaN
1083	1.000000	1.550918	7.37565e+06	-54289.1	1055.82	-29743.3	0.000000	0.000000	7.551402	0.053307	NaN	0.000000	0.001591	0.001739	28.0819	0.119003	0.001987	59.9049	7.611365	-167.587	0.083175	1.549626	-0.163155	-0.164447	0.053307	59.9049	-0.163823	-32.0333	-0.001664	NaN
1083	1.000000	1.562886	7.37565e+06	-54289.1	1055.82	-29743.3	0.000000	0.000000	7.563370	0.042895	NaN	0.000000	0.001571	0.001736	28.0817	0.117818	0.001984	59.3967	162.988	-165.756	-0.077479	1.561612	-0.151187	-0.152461	0.042895	59.3967	-0.151729	-19.4744	-0.002203	NaN
1083	1.000000	1.574901	7.37565e+06	-54289.1	1055.82	-29743.3	0.000000	0.000000	7.575385	0.054957	NaN	0.000000	0.001563	0.001744	28.0807	0.043540	0.001921	22.6676	73.868	-166.922	0.090942	1.573603	-0.139172	-0.140471	0.054957	22.6676	-0.140991	-12.3466	-0.004451	NaN
1083	1.000000	1.586920	7.37565e+06	-54289.1	1055.82	-29743.3	0.000000	0.000000	7.587404	0.050214	NaN	0.000000	0.001547	0.001736	28.0808	0.107192	0.001937	55.3523	74.6595	-167.28	0.021186	1.585596	-0.127153	-0.128477	0.050214	55.3523	-0.127834	-6.914594	-0.007262	NaN
1083	1.000000	1.598930	7.37565e+06	-54289.1	1055.82	-29743.3	0.000000	0.000000	7.599414	0.066256	NaN	0.000000	0.001589	0.001749	28.0807	0.067449	0.002023	33.3367	46.7672	-168.024	0.130614	1.597667	-0.115144	-0.116406	0.066256	33.3367	-0.116634	-4.127391	-0.016053	NaN
1083	1.000000	1.610930	7.37565e+06	-54289.1	1055.82	-29743.3	0.000000	0.000000	7.611416	0.087732	NaN	0.000000	0.001520	0.001718	28.0811	0.027472	0.002041	13.4629	94.5895	-167.592	0.040650	1.609629	-0.103143	-0.104444	0.087732	13.4629	-0.108030	-2.729893	-0.032137	NaN
1083	1.000000	1.622920	7.37565e+06	-54289.1	1055.82	-29743.3	0.000000	0.000000	7.623403	0.029104	NaN	0.000000	0.001546	0.001703	28.0807	0.064560	0.001895	34.0676	-167.445	-165.683	-0.021197	1.621580	-0.091153	-0.092494	0.029104	34.0676	-0.091794	-1.190352	-0.024450	NaN
1083	1.000000	1.634938	7.37565e+06	-54289.1	1055.82	-29743.3	0.000000	0.000000	7.635423	0.072064	NaN	0.000000	0.001492	0.001719	28.0806	0.069368	0.001921	36.1021	91.4747	-164.852	0.075712	1.633676	-0.079135	-0.080397	0.072064	36.1021	-0.080632	-0.641887	-0.112269	NaN
1083	1.000000	1.646952	7.37565e+06	-54289.1	1055.82	-29743.3	0.000000	0.000000	7.647433	-0.027969	NaN	0.000000	0.001524	0.001723	28.0805	0.056291	0.002065	27.2555	8.705563	-166.205	-0.051988	1.645692	-0.067121	-0.068381	-0.027969	27.2555	-0.066352	-0.271583	0.102984	NaN
1083	1.000000	1.658965	7.37565e+06	-54289.1	1055.82	-29743.3	0.000000	0.000000	7.659447	0.010906	NaN	0.000000	0.001528	0.001749	28.0807	0.027336	0.001999	13.6739	9.296256	-167.164	-0.024363	1.657634	-0.055108	-0.056439	0.010906	13.6739	-0.055707	-0.135109	-0.080721	NaN
1083	1.000000	1.670987	7.37565e+06	-54289.1	1055.82	-29743.3	0.000000	0.000000	7.671473	0.087830	NaN	0.000000	0.001532	0.001727	28.0807	0.007725	0.002005	3.852919	-83.9065	-162.819	0.130986	1.669631	-0.043086	-0.044442	0.087830	3.852919	-0.060183	-0.182283	-0.481835	NaN
1083	1.000000	1.682951	7.37565e+06	-54289.1	1055.82	-29743.3	0.000000	0.000000	7.683435	0.037179	NaN	0.000000	0.001527	0.001742	28.0807	0.131611	0.002063	63.7884	-78.6766	-166.937	0.083085	1.681613	-0.031122	-0.032460	0.037179	63.7884	-0.031559	-0.025459	-1.460349	NaN
1083	1.000000	1.694996	7.37565e+06	-54289.1	1055.82	-29743.3	0.000000	0.000000	7.695482	0.086402	NaN	0.000000	0.001536	0.001707	28.0809	0.054822	0.002105	26.0453	-33.4158	-165.431	0.013858	1.693702	-0.019077	-0.020371	0.086402	26.0453	-0.021565	-0.013766	-6.276663	NaN
1083	1.000000	1.707000	7.37565e+06	-54289.1	1055.82	-29743.3	0.000000	0.000000	7.707481	-0.015829	NaN	0.000000	0.001533	0.001733	28.0813	0.091702	0.002155	42.5522	-132.719	-163.667	-0.026403	1.705694	-0.007073	-0.008380	-0.015829	42.5522	-0.006794	-0.004517	3.504023	NaN
1083	1.000000	1.718940	7.37565e+06	-54289.1	1055.82	-29743.3	0.000000	0.000000	7.719595	4.202086	NaN	0.000000	0.001572	0.001732	28.0819	5.110621	0.001863	2743.31	11.2932	-167.35	3.036678	1.717642	0.004867	0.003569	4.202086	2743.31	0.003718	0.002993	1403.76	45810.1
1083	2.000000	1.724591	7.37565e+06	-54289.1	1055.82	-29743.3	0.000000	0.000000	7.725492	10.187	NaN	0.000000	0.001539	0.001720	28.0819	10.4884	0.001566	6699.29	7.839894	-174.85	9.482229	1.724299	0.010517	0.010226	10.187	6699.29	0.009377	0.008497	1198.85	66398.9
1083	2.000000	1.727588	7.37565e+06	-54289.1	1055.82	-29743.3	0.000000	0.000000	7.728635	13.7475	NaN	0.000000	0.001564	0.001780	28.0817	13.072	0.001689	7741.04	2.479984	-170.862	13.4932	1.727209	0.013514	0.013136	13.7475	7741.04	0.012182	0.011709	1174.06	65359.1
1083	2.000000	1.730533	7.37565e+06	-54289.1	1055.82	-29743.3	0.000000	0.000000	7.731712	16.9432	NaN	0.000000	0.001577	0.001697	28.0818	15.828	0.001710	9257.02	4.113903	-173.569	16.079	1.730190	0.016459	0.016117	16.9432	9257.02	0.015087	0.015401	1100.12	68150.2
1083	2.000000	1.733530	7.37565e+06	-54289.1	1055.82	-29743.3	0.000000	0.000000	7.734878	21.0546	NaN	0.000000	0.001526	0.001704	28.0823	19.2724	0.001832	10517.8	6.550003	-175.835	20.8198	1.733287	0.019456	0.019214	21.0546	10517.8	0.017955	0.019430	1083.6	68938.2
1083	2.000000	1.736543	7.37565e+06	-54289.1	1055.82	-29743.3	0.000000	0.000000	7.738083	25.7133	NaN	0.000000	0.001543	0.001753	28.082	21.9016	0.001765	12410.1	5.825016	-176.78	25.629	1.736186	0.022470	0.022113	25.7133	12410.1	0.020916	0.024002	1071.28	73185.1
1083	2.000000	1.739495	7.37565e+06	-54289.1	1055.82	-29743.3	0.000000	0.000000	7.741345	33.2472	NaN	0.000000	0.001506	0.001691	28.0822	25.1027	0.001804	13912.8	3.080036	-176.384	31.2259	1.739216	0.025422	0.025143	33.2472	13912.8	0.023630	0.028570	1163.7	75202.4
1083	2.000000	1.742454	7.37565e+06	-54289.1	1055.82	-29743.3	0.000000	0.000000	7.744580	39.9669	NaN	0.000000	0.001565	0.001692	28.082	27.6149	0.001764	15658.3	5.665161	-179.163	38.4219	1.742195	0.028381	0.028122	39.9669	15658.3	0.026467	0.033738	1184.61	77885.2
1083	2.000000	1.745553	7.37565e+06	-54289.1	1055.82	-29743.3	0.000000	0.000000	7.747914	45.6727	NaN	0.000000	0.001536	0.001743	28.0818	30.9085	0.001816	17017.6	5.698975	-178.775	47.8547	1.745240	0.031480	0.031167	45.6727	17017.6	0.029467	0.039646	1152	78085.6
1083	2.000000	1.748575	7.37565e+06	-54289.1	1055.82	-29743.3	0.000000	0.000000	7.751408	57.1426	NaN	0.000000	0.001548	0.001704	28.0835	33.6901	0.001929	17468.3	7.711295	179.329	58.601	1.748182	0.034502	0.034109	57.1426	17468.3	0.032049	0.045098	1267.09	75153.3
1083	2.000000	1.751458	7.37565e+06	-54289.1	1055.82	-29743.3	0.000000	0.000000	7.754645	65.7821	NaN	0.000000	0.001537	0.001740	28.0819	35.9916	0.001826	19709.3	4.603374	-179.719	64.7192	1.751202	0.037384	0.037129	65.7821	19709.3	0.034881	0.051470	1278.08	79372.3
1083	2.000000	1.754448	7.37565e+06	-54289.1	1055.82	-29743.3	0.000000	0.000000	7.758066	76.235	NaN	0.000000	0.001554	0.001704	28.0807	39.4246	0.001883	20937.1	7.648982	176.895	74.6159	1.754125	0.040375	0.040052	76.235	20937.1	0.037644	0.058082	1312.55	79372.5
1083	2.000000	1.757511	7.37565e+06	-54289.1	1055.82	-29743.3	0.000000	0.000000	7.761506	85.415	NaN	0.000000	0.001566	0.001722	28.0805	41.0964	0.001746	23541.5	3.455114	179.653	87.4905	1.757178	0.043438	0.043104	85.415	23541.5	0.040717	0.065894	1296.26	83788.7
1083	2.000000	1.760449	7.37565e+06	-54289.1	1055.82	-29743.3	0.000000	0.000000	7.764837	94.9389	NaN	0.000000	0.001626	0.001713	28.0807	44.674	0.001802	24790.8	2.648483	179.344	93.9026	1.760170	0.046376	0.046096	94.9389	24790.8	0.043504	0.073397	1293.49	83603.2
1083	2.000000	1.763431	7.37565e+06	-54289.1	1055.82	-29743.3	0.000000	0.000000	7.768347	107.799	NaN	0.000000	0.001538	0.001726	28.0823	47.6988	0.001747	27307.3	4.169214	177.115	105.918	1.763101	0.049358	0.049028	107.799	27307.3	0.046397	0.081602	1321.03	87337.5
1083	2.000000	1.766434	7.37565e+06	-54289.1	1055.82	-29743.3	0.000000	0.000000	7.771881	120.697	NaN	0.000000	0.001568	0.001709	28.0807	51.0242	0.001866	27345.6	3.236249	178.136	118.519	1.766160	0.052361	0.052087	120.697	27345.6	0.049051	0.089501	1348.56	83511.6
1083	2.000000	1.769451	7.37565e+06	-54289.1	1055.82	-29743.3	0.000000	0.000000	7.775575	137.162	NaN	0.000000	0.001580	0.001730	28.0805	53.6951	0.001846	29085.3	4.417899	176.619	135.969	1.769090	0.055378	0.055017	137.162	29085.3	0.051841	0.098189	1396.93	84803.9
1083	2.000000	1.772407	7.37565e+06	-54289.1	1055.82	-29743.3	0.000000	0.000000	7.778886	145.794	NaN	0.000000	0.001571	0.001750	28.0803	56.7641	0.001972	28785.6	5.229296	176.091	143.216	1.772144	0.058334	0.058071	145.794	28785.6	0.054535	0.106945	1363.26	80421
1083	2.000000	1.775484	7.37565e+06	-54289.1	1055.82	-29743.3	0.000000	0.000000	7.782480	158.365	NaN	0.000000	0.001558	0.001713	28.0806	58.3493	0.001784	32701.7	1.370155	178.908	159.896	1.775223	0.061411	0.061150	158.365	32701.7	0.057779	0.117964	1342.48	86989.8
1083	2.000000	1.778387	7.37565e+06	-54289.1	1055.82	-29743.3	0.000000	0.000000	7.786106	175.932	NaN	0.000000	0.001551	0.001714	28.081	61.1612	0.001770	34548.9	4.097164	175.947	170.672	1.778120	0.064314	0.064046	175.932	34548.9	0.060495	0.127588	1378.91	88369.5
1083	2.000000	1.781359	7.37565e+06	-54289.1	1055.82	-29743.3	0.000000	0.000000	7.789824	194.086	NaN	0.000000	0.001538	0.001750	28.0806	63.0306	0.001768	35643.4	2.539451	177.329	188.144	1.781087	0.067285	0.067014	194.086	35643.4	0.063201	0.137538	1411.14	87809.4
1083	2.000000	1.784408	7.37565e+06	-54289.1	1055.82	-29743.3	0.000000	0.000000	7.793382	206.44	NaN	0.000000	0.001517	0.001751	28.0806	66.0817	0.001853	35660.5	5.187698	174.455	205.672	1.784131	0.070335	0.070058	206.44	35660.5	0.065993	0.148172	1393.24	84640.3
1083	2.000000	1.787396	7.37565e+06	-54289.1	1055.82	-29743.3	0.000000	0.000000	7.797131	224.959	NaN	0.000000	0.001528	0.001733	28.0821	67.7773	0.001821	37211.9	3.578011	175.681	221.432	1.787201	0.073322	0.073128	224.959	37211.9	0.068788	0.159194	1413.11	85210.4
1083	2.000000	1.790376	7.37565e+06	-54289.1	1055.82	-29743.3	0.000000	0.000000	7.801110	249.232	NaN	0.000000	0.001537	0.001727	28.0819	70.4605	0.001874	37590.8	2.988556	176.666	246.285	1.790078	0.076303	0.076005	249.232	37590.8	0.071331	0.169543	1470.02	83409.6
1083	2.000000	1.793402	7.37565e+06	-54289.1	1055.82	-29743.3	0.000000	0.000000	7.804566	259.696	NaN	0.000000	0.001586	0.001718	28.0821	73.7219	0.001774	41556.3	5.243400	172.884	256.421	1.793133	0.079329	0.079060	259.696	41556.3	0.074642	0.183481	1415.38	88636.7
1083	2.000000	1.796430	7.37565e+06	-54289.1	1055.82	-29743.3	0.000000	0.000000	7.808177	273.858	NaN	0.000000	0.001556	0.001718	28.0816	77.0127	0.001994	38626.2	3.305026	176.051	274.229	1.796091	0.082357	0.082018	273.858	38626.2	0.077040	0.193898	1412.38	80143.5
1083	2.000000	1.799309	7.37565e+06	-54289.1	1055.82	-29743.3	0.000000	0.000000	7.812125	299.866	NaN	0.000000	0.001556	0.001754	28.0819	78.8707	0.001894	41648.8	6.610231	171.776	291.973	1.798993	0.085235	0.084920	299.866	41648.8	0.079835	0.206382	1452.96	83760.6
1083	2.000000	1.802403	7.37565e+06	-54289.1	1055.82	-29743.3	0.000000	0.000000	7.816061	320.32	NaN	0.000000	0.001552	0.001768	28.0819	80.6361	0.001761	45783.2	2.917190	174.807	318.339	1.802121	0.088330	0.088047	320.32	45783.2	0.083083	0.221341	1447.18	88909.5
1083	2.000000	1.805432	7.37565e+06	-54289.1	1055.82	-29743.3	0.000000	0.000000	7.819701	335.174	NaN	0.000000	0.001543	0.001717	28.0816	83.0233	0.001821	45594	0.797382	177.502	334.869	1.805062	0.091359	0.090989	335.174	45594	0.085845	0.234451	1429.62	86031.1
1083	2.000000	1.808470	7.37565e+06	-54289.1	1055.82	-29743.3	0.000000	0.000000	7.823531	354.43	NaN	0.000000	0.001588	0.001756	28.0819	86.6971	0.001808	47957.7	9.556031	168.793	354.18	1.808102	0.094397	0.094029	354.43	47957.7	0.088854	0.249128	1422.68	87784.9
1083	2.000000	1.811506	7.37565e+06	-54289.1	1055.82	-29743.3	0.000000	0.000000	7.827534	377.952	NaN	0.000000	0.001579	0.001717	28.0818	88.3687	0.001701	51955.1	9.149177	168.561	381.398	1.811039	0.097432	0.096966	377.952	51955.1	0.091976	0.264802	1427.3	92244.6
1083	2.000000	1.814441	7.37565e+06	-54289.1	1055.82	-29743.3	0.000000	0.000000	7.831150	394.51	NaN	0.000000	0.001583	0.001759	28.0821	90.2634	0.001696	53220.3	3.518628	172.78	393.445	1.814154	0.100368	0.100081	394.51	53220.3	0.094808	0.279401	1411.98	91989.2
1083	2.000000	1.817315	7.37565e+06	-54289.1	1055.82	-29743.3	0.000000	0.000000	7.835008	418.431	NaN	0.000000	0.001594	0.001720	28.0822	93.1342	0.001813	51378.2	-0.319854	177.104	413.014	1.817072	0.103241	0.102999	418.431	51378.2	0.097133	0.291663	1434.63	86918.3
1083	2.000000	1.820335	7.37565e+06	-54289.1	1055.82	-29743.3	0.000000	0.000000	7.838765	436.322	NaN	0.000000	0.001632	0.001720	28.0817	95.6439	0.001918	49854.5	-0.618946	178.186	431.657	1.820217	0.106262	0.106144	436.322	49854.5	0.099698	0.305474	1428.35	82412.1
1083	2.000000	1.820823	7.37565e+06	-54289.1	1055.82	-29743.3	0.000000	0.000000	7.839668	446.422	NaN	0.000000	0.001599	0.001731	28.0811	95.9296	0.001780	53886	1.935866	-4.829885	439.772	1.820374	0.106750	0.106301	446.422	53886	0.100536	0.310053	1439.83	88416.1