File: remote_trans/data/nanoindenter/0828-1/data/Data_2025-08-06,11h17m57s/2025-07-22_16-23-58_1_215.txt
2025-07-22, 16:23:58, 1
Index	Phase	Displacement	Time	Pos X	Pos Y	Pos Z	Rot A	Rot B	Piezo Z	Force A	Force B	Gripper	Voltage A	Voltage B	Temperature	Amplitude force	Amplitude pos	Stiffness	Phase shift	Phase excitation	Force A raw	Displacement raw	HMax	HMax raw	Real Force	Real Stiffness	Contact Depth	Area	Hardness	Reduced Mod.
[#]	[#]	[um]	[s]	[um]	[um]	[um]	[m°]	[m°]	[um]	[uN]	[uN]	[V]	[V]	[V]	[°C]	[uN]	[um]	[N/m]	[°]	[°]	[uN]	[um]	[um]	[um]	[uN]	[N/m]	[um]	[um^2]	[MPa]	[MPa]
215	1.000000	0.002035	7.36715e+06	-49389.1	955.818	-29759.6	0.000000	0.000000	6.002834	0.114196	NaN	0.000000	0.001693	0.001686	28.0784	0.074766	0.001042	71.7186	-158.98	-167.901	0.156712	0.000733	-1.120924	-1.122226	0.114196	71.7186	-1.122118	-9.928753E+14	-1.150154E-16	NaN
215	1.000000	0.012096	7.36715e+06	-49389.1	955.82	-29759.6	0.000000	0.000000	6.012892	0.046022	NaN	0.000000	0.001712	0.001682	28.0779	0.075254	0.001227	61.316	48.71	16.3833	0.017551	0.010577	-1.110863	-1.112382	0.046022	61.316	-1.111426	-7.135587E+14	-6.449675E-17	NaN
215	1.000000	0.021979	7.36715e+06	-49389.1	955.819	-29759.6	0.000000	0.000000	6.022777	0.076638	NaN	0.000000	0.001680	0.001707	28.078	0.040809	0.001726	23.6489	-20.93	-168.77	0.040399	0.020682	-1.100980	-1.102277	0.076638	23.6489	-1.103410	-5.569858E+14	-1.375933E-16	NaN
215	1.000000	0.031966	7.36715e+06	-49389.1	955.818	-29759.5	0.000000	0.000000	6.032762	0.025653	NaN	0.000000	0.001721	0.001735	28.0779	0.052242	0.001838	28.4213	-108.028	12.6748	-0.009444	0.030657	-1.090993	-1.092302	0.025653	28.4213	-1.091670	-3.874643E+14	-6.620687E-17	NaN
215	1.000000	0.041977	7.36715e+06	-49389.1	955.818	-29759.5	0.000000	0.000000	6.042773	0.048593	NaN	0.000000	0.001707	0.001756	28.0784	0.033784	0.001961	17.2245	-52.4319	-167.628	0.068182	0.040678	-1.080982	-1.082281	0.048593	17.2245	-1.083098	-2.972544E+14	-1.634715E-16	NaN
215	1.000000	0.051955	7.36715e+06	-49389.1	955.818	-29759.5	0.000000	0.000000	6.052752	0.057055	NaN	0.000000	0.001665	0.001720	28.0792	0.056011	0.002008	27.8904	143.905	15.8631	0.056706	0.050630	-1.071004	-1.072330	0.057055	27.8904	-1.072538	-2.144309E+14	-2.660765E-16	NaN
215	1.000000	0.061988	7.36715e+06	-49389.1	955.818	-29759.5	0.000000	0.000000	6.062789	0.167000	NaN	0.000000	0.001655	0.001714	28.0791	0.068307	0.001963	34.7919	-4.495763	-162.517	0.199461	0.060671	-1.060971	-1.062289	0.167000	34.7919	-1.064571	-1.675882E+14	-9.964925E-16	NaN
215	1.000000	0.071977	7.36715e+06	-49389.1	955.819	-29759.5	0.000000	0.000000	6.072776	0.106051	NaN	0.000000	0.001691	0.001676	28.0793	0.065460	0.002015	32.4936	-121.551	11.5771	0.083187	0.070623	-1.050982	-1.052336	0.106051	32.4936	-1.053430	-1.187184E+14	-8.933007E-16	NaN
215	1.000000	0.081970	7.36715e+06	-49389.1	955.818	-29759.5	0.000000	0.000000	6.082764	-0.010657	NaN	0.000000	0.001679	0.001730	28.0793	0.032871	0.002020	16.2707	39.361	-166.615	0.044000	0.080589	-1.040989	-1.042371	-0.010657	16.2707	-1.040498	-7.955401E+13	1.339626E-16	NaN
215	1.000000	0.091987	7.36715e+06	-49389.1	955.819	-29759.5	0.000000	0.000000	6.092782	0.005178	NaN	0.000000	0.001705	0.001733	28.0793	0.038782	0.001951	19.8819	1.841574	12.7045	-9.261909E-5	0.090595	-1.030972	-1.032364	0.005178	19.8819	-1.031167	-5.959137E+13	-8.688919E-17	NaN
215	1.000000	0.101971	7.36715e+06	-49389.1	955.818	-29759.5	0.000000	0.000000	6.102767	0.055414	NaN	0.000000	0.001636	0.001697	28.0792	0.043137	0.001979	21.7955	-43.7642	-164.759	-0.015107	0.100633	-1.020988	-1.022326	0.055414	21.7955	-1.022895	-4.612164E+13	-1.201472E-15	NaN
215	1.000000	0.111974	7.36715e+06	-49389.1	955.818	-29759.5	0.000000	0.000000	6.112771	0.072354	NaN	0.000000	0.001657	0.001678	28.0794	0.071883	0.001901	37.8218	-74.2111	18.4508	0.090430	0.110648	-1.010985	-1.012312	0.072354	37.8218	-1.012420	-3.333890E+13	-2.170259E-15	NaN
215	1.000000	0.121971	7.36715e+06	-49389.1	955.817	-29759.5	0.000000	0.000000	6.122765	-0.021426	NaN	0.000000	0.001628	0.001712	28.0794	0.082747	0.002045	40.4662	144.062	-165.287	-0.030457	0.120680	-1.000988	-1.002280	-0.021426	40.4662	-1.000591	-2.310596E+13	9.272822E-16	NaN
215	1.000000	0.131972	7.36715e+06	-49389.1	955.818	-29759.5	0.000000	0.000000	6.132766	-0.003055	NaN	0.000000	0.001607	0.001677	28.0794	0.083702	0.001949	42.9352	108.284	12.6363	0.006516	0.130639	-0.990988	-0.992321	-0.003055	42.9352	-0.990934	-1.712748E+13	1.783493E-16	NaN
215	1.000000	0.141994	7.36715e+06	-49389.1	955.819	-29759.5	0.000000	0.000000	6.142789	0.017260	NaN	0.000000	0.001650	0.001698	28.0793	0.046983	0.001890	24.8536	-121.041	-169.565	0.065457	0.140706	-0.980965	-0.982254	0.017260	24.8536	-0.981486	-1.277705E+13	-1.350883E-15	NaN
215	1.000000	0.152023	7.36715e+06	-49389.1	955.819	-29759.5	0.000000	0.000000	6.152819	0.035561	NaN	0.000000	0.001617	0.001741	28.0795	0.075065	0.002074	36.2	177.328	11.0667	0.014763	0.150644	-0.970936	-0.972315	0.035561	36.2	-0.971673	-9.423428E+12	-3.773702E-15	NaN
215	1.000000	0.161989	7.36715e+06	-49389.1	955.818	-29759.5	0.000000	0.000000	6.162781	-0.047510	NaN	0.000000	0.001652	0.001749	28.0795	0.087330	0.002080	41.9766	157.623	-164.172	0.015334	0.160687	-0.960970	-0.962272	-0.047510	41.9766	-0.960121	-6.584214E+12	7.215699E-15	NaN
215	1.000000	0.172005	7.36715e+06	-49389.1	955.819	-29759.5	0.000000	0.000000	6.172801	0.023109	NaN	0.000000	0.001640	0.001748	28.0792	0.016894	0.001970	8.573799	-126.311	12.6393	-0.072135	0.170629	-0.950954	-0.952331	0.023109	8.573799	-0.952975	-5.274136E+12	-4.381650E-15	NaN
215	1.000000	0.182007	7.36715e+06	-49389.1	955.818	-29759.5	0.000000	0.000000	6.182801	-0.020851	NaN	0.000000	0.001624	0.001716	28.0782	0.049579	0.002226	22.2708	-166.523	-166.562	-0.005614	0.180696	-0.940952	-0.942263	-0.020851	22.2708	-0.940250	-3.552268E+12	5.869802E-15	NaN
215	1.000000	0.191993	7.36715e+06	-49389.1	955.819	-29759.5	0.000000	0.000000	6.192788	0.013982	NaN	0.000000	0.001609	0.001724	28.0781	0.087676	0.002014	43.5229	-123.611	14.4933	0.076479	0.190628	-0.930966	-0.932332	0.013982	43.5229	-0.931207	-2.682196E+12	-5.212964E-15	NaN
215	1.000000	0.202022	7.36715e+06	-49389.1	955.818	-29759.5	0.000000	0.000000	6.202817	0.031783	NaN	0.000000	0.001581	0.001772	28.0782	0.059610	0.001971	30.2416	132.711	-166.547	0.088785	0.200681	-0.920937	-0.922278	0.031783	30.2416	-0.921726	-1.997580E+12	-1.591061E-14	NaN
215	1.000000	0.212027	7.36715e+06	-49389.1	955.818	-29759.5	0.000000	0.000000	6.212824	0.075698	NaN	0.000000	0.001574	0.001777	28.0779	0.069107	0.001959	35.2855	-97.7634	15.4299	0.066314	0.210737	-0.910932	-0.912222	0.075698	35.2855	-0.912541	-1.501354E+12	-5.042003E-14	NaN
215	1.000000	0.222023	7.36715e+06	-49389.1	955.819	-29759.5	0.000000	0.000000	6.222819	0.051407	NaN	0.000000	0.001610	0.001767	28.0781	0.087030	0.001962	44.3614	-72.849	-167.825	0.049294	0.220706	-0.900937	-0.902253	0.051407	44.3614	-0.901806	-1.075140E+12	-4.781399E-14	NaN
215	1.000000	0.232050	7.36715e+06	-49389.1	955.819	-29759.5	0.000000	0.000000	6.232847	0.066291	NaN	0.000000	0.001576	0.001787	28.0781	0.026293	0.001974	13.3192	-63.0435	11.3292	0.029501	0.230699	-0.890909	-0.892260	0.066291	13.3192	-0.894642	-8.603126E+11	-7.705436E-14	NaN
215	1.000000	0.242043	7.36715e+06	-49389.1	955.819	-29759.5	0.000000	0.000000	6.242841	0.078210	NaN	0.000000	0.001595	0.001744	28.0781	0.002399	0.002102	1.141649	118.323	-165.81	0.009979	0.240732	-0.880916	-0.882227	0.078210	1.141649	-0.932295	-2.774443E+12	-2.818932E-14	NaN
215	1.000000	0.252049	7.36715e+06	-49389.1	955.818	-29759.5	0.000000	0.000000	6.252846	0.065414	NaN	0.000000	0.001560	0.001762	28.0779	0.030680	0.001881	16.308	-122.261	12.0446	0.042212	0.250651	-0.870910	-0.872308	0.065414	16.308	-0.873919	-4.512929E+11	-1.449480E-13	NaN
215	1.000000	0.262030	7.36715e+06	-49389.1	955.819	-29759.5	0.000000	0.000000	6.262824	0.008312	NaN	0.000000	0.001584	0.001789	28.0782	0.116387	0.001927	60.3873	170.236	-165.659	0.058167	0.260733	-0.860929	-0.862226	0.008312	60.3873	-0.861033	-3.020623E+11	-2.751908E-14	NaN
215	1.000000	0.272057	7.36715e+06	-49389.1	955.817	-29759.5	0.000000	0.000000	6.272854	0.084229	NaN	0.000000	0.001562	0.001744	28.0783	0.040806	0.001939	21.0502	-171.411	15.5263	0.082865	0.270662	-0.850903	-0.852297	0.084229	21.0502	-0.853904	-2.418760E+11	-3.482313E-13	NaN
215	1.000000	0.282023	7.36715e+06	-49389.1	955.819	-29759.5	0.000000	0.000000	6.282819	0.049151	NaN	0.000000	0.001613	0.001729	28.0783	0.082681	0.002028	40.7762	3.895286	-161.159	0.096680	0.280776	-0.840936	-0.842184	0.049151	40.7762	-0.841840	-1.660437E+11	-2.960136E-13	NaN
215	1.000000	0.292036	7.36715e+06	-49389.1	955.82	-29759.5	0.000000	0.000000	6.292832	0.034697	NaN	0.000000	0.001602	0.001713	28.0782	0.036652	0.002110	17.373	-68.444	15.155	-0.008552	0.290687	-0.830923	-0.832272	0.034697	17.373	-0.832421	-1.237647E+11	-2.803442E-13	NaN
215	1.000000	0.302048	7.36715e+06	-49389.1	955.819	-29759.5	0.000000	0.000000	6.302847	0.118552	NaN	0.000000	0.001638	0.001740	28.0784	0.052998	0.002003	26.4535	-72.3056	-165.595	0.124365	0.300753	-0.820912	-0.822207	0.118552	26.4535	-0.824273	-9.597233E+10	-1.235270E-12	NaN
215	1.000000	0.312051	7.36715e+06	-49389.1	955.818	-29759.5	0.000000	0.000000	6.312846	0.024612	NaN	0.000000	0.001623	0.001769	28.0779	0.017886	0.001974	9.059511	71.5354	16.2121	0.004470	0.310744	-0.810908	-0.812215	0.024612	9.059511	-0.812946	-6.738104E+10	-3.652614E-13	NaN
215	1.000000	0.322055	7.36715e+06	-49389.1	955.818	-29759.5	0.000000	0.000000	6.322851	0.056803	NaN	0.000000	0.001614	0.001747	28.0794	0.033798	0.002001	16.891	-75.7834	-166.489	0.119367	0.320747	-0.800904	-0.802212	0.056803	16.891	-0.803427	-5.004622E+10	-1.135002E-12	NaN
215	1.000000	0.332074	7.36715e+06	-49389.1	955.818	-29759.5	0.000000	0.000000	6.332871	0.062005	NaN	0.000000	0.001615	0.001712	28.0791	0.038482	0.001963	19.6064	111.26	12.0041	0.101471	0.330714	-0.790885	-0.792246	0.062005	19.6064	-0.793257	-3.641781E+10	-1.702589E-12	NaN
215	1.000000	0.342070	7.36715e+06	-49389.1	955.818	-29759.5	0.000000	0.000000	6.342869	0.127483	NaN	0.000000	0.001634	0.001733	28.0792	0.085435	0.002139	39.9408	153.802	-166.976	0.034072	0.340784	-0.780890	-0.782175	0.127483	39.9408	-0.783283	-2.665917E+10	-4.781946E-12	NaN
215	1.000000	0.352098	7.36715e+06	-49389.1	955.818	-29759.5	0.000000	0.000000	6.352895	0.058704	NaN	0.000000	0.001627	0.001774	28.079	0.176089	0.001942	90.6889	-97.9175	11.793	0.085137	0.350754	-0.770861	-0.772205	0.058704	90.6889	-0.771346	-1.834884E+10	-3.199306E-12	NaN
215	1.000000	0.362089	7.36715e+06	-49389.1	955.817	-29759.5	0.000000	0.000000	6.362888	0.099336	NaN	0.000000	0.001622	0.001752	28.079	0.013006	0.002107	6.173348	2.676022	-166.042	0.058528	0.360802	-0.760870	-0.762157	0.099336	6.173348	-0.772938	-1.928632E+10	-5.150584E-12	NaN
215	1.000000	0.372120	7.36715e+06	-49389.1	955.818	-29759.5	0.000000	0.000000	6.372920	0.151658	NaN	0.000000	0.001664	0.001749	28.0792	0.137087	0.002000	68.5337	-14.9322	15.102	0.140011	0.370736	-0.750840	-0.752224	0.151658	68.5337	-0.752499	-1.016805E+10	-1.491512E-11	NaN
215	1.000000	0.382112	7.36715e+06	-49389.1	955.818	-29759.5	0.000000	0.000000	6.382908	0.050700	NaN	0.000000	0.001619	0.001764	28.0792	0.030399	0.001999	15.2094	-147.854	-165.025	0.041924	0.380768	-0.740847	-0.742191	0.050700	15.2094	-0.743347	-7.632124E+9	-6.643029E-12	NaN
215	1.000000	0.392092	7.36715e+06	-49389.1	955.819	-29759.5	0.000000	0.000000	6.392890	0.092033	NaN	0.000000	0.001594	0.001752	28.0791	0.142346	0.001981	71.8661	176.118	12.3899	0.010992	0.390715	-0.730867	-0.732244	0.092033	71.8661	-0.731827	-5.317529E+9	-1.730750E-11	NaN
215	1.000000	0.402072	7.36715e+06	-49389.1	955.818	-29759.5	0.000000	0.000000	6.402870	0.082132	NaN	0.000000	0.001603	0.001693	28.0789	0.075515	0.001978	38.1829	65.5771	-165.302	-0.018462	0.400784	-0.720887	-0.722175	0.082132	38.1829	-0.722500	-3.967981E+9	-2.069875E-11	NaN
215	1.000000	0.412081	7.36715e+06	-49389.1	955.818	-29759.5	0.000000	0.000000	6.412879	0.097045	NaN	0.000000	0.001577	0.001740	28.0792	0.026370	0.001927	13.681	-46.4225	15.3484	0.125138	0.410761	-0.710878	-0.712199	0.097045	13.681	-0.716198	-3.255529E+9	-2.980922E-11	NaN
215	1.000000	0.422111	7.36715e+06	-49389.1	955.819	-29759.5	0.000000	0.000000	6.422908	0.078894	NaN	0.000000	0.001563	0.001745	28.0791	0.144874	0.001921	75.4239	53.1453	-165.225	0.094986	0.420840	-0.700848	-0.702119	0.078894	75.4239	-0.701633	-2.059821E+9	-3.830118E-11	NaN
215	1.000000	0.432117	7.36715e+06	-49389.1	955.819	-29759.5	0.000000	0.000000	6.432913	0.053463	NaN	0.000000	0.001597	0.001744	28.079	0.075903	0.001990	38.1337	94.0938	12.5149	0.049518	0.430753	-0.690842	-0.692206	0.053463	38.1337	-0.691894	-1.516348E+9	-3.525741E-11	NaN
215	1.000000	0.442123	7.36715e+06	-49389.1	955.819	-29759.5	0.000000	0.000000	6.442922	0.102933	NaN	0.000000	0.001589	0.001718	28.0787	0.034145	0.001957	17.4476	-48.176	-163.405	0.142295	0.440807	-0.680836	-0.682152	0.102933	17.4476	-0.685261	-1.230665E+9	-8.363983E-11	NaN
215	1.000000	0.452118	7.36715e+06	-49389.1	955.819	-29759.5	0.000000	0.000000	6.452910	-0.052171	NaN	0.000000	0.001624	0.001776	28.0785	0.013946	0.002017	6.914790	124.415	12.9683	-0.040501	0.450789	-0.670841	-0.672170	-0.052171	6.914790	-0.665182	-6.537925E+8	7.979783E-11	NaN
215	1.000000	0.462128	7.36715e+06	-49389.1	955.819	-29759.5	0.000000	0.000000	6.462923	0.019191	NaN	0.000000	0.001563	0.001734	28.0776	0.021138	0.001972	10.7214	0.080630	-169.57	0.053619	0.460852	-0.660831	-0.662107	0.019191	10.7214	-0.662173	-5.946163E+8	-3.227455E-11	NaN
215	1.000000	0.472167	7.36715e+06	-49389.1	955.819	-29759.5	0.000000	0.000000	6.472965	0.109539	NaN	0.000000	0.001617	0.001768	28.0775	0.085445	0.002011	42.4828	81.7713	12.7148	0.102358	0.470815	-0.650792	-0.652144	0.109539	42.4828	-0.652726	-4.413744E+8	-2.481770E-10	NaN
215	1.000000	0.482160	7.36715e+06	-49389.1	955.818	-29759.5	0.000000	0.000000	6.482956	0.047097	NaN	0.000000	0.001668	0.001765	28.0774	0.105292	0.001989	52.9437	45.7883	-168.124	0.106755	0.480844	-0.640800	-0.642116	0.047097	52.9437	-0.641467	-3.093239E+8	-1.522575E-10	NaN
215	1.000000	0.492142	7.36715e+06	-49389.1	955.819	-29759.5	0.000000	0.000000	6.492939	0.066692	NaN	0.000000	0.001661	0.001776	28.0778	0.041084	0.001910	21.5143	81.3845	14.0962	0.028371	0.490781	-0.630817	-0.632178	0.066692	21.5143	-0.633142	-2.377756E+8	-2.804841E-10	NaN
215	1.000000	0.502135	7.36715e+06	-49389.1	955.819	-29759.5	0.000000	0.000000	6.502931	0.048586	NaN	0.000000	0.001699	0.001749	28.0775	0.125393	0.001973	63.5392	-17.2901	-165.185	0.079806	0.500817	-0.620824	-0.622142	0.048586	63.5392	-0.621398	-1.640005E+8	-2.962572E-10	NaN
215	1.000000	0.512149	7.36715e+06	-49389.1	955.819	-29759.5	0.000000	0.000000	6.512946	0.072362	NaN	0.000000	0.001678	0.001793	28.0778	0.084022	0.001972	42.6	-116.721	13.5785	0.003965	0.510767	-0.610810	-0.612192	0.072362	42.6	-0.612084	-1.221205E+8	-5.925470E-10	NaN
215	1.000000	0.522158	7.36715e+06	-49389.1	955.817	-29759.5	0.000000	0.000000	6.522951	-0.036882	NaN	0.000000	0.001709	0.001755	28.0777	0.131171	0.002011	65.24	38.384	-167.16	0.057738	0.520766	-0.600801	-0.602193	-0.036882	65.24	-0.600377	-8.426536E+7	4.376922E-10	NaN
215	1.000000	0.532161	7.36715e+06	-49389.1	955.818	-29759.5	0.000000	0.000000	6.532959	0.094032	NaN	0.000000	0.001658	0.001747	28.0781	0.108599	0.001934	56.1483	-147.374	13.1455	0.027241	0.530770	-0.590799	-0.592189	0.094032	56.1483	-0.592055	-6.471282E+7	-1.453065E-9	NaN
215	1.000000	0.542180	7.36715e+06	-49389.1	955.819	-29759.5	0.000000	0.000000	6.542976	0.059810	NaN	0.000000	0.001672	0.001746	28.0778	0.065264	0.002187	29.848	116.991	-167.489	-0.014558	0.540873	-0.580779	-0.582086	0.059810	29.848	-0.582282	-4.744845E+7	-1.260523E-9	NaN
215	1.000000	0.552169	7.36715e+06	-49389.1	955.818	-29759.5	0.000000	0.000000	6.552967	0.085514	NaN	0.000000	0.001694	0.001738	28.0782	0.054665	0.001930	28.3257	-69.6442	12.1153	0.041152	0.550834	-0.570790	-0.572125	0.085514	28.3257	-0.573055	-3.538601E+7	-2.416604E-9	NaN
215	1.000000	0.562176	7.36715e+06	-49389.1	955.818	-29759.5	0.000000	0.000000	6.562972	0.049075	NaN	0.000000	0.001658	0.001749	28.0779	0.161491	0.002075	77.8214	104.487	-167.481	0.025609	0.560820	-0.560783	-0.562139	0.049075	77.8214	-0.561256	-2.430848E+7	-2.018835E-9	NaN
215	1.000000	0.572175	7.36715e+06	-49389.1	955.818	-29759.5	0.000000	0.000000	6.572973	0.083727	NaN	0.000000	0.001670	0.001752	28.0781	0.062343	0.002162	28.8393	-72.1169	11.8158	0.069950	0.570838	-0.550784	-0.552121	0.083727	28.8393	-0.552961	-1.866219E+7	-4.486426E-9	NaN
215	1.000000	0.582155	7.36715e+06	-49389.1	955.819	-29759.5	0.000000	0.000000	6.582953	0.073022	NaN	0.000000	0.001664	0.001726	28.0777	0.052144	0.001986	26.255	103.833	-166.937	0.067337	0.580885	-0.540804	-0.542075	0.073022	26.255	-0.542890	-1.353407E+7	-5.395421E-9	NaN
215	1.000000	0.592215	7.36715e+06	-49389.1	955.819	-29759.5	0.000000	0.000000	6.593010	0.031858	NaN	0.000000	0.001667	0.001733	28.079	0.048405	0.001857	26.0631	26.8478	13.5373	-0.006470	0.590837	-0.530745	-0.532123	0.031858	26.0631	-0.531661	-9.45465e+06	-3.369543E-9	NaN
215	1.000000	0.602205	7.36715e+06	-49389.1	955.819	-29759.5	0.000000	0.000000	6.602999	-0.009168	NaN	0.000000	0.001652	0.001708	28.079	0.081135	0.001989	40.7952	137.333	-166.991	-0.003281	0.600909	-0.520754	-0.522050	-0.009168	40.7952	-0.520585	-6.63343e+06	1.382100E-9	NaN
215	1.000000	0.612193	7.36715e+06	-49389.1	955.818	-29759.5	0.000000	0.000000	6.612987	-0.013392	NaN	0.000000	0.001654	0.001751	28.079	0.030380	0.001957	15.5279	-71.6412	11.6204	-0.021426	0.610838	-0.510766	-0.512121	-0.013392	15.5279	-0.510119	-4.74321e+06	2.823412E-9	NaN
215	1.000000	0.622219	7.36715e+06	-49389.1	955.82	-29759.5	0.000000	0.000000	6.623016	0.062591	NaN	0.000000	0.001642	0.001716	28.0792	0.031540	0.002027	15.5575	155.464	-164.331	0.088981	0.620865	-0.500740	-0.502094	0.062591	15.5575	-0.503758	-3.86748e+06	-1.618394E-8	NaN
215	1.000000	0.632200	7.36715e+06	-49389.1	955.819	-29759.5	0.000000	0.000000	6.632998	0.107620	NaN	0.000000	0.001660	0.001725	28.079	0.121197	0.002041	59.3833	-104.26	12.3	0.051434	0.630826	-0.490760	-0.492133	0.107620	59.3833	-0.492119	-2.66071e+06	-4.044768E-8	NaN
215	1.000000	0.642202	7.36715e+06	-49389.1	955.818	-29759.5	0.000000	0.000000	6.642999	0.065234	NaN	0.000000	0.001597	0.001774	28.0792	0.111029	0.001994	55.6813	-56.3431	-166.569	0.100152	0.640861	-0.480757	-0.482098	0.065234	55.6813	-0.481636	-1.89856e+06	-3.435955E-8	NaN
215	1.000000	0.652184	7.36715e+06	-49389.1	955.819	-29759.5	0.000000	0.000000	6.652979	0.003405	NaN	0.000000	0.001569	0.001750	28.0791	0.084997	0.002112	40.2491	-118.021	14.4219	0.049785	0.650847	-0.470775	-0.472112	0.003405	40.2491	-0.470838	-1.34018e+06	-2.540783E-9	NaN
215	1.000000	0.662224	7.36715e+06	-49389.1	955.818	-29759.5	0.000000	0.000000	6.663018	8.285496E-5	NaN	0.000000	0.001584	0.001748	28.0792	0.022280	0.002051	10.8622	149.443	-167.671	0.064954	0.660885	-0.460736	-0.462075	8.285496E-5	10.8622	-0.460741	-967020	-8.568067E-11	NaN
215	1.000000	0.672197	7.36715e+06	-49389.1	955.819	-29759.5	0.000000	0.000000	6.672992	0.016332	NaN	0.000000	0.001606	0.001757	28.0791	0.116211	0.002029	57.2733	0.980466	14.0353	0.058021	0.670905	-0.450762	-0.452054	0.016332	57.2733	-0.450976	-704832	-2.317174E-8	NaN
215	1.000000	0.682206	7.36715e+06	-49389.1	955.818	-29759.5	0.000000	0.000000	6.682999	-0.040110	NaN	0.000000	0.001616	0.001744	28.0795	0.135213	0.001891	71.4991	114.588	-167.661	-0.048994	0.680902	-0.440753	-0.442057	-0.040110	71.4991	-0.440332	-498948	8.038854E-8	NaN
215	1.000000	0.692224	7.36715e+06	-49389.1	955.818	-29759.5	0.000000	0.000000	6.693021	0.061368	NaN	0.000000	0.001624	0.001730	28.0793	0.111884	0.001944	57.5394	89.044	8.838278	0.118816	0.690855	-0.430735	-0.432104	0.061368	57.5394	-0.431535	-374779	-1.637437E-7	NaN
215	1.000000	0.702217	7.36715e+06	-49389.1	955.818	-29759.5	0.000000	0.000000	6.703010	-0.023152	NaN	0.000000	0.001624	0.001727	28.0794	0.028980	0.002003	14.4672	-118.019	-166.839	0.086775	0.700861	-0.420742	-0.422098	-0.023152	14.4672	-0.419542	-253467	9.134089E-8	NaN
215	1.000000	0.712250	7.36715e+06	-49389.1	955.819	-29759.5	0.000000	0.000000	6.713046	0.055616	NaN	0.000000	0.001577	0.001748	28.0794	0.064318	0.002027	31.7364	20.379	15.2407	0.029493	0.710858	-0.410710	-0.412101	0.055616	31.7364	-0.412024	-198232	-2.805609E-7	NaN
215	1.000000	0.722246	7.36715e+06	-49389.1	955.818	-29759.5	0.000000	0.000000	6.723042	0.035457	NaN	0.000000	0.001615	0.001723	28.0795	0.112620	0.001978	56.9404	99.5619	-164.447	0.091395	0.720912	-0.400713	-0.402047	0.035457	56.9404	-0.401180	-138937	-2.551998E-7	NaN
215	1.000000	0.732238	7.36715e+06	-49389.1	955.819	-29759.5	0.000000	0.000000	6.733034	0.041638	NaN	0.000000	0.001634	0.001734	28.0779	0.062272	0.002100	29.6595	175.391	12.2982	-3.709727E-6	0.730887	-0.390721	-0.392073	0.041638	29.6595	-0.391774	-101986	-4.082745E-7	NaN
215	1.000000	0.742218	7.36715e+06	-49389.1	955.819	-29759.5	0.000000	0.000000	6.743012	-0.022267	NaN	0.000000	0.001608	0.001736	28.0779	0.096181	0.002133	45.0988	-46.4799	-168.416	-0.010136	0.740912	-0.380741	-0.382047	-0.022267	45.0988	-0.380371	-70017.9	3.180190E-7	NaN
215	1.000000	0.752232	7.36715e+06	-49389.1	955.818	-29759.5	0.000000	0.000000	6.753027	0.002798	NaN	0.000000	0.001596	0.001747	28.0778	0.057258	0.001964	29.1528	115.92	13.2142	-0.049728	0.750913	-0.370727	-0.372046	0.002798	29.1528	-0.370799	-51007	-5.486195E-8	NaN
215	1.000000	0.762232	7.36715e+06	-49389.1	955.818	-29759.5	0.000000	0.000000	6.763026	0.013717	NaN	0.000000	0.001581	0.001769	28.0782	0.020914	0.001942	10.7668	-100.5	-163.235	0.037331	0.760934	-0.360728	-0.362025	0.013717	10.7668	-0.361683	-37684.9	-3.639813E-7	NaN
215	1.000000	0.772240	7.36715e+06	-49389.1	955.818	-29759.5	0.000000	0.000000	6.773038	0.107746	NaN	0.000000	0.001634	0.001802	28.0779	0.090935	0.002033	44.7191	-52.7025	16.1987	0.022974	0.770895	-0.350719	-0.352065	0.107746	44.7191	-0.352526	-27774.8	-3.879258E-6	NaN
215	1.000000	0.782249	7.36715e+06	-49389.1	955.82	-29759.5	0.000000	0.000000	6.783044	0.030859	NaN	0.000000	0.001587	0.001763	28.0783	0.079570	0.001969	40.4137	44.0848	-166.163	0.066354	0.780993	-0.340710	-0.341966	0.030859	40.4137	-0.341283	-19065.6	-1.618564E-6	NaN
215	1.000000	0.792282	7.36715e+06	-49389.1	955.819	-29759.5	0.000000	0.000000	6.793080	0.072825	NaN	0.000000	0.001608	0.001729	28.0781	0.135642	0.001912	70.9474	-124.336	14.5757	0.014252	0.790849	-0.330677	-0.332110	0.072825	70.9474	-0.331447	-13697.1	-5.316832E-6	NaN
215	1.000000	0.802283	7.36715e+06	-49389.1	955.819	-29759.5	0.000000	0.000000	6.803079	0.044022	NaN	0.000000	0.001624	0.001743	28.0785	0.124648	0.002019	61.732	-105.659	-164.681	0.101848	0.800928	-0.320676	-0.322032	0.044022	61.732	-0.321211	-9692.94	-4.541701E-6	NaN
215	1.000000	0.812270	7.36715e+06	-49389.1	955.819	-29759.5	0.000000	0.000000	6.813066	0.057100	NaN	0.000000	0.001601	0.001739	28.0779	0.143076	0.001999	71.578	36.188	11.9928	0.099390	0.810881	-0.310689	-0.312079	0.057100	71.578	-0.311288	-6919.97	-8.251418E-6	NaN
215	1.000000	0.822280	7.36715e+06	-49389.1	955.819	-29759.5	0.000000	0.000000	6.823075	0.021936	NaN	0.000000	0.001628	0.001754	28.0781	0.076794	0.002017	38.0689	44.2731	-167.621	0.000230	0.820983	-0.300680	-0.301976	0.021936	38.0689	-0.301112	-4888.56	-4.487135E-6	NaN
215	1.000000	0.832269	7.36715e+06	-49389.1	955.819	-29759.5	0.000000	0.000000	6.833064	0.016188	NaN	0.000000	0.001585	0.001741	28.0781	0.122023	0.001964	62.1177	-128.402	12.1136	0.017520	0.830906	-0.290690	-0.292053	0.016188	62.1177	-0.290885	-3440.02	-4.705818E-6	NaN
215	1.000000	0.842294	7.36715e+06	-49389.1	955.819	-29759.5	0.000000	0.000000	6.843089	0.008253	NaN	0.000000	0.001571	0.001737	28.0784	0.103241	0.002059	50.1302	136.67	-167.593	0.031942	0.840955	-0.280665	-0.282004	0.008253	50.1302	-0.280788	-2425.84	-3.402262E-6	NaN
215	1.000000	0.852288	7.36715e+06	-49389.1	955.819	-29759.5	0.000000	0.000000	6.853083	0.015360	NaN	0.000000	0.001715	0.001745	28.078	0.021656	0.002048	10.5741	-9.478564	13.9467	-0.032500	0.850948	-0.270671	-0.272011	0.015360	10.5741	-0.271761	-1771.29	-8.671394E-6	NaN
215	1.000000	0.862307	7.36715e+06	-49389.1	955.819	-29759.5	0.000000	0.000000	6.863104	0.065922	NaN	0.000000	0.001717	0.001719	28.0789	0.018699	0.001939	9.641571	146.014	-164.702	0.024512	0.860983	-0.260652	-0.261976	0.065922	9.641571	-0.265780	-1436.46	-4.589181E-5	NaN
215	1.000000	0.872293	7.36715e+06	-49389.1	955.818	-29759.5	0.000000	0.000000	6.873086	-0.029033	NaN	0.000000	0.001703	0.001705	28.0793	0.022097	0.002045	10.8081	142.077	12.5786	-0.024076	0.870940	-0.250666	-0.252019	-0.029033	10.8081	-0.248651	-783.595	3.705085E-5	NaN
215	1.000000	0.882302	7.36715e+06	-49389.1	955.819	-29759.5	0.000000	0.000000	6.883097	0.012393	NaN	0.000000	0.001707	0.001716	28.0795	0.050678	0.001933	26.2117	-164.998	-167.942	0.051064	0.881009	-0.240657	-0.241950	0.012393	26.2117	-0.241011	-596.132	-2.078983E-5	NaN
215	1.000000	0.892294	7.36715e+06	-49389.1	955.819	-29759.5	0.000000	0.000000	6.893091	0.054329	NaN	0.000000	0.001670	0.001717	28.079	0.053950	0.002002	26.9508	-133.862	13.3964	0.051333	0.890975	-0.230665	-0.231984	0.054329	26.9508	-0.232177	-433.36	-0.000125	NaN
215	1.000000	0.902324	7.36715e+06	-49389.1	955.819	-29759.5	0.000000	0.000000	6.903119	0.013939	NaN	0.000000	0.001650	0.001744	28.0791	0.060053	0.002086	28.7947	80.7293	-168.193	0.040982	0.901091	-0.220635	-0.221868	0.013939	28.7947	-0.220998	-288.148	-4.837607E-5	NaN
215	1.000000	0.912315	7.36715e+06	-49389.1	955.818	-29759.5	0.000000	0.000000	6.913111	0.031199	NaN	0.000000	0.001657	0.001744	28.0797	0.043485	0.001958	22.2075	86.3553	13.7327	0.077832	0.910937	-0.210644	-0.212023	0.031199	22.2075	-0.211697	-204.303	-0.000153	NaN
215	1.000000	0.922309	7.36715e+06	-49389.1	955.819	-29759.5	0.000000	0.000000	6.923109	0.143134	NaN	0.000000	0.001639	0.001725	28.0791	0.037500	0.001933	19.4045	-106.377	-165.841	0.174979	0.920993	-0.200650	-0.201966	0.143134	19.4045	-0.206183	-166.277	-0.000861	NaN
215	1.000000	0.932329	7.36715e+06	-49389.1	955.819	-29759.5	0.000000	0.000000	6.933126	0.082714	NaN	0.000000	0.001634	0.001709	28.0792	0.077543	0.001962	39.5202	-100.837	14.8686	0.062784	0.930981	-0.190630	-0.191978	0.082714	39.5202	-0.192200	-97.8845	-0.000845	NaN
215	1.000000	0.942343	7.36715e+06	-49389.1	955.819	-29759.5	0.000000	0.000000	6.943140	0.069860	NaN	0.000000	0.001600	0.001726	28.079	0.113637	0.002017	56.3424	152.127	-165.164	-0.008697	0.940981	-0.180616	-0.181979	0.069860	56.3424	-0.181546	-64.8241	-0.001078	NaN
215	1.000000	0.952355	7.36715e+06	-49389.1	955.818	-29759.5	0.000000	0.000000	6.953151	0.049609	NaN	0.000000	0.001571	0.001796	28.0793	0.054389	0.001915	28.4067	-103.472	14.7691	0.028659	0.950977	-0.170604	-0.171982	0.049609	28.4067	-0.171914	-44.3384	-0.001119	NaN
215	1.000000	0.962320	7.36715e+06	-49389.1	955.817	-29759.5	0.000000	0.000000	6.963116	0.028780	NaN	0.000000	0.001605	0.001725	28.0791	0.060179	0.001933	31.1367	25.3236	-167.992	0.048740	0.961037	-0.160639	-0.161922	0.028780	31.1367	-0.161332	-28.9482	-0.000994	NaN
215	1.000000	0.972370	7.36715e+06	-49389.1	955.819	-29759.5	0.000000	0.000000	6.973166	0.037616	NaN	0.000000	0.001650	0.001756	28.0793	0.001044	0.001950	0.535377	-83.5821	14.9626	-0.005921	0.971044	-0.150589	-0.151916	0.037616	0.535377	-0.203285	-149.126	-0.000252	NaN
215	1.000000	0.982342	7.36715e+06	-49389.1	955.819	-29759.5	0.000000	0.000000	6.983139	0.065887	NaN	0.000000	0.001645	0.001742	28.0793	0.031413	0.001957	16.0549	53.2589	-166.149	0.077703	0.981019	-0.140617	-0.141940	0.065887	16.0549	-0.143695	-13.8669	-0.004751	NaN
215	1.000000	0.992339	7.36715e+06	-49389.1	955.818	-29759.5	0.000000	0.000000	6.993132	-0.031138	NaN	0.000000	0.001643	0.001713	28.0793	0.093956	0.002119	44.337	-94.3925	12.4367	-0.035357	0.990978	-0.130621	-0.131981	-0.031138	44.337	-0.130094	-7.653026	0.004069	NaN
215	1.000000	1.002360	7.36715e+06	-49389.1	955.817	-29759.5	0.000000	0.000000	7.003156	0.040748	NaN	0.000000	0.001665	0.001786	28.078	0.068718	0.001856	37.0168	163.119	-166.852	-0.024424	1.000984	-0.120599	-0.121975	0.040748	37.0168	-0.121425	-5.161328	-0.007895	NaN
215	1.000000	1.012388	7.36715e+06	-49389.1	955.818	-29759.5	0.000000	0.000000	7.013186	0.077415	NaN	0.000000	0.001650	0.001794	28.0778	0.026247	0.002059	12.7457	58.2592	12.9072	0.092460	1.010996	-0.110571	-0.111963	0.077415	12.7457	-0.115126	-3.843330	-0.020143	NaN
215	1.000000	1.022359	7.36715e+06	-49389.1	955.818	-29759.5	0.000000	0.000000	7.023156	0.060462	NaN	0.000000	0.001629	0.001762	28.078	0.051485	0.002020	25.4918	-55.1206	-166.073	0.023246	1.021068	-0.100600	-0.101891	0.060462	25.4918	-0.102379	-2.061484	-0.029329	NaN
215	1.000000	1.032373	7.36715e+06	-49389.1	955.818	-29759.5	0.000000	0.000000	7.033170	0.075130	NaN	0.000000	0.001644	0.001751	28.0781	0.065738	0.001902	34.5556	179.725	14.0052	0.066060	1.031039	-0.090587	-0.091920	0.075130	34.5556	-0.092217	-1.217575	-0.061705	NaN
215	1.000000	1.042381	7.36715e+06	-49389.1	955.817	-29759.5	0.000000	0.000000	7.043177	0.037128	NaN	0.000000	0.001654	0.001727	28.0779	0.022290	0.002111	10.5588	151.136	-168.211	0.015036	1.041040	-0.080578	-0.081919	0.037128	10.5588	-0.083216	-0.743436	-0.049941	NaN
215	1.000000	1.052401	7.36715e+06	-49389.1	955.817	-29759.5	0.000000	0.000000	7.053197	0.029247	NaN	0.000000	0.001643	0.001701	28.078	0.073546	0.001990	36.9544	140.101	14.5378	0.109450	1.051031	-0.070558	-0.071928	0.029247	36.9544	-0.071152	-0.366116	-0.079886	NaN
215	1.000000	1.062378	7.36715e+06	-49389.1	955.818	-29759.5	0.000000	0.000000	7.063173	0.027414	NaN	0.000000	0.001628	0.001759	28.078	0.069331	0.002115	32.7817	119.576	-169.356	0.081053	1.061060	-0.060581	-0.061900	0.027414	32.7817	-0.061208	-0.194996	-0.140586	NaN
215	1.000000	1.072384	7.36715e+06	-49389.1	955.817	-29759.5	0.000000	0.000000	7.073177	-0.018644	NaN	0.000000	0.001630	0.001748	28.0779	0.072103	0.001997	36.1023	108.33	14.1686	-0.012185	1.071031	-0.050576	-0.051928	-0.018644	36.1023	-0.050188	-0.092455	0.201653	NaN
215	1.000000	1.082374	7.36715e+06	-49389.1	955.817	-29759.5	0.000000	0.000000	7.083168	-0.000814	NaN	0.000000	0.001685	0.001728	28.0778	0.038768	0.002050	18.9149	13.4011	-169.136	-0.041096	1.081112	-0.040585	-0.041848	-0.000814	18.9149	-0.040553	-0.047006	0.017321	NaN
215	1.000000	1.092408	7.36715e+06	-49389.1	955.818	-29759.5	0.000000	0.000000	7.093206	0.099953	NaN	0.000000	0.001637	0.001718	28.0779	0.054585	0.002004	27.2375	77.2948	14.9985	0.091757	1.090993	-0.030552	-0.031966	0.099953	27.2375	-0.033304	-0.028571	-3.498460	NaN
215	1.000000	1.102411	7.36715e+06	-49389.1	955.817	-29759.5	0.000000	0.000000	7.103205	-0.001215	NaN	0.000000	0.001590	0.001713	28.0782	0.035566	0.002092	17.0037	-44.7937	-162.886	0.033814	1.101070	-0.020548	-0.021889	-0.001215	17.0037	-0.020495	-0.012930	0.093942	NaN
215	1.000000	1.112408	7.36715e+06	-49389.1	955.817	-29759.5	0.000000	0.000000	7.113205	0.083050	NaN	0.000000	0.001601	0.001726	28.0784	0.043574	0.002242	19.4332	146.803	15.3217	0.073452	1.111010	-0.010551	-0.011949	0.083050	19.4332	-0.013757	-0.008541	-9.723633	NaN
215	1.000000	1.122381	7.36715e+06	-49389.1	955.817	-29759.5	0.000000	0.000000	7.123182	0.152349	NaN	0.000000	0.001654	0.001723	28.0779	0.215588	0.001894	113.803	-6.117595	-166.66	0.065414	1.121097	-0.000578	-0.001862	0.152349	113.803	-0.001582	-0.001147	-132.784	NaN
215	2.000000	1.131465	7.36715e+06	-49389.1	955.817	-29759.5	0.000000	0.000000	7.132612	8.571804	NaN	0.000000	0.001669	0.001743	28.0783	8.432076	0.001577	5346.84	7.482662	7.913659	8.002499	1.130841	0.008506	0.007882	8.571804	5346.84	0.007304	0.006336	1352.92	61372
215	2.000000	1.133938	7.36715e+06	-49389.1	955.818	-29759.5	0.000000	0.000000	7.135242	12.4031	NaN	0.000000	0.001700	0.001752	28.0794	11.219	0.001675	6699.23	9.032804	-177.039	11.3534	1.133656	0.010979	0.010696	12.4031	6699.23	0.009590	0.008730	1420.8	65508.8
215	2.000000	1.136477	7.36715e+06	-49389.1	955.818	-29759.5	0.000000	0.000000	7.137882	14.8581	NaN	0.000000	0.001725	0.001734	28.0796	13.8819	0.001641	8460.74	9.538261	2.005121	15.5544	1.136127	0.013518	0.013168	14.8581	8460.74	0.012201	0.011731	1266.52	71368.3
215	2.000000	1.138938	7.36715e+06	-49389.1	955.818	-29759.5	0.000000	0.000000	7.140494	18.5439	NaN	0.000000	0.001729	0.001728	28.0791	16.6004	0.001803	9206.87	2.865466	-173.186	17.7525	1.138708	0.015978	0.015749	18.5439	9206.87	0.014468	0.014582	1271.67	69658
215	2.000000	1.141411	7.36715e+06	-49389.1	955.817	-29759.5	0.000000	0.000000	7.143252	25.461	NaN	0.000000	0.001673	0.001710	28.08	18.8911	0.001749	10803.7	4.810169	4.080483	23.3761	1.141040	0.018452	0.018081	25.461	10803.7	0.016684	0.017597	1446.86	74408.3
215	2.000000	1.143885	7.36715e+06	-49389.1	955.817	-29759.5	0.000000	0.000000	7.145938	30.5965	NaN	0.000000	0.001606	0.001691	28.0795	21.6601	0.001843	11755.3	5.845066	-177.344	29.2684	1.143566	0.020926	0.020607	30.5965	11755.3	0.018974	0.020956	1460.06	74191.9
215	2.000000	1.146380	7.36715e+06	-49389.1	955.818	-29759.5	0.000000	0.000000	7.148526	32.8961	NaN	0.000000	0.001630	0.001726	28.08	24.078	0.001885	12775.8	9.217672	-1.851422	30.9997	1.146069	0.023420	0.023110	32.8961	12775.8	0.021489	0.024937	1319.19	73916.5
215	2.000000	1.148873	7.36715e+06	-49389.1	955.818	-29759.5	0.000000	0.000000	7.151147	35.9968	NaN	0.000000	0.001631	0.001748	28.0791	26.0058	0.001883	13809.1	2.983688	-176.32	33.9315	1.148640	0.025914	0.025681	35.9968	13809.1	0.023959	0.029148	1234.96	73898.2
215	2.000000	1.151464	7.36715e+06	-49389.1	955.818	-29759.5	0.000000	0.000000	7.154155	46.1276	NaN	0.000000	0.001633	0.001721	28.0793	27.7054	0.001798	15404.8	3.577666	3.125973	45.6408	1.151034	0.028505	0.028075	46.1276	15404.8	0.026259	0.033346	1383.32	77074.4
215	2.000000	1.153901	7.36715e+06	-49389.1	955.817	-29759.5	0.000000	0.000000	7.156815	51.5435	NaN	0.000000	0.001606	0.001745	28.0792	30.1265	0.001822	16535.5	7.042516	178.474	50.3967	1.153496	0.030942	0.030537	51.5435	16535.5	0.028604	0.037901	1359.96	77600.8
215	2.000000	1.156333	7.36715e+06	-49389.1	955.817	-29759.5	0.000000	0.000000	7.159512	58.0021	NaN	0.000000	0.001648	0.001707	28.0794	32.1726	0.001719	18717.8	-1.254720	4.189582	53.241	1.156011	0.033374	0.033052	58.0021	18717.8	0.031050	0.042948	1350.53	82519.7
215	2.000000	1.158822	7.36715e+06	-49389.1	955.818	-29759.5	0.000000	0.000000	7.162203	62.919	NaN	0.000000	0.001650	0.001733	28.0789	36.1987	0.001806	20042	2.507402	-179.761	60.3515	1.158640	0.035863	0.035681	62.919	20042	0.033508	0.048329	1301.89	83293.2
215	2.000000	1.161359	7.36715e+06	-49389.1	955.818	-29759.5	0.000000	0.000000	7.165206	74.2574	NaN	0.000000	0.001677	0.001734	28.0792	37.8409	0.001867	20265.3	4.041929	-0.277750	71.1962	1.160975	0.038399	0.038016	74.2574	20265.3	0.035651	0.053273	1393.9	80217.8
215	2.000000	1.163836	7.36715e+06	-49389.1	955.818	-29759.5	0.000000	0.000000	7.167982	81.517	NaN	0.000000	0.001633	0.001716	28.0791	39.9828	0.001791	22328.6	4.464762	178.243	80.2527	1.163542	0.040877	0.040583	81.517	22328.6	0.038139	0.059308	1374.48	83768.3
215	2.000000	1.166430	7.36715e+06	-49389.1	955.818	-29759.5	0.000000	0.000000	7.170816	87.3581	NaN	0.000000	0.001618	0.001670	28.0784	41.9461	0.001750	23972.2	6.819621	-4.340433	90.4904	1.166000	0.043471	0.043041	87.3581	23972.2	0.040738	0.065949	1324.63	85285.6
215	2.000000	1.168848	7.36715e+06	-49389.1	955.818	-29759.5	0.000000	0.000000	7.173742	99.6967	NaN	0.000000	0.001625	0.001748	28.0779	44.4057	0.001862	23853.2	2.904430	178.788	99.8982	1.168528	0.045889	0.045568	99.6967	23853.2	0.042754	0.071341	1397.48	81592.7
215	2.000000	1.171407	7.36715e+06	-49389.1	955.818	-29759.5	0.000000	0.000000	7.176747	110.546	NaN	0.000000	0.001624	0.001751	28.0783	47.2122	0.001819	25954.7	10.8388	-8.758445	109.68	1.170919	0.048448	0.047959	110.546	25954.7	0.045254	0.078309	1411.66	84739
215	2.000000	1.173777	7.36715e+06	-49389.1	955.817	-29759.5	0.000000	0.000000	7.179437	118.315	NaN	0.000000	0.001620	0.001761	28.0777	48.4881	0.001791	27069.8	2.248104	178.292	113.629	1.173486	0.050818	0.050527	118.315	27069.8	0.047540	0.084962	1392.56	84848.8
215	2.000000	1.176345	7.36715e+06	-49389.1	955.817	-29759.5	0.000000	0.000000	7.182533	131.156	NaN	0.000000	0.001617	0.001755	28.0779	51.6387	0.001754	29440.6	7.183939	-6.791208	129.734	1.175927	0.053386	0.052967	131.156	29440.6	0.050045	0.092552	1417.1	88415.2
215	2.000000	1.178828	7.36715e+06	-49389.1	955.817	-29759.5	0.000000	0.000000	7.185193	135.483	NaN	0.000000	0.001635	0.001775	28.0777	54.8022	0.001899	28860.1	4.016811	176.286	132.727	1.178554	0.055869	0.055595	135.483	28860.1	0.052348	0.099809	1357.42	83461.4
215	2.000000	1.181340	7.36715e+06	-49389.1	955.817	-29759.5	0.000000	0.000000	7.188288	149.661	NaN	0.000000	0.001637	0.001711	28.078	55.5275	0.001773	31326.8	5.089052	-5.075171	146.181	1.180978	0.058381	0.058019	149.661	31326.8	0.054798	0.107819	1388.08	87164.9
215	2.000000	1.183807	7.36715e+06	-49389.1	955.817	-29759.5	0.000000	0.000000	7.191264	162.039	NaN	0.000000	0.001612	0.001729	28.078	57.898	0.001832	31605.2	2.478327	177.58	160.363	1.183544	0.060848	0.060585	162.039	31605.2	0.057003	0.115280	1405.61	85046.1
215	2.000000	1.186240	7.36715e+06	-49389.1	955.817	-29759.5	0.000000	0.000000	7.194390	178.909	NaN	0.000000	0.001611	0.001750	28.0778	60.0161	0.001817	33029.8	4.514025	-5.233598	171.908	1.185893	0.063280	0.062934	178.909	33029.8	0.059218	0.123019	1454.32	86038.6
215	2.000000	1.188802	7.36715e+06	-49389.1	955.817	-29759.5	0.000000	0.000000	7.197205	185.046	NaN	0.000000	0.001613	0.001747	28.078	62.9747	0.001793	35126	5.870031	172.967	183.87	1.188582	0.065843	0.065623	185.046	35126	0.061892	0.132680	1394.68	88104.6
215	2.000000	1.191295	7.36715e+06	-49389.1	955.817	-29759.5	0.000000	0.000000	7.200484	204.182	NaN	0.000000	0.001591	0.001749	28.078	64.8951	0.001792	36208.2	8.579793	-9.568872	200.499	1.190961	0.068335	0.068002	204.182	36208.2	0.064106	0.140943	1448.69	88116.8
215	2.000000	1.193725	7.36715e+06	-49389.1	955.818	-29759.5	0.000000	0.000000	7.203541	219.408	NaN	0.000000	0.001634	0.001782	28.0779	66.8779	0.001876	35656.1	5.559318	173.412	216.02	1.193521	0.070766	0.070562	219.408	35656.1	0.066151	0.148783	1474.69	84456.2
215	2.000000	1.196274	7.36715e+06	-49389.1	955.818	-29759.5	0.000000	0.000000	7.206656	233.187	NaN	0.000000	0.001609	0.001751	28.078	67.9986	0.001606	42329.6	5.291753	-7.595629	227.988	1.195904	0.073315	0.072945	233.187	42329.6	0.069183	0.160780	1450.35	96449.9
215	2.000000	1.198799	7.36715e+06	-49389.1	955.816	-29759.5	0.000000	0.000000	7.209718	246.232	NaN	0.000000	0.001634	0.001744	28.078	73.0587	0.001881	38850.5	3.398461	174.864	244.504	1.198511	0.075839	0.075552	246.232	38850.5	0.071086	0.168534	1461.03	86462.3
215	2.000000	1.201312	7.36716e+06	-49389.1	955.818	-29759.5	0.000000	0.000000	7.212578	254.664	NaN	0.000000	0.001638	0.001757	28.0796	73.2984	0.001796	40802.2	1.720624	-3.982526	251.785	1.201047	0.078353	0.078088	254.664	40802.2	0.073672	0.179344	1419.97	88026.3
215	2.000000	1.203769	7.36716e+06	-49389.1	955.818	-29759.5	0.000000	0.000000	7.215770	272.552	NaN	0.000000	0.001624	0.001762	28.0791	76.2523	0.001820	41901.1	3.808436	173.801	268.552	1.203362	0.080809	0.080403	272.552	41901.1	0.075931	0.189047	1441.72	88046.8
215	2.000000	1.206313	7.36716e+06	-49389.1	955.818	-29759.5	0.000000	0.000000	7.218879	286.276	NaN	0.000000	0.001607	0.001724	28.0791	80.4141	0.001835	43827.5	4.784003	-7.008536	285.015	1.206006	0.083354	0.083047	286.276	43827.5	0.078455	0.200173	1430.14	89498.9
215	2.000000	1.208757	7.36716e+06	-49389.1	955.818	-29759.5	0.000000	0.000000	7.221916	300.717	NaN	0.000000	0.001639	0.001762	28.0792	83.2006	0.002001	41580.6	1.909614	175.713	296.223	1.208476	0.085797	0.085517	300.717	41580.6	0.080373	0.208826	1440.03	83132.5
215	2.000000	1.211275	7.36716e+06	-49389.1	955.817	-29759.5	0.000000	0.000000	7.225163	318.433	NaN	0.000000	0.001635	0.001736	28.0793	83.4085	0.001874	44507.8	1.179763	-3.223732	313.775	1.210976	0.088316	0.088017	318.433	44507.8	0.082950	0.220719	1442.71	86554.3
215	2.000000	1.213761	7.36716e+06	-49389.1	955.817	-29759.5	0.000000	0.000000	7.228415	337.077	NaN	0.000000	0.001608	0.001688	28.0792	85.9419	0.001832	46899.9	3.697389	173.638	334.863	1.213437	0.090802	0.090478	337.077	46899.9	0.085411	0.232368	1450.62	88890.9
215	2.000000	1.216246	7.36716e+06	-49389.1	955.817	-29759.5	0.000000	0.000000	7.231635	354.951	NaN	0.000000	0.001637	0.001736	28.079	87.3715	0.001841	47470.6	-0.313334	-2.648119	350.176	1.215912	0.093287	0.092952	354.951	47470.6	0.087679	0.243345	1458.63	87919.7
215	2.000000	1.218872	7.36716e+06	-49389.1	955.818	-29759.5	0.000000	0.000000	7.234804	368.128	NaN	0.000000	0.001553	0.001742	28.0793	90.3967	0.001714	52737.1	0.580587	175.703	371.125	1.218571	0.095913	0.095611	368.128	52737.1	0.090678	0.258230	1425.58	94816.9
215	2.000000	1.221296	7.36716e+06	-49389.1	955.818	-29759.5	0.000000	0.000000	7.238528	399.769	NaN	0.000000	0.001605	0.001705	28.0792	92.5879	0.001748	52962.8	3.693341	-6.764066	394.809	1.220695	0.098336	0.097735	399.769	52962.8	0.092675	0.268371	1489.61	93406.3
215	2.000000	1.223682	7.36716e+06	-49389.1	955.818	-29759.5	0.000000	0.000000	7.241617	416.849	NaN	0.000000	0.001643	0.001754	28.0793	95.3428	0.001800	52963.7	6.239720	170.333	411.041	1.223341	0.100723	0.100381	416.849	52963.7	0.094820	0.279465	1491.59	91535.1
215	2.000000	1.226212	7.36716e+06	-49389.1	955.818	-29759.5	0.000000	0.000000	7.244861	434.215	NaN	0.000000	0.001609	0.001747	28.0789	97.9712	0.001806	54235.9	2.773906	-6.256393	427.746	1.225888	0.103253	0.102929	434.215	54235.9	0.097248	0.292276	1485.63	91656.6
215	2.000000	1.228900	7.36716e+06	-49389.1	955.816	-29759.5	0.000000	0.000000	7.248200	450.069	NaN	0.000000	0.001614	0.001752	28.0798	100.999	0.001716	58864.3	4.585334	171.203	454.433	1.228448	0.105941	0.105489	450.069	58864.3	0.100206	0.308247	1460.09	96867
215	2.000000	1.229699	7.36716e+06	-49389.1	955.818	-29759.5	0.000000	0.000000	7.249499	462.224	NaN	0.000000	0.001620	0.001732	28.0791	102.48	0.001686	60768.4	10.2924	165.213	456.529	1.229354	0.106740	0.106395	462.224	60768.4	0.101035	0.312791	1477.74	99271.4