File: remote_trans/data/nanoindenter/0828-1/data/Data_2025-08-06,11h17m57s/2025-07-22_16-23-58_1_1193.txt
2025-07-22, 16:23:58, 1
Index	Phase	Displacement	Time	Pos X	Pos Y	Pos Z	Rot A	Rot B	Piezo Z	Force A	Force B	Gripper	Voltage A	Voltage B	Temperature	Amplitude force	Amplitude pos	Stiffness	Phase shift	Phase excitation	Force A raw	Displacement raw	HMax	HMax raw	Real Force	Real Stiffness	Contact Depth	Area	Hardness	Reduced Mod.
[#]	[#]	[um]	[s]	[um]	[um]	[um]	[m°]	[m°]	[um]	[uN]	[uN]	[V]	[V]	[V]	[°C]	[uN]	[um]	[N/m]	[°]	[°]	[uN]	[um]	[um]	[um]	[uN]	[N/m]	[um]	[um^2]	[MPa]	[MPa]
1193	1.000000	0.002619	7.37671e+06	-55939.1	1105.82	-29740.2	0.000000	0.000000	6.002811	-0.006144	NaN	0.000000	0.001548	0.001716	28.082	0.071774	0.000860	83.4894	136.909	-165.886	0.083453	0.001337	-1.060550	-1.061832	-0.006144	83.4894	-1.060495	-1.477320E+14	4.158684E-17	NaN
1193	1.000000	0.010563	7.37671e+06	-55939.1	1105.82	-29740.2	0.000000	0.000000	6.010755	0.006821	NaN	0.000000	0.001566	0.001679	28.082	0.111762	0.001127	99.1962	92.836	-165.508	0.010378	0.009275	-1.052606	-1.053894	0.006821	99.1962	-1.052658	-1.159157E+14	-5.884724E-17	NaN
1193	1.000000	0.018562	7.37671e+06	-55939.1	1105.82	-29740.2	0.000000	0.000000	6.018752	-0.033711	NaN	0.000000	0.001554	0.001676	28.082	0.006233	0.001818	3.427462	-147.189	-166.535	0.031420	0.017274	-1.044608	-1.045895	-0.033711	3.427462	-1.037231	-7.190029E+13	4.688551E-16	NaN
1193	1.000000	0.026574	7.37671e+06	-55939.1	1105.82	-29740.2	0.000000	0.000000	6.026767	0.012079	NaN	0.000000	0.001594	0.001694	28.082	0.082070	0.001848	44.4082	121.299	-164.324	-0.002862	0.025282	-1.036595	-1.037887	0.012079	44.4082	-1.036799	-7.094432E+13	-1.702580E-16	NaN
1193	1.000000	0.034520	7.37671e+06	-55939.1	1105.82	-29740.2	0.000000	0.000000	6.034713	0.010252	NaN	0.000000	0.001593	0.001704	28.0819	0.075885	0.002034	37.3073	-168.207	-165.368	0.014836	0.033246	-1.028649	-1.029923	0.010252	37.3073	-1.028855	-5.547279E+13	-1.848187E-16	NaN
1193	1.000000	0.042558	7.37671e+06	-55939.1	1105.82	-29740.2	0.000000	0.000000	6.042750	0.007189	NaN	0.000000	0.001609	0.001716	28.0822	0.053851	0.001810	29.7493	65.8443	-165.267	0.021037	0.041240	-1.020611	-1.021929	0.007189	29.7493	-1.020792	-4.321277E+13	-1.663628E-16	NaN
1193	1.000000	0.050542	7.37671e+06	-55939.1	1105.82	-29740.2	0.000000	0.000000	6.050732	-0.045094	NaN	0.000000	0.001606	0.001694	28.082	0.018294	0.001964	9.314156	-148.007	-164.23	-0.043613	0.049251	-1.012627	-1.013918	-0.045094	9.314156	-1.008996	-2.998290E+13	1.503989E-15	NaN
1193	1.000000	0.058535	7.37671e+06	-55939.1	1105.82	-29740.2	0.000000	0.000000	6.058726	-0.034294	NaN	0.000000	0.001570	0.001703	28.0821	0.045411	0.001998	22.7242	-171.96	-169.15	-0.104623	0.057307	-1.004634	-1.005862	-0.034294	22.7242	-1.003502	-2.528810E+13	1.356127E-15	NaN
1193	1.000000	0.066547	7.37671e+06	-55939.1	1105.82	-29740.2	0.000000	0.000000	6.066739	-0.012927	NaN	0.000000	0.001586	0.001702	28.082	0.150571	0.001968	76.4907	-50.4271	-163.624	0.054605	0.065242	-0.996622	-0.997927	-0.012927	76.4907	-0.996495	-2.035050E+13	6.351987E-16	NaN
1193	1.000000	0.074564	7.37671e+06	-55939.1	1105.82	-29740.2	0.000000	0.000000	6.074753	-0.072944	NaN	0.000000	0.001594	0.001717	28.0818	0.126872	0.001970	64.3909	-78.9206	-164.992	-0.054190	0.073264	-0.988605	-0.989906	-0.072944	64.3909	-0.987756	-1.551978E+13	4.700094E-15	NaN
1193	1.000000	0.082536	7.37671e+06	-55939.1	1105.82	-29740.2	0.000000	0.000000	6.082726	-0.042983	NaN	0.000000	0.001626	0.001703	28.0823	0.087828	0.002074	42.3545	-140.707	-167.822	-0.013735	0.081265	-0.980633	-0.981904	-0.042983	42.3545	-0.979872	-1.215318E+13	3.536782E-15	NaN
1193	1.000000	0.090561	7.37671e+06	-55939.1	1105.82	-29740.2	0.000000	0.000000	6.090754	0.014524	NaN	0.000000	0.001606	0.001696	28.0821	0.081012	0.002026	39.9866	-45.3518	-165.766	0.078547	0.089224	-0.972608	-0.973945	0.014524	39.9866	-0.972880	-9.783072E+12	-1.484557E-15	NaN
1193	1.000000	0.098571	7.37671e+06	-55939.1	1105.82	-29740.2	0.000000	0.000000	6.098762	-0.031422	NaN	0.000000	0.001578	0.001714	28.0822	0.033756	0.002063	16.3632	115.258	-165.473	-0.020657	0.097267	-0.964598	-0.965902	-0.031422	16.3632	-0.963158	-7.235017E+12	4.343024E-15	NaN
1193	1.000000	0.106589	7.37671e+06	-55939.1	1105.82	-29740.2	0.000000	0.000000	6.106780	-0.039310	NaN	0.000000	0.001556	0.001717	28.0809	0.152904	0.001980	77.2087	133.003	-168.874	-0.021336	0.105272	-0.956580	-0.957897	-0.039310	77.2087	-0.956198	-5.829153E+12	6.743719E-15	NaN
1193	1.000000	0.114587	7.37671e+06	-55939.1	1105.82	-29740.2	0.000000	0.000000	6.114780	0.011134	NaN	0.000000	0.001633	0.001700	28.0816	0.003062	0.001922	1.592878	179.585	-166.818	-0.012521	0.113249	-0.948582	-0.949920	0.011134	1.592878	-0.953824	-5.415051E+12	-2.056209E-15	NaN
1193	1.000000	0.122605	7.37671e+06	-55939.1	1105.82	-29740.2	0.000000	0.000000	6.122798	0.026921	NaN	0.000000	0.001601	0.001755	28.081	0.101891	0.002054	49.6123	55.9469	-162.565	-0.056485	0.121327	-0.940564	-0.941842	0.026921	49.6123	-0.940971	-3.632780E+12	-7.410468E-15	NaN
1193	1.000000	0.130583	7.37671e+06	-55939.1	1105.82	-29740.2	0.000000	0.000000	6.130774	-0.021615	NaN	0.000000	0.001579	0.001728	28.0809	0.073254	0.001916	38.2293	161.449	-163.301	0.100560	0.129321	-0.932586	-0.933848	-0.021615	38.2293	-0.932162	-2.762958E+12	7.823235E-15	NaN
1193	1.000000	0.138584	7.37671e+06	-55939.1	1105.82	-29740.2	0.000000	0.000000	6.138777	0.025831	NaN	0.000000	0.001592	0.001752	28.0811	0.065318	0.001999	32.679	-145.071	-166.026	-0.012055	0.137269	-0.924585	-0.925900	0.025831	32.679	-0.925178	-2.223896E+12	-1.161499E-14	NaN
1193	1.000000	0.146606	7.37671e+06	-55939.1	1105.82	-29740.2	0.000000	0.000000	6.146795	-0.064609	NaN	0.000000	0.001595	0.001740	28.0808	0.045666	0.002022	22.5893	45.8949	-164.568	-0.136127	0.145268	-0.916563	-0.917901	-0.064609	22.5893	-0.914418	-1.591588E+12	4.059420E-14	NaN
1193	1.000000	0.154606	7.37671e+06	-55939.1	1105.82	-29740.2	0.000000	0.000000	6.154800	0.035041	NaN	0.000000	0.001594	0.001709	28.0809	0.046503	0.001943	23.9309	33.391	-164.792	0.081423	0.153202	-0.908563	-0.909967	0.035041	23.9309	-0.909661	-1.372728E+12	-2.552631E-14	NaN
1193	1.000000	0.162591	7.37671e+06	-55939.1	1105.82	-29740.2	0.000000	0.000000	6.162782	-0.035730	NaN	0.000000	0.001599	0.001715	28.0808	0.089116	0.002009	44.3489	107.606	-166.208	-0.037732	0.161325	-0.900578	-0.901844	-0.035730	44.3489	-0.899974	-1.015571E+12	3.518213E-14	NaN
1193	1.000000	0.170606	7.37671e+06	-55939.1	1105.82	-29740.2	0.000000	0.000000	6.170797	-0.029277	NaN	0.000000	0.001590	0.001713	28.0809	0.106962	0.002042	52.3804	-107.689	-166.868	-0.023590	0.169301	-0.892563	-0.893868	-0.029277	52.3804	-0.892144	-7.959604E+11	3.678192E-14	NaN
1193	1.000000	0.178602	7.37671e+06	-55939.1	1105.82	-29740.2	0.000000	0.000000	6.178796	0.039556	NaN	0.000000	0.001602	0.001717	28.081	0.052434	0.001981	26.4657	-121.077	-166.677	-0.019811	0.177304	-0.884567	-0.885865	0.039556	26.4657	-0.885688	-6.510538E+11	-6.075642E-14	NaN
1193	1.000000	0.186610	7.37671e+06	-55939.1	1105.82	-29740.2	0.000000	0.000000	6.186802	-0.008315	NaN	0.000000	0.001630	0.001729	28.0808	0.079298	0.001857	42.7035	-2.455288	-167.9	-0.049293	0.185314	-0.876559	-0.877855	-0.008315	42.7035	-0.876413	-4.877447E+11	1.704719E-14	NaN
1193	1.000000	0.194628	7.37671e+06	-55939.1	1105.82	-29740.2	0.000000	0.000000	6.194822	0.056367	NaN	0.000000	0.001620	0.001690	28.0812	0.069835	0.002081	33.5513	75.3307	-167.072	0.085778	0.193276	-0.868541	-0.869893	0.056367	33.5513	-0.869801	-3.969655E+11	-1.419959E-13	NaN
1193	1.000000	0.202629	7.37671e+06	-55939.1	1105.82	-29740.2	0.000000	0.000000	6.202823	0.057173	NaN	0.000000	0.001605	0.001713	28.0809	0.119238	0.002039	58.4889	60.5735	-165.628	-0.004743	0.201335	-0.860540	-0.861834	0.057173	58.4889	-0.861273	-3.043368E+11	-1.878612E-13	NaN
1193	1.000000	0.210641	7.37671e+06	-55939.1	1105.82	-29740.2	0.000000	0.000000	6.210837	0.083501	NaN	0.000000	0.001581	0.001716	28.0809	0.076960	0.002048	37.5711	169.51	-165.04	-0.017194	0.209350	-0.852528	-0.853819	0.083501	37.5711	-0.854194	-2.440791E+11	-3.421083E-13	NaN
1193	1.000000	0.218598	7.37671e+06	-55939.1	1105.82	-29740.2	0.000000	0.000000	6.218791	0.026354	NaN	0.000000	0.001617	0.001692	28.0808	0.107904	0.002079	51.9123	-45.1579	-163.455	0.058824	0.217288	-0.844571	-0.845881	0.026354	51.9123	-0.844952	-1.829665E+11	-1.440356E-13	NaN
1193	1.000000	0.226639	7.37671e+06	-55939.1	1105.82	-29740.2	0.000000	0.000000	6.226832	0.019757	NaN	0.000000	0.001601	0.001738	28.0808	0.049703	0.002033	24.4429	61.7422	-164.902	0.022303	0.225355	-0.836530	-0.837814	0.019757	24.4429	-0.837137	-1.433829E+11	-1.377885E-13	NaN
1193	1.000000	0.234624	7.37671e+06	-55939.1	1105.82	-29740.2	0.000000	0.000000	6.234814	-0.044017	NaN	0.000000	0.001590	0.001728	28.0812	0.090073	0.002009	44.8373	-57.4229	-165.008	-0.004260	0.233312	-0.828545	-0.829857	-0.044017	44.8373	-0.827809	-1.071722E+11	4.107111E-13	NaN
1193	1.000000	0.242622	7.37671e+06	-55939.1	1105.82	-29740.2	0.000000	0.000000	6.242813	-0.019822	NaN	0.000000	0.001568	0.001713	28.0823	0.036780	0.001931	19.0505	-4.311603	-162.612	-0.011122	0.241292	-0.820547	-0.821877	-0.019822	19.0505	-0.819767	-8.337748E+10	2.377398E-13	NaN
1193	1.000000	0.250632	7.37671e+06	-55939.1	1105.82	-29740.2	0.000000	0.000000	6.250824	-0.009826	NaN	0.000000	0.001577	0.001707	28.0824	0.119046	0.001977	60.22	2.266204	-165.5	-0.085439	0.249386	-0.812537	-0.813783	-0.009826	60.22	-0.812414	-6.627120E+10	1.482627E-13	NaN
1193	1.000000	0.258664	7.37671e+06	-55939.1	1105.82	-29740.2	0.000000	0.000000	6.258855	-0.023264	NaN	0.000000	0.001602	0.001709	28.0824	0.112112	0.002043	54.8766	97.195	-164.328	0.014228	0.257371	-0.804505	-0.805798	-0.023264	54.8766	-0.804188	-5.125065E+10	4.539305E-13	NaN
1193	1.000000	0.266625	7.37671e+06	-55939.1	1105.82	-29740.2	0.000000	0.000000	6.266816	-0.032401	NaN	0.000000	0.001594	0.001706	28.0822	0.093394	0.002022	46.1947	-134.968	-165.046	0.049544	0.265296	-0.796544	-0.797873	-0.032401	46.1947	-0.796018	-3.970114E+10	8.161233E-13	NaN
1193	1.000000	0.274673	7.37671e+06	-55939.1	1105.82	-29740.2	0.000000	0.000000	6.274867	0.051948	NaN	0.000000	0.001608	0.001717	28.0825	0.083238	0.001890	44.0474	-171.878	-168.832	0.061363	0.273327	-0.788496	-0.789842	0.051948	44.0474	-0.789380	-3.226024E+10	-1.610281E-12	NaN
1193	1.000000	0.282637	7.37671e+06	-55939.1	1105.82	-29740.2	0.000000	0.000000	6.282829	0.014202	NaN	0.000000	0.001587	0.001769	28.0824	0.085205	0.002069	41.1747	104.584	-166.781	-0.031822	0.281380	-0.780532	-0.781789	0.014202	41.1747	-0.780791	-2.465934E+10	-5.759155E-13	NaN
1193	1.000000	0.290658	7.37671e+06	-55939.1	1105.82	-29740.2	0.000000	0.000000	6.290850	-0.013195	NaN	0.000000	0.001587	0.001719	28.0828	0.068759	0.002080	33.0534	-24.9781	-165.493	-0.009211	0.289364	-0.772511	-0.773805	-0.013195	33.0534	-0.772211	-1.885263E+10	6.999260E-13	NaN
1193	1.000000	0.298639	7.37671e+06	-55939.1	1105.82	-29740.2	0.000000	0.000000	6.298831	0.005445	NaN	0.000000	0.001589	0.001703	28.0825	0.062834	0.002119	29.6517	-134.533	-165.826	0.025029	0.297316	-0.764530	-0.765853	0.005445	29.6517	-0.764668	-1.488676E+10	-3.657392E-13	NaN
1193	1.000000	0.306648	7.37671e+06	-55939.1	1105.82	-29740.2	0.000000	0.000000	6.306839	-0.025808	NaN	0.000000	0.001643	0.001684	28.0823	0.067348	0.002000	33.6745	-165.014	-164.551	-0.085276	0.305363	-0.756521	-0.757806	-0.025808	33.6745	-0.755946	-1.132792E+10	2.278273E-12	NaN
1193	1.000000	0.314685	7.37671e+06	-55939.1	1105.82	-29740.2	0.000000	0.000000	6.314879	0.054909	NaN	0.000000	0.001634	0.001698	28.0824	0.112058	0.001978	56.6545	-92.9056	-163.866	0.003331	0.313336	-0.748484	-0.749833	0.054909	56.6545	-0.749211	-9.172302E+9	-5.986339E-12	NaN
1193	1.000000	0.322684	7.37671e+06	-55939.1	1105.82	-29740.2	0.000000	0.000000	6.322879	0.057824	NaN	0.000000	0.001641	0.001674	28.0824	0.086696	0.001950	44.4481	-65.3735	-164.783	0.056955	0.321352	-0.740485	-0.741817	0.057824	44.4481	-0.741460	-7.193595E+9	-8.038286E-12	NaN
1193	1.000000	0.330672	7.37671e+06	-55939.1	1105.82	-29740.2	0.000000	0.000000	6.330868	0.076536	NaN	0.000000	0.001655	0.001709	28.0826	0.060722	0.001879	32.32	81.2458	-164.356	0.025141	0.329368	-0.732497	-0.733801	0.076536	32.32	-0.734273	-5.741599E+9	-1.333015E-11	NaN
1193	1.000000	0.338651	7.37671e+06	-55939.1	1105.82	-29740.2	0.000000	0.000000	6.338842	-0.022013	NaN	0.000000	0.001634	0.001654	28.0824	0.050928	0.002042	24.9445	148.041	-167.712	-0.032448	0.337386	-0.724518	-0.725783	-0.022013	24.9445	-0.723857	-4.140581E+9	5.316408E-12	NaN
1193	1.000000	0.346676	7.37671e+06	-55939.1	1105.82	-29740.2	0.000000	0.000000	6.346866	-0.050640	NaN	0.000000	0.001668	0.001666	28.0825	0.039089	0.001968	19.858	-5.882577	-165.438	-0.060507	0.345351	-0.716493	-0.717818	-0.050640	19.858	-0.714580	-3.094182E+9	1.636610E-11	NaN
1193	1.000000	0.354690	7.37671e+06	-55939.1	1105.82	-29740.2	0.000000	0.000000	6.354882	-0.000318	NaN	0.000000	0.001575	0.001662	28.0824	0.079482	0.002011	39.5153	171.404	-169.509	-0.021105	0.353368	-0.708479	-0.709801	-0.000318	39.5153	-0.708473	-2.553924E+9	1.243396E-13	NaN
1193	1.000000	0.362690	7.37671e+06	-55939.1	1105.82	-29740.2	0.000000	0.000000	6.362880	-0.033247	NaN	0.000000	0.001555	0.001685	28.0824	0.100850	0.001883	53.5533	127.273	-165.43	-0.077847	0.361420	-0.700480	-0.701749	-0.033247	53.5533	-0.700014	-1.957588E+9	1.698352E-11	NaN
1193	1.000000	0.370697	7.37671e+06	-55939.1	1105.82	-29740.2	0.000000	0.000000	6.370889	0.011397	NaN	0.000000	0.001570	0.001664	28.0824	0.049753	0.001996	24.9293	-57.7297	-164.071	0.035889	0.369396	-0.692472	-0.693773	0.011397	24.9293	-0.692815	-1.560946E+9	-7.301548E-12	NaN
1193	1.000000	0.378670	7.37671e+06	-55939.1	1105.82	-29740.2	0.000000	0.000000	6.378864	0.038589	NaN	0.000000	0.001566	0.001674	28.0813	0.100495	0.001898	52.953	153.081	-165.086	-0.007295	0.377377	-0.684499	-0.685792	0.038589	52.953	-0.685045	-1.222352E+9	-3.156933E-11	NaN
1193	1.000000	0.386706	7.37671e+06	-55939.1	1105.82	-29740.2	0.000000	0.000000	6.386899	0.027747	NaN	0.000000	0.001562	0.001673	28.0816	0.086173	0.001966	43.8379	-31.1847	-165.479	-0.029661	0.385402	-0.676463	-0.677767	0.027747	43.8379	-0.676938	-9.469432E+8	-2.930189E-11	NaN
1193	1.000000	0.394701	7.37671e+06	-55939.1	1105.82	-29740.2	0.000000	0.000000	6.394893	-0.001224	NaN	0.000000	0.001581	0.001693	28.0809	0.020811	0.001906	10.9179	155.629	-166.369	0.070459	0.393391	-0.668468	-0.669778	-0.001224	10.9179	-0.668384	-7.232259E+8	1.691820E-12	NaN
1193	1.000000	0.402693	7.37671e+06	-55939.1	1105.82	-29740.2	0.000000	0.000000	6.402885	-0.021182	NaN	0.000000	0.001568	0.001667	28.0813	0.072515	0.002045	35.4549	18.533	-168.71	-0.073499	0.401401	-0.660476	-0.661768	-0.021182	35.4549	-0.660028	-5.557074E+8	3.811777E-11	NaN
1193	1.000000	0.410720	7.37671e+06	-55939.1	1105.82	-29740.2	0.000000	0.000000	6.410912	0.006733	NaN	0.000000	0.001542	0.001673	28.0812	0.086502	0.002047	42.2593	150.875	-165.354	-0.025167	0.409386	-0.652449	-0.653783	0.006733	42.2593	-0.652569	-4.391872E+8	-1.533093E-11	NaN
1193	1.000000	0.418710	7.37671e+06	-55939.1	1105.82	-29740.2	0.000000	0.000000	6.418901	-0.017354	NaN	0.000000	0.001524	0.001659	28.0811	0.095519	0.002089	45.7178	55.8011	-164.211	0.026277	0.417450	-0.644459	-0.645719	-0.017354	45.7178	-0.644175	-3.369440E+8	5.150396E-11	NaN
1193	1.000000	0.426677	7.37671e+06	-55939.1	1105.82	-29740.2	0.000000	0.000000	6.426869	-0.011215	NaN	0.000000	0.001555	0.001638	28.0813	0.057060	0.002159	26.4242	128.756	-163.901	-0.026347	0.425386	-0.636492	-0.637783	-0.011215	26.4242	-0.636174	-2.616865E+8	4.285583E-11	NaN
1193	1.000000	0.434718	7.37671e+06	-55939.1	1105.82	-29740.2	0.000000	0.000000	6.434913	0.065719	NaN	0.000000	0.001560	0.001628	28.081	0.061275	0.001990	30.7926	115.809	-163.909	0.074094	0.433442	-0.628451	-0.629727	0.065719	30.7926	-0.630051	-2.156404E+8	-3.047602E-10	NaN
1193	1.000000	0.442718	7.37671e+06	-55939.1	1105.82	-29740.2	0.000000	0.000000	6.442909	-0.036043	NaN	0.000000	0.001557	0.001679	28.0813	0.088937	0.001996	44.5542	-122.262	-161.607	-0.037919	0.441395	-0.620451	-0.621774	-0.036043	44.5542	-0.619844	-1.561300E+8	2.308548E-10	NaN
1193	1.000000	0.450727	7.37671e+06	-55939.1	1105.82	-29740.2	0.000000	0.000000	6.450918	-0.027476	NaN	0.000000	0.001533	0.001637	28.0809	0.098449	0.001968	50.035	-4.456789	-168.462	-0.013039	0.449416	-0.612442	-0.613753	-0.027476	50.035	-0.612030	-1.219103E+8	2.253748E-10	NaN
1193	1.000000	0.458719	7.37671e+06	-55939.1	1105.82	-29740.2	0.000000	0.000000	6.458911	-0.008323	NaN	0.000000	0.001546	0.001662	28.081	0.037783	0.002047	18.4546	45.4531	-168.328	0.006117	0.457389	-0.604450	-0.605780	-0.008323	18.4546	-0.604112	-9.485860E+7	8.774072E-11	NaN
1193	1.000000	0.466741	7.37671e+06	-55939.1	1105.82	-29740.2	0.000000	0.000000	6.466932	-0.014744	NaN	0.000000	0.001535	0.001662	28.081	0.128016	0.001937	66.0915	103.473	-166.014	-0.020033	0.465426	-0.596428	-0.597743	-0.014744	66.0915	-0.596261	-7.395234E+7	1.993682E-10	NaN
1193	1.000000	0.474736	7.37671e+06	-55939.1	1105.82	-29740.2	0.000000	0.000000	6.474928	0.001733	NaN	0.000000	0.001552	0.001673	28.0809	0.075968	0.001857	40.9119	120.141	-164.911	-0.069154	0.473339	-0.588433	-0.589830	0.001733	40.9119	-0.588465	-5.774387E+7	-3.001732E-11	NaN
1193	1.000000	0.482741	7.37671e+06	-55939.1	1105.82	-29740.2	0.000000	0.000000	6.482933	-0.009253	NaN	0.000000	0.001535	0.001680	28.0811	0.054148	0.001919	28.2113	44.1312	-167.259	-0.014029	0.481452	-0.580428	-0.581717	-0.009253	28.2113	-0.580182	-4.438528E+7	2.084709E-10	NaN
1193	1.000000	0.490738	7.37671e+06	-55939.1	1105.82	-29740.2	0.000000	0.000000	6.490928	-0.033927	NaN	0.000000	0.001572	0.001674	28.081	0.051938	0.001897	27.385	18.0021	-167.249	-0.017519	0.489466	-0.572432	-0.573703	-0.033927	27.385	-0.571502	-3.368128E+7	1.007299E-9	NaN
1193	1.000000	0.498742	7.37672e+06	-55939.1	1105.82	-29740.2	0.000000	0.000000	6.498932	-0.052271	NaN	0.000000	0.001547	0.001654	28.081	0.020269	0.002063	9.825936	4.111858	-166.466	0.038439	0.497406	-0.564427	-0.565763	-0.052271	9.825936	-0.560437	-2.368223E+7	2.207191E-9	NaN
1193	1.000000	0.506734	7.37672e+06	-55939.1	1105.82	-29740.2	0.000000	0.000000	6.506927	0.015332	NaN	0.000000	0.001551	0.001610	28.0811	0.079187	0.002056	38.5169	-157.353	-167.534	0.038957	0.505445	-0.556435	-0.557725	0.015332	38.5169	-0.556733	-2.104653E+7	-7.284659E-10	NaN
1193	1.000000	0.514766	7.37672e+06	-55939.1	1105.82	-29740.2	0.000000	0.000000	6.514958	-0.002443	NaN	0.000000	0.001587	0.001656	28.0819	0.041353	0.002001	20.6699	-126.06	-163.189	-0.020015	0.513434	-0.548403	-0.549735	-0.002443	20.6699	-0.548315	-1.609194E+7	1.518265E-10	NaN
1193	1.000000	0.522794	7.37672e+06	-55939.1	1105.82	-29740.2	0.000000	0.000000	6.522986	-0.000979	NaN	0.000000	0.001603	0.001685	28.0827	0.093666	0.002061	45.451	41.1736	-167.564	-0.106220	0.521453	-0.540375	-0.541716	-0.000979	45.451	-0.540359	-1.248362E+7	7.843464E-11	NaN
1193	1.000000	0.530759	7.37672e+06	-55939.1	1105.82	-29740.2	0.000000	0.000000	6.530950	-0.034702	NaN	0.000000	0.001590	0.001693	28.0822	0.065445	0.001808	36.189	70.1319	-166.774	-0.007132	0.529499	-0.532410	-0.533670	-0.034702	36.189	-0.531691	-9.46349e+06	3.666950E-9	NaN
1193	1.000000	0.538760	7.37672e+06	-55939.1	1105.82	-29740.2	0.000000	0.000000	6.538954	0.048725	NaN	0.000000	0.001636	0.001679	28.082	0.092687	0.002038	45.4744	158.356	-165.169	0.002207	0.537433	-0.524409	-0.525736	0.048725	45.4744	-0.525213	-7.69255e+06	-6.334026E-9	NaN
1193	1.000000	0.546742	7.37672e+06	-55939.1	1105.82	-29740.2	0.000000	0.000000	6.546934	0.020088	NaN	0.000000	0.001625	0.001651	28.0822	0.109447	0.001899	57.6468	-179.729	-164.185	0.068736	0.545413	-0.516427	-0.517756	0.020088	57.6468	-0.516689	-5.8551e+06	-3.430896E-9	NaN
1193	1.000000	0.554772	7.37672e+06	-55939.1	1105.82	-29740.2	0.000000	0.000000	6.554965	0.039362	NaN	0.000000	0.001571	0.001676	28.0822	0.055105	0.001939	28.426	144.707	-165.622	-0.075247	0.553408	-0.508397	-0.509761	0.039362	28.426	-0.509436	-4.64041e+06	-8.482344E-9	NaN
1193	1.000000	0.562783	7.37672e+06	-55939.1	1105.82	-29740.2	0.000000	0.000000	6.562975	-0.002042	NaN	0.000000	0.001542	0.001652	28.0827	0.017895	0.001930	9.271142	-5.632830	-167.451	0.056227	0.561438	-0.500386	-0.501731	-0.002042	9.271142	-0.500221	-3.45221e+06	5.913617E-10	NaN
1193	1.000000	0.570749	7.37672e+06	-55939.1	1105.82	-29740.2	0.000000	0.000000	6.570941	0.003567	NaN	0.000000	0.001548	0.001649	28.0821	0.128887	0.002102	61.3236	-98.7139	-167.047	-0.023558	0.569449	-0.492420	-0.493720	0.003567	61.3236	-0.492464	-2.6904e+06	-1.325871E-9	NaN
1193	1.000000	0.578770	7.37672e+06	-55939.1	1105.82	-29740.2	0.000000	0.000000	6.578962	-0.016054	NaN	0.000000	0.001567	0.001668	28.0822	0.040689	0.002003	20.3099	-66.3387	-166.89	-0.066805	0.577521	-0.484399	-0.485648	-0.016054	20.3099	-0.483806	-2.03604e+06	7.884723E-9	NaN
1193	1.000000	0.586788	7.37672e+06	-55939.1	1105.82	-29740.2	0.000000	0.000000	6.586980	0.007698	NaN	0.000000	0.001577	0.001678	28.0822	0.084465	0.001997	42.3023	-172.388	-164.66	0.042119	0.585455	-0.476381	-0.477714	0.007698	42.3023	-0.476517	-1.60975e+06	-4.782008E-9	NaN
1193	1.000000	0.594784	7.37672e+06	-55939.1	1105.82	-29740.2	0.000000	0.000000	6.594977	0.018499	NaN	0.000000	0.001578	0.001683	28.0822	0.016898	0.002057	8.214615	156.979	-166.063	0.048302	0.593476	-0.468385	-0.469693	0.018499	8.214615	-0.470074	-1.30752e+06	-1.414788E-8	NaN
1193	1.000000	0.602786	7.37672e+06	-55939.1	1105.82	-29740.2	0.000000	0.000000	6.602975	-0.051784	NaN	0.000000	0.001622	0.001672	28.0825	0.109351	0.001979	55.2422	-174.242	-165.966	-0.051128	0.601502	-0.460383	-0.461667	-0.051784	55.2422	-0.459680	-934388	5.541975E-8	NaN
1193	1.000000	0.610774	7.37672e+06	-55939.1	1105.82	-29740.2	0.000000	0.000000	6.610964	-0.062497	NaN	0.000000	0.001607	0.001693	28.0821	0.090966	0.001995	45.5854	-100.028	-169.299	0.012235	0.609488	-0.452395	-0.453681	-0.062497	45.5854	-0.451367	-713812	8.755445E-8	NaN
1193	1.000000	0.618799	7.37672e+06	-55939.1	1105.82	-29740.2	0.000000	0.000000	6.618989	-0.047767	NaN	0.000000	0.001605	0.001698	28.0824	0.115582	0.001905	60.6731	-165.018	-164.413	-0.032432	0.617490	-0.444370	-0.445679	-0.047767	60.6731	-0.443780	-558071	8.559368E-8	NaN
1193	1.000000	0.626801	7.37672e+06	-55939.1	1105.82	-29740.2	0.000000	0.000000	6.626993	-0.006014	NaN	0.000000	0.001604	0.001659	28.0822	0.052822	0.002036	25.9495	41.3107	-165.615	-0.107319	0.625517	-0.436368	-0.437652	-0.006014	25.9495	-0.436194	-436138	1.379015E-8	NaN
1193	1.000000	0.634791	7.37672e+06	-55939.1	1105.82	-29740.2	0.000000	0.000000	6.634982	-0.017443	NaN	0.000000	0.001579	0.001694	28.0824	0.071878	0.002045	35.1507	149.655	-166.409	0.056819	0.633462	-0.428378	-0.429707	-0.017443	35.1507	-0.428006	-334076	5.221279E-8	NaN
1193	1.000000	0.642793	7.37672e+06	-55939.1	1105.82	-29740.2	0.000000	0.000000	6.642985	0.009033	NaN	0.000000	0.001595	0.001693	28.0822	0.030744	0.002015	15.2573	-105.478	-164.025	-0.001196	0.641462	-0.420376	-0.421707	0.009033	15.2573	-0.420820	-264270	-3.417930E-8	NaN
1193	1.000000	0.650822	7.37672e+06	-55939.1	1105.82	-29740.2	0.000000	0.000000	6.651016	0.039689	NaN	0.000000	0.001601	0.001686	28.0815	0.101302	0.001975	51.2926	-39.6682	-168.349	0.021224	0.649462	-0.412347	-0.413707	0.039689	51.2926	-0.412927	-204179	-1.943813E-7	NaN
1193	1.000000	0.658833	7.37672e+06	-55939.1	1105.82	-29740.2	0.000000	0.000000	6.659025	0.011395	NaN	0.000000	0.001617	0.001670	28.0815	0.069795	0.001928	36.2027	-166.648	-166.695	-0.008912	0.657481	-0.404336	-0.405688	0.011395	36.2027	-0.404572	-155294	-7.337625E-8	NaN
1193	1.000000	0.666830	7.37672e+06	-55939.1	1105.82	-29740.2	0.000000	0.000000	6.667021	-0.039890	NaN	0.000000	0.001607	0.001694	28.0815	0.039528	0.002007	19.696	30.6349	-163.778	0.004693	0.665463	-0.396339	-0.397706	-0.039890	19.696	-0.394820	-112736	3.538403E-7	NaN
1193	1.000000	0.674807	7.37672e+06	-55939.1	1105.82	-29740.2	0.000000	0.000000	6.674995	-0.110498	NaN	0.000000	0.001586	0.001695	28.0812	0.077202	0.001935	39.8913	154.106	-165.85	-0.015217	0.673495	-0.388362	-0.389674	-0.110498	39.8913	-0.386284	-85111	1.298276E-6	NaN
1193	1.000000	0.682835	7.37672e+06	-55939.1	1105.82	-29740.2	0.000000	0.000000	6.683026	-0.038425	NaN	0.000000	0.001610	0.001664	28.0811	0.038685	0.001987	19.4642	88.2943	-166.795	0.021733	0.681571	-0.380334	-0.381598	-0.038425	19.4642	-0.378853	-66592.7	5.770182E-7	NaN
1193	1.000000	0.690790	7.37672e+06	-55939.1	1105.82	-29740.2	0.000000	0.000000	6.690980	-0.046158	NaN	0.000000	0.001597	0.001696	28.0811	0.063664	0.002078	30.6353	-125.357	-164.907	-0.061297	0.689473	-0.372379	-0.373696	-0.046158	30.6353	-0.371249	-51773.7	8.915382E-7	NaN
1193	1.000000	0.698809	7.37672e+06	-55939.1	1105.82	-29740.2	0.000000	0.000000	6.699002	0.024287	NaN	0.000000	0.001592	0.001683	28.0813	0.033822	0.002048	16.5164	-170.727	-166.627	0.036880	0.697467	-0.364360	-0.365702	0.024287	16.5164	-0.365463	-42730	-5.683933E-7	NaN
1193	1.000000	0.706821	7.37672e+06	-55939.1	1105.82	-29740.2	0.000000	0.000000	6.707012	-0.019456	NaN	0.000000	0.001610	0.001688	28.0814	0.037241	0.001914	19.456	74.0546	-165.008	-0.013814	0.705518	-0.356348	-0.357651	-0.019456	19.456	-0.355598	-30772.5	6.322642E-7	NaN
1193	1.000000	0.714874	7.37672e+06	-55939.1	1105.82	-29740.2	0.000000	0.000000	6.715063	-0.063599	NaN	0.000000	0.001618	0.001713	28.0811	0.088759	0.002066	42.965	105.774	-164.872	0.026956	0.713568	-0.348295	-0.349601	-0.063599	42.965	-0.347185	-23233.8	2.737352E-6	NaN
1193	1.000000	0.722835	7.37672e+06	-55939.1	1105.82	-29740.2	0.000000	0.000000	6.723027	-0.016066	NaN	0.000000	0.001581	0.001686	28.0811	0.123383	0.002055	60.0378	71.0062	-163.85	-0.092739	0.721533	-0.340334	-0.341636	-0.016066	60.0378	-0.340133	-18343.9	8.758443E-7	NaN
1193	1.000000	0.730855	7.37672e+06	-55939.1	1105.82	-29740.2	0.000000	0.000000	6.731045	-0.055567	NaN	0.000000	0.001570	0.001677	28.0812	0.017106	0.001832	9.335419	-134.118	-168.235	0.053784	0.729518	-0.332314	-0.333651	-0.055567	9.335419	-0.327849	-12132.2	4.580148E-6	NaN
1193	1.000000	0.738832	7.37672e+06	-55939.1	1105.82	-29740.2	0.000000	0.000000	6.739023	-0.031306	NaN	0.000000	0.001572	0.001696	28.0812	0.081771	0.001926	42.452	-4.597989	-163.14	0.069027	0.737530	-0.324337	-0.325639	-0.031306	42.452	-0.323784	-10574.8	2.960426E-6	NaN
1193	1.000000	0.746834	7.37672e+06	-55939.1	1105.82	-29740.2	0.000000	0.000000	6.747025	-0.025760	NaN	0.000000	0.001554	0.001656	28.0812	0.045359	0.002030	22.3411	36.286	-166.58	0.029505	0.745480	-0.316335	-0.317689	-0.025760	22.3411	-0.315470	-7977.88	3.228907E-6	NaN
1193	1.000000	0.754879	7.37672e+06	-55939.1	1105.82	-29740.2	0.000000	0.000000	6.755072	0.010336	NaN	0.000000	0.001571	0.001668	28.0815	0.088395	0.002054	43.0452	-112.946	-168.613	-0.036138	0.753512	-0.308290	-0.309657	0.010336	43.0452	-0.308470	-6286.4	-1.644179E-6	NaN
1193	1.000000	0.762857	7.37672e+06	-55939.1	1105.82	-29740.2	0.000000	0.000000	6.763047	-0.062233	NaN	0.000000	0.001602	0.001652	28.0811	0.043241	0.002018	21.4314	-98.6967	-168.509	-0.053900	0.761514	-0.300312	-0.301655	-0.062233	21.4314	-0.298134	-4414.09	1.409874E-5	NaN
1193	1.000000	0.770832	7.37672e+06	-55939.1	1105.82	-29740.2	0.000000	0.000000	6.771023	-0.026562	NaN	0.000000	0.001585	0.001665	28.0811	0.049001	0.001904	25.736	-178.592	-169.237	-0.034963	0.769572	-0.292337	-0.293597	-0.026562	25.736	-0.291562	-3521.26	7.543243E-6	NaN
1193	1.000000	0.778867	7.37672e+06	-55939.1	1105.82	-29740.2	0.000000	0.000000	6.779060	0.017308	NaN	0.000000	0.001579	0.001675	28.0811	0.078053	0.001970	39.6284	175.798	-166.901	-0.089535	0.777549	-0.284302	-0.285620	0.017308	39.6284	-0.284629	-2771.38	-6.245189E-6	NaN
1193	1.000000	0.786873	7.37672e+06	-55939.1	1105.82	-29740.2	0.000000	0.000000	6.787065	-0.005206	NaN	0.000000	0.001576	0.001689	28.0816	0.052711	0.001849	28.5051	-143.127	-170.571	-0.037906	0.785556	-0.276296	-0.277613	-0.005206	28.5051	-0.276159	-2065.11	2.521012E-6	NaN
1193	1.000000	0.794859	7.37672e+06	-55939.1	1105.82	-29740.2	0.000000	0.000000	6.795054	0.064211	NaN	0.000000	0.001620	0.001642	28.0828	0.072960	0.002028	35.9689	-1.973763	-166.09	0.066524	0.793517	-0.268310	-0.269652	0.064211	35.9689	-0.269649	-1645.13	-3.903088E-5	NaN
1193	1.000000	0.802857	7.37672e+06	-55939.1	1105.82	-29740.2	0.000000	0.000000	6.803048	-0.011843	NaN	0.000000	0.001592	0.001626	28.0823	0.061283	0.002071	29.586	34.312	-166.334	-0.039120	0.801548	-0.260312	-0.261621	-0.011843	29.586	-0.260012	-1172.47	1.010115E-5	NaN
1193	1.000000	0.810859	7.37672e+06	-55939.1	1105.82	-29740.2	0.000000	0.000000	6.811051	0.004287	NaN	0.000000	0.001584	0.001655	28.0823	0.104450	0.002011	51.9279	-146.319	-169.278	0.038319	0.809546	-0.252310	-0.253623	0.004287	51.9279	-0.252372	-894.565	-4.791884E-6	NaN
1193	1.000000	0.818893	7.37672e+06	-55939.1	1105.82	-29740.2	0.000000	0.000000	6.819082	-0.074535	NaN	0.000000	0.001572	0.001675	28.0824	0.113858	0.002048	55.6046	176.366	-166.317	-0.078952	0.817585	-0.244276	-0.245584	-0.074535	55.6046	-0.243270	-646.471	0.000115	NaN
1193	1.000000	0.826894	7.37672e+06	-55939.1	1105.82	-29740.2	0.000000	0.000000	6.827085	-0.016924	NaN	0.000000	0.001585	0.001678	28.0823	0.012654	0.002066	6.125749	-85.6959	-166.959	-0.045568	0.825623	-0.236275	-0.237546	-0.016924	6.125749	-0.234203	-466.369	3.628839E-5	NaN
1193	1.000000	0.834875	7.37672e+06	-55939.1	1105.82	-29740.2	0.000000	0.000000	6.835068	0.022931	NaN	0.000000	0.001565	0.001694	28.0826	0.100134	0.002065	48.4871	168.949	-164.971	0.002517	0.833569	-0.228294	-0.229600	0.022931	48.4871	-0.228649	-381.215	-6.015297E-5	NaN
1193	1.000000	0.842897	7.37672e+06	-55939.1	1105.82	-29740.2	0.000000	0.000000	6.843089	-0.013683	NaN	0.000000	0.001591	0.001671	28.0824	0.109718	0.001871	58.6361	-61.8984	-169.554	-0.007609	0.841516	-0.220272	-0.221653	-0.013683	58.6361	-0.220097	-278.755	4.908642E-5	NaN
1193	1.000000	0.850878	7.37672e+06	-55939.1	1105.82	-29740.2	0.000000	0.000000	6.851071	0.023451	NaN	0.000000	0.001596	0.001633	28.083	0.073816	0.001818	40.5934	-48.2244	-170.678	-0.041790	0.849602	-0.212291	-0.213567	0.023451	40.5934	-0.212725	-212.257	-0.000110	NaN
1193	1.000000	0.858882	7.37672e+06	-55939.1	1105.82	-29740.2	0.000000	0.000000	6.859072	-0.055377	NaN	0.000000	0.001597	0.001673	28.0823	0.095611	0.002013	47.4887	115.077	-170.576	0.026291	0.857611	-0.204287	-0.205558	-0.055377	47.4887	-0.203412	-149.842	0.000370	NaN
1193	1.000000	0.866916	7.37672e+06	-55939.1	1105.82	-29740.2	0.000000	0.000000	6.867108	-0.011057	NaN	0.000000	0.001607	0.001696	28.0823	0.021188	0.001978	10.7098	-55.1888	-165.511	-0.047473	0.865567	-0.196253	-0.197602	-0.011057	10.7098	-0.195478	-110.95	9.965601E-5	NaN
1193	1.000000	0.874897	7.37672e+06	-55939.1	1105.82	-29740.2	0.000000	0.000000	6.875088	-0.019786	NaN	0.000000	0.001610	0.001681	28.0823	0.056635	0.001927	29.391	151.796	-166.082	-0.029593	0.873547	-0.188272	-0.189622	-0.019786	29.391	-0.187767	-82.5391	0.000240	NaN
1193	1.000000	0.882906	7.37672e+06	-55939.1	1105.82	-29740.2	0.000000	0.000000	6.883096	-0.047125	NaN	0.000000	0.001628	0.001677	28.0823	0.122307	0.002092	58.4765	137.717	-163.47	-0.085727	0.881589	-0.180263	-0.181580	-0.047125	58.4765	-0.179658	-60.208	0.000783	NaN
1193	1.000000	0.890897	7.37672e+06	-55939.1	1105.82	-29740.2	0.000000	0.000000	6.891086	-0.089300	NaN	0.000000	0.001628	0.001665	28.0831	0.085061	0.002169	39.2193	62.9543	-165.197	-0.087188	0.889573	-0.172272	-0.173596	-0.089300	39.2193	-0.170564	-42.0146	0.002125	NaN
1193	1.000000	0.898922	7.37672e+06	-55939.1	1105.82	-29740.2	0.000000	0.000000	6.899112	-0.040742	NaN	0.000000	0.001598	0.001680	28.0824	0.098909	0.002066	47.8813	-149.947	-168.177	0.043260	0.897592	-0.164247	-0.165577	-0.040742	47.8813	-0.163609	-31.7566	0.001283	NaN
1193	1.000000	0.906915	7.37672e+06	-55939.1	1105.82	-29740.2	0.000000	0.000000	6.907105	-0.044030	NaN	0.000000	0.001597	0.001650	28.0824	0.044809	0.001990	22.5117	-151.475	-164.317	-0.017279	0.905564	-0.156254	-0.157605	-0.044030	22.5117	-0.154787	-22.1182	0.001991	NaN
1193	1.000000	0.914929	7.37672e+06	-55939.1	1105.82	-29740.2	0.000000	0.000000	6.915120	-0.027078	NaN	0.000000	0.001576	0.001673	28.0831	0.064008	0.001939	33.0096	-124.541	-169.839	-0.054865	0.913608	-0.148240	-0.149561	-0.027078	33.0096	-0.147625	-16.3887	0.001652	NaN
1193	1.000000	0.922922	7.37672e+06	-55939.1	1105.82	-29740.2	0.000000	0.000000	6.923116	0.040263	NaN	0.000000	0.001590	0.001661	28.0822	0.048816	0.001938	25.1916	124.467	-170.711	0.018112	0.921580	-0.140247	-0.141589	0.040263	25.1916	-0.141445	-12.5909	-0.003198	NaN
1193	1.000000	0.930940	7.37672e+06	-55939.1	1105.82	-29740.2	0.000000	0.000000	6.931133	0.013180	NaN	0.000000	0.001581	0.001634	28.0815	0.070721	0.002007	35.2338	46.7067	-168.156	-0.010249	0.929637	-0.132229	-0.133532	0.013180	35.2338	-0.132509	-8.521964	-0.001547	NaN
1193	1.000000	0.938880	7.37672e+06	-55939.1	1105.82	-29740.2	0.000000	0.000000	6.939070	-0.048640	NaN	0.000000	0.001594	0.001675	28.0813	0.020655	0.001998	10.3372	75.5612	-164.984	0.052165	0.937591	-0.124289	-0.125578	-0.048640	10.3372	-0.120760	-5.004908	0.009718	NaN
1193	1.000000	0.946904	7.37672e+06	-55939.1	1105.82	-29740.2	0.000000	0.000000	6.947094	-0.045883	NaN	0.000000	0.001664	0.001668	28.0815	0.115809	0.002074	55.8473	123.695	-166.128	0.081263	0.945615	-0.116265	-0.117554	-0.045883	55.8473	-0.115649	-3.939756	0.011646	NaN
1193	1.000000	0.954931	7.37672e+06	-55939.1	1105.82	-29740.2	0.000000	0.000000	6.955124	0.027356	NaN	0.000000	0.001636	0.001631	28.0813	0.129315	0.002060	62.7766	43.8013	-164.331	-0.012036	0.953632	-0.108238	-0.109537	0.027356	62.7766	-0.108565	-2.802220	-0.009762	NaN
1193	1.000000	0.962931	7.37672e+06	-55939.1	1105.82	-29740.2	0.000000	0.000000	6.963121	-0.047786	NaN	0.000000	0.001629	0.001605	28.081	0.074356	0.001919	38.7531	84.9856	-164.02	-0.017408	0.961634	-0.100238	-0.101535	-0.047786	38.7531	-0.099313	-1.764114	0.027088	NaN
1193	1.000000	0.970931	7.37672e+06	-55939.1	1105.82	-29740.2	0.000000	0.000000	6.971120	-0.075300	NaN	0.000000	0.001622	0.001652	28.0811	0.009440	0.001951	4.837952	163.429	-164.031	-0.001004	0.969686	-0.092238	-0.093483	-0.075300	4.837952	-0.080564	-0.639401	0.117766	NaN
1193	1.000000	0.978954	7.37672e+06	-55939.1	1105.82	-29740.2	0.000000	0.000000	6.979146	-0.007193	NaN	0.000000	0.001556	0.001636	28.081	0.007750	0.001997	3.879869	-139.531	-168.366	-0.076524	0.977606	-0.084215	-0.085563	-0.007193	3.879869	-0.082825	-0.727210	0.009891	NaN
1193	1.000000	0.986941	7.37672e+06	-55939.1	1105.82	-29740.2	0.000000	0.000000	6.987133	0.004400	NaN	0.000000	0.001552	0.001619	28.0814	0.048042	0.001884	25.498	57.0034	-164.64	0.038584	0.985663	-0.076228	-0.077506	0.004400	25.498	-0.076357	-0.500582	-0.008789	NaN
1193	1.000000	0.994962	7.37672e+06	-55939.1	1105.82	-29740.2	0.000000	0.000000	6.995154	0.016958	NaN	0.000000	0.001545	0.001644	28.0811	0.089532	0.001970	45.4461	-67.5037	-167.135	0.029128	0.993611	-0.068207	-0.069558	0.016958	45.4461	-0.068487	-0.310561	-0.054603	NaN
1193	1.000000	1.002927	7.37672e+06	-55939.1	1105.82	-29740.2	0.000000	0.000000	7.003118	-0.008313	NaN	0.000000	0.001551	0.001613	28.081	0.021257	0.002021	10.5171	-62.3608	-167.724	-0.076560	1.001599	-0.060242	-0.061570	-0.008313	10.5171	-0.059649	-0.175967	0.047242	NaN
1193	1.000000	1.010938	7.37672e+06	-55939.1	1105.82	-29740.2	0.000000	0.000000	7.011129	-0.009023	NaN	0.000000	0.001568	0.001634	28.081	0.035115	0.002056	17.0803	-13.4446	-167.979	-0.024597	1.009614	-0.052231	-0.053555	-0.009023	17.0803	-0.051835	-0.103643	0.087062	NaN
1193	1.000000	1.018962	7.37672e+06	-55939.1	1105.82	-29740.2	0.000000	0.000000	7.019153	-0.026402	NaN	0.000000	0.001572	0.001657	28.081	0.123259	0.002128	57.9331	19.1669	-166.506	-0.095152	1.017695	-0.044207	-0.045474	-0.026402	57.9331	-0.043865	-0.059332	0.444992	NaN
1193	1.000000	1.026979	7.37672e+06	-55939.1	1105.82	-29740.2	0.000000	0.000000	7.027170	-0.019340	NaN	0.000000	0.001549	0.001670	28.0811	0.079297	0.002024	39.1705	-128.167	-165.862	-0.037056	1.025628	-0.036190	-0.037541	-0.019340	39.1705	-0.035819	-0.033861	0.571154	NaN
1193	1.000000	1.034961	7.37672e+06	-55939.1	1105.82	-29740.2	0.000000	0.000000	7.035151	-0.050157	NaN	0.000000	0.001628	0.001672	28.081	0.020217	0.001989	10.1666	140.116	-166.139	-0.008384	1.033623	-0.028208	-0.029546	-0.050157	10.1666	-0.024508	-0.016380	3.062120	NaN
1193	1.000000	1.042971	7.37672e+06	-55939.1	1105.82	-29740.2	0.000000	0.000000	7.043164	0.021490	NaN	0.000000	0.001621	0.001637	28.0815	0.153558	0.002111	72.7311	28.5616	-165.193	-0.000545	1.041650	-0.020198	-0.021519	0.021490	72.7311	-0.020420	-0.012873	-1.669311	NaN
1193	1.000000	1.050974	7.37672e+06	-55939.1	1105.82	-29740.2	0.000000	0.000000	7.051167	0.021431	NaN	0.000000	0.001634	0.001647	28.0808	0.158981	0.002032	78.2376	47.6242	-166.972	0.054229	1.049666	-0.012195	-0.013503	0.021431	78.2376	-0.012400	-0.007758	-2.762529	NaN
1193	1.000000	1.058937	7.37672e+06	-55939.1	1105.82	-29740.2	0.000000	0.000000	7.059162	0.796014	NaN	0.000000	0.001598	0.001648	28.081	1.363286	0.001933	705.266	11.6821	-166.641	0.183687	1.057694	-0.004232	-0.005475	0.796014	705.266	-0.005079	-0.003466	-229.664	NaN
1193	2.000000	1.066391	7.37672e+06	-55939.1	1105.82	-29740.2	0.000000	0.000000	7.066939	8.650547	NaN	0.000000	0.001624	0.001645	28.082	8.710835	0.001683	5175.45	11.2293	-172.989	8.694586	1.065629	0.003222	0.002460	8.650547	5175.45	0.001968	0.001529	5657.07	120919
1193	2.000000	1.068502	7.37672e+06	-55939.1	1105.82	-29740.2	0.000000	0.000000	7.069192	12.0987	NaN	0.000000	0.001642	0.001736	28.082	10.546	0.001626	6484.4	6.912044	-175.248	11.7206	1.068185	0.005333	0.005016	12.0987	6484.4	0.003934	0.003181	3803.7	105045
1193	2.000000	1.070473	7.37672e+06	-55939.1	1105.82	-29740.2	0.000000	0.000000	7.071232	13.7629	NaN	0.000000	0.001624	0.001648	28.0826	13.0577	0.001744	7487.28	5.504048	-174.52	13.1639	1.070199	0.007304	0.007030	13.7629	7487.28	0.005926	0.004994	2755.81	96798.2
1193	2.000000	1.072467	7.37672e+06	-55939.1	1105.82	-29740.2	0.000000	0.000000	7.073405	18.1225	NaN	0.000000	0.001610	0.001636	28.0821	14.5944	0.001779	8203.15	8.342018	-177.902	17.9967	1.072182	0.009298	0.009013	18.1225	8203.15	0.007642	0.006676	2714.46	91724.9
1193	2.000000	1.074451	7.37672e+06	-55939.1	1105.82	-29740.2	0.000000	0.000000	7.075461	19.8823	NaN	0.000000	0.001612	0.001671	28.0826	17.4024	0.001812	9602.89	6.036009	-175.84	19.0475	1.074140	0.011282	0.010971	19.8823	9602.89	0.009730	0.008883	2238.36	93090.8
1193	2.000000	1.076447	7.37672e+06	-55939.1	1105.82	-29740.2	0.000000	0.000000	7.077580	22.8773	NaN	0.000000	0.001626	0.001649	28.0821	18.7395	0.001861	10069.4	5.990854	-176.624	21.8506	1.076170	0.013278	0.013001	22.8773	10069.4	0.011574	0.010983	2082.91	87782.9
1193	2.000000	1.078441	7.37672e+06	-55939.1	1105.82	-29740.2	0.000000	0.000000	7.079769	27.6118	NaN	0.000000	0.001618	0.001686	28.0822	20.7739	0.001738	11953.7	5.975088	-179.523	26.2786	1.078169	0.015272	0.015000	27.6118	11953.7	0.013540	0.013387	2062.58	94391.4
1193	2.000000	1.080424	7.37672e+06	-55939.1	1105.82	-29740.2	0.000000	0.000000	7.081820	29.2785	NaN	0.000000	0.001649	0.001681	28.0828	23.0019	0.001838	12515.8	5.586068	-179.523	28.5634	1.080151	0.017255	0.016982	29.2785	12515.8	0.015500	0.015958	1834.73	90519.6
1193	2.000000	1.082436	7.37672e+06	-55939.1	1105.82	-29740.2	0.000000	0.000000	7.084280	40.1579	NaN	0.000000	0.001624	0.001676	28.0821	24.5027	0.001811	13530.5	7.583492	179.265	38.5651	1.082057	0.019267	0.018888	40.1579	13530.5	0.017041	0.018104	2218.23	91876.8
1193	2.000000	1.084411	7.37672e+06	-55939.1	1105.82	-29740.2	0.000000	0.000000	7.086229	39.5061	NaN	0.000000	0.001624	0.001670	28.0824	26.1875	0.001832	14294.9	6.424096	179.086	38.2789	1.084117	0.021242	0.020948	39.5061	14294.9	0.019170	0.021254	1858.74	89584.4
1193	2.000000	1.086475	7.37672e+06	-55939.1	1105.82	-29740.2	0.000000	0.000000	7.088509	44.7775	NaN	0.000000	0.001627	0.001644	28.0822	27.7194	0.001845	15026.8	8.797665	179.527	46.0466	1.086086	0.023306	0.022917	44.7775	15026.8	0.021071	0.024254	1846.19	88155.1
1193	2.000000	1.088453	7.37672e+06	-55939.1	1105.82	-29740.2	0.000000	0.000000	7.090691	49.7286	NaN	0.000000	0.001630	0.001637	28.0822	29.2871	0.001712	17104.2	8.680170	176.118	50.6034	1.088129	0.025284	0.024960	49.7286	17104.2	0.023103	0.027655	1798.18	93970.2
1193	2.000000	1.090412	7.37672e+06	-55939.1	1105.82	-29740.2	0.000000	0.000000	7.092803	53.4598	NaN	0.000000	0.001625	0.001668	28.0839	32.3298	0.001870	17288	5.049062	178.775	53.172	1.090161	0.027243	0.026992	53.4598	17288	0.024924	0.030877	1731.36	89887.5
1193	2.000000	1.092462	7.37672e+06	-55939.1	1105.82	-29740.2	0.000000	0.000000	7.095135	60.2997	NaN	0.000000	0.001634	0.001682	28.0823	33.8957	0.001856	18263.5	9.125134	174.435	63.3509	1.092180	0.029293	0.029011	60.2997	18263.5	0.026817	0.034404	1752.71	89961
1193	2.000000	1.094381	7.37672e+06	-55939.1	1105.82	-29740.2	0.000000	0.000000	7.097377	68.1668	NaN	0.000000	0.001617	0.001685	28.0823	36.2575	0.001812	20007.8	8.820132	174.054	67.4033	1.094074	0.031212	0.030905	68.1668	20007.8	0.028657	0.038005	1793.61	93767.2
1193	2.000000	1.096383	7.37672e+06	-55939.1	1105.82	-29740.2	0.000000	0.000000	7.099686	75.6235	NaN	0.000000	0.001602	0.001668	28.0823	37.1776	0.001752	21225.2	2.956522	179.062	73.2296	1.096137	0.033214	0.032968	75.6235	21225.2	0.030542	0.041875	1805.95	94765.3
1193	2.000000	1.098414	7.37672e+06	-55939.1	1105.82	-29740.2	0.000000	0.000000	7.101826	78.2572	NaN	0.000000	0.001655	0.001669	28.0822	38.405	0.001843	20839.6	2.311358	-179.549	77.8813	1.098019	0.035245	0.034850	78.2572	20839.6	0.032429	0.045928	1703.89	88842.5
1193	2.000000	1.100460	7.37672e+06	-55939.1	1105.82	-29740.2	0.000000	0.000000	7.104241	87.2401	NaN	0.000000	0.001661	0.001664	28.0818	41.0371	0.001752	23427.2	12.0816	170.638	89.7003	1.100099	0.037291	0.036930	87.2401	23427.2	0.034498	0.050583	1724.68	95167.9
1193	2.000000	1.102391	7.37672e+06	-55939.1	1105.82	-29740.2	0.000000	0.000000	7.106500	95.2295	NaN	0.000000	0.001661	0.001656	28.0812	41.3421	0.001784	23172	3.140608	178.787	94.3001	1.102043	0.039222	0.038874	95.2295	23172	0.036139	0.054432	1749.5	90741.9
1193	2.000000	1.104343	7.37672e+06	-55939.1	1105.82	-29740.2	0.000000	0.000000	7.108663	100.346	NaN	0.000000	0.001678	0.001671	28.0812	43.4067	0.001782	24360.7	3.016624	178.501	97.7617	1.104017	0.041174	0.040848	100.346	24360.7	0.038085	0.059172	1695.84	91496.6
1193	2.000000	1.106422	7.37672e+06	-55939.1	1105.82	-29740.2	0.000000	0.000000	7.111092	108.849	NaN	0.000000	0.001661	0.001644	28.0813	46.4294	0.001863	24915.6	8.280431	173.144	108.52	1.106024	0.043253	0.042855	108.849	24915.6	0.039976	0.063967	1701.64	90005
1193	2.000000	1.108444	7.37672e+06	-55939.1	1105.82	-29740.2	0.000000	0.000000	7.113346	114.471	NaN	0.000000	0.001645	0.001636	28.0813	47.5664	0.001821	26114	8.387224	172.456	116.087	1.108057	0.045275	0.044888	114.471	26114	0.041988	0.069266	1652.63	90653.7
1193	2.000000	1.110406	7.37672e+06	-55939.1	1105.82	-29740.2	0.000000	0.000000	7.115833	127.251	NaN	0.000000	0.001667	0.001664	28.0821	51.0275	0.001800	28354.7	8.574292	170.103	126.877	1.110045	0.047237	0.046875	127.251	28354.7	0.043871	0.074416	1710	94965.5
1193	2.000000	1.112417	7.37672e+06	-55939.1	1105.82	-29740.2	0.000000	0.000000	7.118118	133.905	NaN	0.000000	0.001647	0.001645	28.0812	51.0298	0.001858	27472.1	4.550128	176.021	133.924	1.112057	0.049248	0.048888	133.905	27472.1	0.045592	0.079278	1689.07	89143.7
1193	2.000000	1.114356	7.37672e+06	-55939.1	1105.82	-29740.2	0.000000	0.000000	7.120582	146.677	NaN	0.000000	0.001600	0.001655	28.0812	54.0294	0.001894	28529.3	3.299030	176.861	144.526	1.113905	0.051186	0.050736	146.677	28529.3	0.047331	0.084341	1739.09	89752.2
1193	2.000000	1.116346	7.37672e+06	-55939.1	1105.82	-29740.2	0.000000	0.000000	7.122746	150.896	NaN	0.000000	0.001575	0.001645	28.0811	55.5885	0.001933	28764.6	4.558252	175.676	148.127	1.116005	0.053177	0.052836	150.896	28764.6	0.049243	0.090087	1675	87558.7
1193	2.000000	1.118427	7.37672e+06	-55939.1	1105.82	-29740.2	0.000000	0.000000	7.125152	158.788	NaN	0.000000	0.001606	0.001681	28.0813	56.9479	0.001815	31381.3	5.113158	174.146	161.312	1.117990	0.055258	0.054821	158.788	31381.3	0.051463	0.096990	1637.16	92062.1
1193	2.000000	1.120287	7.37672e+06	-55939.1	1105.82	-29740.2	0.000000	0.000000	7.127577	172.547	NaN	0.000000	0.001577	0.001658	28.0816	58.3696	0.001805	32337.9	2.921073	175.772	169.099	1.120122	0.057118	0.056953	172.547	32337.9	0.053116	0.102288	1686.88	92378.9
1193	2.000000	1.122364	7.37672e+06	-55939.1	1105.82	-29740.2	0.000000	0.000000	7.130301	188.284	NaN	0.000000	0.001609	0.001682	28.0812	59.4289	0.001707	34818.8	5.587324	172.503	188.185	1.121942	0.059195	0.058773	188.284	34818.8	0.055139	0.108956	1728.07	96374.2
1193	2.000000	1.124414	7.37672e+06	-55939.1	1105.82	-29740.2	0.000000	0.000000	7.132763	198.274	NaN	0.000000	0.001613	0.001672	28.0812	62.5842	0.001809	34588.3	7.127863	172.422	199.192	1.123935	0.061245	0.060766	198.274	34588.3	0.056946	0.115084	1722.87	93152.8
1193	2.000000	1.126417	7.37672e+06	-55939.1	1105.82	-29740.2	0.000000	0.000000	7.135219	209.283	NaN	0.000000	0.001586	0.001673	28.0812	63.8891	0.001823	35052.9	7.343195	172.812	211.487	1.125926	0.063248	0.062757	209.283	35052.9	0.058770	0.121434	1723.42	91902.2
1193	2.000000	1.128301	7.37672e+06	-55939.1	1105.82	-29740.2	0.000000	0.000000	7.137492	218.753	NaN	0.000000	0.001573	0.001688	28.0811	65.962	0.001783	36994.1	7.153165	170.914	216.337	1.128014	0.065132	0.064845	218.753	36994.1	0.060697	0.128320	1704.75	94353.5
1193	2.000000	1.130363	7.37672e+06	-55939.1	1105.82	-29740.2	0.000000	0.000000	7.139963	228.691	NaN	0.000000	0.001623	0.001709	28.0814	68.1904	0.001756	38825.7	4.637510	172.289	226.809	1.130106	0.067194	0.066937	228.691	38825.7	0.062777	0.135953	1682.14	96205.3
1193	2.000000	1.132364	7.37672e+06	-55939.1	1105.82	-29740.2	0.000000	0.000000	7.142705	246.688	NaN	0.000000	0.001634	0.001655	28.0811	69.4784	0.001764	39381.8	9.365784	168.364	245.834	1.131976	0.069195	0.068807	246.688	39381.8	0.064497	0.142426	1732.05	95340
1193	2.000000	1.134266	7.37672e+06	-55939.1	1105.82	-29740.2	0.000000	0.000000	7.145136	259.557	NaN	0.000000	0.001586	0.001670	28.0826	71.5664	0.001857	38538.5	2.474793	174.673	254.922	1.133969	0.071097	0.070800	259.557	38538.5	0.066046	0.148375	1749.33	91408.6
1193	2.000000	1.136384	7.37672e+06	-55939.1	1105.82	-29740.2	0.000000	0.000000	7.147904	275.368	NaN	0.000000	0.001632	0.001637	28.0824	73.3895	0.001845	39785.6	8.444497	169.135	274.94	1.135949	0.073215	0.072780	275.368	39785.6	0.068024	0.156142	1763.58	91989.7
1193	2.000000	1.138377	7.37672e+06	-55939.1	1105.82	-29740.2	0.000000	0.000000	7.150405	287.701	NaN	0.000000	0.001612	0.001684	28.0822	72.987	0.001727	42250.8	1.718546	175.291	288.551	1.137951	0.075208	0.074782	287.701	42250.8	0.070101	0.164500	1748.94	95175.4
1193	2.000000	1.140363	7.37672e+06	-55939.1	1105.82	-29740.2	0.000000	0.000000	7.152869	299.323	NaN	0.000000	0.001573	0.001679	28.0825	77.327	0.001832	42218.2	7.081367	170.318	299.577	1.139974	0.077194	0.076805	299.323	42218.2	0.071877	0.171805	1742.22	93058.3
1193	2.000000	1.142317	7.37672e+06	-55939.1	1105.82	-29740.2	0.000000	0.000000	7.155452	314.615	NaN	0.000000	0.001556	0.001675	28.0824	76.994	0.001727	44585.5	2.145136	174.331	313.638	1.141961	0.079148	0.078792	314.615	44585.5	0.073856	0.180126	1746.64	95979.5
1193	2.000000	1.144255	7.37672e+06	-55939.1	1105.82	-29740.2	0.000000	0.000000	7.157416	315.236	NaN	0.000000	0.001572	0.001657	28.0827	80.0673	0.001663	48154	3.022689	172.27	310.327	1.144123	0.081086	0.080954	315.236	48154	0.076177	0.190117	1658.11	100901
1193	2.000000	1.146307	7.37672e+06	-55939.1	1105.82	-29740.2	0.000000	0.000000	7.160542	341.362	NaN	0.000000	0.001574	0.001650	28.0824	82.8301	0.001795	46143.3	1.866679	174.548	337.55	1.145934	0.083138	0.082765	341.362	46143.3	0.077589	0.196323	1738.77	95147.2
1193	2.000000	1.148418	7.37672e+06	-55939.1	1105.82	-29740.2	0.000000	0.000000	7.162979	349.266	NaN	0.000000	0.001572	0.001660	28.0824	84.3413	0.001668	50575.4	2.235744	173.11	353.065	1.148184	0.085249	0.085015	349.266	50575.4	0.080070	0.207446	1683.64	101452
1193	2.000000	1.150406	7.37672e+06	-55939.1	1105.82	-29740.2	0.000000	0.000000	7.165894	371.818	NaN	0.000000	0.001580	0.001657	28.0822	87.6482	0.001853	47307.9	10.5776	166.829	375.297	1.149938	0.087237	0.086769	371.818	47307.9	0.081342	0.213263	1743.47	93594.2
1193	2.000000	1.152276	7.37672e+06	-55939.1	1105.82	-29740.2	0.000000	0.000000	7.168477	389.133	NaN	0.000000	0.001595	0.001656	28.0825	88.4124	0.001874	47169.8	5.333235	171.185	385.481	1.151821	0.089107	0.088652	389.133	47169.8	0.082920	0.220579	1764.14	91760.4
1193	2.000000	1.154306	7.37672e+06	-55939.1	1105.82	-29740.2	0.000000	0.000000	7.170919	399.174	NaN	0.000000	0.001558	0.001648	28.0827	90.2697	0.001894	47672.1	3.311555	172.36	397.785	1.154067	0.091137	0.090898	399.174	47672.1	0.084857	0.229719	1737.67	90874
1193	2.000000	1.156263	7.37672e+06	-55939.1	1105.82	-29740.2	0.000000	0.000000	7.173063	403.695	NaN	0.000000	0.001566	0.001639	28.082	91.4573	0.001781	51350.5	1.894973	173.765	397.164	1.156013	0.093094	0.092844	403.695	51350.5	0.087198	0.240996	1675.11	95568
1193	2.000000	1.158264	7.37672e+06	-55939.1	1105.82	-29740.2	0.000000	0.000000	7.176222	431.85	NaN	0.000000	0.001589	0.001641	28.0825	92.2471	0.001779	51850.5	2.306413	172.839	427.708	1.157927	0.095095	0.094758	431.85	51850.5	0.088849	0.249103	1733.62	94915.3
1193	2.000000	1.160294	7.37672e+06	-55939.1	1105.82	-29740.2	0.000000	0.000000	7.178642	441.335	NaN	0.000000	0.001591	0.001651	28.0823	95.0982	0.001736	54775.6	3.962623	170.84	437.978	1.160005	0.097125	0.096836	441.335	54775.6	0.091082	0.260268	1695.7	98095.7
1193	2.000000	1.162265	7.37672e+06	-55939.1	1105.82	-29740.2	0.000000	0.000000	7.181413	460.776	NaN	0.000000	0.001588	0.001705	28.0823	95.4911	0.001820	52475.5	3.858648	171.779	456.55	1.161943	0.099096	0.098774	460.776	52475.5	0.092510	0.267526	1722.36	92693
1193	2.000000	1.164334	7.37672e+06	-55939.1	1105.82	-29740.2	0.000000	0.000000	7.183988	473.094	NaN	0.000000	0.001569	0.001642	28.0826	97.6075	0.001747	55878.2	0.796249	174.394	472.431	1.164001	0.101165	0.100832	473.094	55878.2	0.094815	0.279436	1693.03	96577.2
1193	2.000000	1.164778	7.37672e+06	-55939.1	1105.82	-29740.2	0.000000	0.000000	7.184630	477.902	NaN	0.000000	0.001554	0.001646	28.0826	99.0121	0.001802	54932.1	5.156544	-10.4442	473.148	1.164500	0.101609	0.101331	477.902	54932.1	0.095084	0.280841	1701.68	94704