File: remote_trans/data/nanoindenter/0828-1/data/Data_2025-08-06,11h17m57s/2025-07-22_16-23-58_1_610.txt
2025-07-22, 16:23:58, 1
Index	Phase	Displacement	Time	Pos X	Pos Y	Pos Z	Rot A	Rot B	Piezo Z	Force A	Force B	Gripper	Voltage A	Voltage B	Temperature	Amplitude force	Amplitude pos	Stiffness	Phase shift	Phase excitation	Force A raw	Displacement raw	HMax	HMax raw	Real Force	Real Stiffness	Contact Depth	Area	Hardness	Reduced Mod.
[#]	[#]	[um]	[s]	[um]	[um]	[um]	[m°]	[m°]	[um]	[uN]	[uN]	[V]	[V]	[V]	[°C]	[uN]	[um]	[N/m]	[°]	[°]	[uN]	[um]	[um]	[um]	[uN]	[N/m]	[um]	[um^2]	[MPa]	[MPa]
610	1.000000	0.002287	7.37102e+06	-46589.1	1005.82	-29768.7	0.000000	0.000000	6.002800	-0.044283	NaN	0.000000	0.001586	0.001743	28.0801	0.018241	0.000851	21.4452	9.592918	-164.116	0.027521	0.001018	-1.138680	-1.139948	-0.044283	21.4452	-1.137131	-1.578575E+15	2.805246E-17	NaN
610	1.000000	0.012340	7.37102e+06	-46589.1	1005.82	-29768.7	0.000000	0.000000	6.012856	0.011784	NaN	0.000000	0.001605	0.001812	28.08	0.070198	0.001168	60.1254	95.5361	20.3584	-0.044075	0.010857	-1.128626	-1.130109	0.011784	60.1254	-1.128773	-1.219448E+15	-9.663770E-18	NaN
610	1.000000	0.022216	7.37102e+06	-46589.1	1005.82	-29768.7	0.000000	0.000000	6.022731	-0.000852	NaN	0.000000	0.001622	0.001770	28.0799	0.075367	0.001688	44.6368	147.635	-166.586	-0.012374	0.020951	-1.118751	-1.120016	-0.000852	44.6368	-1.118736	-8.943735E+14	9.520681E-19	NaN
610	1.000000	0.032239	7.37102e+06	-46589.1	1005.82	-29768.7	0.000000	0.000000	6.032755	0.021180	NaN	0.000000	0.001641	0.001785	28.0813	0.019275	0.001873	10.2928	-65.8102	15.4264	-0.042495	0.030890	-1.108728	-1.110076	0.021180	10.2928	-1.110271	-6.885325E+14	-3.076084E-17	NaN
610	1.000000	0.042247	7.37102e+06	-46589.1	1005.82	-29768.7	0.000000	0.000000	6.042765	0.053688	NaN	0.000000	0.001618	0.001784	28.0815	0.040747	0.002006	20.3142	171.611	-164.327	0.009163	0.040922	-1.098719	-1.100044	0.053688	20.3142	-1.100701	-5.122530E+14	-1.048078E-16	NaN
610	1.000000	0.052227	7.37102e+06	-46589.1	1005.82	-29768.7	0.000000	0.000000	6.052743	0.003766	NaN	0.000000	0.001587	0.001776	28.0821	0.059113	0.002020	29.2667	-30.0855	17.6309	0.038219	0.050885	-1.088739	-1.090081	0.003766	29.2667	-1.088835	-3.549556E+14	-1.060943E-17	NaN
610	1.000000	0.062230	7.37102e+06	-46589.1	1005.82	-29768.7	0.000000	0.000000	6.062747	0.038541	NaN	0.000000	0.001593	0.001826	28.0811	0.011859	0.002016	5.881687	-80.1963	-164.754	0.070116	0.060907	-1.078737	-1.080059	0.038541	5.881687	-1.083651	-3.023836E+14	-1.274563E-16	NaN
610	1.000000	0.072261	7.37102e+06	-46589.1	1005.82	-29768.7	0.000000	0.000000	6.072776	-0.015539	NaN	0.000000	0.001609	0.001785	28.0812	0.065776	0.001968	33.4172	-178.693	16.0156	0.013722	0.070906	-1.068705	-1.070061	-0.015539	33.4172	-1.068356	-1.884114E+14	8.247462E-17	NaN
610	1.000000	0.082224	7.37102e+06	-46589.1	1005.82	-29768.7	0.000000	0.000000	6.082741	0.040474	NaN	0.000000	0.001585	0.001809	28.0814	0.038296	0.001843	20.7826	-39.0321	-165.879	0.037107	0.080975	-1.058742	-1.059992	0.040474	20.7826	-1.060203	-1.464027E+14	-2.764561E-16	NaN
610	1.000000	0.092263	7.37102e+06	-46589.1	1005.82	-29768.7	0.000000	0.000000	6.092779	0.007326	NaN	0.000000	0.001601	0.001748	28.0812	0.102571	0.002012	50.9871	173.439	13.9798	0.089127	0.090880	-1.048703	-1.050086	0.007326	50.9871	-1.048811	-1.029033E+14	-7.119390E-17	NaN
610	1.000000	0.102253	7.37102e+06	-46589.1	1005.82	-29768.7	0.000000	0.000000	6.102767	-0.025429	NaN	0.000000	0.001616	0.001773	28.0814	0.037365	0.001905	19.6114	-3.382543	-164.529	-0.103990	0.100917	-1.038713	-1.040049	-0.025429	19.6114	-1.037741	-7.304457E+13	3.481235E-16	NaN
610	1.000000	0.112251	7.37102e+06	-46589.1	1005.82	-29768.7	0.000000	0.000000	6.112768	0.022646	NaN	0.000000	0.001616	0.001774	28.0815	0.061213	0.001970	31.072	11.1736	15.7267	0.038947	0.110930	-1.028715	-1.030037	0.022646	31.072	-1.029262	-5.617579E+13	-4.031185E-16	NaN
610	1.000000	0.122261	7.37102e+06	-46589.1	1005.82	-29768.7	0.000000	0.000000	6.122774	-0.060806	NaN	0.000000	0.001594	0.001774	28.0815	0.157694	0.002168	72.7468	-145.118	-162.27	0.011529	0.120929	-1.018705	-1.020038	-0.060806	72.7468	-1.018078	-3.972792E+13	1.530560E-15	NaN
610	1.000000	0.132259	7.37102e+06	-46589.1	1005.82	-29768.7	0.000000	0.000000	6.132774	-0.030338	NaN	0.000000	0.001610	0.001786	28.0815	0.154931	0.002146	72.1797	-38.7267	16.8527	-0.054294	0.130897	-1.008707	-1.010069	-0.030338	72.1797	-1.008392	-2.942628E+13	1.030999E-15	NaN
610	1.000000	0.142270	7.37102e+06	-46589.1	1005.82	-29768.7	0.000000	0.000000	6.142781	-0.089191	NaN	0.000000	0.001590	0.001788	28.0814	0.037384	0.002013	18.5732	-50.4665	-166.632	-0.057325	0.140954	-0.998697	-1.000013	-0.089191	18.5732	-0.995095	-1.948622E+13	4.577110E-15	NaN
610	1.000000	0.152279	7.37102e+06	-46589.1	1005.82	-29768.7	0.000000	0.000000	6.152794	0.003054	NaN	0.000000	0.001595	0.001756	28.0815	0.102497	0.002002	51.2058	85.0039	15.6113	-0.057280	0.150946	-0.988688	-0.990020	0.003054	51.2058	-0.988732	-1.599703E+13	-1.908895E-16	NaN
610	1.000000	0.162271	7.37102e+06	-46589.1	1005.82	-29768.7	0.000000	0.000000	6.162786	-0.000923	NaN	0.000000	0.001633	0.001730	28.0814	0.103938	0.001981	52.4733	44.1176	-164.229	-0.021419	0.160920	-0.978696	-0.980047	-0.000923	52.4733	-0.978683	-1.171281E+13	7.878775E-17	NaN
610	1.000000	0.172263	7.37102e+06	-46589.1	1005.82	-29768.7	0.000000	0.000000	6.172776	-0.048440	NaN	0.000000	0.001580	0.001758	28.0802	0.022083	0.001833	12.0487	-27.3019	15.1766	-0.081984	0.170975	-0.968704	-0.969991	-0.048440	12.0487	-0.965689	-7.826241E+12	6.189462E-15	NaN
610	1.000000	0.182292	7.37102e+06	-46589.1	1005.82	-29768.7	0.000000	0.000000	6.182807	-0.018460	NaN	0.000000	0.001595	0.001757	28.0799	0.050902	0.001993	25.5407	158.198	-164.32	-0.052554	0.180959	-0.958674	-0.960007	-0.018460	25.5407	-0.958132	-6.189955E+12	2.982188E-15	NaN
610	1.000000	0.192278	7.37102e+06	-46589.1	1005.82	-29768.7	0.000000	0.000000	6.192794	0.018019	NaN	0.000000	0.001602	0.001777	28.0799	0.073293	0.002027	36.1509	140.359	14.5793	0.057318	0.190923	-0.948688	-0.950043	0.018019	36.1509	-0.949062	-4.670678E+12	-3.857983E-15	NaN
610	1.000000	0.202277	7.37102e+06	-46589.1	1005.82	-29768.7	0.000000	0.000000	6.202793	0.027245	NaN	0.000000	0.001614	0.001774	28.0802	0.171815	0.002052	83.749	125.343	-164.807	-0.013114	0.200990	-0.938690	-0.939976	0.027245	83.749	-0.938934	-3.409964E+12	-7.989803E-15	NaN
610	1.000000	0.212300	7.37102e+06	-46589.1	1005.82	-29768.7	0.000000	0.000000	6.212814	-0.035305	NaN	0.000000	0.001596	0.001755	28.0799	0.088990	0.001892	47.0381	22.4306	9.515465	-0.075815	0.210908	-0.928666	-0.930058	-0.035305	47.0381	-0.928103	-2.435537E+12	1.449570E-14	NaN
610	1.000000	0.222288	7.37102e+06	-46589.1	1005.82	-29768.7	0.000000	0.000000	6.222804	0.011518	NaN	0.000000	0.001604	0.001730	28.0802	0.115870	0.002007	57.7335	98.3305	-168.302	-0.003014	0.220998	-0.918678	-0.919968	0.011518	57.7335	-0.918828	-1.825502E+12	-6.309528E-15	NaN
610	1.000000	0.232291	7.37102e+06	-46589.1	1005.82	-29768.7	0.000000	0.000000	6.232807	0.017604	NaN	0.000000	0.001646	0.001783	28.0798	0.015146	0.002042	7.417524	18.3226	15.089	0.022796	0.230911	-0.908675	-0.910056	0.017604	7.417524	-0.910455	-1.407053E+12	-1.251128E-14	NaN
610	1.000000	0.242327	7.37102e+06	-46589.1	1005.82	-29768.7	0.000000	0.000000	6.242840	-0.062322	NaN	0.000000	0.001611	0.001762	28.08	0.041875	0.001962	21.3443	83.2772	-166.768	-0.170728	0.241044	-0.898639	-0.899922	-0.062322	21.3443	-0.896450	-9.100969E+11	6.847888E-14	NaN
610	1.000000	0.252328	7.37102e+06	-46589.1	1005.82	-29768.7	0.000000	0.000000	6.252847	0.089135	NaN	0.000000	0.001617	0.001762	28.08	0.030208	0.001911	15.8093	96.0362	12.7142	0.057179	0.250919	-0.888638	-0.890047	0.089135	15.8093	-0.892867	-8.140850E+11	-1.094913E-13	NaN
610	1.000000	0.262280	7.37102e+06	-46589.1	1005.82	-29768.7	0.000000	0.000000	6.262794	-0.035937	NaN	0.000000	0.001657	0.001752	28.0803	0.056121	0.002096	26.7808	-58.3818	-165.347	-0.062901	0.260992	-0.878686	-0.879975	-0.035937	26.7808	-0.877680	-5.073768E+11	7.082834E-14	NaN
610	1.000000	0.272321	7.37102e+06	-46589.1	1005.82	-29768.7	0.000000	0.000000	6.272836	-0.019547	NaN	0.000000	0.001610	0.001758	28.08	0.079317	0.001991	39.8294	2.922575	16.8091	-0.003492	0.270993	-0.868645	-0.869974	-0.019547	39.8294	-0.868277	-3.785583E+11	5.163582E-14	NaN
610	1.000000	0.282339	7.37102e+06	-46589.1	1005.82	-29768.7	0.000000	0.000000	6.282854	-0.004347	NaN	0.000000	0.001618	0.001771	28.08	0.048005	0.001991	24.1165	143.129	-166.692	-0.015996	0.280999	-0.858627	-0.859967	-0.004347	24.1165	-0.858492	-2.790697E+11	1.557603E-14	NaN
610	1.000000	0.292340	7.37102e+06	-46589.1	1005.82	-29768.7	0.000000	0.000000	6.292852	-0.076458	NaN	0.000000	0.001658	0.001754	28.0801	0.132518	0.001971	67.2244	-162.448	15.7312	-0.033399	0.290985	-0.848626	-0.849981	-0.076458	67.2244	-0.847773	-1.997939E+11	3.826861E-13	NaN
610	1.000000	0.302356	7.37102e+06	-46589.1	1005.82	-29768.7	0.000000	0.000000	6.302868	-0.071790	NaN	0.000000	0.001664	0.001769	28.0801	0.086125	0.001920	44.8522	-176.89	-164.613	-0.031026	0.301039	-0.838611	-0.839927	-0.071790	44.8522	-0.837410	-1.446131E+11	4.964289E-13	NaN
610	1.000000	0.312346	7.37102e+06	-46589.1	1005.82	-29768.7	0.000000	0.000000	6.312861	-0.024980	NaN	0.000000	0.001658	0.001768	28.0812	0.047560	0.002002	23.7555	25.2029	16.5973	-0.083122	0.310959	-0.828620	-0.830008	-0.024980	23.7555	-0.827831	-1.072479E+11	2.329151E-13	NaN
610	1.000000	0.322338	7.37102e+06	-46589.1	1005.82	-29768.7	0.000000	0.000000	6.322850	-0.093509	NaN	0.000000	0.001640	0.001776	28.0812	0.123868	0.002093	59.1798	-159.188	-162.288	-0.034882	0.320990	-0.818628	-0.819977	-0.093509	59.1798	-0.817443	-7.754243E+10	1.205906E-12	NaN
610	1.000000	0.332365	7.37102e+06	-46589.1	1005.82	-29768.7	0.000000	0.000000	6.332879	-0.020839	NaN	0.000000	0.001618	0.001766	28.0814	0.044011	0.001970	22.3374	168.875	15.9353	-0.053914	0.331021	-0.808602	-0.809946	-0.020839	22.3374	-0.807902	-5.755826E+10	3.620562E-13	NaN
610	1.000000	0.342362	7.37102e+06	-46589.1	1005.82	-29768.7	0.000000	0.000000	6.342875	-0.045811	NaN	0.000000	0.001614	0.001796	28.0814	0.079889	0.002019	39.5678	-3.506361	-163.981	0.032973	0.341028	-0.798605	-0.799938	-0.045811	39.5678	-0.797736	-4.189215E+10	1.093543E-12	NaN
610	1.000000	0.352333	7.37102e+06	-46589.1	1005.82	-29768.7	0.000000	0.000000	6.352849	0.021216	NaN	0.000000	0.001616	0.001771	28.0815	0.027675	0.001990	13.9073	6.693431	14.1124	-0.037787	0.351105	-0.788634	-0.789862	0.021216	13.9073	-0.789778	-3.266375E+10	-6.495312E-13	NaN
610	1.000000	0.362386	7.37102e+06	-46589.1	1005.82	-29768.7	0.000000	0.000000	6.362899	-0.046611	NaN	0.000000	0.001603	0.001738	28.0816	0.020038	0.001985	10.0964	-131.899	-165.286	-0.024772	0.361067	-0.778580	-0.779899	-0.046611	10.0964	-0.775118	-2.064820E+10	2.257370E-12	NaN
610	1.000000	0.372392	7.37102e+06	-46589.1	1005.82	-29768.7	0.000000	0.000000	6.372907	-0.014121	NaN	0.000000	0.001608	0.001741	28.0816	0.110896	0.001995	55.5788	171.834	19.2569	-0.039550	0.371005	-0.768575	-0.769961	-0.014121	55.5788	-0.768384	-1.672370E+10	8.443508E-13	NaN
610	1.000000	0.382400	7.37102e+06	-46589.1	1005.82	-29768.7	0.000000	0.000000	6.382915	-0.006150	NaN	0.000000	0.001642	0.001759	28.0815	0.037095	0.001950	19.0225	-52.8541	-166.086	0.015305	0.381115	-0.758566	-0.759851	-0.006150	19.0225	-0.758324	-1.220387E+10	5.039632E-13	NaN
610	1.000000	0.392375	7.37102e+06	-46589.1	1005.82	-29768.7	0.000000	0.000000	6.392889	-0.037905	NaN	0.000000	0.001600	0.001765	28.0814	0.025381	0.002007	12.646	-54.511	14.2106	-0.031071	0.391058	-0.748591	-0.749909	-0.037905	12.646	-0.746343	-8.383683E+9	4.521275E-12	NaN
610	1.000000	0.402382	7.37102e+06	-46589.1	1005.82	-29768.7	0.000000	0.000000	6.402896	-0.048982	NaN	0.000000	0.001604	0.001788	28.0816	0.101049	0.001996	50.6259	-27.9105	-164.813	-0.032179	0.401062	-0.738584	-0.739904	-0.048982	50.6259	-0.737858	-6.425186E+9	7.623367E-12	NaN
610	1.000000	0.412390	7.37102e+06	-46589.1	1005.82	-29768.7	0.000000	0.000000	6.412906	0.014276	NaN	0.000000	0.001589	0.001748	28.0813	0.009787	0.002056	4.759798	-144.646	13.0282	0.023441	0.411032	-0.728576	-0.729934	0.014276	4.759798	-0.730826	-5.152992E+9	-2.770458E-12	NaN
610	1.000000	0.422362	7.37102e+06	-46589.1	1005.82	-29768.7	0.000000	0.000000	6.422877	-0.023459	NaN	0.000000	0.001603	0.001751	28.0815	0.071926	0.001999	35.9725	77.7016	-165.736	-0.061353	0.421112	-0.718604	-0.719854	-0.023459	35.9725	-0.718115	-3.457522E+9	6.785015E-12	NaN
610	1.000000	0.432410	7.37102e+06	-46589.1	1005.82	-29768.7	0.000000	0.000000	6.432924	-0.042396	NaN	0.000000	0.001618	0.001776	28.0815	0.130574	0.002111	61.8527	99.2998	13.9437	-0.073695	0.431028	-0.708556	-0.709938	-0.042396	61.8527	-0.708042	-2.519592E+9	1.682669E-11	NaN
610	1.000000	0.442402	7.37102e+06	-46589.1	1005.82	-29768.7	0.000000	0.000000	6.442916	-0.038218	NaN	0.000000	0.001602	0.001767	28.0804	0.112114	0.002018	55.5578	80.2288	-165.641	0.029381	0.441091	-0.698564	-0.699875	-0.038218	55.5578	-0.698048	-1.840227E+9	2.076800E-11	NaN
610	1.000000	0.452397	7.37102e+06	-46589.1	1005.82	-29768.7	0.000000	0.000000	6.452914	0.031990	NaN	0.000000	0.001592	0.001753	28.0801	0.083095	0.001802	46.1256	41.6532	18.1837	0.028656	0.451019	-0.688569	-0.689947	0.031990	46.1256	-0.689089	-1.388254E+9	-2.304332E-11	NaN
610	1.000000	0.462411	7.37102e+06	-46589.1	1005.82	-29768.7	0.000000	0.000000	6.462924	-0.060917	NaN	0.000000	0.001603	0.001766	28.0801	0.117945	0.001826	64.577	-102.437	-164.132	-0.077557	0.461151	-0.678555	-0.679815	-0.060917	64.577	-0.677848	-9.744640E+8	6.251327E-11	NaN
610	1.000000	0.472391	7.37102e+06	-46589.1	1005.82	-29768.7	0.000000	0.000000	6.472906	-0.007110	NaN	0.000000	0.001595	0.001773	28.0802	0.091788	0.002060	44.5572	-32.3133	11.6088	0.011986	0.471061	-0.668575	-0.669905	-0.007110	44.5572	-0.668456	-7.248595E+8	9.808342E-12	NaN
610	1.000000	0.482408	7.37102e+06	-46589.1	1005.82	-29768.7	0.000000	0.000000	6.482923	-0.001558	NaN	0.000000	0.001571	0.001792	28.08	0.049080	0.002123	23.1173	178.908	-164.25	-0.072887	0.481092	-0.658559	-0.659874	-0.001558	23.1173	-0.658508	-5.297018E+8	2.941398E-12	NaN
610	1.000000	0.492419	7.37102e+06	-46589.1	1005.82	-29768.7	0.000000	0.000000	6.492931	-0.073299	NaN	0.000000	0.001577	0.001785	28.0799	0.050892	0.002017	25.2357	88.8104	11.7599	0.013663	0.491074	-0.648548	-0.649892	-0.073299	25.2357	-0.646369	-3.611212E+8	2.029775E-10	NaN
610	1.000000	0.502393	7.37102e+06	-46589.1	1005.82	-29768.7	0.000000	0.000000	6.502906	-0.067677	NaN	0.000000	0.001676	0.001780	28.0799	0.081072	0.001939	41.8039	126.101	-164.423	-0.082945	0.501160	-0.638573	-0.639806	-0.067677	41.8039	-0.637359	-2.716752E+8	2.491098E-10	NaN
610	1.000000	0.512406	7.37102e+06	-46589.1	1005.82	-29768.7	0.000000	0.000000	6.512922	0.007710	NaN	0.000000	0.001614	0.001768	28.0803	0.021460	0.002061	10.4105	-34.2919	15.8462	0.023652	0.511083	-0.628561	-0.629883	0.007710	10.4105	-0.629116	-2.093549E+8	-3.682604E-11	NaN
610	1.000000	0.522428	7.37102e+06	-46589.1	1005.82	-29768.7	0.000000	0.000000	6.522944	0.024215	NaN	0.000000	0.001641	0.001791	28.08	0.053706	0.001979	27.1424	88.4534	-165.167	0.033898	0.521092	-0.618539	-0.619875	0.024215	27.1424	-0.619208	-1.530183E+8	-1.582489E-10	NaN
610	1.000000	0.532475	7.37102e+06	-46589.1	1005.82	-29768.7	0.000000	0.000000	6.532990	0.005988	NaN	0.000000	0.001677	0.001749	28.0802	0.123883	0.001972	62.8314	-156.156	15.9934	0.067938	0.531096	-0.608492	-0.609870	0.005988	62.8314	-0.608563	-1.092301E+8	-5.482040E-11	NaN
610	1.000000	0.542435	7.37102e+06	-46589.1	1005.82	-29768.7	0.000000	0.000000	6.542950	-0.009453	NaN	0.000000	0.001650	0.001780	28.08	0.133732	0.002190	61.0568	-141.419	-163.187	-0.041670	0.541177	-0.598532	-0.599790	-0.009453	61.0568	-0.598416	-7.918395E+7	1.193842E-10	NaN
610	1.000000	0.552447	7.37102e+06	-46589.1	1005.82	-29768.7	0.000000	0.000000	6.552961	-0.026558	NaN	0.000000	0.001660	0.001781	28.0801	0.020943	0.002025	10.3422	43.8073	11.6691	-0.054658	0.551107	-0.588520	-0.589859	-0.026558	10.3422	-0.586594	-5.441210E+7	4.880951E-10	NaN
610	1.000000	0.562468	7.37102e+06	-46589.1	1005.82	-29768.7	0.000000	0.000000	6.562983	-0.010891	NaN	0.000000	0.001651	0.001801	28.0801	0.071501	0.002067	34.5832	-61.1005	-164.582	0.007334	0.561177	-0.578499	-0.579790	-0.010891	34.5832	-0.578262	-4.175816E+7	2.608203E-10	NaN
610	1.000000	0.572436	7.37102e+06	-46589.1	1005.82	-29768.7	0.000000	0.000000	6.572949	-0.066886	NaN	0.000000	0.001650	0.001777	28.0803	0.072210	0.002061	35.0301	-161.075	16.0516	0.042857	0.571087	-0.568530	-0.569880	-0.066886	35.0301	-0.567098	-2.927730E+7	2.284560E-9	NaN
610	1.000000	0.582473	7.37102e+06	-46589.1	1005.82	-29768.7	0.000000	0.000000	6.582988	-0.009462	NaN	0.000000	0.001606	0.001775	28.0815	0.091808	0.001873	49.0136	29.2848	-163.727	-0.072687	0.581145	-0.558494	-0.559822	-0.009462	49.0136	-0.558349	-2.215824E+7	4.270382E-10	NaN
610	1.000000	0.592441	7.37102e+06	-46589.1	1005.82	-29768.7	0.000000	0.000000	6.592954	-0.050594	NaN	0.000000	0.001585	0.001694	28.0816	0.007905	0.002173	3.638159	-166.722	15.1666	-0.067351	0.591158	-0.548526	-0.549809	-0.050594	3.638159	-0.538096	-1.161307E+7	4.356658E-9	NaN
610	1.000000	0.602443	7.37102e+06	-46589.1	1005.82	-29768.7	0.000000	0.000000	6.602957	-0.036997	NaN	0.000000	0.001612	0.001652	28.0814	0.069649	0.002064	33.7442	163.53	-166.696	-0.031851	0.601132	-0.538523	-0.539834	-0.036997	33.7442	-0.537701	-1.146736E+7	3.226248E-9	NaN
610	1.000000	0.612460	7.37102e+06	-46589.1	1005.82	-29768.7	0.000000	0.000000	6.612976	0.034168	NaN	0.000000	0.001611	0.001674	28.0813	0.035977	0.002040	17.6371	-114.377	15.6531	-0.010357	0.611084	-0.528507	-0.529882	0.034168	17.6371	-0.529960	-8.95399e+06	-3.815987E-9	NaN
610	1.000000	0.622448	7.37102e+06	-46589.1	1005.82	-29768.7	0.000000	0.000000	6.622963	-0.011707	NaN	0.000000	0.001562	0.001681	28.0815	0.044659	0.001994	22.3924	82.4157	-166.324	-0.045652	0.621202	-0.518518	-0.519765	-0.011707	22.3924	-0.518126	-6.13096e+06	1.909524E-9	NaN
610	1.000000	0.632466	7.37102e+06	-46589.1	1005.82	-29768.7	0.000000	0.000000	6.632980	-0.049199	NaN	0.000000	0.001574	0.001705	28.0814	0.087219	0.001957	44.5664	148.14	17.8949	-0.024075	0.631094	-0.508500	-0.509872	-0.049199	44.5664	-0.507672	-4.38518e+06	1.121935E-8	NaN
610	1.000000	0.642496	7.37102e+06	-46589.1	1005.82	-29768.7	0.000000	0.000000	6.643010	-0.036551	NaN	0.000000	0.001585	0.001672	28.0814	0.038938	0.001818	21.4136	7.908591	-165.388	-0.042046	0.641160	-0.498470	-0.499806	-0.036551	21.4136	-0.497190	-3.1319e+06	1.167049E-8	NaN
610	1.000000	0.652506	7.37102e+06	-46589.1	1005.82	-29768.7	0.000000	0.000000	6.653021	-0.015273	NaN	0.000000	0.001580	0.001648	28.0819	0.057428	0.001992	28.8241	-18.5975	18.0931	-0.012651	0.651076	-0.488460	-0.489891	-0.015273	28.8241	-0.488063	-2.33517e+06	6.540589E-9	NaN
610	1.000000	0.662479	7.37102e+06	-46589.1	1005.82	-29768.7	0.000000	0.000000	6.662993	-0.054672	NaN	0.000000	0.001570	0.001658	28.0815	0.049788	0.002051	24.2705	83.5656	-161.817	0.058127	0.661185	-0.478487	-0.479781	-0.054672	24.2705	-0.476798	-1.62436e+06	3.365779E-8	NaN
610	1.000000	0.672485	7.37102e+06	-46589.1	1005.82	-29768.7	0.000000	0.000000	6.672999	-0.026150	NaN	0.000000	0.001590	0.001618	28.0816	0.099892	0.001981	50.425	-122.155	14.4044	-0.008504	0.671131	-0.468481	-0.469835	-0.026150	50.425	-0.468093	-1.22645e+06	2.132140E-8	NaN
610	1.000000	0.682501	7.37102e+06	-46589.1	1005.82	-29768.7	0.000000	0.000000	6.683014	-0.060560	NaN	0.000000	0.001606	0.001680	28.0815	0.035245	0.001927	18.2857	10.57	-167.017	-0.017494	0.681196	-0.458465	-0.459770	-0.060560	18.2857	-0.455982	-828942	7.305690E-8	NaN
610	1.000000	0.692537	7.37102e+06	-46589.1	1005.82	-29768.7	0.000000	0.000000	6.693052	-0.013316	NaN	0.000000	0.001596	0.001677	28.0817	0.065236	0.001997	32.6689	-165.87	12.6716	0.016173	0.691158	-0.448430	-0.449808	-0.013316	32.6689	-0.448124	-642568	2.072297E-8	NaN
610	1.000000	0.702487	7.37102e+06	-46589.1	1005.82	-29768.7	0.000000	0.000000	6.703001	-0.041990	NaN	0.000000	0.001650	0.001637	28.0814	0.051572	0.002064	24.9882	14.6394	-163.548	0.019463	0.701219	-0.438480	-0.439747	-0.041990	24.9882	-0.437219	-450925	9.311944E-8	NaN
610	1.000000	0.712515	7.37102e+06	-46589.1	1005.82	-29768.7	0.000000	0.000000	6.713030	-0.019923	NaN	0.000000	0.001636	0.001670	28.081	0.123535	0.001949	63.3711	147.021	13.7869	0.062258	0.711146	-0.428451	-0.429820	-0.019923	63.3711	-0.428215	-336363	5.922999E-8	NaN
610	1.000000	0.722546	7.37102e+06	-46589.1	1005.82	-29768.7	0.000000	0.000000	6.723059	-0.062086	NaN	0.000000	0.001581	0.001713	28.0802	0.072355	0.002158	33.5342	-53.4198	-164.071	-0.053495	0.721189	-0.418420	-0.419777	-0.062086	33.5342	-0.417031	-233506	2.658880E-7	NaN
610	1.000000	0.732513	7.37102e+06	-46589.1	1005.82	-29768.7	0.000000	0.000000	6.733030	0.037005	NaN	0.000000	0.001625	0.001698	28.0801	0.111174	0.002141	51.9317	-38.765	15.0781	0.092240	0.731146	-0.408453	-0.409821	0.037005	51.9317	-0.408988	-179476	-2.061850E-7	NaN
610	1.000000	0.742527	7.37102e+06	-46589.1	1005.82	-29768.7	0.000000	0.000000	6.743044	0.037916	NaN	0.000000	0.001613	0.001656	28.0801	0.075296	0.002042	36.8771	69.2366	-163.8	0.043674	0.741228	-0.398439	-0.399738	0.037916	36.8771	-0.399210	-130235	-2.911389E-7	NaN
610	1.000000	0.752532	7.37102e+06	-46589.1	1005.82	-29768.7	0.000000	0.000000	6.753046	-0.045123	NaN	0.000000	0.001641	0.001698	28.0799	0.086466	0.001919	45.0633	95.4756	17.4338	0.006598	0.751183	-0.388434	-0.389783	-0.045123	45.0633	-0.387683	-89127.3	5.062796E-7	NaN
610	1.000000	0.762540	7.37102e+06	-46589.1	1005.82	-29768.7	0.000000	0.000000	6.763056	0.020798	NaN	0.000000	0.001659	0.001674	28.0803	0.062421	0.002018	30.9253	-54.9608	-163.96	-0.020715	0.761196	-0.378427	-0.379770	0.020798	30.9253	-0.378931	-66764.6	-3.115066E-7	NaN
610	1.000000	0.772521	7.37102e+06	-46589.1	1005.82	-29768.7	0.000000	0.000000	6.773036	-0.012857	NaN	0.000000	0.001666	0.001693	28.0799	0.127996	0.001972	64.9177	46.8083	15.8461	-0.003168	0.771133	-0.368445	-0.369834	-0.012857	64.9177	-0.368297	-46944.9	2.738825E-7	NaN
610	1.000000	0.782539	7.37102e+06	-46589.1	1005.82	-29768.7	0.000000	0.000000	6.783054	-0.006070	NaN	0.000000	0.001630	0.001743	28.0799	0.071215	0.001919	37.1046	111.09	-165.997	0.045474	0.781233	-0.358428	-0.359733	-0.006070	37.1046	-0.358305	-33677.3	1.802265E-7	NaN
610	1.000000	0.792559	7.37102e+06	-46589.1	1005.82	-29768.7	0.000000	0.000000	6.793071	-0.072123	NaN	0.000000	0.001589	0.001685	28.0801	0.041624	0.001984	20.9775	-25.6023	13.1383	-0.020837	0.791208	-0.348407	-0.349758	-0.072123	20.9775	-0.345829	-22202.9	3.248345E-6	NaN
610	1.000000	0.802529	7.37102e+06	-46589.1	1005.82	-29768.7	0.000000	0.000000	6.803042	-0.048745	NaN	0.000000	0.001577	0.001656	28.0799	0.098645	0.002044	48.2644	-168.104	-164.276	-0.031786	0.801207	-0.338438	-0.339759	-0.048745	48.2644	-0.337680	-16893.6	2.885389E-6	NaN
610	1.000000	0.812557	7.37102e+06	-46589.1	1005.82	-29768.7	0.000000	0.000000	6.813073	0.034768	NaN	0.000000	0.001606	0.001710	28.0801	0.022280	0.002044	10.8974	-170.817	14.7491	-0.036499	0.811184	-0.328410	-0.329783	0.034768	10.8974	-0.330803	-13403	-2.594056E-6	NaN
610	1.000000	0.822551	7.37102e+06	-46589.1	1005.82	-29768.7	0.000000	0.000000	6.823066	-0.009093	NaN	0.000000	0.001617	0.001708	28.0801	0.108727	0.002001	54.3375	142.953	-164.582	-0.070548	0.821204	-0.318415	-0.319763	-0.009093	54.3375	-0.318290	-8779.21	1.035758E-6	NaN
610	1.000000	0.832586	7.37102e+06	-46589.1	1005.82	-29768.7	0.000000	0.000000	6.833101	-0.017358	NaN	0.000000	0.001580	0.001645	28.0803	0.137787	0.002024	68.0623	-68.246	16.0431	0.008622	0.831218	-0.308380	-0.309749	-0.017358	68.0623	-0.308189	-6226.51	2.787807E-6	NaN
610	1.000000	0.842550	7.37102e+06	-46589.1	1005.82	-29768.7	0.000000	0.000000	6.843067	0.048929	NaN	0.000000	0.001620	0.001693	28.0801	0.050331	0.001930	26.083	-120.558	-165.348	0.032661	0.841252	-0.298417	-0.299715	0.048929	26.083	-0.299824	-4677.47	-1.046059E-5	NaN
610	1.000000	0.852565	7.37102e+06	-46589.1	1005.82	-29768.7	0.000000	0.000000	6.853081	0.015463	NaN	0.000000	0.001594	0.001694	28.0815	0.067751	0.001996	33.9487	39.5685	17.6152	0.013456	0.851212	-0.288402	-0.289755	0.015463	33.9487	-0.288743	-3194.97	-4.839681E-6	NaN
610	1.000000	0.862569	7.37102e+06	-46589.1	1005.82	-29768.7	0.000000	0.000000	6.863084	-0.011928	NaN	0.000000	0.001607	0.001699	28.0815	0.096191	0.001987	48.407	112.127	-161.519	-0.032809	0.861244	-0.278397	-0.279723	-0.011928	48.407	-0.278212	-2218.1	5.377725E-6	NaN
610	1.000000	0.872586	7.37102e+06	-46589.1	1005.82	-29768.7	0.000000	0.000000	6.873098	-0.078594	NaN	0.000000	0.001621	0.001682	28.0816	0.070223	0.002064	34.0163	-92.1869	14.1915	-0.035359	0.871216	-0.268381	-0.269751	-0.078594	34.0163	-0.266648	-1480.89	5.307245E-5	NaN
610	1.000000	0.882573	7.37102e+06	-46589.1	1005.82	-29768.7	0.000000	0.000000	6.883087	-0.039163	NaN	0.000000	0.001606	0.001670	28.0817	0.034351	0.001970	17.4361	-80.2604	-164.43	-0.068272	0.881274	-0.258394	-0.259692	-0.039163	17.4361	-0.256709	-1043.29	3.753796E-5	NaN
610	1.000000	0.892592	7.37102e+06	-46589.1	1005.82	-29768.7	0.000000	0.000000	6.893106	-0.021302	NaN	0.000000	0.001585	0.001669	28.0814	0.023067	0.002014	11.451	-14.2819	15.2945	-0.024930	0.891218	-0.248375	-0.249748	-0.021302	11.451	-0.246979	-738.217	2.885555E-5	NaN
610	1.000000	0.902607	7.37102e+06	-46589.1	1005.82	-29768.7	0.000000	0.000000	6.903121	-0.038147	NaN	0.000000	0.001622	0.001624	28.0818	0.017772	0.002143	8.294799	146.011	-167.706	-0.041732	0.901309	-0.238359	-0.239657	-0.038147	8.294799	-0.234910	-478.445	7.973145E-5	NaN
610	1.000000	0.912587	7.37102e+06	-46589.1	1005.82	-29768.7	0.000000	0.000000	6.913105	0.069389	NaN	0.000000	0.001620	0.001698	28.0813	0.022666	0.001991	11.386	86.7501	16.1576	-0.005371	0.911237	-0.228379	-0.229729	0.069389	11.386	-0.232950	-445.679	-0.000156	NaN
610	1.000000	0.922591	7.37102e+06	-46589.1	1005.82	-29768.7	0.000000	0.000000	6.923103	-0.089174	NaN	0.000000	0.001607	0.001723	28.0815	0.070095	0.001916	36.5807	82.1456	-161.936	-0.109943	0.921319	-0.218376	-0.219647	-0.089174	36.5807	-0.216547	-244.555	0.000365	NaN
610	1.000000	0.932611	7.37102e+06	-46589.1	1005.82	-29768.7	0.000000	0.000000	6.933125	-0.022437	NaN	0.000000	0.001627	0.001737	28.0816	0.082542	0.001964	42.0358	171.212	14.9311	0.069730	0.931262	-0.208356	-0.209705	-0.022437	42.0358	-0.207955	-177.688	0.000126	NaN
610	1.000000	0.942595	7.37102e+06	-46589.1	1005.82	-29768.7	0.000000	0.000000	6.943110	-0.008801	NaN	0.000000	0.001601	0.001699	28.0817	0.098636	0.002130	46.3086	-168.814	-163.276	0.046772	0.941312	-0.198372	-0.199654	-0.008801	46.3086	-0.198229	-123.185	7.144763E-5	NaN
610	1.000000	0.952612	7.37102e+06	-46589.1	1005.82	-29768.7	0.000000	0.000000	6.953129	0.033075	NaN	0.000000	0.001604	0.001711	28.0815	0.045710	0.002070	22.083	-173.415	17.1234	0.029141	0.951230	-0.188354	-0.189736	0.033075	22.083	-0.189478	-88.1655	-0.000375	NaN
610	1.000000	0.962591	7.37102e+06	-46589.1	1005.82	-29768.7	0.000000	0.000000	6.963107	0.016677	NaN	0.000000	0.001575	0.001748	28.0815	0.061182	0.002111	28.9794	90.4847	-161.396	0.075220	0.961326	-0.178376	-0.179640	0.016677	28.9794	-0.178807	-58.2309	-0.000286	NaN
610	1.000000	0.972609	7.37102e+06	-46589.1	1005.82	-29768.7	0.000000	0.000000	6.973125	0.025644	NaN	0.000000	0.001594	0.001721	28.0816	0.052437	0.002023	25.9195	16.1382	15.8798	0.023820	0.971257	-0.168357	-0.169710	0.025644	25.9195	-0.169099	-39.6241	-0.000647	NaN
610	1.000000	0.982612	7.37102e+06	-46589.1	1005.82	-29768.7	0.000000	0.000000	6.983124	-0.065914	NaN	0.000000	0.001603	0.001699	28.0815	0.116693	0.002095	55.6878	-163.813	-169.305	-0.053232	0.981368	-0.158355	-0.159598	-0.065914	55.6878	-0.157467	-24.7078	0.002668	NaN
610	1.000000	0.992619	7.37102e+06	-46589.1	1005.82	-29768.7	0.000000	0.000000	6.993135	0.017682	NaN	0.000000	0.001608	0.001712	28.0802	0.080176	0.001927	41.6006	113.289	15.0232	0.043152	0.991287	-0.148347	-0.149679	0.017682	41.6006	-0.148666	-17.1249	-0.001033	NaN
610	1.000000	1.002614	7.37102e+06	-46589.1	1005.82	-29768.7	0.000000	0.000000	7.003128	-0.039335	NaN	0.000000	0.001650	0.001727	28.0802	0.083385	0.001970	42.3207	-53.9948	-166.324	-0.000387	1.001350	-0.138353	-0.139617	-0.039335	42.3207	-0.137655	-10.6847	0.003681	NaN
610	1.000000	1.012624	7.37102e+06	-46589.1	1005.82	-29768.7	0.000000	0.000000	7.013138	-0.025310	NaN	0.000000	0.001626	0.001717	28.0806	0.146505	0.001956	74.9071	-15.9769	14.6777	-0.029781	1.011274	-0.128343	-0.129693	-0.025310	74.9071	-0.128089	-6.994626	0.003618	NaN
610	1.000000	1.022638	7.37102e+06	-46589.1	1005.82	-29768.7	0.000000	0.000000	7.023151	-0.060618	NaN	0.000000	0.001625	0.001721	28.0802	0.118466	0.002043	57.9806	10.7281	-164.313	-0.073126	1.021307	-0.118328	-0.119660	-0.060618	57.9806	-0.117544	-4.307806	0.014072	NaN
610	1.000000	1.032675	7.37102e+06	-46589.1	1005.82	-29768.7	0.000000	0.000000	7.033191	0.014088	NaN	0.000000	0.001617	0.001743	28.0804	0.082629	0.001886	43.8125	-19.2081	14.314	0.018043	1.031262	-0.108292	-0.109705	0.014088	43.8125	-0.108533	-2.797905	-0.005035	NaN
610	1.000000	1.042612	7.37102e+06	-46589.1	1005.82	-29768.7	0.000000	0.000000	7.043126	-0.035446	NaN	0.000000	0.001623	0.001739	28.0802	0.005266	0.002086	2.524440	158.872	-165.292	-0.036319	1.041341	-0.098354	-0.099626	-0.035446	2.524440	-0.087824	-0.960308	0.036911	NaN
610	1.000000	1.052662	7.37102e+06	-46589.1	1005.82	-29768.7	0.000000	0.000000	7.053179	0.036080	NaN	0.000000	0.001649	0.001729	28.0803	0.140038	0.002015	69.5017	-109.499	15.45	0.009830	1.051301	-0.088304	-0.089665	0.036080	69.5017	-0.088693	-1.007021	-0.035828	NaN
610	1.000000	1.062659	7.37102e+06	-46589.1	1005.82	-29768.7	0.000000	0.000000	7.063175	0.024099	NaN	0.000000	0.001646	0.001711	28.08	0.085860	0.001914	44.8687	90.4227	-161.197	0.041131	1.061364	-0.078307	-0.079603	0.024099	44.8687	-0.078710	-0.574505	-0.041948	NaN
610	1.000000	1.072647	7.37102e+06	-46589.1	1005.82	-29768.7	0.000000	0.000000	7.073162	1.711375E-5	NaN	0.000000	0.001609	0.001729	28.08	0.090940	0.001908	47.6746	-167.704	13.1112	0.037764	1.071302	-0.068319	-0.069664	1.711375E-5	47.6746	-0.068320	-0.307334	-5.568454E-5	NaN
610	1.000000	1.082653	7.37102e+06	-46589.1	1005.82	-29768.7	0.000000	0.000000	7.083172	0.083939	NaN	0.000000	0.001598	0.001736	28.0802	0.134354	0.002059	65.2547	-122.445	-162.773	0.051953	1.081360	-0.058313	-0.059606	0.083939	65.2547	-0.059278	-0.171683	-0.488918	NaN
610	1.000000	1.092668	7.37102e+06	-46589.1	1005.82	-29768.7	0.000000	0.000000	7.093181	-0.049015	NaN	0.000000	0.001636	0.001739	28.08	0.097650	0.002114	46.1935	54.0984	17.1449	0.029697	1.091281	-0.048299	-0.049685	-0.049015	46.1935	-0.047503	-0.076633	0.639611	NaN
610	1.000000	1.102655	7.37102e+06	-46589.1	1005.82	-29768.7	0.000000	0.000000	7.103168	-0.048423	NaN	0.000000	0.001641	0.001711	28.0801	0.038754	0.002055	18.8608	81.6491	-161.95	-0.132243	1.101398	-0.038312	-0.039568	-0.048423	18.8608	-0.036386	-0.035200	1.375662	NaN
610	1.000000	1.112686	7.37102e+06	-46589.1	1005.82	-29768.7	0.000000	0.000000	7.113199	-0.069772	NaN	0.000000	0.001636	0.001692	28.0802	0.096027	0.002080	46.165	-155.242	16.763	-0.032115	1.111303	-0.028280	-0.029664	-0.069772	46.165	-0.027147	-0.019228	3.628598	NaN
610	1.000000	1.122687	7.37102e+06	-46589.1	1005.82	-29768.7	0.000000	0.000000	7.123200	-0.068440	NaN	0.000000	0.001684	0.001682	28.0806	0.151673	0.001957	77.5206	-23.4838	-169.245	-0.044189	1.121344	-0.018279	-0.019622	-0.068440	77.5206	-0.017617	-0.010910	6.273341	NaN
610	1.000000	1.132669	7.37102e+06	-46589.1	1005.82	-29768.7	0.000000	0.000000	7.133188	0.079881	NaN	0.000000	0.001698	0.001690	28.0814	0.073754	0.002038	36.1814	48.5076	13.3793	0.004760	1.131354	-0.008297	-0.009612	0.079881	36.1814	-0.009953	-0.006361	-12.5586	NaN
610	1.000000	1.142599	7.37102e+06	-46589.1	1005.82	-29768.7	0.000000	0.000000	7.143330	5.238005	NaN	0.000000	0.001716	0.001673	28.0814	5.866615	0.001818	3226.3	11.6892	-168.708	3.567811	1.141366	0.001633	0.000400	5.238005	3226.3	0.000415	0.000313	16748.3	166679
610	2.000000	1.146828	7.37102e+06	-46589.1	1005.82	-29768.7	0.000000	0.000000	7.147727	9.340567	NaN	0.000000	0.001695	0.001694	28.0816	9.670840	0.001738	5564.78	5.256387	10.4653	8.804721	1.146473	0.005862	0.005507	9.340567	5564.78	0.004603	0.003774	2475.14	82762.8
610	2.000000	1.149295	7.37102e+06	-46589.1	1005.82	-29768.7	0.000000	0.000000	7.150366	13.5094	NaN	0.000000	0.001695	0.001701	28.0814	12.5935	0.001642	7669.95	2.188594	-171.105	13.1892	1.149014	0.008329	0.008048	13.5094	7669.95	0.007008	0.006041	2236.18	90157.3
610	2.000000	1.151787	7.37102e+06	-46589.1	1005.82	-29768.7	0.000000	0.000000	7.153074	18.7704	NaN	0.000000	0.001726	0.001726	28.0815	14.9022	0.001600	9316.06	4.274974	6.850204	17.0439	1.151447	0.010821	0.010481	18.7704	9316.06	0.009310	0.008425	2228.05	92732.4
610	2.000000	1.154227	7.37102e+06	-46589.1	1005.82	-29768.7	0.000000	0.000000	7.155725	23.9034	NaN	0.000000	0.001697	0.001734	28.0813	17.7222	0.001818	9748.97	6.347222	-175.925	22.5179	1.153939	0.013261	0.012972	23.9034	9748.97	0.011422	0.010805	2212.34	85689.7
610	2.000000	1.156722	7.37102e+06	-46589.1	1005.82	-29768.7	0.000000	0.000000	7.158375	27.6792	NaN	0.000000	0.001670	0.001726	28.0815	21.3017	0.001908	11161.8	6.671252	2.935825	25.8703	1.156369	0.015755	0.015403	27.6792	11161.8	0.013896	0.013841	1999.84	86682
610	2.000000	1.159227	7.37102e+06	-46589.1	1005.82	-29768.7	0.000000	0.000000	7.161124	33.6207	NaN	0.000000	0.001694	0.001742	28.0816	23.0657	0.001842	12523	4.310070	-176.056	33.2008	1.158952	0.018260	0.017986	33.6207	12523	0.016247	0.016984	1979.55	87793.1
610	2.000000	1.161731	7.37102e+06	-46589.1	1005.82	-29768.7	0.000000	0.000000	7.163867	39.4055	NaN	0.000000	0.001691	0.001773	28.0817	25.11	0.001840	13646.8	6.819255	1.457693	38.5787	1.161381	0.020765	0.020415	39.4055	13646.8	0.018599	0.020389	1932.71	87318.8
610	2.000000	1.164206	7.37102e+06	-46589.1	1005.82	-29768.7	0.000000	0.000000	7.166619	46.1474	NaN	0.000000	0.001620	0.001725	28.0819	26.9819	0.001819	14830.3	3.596267	-176.536	44.7669	1.163915	0.023240	0.022948	46.1474	14830.3	0.020906	0.023986	1923.93	87487.4
610	2.000000	1.166679	7.37102e+06	-46589.1	1005.82	-29768.7	0.000000	0.000000	7.169383	53.2352	NaN	0.000000	0.001605	0.001720	28.0819	29.4767	0.001800	16379.2	2.655647	3.453311	51.4064	1.166438	0.025712	0.025471	53.2352	16379.2	0.023275	0.027952	1904.55	89508.3
610	2.000000	1.169214	7.37102e+06	-46589.1	1005.82	-29768.7	0.000000	0.000000	7.172110	57.8928	NaN	0.000000	0.001644	0.001704	28.0817	32.7045	0.001841	17761	1.206433	-175.902	56.364	1.168958	0.028248	0.027992	57.8928	17761	0.025803	0.032493	1781.71	90021.8
610	2.000000	1.171728	7.37102e+06	-46589.1	1005.82	-29768.7	0.000000	0.000000	7.175241	72.9229	NaN	0.000000	0.001627	0.001735	28.082	34.8226	0.001725	20192.1	3.805336	0.799485	71.8555	1.171451	0.030761	0.030485	72.9229	20192.1	0.028053	0.036804	1981.38	96162.8
610	2.000000	1.174196	7.37102e+06	-46589.1	1005.82	-29768.7	0.000000	0.000000	7.178067	81.6258	NaN	0.000000	0.001614	0.001675	28.0806	37.1323	0.001919	19346.7	3.038579	-177.714	79.908	1.173824	0.033230	0.032858	81.6258	19346.7	0.030065	0.040879	1996.74	87423.2
610	2.000000	1.176657	7.37102e+06	-46589.1	1005.82	-29768.7	0.000000	0.000000	7.181033	93.9153	NaN	0.000000	0.001612	0.001724	28.0807	40.2273	0.001853	21704.8	8.691272	-4.425030	91.291	1.176325	0.035690	0.035359	93.9153	21704.8	0.032445	0.045964	2043.23	92495.2
610	2.000000	1.179229	7.37102e+06	-46589.1	1005.82	-29768.7	0.000000	0.000000	7.183861	100.158	NaN	0.000000	0.001612	0.001727	28.0804	41.8815	0.001755	23861.6	4.137276	178.461	99.2696	1.178991	0.038262	0.038025	100.158	23861.6	0.035114	0.052012	1925.68	95591.9
610	2.000000	1.181686	7.37102e+06	-46589.1	1005.82	-29768.7	0.000000	0.000000	7.186942	115.308	NaN	0.000000	0.001609	0.001722	28.0816	44.2086	0.001770	24980.2	8.210717	-5.904325	111.292	1.181325	0.040719	0.040358	115.308	24980.2	0.037258	0.057133	2018.23	95482.7
610	2.000000	1.184079	7.37102e+06	-46589.1	1005.82	-29768.7	0.000000	0.000000	7.189759	125.641	NaN	0.000000	0.001591	0.001712	28.0807	46.2229	0.001624	28461.2	4.013272	177.086	120.622	1.183898	0.043112	0.042931	125.641	28461.2	0.039801	0.063516	1978.09	103177
610	2.000000	1.186677	7.37102e+06	-46589.1	1005.82	-29768.7	0.000000	0.000000	7.192786	136.076	NaN	0.000000	0.001640	0.001757	28.0809	50.553	0.001815	27846.4	8.367127	-7.206217	133.996	1.186374	0.045710	0.045408	136.076	27846.4	0.042045	0.069421	1960.15	96559.8
610	2.000000	1.189159	7.37102e+06	-46589.1	1005.82	-29768.7	0.000000	0.000000	7.195829	149.721	NaN	0.000000	0.001617	0.001700	28.0803	52.1218	0.001913	27246	2.867781	179.242	148.605	1.188837	0.048192	0.047871	149.721	27246	0.044071	0.074972	1997.04	90913.4
610	2.000000	1.191637	7.37102e+06	-46589.1	1005.82	-29768.7	0.000000	0.000000	7.198847	162.855	NaN	0.000000	0.001629	0.001707	28.0806	54.1024	0.001881	28761.6	5.271760	-3.011046	157.896	1.191287	0.050670	0.050321	162.855	28761.6	0.046424	0.081680	1993.8	91944.8
610	2.000000	1.194116	7.37102e+06	-46589.1	1005.82	-29768.7	0.000000	0.000000	7.201907	176.984	NaN	0.000000	0.001616	0.001738	28.0801	55.4511	0.001782	31121.9	4.092345	177.055	173.043	1.193890	0.053150	0.052923	176.984	31121.9	0.048884	0.088996	1988.66	95313.2
610	2.000000	1.196685	7.37102e+06	-46589.1	1005.82	-29768.7	0.000000	0.000000	7.205043	190.786	NaN	0.000000	0.001563	0.001739	28.0805	58.4941	0.001832	31932.8	4.240646	-3.638299	189.67	1.196360	0.055718	0.055393	190.786	31932.8	0.051237	0.096276	1981.66	94026.8
610	2.000000	1.199145	7.37102e+06	-46589.1	1005.82	-29768.7	0.000000	0.000000	7.208040	203.846	NaN	0.000000	0.001555	0.001733	28.0803	60.9475	0.001816	33563.7	3.257313	176.985	201.107	1.198869	0.058178	0.057903	203.846	33563.7	0.053623	0.103941	1961.18	95115.2
610	2.000000	1.201684	7.37102e+06	-46589.1	1005.82	-29768.7	0.000000	0.000000	7.211234	219.76	NaN	0.000000	0.001579	0.001720	28.0807	63.3777	0.001737	36480.6	8.742240	-7.971555	219.816	1.201200	0.060718	0.060234	219.76	36480.6	0.056200	0.112535	1952.82	99355.5
610	2.000000	1.204074	7.37102e+06	-46589.1	1005.82	-29768.7	0.000000	0.000000	7.214257	235.152	NaN	0.000000	0.001564	0.001712	28.0804	64.0053	0.001706	37524	0.634947	178.086	228.77	1.203897	0.063108	0.062930	235.152	37524	0.058408	0.120161	1956.96	98900.8
610	2.000000	1.206648	7.37102e+06	-46589.1	1005.82	-29768.7	0.000000	0.000000	7.217411	249.257	NaN	0.000000	0.001557	0.001740	28.0805	68.9165	0.001873	36787.6	5.521031	-5.814910	247.064	1.206304	0.065682	0.065338	249.257	36787.6	0.060600	0.127969	1947.79	93955.3
610	2.000000	1.209155	7.37102e+06	-46589.1	1005.82	-29768.7	0.000000	0.000000	7.220378	260.46	NaN	0.000000	0.001582	0.001732	28.0813	71.2217	0.001832	38879.8	6.106491	172.487	259.358	1.209046	0.068188	0.068079	260.46	38879.8	0.063164	0.137398	1895.65	95831.1
610	2.000000	1.211626	7.37102e+06	-46589.1	1005.82	-29768.7	0.000000	0.000000	7.223726	281.779	NaN	0.000000	0.001574	0.001747	28.0821	71.5392	0.001750	40883	2.341237	-3.044791	278.855	1.211249	0.070660	0.070283	281.779	40883	0.065491	0.146231	1926.95	97677.9
610	2.000000	1.214120	7.37102e+06	-46589.1	1005.82	-29768.7	0.000000	0.000000	7.226886	298.001	NaN	0.000000	0.001564	0.001753	28.0815	74.4566	0.001725	43175.7	6.269631	172.536	296.113	1.213840	0.073154	0.072874	298.001	43175.7	0.067977	0.155957	1910.8	99887.4
610	2.000000	1.216625	7.37102e+06	-46589.1	1005.82	-29768.7	0.000000	0.000000	7.230016	313.2	NaN	0.000000	0.001581	0.001801	28.0817	76.7752	0.001830	41959.1	0.738939	-2.702982	309.372	1.216334	0.075659	0.075367	313.2	41959.1	0.070060	0.164334	1905.88	94566.1
610	2.000000	1.219232	7.37102e+06	-46589.1	1005.82	-29768.7	0.000000	0.000000	7.232469	309.455	NaN	0.000000	0.001601	0.001769	28.0817	79.7821	0.001821	43808.9	2.301472	175.446	311.556	1.219093	0.078266	0.078126	309.455	43808.9	0.072968	0.176371	1754.57	95306.5
610	2.000000	1.221590	7.37102e+06	-46589.1	1005.82	-29768.7	0.000000	0.000000	7.236383	347.303	NaN	0.000000	0.001591	0.001808	28.0819	81.7259	0.001856	44023	4.915277	-6.181342	341.115	1.221260	0.080623	0.080294	347.303	44023	0.074706	0.183758	1890	93827.4
610	2.000000	1.223996	7.37102e+06	-46589.1	1005.82	-29768.7	0.000000	0.000000	7.239360	361.207	NaN	0.000000	0.001580	0.001807	28.0817	83.2179	0.001809	46008.3	3.137801	174.809	353.944	1.223785	0.083029	0.082819	361.207	46008.3	0.077141	0.194344	1858.59	95350.7
610	2.000000	1.226582	7.37102e+06	-46589.1	1005.82	-29768.7	0.000000	0.000000	7.242851	383.216	NaN	0.000000	0.001553	0.001733	28.0817	87.0501	0.001828	47618.2	7.831398	-10.2974	377.644	1.226184	0.085615	0.085217	383.216	47618.2	0.079579	0.205224	1867.3	96035.5
610	2.000000	1.229129	7.37102e+06	-46589.1	1005.82	-29768.7	0.000000	0.000000	7.246423	408.123	NaN	0.000000	0.001600	0.001765	28.0819	87.8799	0.001633	53799.9	4.884974	172.143	407.069	1.228792	0.088163	0.087825	408.123	53799.9	0.082474	0.218497	1867.86	105155
610	2.000000	1.231637	7.37102e+06	-46589.1	1005.82	-29768.7	0.000000	0.000000	7.249673	426.171	NaN	0.000000	0.001574	0.001724	28.0815	90.5479	0.001785	50738	6.432457	-9.074918	422.482	1.231289	0.090671	0.090323	426.171	50738	0.084371	0.227413	1874	97207.4
610	2.000000	1.234077	7.37102e+06	-46589.1	1005.82	-29768.7	0.000000	0.000000	7.252751	441.716	NaN	0.000000	0.001578	0.001747	28.0814	92.9979	0.001889	49222.4	6.075367	171.901	439.198	1.233723	0.093111	0.092757	441.716	49222.4	0.086380	0.237030	1863.54	92370.7
610	2.000000	1.236586	7.37102e+06	-46589.1	1005.82	-29768.7	0.000000	0.000000	7.256232	465.329	NaN	0.000000	0.001601	0.001771	28.0815	94.2052	0.001790	52637.6	2.358438	-4.996657	460.994	1.236165	0.095620	0.095198	465.329	52637.6	0.088990	0.249801	1862.8	96221.5
610	2.000000	1.239129	7.37103e+06	-46589.1	1005.82	-29768.7	0.000000	0.000000	7.259366	479.722	NaN	0.000000	0.001541	0.001765	28.0813	96.6528	0.001847	52323.4	0.120290	177.047	477.323	1.238778	0.098163	0.097812	479.722	52323.4	0.091287	0.261301	1835.9	93518.8
610	2.000000	1.241609	7.37103e+06	-46589.1	1005.82	-29768.7	0.000000	0.000000	7.262889	505.086	NaN	0.000000	0.001571	0.001790	28.0806	99.3946	0.001761	56439.6	7.415454	-10.3071	502.826	1.241104	0.100643	0.100138	505.086	56439.6	0.093931	0.274841	1837.74	98359.6
610	2.000000	1.243106	7.37103e+06	-46589.1	1005.82	-29768.7	0.000000	0.000000	7.265053	521.301	NaN	0.000000	0.001556	0.001757	28.0803	99.6587	0.001853	53790.3	3.344309	173.778	519.21	1.242672	0.102140	0.101706	521.301	53790.3	0.094872	0.279733	1863.57	92919.2