File: remote_trans/data/nanoindenter/0828-1/data/Data_2025-08-06,11h17m57s/2025-07-22_16-23-58_1_253.txt
2025-07-22, 16:23:58, 1
Index	Phase	Displacement	Time	Pos X	Pos Y	Pos Z	Rot A	Rot B	Piezo Z	Force A	Force B	Gripper	Voltage A	Voltage B	Temperature	Amplitude force	Amplitude pos	Stiffness	Phase shift	Phase excitation	Force A raw	Displacement raw	HMax	HMax raw	Real Force	Real Stiffness	Contact Depth	Area	Hardness	Reduced Mod.
[#]	[#]	[um]	[s]	[um]	[um]	[um]	[m°]	[m°]	[um]	[uN]	[uN]	[V]	[V]	[V]	[°C]	[uN]	[um]	[N/m]	[°]	[°]	[uN]	[um]	[um]	[um]	[uN]	[N/m]	[um]	[um^2]	[MPa]	[MPa]
253	1.000000	0.002066	7.36752e+06	-51289.1	955.819	-29752.6	0.000000	0.000000	6.002794	0.027956	NaN	0.000000	0.001588	0.001681	28.0767	0.131071	0.001037	126.371	2.226273	-162.968	-0.047494	0.000846	-1.685360	-1.686580	0.027956	126.371	-1.685526	-3.266962E+22	-8.557276E-25	NaN
253	1.000000	0.014070	7.36752e+06	-51289.1	955.818	-29752.6	0.000000	0.000000	6.014801	0.087143	NaN	0.000000	0.001620	0.001653	28.0768	0.018572	0.001811	10.258	126.696	-159.799	0.028520	0.012942	-1.673356	-1.674484	0.087143	10.258	-1.679727	-2.735873E+22	-3.185191E-24	NaN
253	1.000000	0.026070	7.36752e+06	-51289.1	955.818	-29752.6	0.000000	0.000000	6.026791	-0.134370	NaN	0.000000	0.001612	0.001681	28.078	0.008198	0.001866	4.394218	130.248	-164.526	-0.115560	0.024681	-1.661356	-1.662745	-0.134370	4.394218	-1.638422	-7.729102E+21	1.738488E-23	NaN
253	1.000000	0.038032	7.36752e+06	-51289.1	955.818	-29752.6	0.000000	0.000000	6.038760	0.005674	NaN	0.000000	0.001588	0.001702	28.0779	0.080583	0.001937	41.5936	-179.783	-165.589	-0.058767	0.036743	-1.649393	-1.650683	0.005674	41.5936	-1.649496	-1.084748E+22	-5.230770E-25	NaN
253	1.000000	0.050016	7.36752e+06	-51289.1	955.818	-29752.6	0.000000	0.000000	6.050745	0.063310	NaN	0.000000	0.001590	0.001710	28.0781	0.083954	0.002009	41.788	143.514	-165.754	0.007723	0.048713	-1.637410	-1.638713	0.063310	41.788	-1.638547	-7.758556E+21	-8.160055E-24	NaN
253	1.000000	0.062034	7.36752e+06	-51289.1	955.818	-29752.6	0.000000	0.000000	6.062761	-0.020437	NaN	0.000000	0.001597	0.001706	28.0783	0.019816	0.002048	9.673779	22.5947	-167.95	0.018405	0.060693	-1.625392	-1.626733	-0.020437	9.673779	-1.623807	-4.941055E+21	4.136129E-24	NaN
253	1.000000	0.074046	7.36752e+06	-51289.1	955.819	-29752.6	0.000000	0.000000	6.074771	-0.042303	NaN	0.000000	0.001596	0.001669	28.0779	0.101805	0.001852	54.9773	94.579	-164.928	0.038662	0.072676	-1.613380	-1.614749	-0.042303	54.9773	-1.612803	-3.527726E+21	1.199152E-23	NaN
253	1.000000	0.086039	7.36752e+06	-51289.1	955.82	-29752.6	0.000000	0.000000	6.086768	0.034156	NaN	0.000000	0.001591	0.001682	28.0777	0.043009	0.002097	20.5074	148.303	-163.817	0.041917	0.084662	-1.601386	-1.602764	0.034156	20.5074	-1.602636	-2.583921E+21	-1.321880E-23	NaN
253	1.000000	0.098028	7.36752e+06	-51289.1	955.819	-29752.6	0.000000	0.000000	6.098757	0.058719	NaN	0.000000	0.001591	0.001694	28.0775	0.109575	0.001810	60.5524	-80.3412	-169.399	0.111561	0.096758	-1.589398	-1.590668	0.058719	60.5524	-1.590126	-1.761508E+21	-3.333434E-23	NaN
253	1.000000	0.110072	7.36752e+06	-51289.1	955.819	-29752.6	0.000000	0.000000	6.110801	0.033229	NaN	0.000000	0.001594	0.001678	28.0777	0.083365	0.002098	39.7284	170.658	-163.479	0.016678	0.108753	-1.577354	-1.578673	0.033229	39.7284	-1.577981	-1.214297E+21	-2.736503E-23	NaN
253	1.000000	0.122040	7.36752e+06	-51289.1	955.817	-29752.6	0.000000	0.000000	6.122769	0.044151	NaN	0.000000	0.001578	0.001689	28.0778	0.066126	0.001975	33.4833	-33.5994	-165.363	0.045154	0.120738	-1.565386	-1.566688	0.044151	33.4833	-1.566375	-8.509519E+20	-5.188445E-23	NaN
253	1.000000	0.134045	7.36752e+06	-51289.1	955.818	-29752.6	0.000000	0.000000	6.134774	0.032858	NaN	0.000000	0.001606	0.001656	28.0776	0.042934	0.001930	22.251	-90.0082	-162.044	0.046771	0.132710	-1.553381	-1.554715	0.032858	22.251	-1.554488	-5.911886E+20	-5.557928E-23	NaN
253	1.000000	0.146084	7.36752e+06	-51289.1	955.818	-29752.6	0.000000	0.000000	6.146813	0.052834	NaN	0.000000	0.001578	0.001704	28.0778	0.033003	0.001943	16.9866	154.961	-167.073	0.029114	0.144774	-1.541342	-1.542652	0.052834	16.9866	-1.543675	-4.244351E+20	-1.244814E-22	NaN
253	1.000000	0.158048	7.36752e+06	-51289.1	955.818	-29752.6	0.000000	0.000000	6.158775	0.015490	NaN	0.000000	0.001592	0.001686	28.0767	0.064843	0.001975	32.8384	165.312	-165.172	-0.038337	0.156749	-1.529378	-1.530676	0.015490	32.8384	-1.529732	-2.768290E+20	-5.595460E-23	NaN
253	1.000000	0.170069	7.36752e+06	-51289.1	955.818	-29752.6	0.000000	0.000000	6.170795	-0.034466	NaN	0.000000	0.001555	0.001724	28.0765	0.050335	0.002105	23.9126	-99.6258	-167.315	-0.027215	0.168744	-1.517357	-1.518681	-0.034466	23.9126	-1.516276	-1.832553E+20	1.880762E-22	NaN
253	1.000000	0.182079	7.36752e+06	-51289.1	955.818	-29752.6	0.000000	0.000000	6.182805	-0.015087	NaN	0.000000	0.001575	0.001686	28.0765	0.027649	0.002053	13.4674	93.4626	-163.432	0.070382	0.180771	-1.505347	-1.506655	-0.015087	13.4674	-1.504507	-1.277434E+20	1.181065E-22	NaN
253	1.000000	0.194063	7.36752e+06	-51289.1	955.819	-29752.6	0.000000	0.000000	6.194790	-0.015044	NaN	0.000000	0.001574	0.001706	28.0768	0.015019	0.002028	7.405147	178.406	-166.089	-0.025783	0.192685	-1.493362	-1.494740	-0.015044	7.405147	-1.491839	-8.661893E+19	1.736833E-22	NaN
253	1.000000	0.206075	7.36752e+06	-51289.1	955.819	-29752.6	0.000000	0.000000	6.206802	-0.001398	NaN	0.000000	0.001600	0.001740	28.0767	0.069811	0.002049	34.0733	123.721	-165.265	-0.130067	0.204809	-1.481351	-1.482616	-0.001398	34.0733	-1.481320	-6.273222E+19	2.227738E-23	NaN
253	1.000000	0.218070	7.36752e+06	-51289.1	955.819	-29752.6	0.000000	0.000000	6.218799	0.048354	NaN	0.000000	0.001539	0.001722	28.0769	0.064239	0.001935	33.207	-57.919	-167.373	0.055448	0.216756	-1.469356	-1.470670	0.048354	33.207	-1.470448	-4.494109E+19	-1.075949E-21	NaN
253	1.000000	0.230111	7.36752e+06	-51289.1	955.818	-29752.6	0.000000	0.000000	6.230837	-0.020780	NaN	0.000000	0.001626	0.001705	28.0766	0.049049	0.001935	25.3494	120.407	-166.54	-0.060116	0.228768	-1.457315	-1.458657	-0.020780	25.3494	-1.456700	-2.947452E+19	7.050071E-22	NaN
253	1.000000	0.242117	7.36752e+06	-51289.1	955.818	-29752.6	0.000000	0.000000	6.242843	-0.036779	NaN	0.000000	0.001575	0.001707	28.0768	0.051918	0.002029	25.585	169.481	-164.536	-0.065554	0.240762	-1.445309	-1.446664	-0.036779	25.585	-1.444231	-2.010238E+19	1.829587E-21	NaN
253	1.000000	0.254133	7.36752e+06	-51289.1	955.819	-29752.6	0.000000	0.000000	6.254861	0.020269	NaN	0.000000	0.001571	0.001697	28.0769	0.133592	0.001937	68.9756	101.989	-167.522	-0.004037	0.252772	-1.433293	-1.434654	0.020269	68.9756	-1.433513	-1.446703E+19	-1.401081E-21	NaN
253	1.000000	0.266149	7.36752e+06	-51289.1	955.818	-29752.6	0.000000	0.000000	6.266872	-0.100211	NaN	0.000000	0.001555	0.001726	28.0767	0.020035	0.001943	10.3092	-71.4773	-167.062	-0.095890	0.264833	-1.421277	-1.422593	-0.100211	10.3092	-1.413986	-7.943454E+18	1.261551E-20	NaN
253	1.000000	0.278106	7.36752e+06	-51289.1	955.82	-29752.5	0.000000	0.000000	6.278831	-0.061573	NaN	0.000000	0.001584	0.001728	28.0768	0.067075	0.001931	34.7357	166.567	-164.952	-0.032605	0.276811	-1.409319	-1.410615	-0.061573	34.7357	-1.407990	-6.607507E+18	9.318642E-21	NaN
253	1.000000	0.290155	7.36753e+06	-51289.1	955.818	-29752.5	0.000000	0.000000	6.290882	0.003857	NaN	0.000000	0.001572	0.001695	28.0767	0.072861	0.002012	36.2182	-95.2975	-168.472	0.036529	0.288828	-1.397271	-1.398597	0.003857	36.2182	-1.397351	-4.765751E+18	-8.093999E-22	NaN
253	1.000000	0.302118	7.36753e+06	-51289.1	955.818	-29752.5	0.000000	0.000000	6.302845	-0.005431	NaN	0.000000	0.001587	0.001657	28.078	0.061851	0.002070	29.881	-94.3024	-165.691	0.042650	0.300800	-1.385308	-1.386626	-0.005431	29.881	-1.385171	-3.278232E+18	1.656694E-21	NaN
253	1.000000	0.314156	7.36753e+06	-51289.1	955.819	-29752.5	0.000000	0.000000	6.314886	0.060425	NaN	0.000000	0.001571	0.001706	28.0783	0.176383	0.001967	89.6687	-105.796	-163.856	0.029110	0.312735	-1.373270	-1.374691	0.060425	89.6687	-1.373775	-2.309814E+18	-2.616010E-20	NaN
253	1.000000	0.326128	7.36753e+06	-51289.1	955.818	-29752.5	0.000000	0.000000	6.326854	-0.052173	NaN	0.000000	0.001554	0.001718	28.0782	0.060042	0.002020	29.7224	-109.689	-163.062	-0.068448	0.324830	-1.361297	-1.362596	-0.052173	29.7224	-1.359981	-1.511709E+18	3.451262E-20	NaN
253	1.000000	0.338158	7.36753e+06	-51289.1	955.818	-29752.5	0.000000	0.000000	6.338886	0.033995	NaN	0.000000	0.001588	0.001698	28.0783	0.088865	0.002048	43.3948	169.633	-162.659	0.087215	0.336840	-1.349268	-1.350586	0.033995	43.3948	-1.349856	-1.107398E+18	-3.069828E-20	NaN
253	1.000000	0.350124	7.36753e+06	-51289.1	955.817	-29752.5	0.000000	0.000000	6.350852	-0.004311	NaN	0.000000	0.001614	0.001666	28.0781	0.056939	0.001941	29.3401	52.1089	-163.438	-0.001822	0.348849	-1.337301	-1.338577	-0.004311	29.3401	-1.337191	-7.502495E+17	5.745992E-21	NaN
253	1.000000	0.362153	7.36753e+06	-51289.1	955.818	-29752.5	0.000000	0.000000	6.362876	-0.097552	NaN	0.000000	0.001564	0.001710	28.0779	0.030554	0.002021	15.1149	170.998	-166.69	-0.103898	0.360855	-1.325273	-1.326571	-0.097552	15.1149	-1.320432	-4.481057E+17	2.176977E-19	NaN
253	1.000000	0.374168	7.36753e+06	-51289.1	955.818	-29752.5	0.000000	0.000000	6.374897	0.044340	NaN	0.000000	0.001574	0.001715	28.0779	0.080897	0.001960	41.2772	83.7166	-164.474	0.063129	0.372832	-1.313258	-1.314594	0.044340	41.2772	-1.314064	-3.683893E+17	-1.203628E-19	NaN
253	1.000000	0.386206	7.36753e+06	-51289.1	955.818	-29752.5	0.000000	0.000000	6.386933	-0.011834	NaN	0.000000	0.001588	0.001713	28.0778	0.056005	0.002057	27.2261	151.084	-165.52	0.023712	0.384871	-1.301220	-1.302555	-0.011834	27.2261	-1.300894	-2.456642E+17	4.817106E-20	NaN
253	1.000000	0.398172	7.36753e+06	-51289.1	955.819	-29752.5	0.000000	0.000000	6.398896	-0.065133	NaN	0.000000	0.001605	0.001735	28.0778	0.080292	0.002105	38.1345	16.9125	-165.446	-0.030691	0.396836	-1.289254	-1.290590	-0.065133	38.1345	-1.287973	-1.650685E+17	3.945815E-19	NaN
253	1.000000	0.410175	7.36753e+06	-51289.1	955.818	-29752.5	0.000000	0.000000	6.410904	0.043648	NaN	0.000000	0.001641	0.001727	28.0782	0.059652	0.002048	29.1334	153.315	-164.157	-0.036544	0.408891	-1.277251	-1.278535	0.043648	29.1334	-1.278375	-1.228452E+17	-3.553064E-19	NaN
253	1.000000	0.422192	7.36753e+06	-51289.1	955.818	-29752.5	0.000000	0.000000	6.422918	-0.026645	NaN	0.000000	0.001619	0.001699	28.0781	0.062355	0.001912	32.6207	-68.4448	-166.188	-0.048278	0.420848	-1.265234	-1.266578	-0.026645	32.6207	-1.264621	-8.043933E+16	3.312464E-19	NaN
253	1.000000	0.434187	7.36753e+06	-51289.1	955.818	-29752.5	0.000000	0.000000	6.434912	-0.049675	NaN	0.000000	0.001557	0.001719	28.0767	0.123807	0.002154	57.474	11.0882	-163.184	-0.048442	0.432856	-1.253239	-1.254570	-0.049675	57.474	-1.252591	-5.553637E+16	8.944647E-19	NaN
253	1.000000	0.446202	7.36753e+06	-51289.1	955.818	-29752.5	0.000000	0.000000	6.446930	0.012075	NaN	0.000000	0.001556	0.001746	28.0771	0.037870	0.002060	18.3871	-92.4791	-163.941	0.086500	0.444873	-1.241224	-1.242553	0.012075	18.3871	-1.241717	-3.972907E+16	-3.039417E-19	NaN
253	1.000000	0.458208	7.36753e+06	-51289.1	955.819	-29752.5	0.000000	0.000000	6.458935	-0.005443	NaN	0.000000	0.001556	0.001694	28.077	0.031933	0.001919	16.6366	37.9647	-162.321	0.080497	0.456862	-1.229218	-1.230564	-0.005443	16.6366	-1.228972	-2.682790E+16	2.028965E-19	NaN
253	1.000000	0.470205	7.36753e+06	-51289.1	955.818	-29752.5	0.000000	0.000000	6.470934	0.037428	NaN	0.000000	0.001569	0.001683	28.0767	0.145176	0.001979	73.3628	-84.1585	-165.817	0.050164	0.468873	-1.217221	-1.218553	0.037428	73.3628	-1.217603	-1.889847E+16	-1.980456E-18	NaN
253	1.000000	0.482213	7.36753e+06	-51289.1	955.818	-29752.5	0.000000	0.000000	6.482938	-0.061214	NaN	0.000000	0.001552	0.001679	28.0768	0.038629	0.002026	19.0708	40.3775	-164.803	-0.041002	0.480931	-1.205213	-1.206494	-0.061214	19.0708	-1.202805	-1.197602E+16	5.111345E-18	NaN
253	1.000000	0.494212	7.36753e+06	-51289.1	955.819	-29752.5	0.000000	0.000000	6.494938	-0.031518	NaN	0.000000	0.001582	0.001660	28.0767	0.114902	0.001911	60.1421	-125.361	-162.242	-0.053054	0.492856	-1.193214	-1.194570	-0.031518	60.1421	-1.192821	-8.802589E+15	3.580520E-18	NaN
253	1.000000	0.506201	7.36753e+06	-51289.1	955.818	-29752.5	0.000000	0.000000	6.506929	0.029653	NaN	0.000000	0.001549	0.001694	28.0768	0.103352	0.001986	52.0338	-89.0544	-164.844	0.065011	0.504896	-1.181225	-1.182530	0.029653	52.0338	-1.181652	-6.237440E+15	-4.754040E-18	NaN
253	1.000000	0.518246	7.36753e+06	-51289.1	955.818	-29752.5	0.000000	0.000000	6.518972	-0.017526	NaN	0.000000	0.001574	0.001656	28.0769	0.013703	0.002037	6.726811	22.9016	-168.214	-0.018196	0.516975	-1.169180	-1.170451	-0.017526	6.726811	-1.167226	-3.996822E+15	4.384972E-18	NaN
253	1.000000	0.530215	7.36753e+06	-51289.1	955.819	-29752.5	0.000000	0.000000	6.530942	-0.010518	NaN	0.000000	0.001571	0.001659	28.0767	0.036318	0.001967	18.4675	119.278	-163.999	0.086013	0.528947	-1.157211	-1.158479	-0.010518	18.4675	-1.156783	-2.895703E+15	3.632396E-18	NaN
253	1.000000	0.542230	7.36753e+06	-51289.1	955.818	-29752.5	0.000000	0.000000	6.542958	0.018186	NaN	0.000000	0.001597	0.001703	28.0767	0.031624	0.002029	15.5853	-1.444486	-166.652	0.135310	0.540904	-1.145196	-1.146522	0.018186	15.5853	-1.146071	-2.080393E+15	-8.741424E-18	NaN
253	1.000000	0.554235	7.36753e+06	-51289.1	955.818	-29752.5	0.000000	0.000000	6.554962	2.429986E-5	NaN	0.000000	0.001595	0.001719	28.0765	0.086923	0.002123	40.9443	14.2057	-164.517	-0.033606	0.552932	-1.133191	-1.134494	2.429986E-5	40.9443	-1.133191	-1.397744E+15	-1.738506E-20	NaN
253	1.000000	0.566237	7.36753e+06	-51289.1	955.819	-29752.5	0.000000	0.000000	6.566962	-0.050928	NaN	0.000000	0.001546	0.001701	28.0768	0.064465	0.001871	34.4515	-101.391	-168.477	0.020145	0.564909	-1.121189	-1.122517	-0.050928	34.4515	-1.120080	-9.322902E+14	5.462701E-17	NaN
253	1.000000	0.578251	7.36753e+06	-51289.1	955.817	-29752.5	0.000000	0.000000	6.578976	-0.044073	NaN	0.000000	0.001519	0.001677	28.0777	0.017623	0.002115	8.332089	177.52	-161.609	0.038648	0.576932	-1.109175	-1.110493	-0.044073	8.332089	-1.105208	-5.888081E+14	7.485102E-17	NaN
253	1.000000	0.590263	7.36753e+06	-51289.1	955.819	-29752.5	0.000000	0.000000	6.590990	-0.022539	NaN	0.000000	0.001554	0.001704	28.0778	0.069602	0.002009	34.6469	135.061	-163.871	-0.091019	0.588951	-1.097162	-1.098475	-0.022539	34.6469	-1.096674	-4.522977E+14	4.983175E-17	NaN
253	1.000000	0.602265	7.36753e+06	-51289.1	955.818	-29752.5	0.000000	0.000000	6.602992	-0.024728	NaN	0.000000	0.001587	0.001664	28.0782	0.120191	0.002096	57.3357	115.737	-165.562	-0.021412	0.601004	-1.085160	-1.086422	-0.024728	57.3357	-1.084837	-3.136761E+14	7.883390E-17	NaN
253	1.000000	0.614251	7.36753e+06	-51289.1	955.818	-29752.5	0.000000	0.000000	6.614976	-0.068533	NaN	0.000000	0.001531	0.001716	28.0781	0.043717	0.002120	20.6248	-66.0495	-166.776	0.007289	0.612931	-1.073175	-1.074495	-0.068533	20.6248	-1.070683	-2.024699E+14	3.384840E-16	NaN
253	1.000000	0.626256	7.36753e+06	-51289.1	955.817	-29752.5	0.000000	0.000000	6.626985	0.027696	NaN	0.000000	0.001551	0.001677	28.078	0.054290	0.001881	28.8622	116.324	-166.146	0.046678	0.624957	-1.061169	-1.062469	0.027696	28.8622	-1.061889	-1.542436E+14	-1.795585E-16	NaN
253	1.000000	0.638249	7.36753e+06	-51289.1	955.818	-29752.5	0.000000	0.000000	6.638976	-0.012167	NaN	0.000000	0.001579	0.001720	28.0778	0.051627	0.001776	29.0697	14.5963	-165.951	0.002080	0.636899	-1.049177	-1.050527	-0.012167	29.0697	-1.048863	-1.030687E+14	1.180492E-16	NaN
253	1.000000	0.650291	7.36753e+06	-51289.1	955.819	-29752.5	0.000000	0.000000	6.651017	-0.027428	NaN	0.000000	0.001540	0.001707	28.0778	0.018026	0.001971	9.145988	-116.448	-163.979	-0.034568	0.648985	-1.037135	-1.038441	-0.027428	9.145988	-1.034885	-6.686348E+13	4.102152E-16	NaN
253	1.000000	0.662295	7.36753e+06	-51289.1	955.818	-29752.5	0.000000	0.000000	6.663023	0.022061	NaN	0.000000	0.001587	0.001716	28.0779	0.083806	0.001951	42.9484	29.0383	-168.06	-0.025885	0.660942	-1.025131	-1.026484	0.022061	42.9484	-1.025516	-5.002248E+13	-4.410211E-16	NaN
253	1.000000	0.674305	7.36753e+06	-51289.1	955.819	-29752.5	0.000000	0.000000	6.675031	-0.028487	NaN	0.000000	0.001565	0.001757	28.0777	0.080003	0.001957	40.8738	-117.304	-163.159	0.084399	0.673013	-1.013121	-1.014413	-0.028487	40.8738	-1.012598	-3.352348E+13	8.497740E-16	NaN
253	1.000000	0.686271	7.36753e+06	-51289.1	955.817	-29752.5	0.000000	0.000000	6.687000	0.036868	NaN	0.000000	0.001608	0.001715	28.0778	0.011962	0.002017	5.930037	103.71	-162.466	0.032868	0.684965	-1.001155	-1.002461	0.036868	5.930037	-1.005818	-2.717014E+13	-1.356914E-15	NaN
253	1.000000	0.698293	7.36753e+06	-51289.1	955.818	-29752.5	0.000000	0.000000	6.699019	-0.040171	NaN	0.000000	0.001558	0.001701	28.078	0.071111	0.002061	34.4979	44.1739	-166.691	-0.035994	0.697027	-0.989133	-0.990399	-0.040171	34.4979	-0.988259	-1.576413E+13	2.548275E-15	NaN
253	1.000000	0.710336	7.36753e+06	-51289.1	955.819	-29752.5	0.000000	0.000000	6.711063	-0.015798	NaN	0.000000	0.001569	0.001711	28.0767	0.082763	0.001842	44.9215	-135.667	-160.765	-0.036017	0.708968	-0.977090	-0.978458	-0.015798	44.9215	-0.976826	-1.105731E+13	1.428711E-15	NaN
253	1.000000	0.722329	7.36753e+06	-51289.1	955.819	-29752.5	0.000000	0.000000	6.723054	-0.057736	NaN	0.000000	0.001613	0.001668	28.0764	0.059268	0.001929	30.7173	-46.6036	-163.24	-0.048965	0.721041	-0.965097	-0.966384	-0.057736	30.7173	-0.963687	-7.354815E+12	7.850051E-15	NaN
253	1.000000	0.734316	7.36753e+06	-51289.1	955.818	-29752.5	0.000000	0.000000	6.735043	0.003269	NaN	0.000000	0.001595	0.001701	28.0764	0.053080	0.002036	26.0761	175.82	-161.383	-0.003622	0.733009	-0.953110	-0.954417	0.003269	26.0761	-0.953204	-5.311704E+12	-6.154878E-16	NaN
253	1.000000	0.746331	7.36753e+06	-51289.1	955.818	-29752.5	0.000000	0.000000	6.747059	0.014215	NaN	0.000000	0.001584	0.001736	28.0765	0.144931	0.002132	67.9804	156.596	-168.145	-0.109642	0.745075	-0.941095	-0.942351	0.014215	67.9804	-0.941252	-3.664569E+12	-3.879169E-15	NaN
253	1.000000	0.758315	7.36753e+06	-51289.1	955.818	-29752.5	0.000000	0.000000	6.759041	-0.013751	NaN	0.000000	0.001595	0.001722	28.0764	0.192244	0.001945	98.8628	-19.1336	-164.166	-0.003141	0.756972	-0.929111	-0.930454	-0.013751	98.8628	-0.929007	-2.504910E+12	5.489655E-15	NaN
253	1.000000	0.770315	7.36753e+06	-51289.1	955.818	-29752.5	0.000000	0.000000	6.771042	-0.019010	NaN	0.000000	0.001612	0.001689	28.0765	0.049659	0.002137	23.2394	90.6411	-164.929	-0.073931	0.769034	-0.917111	-0.918391	-0.019010	23.2394	-0.916497	-1.697889E+12	1.119649E-14	NaN
253	1.000000	0.782321	7.36753e+06	-51289.1	955.818	-29752.5	0.000000	0.000000	6.783048	-0.001011	NaN	0.000000	0.001591	0.001702	28.0765	0.070448	0.002006	35.1185	-32.4908	-163.398	-0.019958	0.781068	-0.905105	-0.906358	-0.001011	35.1185	-0.905084	-1.190563E+12	8.492971E-16	NaN
253	1.000000	0.794376	7.36753e+06	-51289.1	955.818	-29752.5	0.000000	0.000000	6.795104	0.017292	NaN	0.000000	0.001575	0.001706	28.0767	0.082162	0.001895	43.3594	174.18	-166.14	0.100101	0.793024	-0.893050	-0.894402	0.017292	43.3594	-0.893349	-8.263949E+11	-2.092424E-14	NaN
253	1.000000	0.806344	7.36753e+06	-51289.1	955.818	-29752.5	0.000000	0.000000	6.807071	-0.015299	NaN	0.000000	0.001606	0.001716	28.0769	0.085084	0.001931	44.055	46.1606	-166.755	-0.058921	0.805033	-0.881082	-0.882393	-0.015299	44.055	-0.880821	-5.595166E+11	2.734398E-14	NaN
253	1.000000	0.818345	7.36753e+06	-51289.1	955.818	-29752.5	0.000000	0.000000	6.819071	-0.031443	NaN	0.000000	0.001568	0.001735	28.0764	0.080448	0.001993	40.3591	-77.2716	-164.416	-0.030941	0.817022	-0.869081	-0.870404	-0.031443	40.3591	-0.868496	-3.811532E+11	8.249438E-14	NaN
253	1.000000	0.830363	7.36753e+06	-51289.1	955.819	-29752.5	0.000000	0.000000	6.831093	0.086351	NaN	0.000000	0.001568	0.001704	28.0764	0.045844	0.002111	21.7191	53.3507	-164.463	0.062463	0.829055	-0.857063	-0.858371	0.086351	21.7191	-0.860045	-2.929079E+11	-2.948057E-13	NaN
253	1.000000	0.842341	7.36753e+06	-51289.1	955.818	-29752.5	0.000000	0.000000	6.843066	-0.055364	NaN	0.000000	0.001582	0.001719	28.0777	0.024092	0.002172	11.0902	150.569	-163.864	-0.029102	0.841032	-0.845085	-0.846394	-0.055364	11.0902	-0.841341	-1.634779E+11	3.386605E-13	NaN
253	1.000000	0.854354	7.36753e+06	-51289.1	955.817	-29752.5	0.000000	0.000000	6.855081	-0.025338	NaN	0.000000	0.001555	0.001707	28.0778	0.094637	0.001974	47.95	-126.693	-165.917	0.060992	0.853032	-0.833071	-0.834393	-0.025338	47.95	-0.832675	-1.247499E+11	2.031094E-13	NaN
253	1.000000	0.866391	7.36753e+06	-51289.1	955.818	-29752.5	0.000000	0.000000	6.867118	-0.014876	NaN	0.000000	0.001523	0.001685	28.0776	0.032163	0.001992	16.1469	-33.7058	-166.033	0.049522	0.865076	-0.821035	-0.822350	-0.014876	16.1469	-0.820344	-8.489341E+10	1.752288E-13	NaN
253	1.000000	0.878366	7.36753e+06	-51289.1	955.819	-29752.5	0.000000	0.000000	6.879092	-0.034907	NaN	0.000000	0.001524	0.001678	28.0774	0.098544	0.002055	47.9478	128.25	-164.736	-0.025608	0.877053	-0.809059	-0.810373	-0.034907	47.9478	-0.808513	-5.866788E+10	5.949937E-13	NaN
253	1.000000	0.890386	7.36753e+06	-51289.1	955.817	-29752.5	0.000000	0.000000	6.891112	-0.031141	NaN	0.000000	0.001569	0.001697	28.0777	0.070486	0.001904	37.0128	-73.0418	-162.346	-0.034037	0.889083	-0.797040	-0.798342	-0.031141	37.0128	-0.796409	-4.018889E+10	7.748679E-13	NaN
253	1.000000	0.902375	7.36753e+06	-51289.1	955.819	-29752.5	0.000000	0.000000	6.903103	0.012698	NaN	0.000000	0.001567	0.001676	28.0776	0.085073	0.001996	42.6176	134.311	-163.557	-0.039074	0.901086	-0.785051	-0.786340	0.012698	42.6176	-0.785274	-2.837202E+10	-4.475705E-13	NaN
253	1.000000	0.914419	7.36753e+06	-51289.1	955.818	-29752.5	0.000000	0.000000	6.915147	0.016895	NaN	0.000000	0.001584	0.001678	28.0777	0.096018	0.002103	45.6485	57.5132	-161.557	0.030957	0.913111	-0.773007	-0.774315	0.016895	45.6485	-0.773284	-1.949646E+10	-8.665799E-13	NaN
253	1.000000	0.926392	7.36753e+06	-51289.1	955.818	-29752.5	0.000000	0.000000	6.927119	0.001256	NaN	0.000000	0.001568	0.001726	28.0775	0.113177	0.001988	56.9284	-85.4419	-164.372	-0.036741	0.925082	-0.761034	-0.762344	0.001256	56.9284	-0.761051	-1.329214E+10	-9.451703E-14	NaN
253	1.000000	0.938391	7.36753e+06	-51289.1	955.819	-29752.5	0.000000	0.000000	6.939117	-0.036568	NaN	0.000000	0.001535	0.001677	28.0776	0.101332	0.002084	48.6316	-144.685	-163.26	0.043205	0.937119	-0.749035	-0.750307	-0.036568	48.6316	-0.748471	-8.961928E+9	4.080414E-12	NaN
253	1.000000	0.950390	7.36753e+06	-51289.1	955.817	-29752.5	0.000000	0.000000	6.951115	-0.071385	NaN	0.000000	0.001568	0.001697	28.0779	0.030182	0.001931	15.6289	119.521	-166.346	-0.063572	0.949084	-0.737036	-0.738342	-0.071385	15.6289	-0.733610	-5.623446E+9	1.269418E-11	NaN
253	1.000000	0.962404	7.36753e+06	-51289.1	955.819	-29752.5	0.000000	0.000000	6.963133	0.031968	NaN	0.000000	0.001559	0.001698	28.0777	0.043969	0.002049	21.455	149.977	-161.471	-0.055002	0.961065	-0.725022	-0.726361	0.031968	21.455	-0.726139	-4.448179E+9	-7.186823E-12	NaN
253	1.000000	0.974382	7.36753e+06	-51289.1	955.818	-29752.5	0.000000	0.000000	6.975108	-0.026043	NaN	0.000000	0.001559	0.001658	28.078	0.115013	0.002053	56.0231	7.671100	-165.033	-0.018724	0.973084	-0.713044	-0.714342	-0.026043	56.0231	-0.712695	-2.916245E+9	8.930352E-12	NaN
253	1.000000	0.986416	7.36753e+06	-51289.1	955.819	-29752.5	0.000000	0.000000	6.987142	-0.029921	NaN	0.000000	0.001561	0.001645	28.0768	0.012979	0.001887	6.879491	141.507	-166.522	-0.034455	0.985158	-0.701010	-0.702268	-0.029921	6.879491	-0.697748	-1.822934E+9	1.641350E-11	NaN
253	1.000000	0.998421	7.36753e+06	-51289.1	955.819	-29752.5	0.000000	0.000000	6.999149	0.001158	NaN	0.000000	0.001557	0.001660	28.0767	0.035260	0.001968	17.9171	118.833	-166.894	0.000825	0.997188	-0.689005	-0.690238	0.001158	17.9171	-0.689053	-1.386684E+9	-8.352597E-13	NaN
253	1.000000	1.010398	7.36753e+06	-51289.1	955.819	-29752.5	0.000000	0.000000	7.011125	-0.004120	NaN	0.000000	0.001551	0.001666	28.0767	0.076299	0.002034	37.5033	3.519427	-163.282	-0.005907	1.009141	-0.677028	-0.678285	-0.004120	37.5033	-0.676946	-9.471788E+8	4.349874E-12	NaN
253	1.000000	1.022451	7.36753e+06	-51289.1	955.819	-29752.5	0.000000	0.000000	7.023177	-0.047627	NaN	0.000000	0.001562	0.001672	28.0767	0.080471	0.001983	40.5834	-147.854	-163.255	-0.034858	1.021086	-0.664975	-0.666339	-0.047627	40.5834	-0.664095	-6.317493E+8	7.538966E-11	NaN
253	1.000000	1.034448	7.36753e+06	-51289.1	955.819	-29752.5	0.000000	0.000000	7.035175	-0.008003	NaN	0.000000	0.001570	0.001664	28.0767	0.087226	0.001941	44.9456	107.457	-164.115	-0.009483	1.033092	-0.652978	-0.654333	-0.008003	44.9456	-0.652845	-4.430266E+8	1.806445E-11	NaN
253	1.000000	1.046441	7.36753e+06	-51289.1	955.818	-29752.5	0.000000	0.000000	7.047170	0.024821	NaN	0.000000	0.001569	0.001653	28.0765	0.025851	0.002050	12.61	-63.1158	-164.238	0.052605	1.045120	-0.640985	-0.642306	0.024821	12.61	-0.642461	-3.191908E+8	-7.776285E-11	NaN
253	1.000000	1.058439	7.36753e+06	-51289.1	955.819	-29752.5	0.000000	0.000000	7.059166	-0.013015	NaN	0.000000	0.001574	0.001643	28.0764	0.161553	0.002075	77.8509	-161.899	-163.481	-0.035002	1.057153	-0.628987	-0.630273	-0.013015	77.8509	-0.628861	-2.076749E+8	6.267005E-11	NaN
253	1.000000	1.070427	7.36753e+06	-51289.1	955.819	-29752.5	0.000000	0.000000	7.071154	-0.000260	NaN	0.000000	0.001566	0.001694	28.0765	0.096889	0.001869	51.8395	-145.724	-163.586	0.041321	1.069141	-0.616999	-0.618285	-0.000260	51.8395	-0.616995	-1.426667E+8	1.825713E-12	NaN
253	1.000000	1.082445	7.36753e+06	-51289.1	955.82	-29752.5	0.000000	0.000000	7.083174	0.038670	NaN	0.000000	0.001562	0.001677	28.0765	0.044637	0.001950	22.8848	-179.364	-166.824	-0.016693	1.081127	-0.604981	-0.606299	0.038670	22.8848	-0.606248	-1.015050E+8	-3.809674E-10	NaN
253	1.000000	1.094455	7.36753e+06	-51289.1	955.82	-29752.5	0.000000	0.000000	7.095182	-0.002967	NaN	0.000000	0.001640	0.001640	28.0764	0.051718	0.002109	24.5274	87.2778	-164.666	-0.082454	1.093159	-0.592971	-0.594267	-0.002967	24.5274	-0.592880	-6.643014E+7	4.466934E-11	NaN
253	1.000000	1.106455	7.36753e+06	-51289.1	955.819	-29752.5	0.000000	0.000000	7.107182	-0.015471	NaN	0.000000	0.001634	0.001665	28.0767	0.069828	0.002041	34.2081	-19.4474	-163.925	-0.046085	1.105139	-0.580971	-0.582287	-0.015471	34.2081	-0.580631	-4.502361E+7	3.436156E-10	NaN
253	1.000000	1.118475	7.36753e+06	-51289.1	955.819	-29752.5	0.000000	0.000000	7.119206	0.073475	NaN	0.000000	0.001641	0.001705	28.0779	0.086467	0.002070	41.7712	-131.279	-162.454	-0.024814	1.117146	-0.568951	-0.570280	0.073475	41.7712	-0.570270	-3.238627E+7	-2.268721E-9	NaN
253	1.000000	1.130477	7.36753e+06	-51289.1	955.819	-29752.5	0.000000	0.000000	7.131205	0.001829	NaN	0.000000	0.001641	0.001704	28.078	0.086990	0.001992	43.6699	4.747070	-167.359	-0.009589	1.129193	-0.556949	-0.558233	0.001829	43.6699	-0.556980	-2.121255E+7	-8.621462E-11	NaN
253	1.000000	1.142468	7.36753e+06	-51289.1	955.819	-29752.5	0.000000	0.000000	7.143197	0.034261	NaN	0.000000	0.001657	0.001686	28.0777	0.094628	0.002195	43.119	79.4201	-164.565	-0.048994	1.141164	-0.544958	-0.546262	0.034261	43.119	-0.545554	-1.473511E+7	-2.325096E-9	NaN
253	1.000000	1.154490	7.36753e+06	-51289.1	955.819	-29752.5	0.000000	0.000000	7.155216	-0.047258	NaN	0.000000	0.001644	0.001669	28.079	0.050492	0.002076	24.3181	-75.0186	-163.791	-0.018822	1.153101	-0.532935	-0.534325	-0.047258	24.3181	-0.531478	-9.39935e+06	5.027845E-9	NaN
253	1.000000	1.166504	7.36753e+06	-51289.1	955.819	-29752.5	0.000000	0.000000	7.167230	-0.037476	NaN	0.000000	0.001584	0.001673	28.0783	0.115548	0.002011	57.455	-96.4015	-164.11	-0.012619	1.165215	-0.520922	-0.522211	-0.037476	57.455	-0.520433	-6.6011e+06	5.677205E-9	NaN
253	1.000000	1.178505	7.36753e+06	-51289.1	955.82	-29752.5	0.000000	0.000000	7.179229	-0.067874	NaN	0.000000	0.001613	0.001699	28.0779	0.021472	0.001950	11.0088	-12.6121	-165.831	-0.081757	1.177152	-0.508921	-0.510274	-0.067874	11.0088	-0.504297	-3.93501e+06	1.724871E-8	NaN
253	1.000000	1.190496	7.36753e+06	-51289.1	955.819	-29752.5	0.000000	0.000000	7.191220	-0.070642	NaN	0.000000	0.001611	0.001683	28.0778	0.028425	0.001941	14.6435	130.473	-162.802	-0.055650	1.189193	-0.496930	-0.498233	-0.070642	14.6435	-0.493312	-2.76479e+06	2.555062E-8	NaN
253	1.000000	1.202510	7.36753e+06	-51289.1	955.82	-29752.5	0.000000	0.000000	7.203239	0.049386	NaN	0.000000	0.001601	0.001682	28.0778	0.116854	0.002155	54.2361	1.032156	-163.943	0.062017	1.201181	-0.484916	-0.486245	0.049386	54.2361	-0.485599	-2.15708e+06	-2.289469E-8	NaN
253	1.000000	1.214484	7.36753e+06	-51289.1	955.82	-29752.5	0.000000	0.000000	7.215211	-0.009494	NaN	0.000000	0.001551	0.001693	28.0778	0.031661	0.002054	15.413	81.7201	-163.722	0.001855	1.213210	-0.472942	-0.474216	-0.009494	15.413	-0.472480	-1.41312e+06	6.718812E-9	NaN
253	1.000000	1.226499	7.36753e+06	-51289.1	955.819	-29752.5	0.000000	0.000000	7.227228	0.028780	NaN	0.000000	0.001483	0.001697	28.0779	0.024873	0.001932	12.8758	87.0931	-163.742	0.005094	1.225204	-0.460926	-0.462222	0.028780	12.8758	-0.462603	-1.02704e+06	-2.802243E-8	NaN
253	1.000000	1.238509	7.36753e+06	-51289.1	955.819	-29752.5	0.000000	0.000000	7.239237	0.025473	NaN	0.000000	0.001518	0.001683	28.0778	0.056660	0.002006	28.2422	-46.7226	-162.582	-0.024134	1.237239	-0.448917	-0.450187	0.025473	28.2422	-0.449593	-673933	-3.779790E-8	NaN
253	1.000000	1.250523	7.36753e+06	-51289.1	955.819	-29752.5	0.000000	0.000000	7.251249	-0.050704	NaN	0.000000	0.001553	0.001675	28.0771	0.056188	0.002073	27.1042	61.2346	-167.699	0.049955	1.249203	-0.436903	-0.438222	-0.050704	27.1042	-0.435500	-426395	1.189121E-7	NaN
253	1.000000	1.262505	7.36753e+06	-51289.1	955.819	-29752.5	0.000000	0.000000	7.263233	0.020886	NaN	0.000000	0.001550	0.001686	28.0768	0.032771	0.001973	16.6073	-54.1623	-164.326	-0.126921	1.261281	-0.424921	-0.426145	0.020886	16.6073	-0.425865	-311550	-6.703936E-8	NaN
253	1.000000	1.274533	7.36753e+06	-51289.1	955.82	-29752.5	0.000000	0.000000	7.275261	0.022426	NaN	0.000000	0.001547	0.001708	28.0766	0.059712	0.001978	30.1873	127.898	-163.778	0.032105	1.273215	-0.412893	-0.414211	0.022426	30.1873	-0.413450	-207704	-1.079728E-7	NaN
253	1.000000	1.286541	7.36753e+06	-51289.1	955.82	-29752.5	0.000000	0.000000	7.287266	-0.075182	NaN	0.000000	0.001508	0.001695	28.0766	0.123583	0.002017	61.2714	110.555	-164.339	-0.068344	1.285226	-0.400884	-0.402200	-0.075182	61.2714	-0.399964	-133501	5.631587E-7	NaN
253	1.000000	1.298528	7.36753e+06	-51289.1	955.821	-29752.5	0.000000	0.000000	7.299252	-0.067270	NaN	0.000000	0.001588	0.001693	28.0767	0.077084	0.001975	39.0235	104.363	-164.424	-0.083681	1.297202	-0.388898	-0.390224	-0.067270	39.0235	-0.387605	-88899	7.567024E-7	NaN
253	1.000000	1.310524	7.36753e+06	-51289.1	955.82	-29752.5	0.000000	0.000000	7.311250	-0.047361	NaN	0.000000	0.001590	0.001726	28.0767	0.028682	0.002086	13.75	-58.5144	-164.031	0.023093	1.309204	-0.376901	-0.378221	-0.047361	13.75	-0.374318	-57314.9	8.263308E-7	NaN
253	1.000000	1.322548	7.36753e+06	-51289.1	955.819	-29752.5	0.000000	0.000000	7.323277	0.039012	NaN	0.000000	0.001606	0.001724	28.0768	0.060752	0.002041	29.764	163.492	-167.039	-0.018339	1.321225	-0.364878	-0.366201	0.039012	29.764	-0.365861	-43298.9	-9.009955E-7	NaN
253	1.000000	1.334525	7.36753e+06	-51289.1	955.82	-29752.5	0.000000	0.000000	7.335251	-0.018569	NaN	0.000000	0.001604	0.001712	28.0769	0.041379	0.001954	21.1728	-102.484	-165.967	-0.022221	1.333265	-0.352901	-0.354161	-0.018569	21.1728	-0.352244	-27513.7	6.748819E-7	NaN
253	1.000000	1.346558	7.36753e+06	-51289.1	955.82	-29752.5	0.000000	0.000000	7.347281	-0.104152	NaN	0.000000	0.001627	0.001723	28.0769	0.177649	0.001940	91.5778	-66.9905	-163.974	-0.043150	1.345229	-0.340868	-0.342196	-0.104152	91.5778	-0.340015	-18271.2	5.700349E-6	NaN
253	1.000000	1.358569	7.36753e+06	-51289.1	955.821	-29752.5	0.000000	0.000000	7.359295	-0.037531	NaN	0.000000	0.001645	0.001684	28.0772	0.078360	0.001905	41.1293	-138.375	-163.036	-0.065166	1.357238	-0.328857	-0.330188	-0.037531	41.1293	-0.328172	-12265.2	3.059972E-6	NaN
253	1.000000	1.370563	7.36753e+06	-51289.1	955.82	-29752.5	0.000000	0.000000	7.371288	-0.071607	NaN	0.000000	0.001628	0.001715	28.0767	0.073721	0.002017	36.5509	-86.0923	-161.615	-0.016576	1.369220	-0.316862	-0.318206	-0.071607	36.5509	-0.315393	-7956.97	8.999260E-6	NaN
253	1.000000	1.382564	7.36753e+06	-51289.1	955.821	-29752.5	0.000000	0.000000	7.383288	-0.080903	NaN	0.000000	0.001583	0.001724	28.0768	0.029513	0.002045	14.4299	-52.3298	-165.777	-0.041571	1.381274	-0.304862	-0.306152	-0.080903	14.4299	-0.300657	-4812.91	1.680951E-5	NaN
253	1.000000	1.394581	7.36753e+06	-51289.1	955.82	-29752.5	0.000000	0.000000	7.395306	-0.062254	NaN	0.000000	0.001628	0.001686	28.0782	0.056906	0.002082	27.3386	-22.9374	-165.789	-0.002179	1.393284	-0.292844	-0.294141	-0.062254	27.3386	-0.291137	-3469.95	1.794085E-5	NaN
253	1.000000	1.406580	7.36753e+06	-51289.1	955.821	-29752.5	0.000000	0.000000	7.407306	-0.038979	NaN	0.000000	0.001598	0.001691	28.0782	0.096811	0.001915	50.5585	100.558	-169.808	0.015257	1.405265	-0.280845	-0.282161	-0.038979	50.5585	-0.280267	-2382.32	1.636194E-5	NaN
253	1.000000	1.418606	7.36753e+06	-51289.1	955.822	-29752.5	0.000000	0.000000	7.419334	0.001850	NaN	0.000000	0.001647	0.001715	28.0781	0.071810	0.002024	35.4804	-119.65	-161.902	0.051536	1.417257	-0.268820	-0.270169	0.001850	35.4804	-0.268859	-1600.25	-1.156214E-6	NaN
253	1.000000	1.430601	7.36753e+06	-51289.1	955.821	-29752.5	0.000000	0.000000	7.431328	-0.001571	NaN	0.000000	0.001624	0.001699	28.0781	0.096330	0.001964	49.0472	-157.254	-165.691	-0.040227	1.429305	-0.256825	-0.258121	-0.001571	49.0472	-0.256801	-1046.7	1.500737E-6	NaN
253	1.000000	1.442624	7.36753e+06	-51289.1	955.821	-29752.5	0.000000	0.000000	7.443351	-0.010785	NaN	0.000000	0.001643	0.001748	28.0782	0.129513	0.002154	60.136	-53.6462	-162.823	0.038101	1.441324	-0.244802	-0.246102	-0.010785	60.136	-0.244667	-679.638	1.586820E-5	NaN
253	1.000000	1.454601	7.36753e+06	-51289.1	955.822	-29752.5	0.000000	0.000000	7.455326	-0.055621	NaN	0.000000	0.001547	0.001724	28.0782	0.036046	0.002038	17.6864	54.3928	-161.913	-0.030051	1.453313	-0.232825	-0.234113	-0.055621	17.6864	-0.230466	-407.263	0.000137	NaN
253	1.000000	1.466626	7.36753e+06	-51289.1	955.821	-29752.5	0.000000	0.000000	7.467355	0.050774	NaN	0.000000	0.001525	0.001743	28.0782	0.062776	0.001956	32.0972	170.319	-167.095	0.064313	1.465351	-0.220800	-0.222075	0.050774	32.0972	-0.221986	-298.801	-0.000170	NaN
253	1.000000	1.478657	7.36753e+06	-51289.1	955.821	-29752.5	0.000000	0.000000	7.479383	-0.015465	NaN	0.000000	0.001571	0.001740	28.0783	0.133329	0.002048	65.1051	-2.212945	-162.985	0.019103	1.477384	-0.208769	-0.210042	-0.015465	65.1051	-0.208591	-181.962	8.499311E-5	NaN
253	1.000000	1.490655	7.36753e+06	-51289.1	955.821	-29752.5	0.000000	0.000000	7.491380	-0.056779	NaN	0.000000	0.001608	0.001721	28.0782	0.049664	0.001991	24.9467	-151.975	-161.664	-0.063058	1.489279	-0.196771	-0.198147	-0.056779	24.9467	-0.195064	-109.21	0.000520	NaN
253	1.000000	1.502631	7.36753e+06	-51289.1	955.821	-29752.5	0.000000	0.000000	7.503359	0.013906	NaN	0.000000	0.001571	0.001712	28.0781	0.064595	0.002037	31.7094	-164.04	-164.308	0.028270	1.501340	-0.184795	-0.186086	0.013906	31.7094	-0.185124	-74.5114	-0.000187	NaN
253	1.000000	1.514656	7.36753e+06	-51289.1	955.82	-29752.5	0.000000	0.000000	7.515384	0.012024	NaN	0.000000	0.001621	0.001669	28.0782	0.058424	0.001943	30.0699	127.536	-165.106	-0.017101	1.513344	-0.172770	-0.174082	0.012024	30.0699	-0.173070	-46.4245	-0.000259	NaN
253	1.000000	1.526653	7.36753e+06	-51289.1	955.82	-29752.5	0.000000	0.000000	7.527382	0.026612	NaN	0.000000	0.001595	0.001698	28.0767	0.095660	0.001879	50.9029	167.728	-169.567	-0.047864	1.525349	-0.160772	-0.162077	0.026612	50.9029	-0.161165	-28.7508	-0.000926	NaN
253	1.000000	1.538656	7.36753e+06	-51289.1	955.821	-29752.5	0.000000	0.000000	7.539385	0.040176	NaN	0.000000	0.001560	0.001712	28.0771	0.091477	0.002009	45.5356	-7.666785	-163.723	-0.002777	1.537277	-0.148770	-0.150148	0.040176	45.5356	-0.149431	-17.6859	-0.002272	NaN
253	1.000000	1.550656	7.36753e+06	-51289.1	955.82	-29752.5	0.000000	0.000000	7.551385	0.046312	NaN	0.000000	0.001599	0.001670	28.0771	0.116929	0.002110	55.4177	-89.7124	-161.906	0.048445	1.549365	-0.136770	-0.138061	0.046312	55.4177	-0.137397	-10.5649	-0.004384	NaN
253	1.000000	1.562694	7.36753e+06	-51289.1	955.82	-29752.5	0.000000	0.000000	7.563421	0.001392	NaN	0.000000	0.001622	0.001689	28.0769	0.113005	0.001835	61.5667	4.259404	-167.833	-0.036386	1.561356	-0.124732	-0.126070	0.001392	61.5667	-0.124749	-6.012074	-0.000232	NaN
253	1.000000	1.574676	7.36753e+06	-51289.1	955.821	-29752.5	0.000000	0.000000	7.575399	-0.092708	NaN	0.000000	0.001612	0.001702	28.077	0.097067	0.002112	45.9663	-142.013	-165.282	-0.051133	1.573367	-0.112750	-0.114059	-0.092708	45.9663	-0.111237	-3.190696	0.029056	NaN
253	1.000000	1.586666	7.36753e+06	-51289.1	955.82	-29752.5	0.000000	0.000000	7.587393	-0.013959	NaN	0.000000	0.001527	0.001681	28.0769	0.050211	0.002014	24.9296	-175.44	-166.973	-0.031859	1.585361	-0.100760	-0.102065	-0.013959	24.9296	-0.100340	-1.859070	0.007508	NaN
253	1.000000	1.598674	7.36753e+06	-51289.1	955.821	-29752.5	0.000000	0.000000	7.599401	0.006329	NaN	0.000000	0.001586	0.001695	28.0768	0.078890	0.002043	38.6175	36.7797	-166.152	-0.030945	1.597334	-0.088752	-0.090092	0.006329	38.6175	-0.088875	-1.017019	-0.006223	NaN
253	1.000000	1.610693	7.36753e+06	-51289.1	955.822	-29752.5	0.000000	0.000000	7.611418	-0.049777	NaN	0.000000	0.001555	0.001742	28.077	0.079651	0.001991	40.014	-78.4797	-165.954	-0.030815	1.609404	-0.076733	-0.078022	-0.049777	40.014	-0.075800	-0.484356	0.102769	NaN
253	1.000000	1.622695	7.36753e+06	-51289.1	955.821	-29752.5	0.000000	0.000000	7.623421	-0.027291	NaN	0.000000	0.001558	0.001734	28.0769	0.052485	0.002065	25.4209	47.9321	-164.848	-0.025761	1.621359	-0.064731	-0.066067	-0.027291	25.4209	-0.063926	-0.232633	0.117313	NaN
253	1.000000	1.634730	7.36753e+06	-51289.1	955.821	-29752.5	0.000000	0.000000	7.635456	-0.026305	NaN	0.000000	0.001563	0.001690	28.0772	0.053440	0.001916	27.8848	-76.4977	-161.282	-0.091730	1.633390	-0.052696	-0.054036	-0.026305	27.8848	-0.051988	-0.104745	0.251130	NaN
253	1.000000	1.646700	7.36753e+06	-51289.1	955.821	-29752.5	0.000000	0.000000	7.647426	-0.012141	NaN	0.000000	0.001604	0.001732	28.0766	0.077282	0.002052	37.6639	-67.5357	-160.155	-0.011324	1.645411	-0.040726	-0.042014	-0.012141	37.6639	-0.040485	-0.046782	0.259520	NaN
253	1.000000	1.658689	7.36753e+06	-51289.1	955.822	-29752.5	0.000000	0.000000	7.659417	0.017448	NaN	0.000000	0.001574	0.001647	28.0772	0.066657	0.001889	35.2808	-118.952	-166.268	-0.039022	1.657401	-0.028737	-0.030024	0.017448	35.2808	-0.029107	-0.021739	-0.802592	NaN
253	1.000000	1.670740	7.36753e+06	-51289.1	955.82	-29752.5	0.000000	0.000000	7.671466	-0.029085	NaN	0.000000	0.001593	0.001674	28.0782	0.062221	0.002173	28.6333	114.703	-163.94	-0.050431	1.669448	-0.016686	-0.017978	-0.029085	28.6333	-0.015924	-0.009836	2.956921	NaN
253	1.000000	1.682723	7.36753e+06	-51289.1	955.822	-29752.5	0.000000	0.000000	7.683451	0.012050	NaN	0.000000	0.001554	0.001680	28.0782	0.105244	0.001894	55.5783	124.572	-165.119	0.066443	1.681452	-0.004703	-0.005974	0.012050	55.5783	-0.004866	-0.003332	-3.616465	NaN
253	1.000000	1.694661	7.36753e+06	-51289.1	955.822	-29752.5	0.000000	0.000000	7.695679	7.074793	NaN	0.000000	0.001590	0.001685	28.0783	6.781744	0.001759	3854.75	6.479519	-167.574	4.964340	1.693380	0.007235	0.005954	7.074793	3854.75	0.005858	0.004930	1434.96	50157.1
253	2.000000	1.699221	7.36753e+06	-51289.1	955.822	-29752.5	0.000000	0.000000	7.700450	12.1868	NaN	0.000000	0.001593	0.001658	28.0779	11.0748	0.001694	6536.46	4.681098	-170.81	11.5621	1.698956	0.011795	0.011531	12.1868	6536.46	0.010397	0.009626	1266.03	60868.7
253	2.000000	1.702160	7.36753e+06	-51289.1	955.822	-29752.5	0.000000	0.000000	7.703682	19.3153	NaN	0.000000	0.001543	0.001623	28.078	13.8228	0.001683	8213.19	3.651035	-171.228	18.0721	1.701896	0.014734	0.014470	19.3153	8213.19	0.012971	0.012674	1524.06	66655.4
253	2.000000	1.705160	7.36753e+06	-51289.1	955.821	-29752.5	0.000000	0.000000	7.706871	23.9355	NaN	0.000000	0.001585	0.001640	28.0782	17.4347	0.001776	9814.93	4.481126	-172.487	24.4507	1.704848	0.017734	0.017422	23.9355	9814.93	0.015905	0.016511	1449.66	69786.6
253	2.000000	1.708159	7.36753e+06	-51289.1	955.822	-29752.5	0.000000	0.000000	7.710174	31.3234	NaN	0.000000	0.001600	0.001649	28.0781	20.5473	0.001776	11571.9	1.439195	-172.552	31.546	1.707761	0.020733	0.020335	31.3234	11571.9	0.018703	0.020545	1524.62	73760.5
253	2.000000	1.711092	7.36753e+06	-51289.1	955.822	-29752.5	0.000000	0.000000	7.713352	37.2625	NaN	0.000000	0.001565	0.001679	28.0787	23.2955	0.001816	12830.9	2.931289	-174.881	36.0205	1.710832	0.023667	0.023406	37.2625	12830.9	0.021488	0.024935	1494.36	74237.5
253	2.000000	1.714126	7.36753e+06	-51289.1	955.82	-29752.5	0.000000	0.000000	7.716694	44.7553	NaN	0.000000	0.001533	0.001665	28.0783	26.3703	0.001888	13964.7	5.454108	-178.16	44.3278	1.713830	0.026700	0.026404	44.7553	13964.7	0.024297	0.029749	1504.45	73972.9
253	2.000000	1.717102	7.36753e+06	-51289.1	955.821	-29752.5	0.000000	0.000000	7.719972	52.111	NaN	0.000000	0.001538	0.001670	28.0782	29.5211	0.001906	15488.7	10.7012	175.578	51.5355	1.716852	0.029676	0.029426	52.111	15488.7	0.027153	0.035048	1486.84	75588.4
253	2.000000	1.720116	7.36753e+06	-51289.1	955.821	-29752.5	0.000000	0.000000	7.723279	59.2228	NaN	0.000000	0.001562	0.001663	28.078	31.2098	0.001807	17275.5	5.881299	-179.541	60.492	1.719747	0.032690	0.032321	59.2228	17275.5	0.030119	0.040991	1444.77	77957.6
253	2.000000	1.723084	7.36753e+06	-51289.1	955.822	-29752.5	0.000000	0.000000	7.726797	72.5971	NaN	0.000000	0.001532	0.001687	28.0769	33.2558	0.001825	18219.6	2.654850	-177.042	71.0306	1.722743	0.035658	0.035317	72.5971	18219.6	0.032669	0.046459	1562.62	77228.9
253	2.000000	1.726100	7.36753e+06	-51289.1	955.821	-29752.5	0.000000	0.000000	7.729940	75.6883	NaN	0.000000	0.001554	0.001652	28.0775	36.4495	0.001900	19183	6.531496	178.53	76.6162	1.725828	0.038674	0.038403	75.6883	19183	0.035715	0.053423	1416.78	75827.2
253	2.000000	1.729083	7.36753e+06	-51289.1	955.822	-29752.5	0.000000	0.000000	7.733442	88.2977	NaN	0.000000	0.001556	0.001668	28.077	37.9996	0.001798	21133.8	5.917984	178.628	89.0689	1.728815	0.041657	0.041389	88.2977	21133.8	0.038524	0.060269	1465.06	78651.1
253	2.000000	1.732066	7.36753e+06	-51289.1	955.821	-29752.5	0.000000	0.000000	7.737041	103.268	NaN	0.000000	0.001534	0.001654	28.0772	39.1349	0.001569	24940.2	3.066127	179.184	102.017	1.731791	0.044641	0.044365	103.268	24940.2	0.041535	0.068056	1517.4	87345.5
253	2.000000	1.735059	7.36753e+06	-51289.1	955.822	-29752.5	0.000000	0.000000	7.740424	112.763	NaN	0.000000	0.001531	0.001667	28.0769	42.8687	0.001706	25128.8	7.559573	175.936	112.537	1.734728	0.047634	0.047302	112.763	25128.8	0.044268	0.075523	1493.1	83542.1
253	2.000000	1.738065	7.36753e+06	-51289.1	955.82	-29752.5	0.000000	0.000000	7.743923	124.779	NaN	0.000000	0.001541	0.001690	28.0771	45.8446	0.001787	25649.9	6.750187	176.355	123.566	1.737693	0.050639	0.050268	124.779	25649.9	0.046990	0.083337	1497.27	81178
253	2.000000	1.741031	7.36753e+06	-51289.1	955.822	-29752.5	0.000000	0.000000	7.747469	138.859	NaN	0.000000	0.001547	0.001660	28.0776	48.7526	0.001795	27154.1	2.150798	179.574	137.173	1.740804	0.053605	0.053378	138.859	27154.1	0.049770	0.091703	1514.22	81925
253	2.000000	1.744049	7.36753e+06	-51289.1	955.821	-29752.5	0.000000	0.000000	7.751119	154.256	NaN	0.000000	0.001531	0.001660	28.0768	52.2277	0.001797	29065.4	6.389904	175.154	153.251	1.743708	0.056623	0.056282	154.256	29065.4	0.052642	0.100755	1531	83659.7
253	2.000000	1.747050	7.36753e+06	-51289.1	955.821	-29752.5	0.000000	0.000000	7.754644	166.965	NaN	0.000000	0.001470	0.001669	28.077	54.8262	0.001772	30943.3	4.624287	176.2	165.253	1.746686	0.059624	0.059260	166.965	30943.3	0.055577	0.110429	1511.98	85074.3
253	2.000000	1.750035	7.36753e+06	-51289.1	955.821	-29752.5	0.000000	0.000000	7.758016	176.39	NaN	0.000000	0.001517	0.001674	28.0769	58.2227	0.001846	31536.8	3.300075	177.314	174.959	1.749828	0.062609	0.062402	176.39	31536.8	0.058414	0.120184	1467.67	83112.8
253	2.000000	1.752994	7.36753e+06	-51289.1	955.821	-29752.5	0.000000	0.000000	7.761643	192.618	NaN	0.000000	0.001533	0.001696	28.0771	60.1102	0.001782	33730.3	1.430888	178.883	189.522	1.752740	0.065568	0.065314	192.618	33730.3	0.061285	0.130458	1476.48	85321.7
253	2.000000	1.756065	7.36753e+06	-51289.1	955.821	-29752.5	0.000000	0.000000	7.765507	211.929	NaN	0.000000	0.001497	0.001697	28.0784	63.8707	0.001813	35221.2	4.050786	176.067	213.096	1.755762	0.068639	0.068336	211.929	35221.2	0.064126	0.141018	1502.85	85692.1
253	2.000000	1.759089	7.36753e+06	-51289.1	955.821	-29752.5	0.000000	0.000000	7.769158	227.147	NaN	0.000000	0.001566	0.001651	28.0783	65.6265	0.001861	35263.4	1.789118	177.545	226.369	1.758733	0.071664	0.071308	227.147	35263.4	0.066833	0.151442	1499.89	82789.2
253	2.000000	1.762018	7.36753e+06	-51289.1	955.822	-29752.5	0.000000	0.000000	7.772719	242.522	NaN	0.000000	0.001561	0.001675	28.0785	67.5904	0.001785	37858.7	4.086366	174.705	239.408	1.761746	0.074592	0.074320	242.522	37858.7	0.069788	0.163226	1485.8	85613.8
253	2.000000	1.764979	7.36753e+06	-51289.1	955.823	-29752.5	0.000000	0.000000	7.776575	264.287	NaN	0.000000	0.001603	0.001674	28.0783	69.8446	0.001777	39297.2	3.723282	175.619	261.15	1.764664	0.077553	0.077238	264.287	39297.2	0.072509	0.174444	1515.03	85962.1
253	2.000000	1.768000	7.36753e+06	-51289.1	955.821	-29752.5	0.000000	0.000000	7.780387	283.531	NaN	0.000000	0.001636	0.001698	28.0782	72.9078	0.001813	40214.9	3.736222	175.705	281.505	1.767605	0.080574	0.080179	283.531	40214.9	0.075286	0.186254	1522.28	85134.8
253	2.000000	1.771020	7.36753e+06	-51289.1	955.821	-29752.5	0.000000	0.000000	7.783846	294.203	NaN	0.000000	0.001624	0.001671	28.0783	76.4802	0.001801	42455.3	4.920643	173.096	293.834	1.770817	0.083594	0.083391	294.203	42455.3	0.078397	0.199912	1471.66	86753.2
253	2.000000	1.773988	7.36753e+06	-51289.1	955.822	-29752.5	0.000000	0.000000	7.787878	320.079	NaN	0.000000	0.001620	0.001673	28.0782	78.2671	0.001809	43277.1	0.293422	177.892	317.396	1.773711	0.086562	0.086285	320.079	43277.1	0.081015	0.211760	1511.52	85922.9
253	2.000000	1.776971	7.36753e+06	-51289.1	955.822	-29752.5	0.000000	0.000000	7.791612	338.334	NaN	0.000000	0.001582	0.001653	28.0783	81.2567	0.001733	46884.4	3.792995	173.567	333.291	1.776659	0.089545	0.089233	338.334	46884.4	0.084133	0.226282	1495.19	90048.5
253	2.000000	1.779988	7.36753e+06	-51289.1	955.821	-29752.5	0.000000	0.000000	7.795724	364.952	NaN	0.000000	0.001602	0.001667	28.0784	85.1446	0.001864	45672.7	6.479969	171.762	362.201	1.779643	0.092563	0.092217	364.952	45672.7	0.086570	0.237946	1533.76	85544.2
253	2.000000	1.782962	7.36753e+06	-51289.1	955.822	-29752.5	0.000000	0.000000	7.799282	379.156	NaN	0.000000	0.001595	0.001648	28.0783	87.1485	0.001768	49301.6	1.764703	175.332	375.072	1.782707	0.095537	0.095281	379.156	49301.6	0.089769	0.253674	1494.66	89432.7
253	2.000000	1.785977	7.36753e+06	-51289.1	955.822	-29752.5	0.000000	0.000000	7.803218	401.557	NaN	0.000000	0.001571	0.001681	28.0784	90.1195	0.001831	49220.5	4.048725	173.029	400.182	1.785823	0.098551	0.098397	401.557	49220.5	0.092432	0.267127	1503.24	87008.2
253	2.000000	1.789064	7.36753e+06	-51289.1	955.822	-29752.5	0.000000	0.000000	7.807353	427.036	NaN	0.000000	0.001547	0.001655	28.0783	92.9347	0.001834	50671.1	7.166300	169.812	429.019	1.788714	0.101638	0.101289	427.036	50671.1	0.095317	0.282065	1513.96	87168.4
253	2.000000	1.791928	7.36753e+06	-51289.1	955.822	-29752.5	0.000000	0.000000	7.810997	446.027	NaN	0.000000	0.001588	0.001673	28.077	93.5391	0.001735	53899.9	4.206469	172.404	441.561	1.791658	0.104502	0.104232	446.027	53899.9	0.098295	0.297884	1497.32	90227.2
253	2.000000	1.794949	7.36753e+06	-51289.1	955.822	-29752.5	0.000000	0.000000	7.814963	468.98	NaN	0.000000	0.001533	0.001688	28.0773	96.0681	0.001846	52046.1	2.293418	174.386	464.079	1.794591	0.107524	0.107166	468.98	52046.1	0.100765	0.311309	1506.48	85224.7