File: remote_trans/data/nanoindenter/0828-1/data/Data_2025-08-06,11h17m57s/2025-07-22_16-23-58_1_1128.txt
2025-07-22, 16:23:58, 1
Index	Phase	Displacement	Time	Pos X	Pos Y	Pos Z	Rot A	Rot B	Piezo Z	Force A	Force B	Gripper	Voltage A	Voltage B	Temperature	Amplitude force	Amplitude pos	Stiffness	Phase shift	Phase excitation	Force A raw	Displacement raw	HMax	HMax raw	Real Force	Real Stiffness	Contact Depth	Area	Hardness	Reduced Mod.
[#]	[#]	[um]	[s]	[um]	[um]	[um]	[m°]	[m°]	[um]	[uN]	[uN]	[V]	[V]	[V]	[°C]	[uN]	[um]	[N/m]	[°]	[°]	[uN]	[um]	[um]	[um]	[uN]	[N/m]	[um]	[um^2]	[MPa]	[MPa]
1128	1.000000	0.002268	7.37609e+06	-56539.1	1055.82	-29738.6	0.000000	0.000000	6.002794	-0.000919	NaN	0.000000	0.001619	0.001761	28.0836	0.161074	0.000976	164.994	-153.366	-165.869	0.029442	0.001088	-1.105463	-1.106644	-0.000919	164.994	-1.105459	-5.933970E+14	1.549139E-18	NaN
1128	1.000000	0.012322	7.37609e+06	-56539.1	1055.82	-29738.6	0.000000	0.000000	6.012846	-0.040140	NaN	0.000000	0.001604	0.001738	28.0832	0.028252	0.001224	23.0726	-150.9	21.2052	0.030185	0.010941	-1.095410	-1.096790	-0.040140	23.0726	-1.094105	-4.177595E+14	9.608428E-17	NaN
1128	1.000000	0.022227	7.37609e+06	-56539.1	1055.82	-29738.6	0.000000	0.000000	6.022750	-0.068485	NaN	0.000000	0.001585	0.001737	28.0831	0.154170	0.001722	89.5382	-30.0711	-165.646	-0.001875	0.020956	-1.085505	-1.086776	-0.068485	89.5382	-1.084931	-3.145879E+14	2.176989E-16	NaN
1128	1.000000	0.032225	7.37609e+06	-56539.1	1055.82	-29738.6	0.000000	0.000000	6.032749	-0.055416	NaN	0.000000	0.001644	0.001730	28.0833	0.032231	0.001991	16.1884	-144.58	15.4344	0.051800	0.030815	-1.075506	-1.076917	-0.055416	16.1884	-1.072939	-2.171067E+14	2.552497E-16	NaN
1128	1.000000	0.042220	7.37609e+06	-56539.1	1055.82	-29738.6	0.000000	0.000000	6.042746	-0.021802	NaN	0.000000	0.001665	0.001749	28.0836	0.046677	0.002051	22.7597	-18.0596	-167.476	-0.042259	0.040928	-1.065511	-1.066803	-0.021802	22.7597	-1.064793	-1.687434E+14	1.292025E-16	NaN
1128	1.000000	0.052220	7.37609e+06	-56539.1	1055.82	-29738.6	0.000000	0.000000	6.052743	-0.071631	NaN	0.000000	0.001644	0.001783	28.0834	0.024384	0.001967	12.3964	-44.6107	13.5672	-0.004770	0.050906	-1.055512	-1.056826	-0.071631	12.3964	-1.051178	-1.107252E+14	6.469288E-16	NaN
1128	1.000000	0.062214	7.37609e+06	-56539.1	1055.82	-29738.6	0.000000	0.000000	6.062739	-0.033740	NaN	0.000000	0.001635	0.001809	28.0834	0.009295	0.001902	4.886312	-156.023	-163.947	-0.011701	0.060890	-1.045517	-1.046841	-0.033740	4.886312	-1.040339	-7.916299E+13	4.262067E-16	NaN
1128	1.000000	0.072249	7.37609e+06	-56539.1	1055.82	-29738.6	0.000000	0.000000	6.072773	-0.055303	NaN	0.000000	0.001691	0.001791	28.0835	0.149089	0.002071	71.9847	127.099	13.0898	-0.098418	0.070875	-1.035482	-1.036856	-0.055303	71.9847	-1.034906	-6.690656E+13	8.265668E-16	NaN
1128	1.000000	0.082224	7.37609e+06	-56539.1	1055.82	-29738.6	0.000000	0.000000	6.082749	-0.042177	NaN	0.000000	0.001664	0.001765	28.0837	0.040447	0.001997	20.2546	159.761	-163.896	-0.019162	0.080927	-1.025507	-1.026804	-0.042177	20.2546	-1.023945	-4.764648E+13	8.851971E-16	NaN
1128	1.000000	0.092234	7.37609e+06	-56539.1	1055.82	-29738.6	0.000000	0.000000	6.092758	-0.061267	NaN	0.000000	0.001676	0.001725	28.0832	0.029139	0.002026	14.3854	63.7274	13.4568	0.021787	0.090843	-1.015497	-1.016888	-0.061267	14.3854	-1.012303	-3.321789E+13	1.844400E-15	NaN
1128	1.000000	0.102248	7.37609e+06	-56539.1	1055.82	-29738.6	0.000000	0.000000	6.102770	-0.115202	NaN	0.000000	0.001690	0.001729	28.0832	0.116951	0.002000	58.4835	-157.692	-161.796	-0.115866	0.100933	-1.005483	-1.006798	-0.115202	58.4835	-1.004006	-2.568625E+13	4.484955E-15	NaN
1128	1.000000	0.112248	7.37609e+06	-56539.1	1055.82	-29738.6	0.000000	0.000000	6.112772	-0.062862	NaN	0.000000	0.001665	0.001735	28.0833	0.019168	0.001922	9.970719	114.701	16.2873	-0.023009	0.110907	-0.995483	-0.996824	-0.062862	9.970719	-0.990755	-1.703239E+13	3.690739E-15	NaN
1128	1.000000	0.122237	7.37609e+06	-56539.1	1055.82	-29738.6	0.000000	0.000000	6.122762	-0.037130	NaN	0.000000	0.001680	0.001779	28.0846	0.131428	0.001964	66.9152	98.0025	-168.808	-0.059469	0.120926	-0.985494	-0.986805	-0.037130	66.9152	-0.985078	-1.428294E+13	2.599621E-15	NaN
1128	1.000000	0.132252	7.37609e+06	-56539.1	1055.82	-29738.6	0.000000	0.000000	6.132773	-0.119918	NaN	0.000000	0.001682	0.001740	28.0844	0.125661	0.002056	61.1224	-176.662	16.4954	-0.066396	0.130925	-0.975480	-0.976806	-0.119918	61.1224	-0.974008	-1.013156E+13	1.183614E-14	NaN
1128	1.000000	0.142286	7.37609e+06	-56539.1	1055.82	-29738.6	0.000000	0.000000	6.142812	-0.029614	NaN	0.000000	0.001687	0.001700	28.0844	0.046374	0.002096	22.1257	-122.799	-162.882	-0.112630	0.140995	-0.965445	-0.966736	-0.029614	22.1257	-0.964441	-7.529048E+12	3.933258E-15	NaN
1128	1.000000	0.152243	7.37609e+06	-56539.1	1055.82	-29738.6	0.000000	0.000000	6.152769	-0.016640	NaN	0.000000	0.001711	0.001688	28.0846	0.075005	0.001972	38.0331	-68.5762	14.4714	-0.029697	0.150920	-0.955488	-0.956811	-0.016640	38.0331	-0.955160	-5.644279E+12	2.948042E-15	NaN
1128	1.000000	0.162244	7.37609e+06	-56539.1	1055.82	-29738.6	0.000000	0.000000	6.162770	-0.034642	NaN	0.000000	0.001750	0.001672	28.0843	0.086427	0.002038	42.3989	37.3736	-165.545	-0.090956	0.160967	-0.945487	-0.946764	-0.034642	42.3989	-0.944874	-4.100986E+12	8.447148E-15	NaN
1128	1.000000	0.172266	7.37609e+06	-56539.1	1055.82	-29738.6	0.000000	0.000000	6.172789	-0.094506	NaN	0.000000	0.001751	0.001697	28.0844	0.120159	0.002116	56.7823	172.919	16.2952	-0.100444	0.170877	-0.935465	-0.936854	-0.094506	56.7823	-0.934217	-2.945146E+12	3.208873E-14	NaN
1128	1.000000	0.182269	7.37609e+06	-56539.1	1055.82	-29738.6	0.000000	0.000000	6.182794	-0.050915	NaN	0.000000	0.001711	0.001668	28.0841	0.073416	0.002031	36.149	-26.513	-164.999	0.040358	0.180976	-0.925462	-0.926755	-0.050915	36.149	-0.924405	-2.171105E+12	2.345124E-14	NaN
1128	1.000000	0.192266	7.37609e+06	-56539.1	1055.82	-29738.6	0.000000	0.000000	6.192789	-0.073291	NaN	0.000000	0.001697	0.001670	28.0844	0.068222	0.001967	34.684	51.1995	17.6913	-0.016753	0.190948	-0.915465	-0.916784	-0.073291	34.684	-0.913880	-1.565208E+12	4.682504E-14	NaN
1128	1.000000	0.202304	7.37609e+06	-56539.1	1055.82	-29738.6	0.000000	0.000000	6.202828	-0.057586	NaN	0.000000	0.001679	0.001728	28.084	0.108136	0.002062	52.4321	156.109	-165.636	0.027233	0.200960	-0.905428	-0.906771	-0.057586	52.4321	-0.904604	-1.172922E+12	4.909607E-14	NaN
1128	1.000000	0.212285	7.37609e+06	-56539.1	1055.82	-29738.6	0.000000	0.000000	6.212809	-0.077407	NaN	0.000000	0.001731	0.001736	28.0843	0.091176	0.001947	46.8409	77.508	10.7938	-0.021216	0.210965	-0.895446	-0.896766	-0.077407	46.8409	-0.894206	-8.487345E+11	9.120332E-14	NaN
1128	1.000000	0.222303	7.37609e+06	-56539.1	1055.82	-29738.6	0.000000	0.000000	6.222827	-0.053425	NaN	0.000000	0.001692	0.001696	28.0845	0.107038	0.001878	56.9961	-179.75	-162.945	-0.082198	0.221000	-0.885428	-0.886732	-0.053425	56.9961	-0.884725	-6.318322E+11	8.455611E-14	NaN
1128	1.000000	0.232292	7.37609e+06	-56539.1	1055.82	-29738.6	0.000000	0.000000	6.232816	-0.076229	NaN	0.000000	0.001659	0.001703	28.0845	0.054202	0.001849	29.3111	-9.112402	17.46	-0.128885	0.230926	-0.875439	-0.876806	-0.076229	29.3111	-0.873488	-4.452840E+11	1.711910E-13	NaN
1128	1.000000	0.242314	7.37609e+06	-56539.1	1055.82	-29738.6	0.000000	0.000000	6.242838	-0.058776	NaN	0.000000	0.001656	0.001763	28.0843	0.045256	0.002087	21.6849	-105.896	-162.862	-0.010176	0.241008	-0.865417	-0.866723	-0.058776	21.6849	-0.863385	-3.250333E+11	1.808299E-13	NaN
1128	1.000000	0.252307	7.37609e+06	-56539.1	1055.82	-29738.6	0.000000	0.000000	6.252833	-0.019116	NaN	0.000000	0.001628	0.001718	28.0844	0.018551	0.002052	9.039016	156.288	14.227	-0.028437	0.250959	-0.855424	-0.856772	-0.019116	9.039016	-0.853838	-2.413800E+11	7.919530E-14	NaN
1128	1.000000	0.262319	7.37609e+06	-56539.1	1055.82	-29738.6	0.000000	0.000000	6.262844	-0.052037	NaN	0.000000	0.001654	0.001719	28.0832	0.043728	0.001968	22.2232	0.292491	-169.501	-0.063423	0.261033	-0.845412	-0.846699	-0.052037	22.2232	-0.843656	-1.757178E+11	2.961421E-13	NaN
1128	1.000000	0.272318	7.37609e+06	-56539.1	1055.82	-29738.6	0.000000	0.000000	6.272842	-0.064716	NaN	0.000000	0.001617	0.001716	28.0833	0.023710	0.001946	12.1831	145.135	15.0073	-0.078201	0.270944	-0.835413	-0.836787	-0.064716	12.1831	-0.831429	-1.199916E+11	5.393385E-13	NaN
1128	1.000000	0.282329	7.37609e+06	-56539.1	1055.82	-29738.6	0.000000	0.000000	6.282851	-0.107770	NaN	0.000000	0.001626	0.001707	28.083	0.018047	0.002063	8.746293	93.1603	-162.201	-0.024720	0.281019	-0.825402	-0.826713	-0.107770	8.746293	-0.816161	-7.449774E+10	1.446624E-12	NaN
1128	1.000000	0.292347	7.37609e+06	-56539.1	1055.82	-29738.6	0.000000	0.000000	6.292870	-0.083397	NaN	0.000000	0.001646	0.001704	28.0833	0.079254	0.002020	39.2342	-134.45	10.759	0.006747	0.290958	-0.815385	-0.816773	-0.083397	39.2342	-0.813790	-6.918185E+10	1.205474E-12	NaN
1128	1.000000	0.302321	7.37609e+06	-56539.1	1055.82	-29738.6	0.000000	0.000000	6.302843	-0.114274	NaN	0.000000	0.001551	0.001719	28.0829	0.059295	0.002149	27.5924	80.1426	-167.541	-0.029909	0.301051	-0.805410	-0.806680	-0.114274	27.5924	-0.802304	-4.832054E+10	2.364909E-12	NaN
1128	1.000000	0.312339	7.37609e+06	-56539.1	1055.82	-29738.6	0.000000	0.000000	6.312865	-0.001672	NaN	0.000000	0.001515	0.001725	28.0832	0.045777	0.002100	21.7963	98.5413	13.7881	-0.069565	0.310974	-0.795392	-0.796758	-0.001672	21.7963	-0.795335	-3.886233E+10	4.301499E-14	NaN
1128	1.000000	0.322309	7.37609e+06	-56539.1	1055.82	-29738.7	0.000000	0.000000	6.322831	-0.116672	NaN	0.000000	0.001587	0.001686	28.083	0.044606	0.001936	23.039	-27.7118	-168.209	-0.128905	0.321029	-0.785422	-0.786703	-0.116672	23.039	-0.781624	-2.531047E+10	4.609652E-12	NaN
1128	1.000000	0.332318	7.37609e+06	-56539.1	1055.82	-29738.7	0.000000	0.000000	6.332843	-0.047724	NaN	0.000000	0.001556	0.001696	28.0838	0.049314	0.001932	25.5191	-165.742	16.7531	-0.099964	0.330962	-0.775413	-0.776769	-0.047724	25.5191	-0.774011	-1.994472E+10	2.392837E-12	NaN
1128	1.000000	0.342349	7.37609e+06	-56539.1	1055.82	-29738.7	0.000000	0.000000	6.342874	-0.032375	NaN	0.000000	0.001592	0.001703	28.0831	0.074907	0.002003	37.4034	0.412772	-163.664	-0.081845	0.340997	-0.765382	-0.766734	-0.032375	37.4034	-0.764733	-1.491718E+10	2.170294E-12	NaN
1128	1.000000	0.352333	7.37609e+06	-56539.1	1055.82	-29738.7	0.000000	0.000000	6.352860	0.013607	NaN	0.000000	0.001582	0.001751	28.0834	0.061553	0.002011	30.603	44.1214	16.4064	0.009313	0.350944	-0.755398	-0.756787	0.013607	30.603	-0.755732	-1.125192E+10	-1.209332E-12	NaN
1128	1.000000	0.362380	7.37609e+06	-56539.1	1055.82	-29738.7	0.000000	0.000000	6.362902	-0.118892	NaN	0.000000	0.001570	0.001704	28.0832	0.053354	0.001944	27.4461	60.7828	-159.816	-0.043424	0.360991	-0.745351	-0.746740	-0.118892	27.4461	-0.742102	-7.339770E+9	1.619828E-11	NaN
1128	1.000000	0.372335	7.37609e+06	-56539.1	1055.82	-29738.7	0.000000	0.000000	6.372856	-0.122524	NaN	0.000000	0.001576	0.001685	28.0834	0.080790	0.001984	40.7149	-2.108619	15.4039	-0.029919	0.370974	-0.735396	-0.736757	-0.122524	40.7149	-0.733140	-5.541056E+9	2.211197E-11	NaN
1128	1.000000	0.382361	7.37609e+06	-56539.1	1055.82	-29738.7	0.000000	0.000000	6.382887	-0.013615	NaN	0.000000	0.001569	0.001690	28.0831	0.040662	0.001954	20.8132	-137.27	-166.077	-0.070373	0.381054	-0.725370	-0.726677	-0.013615	20.8132	-0.724879	-4.275700E+9	3.184236E-12	NaN
1128	1.000000	0.392372	7.37609e+06	-56539.1	1055.82	-29738.7	0.000000	0.000000	6.392896	-0.062276	NaN	0.000000	0.001587	0.001701	28.0836	0.017623	0.002041	8.632885	-39.2488	15.8577	-0.047008	0.391021	-0.715360	-0.716710	-0.062276	8.632885	-0.709949	-2.675192E+9	2.327894E-11	NaN
1128	1.000000	0.402374	7.37609e+06	-56539.1	1055.82	-29738.7	0.000000	0.000000	6.402900	-0.021293	NaN	0.000000	0.001592	0.001624	28.0847	0.026743	0.001984	13.4809	-43.7738	-164.514	-0.077567	0.401056	-0.705357	-0.706675	-0.021293	13.4809	-0.704172	-2.231008E+9	9.544061E-12	NaN
1128	1.000000	0.412403	7.37609e+06	-56539.1	1055.82	-29738.7	0.000000	0.000000	6.412930	0.020062	NaN	0.000000	0.001594	0.001649	28.0844	0.025571	0.002040	12.5364	159.492	15.7853	0.014461	0.411029	-0.695328	-0.696702	0.020062	12.5364	-0.696528	-1.754351E+9	-1.143581E-11	NaN
1128	1.000000	0.422390	7.37609e+06	-56539.1	1055.82	-29738.7	0.000000	0.000000	6.422915	-0.041965	NaN	0.000000	0.001613	0.001675	28.0845	0.044669	0.001971	22.6655	-32.5757	-164.053	0.029260	0.421085	-0.685341	-0.686646	-0.041965	22.6655	-0.683952	-1.181008E+9	3.553304E-11	NaN
1128	1.000000	0.432387	7.37609e+06	-56539.1	1055.82	-29738.7	0.000000	0.000000	6.432909	-0.114758	NaN	0.000000	0.001594	0.001701	28.0843	0.031223	0.002020	15.4563	137.366	13.7208	-0.049231	0.430987	-0.675344	-0.676744	-0.114758	15.4563	-0.669775	-7.556424E+8	1.518685E-10	NaN
1128	1.000000	0.442374	7.37609e+06	-56539.1	1055.82	-29738.7	0.000000	0.000000	6.442897	-0.093783	NaN	0.000000	0.001580	0.001706	28.0852	0.067916	0.002071	32.7986	-136.953	-163.678	-0.079751	0.441040	-0.665357	-0.666691	-0.093783	32.7986	-0.663212	-6.144191E+8	1.526364E-10	NaN
1128	1.000000	0.452388	7.37609e+06	-56539.1	1055.82	-29738.7	0.000000	0.000000	6.452914	-0.006666	NaN	0.000000	0.001549	0.001699	28.0845	0.073725	0.002099	35.1318	-168.962	17.8618	0.049758	0.451050	-0.655343	-0.656681	-0.006666	35.1318	-0.655201	-4.772253E+8	1.396910E-11	NaN
1128	1.000000	0.462410	7.37609e+06	-56539.1	1055.82	-29738.7	0.000000	0.000000	6.462935	-0.024569	NaN	0.000000	0.001546	0.001704	28.0846	0.077392	0.001945	39.7964	-11.467	-162.756	-0.057299	0.461091	-0.645321	-0.646641	-0.024569	39.7964	-0.644858	-3.442989E+8	7.136017E-11	NaN
1128	1.000000	0.472410	7.37609e+06	-56539.1	1055.82	-29738.7	0.000000	0.000000	6.472935	-0.054127	NaN	0.000000	0.001578	0.001702	28.0845	0.045336	0.001972	22.9864	-21.629	17.5694	-0.008003	0.471057	-0.635321	-0.636674	-0.054127	22.9864	-0.633555	-2.408967E+8	2.246903E-10	NaN
1128	1.000000	0.482393	7.37609e+06	-56539.1	1055.82	-29738.7	0.000000	0.000000	6.482917	-0.078228	NaN	0.000000	0.001570	0.001679	28.0846	0.139707	0.001932	72.2999	-110.242	-160.237	-0.076113	0.481078	-0.625338	-0.626653	-0.078228	72.2999	-0.624526	-1.810653E+8	4.320446E-10	NaN
1128	1.000000	0.492435	7.37609e+06	-56539.1	1055.82	-29738.7	0.000000	0.000000	6.492957	-0.090849	NaN	0.000000	0.001606	0.001650	28.0847	0.054037	0.001855	29.1257	15.3639	15.1762	-0.050007	0.491077	-0.615297	-0.616654	-0.090849	29.1257	-0.612957	-1.255439E+8	7.236419E-10	NaN
1128	1.000000	0.502381	7.37609e+06	-56539.1	1055.82	-29738.7	0.000000	0.000000	6.502906	-0.047218	NaN	0.000000	0.001569	0.001682	28.0844	0.085945	0.002154	39.897	102.672	-164.875	-0.039941	0.501141	-0.605350	-0.606590	-0.047218	39.897	-0.604462	-9.591879E+7	4.922695E-10	NaN
1128	1.000000	0.512403	7.37609e+06	-56539.1	1055.82	-29738.7	0.000000	0.000000	6.512927	-0.081682	NaN	0.000000	0.001599	0.001668	28.0846	0.013371	0.001994	6.706743	172.762	11.516	-0.090168	0.511095	-0.595328	-0.596636	-0.081682	6.706743	-0.586194	-5.372517E+7	1.520368E-9	NaN
1128	1.000000	0.522405	7.37609e+06	-56539.1	1055.82	-29738.7	0.000000	0.000000	6.522931	-0.035478	NaN	0.000000	0.001626	0.001652	28.0845	0.028606	0.001976	14.4756	-69.9609	-164.183	-0.026696	0.521111	-0.585326	-0.586620	-0.035478	14.4756	-0.583488	-4.930051E+7	7.196248E-10	NaN
1128	1.000000	0.532437	7.37609e+06	-56539.1	1055.82	-29738.7	0.000000	0.000000	6.532960	-0.099123	NaN	0.000000	0.001621	0.001683	28.0833	0.088494	0.002059	42.9805	-167.936	12.3817	-0.114490	0.531017	-0.575294	-0.576715	-0.099123	42.9805	-0.573564	-3.596427E+7	2.756151E-9	NaN
1128	1.000000	0.542464	7.37609e+06	-56539.1	1055.82	-29738.7	0.000000	0.000000	6.542987	-0.071321	NaN	0.000000	0.001548	0.001619	28.0834	0.085893	0.001962	43.7773	-46.4166	-164.644	-0.109239	0.541131	-0.565267	-0.566600	-0.071321	43.7773	-0.564046	-2.656624E+7	2.684652E-9	NaN
1128	1.000000	0.552420	7.37609e+06	-56539.1	1055.82	-29738.7	0.000000	0.000000	6.552945	-0.026214	NaN	0.000000	0.001535	0.001698	28.0832	0.157687	0.002098	75.1635	-27.6961	16.6342	-0.038064	0.551083	-0.555311	-0.556648	-0.026214	75.1635	-0.555050	-1.994698E+7	1.314163E-9	NaN
1128	1.000000	0.562425	7.37609e+06	-56539.1	1055.82	-29738.7	0.000000	0.000000	6.562950	-0.036396	NaN	0.000000	0.001602	0.001690	28.0834	0.027472	0.001787	15.3704	121.61	-162.099	-0.050931	0.561112	-0.545306	-0.546620	-0.036396	15.3704	-0.543530	-1.381352E+7	2.634827E-9	NaN
1128	1.000000	0.572459	7.37609e+06	-56539.1	1055.82	-29738.7	0.000000	0.000000	6.572983	-0.074393	NaN	0.000000	0.001538	0.001695	28.0832	0.029996	0.001926	15.5754	-69.5258	13.0404	-0.076269	0.571066	-0.535272	-0.536665	-0.074393	15.5754	-0.531690	-9.46316e+06	7.861305E-9	NaN
1128	1.000000	0.582460	7.37609e+06	-56539.1	1055.82	-29738.7	0.000000	0.000000	6.582983	-0.093328	NaN	0.000000	0.001490	0.001701	28.0839	0.100144	0.002076	48.2383	97.9091	-163.884	-0.068746	0.581194	-0.525271	-0.526537	-0.093328	48.2383	-0.523820	-7.35711e+06	1.268536E-8	NaN
1128	1.000000	0.592432	7.37609e+06	-56539.1	1055.82	-29738.7	0.000000	0.000000	6.592957	-0.029123	NaN	0.000000	0.001554	0.001664	28.0833	0.082828	0.001977	41.8943	-175.954	15.0082	-0.043333	0.591080	-0.515300	-0.516651	-0.029123	41.8943	-0.514778	-5.50741e+06	5.287940E-9	NaN
1128	1.000000	0.602475	7.37609e+06	-56539.1	1055.82	-29738.7	0.000000	0.000000	6.602997	-0.093190	NaN	0.000000	0.001564	0.001720	28.0838	0.112478	0.001974	56.9763	-158.121	-165.392	-0.102241	0.601192	-0.505257	-0.506539	-0.093190	56.9763	-0.504030	-3.90139e+06	2.388647E-8	NaN
1128	1.000000	0.612472	7.37609e+06	-56539.1	1055.82	-29738.7	0.000000	0.000000	6.612999	0.024574	NaN	0.000000	0.001538	0.001666	28.0833	0.026196	0.002037	12.8606	-52.144	15.5806	-0.037294	0.611101	-0.495260	-0.496630	0.024574	12.8606	-0.496693	-3.08223e+06	-7.972770E-9	NaN
1128	1.000000	0.622475	7.37609e+06	-56539.1	1055.82	-29738.7	0.000000	0.000000	6.623001	-0.001942	NaN	0.000000	0.001546	0.001674	28.0836	0.144744	0.002102	68.8571	-150.214	-163.306	0.055813	0.621193	-0.485256	-0.486538	-0.001942	68.8571	-0.485235	-2.13196e+06	9.108771E-10	NaN
1128	1.000000	0.632472	7.37609e+06	-56539.1	1055.82	-29738.7	0.000000	0.000000	6.632998	-0.015637	NaN	0.000000	0.001562	0.001680	28.0834	0.148612	0.001990	74.6655	-99.3063	17.459	-0.002666	0.631051	-0.475259	-0.476680	-0.015637	74.6655	-0.475102	-1.53791e+06	1.016796E-8	NaN
1128	1.000000	0.642459	7.37609e+06	-56539.1	1055.82	-29738.7	0.000000	0.000000	6.642981	-0.094665	NaN	0.000000	0.001568	0.001714	28.0837	0.034875	0.002011	17.3451	-79.2662	-162.296	-0.014191	0.641153	-0.465273	-0.466578	-0.094665	17.3451	-0.461179	-980820	9.651665E-8	NaN
1128	1.000000	0.652478	7.37609e+06	-56539.1	1055.82	-29738.7	0.000000	0.000000	6.653003	-0.036830	NaN	0.000000	0.001526	0.001680	28.0838	0.119239	0.001948	61.2043	9.473448	15.4136	0.023404	0.651108	-0.455253	-0.456623	-0.036830	61.2043	-0.454802	-797865	4.616068E-8	NaN
1128	1.000000	0.662429	7.37609e+06	-56539.1	1055.82	-29738.7	0.000000	0.000000	6.662952	-0.070894	NaN	0.000000	0.001566	0.001700	28.0836	0.063679	0.001802	35.3469	171.614	-164.036	-0.005496	0.661172	-0.445302	-0.446559	-0.070894	35.3469	-0.443798	-558402	1.269595E-7	NaN
1128	1.000000	0.672472	7.37609e+06	-56539.1	1055.82	-29738.7	0.000000	0.000000	6.672996	-0.053646	NaN	0.000000	0.001532	0.001725	28.0847	0.072834	0.002029	35.9027	-160.217	14.9911	0.004805	0.671132	-0.435259	-0.436599	-0.053646	35.9027	-0.434138	-407924	1.315103E-7	NaN
1128	1.000000	0.682492	7.37609e+06	-56539.1	1055.82	-29738.7	0.000000	0.000000	6.683016	-0.061203	NaN	0.000000	0.001560	0.001724	28.0849	0.102354	0.002049	49.945	37.1462	-163.429	-0.059136	0.681191	-0.425239	-0.426540	-0.061203	49.945	-0.424320	-296248	2.065950E-7	NaN
1128	1.000000	0.692503	7.37609e+06	-56539.1	1055.82	-29738.7	0.000000	0.000000	6.693031	0.023899	NaN	0.000000	0.001568	0.001674	28.0848	0.168301	0.002119	79.4274	94.8681	14.7474	0.018499	0.691133	-0.415228	-0.416598	0.023899	79.4274	-0.415454	-221769	-1.077672E-7	NaN
1128	1.000000	0.702487	7.37609e+06	-56539.1	1055.82	-29738.7	0.000000	0.000000	6.703009	-0.100277	NaN	0.000000	0.001562	0.001701	28.0846	0.113819	0.001868	60.9371	-147.676	-167.6	-0.021396	0.701200	-0.405244	-0.406531	-0.100277	60.9371	-0.404010	-152458	6.577332E-7	NaN
1128	1.000000	0.712523	7.37609e+06	-56539.1	1055.82	-29738.7	0.000000	0.000000	6.713047	-0.059325	NaN	0.000000	0.001563	0.001693	28.0847	0.041434	0.001956	21.1776	59.3653	15.8873	-0.026587	0.711142	-0.395208	-0.396589	-0.059325	21.1776	-0.393107	-106559	5.567368E-7	NaN
1128	1.000000	0.722524	7.37609e+06	-56539.1	1055.82	-29738.7	0.000000	0.000000	6.723047	-0.107852	NaN	0.000000	0.001546	0.001719	28.085	0.012662	0.002041	6.204311	-44.1317	-164.584	-0.119118	0.721221	-0.385207	-0.386510	-0.107852	6.204311	-0.372169	-53377.1	2.020569E-6	NaN
1128	1.000000	0.732488	7.37609e+06	-56539.1	1055.82	-29738.7	0.000000	0.000000	6.733015	0.007255	NaN	0.000000	0.001583	0.001648	28.0848	0.074909	0.002046	36.6092	46.5747	15.6994	-0.028489	0.731138	-0.375243	-0.376593	0.007255	36.6092	-0.375392	-59388.1	-1.221699E-7	NaN
1128	1.000000	0.742518	7.37609e+06	-56539.1	1055.82	-29738.7	0.000000	0.000000	6.743040	-0.101840	NaN	0.000000	0.001568	0.001682	28.0846	0.051353	0.002077	24.7281	1.193345	-164.239	-0.023338	0.741186	-0.365214	-0.366546	-0.101840	24.7281	-0.362125	-38242.8	2.662994E-6	NaN
1128	1.000000	0.752512	7.37609e+06	-56539.1	1055.82	-29738.7	0.000000	0.000000	6.753040	0.029814	NaN	0.000000	0.001572	0.001664	28.0843	0.074665	0.001986	37.5939	156.693	12.5769	-0.015937	0.751123	-0.355219	-0.356608	0.029814	37.5939	-0.355814	-30994.2	-9.619091E-7	NaN
1128	1.000000	0.762525	7.37609e+06	-56539.1	1055.82	-29738.7	0.000000	0.000000	6.763052	0.015798	NaN	0.000000	0.001606	0.001711	28.0847	0.055627	0.002084	26.6888	138.461	-168.537	-0.008844	0.761195	-0.345207	-0.346537	0.015798	26.6888	-0.345651	-22070.8	-7.157992E-7	NaN
1128	1.000000	0.772538	7.37609e+06	-56539.1	1055.82	-29738.7	0.000000	0.000000	6.773064	-0.019418	NaN	0.000000	0.001620	0.001672	28.0845	0.124735	0.001880	66.3549	105.158	11.7314	0.005341	0.771148	-0.335193	-0.336583	-0.019418	66.3549	-0.334974	-15424.3	1.258934E-6	NaN
1128	1.000000	0.782542	7.37609e+06	-56539.1	1055.82	-29738.7	0.000000	0.000000	6.783066	-0.073954	NaN	0.000000	0.001602	0.001680	28.0846	0.110821	0.001983	55.879	97.1096	-163.274	-0.075418	0.781194	-0.325189	-0.326537	-0.073954	55.879	-0.324196	-10723.4	6.896445E-6	NaN
1128	1.000000	0.792525	7.37609e+06	-56539.1	1055.82	-29738.7	0.000000	0.000000	6.793049	-0.065093	NaN	0.000000	0.001623	0.001682	28.0849	0.135207	0.001935	69.8665	178.315	15.7772	-0.007801	0.791181	-0.315206	-0.316551	-0.065093	69.8665	-0.314508	-7721.14	8.430505E-6	NaN
1128	1.000000	0.802533	7.37609e+06	-56539.1	1055.82	-29738.7	0.000000	0.000000	6.803056	-0.077935	NaN	0.000000	0.001655	0.001708	28.0843	0.030509	0.001975	15.4462	-112.006	-166.045	-0.125046	0.801219	-0.305198	-0.306512	-0.077935	15.4462	-0.301414	-4939.41	1.577812E-5	NaN
1128	1.000000	0.812550	7.37609e+06	-56539.1	1055.82	-29738.7	0.000000	0.000000	6.813072	-0.103375	NaN	0.000000	0.001615	0.001707	28.0837	0.027892	0.001954	14.2754	91.5668	17.4899	-0.066010	0.811140	-0.295182	-0.296591	-0.103375	14.2754	-0.289751	-3308	3.124996E-5	NaN
1128	1.000000	0.822529	7.37609e+06	-56539.1	1055.82	-29738.7	0.000000	0.000000	6.823053	-0.083436	NaN	0.000000	0.001605	0.001683	28.0833	0.174901	0.002095	83.49	55.7372	-167.926	-0.107902	0.821267	-0.285202	-0.286465	-0.083436	83.49	-0.284452	-2754.42	3.029162E-5	NaN
1128	1.000000	0.832538	7.37609e+06	-56539.1	1055.82	-29738.7	0.000000	0.000000	6.833062	-0.069186	NaN	0.000000	0.001603	0.001660	28.0838	0.041300	0.002034	20.307	-71.2145	14.7714	-0.031328	0.831229	-0.275193	-0.276502	-0.069186	20.307	-0.272638	-1826.42	3.788074E-5	NaN
1128	1.000000	0.842552	7.37609e+06	-56539.1	1055.82	-29738.7	0.000000	0.000000	6.843073	-0.146821	NaN	0.000000	0.001580	0.001719	28.0833	0.032682	0.002151	15.1925	166.726	-165.487	-0.161327	0.841208	-0.265179	-0.266523	-0.146821	15.1925	-0.257931	-1089.37	0.000135	NaN
1128	1.000000	0.852546	7.37609e+06	-56539.1	1055.82	-29738.7	0.000000	0.000000	6.853070	-0.051385	NaN	0.000000	0.001616	0.001705	28.0837	0.030545	0.002040	14.9755	-107.342	18.8481	-0.052341	0.851240	-0.255185	-0.256491	-0.051385	14.9755	-0.252612	-902.218	5.695463E-5	NaN
1128	1.000000	0.862542	7.37609e+06	-56539.1	1055.82	-29738.7	0.000000	0.000000	6.863069	-0.001770	NaN	0.000000	0.001625	0.001703	28.0833	0.019646	0.001885	10.4239	-43.308	-164.51	-0.101634	0.861284	-0.245189	-0.246448	-0.001770	10.4239	-0.245062	-689.305	2.568148E-6	NaN
1128	1.000000	0.872602	7.37609e+06	-56539.1	1055.82	-29738.7	0.000000	0.000000	6.873125	-0.096826	NaN	0.000000	0.001629	0.001708	28.0838	0.095112	0.002001	47.542	-127.306	14.7694	-0.133598	0.871254	-0.235129	-0.236478	-0.096826	47.542	-0.233601	-456.319	0.000212	NaN
1128	1.000000	0.882569	7.37609e+06	-56539.1	1055.82	-29738.7	0.000000	0.000000	6.883093	-0.072205	NaN	0.000000	0.001626	0.001692	28.0834	0.098873	0.002009	49.2144	147.97	-165.55	-0.056165	0.881282	-0.225162	-0.226449	-0.072205	49.2144	-0.224062	-322.423	0.000224	NaN
1128	1.000000	0.892536	7.37609e+06	-56539.1	1055.82	-29738.7	0.000000	0.000000	6.893058	-0.109895	NaN	0.000000	0.001593	0.001716	28.0837	0.136196	0.002028	67.1419	170.274	11.8772	-0.028382	0.891235	-0.215195	-0.216496	-0.109895	67.1419	-0.213967	-222.277	0.000494	NaN
1128	1.000000	0.902594	7.37609e+06	-56539.1	1055.82	-29738.7	0.000000	0.000000	6.903119	-0.032318	NaN	0.000000	0.001554	0.001657	28.0836	0.036572	0.001973	18.535	172.217	-166.918	-0.076242	0.901267	-0.205137	-0.206464	-0.032318	18.535	-0.203829	-152.212	0.000212	NaN
1128	1.000000	0.912593	7.37609e+06	-56539.1	1055.82	-29738.7	0.000000	0.000000	6.913116	-0.092758	NaN	0.000000	0.001549	0.001681	28.0831	0.005767	0.001935	2.980542	149.071	13.8562	-0.018222	0.911250	-0.195138	-0.196481	-0.092758	2.980542	-0.171797	-44.1325	0.002102	NaN
1128	1.000000	0.922556	7.37609e+06	-56539.1	1055.82	-29738.7	0.000000	0.000000	6.923083	-0.008680	NaN	0.000000	0.001570	0.001696	28.0835	0.071593	0.002131	33.6015	-152.478	-170.428	-0.120890	0.921282	-0.185175	-0.186449	-0.008680	33.6015	-0.184981	-74.0994	0.000117	NaN
1128	1.000000	0.932590	7.37609e+06	-56539.1	1055.82	-29738.7	0.000000	0.000000	6.933116	-0.021853	NaN	0.000000	0.001573	0.001712	28.0846	0.045897	0.002110	21.7538	-113.202	16.8122	-0.014496	0.931237	-0.175141	-0.176494	-0.021853	21.7538	-0.174388	-48.9161	0.000447	NaN
1128	1.000000	0.942603	7.37609e+06	-56539.1	1055.82	-29738.7	0.000000	0.000000	6.943128	-0.025316	NaN	0.000000	0.001558	0.001699	28.0849	0.145186	0.002047	70.9208	-173.693	-163.743	-0.057927	0.941255	-0.165129	-0.166476	-0.025316	70.9208	-0.164861	-33.409	0.000758	NaN
1128	1.000000	0.952614	7.37609e+06	-56539.1	1055.82	-29738.7	0.000000	0.000000	6.953138	-0.074380	NaN	0.000000	0.001569	0.001685	28.0849	0.017257	0.001985	8.693853	52.4839	11.3569	-0.070469	0.951256	-0.155117	-0.156475	-0.074380	8.693853	-0.148700	-17.1497	0.004337	NaN
1128	1.000000	0.962607	7.37609e+06	-56539.1	1055.82	-29738.7	0.000000	0.000000	6.963130	-0.087439	NaN	0.000000	0.001510	0.001679	28.0848	0.022547	0.002001	11.2698	59.7807	-165.854	-0.101411	0.961311	-0.145124	-0.146420	-0.087439	11.2698	-0.139305	-11.4788	0.007617	NaN
1128	1.000000	0.972607	7.37609e+06	-56539.1	1055.82	-29738.7	0.000000	0.000000	6.973131	-0.071639	NaN	0.000000	0.001535	0.001699	28.085	0.076709	0.002017	38.033	150.349	12.123	-0.048105	0.971250	-0.135124	-0.136481	-0.071639	38.033	-0.133711	-8.987375	0.007971	NaN
1128	1.000000	0.982578	7.37609e+06	-56539.1	1055.82	-29738.7	0.000000	0.000000	6.983102	-0.068638	NaN	0.000000	0.001515	0.001725	28.0847	0.097957	0.001964	49.8685	107.84	-170.808	-0.104552	0.981288	-0.125153	-0.126443	-0.068638	49.8685	-0.124120	-5.841988	0.011749	NaN
1128	1.000000	0.992638	7.37609e+06	-56539.1	1055.82	-29738.7	0.000000	0.000000	6.993162	-0.067383	NaN	0.000000	0.001521	0.001705	28.0851	0.045389	0.002086	21.7584	-100.032	10.1484	-0.064509	0.991268	-0.115093	-0.116464	-0.067383	21.7584	-0.112771	-3.434941	0.019617	NaN
1128	1.000000	1.002635	7.37609e+06	-56539.1	1055.82	-29738.7	0.000000	0.000000	7.003158	-0.101014	NaN	0.000000	0.001536	0.001703	28.0849	0.076800	0.001977	38.8439	-175.505	-169.692	-0.070713	1.001352	-0.105096	-0.106379	-0.101014	38.8439	-0.103146	-2.142534	0.047147	NaN
1128	1.000000	1.012639	7.37609e+06	-56539.1	1055.82	-29738.7	0.000000	0.000000	7.013164	-0.022185	NaN	0.000000	0.001554	0.001692	28.0852	0.106286	0.001958	54.2857	-165.399	11.8336	-0.131788	1.011268	-0.095093	-0.096463	-0.022185	54.2857	-0.094786	-1.394885	0.015905	NaN
1128	1.000000	1.022607	7.37609e+06	-56539.1	1055.82	-29738.7	0.000000	0.000000	7.023131	-0.072698	NaN	0.000000	0.001543	0.001713	28.0848	0.047568	0.002008	23.6852	114.548	-166.255	-0.092401	1.021330	-0.085124	-0.086401	-0.072698	23.6852	-0.082822	-0.727101	0.099984	NaN
1128	1.000000	1.032610	7.37609e+06	-56539.1	1055.82	-29738.7	0.000000	0.000000	7.033137	0.015435	NaN	0.000000	0.001546	0.001689	28.0849	0.086304	0.001886	45.7613	67.0458	15.0784	-0.053084	1.031260	-0.075121	-0.076472	0.015435	45.7613	-0.075374	-0.472273	-0.032682	NaN
1128	1.000000	1.042627	7.37609e+06	-56539.1	1055.82	-29738.7	0.000000	0.000000	7.043152	-0.044091	NaN	0.000000	0.001501	0.001685	28.0848	0.080082	0.002175	36.8139	74.325	-169.587	2.491585E-5	1.041355	-0.065104	-0.066376	-0.044091	36.8139	-0.064206	-0.236852	0.186153	NaN
1128	1.000000	1.052643	7.37609e+06	-56539.1	1055.82	-29738.7	0.000000	0.000000	7.053164	-0.126709	NaN	0.000000	0.001563	0.001688	28.0848	0.083605	0.001978	42.2755	-19.6117	14.0071	-0.109604	1.051288	-0.055089	-0.056443	-0.126709	42.2755	-0.052841	-0.111086	1.140643	NaN
1128	1.000000	1.062666	7.37609e+06	-56539.1	1055.82	-29738.7	0.000000	0.000000	7.063191	-0.039658	NaN	0.000000	0.001523	0.001704	28.0848	0.084126	0.002055	40.9466	-39.9023	-167.143	-0.047926	1.061362	-0.045066	-0.046370	-0.039658	40.9466	-0.044339	-0.061346	0.646462	NaN
1128	1.000000	1.072617	7.37609e+06	-56539.1	1055.82	-29738.7	0.000000	0.000000	7.073142	-0.017826	NaN	0.000000	0.001542	0.001697	28.0848	0.022296	0.001856	12.0103	-56.486	16.2992	-0.012721	1.071279	-0.035115	-0.036452	-0.017826	12.0103	-0.034001	-0.029937	0.595470	NaN
1128	1.000000	1.082658	7.37609e+06	-56539.1	1055.82	-29738.7	0.000000	0.000000	7.083182	-0.052019	NaN	0.000000	0.001555	0.001663	28.0837	0.109501	0.002055	53.2919	-86.8855	-164.561	0.005063	1.081381	-0.025074	-0.026350	-0.052019	53.2919	-0.024341	-0.016217	3.207595	NaN
1128	1.000000	1.092643	7.37609e+06	-56539.1	1055.82	-29738.7	0.000000	0.000000	7.093169	-0.012737	NaN	0.000000	0.001550	0.001673	28.0835	0.136072	0.002016	67.4922	2.280518	15.6068	-0.009289	1.091260	-0.015088	-0.016471	-0.012737	67.4922	-0.014947	-0.009243	1.377974	NaN
1128	1.000000	1.102656	7.37609e+06	-56539.1	1055.82	-29738.7	0.000000	0.000000	7.103191	0.196998	NaN	0.000000	0.001499	0.001675	28.0835	0.495128	0.002097	236.133	6.323268	-167.755	-0.013927	1.101370	-0.005075	-0.006361	0.196998	236.133	-0.005701	-0.003853	-51.1332	NaN
1128	2.000000	1.111690	7.37609e+06	-56539.1	1055.82	-29738.7	0.000000	0.000000	7.112522	7.408359	NaN	0.000000	0.001516	0.001689	28.0834	8.572122	0.001704	5030.47	13.098	4.502114	7.351888	1.111143	0.003959	0.003411	7.408359	5030.47	0.002854	0.002258	3281.32	96726.5
1128	2.000000	1.114249	7.37609e+06	-56539.1	1055.82	-29738.7	0.000000	0.000000	7.115236	11.2	NaN	0.000000	0.001590	0.001663	28.0838	12.0701	0.001677	7197.67	6.654759	-177.477	10.5145	1.113945	0.006518	0.006214	11.2	7197.67	0.005351	0.004456	2513.7	98517.3
1128	2.000000	1.116752	7.37609e+06	-56539.1	1055.82	-29738.7	0.000000	0.000000	7.117883	14.6929	NaN	0.000000	0.001575	0.001677	28.0834	13.9284	0.001660	8389.1	4.812478	6.098487	14.0205	1.116384	0.009021	0.008652	14.6929	8389.1	0.007707	0.006743	2179.09	93340.8
1128	2.000000	1.119172	7.37609e+06	-56539.1	1055.82	-29738.7	0.000000	0.000000	7.120485	19.1247	NaN	0.000000	0.001565	0.001690	28.0838	17.0445	0.001836	9283.19	4.583974	-174.804	18.0438	1.118879	0.011441	0.011148	19.1247	9283.19	0.009896	0.009066	2109.56	89077.9
1128	2.000000	1.121690	7.37609e+06	-56539.1	1055.82	-29738.7	0.000000	0.000000	7.123142	22.4921	NaN	0.000000	0.001537	0.001718	28.0836	19.1925	0.001784	10758.3	3.488499	5.298392	21.9076	1.121332	0.013959	0.013601	22.4921	10758.3	0.012391	0.011962	1880.36	89871.5
1128	2.000000	1.124150	7.37609e+06	-56539.1	1055.82	-29738.7	0.000000	0.000000	7.125722	25.4133	NaN	0.000000	0.001572	0.001694	28.0837	21.9953	0.001886	11659.8	7.378134	-179.057	24.6701	1.123927	0.016418	0.016196	25.4133	11659.8	0.014784	0.014998	1694.44	86986
1128	2.000000	1.126661	7.37609e+06	-56539.1	1055.82	-29738.7	0.000000	0.000000	7.128563	33.4258	NaN	0.000000	0.001593	0.001678	28.0834	24.0585	0.001810	13293.1	7.452388	-1.962409	31.3937	1.126247	0.018930	0.018516	33.4258	13293.1	0.017044	0.018109	1845.81	90251.1
1128	2.000000	1.129157	7.37609e+06	-56539.1	1055.82	-29738.7	0.000000	0.000000	7.131181	36.3961	NaN	0.000000	0.001580	0.001699	28.0837	26.2286	0.001756	14936.2	6.703474	177.274	35.4504	1.128869	0.021426	0.021138	36.3961	14936.2	0.019598	0.021915	1660.78	92181.1
1128	2.000000	1.131647	7.37609e+06	-56539.1	1055.82	-29738.7	0.000000	0.000000	7.134058	45.7941	NaN	0.000000	0.001549	0.001708	28.0838	28.4329	0.001856	15320.1	6.639111	-1.182126	44.1763	1.131172	0.023916	0.023441	45.7941	15320.1	0.021674	0.025241	1814.24	88100.4
1128	2.000000	1.134119	7.37609e+06	-56539.1	1055.82	-29738.7	0.000000	0.000000	7.136712	50.2354	NaN	0.000000	0.001600	0.001712	28.0838	31.0215	0.001781	17419	4.642676	178.364	48.0383	1.133819	0.026388	0.026088	50.2354	17419	0.024225	0.029621	1695.96	92469.7
1128	2.000000	1.136683	7.37609e+06	-56539.1	1055.82	-29738.7	0.000000	0.000000	7.139645	59.2025	NaN	0.000000	0.001604	0.001681	28.0843	32.756	0.001646	19895.5	2.360773	0.147212	57.0747	1.136302	0.028951	0.028571	59.2025	19895.5	0.026720	0.034219	1730.13	98264.7
1128	2.000000	1.139154	7.37609e+06	-56539.1	1055.82	-29738.7	0.000000	0.000000	7.142452	67.3673	NaN	0.000000	0.001542	0.001696	28.0851	35.8954	0.001824	19681.5	8.005223	175.571	68.4723	1.138771	0.031423	0.031040	67.3673	19681.5	0.028855	0.038405	1754.13	91756.5
1128	2.000000	1.141629	7.37609e+06	-56539.1	1055.82	-29738.7	0.000000	0.000000	7.145327	77.084	NaN	0.000000	0.001547	0.001699	28.0846	37.7409	0.001766	21375.4	-1.777151	3.539242	75.558	1.141286	0.033898	0.033555	77.084	21375.4	0.031193	0.043253	1782.16	93902.8
1128	2.000000	1.144147	7.37609e+06	-56539.1	1055.82	-29738.7	0.000000	0.000000	7.148097	83.2124	NaN	0.000000	0.001593	0.001695	28.086	41.2021	0.001791	23005.5	2.639687	178.877	82.657	1.143799	0.036416	0.036068	83.2124	23005.5	0.033703	0.048770	1706.24	95176.6
1128	2.000000	1.146682	7.37609e+06	-56539.1	1055.82	-29738.7	0.000000	0.000000	7.151183	96.595	NaN	0.000000	0.001603	0.001670	28.0845	42.7454	0.001756	24337.4	5.835919	-4.444663	96.3934	1.146303	0.038951	0.038572	96.595	24337.4	0.035974	0.054039	1787.51	95652.2
1128	2.000000	1.149140	7.37609e+06	-56539.1	1055.82	-29738.7	0.000000	0.000000	7.153917	103.319	NaN	0.000000	0.001604	0.001655	28.0849	45.409	0.001728	26273.3	6.109559	173.913	102.833	1.148692	0.041409	0.040960	103.319	26273.3	0.038460	0.060108	1718.88	97908.6
1128	2.000000	1.151591	7.37609e+06	-56539.1	1055.82	-29738.7	0.000000	0.000000	7.156673	110.725	NaN	0.000000	0.001596	0.001698	28.0845	49.4009	0.001778	27780.8	6.307350	-6.592184	108.624	1.151297	0.043860	0.043566	110.725	27780.8	0.040871	0.066298	1670.12	98575.5
1128	2.000000	1.154083	7.37609e+06	-56539.1	1055.82	-29738.7	0.000000	0.000000	7.159698	123.693	NaN	0.000000	0.001590	0.001670	28.0847	51.882	0.001813	28611.5	5.394897	174.473	123.069	1.153711	0.046352	0.045980	123.693	28611.5	0.043109	0.072310	1710.58	97210.5
1128	2.000000	1.156590	7.37609e+06	-56539.1	1055.82	-29738.7	0.000000	0.000000	7.162761	137.195	NaN	0.000000	0.001564	0.001704	28.0844	53.7932	0.001742	30883.1	9.624985	-10.2275	134.522	1.156226	0.048859	0.048495	137.195	30883.1	0.045527	0.079091	1734.65	100330
1128	2.000000	1.159084	7.37609e+06	-56539.1	1055.82	-29738.7	0.000000	0.000000	7.165786	150.096	NaN	0.000000	0.001556	0.001685	28.0855	55.7829	0.001787	31218.3	8.132071	171.916	148.337	1.158705	0.051353	0.050974	150.096	31218.3	0.047747	0.085577	1753.93	97499.8
1128	2.000000	1.161620	7.37609e+06	-56539.1	1055.82	-29738.7	0.000000	0.000000	7.168766	160.896	NaN	0.000000	0.001538	0.001705	28.0846	58.0987	0.001929	30113	5.828289	-5.306640	160.408	1.161212	0.053889	0.053481	160.896	30113	0.049881	0.092047	1747.98	90682.6
1128	2.000000	1.164141	7.37609e+06	-56539.1	1055.82	-29738.7	0.000000	0.000000	7.171801	173.383	NaN	0.000000	0.001582	0.001699	28.0848	60.3919	0.001868	32327.1	6.526398	173.032	174.131	1.163775	0.056410	0.056043	173.383	32327.1	0.052388	0.099935	1734.95	93428.6
1128	2.000000	1.166611	7.37609e+06	-56539.1	1055.82	-29738.7	0.000000	0.000000	7.174962	190.181	NaN	0.000000	0.001551	0.001695	28.0845	61.909	0.001764	35094.7	7.808229	-8.241085	188.722	1.166256	0.058880	0.058525	190.181	35094.7	0.054816	0.107878	1762.93	97622.3
1128	2.000000	1.169143	7.37609e+06	-56539.1	1055.82	-29738.7	0.000000	0.000000	7.177816	197.997	NaN	0.000000	0.001583	0.001702	28.0851	64.4957	0.001709	37728.2	6.978684	170.649	200.232	1.168803	0.061412	0.061072	197.997	37728.2	0.057476	0.116914	1693.53	100810
1128	2.000000	1.171572	7.37609e+06	-56539.1	1055.82	-29738.7	0.000000	0.000000	7.181054	217.663	NaN	0.000000	0.001582	0.001661	28.0832	68.5409	0.001823	37599.9	5.021254	-7.433246	214.418	1.171142	0.063841	0.063411	217.663	37599.9	0.059499	0.124019	1755.09	97547.5
1128	2.000000	1.174087	7.37609e+06	-56539.1	1055.82	-29738.7	0.000000	0.000000	7.184039	229.081	NaN	0.000000	0.001601	0.001685	28.0833	70.4405	0.001709	41226.3	5.150171	171.897	226.477	1.173779	0.066356	0.066048	229.081	41226.3	0.062189	0.133773	1712.45	102982
1128	2.000000	1.176612	7.37609e+06	-56539.1	1055.82	-29738.7	0.000000	0.000000	7.187334	247.827	NaN	0.000000	0.001611	0.001668	28.0833	71.4873	0.001769	40414.2	3.191300	-5.169508	244.341	1.176194	0.068881	0.068463	247.827	40414.2	0.064282	0.141607	1750.1	98121.6
1128	2.000000	1.179032	7.37609e+06	-56539.1	1055.82	-29738.7	0.000000	0.000000	7.190245	259.743	NaN	0.000000	0.001612	0.001678	28.0837	75.1493	0.001738	43229.7	7.878358	169.115	257.126	1.178742	0.071301	0.071011	259.743	43229.7	0.066795	0.151294	1716.81	101542
1128	2.000000	1.181569	7.37609e+06	-56539.1	1055.82	-29738.7	0.000000	0.000000	7.193130	268.192	NaN	0.000000	0.001578	0.001692	28.0834	77.8255	0.001732	44942.2	6.396206	-10.1497	265.17	1.181299	0.073838	0.073567	268.192	44942.2	0.069363	0.161504	1660.59	102173
1128	2.000000	1.184108	7.37609e+06	-56539.1	1055.82	-29738.7	0.000000	0.000000	7.196510	288.651	NaN	0.000000	0.001573	0.001642	28.0832	80.6958	0.001816	44433.3	5.555901	171.64	289.056	1.183714	0.076376	0.075983	288.651	44433.3	0.071504	0.170261	1695.34	98384
1128	2.000000	1.186635	7.37609e+06	-56539.1	1055.82	-29738.7	0.000000	0.000000	7.199609	302.548	NaN	0.000000	0.001588	0.001704	28.0832	82.7649	0.001769	46795.9	7.547301	-11.4792	302.431	1.186331	0.078904	0.078600	302.548	46795.9	0.074055	0.180973	1671.78	100502
1128	2.000000	1.189037	7.37609e+06	-56539.1	1055.82	-29738.7	0.000000	0.000000	7.202966	325.763	NaN	0.000000	0.001594	0.001691	28.0832	83.87	0.001862	45038.8	2.949062	173.789	323.087	1.188822	0.081306	0.081091	325.763	45038.8	0.075881	0.188830	1725.16	94694.5
1128	2.000000	1.191543	7.37609e+06	-56539.1	1055.82	-29738.7	0.000000	0.000000	7.206245	344.544	NaN	0.000000	0.001596	0.001672	28.0829	87.8768	0.001868	47039.5	8.516357	-12.1163	340.033	1.191130	0.083812	0.083399	344.544	47039.5	0.078319	0.199563	1726.49	96204.6
1128	2.000000	1.194108	7.37609e+06	-56539.1	1055.82	-29738.7	0.000000	0.000000	7.209467	360.508	NaN	0.000000	0.001592	0.001694	28.083	89.0199	0.001750	50864.3	1.170933	174.707	361.973	1.193764	0.086377	0.086032	360.508	50864.3	0.081061	0.211972	1700.73	100936
1128	2.000000	1.196578	7.37609e+06	-56539.1	1055.82	-29738.7	0.000000	0.000000	7.212726	379.689	NaN	0.000000	0.001566	0.001691	28.0835	90.5398	0.001779	50893.3	1.323285	-5.782229	376.84	1.196245	0.088847	0.088514	379.689	50893.3	0.083252	0.222132	1709.3	98657.2
1128	2.000000	1.198963	7.37609e+06	-56539.1	1055.82	-29738.7	0.000000	0.000000	7.215785	396.08	NaN	0.000000	0.001537	0.001692	28.0833	92.4366	0.001780	51922.9	4.746725	171.16	390.691	1.198639	0.091232	0.090908	396.08	51922.9	0.085511	0.232846	1701.04	98310.1
1128	2.000000	1.201566	7.37609e+06	-56539.1	1055.82	-29738.7	0.000000	0.000000	7.219056	412.317	NaN	0.000000	0.001528	0.001648	28.0832	96.0949	0.001761	54574.8	4.442442	-9.131451	410.908	1.201195	0.093835	0.093464	412.317	54574.8	0.088169	0.245749	1677.8	100582
1128	2.000000	1.204166	7.37609e+06	-56539.1	1055.82	-29738.7	0.000000	0.000000	7.222329	428.685	NaN	0.000000	0.001576	0.001702	28.0832	99.5599	0.001747	56995.6	5.728892	169.078	434.316	1.203704	0.096435	0.095973	428.685	56995.6	0.090794	0.258814	1656.35	102358
1128	2.000000	1.206410	7.37609e+06	-56539.1	1055.82	-29738.7	0.000000	0.000000	7.225569	452.881	NaN	0.000000	0.001541	0.001676	28.0847	100.41	0.001712	58638.3	5.214705	-10.4271	441.636	1.206098	0.098679	0.098367	452.881	58638.3	0.092887	0.269455	1680.73	103208
1128	2.000000	1.208952	7.37609e+06	-56539.1	1055.82	-29738.7	0.000000	0.000000	7.229188	479.059	NaN	0.000000	0.001496	0.001672	28.0844	102.453	0.001733	59115.1	2.812792	171.969	472.9	1.208657	0.101221	0.100926	479.059	59115.1	0.095143	0.281152	1703.92	101859
1128	2.000000	1.210168	7.37609e+06	-56539.1	1055.82	-29738.7	0.000000	0.000000	7.230293	476.359	NaN	0.000000	0.001546	0.001674	28.0846	105.262	0.001811	58137.4	8.115064	166.88	481.97	1.209814	0.102437	0.102083	476.359	58137.4	0.096292	0.287198	1658.65	99114.8