File: remote_trans/data/nanoindenter/0828-1/data/Data_2025-08-06,11h17m57s/2025-07-22_16-23-58_1_107.txt
2025-07-22, 16:23:58, 1
Index	Phase	Displacement	Time	Pos X	Pos Y	Pos Z	Rot A	Rot B	Piezo Z	Force A	Force B	Gripper	Voltage A	Voltage B	Temperature	Amplitude force	Amplitude pos	Stiffness	Phase shift	Phase excitation	Force A raw	Displacement raw	HMax	HMax raw	Real Force	Real Stiffness	Contact Depth	Area	Hardness	Reduced Mod.
[#]	[#]	[um]	[s]	[um]	[um]	[um]	[m°]	[m°]	[um]	[uN]	[uN]	[V]	[V]	[V]	[°C]	[uN]	[um]	[N/m]	[°]	[°]	[uN]	[um]	[um]	[um]	[uN]	[N/m]	[um]	[um^2]	[MPa]	[MPa]
107	1.000000	0.002622	7.36609e+06	-43989.1	955.818	-29777.7	0.000000	0.000000	6.002816	0.031493	NaN	0.000000	0.001703	0.001768	28.1206	0.051356	0.000995	51.6306	52.4091	-165.673	-0.042872	0.001355	-1.126502	-1.127769	0.031493	51.6306	-1.126959	-1.153013E+15	-2.731403E-17	NaN
107	1.000000	0.012659	7.36609e+06	-43989.1	955.817	-29777.7	0.000000	0.000000	6.012851	0.008687	NaN	0.000000	0.001690	0.001768	28.1194	0.033973	0.001230	27.6234	91.5871	14.5831	0.083724	0.011242	-1.116465	-1.117882	0.008687	27.6234	-1.116701	-8.398647E+14	-1.034346E-17	NaN
107	1.000000	0.022563	7.36609e+06	-43989.1	955.819	-29777.7	0.000000	0.000000	6.022754	-0.028955	NaN	0.000000	0.001698	0.001704	28.0851	0.033422	0.001777	18.8118	-143.715	-169.971	-0.101427	0.021285	-1.106561	-1.107839	-0.028955	18.8118	-1.105407	-5.924335E+14	4.887435E-17	NaN
107	1.000000	0.032547	7.36609e+06	-43989.1	955.819	-29777.7	0.000000	0.000000	6.032736	-0.070659	NaN	0.000000	0.001701	0.001754	28.0841	0.054110	0.001879	28.7952	-167.746	13.0756	-0.077977	0.031179	-1.096577	-1.097945	-0.070659	28.7952	-1.094736	-4.259957E+14	1.658688E-16	NaN
107	1.000000	0.042560	7.36609e+06	-43989.1	955.818	-29777.7	0.000000	0.000000	6.042753	0.027255	NaN	0.000000	0.001651	0.001758	28.1217	0.131315	0.002122	61.8747	58.4475	-168.874	0.049355	0.041271	-1.086564	-1.087853	0.027255	61.8747	-1.086894	-3.342787E+14	-8.153484E-17	NaN
107	1.000000	0.052535	7.36609e+06	-43989.1	955.818	-29777.7	0.000000	0.000000	6.052727	-0.016086	NaN	0.000000	0.001651	0.001769	28.1205	0.062034	0.001988	31.1968	75.6806	12.6355	-0.040313	0.051201	-1.076589	-1.077923	-0.016086	31.1968	-1.076202	-2.401620E+14	6.698106E-17	NaN
107	1.000000	0.062585	7.36609e+06	-43989.1	955.818	-29777.7	0.000000	0.000000	6.062776	-0.017251	NaN	0.000000	0.001649	0.001730	28.0829	0.055135	0.001928	28.5916	29.1167	-168.663	-0.050847	0.061296	-1.066539	-1.067828	-0.017251	28.5916	-1.066087	-1.756365E+14	9.821954E-17	NaN
107	1.000000	0.072563	7.36609e+06	-43989.1	955.817	-29777.7	0.000000	0.000000	6.072755	0.015297	NaN	0.000000	0.001636	0.001738	28.084	0.068147	0.002026	33.6355	-96.2402	14.837	-0.024319	0.071235	-1.056561	-1.057889	0.015297	33.6355	-1.056902	-1.321878E+14	-1.157196E-16	NaN
107	1.000000	0.082558	7.36609e+06	-43989.1	955.818	-29777.7	0.000000	0.000000	6.082750	0.011353	NaN	0.000000	0.001619	0.001726	28.1207	0.030706	0.001841	16.678	-117.575	-166.063	0.023762	0.081216	-1.046567	-1.047908	0.011353	16.678	-1.047077	-9.752589E+13	-1.164074E-16	NaN
107	1.000000	0.092554	7.36609e+06	-43989.1	955.818	-29777.7	0.000000	0.000000	6.092745	-0.017825	NaN	0.000000	0.001634	0.001708	28.1199	0.034074	0.001903	17.909	-78.7565	10.9088	-0.033587	0.091185	-1.036571	-1.037939	-0.017825	17.909	-1.035824	-6.883540E+13	2.589475E-16	NaN
107	1.000000	0.102590	7.36609e+06	-43989.1	955.818	-29777.7	0.000000	0.000000	6.102783	0.013756	NaN	0.000000	0.001622	0.001739	28.0858	0.030076	0.002003	15.0148	-54.3747	-162.47	-0.004464	0.101264	-1.026534	-1.027860	0.013756	15.0148	-1.027221	-5.273558E+13	-2.608413E-16	NaN
107	1.000000	0.112600	7.36609e+06	-43989.1	955.819	-29777.7	0.000000	0.000000	6.112792	0.004929	NaN	0.000000	0.001647	0.001719	28.0867	0.057154	0.001970	29.0187	15.7019	15.9219	0.031647	0.111179	-1.016525	-1.017945	0.004929	29.0187	-1.016652	-3.801032E+13	-1.296625E-16	NaN
107	1.000000	0.122594	7.36609e+06	-43989.1	955.818	-29777.7	0.000000	0.000000	6.122784	-0.064171	NaN	0.000000	0.001598	0.001730	28.1218	0.072997	0.002000	36.4994	116.826	-167.959	-0.071666	0.121235	-1.006530	-1.007889	-0.064171	36.4994	-1.005211	-2.666386E+13	2.406675E-15	NaN
107	1.000000	0.132571	7.36609e+06	-43989.1	955.818	-29777.7	0.000000	0.000000	6.132764	0.022127	NaN	0.000000	0.001618	0.001737	28.1229	0.122322	0.002078	58.8701	-177.937	16.1574	0.054356	0.131240	-0.996553	-0.997884	0.022127	58.8701	-0.996835	-2.056627E+13	-1.075891E-15	NaN
107	1.000000	0.142612	7.36609e+06	-43989.1	955.818	-29777.7	0.000000	0.000000	6.142804	0.006399	NaN	0.000000	0.001602	0.001753	28.0845	0.059398	0.001940	30.6155	-81.8257	-167.114	-0.044767	0.141311	-0.986512	-0.987813	0.006399	30.6155	-0.986669	-1.500542E+13	-4.264461E-16	NaN
107	1.000000	0.152607	7.36609e+06	-43989.1	955.818	-29777.7	0.000000	0.000000	6.152800	0.021986	NaN	0.000000	0.001607	0.001735	28.0856	0.053412	0.002119	25.2063	-168.868	13.9359	0.042273	0.151228	-0.976517	-0.977896	0.021986	25.2063	-0.977171	-1.117638E+13	-1.967142E-15	NaN
107	1.000000	0.162601	7.36609e+06	-43989.1	955.817	-29777.7	0.000000	0.000000	6.162793	0.000218	NaN	0.000000	0.001669	0.001730	28.122	0.061148	0.001893	32.3045	102.988	-169.676	-0.043836	0.161331	-0.966523	-0.967793	0.000218	32.3045	-0.966528	-8.032848E+12	-2.715231E-17	NaN
107	1.000000	0.172618	7.36609e+06	-43989.1	955.818	-29777.7	0.000000	0.000000	6.172810	-0.003482	NaN	0.000000	0.001627	0.001730	28.1211	0.214474	0.001980	108.347	-48.8426	13.2147	0.022934	0.171225	-0.956506	-0.957899	-0.003482	108.347	-0.956482	-5.880769E+12	5.920539E-16	NaN
107	1.000000	0.182592	7.36609e+06	-43989.1	955.818	-29777.7	0.000000	0.000000	6.182783	-0.044527	NaN	0.000000	0.001685	0.001757	28.0855	0.077211	0.001860	41.5168	-100.452	-162.491	0.026741	0.181333	-0.946532	-0.947791	-0.044527	41.5168	-0.945727	-4.211132E+12	1.057356E-14	NaN
107	1.000000	0.192618	7.36609e+06	-43989.1	955.818	-29777.7	0.000000	0.000000	6.192809	-0.028485	NaN	0.000000	0.001720	0.001738	28.0854	0.073563	0.001929	38.1282	174.312	14.7952	0.004481	0.191255	-0.936506	-0.937869	-0.028485	38.1282	-0.935946	-3.107662E+12	9.166176E-15	NaN
107	1.000000	0.202623	7.36609e+06	-43989.1	955.818	-29777.7	0.000000	0.000000	6.202817	0.058824	NaN	0.000000	0.001722	0.001734	28.1219	0.013865	0.002067	6.709159	42.1013	-165.563	0.058065	0.201302	-0.926501	-0.927822	0.058824	6.709159	-0.933077	-2.842662E+12	-2.069335E-14	NaN
107	1.000000	0.212618	7.36609e+06	-43989.1	955.818	-29777.7	0.000000	0.000000	6.212808	-0.055557	NaN	0.000000	0.001686	0.001766	28.1216	0.062949	0.002070	30.4066	-103.117	12.7953	-0.062944	0.211245	-0.916506	-0.917879	-0.055557	30.4066	-0.915136	-1.627508E+12	3.413654E-14	NaN
107	1.000000	0.222619	7.36609e+06	-43989.1	955.817	-29777.7	0.000000	0.000000	6.222810	-0.036361	NaN	0.000000	0.001660	0.001748	28.0848	0.091060	0.002084	43.6861	-10.8232	-165.068	-0.087358	0.221311	-0.906505	-0.907813	-0.036361	43.6861	-0.905881	-1.220441E+12	2.979297E-14	NaN
107	1.000000	0.232628	7.36609e+06	-43989.1	955.818	-29777.7	0.000000	0.000000	6.232818	-0.046398	NaN	0.000000	0.001680	0.001725	28.0844	0.079343	0.001975	40.1671	-159.206	14.6586	-0.000638	0.231280	-0.896497	-0.897844	-0.046398	40.1671	-0.895630	-8.871866E+11	5.229757E-14	NaN
107	1.000000	0.242644	7.36609e+06	-43989.1	955.818	-29777.7	0.000000	0.000000	6.242836	-0.000384	NaN	0.000000	0.001636	0.001744	28.1197	0.067968	0.001986	34.2319	-115.243	-160.864	-0.013426	0.241349	-0.886480	-0.887775	-0.000384	34.2319	-0.886472	-6.671440E+11	5.755548E-16	NaN
107	1.000000	0.252634	7.36609e+06	-43989.1	955.818	-29777.7	0.000000	0.000000	6.252825	-0.015035	NaN	0.000000	0.001620	0.001729	28.12	0.080776	0.001994	40.516	127.13	15.4987	-0.041438	0.251324	-0.876491	-0.877800	-0.015035	40.516	-0.876212	-4.847094E+11	3.101759E-14	NaN
107	1.000000	0.262639	7.36609e+06	-43989.1	955.817	-29777.7	0.000000	0.000000	6.262829	-0.054148	NaN	0.000000	0.001659	0.001714	28.0841	0.095706	0.001887	50.7201	-67.6062	-165.25	0.004257	0.261365	-0.866485	-0.867760	-0.054148	50.7201	-0.865684	-3.491778E+11	1.550735E-13	NaN
107	1.000000	0.272665	7.36609e+06	-43989.1	955.818	-29777.7	0.000000	0.000000	6.272858	0.027111	NaN	0.000000	0.001631	0.001769	28.084	0.063870	0.002004	31.8703	-114.644	11.5566	0.015102	0.271263	-0.856459	-0.857861	0.027111	31.8703	-0.857097	-2.671949E+11	-1.014640E-13	NaN
107	1.000000	0.282652	7.36609e+06	-43989.1	955.818	-29777.7	0.000000	0.000000	6.282844	-0.005075	NaN	0.000000	0.001608	0.001774	28.1203	0.034075	0.002018	16.8893	-46.764	-168.583	0.017954	0.281335	-0.846472	-0.847789	-0.005075	16.8893	-0.846247	-1.905072E+11	2.663763E-14	NaN
107	1.000000	0.292667	7.36609e+06	-43989.1	955.818	-29777.7	0.000000	0.000000	6.292858	-0.011203	NaN	0.000000	0.001609	0.001794	28.1213	0.074510	0.001941	38.3957	48.3357	12.3548	-0.021131	0.291257	-0.836457	-0.837867	-0.011203	38.3957	-0.836238	-1.394211E+11	8.035691E-14	NaN
107	1.000000	0.302689	7.36609e+06	-43989.1	955.819	-29777.7	0.000000	0.000000	6.302882	0.017121	NaN	0.000000	0.001642	0.001751	28.0839	0.043061	0.002013	21.3897	-147.373	-161.124	0.073282	0.301369	-0.826435	-0.827755	0.017121	21.3897	-0.827035	-1.046164E+11	-1.636562E-13	NaN
107	1.000000	0.312666	7.36609e+06	-43989.1	955.817	-29777.7	0.000000	0.000000	6.312860	0.031639	NaN	0.000000	0.001638	0.001729	28.0814	0.179483	0.001993	90.0759	-81.338	16.6724	0.056044	0.311335	-0.816458	-0.817789	0.031639	90.0759	-0.816721	-7.581352E+10	-4.173331E-13	NaN
107	1.000000	0.322680	7.36609e+06	-43989.1	955.818	-29777.7	0.000000	0.000000	6.322871	-0.009501	NaN	0.000000	0.001640	0.001705	28.1193	0.073211	0.001986	36.8625	77.5729	-166.789	-0.031397	0.321369	-0.806445	-0.807755	-0.009501	36.8625	-0.806251	-5.466446E+10	1.738020E-13	NaN
107	1.000000	0.332688	7.36609e+06	-43989.1	955.819	-29777.7	0.000000	0.000000	6.332878	-0.040094	NaN	0.000000	0.001649	0.001708	28.1205	0.111299	0.002068	53.8305	116.584	12.3644	-0.030906	0.331268	-0.796437	-0.797857	-0.040094	53.8305	-0.795878	-3.952787E+10	1.014315E-12	NaN
107	1.000000	0.342687	7.36609e+06	-43989.1	955.818	-29777.7	0.000000	0.000000	6.342877	-0.045581	NaN	0.000000	0.001661	0.001729	28.0843	0.063820	0.002000	31.9096	155.757	-163.8	-0.027593	0.341371	-0.786437	-0.787753	-0.045581	31.9096	-0.785366	-2.845349E+10	1.601953E-12	NaN
107	1.000000	0.352698	7.36609e+06	-43989.1	955.818	-29777.7	0.000000	0.000000	6.352890	-0.018089	NaN	0.000000	0.001667	0.001729	28.084	0.097751	0.001977	49.4441	-90.5257	12.0223	-0.012869	0.351369	-0.776426	-0.777755	-0.018089	49.4441	-0.776151	-2.132698E+10	8.481933E-13	NaN
107	1.000000	0.362689	7.36609e+06	-43989.1	955.818	-29777.7	0.000000	0.000000	6.362884	0.066396	NaN	0.000000	0.001669	0.001672	28.12	0.134795	0.002024	66.6061	-168.276	-166.487	0.025859	0.361440	-0.766435	-0.767684	0.066396	66.6061	-0.767182	-1.610617E+10	-4.122415E-12	NaN
107	1.000000	0.372689	7.36609e+06	-43989.1	955.818	-29777.7	0.000000	0.000000	6.372881	-0.003618	NaN	0.000000	0.001650	0.001769	28.1222	0.014927	0.001979	7.543728	174.897	16.2394	-0.031477	0.371352	-0.756435	-0.757773	-0.003618	7.543728	-0.756075	-1.137382E+10	3.181077E-13	NaN
107	1.000000	0.382703	7.36609e+06	-43989.1	955.818	-29777.7	0.000000	0.000000	6.382894	-0.015453	NaN	0.000000	0.001639	0.001758	28.0853	0.021731	0.001930	11.2575	-163.32	-163.752	0.023620	0.381404	-0.746421	-0.747720	-0.015453	11.2575	-0.745392	-8.137281E+9	1.899067E-12	NaN
107	1.000000	0.392700	7.36609e+06	-43989.1	955.817	-29777.7	0.000000	0.000000	6.392893	0.007466	NaN	0.000000	0.001662	0.001702	28.0841	0.040236	0.002060	19.533	106.458	15.6062	-0.087943	0.391403	-0.736424	-0.737721	0.007466	19.533	-0.736710	-6.197931E+9	-1.204589E-12	NaN
107	1.000000	0.402698	7.36609e+06	-43989.1	955.818	-29777.7	0.000000	0.000000	6.402891	0.021015	NaN	0.000000	0.001676	0.001729	28.1199	0.063629	0.001927	33.0238	62.4765	-166.161	0.006899	0.401379	-0.726426	-0.727745	0.021015	33.0238	-0.726903	-4.556138E+9	-4.612390E-12	NaN
107	1.000000	0.412725	7.36609e+06	-43989.1	955.818	-29777.7	0.000000	0.000000	6.412918	0.019139	NaN	0.000000	0.001675	0.001714	28.1221	0.021306	0.002091	10.1897	179.126	12.0745	-0.027887	0.411388	-0.716399	-0.717736	0.019139	10.1897	-0.717808	-3.424342E+9	-5.589017E-12	NaN
107	1.000000	0.422727	7.36609e+06	-43989.1	955.818	-29777.7	0.000000	0.000000	6.422915	-0.101327	NaN	0.000000	0.001653	0.001717	28.086	0.135496	0.001907	71.0628	-172.384	-166.695	-0.052699	0.421406	-0.706397	-0.707718	-0.101327	71.0628	-0.705328	-2.313546E+9	4.379728E-11	NaN
107	1.000000	0.432709	7.36609e+06	-43989.1	955.818	-29777.7	0.000000	0.000000	6.432898	-0.076622	NaN	0.000000	0.001622	0.001702	28.085	0.161971	0.001964	82.4536	-74.026	13.881	-0.029695	0.431355	-0.696415	-0.697769	-0.076622	82.4536	-0.695718	-1.710194E+9	4.480329E-11	NaN
107	1.000000	0.442739	7.36609e+06	-43989.1	955.819	-29777.7	0.000000	0.000000	6.442928	-0.067868	NaN	0.000000	0.001595	0.001708	28.1203	0.078742	0.001977	39.8304	78.1016	-170.079	-0.018657	0.441468	-0.686385	-0.687656	-0.067868	39.8304	-0.685107	-1.224732E+9	5.541442E-11	NaN
107	1.000000	0.452724	7.36609e+06	-43989.1	955.818	-29777.7	0.000000	0.000000	6.452916	0.012799	NaN	0.000000	0.001627	0.001704	28.1229	0.052095	0.002019	25.7968	49.5528	14.2163	0.046175	0.451382	-0.676401	-0.677742	0.012799	25.7968	-0.676773	-9.420257E+8	-1.358701E-11	NaN
107	1.000000	0.462746	7.36609e+06	-43989.1	955.817	-29777.7	0.000000	0.000000	6.462935	-0.058537	NaN	0.000000	0.001661	0.001682	28.0835	0.039118	0.002018	19.3855	-71.4945	-163.618	-0.084305	0.461425	-0.666378	-0.667699	-0.058537	19.3855	-0.664114	-6.321323E+8	9.260188E-11	NaN
107	1.000000	0.472746	7.36609e+06	-43989.1	955.818	-29777.7	0.000000	0.000000	6.472935	-0.063972	NaN	0.000000	0.001675	0.001716	28.0846	0.036535	0.001915	19.0792	-172.002	14.1728	0.045936	0.471385	-0.656378	-0.657739	-0.063972	19.0792	-0.653864	-4.575035E+8	1.398279E-10	NaN
107	1.000000	0.482728	7.36609e+06	-43989.1	955.818	-29777.7	0.000000	0.000000	6.482920	-0.021843	NaN	0.000000	0.001688	0.001679	28.119	0.071440	0.002008	35.5841	114.55	-166.492	-0.064319	0.481447	-0.646396	-0.647677	-0.021843	35.5841	-0.645935	-3.562095E+8	6.132020E-11	NaN
107	1.000000	0.492735	7.36609e+06	-43989.1	955.818	-29777.7	0.000000	0.000000	6.492927	0.012633	NaN	0.000000	0.001652	0.001696	28.1218	0.058132	0.001991	29.194	109.456	17.2752	-0.033087	0.491401	-0.636390	-0.637723	0.012633	29.194	-0.636714	-2.661947E+8	-4.745672E-11	NaN
107	1.000000	0.502741	7.36609e+06	-43989.1	955.818	-29777.7	0.000000	0.000000	6.502935	0.060429	NaN	0.000000	0.001674	0.001713	28.0865	0.097298	0.001974	49.283	158.434	-167.935	0.035566	0.501433	-0.626383	-0.627691	0.060429	49.283	-0.627303	-1.976886E+8	-3.056771E-10	NaN
107	1.000000	0.512737	7.36609e+06	-43989.1	955.818	-29777.7	0.000000	0.000000	6.512927	-0.048027	NaN	0.000000	0.001649	0.001728	28.0833	0.129805	0.001940	66.9218	-38.5832	19.0293	-0.058011	0.511340	-0.616388	-0.617784	-0.048027	66.9218	-0.615849	-1.375843E+8	3.490737E-10	NaN
107	1.000000	0.522761	7.36609e+06	-43989.1	955.818	-29777.7	0.000000	0.000000	6.522952	-0.009245	NaN	0.000000	0.001653	0.001713	28.1193	0.150502	0.001972	76.323	1.347723	-167.013	-0.064802	0.521460	-0.606364	-0.607664	-0.009245	76.323	-0.606273	-1.015835E+8	9.101157E-11	NaN
107	1.000000	0.532764	7.36609e+06	-43989.1	955.818	-29777.7	0.000000	0.000000	6.532955	-0.027574	NaN	0.000000	0.001679	0.001717	28.1219	0.101566	0.001940	52.3454	104.876	12.2696	0.035092	0.531375	-0.596360	-0.597749	-0.027574	52.3454	-0.595965	-7.326257E+7	3.763771E-10	NaN
107	1.000000	0.542738	7.36609e+06	-43989.1	955.817	-29777.7	0.000000	0.000000	6.542927	-0.072448	NaN	0.000000	0.001677	0.001737	28.0841	0.051065	0.001944	26.2622	-80.7845	-163.37	-0.150556	0.541443	-0.586386	-0.587682	-0.072448	26.2622	-0.584317	-5.061730E+7	1.431291E-9	NaN
107	1.000000	0.552748	7.36609e+06	-43989.1	955.819	-29777.7	0.000000	0.000000	6.552941	0.019081	NaN	0.000000	0.001688	0.001701	28.0812	0.026693	0.001985	13.4472	-132.836	12.1862	0.003478	0.551417	-0.576376	-0.577707	0.019081	13.4472	-0.577440	-4.068084E+7	-4.690315E-10	NaN
107	1.000000	0.562794	7.36609e+06	-43989.1	955.817	-29777.7	0.000000	0.000000	6.562984	-0.042902	NaN	0.000000	0.001694	0.001678	28.1184	0.023042	0.001885	12.2217	-168.047	-163.319	0.010577	0.561481	-0.566330	-0.567643	-0.042902	12.2217	-0.563698	-2.627355E+7	1.632893E-9	NaN
107	1.000000	0.572782	7.36609e+06	-43989.1	955.817	-29777.7	0.000000	0.000000	6.572974	0.013869	NaN	0.000000	0.001693	0.001693	28.121	0.061173	0.001995	30.6671	8.416142	16.276	-0.056075	0.571443	-0.556342	-0.557681	0.013869	30.6671	-0.556681	-2.101171E+7	-6.600812E-10	NaN
107	1.000000	0.582807	7.36609e+06	-43989.1	955.818	-29777.7	0.000000	0.000000	6.582995	-0.084898	NaN	0.000000	0.001673	0.001704	28.0853	0.064615	0.002054	31.4515	82.183	-165.314	-0.037384	0.581459	-0.546318	-0.547665	-0.084898	31.4515	-0.544293	-1.415409E+7	5.998150E-9	NaN
107	1.000000	0.592792	7.36609e+06	-43989.1	955.818	-29777.7	0.000000	0.000000	6.592983	-0.027200	NaN	0.000000	0.001649	0.001703	28.0829	0.083575	0.002052	40.7328	90.9395	16.1594	-0.003261	0.591462	-0.536332	-0.537662	-0.027200	40.7328	-0.535831	-1.080243E+7	2.517973E-9	NaN
107	1.000000	0.602767	7.36609e+06	-43989.1	955.817	-29777.7	0.000000	0.000000	6.602957	-0.038871	NaN	0.000000	0.001674	0.001712	28.1187	0.115932	0.001879	61.6957	46.6138	-165.361	0.021085	0.601497	-0.526357	-0.527628	-0.038871	61.6957	-0.525885	-7.85973e+06	4.945625E-9	NaN
107	1.000000	0.612817	7.36609e+06	-43989.1	955.819	-29777.7	0.000000	0.000000	6.613009	0.006742	NaN	0.000000	0.001675	0.001692	28.1226	0.089792	0.002028	44.2759	-165.075	11.1324	-0.007009	0.611462	-0.516307	-0.517662	0.006742	44.2759	-0.516421	-5.80517e+06	-1.161409E-9	NaN
107	1.000000	0.622813	7.36609e+06	-43989.1	955.819	-29777.7	0.000000	0.000000	6.623003	-0.035328	NaN	0.000000	0.001653	0.001700	28.0841	0.085964	0.002075	41.4346	-175.529	-167.748	0.071401	0.621527	-0.506311	-0.507597	-0.035328	41.4346	-0.505672	-4.11255e+06	8.590269E-9	NaN
107	1.000000	0.632826	7.36609e+06	-43989.1	955.818	-29777.7	0.000000	0.000000	6.633018	-0.009636	NaN	0.000000	0.001671	0.001679	28.0821	0.026965	0.002084	12.9419	-168.674	13.5308	-0.019703	0.631448	-0.496298	-0.497676	-0.009636	12.9419	-0.495740	-2.98924e+06	3.223535E-9	NaN
107	1.000000	0.642830	7.36609e+06	-43989.1	955.817	-29777.7	0.000000	0.000000	6.643020	-0.040964	NaN	0.000000	0.001686	0.001720	28.117	0.084013	0.001928	43.5704	-32.7544	-167.71	-0.004196	0.641504	-0.486295	-0.487620	-0.040964	43.5704	-0.485589	-2.15642e+06	1.899612E-8	NaN
107	1.000000	0.652856	7.36609e+06	-43989.1	955.818	-29777.7	0.000000	0.000000	6.653048	0.016482	NaN	0.000000	0.001666	0.001742	28.1235	0.065040	0.001955	33.2618	-164.985	12.6012	0.013664	0.651457	-0.476269	-0.477667	0.016482	33.2618	-0.476640	-1.61614e+06	-1.019860E-8	NaN
107	1.000000	0.662795	7.36609e+06	-43989.1	955.817	-29777.7	0.000000	0.000000	6.662986	-0.026730	NaN	0.000000	0.001670	0.001682	28.0848	0.091945	0.001948	47.2077	-82.2268	-165.095	-0.004161	0.661516	-0.466329	-0.467608	-0.026730	47.2077	-0.465904	-1.14271e+06	2.339140E-8	NaN
107	1.000000	0.672791	7.36609e+06	-43989.1	955.818	-29777.7	0.000000	0.000000	6.672982	-0.021205	NaN	0.000000	0.001699	0.001738	28.085	0.034603	0.002009	17.2258	-31.654	16.6142	-0.085836	0.671454	-0.456333	-0.457670	-0.021205	17.2258	-0.455410	-813744	2.605851E-8	NaN
107	1.000000	0.682841	7.36609e+06	-43989.1	955.819	-29777.7	0.000000	0.000000	6.683034	0.026477	NaN	0.000000	0.001697	0.001696	28.1198	0.042357	0.002099	20.1776	177.565	-167.369	0.011768	0.681479	-0.446283	-0.447645	0.026477	20.1776	-0.447267	-624950	-4.236652E-8	NaN
107	1.000000	0.692824	7.36609e+06	-43989.1	955.818	-29777.7	0.000000	0.000000	6.693019	0.059679	NaN	0.000000	0.001664	0.001723	28.1243	0.044710	0.001973	22.661	-113.548	14.848	0.028414	0.691501	-0.436300	-0.437623	0.059679	22.661	-0.438275	-466673	-1.278824E-7	NaN
107	1.000000	0.702838	7.36609e+06	-43989.1	955.817	-29777.7	0.000000	0.000000	6.703028	-0.036458	NaN	0.000000	0.001679	0.001722	28.0856	0.097642	0.001964	49.7266	-47.0467	-166.464	0.075877	0.701535	-0.426286	-0.427589	-0.036458	49.7266	-0.425737	-310252	1.175108E-7	NaN
107	1.000000	0.712854	7.36609e+06	-43989.1	955.818	-29777.7	0.000000	0.000000	6.713045	-0.025165	NaN	0.000000	0.001653	0.001735	28.084	0.064980	0.002036	31.9172	38.0908	13.9357	-0.001774	0.711453	-0.416270	-0.417671	-0.025165	31.9172	-0.415679	-223404	1.126459E-7	NaN
107	1.000000	0.722849	7.36609e+06	-43989.1	955.819	-29777.7	0.000000	0.000000	6.723041	-0.009501	NaN	0.000000	0.001681	0.001730	28.1184	0.106278	0.002164	49.1066	177.527	-164.628	-0.011150	0.721542	-0.406275	-0.407582	-0.009501	49.1066	-0.406130	-163431	5.813154E-8	NaN
107	1.000000	0.732843	7.36609e+06	-43989.1	955.818	-29777.7	0.000000	0.000000	6.733034	-0.012232	NaN	0.000000	0.001653	0.001752	28.1232	0.079723	0.002002	39.8295	57.5503	14.0488	-0.028671	0.731471	-0.396281	-0.397653	-0.012232	39.8295	-0.396051	-117394	1.041963E-7	NaN
107	1.000000	0.742845	7.36609e+06	-43989.1	955.817	-29777.7	0.000000	0.000000	6.743037	0.002327	NaN	0.000000	0.001681	0.001775	28.0872	0.061361	0.001900	32.2959	-64.0879	-167.113	0.018867	0.741583	-0.386279	-0.387541	0.002327	32.2959	-0.386333	-85247.4	-2.729890E-8	NaN
107	1.000000	0.752869	7.36609e+06	-43989.1	955.817	-29777.7	0.000000	0.000000	6.753057	-0.098911	NaN	0.000000	0.001645	0.001709	28.0841	0.063611	0.002091	30.4274	87.6033	11.9931	-0.174587	0.751497	-0.376255	-0.377627	-0.098911	30.4274	-0.373817	-56371	1.754647E-6	NaN
107	1.000000	0.762873	7.36609e+06	-43989.1	955.818	-29777.7	0.000000	0.000000	6.763067	0.042587	NaN	0.000000	0.001668	0.001716	28.1186	0.078590	0.001878	41.8569	-12.4121	-165.03	-0.029213	0.761558	-0.366251	-0.367566	0.042587	41.8569	-0.367014	-44988.3	-9.466247E-7	NaN
107	1.000000	0.772849	7.36609e+06	-43989.1	955.817	-29777.7	0.000000	0.000000	6.773037	-0.104611	NaN	0.000000	0.001637	0.001737	28.124	0.065451	0.001853	35.3218	-62.0807	13.7976	-0.064224	0.771535	-0.356275	-0.357589	-0.104611	35.3218	-0.354054	-29227.3	3.579224E-6	NaN
107	1.000000	0.782843	7.36609e+06	-43989.1	955.818	-29777.7	0.000000	0.000000	6.783034	-0.037037	NaN	0.000000	0.001636	0.001763	28.0843	0.053254	0.001993	26.7179	9.675842	-166.868	-0.060770	0.781579	-0.346281	-0.347545	-0.037037	26.7179	-0.345241	-21770.4	1.701254E-6	NaN
107	1.000000	0.792848	7.36609e+06	-43989.1	955.818	-29777.7	0.000000	0.000000	6.793042	0.033751	NaN	0.000000	0.001661	0.001764	28.0824	0.117876	0.002133	55.2698	52.1097	16.0783	0.044682	0.791495	-0.336276	-0.337629	0.033751	55.2698	-0.336734	-16364.8	-2.062403E-6	NaN
107	1.000000	0.802866	7.36609e+06	-43989.1	955.819	-29777.7	0.000000	0.000000	6.803058	-0.002552	NaN	0.000000	0.001636	0.001717	28.1169	0.039744	0.001908	20.828	169.311	-166.049	0.004504	0.801565	-0.326259	-0.327559	-0.002552	20.828	-0.326167	-11462	2.226413E-7	NaN
107	1.000000	0.812872	7.36609e+06	-43989.1	955.818	-29777.7	0.000000	0.000000	6.813063	-0.025829	NaN	0.000000	0.001668	0.001758	28.1222	0.070309	0.001947	36.1131	154.71	14.3383	0.018248	0.811506	-0.316252	-0.317618	-0.025829	36.1131	-0.315715	-8044.54	3.210714E-6	NaN
107	1.000000	0.822888	7.36609e+06	-43989.1	955.818	-29777.7	0.000000	0.000000	6.823079	-0.011553	NaN	0.000000	0.001662	0.001762	28.0852	0.041326	0.001960	21.0836	66.0136	-163.572	-0.084769	0.821617	-0.306236	-0.307508	-0.011553	21.0836	-0.305825	-5743.86	2.011332E-6	NaN
107	1.000000	0.832911	7.36609e+06	-43989.1	955.818	-29777.7	0.000000	0.000000	6.833104	0.023256	NaN	0.000000	0.001636	0.001752	28.0822	0.086458	0.001979	43.6771	-115.768	10.9827	0.057119	0.831498	-0.296214	-0.297626	0.023256	43.6771	-0.296613	-4189.49	-5.550931E-6	NaN
107	1.000000	0.842876	7.36609e+06	-43989.1	955.818	-29777.7	0.000000	0.000000	6.843066	-0.057547	NaN	0.000000	0.001648	0.001707	28.1182	0.103328	0.001974	52.3489	-90.6985	-165.905	0.010336	0.841585	-0.286248	-0.287540	-0.057547	52.3489	-0.285424	-2848.62	2.020173E-5	NaN
107	1.000000	0.852895	7.36609e+06	-43989.1	955.819	-29777.7	0.000000	0.000000	6.853087	-0.012441	NaN	0.000000	0.001661	0.001753	28.1235	0.042148	0.001974	21.3565	-134.355	18.6335	0.009871	0.851573	-0.276229	-0.277551	-0.012441	21.3565	-0.275792	-2038.85	6.101745E-6	NaN
107	1.000000	0.862894	7.36609e+06	-43989.1	955.818	-29777.7	0.000000	0.000000	6.863082	-0.075956	NaN	0.000000	0.001681	0.001708	28.0849	0.145503	0.001919	75.8302	47.5807	-168.176	-0.090458	0.861600	-0.266231	-0.267524	-0.075956	75.8302	-0.265479	-1421.36	5.343941E-5	NaN
107	1.000000	0.872925	7.36609e+06	-43989.1	955.818	-29777.7	0.000000	0.000000	6.873114	-0.071286	NaN	0.000000	0.001583	0.001795	28.082	0.019863	0.002012	9.871622	150.538	13.0099	0.046974	0.871524	-0.256199	-0.257600	-0.071286	9.871622	-0.250783	-845.425	8.432014E-5	NaN
107	1.000000	0.882878	7.36609e+06	-43989.1	955.818	-29777.7	0.000000	0.000000	6.883068	-0.054964	NaN	0.000000	0.001566	0.001739	28.1166	0.122669	0.001752	70.013	-79.5085	-164.777	-0.012737	0.881652	-0.246246	-0.247472	-0.054964	70.013	-0.245657	-704.143	7.805802E-5	NaN
107	1.000000	0.892923	7.36609e+06	-43989.1	955.818	-29777.7	0.000000	0.000000	6.893113	-0.050431	NaN	0.000000	0.001564	0.001723	28.1226	0.038990	0.001939	20.1046	-103.83	10.5087	-0.035920	0.891552	-0.236201	-0.237572	-0.050431	20.1046	-0.234320	-468.338	0.000108	NaN
107	1.000000	0.902920	7.36609e+06	-43989.1	955.818	-29777.7	0.000000	0.000000	6.903112	0.002804	NaN	0.000000	0.001582	0.001695	28.0858	0.089546	0.002090	42.8428	165.627	-167.18	-0.097945	0.901609	-0.226204	-0.227515	0.002804	42.8428	-0.226253	-349.318	-8.026232E-6	NaN
107	1.000000	0.912948	7.36609e+06	-43989.1	955.818	-29777.7	0.000000	0.000000	6.913139	-0.014592	NaN	0.000000	0.001553	0.001727	28.0827	0.045183	0.001950	23.1673	117.182	9.867219	-0.019898	0.911549	-0.216176	-0.217575	-0.014592	23.1673	-0.215704	-237.047	6.155712E-5	NaN
107	1.000000	0.922935	7.36609e+06	-43989.1	955.818	-29777.7	0.000000	0.000000	6.923124	-0.084365	NaN	0.000000	0.001558	0.001704	28.1184	0.049913	0.002067	24.1475	-46.1891	-165.919	-0.034652	0.921637	-0.206189	-0.207487	-0.084365	24.1475	-0.203569	-150.726	0.000560	NaN
107	1.000000	0.932916	7.36609e+06	-43989.1	955.817	-29777.7	0.000000	0.000000	6.933106	-0.067533	NaN	0.000000	0.001558	0.001722	28.1253	0.107440	0.002032	52.8811	122.443	12.5205	-0.100898	0.931572	-0.196208	-0.197552	-0.067533	52.8811	-0.195250	-109.987	0.000614	NaN
107	1.000000	0.942944	7.36609e+06	-43989.1	955.818	-29777.7	0.000000	0.000000	6.943135	-0.030010	NaN	0.000000	0.001583	0.001700	28.0853	0.085272	0.002004	42.5496	106.457	-165.241	0.012294	0.941626	-0.186180	-0.187498	-0.030010	42.5496	-0.185651	-76.0493	0.000395	NaN
107	1.000000	0.952961	7.36609e+06	-43989.1	955.818	-29777.7	0.000000	0.000000	6.953151	-0.050417	NaN	0.000000	0.001529	0.001775	28.0835	0.044443	0.001993	22.2963	-154.757	13.691	-0.016722	0.951587	-0.176163	-0.177537	-0.050417	22.2963	-0.174467	-49.0706	0.001027	NaN
107	1.000000	0.962941	7.36609e+06	-43989.1	955.818	-29777.7	0.000000	0.000000	6.963131	-0.047781	NaN	0.000000	0.001476	0.001765	28.1169	0.041669	0.001935	21.5329	142.037	-167.508	-0.036681	0.961607	-0.166183	-0.167517	-0.047781	21.5329	-0.164518	-32.9492	0.001450	NaN
107	1.000000	0.972962	7.36609e+06	-43989.1	955.817	-29777.7	0.000000	0.000000	6.973152	-0.046214	NaN	0.000000	0.001546	0.001710	28.1243	0.034433	0.002114	16.2841	-47.6252	10.9362	0.019852	0.971642	-0.156162	-0.157482	-0.046214	16.2841	-0.154034	-21.4373	0.002156	NaN
107	1.000000	0.982969	7.36609e+06	-43989.1	955.817	-29777.7	0.000000	0.000000	6.983158	-0.072352	NaN	0.000000	0.001544	0.001699	28.0864	0.039555	0.002067	19.1342	145.086	-167.053	-0.021029	0.981674	-0.146155	-0.147450	-0.072352	19.1342	-0.143319	-13.6458	0.005302	NaN
107	1.000000	0.992940	7.36609e+06	-43989.1	955.818	-29777.7	0.000000	0.000000	6.993132	-0.000700	NaN	0.000000	0.001541	0.001708	28.0845	0.017686	0.001911	9.255912	78.3352	13.8984	-0.019060	0.991569	-0.136184	-0.137555	-0.000700	9.255912	-0.136127	-9.994703	7.008131E-5	NaN
107	1.000000	1.002965	7.36609e+06	-43989.1	955.817	-29777.7	0.000000	0.000000	7.003156	-0.021701	NaN	0.000000	0.001525	0.001712	28.1179	0.058003	0.001980	29.2884	113.512	-165.466	0.013444	1.001649	-0.126159	-0.127475	-0.021701	29.2884	-0.125604	-6.250651	0.003472	NaN
107	1.000000	1.012943	7.36609e+06	-43989.1	955.816	-29777.7	0.000000	0.000000	7.013135	-0.012071	NaN	0.000000	0.001563	0.001707	28.1254	0.102331	0.002053	49.8498	-141.879	11.0356	-0.149459	1.011602	-0.116181	-0.117522	-0.012071	49.8498	-0.115999	-4.005553	0.003014	NaN
107	1.000000	1.022948	7.36609e+06	-43989.1	955.817	-29777.7	0.000000	0.000000	7.023140	0.018034	NaN	0.000000	0.001583	0.001701	28.0857	0.101416	0.001968	51.5396	-41.0348	-165.025	0.064506	1.021616	-0.106177	-0.107509	0.018034	51.5396	-0.106439	-2.524343	-0.007144	NaN
107	1.000000	1.032979	7.36609e+06	-43989.1	955.816	-29777.7	0.000000	0.000000	7.033168	-0.068813	NaN	0.000000	0.001522	0.001707	28.0823	0.097128	0.001924	50.4712	78.2208	12.7304	-0.043142	1.031702	-0.096145	-0.097422	-0.068813	50.4712	-0.095123	-1.419759	0.048468	NaN
107	1.000000	1.042964	7.36609e+06	-43989.1	955.818	-29777.7	0.000000	0.000000	7.043154	-0.047757	NaN	0.000000	0.001563	0.001725	28.1163	0.079125	0.001969	40.1911	167.259	-164.93	-0.035718	1.041669	-0.086160	-0.087455	-0.047757	40.1911	-0.085269	-0.834021	0.057261	NaN
107	1.000000	1.052970	7.36609e+06	-43989.1	955.817	-29777.7	0.000000	0.000000	7.053161	-0.015252	NaN	0.000000	0.001545	0.001732	28.1241	0.107209	0.002044	52.4505	100.585	14.2917	-0.009096	1.051595	-0.076154	-0.077529	-0.015252	52.4505	-0.075936	-0.488266	0.031236	NaN
107	1.000000	1.062982	7.36609e+06	-43989.1	955.817	-29777.7	0.000000	0.000000	7.063175	0.009185	NaN	0.000000	0.001553	0.001743	28.085	0.103470	0.001950	53.0645	90.0259	-165.319	-0.061023	1.061691	-0.066142	-0.067433	0.009185	53.0645	-0.066272	-0.270208	-0.033992	NaN
107	1.000000	1.073002	7.36609e+06	-43989.1	955.817	-29777.7	0.000000	0.000000	7.073195	0.022303	NaN	0.000000	0.001536	0.001711	28.0828	0.036346	0.001982	18.3402	107.895	10.6167	-0.006369	1.071615	-0.056122	-0.057509	0.022303	18.3402	-0.057034	-0.147781	-0.150917	NaN
107	1.000000	1.083005	7.36609e+06	-43989.1	955.817	-29777.7	0.000000	0.000000	7.083193	-0.094006	NaN	0.000000	0.001548	0.001700	28.1155	0.012306	0.002046	6.014078	129.591	-169.697	-0.090708	1.081703	-0.046120	-0.047421	-0.094006	6.014078	-0.034396	-0.030743	3.057747	NaN
107	1.000000	1.092993	7.36609e+06	-43989.1	955.817	-29777.7	0.000000	0.000000	7.093184	-0.032857	NaN	0.000000	0.001611	0.001711	28.1242	0.096047	0.002054	46.7702	-99.5882	12.2125	-0.049175	1.091566	-0.036131	-0.037558	-0.032857	46.7702	-0.035604	-0.033367	0.984705	NaN
107	1.000000	1.103015	7.36609e+06	-43989.1	955.816	-29777.7	0.000000	0.000000	7.103206	-0.020995	NaN	0.000000	0.001561	0.001678	28.0849	0.044743	0.001995	22.4326	-92.2982	-164.5	-0.005475	1.101734	-0.026110	-0.027391	-0.020995	22.4326	-0.025408	-0.017290	1.214258	NaN
107	1.000000	1.112999	7.36609e+06	-43989.1	955.816	-29777.7	0.000000	0.000000	7.113190	-0.037191	NaN	0.000000	0.001568	0.001682	28.0816	0.133966	0.002039	65.7008	84.7534	15.9801	-0.069524	1.111632	-0.016125	-0.017493	-0.037191	65.7008	-0.015701	-0.009699	3.834400	NaN
107	1.000000	1.122965	7.36609e+06	-43989.1	955.817	-29777.7	0.000000	0.000000	7.123155	-0.064987	NaN	0.000000	0.001531	0.001712	28.1143	0.058984	0.002045	28.8502	68.0442	-167.765	0.054210	1.121717	-0.006159	-0.007408	-0.064987	28.8502	-0.004469	-0.003081	21.0947	NaN
107	1.000000	1.132969	7.36609e+06	-43989.1	955.817	-29777.7	0.000000	0.000000	7.133282	2.960665	NaN	0.000000	0.001556	0.001746	28.123	3.715959	0.001826	2034.96	6.402040	12.7823	1.259666	1.131645	0.003844	0.002521	2.960665	2034.96	0.002753	0.002173	1362.34	39882
107	2.000000	1.138656	7.36609e+06	-43989.1	955.817	-29777.7	0.000000	0.000000	7.139322	11.5397	NaN	0.000000	0.001570	0.001668	28.0859	9.490550	0.001640	5785.42	5.152051	-172.088	11.0515	1.138304	0.009532	0.009180	11.5397	5785.42	0.008036	0.007079	1630.08	62822.7
107	2.000000	1.141102	7.36609e+06	-43989.1	955.817	-29777.7	0.000000	0.000000	7.141871	14.0251	NaN	0.000000	0.001582	0.001688	28.0822	12.6139	0.001728	7299.04	7.123635	3.338233	12.7553	1.140796	0.011978	0.011672	14.0251	7299.04	0.010537	0.009784	1433.43	67417.7
107	2.000000	1.143612	7.36609e+06	-43989.1	955.817	-29777.7	0.000000	0.000000	7.144573	18.7059	NaN	0.000000	0.001534	0.001683	28.1154	15.6266	0.001867	8367.74	4.642470	-175.069	18.003	1.143285	0.014488	0.014160	18.7059	8367.74	0.012811	0.012476	1499.36	68445.4
107	2.000000	1.146106	7.36609e+06	-43989.1	955.817	-29777.7	0.000000	0.000000	7.147326	25.0045	NaN	0.000000	0.001564	0.001689	28.1245	18.0808	0.001720	10514.1	2.839106	4.533151	22.9405	1.145734	0.016982	0.016610	25.0045	10514.1	0.015198	0.015551	1607.9	77031.4
107	2.000000	1.148576	7.36609e+06	-43989.1	955.817	-29777.7	0.000000	0.000000	7.150080	31.9312	NaN	0.000000	0.001587	0.001703	28.0852	20.4298	0.001702	12002	6.020771	-178.833	31.962	1.148259	0.019452	0.019135	31.9312	12002	0.017456	0.018702	1707.41	80184.1
107	2.000000	1.151085	7.36609e+06	-43989.1	955.816	-29777.7	0.000000	0.000000	7.152941	40.505	NaN	0.000000	0.001548	0.001671	28.0818	22.4518	0.001745	12865.9	6.259191	1.371702	39.4946	1.150760	0.021960	0.021636	40.505	12865.9	0.019599	0.021916	1848.16	79401.8
107	2.000000	1.153533	7.36609e+06	-43989.1	955.817	-29777.7	0.000000	0.000000	7.155582	45.1793	NaN	0.000000	0.001607	0.001671	28.1157	25.7826	0.001857	13882.4	5.730162	-179.247	44.222	1.153329	0.024409	0.024205	45.1793	13882.4	0.021968	0.025729	1755.95	79072.4
107	2.000000	1.156078	7.36609e+06	-43989.1	955.817	-29777.7	0.000000	0.000000	7.158607	56.8477	NaN	0.000000	0.001578	0.001678	28.1245	27.8867	0.001816	15357.2	5.134207	0.959288	55.0015	1.155665	0.026954	0.026540	56.8477	15357.2	0.024178	0.029536	1924.66	81640.3
107	2.000000	1.158499	7.36609e+06	-43989.1	955.816	-29777.7	0.000000	0.000000	7.161126	59.222	NaN	0.000000	0.001556	0.001680	28.0885	29.7129	0.001716	17319.4	4.254418	179.282	56.2501	1.158252	0.029375	0.029128	59.222	17319.4	0.026811	0.034392	1721.97	85325.3
107	2.000000	1.161040	7.36609e+06	-43989.1	955.817	-29777.7	0.000000	0.000000	7.164070	69.046	NaN	0.000000	0.001566	0.001718	28.0842	31.8346	0.001806	17626.4	3.399882	0.829046	68.2007	1.160687	0.031916	0.031562	69.046	17626.4	0.028978	0.038652	1786.36	81912.7
107	2.000000	1.163536	7.36609e+06	-43989.1	955.818	-29777.7	0.000000	0.000000	7.166739	73.2394	NaN	0.000000	0.001596	0.001702	28.1165	34.7541	0.001938	17937.5	6.581834	178.047	72.7119	1.163180	0.034412	0.034056	73.2394	17937.5	0.031350	0.043588	1680.25	78496.3
107	2.000000	1.166017	7.36609e+06	-43989.1	955.817	-29777.7	0.000000	0.000000	7.169669	84.175	NaN	0.000000	0.001565	0.001702	28.1261	35.7561	0.001744	20500.2	5.102130	-2.518361	80.6922	1.165707	0.036893	0.036583	84.175	20500.2	0.033814	0.049019	1717.18	84595.6
107	2.000000	1.168539	7.36609e+06	-43989.1	955.817	-29777.7	0.000000	0.000000	7.172487	91.3935	NaN	0.000000	0.001586	0.001709	28.0862	38.1381	0.001814	21022.5	6.432023	176.265	89.0118	1.168164	0.039415	0.039040	91.3935	21022.5	0.036154	0.054467	1677.95	82298.1
107	2.000000	1.170994	7.36609e+06	-43989.1	955.816	-29777.7	0.000000	0.000000	7.175245	98.7591	NaN	0.000000	0.001558	0.001683	28.0834	40.1584	0.001837	21866.1	7.318292	-4.560634	95.5013	1.170674	0.041870	0.041550	98.7591	21866.1	0.038482	0.060165	1641.47	81446.6
107	2.000000	1.173483	7.36609e+06	-43989.1	955.817	-29777.7	0.000000	0.000000	7.178048	106.393	NaN	0.000000	0.001574	0.001749	28.1149	42.6744	0.001804	23654.6	3.236036	178.14	104.619	1.173178	0.044358	0.044054	106.393	23654.6	0.040985	0.066599	1597.53	83744.4
107	2.000000	1.176042	7.36609e+06	-43989.1	955.817	-29777.7	0.000000	0.000000	7.180855	112.42	NaN	0.000000	0.001540	0.001760	28.1251	44.8155	0.001899	23595	3.751991	-1.996763	111.234	1.175748	0.046918	0.046624	112.42	23595	0.043344	0.072957	1540.91	79810.5
107	2.000000	1.178535	7.36609e+06	-43989.1	955.817	-29777.7	0.000000	0.000000	7.183786	123.072	NaN	0.000000	0.001553	0.001698	28.0886	46.7022	0.001864	25060.4	7.132914	174.58	122.688	1.178152	0.049411	0.049028	123.072	25060.4	0.045728	0.079666	1544.84	81119.2
107	2.000000	1.180978	7.36609e+06	-43989.1	955.817	-29777.7	0.000000	0.000000	7.186644	133.186	NaN	0.000000	0.001565	0.001692	28.0822	49.231	0.001825	26972.8	1.515325	-0.715310	129.949	1.180575	0.051854	0.051451	133.186	26972.8	0.048150	0.086782	1534.73	83653.7
107	2.000000	1.183545	7.36609e+06	-43989.1	955.817	-29777.7	0.000000	0.000000	7.189530	140.927	NaN	0.000000	0.001545	0.001743	28.1161	51.7145	0.001753	29500.1	2.992263	177.054	143.052	1.183208	0.054421	0.054084	140.927	29500.1	0.050838	0.095021	1483.11	87435.3
107	2.000000	1.186016	7.36609e+06	-43989.1	955.816	-29777.7	0.000000	0.000000	7.192614	155.855	NaN	0.000000	0.001538	0.001709	28.1251	52.6846	0.001617	32574.9	0.929516	-1.888952	153.579	1.185664	0.056891	0.056539	155.855	32574.9	0.053303	0.102895	1514.7	92780.8
107	2.000000	1.188545	7.36609e+06	-43989.1	955.817	-29777.7	0.000000	0.000000	7.195408	162.291	NaN	0.000000	0.001563	0.001711	28.0859	55.6571	0.001734	32090.9	4.003128	174.969	163.309	1.188253	0.059421	0.059128	162.291	32090.9	0.055628	0.110599	1467.39	88161.8
107	2.000000	1.190900	7.36609e+06	-43989.1	955.817	-29777.7	0.000000	0.000000	7.198595	182.532	NaN	0.000000	0.001586	0.001702	28.0815	58.1565	0.001775	32773.2	4.055244	-5.095095	176.985	1.190606	0.061776	0.061482	182.532	32773.2	0.057599	0.117338	1555.6	87412
107	2.000000	1.193463	7.36609e+06	-43989.1	955.817	-29777.7	0.000000	0.000000	7.201537	191.751	NaN	0.000000	0.001590	0.001725	28.1129	61.1453	0.001678	36446.2	5.010166	172.651	190.09	1.193264	0.064339	0.064140	191.751	36446.2	0.060393	0.127223	1507.21	93356.1
107	2.000000	1.195992	7.36609e+06	-43989.1	955.817	-29777.7	0.000000	0.000000	7.204560	203.771	NaN	0.000000	0.001593	0.001665	28.124	63.5262	0.001925	33008.4	8.139151	-8.161295	201.18	1.195473	0.066868	0.066349	203.771	33008.4	0.062238	0.133956	1521.18	82397.9
107	2.000000	1.198366	7.36609e+06	-43989.1	955.817	-29777.7	0.000000	0.000000	7.207624	220.569	NaN	0.000000	0.001572	0.001708	28.086	64.0231	0.001737	36868.6	1.683644	175.972	213.939	1.198119	0.069242	0.068995	220.569	36868.6	0.064755	0.143409	1538.04	88949
107	2.000000	1.200945	7.36609e+06	-43989.1	955.817	-29777.7	0.000000	0.000000	7.211038	240.884	NaN	0.000000	0.001582	0.001710	28.0826	66.7075	0.001750	38118.9	2.754738	-4.466083	236.774	1.200609	0.071821	0.071484	240.884	38118.9	0.067081	0.152419	1580.41	89206.1
107	2.000000	1.203530	7.36609e+06	-43989.1	955.817	-29777.7	0.000000	0.000000	7.214017	250.462	NaN	0.000000	0.001586	0.001711	28.1141	70.6853	0.001854	38123.5	4.791429	174.252	251.444	1.203119	0.074406	0.073995	250.462	38123.5	0.069479	0.161974	1546.31	86545.3
107	2.000000	1.206005	7.36609e+06	-43989.1	955.816	-29777.7	0.000000	0.000000	7.217142	266.286	NaN	0.000000	0.001607	0.001706	28.1255	72.411	0.001839	39384.4	5.416567	-7.391515	264.069	1.205668	0.076880	0.076543	266.286	39384.4	0.071810	0.171527	1552.44	86882.3
107	2.000000	1.208459	7.36609e+06	-43989.1	955.817	-29777.7	0.000000	0.000000	7.220045	277.215	NaN	0.000000	0.001561	0.001695	28.0849	75.2594	0.001735	43380.6	6.415802	171.256	276.94	1.208259	0.079335	0.079135	277.215	43380.6	0.074542	0.183053	1514.4	92636.1
107	2.000000	1.210908	7.36609e+06	-43989.1	955.818	-29777.7	0.000000	0.000000	7.223336	297.7	NaN	0.000000	0.001581	0.001716	28.081	76.7079	0.001902	40334	4.834769	-6.700106	292.074	1.210544	0.081783	0.081420	297.7	40334	0.076248	0.190428	1563.32	84446.1
107	2.000000	1.213436	7.36609e+06	-43989.1	955.817	-29777.7	0.000000	0.000000	7.226806	320.622	NaN	0.000000	0.001611	0.001728	28.1124	78.5393	0.001742	45088.7	3.827529	172.803	317.836	1.212981	0.084311	0.083857	320.622	45088.7	0.078978	0.202516	1583.2	91540.2
107	2.000000	1.215920	7.36609e+06	-43989.1	955.817	-29777.7	0.000000	0.000000	7.230003	337.955	NaN	0.000000	0.001598	0.001707	28.1245	81.27	0.001648	49311.6	5.115744	-9.017810	333.049	1.215519	0.086796	0.086395	337.955	49311.6	0.081656	0.214708	1574.02	97229.6
107	2.000000	1.218418	7.36609e+06	-43989.1	955.817	-29777.7	0.000000	0.000000	7.232874	347.024	NaN	0.000000	0.001601	0.001712	28.0857	83.4694	0.001748	47760.5	5.006292	171.326	345.149	1.218110	0.089294	0.088985	347.024	47760.5	0.083845	0.224920	1542.87	92008.4
107	2.000000	1.220967	7.36609e+06	-43989.1	955.817	-29777.7	0.000000	0.000000	7.236158	364.918	NaN	0.000000	0.001601	0.001682	28.0839	87.0574	0.001813	48024.6	4.018995	-7.232276	363.149	1.220501	0.091843	0.091377	364.918	48024.6	0.086144	0.235888	1547	90340.9
107	2.000000	1.223412	7.36609e+06	-43989.1	955.817	-29777.7	0.000000	0.000000	7.239086	376.658	NaN	0.000000	0.001597	0.001718	28.1153	90.0088	0.001821	49416.4	7.808245	168.618	371.805	1.223132	0.094288	0.094008	376.658	49416.4	0.088571	0.247733	1520.42	90709.4
107	2.000000	1.225945	7.36609e+06	-43989.1	955.817	-29777.7	0.000000	0.000000	7.242432	396.425	NaN	0.000000	0.001609	0.001687	28.1275	90.2818	0.001726	52308.6	1.963606	-6.341687	392.762	1.225671	0.096821	0.096547	396.425	52308.6	0.091137	0.260544	1521.53	93628
107	2.000000	1.228471	7.36609e+06	-43989.1	955.817	-29777.7	0.000000	0.000000	7.245814	417.276	NaN	0.000000	0.001602	0.001694	28.0867	93.0052	0.001699	54748.4	3.544814	171.954	418.122	1.228225	0.099347	0.099101	417.276	54748.4	0.093630	0.273285	1526.89	95683.4
107	2.000000	1.230913	7.36609e+06	-43989.1	955.817	-29777.7	0.000000	0.000000	7.248980	434.878	NaN	0.000000	0.001603	0.001716	28.082	95.5478	0.001706	56017.3	4.808631	-10.2827	430.483	1.230615	0.101789	0.101491	434.878	56017.3	0.095966	0.285477	1523.34	95787.6
107	2.000000	1.233418	7.36609e+06	-43989.1	955.815	-29777.7	0.000000	0.000000	7.252272	454.026	NaN	0.000000	0.001600	0.001713	28.1133	99.3947	0.001916	51867.7	1.224737	174.458	451.397	1.233202	0.104294	0.104078	454.026	51867.7	0.097729	0.294844	1539.89	87271.9
107	2.000000	1.235400	7.36609e+06	-43989.1	955.817	-29777.7	0.000000	0.000000	7.254984	471.772	NaN	0.000000	0.001573	0.001671	28.1142	97.21	0.001831	53098.1	1.940333	174.033	468.186	1.234948	0.106276	0.105824	471.772	53098.1	0.099613	0.305009	1546.75	87840.7