File: remote_trans/data/nanoindenter/0828-1/data/Data_2025-08-06,11h17m57s/2025-07-22_16-23-58_1_147.txt
2025-07-22, 16:23:58, 1
Index	Phase	Displacement	Time	Pos X	Pos Y	Pos Z	Rot A	Rot B	Piezo Z	Force A	Force B	Gripper	Voltage A	Voltage B	Temperature	Amplitude force	Amplitude pos	Stiffness	Phase shift	Phase excitation	Force A raw	Displacement raw	HMax	HMax raw	Real Force	Real Stiffness	Contact Depth	Area	Hardness	Reduced Mod.
[#]	[#]	[um]	[s]	[um]	[um]	[um]	[m°]	[m°]	[um]	[uN]	[uN]	[V]	[V]	[V]	[°C]	[uN]	[um]	[N/m]	[°]	[°]	[uN]	[um]	[um]	[um]	[uN]	[N/m]	[um]	[um^2]	[MPa]	[MPa]
147	1.000000	0.002596	7.36648e+06	-45989.1	955.818	-29771	0.000000	0.000000	6.002821	0.000868	NaN	0.000000	0.001671	0.001690	28.0874	0.069701	0.000981	71.0441	-171.184	-165.494	-0.018421	0.001344	-1.157457	-1.158709	0.000868	71.0441	-1.157467	-2.957420E+15	-2.935554E-19	NaN
147	1.000000	0.012639	7.36648e+06	-45989.1	955.82	-29771	0.000000	0.000000	6.012868	0.063106	NaN	0.000000	0.001678	0.001653	28.0834	0.149793	0.001106	135.389	65.3384	15.6205	0.122235	0.011176	-1.147414	-1.148877	0.063106	135.389	-1.147763	-2.191951E+15	-2.878983E-17	NaN
147	1.000000	0.022514	7.36648e+06	-45989.1	955.819	-29771	0.000000	0.000000	6.022742	0.057832	NaN	0.000000	0.001674	0.001635	28.1131	0.013234	0.001759	7.525610	-72.7479	-162.585	0.114312	0.021254	-1.137539	-1.138799	0.057832	7.525610	-1.143303	-1.909975E+15	-3.027910E-17	NaN
147	1.000000	0.032520	7.36648e+06	-45989.1	955.817	-29771	0.000000	0.000000	6.032745	-0.004142	NaN	0.000000	0.001599	0.001684	28.1274	0.096640	0.002010	48.0821	51.1162	15.9097	-0.009080	0.031157	-1.127533	-1.128896	-0.004142	48.0821	-1.127468	-1.171285E+15	3.535970E-18	NaN
147	1.000000	0.042536	7.36648e+06	-45989.1	955.819	-29771	0.000000	0.000000	6.042763	0.025008	NaN	0.000000	0.001631	0.001653	28.0882	0.114429	0.001991	57.4607	-58.3005	-165.713	0.102146	0.041241	-1.117517	-1.118812	0.025008	57.4607	-1.117843	-8.700357E+14	-2.874378E-17	NaN
147	1.000000	0.052554	7.36648e+06	-45989.1	955.819	-29771	0.000000	0.000000	6.052782	0.058287	NaN	0.000000	0.001630	0.001697	28.0832	0.117098	0.001928	60.7487	-104.357	15.3642	0.073657	0.051190	-1.107499	-1.108863	0.058287	60.7487	-1.108219	-6.462192E+14	-9.019701E-17	NaN
147	1.000000	0.062517	7.36648e+06	-45989.1	955.818	-29771	0.000000	0.000000	6.062742	0.005810	NaN	0.000000	0.001628	0.001679	28.1118	0.092356	0.001980	46.6432	68.4713	-169.278	0.002074	0.061227	-1.097536	-1.098826	0.005810	46.6432	-1.097630	-4.658554E+14	-1.247203E-17	NaN
147	1.000000	0.072555	7.36648e+06	-45989.1	955.818	-29771	0.000000	0.000000	6.072782	0.036634	NaN	0.000000	0.001642	0.001680	28.1253	0.092000	0.001988	46.2665	-40.7575	11.8869	0.030607	0.071123	-1.087498	-1.088930	0.036634	46.2665	-1.088092	-3.468873E+14	-1.056087E-16	NaN
147	1.000000	0.082538	7.36648e+06	-45989.1	955.819	-29771	0.000000	0.000000	6.082762	-0.030175	NaN	0.000000	0.001618	0.001676	28.0861	0.019906	0.002142	9.293480	-103.414	-162.793	-0.023472	0.081223	-1.077515	-1.078830	-0.030175	9.293480	-1.075080	-2.319694E+14	1.300823E-16	NaN
147	1.000000	0.092526	7.36648e+06	-45989.1	955.818	-29771	0.000000	0.000000	6.092753	0.027051	NaN	0.000000	0.001618	0.001701	28.0804	0.040840	0.002142	19.0656	-98.0924	12.3241	0.081243	0.091167	-1.067527	-1.068886	0.027051	19.0656	-1.068591	-1.897847E+14	-1.425363E-16	NaN
147	1.000000	0.102541	7.36648e+06	-45989.1	955.819	-29771	0.000000	0.000000	6.102765	-0.024354	NaN	0.000000	0.001616	0.001681	28.1125	0.034626	0.001895	18.2765	-132.551	-163.576	0.032746	0.101230	-1.057512	-1.058823	-0.024354	18.2765	-1.056513	-1.306032E+14	1.864733E-16	NaN
147	1.000000	0.112533	7.36648e+06	-45989.1	955.819	-29771	0.000000	0.000000	6.112762	0.089868	NaN	0.000000	0.001554	0.001682	28.1273	0.150746	0.002094	71.9865	-111.013	16.724	0.010663	0.111141	-1.047520	-1.048912	0.089868	71.9865	-1.048457	-1.017807E+14	-8.829588E-16	NaN
147	1.000000	0.122584	7.36648e+06	-45989.1	955.819	-29771	0.000000	0.000000	6.122812	0.051906	NaN	0.000000	0.001583	0.001683	28.0863	0.046214	0.001949	23.7088	-142.535	-165.824	0.117590	0.121251	-1.037469	-1.038802	0.051906	23.7088	-1.039111	-7.621008E+13	-6.810930E-16	NaN
147	1.000000	0.132577	7.36648e+06	-45989.1	955.818	-29771	0.000000	0.000000	6.132802	0.004809	NaN	0.000000	0.001583	0.001692	28.0821	0.100859	0.002014	50.0819	126.351	16.1742	0.032737	0.131154	-1.027477	-1.028899	0.004809	50.0819	-1.027549	-5.327279E+13	-9.026734E-17	NaN
147	1.000000	0.142535	7.36648e+06	-45989.1	955.818	-29771	0.000000	0.000000	6.142764	0.092629	NaN	0.000000	0.001583	0.001672	28.1113	0.118154	0.002078	56.8668	91.1851	-162.012	0.029438	0.141258	-1.017518	-1.018795	0.092629	56.8668	-1.018740	-4.055086E+13	-2.284268E-15	NaN
147	1.000000	0.152553	7.36648e+06	-45989.1	955.818	-29771	0.000000	0.000000	6.152782	0.095870	NaN	0.000000	0.001552	0.001686	28.126	0.066070	0.002052	32.1943	39.7287	16.3094	0.111121	0.151235	-1.007500	-1.008818	0.095870	32.1943	-1.009734	-3.067609E+13	-3.125219E-15	NaN
147	1.000000	0.162586	7.36648e+06	-45989.1	955.819	-29771	0.000000	0.000000	6.162814	0.055786	NaN	0.000000	0.001571	0.001739	28.0866	0.084669	0.001999	42.3582	-119.652	-165.586	0.157042	0.161264	-0.997467	-0.998789	0.055786	42.3582	-0.998455	-2.162557E+13	-2.579649E-15	NaN
147	1.000000	0.172570	7.36648e+06	-45989.1	955.818	-29771	0.000000	0.000000	6.172798	0.048328	NaN	0.000000	0.001618	0.001737	28.0801	0.126052	0.002018	62.4546	-68.8648	15.092	0.066194	0.171206	-0.987483	-0.988847	0.048328	62.4546	-0.988063	-1.566835E+13	-3.084406E-15	NaN
147	1.000000	0.182577	7.36648e+06	-45989.1	955.818	-29771	0.000000	0.000000	6.182806	0.081004	NaN	0.000000	0.001581	0.001702	28.1118	0.080442	0.002044	39.3614	-61.9896	-164.423	0.023261	0.181318	-0.977476	-0.978735	0.081004	39.3614	-0.979019	-1.183584E+13	-6.843974E-15	NaN
147	1.000000	0.192587	7.36648e+06	-45989.1	955.819	-29771	0.000000	0.000000	6.192814	0.022383	NaN	0.000000	0.001598	0.001724	28.1276	0.061382	0.001923	31.9247	86.8341	18.7642	0.069602	0.191169	-0.967466	-0.968884	0.022383	31.9247	-0.967992	-8.406087E+12	-2.662657E-15	NaN
147	1.000000	0.202562	7.36648e+06	-45989.1	955.818	-29771	0.000000	0.000000	6.202788	0.014738	NaN	0.000000	0.001591	0.001719	28.0885	0.053559	0.002042	26.2275	109.117	-167.231	-0.072593	0.201285	-0.957491	-0.958768	0.014738	26.2275	-0.957913	-6.147928E+12	-2.397206E-15	NaN
147	1.000000	0.212576	7.36648e+06	-45989.1	955.818	-29771	0.000000	0.000000	6.212802	0.004276	NaN	0.000000	0.001603	0.001749	28.0828	0.048962	0.001925	25.43	-58.7432	15.1463	0.069531	0.211202	-0.947477	-0.948851	0.004276	25.43	-0.947603	-4.463739E+12	-9.579728E-16	NaN
147	1.000000	0.222594	7.36648e+06	-45989.1	955.818	-29771	0.000000	0.000000	6.222820	0.024351	NaN	0.000000	0.001595	0.001705	28.1122	0.095272	0.001919	49.6346	67.1196	-163.461	-0.004557	0.221237	-0.937460	-0.938816	0.024351	49.6346	-0.937827	-3.294772E+12	-7.390696E-15	NaN
147	1.000000	0.232591	7.36648e+06	-45989.1	955.818	-29771	0.000000	0.000000	6.232818	0.047417	NaN	0.000000	0.001584	0.001706	28.1276	0.112286	0.002102	53.4212	129.461	16.2205	-0.016196	0.231209	-0.927462	-0.928844	0.047417	53.4212	-0.928128	-2.437428E+12	-1.945383E-14	NaN
147	1.000000	0.242609	7.36648e+06	-45989.1	955.818	-29771	0.000000	0.000000	6.242836	0.030209	NaN	0.000000	0.001552	0.001730	28.0885	0.080034	0.002002	39.9722	-169.171	-161.343	-4.273806E-5	0.241291	-0.917444	-0.918762	0.030209	39.9722	-0.918011	-1.779690E+12	-1.697447E-14	NaN
147	1.000000	0.252642	7.36648e+06	-45989.1	955.817	-29771	0.000000	0.000000	6.252866	-0.042262	NaN	0.000000	0.001580	0.001727	28.0818	0.054714	0.001994	27.4367	-145.307	13.9506	-0.015180	0.251271	-0.907411	-0.908782	-0.042262	27.4367	-0.906256	-1.234775E+12	3.422656E-14	NaN
147	1.000000	0.262625	7.36648e+06	-45989.1	955.819	-29771	0.000000	0.000000	6.262850	-0.027627	NaN	0.000000	0.001502	0.001743	28.1129	0.056343	0.001999	28.1813	134.032	-162.447	0.029476	0.261275	-0.897428	-0.898778	-0.027627	28.1813	-0.896693	-9.170079E+11	3.012743E-14	NaN
147	1.000000	0.272600	7.36648e+06	-45989.1	955.818	-29771	0.000000	0.000000	6.272822	-0.083711	NaN	0.000000	0.001556	0.001708	28.1288	0.089996	0.001967	45.7446	-120.168	18.8594	-0.104173	0.271229	-0.887453	-0.888824	-0.083711	45.7446	-0.886081	-6.590725E+11	1.270134E-13	NaN
147	1.000000	0.282631	7.36648e+06	-45989.1	955.818	-29771	0.000000	0.000000	6.282859	0.075344	NaN	0.000000	0.001555	0.001729	28.0906	0.047768	0.002047	23.3336	-94.274	-163.667	0.073262	0.281351	-0.877422	-0.878702	0.075344	23.3336	-0.879844	-5.427496E+11	-1.388182E-13	NaN
147	1.000000	0.292601	7.36648e+06	-45989.1	955.819	-29771	0.000000	0.000000	6.292826	-0.015159	NaN	0.000000	0.001581	0.001742	28.0817	0.125693	0.001997	62.9465	22.1356	14.7598	0.040818	0.291230	-0.867452	-0.868823	-0.015159	62.9465	-0.867272	-3.668856E+11	4.131797E-14	NaN
147	1.000000	0.302624	7.36648e+06	-45989.1	955.819	-29771	0.000000	0.000000	6.302850	0.007165	NaN	0.000000	0.001533	0.001750	28.1115	0.018764	0.001946	9.643327	2.521607	-166.61	-0.048709	0.301303	-0.857429	-0.858750	0.007165	9.643327	-0.857986	-2.747034E+11	-2.608381E-14	NaN
147	1.000000	0.312629	7.36648e+06	-45989.1	955.819	-29771	0.000000	0.000000	6.312854	-0.009353	NaN	0.000000	0.001545	0.001796	28.1274	0.045059	0.001912	23.5707	-96.4762	12.4664	-0.012174	0.311252	-0.847424	-0.848801	-0.009353	23.5707	-0.847127	-1.958074E+11	4.776701E-14	NaN
147	1.000000	0.322627	7.36648e+06	-45989.1	955.818	-29771	0.000000	0.000000	6.322852	-0.017249	NaN	0.000000	0.001577	0.001753	28.0883	0.055213	0.002035	27.1261	116.155	-167.148	0.032527	0.321329	-0.837426	-0.838724	-0.017249	27.1261	-0.836949	-1.425469E+11	1.210059E-13	NaN
147	1.000000	0.332632	7.36648e+06	-45989.1	955.819	-29771	0.000000	0.000000	6.332861	0.088647	NaN	0.000000	0.001579	0.001749	28.0814	0.029691	0.002160	13.7482	-173.002	13.0694	0.081705	0.331282	-0.827421	-0.828771	0.088647	13.7482	-0.832257	-1.231338E+11	-7.199242E-13	NaN
147	1.000000	0.342656	7.36648e+06	-45989.1	955.818	-29771	0.000000	0.000000	6.342883	0.042812	NaN	0.000000	0.001608	0.001758	28.1112	0.075155	0.002010	37.3983	-86.9948	-166.247	-0.002862	0.341336	-0.817397	-0.818717	0.042812	37.3983	-0.818255	-7.953417E+10	-5.382878E-13	NaN
147	1.000000	0.352671	7.36648e+06	-45989.1	955.819	-29771	0.000000	0.000000	6.352898	0.042179	NaN	0.000000	0.001669	0.001774	28.1277	0.028370	0.001998	14.1975	171.645	12.9948	0.041233	0.351274	-0.807382	-0.808779	0.042179	14.1975	-0.809610	-6.071267E+10	-6.947365E-13	NaN
147	1.000000	0.362620	7.36648e+06	-45989.1	955.819	-29771	0.000000	0.000000	6.362847	0.042919	NaN	0.000000	0.001571	0.001757	28.0889	0.067276	0.002017	33.3541	-99.5498	-160.847	0.111907	0.361336	-0.797433	-0.798717	0.042919	33.3541	-0.798398	-4.276820E+10	-1.003533E-12	NaN
147	1.000000	0.372665	7.36648e+06	-45989.1	955.818	-29771	0.000000	0.000000	6.372893	0.058774	NaN	0.000000	0.001616	0.001730	28.0811	0.057276	0.001877	30.5195	-91.2784	18.342	0.078728	0.371277	-0.787388	-0.788776	0.058774	30.5195	-0.788832	-3.171171E+10	-1.853376E-12	NaN
147	1.000000	0.382644	7.36648e+06	-45989.1	955.819	-29771	0.000000	0.000000	6.382870	0.011258	NaN	0.000000	0.001565	0.001775	28.1099	0.066617	0.002124	31.3567	70.0203	-164.663	-0.024925	0.381370	-0.777409	-0.778683	0.011258	31.3567	-0.777678	-2.237072E+10	-5.032271E-13	NaN
147	1.000000	0.392666	7.36648e+06	-45989.1	955.819	-29771	0.000000	0.000000	6.392893	0.041078	NaN	0.000000	0.001569	0.001760	28.1266	0.094754	0.001940	48.831	132.071	16.5818	0.015087	0.391300	-0.767387	-0.768753	0.041078	48.831	-0.768018	-1.653331E+10	-2.484585E-12	NaN
147	1.000000	0.402675	7.36648e+06	-45989.1	955.819	-29771	0.000000	0.000000	6.402901	0.009504	NaN	0.000000	0.001583	0.001725	28.0865	0.110379	0.002032	54.3257	-76.9789	-163.19	0.028646	0.401424	-0.757378	-0.758629	0.009504	54.3257	-0.757509	-1.189631E+10	-7.989145E-13	NaN
147	1.000000	0.412674	7.36648e+06	-45989.1	955.819	-29771	0.000000	0.000000	6.412901	0.030127	NaN	0.000000	0.001599	0.001747	28.0797	0.023529	0.002043	11.5179	-101.621	15.4327	0.032272	0.411332	-0.747379	-0.748722	0.030127	11.5179	-0.749341	-9.209688E+9	-3.271281E-12	NaN
147	1.000000	0.422654	7.36648e+06	-45989.1	955.818	-29771	0.000000	0.000000	6.422881	0.019087	NaN	0.000000	0.001590	0.001751	28.1102	0.035822	0.001886	18.9889	-26.4125	-165.486	0.001525	0.421339	-0.737399	-0.738714	0.019087	18.9889	-0.738153	-6.484724E+9	-2.943388E-12	NaN
147	1.000000	0.432678	7.36648e+06	-45989.1	955.817	-29771	0.000000	0.000000	6.432904	0.003434	NaN	0.000000	0.001572	0.001753	28.1274	0.151913	0.002059	73.7876	-133.895	14.2652	-0.004073	0.431340	-0.727375	-0.728713	0.003434	73.7876	-0.727410	-4.629153E+9	-7.418808E-13	NaN
147	1.000000	0.442693	7.36648e+06	-45989.1	955.818	-29771	0.000000	0.000000	6.442920	0.060197	NaN	0.000000	0.001581	0.001773	28.0882	0.083085	0.001931	43.0272	127.498	-164.387	0.091713	0.441409	-0.717361	-0.718644	0.060197	43.0272	-0.718410	-3.489676E+9	-1.724994E-11	NaN
147	1.000000	0.452683	7.36648e+06	-45989.1	955.817	-29771	0.000000	0.000000	6.452911	0.053644	NaN	0.000000	0.001558	0.001757	28.0814	0.108254	0.001923	56.3084	-95.6958	14.4824	0.091349	0.451342	-0.707370	-0.708711	0.053644	56.3084	-0.708084	-2.522911E+9	-2.126279E-11	NaN
147	1.000000	0.462703	7.36648e+06	-45989.1	955.818	-29771	0.000000	0.000000	6.462927	-0.027224	NaN	0.000000	0.001555	0.001743	28.109	0.040386	0.001885	21.429	-80.161	-167.4	-0.004917	0.461425	-0.697350	-0.698628	-0.027224	21.429	-0.696397	-1.747117E+9	1.558232E-11	NaN
147	1.000000	0.472710	7.36648e+06	-45989.1	955.819	-29771	0.000000	0.000000	6.472934	-0.022618	NaN	0.000000	0.001626	0.001762	28.1274	0.100990	0.001966	51.375	97.9773	16.7048	0.020552	0.471365	-0.687343	-0.688688	-0.022618	51.375	-0.687013	-1.300447E+9	1.739230E-11	NaN
147	1.000000	0.482694	7.36648e+06	-45989.1	955.819	-29771	0.000000	0.000000	6.482918	-0.047774	NaN	0.000000	0.001614	0.001761	28.0878	0.014762	0.001904	7.752651	141.786	-166.634	-0.012158	0.481422	-0.677359	-0.678631	-0.047774	7.752651	-0.672737	-8.295540E+8	5.759054E-11	NaN
147	1.000000	0.492724	7.36648e+06	-45989.1	955.819	-29771	0.000000	0.000000	6.492952	0.053933	NaN	0.000000	0.001611	0.001772	28.0811	0.067021	0.002061	32.5135	79.2694	16.0809	0.106075	0.491367	-0.667329	-0.668686	0.053933	32.5135	-0.668573	-7.275480E+8	-7.412938E-11	NaN
147	1.000000	0.502724	7.36648e+06	-45989.1	955.818	-29771	0.000000	0.000000	6.502953	0.077184	NaN	0.000000	0.001569	0.001771	28.1116	0.070382	0.002057	34.2243	0.180646	-162.445	0.007907	0.501440	-0.657329	-0.658613	0.077184	34.2243	-0.659020	-5.383289E+8	-1.433778E-10	NaN
147	1.000000	0.512717	7.36648e+06	-45989.1	955.819	-29771	0.000000	0.000000	6.512942	0.001737	NaN	0.000000	0.001594	0.001766	28.1294	0.099861	0.002075	48.1196	-171.297	16.7529	0.024455	0.511395	-0.647336	-0.648658	0.001737	48.1196	-0.647363	-3.726391E+8	-4.661354E-12	NaN
147	1.000000	0.522733	7.36648e+06	-45989.1	955.818	-29771	0.000000	0.000000	6.522957	-0.018460	NaN	0.000000	0.001577	0.001794	28.0898	0.178825	0.001974	90.5884	94.4453	-167.278	0.104781	0.521417	-0.637320	-0.638636	-0.018460	90.5884	-0.637167	-2.700357E+8	6.836028E-11	NaN
147	1.000000	0.532710	7.36648e+06	-45989.1	955.819	-29771	0.000000	0.000000	6.532938	0.060468	NaN	0.000000	0.001615	0.001766	28.0827	0.063163	0.001944	32.4869	-83.5387	15.2496	0.078230	0.531363	-0.627343	-0.628690	0.060468	32.4869	-0.628739	-2.068720E+8	-2.922953E-10	NaN
147	1.000000	0.542706	7.36648e+06	-45989.1	955.819	-29771	0.000000	0.000000	6.542932	0.004469	NaN	0.000000	0.001634	0.001784	28.11	0.076691	0.002032	37.7486	78.1946	-166.75	0.060347	0.541416	-0.617347	-0.618637	0.004469	37.7486	-0.617436	-1.446706E+8	-3.089332E-11	NaN
147	1.000000	0.552740	7.36648e+06	-45989.1	955.819	-29771	0.000000	0.000000	6.552965	-0.008680	NaN	0.000000	0.001673	0.001754	28.1284	0.117805	0.002063	57.1019	-150.44	13.7104	-0.000497	0.551329	-0.607313	-0.608724	-0.008680	57.1019	-0.607199	-1.046088E+8	8.298003E-11	NaN
147	1.000000	0.562726	7.36648e+06	-45989.1	955.819	-29771	0.000000	0.000000	6.562951	-0.014929	NaN	0.000000	0.001655	0.001743	28.0884	0.014365	0.002022	7.105663	49.1969	-165.379	-0.022426	0.561442	-0.597327	-0.598611	-0.014929	7.105663	-0.595751	-7.276650E+7	2.051619E-10	NaN
147	1.000000	0.572735	7.36648e+06	-45989.1	955.818	-29771	0.000000	0.000000	6.572961	0.030093	NaN	0.000000	0.001662	0.001805	28.0815	0.097248	0.002064	47.1111	88.1491	13.3734	-0.019240	0.571400	-0.587318	-0.588653	0.030093	47.1111	-0.587797	-5.653223E+7	-5.323160E-10	NaN
147	1.000000	0.582748	7.36648e+06	-45989.1	955.818	-29771	0.000000	0.000000	6.582972	-0.034005	NaN	0.000000	0.001663	0.001800	28.1109	0.054646	0.001971	27.7184	-103.036	-163.855	-0.040361	0.581393	-0.577305	-0.578660	-0.034005	27.7184	-0.576385	-3.933909E+7	8.644137E-10	NaN
147	1.000000	0.592753	7.36648e+06	-45989.1	955.819	-29771	0.000000	0.000000	6.592979	0.024145	NaN	0.000000	0.001645	0.001770	28.1298	0.034857	0.002035	17.1312	12.4764	16.7759	-0.003138	0.591413	-0.567300	-0.568640	0.024145	17.1312	-0.568357	-3.047426E+7	-7.923004E-10	NaN
147	1.000000	0.602759	7.36648e+06	-45989.1	955.818	-29771	0.000000	0.000000	6.602986	0.025373	NaN	0.000000	0.001608	0.001758	28.0897	0.031833	0.001974	16.1249	70.932	-164.883	0.014010	0.601461	-0.557294	-0.558592	0.025373	16.1249	-0.558474	-2.224659E+7	-1.140550E-9	NaN
147	1.000000	0.612752	7.36648e+06	-45989.1	955.819	-29771	0.000000	0.000000	6.612976	-0.017750	NaN	0.000000	0.001609	0.001783	28.0805	0.081644	0.002008	40.653	28.5849	14.0996	-0.039243	0.611424	-0.547302	-0.548629	-0.017750	40.653	-0.546974	-1.541828E+7	1.151252E-9	NaN
147	1.000000	0.622762	7.36648e+06	-45989.1	955.819	-29771	0.000000	0.000000	6.622985	-0.039028	NaN	0.000000	0.001577	0.001771	28.1076	0.027772	0.001893	14.6702	118.135	-161.257	0.009495	0.621441	-0.537292	-0.538612	-0.039028	14.6702	-0.535296	-1.061944E+7	3.675130E-9	NaN
147	1.000000	0.632762	7.36648e+06	-45989.1	955.82	-29771	0.000000	0.000000	6.632987	0.006520	NaN	0.000000	0.001640	0.001798	28.1276	0.116148	0.002016	57.611	48.1394	15.7391	0.048876	0.631406	-0.527291	-0.528647	0.006520	57.611	-0.527376	-8.24385e+06	-7.908401E-10	NaN
147	1.000000	0.642786	7.36648e+06	-45989.1	955.818	-29771	0.000000	0.000000	6.643011	0.001704	NaN	0.000000	0.001626	0.001771	28.0878	0.057107	0.002012	28.3767	-5.215971	-162.25	0.079724	0.641451	-0.517267	-0.518603	0.001704	28.3767	-0.517312	-5.97322e+06	-2.852454E-10	NaN
147	1.000000	0.652777	7.36648e+06	-45989.1	955.818	-29771	0.000000	0.000000	6.653003	0.017933	NaN	0.000000	0.001630	0.001747	28.0797	0.049460	0.002056	24.0513	168.9	15.3645	0.077157	0.651425	-0.507276	-0.508628	0.017933	24.0513	-0.507835	-4.40817e+06	-4.068134E-9	NaN
147	1.000000	0.662783	7.36648e+06	-45989.1	955.818	-29771	0.000000	0.000000	6.663007	-0.046696	NaN	0.000000	0.001620	0.001772	28.109	0.014679	0.002063	7.116689	-32.1921	-164.372	-0.064336	0.661459	-0.497270	-0.498594	-0.046696	7.116689	-0.492349	-2.68044e+06	1.742085E-8	NaN
147	1.000000	0.672765	7.36648e+06	-45989.1	955.818	-29771	0.000000	0.000000	6.672993	0.050350	NaN	0.000000	0.001599	0.001794	28.1286	0.067712	0.002003	33.8037	-83.6034	14.9607	0.037288	0.671444	-0.487288	-0.488609	0.050350	33.8037	-0.488405	-2.36102e+06	-2.132562E-8	NaN
147	1.000000	0.682820	7.36648e+06	-45989.1	955.819	-29771	0.000000	0.000000	6.683046	0.017080	NaN	0.000000	0.001603	0.001768	28.0891	0.015872	0.002050	7.741418	-14.1461	-164.5	0.028539	0.681506	-0.477233	-0.478547	0.017080	7.741418	-0.478888	-1.73762e+06	-9.829715E-9	NaN
147	1.000000	0.692797	7.36648e+06	-45989.1	955.818	-29771	0.000000	0.000000	6.693021	-0.028690	NaN	0.000000	0.001614	0.001767	28.08	0.046459	0.001883	24.6745	46.7714	15.0095	-0.007479	0.691413	-0.467256	-0.468640	-0.028690	24.6745	-0.466384	-1.16059e+06	2.472020E-8	NaN
147	1.000000	0.702795	7.36648e+06	-45989.1	955.818	-29771	0.000000	0.000000	6.703022	0.033925	NaN	0.000000	0.001596	0.001784	28.1072	0.092396	0.001948	47.4248	-69.2502	-162.056	0.001911	0.701503	-0.457258	-0.458550	0.033925	47.4248	-0.457794	-879053	-3.859311E-8	NaN
147	1.000000	0.712829	7.36648e+06	-45989.1	955.818	-29771	0.000000	0.000000	6.713057	0.053851	NaN	0.000000	0.001608	0.001781	28.1275	0.049859	0.002026	24.6085	-151.914	17.0901	0.045993	0.711449	-0.447224	-0.448604	0.053851	24.6085	-0.448865	-658199	-8.181640E-8	NaN
147	1.000000	0.722823	7.36648e+06	-45989.1	955.818	-29771	0.000000	0.000000	6.723050	0.042818	NaN	0.000000	0.001670	0.001748	28.088	0.022905	0.002061	11.1123	124.89	-164.12	-0.000380	0.721453	-0.437230	-0.438600	0.042818	11.1123	-0.440120	-495521	-8.640937E-8	NaN
147	1.000000	0.732811	7.36648e+06	-45989.1	955.817	-29771	0.000000	0.000000	6.733037	0.010324	NaN	0.000000	0.001628	0.001784	28.0813	0.032312	0.002023	15.9704	131.18	12.3567	0.015533	0.731458	-0.427242	-0.428595	0.010324	15.9704	-0.427726	-331046	-3.118742E-8	NaN
147	1.000000	0.742808	7.36648e+06	-45989.1	955.818	-29771	0.000000	0.000000	6.743031	-0.073435	NaN	0.000000	0.001637	0.001773	28.1088	0.059658	0.001892	31.5303	-172.207	-164.169	0.000863	0.741491	-0.417245	-0.418562	-0.073435	31.5303	-0.415498	-222090	3.306558E-7	NaN
147	1.000000	0.752815	7.36648e+06	-45989.1	955.819	-29771	0.000000	0.000000	6.753041	0.001933	NaN	0.000000	0.001655	0.001753	28.1296	0.089727	0.002061	43.5383	151.3	15.8863	-0.078771	0.751443	-0.407238	-0.408610	0.001933	43.5383	-0.407271	-169660	-1.139230E-8	NaN
147	1.000000	0.762808	7.36648e+06	-45989.1	955.818	-29771	0.000000	0.000000	6.763038	0.097617	NaN	0.000000	0.001597	0.001786	28.0897	0.061365	0.001990	30.8419	105.242	-165.248	0.053861	0.761481	-0.397245	-0.398572	0.097617	30.8419	-0.399618	-131994	-7.395566E-7	NaN
147	1.000000	0.772810	7.36648e+06	-45989.1	955.819	-29771	0.000000	0.000000	6.773037	0.050037	NaN	0.000000	0.001514	0.001747	28.0815	0.098619	0.001963	50.2296	-46.2138	15.7625	0.004229	0.771488	-0.387244	-0.388565	0.050037	50.2296	-0.387991	-90035.6	-5.557444E-7	NaN
147	1.000000	0.782809	7.36648e+06	-45989.1	955.817	-29771	0.000000	0.000000	6.783034	-0.007775	NaN	0.000000	0.001568	0.001814	28.1085	0.073513	0.001984	37.0576	177.859	-164.927	0.069164	0.781515	-0.377244	-0.378538	-0.007775	37.0576	-0.377087	-62815.2	1.237751E-7	NaN
147	1.000000	0.792852	7.36648e+06	-45989.1	955.818	-29771	0.000000	0.000000	6.793078	-0.007522	NaN	0.000000	0.001571	0.001827	28.1289	0.038592	0.001984	19.4562	33.5876	16.312	-0.005920	0.791488	-0.367201	-0.368565	-0.007522	19.4562	-0.366911	-44834.3	1.677812E-7	NaN
147	1.000000	0.802847	7.36648e+06	-45989.1	955.819	-29771	0.000000	0.000000	6.803075	0.064467	NaN	0.000000	0.001539	0.001784	28.0879	0.026542	0.001995	13.3044	-99.6115	-166.995	0.055994	0.801525	-0.357206	-0.358528	0.064467	13.3044	-0.360840	-36642.9	-1.759343E-6	NaN
147	1.000000	0.812806	7.36648e+06	-45989.1	955.819	-29771	0.000000	0.000000	6.813028	-0.085302	NaN	0.000000	0.001574	0.001794	28.081	0.102955	0.001913	53.831	-92.2072	16.8238	0.006912	0.811483	-0.347247	-0.348570	-0.085302	53.831	-0.346058	-22374.1	3.812512E-6	NaN
147	1.000000	0.822835	7.36648e+06	-45989.1	955.818	-29771	0.000000	0.000000	6.823064	0.072004	NaN	0.000000	0.001565	0.001773	28.109	0.085561	0.002008	42.6126	25.8814	-166.801	0.071594	0.821566	-0.337218	-0.338487	0.072004	42.6126	-0.338485	-17356.5	-4.148547E-6	NaN
147	1.000000	0.832854	7.36648e+06	-45989.1	955.819	-29771	0.000000	0.000000	6.833081	0.043384	NaN	0.000000	0.001596	0.001807	28.1299	0.084800	0.001938	43.7632	100.676	13.4366	0.038626	0.831422	-0.327199	-0.328631	0.043384	43.7632	-0.327943	-12170.5	-3.564658E-6	NaN
147	1.000000	0.842877	7.36648e+06	-45989.1	955.818	-29771	0.000000	0.000000	6.843106	0.071763	NaN	0.000000	0.001585	0.001816	28.0913	0.024609	0.001936	12.7093	173.99	-166.361	0.041461	0.841566	-0.317176	-0.318487	0.071763	12.7093	-0.321411	-9758.73	-7.353696E-6	NaN
147	1.000000	0.852882	7.36648e+06	-45989.1	955.817	-29771	0.000000	0.000000	6.853107	-0.018203	NaN	0.000000	0.001560	0.001816	28.0823	0.101711	0.002018	50.3981	132.676	17.5969	0.028669	0.851489	-0.307171	-0.308564	-0.018203	50.3981	-0.306900	-5958.52	3.055027E-6	NaN
147	1.000000	0.862859	7.36648e+06	-45989.1	955.819	-29771	0.000000	0.000000	6.863086	0.039700	NaN	0.000000	0.001605	0.001767	28.1075	0.002587	0.002025	1.277179	-55.7837	-163.931	0.070843	0.861529	-0.297194	-0.298524	0.039700	1.277179	-0.320507	-9464.49	-4.194582E-6	NaN
147	1.000000	0.872882	7.36648e+06	-45989.1	955.818	-29771	0.000000	0.000000	6.873109	0.031199	NaN	0.000000	0.001576	0.001770	28.1286	0.016669	0.001901	8.768805	40.7682	14.7392	0.031267	0.871518	-0.287171	-0.288535	0.031199	8.768805	-0.289839	-3318.12	-9.402764E-6	NaN
147	1.000000	0.882854	7.36648e+06	-45989.1	955.818	-29771	0.000000	0.000000	6.883079	0.002719	NaN	0.000000	0.001562	0.001736	28.0896	0.068809	0.002066	33.3086	51.867	-166.554	-0.076913	0.881571	-0.277199	-0.278482	0.002719	33.3086	-0.277261	-2145.86	-1.267288E-6	NaN
147	1.000000	0.892899	7.36648e+06	-45989.1	955.819	-29771	0.000000	0.000000	6.893124	0.005910	NaN	0.000000	0.001548	0.001782	28.079	0.078930	0.001918	41.1611	96.4805	15.0403	0.042662	0.891513	-0.267154	-0.268540	0.005910	41.1611	-0.267262	-1513.15	-3.905663E-6	NaN
147	1.000000	0.902883	7.36648e+06	-45989.1	955.818	-29771	0.000000	0.000000	6.903109	0.011854	NaN	0.000000	0.001557	0.001763	28.1074	0.061958	0.001994	31.073	-86.6372	-167.596	-0.069985	0.901536	-0.257170	-0.258517	0.011854	31.073	-0.257456	-1071.24	-1.106573E-5	NaN
147	1.000000	0.912884	7.36648e+06	-45989.1	955.818	-29771	0.000000	0.000000	6.913111	0.023317	NaN	0.000000	0.001564	0.001761	28.1285	0.059381	0.002105	28.2085	-83.2575	13.2142	0.005093	0.911532	-0.247169	-0.248521	0.023317	28.2085	-0.247788	-759.85	-3.068592E-5	NaN
147	1.000000	0.922894	7.36648e+06	-45989.1	955.819	-29771	0.000000	0.000000	6.923120	0.003334	NaN	0.000000	0.001559	0.001769	28.0897	0.103682	0.001901	54.5374	-13.4267	-165.639	0.023494	0.921622	-0.237159	-0.238432	0.003334	54.5374	-0.237205	-519.787	-6.413950E-6	NaN
147	1.000000	0.932904	7.36648e+06	-45989.1	955.818	-29771	0.000000	0.000000	6.933131	0.033130	NaN	0.000000	0.001537	0.001792	28.0804	0.042173	0.001983	21.2717	-96.8796	17.101	0.070289	0.931577	-0.227149	-0.228477	0.033130	21.2717	-0.228317	-376.634	-8.796355E-5	NaN
147	1.000000	0.942896	7.36648e+06	-45989.1	955.818	-29771	0.000000	0.000000	6.943123	0.019787	NaN	0.000000	0.001574	0.001770	28.1059	0.056029	0.002066	27.1181	152.473	-163.336	-0.026356	0.941550	-0.217157	-0.218503	0.019787	27.1181	-0.217704	-255.229	-7.752477E-5	NaN
147	1.000000	0.952915	7.36648e+06	-45989.1	955.819	-29771	0.000000	0.000000	6.953142	0.031664	NaN	0.000000	0.001588	0.001774	28.1277	0.025203	0.002085	12.0871	162.863	15.4002	0.074317	0.951560	-0.207138	-0.208493	0.031664	12.0871	-0.209102	-185.47	-0.000171	NaN
147	1.000000	0.962893	7.36648e+06	-45989.1	955.818	-29771	0.000000	0.000000	6.963121	0.065511	NaN	0.000000	0.001570	0.001765	28.0881	0.033722	0.001995	16.9011	141.237	-161.993	0.070937	0.961553	-0.197160	-0.198500	0.065511	16.9011	-0.200067	-132.071	-0.000496	NaN
147	1.000000	0.972902	7.36648e+06	-45989.1	955.818	-29771	0.000000	0.000000	6.973130	0.073302	NaN	0.000000	0.001547	0.001744	28.0792	0.054208	0.001903	28.4836	-26.0494	12.5547	0.056824	0.971541	-0.187151	-0.188512	0.073302	28.4836	-0.189082	-86.8304	-0.000844	NaN
147	1.000000	0.982904	7.36648e+06	-45989.1	955.817	-29771	0.000000	0.000000	6.983128	-0.042763	NaN	0.000000	0.001561	0.001734	28.1071	0.054244	0.001912	28.3759	-83.958	-170.146	-0.053992	0.981597	-0.177149	-0.178456	-0.042763	28.3759	-0.176019	-52.1753	0.000820	NaN
147	1.000000	0.992910	7.36648e+06	-45989.1	955.819	-29771	0.000000	0.000000	6.993137	0.021657	NaN	0.000000	0.001582	0.001740	28.1292	0.049553	0.001970	25.1553	-137.711	14.075	-0.005059	0.991553	-0.167143	-0.168500	0.021657	25.1553	-0.167788	-37.5936	-0.000576	NaN
147	1.000000	1.002891	7.36648e+06	-45989.1	955.818	-29771	0.000000	0.000000	7.003117	0.010633	NaN	0.000000	0.001569	0.001732	28.09	0.115343	0.002016	57.2144	4.693797	-166.995	0.037321	1.001642	-0.157162	-0.158411	0.010633	57.2144	-0.157302	-24.5401	-0.000433	NaN
147	1.000000	1.012940	7.36648e+06	-45989.1	955.819	-29771	0.000000	0.000000	7.013167	0.036588	NaN	0.000000	0.001547	0.001770	28.0819	0.063503	0.002038	31.1605	-45.5384	15.7357	0.000783	1.011562	-0.147113	-0.148491	0.036588	31.1605	-0.147994	-16.646	-0.002198	NaN
147	1.000000	1.022931	7.36648e+06	-45989.1	955.817	-29771	0.000000	0.000000	7.023157	0.022655	NaN	0.000000	0.001521	0.001769	28.1069	0.025042	0.002184	11.4655	70.5336	-163.212	0.066452	1.021568	-0.137122	-0.138485	0.022655	11.4655	-0.138604	-11.135	-0.002035	NaN
147	1.000000	1.032921	7.36648e+06	-45989.1	955.819	-29771	0.000000	0.000000	7.033147	0.010361	NaN	0.000000	0.001554	0.001731	28.129	0.156958	0.001926	81.4863	-149.752	12.2096	-0.026107	1.031556	-0.127132	-0.128497	0.010361	81.4863	-0.127228	-6.728061	-0.001540	NaN
147	1.000000	1.042949	7.36648e+06	-45989.1	955.819	-29771	0.000000	0.000000	7.043174	-0.025956	NaN	0.000000	0.001585	0.001733	28.0901	0.073234	0.002086	35.1037	171.691	-166.696	-0.077545	1.041668	-0.117104	-0.118385	-0.025956	35.1037	-0.116549	-4.110847	0.006314	NaN
147	1.000000	1.052904	7.36648e+06	-45989.1	955.819	-29771	0.000000	0.000000	7.053131	0.049378	NaN	0.000000	0.001553	0.001725	28.0809	0.066921	0.001972	33.9385	-24.8576	11.2675	-0.077202	1.051608	-0.107149	-0.108445	0.049378	33.9385	-0.108240	-2.758124	-0.017903	NaN
147	1.000000	1.062930	7.36648e+06	-45989.1	955.82	-29771	0.000000	0.000000	7.063157	0.031699	NaN	0.000000	0.001561	0.001744	28.1075	0.087281	0.002048	42.6227	12.6391	-169.749	0.053125	1.061625	-0.097123	-0.098428	0.031699	42.6227	-0.097681	-1.621950	-0.019544	NaN
147	1.000000	1.072944	7.36648e+06	-45989.1	955.819	-29771	0.000000	0.000000	7.073170	0.012278	NaN	0.000000	0.001551	0.001724	28.1303	0.056106	0.001946	28.8268	-125.066	18.1712	0.031692	1.071509	-0.087109	-0.088544	0.012278	28.8268	-0.087429	-0.939754	-0.013065	NaN
147	1.000000	1.082972	7.36648e+06	-45989.1	955.818	-29771	0.000000	0.000000	7.083198	0.002569	NaN	0.000000	0.001567	0.001736	28.0911	0.094593	0.001995	47.4117	-161.648	-162.284	-0.059899	1.081623	-0.077081	-0.078430	0.002569	47.4117	-0.077121	-0.523605	-0.004906	NaN
147	1.000000	1.092953	7.36648e+06	-45989.1	955.818	-29771	0.000000	0.000000	7.093180	0.035800	NaN	0.000000	0.001549	0.001763	28.081	0.054472	0.001864	29.2178	116.399	11.8874	0.047966	1.091630	-0.067100	-0.068423	0.035800	29.2178	-0.068019	-0.301622	-0.118692	NaN
147	1.000000	1.102997	7.36648e+06	-45989.1	955.819	-29771	0.000000	0.000000	7.103225	0.062739	NaN	0.000000	0.001572	0.001753	28.107	0.027857	0.001950	14.2861	105.296	-166.758	0.019675	1.101677	-0.057056	-0.058377	0.062739	14.2861	-0.060349	-0.184293	-0.340429	NaN
147	1.000000	1.112958	7.36648e+06	-45989.1	955.819	-29771	0.000000	0.000000	7.113184	0.024388	NaN	0.000000	0.001555	0.001744	28.1292	0.057642	0.002051	28.108	-5.813909	14.9596	-0.025792	1.111585	-0.047095	-0.048468	0.024388	28.108	-0.047746	-0.077951	-0.312856	NaN
147	1.000000	1.122978	7.36648e+06	-45989.1	955.819	-29771	0.000000	0.000000	7.123204	0.015348	NaN	0.000000	0.001565	0.001738	28.091	0.102571	0.002009	51.0481	-17.1768	-165.252	0.091918	1.121686	-0.037075	-0.038367	0.015348	51.0481	-0.037300	-0.037485	-0.409441	NaN
147	1.000000	1.132986	7.36648e+06	-45989.1	955.819	-29771	0.000000	0.000000	7.133214	0.057612	NaN	0.000000	0.001602	0.001746	28.0804	0.046071	0.001987	23.1862	34.4266	17.436	-0.013280	1.131580	-0.027067	-0.028473	0.057612	23.1862	-0.028931	-0.021497	-2.679946	NaN
147	1.000000	1.142958	7.36648e+06	-45989.1	955.819	-29771	0.000000	0.000000	7.143183	0.002748	NaN	0.000000	0.001618	0.001725	28.1081	0.055248	0.002048	26.9781	93.6504	-165.907	-0.004750	1.141697	-0.017095	-0.018356	0.002748	26.9781	-0.017172	-0.010621	-0.258777	NaN
147	1.000000	1.152982	7.36648e+06	-45989.1	955.818	-29771	0.000000	0.000000	7.153209	0.036725	NaN	0.000000	0.001579	0.001753	28.1303	0.019272	0.001977	9.749676	168.804	12.5989	0.100494	1.151670	-0.007071	-0.008383	0.036725	9.749676	-0.009897	-0.006328	-5.803442	NaN
147	1.000000	1.162977	7.36648e+06	-45989.1	955.82	-29771	0.000000	0.000000	7.163273	1.737688	NaN	0.000000	0.001604	0.001703	28.0903	2.435869	0.001782	1366.66	7.760730	-164.903	0.832854	1.161747	0.002924	0.001694	1.737688	1366.66	0.001970	0.001531	1135.36	31916.6
147	2.000000	1.170083	7.36648e+06	-45989.1	955.819	-29771	0.000000	0.000000	7.170654	8.395686	NaN	0.000000	0.001601	0.001730	28.0806	8.795780	0.001564	5625.08	3.488184	8.973103	7.599391	1.169820	0.010030	0.009767	8.395686	5625.08	0.008911	0.007996	1049.98	57473
147	2.000000	1.172514	7.36648e+06	-45989.1	955.82	-29771	0.000000	0.000000	7.173225	11.8134	NaN	0.000000	0.001560	0.001755	28.1053	11.303	0.001682	6719.28	5.595849	-170.829	11.0909	1.172240	0.012461	0.012187	11.8134	6719.28	0.011142	0.010479	1127.38	59971.3
147	2.000000	1.174986	7.36648e+06	-45989.1	955.82	-29771	0.000000	0.000000	7.175955	18.0951	NaN	0.000000	0.001600	0.001731	28.1289	14.4768	0.001685	8592.06	4.854791	5.310762	16.7629	1.174740	0.014933	0.014687	18.0951	8592.06	0.013353	0.013152	1375.85	68450.4
147	2.000000	1.177522	7.36648e+06	-45989.1	955.819	-29771	0.000000	0.000000	7.178622	21.2893	NaN	0.000000	0.001622	0.001742	28.0899	18.0029	0.001860	9677.34	6.687045	-177.102	21.334	1.177264	0.017469	0.017211	21.2893	9677.34	0.015819	0.016393	1298.7	69056.4
147	2.000000	1.180005	7.36648e+06	-45989.1	955.819	-29771	0.000000	0.000000	7.181314	26.3551	NaN	0.000000	0.001633	0.001763	28.0804	20.0232	0.001792	11171.3	8.282592	0.019496	24.6107	1.179656	0.019952	0.019603	26.3551	11171.3	0.018183	0.019767	1333.28	72595
147	2.000000	1.182472	7.36648e+06	-45989.1	955.818	-29771	0.000000	0.000000	7.184005	31.7997	NaN	0.000000	0.001603	0.001743	28.1066	22.4676	0.001950	11522.6	5.459790	-177.275	30.6858	1.182225	0.022419	0.022172	31.7997	11522.6	0.020349	0.023094	1376.98	69274.8
147	2.000000	1.184988	7.36648e+06	-45989.1	955.819	-29771	0.000000	0.000000	7.186759	37.6079	NaN	0.000000	0.001642	0.001723	28.1294	25.0731	0.001810	13856	4.043802	1.725129	36.7281	1.184683	0.024935	0.024630	37.6079	13856	0.022899	0.027304	1377.38	76612.1
147	2.000000	1.187489	7.36648e+06	-45989.1	955.82	-29771	0.000000	0.000000	7.189616	46.2666	NaN	0.000000	0.001639	0.001756	28.0912	27.5981	0.001804	15295.1	4.165158	-178.52	44.3617	1.187138	0.027436	0.027085	46.2666	15295.1	0.025167	0.031320	1477.22	78961.4
147	2.000000	1.189962	7.36648e+06	-45989.1	955.819	-29771	0.000000	0.000000	7.192429	54.5435	NaN	0.000000	0.001671	0.001756	28.0794	29.0936	0.001852	15707.4	4.061892	2.072652	52.8338	1.189684	0.029909	0.029631	54.5435	15707.4	0.027304	0.035342	1543.33	76336.8
147	2.000000	1.192470	7.36648e+06	-45989.1	955.818	-29771	0.000000	0.000000	7.195397	65.7218	NaN	0.000000	0.001656	0.001761	28.1051	30.8147	0.001809	17037.4	0.579801	-175.406	64.5589	1.192167	0.032417	0.032114	65.7218	17037.4	0.029524	0.039763	1652.84	78061.5
147	2.000000	1.194933	7.36648e+06	-45989.1	955.819	-29771	0.000000	0.000000	7.198057	70.5136	NaN	0.000000	0.001665	0.001723	28.1285	33.3732	0.001799	18550.1	5.097181	-0.732782	68.2	1.194571	0.034880	0.034518	70.5136	18550.1	0.032029	0.045055	1565.07	79845.4
147	2.000000	1.197485	7.36648e+06	-45989.1	955.818	-29771	0.000000	0.000000	7.200963	79.1174	NaN	0.000000	0.001656	0.001731	28.0897	35.9784	0.001902	18917.1	6.787047	178.008	80.2121	1.197214	0.037432	0.037161	79.1174	18917.1	0.034295	0.050118	1578.61	77202.3
147	2.000000	1.199999	7.36648e+06	-45989.1	955.819	-29771	0.000000	0.000000	7.203845	88.0706	NaN	0.000000	0.001625	0.001760	28.0808	37.2425	0.001868	19932.1	4.601984	0.100155	88.4119	1.199614	0.039946	0.039561	88.0706	19932.1	0.036632	0.055615	1583.57	77220.1
147	2.000000	1.202489	7.36648e+06	-45989.1	955.819	-29771	0.000000	0.000000	7.206832	100.179	NaN	0.000000	0.001624	0.001723	28.1079	38.929	0.001714	22714.3	4.421739	178.372	101.428	1.202094	0.042436	0.042041	100.179	22714.3	0.039128	0.061794	1621.18	83483.5
147	2.000000	1.204932	7.36648e+06	-45989.1	955.819	-29771	0.000000	0.000000	7.209665	109.65	NaN	0.000000	0.001649	0.001727	28.1307	42.3158	0.001643	25748.4	3.178010	-2.492705	107.081	1.204606	0.044879	0.044553	109.65	25748.4	0.041685	0.068455	1601.79	89913
147	2.000000	1.207452	7.36648e+06	-45989.1	955.819	-29771	0.000000	0.000000	7.212541	118.308	NaN	0.000000	0.001619	0.001751	28.0918	46.8845	0.001874	25020	7.844070	173.206	117.416	1.207148	0.047399	0.047095	118.308	25020	0.043852	0.074363	1590.95	83826.5
147	2.000000	1.209949	7.36648e+06	-45989.1	955.819	-29771	0.000000	0.000000	7.215592	131.784	NaN	0.000000	0.001624	0.001755	28.0827	47.077	0.001872	25142.4	3.568875	-1.759710	129.793	1.209594	0.049896	0.049541	131.784	25142.4	0.045965	0.080350	1640.13	81037.8
147	2.000000	1.212457	7.36648e+06	-45989.1	955.82	-29771	0.000000	0.000000	7.218480	141.031	NaN	0.000000	0.001613	0.001800	28.1059	49.2869	0.001735	28411.1	3.808485	176.165	140.661	1.212161	0.052404	0.052108	141.031	28411.1	0.048681	0.088379	1595.76	87314.6
147	2.000000	1.214963	7.36648e+06	-45989.1	955.82	-29771	0.000000	0.000000	7.221519	154.007	NaN	0.000000	0.001609	0.001753	28.1315	52.6672	0.001771	29740.6	6.656770	-6.992484	153.265	1.214476	0.054910	0.054423	154.007	29740.6	0.051026	0.095611	1610.76	87875.7
147	2.000000	1.217439	7.36648e+06	-45989.1	955.819	-29771	0.000000	0.000000	7.224409	164.051	NaN	0.000000	0.001556	0.001765	28.0941	55.6392	0.001875	29677.3	3.951965	175.887	162.705	1.217070	0.057386	0.057017	164.051	29677.3	0.053240	0.102691	1597.52	84611.9
147	2.000000	1.219856	7.36648e+06	-45989.1	955.819	-29771	0.000000	0.000000	7.227238	174.09	NaN	0.000000	0.001542	0.001780	28.0815	57.8516	0.001835	31526.9	3.000079	-3.895543	167.583	1.219556	0.059803	0.059503	174.09	31526.9	0.055661	0.110712	1572.46	86568.2
147	2.000000	1.222399	7.36648e+06	-45989.1	955.819	-29771	0.000000	0.000000	7.230308	186.906	NaN	0.000000	0.001556	0.001761	28.1065	59.5855	0.001978	30128.1	3.249652	177.46	186.042	1.222118	0.062346	0.062065	186.906	30128.1	0.057693	0.117667	1588.43	80245
147	2.000000	1.224876	7.36648e+06	-45989.1	955.819	-29771	0.000000	0.000000	7.233301	199.459	NaN	0.000000	0.001547	0.001781	28.1327	61.995	0.001928	32147.5	4.635660	-5.836364	195.798	1.224502	0.064823	0.064449	199.459	32147.5	0.060170	0.126418	1577.78	82606.9
147	2.000000	1.227378	7.36648e+06	-45989.1	955.819	-29771	0.000000	0.000000	7.236290	211.3	NaN	0.000000	0.001561	0.001744	28.0932	63.458	0.001869	33953.2	2.981004	175.459	208.866	1.227110	0.067325	0.067057	211.3	33953.2	0.062658	0.135510	1559.29	84269
147	2.000000	1.229926	7.36648e+06	-45989.1	955.819	-29771	0.000000	0.000000	7.239482	226.981	NaN	0.000000	0.001550	0.001736	28.0823	64.8367	0.001807	35873.2	5.956026	-6.859966	225.689	1.229472	0.069873	0.069419	226.981	35873.2	0.065127	0.144834	1567.18	86120.7
147	2.000000	1.232315	7.36648e+06	-45989.1	955.818	-29771	0.000000	0.000000	7.242616	245.08	NaN	0.000000	0.001582	0.001747	28.1053	66.4164	0.001647	40334.1	3.177609	173.809	238.308	1.231983	0.072262	0.071930	245.08	40334.1	0.067705	0.154878	1582.41	93637.7
147	2.000000	1.234890	7.36648e+06	-45989.1	955.819	-29771	0.000000	0.000000	7.245672	256.798	NaN	0.000000	0.001599	0.001732	28.1293	69.796	0.001806	38647.2	1.614262	-3.551922	252.246	1.234565	0.074837	0.074512	256.798	38647.2	0.069853	0.163492	1570.71	87325.8
147	2.000000	1.237390	7.36648e+06	-45989.1	955.82	-29771	0.000000	0.000000	7.248500	264.782	NaN	0.000000	0.001566	0.001745	28.0913	72.885	0.001812	40216.5	3.435812	173.496	262.764	1.237245	0.077337	0.077192	264.782	40216.5	0.072399	0.173984	1521.88	88089.3
147	2.000000	1.239930	7.36648e+06	-45989.1	955.819	-29771	0.000000	0.000000	7.251797	283.196	NaN	0.000000	0.001577	0.001787	28.0802	74.4337	0.001768	42100.8	3.824749	-6.831071	281.095	1.239586	0.079877	0.079533	283.196	42100.8	0.074832	0.184298	1536.62	89599
147	2.000000	1.242383	7.36648e+06	-45989.1	955.819	-29771	0.000000	0.000000	7.254867	298.195	NaN	0.000000	0.001536	0.001742	28.1051	76.1352	0.001822	41793.5	5.573457	171.959	294.894	1.242049	0.082330	0.081996	298.195	41793.5	0.076979	0.193631	1540.02	86775
147	2.000000	1.244796	7.36648e+06	-45989.1	955.82	-29771	0.000000	0.000000	7.257928	313.969	NaN	0.000000	0.001524	0.001777	28.1313	78.5296	0.001819	43161.4	3.954516	-6.937498	308.491	1.244569	0.084743	0.084516	313.969	43161.4	0.079287	0.203906	1539.77	87328.1
147	2.000000	1.247324	7.36648e+06	-45989.1	955.819	-29771	0.000000	0.000000	7.261168	331.282	NaN	0.000000	0.001537	0.001763	28.0924	82.8345	0.001916	43233.9	4.814504	172.023	327.278	1.247073	0.087271	0.087020	331.282	43233.9	0.081524	0.214099	1547.33	85367.1
147	2.000000	1.249952	7.36648e+06	-45989.1	955.819	-29771	0.000000	0.000000	7.264578	350.309	NaN	0.000000	0.001569	0.001806	28.0817	82.9846	0.001725	48109.5	6.238121	-9.746401	348.782	1.249550	0.089899	0.089497	350.309	48109.5	0.084438	0.227726	1538.29	92108
147	2.000000	1.252385	7.36648e+06	-45989.1	955.819	-29771	0.000000	0.000000	7.267468	361.423	NaN	0.000000	0.001603	0.001756	28.1037	85.127	0.001833	46432.6	4.051427	172.251	360.945	1.252021	0.092332	0.091968	361.423	46432.6	0.086494	0.237579	1521.27	87034.6
147	2.000000	1.254830	7.36648e+06	-45989.1	955.82	-29771	0.000000	0.000000	7.270627	378.8	NaN	0.000000	0.001595	0.001741	28.1299	88.0354	0.001827	48180.6	2.520050	-6.618964	373.484	1.254545	0.094777	0.094492	378.8	48180.6	0.088880	0.249259	1519.7	88169.8
147	2.000000	1.257363	7.36648e+06	-45989.1	955.82	-29771	0.000000	0.000000	7.273707	392.079	NaN	0.000000	0.001585	0.001750	28.0918	91.25	0.001980	46076.5	2.586968	173.903	391.28	1.256958	0.097310	0.096905	392.079	46076.5	0.090928	0.259492	1510.95	82640.2
147	2.000000	1.259936	7.36648e+06	-45989.1	955.819	-29771	0.000000	0.000000	7.277263	415.989	NaN	0.000000	0.001544	0.001721	28.0802	92.2092	0.001772	52041.7	4.184035	-8.529781	415.37	1.259494	0.099883	0.099441	415.989	52041.7	0.093888	0.274618	1514.79	90731.9
147	2.000000	1.262391	7.36648e+06	-45989.1	955.819	-29771	0.000000	0.000000	7.280510	435.281	NaN	0.000000	0.001543	0.001740	28.1049	94.2784	0.001771	53247.2	6.060626	169.692	434.573	1.261959	0.102338	0.101906	435.281	53247.2	0.096207	0.286749	1517.99	90848.7
147	2.000000	1.264855	7.36648e+06	-45989.1	955.82	-29771	0.000000	0.000000	7.283658	451.924	NaN	0.000000	0.001553	0.001757	28.1305	96.2984	0.001786	53912	2.507788	-7.320294	447.429	1.264509	0.104802	0.104456	451.924	53912	0.098515	0.299065	1511.12	90069.1
147	2.000000	1.267308	7.36648e+06	-45989.1	955.82	-29771	0.000000	0.000000	7.286670	465.521	NaN	0.000000	0.001537	0.001730	28.0931	99.5035	0.001798	55351.9	1.571378	173.061	460.266	1.267069	0.107255	0.107016	465.521	55351.9	0.100947	0.312306	1490.59	90493.1