File: remote_trans/data/nanoindenter/0828-1/data/Data_2025-08-06,11h17m57s/2025-07-22_16-23-58_1_695.txt
2025-07-22, 16:23:58, 1
Index	Phase	Displacement	Time	Pos X	Pos Y	Pos Z	Rot A	Rot B	Piezo Z	Force A	Force B	Gripper	Voltage A	Voltage B	Temperature	Amplitude force	Amplitude pos	Stiffness	Phase shift	Phase excitation	Force A raw	Displacement raw	HMax	HMax raw	Real Force	Real Stiffness	Contact Depth	Area	Hardness	Reduced Mod.
[#]	[#]	[um]	[s]	[um]	[um]	[um]	[m°]	[m°]	[um]	[uN]	[uN]	[V]	[V]	[V]	[°C]	[uN]	[um]	[N/m]	[°]	[°]	[uN]	[um]	[um]	[um]	[uN]	[N/m]	[um]	[um^2]	[MPa]	[MPa]
695	1.000000	0.001942	7.37185e+06	-42339.1	1005.82	-29783	0.000000	0.000000	6.002805	0.029936	NaN	0.000000	0.001677	0.001691	28.0825	0.064041	0.000981	65.3044	29.9579	-171.258	0.103660	0.000628	-1.083609	-1.084922	0.029936	65.3044	-1.083952	-3.052110E+14	-9.808171E-17	NaN
695	1.000000	0.009886	7.37185e+06	-42339.1	1005.82	-29783	0.000000	0.000000	6.010749	0.036398	NaN	0.000000	0.001652	0.001712	28.0825	0.095251	0.000984	96.8258	97.487	-167.424	-0.018970	0.008642	-1.075665	-1.076908	0.036398	96.8258	-1.075947	-2.382732E+14	-1.527577E-16	NaN
695	1.000000	0.017876	7.37185e+06	-42339.1	1005.82	-29783	0.000000	0.000000	6.018738	0.015753	NaN	0.000000	0.001659	0.001702	28.0824	0.041971	0.001767	23.7573	135.111	-166.053	0.027003	0.016574	-1.067674	-1.068976	0.015753	23.7573	-1.068172	-1.873369E+14	-8.409088E-17	NaN
695	1.000000	0.025907	7.37185e+06	-42339.1	1005.82	-29783	0.000000	0.000000	6.026766	-0.057836	NaN	0.000000	0.001674	0.001715	28.0823	0.049207	0.001822	27.0079	29.9388	-166.253	-0.033967	0.024570	-1.059644	-1.060980	-0.057836	27.0079	-1.058038	-1.369137E+14	4.224299E-16	NaN
695	1.000000	0.033864	7.37185e+06	-42339.1	1005.82	-29783	0.000000	0.000000	6.034726	0.014228	NaN	0.000000	0.001716	0.001732	28.0825	0.114184	0.001831	62.3768	94.7538	-167.675	0.023814	0.032630	-1.051687	-1.052920	0.014228	62.3768	-1.051858	-1.130806E+14	-1.258225E-16	NaN
695	1.000000	0.041865	7.37185e+06	-42339.1	1005.82	-29783	0.000000	0.000000	6.042726	0.004420	NaN	0.000000	0.001660	0.001695	28.0827	0.066210	0.002017	32.8178	-32.8703	-166.859	-0.011162	0.040630	-1.043686	-1.044921	0.004420	32.8178	-1.043787	-8.808157E+13	-5.018353E-17	NaN
695	1.000000	0.049915	7.37185e+06	-42339.1	1005.82	-29783	0.000000	0.000000	6.050776	-0.003419	NaN	0.000000	0.001681	0.001732	28.0832	0.043507	0.002022	21.5223	-50.7795	-165.763	-0.027600	0.048569	-1.035636	-1.036982	-0.003419	21.5223	-1.035516	-6.818259E+13	5.015049E-17	NaN
695	1.000000	0.057865	7.37185e+06	-42339.1	1005.82	-29783	0.000000	0.000000	6.058725	-0.017089	NaN	0.000000	0.001704	0.001748	28.0841	0.100646	0.001928	52.1937	156.46	-166.198	-0.062310	0.056561	-1.027686	-1.028989	-0.017089	52.1937	-1.027440	-5.309471E+13	3.218650E-16	NaN
695	1.000000	0.065879	7.37185e+06	-42339.1	1005.82	-29783	0.000000	0.000000	6.066741	0.031596	NaN	0.000000	0.001697	0.001736	28.0839	0.073042	0.001973	37.0215	-38.769	-167.271	-0.037284	0.064605	-1.019672	-1.020945	0.031596	37.0215	-1.020312	-4.257469E+13	-7.421426E-16	NaN
695	1.000000	0.073873	7.37185e+06	-42339.1	1005.82	-29783	0.000000	0.000000	6.074736	0.043464	NaN	0.000000	0.001679	0.001715	28.0839	0.077891	0.002015	38.6483	-20.9952	-166.174	0.006938	0.072566	-1.011678	-1.012984	0.043464	38.6483	-1.012521	-3.344365E+13	-1.299633E-15	NaN
695	1.000000	0.081908	7.37185e+06	-42339.1	1005.82	-29783	0.000000	0.000000	6.082767	-0.050320	NaN	0.000000	0.001701	0.001700	28.0841	0.032606	0.002059	15.8367	92.5593	-165.019	0.004877	0.080578	-1.003643	-1.004973	-0.050320	15.8367	-1.001259	-2.358988E+13	2.133109E-15	NaN
695	1.000000	0.089871	7.37185e+06	-42339.1	1005.82	-29783	0.000000	0.000000	6.090732	0.003084	NaN	0.000000	0.001707	0.001733	28.084	0.032386	0.001935	16.7358	2.515651	-165.858	-0.005051	0.088593	-0.995680	-0.996958	0.003084	16.7358	-0.995818	-1.992772E+13	-1.547454E-16	NaN
695	1.000000	0.097881	7.37185e+06	-42339.1	1005.82	-29783	0.000000	0.000000	6.098743	0.026100	NaN	0.000000	0.001686	0.001722	28.0838	0.056781	0.001818	31.2306	2.516527	-166.823	0.055571	0.096616	-0.987670	-0.988934	0.026100	31.2306	-0.988297	-1.578241E+13	-1.653769E-15	NaN
695	1.000000	0.105926	7.37185e+06	-42339.1	1005.82	-29783	0.000000	0.000000	6.106788	0.027365	NaN	0.000000	0.001710	0.001725	28.0837	0.010597	0.002047	5.175674	-133.42	-162.142	0.029176	0.104524	-0.979625	-0.981026	0.027365	5.175674	-0.983590	-1.363881E+13	-2.006438E-15	NaN
695	1.000000	0.113905	7.37185e+06	-42339.1	1005.82	-29783	0.000000	0.000000	6.114767	0.012384	NaN	0.000000	0.001714	0.001763	28.0835	0.095290	0.002019	47.189	129.556	-166.562	-0.044087	0.112643	-0.971646	-0.972908	0.012384	47.189	-0.971842	-9.473120E+12	-1.307273E-15	NaN
695	1.000000	0.121888	7.37185e+06	-42339.1	1005.82	-29783	0.000000	0.000000	6.122747	-0.051653	NaN	0.000000	0.001688	0.001745	28.0837	0.122727	0.001974	62.1708	-91.1543	-169.206	-0.027871	0.120632	-0.963662	-0.964919	-0.051653	62.1708	-0.963039	-7.208465E+12	7.165624E-15	NaN
695	1.000000	0.129912	7.37185e+06	-42339.1	1005.82	-29783	0.000000	0.000000	6.130774	0.020400	NaN	0.000000	0.001710	0.001737	28.0838	0.142124	0.001963	72.3837	96.5973	-167.937	0.072606	0.128584	-0.955638	-0.956966	0.020400	72.3837	-0.955850	-5.766477E+12	-3.537634E-15	NaN
695	1.000000	0.137931	7.37185e+06	-42339.1	1005.82	-29783	0.000000	0.000000	6.138794	0.041278	NaN	0.000000	0.001662	0.001737	28.0839	0.055993	0.002010	27.8571	81.4671	-164.881	-0.001852	0.136602	-0.947620	-0.948949	0.041278	27.8571	-0.948731	-4.622922E+12	-8.929063E-15	NaN
695	1.000000	0.145923	7.37185e+06	-42339.1	1005.82	-29783	0.000000	0.000000	6.146784	-0.006499	NaN	0.000000	0.001616	0.001766	28.0837	0.125742	0.002008	62.6071	-154.786	-165.557	-0.010293	0.144581	-0.939628	-0.940970	-0.006499	62.6071	-0.939550	-3.475878E+12	1.869666E-15	NaN
695	1.000000	0.153941	7.37185e+06	-42339.1	1005.82	-29783	0.000000	0.000000	6.154802	-0.006235	NaN	0.000000	0.001614	0.001767	28.0837	0.083578	0.002116	39.4993	-175.545	-167.137	0.087511	0.152641	-0.931610	-0.932909	-0.006235	39.4993	-0.931491	-2.705975E+12	2.304097E-15	NaN
695	1.000000	0.161926	7.37185e+06	-42339.1	1005.82	-29783	0.000000	0.000000	6.162791	0.074978	NaN	0.000000	0.001661	0.001727	28.0839	0.038279	0.002050	18.6771	-139.831	-166.969	0.046358	0.160590	-0.923624	-0.924961	0.074978	18.6771	-0.926635	-2.326913E+12	-3.222229E-14	NaN
695	1.000000	0.169911	7.37185e+06	-42339.1	1005.82	-29783	0.000000	0.000000	6.170771	-0.044916	NaN	0.000000	0.001713	0.001786	28.0837	0.076888	0.002044	37.623	146.375	-168.625	-0.162119	0.168640	-0.915639	-0.916911	-0.044916	37.623	-0.914744	-1.607805E+12	2.793643E-14	NaN
695	1.000000	0.177973	7.37185e+06	-42339.1	1005.82	-29783	0.000000	0.000000	6.178835	0.025631	NaN	0.000000	0.001721	0.001743	28.0842	0.048989	0.001963	24.9503	-50.6151	-168.183	-0.012473	0.176630	-0.907578	-0.908920	0.025631	24.9503	-0.908348	-1.317802E+12	-1.944988E-14	NaN
695	1.000000	0.185917	7.37185e+06	-42339.1	1005.82	-29783	0.000000	0.000000	6.186781	0.052543	NaN	0.000000	0.001715	0.001717	28.0838	0.067728	0.001923	35.2165	-25.6649	-163.635	0.052563	0.184641	-0.899633	-0.900910	0.052543	35.2165	-0.900752	-1.040477E+12	-5.049925E-14	NaN
695	1.000000	0.193939	7.37185e+06	-42339.1	1005.82	-29783	0.000000	0.000000	6.194800	-0.015818	NaN	0.000000	0.001667	0.001740	28.0826	0.007320	0.002033	3.600477	90.826	-165.763	-0.042655	0.192646	-0.891611	-0.892905	-0.015818	3.600477	-0.888316	-7.065716E+11	2.238632E-14	NaN
695	1.000000	0.201946	7.37185e+06	-42339.1	1005.82	-29783	0.000000	0.000000	6.202808	0.022277	NaN	0.000000	0.001692	0.001718	28.0825	0.088362	0.002031	43.5155	115.231	-166.733	-0.048238	0.200692	-0.883605	-0.884859	0.022277	43.5155	-0.883989	-6.175176E+11	-3.607458E-14	NaN
695	1.000000	0.209950	7.37185e+06	-42339.1	1005.82	-29783	0.000000	0.000000	6.210811	-0.010573	NaN	0.000000	0.001691	0.001734	28.0823	0.105729	0.001973	53.5946	0.189723	-166.686	-0.060658	0.208630	-0.875601	-0.876921	-0.010573	53.5946	-0.875453	-4.733788E+11	2.233619E-14	NaN
695	1.000000	0.217953	7.37185e+06	-42339.1	1005.82	-29783	0.000000	0.000000	6.218815	0.003555	NaN	0.000000	0.001690	0.001769	28.0825	0.093515	0.002084	44.8622	57.2768	-166.652	0.033797	0.216649	-0.867597	-0.868902	0.003555	44.8622	-0.867657	-3.713111E+11	-9.574571E-15	NaN
695	1.000000	0.225943	7.37185e+06	-42339.1	1005.82	-29783	0.000000	0.000000	6.226803	-0.028962	NaN	0.000000	0.001694	0.001710	28.0828	0.107392	0.001995	53.8287	131.788	-169.936	-0.133453	0.224664	-0.859608	-0.860887	-0.028962	53.8287	-0.859204	-2.853332E+11	1.015016E-13	NaN
695	1.000000	0.233966	7.37185e+06	-42339.1	1005.82	-29783	0.000000	0.000000	6.234826	-0.011215	NaN	0.000000	0.001681	0.001768	28.0828	0.073595	0.001973	37.3045	78.0418	-166.483	-0.049560	0.232629	-0.851585	-0.852922	-0.011215	37.3045	-0.851360	-2.234330E+11	5.019553E-14	NaN
695	1.000000	0.241958	7.37185e+06	-42339.1	1005.82	-29783	0.000000	0.000000	6.242817	-0.054837	NaN	0.000000	0.001684	0.001763	28.0826	0.061045	0.002014	30.3115	-25.7219	-165.006	-0.007247	0.240654	-0.843592	-0.844896	-0.054837	30.3115	-0.842236	-1.681044E+11	3.262071E-13	NaN
695	1.000000	0.249995	7.37185e+06	-42339.1	1005.82	-29783	0.000000	0.000000	6.250856	-0.009235	NaN	0.000000	0.001642	0.001725	28.0826	0.023324	0.002103	11.0933	-102.899	-166.024	0.061267	0.248664	-0.835555	-0.836887	-0.009235	11.0933	-0.834931	-1.338471E+11	6.899925E-14	NaN
695	1.000000	0.257936	7.37185e+06	-42339.1	1005.82	-29783	0.000000	0.000000	6.258799	0.028501	NaN	0.000000	0.001641	0.001733	28.0828	0.033599	0.002104	15.9656	76.8834	-167.824	-0.031077	0.256673	-0.827614	-0.828878	0.028501	15.9656	-0.828953	-1.110700E+11	-2.566005E-13	NaN
695	1.000000	0.265946	7.37185e+06	-42339.1	1005.82	-29783	0.000000	0.000000	6.266806	-0.035536	NaN	0.000000	0.001613	0.001755	28.083	0.075006	0.001837	40.8325	-46.0777	-163.855	0.016278	0.264691	-0.819604	-0.820860	-0.035536	40.8325	-0.818952	-8.128197E+10	4.371928E-13	NaN
695	1.000000	0.273989	7.37185e+06	-42339.1	1005.82	-29783	0.000000	0.000000	6.274849	-0.041615	NaN	0.000000	0.001634	0.001709	28.0828	0.039314	0.001982	19.8331	76.824	-168.267	-0.100013	0.272715	-0.811561	-0.812835	-0.041615	19.8331	-0.809988	-6.143325E+10	6.774100E-13	NaN
695	1.000000	0.281990	7.37185e+06	-42339.1	1005.82	-29783	0.000000	0.000000	6.282849	-0.045461	NaN	0.000000	0.001592	0.001775	28.0828	0.112764	0.001959	57.5504	38.9052	-164.411	0.019881	0.280689	-0.803560	-0.804862	-0.045461	57.5504	-0.802968	-4.933427E+10	9.214917E-13	NaN
695	1.000000	0.289967	7.37185e+06	-42339.1	1005.82	-29783	0.000000	0.000000	6.290828	0.005965	NaN	0.000000	0.001619	0.001713	28.0835	0.068342	0.002084	32.7892	59.1679	-167.802	-0.033831	0.288693	-0.795584	-0.796858	0.005965	32.7892	-0.795720	-3.933308E+10	-1.516457E-13	NaN
695	1.000000	0.297972	7.37185e+06	-42339.1	1005.82	-29783	0.000000	0.000000	6.298835	0.042787	NaN	0.000000	0.001586	0.001717	28.0825	0.050350	0.001937	25.9877	166.495	-169.2	-0.001260	0.296677	-0.787579	-0.788874	0.042787	25.9877	-0.788814	-3.169351E+10	-1.350026E-12	NaN
695	1.000000	0.306001	7.37185e+06	-42339.1	1005.82	-29783	0.000000	0.000000	6.306864	0.043966	NaN	0.000000	0.001636	0.001733	28.0827	0.064635	0.001933	33.4421	-123.511	-166.901	0.074278	0.304657	-0.779550	-0.780894	0.043966	33.4421	-0.780536	-2.446308E+10	-1.797232E-12	NaN
695	1.000000	0.313993	7.37185e+06	-42339.1	1005.82	-29783	0.000000	0.000000	6.314854	0.003582	NaN	0.000000	0.001635	0.001732	28.0827	0.131651	0.001949	67.5563	-31.1737	-164.862	-0.002830	0.312719	-0.771558	-0.772832	0.003582	67.5563	-0.771598	-1.849376E+10	-1.936846E-13	NaN
695	1.000000	0.322003	7.37185e+06	-42339.1	1005.82	-29783	0.000000	0.000000	6.322863	-0.035075	NaN	0.000000	0.001601	0.001737	28.0826	0.076957	0.002033	37.8526	158.091	-166.884	0.045876	0.320733	-0.763548	-0.764818	-0.035075	37.8526	-0.762853	-1.406392E+10	2.493952E-12	NaN
695	1.000000	0.329998	7.37185e+06	-42339.1	1005.82	-29783	0.000000	0.000000	6.330859	-0.012855	NaN	0.000000	0.001584	0.001742	28.0839	0.089060	0.002034	43.7912	70.7196	-167.583	0.066843	0.328679	-0.755553	-0.756871	-0.012855	43.7912	-0.755333	-1.111212E+10	1.156832E-12	NaN
695	1.000000	0.338013	7.37185e+06	-42339.1	1005.82	-29783	0.000000	0.000000	6.338874	-0.007509	NaN	0.000000	0.001612	0.001743	28.0838	0.088490	0.002069	42.7709	-17.6342	-164.362	0.056087	0.336665	-0.747537	-0.748886	-0.007509	42.7709	-0.747406	-8.667708E+9	8.663728E-13	NaN
695	1.000000	0.345995	7.37185e+06	-42339.1	1005.82	-29783	0.000000	0.000000	6.346855	-0.039807	NaN	0.000000	0.001640	0.001692	28.084	0.083103	0.002032	40.9004	-70.0191	-165.681	0.028035	0.344665	-0.739556	-0.740885	-0.039807	40.9004	-0.738826	-6.623073E+9	6.010387E-12	NaN
695	1.000000	0.354023	7.37185e+06	-42339.1	1005.82	-29783	0.000000	0.000000	6.354882	-0.033459	NaN	0.000000	0.001622	0.001701	28.0839	0.048516	0.001920	25.2631	77.0657	-163.929	-0.041140	0.352678	-0.731528	-0.732873	-0.033459	25.2631	-0.730535	-5.106176E+9	6.552607E-12	NaN
695	1.000000	0.362012	7.37185e+06	-42339.1	1005.82	-29783	0.000000	0.000000	6.362874	0.021521	NaN	0.000000	0.001598	0.001782	28.0837	0.043746	0.001947	22.4739	-50.0676	-169.418	0.046850	0.360659	-0.723538	-0.724892	0.021521	22.4739	-0.724257	-4.192916E+9	-5.132673E-12	NaN
695	1.000000	0.370030	7.37185e+06	-42339.1	1005.82	-29783	0.000000	0.000000	6.370893	0.047528	NaN	0.000000	0.001609	0.001780	28.0841	0.123222	0.002057	59.8899	-179.539	-165.562	-0.009240	0.368768	-0.715521	-0.716783	0.047528	59.8899	-0.716116	-3.247114E+9	-1.463705E-11	NaN
695	1.000000	0.378036	7.37185e+06	-42339.1	1005.82	-29783	0.000000	0.000000	6.378901	0.094902	NaN	0.000000	0.001616	0.001755	28.0839	0.040431	0.002017	20.0493	-45.8798	-167.963	0.110746	0.376722	-0.707515	-0.708829	0.094902	20.0493	-0.711065	-2.770661E+9	-3.425255E-11	NaN
695	1.000000	0.386032	7.37185e+06	-42339.1	1005.82	-29783	0.000000	0.000000	6.386893	0.003484	NaN	0.000000	0.001622	0.001799	28.0836	0.155634	0.001952	79.7297	80.1975	-164.628	0.053187	0.384717	-0.699519	-0.700834	0.003484	79.7297	-0.699552	-1.929329E+9	-1.805811E-12	NaN
695	1.000000	0.394046	7.37185e+06	-42339.1	1005.82	-29783	0.000000	0.000000	6.394910	0.064580	NaN	0.000000	0.001607	0.001746	28.0838	0.086033	0.002030	42.3736	-105.632	-166.231	0.015279	0.392755	-0.691504	-0.692796	0.064580	42.3736	-0.692647	-1.552721E+9	-4.159165E-11	NaN
695	1.000000	0.402018	7.37185e+06	-42339.1	1005.82	-29783	0.000000	0.000000	6.402880	0.004731	NaN	0.000000	0.001629	0.001761	28.0837	0.056285	0.002048	27.4826	173.368	-165.005	0.113443	0.400736	-0.683532	-0.684815	0.004731	27.4826	-0.683661	-1.170238E+9	-4.042743E-12	NaN
695	1.000000	0.410042	7.37185e+06	-42339.1	1005.82	-29783	0.000000	0.000000	6.410906	0.085834	NaN	0.000000	0.001637	0.001747	28.0839	0.057907	0.002056	28.1628	0.730991	-164.728	0.024173	0.408758	-0.675509	-0.676793	0.085834	28.1628	-0.677795	-9.728443E+8	-8.823034E-11	NaN
695	1.000000	0.417997	7.37185e+06	-42339.1	1005.82	-29783	0.000000	0.000000	6.418861	0.073031	NaN	0.000000	0.001668	0.001792	28.084	0.085364	0.002076	41.1152	-63.0123	-165.718	0.036396	0.416734	-0.667554	-0.668817	0.073031	41.1152	-0.668886	-7.347628E+8	-9.939422E-11	NaN
695	1.000000	0.426049	7.37185e+06	-42339.1	1005.82	-29783	0.000000	0.000000	6.426910	-0.010986	NaN	0.000000	0.001728	0.001776	28.0839	0.024486	0.001991	12.298	-53.2559	-169.076	-0.028273	0.424747	-0.659502	-0.660803	-0.010986	12.298	-0.658832	-5.351362E+8	2.052979E-11	NaN
695	1.000000	0.434056	7.37185e+06	-42339.1	1005.82	-29783	0.000000	0.000000	6.434918	0.012975	NaN	0.000000	0.001673	0.001785	28.0837	0.048579	0.002035	23.8761	113.759	-165.312	-0.013124	0.432703	-0.651495	-0.652848	0.012975	23.8761	-0.651902	-4.300443E+8	-3.017214E-11	NaN
695	1.000000	0.442035	7.37185e+06	-42339.1	1005.82	-29783	0.000000	0.000000	6.442894	-0.042696	NaN	0.000000	0.001687	0.001753	28.0837	0.053649	0.002007	26.7244	52.3209	-166.676	-0.016747	0.440718	-0.643516	-0.644832	-0.042696	26.7244	-0.642318	-3.177502E+8	1.343699E-10	NaN
695	1.000000	0.450060	7.37185e+06	-42339.1	1005.82	-29783	0.000000	0.000000	6.450921	0.008413	NaN	0.000000	0.001675	0.001736	28.0838	0.039212	0.001906	20.5741	54.6542	-168.08	0.041407	0.448775	-0.635491	-0.636775	0.008413	20.5741	-0.635797	-2.585935E+8	-3.253290E-11	NaN
695	1.000000	0.458051	7.37185e+06	-42339.1	1005.82	-29783	0.000000	0.000000	6.458915	0.075003	NaN	0.000000	0.001696	0.001765	28.0834	0.153776	0.002075	74.092	5.484772	-165.467	0.060235	0.456715	-0.627500	-0.628836	0.075003	74.092	-0.628259	-2.037567E+8	-3.681011E-10	NaN
695	1.000000	0.466030	7.37185e+06	-42339.1	1005.82	-29783	0.000000	0.000000	6.466890	-0.022816	NaN	0.000000	0.001728	0.001749	28.0825	0.116071	0.002031	57.1611	54.3063	-169.579	-0.044500	0.464676	-0.619520	-0.620875	-0.022816	57.1611	-0.619221	-1.530827E+8	1.490461E-10	NaN
695	1.000000	0.474097	7.37185e+06	-42339.1	1005.82	-29783	0.000000	0.000000	6.474956	-0.058518	NaN	0.000000	0.001704	0.001726	28.0823	0.036059	0.001993	18.0955	-99.2792	-167.468	-0.047951	0.472801	-0.611453	-0.612750	-0.058518	18.0955	-0.609028	-1.108508E+8	5.279005E-10	NaN
695	1.000000	0.482041	7.37185e+06	-42339.1	1005.82	-29783	0.000000	0.000000	6.482899	-0.082676	NaN	0.000000	0.001694	0.001750	28.0823	0.059736	0.001898	31.4661	-148.511	-166.507	-0.028935	0.480753	-0.603510	-0.604798	-0.082676	31.4661	-0.601539	-8.742963E+7	9.456306E-10	NaN
695	1.000000	0.490111	7.37185e+06	-42339.1	1005.82	-29783	0.000000	0.000000	6.490972	-0.003486	NaN	0.000000	0.001695	0.001773	28.0825	0.018685	0.002034	9.188068	-48.6709	-165.095	-0.019246	0.488774	-0.595440	-0.596777	-0.003486	9.188068	-0.595155	-7.140336E+7	4.882823E-11	NaN
695	1.000000	0.498084	7.37185e+06	-42339.1	1005.82	-29783	0.000000	0.000000	6.498948	0.054446	NaN	0.000000	0.001692	0.001745	28.0826	0.067987	0.002017	33.7081	-111.694	-166.151	0.042527	0.496769	-0.587466	-0.588782	0.054446	33.7081	-0.588678	-5.813455E+7	-9.365507E-10	NaN
695	1.000000	0.506094	7.37185e+06	-42339.1	1005.82	-29783	0.000000	0.000000	6.506957	0.036412	NaN	0.000000	0.001668	0.001732	28.0827	0.056901	0.001969	28.9024	-17.3271	-166.715	0.087888	0.504749	-0.579457	-0.580802	0.036412	28.9024	-0.580401	-4.469571E+7	-8.146750E-10	NaN
695	1.000000	0.514088	7.37185e+06	-42339.1	1005.82	-29783	0.000000	0.000000	6.514949	0.004849	NaN	0.000000	0.001701	0.001749	28.0828	0.062270	0.001954	31.8618	62.1059	-166.99	0.050632	0.512757	-0.571463	-0.572794	0.004849	31.8618	-0.571577	-3.376104E+7	-1.436399E-10	NaN
695	1.000000	0.522088	7.37185e+06	-42339.1	1005.82	-29783	0.000000	0.000000	6.522949	-0.007103	NaN	0.000000	0.001690	0.001755	28.0827	0.065879	0.002050	32.1317	62.7113	-164.764	-0.028447	0.520783	-0.563463	-0.564767	-0.007103	32.1317	-0.563297	-2.594068E+7	2.738226E-10	NaN
695	1.000000	0.530108	7.37185e+06	-42339.1	1005.82	-29783	0.000000	0.000000	6.530969	0.013180	NaN	0.000000	0.001706	0.001715	28.0824	0.128147	0.002011	63.7231	149.129	-169.654	0.004328	0.528830	-0.555443	-0.556721	0.013180	63.7231	-0.555598	-2.029871E+7	-6.493138E-10	NaN
695	1.000000	0.538078	7.37185e+06	-42339.1	1005.82	-29783	0.000000	0.000000	6.538942	0.056506	NaN	0.000000	0.001714	0.001723	28.0826	0.101481	0.002038	49.7878	-33.9527	-164.22	0.055510	0.536747	-0.547472	-0.548804	0.056506	49.7878	-0.548324	-1.609662E+7	-3.510433E-9	NaN
695	1.000000	0.546108	7.37185e+06	-42339.1	1005.82	-29783	0.000000	0.000000	6.546970	0.018224	NaN	0.000000	0.001720	0.001720	28.0822	0.062321	0.002016	30.9134	-177.432	-166.471	-0.011766	0.544807	-0.539443	-0.540743	0.018224	30.9134	-0.539885	-1.229595E+7	-1.482126E-9	NaN
695	1.000000	0.554098	7.37185e+06	-42339.1	1005.82	-29783	0.000000	0.000000	6.554962	0.064775	NaN	0.000000	0.001718	0.001715	28.0824	0.051342	0.002051	25.0304	-29.1226	-168.168	-0.026194	0.552741	-0.531452	-0.532810	0.064775	25.0304	-0.533393	-9.99288e+06	-6.482160E-9	NaN
695	1.000000	0.562115	7.37185e+06	-42339.1	1005.82	-29783	0.000000	0.000000	6.562976	0.006157	NaN	0.000000	0.001719	0.001727	28.0826	0.132527	0.002068	64.0979	64.8368	-166.978	0.113880	0.560799	-0.523436	-0.524752	0.006157	64.0979	-0.523508	-7.2841e+06	-8.452563E-10	NaN
695	1.000000	0.570127	7.37185e+06	-42339.1	1005.82	-29783	0.000000	0.000000	6.570992	0.102576	NaN	0.000000	0.001748	0.001760	28.0825	0.043692	0.001947	22.444	20.3477	-163.975	0.087520	0.568780	-0.515424	-0.516771	0.102576	22.444	-0.518852	-6.2752e+06	-1.634618E-8	NaN
695	1.000000	0.578120	7.37185e+06	-42339.1	1005.82	-29783	0.000000	0.000000	6.578982	0.006521	NaN	0.000000	0.001710	0.001748	28.0827	0.019365	0.001911	10.1336	-121.768	-165.155	-0.042720	0.576734	-0.507431	-0.508817	0.006521	10.1336	-0.507913	-4.41921e+06	-1.475582E-9	NaN
695	1.000000	0.586109	7.37185e+06	-42339.1	1005.82	-29783	0.000000	0.000000	6.586972	0.039295	NaN	0.000000	0.001696	0.001753	28.0826	0.053270	0.002001	26.6248	86.0231	-166.432	0.095474	0.584798	-0.499441	-0.500752	0.039295	26.6248	-0.500548	-3.48873e+06	-1.126342E-8	NaN
695	1.000000	0.594107	7.37185e+06	-42339.1	1005.82	-29783	0.000000	0.000000	6.594968	-0.014416	NaN	0.000000	0.001662	0.001774	28.0828	0.096247	0.001958	49.165	-143.529	-167.432	-0.044379	0.592797	-0.491444	-0.492754	-0.014416	49.165	-0.491224	-2.58518e+06	5.576311E-9	NaN
695	1.000000	0.602106	7.37185e+06	-42339.1	1005.82	-29783	0.000000	0.000000	6.602967	0.009542	NaN	0.000000	0.001680	0.001748	28.0838	0.040723	0.002193	18.5698	96.9724	-161.037	-0.102383	0.600822	-0.483445	-0.484729	0.009542	18.5698	-0.483830	-2.03765e+06	-4.682997E-9	NaN
695	1.000000	0.610164	7.37185e+06	-42339.1	1005.82	-29783	0.000000	0.000000	6.611025	-0.009725	NaN	0.000000	0.001657	0.001743	28.0839	0.025846	0.002069	12.4907	-133.441	-166.609	-0.016965	0.608832	-0.475387	-0.476718	-0.009725	12.4907	-0.474803	-1.52312e+06	6.385219E-9	NaN
695	1.000000	0.618135	7.37185e+06	-42339.1	1005.82	-29783	0.000000	0.000000	6.618994	-0.049662	NaN	0.000000	0.001626	0.001741	28.0842	0.092317	0.001987	46.4531	-44.3043	-165.437	0.092333	0.616824	-0.467416	-0.468727	-0.049662	46.4531	-0.466614	-1.16923e+06	4.247440E-8	NaN
695	1.000000	0.626157	7.37185e+06	-42339.1	1005.82	-29783	0.000000	0.000000	6.627021	0.078801	NaN	0.000000	0.001627	0.001752	28.0837	0.062649	0.001848	33.8946	-165.525	-168.608	0.053322	0.624794	-0.459394	-0.460757	0.078801	33.8946	-0.461137	-979492	-8.045138E-8	NaN
695	1.000000	0.634136	7.37185e+06	-42339.1	1005.82	-29783	0.000000	0.000000	6.634998	0.024637	NaN	0.000000	0.001640	0.001769	28.0838	0.115101	0.001959	58.7591	-56.5001	-166.662	0.089701	0.632782	-0.451414	-0.452769	0.024637	58.7591	-0.451729	-722245	-3.411191E-8	NaN
695	1.000000	0.642158	7.37185e+06	-42339.1	1005.82	-29783	0.000000	0.000000	6.643020	0.023203	NaN	0.000000	0.001621	0.001750	28.0837	0.066941	0.002034	32.9148	132.45	-163.513	0.042905	0.640856	-0.443392	-0.444695	0.023203	32.9148	-0.443921	-560634	-4.138752E-8	NaN
695	1.000000	0.650104	7.37185e+06	-42339.1	1005.82	-29783	0.000000	0.000000	6.650968	0.060650	NaN	0.000000	0.001661	0.001707	28.0837	0.142972	0.002075	68.8936	-146.384	-164.411	0.042117	0.648835	-0.435446	-0.436716	0.060650	68.8936	-0.436106	-434897	-1.394587E-7	NaN
695	1.000000	0.658154	7.37185e+06	-42339.1	1005.82	-29783	0.000000	0.000000	6.659017	0.040753	NaN	0.000000	0.001639	0.001703	28.0838	0.072180	0.002032	35.5214	39.1052	-164.679	-0.000798	0.656805	-0.427397	-0.428745	0.040753	35.5214	-0.428257	-336824	-1.209923E-7	NaN
695	1.000000	0.666119	7.37185e+06	-42339.1	1005.82	-29783	0.000000	0.000000	6.666983	0.066123	NaN	0.000000	0.001647	0.001725	28.0838	0.016534	0.002099	7.875361	43.7671	-166.92	0.013005	0.664863	-0.419432	-0.420688	0.066123	7.875361	-0.425729	-310174	-2.131805E-7	NaN
695	1.000000	0.674144	7.37185e+06	-42339.1	1005.82	-29783	0.000000	0.000000	6.675007	0.052477	NaN	0.000000	0.001650	0.001718	28.0839	0.018896	0.001860	10.1599	-69.8649	-167.097	-0.009117	0.672861	-0.411407	-0.412689	0.052477	10.1599	-0.415281	-220518	-2.379710E-7	NaN
695	1.000000	0.682160	7.37185e+06	-42339.1	1005.82	-29783	0.000000	0.000000	6.683023	0.034845	NaN	0.000000	0.001648	0.001673	28.0838	0.090428	0.001997	45.2927	-96.3271	-166.354	0.115751	0.680874	-0.403390	-0.404677	0.034845	45.2927	-0.403967	-152245	-2.288735E-7	NaN
695	1.000000	0.690142	7.37185e+06	-42339.1	1005.82	-29783	0.000000	0.000000	6.691003	0.014570	NaN	0.000000	0.001620	0.001672	28.0837	0.044176	0.002118	20.854	77.6625	-165.662	-0.019038	0.688856	-0.395409	-0.396694	0.014570	20.854	-0.395933	-116939	-1.245950E-7	NaN
695	1.000000	0.698182	7.37185e+06	-42339.1	1005.82	-29783	0.000000	0.000000	6.699047	0.093578	NaN	0.000000	0.001617	0.001697	28.0837	0.088844	0.002039	43.5648	-129.703	-165.883	0.024700	0.696896	-0.387369	-0.388654	0.093578	43.5648	-0.388980	-93019.1	-1.006007E-6	NaN
695	1.000000	0.706148	7.37185e+06	-42339.1	1005.82	-29783	0.000000	0.000000	6.707006	-0.092274	NaN	0.000000	0.001621	0.001661	28.0838	0.061842	0.001991	31.0632	-40.3049	-164.858	-0.064111	0.704802	-0.379402	-0.380748	-0.092274	31.0632	-0.377175	-62997.2	1.464734E-6	NaN
695	1.000000	0.714165	7.37185e+06	-42339.1	1005.82	-29783	0.000000	0.000000	6.715025	-0.017200	NaN	0.000000	0.001698	0.001668	28.0839	0.029144	0.002085	13.981	-88.7067	-168.967	0.031813	0.712885	-0.371386	-0.372665	-0.017200	13.981	-0.370463	-50442.8	3.409715E-7	NaN
695	1.000000	0.722176	7.37185e+06	-42339.1	1005.82	-29783	0.000000	0.000000	6.723038	0.020108	NaN	0.000000	0.001707	0.001641	28.0838	0.070554	0.001956	36.0773	-115.386	-170.123	0.008193	0.720848	-0.363374	-0.364703	0.020108	36.0773	-0.363792	-40422.6	-4.974523E-7	NaN
695	1.000000	0.730147	7.37185e+06	-42339.1	1005.82	-29783	0.000000	0.000000	6.731006	-0.061838	NaN	0.000000	0.001701	0.001666	28.0838	0.105927	0.001981	53.464	-44.16	-160.709	-0.006864	0.728832	-0.355403	-0.356718	-0.061838	53.464	-0.354536	-29701.2	2.082021E-6	NaN
695	1.000000	0.738203	7.37185e+06	-42339.1	1005.82	-29783	0.000000	0.000000	6.739064	-0.003367	NaN	0.000000	0.001721	0.001621	28.0825	0.049945	0.001987	25.1325	40.9199	-166.813	0.009241	0.736903	-0.347348	-0.348647	-0.003367	25.1325	-0.347247	-23282.5	1.446190E-7	NaN
695	1.000000	0.746167	7.37185e+06	-42339.1	1005.82	-29783	0.000000	0.000000	6.747029	0.010468	NaN	0.000000	0.001691	0.001634	28.0825	0.081126	0.001908	42.5229	49.7637	-164.245	-0.050317	0.744807	-0.339384	-0.340743	0.010468	42.5229	-0.339568	-17999.5	-5.815711E-7	NaN
695	1.000000	0.754183	7.37185e+06	-42339.1	1005.82	-29783	0.000000	0.000000	6.755044	0.004313	NaN	0.000000	0.001673	0.001658	28.0825	0.113593	0.002026	56.0556	-169.026	-164.53	-0.016741	0.752888	-0.331368	-0.332662	0.004313	56.0556	-0.331426	-13687.5	-3.151114E-7	NaN
695	1.000000	0.762151	7.37185e+06	-42339.1	1005.82	-29783	0.000000	0.000000	6.763012	-0.010732	NaN	0.000000	0.001675	0.001661	28.0824	0.061854	0.002004	30.865	74.4009	-164.061	0.022618	0.760858	-0.323400	-0.324693	-0.010732	30.865	-0.323139	-10346.7	1.037200E-6	NaN
695	1.000000	0.770213	7.37185e+06	-42339.1	1005.82	-29783	0.000000	0.000000	6.771074	-0.006537	NaN	0.000000	0.001683	0.001683	28.0827	0.075758	0.001954	38.7658	-52.3937	-167.692	0.011408	0.768855	-0.315337	-0.316695	-0.006537	38.7658	-0.315211	-7907.87	8.266872E-7	NaN
695	1.000000	0.778184	7.37185e+06	-42339.1	1005.82	-29783	0.000000	0.000000	6.779044	-0.023292	NaN	0.000000	0.001669	0.001663	28.0825	0.068470	0.001942	35.2498	65.8788	-167.419	-0.042535	0.776816	-0.307366	-0.308735	-0.023292	35.2498	-0.306871	-5952.61	3.912975E-6	NaN
695	1.000000	0.786181	7.37185e+06	-42339.1	1005.82	-29783	0.000000	0.000000	6.787044	0.057389	NaN	0.000000	0.001728	0.001651	28.0825	0.067706	0.002022	33.4875	128.968	-166.941	0.060908	0.784832	-0.299370	-0.300719	0.057389	33.4875	-0.300655	-4812.67	-1.192447E-5	NaN
695	1.000000	0.794187	7.37185e+06	-42339.1	1005.82	-29783	0.000000	0.000000	6.795048	0.003158	NaN	0.000000	0.001635	0.001640	28.0823	0.055294	0.002214	24.9698	-34.8422	-168.006	0.060540	0.792864	-0.291364	-0.292687	0.003158	24.9698	-0.291458	-3508.66	-9.001306E-7	NaN
695	1.000000	0.802190	7.37185e+06	-42339.1	1005.82	-29783	0.000000	0.000000	6.803050	-0.009664	NaN	0.000000	0.001623	0.001684	28.0825	0.064913	0.001906	34.0564	127.832	-166.165	-0.021507	0.800889	-0.283361	-0.284662	-0.009664	34.0564	-0.283148	-2632.76	3.670778E-6	NaN
695	1.000000	0.810234	7.37185e+06	-42339.1	1005.82	-29783	0.000000	0.000000	6.811096	0.020243	NaN	0.000000	0.001686	0.001679	28.0827	0.167169	0.001952	85.6487	75.7516	-167.144	-0.011874	0.808955	-0.275317	-0.276595	0.020243	85.6487	-0.275494	-2017.83	-1.003217E-5	NaN
695	1.000000	0.818226	7.37185e+06	-42339.1	1005.82	-29783	0.000000	0.000000	6.819089	0.045180	NaN	0.000000	0.001662	0.001643	28.0825	0.083756	0.001996	41.9546	20.0724	-160.669	-0.006736	0.816935	-0.267325	-0.268615	0.045180	41.9546	-0.268133	-1560.05	-2.896056E-5	NaN
695	1.000000	0.826218	7.37185e+06	-42339.1	1005.82	-29783	0.000000	0.000000	6.827079	-0.016474	NaN	0.000000	0.001660	0.001695	28.0828	0.129914	0.002095	62.0205	-144.516	-165.943	0.016426	0.824919	-0.259333	-0.260632	-0.016474	62.0205	-0.259133	-1136.65	1.449306E-5	NaN
695	1.000000	0.834215	7.37185e+06	-42339.1	1005.82	-29783	0.000000	0.000000	6.835080	0.076651	NaN	0.000000	0.001662	0.001678	28.0825	0.038203	0.002087	18.3058	173.883	-164.899	0.035554	0.832915	-0.251335	-0.252636	0.076651	18.3058	-0.254476	-963.925	-7.951921E-5	NaN
695	1.000000	0.842205	7.37185e+06	-42339.1	1005.82	-29783	0.000000	0.000000	6.843068	0.061699	NaN	0.000000	0.001638	0.001681	28.0825	0.087700	0.001994	43.991	165.203	-166.727	0.002959	0.840901	-0.243346	-0.244650	0.061699	43.991	-0.244398	-673.117	-9.166129E-5	NaN
695	1.000000	0.850246	7.37185e+06	-42339.1	1005.82	-29783	0.000000	0.000000	6.851107	-0.000720	NaN	0.000000	0.001652	0.001628	28.0822	0.046669	0.001964	23.7579	-31.0746	-165.404	0.139441	0.848908	-0.235305	-0.236642	-0.000720	23.7579	-0.235282	-484.931	1.483779E-6	NaN
695	1.000000	0.858241	7.37185e+06	-42339.1	1005.82	-29783	0.000000	0.000000	6.859104	0.028473	NaN	0.000000	0.001621	0.001619	28.0824	0.128525	0.001927	66.6967	170.302	-167.091	0.004915	0.856910	-0.227309	-0.228641	0.028473	66.6967	-0.227630	-367.313	-7.751677E-5	NaN
695	1.000000	0.866205	7.37185e+06	-42339.1	1005.82	-29783	0.000000	0.000000	6.867066	-0.010079	NaN	0.000000	0.001598	0.001705	28.0828	0.077817	0.001977	39.367	72.7593	-166.843	-0.030557	0.864922	-0.219345	-0.220629	-0.010079	39.367	-0.219153	-269.241	3.743460E-5	NaN
695	1.000000	0.874236	7.37185e+06	-42339.1	1005.82	-29783	0.000000	0.000000	6.875099	0.059373	NaN	0.000000	0.001597	0.001627	28.0837	0.027904	0.002093	13.3301	139.932	-170.081	0.105306	0.872940	-0.211315	-0.212610	0.059373	13.3301	-0.214656	-228.019	-0.000260	NaN
695	1.000000	0.882243	7.37185e+06	-42339.1	1005.82	-29783	0.000000	0.000000	6.883102	-0.052624	NaN	0.000000	0.001615	0.001608	28.0838	0.071712	0.001968	36.4461	143.222	-165.847	-0.008417	0.880955	-0.203308	-0.204596	-0.052624	36.4461	-0.202225	-143.284	0.000367	NaN
695	1.000000	0.890224	7.37185e+06	-42339.1	1005.82	-29783	0.000000	0.000000	6.891088	0.060121	NaN	0.000000	0.001619	0.001626	28.0838	0.091018	0.001940	46.9063	165.202	-167.134	0.056121	0.888913	-0.195327	-0.196638	0.060121	46.9063	-0.196288	-114.423	-0.000525	NaN
695	1.000000	0.898217	7.37185e+06	-42339.1	1005.82	-29783	0.000000	0.000000	6.899078	0.001826	NaN	0.000000	0.001666	0.001643	28.0839	0.110410	0.002041	54.1086	-132.027	-168.265	-0.000658	0.896913	-0.187334	-0.188638	0.001826	54.1086	-0.187359	-81.2472	-2.247165E-5	NaN
695	1.000000	0.906235	7.37185e+06	-42339.1	1005.82	-29783	0.000000	0.000000	6.907096	-0.006867	NaN	0.000000	0.001639	0.001607	28.084	0.052776	0.002100	25.133	-176.772	-167.166	-0.023587	0.904887	-0.179316	-0.180664	-0.006867	25.133	-0.179111	-58.9289	0.000117	NaN
695	1.000000	0.914276	7.37185e+06	-42339.1	1005.82	-29783	0.000000	0.000000	6.915140	0.067307	NaN	0.000000	0.001624	0.001624	28.0837	0.073558	0.001958	37.5689	159.455	-165.035	0.086417	0.912969	-0.171274	-0.172582	0.067307	37.5689	-0.172618	-45.5981	-0.001476	NaN
695	1.000000	0.922226	7.37185e+06	-42339.1	1005.82	-29783	0.000000	0.000000	6.923089	0.039474	NaN	0.000000	0.001599	0.001691	28.0838	0.064414	0.001869	34.4668	-134.137	-169.545	0.030372	0.920912	-0.163325	-0.164639	0.039474	34.4668	-0.164184	-32.5057	-0.001214	NaN
695	1.000000	0.930235	7.37185e+06	-42339.1	1005.82	-29783	0.000000	0.000000	6.931098	0.024713	NaN	0.000000	0.001634	0.001711	28.0834	0.065964	0.001954	33.7599	-141.613	-164.918	0.105206	0.928957	-0.155315	-0.156594	0.024713	33.7599	-0.155864	-23.1268	-0.001069	NaN
695	1.000000	0.938301	7.37185e+06	-42339.1	1005.82	-29783	0.000000	0.000000	6.939161	-0.027025	NaN	0.000000	0.001646	0.001684	28.0838	0.083740	0.002002	41.8256	-89.4147	-166.943	0.028934	0.936949	-0.147250	-0.148602	-0.027025	41.8256	-0.146765	-15.8029	0.001710	NaN
695	1.000000	0.946240	7.37185e+06	-42339.1	1005.82	-29783	0.000000	0.000000	6.947101	0.004903	NaN	0.000000	0.001654	0.001699	28.0835	0.043310	0.002007	21.5783	-93.5638	-169.706	0.062466	0.944995	-0.139311	-0.140555	0.004903	21.5783	-0.139481	-11.5669	-0.000424	NaN
695	1.000000	0.954246	7.37185e+06	-42339.1	1005.82	-29783	0.000000	0.000000	6.955107	-0.016233	NaN	0.000000	0.001679	0.001709	28.0835	0.047034	0.002016	23.3354	146.459	-166.312	0.032615	0.953014	-0.131304	-0.132536	-0.016233	23.3354	-0.130783	-7.892139	0.002057	NaN
695	1.000000	0.962263	7.37185e+06	-42339.1	1005.82	-29783	0.000000	0.000000	6.963126	0.049557	NaN	0.000000	0.001643	0.001702	28.0835	0.132625	0.002033	65.2497	125.039	-166.114	-0.050514	0.960949	-0.123288	-0.124601	0.049557	65.2497	-0.123857	-5.772046	-0.008586	NaN
695	1.000000	0.970292	7.37185e+06	-42339.1	1005.82	-29783	0.000000	0.000000	6.971155	0.048909	NaN	0.000000	0.001655	0.001671	28.0835	0.003438	0.002061	1.668023	-10.0354	-166.704	0.053973	0.968931	-0.115258	-0.116619	0.048909	1.668023	-0.137249	-10.4972	-0.004659	NaN
695	1.000000	0.978299	7.37185e+06	-42339.1	1005.82	-29783	0.000000	0.000000	6.979162	0.038713	NaN	0.000000	0.001628	0.001700	28.0837	0.154976	0.002011	77.0643	-83.4401	-165.905	0.070972	0.976931	-0.107251	-0.108620	0.038713	77.0643	-0.107628	-2.676561	-0.014464	NaN
695	1.000000	0.986284	7.37185e+06	-42339.1	1005.82	-29783	0.000000	0.000000	6.987147	0.030654	NaN	0.000000	0.001606	0.001704	28.0832	0.071063	0.001984	35.8097	157.378	-167.214	-0.036381	0.985013	-0.099266	-0.100538	0.030654	35.8097	-0.099908	-1.818611	-0.016856	NaN
695	1.000000	0.994295	7.37185e+06	-42339.1	1005.82	-29783	0.000000	0.000000	6.995159	0.051434	NaN	0.000000	0.001667	0.001666	28.0832	0.096917	0.001934	50.1176	155.05	-165.814	0.046518	0.992942	-0.091255	-0.092609	0.051434	50.1176	-0.092025	-1.205156	-0.042678	NaN
695	1.000000	1.002271	7.37185e+06	-42339.1	1005.82	-29783	0.000000	0.000000	7.003132	-0.003672	NaN	0.000000	0.001628	0.001686	28.0833	0.050956	0.002017	25.2669	125.182	-166.915	-0.071693	1.000992	-0.083280	-0.084559	-0.003672	25.2669	-0.083171	-0.741573	0.004952	NaN
695	1.000000	1.010279	7.37185e+06	-42339.1	1005.82	-29783	0.000000	0.000000	7.011143	0.056371	NaN	0.000000	0.001708	0.001682	28.0821	0.064871	0.002090	31.0321	106.984	-168.235	0.025006	1.009003	-0.075271	-0.076548	0.056371	31.0321	-0.076634	-0.508801	-0.110792	NaN
695	1.000000	1.018271	7.37185e+06	-42339.1	1005.82	-29783	0.000000	0.000000	7.019133	0.020950	NaN	0.000000	0.001696	0.001628	28.0823	0.141037	0.001972	71.5223	36.4997	-163.096	-0.004612	1.016969	-0.067279	-0.068582	0.020950	71.5223	-0.067499	-0.291947	-0.071761	NaN
695	1.000000	1.026290	7.37185e+06	-42339.1	1005.82	-29783	0.000000	0.000000	7.027150	-0.036638	NaN	0.000000	0.001697	0.001662	28.0821	0.035110	0.002219	15.8255	86.9437	-167.178	0.029949	1.025027	-0.059260	-0.060523	-0.036638	15.8255	-0.057524	-0.152726	0.239895	NaN
695	1.000000	1.034305	7.37185e+06	-42339.1	1005.82	-29783	0.000000	0.000000	7.035167	0.019634	NaN	0.000000	0.001690	0.001698	28.0823	0.042646	0.002146	19.8683	80.7771	-168.109	-0.015486	1.033026	-0.051246	-0.052524	0.019634	19.8683	-0.051987	-0.104735	-0.187468	NaN
695	1.000000	1.042261	7.37185e+06	-42339.1	1005.82	-29783	0.000000	0.000000	7.043125	0.069975	NaN	0.000000	0.001670	0.001663	28.0819	0.107885	0.001982	54.4255	169.854	-167.537	-0.029276	1.040989	-0.043290	-0.044562	0.069975	54.4255	-0.044254	-0.060979	-1.147531	NaN
695	1.000000	1.050310	7.37185e+06	-42339.1	1005.82	-29783	0.000000	0.000000	7.051172	0.022211	NaN	0.000000	0.001653	0.001656	28.0823	0.083687	0.002081	40.2151	50.958	-163.587	-0.014530	1.049033	-0.035240	-0.036518	0.022211	40.2151	-0.035655	-0.033482	-0.663362	NaN
695	1.000000	1.058309	7.37185e+06	-42339.1	1005.82	-29783	0.000000	0.000000	7.059168	-0.057020	NaN	0.000000	0.001662	0.001675	28.0823	0.064808	0.002013	32.1893	149.047	-164.473	-0.068775	1.056898	-0.027242	-0.028653	-0.057020	32.1893	-0.025913	-0.017828	3.198247	NaN
695	1.000000	1.066307	7.37185e+06	-42339.1	1005.82	-29783	0.000000	0.000000	7.067169	0.019601	NaN	0.000000	0.001667	0.001735	28.082	0.062415	0.001897	32.8969	36.8682	-164.007	0.096293	1.065006	-0.019244	-0.020545	0.019601	32.8969	-0.019691	-0.012335	-1.589072	NaN
695	1.000000	1.074306	7.37185e+06	-42339.1	1005.82	-29783	0.000000	0.000000	7.075169	0.043084	NaN	0.000000	0.001646	0.001704	28.0823	0.133665	0.002011	66.4819	7.537304	-165.46	0.028401	1.072984	-0.011244	-0.012566	0.043084	66.4819	-0.011731	-0.007375	-5.842204	NaN
695	1.000000	1.082289	7.37185e+06	-42339.1	1005.82	-29783	0.000000	0.000000	7.083234	2.062392	NaN	0.000000	0.001675	0.001710	28.0818	2.822947	0.001918	1471.72	14.5543	-171.125	1.091460	1.081027	-0.003262	-0.004523	2.062392	1471.72	-0.004313	-0.002981	-691.916	NaN
695	2.000000	1.088933	7.37185e+06	-42339.1	1005.82	-29783	0.000000	0.000000	7.090114	7.788179	NaN	0.000000	0.001685	0.001702	28.0824	8.863096	0.001687	5252.82	10.0502	-175.692	7.107382	1.088495	0.003382	0.002944	7.788179	5252.82	0.002270	0.001774	4389.62	113936
695	2.000000	1.090944	7.37185e+06	-42339.1	1005.82	-29783	0.000000	0.000000	7.092190	9.352126	NaN	0.000000	0.001703	0.001673	28.0822	10.3248	0.001656	6234.78	8.551169	-175.485	9.078257	1.090706	0.005394	0.005156	9.352126	6234.78	0.004269	0.003476	2690.68	96620.6
695	2.000000	1.092941	7.37185e+06	-42339.1	1005.82	-29783	0.000000	0.000000	7.094326	12.7418	NaN	0.000000	0.001678	0.001682	28.082	12.9233	0.001821	7096.02	8.642188	-176.509	12.6447	1.092689	0.007390	0.007138	12.7418	7096.02	0.006043	0.005106	2495.49	90729.9
695	2.000000	1.094899	7.37185e+06	-42339.1	1005.82	-29783	0.000000	0.000000	7.096518	18.4488	NaN	0.000000	0.001689	0.001640	28.0821	14.467	0.001740	8315.66	3.887224	-171.98	18.2715	1.094561	0.009348	0.009011	18.4488	8315.66	0.007684	0.006719	2745.57	92683.4
695	2.000000	1.096869	7.37185e+06	-42339.1	1005.82	-29783	0.000000	0.000000	7.098654	22.467	NaN	0.000000	0.001669	0.001692	28.082	17.3216	0.001888	9175.65	3.984792	-173.603	21.421	1.096585	0.011318	0.011034	22.467	9175.65	0.009482	0.008612	2608.94	90337.7
695	2.000000	1.098858	7.37185e+06	-42339.1	1005.82	-29783	0.000000	0.000000	7.100832	27.0782	NaN	0.000000	0.001686	0.001681	28.0826	19.5882	0.001765	11101.1	7.947421	179.938	25.4627	1.098593	0.013308	0.013043	27.0782	11101.1	0.011478	0.010871	2490.85	97275.7
695	2.000000	1.100844	7.37185e+06	-42339.1	1005.82	-29783	0.000000	0.000000	7.102912	29.3574	NaN	0.000000	0.001685	0.001659	28.0819	21.6351	0.001842	11745.3	6.923239	-178.612	27.1683	1.100504	0.015293	0.014953	29.3574	11745.3	0.013419	0.013234	2218.27	93279.8
695	2.000000	1.102888	7.37185e+06	-42339.1	1005.82	-29783	0.000000	0.000000	7.105291	37.522	NaN	0.000000	0.001633	0.001679	28.0833	23.5879	0.001819	12968.7	6.793433	-179.499	36.8697	1.102570	0.017337	0.017019	37.522	12968.7	0.015167	0.015509	2419.31	95142
695	2.000000	1.104853	7.37185e+06	-42339.1	1005.82	-29783	0.000000	0.000000	7.107538	44.3938	NaN	0.000000	0.001754	0.001692	28.0836	25.1141	0.001845	13613.7	4.293060	-177.731	43.1013	1.104584	0.019302	0.019033	44.3938	13613.7	0.016856	0.017841	2488.32	93119.7
695	2.000000	1.106851	7.37185e+06	-42339.1	1005.82	-29783	0.000000	0.000000	7.109611	46.1826	NaN	0.000000	0.001718	0.001725	28.0834	27.0792	0.001894	14300.9	1.705731	-174.329	45.0491	1.106499	0.021301	0.020948	46.1826	14300.9	0.018879	0.020811	2219.17	90571.4
695	2.000000	1.108832	7.37185e+06	-42339.1	1005.82	-29783	0.000000	0.000000	7.111849	52.4401	NaN	0.000000	0.001753	0.001699	28.0846	28.6663	0.001819	15762.8	5.005121	-179.597	51.545	1.108550	0.023281	0.022999	52.4401	15762.8	0.020786	0.023793	2204.02	93364.4
695	2.000000	1.110810	7.37185e+06	-42339.1	1005.82	-29783	0.000000	0.000000	7.114126	59.7347	NaN	0.000000	0.001729	0.001707	28.0836	30.7253	0.001790	17166.6	4.243060	-179.449	58.3262	1.110561	0.025259	0.025010	59.7347	17166.6	0.022649	0.026877	2222.48	95667.2
695	2.000000	1.112843	7.37185e+06	-42339.1	1005.82	-29783	0.000000	0.000000	7.116497	67.9542	NaN	0.000000	0.001696	0.001685	28.0832	32.5276	0.001882	17286.3	7.643439	178.511	66.4759	1.112485	0.027293	0.026935	67.9542	17286.3	0.024344	0.029834	2277.76	91437.1
695	2.000000	1.114828	7.37185e+06	-42339.1	1005.82	-29783	0.000000	0.000000	7.118750	74.4625	NaN	0.000000	0.001695	0.001720	28.0837	33.338	0.001814	18381.4	4.366539	-179.604	73.5434	1.114515	0.029278	0.028964	74.4625	18381.4	0.026239	0.033309	2235.49	92017.3
695	2.000000	1.116832	7.37185e+06	-42339.1	1005.82	-29783	0.000000	0.000000	7.120943	79.0807	NaN	0.000000	0.001708	0.001671	28.0835	36.3503	0.001933	18804	5.862165	177.63	78.0841	1.116520	0.031281	0.030969	79.0807	18804	0.028127	0.036951	2140.18	89374.3
695	2.000000	1.118917	7.37185e+06	-42339.1	1005.82	-29783	0.000000	0.000000	7.123177	82.719	NaN	0.000000	0.001698	0.001677	28.0838	37.1834	0.001810	20546.4	4.995932	177.458	83.7987	1.118639	0.033366	0.033088	82.719	20546.4	0.030346	0.041465	1994.93	92187.1
695	2.000000	1.120844	7.37185e+06	-42339.1	1005.82	-29783	0.000000	0.000000	7.125563	93.8741	NaN	0.000000	0.001739	0.001665	28.0835	39.049	0.001746	22368.4	6.314485	176.132	94.4852	1.120541	0.035293	0.034990	93.8741	22368.4	0.032146	0.045309	2071.87	96009.9
695	2.000000	1.122829	7.37185e+06	-42339.1	1005.82	-29783	0.000000	0.000000	7.127892	102.231	NaN	0.000000	0.001709	0.001653	28.0834	40.9267	0.001893	21621	6.368652	178.182	100.992	1.122431	0.037278	0.036880	102.231	21621	0.033732	0.048835	2093.4	89389.1
695	2.000000	1.124854	7.37185e+06	-42339.1	1005.82	-29783	0.000000	0.000000	7.130138	107.625	NaN	0.000000	0.001717	0.001679	28.0836	42.6236	0.001800	23674.2	4.451677	177.345	108.342	1.124513	0.039303	0.038962	107.625	23674.2	0.035893	0.053847	1998.73	93211.3
695	2.000000	1.126818	7.37185e+06	-42339.1	1005.82	-29783	0.000000	0.000000	7.132466	116.488	NaN	0.000000	0.001723	0.001701	28.0834	44.9431	0.001730	25985.4	5.960869	174.79	115.155	1.126555	0.041267	0.041004	116.488	25985.4	0.037905	0.058726	1983.58	97968.8
695	2.000000	1.128798	7.37185e+06	-42339.1	1005.82	-29783	0.000000	0.000000	7.134754	123.962	NaN	0.000000	0.001722	0.001723	28.0841	46.1574	0.001933	23873.2	6.373057	175.947	121.315	1.128439	0.043247	0.042888	123.962	23873.2	0.039353	0.062366	1987.65	87339.1
695	2.000000	1.130826	7.37185e+06	-42339.1	1005.82	-29783	0.000000	0.000000	7.137142	132.713	NaN	0.000000	0.001730	0.001722	28.0836	48.6055	0.001775	27386.7	6.798734	174.236	133.458	1.130485	0.045275	0.044934	132.713	27386.7	0.041641	0.068338	1942.01	95715.5
695	2.000000	1.132868	7.37185e+06	-42339.1	1005.82	-29783	0.000000	0.000000	7.139652	144.099	NaN	0.000000	0.001710	0.001692	28.0835	51.3945	0.001923	26721.2	8.834393	173.551	143.43	1.132437	0.047318	0.046886	144.099	26721.2	0.043273	0.072761	1980.43	90506.3
695	2.000000	1.134790	7.37185e+06	-42339.1	1005.82	-29783	0.000000	0.000000	7.142042	155.516	NaN	0.000000	0.001650	0.001731	28.0835	51.7158	0.001810	28574.5	1.264684	179.397	153.999	1.134482	0.049239	0.048931	155.516	28574.5	0.045157	0.078034	1992.93	93456.6
695	2.000000	1.136796	7.37185e+06	-42339.1	1005.82	-29783	0.000000	0.000000	7.144333	162.424	NaN	0.000000	0.001593	0.001704	28.0822	54.81	0.001785	30700.8	7.097437	172.71	161.309	1.136397	0.051245	0.050846	162.424	30700.8	0.047277	0.084184	1929.39	96673.7
695	2.000000	1.138815	7.37185e+06	-42339.1	1005.82	-29783	0.000000	0.000000	7.146721	171.416	NaN	0.000000	0.001560	0.001719	28.0823	56.1823	0.001839	30550	9.205801	171.327	171.816	1.138468	0.053264	0.052917	171.416	30550	0.049056	0.089517	1914.91	93289.4
695	2.000000	1.140838	7.37185e+06	-42339.1	1005.82	-29783	0.000000	0.000000	7.149036	178.519	NaN	0.000000	0.001614	0.001727	28.0821	57.6174	0.001747	32973.4	6.230414	172.714	181.621	1.140558	0.055287	0.055007	178.519	32973.4	0.051227	0.096243	1854.88	97107.4
695	2.000000	1.142830	7.37185e+06	-42339.1	1005.82	-29783	0.000000	0.000000	7.151474	189.366	NaN	0.000000	0.001616	0.001687	28.0825	59.9774	0.001764	33992.7	8.786911	170.062	189.265	1.142531	0.057280	0.056980	189.366	33992.7	0.053102	0.102241	1852.15	97128.5
695	2.000000	1.144767	7.37185e+06	-42339.1	1005.82	-29783	0.000000	0.000000	7.153998	203.655	NaN	0.000000	0.001599	0.001719	28.0821	60.401	0.001733	34849.3	4.777999	174.224	201.439	1.144411	0.059216	0.058860	203.655	34849.3	0.054833	0.107936	1886.82	96913.5
695	2.000000	1.146806	7.37185e+06	-42339.1	1005.82	-29783	0.000000	0.000000	7.155989	202.491	NaN	0.000000	0.001620	0.001701	28.0825	64.5588	0.001837	35146.6	2.375019	175.772	202.434	1.146700	0.061255	0.061149	202.491	35146.6	0.056934	0.115045	1760.1	94672.2
695	2.000000	1.148740	7.37185e+06	-42339.1	1005.82	-29783	0.000000	0.000000	7.158979	228.186	NaN	0.000000	0.001589	0.001710	28.0824	66.0883	0.001809	36539.7	7.333203	171.343	224.269	1.148364	0.063189	0.062813	228.186	36539.7	0.058506	0.120504	1893.59	96169.4
695	2.000000	1.150711	7.37185e+06	-42339.1	1005.82	-29783	0.000000	0.000000	7.161341	237.682	NaN	0.000000	0.001650	0.001701	28.0825	68.7099	0.001836	37422.4	6.853434	171.352	232.118	1.150337	0.065161	0.064787	237.682	37422.4	0.060397	0.127236	1868.04	95851.5
695	2.000000	1.152771	7.37185e+06	-42339.1	1005.82	-29783	0.000000	0.000000	7.163845	248.493	NaN	0.000000	0.001646	0.001712	28.0824	69.2607	0.001889	36658.2	3.823520	175.021	246.538	1.152505	0.067220	0.066954	248.493	36658.2	0.062136	0.133579	1860.27	91637.8
695	2.000000	1.154756	7.37185e+06	-42339.1	1005.82	-29783	0.000000	0.000000	7.166369	261.587	NaN	0.000000	0.001616	0.001715	28.0821	70.3953	0.001816	38764.3	0.125939	177.746	257.804	1.154342	0.069206	0.068791	261.587	38764.3	0.064145	0.141089	1854.06	94288.4
695	2.000000	1.156857	7.37185e+06	-42339.1	1005.82	-29783	0.000000	0.000000	7.168599	264.764	NaN	0.000000	0.001640	0.001653	28.0824	74.0733	0.001801	41139.4	4.192214	172.573	266.66	1.156566	0.071306	0.071015	264.764	41139.4	0.066479	0.150061	1764.37	97028.1
695	2.000000	1.158786	7.37185e+06	-42339.1	1005.82	-29783	0.000000	0.000000	7.171237	281.985	NaN	0.000000	0.001646	0.001628	28.0822	74.6716	0.001899	39330.4	2.846090	174.987	280.097	1.158432	0.073235	0.072881	281.985	39330.4	0.067858	0.155484	1813.59	91129.3
695	2.000000	1.160828	7.37185e+06	-42339.1	1005.82	-29783	0.000000	0.000000	7.173652	291.079	NaN	0.000000	0.001602	0.001713	28.0826	77.7698	0.001816	42819.3	7.883177	169.141	291.191	1.160381	0.075277	0.074830	291.079	42819.3	0.070179	0.164816	1766.08	96363.5
695	2.000000	1.162771	7.37185e+06	-42339.1	1005.82	-29783	0.000000	0.000000	7.176297	308.16	NaN	0.000000	0.001620	0.001694	28.0823	79.7287	0.001811	44014	9.482001	167.765	306.923	1.162416	0.077220	0.076865	308.16	44014	0.071969	0.172189	1789.66	96908.3
695	2.000000	1.164664	7.37185e+06	-42339.1	1005.82	-29783	0.000000	0.000000	7.178900	325.445	NaN	0.000000	0.001589	0.001693	28.0822	79.3628	0.001865	42556.3	1.470365	176.229	318.921	1.164389	0.079113	0.078839	325.445	42556.3	0.073377	0.178097	1827.35	92131.5
695	2.000000	1.166763	7.37185e+06	-42339.1	1005.82	-29783	0.000000	0.000000	7.181552	338.884	NaN	0.000000	0.001600	0.001668	28.0823	82.5737	0.001764	46806	2.897523	174.01	337.445	1.166437	0.081212	0.080886	338.884	46806	0.075782	0.188401	1798.74	98522.2
695	2.000000	1.168748	7.37185e+06	-42339.1	1005.82	-29783	0.000000	0.000000	7.184074	351.955	NaN	0.000000	0.001596	0.001685	28.0821	82.9796	0.001770	46883.5	2.596062	174.068	349.497	1.168412	0.083197	0.082862	351.955	46883.5	0.077567	0.196224	1793.64	96698.1
695	2.000000	1.170762	7.37185e+06	-42339.1	1005.82	-29783	0.000000	0.000000	7.186480	361.475	NaN	0.000000	0.001557	0.001707	28.0838	85.7856	0.001754	48900.4	2.347236	173.814	359.118	1.170411	0.085211	0.084860	361.475	48900.4	0.079667	0.205621	1757.96	98526.1
695	2.000000	1.172674	7.37185e+06	-42339.1	1005.82	-29783	0.000000	0.000000	7.189068	377.933	NaN	0.000000	0.001629	0.001703	28.0842	89.1014	0.001961	45446.7	7.365177	169.74	371.089	1.172332	0.087123	0.086781	377.933	45446.7	0.080886	0.211170	1789.71	90356.4
695	2.000000	1.174730	7.37185e+06	-42339.1	1005.82	-29783	0.000000	0.000000	7.191621	390.015	NaN	0.000000	0.001605	0.001682	28.0833	89.9043	0.001734	51851.2	5.861257	170.036	387.649	1.174558	0.089179	0.089008	390.015	51851.2	0.083538	0.223476	1745.22	100211
695	2.000000	1.176795	7.37185e+06	-42339.1	1005.82	-29783	0.000000	0.000000	7.194531	410.58	NaN	0.000000	0.001637	0.001641	28.0834	92.2359	0.001817	50761.3	5.541427	170.811	410.92	1.176369	0.091244	0.090818	410.58	50761.3	0.085178	0.231251	1775.48	96441.7
695	2.000000	1.178782	7.37185e+06	-42339.1	1005.82	-29783	0.000000	0.000000	7.197056	423.698	NaN	0.000000	0.001642	0.001683	28.0834	92.8781	0.001798	51653.9	3.879003	171.863	422.069	1.178454	0.093231	0.092903	423.698	51653.9	0.087079	0.240418	1762.34	96248.2
695	2.000000	1.180738	7.37185e+06	-42339.1	1005.82	-29783	0.000000	0.000000	7.199690	440.167	NaN	0.000000	0.001635	0.001682	28.0834	95.3715	0.001731	55085.1	6.352715	168.998	438.103	1.180393	0.095187	0.094842	440.167	55085.1	0.089194	0.250815	1754.95	100492
695	2.000000	1.182784	7.37185e+06	-42339.1	1005.82	-29783	0.000000	0.000000	7.202304	453.986	NaN	0.000000	0.001602	0.001695	28.0837	96.807	0.001759	55045	4.492877	171.187	453.802	1.182573	0.097233	0.097022	453.986	55045	0.091047	0.260092	1745.48	98611.3
695	2.000000	1.184644	7.37185e+06	-42339.1	1005.82	-29783	0.000000	0.000000	7.204908	472.102	NaN	0.000000	0.001631	0.001633	28.0834	98.1237	0.001859	52783	2.312747	173.5	465.557	1.184440	0.099093	0.098890	472.102	52783	0.092385	0.266886	1768.92	93347.8
695	2.000000	1.186682	7.37185e+06	-42339.1	1005.82	-29783	0.000000	0.000000	7.207524	486.166	NaN	0.000000	0.001643	0.001666	28.0833	99.7228	0.001705	58500	2.272780	172.648	481.872	1.186476	0.101131	0.100925	486.166	58500	0.094898	0.279872	1737.1	101030