File: remote_trans/data/nanoindenter/0828-1/data/Data_2025-08-06,11h17m57s/2025-07-22_16-23-58_1_743.txt
2025-07-22, 16:23:58, 1
Index	Phase	Displacement	Time	Pos X	Pos Y	Pos Z	Rot A	Rot B	Piezo Z	Force A	Force B	Gripper	Voltage A	Voltage B	Temperature	Amplitude force	Amplitude pos	Stiffness	Phase shift	Phase excitation	Force A raw	Displacement raw	HMax	HMax raw	Real Force	Real Stiffness	Contact Depth	Area	Hardness	Reduced Mod.
[#]	[#]	[um]	[s]	[um]	[um]	[um]	[m°]	[m°]	[um]	[uN]	[uN]	[V]	[V]	[V]	[°C]	[uN]	[um]	[N/m]	[°]	[°]	[uN]	[um]	[um]	[um]	[uN]	[N/m]	[um]	[um^2]	[MPa]	[MPa]
743	1.000000	0.002987	7.37232e+06	-39939.1	1005.82	-29792	0.000000	0.000000	6.002769	0.067230	NaN	0.000000	0.001538	0.001752	28.0837	0.069564	0.001024	67.9268	-128.278	-179.8	0.081437	0.001736	-1.070689	-1.071940	0.067230	67.9268	-1.071431	-2.072138E+14	-3.244492E-16	NaN
743	1.000000	0.010905	7.37232e+06	-39939.1	1005.82	-29792	0.000000	0.000000	6.010688	0.086549	NaN	0.000000	0.001524	0.001702	28.0836	0.037312	0.000997	37.429	-159.09	175.143	0.098752	0.009586	-1.062771	-1.064091	0.086549	37.429	-1.064505	-1.672473E+14	-5.174910E-16	NaN
743	1.000000	0.018898	7.37232e+06	-39939.1	1005.82	-29792	0.000000	0.000000	6.018678	0.019899	NaN	0.000000	0.001544	0.001700	28.0836	0.047319	0.001744	27.1324	-72.5125	176.622	0.077028	0.017656	-1.054778	-1.056020	0.019899	27.1324	-1.055328	-1.259021E+14	-1.580554E-16	NaN
743	1.000000	0.026894	7.37232e+06	-39939.1	1005.82	-29792	0.000000	0.000000	6.026677	0.083659	NaN	0.000000	0.001599	0.001712	28.0837	0.064953	0.001751	37.0967	-158.733	175.089	0.102441	0.025595	-1.046782	-1.048081	0.083659	37.0967	-1.048474	-1.018353E+14	-8.215146E-16	NaN
743	1.000000	0.034901	7.37232e+06	-39939.1	1005.82	-29792	0.000000	0.000000	6.034685	0.120696	NaN	0.000000	0.001569	0.001726	28.0838	0.026347	0.001821	14.4662	66.3904	172.894	0.096779	0.033571	-1.038776	-1.040106	0.120696	14.4662	-1.045033	-9.154636E+13	-1.318412E-15	NaN
743	1.000000	0.042881	7.37232e+06	-39939.1	1005.82	-29792	0.000000	0.000000	6.042664	0.074272	NaN	0.000000	0.001567	0.001761	28.0838	0.055645	0.001930	28.8279	134.785	174.982	0.021812	0.041562	-1.030795	-1.032114	0.074272	28.8279	-1.032727	-6.254085E+13	-1.187570E-15	NaN
743	1.000000	0.050854	7.37232e+06	-39939.1	1005.82	-29792	0.000000	0.000000	6.050633	-0.019007	NaN	0.000000	0.001581	0.001744	28.0834	0.068140	0.001987	34.2941	-35.3681	175.687	0.060753	0.049561	-1.022822	-1.024115	-0.019007	34.2941	-1.022406	-4.542844E+13	4.183894E-16	NaN
743	1.000000	0.058944	7.37232e+06	-39939.1	1005.82	-29792	0.000000	0.000000	6.058726	0.056077	NaN	0.000000	0.001621	0.001774	28.0834	0.150808	0.002055	73.3849	-176.812	172.638	0.040561	0.057609	-1.014732	-1.016067	0.056077	73.3849	-1.015305	-3.645674E+13	-1.538188E-15	NaN
743	1.000000	0.066926	7.37232e+06	-39939.1	1005.82	-29792	0.000000	0.000000	6.066709	0.101601	NaN	0.000000	0.001632	0.001753	28.0836	0.027646	0.002141	12.914	-128.017	174.577	0.062628	0.065637	-1.006751	-1.008039	0.101601	12.914	-1.012651	-3.357872E+13	-3.025745E-15	NaN
743	1.000000	0.074928	7.37232e+06	-39939.1	1005.82	-29792	0.000000	0.000000	6.074710	0.080087	NaN	0.000000	0.001615	0.001707	28.0837	0.127024	0.002035	62.4046	73.1331	174.493	0.034155	0.073656	-0.998749	-1.000020	0.080087	62.4046	-0.999711	-2.248425E+13	-3.561927E-15	NaN
743	1.000000	0.082908	7.37232e+06	-39939.1	1005.82	-29792	0.000000	0.000000	6.082691	0.085076	NaN	0.000000	0.001622	0.001744	28.0835	0.028090	0.001921	14.6219	-114.269	175.295	0.108961	0.081604	-0.990768	-0.992072	0.085076	14.6219	-0.995132	-1.950832E+13	-4.361001E-15	NaN
743	1.000000	0.090891	7.37232e+06	-39939.1	1005.82	-29792	0.000000	0.000000	6.090670	-0.007439	NaN	0.000000	0.001607	0.001716	28.0836	0.074434	0.002013	36.9698	-135.239	175.937	0.065014	0.089554	-0.982786	-0.984122	-0.007439	36.9698	-0.982635	-1.324054E+13	5.618538E-16	NaN
743	1.000000	0.098915	7.37232e+06	-39939.1	1005.82	-29792	0.000000	0.000000	6.098695	0.015796	NaN	0.000000	0.001608	0.001719	28.0836	0.085699	0.001998	42.8843	-68.3002	176.166	0.045038	0.097620	-0.974761	-0.976056	0.015796	42.8843	-0.975037	-1.046025E+13	-1.510094E-15	NaN
743	1.000000	0.106898	7.37232e+06	-39939.1	1005.82	-29792	0.000000	0.000000	6.106677	-0.008472	NaN	0.000000	0.001630	0.001745	28.0837	0.101093	0.002049	49.3259	-149.476	174.129	0.027178	0.105579	-0.966778	-0.968097	-0.008472	49.3259	-0.966649	-8.063068E+12	1.050776E-15	NaN
743	1.000000	0.114961	7.37232e+06	-39939.1	1005.82	-29792	0.000000	0.000000	6.114742	0.034129	NaN	0.000000	0.001607	0.001741	28.0839	0.094393	0.002056	45.9106	144.145	174.489	0.056017	0.113605	-0.958715	-0.960071	0.034129	45.9106	-0.959272	-6.412978E+12	-5.321867E-15	NaN
743	1.000000	0.122942	7.37232e+06	-39939.1	1005.82	-29792	0.000000	0.000000	6.122723	0.042283	NaN	0.000000	0.001682	0.001704	28.0838	0.072046	0.002056	35.0369	-141.939	176.965	0.082267	0.121607	-0.950735	-0.952069	0.042283	35.0369	-0.951640	-5.059909E+12	-8.356541E-15	NaN
743	1.000000	0.130940	7.37232e+06	-39939.1	1005.82	-29792	0.000000	0.000000	6.130718	-0.035381	NaN	0.000000	0.001653	0.001738	28.0839	0.089949	0.001962	45.8386	-73.2019	176.084	-0.037778	0.129649	-0.942736	-0.944027	-0.035381	45.8386	-0.942158	-3.769166E+12	9.386965E-15	NaN
743	1.000000	0.138932	7.37232e+06	-39939.1	1005.82	-29792	0.000000	0.000000	6.138714	0.062020	NaN	0.000000	0.001598	0.001708	28.0825	0.091835	0.001832	50.1219	107.948	175.103	0.060980	0.137626	-0.934744	-0.936050	0.062020	50.1219	-0.935672	-3.081338E+12	-2.012750E-14	NaN
743	1.000000	0.146959	7.37232e+06	-39939.1	1005.82	-29792	0.000000	0.000000	6.146738	-0.005861	NaN	0.000000	0.001572	0.001755	28.0826	0.104505	0.001964	53.2048	128.163	175.448	-0.031585	0.145612	-0.926717	-0.928064	-0.005861	53.2048	-0.926635	-2.326892E+12	2.519011E-15	NaN
743	1.000000	0.154947	7.37232e+06	-39939.1	1005.82	-29792	0.000000	0.000000	6.154726	-0.008770	NaN	0.000000	0.001584	0.001777	28.0824	0.074241	0.001990	37.2979	104.534	173.134	0.058594	0.153615	-0.918729	-0.920062	-0.008770	37.2979	-0.918553	-1.809941E+12	4.845474E-15	NaN
743	1.000000	0.162950	7.37232e+06	-39939.1	1005.82	-29792	0.000000	0.000000	6.162731	0.056416	NaN	0.000000	0.001654	0.001747	28.0831	0.076362	0.002075	36.8061	51.051	175.669	0.025339	0.161582	-0.910726	-0.912094	0.056416	36.8061	-0.911876	-1.470623E+12	-3.836190E-14	NaN
743	1.000000	0.170926	7.37232e+06	-39939.1	1005.82	-29792	0.000000	0.000000	6.170704	-0.014957	NaN	0.000000	0.001663	0.001734	28.0828	0.085232	0.002015	42.296	-159.42	175.414	-0.006738	0.169672	-0.902751	-0.904005	-0.014957	42.296	-0.902485	-1.098112E+12	1.362110E-14	NaN
743	1.000000	0.178954	7.37232e+06	-39939.1	1005.82	-29792	0.000000	0.000000	6.178734	0.005398	NaN	0.000000	0.001589	0.001714	28.0826	0.062267	0.002032	30.6466	-158.808	177.88	0.017619	0.177598	-0.894722	-0.896079	0.005398	30.6466	-0.894854	-8.660101E+11	-6.232932E-15	NaN
743	1.000000	0.186974	7.37232e+06	-39939.1	1005.82	-29792	0.000000	0.000000	6.186755	0.051625	NaN	0.000000	0.001601	0.001709	28.0827	0.016110	0.001975	8.157808	95.1044	176.16	0.028534	0.185644	-0.886702	-0.888032	0.051625	8.157808	-0.891449	-7.789251E+11	-6.627703E-14	NaN
743	1.000000	0.194946	7.37232e+06	-39939.1	1005.82	-29792	0.000000	0.000000	6.194727	0.050991	NaN	0.000000	0.001594	0.001712	28.0824	0.067564	0.001870	36.1371	172.035	175.474	0.037834	0.193640	-0.878730	-0.880036	0.050991	36.1371	-0.879789	-5.418151E+11	-9.411075E-14	NaN
743	1.000000	0.202976	7.37232e+06	-39939.1	1005.82	-29792	0.000000	0.000000	6.202758	0.073879	NaN	0.000000	0.001589	0.001698	28.0823	0.031086	0.001992	15.608	-13.1756	176.296	0.028128	0.201630	-0.870701	-0.872046	0.073879	15.608	-0.874251	-4.559816E+11	-1.620220E-13	NaN
743	1.000000	0.210957	7.37232e+06	-39939.1	1005.82	-29792	0.000000	0.000000	6.210736	-0.015716	NaN	0.000000	0.001575	0.001705	28.0825	0.068534	0.002058	33.3089	-139.441	176.567	0.014527	0.209648	-0.862719	-0.864028	-0.015716	33.3089	-0.862365	-3.148702E+11	4.991420E-14	NaN
743	1.000000	0.218960	7.37232e+06	-39939.1	1005.82	-29792	0.000000	0.000000	6.218740	0.024509	NaN	0.000000	0.001581	0.001713	28.0824	0.065045	0.001950	33.3571	36.1958	177.066	0.102960	0.217696	-0.854716	-0.855980	0.024509	33.3571	-0.855267	-2.523806E+11	-9.711178E-14	NaN
743	1.000000	0.226990	7.37232e+06	-39939.1	1005.82	-29792	0.000000	0.000000	6.226772	0.065326	NaN	0.000000	0.001599	0.001706	28.0836	0.044954	0.001984	22.6534	-92.4615	175.83	0.051077	0.225701	-0.846687	-0.847975	0.065326	22.6534	-0.848849	-2.066120E+11	-3.161750E-13	NaN
743	1.000000	0.234979	7.37232e+06	-39939.1	1005.82	-29792	0.000000	0.000000	6.234759	0.028778	NaN	0.000000	0.001553	0.001678	28.0826	0.056747	0.002037	27.8592	165.644	174.239	0.044934	0.233685	-0.838698	-0.839991	0.028778	27.8592	-0.839472	-1.542214E+11	-1.866027E-13	NaN
743	1.000000	0.242976	7.37232e+06	-39939.1	1005.82	-29792	0.000000	0.000000	6.242758	0.069348	NaN	0.000000	0.001540	0.001677	28.0825	0.086331	0.002041	42.2997	172.81	172.651	0.017258	0.241697	-0.830700	-0.831979	0.069348	42.2997	-0.831930	-1.218813E+11	-5.689822E-13	NaN
743	1.000000	0.250999	7.37232e+06	-39939.1	1005.82	-29792	0.000000	0.000000	6.250782	0.075330	NaN	0.000000	0.001545	0.001684	28.0827	0.008753	0.001956	4.475482	177.165	175.29	0.055802	0.249688	-0.822677	-0.823989	0.075330	4.475482	-0.835301	-1.354004E+11	-5.563464E-13	NaN
743	1.000000	0.258985	7.37232e+06	-39939.1	1005.82	-29792	0.000000	0.000000	6.258764	-0.009311	NaN	0.000000	0.001568	0.001683	28.0827	0.048830	0.002055	23.7635	-57.6533	174.512	-0.042437	0.257657	-0.814691	-0.816019	-0.009311	23.7635	-0.814398	-7.050631E+10	1.320593E-13	NaN
743	1.000000	0.266980	7.37232e+06	-39939.1	1005.82	-29792	0.000000	0.000000	6.266760	0.012955	NaN	0.000000	0.001547	0.001722	28.0829	0.064306	0.001915	33.5879	-53.6303	174.364	0.112940	0.265610	-0.806696	-0.808066	0.012955	33.5879	-0.806986	-5.593317E+10	-2.316144E-13	NaN
743	1.000000	0.274979	7.37232e+06	-39939.1	1005.82	-29792	0.000000	0.000000	6.274760	0.043936	NaN	0.000000	0.001559	0.001733	28.0842	0.072560	0.001975	36.7315	174.489	174.487	0.083598	0.273677	-0.798697	-0.800000	0.043936	36.7315	-0.799594	-4.439706E+10	-9.896170E-13	NaN
743	1.000000	0.282985	7.37232e+06	-39939.1	1005.82	-29792	0.000000	0.000000	6.282766	0.041140	NaN	0.000000	0.001593	0.001694	28.084	0.066964	0.002106	31.8031	23.0181	177.011	0.070303	0.281653	-0.790691	-0.792024	0.041140	31.8031	-0.791661	-3.464536E+10	-1.187449E-12	NaN
743	1.000000	0.291010	7.37232e+06	-39939.1	1005.82	-29792	0.000000	0.000000	6.290790	0.034224	NaN	0.000000	0.001581	0.001711	28.0839	0.077801	0.002023	38.4565	96.6494	174.602	-0.011149	0.289710	-0.782667	-0.783967	0.034224	38.4565	-0.783334	-2.670143E+10	-1.281712E-12	NaN
743	1.000000	0.299003	7.37232e+06	-39939.1	1005.82	-29792	0.000000	0.000000	6.298783	0.016769	NaN	0.000000	0.001536	0.001696	28.084	0.091513	0.002018	45.3431	34.4355	176.167	-0.005563	0.297702	-0.774673	-0.775974	0.016769	45.3431	-0.774951	-2.054038E+10	-8.163685E-13	NaN
743	1.000000	0.306998	7.37232e+06	-39939.1	1005.82	-29792	0.000000	0.000000	6.306779	0.041519	NaN	0.000000	0.001594	0.001698	28.0841	0.029329	0.001886	15.5487	105.774	176.715	0.025503	0.305698	-0.766678	-0.767978	0.041519	15.5487	-0.768681	-1.687992E+10	-2.459677E-12	NaN
743	1.000000	0.315008	7.37232e+06	-39939.1	1005.82	-29792	0.000000	0.000000	6.314788	0.017797	NaN	0.000000	0.001584	0.001717	28.0838	0.045774	0.001963	23.3208	22.7195	178.787	-0.012975	0.313709	-0.758668	-0.759967	0.017797	23.3208	-0.759240	-1.255936E+10	-1.417039E-12	NaN
743	1.000000	0.323018	7.37232e+06	-39939.1	1005.82	-29792	0.000000	0.000000	6.322801	0.078305	NaN	0.000000	0.001544	0.001712	28.0839	0.020054	0.001977	10.1441	179.368	172.76	0.084783	0.321728	-0.750658	-0.751948	0.078305	10.1441	-0.756448	-1.150721E+10	-6.804896E-12	NaN
743	1.000000	0.330990	7.37232e+06	-39939.1	1005.82	-29792	0.000000	0.000000	6.330771	0.021538	NaN	0.000000	0.001573	0.001724	28.0839	0.038875	0.001960	19.836	157.289	177.152	0.000303	0.329652	-0.742686	-0.744024	0.021538	19.836	-0.743500	-7.668759E+9	-2.808594E-12	NaN
743	1.000000	0.339000	7.37232e+06	-39939.1	1005.82	-29792	0.000000	0.000000	6.338780	0.016105	NaN	0.000000	0.001562	0.001770	28.0838	0.095518	0.002124	44.9781	126.629	170.868	0.058779	0.337714	-0.734676	-0.735962	0.016105	44.9781	-0.734944	-5.863867E+9	-2.746468E-12	NaN
743	1.000000	0.347006	7.37232e+06	-39939.1	1005.82	-29792	0.000000	0.000000	6.346784	-0.023488	NaN	0.000000	0.001593	0.001726	28.0836	0.060658	0.001927	31.4758	-118.909	176.755	0.046382	0.345739	-0.726670	-0.727938	-0.023488	31.4758	-0.726111	-4.444194E+9	5.285148E-12	NaN
743	1.000000	0.355014	7.37232e+06	-39939.1	1005.82	-29792	0.000000	0.000000	6.354794	0.019769	NaN	0.000000	0.001551	0.001715	28.0836	0.098821	0.001887	52.381	-55.54	178.248	-0.026691	0.353687	-0.718663	-0.719990	0.019769	52.381	-0.718946	-3.548908E+9	-5.570349E-12	NaN
743	1.000000	0.363010	7.37232e+06	-39939.1	1005.82	-29792	0.000000	0.000000	6.362789	-0.010858	NaN	0.000000	0.001566	0.001687	28.084	0.034211	0.001862	18.3765	17.1786	173.999	-0.020325	0.361684	-0.710666	-0.711992	-0.010858	18.3765	-0.710223	-2.698280E+9	4.024225E-12	NaN
743	1.000000	0.371010	7.37232e+06	-39939.1	1005.82	-29792	0.000000	0.000000	6.370789	0.000200	NaN	0.000000	0.001558	0.001745	28.0842	0.136757	0.001797	76.1147	160.534	173.533	0.043190	0.369653	-0.702666	-0.704023	0.000200	76.1147	-0.702668	-2.127967E+9	-9.395913E-14	NaN
743	1.000000	0.379015	7.37232e+06	-39939.1	1005.82	-29792	0.000000	0.000000	6.378795	0.003837	NaN	0.000000	0.001510	0.001740	28.084	0.089971	0.002050	43.8942	-97.2739	175.807	-0.081686	0.377731	-0.694661	-0.695945	0.003837	43.8942	-0.694727	-1.657682E+9	-2.314920E-12	NaN
743	1.000000	0.387045	7.37232e+06	-39939.1	1005.82	-29792	0.000000	0.000000	6.386824	-0.026505	NaN	0.000000	0.001551	0.001749	28.0839	0.061461	0.002013	30.525	-37.5214	176.576	0.007870	0.385774	-0.686631	-0.687903	-0.026505	30.525	-0.685980	-1.258826E+9	2.105499E-11	NaN
743	1.000000	0.395027	7.37232e+06	-39939.1	1005.82	-29792	0.000000	0.000000	6.394808	0.053542	NaN	0.000000	0.001536	0.001739	28.084	0.102929	0.002056	50.055	-136.573	173.125	0.010331	0.393788	-0.678650	-0.679888	0.053542	50.055	-0.679452	-1.024961E+9	-5.223835E-11	NaN
743	1.000000	0.403051	7.37232e+06	-39939.1	1005.82	-29792	0.000000	0.000000	6.402832	0.050152	NaN	0.000000	0.001562	0.001720	28.084	0.034010	0.001913	17.776	132.993	175.079	0.098094	0.401737	-0.670625	-0.671939	0.050152	17.776	-0.672741	-8.296743E+8	-6.044763E-11	NaN
743	1.000000	0.411058	7.37232e+06	-39939.1	1005.82	-29792	0.000000	0.000000	6.410836	-0.048406	NaN	0.000000	0.001546	0.001726	28.0827	0.021765	0.001940	11.2198	-19.6238	173.256	0.052114	0.409732	-0.662618	-0.663945	-0.048406	11.2198	-0.659382	-5.445086E+8	8.889928E-11	NaN
743	1.000000	0.419022	7.37232e+06	-39939.1	1005.82	-29792	0.000000	0.000000	6.418801	-0.026559	NaN	0.000000	0.001577	0.001735	28.0829	0.078794	0.001977	39.8647	120.545	175.441	0.001076	0.417747	-0.654654	-0.655929	-0.026559	39.8647	-0.654154	-4.617173E+8	5.752151E-11	NaN
743	1.000000	0.427061	7.37232e+06	-39939.1	1005.82	-29792	0.000000	0.000000	6.426842	0.045893	NaN	0.000000	0.001578	0.001748	28.0826	0.081450	0.002050	39.7401	8.002384	177.775	0.029366	0.425765	-0.646615	-0.647911	0.045893	39.7401	-0.647481	-3.740266E+8	-1.227000E-10	NaN
743	1.000000	0.435057	7.37232e+06	-39939.1	1005.82	-29792	0.000000	0.000000	6.434839	0.055077	NaN	0.000000	0.001581	0.001717	28.0826	0.031364	0.002026	15.48	-127.063	-178.87	0.044726	0.433744	-0.638619	-0.639932	0.055077	15.48	-0.641287	-3.075745E+8	-1.790677E-10	NaN
743	1.000000	0.443065	7.37232e+06	-39939.1	1005.82	-29792	0.000000	0.000000	6.442842	-0.051481	NaN	0.000000	0.001563	0.001712	28.0824	0.042615	0.001916	22.2418	138.844	173.441	0.029312	0.441764	-0.630611	-0.631912	-0.051481	22.2418	-0.628875	-2.077677E+8	2.477834E-10	NaN
743	1.000000	0.451078	7.37232e+06	-39939.1	1005.82	-29792	0.000000	0.000000	6.450859	0.020434	NaN	0.000000	0.001576	0.001737	28.0825	0.089219	0.001922	46.4154	87.3191	172.51	0.066286	0.449754	-0.622598	-0.623922	0.020434	46.4154	-0.622928	-1.721368E+8	-1.187062E-10	NaN
743	1.000000	0.459068	7.37232e+06	-39939.1	1005.82	-29792	0.000000	0.000000	6.458851	0.082355	NaN	0.000000	0.001589	0.001727	28.0829	0.077800	0.002107	36.933	-146.677	178.013	0.088953	0.457762	-0.614608	-0.615914	0.082355	36.933	-0.616280	-1.394744E+8	-5.904700E-10	NaN
743	1.000000	0.467075	7.37232e+06	-39939.1	1005.82	-29792	0.000000	0.000000	6.466855	0.029050	NaN	0.000000	0.001599	0.001721	28.0829	0.037007	0.002000	18.5027	-125.601	175.386	-0.012939	0.465744	-0.606601	-0.607932	0.029050	18.5027	-0.607779	-1.065497E+8	-2.726438E-10	NaN
743	1.000000	0.475086	7.37232e+06	-39939.1	1005.82	-29792	0.000000	0.000000	6.474865	-0.014518	NaN	0.000000	0.001554	0.001673	28.0827	0.111622	0.001896	58.8615	-93.4952	177.435	-0.040176	0.473790	-0.598590	-0.599886	-0.014518	58.8615	-0.598405	-7.915853E+7	1.834002E-10	NaN
743	1.000000	0.483076	7.37232e+06	-39939.1	1005.82	-29792	0.000000	0.000000	6.482855	6.322204E-5	NaN	0.000000	0.001565	0.001699	28.0828	0.053764	0.001947	27.613	125.669	173.556	-0.047855	0.481764	-0.590600	-0.591913	6.322204E-5	27.613	-0.590602	-6.179668E+7	-1.023065E-12	NaN
743	1.000000	0.491086	7.37232e+06	-39939.1	1005.82	-29792	0.000000	0.000000	6.490868	0.068856	NaN	0.000000	0.001590	0.001736	28.0828	0.118915	0.001992	59.6916	-58.5624	173.678	0.063472	0.489787	-0.582590	-0.583889	0.068856	59.6916	-0.583455	-4.924963E+7	-1.398110E-9	NaN
743	1.000000	0.499093	7.37232e+06	-39939.1	1005.82	-29792	0.000000	0.000000	6.498875	0.070467	NaN	0.000000	0.001596	0.001734	28.0826	0.131527	0.001961	67.0791	13.7949	174.074	0.114467	0.497770	-0.574583	-0.575906	0.070467	67.0791	-0.575371	-3.809079E+7	-1.849968E-9	NaN
743	1.000000	0.507061	7.37232e+06	-39939.1	1005.82	-29792	0.000000	0.000000	6.506838	-0.062400	NaN	0.000000	0.001555	0.001761	28.0828	0.174547	0.001988	87.8204	-141.066	174.543	-0.109059	0.505781	-0.566615	-0.567896	-0.062400	87.8204	-0.566083	-2.834595E+7	2.201362E-9	NaN
743	1.000000	0.515111	7.37232e+06	-39939.1	1005.82	-29792	0.000000	0.000000	6.514892	0.051565	NaN	0.000000	0.001567	0.001700	28.0827	0.051514	0.002119	24.3088	-38.6254	172.976	0.035721	0.513850	-0.558566	-0.559826	0.051565	24.3088	-0.560157	-2.347164E+7	-2.196908E-9	NaN
743	1.000000	0.523098	7.37232e+06	-39939.1	1005.82	-29792	0.000000	0.000000	6.522880	0.073792	NaN	0.000000	0.001572	0.001750	28.0824	0.054101	0.001807	29.9451	61.0597	174.974	0.161627	0.521793	-0.550578	-0.551883	0.073792	29.9451	-0.552426	-1.834678E+7	-4.022060E-9	NaN
743	1.000000	0.531097	7.37232e+06	-39939.1	1005.82	-29792	0.000000	0.000000	6.530874	-0.056897	NaN	0.000000	0.001612	0.001741	28.0827	0.089030	0.001932	46.0874	-164.128	175.72	0.021616	0.529778	-0.542579	-0.543898	-0.056897	46.0874	-0.541653	-1.301006E+7	4.373270E-9	NaN
743	1.000000	0.539100	7.37232e+06	-39939.1	1005.82	-29792	0.000000	0.000000	6.538881	0.043946	NaN	0.000000	0.001639	0.001723	28.0824	0.087327	0.001989	43.9124	178.397	177.912	0.034273	0.537820	-0.534576	-0.535856	0.043946	43.9124	-0.535327	-1.062979E+7	-4.134243E-9	NaN
743	1.000000	0.547119	7.37232e+06	-39939.1	1005.82	-29792	0.000000	0.000000	6.546902	0.086177	NaN	0.000000	0.001668	0.001715	28.0836	0.044506	0.001860	23.9334	65.9966	178.513	0.105577	0.545754	-0.526558	-0.527922	0.086177	23.9334	-0.529258	-8.75529e+06	-9.842800E-9	NaN
743	1.000000	0.555132	7.37232e+06	-39939.1	1005.82	-29792	0.000000	0.000000	6.554911	-0.002237	NaN	0.000000	0.001716	0.001732	28.0835	0.077018	0.001942	39.6545	24.6138	175.925	-0.023928	0.553760	-0.518545	-0.519916	-0.002237	39.6545	-0.518502	-6.20535e+06	3.604262E-10	NaN
743	1.000000	0.563108	7.37232e+06	-39939.1	1005.82	-29792	0.000000	0.000000	6.562888	0.015552	NaN	0.000000	0.001707	0.001752	28.0839	0.105831	0.001805	58.6187	-172.423	174.351	0.030084	0.561793	-0.510568	-0.511883	0.015552	58.6187	-0.510767	-4.84278e+06	-3.211463E-9	NaN
743	1.000000	0.571131	7.37232e+06	-39939.1	1005.82	-29792	0.000000	0.000000	6.570915	0.104409	NaN	0.000000	0.001677	0.001714	28.0842	0.083853	0.001905	44.01	158.928	178.539	0.063986	0.569810	-0.502545	-0.503866	0.104409	44.01	-0.504324	-3.93842e+06	-2.651045E-8	NaN
743	1.000000	0.579136	7.37232e+06	-39939.1	1005.82	-29792	0.000000	0.000000	6.578915	-0.004225	NaN	0.000000	0.001712	0.001740	28.0838	0.115059	0.002034	56.5797	119.564	175.377	0.019035	0.577733	-0.494540	-0.495943	-0.004225	56.5797	-0.494484	-2.87097e+06	1.471765E-9	NaN
743	1.000000	0.587130	7.37232e+06	-39939.1	1005.82	-29792	0.000000	0.000000	6.586911	0.042193	NaN	0.000000	0.001706	0.001698	28.0837	0.064351	0.001977	32.546	142.545	176.22	0.036543	0.585832	-0.486546	-0.487844	0.042193	32.546	-0.487518	-2.29459e+06	-1.838817E-8	NaN
743	1.000000	0.595146	7.37232e+06	-39939.1	1005.82	-29792	0.000000	0.000000	6.594925	0.004772	NaN	0.000000	0.001700	0.001685	28.0836	0.048042	0.001945	24.7001	-123.792	173.495	0.089039	0.593811	-0.478531	-0.479865	0.004772	24.7001	-0.478676	-1.72577e+06	-2.765152E-9	NaN
743	1.000000	0.603131	7.37232e+06	-39939.1	1005.82	-29792	0.000000	0.000000	6.602913	0.060382	NaN	0.000000	0.001686	0.001677	28.0838	0.044033	0.002102	20.9445	135.522	175.071	0.002645	0.601846	-0.470545	-0.471830	0.060382	20.9445	-0.472708	-1.42355e+06	-4.241616E-8	NaN
743	1.000000	0.611109	7.37232e+06	-39939.1	1005.82	-29792	0.000000	0.000000	6.610889	0.037111	NaN	0.000000	0.001696	0.001671	28.084	0.081720	0.002121	38.5297	86.5552	171.126	0.042766	0.609860	-0.462568	-0.463816	0.037111	38.5297	-0.463290	-1.05012e+06	-3.534014E-8	NaN
743	1.000000	0.619145	7.37232e+06	-39939.1	1005.82	-29792	0.000000	0.000000	6.618928	0.074606	NaN	0.000000	0.001672	0.001703	28.0839	0.034297	0.002097	16.3562	32.9558	173.19	0.061694	0.617827	-0.454531	-0.455850	0.074606	16.3562	-0.457952	-883546	-8.443979E-8	NaN
743	1.000000	0.627134	7.37232e+06	-39939.1	1005.82	-29792	0.000000	0.000000	6.626912	-0.014092	NaN	0.000000	0.001668	0.001686	28.0838	0.042289	0.002032	20.8094	158.894	173.493	0.034350	0.625893	-0.446543	-0.447783	-0.014092	20.8094	-0.446035	-600453	2.346864E-8	NaN
743	1.000000	0.635138	7.37232e+06	-39939.1	1005.82	-29792	0.000000	0.000000	6.634920	0.074877	NaN	0.000000	0.001676	0.001693	28.0838	0.088331	0.002003	44.0888	-142.795	176.309	0.058242	0.633885	-0.438538	-0.439791	0.074877	44.0888	-0.439812	-490584	-1.526288E-7	NaN
743	1.000000	0.643154	7.37232e+06	-39939.1	1005.82	-29792	0.000000	0.000000	6.642934	0.003998	NaN	0.000000	0.001670	0.001698	28.0837	0.071451	0.001953	36.5858	-16.1235	172.807	-0.039711	0.641793	-0.430522	-0.431883	0.003998	36.5858	-0.430604	-363585	-1.099708E-8	NaN
743	1.000000	0.651163	7.37232e+06	-39939.1	1005.82	-29792	0.000000	0.000000	6.650945	0.051039	NaN	0.000000	0.001661	0.001668	28.0838	0.015974	0.002127	7.511470	-143.784	173.36	0.099221	0.649814	-0.422513	-0.423862	0.051039	7.511470	-0.427609	-329782	-1.547655E-7	NaN
743	1.000000	0.659160	7.37232e+06	-39939.1	1005.82	-29792	0.000000	0.000000	6.658940	0.014545	NaN	0.000000	0.001706	0.001722	28.084	0.121568	0.001988	61.1372	-134.867	172.614	-0.053225	0.657827	-0.414517	-0.415849	0.014545	61.1372	-0.414695	-216333	-6.723310E-8	NaN
743	1.000000	0.667168	7.37232e+06	-39939.1	1005.82	-29792	0.000000	0.000000	6.666950	0.070796	NaN	0.000000	0.001675	0.001689	28.084	0.098537	0.001955	50.3968	123.189	173.277	0.040804	0.665851	-0.406509	-0.407825	0.070796	50.3968	-0.407562	-171286	-4.133232E-7	NaN
743	1.000000	0.675150	7.37232e+06	-39939.1	1005.82	-29792	0.000000	0.000000	6.674932	0.071883	NaN	0.000000	0.001676	0.001711	28.0838	0.090101	0.001949	46.2176	149.035	174.179	0.094519	0.673858	-0.398526	-0.399819	0.071883	46.2176	-0.399693	-132316	-5.432697E-7	NaN
743	1.000000	0.683135	7.37232e+06	-39939.1	1005.82	-29792	0.000000	0.000000	6.682915	0.013953	NaN	0.000000	0.001665	0.001699	28.0827	0.052578	0.002060	25.5214	119.878	177.717	0.016725	0.681801	-0.390541	-0.391875	0.013953	25.5214	-0.390951	-99259	-1.405679E-7	NaN
743	1.000000	0.691192	7.37232e+06	-39939.1	1005.82	-29792	0.000000	0.000000	6.690971	-0.013318	NaN	0.000000	0.001655	0.001693	28.0827	0.118438	0.002040	58.0524	-138.724	177.982	0.070141	0.689844	-0.382484	-0.383832	-0.013318	58.0524	-0.382312	-74655.7	1.783885E-7	NaN
743	1.000000	0.699151	7.37232e+06	-39939.1	1005.82	-29792	0.000000	0.000000	6.698932	0.047950	NaN	0.000000	0.001604	0.001698	28.0829	0.060324	0.002040	29.5643	30.1567	174.101	-0.007607	0.697825	-0.374526	-0.375851	0.047950	29.5643	-0.375742	-60080.9	-7.980871E-7	NaN
743	1.000000	0.707161	7.37232e+06	-39939.1	1005.82	-29792	0.000000	0.000000	6.706941	0.006245	NaN	0.000000	0.001618	0.001722	28.0828	0.077273	0.002076	37.2133	104.607	177.71	0.024573	0.705918	-0.366515	-0.367758	0.006245	37.2133	-0.366641	-44434.4	-1.405342E-7	NaN
743	1.000000	0.715182	7.37233e+06	-39939.1	1005.82	-29792	0.000000	0.000000	6.714964	0.056075	NaN	0.000000	0.001586	0.001724	28.0827	0.131330	0.002004	65.5451	94.001	171.686	0.012773	0.713868	-0.358494	-0.359809	0.056075	65.5451	-0.359135	-34621.4	-1.619648E-6	NaN
743	1.000000	0.723192	7.37233e+06	-39939.1	1005.82	-29792	0.000000	0.000000	6.722973	0.032533	NaN	0.000000	0.001662	0.001716	28.0828	0.110357	0.002001	55.1389	-168.52	177.482	0.089804	0.721891	-0.350484	-0.351785	0.032533	55.1389	-0.350927	-26329.9	-1.235599E-6	NaN
743	1.000000	0.731186	7.37233e+06	-39939.1	1005.82	-29792	0.000000	0.000000	6.730965	-0.017273	NaN	0.000000	0.001678	0.001710	28.0825	0.033421	0.002040	16.3793	82.109	178.126	0.020844	0.729868	-0.342490	-0.343808	-0.017273	16.3793	-0.341699	-19333.4	8.934208E-7	NaN
743	1.000000	0.739198	7.37233e+06	-39939.1	1005.82	-29792	0.000000	0.000000	6.738977	-0.012618	NaN	0.000000	0.001614	0.001725	28.0825	0.046395	0.002080	22.3022	-130.019	176.192	0.011220	0.737894	-0.334478	-0.335782	-0.012618	22.3022	-0.334054	-14954	8.437834E-7	NaN
743	1.000000	0.747199	7.37233e+06	-39939.1	1005.82	-29792	0.000000	0.000000	6.746979	0.016295	NaN	0.000000	0.001601	0.001720	28.0826	0.091184	0.002085	43.7321	-135.986	175.659	0.028993	0.745899	-0.326477	-0.327777	0.016295	43.7321	-0.326757	-11692.7	-1.393606E-6	NaN
743	1.000000	0.755196	7.37233e+06	-39939.1	1005.82	-29792	0.000000	0.000000	6.754980	0.106966	NaN	0.000000	0.001603	0.001722	28.0828	0.043479	0.001944	22.368	-5.640600	175.099	0.118484	0.753848	-0.318480	-0.319828	0.106966	22.368	-0.322067	-9977.97	-1.072017E-5	NaN
743	1.000000	0.763184	7.37233e+06	-39939.1	1005.82	-29792	0.000000	0.000000	6.762962	-0.024837	NaN	0.000000	0.001593	0.001724	28.0829	0.094978	0.001985	47.8419	123.439	173.581	-0.050551	0.761858	-0.310492	-0.311819	-0.024837	47.8419	-0.310103	-6646.25	3.736977E-6	NaN
743	1.000000	0.771224	7.37233e+06	-39939.1	1005.82	-29792	0.000000	0.000000	6.771003	-0.011615	NaN	0.000000	0.001573	0.001698	28.0828	0.116599	0.002056	56.7079	103.637	175.483	0.120323	0.769890	-0.302452	-0.303786	-0.011615	56.7079	-0.302298	-5091.28	2.281287E-6	NaN
743	1.000000	0.779219	7.37233e+06	-39939.1	1005.82	-29792	0.000000	0.000000	6.778999	0.008113	NaN	0.000000	0.001595	0.001717	28.0828	0.061845	0.002030	30.4691	105.928	173.74	0.058581	0.777904	-0.294457	-0.295772	0.008113	30.4691	-0.294657	-3917.07	-2.071202E-6	NaN
743	1.000000	0.787199	7.37233e+06	-39939.1	1005.82	-29792	0.000000	0.000000	6.786980	0.030184	NaN	0.000000	0.001578	0.001677	28.0826	0.027395	0.002136	12.8283	-1.065126	177.909	0.083018	0.785904	-0.286477	-0.287772	0.030184	12.8283	-0.288241	-3140.08	-9.612375E-6	NaN
743	1.000000	0.795206	7.37233e+06	-39939.1	1005.82	-29792	0.000000	0.000000	6.794986	0.032136	NaN	0.000000	0.001572	0.001711	28.0826	0.091196	0.002021	45.126	169.475	172.682	0.124491	0.793862	-0.278471	-0.279814	0.032136	45.126	-0.279005	-2280.09	-1.409418E-5	NaN
743	1.000000	0.803183	7.37233e+06	-39939.1	1005.82	-29792	0.000000	0.000000	6.802963	0.013984	NaN	0.000000	0.001589	0.001633	28.0827	0.013575	0.002139	6.346499	-163.79	177.825	0.049457	0.801887	-0.270494	-0.271789	0.013984	6.346499	-0.272146	-1795.31	-7.789098E-6	NaN
743	1.000000	0.811196	7.37233e+06	-39939.1	1005.82	-29792	0.000000	0.000000	6.810976	0.024488	NaN	0.000000	0.001612	0.001629	28.0827	0.091518	0.001980	46.2254	75.5864	174.586	0.004408	0.809848	-0.262481	-0.263828	0.024488	46.2254	-0.262878	-1297.1	-1.887903E-5	NaN
743	1.000000	0.819240	7.37233e+06	-39939.1	1005.82	-29792	0.000000	0.000000	6.819023	0.066915	NaN	0.000000	0.001626	0.001651	28.0841	0.090743	0.001956	46.3873	-21.6575	175.464	0.026089	0.817948	-0.254436	-0.255728	0.066915	46.3873	-0.255518	-1000.19	-6.690246E-5	NaN
743	1.000000	0.827220	7.37233e+06	-39939.1	1005.82	-29792	0.000000	0.000000	6.827001	0.046920	NaN	0.000000	0.001617	0.001673	28.0839	0.133052	0.002184	60.9291	-38.4992	176.899	0.047499	0.825898	-0.246456	-0.247778	0.046920	60.9291	-0.247034	-739.654	-6.343488E-5	NaN
743	1.000000	0.835219	7.37233e+06	-39939.1	1005.82	-29792	0.000000	0.000000	6.834998	-0.023143	NaN	0.000000	0.001642	0.001645	28.0838	0.077112	0.002043	37.7504	126.354	174.133	-0.055941	0.833922	-0.238457	-0.239754	-0.023143	37.7504	-0.237997	-534.858	4.326988E-5	NaN
743	1.000000	0.843231	7.37233e+06	-39939.1	1005.82	-29792	0.000000	0.000000	6.843012	0.035583	NaN	0.000000	0.001630	0.001661	28.084	0.042400	0.001901	22.3086	102.222	175.716	-0.027083	0.841863	-0.230445	-0.231814	0.035583	22.3086	-0.231642	-425.026	-8.371935E-5	NaN
743	1.000000	0.851217	7.37233e+06	-39939.1	1005.82	-29792	0.000000	0.000000	6.850997	0.010933	NaN	0.000000	0.001640	0.001658	28.084	0.107875	0.002248	47.9847	-143.488	174.801	0.074510	0.849880	-0.222459	-0.223796	0.010933	47.9847	-0.222630	-305.945	-3.573685E-5	NaN
743	1.000000	0.859249	7.37233e+06	-39939.1	1005.82	-29792	0.000000	0.000000	6.859030	0.035335	NaN	0.000000	0.001636	0.001607	28.084	0.044524	0.002019	22.0489	-106.902	176.207	0.050396	0.857899	-0.214427	-0.215777	0.035335	22.0489	-0.215629	-236.388	-0.000149	NaN
743	1.000000	0.867241	7.37233e+06	-39939.1	1005.82	-29792	0.000000	0.000000	6.867021	0.003932	NaN	0.000000	0.001639	0.001634	28.0837	0.025564	0.002054	12.4455	-57.4945	176.413	0.029001	0.865981	-0.206435	-0.207695	0.003932	12.4455	-0.206672	-169.356	-2.321688E-5	NaN
743	1.000000	0.875260	7.37233e+06	-39939.1	1005.82	-29792	0.000000	0.000000	6.875042	0.078295	NaN	0.000000	0.001636	0.001678	28.0837	0.055277	0.002029	27.2439	-120.161	174.271	0.020652	0.873973	-0.198416	-0.199703	0.078295	27.2439	-0.200572	-134.615	-0.000582	NaN
743	1.000000	0.883243	7.37233e+06	-39939.1	1005.82	-29792	0.000000	0.000000	6.883023	0.013017	NaN	0.000000	0.001615	0.001661	28.0839	0.009529	0.002127	4.479575	150.029	175.384	0.038400	0.881952	-0.190434	-0.191724	0.013017	4.479575	-0.192613	-99.4452	-0.000131	NaN
743	1.000000	0.891235	7.37233e+06	-39939.1	1005.82	-29792	0.000000	0.000000	6.891015	0.011348	NaN	0.000000	0.001664	0.001679	28.084	0.082678	0.002084	39.6683	172.303	174.306	0.016514	0.889903	-0.182441	-0.183773	0.011348	39.6683	-0.182656	-67.6917	-0.000168	NaN
743	1.000000	0.899268	7.37233e+06	-39939.1	1005.82	-29792	0.000000	0.000000	6.899051	0.098227	NaN	0.000000	0.001643	0.001664	28.0842	0.114453	0.001918	59.6754	86.4337	175.385	0.006770	0.897919	-0.174408	-0.175757	0.098227	59.6754	-0.175643	-51.4065	-0.001911	NaN
743	1.000000	0.907266	7.37233e+06	-39939.1	1005.82	-29792	0.000000	0.000000	6.907049	0.082876	NaN	0.000000	0.001673	0.001624	28.0837	0.084306	0.002094	40.2599	-28.2044	-179.35	0.077208	0.905946	-0.166410	-0.167730	0.082876	40.2599	-0.167954	-37.845	-0.002190	NaN
743	1.000000	0.915257	7.37233e+06	-39939.1	1005.82	-29792	0.000000	0.000000	6.915040	0.075219	NaN	0.000000	0.001650	0.001636	28.0837	0.047791	0.001994	23.9733	131.999	175.766	-0.028443	0.913912	-0.158419	-0.159764	0.075219	23.9733	-0.160772	-28.2938	-0.002658	NaN
743	1.000000	0.923273	7.37233e+06	-39939.1	1005.82	-29792	0.000000	0.000000	6.923054	0.049334	NaN	0.000000	0.001645	0.001622	28.0838	0.059534	0.002081	28.6038	-36.6963	173.388	0.041863	0.921899	-0.150403	-0.151777	0.049334	28.6038	-0.151697	-19.4484	-0.002537	NaN
743	1.000000	0.931267	7.37233e+06	-39939.1	1005.82	-29792	0.000000	0.000000	6.931047	0.012137	NaN	0.000000	0.001654	0.001646	28.0839	0.085908	0.002156	39.8447	-85.5561	174.842	0.084056	0.929947	-0.142410	-0.143730	0.012137	39.8447	-0.142638	-13.253	-0.000916	NaN
743	1.000000	0.939256	7.37233e+06	-39939.1	1005.82	-29792	0.000000	0.000000	6.939038	0.041554	NaN	0.000000	0.001667	0.001698	28.0839	0.081781	0.001930	42.3642	8.474934	175.186	0.045145	0.937901	-0.134420	-0.135775	0.041554	42.3642	-0.135155	-9.577571	-0.004339	NaN
743	1.000000	0.947286	7.37233e+06	-39939.1	1005.82	-29792	0.000000	0.000000	6.947066	0.004250	NaN	0.000000	0.001639	0.001656	28.084	0.054833	0.001845	29.7255	-126.542	176.144	0.088528	0.945981	-0.126390	-0.127696	0.004250	29.7255	-0.126497	-6.509338	-0.000653	NaN
743	1.000000	0.955304	7.37233e+06	-39939.1	1005.82	-29792	0.000000	0.000000	6.955085	0.039266	NaN	0.000000	0.001638	0.001684	28.0828	0.009181	0.002068	4.439184	162.131	175.576	0.049109	0.953973	-0.118372	-0.119703	0.039266	4.439184	-0.125006	-6.083000	-0.006455	NaN
743	1.000000	0.963279	7.37233e+06	-39939.1	1005.82	-29792	0.000000	0.000000	6.963059	0.037568	NaN	0.000000	0.001617	0.001628	28.0827	0.003971	0.002022	1.963791	32.2926	175.537	0.088632	0.961936	-0.110398	-0.111740	0.037568	1.963791	-0.124745	-6.011063	-0.006250	NaN
743	1.000000	0.971254	7.37233e+06	-39939.1	1005.82	-29792	0.000000	0.000000	6.971034	0.020757	NaN	0.000000	0.001597	0.001645	28.083	0.053063	0.002079	25.5254	-5.640567	174.993	0.034432	0.969972	-0.102423	-0.103704	0.020757	25.5254	-0.103033	-2.130401	-0.009743	NaN
743	1.000000	0.979307	7.37233e+06	-39939.1	1005.82	-29792	0.000000	0.000000	6.979092	0.113774	NaN	0.000000	0.001618	0.001664	28.0828	0.030461	0.002019	15.0881	-29.9384	174.207	0.037935	0.977934	-0.094369	-0.095743	0.113774	15.0881	-0.100024	-1.829409	-0.062192	NaN
743	1.000000	0.987276	7.37233e+06	-39939.1	1005.82	-29792	0.000000	0.000000	6.987055	-0.009628	NaN	0.000000	0.001602	0.001676	28.0829	0.065414	0.001996	32.78	35.7738	173.258	-0.022182	0.985928	-0.086400	-0.087748	-0.009628	32.78	-0.086180	-0.877256	0.010975	NaN
743	1.000000	0.995298	7.37233e+06	-39939.1	1005.82	-29792	0.000000	0.000000	6.995076	-0.029285	NaN	0.000000	0.001620	0.001676	28.0829	0.020523	0.002004	10.2392	-105.504	175.544	-0.032708	0.993982	-0.078378	-0.079694	-0.029285	10.2392	-0.076233	-0.496919	0.058933	NaN
743	1.000000	1.003319	7.37233e+06	-39939.1	1005.82	-29792	0.000000	0.000000	7.003100	0.037912	NaN	0.000000	0.001620	0.001650	28.083	0.018887	0.002021	9.347302	45.4214	178.988	-0.005306	1.001965	-0.070357	-0.071711	0.037912	9.347302	-0.073399	-0.419646	-0.090344	NaN
743	1.000000	1.011307	7.37233e+06	-39939.1	1005.82	-29792	0.000000	0.000000	7.011086	0.003175	NaN	0.000000	0.001619	0.001680	28.0828	0.019474	0.002124	9.170404	168.298	176.847	0.048103	1.010001	-0.062370	-0.063675	0.003175	9.170404	-0.062629	-0.213930	-0.014840	NaN
743	1.000000	1.019300	7.37233e+06	-39939.1	1005.82	-29792	0.000000	0.000000	7.019079	-0.005842	NaN	0.000000	0.001625	0.001666	28.0828	0.080511	0.002012	40.0173	108.89	176.634	0.019803	1.017965	-0.054376	-0.055711	-0.005842	40.0173	-0.054266	-0.122494	0.047693	NaN
743	1.000000	1.027298	7.37233e+06	-39939.1	1005.82	-29792	0.000000	0.000000	7.027078	0.027894	NaN	0.000000	0.001638	0.001700	28.0832	0.040052	0.001979	20.2378	-95.7916	176.004	0.022733	1.026038	-0.046379	-0.047638	0.027894	20.2378	-0.047412	-0.076148	-0.366313	NaN
743	1.000000	1.035335	7.37233e+06	-39939.1	1005.82	-29792	0.000000	0.000000	7.035116	0.055765	NaN	0.000000	0.001675	0.001705	28.0828	0.074671	0.001979	37.7338	-18.9861	178.707	0.033173	1.034034	-0.038342	-0.039642	0.055765	37.7338	-0.039450	-0.043518	-1.281432	NaN
743	1.000000	1.043287	7.37233e+06	-39939.1	1005.82	-29792	0.000000	0.000000	7.043067	0.007722	NaN	0.000000	0.001636	0.001673	28.083	0.096767	0.002087	46.358	-145.108	173.514	0.017544	1.041993	-0.030389	-0.031684	0.007722	46.358	-0.030514	-0.023787	-0.324641	NaN
743	1.000000	1.051309	7.37233e+06	-39939.1	1005.82	-29792	0.000000	0.000000	7.051092	0.083642	NaN	0.000000	0.001601	0.001681	28.0825	0.050348	0.002050	24.5596	71.8449	172.953	0.041644	1.050008	-0.022368	-0.023668	0.083642	24.5596	-0.024922	-0.016791	-4.981298	NaN
743	1.000000	1.059312	7.37233e+06	-39939.1	1005.82	-29792	0.000000	0.000000	7.059102	0.251046	NaN	0.000000	0.001621	0.001669	28.0825	0.215614	0.001957	110.168	-6.384427	173.37	0.139078	1.058006	-0.014364	-0.015670	0.251046	110.168	-0.016073	-0.009928	-25.2858	NaN
743	1.000000	1.067333	7.37233e+06	-39939.1	1005.82	-29792	0.000000	0.000000	7.067148	0.858680	NaN	0.000000	0.001619	0.001670	28.0826	0.676393	0.001977	342.078	18.4562	176.492	0.846571	1.066008	-0.006343	-0.007668	0.858680	342.078	-0.008226	-0.005364	-160.088	NaN
743	1.000000	1.075306	7.37233e+06	-39939.1	1005.82	-29792	0.000000	0.000000	7.075360	6.684600	NaN	0.000000	0.001582	0.001667	28.0826	7.198683	0.001720	4184.3	14.6308	166.398	4.688954	1.073934	0.001630	0.000258	6.684600	4184.3	0.000432	0.000325	20538.1	211903
743	2.000000	1.078876	7.37233e+06	-39939.1	1005.82	-29792	0.000000	0.000000	7.079330	16.4228	NaN	0.000000	0.001621	0.001704	28.083	13.68	0.001557	8786.08	8.179564	163.833	15.6409	1.078530	0.005200	0.004854	16.4228	8786.08	0.003798	0.003062	5362.88	145059
743	2.000000	1.080833	7.37233e+06	-39939.1	1005.82	-29792	0.000000	0.000000	7.081709	26.6844	NaN	0.000000	0.001578	0.001676	28.0837	16.4167	0.001381	11890.7	6.503024	162.586	24.802	1.080526	0.007157	0.006850	26.6844	11890.7	0.005474	0.004570	5839.26	160706
743	2.000000	1.082820	7.37233e+06	-39939.1	1005.82	-29792	0.000000	0.000000	7.084048	35.2439	NaN	0.000000	0.001581	0.001664	28.0837	21.3698	0.001513	14124.2	6.827736	160.805	33.9128	1.082519	0.009144	0.008843	35.2439	14124.2	0.007272	0.006305	5590.16	162521
743	2.000000	1.084839	7.37233e+06	-39939.1	1005.82	-29792	0.000000	0.000000	7.086491	45.5727	NaN	0.000000	0.001602	0.001691	28.0839	25.1531	0.001496	16811.2	9.621226	156.429	44.4494	1.084517	0.011163	0.010841	45.5727	16811.2	0.009130	0.008230	5537.19	169303
743	2.000000	1.086790	7.37233e+06	-39939.1	1005.82	-29792	0.000000	0.000000	7.088955	58.0632	NaN	0.000000	0.001596	0.001690	28.084	28.0939	0.001594	17622.4	5.888874	160.139	56.1704	1.086447	0.013113	0.012771	58.0632	17622.4	0.010642	0.009904	5862.56	161782
743	2.000000	1.088788	7.37233e+06	-39939.1	1005.82	-29792	0.000000	0.000000	7.091446	70.0273	NaN	0.000000	0.001612	0.001717	28.084	31.9513	0.001519	21031.8	1.837632	162.184	69.0709	1.088461	0.015112	0.014784	70.0273	21031.8	0.012615	0.012235	5723.44	173718
743	2.000000	1.090775	7.37233e+06	-39939.1	1005.82	-29792	0.000000	0.000000	7.094115	86.623	NaN	0.000000	0.001576	0.001742	28.0838	34.3622	0.001455	23617.4	4.824940	157.949	84.3598	1.090328	0.017099	0.016652	86.623	23617.4	0.014348	0.014426	6004.5	179650
743	2.000000	1.092744	7.37233e+06	-39939.1	1005.82	-29792	0.000000	0.000000	7.096666	100.822	NaN	0.000000	0.001594	0.001724	28.0838	39.0068	0.001637	23826.2	5.988340	157.462	98.1073	1.092377	0.019067	0.018701	100.822	23826.2	0.015894	0.016496	6112.06	169491
743	2.000000	1.094821	7.37233e+06	-39939.1	1005.82	-29792	0.000000	0.000000	7.099411	117.076	NaN	0.000000	0.001603	0.001692	28.084	42.0568	0.001579	26627.7	4.549598	158.195	115.778	1.094310	0.021144	0.020634	117.076	26627.7	0.017847	0.019271	6075.13	175248
743	2.000000	1.096714	7.37233e+06	-39939.1	1005.82	-29792	0.000000	0.000000	7.102026	134.632	NaN	0.000000	0.001594	0.001658	28.0837	44.7796	0.001823	24563.2	4.396818	158.659	130.309	1.096386	0.023038	0.022710	134.632	24563.2	0.018927	0.020884	6446.69	155293
743	2.000000	1.098696	7.37233e+06	-39939.1	1005.82	-29792	0.000000	0.000000	7.104903	156.421	NaN	0.000000	0.001576	0.001690	28.084	46.6688	0.001732	26942.9	-0.413278	162.591	153.931	1.098475	0.025019	0.024799	156.421	26942.9	0.020665	0.023598	6628.49	160242
743	2.000000	1.100701	7.37233e+06	-39939.1	1005.82	-29792	0.000000	0.000000	7.107713	175.987	NaN	0.000000	0.001597	0.001696	28.0839	47.4635	0.001591	29839.3	-0.578484	161.675	171.739	1.100417	0.027025	0.026741	175.987	29839.3	0.022602	0.026796	6567.58	166542
743	2.000000	1.102707	7.37233e+06	-39939.1	1005.82	-29792	0.000000	0.000000	7.110733	200.674	NaN	0.000000	0.001651	0.001708	28.0837	52.0726	0.001648	31590.9	1.668517	159.138	198.193	1.102376	0.029031	0.028700	200.674	31590.9	0.024267	0.029695	6757.73	167490
743	2.000000	1.104765	7.37233e+06	-39939.1	1005.82	-29792	0.000000	0.000000	7.113824	225.819	NaN	0.000000	0.001665	0.001659	28.0839	55.1306	0.001725	31956.9	5.384166	155.401	221.647	1.104447	0.031089	0.030771	225.819	31956.9	0.025789	0.032467	6955.42	162039
743	2.000000	1.106665	7.37233e+06	-39939.1	1005.82	-29792	0.000000	0.000000	7.116392	242.069	NaN	0.000000	0.001652	0.001673	28.0835	57.2973	0.001665	34413.7	3.968907	155.704	236.826	1.106416	0.032989	0.032740	242.069	34413.7	0.027714	0.036138	6698.47	165395
743	2.000000	1.108650	7.37233e+06	-39939.1	1005.82	-29792	0.000000	0.000000	7.119244	263.16	NaN	0.000000	0.001661	0.001693	28.0835	60.9526	0.001761	34612.8	4.147890	155.88	258.577	1.108473	0.034974	0.034796	263.16	34612.8	0.029272	0.039248	6705.01	159625
743	2.000000	1.110657	7.37233e+06	-39939.1	1005.82	-29792	0.000000	0.000000	7.122535	294.416	NaN	0.000000	0.001651	0.001658	28.0835	62.5868	0.001757	35621.2	6.726970	153.324	289.275	1.110327	0.036981	0.036651	294.416	35621.2	0.030782	0.042380	6946.98	158088
743	2.000000	1.112669	7.37233e+06	-39939.1	1005.82	-29792	0.000000	0.000000	7.125612	320.338	NaN	0.000000	0.001631	0.001683	28.0837	64.4832	0.001719	37508.1	3.038188	156.853	316.066	1.112350	0.038992	0.038674	320.338	37508.1	0.032587	0.046277	6922.26	159301
743	2.000000	1.114783	7.37233e+06	-39939.1	1005.82	-29792	0.000000	0.000000	7.128823	347.014	NaN	0.000000	0.001645	0.001676	28.0828	67.4904	0.001744	38702.2	3.012555	156.643	347.02	1.114324	0.041107	0.040648	347.014	38702.2	0.034382	0.050318	6896.44	157633
743	2.000000	1.116780	7.37233e+06	-39939.1	1005.82	-29792	0.000000	0.000000	7.131818	371.309	NaN	0.000000	0.001617	0.001642	28.0824	70.0803	0.001663	42140.3	7.426009	151.737	372.491	1.116281	0.043104	0.042605	371.309	42140.3	0.036495	0.055285	6716.26	163744
743	2.000000	1.118733	7.37233e+06	-39939.1	1005.82	-29792	0.000000	0.000000	7.134964	400.341	NaN	0.000000	0.001598	0.001632	28.0826	72.5954	0.001719	42219.1	2.348963	156.669	398.187	1.118356	0.045056	0.044680	400.341	42219.1	0.037945	0.058824	6805.69	159039
743	2.000000	1.120615	7.37233e+06	-39939.1	1005.82	-29792	0.000000	0.000000	7.138185	432.918	NaN	0.000000	0.001586	0.001667	28.0824	74.7187	0.001704	43859.8	7.301465	151.674	426.735	1.120248	0.046939	0.046571	432.918	43859.8	0.039536	0.062834	6889.89	159861
743	2.000000	1.122661	7.37233e+06	-39939.1	1005.82	-29792	0.000000	0.000000	7.141280	458.428	NaN	0.000000	0.001553	0.001667	28.0827	76.7589	0.001637	46876.4	2.243020	156.008	451.579	1.122265	0.048985	0.048589	458.428	46876.4	0.041651	0.068364	6705.73	163800
743	2.000000	1.124692	7.37233e+06	-39939.1	1005.82	-29792	0.000000	0.000000	7.145125	502.603	NaN	0.000000	0.001567	0.001670	28.0824	80.0838	0.001652	48475.6	5.969910	151.91	497.79	1.124255	0.051016	0.050579	502.603	48475.6	0.043239	0.072668	6916.43	164295
743	2.000000	1.126650	7.37233e+06	-39939.1	1005.82	-29792	0.000000	0.000000	7.148024	525.484	NaN	0.000000	0.001582	0.001670	28.0825	81.8815	0.001612	50788.2	4.417203	152.721	521.024	1.126401	0.052974	0.052725	525.484	50788.2	0.045214	0.078196	6720.08	165937
743	2.000000	1.128750	7.37233e+06	-39939.1	1005.82	-29792	0.000000	0.000000	7.151143	550.292	NaN	0.000000	0.001593	0.001654	28.0825	85.8165	0.001713	50095	1.597719	155.719	550.379	1.128618	0.055073	0.054941	550.292	50095	0.046835	0.082881	6639.55	158979
743	2.000000	1.130611	7.37233e+06	-39939.1	1005.82	-29792	0.000000	0.000000	7.155018	599.29	NaN	0.000000	0.001588	0.001646	28.0823	87.2446	0.001682	51875.9	3.033884	154.673	592.534	1.130293	0.056935	0.056616	599.29	51875.9	0.048271	0.087143	6877.07	160554
743	2.000000	1.132579	7.37233e+06	-39939.1	1005.82	-29792	0.000000	0.000000	7.158568	637.789	NaN	0.000000	0.001588	0.001667	28.0825	91.0365	0.001680	54194.5	4.853239	152.581	629.733	1.132278	0.058903	0.058602	637.789	54194.5	0.050077	0.092650	6883.84	162669
743	2.000000	1.134549	7.37233e+06	-39939.1	1005.82	-29792	0.000000	0.000000	7.161193	653.719	NaN	0.000000	0.001602	0.001655	28.0822	93.4045	0.001668	56008.5	2.343095	154.457	642.97	1.134207	0.060873	0.060531	653.719	56008.5	0.052119	0.099075	6598.19	162571
743	2.000000	1.136665	7.37233e+06	-39939.1	1005.82	-29792	0.000000	0.000000	7.165371	703.912	NaN	0.000000	0.001624	0.001657	28.0823	95.891	0.001718	55824.2	4.532778	152.57	700.589	1.136293	0.062989	0.062617	703.912	55824.2	0.053531	0.103640	6791.88	158428
743	2.000000	1.138624	7.37233e+06	-39939.1	1005.82	-29792	0.000000	0.000000	7.168921	742.627	NaN	0.000000	0.001617	0.001713	28.0825	99.7879	0.001694	58917.5	6.667055	149.935	737.48	1.138320	0.064948	0.064643	742.627	58917.5	0.055495	0.110150	6741.97	162190
743	2.000000	1.140541	7.37233e+06	-39939.1	1005.82	-29792	0.000000	0.000000	7.171731	764.353	NaN	0.000000	0.001642	0.001645	28.0823	100.347	0.001820	55130	3.237974	154.278	754.94	1.140230	0.066865	0.066554	764.353	55130	0.056466	0.113442	6737.81	149546
743	2.000000	1.142510	7.37233e+06	-39939.1	1005.82	-29792	0.000000	0.000000	7.175430	806.47	NaN	0.000000	0.001610	0.001616	28.0835	103.95	0.001791	58040.4	3.542204	153.418	796.928	1.142388	0.068833	0.068711	806.47	58040.4	0.058412	0.120176	6710.76	152966
743	2.000000	1.144588	7.37233e+06	-39939.1	1005.82	-29792	0.000000	0.000000	7.179345	851.171	NaN	0.000000	0.001606	0.001631	28.0824	107.153	0.001737	61677.3	5.389969	151.264	842.454	1.144371	0.070911	0.070695	851.171	61677.3	0.060561	0.127828	6658.7	157610
743	2.000000	1.146634	7.37233e+06	-39939.1	1005.82	-29792	0.000000	0.000000	7.183059	891.751	NaN	0.000000	0.001614	0.001666	28.0826	106.873	0.001736	61552.2	-1.652470	158.343	887.542	1.146378	0.072957	0.072702	891.751	61552.2	0.062092	0.133415	6684.04	153962
743	2.000000	1.148566	7.37233e+06	-39939.1	1005.82	-29792	0.000000	0.000000	7.186351	924.843	NaN	0.000000	0.001672	0.001659	28.0831	112.809	0.001766	63863.8	6.844121	148.917	916.291	1.148248	0.074889	0.074572	924.843	63863.8	0.064028	0.140648	6575.6	155583
743	2.000000	1.150596	7.37233e+06	-39939.1	1005.82	-29792	0.000000	0.000000	7.190572	978.144	NaN	0.000000	0.001600	0.001696	28.0839	112.445	0.001743	64515.6	4.668569	151.478	971.296	1.150246	0.076920	0.076569	978.144	64515.6	0.065549	0.146455	6678.79	154023
743	2.000000	1.152784	7.37233e+06	-39939.1	1005.82	-29792	0.000000	0.000000	7.192666	975.872	NaN	0.000000	0.001595	0.001663	28.0843	115.84	0.001730	66977	3.313630	152.407	977.785	1.152796	0.079108	0.079120	975.872	66977	0.068180	0.156763	6225.14	154553
743	2.000000	1.154422	7.37233e+06	-39939.1	1005.82	-29792	0.000000	0.000000	7.197117	1044.34	NaN	0.000000	0.001605	0.001678	28.0837	117.535	0.001765	66594.8	3.550682	152.573	1027.7	1.154129	0.080745	0.080453	1044.34	66594.8	0.068984	0.159979	6528	152119
743	2.000000	1.156606	7.37233e+06	-39939.1	1005.82	-29792	0.000000	0.000000	7.201333	1093.78	NaN	0.000000	0.001634	0.001661	28.0837	120.423	0.001708	70497.4	4.969600	150.998	1089.46	1.156275	0.082929	0.082599	1093.78	70497.4	0.071293	0.169387	6457.27	156497
743	2.000000	1.158599	7.37233e+06	-39939.1	1005.82	-29792	0.000000	0.000000	7.204926	1132.7	NaN	0.000000	0.001586	0.001679	28.0835	123.272	0.001889	65268.1	3.818549	152.46	1125.58	1.158224	0.084923	0.084548	1132.7	65268.1	0.071907	0.171930	6588.16	143813
743	2.000000	1.160612	7.37233e+06	-39939.1	1005.82	-29792	0.000000	0.000000	7.208603	1173.18	NaN	0.000000	0.001578	0.001665	28.0835	123.301	0.001766	69834.7	0.161524	155.765	1167.52	1.160388	0.086936	0.086712	1173.18	69834.7	0.074336	0.182174	6439.89	149486
743	2.000000	1.162648	7.37233e+06	-39939.1	1005.82	-29792	0.000000	0.000000	7.212872	1227.52	NaN	0.000000	0.001614	0.001653	28.0842	126.071	0.001673	75343.1	1.739450	153.655	1225.36	1.162301	0.088972	0.088624	1227.52	75343.1	0.076752	0.192635	6372.29	156837
743	2.000000	1.164670	7.37233e+06	-39939.1	1005.82	-29792	0.000000	0.000000	7.216831	1274.65	NaN	0.000000	0.001642	0.001698	28.0837	129.246	0.001710	75591.9	2.567075	152.78	1269.87	1.164260	0.090994	0.090584	1274.65	75591.9	0.078347	0.199690	6383.15	154550
743	2.000000	1.166555	7.37233e+06	-39939.1	1005.82	-29792	0.000000	0.000000	7.220470	1317.33	NaN	0.000000	0.001622	0.001667	28.0838	131.296	0.001842	71283.1	3.305804	152.429	1311	1.166270	0.092879	0.092594	1317.33	71283.1	0.079019	0.202698	6499	144656
743	2.000000	1.168577	7.37233e+06	-39939.1	1005.82	-29792	0.000000	0.000000	7.224318	1361.8	NaN	0.000000	0.001621	0.001651	28.0836	133.986	0.001772	75634	5.045339	150.626	1353.56	1.168154	0.094900	0.094478	1361.8	75634	0.081397	0.213513	6378.06	149547
743	2.000000	1.170605	7.37233e+06	-39939.1	1005.82	-29792	0.000000	0.000000	7.228094	1404.32	NaN	0.000000	0.001617	0.001625	28.0835	133.835	0.001682	79591.9	4.021691	151.034	1399.18	1.170249	0.096929	0.096573	1404.32	79591.9	0.083696	0.224219	6263.18	153570
743	2.000000	1.172508	7.37233e+06	-39939.1	1005.82	-29792	0.000000	0.000000	7.231841	1449.19	NaN	0.000000	0.001617	0.001634	28.0837	136.785	0.001887	72490.3	2.926537	152.843	1438.23	1.172236	0.098832	0.098559	1449.19	72490.3	0.083839	0.224893	6443.92	139658
743	2.000000	1.174572	7.37233e+06	-39939.1	1005.82	-29792	0.000000	0.000000	7.236084	1502.21	NaN	0.000000	0.001634	0.001691	28.0836	138.964	0.001752	79332.4	5.642951	149.755	1494.93	1.174162	0.100896	0.100486	1502.21	79332.4	0.086694	0.238551	6297.24	148400
743	2.000000	1.176150	7.37233e+06	-39939.1	1005.82	-29792	0.000000	0.000000	7.238467	1521.81	NaN	0.000000	0.001609	0.001635	28.0836	137.652	0.001746	78860.2	-1.934980	-22.4969	1518.5	1.175881	0.102474	0.102205	1521.81	78860.2	0.088001	0.244923	6213.39	145585