File: remote_trans/data/nanoindenter/0828-1/data/Data_2025-08-06,11h17m57s/2025-07-22_16-19-15_0_0.txt
2025-07-22, 16:19:15, 0
Index	Phase	Displacement	Time	Pos X	Pos Y	Pos Z	Rot A	Rot B	Piezo Z	Force A	Force B	Gripper	Voltage A	Voltage B	Temperature	Amplitude force	Amplitude pos	Stiffness	Phase shift	Phase excitation	Force A raw	Displacement raw	HMax	HMax raw	Real Force	Real Stiffness	Contact Depth	Area	Hardness	Reduced Mod.
[#]	[#]	[um]	[s]	[um]	[um]	[um]	[m°]	[m°]	[um]	[uN]	[uN]	[V]	[V]	[V]	[°C]	[uN]	[um]	[N/m]	[°]	[°]	[uN]	[um]	[um]	[um]	[uN]	[N/m]	[um]	[um^2]	[MPa]	[MPa]
0.000000	1.000000	0.002483	7.36476e+06	-39509.6	587.333	-29794.3	0.000000	0.000000	6.002622	0.074291	NaN	0.000000	0.001591	0.001591	28.0837	0.150121	0.000861	174.326	-135.356	-163.178	-0.012680	0.001200	-1.147693	-1.148976	0.074291	174.326	-1.148012	-2.208868E+15	-3.363301E-17	NaN
0.000000	1.000000	0.012563	7.36476e+06	-39509.6	587.332	-29794.3	0.000000	0.000000	6.012700	0.001064	NaN	0.000000	0.001622	0.001660	28.0884	0.041875	0.001269	32.9873	-72.9858	22.9406	-0.016565	0.011118	-1.137612	-1.139058	0.001064	32.9873	-1.137637	-1.603404E+15	-6.636721E-19	NaN
0.000000	1.000000	0.022461	7.36476e+06	-39509.6	587.333	-29794.3	0.000000	0.000000	6.022595	-0.056809	NaN	0.000000	0.001623	0.001665	28.1277	0.111645	0.001684	66.3035	131.59	-166.858	-0.046166	0.021146	-1.127714	-1.129029	-0.056809	66.3035	-1.127072	-1.157029E+15	4.909936E-17	NaN
0.000000	1.000000	0.032469	7.36476e+06	-39509.6	587.333	-29794.3	0.000000	0.000000	6.032608	0.050162	NaN	0.000000	0.001592	0.001651	28.1121	0.007650	0.001889	4.048729	69.0179	14.1599	0.015096	0.031121	-1.117706	-1.119054	0.050162	4.048729	-1.126998	-1.154408E+15	-4.345246E-17	NaN
0.000000	1.000000	0.042509	7.36476e+06	-39509.6	587.331	-29794.3	0.000000	0.000000	6.042645	-0.008116	NaN	0.000000	0.001619	0.001655	28.0807	0.053447	0.002026	26.3792	64.8897	-163.851	-0.020655	0.041213	-1.107666	-1.108963	-0.008116	26.3792	-1.107436	-6.307727E+14	1.286638E-17	NaN
0.000000	1.000000	0.052525	7.36476e+06	-39509.6	587.333	-29794.3	0.000000	0.000000	6.052661	-0.007465	NaN	0.000000	0.001642	0.001626	28.0868	0.066394	0.001920	34.5827	-123.469	13.1989	0.050717	0.051103	-1.097651	-1.099073	-0.007465	34.5827	-1.097489	-4.638312E+14	1.609429E-17	NaN
0.000000	1.000000	0.062553	7.36476e+06	-39509.6	587.333	-29794.3	0.000000	0.000000	6.062689	4.032756E-5	NaN	0.000000	0.001645	0.001659	28.1261	0.039547	0.001952	20.2637	-40.2319	-164.435	-0.028767	0.061251	-1.087623	-1.088924	4.032756E-5	20.2637	-1.087624	-3.419091E+14	-1.179482E-19	NaN
0.000000	1.000000	0.072555	7.36476e+06	-39509.6	587.333	-29794.3	0.000000	0.000000	6.072691	-0.020066	NaN	0.000000	0.001637	0.001658	28.1121	0.032728	0.002016	16.2372	-118.326	12.62	-0.079671	0.071165	-1.077620	-1.079011	-0.020066	16.2372	-1.076694	-2.438414E+14	8.229149E-17	NaN
0.000000	1.000000	0.082559	7.36476e+06	-39509.6	587.332	-29794.3	0.000000	0.000000	6.082695	0.004579	NaN	0.000000	0.001580	0.001659	28.083	0.045940	0.001895	24.239	145.342	-167.433	0.052981	0.081291	-1.067617	-1.068884	0.004579	24.239	-1.067759	-1.849585E+14	-2.475929E-17	NaN
0.000000	1.000000	0.092593	7.36476e+06	-39509.6	587.333	-29794.3	0.000000	0.000000	6.092732	0.054531	NaN	0.000000	0.001565	0.001686	28.0875	0.008324	0.002060	4.040188	122.367	13.0949	0.097889	0.091232	-1.057583	-1.058943	0.054531	4.040188	-1.067706	-1.846561E+14	-2.953132E-16	NaN
0.000000	1.000000	0.102587	7.36476e+06	-39509.6	587.333	-29794.3	0.000000	0.000000	6.102724	0.018761	NaN	0.000000	0.001602	0.001675	28.1277	0.036603	0.001974	18.5381	-150.21	-162.153	0.067990	0.101262	-1.047589	-1.048914	0.018761	18.5381	-1.048348	-1.014384E+14	-1.849540E-16	NaN
0.000000	1.000000	0.112610	7.36476e+06	-39509.6	587.332	-29794.3	0.000000	0.000000	6.112744	-0.046797	NaN	0.000000	0.001607	0.001658	28.1131	0.084181	0.002017	41.7449	123.706	12.4285	0.037690	0.111240	-1.037566	-1.038936	-0.046797	41.7449	-1.036725	-7.078248E+13	6.611315E-16	NaN
0.000000	1.000000	0.122620	7.36476e+06	-39509.6	587.332	-29794.3	0.000000	0.000000	6.122755	-0.017831	NaN	0.000000	0.001631	0.001648	28.0815	0.037346	0.001880	19.8618	107.018	-167.342	-0.031280	0.121283	-1.027556	-1.028893	-0.017831	19.8618	-1.026883	-5.218542E+13	3.416881E-16	NaN
0.000000	1.000000	0.132625	7.36476e+06	-39509.6	587.331	-29794.3	0.000000	0.000000	6.132761	-0.006632	NaN	0.000000	0.001661	0.001701	28.0853	0.105573	0.001991	53.0159	39.6925	13.6976	-0.020446	0.131270	-1.017551	-1.018906	-0.006632	53.0159	-1.017457	-3.897015E+13	1.701868E-16	NaN
0.000000	1.000000	0.142657	7.36476e+06	-39509.6	587.333	-29794.3	0.000000	0.000000	6.142794	0.023247	NaN	0.000000	0.001674	0.001668	28.1248	0.037202	0.002089	17.8047	111.144	-165.947	0.016469	0.141281	-1.007519	-1.008895	0.023247	17.8047	-1.008499	-2.952384E+13	-7.874139E-16	NaN
0.000000	1.000000	0.152648	7.36476e+06	-39509.6	587.332	-29794.3	0.000000	0.000000	6.152784	0.011554	NaN	0.000000	0.001617	0.001649	28.1108	0.043649	0.001943	22.466	88.3666	14.4336	0.053646	0.151239	-0.997528	-0.998937	0.011554	22.466	-0.997914	-2.126582E+13	-5.433262E-16	NaN
0.000000	1.000000	0.162632	7.36476e+06	-39509.6	587.332	-29794.3	0.000000	0.000000	6.162767	-0.037939	NaN	0.000000	0.001629	0.001679	28.0809	0.052982	0.001920	27.5955	132.366	-168.553	-0.004909	0.161334	-0.987544	-0.988842	-0.037939	27.5955	-0.986513	-1.493287E+13	2.540620E-15	NaN
0.000000	1.000000	0.172662	7.36476e+06	-39509.6	587.333	-29794.3	0.000000	0.000000	6.172796	-0.042340	NaN	0.000000	0.001672	0.001672	28.0873	0.064899	0.001987	32.6681	92.5578	12.9175	-0.078200	0.171319	-0.977514	-0.978857	-0.042340	32.6681	-0.976542	-1.096022E+13	3.863021E-15	NaN
0.000000	1.000000	0.182652	7.36476e+06	-39509.6	587.333	-29794.3	0.000000	0.000000	6.182790	0.036003	NaN	0.000000	0.001660	0.001690	28.1256	0.047932	0.002121	22.6025	147.776	-166.91	0.084422	0.181324	-0.967523	-0.968852	0.036003	22.6025	-0.968718	-8.597745E+12	-4.187498E-15	NaN
0.000000	1.000000	0.192685	7.36476e+06	-39509.6	587.332	-29794.3	0.000000	0.000000	6.192822	0.030312	NaN	0.000000	0.001704	0.001677	28.1118	0.150332	0.001997	75.2673	-64.5256	14.1327	-0.040829	0.191326	-0.957491	-0.958849	0.030312	75.2673	-0.957793	-6.125161E+12	-4.948777E-15	NaN
0.000000	1.000000	0.202675	7.36476e+06	-39509.6	587.333	-29794.3	0.000000	0.000000	6.202813	0.058648	NaN	0.000000	0.001639	0.001661	28.0815	0.041035	0.001917	21.4116	32.8321	-165.533	0.087191	0.201369	-0.947501	-0.948807	0.058648	21.4116	-0.949555	-4.742772E+12	-1.236572E-14	NaN
0.000000	1.000000	0.212688	7.36476e+06	-39509.6	587.333	-29794.3	0.000000	0.000000	6.212820	-0.104530	NaN	0.000000	0.001638	0.001678	28.0873	0.048569	0.001984	24.4858	-98.0618	13.0799	-0.052649	0.211341	-0.937488	-0.938835	-0.104530	24.4858	-0.934286	-2.951461E+12	3.541626E-14	NaN
0.000000	1.000000	0.222693	7.36476e+06	-39509.6	587.333	-29794.3	0.000000	0.000000	6.222831	0.054321	NaN	0.000000	0.001634	0.001681	28.1268	0.144513	0.001980	72.9932	-85.3751	-166.236	-0.032737	0.221400	-0.927483	-0.928776	0.054321	72.9932	-0.928041	-2.430838E+12	-2.234665E-14	NaN
0.000000	1.000000	0.232721	7.36476e+06	-39509.6	587.334	-29794.3	0.000000	0.000000	6.232859	0.049154	NaN	0.000000	0.001625	0.001672	28.1137	0.029173	0.001995	14.621	138.534	12.6062	0.155221	0.231316	-0.917455	-0.918860	0.049154	14.621	-0.919977	-1.891870E+12	-2.598195E-14	NaN
0.000000	1.000000	0.242720	7.36476e+06	-39509.6	587.333	-29794.3	0.000000	0.000000	6.242860	0.078768	NaN	0.000000	0.001616	0.001663	28.0831	0.009185	0.002065	4.447031	-50.7756	-165.438	0.100472	0.241429	-0.907456	-0.908746	0.078768	4.447031	-0.920740	-1.937301E+12	-4.065862E-14	NaN
0.000000	1.000000	0.252705	7.36476e+06	-39509.6	587.332	-29794.3	0.000000	0.000000	6.252843	0.034739	NaN	0.000000	0.001622	0.001675	28.0879	0.070417	0.001957	35.9846	-14.3392	17.0338	0.037875	0.251357	-0.897470	-0.898819	0.034739	35.9846	-0.898194	-9.608746E+11	-3.615327E-14	NaN
0.000000	1.000000	0.262705	7.36476e+06	-39509.6	587.333	-29794.3	0.000000	0.000000	6.262841	-0.003623	NaN	0.000000	0.001613	0.001667	28.1273	0.070003	0.001886	37.1097	47.5915	-167.006	0.061789	0.261359	-0.887471	-0.888817	-0.003623	37.1097	-0.887397	-6.866446E+11	5.276974E-15	NaN
0.000000	1.000000	0.272702	7.36476e+06	-39509.6	587.332	-29794.3	0.000000	0.000000	6.272839	0.019595	NaN	0.000000	0.001606	0.001685	28.1161	0.055881	0.001997	27.9771	1.847954	15.5942	-0.001930	0.271400	-0.877474	-0.878775	0.019595	27.9771	-0.877999	-5.124460E+11	-3.823723E-14	NaN
0.000000	1.000000	0.282716	7.36476e+06	-39509.6	587.334	-29794.3	0.000000	0.000000	6.282853	0.018052	NaN	0.000000	0.001551	0.001702	28.0816	0.075541	0.001948	38.7783	-161.776	-168.763	0.018790	0.281424	-0.867460	-0.868752	0.018052	38.7783	-0.867809	-3.730743E+11	-4.838655E-14	NaN
0.000000	1.000000	0.292719	7.36476e+06	-39509.6	587.332	-29794.3	0.000000	0.000000	6.292856	0.010422	NaN	0.000000	0.001573	0.001670	28.0878	0.025812	0.001972	13.0879	-72.6179	10.8589	0.029742	0.291355	-0.857456	-0.858821	0.010422	13.0879	-0.858054	-2.752811E+11	-3.785959E-14	NaN
0.000000	1.000000	0.302695	7.36476e+06	-39509.6	587.333	-29794.3	0.000000	0.000000	6.302829	-0.039929	NaN	0.000000	0.001598	0.001682	28.1258	0.082784	0.001924	43.0368	18.6389	-163.395	-0.076185	0.301313	-0.847481	-0.848863	-0.039929	43.0368	-0.846785	-1.937330E+11	2.061043E-13	NaN
0.000000	1.000000	0.312732	7.36476e+06	-39509.6	587.333	-29794.3	0.000000	0.000000	6.312867	-0.023569	NaN	0.000000	0.001561	0.001696	28.1146	0.026629	0.001998	13.325	-149.333	12.6508	0.055998	0.311341	-0.837444	-0.838835	-0.023569	13.325	-0.836117	-1.388954E+11	1.696877E-13	NaN
0.000000	1.000000	0.322747	7.36476e+06	-39509.6	587.333	-29794.3	0.000000	0.000000	6.322882	-0.034526	NaN	0.000000	0.001595	0.001662	28.0828	0.121022	0.001981	61.0827	114.377	-165.506	0.004287	0.321447	-0.827429	-0.828728	-0.034526	61.0827	-0.827005	-1.045169E+11	3.303375E-13	NaN
0.000000	1.000000	0.332751	7.36476e+06	-39509.6	587.334	-29794.3	0.000000	0.000000	6.332891	0.095536	NaN	0.000000	0.001599	0.001689	28.0876	0.016286	0.001938	8.401924	147.353	9.034273	0.102837	0.331398	-0.817425	-0.818777	0.095536	8.401924	-0.825953	-1.011397E+11	-9.445918E-13	NaN
0.000000	1.000000	0.342766	7.36476e+06	-39509.6	587.332	-29794.3	0.000000	0.000000	6.342902	-0.010544	NaN	0.000000	0.001557	0.001650	28.1267	0.123113	0.002086	59.0131	89.6826	-164.642	0.001393	0.341422	-0.807410	-0.808754	-0.010544	59.0131	-0.807276	-5.644236E+10	1.868152E-13	NaN
0.000000	1.000000	0.352758	7.36476e+06	-39509.6	587.332	-29794.3	0.000000	0.000000	6.352895	0.031608	NaN	0.000000	0.001559	0.001692	28.1155	0.079945	0.001902	42.0292	171.634	13.3731	0.103289	0.351363	-0.797418	-0.798813	0.031608	42.0292	-0.797982	-4.221498E+10	-7.487272E-13	NaN
0.000000	1.000000	0.362736	7.36476e+06	-39509.6	587.332	-29794.3	0.000000	0.000000	6.362874	0.043944	NaN	0.000000	0.001572	0.001693	28.0823	0.081349	0.002123	38.31	46.6914	-163.215	0.006636	0.361439	-0.787439	-0.788737	0.043944	38.31	-0.788300	-3.118813E+10	-1.409010E-12	NaN
0.000000	1.000000	0.372761	7.36476e+06	-39509.6	587.332	-29794.3	0.000000	0.000000	6.372895	-0.041360	NaN	0.000000	0.001587	0.001657	28.0857	0.051118	0.002034	25.1361	126.266	16.3612	-0.025280	0.371422	-0.777415	-0.778754	-0.041360	25.1361	-0.776181	-2.134670E+10	1.937554E-12	NaN
0.000000	1.000000	0.382778	7.36476e+06	-39509.6	587.331	-29794.3	0.000000	0.000000	6.382916	0.027634	NaN	0.000000	0.001558	0.001662	28.1259	0.100903	0.002087	48.3473	118.289	-165.679	0.055662	0.381435	-0.767398	-0.768741	0.027634	48.3473	-0.767826	-1.643421E+10	-1.681498E-12	NaN
0.000000	1.000000	0.392775	7.36476e+06	-39509.6	587.331	-29794.3	0.000000	0.000000	6.392912	0.017223	NaN	0.000000	0.001599	0.001679	28.1136	0.073722	0.001945	37.9108	98.7727	15.8122	0.005080	0.391394	-0.757401	-0.758782	0.017223	37.9108	-0.757742	-1.198342E+10	-1.437231E-12	NaN
0.000000	1.000000	0.402775	7.36476e+06	-39509.6	587.33	-29794.3	0.000000	0.000000	6.402911	-0.025246	NaN	0.000000	0.001607	0.001655	28.0813	0.083650	0.001986	42.1227	18.8041	-167.309	0.045386	0.401497	-0.747400	-0.748679	-0.025246	42.1227	-0.746951	-8.544971E+9	2.954454E-12	NaN
0.000000	1.000000	0.412759	7.36476e+06	-39509.6	587.331	-29794.3	0.000000	0.000000	6.412895	-0.006903	NaN	0.000000	0.001633	0.001674	28.0858	0.037805	0.002182	17.3273	56.0671	12.6351	0.041827	0.411379	-0.737417	-0.738797	-0.006903	17.3273	-0.737118	-6.277640E+9	1.099674E-12	NaN
0.000000	1.000000	0.422783	7.36476e+06	-39509.6	587.33	-29794.3	0.000000	0.000000	6.422919	0.013701	NaN	0.000000	0.001644	0.001653	28.125	0.009959	0.002092	4.760604	83.5107	-165.885	0.058592	0.421500	-0.727393	-0.728676	0.013701	4.760604	-0.729552	-4.951066E+9	-2.767321E-12	NaN
0.000000	1.000000	0.432792	7.36476e+06	-39509.6	587.331	-29794.3	0.000000	0.000000	6.432929	0.024183	NaN	0.000000	0.001625	0.001662	28.1134	0.058844	0.001983	29.6759	-150.458	14.5652	0.033242	0.431508	-0.717384	-0.718668	0.024183	29.6759	-0.717995	-3.444484E+9	-7.020656E-12	NaN
0.000000	1.000000	0.442774	7.36476e+06	-39509.6	587.331	-29794.3	0.000000	0.000000	6.442908	-0.051505	NaN	0.000000	0.001693	0.001675	28.0791	0.114811	0.001980	57.9896	-118.951	-165.49	0.036117	0.441516	-0.707402	-0.708660	-0.051505	57.9896	-0.706736	-2.418242E+9	2.129862E-11	NaN
0.000000	1.000000	0.452800	7.36476e+06	-39509.6	587.33	-29794.3	0.000000	0.000000	6.452937	0.021964	NaN	0.000000	0.001665	0.001672	28.0851	0.061485	0.001991	30.8788	28.9999	11.2355	0.044020	0.451456	-0.697376	-0.698720	0.021964	30.8788	-0.697909	-1.832225E+9	-1.198768E-11	NaN
0.000000	1.000000	0.462809	7.36476e+06	-39509.6	587.33	-29794.3	0.000000	0.000000	6.462948	0.063695	NaN	0.000000	0.001670	0.001638	28.124	0.051853	0.002033	25.5002	90.0073	-168.871	0.097985	0.461476	-0.687367	-0.688700	0.063695	25.5002	-0.689240	-1.394880E+9	-4.566343E-11	NaN
0.000000	1.000000	0.472795	7.36476e+06	-39509.6	587.33	-29794.3	0.000000	0.000000	6.472933	0.024183	NaN	0.000000	0.001715	0.001679	28.1131	0.115727	0.001987	58.2401	39.6399	12.0384	0.041793	0.471461	-0.677380	-0.678715	0.024183	58.2401	-0.677692	-9.696915E+8	-2.493848E-11	NaN
0.000000	1.000000	0.482820	7.36476e+06	-39509.6	587.33	-29794.3	0.000000	0.000000	6.482954	-0.060501	NaN	0.000000	0.001707	0.001680	28.0802	0.087735	0.002092	41.931	-95.7574	-166.089	-0.077741	0.481539	-0.667355	-0.668637	-0.060501	41.931	-0.666273	-6.766697E+8	8.941053E-11	NaN
0.000000	1.000000	0.492846	7.36476e+06	-39509.6	587.331	-29794.3	0.000000	0.000000	6.492981	-0.030236	NaN	0.000000	0.001713	0.001712	28.085	0.083121	0.002011	41.3292	72.6513	16.6961	0.021130	0.491439	-0.657330	-0.658737	-0.030236	41.3292	-0.656781	-5.016163E+8	6.027627E-11	NaN
0.000000	1.000000	0.502808	7.36476e+06	-39509.6	587.331	-29794.3	0.000000	0.000000	6.502946	0.054255	NaN	0.000000	0.001695	0.001682	28.1249	0.085247	0.002142	39.7976	17.7001	-168.115	-0.002793	0.501533	-0.647368	-0.648643	0.054255	39.7976	-0.648391	-3.849204E+8	-1.409509E-10	NaN
0.000000	1.000000	0.512831	7.36476e+06	-39509.6	587.331	-29794.3	0.000000	0.000000	6.512972	0.105454	NaN	0.000000	0.001683	0.001713	28.1144	0.026043	0.001958	13.3005	-103.885	15.3092	0.054562	0.511459	-0.637345	-0.638717	0.105454	13.3005	-0.643291	-3.276720E+8	-3.218283E-10	NaN
0.000000	1.000000	0.522842	7.36476e+06	-39509.6	587.331	-29794.3	0.000000	0.000000	6.522979	0.015569	NaN	0.000000	0.001696	0.001724	28.0798	0.062279	0.001904	32.7165	148.08	-163.486	-0.068926	0.521462	-0.627333	-0.628714	0.015569	32.7165	-0.627690	-2.001243E+8	-7.779498E-11	NaN
0.000000	1.000000	0.532830	7.36476e+06	-39509.6	587.331	-29794.3	0.000000	0.000000	6.532967	0.039245	NaN	0.000000	0.001711	0.001717	28.084	0.064651	0.002023	31.9602	169.007	14.0858	0.055239	0.531459	-0.617346	-0.618716	0.039245	31.9602	-0.618267	-1.485297E+8	-2.642207E-10	NaN
0.000000	1.000000	0.542856	7.36476e+06	-39509.6	587.331	-29794.3	0.000000	0.000000	6.542993	0.019689	NaN	0.000000	0.001707	0.001715	28.1248	0.074715	0.001928	38.761	172.837	-164.645	-0.086376	0.541534	-0.607320	-0.608642	0.019689	38.761	-0.607700	-1.062851E+8	-1.852424E-10	NaN
0.000000	1.000000	0.552837	7.36476e+06	-39509.6	587.331	-29794.3	0.000000	0.000000	6.552974	0.025490	NaN	0.000000	0.001694	0.001706	28.1144	0.096111	0.001985	48.4153	144.019	13.4043	0.066592	0.551477	-0.597339	-0.598699	0.025490	48.4153	-0.597734	-7.748935E+7	-3.289494E-10	NaN
0.000000	1.000000	0.562854	7.36476e+06	-39509.6	587.332	-29794.3	0.000000	0.000000	6.562991	0.028969	NaN	0.000000	0.001713	0.001698	28.0824	0.036816	0.002168	16.9829	158.584	-165.468	0.083490	0.561562	-0.587322	-0.588614	0.028969	16.9829	-0.588601	-5.799351E+7	-4.995173E-10	NaN
0.000000	1.000000	0.572839	7.36476e+06	-39509.6	587.332	-29794.3	0.000000	0.000000	6.572977	0.044971	NaN	0.000000	0.001686	0.001684	28.0867	0.077235	0.001944	39.7391	-28.0404	13.2164	0.121151	0.571495	-0.577337	-0.578681	0.044971	39.7391	-0.578186	-4.165656E+7	-1.079573E-9	NaN
0.000000	1.000000	0.582822	7.36476e+06	-39509.6	587.33	-29794.3	0.000000	0.000000	6.582959	0.008500	NaN	0.000000	0.001697	0.001686	28.1261	0.063334	0.001978	32.0162	-56.7552	-163.97	0.011341	0.581521	-0.567354	-0.568655	0.008500	32.0162	-0.567553	-2.970381E+7	-2.861543E-10	NaN
0.000000	1.000000	0.592856	7.36476e+06	-39509.6	587.331	-29794.3	0.000000	0.000000	6.592996	0.096331	NaN	0.000000	0.001689	0.001666	28.1157	0.052695	0.002155	24.4529	96.1336	17.1736	0.010031	0.591497	-0.557320	-0.558679	0.096331	24.4529	-0.560275	-2.356002E+7	-4.088740E-9	NaN
0.000000	1.000000	0.602861	7.36476e+06	-39509.6	587.331	-29794.3	0.000000	0.000000	6.603002	0.131870	NaN	0.000000	0.001667	0.001726	28.0809	0.074527	0.001932	38.5654	-135.071	-163.776	0.097642	0.601497	-0.547315	-0.548678	0.131870	38.5654	-0.549880	-1.691563E+7	-7.795748E-9	NaN
0.000000	1.000000	0.612891	7.36476e+06	-39509.6	587.331	-29794.3	0.000000	0.000000	6.613029	0.045279	NaN	0.000000	0.001688	0.001700	28.0845	0.103131	0.002033	50.7181	64.1714	14.1868	0.124440	0.611578	-0.537285	-0.538598	0.045279	50.7181	-0.537954	-1.156065E+7	-3.916670E-9	NaN
0.000000	1.000000	0.622858	7.36476e+06	-39509.6	587.332	-29794.3	0.000000	0.000000	6.622996	0.043415	NaN	0.000000	0.001716	0.001714	28.1245	0.049230	0.002007	24.5347	102.665	-167.998	0.042277	0.621529	-0.527318	-0.528647	0.043415	24.5347	-0.528645	-8.58526e+06	-5.056960E-9	NaN
0.000000	1.000000	0.632893	7.36476e+06	-39509.6	587.332	-29794.3	0.000000	0.000000	6.633031	0.048776	NaN	0.000000	0.001644	0.001692	28.1142	0.168495	0.001922	87.6804	-141.322	16.1711	0.046409	0.631528	-0.517283	-0.518647	0.048776	87.6804	-0.517700	-6.04791e+06	-8.064990E-9	NaN
0.000000	1.000000	0.642886	7.36476e+06	-39509.6	587.331	-29794.3	0.000000	0.000000	6.643024	0.048369	NaN	0.000000	0.001663	0.001663	28.0831	0.069178	0.001914	36.1518	-63.4394	-168.367	0.027583	0.641607	-0.507290	-0.508568	0.048369	36.1518	-0.508293	-4.47338e+06	-1.081260E-8	NaN
0.000000	1.000000	0.652913	7.36476e+06	-39509.6	587.331	-29794.3	0.000000	0.000000	6.653051	0.027708	NaN	0.000000	0.001695	0.001696	28.0879	0.014106	0.002103	6.708322	39.8622	15.0876	0.116192	0.651550	-0.497263	-0.498626	0.027708	6.708322	-0.500360	-3.46772e+06	-7.990186E-9	NaN
0.000000	1.000000	0.662889	7.36476e+06	-39509.6	587.332	-29794.3	0.000000	0.000000	6.663028	0.074247	NaN	0.000000	0.001642	0.001695	28.1257	0.067183	0.001957	34.3285	-91.248	-166.574	0.036833	0.661602	-0.487287	-0.488573	0.074247	34.3285	-0.488909	-2.39962e+06	-3.094104E-8	NaN
0.000000	1.000000	0.672904	7.36476e+06	-39509.6	587.331	-29794.3	0.000000	0.000000	6.673041	0.021578	NaN	0.000000	0.001668	0.001683	28.1152	0.052086	0.002033	25.6218	-172.822	17.1352	0.013831	0.671547	-0.477272	-0.478628	0.021578	25.6218	-0.477904	-1.68335e+06	-1.281854E-8	NaN
0.000000	1.000000	0.682873	7.36476e+06	-39509.6	587.331	-29794.3	0.000000	0.000000	6.683008	-0.035235	NaN	0.000000	0.001663	0.001689	28.0798	0.016205	0.002146	7.551355	-74.8273	-166.346	0.006832	0.681596	-0.467303	-0.468580	-0.035235	7.551355	-0.463803	-1.06769e+06	3.300065E-8	NaN
0.000000	1.000000	0.692901	7.36476e+06	-39509.6	587.332	-29794.3	0.000000	0.000000	6.693039	0.053740	NaN	0.000000	0.001618	0.001659	28.083	0.094397	0.002043	46.1945	146.838	14.5648	0.107750	0.691577	-0.457275	-0.458598	0.053740	46.1945	-0.458148	-889161	-6.043915E-8	NaN
0.000000	1.000000	0.702872	7.36476e+06	-39509.6	587.332	-29794.3	0.000000	0.000000	6.703007	-0.031705	NaN	0.000000	0.001630	0.001712	28.1226	0.038394	0.002078	18.4738	-148.949	-167.139	-0.014174	0.701576	-0.447304	-0.448600	-0.031705	18.4738	-0.446017	-600099	5.283356E-8	NaN
0.000000	1.000000	0.712904	7.36476e+06	-39509.6	587.332	-29794.3	0.000000	0.000000	6.713041	0.023823	NaN	0.000000	0.001603	0.001709	28.1133	0.129750	0.001975	65.6994	-173.415	16.9837	0.140967	0.711574	-0.437272	-0.438602	0.023823	65.6994	-0.437544	-455708	-5.227675E-8	NaN
0.000000	1.000000	0.722902	7.36476e+06	-39509.6	587.332	-29794.3	0.000000	0.000000	6.723038	0.006646	NaN	0.000000	0.001656	0.001710	28.0823	0.076003	0.001975	38.4824	-32.8078	-169.482	-0.038969	0.721614	-0.427274	-0.428562	0.006646	38.4824	-0.427404	-327582	-2.028865E-8	NaN
0.000000	1.000000	0.732912	7.36476e+06	-39509.6	587.331	-29794.3	0.000000	0.000000	6.733048	0.003984	NaN	0.000000	0.001634	0.001689	28.0843	0.127252	0.001941	65.552	-4.728242	13.2662	0.105722	0.731543	-0.417264	-0.418632	0.003984	65.552	-0.417310	-235637	-1.690581E-8	NaN
0.000000	1.000000	0.742920	7.36476e+06	-39509.6	587.331	-29794.3	0.000000	0.000000	6.743059	0.075300	NaN	0.000000	0.001639	0.001663	28.1243	0.123033	0.001999	61.5348	-50.5194	-164.156	0.051555	0.741607	-0.407256	-0.408569	0.075300	61.5348	-0.408174	-174752	-4.308952E-7	NaN
0.000000	1.000000	0.752915	7.36476e+06	-39509.6	587.331	-29794.3	0.000000	0.000000	6.753055	0.087587	NaN	0.000000	0.001634	0.001676	28.1156	0.024593	0.001878	13.0981	84.9142	9.501474	0.082057	0.751510	-0.397261	-0.398665	0.087587	13.0981	-0.402276	-144027	-6.081302E-7	NaN
0.000000	1.000000	0.762899	7.36476e+06	-39509.6	587.332	-29794.3	0.000000	0.000000	6.763036	0.018395	NaN	0.000000	0.001637	0.001672	28.0806	0.071295	0.002054	34.7099	-36.5803	-165.569	0.035618	0.761693	-0.387277	-0.388482	0.018395	34.7099	-0.387675	-89102.9	-2.064446E-7	NaN
0.000000	1.000000	0.772944	7.36476e+06	-39509.6	587.331	-29794.3	0.000000	0.000000	6.773081	-0.002964	NaN	0.000000	0.001593	0.001669	28.084	0.038541	0.002047	18.8239	100.623	17.0372	0.030557	0.771554	-0.377231	-0.378621	-0.002964	18.8239	-0.377113	-62869.4	4.713853E-8	NaN
0.000000	1.000000	0.782935	7.36476e+06	-39509.6	587.33	-29794.3	0.000000	0.000000	6.783073	0.021195	NaN	0.000000	0.001601	0.001664	28.1225	0.086460	0.002076	41.6482	28.0755	-166.495	0.031063	0.781617	-0.367240	-0.368558	0.021195	41.6482	-0.367622	-45905.6	-4.617176E-7	NaN
0.000000	1.000000	0.792966	7.36476e+06	-39509.6	587.331	-29794.3	0.000000	0.000000	6.793105	0.068236	NaN	0.000000	0.001575	0.001684	28.1146	0.070443	0.001918	36.7206	-149.66	12.181	0.051065	0.791553	-0.357209	-0.358622	0.068236	36.7206	-0.358603	-34013.1	-2.006158E-6	NaN
0.000000	1.000000	0.802958	7.36476e+06	-39509.6	587.332	-29794.3	0.000000	0.000000	6.803096	0.049245	NaN	0.000000	0.001576	0.001698	28.0817	0.056233	0.002037	27.6116	56.476	-167.49	0.066857	0.801658	-0.347218	-0.348518	0.049245	27.6116	-0.348556	-24323.8	-2.024563E-6	NaN
0.000000	1.000000	0.812941	7.36476e+06	-39509.6	587.331	-29794.3	0.000000	0.000000	6.813082	0.114495	NaN	0.000000	0.001574	0.001656	28.086	0.047467	0.002037	23.3013	83.9897	13.4834	0.088802	0.811570	-0.337235	-0.338605	0.114495	23.3013	-0.340920	-18835	-6.078845E-6	NaN
0.000000	1.000000	0.822961	7.36476e+06	-39509.6	587.331	-29794.3	0.000000	0.000000	6.823100	0.048387	NaN	0.000000	0.001597	0.001674	28.1249	0.037984	0.001916	19.8206	-141.761	-169.454	0.044863	0.821710	-0.327214	-0.328466	0.048387	19.8206	-0.329045	-12631.8	-3.830570E-6	NaN
0.000000	1.000000	0.832971	7.36476e+06	-39509.6	587.332	-29794.3	0.000000	0.000000	6.833111	0.110547	NaN	0.000000	0.001609	0.001673	28.1171	0.078698	0.002086	37.7241	-52.8993	17.146	0.094246	0.831587	-0.317205	-0.318588	0.110547	37.7241	-0.319403	-9116.93	-1.212552E-5	NaN
0.000000	1.000000	0.842968	7.36476e+06	-39509.6	587.331	-29794.3	0.000000	0.000000	6.843107	0.053629	NaN	0.000000	0.001597	0.001693	28.0812	0.013767	0.001961	7.020130	-6.072194	-164.974	0.011484	0.841620	-0.307207	-0.308556	0.053629	7.020130	-0.312937	-7319.51	-7.326897E-6	NaN
0.000000	1.000000	0.852950	7.36476e+06	-39509.6	587.331	-29794.3	0.000000	0.000000	6.853094	0.177588	NaN	0.000000	0.001579	0.001651	28.0843	0.068792	0.002079	33.0922	125.936	16.3427	0.157675	0.851590	-0.297225	-0.298585	0.177588	33.0922	-0.301250	-4911.8	-3.615537E-5	NaN
0.000000	1.000000	0.862977	7.36476e+06	-39509.6	587.331	-29794.3	0.000000	0.000000	6.863116	0.051206	NaN	0.000000	0.001556	0.001671	28.1238	0.050474	0.002075	24.3306	10.8144	-163.976	0.082983	0.861686	-0.287198	-0.288490	0.051206	24.3306	-0.288777	-3198.67	-1.600857E-5	NaN
0.000000	1.000000	0.872985	7.36476e+06	-39509.6	587.331	-29794.3	0.000000	0.000000	6.873127	0.127616	NaN	0.000000	0.001560	0.001683	28.116	0.109651	0.002013	54.4671	-85.1042	17.5009	0.134538	0.871603	-0.277190	-0.278573	0.127616	54.4671	-0.278948	-2275.57	-5.608103E-5	NaN
0.000000	1.000000	0.883003	7.36476e+06	-39509.6	587.331	-29794.3	0.000000	0.000000	6.883145	0.137179	NaN	0.000000	0.001570	0.001704	28.0824	0.033183	0.002095	15.8354	48.8365	-164.486	0.055779	0.881682	-0.267172	-0.268494	0.137179	15.8354	-0.273669	-1893.4	-7.245125E-5	NaN
0.000000	1.000000	0.892965	7.36476e+06	-39509.6	587.331	-29794.3	0.000000	0.000000	6.893107	0.142973	NaN	0.000000	0.001568	0.001663	28.0861	0.042597	0.001927	22.102	-100.363	16.5709	0.152348	0.891654	-0.257211	-0.258522	0.142973	22.102	-0.262062	-1260.37	-0.000113	NaN
0.000000	1.000000	0.902977	7.36476e+06	-39509.6	587.332	-29794.3	0.000000	0.000000	6.903117	0.088840	NaN	0.000000	0.001535	0.001684	28.1248	0.050346	0.002020	24.9282	-144.979	-166.457	0.109709	0.901683	-0.247199	-0.248493	0.088840	24.9282	-0.249871	-818.424	-0.000109	NaN
0.000000	1.000000	0.912982	7.36476e+06	-39509.6	587.331	-29794.3	0.000000	0.000000	6.913122	0.088293	NaN	0.000000	0.001563	0.001671	28.1176	0.162367	0.001934	83.9402	175.279	13.1802	0.038630	0.911621	-0.237194	-0.238554	0.088293	83.9402	-0.237982	-534.571	-0.000165	NaN
0.000000	1.000000	0.922988	7.36476e+06	-39509.6	587.331	-29794.3	0.000000	0.000000	6.923130	0.140258	NaN	0.000000	0.001593	0.001695	28.0814	0.117922	0.002026	58.2052	172.647	-166.786	0.140876	0.921647	-0.227187	-0.228529	0.140258	58.2052	-0.228995	-386.04	-0.000363	NaN
0.000000	1.000000	0.933007	7.36476e+06	-39509.6	587.331	-29794.3	0.000000	0.000000	6.933147	0.074057	NaN	0.000000	0.001585	0.001651	28.0844	0.074999	0.002052	36.5427	-22.7687	14.6058	0.088307	0.931612	-0.217168	-0.218564	0.074057	36.5427	-0.218688	-264.666	-0.000280	NaN
0.000000	1.000000	0.943009	7.36476e+06	-39509.6	587.331	-29794.3	0.000000	0.000000	6.943148	0.077462	NaN	0.000000	0.001587	0.001642	28.1233	0.065888	0.002027	32.5035	52.1886	-162.151	0.070089	0.941699	-0.207167	-0.208477	0.077462	32.5035	-0.208954	-184.448	-0.000420	NaN
0.000000	1.000000	0.953007	7.36476e+06	-39509.6	587.332	-29794.3	0.000000	0.000000	6.953147	0.080335	NaN	0.000000	0.001592	0.001659	28.1155	0.049746	0.001950	25.5134	18.4115	16.9901	0.200441	0.951620	-0.197169	-0.198556	0.080335	25.5134	-0.199530	-129.412	-0.000621	NaN
0.000000	1.000000	0.963049	7.36476e+06	-39509.6	587.332	-29794.3	0.000000	0.000000	6.963190	0.107440	NaN	0.000000	0.001575	0.001664	28.0817	0.139881	0.002005	69.7522	-173.946	-163.789	0.160686	0.961714	-0.187126	-0.188462	0.107440	69.7522	-0.188282	-84.1936	-0.001276	NaN
0.000000	1.000000	0.973027	7.36476e+06	-39509.6	587.332	-29794.3	0.000000	0.000000	6.973165	0.042472	NaN	0.000000	0.001578	0.001645	28.083	0.104285	0.002052	50.823	84.8138	18.7939	0.060972	0.971669	-0.177148	-0.178507	0.042472	50.823	-0.177775	-55.9155	-0.000760	NaN
0.000000	1.000000	0.982997	7.36476e+06	-39509.6	587.332	-29794.3	0.000000	0.000000	6.983135	0.049442	NaN	0.000000	0.001552	0.001664	28.1231	0.045511	0.001981	22.9696	-44.5495	-161.432	0.052966	0.981679	-0.167179	-0.168497	0.049442	22.9696	-0.168793	-39.1409	-0.001263	NaN
0.000000	1.000000	0.993038	7.36476e+06	-39509.6	587.332	-29794.3	0.000000	0.000000	6.993177	0.047442	NaN	0.000000	0.001601	0.001628	28.1172	0.008536	0.002015	4.236214	116.063	12.5354	0.021967	0.991663	-0.157137	-0.158513	0.047442	4.236214	-0.165537	-34.334	-0.001382	NaN
0.000000	1.000000	1.002998	7.36476e+06	-39509.6	587.331	-29794.3	0.000000	0.000000	7.003136	0.033355	NaN	0.000000	0.001567	0.001658	28.0822	0.039357	0.002034	19.3491	136.159	-162.808	-0.040311	1.001771	-0.147177	-0.148405	0.033355	19.3491	-0.148470	-16.9842	-0.001964	NaN
0.000000	1.000000	1.013010	7.36476e+06	-39509.6	587.332	-29794.3	0.000000	0.000000	7.013147	0.001389	NaN	0.000000	0.001561	0.001604	28.0828	0.048921	0.001909	25.6204	41.2322	12.4344	0.038742	1.011679	-0.137165	-0.138496	0.001389	25.6204	-0.137206	-10.4774	-0.000133	NaN
0.000000	1.000000	1.023035	7.36476e+06	-39509.6	587.333	-29794.3	0.000000	0.000000	7.023173	0.057648	NaN	0.000000	0.001564	0.001645	28.1214	0.081228	0.002007	40.4734	1.906236	-164.086	0.029099	1.021730	-0.127141	-0.128445	0.057648	40.4734	-0.128209	-7.032576	-0.008197	NaN
0.000000	1.000000	1.033044	7.36476e+06	-39509.6	587.332	-29794.3	0.000000	0.000000	7.033183	0.075620	NaN	0.000000	0.001579	0.001637	28.1153	0.071657	0.001995	35.9107	-89.8267	13.6639	0.125379	1.031630	-0.117132	-0.118545	0.075620	35.9107	-0.118712	-4.549974	-0.016620	NaN
0.000000	1.000000	1.043023	7.36476e+06	-39509.6	587.331	-29794.3	0.000000	0.000000	7.043164	0.116236	NaN	0.000000	0.001557	0.001655	28.0821	0.046508	0.002034	22.8666	-19.1187	-163.497	0.032922	1.041778	-0.107153	-0.108398	0.116236	22.8666	-0.110966	-3.149102	-0.036911	NaN
0.000000	1.000000	1.053064	7.36476e+06	-39509.6	587.332	-29794.3	0.000000	0.000000	7.053202	0.060882	NaN	0.000000	0.001575	0.001642	28.0828	0.118892	0.002077	57.2532	84.6527	13.6798	0.100616	1.051691	-0.097112	-0.098484	0.060882	57.2532	-0.097910	-1.641259	-0.037094	NaN
0.000000	1.000000	1.063035	7.36476e+06	-39509.6	587.332	-29794.3	0.000000	0.000000	7.063174	0.080015	NaN	0.000000	0.001582	0.001639	28.1224	0.038751	0.001950	19.8713	88.1847	-163.968	0.097952	1.061759	-0.087141	-0.088417	0.080015	19.8713	-0.090161	-1.090421	-0.073380	NaN
0.000000	1.000000	1.073041	7.36476e+06	-39509.6	587.333	-29794.3	0.000000	0.000000	7.073180	0.066604	NaN	0.000000	0.001638	0.001681	28.1169	0.089776	0.001903	47.18	-121.641	16.0027	0.036049	1.071698	-0.077135	-0.078478	0.066604	47.18	-0.078194	-0.557498	-0.119470	NaN
0.000000	1.000000	1.083089	7.36476e+06	-39509.6	587.333	-29794.3	0.000000	0.000000	7.083228	0.079932	NaN	0.000000	0.001614	0.001702	28.0821	0.070999	0.002061	34.441	-101.3	-162.981	0.057111	1.081833	-0.067087	-0.068343	0.079932	34.441	-0.068828	-0.317220	-0.251976	NaN
0.000000	1.000000	1.093093	7.36476e+06	-39509.6	587.332	-29794.3	0.000000	0.000000	7.093232	0.058011	NaN	0.000000	0.001635	0.001716	28.0847	0.072098	0.001995	36.1448	5.748564	11.7892	0.062444	1.091641	-0.057083	-0.058535	0.058011	36.1448	-0.058286	-0.160722	-0.360942	NaN
0.000000	1.000000	1.103056	7.36476e+06	-39509.6	587.332	-29794.3	0.000000	0.000000	7.103196	0.078733	NaN	0.000000	0.001629	0.001631	28.1224	0.015879	0.002095	7.580071	112.816	-165.123	0.033977	1.101761	-0.047119	-0.048415	0.078733	7.580071	-0.054909	-0.127986	-0.615168	NaN
0.000000	1.000000	1.113089	7.36476e+06	-39509.6	587.332	-29794.3	0.000000	0.000000	7.113227	0.053772	NaN	0.000000	0.001621	0.001633	28.1177	0.039795	0.002022	19.684	-80.5509	15.7515	0.061156	1.111687	-0.037087	-0.038489	0.053772	19.684	-0.039136	-0.042574	-1.263028	NaN
0.000000	1.000000	1.123101	7.36476e+06	-39509.6	587.333	-29794.3	0.000000	0.000000	7.123240	0.064315	NaN	0.000000	0.001579	0.001643	28.0827	0.102113	0.002053	49.7402	76.518	-165.658	0.063076	1.121785	-0.027075	-0.028391	0.064315	49.7402	-0.028045	-0.020332	-3.163247	NaN
0.000000	1.000000	1.133102	7.36476e+06	-39509.6	587.332	-29794.3	0.000000	0.000000	7.133242	0.092308	NaN	0.000000	0.001581	0.001604	28.0846	0.042073	0.002122	19.8274	-92.8977	14.2427	0.114166	1.131701	-0.017074	-0.018475	0.092308	19.8274	-0.020566	-0.012984	-7.109483	NaN
0.000000	1.000000	1.143081	7.36476e+06	-39509.6	587.332	-29794.3	0.000000	0.000000	7.143217	-0.021966	NaN	0.000000	0.001600	0.001672	28.1235	0.024383	0.002109	11.5625	158.027	-167.079	-0.011111	1.141797	-0.007094	-0.008379	-0.021966	11.5625	-0.005670	-0.003833	5.729956	NaN
0.000000	1.000000	1.153039	7.36476e+06	-39509.6	587.332	-29794.3	0.000000	0.000000	7.153262	2.096928	NaN	0.000000	0.001642	0.001665	28.1189	2.803809	0.001933	1450.35	5.505592	12.04	0.707659	1.151658	0.002864	0.001482	2.096928	1450.35	0.001779	0.001377	1522.66	35707.2
0.000000	2.000000	1.159686	7.36476e+06	-39509.6	587.333	-29794.3	0.000000	0.000000	7.160297	11.5548	NaN	0.000000	0.001591	0.001655	28.0821	9.612879	0.001612	5963.9	0.518641	-168.357	10.6292	1.159413	0.009511	0.009237	11.5548	5963.9	0.008058	0.007102	1627.06	64658.4
0.000000	2.000000	1.162164	7.36476e+06	-39509.6	587.333	-29794.3	0.000000	0.000000	7.162983	16.6227	NaN	0.000000	0.001584	0.001671	28.0834	12.4256	0.001656	7502.32	7.880866	4.091669	15.0497	1.161757	0.011988	0.011581	16.6227	7502.32	0.010326	0.009547	1741.22	70152.9
0.000000	2.000000	1.164640	7.36476e+06	-39509.6	587.332	-29794.3	0.000000	0.000000	7.165664	21.6165	NaN	0.000000	0.001678	0.001666	28.1221	14.9621	0.001655	9038.14	4.643104	-174.22	21.6867	1.164337	0.014464	0.014162	21.6165	9038.14	0.012670	0.012303	1757.02	74447
0.000000	2.000000	1.167108	7.36476e+06	-39509.6	587.331	-29794.3	0.000000	0.000000	7.168257	24.646	NaN	0.000000	0.001684	0.001671	28.1177	17.856	0.001705	10473.1	5.455250	3.606257	24.8168	1.166742	0.016932	0.016566	24.646	10473.1	0.015167	0.015509	1589.18	76835.3
0.000000	2.000000	1.169621	7.36476e+06	-39509.6	587.332	-29794.3	0.000000	0.000000	7.171032	31.0306	NaN	0.000000	0.001630	0.001679	28.0828	21.0889	0.001784	11821.1	3.252227	-175.87	31.4027	1.169304	0.019445	0.019128	31.0306	11821.1	0.017476	0.018731	1656.68	78914.3
0.000000	2.000000	1.172112	7.36476e+06	-39509.6	587.332	-29794.3	0.000000	0.000000	7.173902	40.2337	NaN	0.000000	0.001639	0.001707	28.0858	23.172	0.001825	12695.4	3.201549	4.271715	38.9264	1.171720	0.021936	0.021544	40.2337	12695.4	0.019559	0.021855	1840.97	78459.7
0.000000	2.000000	1.174594	7.36476e+06	-39509.6	587.332	-29794.3	0.000000	0.000000	7.176545	44.1519	NaN	0.000000	0.001665	0.001680	28.1215	25.5285	0.001890	13505.7	5.368426	-177.34	45.5593	1.174321	0.024418	0.024145	44.1519	13505.7	0.021966	0.025727	1716.17	76930.1
0.000000	2.000000	1.177082	7.36476e+06	-39509.6	587.332	-29794.3	0.000000	0.000000	7.179457	54.4655	NaN	0.000000	0.001647	0.001674	28.118	27.0536	0.001803	15007.2	2.028507	4.495633	52.6947	1.176701	0.026907	0.026526	54.4655	15007.2	0.024185	0.029549	1843.21	79762.5
0.000000	2.000000	1.179558	7.36476e+06	-39509.6	587.332	-29794.3	0.000000	0.000000	7.182412	66.1181	NaN	0.000000	0.001675	0.001706	28.0814	29.8059	0.001754	16997.8	3.433372	-178.74	64.8636	1.179258	0.029383	0.029082	66.1181	16997.8	0.026465	0.033735	1959.91	84552
0.000000	2.000000	1.182110	7.36476e+06	-39509.6	587.331	-29794.3	0.000000	0.000000	7.185234	72.7049	NaN	0.000000	0.001646	0.001681	28.083	32.4367	0.001798	18043.5	5.897593	-1.132394	71.6839	1.181676	0.031934	0.031500	72.7049	18043.5	0.028912	0.038519	1887.52	83996
0.000000	2.000000	1.184580	7.36476e+06	-39509.6	587.332	-29794.3	0.000000	0.000000	7.187955	78.8193	NaN	0.000000	0.001656	0.001671	28.1209	34.2117	0.001641	20854.1	5.979470	177.566	78.5211	1.184203	0.034404	0.034027	78.8193	20854.1	0.031570	0.044060	1788.91	90770
0.000000	2.000000	1.187056	7.36476e+06	-39509.6	587.332	-29794.3	0.000000	0.000000	7.190803	87.8502	NaN	0.000000	0.001698	0.001696	28.1172	37.37	0.001869	19997.3	3.145013	1.135944	87.6324	1.186656	0.036881	0.036480	87.8502	19997.3	0.033586	0.048504	1811.19	82957.4
0.000000	2.000000	1.189505	7.36476e+06	-39509.6	587.332	-29794.3	0.000000	0.000000	7.193703	98.8616	NaN	0.000000	0.001626	0.001693	28.082	40.2807	0.001753	22979.9	5.346640	176.509	95.9407	1.189292	0.039329	0.039116	98.8616	22979.9	0.036102	0.054344	1819.19	90063.1
0.000000	2.000000	1.192065	7.36476e+06	-39509.6	587.332	-29794.3	0.000000	0.000000	7.196874	113.706	NaN	0.000000	0.001615	0.001708	28.0847	41.5715	0.001758	23652.8	6.749581	-3.898344	111.185	1.191687	0.041890	0.041511	113.706	23652.8	0.038284	0.059669	1905.61	88467.1
0.000000	2.000000	1.194528	7.36476e+06	-39509.6	587.332	-29794.3	0.000000	0.000000	7.199647	121.263	NaN	0.000000	0.001596	0.001692	28.1215	44.0771	0.001712	25753.4	5.019296	176.408	120.475	1.194218	0.044352	0.044042	121.263	25753.4	0.040821	0.066167	1832.69	91472.1
0.000000	2.000000	1.197046	7.36476e+06	-39509.6	587.332	-29794.3	0.000000	0.000000	7.202475	128.786	NaN	0.000000	0.001589	0.001673	28.1178	47.2434	0.001804	26185.3	6.362452	-5.363498	127.856	1.196752	0.046871	0.046576	128.786	26185.3	0.043182	0.072510	1776.11	88845
0.000000	2.000000	1.199551	7.36476e+06	-39509.6	587.332	-29794.3	0.000000	0.000000	7.205552	142.727	NaN	0.000000	0.001665	0.001701	28.0815	49.7075	0.001787	27809.1	5.358644	174.836	140.95	1.199224	0.049375	0.049048	142.727	27809.1	0.045526	0.079087	1804.7	90345.8
0.000000	2.000000	1.202005	7.36476e+06	-39509.6	587.332	-29794.3	0.000000	0.000000	7.208494	154.579	NaN	0.000000	0.001579	0.001732	28.0825	50.6164	0.001729	29278.5	2.770083	-2.322444	149.931	1.201668	0.051830	0.051493	154.579	29278.5	0.047870	0.085943	1798.63	91246.8
0.000000	2.000000	1.204495	7.36476e+06	-39509.6	587.332	-29794.3	0.000000	0.000000	7.211441	165.727	NaN	0.000000	0.001573	0.001698	28.1202	53.4965	0.001795	29808.1	6.977649	173.716	163.693	1.204184	0.054319	0.054008	165.727	29808.1	0.050149	0.092875	1784.42	89363.3
0.000000	2.000000	1.207035	7.36476e+06	-39509.6	587.332	-29794.3	0.000000	0.000000	7.214539	179.297	NaN	0.000000	0.001674	0.001710	28.1174	56.8338	0.001846	30790	4.578360	-3.905868	178.651	1.206728	0.056859	0.056553	179.297	30790	0.052492	0.100270	1788.14	88837.6
0.000000	2.000000	1.209519	7.36476e+06	-39509.6	587.332	-29794.3	0.000000	0.000000	7.217516	191.292	NaN	0.000000	0.001601	0.001678	28.0832	58.7778	0.001821	32280.1	4.969340	174.392	190.516	1.209265	0.059343	0.059089	191.292	32280.1	0.054898	0.108153	1768.72	89678.6
0.000000	2.000000	1.212012	7.36476e+06	-39509.6	587.332	-29794.3	0.000000	0.000000	7.220730	208.832	NaN	0.000000	0.001621	0.001662	28.0853	60.7077	0.001876	32363.5	7.550123	-6.128132	207.438	1.211670	0.061836	0.061494	208.832	32363.5	0.056996	0.115258	1811.86	87094.8
0.000000	2.000000	1.214552	7.36476e+06	-39509.6	587.332	-29794.3	0.000000	0.000000	7.223604	216.984	NaN	0.000000	0.001593	0.001683	28.1224	62.4139	0.001795	34766.9	4.340366	175.488	218.707	1.214124	0.064376	0.063949	216.984	34766.9	0.059695	0.124717	1739.82	89944.9
0.000000	2.000000	1.216969	7.36476e+06	-39509.6	587.332	-29794.3	0.000000	0.000000	7.226695	233.356	NaN	0.000000	0.001635	0.001637	28.1195	64.5667	0.001827	35339.9	2.039010	-2.439455	230.381	1.216708	0.066793	0.066532	233.356	35339.9	0.061841	0.132492	1761.29	88704.2
0.000000	2.000000	1.219568	7.36476e+06	-39509.6	587.332	-29794.3	0.000000	0.000000	7.229765	244.828	NaN	0.000000	0.001672	0.001623	28.083	68.4588	0.001880	36417	3.473070	175.575	246.053	1.219252	0.069392	0.069076	244.828	36417	0.064350	0.141867	1725.75	88335.8
0.000000	2.000000	1.221998	7.36476e+06	-39509.6	587.332	-29794.3	0.000000	0.000000	7.233042	265.438	NaN	0.000000	0.001639	0.001652	28.0838	69.7051	0.001877	37128.7	3.609625	-4.389517	262.643	1.221598	0.071822	0.071422	265.438	37128.7	0.066460	0.149987	1769.74	87590.5
0.000000	2.000000	1.224539	7.36476e+06	-39509.6	587.332	-29794.3	0.000000	0.000000	7.236125	278.628	NaN	0.000000	0.001623	0.001668	28.1211	70.7909	0.001737	40745.5	-0.043544	178.268	278.621	1.224200	0.074363	0.074024	278.628	40745.5	0.069235	0.160989	1730.73	92780.1
0.000000	2.000000	1.226937	7.36476e+06	-39509.6	587.333	-29794.3	0.000000	0.000000	7.239471	301.679	NaN	0.000000	0.001665	0.001647	28.1187	73.8374	0.001760	41944.7	4.831194	-6.896693	296.419	1.226638	0.076761	0.076462	301.679	41944.7	0.071367	0.169694	1777.78	93028.6
0.000000	2.000000	1.229557	7.36476e+06	-39509.6	587.332	-29794.3	0.000000	0.000000	7.242745	317.611	NaN	0.000000	0.001651	0.001694	28.0842	77.2163	0.001762	43811.5	3.957477	173.399	318.183	1.229196	0.079382	0.079020	317.611	43811.5	0.073944	0.180503	1759.59	94215
0.000000	2.000000	1.232074	7.36476e+06	-39509.6	587.332	-29794.3	0.000000	0.000000	7.246104	338.09	NaN	0.000000	0.001625	0.001708	28.0846	79.5231	0.001784	44586.1	5.263684	-7.010886	338.529	1.231505	0.081898	0.081330	338.09	44586.1	0.076211	0.190268	1776.92	93387.9
0.000000	2.000000	1.234439	7.36476e+06	-39509.6	587.332	-29794.3	0.000000	0.000000	7.248875	347.98	NaN	0.000000	0.001628	0.001654	28.1218	81.3961	0.001871	43499.1	7.125688	171.374	345.174	1.234249	0.084263	0.084073	347.98	43499.1	0.078264	0.199318	1745.85	89018.3
0.000000	2.000000	1.236918	7.36476e+06	-39509.6	587.332	-29794.3	0.000000	0.000000	7.252167	367.756	NaN	0.000000	0.001632	0.001631	28.1197	85.3907	0.001702	50161.4	3.997007	-6.140333	362.444	1.236685	0.086743	0.086509	367.756	50161.4	0.081244	0.212811	1728.09	99345
0.000000	2.000000	1.239543	7.36476e+06	-39509.6	587.332	-29794.3	0.000000	0.000000	7.255451	383.811	NaN	0.000000	0.001618	0.001666	28.0837	89.7521	0.001782	50362.9	9.838056	167.578	384.775	1.239212	0.089367	0.089036	383.811	50362.9	0.083651	0.224011	1713.36	97218.7
0.000000	2.000000	1.241989	7.36477e+06	-39509.6	587.332	-29794.3	0.000000	0.000000	7.258680	402.848	NaN	0.000000	0.001590	0.001686	28.0835	89.5108	0.001793	49928.1	4.355786	-7.230590	400.785	1.241591	0.091813	0.091416	402.848	49928.1	0.085762	0.234050	1721.2	94289.6
0.000000	2.000000	1.244507	7.36477e+06	-39509.6	587.332	-29794.3	0.000000	0.000000	7.261932	420.717	NaN	0.000000	0.001602	0.001647	28.1197	90.1548	0.001789	50396.6	1.132268	176.186	421.061	1.244154	0.094331	0.093978	420.717	50396.6	0.088070	0.245266	1715.35	92972.9
0.000000	2.000000	1.246969	7.36477e+06	-39509.6	587.331	-29794.3	0.000000	0.000000	7.265202	440.356	NaN	0.000000	0.001617	0.001629	28.1174	91.9722	0.001844	49866.7	3.219614	-6.178355	436.872	1.246679	0.096794	0.096504	440.356	49866.7	0.090171	0.255683	1722.27	90101.7
0.000000	2.000000	1.249440	7.36477e+06	-39509.6	587.332	-29794.3	0.000000	0.000000	7.268320	456.102	NaN	0.000000	0.001623	0.001688	28.082	95.2693	0.001920	49630.5	3.417723	173.911	454.651	1.249275	0.099265	0.099099	456.102	49630.5	0.092372	0.266820	1709.4	87783.4
0.000000	2.000000	1.251904	7.36477e+06	-39509.6	587.331	-29794.3	0.000000	0.000000	7.271848	481.992	NaN	0.000000	0.001635	0.001697	28.0844	96.1278	0.001790	53701	4.158635	-6.525715	475.732	1.251509	0.101729	0.101333	481.992	53701	0.094997	0.280389	1719.01	92656.3
0.000000	2.000000	1.254437	7.36477e+06	-39509.6	587.331	-29794.3	0.000000	0.000000	7.275227	502.594	NaN	0.000000	0.001659	0.001682	28.1207	99.3635	0.001774	55996.3	7.558254	168.928	500.88	1.254070	0.104261	0.103894	502.594	55996.3	0.097529	0.293777	1710.81	94389.6
0.000000	2.000000	1.256930	7.36477e+06	-39509.6	587.331	-29794.3	0.000000	0.000000	7.278556	522.956	NaN	0.000000	0.001632	0.001700	28.1193	99.3131	0.001678	59187.3	5.910622	-9.659606	518.177	1.256656	0.106754	0.106480	522.956	59187.3	0.100127	0.307815	1698.93	97467