File: remote_trans/data/nanoindenter/0828-1/data/Data_2025-08-06,11h17m57s/2025-07-22_16-23-58_1_483.txt
2025-07-22, 16:23:58, 1
Index	Phase	Displacement	Time	Pos X	Pos Y	Pos Z	Rot A	Rot B	Piezo Z	Force A	Force B	Gripper	Voltage A	Voltage B	Temperature	Amplitude force	Amplitude pos	Stiffness	Phase shift	Phase excitation	Force A raw	Displacement raw	HMax	HMax raw	Real Force	Real Stiffness	Contact Depth	Area	Hardness	Reduced Mod.
[#]	[#]	[um]	[s]	[um]	[um]	[um]	[m°]	[m°]	[um]	[uN]	[uN]	[V]	[V]	[V]	[°C]	[uN]	[um]	[N/m]	[°]	[°]	[uN]	[um]	[um]	[um]	[uN]	[N/m]	[um]	[um^2]	[MPa]	[MPa]
483	1.000000	0.002682	7.36978e+06	-52939.1	1005.82	-29747.8	0.000000	0.000000	6.002808	0.020855	NaN	0.000000	0.001574	0.001794	28.0819	0.044169	0.000967	45.6823	52.4294	-167.751	0.015605	0.001415	-1.148712	-1.149979	0.020855	45.6823	-1.149055	-2.281102E+15	-9.142678E-18	NaN
483	1.000000	0.012731	7.36978e+06	-52939.1	1005.82	-29747.8	0.000000	0.000000	6.012855	-0.016064	NaN	0.000000	0.001579	0.001770	28.0814	0.048740	0.001236	39.4399	143.603	19.1922	0.057619	0.011240	-1.138663	-1.140154	-0.016064	39.4399	-1.138358	-1.639514E+15	9.797727E-18	NaN
483	1.000000	0.022628	7.36978e+06	-52939.1	1005.82	-29747.8	0.000000	0.000000	6.022755	0.047224	NaN	0.000000	0.001583	0.001766	28.0814	0.071126	0.001580	45.0235	161.386	-163.835	0.029830	0.021298	-1.128766	-1.130096	0.047224	45.0235	-1.129552	-1.249156E+15	-3.780464E-17	NaN
483	1.000000	0.032655	7.36978e+06	-52939.1	1005.82	-29747.8	0.000000	0.000000	6.032782	0.041887	NaN	0.000000	0.001550	0.001771	28.0812	0.030768	0.001928	15.9566	-97.2555	14.6524	-0.046035	0.031253	-1.118739	-1.120141	0.041887	15.9566	-1.120708	-9.505434E+14	-4.406670E-17	NaN
483	1.000000	0.042600	7.36978e+06	-52939.1	1005.82	-29747.8	0.000000	0.000000	6.042726	0.016263	NaN	0.000000	0.001585	0.001816	28.0815	0.092302	0.001875	49.2368	-72.1333	-164.321	-0.050084	0.041297	-1.108794	-1.110097	0.016263	49.2368	-1.109041	-6.628637E+14	-2.453511E-17	NaN
483	1.000000	0.052629	7.36978e+06	-52939.1	1005.82	-29747.8	0.000000	0.000000	6.052755	0.025151	NaN	0.000000	0.001577	0.001772	28.081	0.065024	0.001971	32.9878	158.989	17.8008	0.044371	0.051263	-1.098765	-1.100131	0.025151	32.9878	-1.099337	-4.910977E+14	-5.121295E-17	NaN
483	1.000000	0.062625	7.36978e+06	-52939.1	1005.82	-29747.8	0.000000	0.000000	6.062753	0.074438	NaN	0.000000	0.001526	0.001768	28.0799	0.084450	0.001931	43.7238	-79.151	-162.797	0.065159	0.061329	-1.088769	-1.090065	0.074438	43.7238	-1.090046	-3.684943E+14	-2.020058E-16	NaN
483	1.000000	0.072638	7.36978e+06	-52939.1	1005.82	-29747.8	0.000000	0.000000	6.072764	0.025485	NaN	0.000000	0.001564	0.001770	28.0801	0.047125	0.001977	23.8329	-56.0005	14.3417	-0.023817	0.071210	-1.078756	-1.080184	0.025485	23.8329	-1.079558	-2.664314E+14	-9.565310E-17	NaN
483	1.000000	0.082617	7.36978e+06	-52939.1	1005.82	-29747.8	0.000000	0.000000	6.082742	-0.025038	NaN	0.000000	0.001602	0.001768	28.0802	0.045806	0.001977	23.1735	-109.359	-165.051	-0.097106	0.081295	-1.068777	-1.070099	-0.025038	23.1735	-1.067966	-1.861506E+14	1.345057E-16	NaN
483	1.000000	0.092646	7.36978e+06	-52939.1	1005.82	-29747.8	0.000000	0.000000	6.092772	0.011062	NaN	0.000000	0.001628	0.001784	28.08	0.075596	0.001936	39.0452	142.066	15.5694	0.055125	0.091295	-1.058748	-1.060099	0.011062	39.0452	-1.058960	-1.408800E+14	-7.852062E-17	NaN
483	1.000000	0.102666	7.36978e+06	-52939.1	1005.82	-29747.8	0.000000	0.000000	6.102793	0.042291	NaN	0.000000	0.001599	0.001805	28.0799	0.071384	0.002019	35.3585	52.414	-168.506	-0.066290	0.101291	-1.048728	-1.050103	0.042291	35.3585	-1.049625	-1.055302E+14	-4.007461E-16	NaN
483	1.000000	0.112643	7.36978e+06	-52939.1	1005.82	-29747.8	0.000000	0.000000	6.112767	-0.016174	NaN	0.000000	0.001593	0.001761	28.0803	0.045446	0.001975	23.0109	120.778	15.3875	-0.032312	0.111252	-1.038751	-1.040142	-0.016174	23.0109	-1.038224	-7.414620E+13	2.181340E-16	NaN
483	1.000000	0.122653	7.36978e+06	-52939.1	1005.82	-29747.8	0.000000	0.000000	6.122777	-0.024285	NaN	0.000000	0.001655	0.001722	28.08	0.038573	0.002006	19.2248	-50.2303	-162.269	-0.012700	0.121345	-1.028741	-1.030049	-0.024285	19.2248	-1.027793	-5.367829E+13	4.524203E-16	NaN
483	1.000000	0.132649	7.36978e+06	-52939.1	1005.82	-29747.8	0.000000	0.000000	6.132772	-0.038716	NaN	0.000000	0.001634	0.001746	28.0803	0.055762	0.001943	28.7056	-80.5397	16.1451	-0.003830	0.131287	-1.018745	-1.020107	-0.038716	28.7056	-1.017734	-3.930600E+13	9.849871E-16	NaN
483	1.000000	0.142654	7.36978e+06	-52939.1	1005.82	-29747.8	0.000000	0.000000	6.142778	-0.027355	NaN	0.000000	0.001622	0.001774	28.0804	0.179996	0.001879	95.7712	-131.504	-164.403	-0.025486	0.141332	-1.008740	-1.010062	-0.027355	95.7712	-1.008526	-2.954896E+13	9.257533E-16	NaN
483	1.000000	0.152642	7.36978e+06	-52939.1	1005.82	-29747.8	0.000000	0.000000	6.152767	0.012896	NaN	0.000000	0.001589	0.001737	28.0805	0.059953	0.002035	29.4612	36.7135	15.0016	0.042245	0.151280	-0.998752	-1.000114	0.012896	29.4612	-0.999081	-2.204917E+13	-5.848881E-16	NaN
483	1.000000	0.162655	7.36978e+06	-52939.1	1005.82	-29747.8	0.000000	0.000000	6.162780	-0.013371	NaN	0.000000	0.001608	0.001732	28.0801	0.170175	0.002036	83.5825	-26.0801	-162.681	0.052179	0.161316	-0.988739	-0.990078	-0.013371	83.5825	-0.988619	-1.594089E+13	8.387847E-16	NaN
483	1.000000	0.172667	7.36978e+06	-52939.1	1005.82	-29747.8	0.000000	0.000000	6.172790	-0.052122	NaN	0.000000	0.001595	0.001717	28.0801	0.051834	0.002111	24.5551	145.791	14.3396	-0.058706	0.171327	-0.978727	-0.980067	-0.052122	24.5551	-0.977135	-1.116379E+13	4.668823E-15	NaN
483	1.000000	0.182666	7.36978e+06	-52939.1	1005.82	-29747.8	0.000000	0.000000	6.182791	-0.004726	NaN	0.000000	0.001607	0.001694	28.08	0.094753	0.002042	46.3925	86.627	-162.144	0.069847	0.181381	-0.968728	-0.970013	-0.004726	46.3925	-0.968651	-8.579940E+12	5.508622E-16	NaN
483	1.000000	0.192669	7.36978e+06	-52939.1	1005.82	-29747.8	0.000000	0.000000	6.192796	0.058307	NaN	0.000000	0.001617	0.001708	28.0803	0.102926	0.002030	50.6974	-137.081	13.165	0.041043	0.191292	-0.958725	-0.960102	0.058307	50.6974	-0.959588	-6.476069E+12	-9.003453E-15	NaN
483	1.000000	0.202664	7.36978e+06	-52939.1	1005.82	-29747.8	0.000000	0.000000	6.202788	-0.024359	NaN	0.000000	0.001632	0.001750	28.0812	0.082498	0.002128	38.7586	-96.5838	-162.647	-0.000844	0.201369	-0.948730	-0.950025	-0.024359	38.7586	-0.948259	-4.555605E+12	5.346989E-15	NaN
483	1.000000	0.212700	7.36978e+06	-52939.1	1005.82	-29747.8	0.000000	0.000000	6.212825	-0.015632	NaN	0.000000	0.001622	0.001768	28.0812	0.038455	0.002039	18.8574	-157.998	14.236	-0.034854	0.211304	-0.938694	-0.940090	-0.015632	18.8574	-0.938072	-3.319880E+12	4.708490E-15	NaN
483	1.000000	0.222691	7.36978e+06	-52939.1	1005.82	-29747.8	0.000000	0.000000	6.222816	-0.001740	NaN	0.000000	0.001612	0.001735	28.0813	0.125245	0.001934	64.7655	34.2572	-164.901	-0.035340	0.221395	-0.928703	-0.929999	-0.001740	64.7655	-0.928683	-2.479838E+12	7.014735E-16	NaN
483	1.000000	0.232714	7.36978e+06	-52939.1	1005.82	-29747.8	0.000000	0.000000	6.232841	0.056685	NaN	0.000000	0.001601	0.001729	28.0819	0.086605	0.001967	44.0357	-93.5274	13.2791	0.065726	0.231374	-0.918680	-0.920020	0.056685	44.0357	-0.919646	-1.872493E+12	-3.027260E-14	NaN
483	1.000000	0.242683	7.36978e+06	-52939.1	1005.82	-29747.8	0.000000	0.000000	6.242811	0.074822	NaN	0.000000	0.001622	0.001743	28.0811	0.062518	0.001995	31.3405	-176.559	-167.691	0.109547	0.241363	-0.908711	-0.910031	0.074822	31.3405	-0.910502	-1.409097E+12	-5.309909E-14	NaN
483	1.000000	0.252697	7.36978e+06	-52939.1	1005.82	-29747.8	0.000000	0.000000	6.252824	0.029672	NaN	0.000000	0.001633	0.001724	28.0814	0.046257	0.001944	23.7983	-30.4556	14.2601	-0.048987	0.251319	-0.898697	-0.900075	0.029672	23.7983	-0.899632	-1.004829E+12	-2.952945E-14	NaN
483	1.000000	0.262720	7.36978e+06	-52939.1	1005.82	-29747.8	0.000000	0.000000	6.262843	-0.047648	NaN	0.000000	0.001632	0.001790	28.0814	0.114505	0.002117	54.0786	-127.771	-165.008	-0.037912	0.261364	-0.888674	-0.890030	-0.047648	54.0786	-0.888013	-6.999258E+11	6.807541E-14	NaN
483	1.000000	0.272700	7.36978e+06	-52939.1	1005.82	-29747.8	0.000000	0.000000	6.272827	0.041963	NaN	0.000000	0.001594	0.001756	28.0814	0.037902	0.001916	19.7823	29.1175	12.9865	0.051065	0.271391	-0.878694	-0.880003	0.041963	19.7823	-0.880284	-5.502430E+11	-7.626201E-14	NaN
483	1.000000	0.282722	7.36978e+06	-52939.1	1005.82	-29747.8	0.000000	0.000000	6.282848	0.017193	NaN	0.000000	0.001585	0.001748	28.0813	0.080017	0.002105	38.0176	176.015	-169.03	0.070005	0.281439	-0.868672	-0.869955	0.017193	38.0176	-0.869011	-3.873187E+11	-4.438986E-14	NaN
483	1.000000	0.292696	7.36978e+06	-52939.1	1005.82	-29747.8	0.000000	0.000000	6.292822	0.026074	NaN	0.000000	0.001582	0.001745	28.0813	0.013958	0.002011	6.941427	-172.164	15.0157	0.018966	0.291345	-0.858698	-0.860049	0.026074	6.941427	-0.861516	-3.066436E+11	-8.503181E-14	NaN
483	1.000000	0.302723	7.36978e+06	-52939.1	1005.82	-29747.8	0.000000	0.000000	6.302849	0.028671	NaN	0.000000	0.001584	0.001737	28.0816	0.057463	0.002070	27.7624	-17.5219	-162.42	-0.029566	0.301416	-0.848671	-0.849978	0.028671	27.7624	-0.849445	-2.104887E+11	-1.362130E-13	NaN
483	1.000000	0.312731	7.36978e+06	-52939.1	1005.82	-29747.8	0.000000	0.000000	6.312856	0.002319	NaN	0.000000	0.001570	0.001767	28.0813	0.005205	0.002034	2.559013	80.7487	15.8803	-0.028494	0.311347	-0.838663	-0.840047	0.002319	2.559013	-0.839343	-1.536001E+11	-1.509634E-14	NaN
483	1.000000	0.322731	7.36978e+06	-52939.1	1005.82	-29747.8	0.000000	0.000000	6.322855	-0.024078	NaN	0.000000	0.001552	0.001789	28.0814	0.098697	0.002085	47.3379	-152.844	-165.165	0.019177	0.321450	-0.828663	-0.829944	-0.024078	47.3379	-0.828281	-1.087651E+11	2.213742E-13	NaN
483	1.000000	0.332744	7.36978e+06	-52939.1	1005.82	-29747.8	0.000000	0.000000	6.332870	0.022442	NaN	0.000000	0.001553	0.001793	28.0801	0.013499	0.002061	6.548801	-173.923	15.5907	-0.046284	0.331361	-0.818650	-0.820033	0.022442	6.548801	-0.821220	-8.724786E+10	-2.572239E-13	NaN
483	1.000000	0.342726	7.36978e+06	-52939.1	1005.82	-29747.8	0.000000	0.000000	6.342853	0.060251	NaN	0.000000	0.001561	0.001783	28.0805	0.040781	0.002086	19.5463	-25.6483	-162.58	0.094005	0.341429	-0.808668	-0.809965	0.060251	19.5463	-0.810980	-6.336746E+10	-9.508227E-13	NaN
483	1.000000	0.352759	7.36978e+06	-52939.1	1005.82	-29747.8	0.000000	0.000000	6.352884	-9.879945E-5	NaN	0.000000	0.001543	0.001795	28.08	0.082186	0.002051	40.0635	29.9117	15.6093	-0.009235	0.351383	-0.798635	-0.800011	-9.879945E-5	40.0635	-0.798633	-4.308310E+10	2.293230E-15	NaN
483	1.000000	0.362750	7.36978e+06	-52939.1	1005.82	-29747.8	0.000000	0.000000	6.362877	0.048653	NaN	0.000000	0.001618	0.001767	28.0804	0.038107	0.002142	17.787	-91.6925	-164.446	0.020476	0.361479	-0.788644	-0.789915	0.048653	17.787	-0.790695	-3.361459E+10	-1.447387E-12	NaN
483	1.000000	0.372730	7.36978e+06	-52939.1	1005.82	-29747.8	0.000000	0.000000	6.372857	0.054700	NaN	0.000000	0.001626	0.001726	28.0803	0.034185	0.001962	17.4259	-119.223	16.3144	0.065007	0.371431	-0.778664	-0.779963	0.054700	17.4259	-0.781019	-2.483545E+10	-2.202500E-12	NaN
483	1.000000	0.382765	7.36978e+06	-52939.1	1005.82	-29747.8	0.000000	0.000000	6.382890	-0.000512	NaN	0.000000	0.001623	0.001755	28.0807	0.036001	0.001940	18.5604	134.937	-163.195	-0.039669	0.381432	-0.768629	-0.769962	-0.000512	18.5604	-0.768609	-1.684174E+10	3.039393E-14	NaN
483	1.000000	0.392734	7.36978e+06	-52939.1	1005.82	-29747.8	0.000000	0.000000	6.392860	0.005136	NaN	0.000000	0.001638	0.001806	28.0801	0.054180	0.002045	26.4915	-127.712	17.0645	0.004895	0.391388	-0.758659	-0.760006	0.005136	26.4915	-0.758805	-1.238920E+10	-4.145914E-13	NaN
483	1.000000	0.402765	7.36978e+06	-52939.1	1005.82	-29747.8	0.000000	0.000000	6.402890	-0.016849	NaN	0.000000	0.001600	0.001764	28.0802	0.080497	0.001980	40.6461	-53.6866	-162.189	0.047753	0.401466	-0.748628	-0.749928	-0.016849	40.6461	-0.748318	-8.919028E+9	1.889067E-12	NaN
483	1.000000	0.412782	7.36978e+06	-52939.1	1005.82	-29747.8	0.000000	0.000000	6.412911	0.107358	NaN	0.000000	0.001594	0.001740	28.0803	0.008135	0.001916	4.245281	5.600741	16.6864	0.110720	0.411358	-0.738612	-0.740036	0.107358	4.245281	-0.757579	-1.192225E+10	-9.004817E-12	NaN
483	1.000000	0.422776	7.36978e+06	-52939.1	1005.82	-29747.8	0.000000	0.000000	6.422902	0.043673	NaN	0.000000	0.001589	0.001771	28.0802	0.048482	0.001994	24.3198	-118.399	-163.263	0.013755	0.421460	-0.728618	-0.729934	0.043673	24.3198	-0.729965	-5.015729E+9	-8.707250E-12	NaN
483	1.000000	0.432779	7.36978e+06	-52939.1	1005.82	-29747.8	0.000000	0.000000	6.432907	0.064563	NaN	0.000000	0.001578	0.001744	28.0802	0.048695	0.001952	24.9464	-44.0068	13.7237	0.100825	0.431401	-0.718615	-0.719993	0.064563	24.9464	-0.720556	-3.732941E+9	-1.729543E-11	NaN
483	1.000000	0.442795	7.36978e+06	-52939.1	1005.82	-29747.8	0.000000	0.000000	6.442920	0.002729	NaN	0.000000	0.001586	0.001800	28.0803	0.026586	0.002179	12.2005	-51.2047	-165.616	0.052362	0.441493	-0.708599	-0.709901	0.002729	12.2005	-0.708766	-2.577589E+9	-1.058680E-12	NaN
483	1.000000	0.452765	7.36978e+06	-52939.1	1005.82	-29747.8	0.000000	0.000000	6.452890	-0.002858	NaN	0.000000	0.001605	0.001788	28.0803	0.113745	0.001967	57.8203	-43.0912	17.3181	-0.034580	0.451431	-0.698629	-0.699963	-0.002858	57.8203	-0.698592	-1.871971E+9	1.526730E-12	NaN
483	1.000000	0.462777	7.36978e+06	-52939.1	1005.82	-29747.8	0.000000	0.000000	6.462904	0.033482	NaN	0.000000	0.001591	0.001767	28.0803	0.109366	0.001920	56.9588	145.086	-168.092	-0.023310	0.461510	-0.688617	-0.689884	0.033482	56.9588	-0.689058	-1.386881E+9	-2.414218E-11	NaN
483	1.000000	0.472775	7.36978e+06	-52939.1	1005.82	-29747.8	0.000000	0.000000	6.472901	0.021745	NaN	0.000000	0.001582	0.001726	28.0813	0.046391	0.001932	24.0087	-118.964	15.501	0.003003	0.471499	-0.678619	-0.679895	0.021745	24.0087	-0.679298	-1.020021E+9	-2.131843E-11	NaN
483	1.000000	0.482794	7.36978e+06	-52939.1	1005.82	-29747.8	0.000000	0.000000	6.482918	-0.016504	NaN	0.000000	0.001612	0.001752	28.0816	0.150098	0.001976	75.9548	-119.958	-163.805	0.015414	0.481529	-0.668600	-0.669865	-0.016504	75.9548	-0.668437	-7.244306E+8	2.278241E-11	NaN
483	1.000000	0.492810	7.36978e+06	-52939.1	1005.82	-29747.8	0.000000	0.000000	6.492936	0.013756	NaN	0.000000	0.001549	0.001760	28.0813	0.063162	0.001991	31.7271	9.085495	15.2914	-0.030760	0.491443	-0.658584	-0.659951	0.013756	31.7271	-0.658909	-5.364405E+8	-2.564249E-11	NaN
483	1.000000	0.502812	7.36978e+06	-52939.1	1005.82	-29747.8	0.000000	0.000000	6.502941	0.090601	NaN	0.000000	0.001582	0.001733	28.0816	0.070606	0.001844	38.2921	-39.334	-165.993	0.088074	0.501486	-0.648582	-0.649908	0.090601	38.2921	-0.650356	-4.095640E+8	-2.212130E-10	NaN
483	1.000000	0.512822	7.36978e+06	-52939.1	1005.82	-29747.8	0.000000	0.000000	6.512950	0.057841	NaN	0.000000	0.001544	0.001762	28.0812	0.057632	0.002006	28.727	20.9578	15.7916	0.099949	0.511489	-0.638572	-0.639905	0.057841	28.727	-0.640082	-2.960813E+8	-1.953565E-10	NaN
483	1.000000	0.522823	7.36978e+06	-52939.1	1005.82	-29747.8	0.000000	0.000000	6.522950	0.058685	NaN	0.000000	0.001525	0.001798	28.0816	0.018941	0.001942	9.754192	179.869	-164.193	-0.092707	0.521494	-0.628571	-0.629900	0.058685	9.754192	-0.633083	-2.373346E+8	-2.472666E-10	NaN
483	1.000000	0.532841	7.36978e+06	-52939.1	1005.82	-29747.8	0.000000	0.000000	6.532965	-0.028515	NaN	0.000000	0.001566	0.001786	28.0812	0.038518	0.002100	18.3436	-63.024	13.9089	-0.086812	0.531504	-0.618553	-0.619890	-0.028515	18.3436	-0.617387	-1.444472E+8	1.974112E-10	NaN
483	1.000000	0.542818	7.36978e+06	-52939.1	1005.82	-29747.8	0.000000	0.000000	6.542942	-0.009514	NaN	0.000000	0.001593	0.001742	28.0813	0.064518	0.002037	31.6721	-143.881	-168.381	0.091871	0.541581	-0.608576	-0.609813	-0.009514	31.6721	-0.608351	-1.084987E+8	8.768999E-11	NaN
483	1.000000	0.552861	7.36978e+06	-52939.1	1005.82	-29747.8	0.000000	0.000000	6.552989	0.071405	NaN	0.000000	0.001584	0.001785	28.0811	0.026662	0.001928	13.8264	79.4089	12.7663	0.085691	0.551483	-0.598533	-0.599911	0.071405	13.8264	-0.602407	-8.986694E+7	-7.945600E-10	NaN
483	1.000000	0.562836	7.36978e+06	-52939.1	1005.82	-29747.8	0.000000	0.000000	6.562957	-0.090162	NaN	0.000000	0.001560	0.001759	28.0815	0.084227	0.002004	42.0228	-125.753	-163.051	-0.122146	0.561541	-0.588558	-0.589853	-0.090162	42.0228	-0.586949	-5.502914E+7	1.638450E-9	NaN
483	1.000000	0.572834	7.36978e+06	-52939.1	1005.82	-29747.8	0.000000	0.000000	6.572961	0.039474	NaN	0.000000	0.001592	0.001786	28.0813	0.016414	0.001999	8.209372	17.9744	16.0867	-0.097418	0.571514	-0.578560	-0.579880	0.039474	8.209372	-0.582166	-4.727410E+7	-8.349998E-10	NaN
483	1.000000	0.582860	7.36978e+06	-52939.1	1005.82	-29747.8	0.000000	0.000000	6.582985	0.000937	NaN	0.000000	0.001592	0.001778	28.0809	0.064749	0.001970	32.867	-172.092	-164.146	-0.040647	0.581529	-0.568534	-0.569865	0.000937	32.867	-0.568555	-3.066669E+7	-3.056659E-11	NaN
483	1.000000	0.592872	7.36978e+06	-52939.1	1005.82	-29747.8	0.000000	0.000000	6.592995	-0.050897	NaN	0.000000	0.001597	0.001786	28.0815	0.090361	0.001966	45.9606	132.684	15.6484	-0.015910	0.591532	-0.558522	-0.559862	-0.050897	45.9606	-0.557692	-2.169916E+7	2.345560E-9	NaN
483	1.000000	0.602835	7.36978e+06	-52939.1	1005.82	-29747.8	0.000000	0.000000	6.602961	0.019178	NaN	0.000000	0.001588	0.001778	28.0812	0.087955	0.001946	45.2043	11.1261	-167.7	0.014512	0.601502	-0.548559	-0.549892	0.019178	45.2043	-0.548877	-1.638324E+7	-1.170606E-9	NaN
483	1.000000	0.612869	7.36978e+06	-52939.1	1005.82	-29747.8	0.000000	0.000000	6.612998	0.077668	NaN	0.000000	0.001575	0.001777	28.0802	0.104675	0.001980	52.8651	15.1473	16.6636	0.017689	0.611500	-0.538525	-0.539894	0.077668	52.8651	-0.539626	-1.219486E+7	-6.368947E-9	NaN
483	1.000000	0.622866	7.36978e+06	-52939.1	1005.82	-29747.8	0.000000	0.000000	6.622995	0.090270	NaN	0.000000	0.001582	0.001776	28.08	0.065346	0.002068	31.5936	-164.408	-165.67	0.148345	0.621579	-0.528528	-0.529815	0.090270	31.5936	-0.530671	-9.15991e+06	-9.854922E-9	NaN
483	1.000000	0.632847	7.36978e+06	-52939.1	1005.82	-29747.8	0.000000	0.000000	6.632976	0.095502	NaN	0.000000	0.001562	0.001791	28.0803	0.123237	0.001936	63.6665	82.0742	15.7486	0.078426	0.631541	-0.518547	-0.519853	0.095502	63.6665	-0.519672	-6.4422e+06	-1.482448E-8	NaN
483	1.000000	0.642862	7.36978e+06	-52939.1	1005.82	-29747.8	0.000000	0.000000	6.642988	0.019258	NaN	0.000000	0.001549	0.001793	28.08	0.007132	0.002014	3.540974	-33.0077	-165.787	0.053837	0.641584	-0.508532	-0.509810	0.019258	3.540974	-0.512611	-5.13777e+06	-3.748223E-9	NaN
483	1.000000	0.652860	7.36978e+06	-52939.1	1005.82	-29747.8	0.000000	0.000000	6.652985	0.009621	NaN	0.000000	0.001572	0.001777	28.0802	0.130513	0.001973	66.1416	-130.226	15.6808	-0.021632	0.651543	-0.498534	-0.499851	0.009621	66.1416	-0.498644	-3.28165e+06	-2.931704E-9	NaN
483	1.000000	0.662860	7.36978e+06	-52939.1	1005.82	-29747.8	0.000000	0.000000	6.662983	-0.045405	NaN	0.000000	0.001635	0.001758	28.0799	0.086719	0.002082	41.6433	62.4667	-166.101	-0.018709	0.661541	-0.488534	-0.489853	-0.045405	41.6433	-0.487716	-2.30925e+06	1.966228E-8	NaN
483	1.000000	0.672877	7.36978e+06	-52939.1	1005.82	-29747.8	0.000000	0.000000	6.672999	-0.056016	NaN	0.000000	0.001655	0.001803	28.0807	0.032914	0.001956	16.8308	-42.7274	13.6719	0.033543	0.671569	-0.478517	-0.479825	-0.056016	16.8308	-0.476021	-1.58419e+06	3.535944E-8	NaN
483	1.000000	0.682905	7.36978e+06	-52939.1	1005.82	-29747.8	0.000000	0.000000	6.683030	-0.015957	NaN	0.000000	0.001615	0.001764	28.0799	0.035995	0.001937	18.5838	31.3984	-164.292	-0.008544	0.681549	-0.468489	-0.469845	-0.015957	18.5838	-0.467845	-1.21668e+06	1.311557E-8	NaN
483	1.000000	0.692890	7.36978e+06	-52939.1	1005.82	-29747.8	0.000000	0.000000	6.693013	-0.042562	NaN	0.000000	0.001591	0.001803	28.08	0.110842	0.001916	57.8646	81.4769	14.5858	-0.046798	0.691520	-0.458504	-0.459874	-0.042562	57.8646	-0.457952	-883558	4.817127E-8	NaN
483	1.000000	0.702899	7.36978e+06	-52939.1	1005.82	-29747.8	0.000000	0.000000	6.703024	-0.018141	NaN	0.000000	0.001631	0.001792	28.08	0.111990	0.002030	55.1617	-55.6315	-164.426	-0.040250	0.701583	-0.448495	-0.449811	-0.018141	55.1617	-0.448248	-645155	2.811905E-8	NaN
483	1.000000	0.712900	7.36978e+06	-52939.1	1005.82	-29747.8	0.000000	0.000000	6.713025	-0.009209	NaN	0.000000	0.001597	0.001748	28.0803	0.103507	0.001966	52.6597	171.058	15.2289	-0.033947	0.711533	-0.438494	-0.439861	-0.009209	52.6597	-0.438363	-468009	1.967608E-8	NaN
483	1.000000	0.722891	7.36978e+06	-52939.1	1005.82	-29747.8	0.000000	0.000000	6.723016	0.005882	NaN	0.000000	0.001566	0.001764	28.0802	0.022542	0.002049	11.0013	-12.9167	-165.923	0.029486	0.721594	-0.428503	-0.429800	0.005882	11.0013	-0.428904	-343995	-1.709955E-8	NaN
483	1.000000	0.732903	7.36978e+06	-52939.1	1005.82	-29747.8	0.000000	0.000000	6.733027	-0.026685	NaN	0.000000	0.001673	0.001777	28.0803	0.077155	0.001873	41.196	-54.438	13.4627	-0.000851	0.731575	-0.418491	-0.419819	-0.026685	41.196	-0.418005	-241055	1.107000E-7	NaN
483	1.000000	0.742938	7.36978e+06	-52939.1	1005.82	-29747.8	0.000000	0.000000	6.743062	-0.026204	NaN	0.000000	0.001626	0.001775	28.0814	0.057446	0.001909	30.0934	-177.656	-166.564	-0.000182	0.741631	-0.408456	-0.409763	-0.026204	30.0934	-0.407803	-172643	1.517821E-7	NaN
483	1.000000	0.752920	7.36978e+06	-52939.1	1005.82	-29747.8	0.000000	0.000000	6.753047	0.044317	NaN	0.000000	0.001606	0.001746	28.0817	0.055570	0.002034	27.3212	89.8601	15.2745	0.054885	0.751527	-0.398474	-0.399867	0.044317	27.3212	-0.399691	-132306	-3.349600E-7	NaN
483	1.000000	0.762898	7.36978e+06	-52939.1	1005.82	-29747.8	0.000000	0.000000	6.763022	-0.041730	NaN	0.000000	0.001600	0.001736	28.0815	0.068276	0.002073	32.9301	-58.9425	-167.954	-0.004138	0.761617	-0.388496	-0.389777	-0.041730	32.9301	-0.387545	-88723.2	4.703434E-7	NaN
483	1.000000	0.772930	7.36978e+06	-52939.1	1005.82	-29747.8	0.000000	0.000000	6.773055	-0.005089	NaN	0.000000	0.001663	0.001781	28.0815	0.034331	0.002129	16.127	-153.174	15.2667	0.085001	0.771526	-0.378464	-0.379868	-0.005089	16.127	-0.378227	-65229.1	7.801881E-8	NaN
483	1.000000	0.782937	7.36978e+06	-52939.1	1005.82	-29747.8	0.000000	0.000000	6.783061	-0.022954	NaN	0.000000	0.001663	0.001765	28.0817	0.052763	0.001927	27.379	84.9538	-164.337	0.014256	0.781619	-0.368457	-0.369775	-0.022954	27.379	-0.367829	-46221.5	4.966085E-7	NaN
483	1.000000	0.792941	7.36978e+06	-52939.1	1005.82	-29747.8	0.000000	0.000000	6.793067	0.023883	NaN	0.000000	0.001688	0.001785	28.0814	0.051740	0.002040	25.3568	30.1065	13.5794	0.065328	0.791605	-0.358453	-0.359789	0.023883	25.3568	-0.359159	-34649.1	-6.892942E-7	NaN
483	1.000000	0.802913	7.36978e+06	-52939.1	1005.82	-29747.8	0.000000	0.000000	6.803042	0.094600	NaN	0.000000	0.001686	0.001737	28.0815	0.034805	0.002049	16.9824	-133.56	-165.751	0.060195	0.801613	-0.348481	-0.349781	0.094600	16.9824	-0.352659	-27897.7	-3.390957E-6	NaN
483	1.000000	0.812926	7.36978e+06	-52939.1	1005.82	-29747.8	0.000000	0.000000	6.813050	-0.029757	NaN	0.000000	0.001679	0.001789	28.0814	0.083882	0.002030	41.3166	119.049	15.472	-0.016910	0.811579	-0.338468	-0.339815	-0.029757	41.3166	-0.337928	-17034.8	1.746813E-6	NaN
483	1.000000	0.822975	7.36978e+06	-52939.1	1005.82	-29747.8	0.000000	0.000000	6.823098	-0.051317	NaN	0.000000	0.001706	0.001804	28.0817	0.025271	0.001962	12.8806	-136.029	-165.868	-0.107820	0.821649	-0.328419	-0.329745	-0.051317	12.8806	-0.325431	-11180.5	4.589865E-6	NaN
483	1.000000	0.832935	7.36978e+06	-52939.1	1005.82	-29747.8	0.000000	0.000000	6.833059	-0.016158	NaN	0.000000	0.001648	0.001737	28.0816	0.041146	0.002001	20.5578	52.2664	16.129	0.010592	0.831572	-0.318459	-0.319822	-0.016158	20.5578	-0.317870	-8655.03	1.866922E-6	NaN
483	1.000000	0.842954	7.36978e+06	-52939.1	1005.82	-29747.8	0.000000	0.000000	6.843080	0.008029	NaN	0.000000	0.001727	0.001732	28.0815	0.067303	0.002004	33.5785	112.045	-163.62	0.003525	0.841671	-0.308440	-0.309723	0.008029	33.5785	-0.308619	-6318.49	-1.270746E-6	NaN
483	1.000000	0.852955	7.36978e+06	-52939.1	1005.82	-29747.8	0.000000	0.000000	6.853083	0.070083	NaN	0.000000	0.001629	0.001770	28.0814	0.064731	0.002047	31.6149	149.055	14.9044	0.033907	0.851625	-0.298439	-0.299769	0.070083	31.6149	-0.300102	-4722.27	-1.484104E-5	NaN
483	1.000000	0.862950	7.36978e+06	-52939.1	1005.82	-29747.8	0.000000	0.000000	6.863076	0.024493	NaN	0.000000	0.001621	0.001800	28.0815	0.033791	0.002147	15.7366	110.929	-164.398	0.052410	0.861632	-0.288444	-0.289762	0.024493	15.7366	-0.289611	-3292.11	-7.439908E-6	NaN
483	1.000000	0.872979	7.36978e+06	-52939.1	1005.82	-29747.8	0.000000	0.000000	6.873106	0.033831	NaN	0.000000	0.001667	0.001760	28.0813	0.119740	0.001884	63.541	74.3298	19.3543	0.011984	0.871598	-0.278415	-0.279796	0.033831	63.541	-0.278814	-2265	-1.493650E-5	NaN
483	1.000000	0.882976	7.36978e+06	-52939.1	1005.82	-29747.8	0.000000	0.000000	6.883101	-0.001231	NaN	0.000000	0.001623	0.001796	28.08	0.025369	0.002065	12.2856	-11.8552	-161.959	0.034304	0.881628	-0.268418	-0.269766	-0.001231	12.2856	-0.268343	-1571.61	7.833460E-7	NaN
483	1.000000	0.892951	7.36978e+06	-52939.1	1005.82	-29747.8	0.000000	0.000000	6.893078	0.043159	NaN	0.000000	0.001653	0.001779	28.08	0.104293	0.002001	52.108	56.8124	14.5114	0.063041	0.891625	-0.258443	-0.259769	0.043159	52.108	-0.259064	-1133.89	-3.806287E-5	NaN
483	1.000000	0.902996	7.36978e+06	-52939.1	1005.82	-29747.8	0.000000	0.000000	6.903121	0.012170	NaN	0.000000	0.001618	0.001752	28.0803	0.086435	0.001882	45.915	51.5054	-165.545	-0.065707	0.901683	-0.248398	-0.249711	0.012170	45.915	-0.248597	-782.091	-1.556050E-5	NaN
483	1.000000	0.912999	7.36978e+06	-52939.1	1005.82	-29747.8	0.000000	0.000000	6.913123	-0.015965	NaN	0.000000	0.001634	0.001764	28.08	0.042493	0.001951	21.7781	-163.41	14.2314	-0.012364	0.911596	-0.238395	-0.239798	-0.015965	21.7781	-0.237846	-531.941	3.001219E-5	NaN
483	1.000000	0.922978	7.36978e+06	-52939.1	1005.82	-29747.8	0.000000	0.000000	6.923103	0.005177	NaN	0.000000	0.001613	0.001793	28.0799	0.033139	0.002006	16.5172	-168.344	-163.466	0.084728	0.921679	-0.228416	-0.229715	0.005177	16.5172	-0.228651	-381.243	-1.357930E-5	NaN
483	1.000000	0.932990	7.36978e+06	-52939.1	1005.82	-29747.8	0.000000	0.000000	6.933114	-0.044372	NaN	0.000000	0.001658	0.001776	28.0803	0.100947	0.002039	49.4992	-65.4911	14.2929	-0.020144	0.931594	-0.218404	-0.219800	-0.044372	49.4992	-0.217731	-255.486	0.000174	NaN
483	1.000000	0.942979	7.36978e+06	-52939.1	1005.82	-29747.8	0.000000	0.000000	6.943107	0.061864	NaN	0.000000	0.001616	0.001778	28.0803	0.113740	0.001980	57.4459	83.4309	-163.723	0.071095	0.941636	-0.208415	-0.209758	0.061864	57.4459	-0.209223	-186.305	-0.000332	NaN
483	1.000000	0.952958	7.36978e+06	-52939.1	1005.82	-29747.8	0.000000	0.000000	6.953084	0.020138	NaN	0.000000	0.001630	0.001777	28.08	0.115529	0.002065	55.9558	38.5435	14.6673	0.045282	0.951681	-0.198436	-0.199713	0.020138	55.9558	-0.198706	-125.433	-0.000161	NaN
483	1.000000	0.963005	7.36978e+06	-52939.1	1005.82	-29747.8	0.000000	0.000000	6.963132	0.041558	NaN	0.000000	0.001617	0.001798	28.0803	0.026474	0.002099	12.6101	158.765	-164.954	0.004887	0.961702	-0.188389	-0.189692	0.041558	12.6101	-0.190861	-92.9817	-0.000447	NaN
483	1.000000	0.973012	7.36978e+06	-52939.1	1005.82	-29747.8	0.000000	0.000000	6.973137	-0.002951	NaN	0.000000	0.001638	0.001810	28.0804	0.050954	0.002046	24.9016	18.4487	16.847	-0.078112	0.971686	-0.178382	-0.179708	-0.002951	24.9016	-0.178293	-57.0655	5.172053E-5	NaN
483	1.000000	0.982985	7.36978e+06	-52939.1	1005.82	-29747.8	0.000000	0.000000	6.983110	0.014313	NaN	0.000000	0.001641	0.001797	28.0803	0.090694	0.001978	45.8438	-156.78	-161.733	0.035484	0.981710	-0.168409	-0.169684	0.014313	45.8438	-0.168643	-38.9065	-0.000368	NaN
483	1.000000	0.993041	7.36978e+06	-52939.1	1005.82	-29747.8	0.000000	0.000000	6.993165	-0.043909	NaN	0.000000	0.001622	0.001789	28.0801	0.056731	0.001842	30.7987	124.222	15.5316	0.068147	0.991651	-0.158353	-0.159743	-0.043909	30.7987	-0.157283	-24.5217	0.001791	NaN
483	1.000000	1.003011	7.36978e+06	-52939.1	1005.82	-29747.8	0.000000	0.000000	7.003135	-0.011760	NaN	0.000000	0.001653	0.001796	28.0804	0.044951	0.001982	22.677	90.1573	-165.474	-0.050359	1.001717	-0.148383	-0.149677	-0.011760	22.677	-0.147994	-16.6465	0.000706	NaN
483	1.000000	1.013002	7.36978e+06	-52939.1	1005.82	-29747.8	0.000000	0.000000	7.013128	0.036495	NaN	0.000000	0.001657	0.001815	28.0807	0.112587	0.002051	54.8866	-166.957	11.9554	0.031103	1.011632	-0.138392	-0.139762	0.036495	54.8866	-0.138891	-11.2746	-0.003237	NaN
483	1.000000	1.023005	7.36978e+06	-52939.1	1005.82	-29747.8	0.000000	0.000000	7.023130	-0.011449	NaN	0.000000	0.001653	0.001782	28.0816	0.027833	0.001887	14.7489	-148.425	-167.102	0.040888	1.021750	-0.128389	-0.129644	-0.011449	14.7489	-0.127807	-6.906158	0.001658	NaN
483	1.000000	1.033012	7.36978e+06	-52939.1	1005.82	-29747.8	0.000000	0.000000	7.033138	0.023749	NaN	0.000000	0.001637	0.001775	28.0816	0.084363	0.001844	45.7458	-147.436	16.7792	0.012320	1.031650	-0.118382	-0.119744	0.023749	45.7458	-0.118771	-4.562691	-0.005205	NaN
483	1.000000	1.043018	7.36978e+06	-52939.1	1005.82	-29747.8	0.000000	0.000000	7.043144	0.014460	NaN	0.000000	0.001652	0.001800	28.0816	0.064427	0.002009	32.0757	-143.13	-168.456	0.070424	1.041711	-0.108376	-0.109683	0.014460	32.0757	-0.108714	-2.822721	-0.005123	NaN
483	1.000000	1.053048	7.36978e+06	-52939.1	1005.82	-29747.8	0.000000	0.000000	7.053172	-0.040532	NaN	0.000000	0.001618	0.001842	28.082	0.090013	0.002054	43.8278	-144.327	13.6166	-0.000654	1.051662	-0.098346	-0.099732	-0.040532	43.8278	-0.097652	-1.619546	0.025027	NaN
483	1.000000	1.063029	7.36978e+06	-52939.1	1005.82	-29747.8	0.000000	0.000000	7.063153	-0.035850	NaN	0.000000	0.001643	0.001803	28.0814	0.045950	0.002028	22.6584	-85.0851	-163.78	-0.044563	1.061771	-0.088365	-0.089623	-0.035850	22.6584	-0.087178	-0.926896	0.038678	NaN
483	1.000000	1.073034	7.36978e+06	-52939.1	1005.82	-29747.8	0.000000	0.000000	7.073158	-0.007345	NaN	0.000000	0.001644	0.001791	28.0815	0.105795	0.001905	55.5376	-12.4325	16.2088	-0.034632	1.071717	-0.078360	-0.079677	-0.007345	55.5376	-0.078261	-0.559694	0.013123	NaN
483	1.000000	1.083045	7.36978e+06	-52939.1	1005.82	-29747.8	0.000000	0.000000	7.083172	0.037989	NaN	0.000000	0.001625	0.001791	28.0832	0.010144	0.001994	5.088557	-29.0437	-163.179	0.087276	1.081734	-0.068349	-0.069660	0.037989	5.088557	-0.073948	-0.433710	-0.087591	NaN
483	1.000000	1.093043	7.36978e+06	-52939.1	1005.82	-29747.8	0.000000	0.000000	7.093169	0.019794	NaN	0.000000	0.001609	0.001783	28.085	0.123580	0.002052	60.2114	139.211	14.8899	0.022881	1.091735	-0.058351	-0.059659	0.019794	60.2114	-0.058597	-0.164089	-0.120632	NaN
483	1.000000	1.103046	7.36978e+06	-52939.1	1005.82	-29747.8	0.000000	0.000000	7.103171	-0.003000	NaN	0.000000	0.001655	0.001784	28.0818	0.053699	0.002032	26.4251	71.0424	-163.6	0.039497	1.101747	-0.048348	-0.049647	-0.003000	26.4251	-0.048263	-0.080827	0.037117	NaN
483	1.000000	1.113064	7.36978e+06	-52939.1	1005.82	-29747.9	0.000000	0.000000	7.113190	0.015441	NaN	0.000000	0.001637	0.001756	28.0814	0.076962	0.001874	41.0595	82.6828	17.4207	-0.100864	1.111698	-0.038330	-0.039696	0.015441	41.0595	-0.038612	-0.041050	-0.376163	NaN
483	1.000000	1.123080	7.36978e+06	-52939.1	1005.82	-29747.9	0.000000	0.000000	7.123203	-0.051921	NaN	0.000000	0.001631	0.001777	28.0814	0.053572	0.002056	26.0512	165.099	-165.931	-0.000698	1.121700	-0.028314	-0.029694	-0.051921	26.0512	-0.026819	-0.018844	2.755316	NaN
483	1.000000	1.133055	7.36978e+06	-52939.1	1005.82	-29747.8	0.000000	0.000000	7.133182	0.044995	NaN	0.000000	0.001638	0.001751	28.0815	0.154722	0.001860	83.1749	-149.215	14.7671	-0.023466	1.131688	-0.018339	-0.019706	0.044995	83.1749	-0.018744	-0.011667	-3.856566	NaN
483	1.000000	1.143080	7.36978e+06	-52939.1	1005.82	-29747.9	0.000000	0.000000	7.143211	0.141223	NaN	0.000000	0.001638	0.001759	28.0813	0.210076	0.001946	107.954	23.7938	-164.968	0.107880	1.141742	-0.008314	-0.009652	0.141223	107.954	-0.009295	-0.005983	-23.6049	NaN
483	1.000000	1.153059	7.36978e+06	-52939.1	1005.82	-29747.9	0.000000	0.000000	7.153453	6.535404	NaN	0.000000	0.001629	0.001787	28.08	6.814667	0.001758	3877.41	17.9871	6.893945	6.469827	1.151684	0.001665	0.000290	6.535404	3877.41	0.000401	0.000302	21625.8	203782
483	2.000000	1.157625	7.36978e+06	-52939.1	1005.82	-29747.8	0.000000	0.000000	7.158156	9.866282	NaN	0.000000	0.001634	0.001771	28.0803	10.4554	0.001753	5965.64	9.801788	-173.17	9.785943	1.157299	0.006231	0.005905	9.866282	5965.64	0.004991	0.004125	2391.91	84864.4
483	2.000000	1.160124	7.36978e+06	-52939.1	1005.82	-29747.8	0.000000	0.000000	7.160760	12.4403	NaN	0.000000	0.001655	0.001796	28.0798	12.2826	0.001710	7181.74	4.198066	10.8584	11.6667	1.159701	0.008730	0.008307	12.4403	7181.74	0.007430	0.006463	1924.84	81617.9
483	2.000000	1.162529	7.36978e+06	-52939.1	1005.82	-29747.8	0.000000	0.000000	7.163288	15.409	NaN	0.000000	0.001641	0.001769	28.08	15.1688	0.001772	8559.46	7.285063	-175.229	13.7612	1.162252	0.011135	0.010858	15.409	8559.46	0.009785	0.008943	1723	82694.1
483	2.000000	1.165051	7.36978e+06	-52939.1	1005.82	-29747.9	0.000000	0.000000	7.165962	19.1157	NaN	0.000000	0.001695	0.001743	28.0801	17.9102	0.001769	10126.9	2.316713	7.967165	17.909	1.164764	0.013657	0.013370	19.1157	10126.9	0.012241	0.011780	1622.72	85246.2
483	2.000000	1.167582	7.36978e+06	-52939.1	1005.82	-29747.9	0.000000	0.000000	7.168737	25.0318	NaN	0.000000	0.001713	0.001768	28.0804	21.3421	0.001779	11996.6	6.875763	-176.212	25.9644	1.167263	0.016188	0.015869	25.0318	11996.6	0.014623	0.014786	1692.94	90137.4
483	2.000000	1.170006	7.36978e+06	-52939.1	1005.82	-29747.9	0.000000	0.000000	7.171497	33.2222	NaN	0.000000	0.001639	0.001738	28.0799	23.2211	0.001681	13810.7	5.574039	3.091271	30.8282	1.169694	0.018612	0.018300	33.2222	13810.7	0.016808	0.017772	1869.36	94650.4
483	2.000000	1.172550	7.36978e+06	-52939.1	1005.82	-29747.9	0.000000	0.000000	7.174292	39.3266	NaN	0.000000	0.001643	0.001782	28.0802	25.3617	0.001703	14892.5	6.742297	-179.873	40.1777	1.172230	0.021156	0.020836	39.3266	14892.5	0.019175	0.021263	1849.54	93310.4
483	2.000000	1.175011	7.36978e+06	-52939.1	1005.82	-29747.9	0.000000	0.000000	7.177109	47.9581	NaN	0.000000	0.001708	0.001764	28.08	28.6437	0.001762	16259.6	6.238107	0.758142	47.2449	1.174640	0.023617	0.023246	47.9581	16259.6	0.021405	0.024799	1933.88	94333.9
483	2.000000	1.177484	7.36978e+06	-52939.1	1005.82	-29747.9	0.000000	0.000000	7.179814	53.6077	NaN	0.000000	0.001716	0.001767	28.0802	31.0392	0.001829	16972.8	3.117560	-177.229	51.7001	1.177185	0.026090	0.025791	53.6077	16972.8	0.023721	0.028731	1865.87	91485.6
483	2.000000	1.180030	7.36978e+06	-52939.1	1005.82	-29747.9	0.000000	0.000000	7.182880	66.2524	NaN	0.000000	0.001742	0.001771	28.08	32.7757	0.001806	18150.8	6.293276	0.160400	64.8666	1.179625	0.028636	0.028231	66.2524	18150.8	0.025898	0.032670	2027.9	91747
483	2.000000	1.182484	7.36978e+06	-52939.1	1005.82	-29747.9	0.000000	0.000000	7.185361	66.9244	NaN	0.000000	0.001691	0.001762	28.08	35.1881	0.001689	20838.6	2.305505	-178.555	64.2861	1.182156	0.031090	0.030762	66.9244	20838.6	0.028681	0.038054	1758.66	97598
483	2.000000	1.184968	7.36978e+06	-52939.1	1005.82	-29747.9	0.000000	0.000000	7.187973	70.0146	NaN	0.000000	0.001724	0.001741	28.08	38.8184	0.001845	21039.8	6.368224	-3.254154	66.736	1.184681	0.033574	0.033287	70.0146	21039.8	0.031078	0.043008	1627.95	92692
483	2.000000	1.187495	7.36978e+06	-52939.1	1005.82	-29747.9	0.000000	0.000000	7.191148	85.7733	NaN	0.000000	0.001755	0.001754	28.0804	41.1351	0.001901	21642.9	4.051059	-179.923	85.8151	1.187187	0.036101	0.035793	85.7733	21642.9	0.033129	0.047479	1806.57	90748.7
483	2.000000	1.189982	7.36978e+06	-52939.1	1005.82	-29747.9	0.000000	0.000000	7.193879	91.7106	NaN	0.000000	0.001711	0.001751	28.0813	43.2699	0.001869	23156.5	6.583400	-3.224550	88.3964	1.189693	0.038588	0.038299	91.7106	23156.5	0.035617	0.053193	1724.11	91731.6
483	2.000000	1.192400	7.36978e+06	-52939.1	1005.82	-29747.9	0.000000	0.000000	7.196848	105.108	NaN	0.000000	0.001648	0.001787	28.0812	44.501	0.001838	24207.7	1.375813	-178.071	100.602	1.192131	0.041006	0.040737	105.108	24207.7	0.037750	0.058342	1801.59	91566.7
483	2.000000	1.195048	7.36978e+06	-52939.1	1005.82	-29747.9	0.000000	0.000000	7.199583	107.201	NaN	0.000000	0.001659	0.001770	28.0813	48.4821	0.001898	25544.1	6.992684	-4.012930	110.185	1.194655	0.043654	0.043261	107.201	25544.1	0.040507	0.065345	1640.55	91297.1
483	2.000000	1.197473	7.36978e+06	-52939.1	1005.82	-29747.9	0.000000	0.000000	7.202585	121.244	NaN	0.000000	0.001654	0.001751	28.0811	50.1435	0.001713	29277.8	2.168752	178.886	119.049	1.197228	0.046079	0.045834	121.244	29277.8	0.042974	0.071939	1685.38	99731
483	2.000000	1.200030	7.36978e+06	-52939.1	1005.82	-29747.9	0.000000	0.000000	7.205651	133.617	NaN	0.000000	0.001695	0.001713	28.0811	52.2043	0.001786	29234.5	5.203491	-2.734701	134.057	1.199564	0.048636	0.048170	133.617	29234.5	0.045208	0.078180	1709.09	95525.8
483	2.000000	1.202484	7.36978e+06	-52939.1	1005.82	-29747.9	0.000000	0.000000	7.208429	141.487	NaN	0.000000	0.001709	0.001761	28.0812	54.4476	0.001783	30540	5.683019	175.19	142.469	1.202244	0.051090	0.050850	141.487	30540	0.047616	0.085186	1660.92	95600.2
483	2.000000	1.204939	7.36978e+06	-52939.1	1005.82	-29747.9	0.000000	0.000000	7.211285	151.252	NaN	0.000000	0.001704	0.001735	28.0812	57.1797	0.001850	30901.6	4.433521	-3.195935	148.672	1.204615	0.053545	0.053221	151.252	30901.6	0.049874	0.092024	1643.61	93068.8
483	2.000000	1.207481	7.36978e+06	-52939.1	1005.82	-29747.9	0.000000	0.000000	7.214563	169.138	NaN	0.000000	0.001748	0.001766	28.081	59.8885	0.001833	32680.5	4.238012	176.3	169.807	1.207143	0.056087	0.055749	169.138	32680.5	0.052205	0.099351	1702.42	94727.3
483	2.000000	1.209906	7.36978e+06	-52939.1	1005.82	-29747.9	0.000000	0.000000	7.217559	183.033	NaN	0.000000	0.001695	0.001797	28.0811	61.6516	0.001854	33258.6	5.441655	-4.894092	178.106	1.209589	0.058512	0.058195	183.033	33258.6	0.054384	0.106445	1719.51	93135.3
483	2.000000	1.212501	7.36978e+06	-52939.1	1005.82	-29747.9	0.000000	0.000000	7.220547	192.574	NaN	0.000000	0.001736	0.001788	28.0812	63.2069	0.001733	36474.9	5.331538	174.133	191.854	1.212240	0.061107	0.060846	192.574	36474.9	0.057147	0.115778	1663.3	97938.6
483	2.000000	1.215007	7.36978e+06	-52939.1	1005.82	-29747.9	0.000000	0.000000	7.223769	209.994	NaN	0.000000	0.001619	0.001750	28.0811	64.3654	0.001725	37309.3	2.282655	-2.607524	209.83	1.214579	0.063613	0.063185	209.994	37309.3	0.059391	0.123635	1698.5	96943.7
483	2.000000	1.217488	7.36978e+06	-52939.1	1005.82	-29747.9	0.000000	0.000000	7.226746	222.045	NaN	0.000000	0.001644	0.001796	28.0812	68.9467	0.001776	38816.3	7.534468	171.36	223.497	1.217122	0.066094	0.065728	222.045	38816.3	0.061804	0.132356	1677.64	97480
483	2.000000	1.220017	7.36978e+06	-52939.1	1005.82	-29747.9	0.000000	0.000000	7.229823	235.369	NaN	0.000000	0.001637	0.001741	28.0812	68.7796	0.001772	38805.9	4.390669	-4.366304	233.003	1.219629	0.068623	0.068235	235.369	38805.9	0.064074	0.140823	1671.39	94478.9
483	2.000000	1.222522	7.36978e+06	-52939.1	1005.82	-29747.9	0.000000	0.000000	7.232911	249.554	NaN	0.000000	0.001665	0.001788	28.0811	71.733	0.001779	40314.5	3.855023	174.971	253.351	1.222195	0.071128	0.070801	249.554	40314.5	0.066485	0.150084	1662.77	95075.2
483	2.000000	1.224884	7.36978e+06	-52939.1	1005.82	-29747.9	0.000000	0.000000	7.235827	263.02	NaN	0.000000	0.001656	0.001814	28.0799	75.3555	0.001748	43105	7.183969	-8.780585	258.44	1.224499	0.073490	0.073105	263.02	43105	0.068914	0.159697	1647	98549.2
483	2.000000	1.227418	7.36978e+06	-52939.1	1005.82	-29747.9	0.000000	0.000000	7.239045	279.636	NaN	0.000000	0.001594	0.001776	28.0802	78.0127	0.001749	44609.9	4.683139	173.047	276.646	1.227113	0.076024	0.075719	279.636	44609.9	0.071323	0.169511	1649.66	98993.2
483	2.000000	1.229858	7.36978e+06	-52939.1	1005.82	-29747.9	0.000000	0.000000	7.241940	290.73	NaN	0.000000	0.001609	0.001823	28.0798	79.3195	0.001819	43607.3	3.642908	-5.538263	282.159	1.229502	0.078464	0.078108	290.73	43607.3	0.073464	0.178462	1629.09	94310.4
483	2.000000	1.232360	7.36978e+06	-52939.1	1005.82	-29747.9	0.000000	0.000000	7.245474	315.804	NaN	0.000000	0.001602	0.001848	28.0804	80.6015	0.001632	49379.9	4.814334	172.177	311.014	1.232073	0.080966	0.080679	315.804	49379.9	0.076170	0.190088	1661.36	103478
483	2.000000	1.234982	7.36978e+06	-52939.1	1005.82	-29747.9	0.000000	0.000000	7.248696	330.39	NaN	0.000000	0.001574	0.001798	28.0799	84.4944	0.001837	45989.1	3.941348	-5.592178	331.295	1.234576	0.083588	0.083182	330.39	45989.1	0.078200	0.199035	1659.96	94181.1
483	2.000000	1.237310	7.36978e+06	-52939.1	1005.82	-29747.9	0.000000	0.000000	7.251881	351.243	NaN	0.000000	0.001572	0.001808	28.0808	87.1782	0.001805	48311.5	5.911407	171.627	343.744	1.237087	0.085916	0.085693	351.243	48311.5	0.080463	0.209235	1678.7	96495.4
483	2.000000	1.239986	7.36978e+06	-52939.1	1005.82	-29747.9	0.000000	0.000000	7.255114	364.775	NaN	0.000000	0.001576	0.001806	28.0802	89.004	0.001781	49968.4	5.305808	-7.406500	364.666	1.239653	0.088592	0.088259	364.775	49968.4	0.083117	0.221501	1646.83	97001.9
483	2.000000	1.242450	7.36978e+06	-52939.1	1005.82	-29747.9	0.000000	0.000000	7.258108	377.647	NaN	0.000000	0.001567	0.001834	28.0804	90.6683	0.001799	50397.9	5.465665	171.378	378.307	1.242322	0.091056	0.090928	377.647	50397.9	0.085436	0.232487	1624.38	95496.3
483	2.000000	1.244911	7.36978e+06	-52939.1	1005.82	-29747.9	0.000000	0.000000	7.261506	400.439	NaN	0.000000	0.001616	0.001772	28.0801	92.3565	0.001690	54639.6	3.220635	-6.873003	397.692	1.244680	0.093517	0.093286	400.439	54639.6	0.088020	0.245021	1634.31	100851
483	2.000000	1.247393	7.36978e+06	-52939.1	1005.82	-29747.9	0.000000	0.000000	7.264965	424.207	NaN	0.000000	0.001588	0.001753	28.0802	96.5794	0.001853	52118.8	8.438801	168.747	421.428	1.247115	0.095999	0.095721	424.207	52118.8	0.089894	0.254302	1668.12	94426.3
483	2.000000	1.249774	7.36978e+06	-52939.1	1005.82	-29747.9	0.000000	0.000000	7.268263	446.481	NaN	0.000000	0.001586	0.001709	28.0804	97.1427	0.001685	57657.9	4.361691	-7.962237	435.372	1.249505	0.098380	0.098111	446.481	57657.9	0.092572	0.267844	1666.95	101787
483	2.000000	1.252436	7.36978e+06	-52939.1	1005.82	-29747.9	0.000000	0.000000	7.271277	455.063	NaN	0.000000	0.001572	0.001738	28.0801	100.155	0.001755	57075.1	3.886004	172.248	454.2	1.252186	0.101042	0.100793	455.063	57075.1	0.095062	0.280727	1621.02	98418.7
483	2.000000	1.254382	7.36978e+06	-52939.1	1005.82	-29747.9	0.000000	0.000000	7.274213	479.137	NaN	0.000000	0.001606	0.001755	28.0801	101.049	0.001697	59559	5.373000	171.036	476.607	1.254078	0.102988	0.102684	479.137	59559	0.096954	0.290709	1648.17	100923