File: remote_trans/data/nanoindenter/0828-1/data/Data_2025-08-06,11h17m57s/2025-07-22_16-23-58_1_34.txt
2025-07-22, 16:23:58, 1
Index	Phase	Displacement	Time	Pos X	Pos Y	Pos Z	Rot A	Rot B	Piezo Z	Force A	Force B	Gripper	Voltage A	Voltage B	Temperature	Amplitude force	Amplitude pos	Stiffness	Phase shift	Phase excitation	Force A raw	Displacement raw	HMax	HMax raw	Real Force	Real Stiffness	Contact Depth	Area	Hardness	Reduced Mod.
[#]	[#]	[um]	[s]	[um]	[um]	[um]	[m°]	[m°]	[um]	[uN]	[uN]	[V]	[V]	[V]	[°C]	[uN]	[um]	[N/m]	[°]	[°]	[uN]	[um]	[um]	[um]	[uN]	[N/m]	[um]	[um^2]	[MPa]	[MPa]
34	1.000000	0.002837	7.36537e+06	-40339.1	955.82	-29791	0.000000	0.000000	6.002815	-0.036460	NaN	0.000000	0.001578	0.001623	28.0835	0.073025	0.001043	70.0016	-157.712	-173.414	0.054731	0.001568	-1.096376	-1.097645	-0.036460	70.0016	-1.095986	-4.427693E+14	8.234547E-17	NaN
34	1.000000	0.010830	7.36537e+06	-40339.1	955.818	-29791	0.000000	0.000000	6.010811	0.027457	NaN	0.000000	0.001585	0.001605	28.082	0.073079	0.001081	67.6015	-86.3666	-159.052	0.022215	0.009537	-1.088383	-1.089676	0.027457	67.6015	-1.088688	-3.533406E+14	-7.770759E-17	NaN
34	1.000000	0.018808	7.36537e+06	-40339.1	955.819	-29791	0.000000	0.000000	6.018787	-0.037277	NaN	0.000000	0.001599	0.001617	28.0821	0.103174	0.001673	61.6754	39.7359	-164.993	0.013238	0.017478	-1.080404	-1.081735	-0.037277	61.6754	-1.079951	-2.696885E+14	1.382219E-16	NaN
34	1.000000	0.026793	7.36537e+06	-40339.1	955.818	-29791	0.000000	0.000000	6.026775	0.054175	NaN	0.000000	0.001590	0.001620	28.08	0.096964	0.001900	51.0202	-150.155	-164.077	-0.002947	0.025479	-1.072420	-1.073734	0.054175	51.0202	-1.073217	-2.189781E+14	-2.473985E-16	NaN
34	1.000000	0.034759	7.36537e+06	-40339.1	955.819	-29791	0.000000	0.000000	6.034736	-0.075235	NaN	0.000000	0.001572	0.001612	28.0806	0.112057	0.002048	54.7261	-133.694	-166.908	-0.120809	0.033516	-1.064454	-1.065697	-0.075235	54.7261	-1.063423	-1.617405E+14	4.651599E-16	NaN
34	1.000000	0.042761	7.36537e+06	-40339.1	955.819	-29791	0.000000	0.000000	6.042741	-0.004147	NaN	0.000000	0.001561	0.001604	28.0799	0.025612	0.001893	13.5302	-16.9814	-162.809	0.060615	0.041505	-1.056452	-1.057708	-0.004147	13.5302	-1.056222	-1.294342E+14	3.204175E-17	NaN
34	1.000000	0.050797	7.36537e+06	-40339.1	955.818	-29791	0.000000	0.000000	6.050777	-0.014863	NaN	0.000000	0.001574	0.001653	28.0812	0.096371	0.001944	49.5782	169.542	-162.778	-0.053719	0.049446	-1.048415	-1.049767	-0.014863	49.5782	-1.048191	-1.009462E+14	1.472329E-16	NaN
34	1.000000	0.058771	7.36537e+06	-40339.1	955.819	-29791	0.000000	0.000000	6.058753	0.023000	NaN	0.000000	0.001581	0.001634	28.082	0.028866	0.001861	15.509	112.582	-166.228	0.069860	0.057495	-1.040441	-1.041718	0.023000	15.509	-1.041554	-8.219735E+13	-2.798098E-16	NaN
34	1.000000	0.066786	7.36537e+06	-40339.1	955.819	-29791	0.000000	0.000000	6.066766	-0.001005	NaN	0.000000	0.001576	0.001597	28.0819	0.049135	0.001886	26.0564	-109.331	-162.864	-0.018125	0.065504	-1.032427	-1.033709	-0.001005	26.0564	-1.032398	-6.190572E+13	1.623621E-17	NaN
34	1.000000	0.074798	7.36537e+06	-40339.1	955.819	-29791	0.000000	0.000000	6.074779	0.025136	NaN	0.000000	0.001600	0.001607	28.0821	0.058432	0.001937	30.1727	-24.4063	-164.154	0.034688	0.073462	-1.024415	-1.025751	0.025136	30.1727	-1.025039	-4.928924E+13	-5.099605E-16	NaN
34	1.000000	0.082774	7.36537e+06	-40339.1	955.818	-29791	0.000000	0.000000	6.082754	0.006840	NaN	0.000000	0.001627	0.001646	28.0807	0.032037	0.002057	15.5768	-89.0722	-163.544	0.023011	0.081510	-1.016439	-1.017703	0.006840	15.5768	-1.016769	-3.814798E+13	-1.792943E-16	NaN
34	1.000000	0.090761	7.36537e+06	-40339.1	955.818	-29791	0.000000	0.000000	6.090740	-0.019320	NaN	0.000000	0.001573	0.001680	28.0797	0.010868	0.001992	5.457276	-41.7916	-162.205	-0.107064	0.089511	-1.008452	-1.009702	-0.019320	5.457276	-1.005797	-2.715242E+13	7.115301E-16	NaN
34	1.000000	0.098809	7.36537e+06	-40339.1	955.818	-29791	0.000000	0.000000	6.098788	-0.034121	NaN	0.000000	0.001559	0.001649	28.08	0.078007	0.002018	38.6621	-178.033	-165.529	-0.043570	0.097492	-1.000404	-1.001720	-0.034121	38.6621	-0.999742	-2.250561E+13	1.516124E-15	NaN
34	1.000000	0.106775	7.36537e+06	-40339.1	955.818	-29791	0.000000	0.000000	6.106758	0.065387	NaN	0.000000	0.001585	0.001653	28.0809	0.006600	0.002010	3.282689	53.9798	-165.138	-0.017115	0.105459	-0.992438	-0.993754	0.065387	3.282689	-1.007377	-2.851486E+13	-2.293070E-15	NaN
34	1.000000	0.114797	7.36537e+06	-40339.1	955.819	-29791	0.000000	0.000000	6.114778	0.022426	NaN	0.000000	0.001576	0.001601	28.0807	0.019298	0.002076	9.295475	172.65	-162.689	-0.015262	0.113521	-0.984416	-0.985692	0.022426	9.295475	-0.986225	-1.480019E+13	-1.515273E-15	NaN
34	1.000000	0.122831	7.36537e+06	-40339.1	955.818	-29791	0.000000	0.000000	6.122813	0.044167	NaN	0.000000	0.001614	0.001610	28.0806	0.042720	0.002118	20.1664	139.889	-166.377	0.041381	0.121508	-0.976382	-0.977705	0.044167	20.1664	-0.978025	-1.147622E+13	-3.848579E-15	NaN
34	1.000000	0.130811	7.36537e+06	-40339.1	955.818	-29791	0.000000	0.000000	6.130793	0.049322	NaN	0.000000	0.001597	0.001624	28.0812	0.037700	0.002008	18.7727	-50.7766	-165.034	0.029314	0.129524	-0.968402	-0.969689	0.049322	18.7727	-0.970373	-9.050745E+12	-5.449541E-15	NaN
34	1.000000	0.138801	7.36537e+06	-40339.1	955.819	-29791	0.000000	0.000000	6.138781	0.008909	NaN	0.000000	0.001576	0.001638	28.0804	0.053165	0.002008	26.4822	-105.757	-164.613	0.010766	0.137469	-0.960412	-0.961744	0.008909	26.4822	-0.960664	-6.696149E+12	-1.330410E-15	NaN
34	1.000000	0.146819	7.36537e+06	-40339.1	955.818	-29791	0.000000	0.000000	6.146796	-0.054460	NaN	0.000000	0.001590	0.001671	28.0814	0.043054	0.002026	21.2505	78.145	-162.785	0.067470	0.145477	-0.952394	-0.953736	-0.054460	21.2505	-0.950472	-4.879730E+12	1.116051E-14	NaN
34	1.000000	0.154850	7.36537e+06	-40339.1	955.818	-29791	0.000000	0.000000	6.154831	0.034783	NaN	0.000000	0.001590	0.001634	28.082	0.105479	0.002030	51.948	-9.111942	-167.514	0.027088	0.153465	-0.944363	-0.945748	0.034783	51.948	-0.944865	-4.099900E+12	-8.483959E-15	NaN
34	1.000000	0.162827	7.36537e+06	-40339.1	955.818	-29791	0.000000	0.000000	6.162806	-0.033407	NaN	0.000000	0.001622	0.001630	28.0819	0.067953	0.001878	36.1829	-174.238	-165.044	0.039127	0.161442	-0.936386	-0.937771	-0.033407	36.1829	-0.935693	-3.083380E+12	1.083450E-14	NaN
34	1.000000	0.170834	7.36537e+06	-40339.1	955.817	-29791	0.000000	0.000000	6.170814	0.009659	NaN	0.000000	0.001607	0.001610	28.0822	0.098026	0.001892	51.8217	-95.0394	-164.484	-0.028851	0.169509	-0.928379	-0.929704	0.009659	51.8217	-0.928519	-2.467217E+12	-3.915064E-15	NaN
34	1.000000	0.178816	7.36537e+06	-40339.1	955.819	-29791	0.000000	0.000000	6.178795	-0.029522	NaN	0.000000	0.001624	0.001615	28.0823	0.094218	0.002109	44.669	-101.618	-163.738	-0.041968	0.177539	-0.920397	-0.921673	-0.029522	44.669	-0.919901	-1.887433E+12	1.564160E-14	NaN
34	1.000000	0.186808	7.36537e+06	-40339.1	955.819	-29791	0.000000	0.000000	6.186787	-0.030728	NaN	0.000000	0.001584	0.001616	28.0808	0.078660	0.002091	37.6237	54.502	-163.716	-0.004473	0.185522	-0.912405	-0.913691	-0.030728	37.6237	-0.911792	-1.466786E+12	2.094954E-14	NaN
34	1.000000	0.194821	7.36537e+06	-40339.1	955.818	-29791	0.000000	0.000000	6.194802	0.015425	NaN	0.000000	0.001586	0.001585	28.0815	0.081088	0.002039	39.7706	101.218	-163.74	0.034643	0.193578	-0.904392	-0.905635	0.015425	39.7706	-0.904683	-1.175812E+12	-1.311859E-14	NaN
34	1.000000	0.202846	7.36537e+06	-40339.1	955.819	-29791	0.000000	0.000000	6.202826	0.004894	NaN	0.000000	0.001579	0.001581	28.0818	0.201366	0.001971	102.174	-165.542	-163.733	-0.055659	0.201549	-0.896367	-0.897664	0.004894	102.174	-0.896403	-9.087738E+11	-5.384914E-15	NaN
34	1.000000	0.210847	7.36537e+06	-40339.1	955.818	-29791	0.000000	0.000000	6.210826	-0.024422	NaN	0.000000	0.001631	0.001609	28.0811	0.047900	0.001849	25.905	-89.196	-163.645	-0.092179	0.209567	-0.888366	-0.889646	-0.024422	25.905	-0.887659	-6.922568E+11	3.527815E-14	NaN
34	1.000000	0.218850	7.36537e+06	-40339.1	955.818	-29791	0.000000	0.000000	6.218829	-0.025780	NaN	0.000000	0.001588	0.001583	28.0823	0.116406	0.001991	58.4733	-16.4146	-164.758	-0.030089	0.217516	-0.880363	-0.881697	-0.025780	58.4733	-0.880032	-5.459420E+11	4.722029E-14	NaN
34	1.000000	0.226869	7.36537e+06	-40339.1	955.819	-29791	0.000000	0.000000	6.226849	-0.003124	NaN	0.000000	0.001604	0.001612	28.0837	0.068949	0.002014	34.2413	-92.3675	-164.511	-0.106417	0.225507	-0.872344	-0.873705	-0.003124	34.2413	-0.872276	-4.287794E+11	7.285396E-15	NaN
34	1.000000	0.234849	7.36537e+06	-40339.1	955.818	-29791	0.000000	0.000000	6.234823	-0.136177	NaN	0.000000	0.001621	0.001647	28.0827	0.066536	0.001888	35.2354	174.508	-164.76	-0.090438	0.233569	-0.864364	-0.865644	-0.136177	35.2354	-0.861465	-3.061644E+11	4.447831E-13	NaN
34	1.000000	0.242846	7.36537e+06	-40339.1	955.818	-29791	0.000000	0.000000	6.242825	-0.022644	NaN	0.000000	0.001578	0.001634	28.0818	0.051608	0.001989	25.9419	114.407	-162.494	0.032068	0.241589	-0.856367	-0.857624	-0.022644	25.9419	-0.855712	-2.559057E+11	8.848739E-14	NaN
34	1.000000	0.250864	7.36537e+06	-40339.1	955.818	-29791	0.000000	0.000000	6.250846	0.063304	NaN	0.000000	0.001512	0.001603	28.0825	0.031208	0.002145	14.5485	133.546	-163.491	-0.007826	0.249549	-0.848349	-0.849664	0.063304	14.5485	-0.851613	-2.252041E+11	-2.810981E-13	NaN
34	1.000000	0.258883	7.36537e+06	-40339.1	955.818	-29791	0.000000	0.000000	6.258862	-0.035838	NaN	0.000000	0.001573	0.001615	28.0818	0.182183	0.002032	89.6691	167.518	-164.557	-0.067973	0.257516	-0.840330	-0.841697	-0.035838	89.6691	-0.840030	-1.569274E+11	2.283745E-13	NaN
34	1.000000	0.266859	7.36537e+06	-40339.1	955.818	-29791	0.000000	0.000000	6.266838	-0.019003	NaN	0.000000	0.001618	0.001623	28.0823	0.081325	0.002110	38.5406	168.806	-165.015	-0.128253	0.265542	-0.832354	-0.833671	-0.019003	38.5406	-0.831984	-1.220883E+11	1.556521E-13	NaN
34	1.000000	0.274848	7.36537e+06	-40339.1	955.818	-29791	0.000000	0.000000	6.274825	-0.066559	NaN	0.000000	0.001654	0.001603	28.0813	0.043291	0.002081	20.801	-21.2366	-162.218	-0.042220	0.273481	-0.824365	-0.825732	-0.066559	20.801	-0.821965	-8.930111E+10	7.453364E-13	NaN
34	1.000000	0.282841	7.36537e+06	-40339.1	955.818	-29791	0.000000	0.000000	6.282824	0.062553	NaN	0.000000	0.001650	0.001594	28.0821	0.032953	0.001889	17.4452	-168.049	-165.458	0.035990	0.281574	-0.816371	-0.817639	0.062553	17.4452	-0.819061	-8.155916E+10	-7.669610E-13	NaN
34	1.000000	0.290891	7.36537e+06	-40339.1	955.818	-29791	0.000000	0.000000	6.290868	-0.078749	NaN	0.000000	0.001661	0.001628	28.081	0.063716	0.002036	31.3022	46.4449	-162.275	0.001666	0.289521	-0.808322	-0.809692	-0.078749	31.3022	-0.806435	-5.497956E+10	1.432328E-12	NaN
34	1.000000	0.298875	7.36537e+06	-40339.1	955.819	-29791	0.000000	0.000000	6.298854	-0.026711	NaN	0.000000	0.001685	0.001623	28.0829	0.073728	0.001903	38.7495	-169.914	-166.018	-0.066629	0.297592	-0.800338	-0.801621	-0.026711	38.7495	-0.799821	-4.471272E+10	5.973863E-13	NaN
34	1.000000	0.306906	7.36537e+06	-40339.1	955.818	-29791	0.000000	0.000000	6.306885	-0.027551	NaN	0.000000	0.001709	0.001602	28.0819	0.094024	0.001826	51.4811	119.992	-166.767	-0.048836	0.305614	-0.792307	-0.793599	-0.027551	51.4811	-0.791905	-3.491079E+10	7.891950E-13	NaN
34	1.000000	0.314886	7.36537e+06	-40339.1	955.817	-29791	0.000000	0.000000	6.314867	0.001862	NaN	0.000000	0.001671	0.001619	28.0811	0.051521	0.001998	25.7911	-115.768	-165.288	-0.046833	0.313576	-0.784326	-0.785637	0.001862	25.7911	-0.784381	-2.759003E+10	-6.750478E-14	NaN
34	1.000000	0.322860	7.36537e+06	-40339.1	955.819	-29791	0.000000	0.000000	6.322842	0.045994	NaN	0.000000	0.001657	0.001625	28.081	0.027430	0.002047	13.4031	68.4958	-163.744	0.033837	0.321559	-0.776353	-0.777654	0.045994	13.4031	-0.778927	-2.326219E+10	-1.977196E-12	NaN
34	1.000000	0.330884	7.36537e+06	-40339.1	955.818	-29791	0.000000	0.000000	6.330865	0.022513	NaN	0.000000	0.001645	0.001625	28.0795	0.073936	0.001985	37.2489	3.956310	-164.257	0.029275	0.329582	-0.768329	-0.769631	0.022513	37.2489	-0.768782	-1.693364E+10	-1.329493E-12	NaN
34	1.000000	0.338908	7.36537e+06	-40339.1	955.818	-29791	0.000000	0.000000	6.338889	0.001163	NaN	0.000000	0.001625	0.001663	28.0806	0.003630	0.002041	1.778533	87.6553	-165.712	-0.080245	0.337594	-0.760304	-0.761619	0.001163	1.778533	-0.760795	-1.318605E+10	-8.818031E-14	NaN
34	1.000000	0.346892	7.36537e+06	-40339.1	955.817	-29791	0.000000	0.000000	6.346872	-0.011888	NaN	0.000000	0.001668	0.001625	28.0798	0.073521	0.001948	37.7391	-173.617	-164.019	0.071785	0.345560	-0.752321	-0.753653	-0.011888	37.7391	-0.752084	-1.003673E+10	1.184457E-12	NaN
34	1.000000	0.354904	7.36537e+06	-40339.1	955.819	-29791	0.000000	0.000000	6.354882	-0.045993	NaN	0.000000	0.001675	0.001643	28.08	0.110009	0.002048	53.7273	105.771	-164.286	-0.031204	0.353627	-0.744309	-0.745586	-0.045993	53.7273	-0.743667	-7.709008E+9	5.966195E-12	NaN
34	1.000000	0.362912	7.36537e+06	-40339.1	955.819	-29791	0.000000	0.000000	6.362893	0.011439	NaN	0.000000	0.001689	0.001622	28.0807	0.127503	0.001989	64.0941	143.2	-165.792	-0.005480	0.361579	-0.736301	-0.737634	0.011439	64.0941	-0.736435	-6.144534E+9	-1.861639E-12	NaN
34	1.000000	0.370923	7.36537e+06	-40339.1	955.818	-29791	0.000000	0.000000	6.370903	-0.006431	NaN	0.000000	0.001653	0.001617	28.0804	0.081341	0.002068	39.3347	-134.509	-165.743	-0.017585	0.369602	-0.728290	-0.729611	-0.006431	39.3347	-0.728167	-4.740508E+9	1.356596E-12	NaN
34	1.000000	0.378903	7.36537e+06	-40339.1	955.818	-29791	0.000000	0.000000	6.378882	-0.031837	NaN	0.000000	0.001639	0.001626	28.0799	0.025614	0.001992	12.8581	105.118	-163.45	-0.050895	0.377624	-0.720309	-0.721589	-0.031837	12.8581	-0.718452	-3.494353E+9	9.110921E-12	NaN
34	1.000000	0.386944	7.36537e+06	-40339.1	955.819	-29791	0.000000	0.000000	6.386925	0.020762	NaN	0.000000	0.001665	0.001660	28.0814	0.031280	0.002018	15.5005	1.938920	-165.944	-0.028315	0.385603	-0.712269	-0.713610	0.020762	15.5005	-0.713274	-2.969741E+9	-6.991116E-12	NaN
34	1.000000	0.394935	7.36537e+06	-40339.1	955.818	-29791	0.000000	0.000000	6.394917	0.043990	NaN	0.000000	0.001679	0.001650	28.0797	0.055322	0.002177	25.4167	-98.8681	-165.398	0.019331	0.393639	-0.704278	-0.705574	0.043990	25.4167	-0.705576	-2.331628E+9	-1.886686E-11	NaN
34	1.000000	0.402925	7.36537e+06	-40339.1	955.818	-29791	0.000000	0.000000	6.402909	0.077147	NaN	0.000000	0.001620	0.001642	28.0799	0.066225	0.002074	31.9287	-31.699	-165.094	0.022600	0.401623	-0.696288	-0.697590	0.077147	31.9287	-0.698100	-1.843229E+9	-4.185404E-11	NaN
34	1.000000	0.410902	7.36537e+06	-40339.1	955.818	-29791	0.000000	0.000000	6.410881	-0.042112	NaN	0.000000	0.001597	0.001618	28.0795	0.104590	0.001887	55.4251	-84.643	-163.228	-0.033527	0.409589	-0.688311	-0.689624	-0.042112	55.4251	-0.687741	-1.330582E+9	3.164903E-11	NaN
34	1.000000	0.418923	7.36537e+06	-40339.1	955.818	-29791	0.000000	0.000000	6.418904	0.015934	NaN	0.000000	0.001589	0.001594	28.0806	0.187338	0.002104	89.0591	179.074	-164.594	-0.001798	0.417615	-0.680290	-0.681598	0.015934	89.0591	-0.680424	-1.056822E+9	-1.507755E-11	NaN
34	1.000000	0.426909	7.36537e+06	-40339.1	955.818	-29791	0.000000	0.000000	6.426889	-0.001302	NaN	0.000000	0.001588	0.001636	28.0798	0.108552	0.001905	56.9737	15.9512	-168.087	0.038818	0.425600	-0.672304	-0.673613	-0.001302	56.9737	-0.672286	-8.178652E+8	1.592368E-12	NaN
34	1.000000	0.434930	7.36537e+06	-40339.1	955.818	-29791	0.000000	0.000000	6.434910	-0.016828	NaN	0.000000	0.001568	0.001647	28.0817	0.017211	0.001881	9.148836	128.275	-164.547	-0.025911	0.433636	-0.664282	-0.665576	-0.016828	9.148836	-0.662903	-6.084531E+8	2.765676E-11	NaN
34	1.000000	0.442948	7.36537e+06	-40339.1	955.819	-29791	0.000000	0.000000	6.442926	-0.052584	NaN	0.000000	0.001584	0.001626	28.0811	0.048482	0.002060	23.5379	49.3917	-166.802	0.013769	0.441651	-0.656265	-0.657562	-0.052584	23.5379	-0.654590	-4.681065E+8	1.123336E-10	NaN
34	1.000000	0.450936	7.36537e+06	-40339.1	955.818	-29791	0.000000	0.000000	6.450918	0.040946	NaN	0.000000	0.001567	0.001610	28.0805	0.088942	0.002020	44.0242	-95.4845	-162.346	0.031593	0.449622	-0.648276	-0.649591	0.040946	44.0242	-0.648974	-3.920753E+8	-1.044348E-10	NaN
34	1.000000	0.458957	7.36537e+06	-40339.1	955.819	-29791	0.000000	0.000000	6.458936	-0.028097	NaN	0.000000	0.001589	0.001634	28.0817	0.147117	0.001990	73.9274	-151.573	-163.346	0.034631	0.457582	-0.640256	-0.641631	-0.028097	73.9274	-0.639971	-2.950495E+8	9.522837E-11	NaN
34	1.000000	0.466991	7.36537e+06	-40339.1	955.819	-29791	0.000000	0.000000	6.466972	0.032191	NaN	0.000000	0.001577	0.001622	28.0812	0.078846	0.001902	41.4606	97.4165	-167.017	0.030111	0.465671	-0.632222	-0.633542	0.032191	41.4606	-0.632805	-2.352521E+8	-1.368365E-10	NaN
34	1.000000	0.474967	7.36537e+06	-40339.1	955.818	-29791	0.000000	0.000000	6.474947	-0.009172	NaN	0.000000	0.001591	0.001623	28.0831	0.042607	0.002038	20.9104	-36.332	-165.505	-0.054236	0.473640	-0.624246	-0.625573	-0.009172	20.9104	-0.623917	-1.776082E+8	5.164023E-11	NaN
34	1.000000	0.482936	7.36537e+06	-40339.1	955.818	-29791	0.000000	0.000000	6.482916	-0.002183	NaN	0.000000	0.001566	0.001611	28.0818	0.012178	0.001960	6.214267	-10.0389	-168.227	-0.091677	0.481642	-0.616276	-0.617570	-0.002183	6.214267	-0.616013	-1.382992E+8	1.578658E-11	NaN
34	1.000000	0.490958	7.36537e+06	-40339.1	955.818	-29791	0.000000	0.000000	6.490939	0.013780	NaN	0.000000	0.001536	0.001571	28.0807	0.020341	0.002152	9.450639	93.1955	-165.372	-0.015930	0.489646	-0.608254	-0.609566	0.013780	9.450639	-0.609348	-1.119806E+8	-1.230557E-10	NaN
34	1.000000	0.498986	7.36537e+06	-40339.1	955.819	-29791	0.000000	0.000000	6.498969	0.052208	NaN	0.000000	0.001568	0.001634	28.0804	0.094683	0.002004	47.2558	-109.856	-164.936	-0.043670	0.497643	-0.600227	-0.601569	0.052208	47.2558	-0.601055	-8.609767E+7	-6.063773E-10	NaN
34	1.000000	0.506947	7.36537e+06	-40339.1	955.818	-29791	0.000000	0.000000	6.506926	-0.013305	NaN	0.000000	0.001586	0.001626	28.08	0.016366	0.002019	8.105521	-139.22	-165.924	0.002908	0.505650	-0.592266	-0.593563	-0.013305	8.105521	-0.591035	-6.265171E+7	2.123588E-10	NaN
34	1.000000	0.514972	7.36538e+06	-40339.1	955.818	-29791	0.000000	0.000000	6.514951	-0.023742	NaN	0.000000	0.001589	0.001654	28.0806	0.082270	0.001900	43.3	144.681	-163.453	-0.078809	0.513670	-0.584241	-0.585543	-0.023742	43.3	-0.583830	-4.983979E+7	4.763639E-10	NaN
34	1.000000	0.522964	7.36538e+06	-40339.1	955.818	-29791	0.000000	0.000000	6.522945	0.028421	NaN	0.000000	0.001632	0.001624	28.0795	0.090090	0.001923	46.8581	141.162	-164.315	0.033848	0.521709	-0.576249	-0.577504	0.028421	46.8581	-0.576704	-3.974016E+7	-7.151689E-10	NaN
34	1.000000	0.530959	7.36538e+06	-40339.1	955.818	-29791	0.000000	0.000000	6.530936	-0.059975	NaN	0.000000	0.001607	0.001654	28.0798	0.059561	0.001988	29.9585	-68.0269	-163.37	-0.071606	0.529723	-0.568254	-0.569490	-0.059975	29.9585	-0.566753	-2.895702E+7	2.071159E-9	NaN
34	1.000000	0.538971	7.36538e+06	-40339.1	955.818	-29791	0.000000	0.000000	6.538952	0.023808	NaN	0.000000	0.001575	0.001655	28.0813	0.054199	0.001893	28.6312	32.394	-164.924	-0.022340	0.537646	-0.560242	-0.561567	0.023808	28.6312	-0.560865	-2.400753E+7	-9.916683E-10	NaN
34	1.000000	0.546989	7.36538e+06	-40339.1	955.818	-29791	0.000000	0.000000	6.546967	-0.048700	NaN	0.000000	0.001606	0.001645	28.0809	0.035098	0.002046	17.1566	-35.1765	-165.135	-0.080706	0.545732	-0.552224	-0.553481	-0.048700	17.1566	-0.550095	-1.703209E+7	2.859325E-9	NaN
34	1.000000	0.554977	7.36538e+06	-40339.1	955.818	-29791	0.000000	0.000000	6.554955	-0.053906	NaN	0.000000	0.001610	0.001639	28.0823	0.055661	0.002121	26.2465	-122.401	-165.272	0.056147	0.553665	-0.544236	-0.545548	-0.053906	26.2465	-0.542696	-1.345048E+7	4.007730E-9	NaN
34	1.000000	0.562990	7.36538e+06	-40339.1	955.818	-29791	0.000000	0.000000	6.562968	-0.054637	NaN	0.000000	0.001601	0.001608	28.0809	0.175833	0.002089	84.1597	-60.8741	-162.366	0.012852	0.561660	-0.536223	-0.537553	-0.054637	84.1597	-0.535736	-1.076959E+7	5.073247E-9	NaN
34	1.000000	0.570991	7.36538e+06	-40339.1	955.819	-29791	0.000000	0.000000	6.570969	-0.052824	NaN	0.000000	0.001597	0.001622	28.0802	0.081474	0.001917	42.503	-91.9485	-160.54	0.042567	0.569677	-0.528222	-0.529536	-0.052824	42.503	-0.527290	-8.22118e+06	6.425408E-9	NaN
34	1.000000	0.578999	7.36538e+06	-40339.1	955.818	-29791	0.000000	0.000000	6.578977	-0.052401	NaN	0.000000	0.001597	0.001612	28.0799	0.069313	0.002002	34.625	-178.621	-164.683	-0.024444	0.577670	-0.520213	-0.521543	-0.052401	34.625	-0.519078	-6.3209e+06	8.290121E-9	NaN
34	1.000000	0.587021	7.36538e+06	-40339.1	955.818	-29791	0.000000	0.000000	6.587003	0.045070	NaN	0.000000	0.001601	0.001620	28.0789	0.038025	0.001943	19.5695	-42.6104	-164.708	0.072340	0.585699	-0.512192	-0.513514	0.045070	19.5695	-0.513919	-5.35779e+06	-8.412062E-9	NaN
34	1.000000	0.595017	7.36538e+06	-40339.1	955.818	-29791	0.000000	0.000000	6.594995	-0.066149	NaN	0.000000	0.001613	0.001636	28.0788	0.039299	0.002014	19.5108	5.465731	-166.515	-0.078667	0.593739	-0.504195	-0.505474	-0.066149	19.5108	-0.501653	-3.61468e+06	1.830023E-8	NaN
34	1.000000	0.602996	7.36538e+06	-40339.1	955.818	-29791	0.000000	0.000000	6.602973	-0.068843	NaN	0.000000	0.001594	0.001644	28.0784	0.056596	0.001907	29.6704	34.6777	-164.955	-0.077635	0.601710	-0.496217	-0.497503	-0.068843	29.6704	-0.494477	-2.87033e+06	2.398437E-8	NaN
34	1.000000	0.611019	7.36538e+06	-40339.1	955.818	-29791	0.000000	0.000000	6.610999	0.013884	NaN	0.000000	0.001607	0.001628	28.0783	0.006871	0.001910	3.596865	-105.771	-163.457	-0.011375	0.609664	-0.488194	-0.489549	0.013884	3.596865	-0.491089	-2.57402e+06	-5.393985E-9	NaN
34	1.000000	0.619016	7.36538e+06	-40339.1	955.818	-29791	0.000000	0.000000	6.618995	-0.022200	NaN	0.000000	0.001608	0.001618	28.0805	0.025908	0.001978	13.0986	113.702	-163.368	-0.016783	0.617734	-0.480197	-0.481479	-0.022200	13.0986	-0.478926	-1.73978e+06	1.276015E-8	NaN
34	1.000000	0.627021	7.36538e+06	-40339.1	955.819	-29791	0.000000	0.000000	6.627000	-0.025797	NaN	0.000000	0.001629	0.001619	28.0788	0.022843	0.002058	11.1001	-49.3661	-163.708	0.038348	0.625703	-0.472192	-0.473510	-0.025797	11.1001	-0.470449	-1.32344e+06	1.949222E-8	NaN
34	1.000000	0.635030	7.36538e+06	-40339.1	955.818	-29791	0.000000	0.000000	6.635011	0.022570	NaN	0.000000	0.001618	0.001691	28.0809	0.079632	0.001921	41.4465	-91.5567	-165.798	-0.006857	0.633705	-0.464183	-0.465508	0.022570	41.4465	-0.464591	-1.09525e+06	-2.060758E-8	NaN
34	1.000000	0.643059	7.36538e+06	-40339.1	955.817	-29791	0.000000	0.000000	6.643041	0.039928	NaN	0.000000	0.001622	0.001701	28.08	0.095436	0.002032	46.9566	-127.144	-162.016	-0.011610	0.641720	-0.456153	-0.457493	0.039928	46.9566	-0.456791	-850959	-4.692120E-8	NaN
34	1.000000	0.651025	7.36538e+06	-40339.1	955.819	-29791	0.000000	0.000000	6.651005	-0.019709	NaN	0.000000	0.001605	0.001674	28.0795	0.109401	0.002071	52.8225	-172.892	-164.879	0.025018	0.649731	-0.448188	-0.449482	-0.019709	52.8225	-0.447908	-638074	3.088829E-8	NaN
34	1.000000	0.659021	7.36538e+06	-40339.1	955.818	-29791	0.000000	0.000000	6.659004	0.063918	NaN	0.000000	0.001626	0.001687	28.079	0.047907	0.002037	23.5147	104.399	-165.333	0.069059	0.657739	-0.440192	-0.441474	0.063918	23.5147	-0.442231	-530685	-1.204435E-7	NaN
34	1.000000	0.666990	7.36538e+06	-40339.1	955.817	-29791	0.000000	0.000000	6.666969	-0.012896	NaN	0.000000	0.001621	0.001672	28.0791	0.039103	0.001823	21.4529	-102.08	-162.078	0.023740	0.665712	-0.432223	-0.433501	-0.012896	21.4529	-0.431772	-377683	3.414541E-8	NaN
34	1.000000	0.675045	7.36538e+06	-40339.1	955.819	-29791	0.000000	0.000000	6.675024	-0.008187	NaN	0.000000	0.001583	0.001666	28.0781	0.085464	0.002014	42.4271	140.362	-166.259	0.012351	0.673814	-0.424168	-0.425399	-0.008187	42.4271	-0.424024	-293394	2.790612E-8	NaN
34	1.000000	0.683041	7.36538e+06	-40339.1	955.818	-29791	0.000000	0.000000	6.683023	0.048854	NaN	0.000000	0.001600	0.001677	28.079	0.086091	0.001960	43.9178	137.023	-166.543	0.010847	0.681717	-0.416172	-0.417495	0.048854	43.9178	-0.417007	-233315	-2.093912E-7	NaN
34	1.000000	0.691063	7.36538e+06	-40339.1	955.819	-29791	0.000000	0.000000	6.691044	0.021288	NaN	0.000000	0.001597	0.001674	28.0784	0.053248	0.001924	27.6769	-36.7613	-162.212	-0.011398	0.689745	-0.408149	-0.409468	0.021288	27.6769	-0.408726	-177945	-1.196327E-7	NaN
34	1.000000	0.699060	7.36538e+06	-40339.1	955.818	-29791	0.000000	0.000000	6.699040	0.009216	NaN	0.000000	0.001581	0.001698	28.0802	0.123822	0.002029	61.0267	149.499	-163.894	0.050169	0.697705	-0.400153	-0.401508	0.009216	61.0267	-0.400266	-134832	-6.835351E-8	NaN
34	1.000000	0.707032	7.36538e+06	-40339.1	955.818	-29791	0.000000	0.000000	6.707011	-0.009303	NaN	0.000000	0.001609	0.001685	28.0802	0.151999	0.002002	75.9137	16.0776	-166.193	-0.018277	0.705781	-0.392181	-0.393432	-0.009303	75.9137	-0.392089	-103049	9.028060E-8	NaN
34	1.000000	0.715033	7.36538e+06	-40339.1	955.818	-29791	0.000000	0.000000	6.715013	-0.011466	NaN	0.000000	0.001591	0.001676	28.08	0.060655	0.002039	29.7456	164.082	-163.293	-0.003331	0.713745	-0.384179	-0.385468	-0.011466	29.7456	-0.383890	-78647.4	1.457947E-7	NaN
34	1.000000	0.723051	7.36538e+06	-40339.1	955.819	-29791	0.000000	0.000000	6.723031	-0.011308	NaN	0.000000	0.001612	0.001683	28.0795	0.066901	0.001967	34.005	56.3818	-163.89	0.010498	0.721751	-0.376161	-0.377462	-0.011308	34.005	-0.375912	-60419.9	1.871502E-7	NaN
34	1.000000	0.731076	7.36538e+06	-40339.1	955.818	-29791	0.000000	0.000000	6.731055	-0.036704	NaN	0.000000	0.001619	0.001685	28.082	0.028832	0.001958	14.7228	132.114	-163.969	0.001843	0.729718	-0.368137	-0.369495	-0.036704	14.7228	-0.366267	-43886.4	8.363393E-7	NaN
34	1.000000	0.739082	7.36538e+06	-40339.1	955.819	-29791	0.000000	0.000000	6.739062	0.002729	NaN	0.000000	0.001601	0.001709	28.0816	0.150162	0.001928	77.8877	-155.407	-165.372	0.044209	0.737761	-0.360131	-0.361452	0.002729	77.8877	-0.360157	-35819.1	-7.617589E-8	NaN
34	1.000000	0.747067	7.36538e+06	-40339.1	955.818	-29791	0.000000	0.000000	6.747048	0.033780	NaN	0.000000	0.001615	0.001719	28.0806	0.019543	0.002071	9.436284	-102.182	-165.45	-0.048998	0.745818	-0.352146	-0.353395	0.033780	9.436284	-0.354831	-29994.9	-1.126175E-6	NaN
34	1.000000	0.755074	7.36538e+06	-40339.1	955.818	-29791	0.000000	0.000000	6.755055	0.020105	NaN	0.000000	0.001604	0.001722	28.0792	0.069427	0.002041	34.0141	2.565745	-165.907	-0.050780	0.753720	-0.344138	-0.345492	0.020105	34.0141	-0.344582	-21294.8	-9.441389E-7	NaN
34	1.000000	0.763051	7.36538e+06	-40339.1	955.817	-29791	0.000000	0.000000	6.763030	-0.027273	NaN	0.000000	0.001606	0.001745	28.0803	0.026028	0.002010	12.9514	110.567	-165.945	-0.094946	0.761772	-0.336162	-0.337441	-0.027273	12.9514	-0.334583	-15222.7	1.791615E-6	NaN
34	1.000000	0.771074	7.36538e+06	-40339.1	955.818	-29791	0.000000	0.000000	6.771053	-0.025858	NaN	0.000000	0.001581	0.001685	28.0783	0.071661	0.001962	36.5186	-105.592	-164.3	-0.015687	0.769763	-0.328139	-0.329450	-0.025858	36.5186	-0.327608	-12033.8	2.148796E-6	NaN
34	1.000000	0.779090	7.36538e+06	-40339.1	955.818	-29791	0.000000	0.000000	6.779069	-0.020584	NaN	0.000000	0.001599	0.001698	28.0805	0.084420	0.001924	43.8871	-82.7641	-164.725	-0.068313	0.777795	-0.320123	-0.321418	-0.020584	43.8871	-0.319771	-9231.42	2.229772E-6	NaN
34	1.000000	0.787106	7.36538e+06	-40339.1	955.819	-29791	0.000000	0.000000	6.787085	-0.011364	NaN	0.000000	0.001601	0.001728	28.081	0.125071	0.001896	65.9601	-65.2173	-166.243	0.003917	0.785784	-0.312107	-0.313429	-0.011364	65.9601	-0.311978	-7084.52	1.604003E-6	NaN
34	1.000000	0.795092	7.36538e+06	-40339.1	955.818	-29791	0.000000	0.000000	6.795073	0.018534	NaN	0.000000	0.001594	0.001708	28.0808	0.089535	0.002028	44.1522	-65.1891	-163.028	-0.006997	0.793760	-0.304120	-0.305453	0.018534	44.1522	-0.304435	-5477.38	-3.383799E-6	NaN
34	1.000000	0.803071	7.36538e+06	-40339.1	955.818	-29791	0.000000	0.000000	6.803049	-0.060995	NaN	0.000000	0.001607	0.001687	28.0807	0.028631	0.002128	13.4569	41.4593	-165.024	-0.044170	0.801797	-0.296142	-0.297416	-0.060995	13.4569	-0.292742	-3667.32	1.663216E-5	NaN
34	1.000000	0.811095	7.36538e+06	-40339.1	955.819	-29791	0.000000	0.000000	6.811076	0.019181	NaN	0.000000	0.001609	0.001695	28.0799	0.045886	0.002009	22.8383	-92.6453	-165.598	-0.061302	0.809770	-0.288117	-0.289443	0.019181	22.8383	-0.288747	-3195.42	-6.002737E-6	NaN
34	1.000000	0.819092	7.36538e+06	-40339.1	955.818	-29791	0.000000	0.000000	6.819069	-0.071979	NaN	0.000000	0.001644	0.001711	28.0808	0.071976	0.001937	37.1548	-36.3714	-164.114	-0.090012	0.817819	-0.280121	-0.281394	-0.071979	37.1548	-0.278668	-2253.57	3.194008E-5	NaN
34	1.000000	0.827109	7.36538e+06	-40339.1	955.817	-29791	0.000000	0.000000	6.827090	0.006467	NaN	0.000000	0.001604	0.001712	28.0793	0.041669	0.002077	20.0631	-170.021	-164.424	0.035345	0.825797	-0.272104	-0.273416	0.006467	20.0631	-0.272345	-1807.86	-3.577439E-6	NaN
34	1.000000	0.835116	7.36538e+06	-40339.1	955.818	-29791	0.000000	0.000000	6.835095	-0.016062	NaN	0.000000	0.001590	0.001718	28.0793	0.188696	0.002096	90.0225	-151.542	-163.253	0.001590	0.833846	-0.264097	-0.265367	-0.016062	90.0225	-0.263963	-1347.6	1.191920E-5	NaN
34	1.000000	0.843103	7.36538e+06	-40339.1	955.818	-29791	0.000000	0.000000	6.843081	-0.035072	NaN	0.000000	0.001620	0.001716	28.0803	0.025145	0.002055	12.2365	-51.8608	-164.657	0.004266	0.841750	-0.256110	-0.257463	-0.035072	12.2365	-0.253961	-946.468	3.705602E-5	NaN
34	1.000000	0.851092	7.36538e+06	-40339.1	955.817	-29791	0.000000	0.000000	6.851072	-0.001139	NaN	0.000000	0.001631	0.001695	28.0794	0.087536	0.002076	42.1714	24.9107	-163.248	-0.058301	0.849822	-0.248121	-0.249391	-0.001139	42.1714	-0.248100	-768.351	1.482620E-6	NaN
34	1.000000	0.859136	7.36538e+06	-40339.1	955.818	-29791	0.000000	0.000000	6.859115	-0.030172	NaN	0.000000	0.001632	0.001692	28.08	0.080738	0.001966	41.0773	75.348	-166.203	-0.049639	0.857818	-0.240077	-0.241395	-0.030172	41.0773	-0.239526	-565.135	5.338894E-5	NaN
34	1.000000	0.867133	7.36538e+06	-40339.1	955.818	-29791	0.000000	0.000000	6.867115	0.030143	NaN	0.000000	0.001640	0.001690	28.08	0.059597	0.001973	30.2106	-137.589	-166.395	0.063570	0.865754	-0.232080	-0.233458	0.030143	30.2106	-0.232828	-443.71	-6.793411E-5	NaN
34	1.000000	0.875122	7.36538e+06	-40339.1	955.818	-29791	0.000000	0.000000	6.875102	-0.002599	NaN	0.000000	0.001648	0.001718	28.0794	0.061341	0.002057	29.827	-102.632	-166.415	-0.087968	0.873824	-0.224091	-0.225389	-0.002599	29.827	-0.224025	-321.994	8.070350E-6	NaN
34	1.000000	0.883116	7.36538e+06	-40339.1	955.818	-29791	0.000000	0.000000	6.883095	-0.025550	NaN	0.000000	0.001627	0.001717	28.08	0.120977	0.002024	59.7854	168.864	-162.469	-0.046964	0.881817	-0.216096	-0.217396	-0.025550	59.7854	-0.215776	-237.678	0.000107	NaN
34	1.000000	0.891113	7.36538e+06	-40339.1	955.818	-29791	0.000000	0.000000	6.891096	0.077981	NaN	0.000000	0.001643	0.001706	28.0787	0.056105	0.002033	27.5971	-2.402507	-166.172	0.036793	0.889816	-0.208100	-0.209397	0.077981	27.5971	-0.210219	-193.362	-0.000403	NaN
34	1.000000	0.899145	7.36538e+06	-40339.1	955.818	-29791	0.000000	0.000000	6.899126	0.013332	NaN	0.000000	0.001657	0.001690	28.0798	0.064565	0.002028	31.8364	-111.765	-162.955	0.018819	0.897832	-0.200068	-0.201380	0.013332	31.8364	-0.200382	-133.652	-9.975069E-5	NaN
34	1.000000	0.907117	7.36538e+06	-40339.1	955.819	-29791	0.000000	0.000000	6.907099	0.044490	NaN	0.000000	0.001648	0.001707	28.0776	0.137007	0.002036	67.2928	95.5019	-167.459	0.093156	0.905848	-0.192095	-0.193365	0.044490	67.2928	-0.192591	-99.3619	-0.000448	NaN
34	1.000000	0.915136	7.36538e+06	-40339.1	955.818	-29791	0.000000	0.000000	6.915117	0.021775	NaN	0.000000	0.001617	0.001706	28.0787	0.012666	0.001949	6.499500	14.0291	-169.221	0.078205	0.913824	-0.184077	-0.185389	0.021775	6.499500	-0.186590	-78.8654	-0.000276	NaN
34	1.000000	0.923155	7.36538e+06	-40339.1	955.818	-29791	0.000000	0.000000	6.923136	0.034765	NaN	0.000000	0.001638	0.001661	28.0781	0.057330	0.002005	28.5872	73.6573	-166.297	0.038066	0.921780	-0.176058	-0.177433	0.034765	28.5872	-0.176970	-54.1706	-0.000642	NaN
34	1.000000	0.931139	7.36538e+06	-40339.1	955.817	-29791	0.000000	0.000000	6.931117	-0.056464	NaN	0.000000	0.001624	0.001693	28.0785	0.073512	0.002031	36.1965	136.786	-162.629	-0.099193	0.929844	-0.168074	-0.169369	-0.056464	36.1965	-0.166904	-36.2797	0.001556	NaN
34	1.000000	0.939138	7.36538e+06	-40339.1	955.818	-29791	0.000000	0.000000	6.939117	-0.037037	NaN	0.000000	0.001603	0.001679	28.0806	0.036621	0.001932	18.9566	-112.575	-164.977	-0.029890	0.937838	-0.160074	-0.161375	-0.037037	18.9566	-0.158609	-25.8957	0.001430	NaN
34	1.000000	0.947178	7.36538e+06	-40339.1	955.818	-29791	0.000000	0.000000	6.947158	0.012458	NaN	0.000000	0.001639	0.001669	28.08	0.057886	0.002010	28.8059	-75.3693	-164.636	0.014115	0.945822	-0.152035	-0.153391	0.012458	28.8059	-0.152360	-19.9941	-0.000623	NaN
34	1.000000	0.955158	7.36538e+06	-40339.1	955.818	-29791	0.000000	0.000000	6.955138	-0.012795	NaN	0.000000	0.001588	0.001693	28.0798	0.072111	0.002085	34.5828	-50.4755	-164.549	0.016025	0.953829	-0.144054	-0.145384	-0.012795	34.5828	-0.143777	-13.9155	0.000920	NaN
34	1.000000	0.963152	7.36538e+06	-40339.1	955.819	-29791	0.000000	0.000000	6.963129	-0.061692	NaN	0.000000	0.001576	0.001715	28.0806	0.036385	0.001982	18.3551	-68.3247	-166.389	-0.063056	0.961829	-0.136061	-0.137384	-0.061692	18.3551	-0.133540	-8.919828	0.006916	NaN
34	1.000000	0.971200	7.36538e+06	-40339.1	955.819	-29791	0.000000	0.000000	6.971181	0.036411	NaN	0.000000	0.001579	0.001691	28.0803	0.016298	0.001986	8.207322	87.874	-165.039	0.020632	0.969823	-0.128013	-0.129390	0.036411	8.207322	-0.131341	-8.090766	-0.004500	NaN
34	1.000000	0.979153	7.36538e+06	-40339.1	955.819	-29791	0.000000	0.000000	6.979133	0.011315	NaN	0.000000	0.001617	0.001657	28.0792	0.044090	0.001970	22.3782	-101.423	-165.406	0.047691	0.977815	-0.120060	-0.121398	0.011315	22.3782	-0.120439	-4.931039	-0.002295	NaN
34	1.000000	0.987179	7.36538e+06	-40339.1	955.819	-29791	0.000000	0.000000	6.987159	-0.003463	NaN	0.000000	0.001615	0.001678	28.0798	0.039028	0.001900	20.5407	25.9183	-167.176	-0.035626	0.985853	-0.112034	-0.113360	-0.003463	20.5407	-0.111908	-3.295497	0.001051	NaN
34	1.000000	0.995180	7.36538e+06	-40339.1	955.818	-29791	0.000000	0.000000	6.995160	-0.007962	NaN	0.000000	0.001604	0.001641	28.0797	0.129550	0.001992	65.0349	3.760670	-164.019	0.051561	0.993834	-0.104033	-0.105379	-0.007962	65.0349	-0.103941	-2.229643	0.003571	NaN
34	1.000000	1.003158	7.36538e+06	-40339.1	955.819	-29791	0.000000	0.000000	7.003137	-0.035389	NaN	0.000000	0.001623	0.001686	28.0791	0.065147	0.002049	31.7898	-123.414	-161.206	0.010024	1.001885	-0.096055	-0.097328	-0.035389	31.7898	-0.095220	-1.426988	0.024800	NaN
34	1.000000	1.011182	7.36538e+06	-40339.1	955.819	-29791	0.000000	0.000000	7.011165	0.075576	NaN	0.000000	0.001672	0.001738	28.0791	0.080124	0.001933	41.4545	107.282	-161.392	0.057954	1.009871	-0.088031	-0.089342	0.075576	41.4545	-0.089399	-1.046363	-0.072228	NaN
34	1.000000	1.019161	7.36538e+06	-40339.1	955.819	-29791	0.000000	0.000000	7.019139	-0.051381	NaN	0.000000	0.001647	0.001688	28.0799	0.027696	0.002020	13.7087	98.8307	-168.184	-0.011866	1.017887	-0.080052	-0.081325	-0.051381	13.7087	-0.077241	-0.527294	0.097443	NaN
34	1.000000	1.027196	7.36538e+06	-40339.1	955.819	-29791	0.000000	0.000000	7.027173	-0.059629	NaN	0.000000	0.001658	0.001707	28.0808	0.036261	0.002057	17.6273	113.785	-164.364	-0.057349	1.025887	-0.072017	-0.073325	-0.059629	17.6273	-0.069480	-0.330323	0.180517	NaN
34	1.000000	1.035195	7.36538e+06	-40339.1	955.818	-29791	0.000000	0.000000	7.035173	-0.058265	NaN	0.000000	0.001615	0.001715	28.0809	0.018228	0.002010	9.067415	-62.7375	-164.378	-0.078543	1.033871	-0.064018	-0.065342	-0.058265	9.067415	-0.059198	-0.170781	0.341169	NaN
34	1.000000	1.043194	7.36538e+06	-40339.1	955.818	-29791	0.000000	0.000000	7.043176	0.041821	NaN	0.000000	0.001652	0.001719	28.0819	0.095265	0.002014	47.313	-48.9722	-166.199	0.042057	1.041918	-0.056019	-0.057295	0.041821	47.313	-0.056682	-0.144317	-0.289788	NaN
34	1.000000	1.051214	7.36538e+06	-40339.1	955.819	-29791	0.000000	0.000000	7.051195	0.019942	NaN	0.000000	0.001682	0.001719	28.0816	0.056105	0.001947	28.8143	-33.9006	-166.038	-0.058487	1.049917	-0.047999	-0.049296	0.019942	28.8143	-0.048518	-0.082280	-0.242372	NaN
34	1.000000	1.059198	7.36538e+06	-40339.1	955.819	-29791	0.000000	0.000000	7.059177	-0.042975	NaN	0.000000	0.001648	0.001737	28.08	0.121008	0.001995	60.6488	-107.871	-164.334	-0.024182	1.057938	-0.040014	-0.041275	-0.042975	60.6488	-0.039483	-0.043618	0.985269	NaN
34	1.000000	1.067163	7.36538e+06	-40339.1	955.818	-29791	0.000000	0.000000	7.067142	-0.019427	NaN	0.000000	0.001654	0.001715	28.0796	0.123226	0.001997	61.7135	-106.135	-167.248	-0.076302	1.065915	-0.032050	-0.033297	-0.019427	61.7135	-0.031814	-0.025888	0.750440	NaN
34	1.000000	1.075208	7.36538e+06	-40339.1	955.819	-29791	0.000000	0.000000	7.075188	-0.012072	NaN	0.000000	0.001620	0.001724	28.0798	0.070248	0.001946	36.0916	-111.744	-164.432	-0.002164	1.073935	-0.024004	-0.025278	-0.012072	36.0916	-0.023754	-0.015660	0.770930	NaN
34	1.000000	1.083208	7.36538e+06	-40339.1	955.818	-29791	0.000000	0.000000	7.083185	-0.061929	NaN	0.000000	0.001634	0.001723	28.0796	0.113187	0.002056	55.0538	-31.3424	-162.958	0.003440	1.081858	-0.016005	-0.017355	-0.061929	55.0538	-0.015161	-0.009372	6.607647	NaN
34	1.000000	1.091198	7.36538e+06	-40339.1	955.818	-29791	0.000000	0.000000	7.091176	-0.052103	NaN	0.000000	0.001651	0.001621	28.0796	0.092109	0.001946	47.3328	103.494	-162.371	0.007253	1.089889	-0.008014	-0.009324	-0.052103	47.3328	-0.007189	-0.004753	10.9622	NaN
34	1.000000	1.099189	7.36538e+06	-40339.1	955.819	-29791	0.000000	0.000000	7.099183	0.325621	NaN	0.000000	0.001594	0.001618	28.0817	0.570851	0.001990	286.914	4.015739	-165.892	0.054410	1.097902	-2.351795E-5	-0.001310	0.325621	286.914	-0.000875	-0.000643	-506.551	NaN
34	1.000000	1.107058	7.36538e+06	-40339.1	955.819	-29791	0.000000	0.000000	7.107392	8.606901	NaN	0.000000	0.001582	0.001669	28.0806	8.073950	0.001684	4793.95	11.119	-171.817	6.898861	1.105902	0.007845	0.006689	8.606901	4793.95	0.006498	0.005543	1552.78	58829.9
34	2.000000	1.109760	7.36538e+06	-40339.1	955.818	-29791	0.000000	0.000000	7.110143	9.796685	NaN	0.000000	0.001570	0.001641	28.0809	9.854493	0.001682	5859.75	9.999914	-173.643	10.195	1.109451	0.010547	0.010238	9.796685	5859.75	0.009293	0.008406	1165.37	58390.8
34	2.000000	1.111693	7.36538e+06	-40339.1	955.818	-29791	0.000000	0.000000	7.112166	11.9968	NaN	0.000000	0.001574	0.001630	28.0807	12.5585	0.001826	6877.9	8.664687	-173.858	11.4607	1.111445	0.012480	0.012232	11.9968	6877.9	0.011172	0.010513	1141.16	61287.1
34	2.000000	1.113702	7.36538e+06	-40339.1	955.819	-29791	0.000000	0.000000	7.114298	14.979	NaN	0.000000	0.001561	0.001620	28.0794	13.8763	0.001719	8072.22	6.483588	-173.554	14.4577	1.113403	0.014489	0.014190	14.979	8072.22	0.013097	0.012831	1167.37	65107.3
34	2.000000	1.115696	7.36538e+06	-40339.1	955.82	-29791	0.000000	0.000000	7.116400	17.6015	NaN	0.000000	0.001594	0.001641	28.0782	16.3714	0.001884	8690.27	11.2843	-178.461	16.8609	1.115426	0.016483	0.016213	17.6015	8690.27	0.014964	0.015238	1155.14	64320.3
34	2.000000	1.117721	7.36538e+06	-40339.1	955.819	-29791	0.000000	0.000000	7.118555	20.7847	NaN	0.000000	0.001615	0.001643	28.0803	18.0722	0.001670	10819.3	5.883740	-174.463	21.8294	1.117370	0.018508	0.018157	20.7847	10819.3	0.017067	0.018141	1145.71	73389.8
34	2.000000	1.119687	7.36538e+06	-40339.1	955.819	-29791	0.000000	0.000000	7.120578	22.1624	NaN	0.000000	0.001597	0.001632	28.0786	19.3747	0.001633	11862	9.507308	-179.49	22.2509	1.119384	0.020474	0.020172	22.1624	11862	0.019073	0.021106	1050.06	74598.3
34	2.000000	1.121739	7.36538e+06	-40339.1	955.819	-29791	0.000000	0.000000	7.122886	28.3918	NaN	0.000000	0.001622	0.001641	28.0787	22.3843	0.001863	12014	9.807146	-178.896	31.5301	1.121392	0.022526	0.022179	28.3918	12014	0.020753	0.023740	1195.95	71239.7
34	2.000000	1.123700	7.36538e+06	-40339.1	955.819	-29791	0.000000	0.000000	7.124979	31.6079	NaN	0.000000	0.001609	0.001652	28.0794	23.5749	0.001812	13012	8.261079	-178.151	32.7256	1.123323	0.024487	0.024110	31.6079	13012	0.022665	0.026905	1174.81	72477.6
34	2.000000	1.125622	7.36538e+06	-40339.1	955.819	-29791	0.000000	0.000000	7.127112	36.7621	NaN	0.000000	0.001611	0.001680	28.0778	25.88	0.001758	14722.7	2.436517	-174.859	35.218	1.125314	0.026409	0.026102	36.7621	14722.7	0.024536	0.030177	1218.21	77432.4
34	2.000000	1.127679	7.36538e+06	-40339.1	955.819	-29791	0.000000	0.000000	7.129456	43.7161	NaN	0.000000	0.001597	0.001691	28.0799	27.7483	0.001741	15933.7	7.764963	179.899	43.9522	1.127317	0.028467	0.028104	43.7161	15933.7	0.026409	0.033629	1299.97	79384.4
34	2.000000	1.129630	7.36538e+06	-40339.1	955.819	-29791	0.000000	0.000000	7.131644	49.4856	NaN	0.000000	0.001608	0.001699	28.0807	29.4703	0.001641	17961.7	1.977906	-177.355	47.3672	1.129281	0.030417	0.030068	49.4856	17961.7	0.028351	0.037395	1323.31	84862
34	2.000000	1.131636	7.36538e+06	-40339.1	955.819	-29791	0.000000	0.000000	7.133867	54.7817	NaN	0.000000	0.001591	0.001733	28.0799	33.2172	0.001801	18443.4	6.337659	179.132	54.2089	1.131351	0.032423	0.032138	54.7817	18443.4	0.030195	0.041150	1331.28	83067.5
34	2.000000	1.133608	7.36538e+06	-40339.1	955.819	-29791	0.000000	0.000000	7.136173	62.8961	NaN	0.000000	0.001599	0.001678	28.0798	34.012	0.001674	20323.9	3.147689	-179.121	62.2416	1.133279	0.034395	0.034066	62.8961	20323.9	0.032074	0.045153	1392.96	87384.9
34	2.000000	1.135652	7.36538e+06	-40339.1	955.819	-29791	0.000000	0.000000	7.138311	65.1716	NaN	0.000000	0.001576	0.001705	28.0789	37.0087	0.001877	19717.1	5.256017	-179.505	65.8	1.135309	0.036439	0.036096	65.1716	19717.1	0.033960	0.049353	1320.51	81088.5
34	2.000000	1.137649	7.36538e+06	-40339.1	955.818	-29791	0.000000	0.000000	7.140792	76.96	NaN	0.000000	0.001592	0.001724	28.0793	38.5248	0.001770	21765.6	6.517420	178.023	75.8205	1.137266	0.038436	0.038054	76.96	21765.6	0.035784	0.053588	1436.14	85903.5
34	2.000000	1.139642	7.36538e+06	-40339.1	955.818	-29791	0.000000	0.000000	7.142921	80.2552	NaN	0.000000	0.001593	0.001685	28.0784	40.9102	0.001772	23085.1	7.770781	175.735	81.4558	1.139327	0.040430	0.040114	80.2552	23085.1	0.037822	0.058521	1371.39	87186.3
34	2.000000	1.141565	7.36538e+06	-40339.1	955.819	-29791	0.000000	0.000000	7.145208	89.1466	NaN	0.000000	0.001600	0.001675	28.0784	42.8168	0.001733	24709.8	5.115020	176.923	85.7758	1.141378	0.042352	0.042165	89.1466	24709.8	0.039646	0.063117	1412.4	89860.6
34	2.000000	1.143570	7.36538e+06	-40339.1	955.818	-29791	0.000000	0.000000	7.147752	102.24	NaN	0.000000	0.001586	0.001668	28.0798	42.6713	0.001480	28831.8	1.658952	-179.981	99.7021	1.143246	0.044357	0.044033	102.24	28831.8	0.041698	0.068489	1492.8	100655
34	2.000000	1.145580	7.36538e+06	-40339.1	955.819	-29791	0.000000	0.000000	7.149793	102.994	NaN	0.000000	0.001575	0.001682	28.081	47.1285	0.001836	25672.2	7.001646	175.724	101.338	1.145362	0.046367	0.046149	102.994	25672.2	0.043358	0.072995	1410.97	86814.2
34	2.000000	1.147621	7.36538e+06	-40339.1	955.819	-29791	0.000000	0.000000	7.152330	115.079	NaN	0.000000	0.001608	0.001684	28.0805	48.8849	0.001756	27831	5.790152	177.212	113.625	1.147254	0.048408	0.048041	115.079	27831	0.045306	0.078460	1466.72	90777.4
34	2.000000	1.149577	7.36538e+06	-40339.1	955.819	-29791	0.000000	0.000000	7.154786	127.225	NaN	0.000000	0.001558	0.001687	28.0805	49.6806	0.001640	30294.8	2.049375	178.394	123.268	1.149308	0.050364	0.050095	127.225	30294.8	0.047215	0.083999	1514.61	95500.2
34	2.000000	1.151599	7.36538e+06	-40339.1	955.82	-29791	0.000000	0.000000	7.156837	127.93	NaN	0.000000	0.001630	0.001695	28.0803	53.9766	0.001879	28722.3	3.375880	177.772	126.162	1.151326	0.052386	0.052114	127.93	28722.3	0.049046	0.089487	1429.59	87722.8
34	2.000000	1.153593	7.36538e+06	-40339.1	955.819	-29791	0.000000	0.000000	7.159489	143.946	NaN	0.000000	0.001565	0.001739	28.0829	54.7958	0.001812	30248.4	5.971676	175.013	143.395	1.153298	0.054380	0.054085	143.946	30248.4	0.050811	0.094938	1516.22	89692.6
34	2.000000	1.155576	7.36538e+06	-40339.1	955.819	-29791	0.000000	0.000000	7.161785	151.569	NaN	0.000000	0.001578	0.001711	28.0805	57.5742	0.001827	31517.2	5.758799	175.123	150.011	1.155300	0.056363	0.056087	151.569	31517.2	0.052756	0.101122	1498.87	90551.9
34	2.000000	1.157632	7.36538e+06	-40339.1	955.819	-29791	0.000000	0.000000	7.164458	166.595	NaN	0.000000	0.001575	0.001678	28.0802	59.3268	0.001899	31241	8.436658	173.35	166.296	1.157203	0.058419	0.057990	166.595	31241	0.054420	0.106562	1563.36	87437.2
34	2.000000	1.159575	7.36538e+06	-40339.1	955.819	-29791	0.000000	0.000000	7.166816	176.685	NaN	0.000000	0.001618	0.001711	28.0809	60.6213	0.001670	36310.6	3.331349	176.675	175.145	1.159274	0.060363	0.060061	176.685	36310.6	0.056713	0.114286	1545.99	98131.7
34	2.000000	1.161564	7.36538e+06	-40339.1	955.819	-29791	0.000000	0.000000	7.169193	186.11	NaN	0.000000	0.001618	0.001732	28.0789	63.8925	0.001851	34524.3	5.594187	174.585	185.256	1.161230	0.062351	0.062017	186.11	34524.3	0.058308	0.119813	1553.35	91127.1
34	2.000000	1.163546	7.36538e+06	-40339.1	955.819	-29791	0.000000	0.000000	7.171438	192.526	NaN	0.000000	0.001686	0.001704	28.08	66.8197	0.001655	40363	7.156471	172.256	190.059	1.163336	0.064333	0.064123	192.526	40363	0.060756	0.128533	1497.87	102861
34	2.000000	1.165603	7.36538e+06	-40339.1	955.819	-29791	0.000000	0.000000	7.174271	211.414	NaN	0.000000	0.001695	0.001682	28.0798	65.9554	0.001721	38325.8	0.330822	178.664	210.794	1.165229	0.066390	0.066016	211.414	38325.8	0.062253	0.134010	1577.59	95652.1
34	2.000000	1.167648	7.36538e+06	-40339.1	955.819	-29791	0.000000	0.000000	7.176694	220.6	NaN	0.000000	0.001670	0.001690	28.0801	69.7574	0.001749	39882.8	6.332314	171.697	221.487	1.167436	0.068435	0.068223	220.6	39882.8	0.064287	0.141627	1557.61	96824.8
34	2.000000	1.169588	7.36538e+06	-40339.1	955.819	-29791	0.000000	0.000000	7.179622	244.647	NaN	0.000000	0.001673	0.001690	28.0815	70.2456	0.001820	38592.9	4.220176	174.934	244.423	1.169219	0.070376	0.070006	244.647	38592.9	0.065621	0.146733	1667.29	92048.5
34	2.000000	1.171561	7.36538e+06	-40339.1	955.819	-29791	0.000000	0.000000	7.181828	250.304	NaN	0.000000	0.001556	0.001681	28.081	73.7839	0.001805	40867.2	8.011148	170.5	249.301	1.171249	0.072348	0.072036	250.304	40867.2	0.067755	0.155075	1614.08	94815
34	2.000000	1.173475	7.36538e+06	-40339.1	955.82	-29791	0.000000	0.000000	7.183605	246.994	NaN	0.000000	0.001586	0.001665	28.0808	73.9522	0.001744	42401.2	4.582093	173.982	241.242	1.173241	0.074262	0.074028	246.994	42401.2	0.069893	0.163654	1509.24	95760.9
34	2.000000	1.175567	7.36538e+06	-40339.1	955.82	-29791	0.000000	0.000000	7.186850	275.054	NaN	0.000000	0.001609	0.001677	28.0799	77.5388	0.001811	42826.2	0.796643	177.823	274.775	1.175390	0.076354	0.076177	275.054	42826.2	0.071537	0.170396	1614.2	94787.9
34	2.000000	1.177551	7.36538e+06	-40339.1	955.82	-29791	0.000000	0.000000	7.189694	295.977	NaN	0.000000	0.001625	0.001708	28.0794	79.4352	0.001854	42835.2	6.970741	171.759	292.036	1.177134	0.078338	0.077921	295.977	42835.2	0.073155	0.177160	1670.67	92980.2
34	2.000000	1.179486	7.36538e+06	-40339.1	955.82	-29791	0.000000	0.000000	7.192283	311.879	NaN	0.000000	0.001610	0.001705	28.0796	79.5183	0.001854	42901.1	2.199255	176.707	307.216	1.179188	0.080273	0.079975	311.879	42901.1	0.074821	0.184251	1692.69	91313.9
34	2.000000	1.181533	7.36538e+06	-40339.1	955.82	-29791	0.000000	0.000000	7.194767	322.518	NaN	0.000000	0.001635	0.001704	28.0785	81.0939	0.001733	46806.1	1.396908	176.528	318.493	1.181097	0.082320	0.081884	322.518	46806.1	0.077152	0.194392	1659.11	96992.1
34	2.000000	1.183492	7.36538e+06	-40339.1	955.819	-29791	0.000000	0.000000	7.197331	337.238	NaN	0.000000	0.001617	0.001668	28.0794	82.7338	0.001672	49481.5	2.669061	174.902	333.668	1.183195	0.084279	0.083982	337.238	49481.5	0.079168	0.203367	1658.28	100248
34	2.000000	1.185610	7.36538e+06	-40339.1	955.819	-29791	0.000000	0.000000	7.199351	334.851	NaN	0.000000	0.001594	0.001700	28.0803	86.098	0.001874	45941.1	6.364375	171.787	335.869	1.185343	0.086398	0.086130	334.851	45941.1	0.080931	0.211374	1584.16	91295.2
34	2.000000	1.187425	7.36538e+06	-40339.1	955.819	-29791	0.000000	0.000000	7.202707	372.358	NaN	0.000000	0.001564	0.001685	28.0793	88.3487	0.001808	48867.9	8.865275	169.492	365.016	1.187056	0.088212	0.087843	372.358	48867.9	0.082497	0.218606	1703.33	95491.7
34	2.000000	1.189586	7.36538e+06	-40339.1	955.819	-29791	0.000000	0.000000	7.205336	383.723	NaN	0.000000	0.001591	0.001694	28.08	89.765	0.001729	51908.2	8.246816	169.506	383.405	1.189176	0.090374	0.089963	383.723	51908.2	0.084829	0.229588	1671.35	98977
34	2.000000	1.191572	7.36538e+06	-40339.1	955.819	-29791	0.000000	0.000000	7.207885	397.447	NaN	0.000000	0.001609	0.001698	28.0796	93.625	0.001699	55121.7	7.073591	169.449	396.543	1.191297	0.092359	0.092084	397.447	55121.7	0.086951	0.239797	1657.43	102843
34	2.000000	1.193566	7.36538e+06	-40339.1	955.819	-29791	0.000000	0.000000	7.210798	419.785	NaN	0.000000	0.001596	0.001662	28.079	92.5408	0.001710	54119.4	3.498611	173.302	420.06	1.193338	0.094354	0.094125	419.785	54119.4	0.088536	0.247558	1695.7	99377.4
34	2.000000	1.195566	7.36538e+06	-40339.1	955.819	-29791	0.000000	0.000000	7.213604	439.398	NaN	0.000000	0.001595	0.001641	28.0792	97.7404	0.001852	52788.2	4.865069	172.019	440.416	1.195244	0.096353	0.096031	439.398	52788.2	0.090111	0.255383	1720.55	95436.4
34	2.000000	1.197418	7.36538e+06	-40339.1	955.819	-29791	0.000000	0.000000	7.215983	452.229	NaN	0.000000	0.001586	0.001676	28.0792	97.1554	0.001827	53165.6	1.468021	175.895	442.783	1.197058	0.098205	0.097845	452.229	53165.6	0.091826	0.264035	1712.76	94530.8
34	2.000000	1.199515	7.36538e+06	-40339.1	955.819	-29791	0.000000	0.000000	7.218727	467.983	NaN	0.000000	0.001618	0.001685	28.0792	99.3251	0.001719	57779.8	2.028854	174.279	466.503	1.199283	0.100302	0.100070	467.983	57779.8	0.094227	0.276376	1693.28	100415
34	2.000000	1.201541	7.36538e+06	-40339.1	955.819	-29791	0.000000	0.000000	7.221666	490.222	NaN	0.000000	0.001647	0.001712	28.0776	100.856	0.001862	54154.7	3.696409	173.791	489.038	1.201136	0.102328	0.101923	490.222	54154.7	0.095538	0.283226	1730.85	92969.9
34	2.000000	1.203509	7.36538e+06	-40339.1	955.819	-29791	0.000000	0.000000	7.224190	503.725	NaN	0.000000	0.001599	0.001705	28.0784	102.565	0.001678	61126	2.847420	173.212	500.656	1.203264	0.104297	0.104052	503.725	61126	0.098116	0.296920	1696.5	102490
34	2.000000	1.205590	7.36538e+06	-40339.1	955.819	-29791	0.000000	0.000000	7.227155	525.232	NaN	0.000000	0.001626	0.001675	28.0793	106.704	0.001769	60318.6	5.911976	170.609	526.433	1.205120	0.106378	0.105907	525.232	60318.6	0.099847	0.306284	1714.85	99577.7
34	2.000000	1.206384	7.36538e+06	-40339.1	955.819	-29791	0.000000	0.000000	7.228356	535.143	NaN	0.000000	0.001612	0.001660	28.1311	104.926	0.001782	58877.7	5.682634	171.107	524.719	1.206171	0.107171	0.106958	535.143	58877.7	0.100355	0.309056	1731.54	96762.1