File: remote_trans/data/nanoindenter/0828-1/data/Data_2025-08-06,11h17m57s/2025-07-22_16-23-58_1_434.txt
2025-07-22, 16:23:58, 1
Index	Phase	Displacement	Time	Pos X	Pos Y	Pos Z	Rot A	Rot B	Piezo Z	Force A	Force B	Gripper	Voltage A	Voltage B	Temperature	Amplitude force	Amplitude pos	Stiffness	Phase shift	Phase excitation	Force A raw	Displacement raw	HMax	HMax raw	Real Force	Real Stiffness	Contact Depth	Area	Hardness	Reduced Mod.
[#]	[#]	[um]	[s]	[um]	[um]	[um]	[m°]	[m°]	[um]	[uN]	[uN]	[V]	[V]	[V]	[°C]	[uN]	[um]	[N/m]	[°]	[°]	[uN]	[um]	[um]	[um]	[uN]	[N/m]	[um]	[um^2]	[MPa]	[MPa]
434	1.000000	0.002797	7.3693e+06	-55389.1	1005.82	-29741.7	0.000000	0.000000	6.002810	-0.012675	NaN	0.000000	0.001605	0.001669	28.0835	0.084786	0.000982	86.2973	25.7377	-166.545	-0.028399	0.001557	-1.132682	-1.133923	-0.012675	86.2973	-1.132572	-1.371256E+15	9.243249E-18	NaN
434	1.000000	0.012819	7.3693e+06	-55389.1	1005.82	-29741.7	0.000000	0.000000	6.012836	0.084118	NaN	0.000000	0.001638	0.001646	28.0825	0.050402	0.001270	39.6783	-41.0979	17.3888	0.122290	0.011389	-1.122660	-1.124091	0.084118	39.6783	-1.124250	-1.060463E+15	-7.932178E-17	NaN
434	1.000000	0.022745	7.3693e+06	-55389.1	1005.82	-29741.7	0.000000	0.000000	6.022759	0.011392	NaN	0.000000	0.001691	0.001680	28.0824	0.024203	0.001715	14.1109	-5.992229	-164.795	0.073710	0.021453	-1.112735	-1.114027	0.011392	14.1109	-1.113340	-7.570236E+14	-1.504804E-17	NaN
434	1.000000	0.032737	7.3693e+06	-55389.1	1005.82	-29741.7	0.000000	0.000000	6.032752	0.041037	NaN	0.000000	0.001661	0.001643	28.0825	0.098533	0.001818	54.2012	1.461060	17.8567	-0.038285	0.031380	-1.102743	-1.104100	0.041037	54.2012	-1.103311	-5.552732E+14	-7.390443E-17	NaN
434	1.000000	0.042750	7.3693e+06	-55389.1	1005.82	-29741.7	0.000000	0.000000	6.042764	0.020777	NaN	0.000000	0.001689	0.001701	28.082	0.096709	0.002051	47.1483	15.0315	-167.753	-0.015278	0.041477	-1.092730	-1.094002	0.020777	47.1483	-1.093060	-4.044835E+14	-5.136649E-17	NaN
434	1.000000	0.052742	7.3693e+06	-55389.1	1005.82	-29741.7	0.000000	0.000000	6.052757	0.026435	NaN	0.000000	0.001634	0.001689	28.081	0.024556	0.002030	12.0971	48.2425	17.4266	0.027450	0.051395	-1.082737	-1.084085	0.026435	12.0971	-1.084376	-3.092376E+14	-8.548599E-17	NaN
434	1.000000	0.062746	7.3693e+06	-55389.1	1005.82	-29741.7	0.000000	0.000000	6.062757	-0.063648	NaN	0.000000	0.001621	0.001687	28.0811	0.031234	0.001953	15.9902	-33.9502	-165.41	-0.118215	0.061425	-1.072734	-1.074054	-0.063648	15.9902	-1.069748	-1.967019E+14	3.235775E-16	NaN
434	1.000000	0.072759	7.3693e+06	-55389.1	1005.82	-29741.7	0.000000	0.000000	6.072774	0.026375	NaN	0.000000	0.001593	0.001688	28.081	0.109192	0.002109	51.776	-72.6293	12.9168	0.087665	0.071397	-1.062720	-1.064083	0.026375	51.776	-1.063102	-1.601428E+14	-1.646986E-16	NaN
434	1.000000	0.082744	7.3693e+06	-55389.1	1005.82	-29741.7	0.000000	0.000000	6.082756	-0.022590	NaN	0.000000	0.001653	0.001629	28.081	0.042297	0.002009	21.0584	120.626	-165.187	-0.051714	0.081449	-1.052736	-1.054031	-0.022590	21.0584	-1.051931	-1.133383E+14	1.993147E-16	NaN
434	1.000000	0.092760	7.3693e+06	-55389.1	1005.82	-29741.7	0.000000	0.000000	6.092774	0.014021	NaN	0.000000	0.001665	0.001626	28.0811	0.101161	0.001921	52.6474	-52.995	14.7774	-0.062693	0.091379	-1.042719	-1.044100	0.014021	52.6474	-1.042919	-8.574698E+13	-1.635171E-16	NaN
434	1.000000	0.102765	7.3693e+06	-55389.1	1005.82	-29741.7	0.000000	0.000000	6.102778	-0.018543	NaN	0.000000	0.001683	0.001655	28.0813	0.018780	0.002053	9.147231	-101.544	-163.326	-0.014485	0.101428	-1.032714	-1.034051	-0.018543	9.147231	-1.031194	-5.963999E+13	3.109127E-16	NaN
434	1.000000	0.112771	7.3693e+06	-55389.1	1005.82	-29741.7	0.000000	0.000000	6.112784	-0.016172	NaN	0.000000	0.001655	0.001649	28.0814	0.139392	0.002006	69.493	-114.138	16.4404	0.030809	0.111435	-1.022708	-1.024045	-0.016172	69.493	-1.022534	-4.560830E+13	3.545782E-16	NaN
434	1.000000	0.122761	7.3693e+06	-55389.1	1005.82	-29741.7	0.000000	0.000000	6.122773	-0.027531	NaN	0.000000	0.001689	0.001682	28.0812	0.039165	0.002147	18.244	55.0674	-164.536	-0.029863	0.121394	-1.012719	-1.014085	-0.027531	18.244	-1.011587	-3.248915E+13	8.474044E-16	NaN
434	1.000000	0.132766	7.3693e+06	-55389.1	1005.82	-29741.7	0.000000	0.000000	6.132779	-0.016253	NaN	0.000000	0.001685	0.001712	28.0811	0.074128	0.001966	37.7105	133.822	16.6741	-0.063500	0.131380	-1.002713	-1.004100	-0.016253	37.7105	-1.002390	-2.443112E+13	6.652466E-16	NaN
434	1.000000	0.142787	7.3693e+06	-55389.1	1005.82	-29741.7	0.000000	0.000000	6.142804	0.082507	NaN	0.000000	0.001677	0.001724	28.0811	0.067365	0.001984	33.9516	130.52	-164.256	0.075944	0.141456	-0.992692	-0.994023	0.082507	33.9516	-0.994515	-1.913875E+13	-4.310993E-15	NaN
434	1.000000	0.152781	7.3693e+06	-55389.1	1005.82	-29741.7	0.000000	0.000000	6.152796	0.031207	NaN	0.000000	0.001680	0.001713	28.0812	0.044238	0.002053	21.5438	-51.9981	12.9725	-0.014488	0.151359	-0.982699	-0.984121	0.031207	21.5438	-0.983785	-1.372153E+13	-2.274332E-15	NaN
434	1.000000	0.162787	7.3693e+06	-55389.1	1005.82	-29741.7	0.000000	0.000000	6.162802	0.041818	NaN	0.000000	0.001658	0.001670	28.0812	0.131872	0.001927	68.4509	171.992	-165.018	0.091196	0.161445	-0.972693	-0.974034	0.041818	68.4509	-0.973151	-9.865676E+12	-4.238689E-15	NaN
434	1.000000	0.172768	7.3693e+06	-55389.1	1005.82	-29741.7	0.000000	0.000000	6.172785	0.093293	NaN	0.000000	0.001668	0.001711	28.0812	0.160893	0.002078	77.4189	56.9687	16.0465	0.028016	0.171400	-0.962711	-0.964080	0.093293	77.4189	-0.963615	-7.338483E+12	-1.271284E-14	NaN
434	1.000000	0.182766	7.3693e+06	-55389.1	1005.82	-29741.7	0.000000	0.000000	6.182781	0.019415	NaN	0.000000	0.001692	0.001691	28.0824	0.037203	0.001892	19.6633	24.6218	-164.019	-0.047911	0.181410	-0.952713	-0.954069	0.019415	19.6633	-0.953454	-5.353084E+12	-3.626805E-15	NaN
434	1.000000	0.192792	7.3693e+06	-55389.1	1005.82	-29741.7	0.000000	0.000000	6.192806	0.014507	NaN	0.000000	0.001669	0.001694	28.0823	0.093962	0.001890	49.7137	-170.305	14.5266	0.061864	0.191448	-0.942688	-0.944031	0.014507	49.7137	-0.942907	-3.857889E+12	-3.760220E-15	NaN
434	1.000000	0.202815	7.3693e+06	-55389.1	1005.82	-29741.7	0.000000	0.000000	6.202828	-0.014465	NaN	0.000000	0.001717	0.001672	28.0824	0.105420	0.002079	50.718	51.1328	-168.454	-0.008717	0.201481	-0.932665	-0.933999	-0.014465	50.718	-0.932451	-2.787857E+12	5.188452E-15	NaN
434	1.000000	0.212818	7.3693e+06	-55389.1	1005.82	-29741.7	0.000000	0.000000	6.212830	-0.048633	NaN	0.000000	0.001648	0.001637	28.0824	0.058088	0.002084	27.8725	-157.649	15.1916	-0.024408	0.211446	-0.922661	-0.924033	-0.048633	27.8725	-0.921353	-1.974549E+12	2.462990E-14	NaN
434	1.000000	0.222791	7.3693e+06	-55389.1	1005.82	-29741.7	0.000000	0.000000	6.222804	-0.018585	NaN	0.000000	0.001680	0.001683	28.0827	0.002802	0.002000	1.400783	108.087	-162.041	0.047509	0.221549	-0.912688	-0.913930	-0.018585	1.400783	-0.902738	-1.106764E+12	1.679253E-14	NaN
434	1.000000	0.232820	7.3693e+06	-55389.1	1005.82	-29741.7	0.000000	0.000000	6.232834	-0.003928	NaN	0.000000	0.001701	0.001665	28.0825	0.128193	0.001999	64.1273	170.562	17.0862	-0.080171	0.231538	-0.902659	-0.903941	-0.003928	64.1273	-0.902613	-1.102489E+12	3.562960E-15	NaN
434	1.000000	0.242859	7.3693e+06	-55389.1	1005.82	-29741.7	0.000000	0.000000	6.242874	0.039236	NaN	0.000000	0.001699	0.001650	28.0826	0.073481	0.002013	36.4989	-4.134996	-164.184	0.126215	0.241522	-0.892620	-0.893957	0.039236	36.4989	-0.893427	-8.283843E+11	-4.736457E-14	NaN
434	1.000000	0.252807	7.3693e+06	-55389.1	1005.82	-29741.7	0.000000	0.000000	6.252820	-0.005543	NaN	0.000000	0.001686	0.001640	28.0825	0.043162	0.001996	21.6231	87.7346	15.4521	-0.045073	0.251422	-0.882672	-0.884057	-0.005543	21.6231	-0.882480	-5.891796E+11	9.407648E-15	NaN
434	1.000000	0.262818	7.3693e+06	-55389.1	1005.82	-29741.7	0.000000	0.000000	6.262829	-0.052850	NaN	0.000000	0.001708	0.001693	28.0827	0.056576	0.001899	29.7967	36.3447	-165.419	-0.092383	0.261541	-0.872661	-0.873939	-0.052850	29.7967	-0.871331	-4.163455E+11	1.269370E-13	NaN
434	1.000000	0.272821	7.3693e+06	-55389.1	1005.82	-29741.7	0.000000	0.000000	6.272836	0.030989	NaN	0.000000	0.001700	0.001684	28.0824	0.057164	0.002083	27.4471	-115.028	13.9051	0.063552	0.271516	-0.862659	-0.863964	0.030989	27.4471	-0.863506	-3.262621E+11	-9.498332E-14	NaN
434	1.000000	0.282854	7.3693e+06	-55389.1	1005.82	-29741.7	0.000000	0.000000	6.282868	0.019330	NaN	0.000000	0.001691	0.001677	28.0829	0.077593	0.001907	40.6932	-103.556	-163.454	0.028479	0.281550	-0.852625	-0.853930	0.019330	40.6932	-0.852982	-2.350233E+11	-8.224545E-14	NaN
434	1.000000	0.292819	7.3693e+06	-55389.1	1005.82	-29741.7	0.000000	0.000000	6.292832	-0.009015	NaN	0.000000	0.001705	0.001649	28.0826	0.050124	0.001907	26.2789	-69.0543	12.623	0.026864	0.291452	-0.842660	-0.844028	-0.009015	26.2789	-0.842403	-1.689839E+11	5.334954E-14	NaN
434	1.000000	0.302840	7.3693e+06	-55389.1	1005.82	-29741.7	0.000000	0.000000	6.302853	-0.006548	NaN	0.000000	0.001686	0.001681	28.0829	0.079402	0.001948	40.7711	-79.1819	-162.351	0.065616	0.301478	-0.832640	-0.834002	-0.006548	40.7711	-0.832519	-1.241452E+11	5.274116E-14	NaN
434	1.000000	0.312851	7.3693e+06	-55389.1	1005.82	-29741.7	0.000000	0.000000	6.312867	0.053791	NaN	0.000000	0.001679	0.001711	28.0824	0.021084	0.001995	10.5701	134.183	13.83	0.057860	0.311522	-0.822628	-0.823957	0.053791	10.5701	-0.826445	-1.027052E+11	-5.237432E-13	NaN
434	1.000000	0.322838	7.3693e+06	-55389.1	1005.82	-29741.7	0.000000	0.000000	6.322850	-0.018195	NaN	0.000000	0.001705	0.001690	28.0814	0.030096	0.001927	15.6174	-107.186	-165.923	-0.021612	0.321568	-0.812642	-0.813912	-0.018195	15.6174	-0.811768	-6.494707E+10	2.801457E-13	NaN
434	1.000000	0.332844	7.3693e+06	-55389.1	1005.82	-29741.7	0.000000	0.000000	6.332859	0.045759	NaN	0.000000	0.001668	0.001645	28.0814	0.068603	0.002011	34.119	-109.347	14.4095	-0.000963	0.331482	-0.802636	-0.803997	0.045759	34.119	-0.803641	-5.038343E+10	-9.082156E-13	NaN
434	1.000000	0.342877	7.3693e+06	-55389.1	1005.82	-29741.7	0.000000	0.000000	6.342892	0.031538	NaN	0.000000	0.001675	0.001697	28.0815	0.075595	0.002045	36.9657	87.8932	-165.554	0.042551	0.341596	-0.792602	-0.793883	0.031538	36.9657	-0.793242	-3.640110E+10	-8.664144E-13	NaN
434	1.000000	0.352833	7.3693e+06	-55389.1	1005.82	-29741.7	0.000000	0.000000	6.352846	-0.015330	NaN	0.000000	0.001716	0.001637	28.0815	0.024042	0.001936	12.4157	44.006	15.0167	0.014103	0.351527	-0.782647	-0.783952	-0.015330	12.4157	-0.781721	-2.538702E+10	6.038414E-13	NaN
434	1.000000	0.362893	7.3693e+06	-55389.1	1005.82	-29741.7	0.000000	0.000000	6.362909	0.073243	NaN	0.000000	0.001724	0.001648	28.0816	0.021314	0.002018	10.5596	24.9678	-168.059	-0.023668	0.361600	-0.772587	-0.773880	0.073243	10.5596	-0.777789	-2.244838E+10	-3.262728E-12	NaN
434	1.000000	0.372872	7.36931e+06	-55389.1	1005.82	-29741.7	0.000000	0.000000	6.372888	0.042832	NaN	0.000000	0.001673	0.001659	28.0816	0.075434	0.001958	38.517	169.073	17.58	0.063862	0.371514	-0.762607	-0.763966	0.042832	38.517	-0.763441	-1.432554E+10	-2.989915E-12	NaN
434	1.000000	0.382852	7.36931e+06	-55389.1	1005.82	-29741.7	0.000000	0.000000	6.382866	0.002539	NaN	0.000000	0.001637	0.001680	28.0816	0.069258	0.001990	34.7973	-40.6109	-166.257	0.039635	0.381575	-0.752627	-0.753905	0.002539	34.7973	-0.752682	-1.022637E+10	-2.482469E-13	NaN
434	1.000000	0.392846	7.36931e+06	-55389.1	1005.82	-29741.7	0.000000	0.000000	6.392860	0.006485	NaN	0.000000	0.001645	0.001595	28.0814	0.139219	0.001895	73.4644	-59.8202	12.9927	-0.003776	0.391463	-0.742633	-0.744016	0.006485	73.4644	-0.742700	-7.478625E+9	-8.671454E-13	NaN
434	1.000000	0.402854	7.36931e+06	-55389.1	1005.82	-29741.7	0.000000	0.000000	6.402871	0.074949	NaN	0.000000	0.001625	0.001587	28.0814	0.120373	0.002139	56.265	8.658211	-161.763	0.000958	0.401526	-0.732625	-0.733954	0.074949	56.265	-0.733624	-5.625940E+9	-1.332206E-11	NaN
434	1.000000	0.412889	7.36931e+06	-55389.1	1005.82	-29741.7	0.000000	0.000000	6.412905	0.054862	NaN	0.000000	0.001607	0.001637	28.0814	0.069241	0.002134	32.4445	88.2996	14.4987	0.017578	0.411499	-0.722590	-0.723981	0.054862	32.4445	-0.723858	-4.140839E+9	-1.324907E-11	NaN
434	1.000000	0.422885	7.36931e+06	-55389.1	1005.82	-29741.7	0.000000	0.000000	6.422901	0.049546	NaN	0.000000	0.001629	0.001640	28.0814	0.049861	0.002013	24.7709	50.9145	-162.707	0.072406	0.421580	-0.712594	-0.713899	0.049546	24.7709	-0.714094	-3.047304E+9	-1.625896E-11	NaN
434	1.000000	0.432903	7.36931e+06	-55389.1	1005.82	-29741.7	0.000000	0.000000	6.432915	-0.046380	NaN	0.000000	0.001589	0.001623	28.0813	0.033438	0.002056	16.2652	57.0682	13.1272	-0.023500	0.431573	-0.702576	-0.703907	-0.046380	16.2652	-0.700438	-1.983853E+9	2.337854E-11	NaN
434	1.000000	0.442910	7.36931e+06	-55389.1	1005.82	-29741.7	0.000000	0.000000	6.442923	-0.020455	NaN	0.000000	0.001595	0.001593	28.0814	0.047432	0.001939	24.4663	77.4034	-163.664	0.024868	0.441613	-0.692569	-0.693867	-0.020455	24.4663	-0.691942	-1.518651E+9	1.346937E-11	NaN
434	1.000000	0.452890	7.36931e+06	-55389.1	1005.82	-29741.7	0.000000	0.000000	6.452903	-0.029503	NaN	0.000000	0.001591	0.001617	28.0817	0.066710	0.001904	35.0372	127.286	14.227	0.018992	0.451536	-0.682589	-0.683943	-0.029503	35.0372	-0.681958	-1.109114E+9	2.660043E-11	NaN
434	1.000000	0.462908	7.36931e+06	-55389.1	1005.82	-29741.7	0.000000	0.000000	6.462922	0.008216	NaN	0.000000	0.001618	0.001569	28.0823	0.082976	0.001938	42.8185	31.5958	-162.033	0.025779	0.461543	-0.672572	-0.673936	0.008216	42.8185	-0.672716	-8.289978E+8	-9.911000E-12	NaN
434	1.000000	0.472899	7.36931e+06	-55389.1	1005.82	-29741.7	0.000000	0.000000	6.472916	0.065084	NaN	0.000000	0.001665	0.001604	28.0823	0.145868	0.002005	72.7677	-179.388	17.038	0.041257	0.471548	-0.662580	-0.663931	0.065084	72.7677	-0.663251	-6.151680E+8	-1.057982E-10	NaN
434	1.000000	0.482937	7.36931e+06	-55389.1	1005.82	-29741.7	0.000000	0.000000	6.482952	0.037829	NaN	0.000000	0.001674	0.001666	28.0826	0.031917	0.002033	15.6967	-67.5669	-166.311	0.061447	0.481630	-0.652542	-0.653850	0.037829	15.6967	-0.654350	-4.645757E+8	-8.142609E-11	NaN
434	1.000000	0.492906	7.36931e+06	-55389.1	1005.82	-29741.7	0.000000	0.000000	6.492919	-0.022898	NaN	0.000000	0.001689	0.001591	28.0825	0.116797	0.002110	55.3494	163.883	17.4847	-0.048313	0.491569	-0.642573	-0.643910	-0.022898	55.3494	-0.642263	-3.172028E+8	7.218624E-11	NaN
434	1.000000	0.502931	7.36931e+06	-55389.1	1005.82	-29741.7	0.000000	0.000000	6.502945	0.014714	NaN	0.000000	0.001659	0.001606	28.0826	0.025657	0.002106	12.1827	12.1313	-164.097	0.000266	0.501571	-0.632548	-0.633908	0.014714	12.1827	-0.633454	-2.401318E+8	-6.127594E-11	NaN
434	1.000000	0.512921	7.36931e+06	-55389.1	1005.82	-29741.7	0.000000	0.000000	6.512937	0.043461	NaN	0.000000	0.001699	0.001613	28.0829	0.035856	0.002038	17.5901	93.4421	15.942	0.029857	0.511592	-0.622558	-0.623888	0.043461	17.5901	-0.624411	-1.804080E+8	-2.409053E-10	NaN
434	1.000000	0.522933	7.36931e+06	-55389.1	1005.82	-29741.7	0.000000	0.000000	6.522947	0.021438	NaN	0.000000	0.001717	0.001626	28.0827	0.096696	0.001978	48.8747	72.9595	-164.737	-0.045284	0.521579	-0.612547	-0.613900	0.021438	48.8747	-0.612876	-1.252201E+8	-1.711998E-10	NaN
434	1.000000	0.532945	7.36931e+06	-55389.1	1005.82	-29741.7	0.000000	0.000000	6.532958	5.558140E-5	NaN	0.000000	0.001626	0.001637	28.0827	0.027990	0.001882	14.8718	89.5926	16.4067	0.026246	0.531566	-0.602535	-0.603914	5.558140E-5	14.8718	-0.602538	-9.024088E+7	-6.159226E-13	NaN
434	1.000000	0.542937	7.36931e+06	-55389.1	1005.82	-29741.7	0.000000	0.000000	6.542950	-0.024049	NaN	0.000000	0.001660	0.001644	28.0824	0.105812	0.001992	53.1184	127.134	-163.858	-0.075742	0.541566	-0.592542	-0.593914	-0.024049	53.1184	-0.592203	-6.501742E+7	3.698882E-10	NaN
434	1.000000	0.552937	7.36931e+06	-55389.1	1005.82	-29741.7	0.000000	0.000000	6.552950	-0.022227	NaN	0.000000	0.001649	0.001654	28.0827	0.079037	0.002053	38.4894	-109.326	14.468	-0.023561	0.551601	-0.582542	-0.583879	-0.022227	38.4894	-0.582109	-4.718762E+7	4.710315E-10	NaN
434	1.000000	0.562958	7.36931e+06	-55389.1	1005.82	-29741.7	0.000000	0.000000	6.562971	-0.010673	NaN	0.000000	0.001645	0.001630	28.0823	0.152809	0.001913	79.8685	159.551	-159.958	-0.050305	0.561621	-0.572521	-0.573859	-0.010673	79.8685	-0.572421	-3.468001E+7	3.077500E-10	NaN
434	1.000000	0.572944	7.36931e+06	-55389.1	1005.82	-29741.7	0.000000	0.000000	6.572958	0.004116	NaN	0.000000	0.001637	0.001651	28.0825	0.041964	0.001976	21.2406	-175.466	12.6764	0.063445	0.571634	-0.562535	-0.563845	0.004116	21.2406	-0.562681	-2.543643E+7	-1.618030E-10	NaN
434	1.000000	0.582966	7.36931e+06	-55389.1	1005.82	-29741.7	0.000000	0.000000	6.582978	-0.035811	NaN	0.000000	0.001714	0.001611	28.0823	0.052472	0.002026	25.8988	-100.189	-164.943	-0.033445	0.581689	-0.552513	-0.553790	-0.035811	25.8988	-0.551476	-1.779913E+7	2.011935E-9	NaN
434	1.000000	0.592967	7.36931e+06	-55389.1	1005.82	-29741.7	0.000000	0.000000	6.592983	0.053771	NaN	0.000000	0.001707	0.001628	28.0822	0.100519	0.002021	49.7272	-67.314	12.534	-0.066634	0.591565	-0.542513	-0.543915	0.053771	49.7272	-0.543324	-1.372278E+7	-3.918373E-9	NaN
434	1.000000	0.602953	7.36931e+06	-55389.1	1005.82	-29741.7	0.000000	0.000000	6.602967	0.018597	NaN	0.000000	0.001711	0.001600	28.0812	0.046640	0.001932	24.14	-64.5412	-165.472	0.006008	0.601627	-0.532527	-0.533852	0.018597	24.14	-0.533104	-9.90099e+06	-1.878317E-9	NaN
434	1.000000	0.612970	7.36931e+06	-55389.1	1005.82	-29741.7	0.000000	0.000000	6.612984	0.012937	NaN	0.000000	0.001671	0.001594	28.0815	0.041238	0.002086	19.7681	-149.912	12.6476	-0.040974	0.611575	-0.522509	-0.523904	0.012937	19.7681	-0.523000	-7.16658e+06	-1.805199E-9	NaN
434	1.000000	0.622959	7.36931e+06	-55389.1	1005.82	-29741.7	0.000000	0.000000	6.622975	0.046977	NaN	0.000000	0.001630	0.001637	28.0812	0.114357	0.002052	55.7401	165.017	-163.544	-0.024862	0.621685	-0.512520	-0.513794	0.046977	55.7401	-0.513152	-5.22773e+06	-8.986126E-9	NaN
434	1.000000	0.632986	7.36931e+06	-55389.1	1005.82	-29741.7	0.000000	0.000000	6.633000	0.009216	NaN	0.000000	0.001614	0.001640	28.0815	0.070829	0.002035	34.8133	-147.236	16.0907	-0.036211	0.631579	-0.502493	-0.503900	0.009216	34.8133	-0.502692	-3.73737e+06	-2.465983E-9	NaN
434	1.000000	0.642959	7.36931e+06	-55389.1	1005.82	-29741.7	0.000000	0.000000	6.642973	0.000409	NaN	0.000000	0.001658	0.001663	28.081	0.063466	0.001992	31.8528	-57.5057	-165.85	-0.010782	0.641643	-0.492520	-0.493837	0.000409	31.8528	-0.492530	-2.69612e+06	-1.516360E-10	NaN
434	1.000000	0.652962	7.36931e+06	-55389.1	1005.82	-29741.7	0.000000	0.000000	6.652976	-0.006123	NaN	0.000000	0.001631	0.001647	28.0812	0.093028	0.001859	50.0488	-16.9198	15.5302	0.046591	0.651641	-0.482517	-0.483839	-0.006123	50.0488	-0.482425	-1.94748e+06	3.143938E-9	NaN
434	1.000000	0.662986	7.36931e+06	-55389.1	1005.82	-29741.7	0.000000	0.000000	6.663001	0.036073	NaN	0.000000	0.001637	0.001732	28.081	0.042187	0.001895	22.2674	119.902	-165.629	0.155178	0.661603	-0.472493	-0.473876	0.036073	22.2674	-0.473708	-1.47027e+06	-2.453499E-8	NaN
434	1.000000	0.672993	7.36931e+06	-55389.1	1005.82	-29741.7	0.000000	0.000000	6.673009	0.072137	NaN	0.000000	0.001670	0.001716	28.0813	0.046354	0.001994	23.2463	48.1116	16.0462	0.073682	0.671653	-0.462487	-0.463827	0.072137	23.2463	-0.464814	-1.10316e+06	-6.539125E-8	NaN
434	1.000000	0.683007	7.36931e+06	-55389.1	1005.82	-29741.7	0.000000	0.000000	6.683023	0.053779	NaN	0.000000	0.001669	0.001726	28.0811	0.045858	0.002113	21.701	-69.8421	-165.659	0.114176	0.681727	-0.452472	-0.453753	0.053779	21.701	-0.454331	-785786	-6.844019E-8	NaN
434	1.000000	0.692988	7.36931e+06	-55389.1	1005.82	-29741.7	0.000000	0.000000	6.693001	-0.016426	NaN	0.000000	0.001667	0.001687	28.0811	0.039227	0.001936	20.2635	179.185	14.5503	-0.173936	0.691675	-0.442492	-0.443804	-0.016426	20.2635	-0.441884	-524742	3.130346E-8	NaN
434	1.000000	0.702976	7.36931e+06	-55389.1	1005.82	-29741.7	0.000000	0.000000	6.702991	0.016590	NaN	0.000000	0.001666	0.001742	28.0811	0.100590	0.001935	51.9962	126.453	-163.658	-0.048761	0.701719	-0.432503	-0.433760	0.016590	51.9962	-0.432742	-389803	-4.255929E-8	NaN
434	1.000000	0.712999	7.36931e+06	-55389.1	1005.82	-29741.7	0.000000	0.000000	6.713014	0.042371	NaN	0.000000	0.001664	0.001802	28.0812	0.060035	0.001983	30.2811	7.901491	17.1784	-0.083384	0.711692	-0.422481	-0.423787	0.042371	30.2811	-0.423530	-288710	-1.467585E-7	NaN
434	1.000000	0.723050	7.36931e+06	-55389.1	1005.82	-29741.7	0.000000	0.000000	6.723066	0.070484	NaN	0.000000	0.001710	0.001822	28.0811	0.062897	0.001990	31.6098	-178.229	-161.734	0.176595	0.721751	-0.412430	-0.413728	0.070484	31.6098	-0.414102	-212179	-3.321898E-7	NaN
434	1.000000	0.733019	7.36931e+06	-55389.1	1005.82	-29741.7	0.000000	0.000000	6.733033	0.019211	NaN	0.000000	0.001620	0.001843	28.0825	0.020893	0.002141	9.757871	63.9199	16.5801	0.068929	0.731607	-0.402461	-0.403873	0.019211	9.757871	-0.403938	-152095	-1.263081E-7	NaN
434	1.000000	0.743023	7.36931e+06	-55389.1	1005.82	-29741.7	0.000000	0.000000	6.743038	0.031239	NaN	0.000000	0.001581	0.001873	28.0827	0.097993	0.002000	49.0007	89.1807	-167.094	0.008597	0.741698	-0.392456	-0.393781	0.031239	49.0007	-0.392934	-105955	-2.948296E-7	NaN
434	1.000000	0.753065	7.36931e+06	-55389.1	1005.82	-29741.7	0.000000	0.000000	6.753075	-0.082853	NaN	0.000000	0.001598	0.001767	28.0826	0.130129	0.002053	63.3858	143.108	14.7112	-0.029622	0.751676	-0.382415	-0.383803	-0.082853	63.3858	-0.381434	-72522.1	1.142451E-6	NaN
434	1.000000	0.763041	7.36931e+06	-55389.1	1005.82	-29741.7	0.000000	0.000000	6.763055	0.009812	NaN	0.000000	0.001610	0.001786	28.0822	0.031764	0.001843	17.2307	-39.7183	-165.797	0.076447	0.761724	-0.372438	-0.373755	0.009812	17.2307	-0.372865	-54622.6	-1.796397E-7	NaN
434	1.000000	0.773048	7.36931e+06	-55389.1	1005.82	-29741.7	0.000000	0.000000	6.773060	-0.040801	NaN	0.000000	0.001574	0.001753	28.0827	0.110200	0.001981	55.626	146.753	16.0605	-0.016479	0.771718	-0.362432	-0.363762	-0.040801	55.626	-0.361882	-37934.6	1.075564E-6	NaN
434	1.000000	0.783048	7.36931e+06	-55389.1	1005.82	-29741.7	0.000000	0.000000	6.783062	-0.002907	NaN	0.000000	0.001575	0.001800	28.0828	0.037885	0.001856	20.4068	-130.282	-166.434	0.037940	0.781747	-0.352431	-0.353733	-0.002907	20.4068	-0.352324	-27588.1	1.053862E-7	NaN
434	1.000000	0.793021	7.36931e+06	-55389.1	1005.82	-29741.7	0.000000	0.000000	6.793033	-0.040400	NaN	0.000000	0.001576	0.001795	28.0825	0.091366	0.001778	51.3986	97.9771	16.2348	0.015630	0.791673	-0.342459	-0.343807	-0.040400	51.3986	-0.341869	-19444.2	2.077755E-6	NaN
434	1.000000	0.803054	7.36931e+06	-55389.1	1005.82	-29741.7	0.000000	0.000000	6.803070	0.046083	NaN	0.000000	0.001555	0.001784	28.0827	0.061451	0.002092	29.3778	148.574	-163.271	0.072689	0.801699	-0.332425	-0.333780	0.046083	29.3778	-0.333602	-14728.2	-3.128886E-6	NaN
434	1.000000	0.813044	7.36931e+06	-55389.1	1005.82	-29741.7	0.000000	0.000000	6.813058	0.012868	NaN	0.000000	0.001563	0.001805	28.0828	0.141389	0.002037	69.417	68.3184	16.6737	-0.028477	0.811690	-0.322435	-0.323790	0.012868	69.417	-0.322574	-10150.8	-1.267682E-6	NaN
434	1.000000	0.823039	7.36931e+06	-55389.1	1005.82	-29741.7	0.000000	0.000000	6.823053	0.013260	NaN	0.000000	0.001552	0.001825	28.0826	0.090849	0.002000	45.4215	-150.773	-161.094	0.068159	0.821740	-0.312440	-0.313739	0.013260	45.4215	-0.312659	-7250.67	-1.828830E-6	NaN
434	1.000000	0.833040	7.36931e+06	-55389.1	1005.82	-29741.7	0.000000	0.000000	6.833053	-0.003795	NaN	0.000000	0.001565	0.001788	28.0824	0.076654	0.002029	37.7885	45.8704	13.2382	-0.003735	0.831715	-0.302439	-0.303765	-0.003795	37.7885	-0.302364	-5102.75	7.437580E-7	NaN
434	1.000000	0.843080	7.36931e+06	-55389.1	1005.82	-29741.7	0.000000	0.000000	6.843096	0.072413	NaN	0.000000	0.001552	0.001789	28.0826	0.041718	0.002008	20.7713	110.848	-163.288	0.040793	0.841739	-0.292400	-0.293740	0.072413	20.7713	-0.295014	-3965.56	-1.826058E-5	NaN
434	1.000000	0.853097	7.36931e+06	-55389.1	1005.82	-29741.7	0.000000	0.000000	6.853112	0.030132	NaN	0.000000	0.001556	0.001844	28.0825	0.087378	0.001815	48.1415	131.213	14.2543	0.051937	0.851744	-0.282382	-0.283735	0.030132	48.1415	-0.282852	-2605.83	-1.156327E-5	NaN
434	1.000000	0.863062	7.36931e+06	-55389.1	1005.82	-29741.7	0.000000	0.000000	6.863077	0.032133	NaN	0.000000	0.001612	0.001837	28.0818	0.055458	0.002008	27.6224	-21.2369	-164.454	-0.032920	0.861731	-0.272418	-0.273748	0.032133	27.6224	-0.273290	-1868.49	-1.719705E-5	NaN
434	1.000000	0.873083	7.36931e+06	-55389.1	1005.82	-29741.7	0.000000	0.000000	6.873098	0.030784	NaN	0.000000	0.001616	0.001775	28.0813	0.029607	0.001981	14.9479	33.0428	16.9714	0.037457	0.871707	-0.262396	-0.263772	0.030784	14.9479	-0.263941	-1346.53	-2.286147E-5	NaN
434	1.000000	0.883071	7.36931e+06	-55389.1	1005.82	-29741.7	0.000000	0.000000	6.883083	-0.032987	NaN	0.000000	0.001596	0.001768	28.0814	0.101565	0.001979	51.3136	76.2559	-165.804	-0.017532	0.881825	-0.252409	-0.253655	-0.032987	51.3136	-0.251927	-880.515	3.746285E-5	NaN
434	1.000000	0.893061	7.36931e+06	-55389.1	1005.82	-29741.7	0.000000	0.000000	6.893073	-0.033625	NaN	0.000000	0.001586	0.001799	28.0812	0.117302	0.002104	55.7473	51.0828	14.6238	0.057834	0.891808	-0.242418	-0.243671	-0.033625	55.7473	-0.241966	-616.924	5.450439E-5	NaN
434	1.000000	0.903073	7.36931e+06	-55389.1	1005.82	-29741.7	0.000000	0.000000	6.903086	-0.000643	NaN	0.000000	0.001593	0.001773	28.0811	0.077193	0.001993	38.7291	58.4733	-163.685	0.012037	0.901812	-0.232407	-0.233667	-0.000643	38.7291	-0.232394	-436.789	1.472698E-6	NaN
434	1.000000	0.913102	7.36931e+06	-55389.1	1005.82	-29741.7	0.000000	0.000000	6.913115	-0.024029	NaN	0.000000	0.001632	0.001778	28.0812	0.085012	0.001943	43.7429	34.6306	14.6583	-0.086139	0.911775	-0.222377	-0.223705	-0.024029	43.7429	-0.221965	-298.569	8.047899E-5	NaN
434	1.000000	0.923100	7.36931e+06	-55389.1	1005.82	-29741.7	0.000000	0.000000	6.923113	-0.027295	NaN	0.000000	0.001586	0.001762	28.082	0.125706	0.001994	63.0419	41.7099	-165.163	-0.004182	0.921769	-0.212379	-0.213711	-0.027295	63.0419	-0.212055	-207.036	0.000132	NaN
434	1.000000	0.933111	7.36931e+06	-55389.1	1005.82	-29741.7	0.000000	0.000000	6.933126	0.039783	NaN	0.000000	0.001605	0.001762	28.0849	0.078570	0.002025	38.8031	-24.2502	12.6549	0.012713	0.931737	-0.202369	-0.203742	0.039783	38.8031	-0.203138	-148.3	-0.000268	NaN
434	1.000000	0.943102	7.36931e+06	-55389.1	1005.82	-29741.7	0.000000	0.000000	6.943118	0.047506	NaN	0.000000	0.001607	0.001771	28.0854	0.078579	0.001967	39.9502	-6.276134	-167.705	0.021578	0.941799	-0.192377	-0.193680	0.047506	39.9502	-0.193269	-101.974	-0.000466	NaN
434	1.000000	0.953110	7.36931e+06	-55389.1	1005.82	-29741.7	0.000000	0.000000	6.953125	0.034559	NaN	0.000000	0.001625	0.001788	28.0844	0.130782	0.002021	64.7073	-149.674	13.2215	0.103976	0.951785	-0.182370	-0.183695	0.034559	64.7073	-0.182770	-67.995	-0.000508	NaN
434	1.000000	0.963133	7.36931e+06	-55389.1	1005.82	-29741.7	0.000000	0.000000	6.963149	0.063204	NaN	0.000000	0.001622	0.001788	28.0833	0.195598	0.001957	99.9468	-131.647	-163.707	0.029651	0.961778	-0.172347	-0.173702	0.063204	99.9468	-0.172821	-45.968	-0.001375	NaN
434	1.000000	0.973125	7.36931e+06	-55389.1	1005.82	-29741.7	0.000000	0.000000	6.973139	0.019772	NaN	0.000000	0.001619	0.001785	28.0817	0.132500	0.002036	65.0809	-7.785042	17.7051	0.007950	0.971768	-0.162355	-0.163711	0.019772	65.0809	-0.162583	-30.4604	-0.000649	NaN
434	1.000000	0.983100	7.36931e+06	-55389.1	1005.82	-29741.7	0.000000	0.000000	6.983113	-0.034360	NaN	0.000000	0.001649	0.001821	28.0813	0.078804	0.002056	38.3292	-30.3878	-165.756	-0.070105	0.981799	-0.152379	-0.153680	-0.034360	38.3292	-0.151707	-19.4563	0.001766	NaN
434	1.000000	0.993116	7.36931e+06	-55389.1	1005.82	-29741.7	0.000000	0.000000	6.993129	0.001911	NaN	0.000000	0.001681	0.001795	28.0813	0.011475	0.001967	5.834552	76.5622	14.011	0.020153	0.991758	-0.142364	-0.143721	0.001911	5.834552	-0.142609	-13.2368	-0.000144	NaN
434	1.000000	1.003147	7.36931e+06	-55389.1	1005.82	-29741.7	0.000000	0.000000	7.003159	-0.048383	NaN	0.000000	0.001655	0.001784	28.0825	0.125653	0.002052	61.2274	54.2166	-162.926	-0.018294	1.001810	-0.132332	-0.133670	-0.048383	61.2274	-0.131740	-8.235743	0.005875	NaN
434	1.000000	1.013130	7.36931e+06	-55389.1	1005.82	-29741.7	0.000000	0.000000	7.013144	0.005315	NaN	0.000000	0.001685	0.001779	28.0823	0.055350	0.002006	27.5872	-137.2	13.4243	-0.037518	1.011766	-0.122350	-0.123713	0.005315	27.5872	-0.122494	-5.422099	-0.000980	NaN
434	1.000000	1.023156	7.36931e+06	-55389.1	1005.82	-29741.7	0.000000	0.000000	7.023167	-0.061457	NaN	0.000000	0.001666	0.001772	28.0824	0.063922	0.002076	30.7856	-113.483	-167.017	-0.046211	1.021869	-0.112324	-0.113610	-0.061457	30.7856	-0.110826	-3.127992	0.019647	NaN
434	1.000000	1.033113	7.36931e+06	-55389.1	1005.82	-29741.7	0.000000	0.000000	7.033125	-0.040582	NaN	0.000000	0.001668	0.001798	28.0825	0.083562	0.001931	43.2696	8.622458	15.6328	-0.043472	1.031778	-0.102366	-0.103701	-0.040582	43.2696	-0.101663	-1.988272	0.020410	NaN
434	1.000000	1.043133	7.36931e+06	-55389.1	1005.82	-29741.7	0.000000	0.000000	7.043144	-0.045135	NaN	0.000000	0.001635	0.001790	28.0825	0.101951	0.002062	49.4523	-91.026	-163.1	-0.069850	1.041854	-0.092347	-0.093625	-0.045135	49.4523	-0.091662	-1.182017	0.038185	NaN
434	1.000000	1.053119	7.36931e+06	-55389.1	1005.82	-29741.7	0.000000	0.000000	7.053134	0.047962	NaN	0.000000	0.001651	0.001824	28.0822	0.047509	0.002007	23.6668	-151.456	10.1127	0.088828	1.051793	-0.082361	-0.083687	0.047962	23.6668	-0.083881	-0.771771	-0.062145	NaN
434	1.000000	1.063130	7.36931e+06	-55389.1	1005.82	-29741.7	0.000000	0.000000	7.063145	0.025356	NaN	0.000000	0.001686	0.001833	28.0823	0.073445	0.002008	36.575	-166.695	-166.787	-0.056319	1.061828	-0.072349	-0.073651	0.025356	36.575	-0.072869	-0.406434	-0.062386	NaN
434	1.000000	1.073150	7.36931e+06	-55389.1	1005.82	-29741.7	0.000000	0.000000	7.073162	-0.040803	NaN	0.000000	0.001695	0.001798	28.0821	0.019871	0.002207	9.001758	-12.1209	15.6091	0.007649	1.071814	-0.062329	-0.063665	-0.040803	9.001758	-0.058930	-0.167762	0.243222	NaN
434	1.000000	1.083185	7.36931e+06	-55389.1	1005.82	-29741.7	0.000000	0.000000	7.083199	0.001363	NaN	0.000000	0.001727	0.001774	28.0825	0.091381	0.001955	46.7396	-35.8388	-167.5	-0.111201	1.081799	-0.052294	-0.053680	0.001363	46.7396	-0.052316	-0.107141	-0.012726	NaN
434	1.000000	1.093189	7.36931e+06	-55389.1	1005.82	-29741.7	0.000000	0.000000	7.093202	-0.009267	NaN	0.000000	0.001716	0.001770	28.0823	0.109053	0.001983	54.9946	176.392	15.0817	-0.009245	1.091794	-0.042291	-0.043685	-0.009267	54.9946	-0.042164	-0.052637	0.176060	NaN
434	1.000000	1.103165	7.36931e+06	-55389.1	1005.82	-29741.7	0.000000	0.000000	7.103178	-0.014376	NaN	0.000000	0.001759	0.001759	28.0822	0.073504	0.002108	34.8687	43.5657	-163.112	-0.016842	1.101924	-0.032315	-0.033556	-0.014376	34.8687	-0.032005	-0.026216	0.548380	NaN
434	1.000000	1.113193	7.36931e+06	-55389.1	1005.82	-29741.7	0.000000	0.000000	7.113207	0.018660	NaN	0.000000	0.001743	0.001745	28.082	0.044618	0.001898	23.5094	-132.626	15.7103	0.005975	1.111781	-0.022287	-0.023698	0.018660	23.5094	-0.022882	-0.014873	-1.254663	NaN
434	1.000000	1.123174	7.36931e+06	-55389.1	1005.82	-29741.7	0.000000	0.000000	7.123187	-0.025466	NaN	0.000000	0.001681	0.001786	28.0825	0.116141	0.001975	58.8069	49.5072	-162.007	0.005715	1.121863	-0.012305	-0.013617	-0.025466	58.8069	-0.011980	-0.007517	3.387614	NaN
434	1.000000	1.133200	7.36931e+06	-55389.1	1005.82	-29741.7	0.000000	0.000000	7.133216	0.064850	NaN	0.000000	0.001710	0.001792	28.0823	0.030187	0.002073	14.5623	-55.9398	17.0437	0.085837	1.131833	-0.002280	-0.003647	0.064850	14.5623	-0.005620	-0.003803	-17.054	NaN
434	1.000000	1.143061	7.36931e+06	-55389.1	1005.82	-29741.7	0.000000	0.000000	7.143379	7.403985	NaN	0.000000	0.001716	0.001763	28.081	7.636781	0.001743	4382.49	9.804541	-171.151	5.794582	1.141841	0.007582	0.006361	7.403985	4382.49	0.006315	0.005365	1379.96	54663.2
434	2.000000	1.146314	7.36931e+06	-55389.1	1005.82	-29741.7	0.000000	0.000000	7.146800	11.4634	NaN	0.000000	0.001705	0.001797	28.0812	11.1789	0.001719	6502.15	7.080943	7.323260	10.5852	1.145924	0.010835	0.010444	11.4634	6502.15	0.009513	0.008645	1326.02	63892.4
434	2.000000	1.148786	7.36931e+06	-55389.1	1005.82	-29741.7	0.000000	0.000000	7.149420	15.081	NaN	0.000000	0.001688	0.001817	28.0812	14.3572	0.001847	7772.5	8.893425	-175.134	14.5405	1.148485	0.013306	0.013005	15.081	7772.5	0.011851	0.011312	1333.18	66767.3
434	2.000000	1.151259	7.36931e+06	-55389.1	1005.82	-29741.7	0.000000	0.000000	7.152136	21.0033	NaN	0.000000	0.001675	0.001766	28.0814	16.258	0.001751	9286.95	7.277717	5.245766	19.3026	1.150941	0.015779	0.015461	21.0033	9286.95	0.014083	0.014082	1491.5	71501.3
434	2.000000	1.153724	7.36931e+06	-55389.1	1005.82	-29741.7	0.000000	0.000000	7.154802	25.8569	NaN	0.000000	0.001690	0.001748	28.0815	18.9627	0.001715	11055	9.913801	-178.885	25.8071	1.153425	0.018245	0.017946	25.8569	11055	0.016491	0.017325	1492.47	76735.6
434	2.000000	1.156241	7.36931e+06	-55389.1	1005.82	-29741.7	0.000000	0.000000	7.157627	33.3687	NaN	0.000000	0.001690	0.001760	28.0814	21.5851	0.001801	11987.6	7.070313	3.747081	33.2077	1.155857	0.020761	0.020378	33.3687	11987.6	0.018674	0.020501	1627.7	76493.2
434	2.000000	1.158682	7.36931e+06	-55389.1	1005.82	-29741.7	0.000000	0.000000	7.160217	36.9801	NaN	0.000000	0.001732	0.001791	28.0816	24.7613	0.001851	13378.8	5.760476	-177.19	35.0176	1.158402	0.023203	0.022922	36.9801	13378.8	0.021130	0.024348	1518.79	78335
434	2.000000	1.161235	7.36931e+06	-55389.1	1005.82	-29741.7	0.000000	0.000000	7.163143	46.0463	NaN	0.000000	0.001681	0.001799	28.0813	26.2627	0.001705	15403.2	4.041735	2.058914	43.5794	1.160830	0.025755	0.025351	46.0463	15403.2	0.023513	0.028367	1623.26	83556.6
434	2.000000	1.163697	7.36931e+06	-55389.1	1005.82	-29741.7	0.000000	0.000000	7.165949	54.4085	NaN	0.000000	0.001639	0.001797	28.0817	28.6667	0.001712	16743.3	7.606625	177.246	52.5704	1.163449	0.028218	0.027969	54.4085	16743.3	0.025780	0.032451	1676.65	84918.6
434	2.000000	1.166187	7.36931e+06	-55389.1	1005.82	-29741.7	0.000000	0.000000	7.168848	64.3667	NaN	0.000000	0.001611	0.001809	28.0813	31.375	0.001840	17050.1	6.510403	0.508643	61.8441	1.165856	0.030707	0.030377	64.3667	17050.1	0.027876	0.036456	1765.6	81586.1
434	2.000000	1.168666	7.36931e+06	-55389.1	1005.82	-29741.7	0.000000	0.000000	7.171674	72.7849	NaN	0.000000	0.001626	0.001794	28.0815	33.687	0.001759	19151.5	4.356453	-180	69.9353	1.168389	0.033186	0.032910	72.7849	19151.5	0.030336	0.041443	1756.27	85951.2
434	2.000000	1.171267	7.36931e+06	-55389.1	1005.82	-29741.7	0.000000	0.000000	7.174713	83.4308	NaN	0.000000	0.001618	0.001788	28.0811	35.5886	0.001688	21080.1	8.038560	-3.570243	85.0808	1.170826	0.035788	0.035347	83.4308	21080.1	0.032819	0.046790	1783.09	89036.8
434	2.000000	1.173723	7.36931e+06	-55389.1	1005.82	-29741.7	0.000000	0.000000	7.177558	92.8846	NaN	0.000000	0.001668	0.001791	28.0822	36.7791	0.001664	22108.3	2.608323	-178.395	93.0759	1.173353	0.038243	0.037874	92.8846	22108.3	0.035092	0.051962	1787.56	88611
434	2.000000	1.176176	7.36931e+06	-55389.1	1005.82	-29741.7	0.000000	0.000000	7.180376	101.778	NaN	0.000000	0.001670	0.001750	28.082	40.8085	0.001940	21034.7	5.129365	-0.787162	98.3511	1.175871	0.040696	0.040391	101.778	21034.7	0.037067	0.056669	1796.01	80730.5
434	2.000000	1.178742	7.36931e+06	-55389.1	1005.82	-29741.7	0.000000	0.000000	7.183311	110.739	NaN	0.000000	0.001626	0.001775	28.0826	43.8938	0.001840	23861.5	7.601394	176.221	111.555	1.178346	0.043262	0.042866	110.739	23861.5	0.039782	0.063466	1744.86	86537
434	2.000000	1.181226	7.36931e+06	-55389.1	1005.82	-29741.7	0.000000	0.000000	7.186384	125.068	NaN	0.000000	0.001611	0.001776	28.0824	45.2608	0.001804	25089.6	6.156262	-3.044292	123.263	1.180857	0.045746	0.045378	125.068	25089.6	0.042008	0.069319	1804.22	87064.1
434	2.000000	1.183776	7.36931e+06	-55389.1	1005.82	-29741.7	0.000000	0.000000	7.189483	138.392	NaN	0.000000	0.001597	0.001803	28.0832	47.5118	0.001710	27788.8	7.766607	174.224	140.505	1.183308	0.048297	0.047828	138.392	27788.8	0.044562	0.076348	1812.64	91884.8
434	2.000000	1.186167	7.36931e+06	-55389.1	1005.82	-29741.7	0.000000	0.000000	7.192266	147.929	NaN	0.000000	0.001630	0.001828	28.0826	50.021	0.001651	30297.1	3.202079	-2.409664	144.106	1.185781	0.050687	0.050301	147.929	30297.1	0.047025	0.083441	1772.86	95826.2
434	2.000000	1.188687	7.36931e+06	-55389.1	1005.82	-29741.7	0.000000	0.000000	7.195108	155.758	NaN	0.000000	0.001687	0.001829	28.0832	52.5352	0.001621	32409.1	-0.330287	-179.894	154.253	1.188422	0.053208	0.052942	155.758	32409.1	0.049603	0.091190	1708.06	98054
434	2.000000	1.191198	7.36931e+06	-55389.1	1005.82	-29741.7	0.000000	0.000000	7.198417	175.167	NaN	0.000000	0.001691	0.001811	28.0826	55.4635	0.001828	30339.9	4.511949	-2.428901	171.918	1.190790	0.055718	0.055311	175.167	30339.9	0.051388	0.096752	1810.48	89116.5
434	2.000000	1.193738	7.36931e+06	-55389.1	1005.82	-29741.7	0.000000	0.000000	7.201361	184.988	NaN	0.000000	0.001663	0.001819	28.0828	58.4393	0.001809	32305.8	7.990463	173.408	187.637	1.193359	0.058258	0.057879	184.988	32305.8	0.053964	0.105057	1760.84	91063.1
434	2.000000	1.196195	7.36931e+06	-55389.1	1005.82	-29741.7	0.000000	0.000000	7.204496	201.46	NaN	0.000000	0.001695	0.001791	28.0827	60.2552	0.001819	33133.3	2.537068	-1.785568	200.204	1.195814	0.060716	0.060334	201.46	33133.3	0.056156	0.112385	1792.58	90299.2
434	2.000000	1.198646	7.36931e+06	-55389.1	1005.82	-29741.7	0.000000	0.000000	7.207568	216.549	NaN	0.000000	0.001606	0.001801	28.0828	63.2332	0.001874	33735	5.387598	175.217	213.592	1.198272	0.063166	0.062793	216.549	33735	0.058352	0.119965	1805.11	88987.2
434	2.000000	1.201137	7.36931e+06	-55389.1	1005.82	-29741.7	0.000000	0.000000	7.210692	231.93	NaN	0.000000	0.001646	0.001820	28.0829	63.5272	0.001710	37151.4	3.663319	-3.748654	225.961	1.200709	0.065657	0.065230	231.93	37151.4	0.060975	0.129329	1793.33	94384.4
434	2.000000	1.203685	7.36931e+06	-55389.1	1005.82	-29741.7	0.000000	0.000000	7.213653	241.983	NaN	0.000000	0.001602	0.001826	28.0828	65.7094	0.001793	36645.7	4.833889	174.957	241.658	1.203393	0.068206	0.067913	241.983	36645.7	0.063253	0.137732	1756.91	90214.9
434	2.000000	1.206238	7.36931e+06	-55389.1	1005.82	-29741.7	0.000000	0.000000	7.216645	252.641	NaN	0.000000	0.001615	0.001820	28.0828	68.4941	0.001687	40598.5	3.674532	-4.832145	253.594	1.205845	0.070759	0.070366	252.641	40598.5	0.066092	0.148553	1700.68	96237.1
434	2.000000	1.208630	7.36931e+06	-55389.1	1005.82	-29741.7	0.000000	0.000000	7.219651	267.575	NaN	0.000000	0.001604	0.001785	28.083	72.4639	0.001841	39370.7	5.545180	173.195	264.867	1.208389	0.073151	0.072910	267.575	39370.7	0.068054	0.156261	1712.36	90995.9
434	2.000000	1.211174	7.36931e+06	-55389.1	1005.82	-29741.7	0.000000	0.000000	7.222986	286.809	NaN	0.000000	0.001644	0.001779	28.0818	73.4999	0.001772	41483.9	6.010063	-6.946373	283.526	1.210829	0.075695	0.075349	286.809	41483.9	0.070509	0.166166	1726.04	92978.3
434	2.000000	1.213588	7.36931e+06	-55389.1	1005.82	-29741.7	0.000000	0.000000	7.226226	306.889	NaN	0.000000	0.001682	0.001809	28.0816	76.6269	0.001901	40314.5	8.066765	171.057	302.916	1.213201	0.078108	0.077721	306.889	40314.5	0.072399	0.173983	1763.9	88304
434	2.000000	1.216246	7.36931e+06	-55389.1	1005.82	-29741.7	0.000000	0.000000	7.229301	317.016	NaN	0.000000	0.001686	0.001775	28.0818	78.4261	0.001811	43313.8	4.390417	-5.218773	320.247	1.215724	0.080766	0.080245	317.016	43313.8	0.075277	0.186214	1702.43	91705.2
434	2.000000	1.218612	7.36931e+06	-55389.1	1005.82	-29741.7	0.000000	0.000000	7.232340	333.398	NaN	0.000000	0.001651	0.001804	28.0817	80.3249	0.001787	44952.9	1.471360	176.372	330.692	1.218375	0.083132	0.082895	333.398	44952.9	0.077570	0.196236	1698.96	92713.3
434	2.000000	1.221131	7.36931e+06	-55389.1	1005.82	-29741.7	0.000000	0.000000	7.235399	346.514	NaN	0.000000	0.001638	0.001800	28.0818	83.0233	0.001868	44443.3	6.005448	-7.776785	341.677	1.220855	0.085651	0.085376	346.514	44443.3	0.079803	0.206238	1680.17	89412
434	2.000000	1.223633	7.36931e+06	-55389.1	1005.82	-29741.7	0.000000	0.000000	7.238892	370.592	NaN	0.000000	0.001650	0.001807	28.0815	84.8118	0.001911	44377.6	3.368591	175.083	369.529	1.223393	0.088154	0.087914	370.592	44377.6	0.081891	0.215793	1717.35	87280.9
434	2.000000	1.226151	7.36931e+06	-55389.1	1005.82	-29741.7	0.000000	0.000000	7.242182	389.364	NaN	0.000000	0.001698	0.001793	28.0816	86.6251	0.001721	50332	2.196372	-3.804865	389.379	1.225654	0.090671	0.090174	389.364	50332	0.084869	0.229779	1694.51	95931.8
434	2.000000	1.228628	7.36931e+06	-55389.1	1005.82	-29741.7	0.000000	0.000000	7.245450	408.602	NaN	0.000000	0.001702	0.001818	28.0817	91.4985	0.001868	48984.6	8.512122	169.19	407.853	1.228343	0.093149	0.092864	408.602	48984.6	0.086893	0.239512	1705.98	91447
434	2.000000	1.231187	7.36931e+06	-55389.1	1005.82	-29741.7	0.000000	0.000000	7.248520	421.012	NaN	0.000000	0.001697	0.001746	28.0815	91.9399	0.001824	50401.4	4.037810	-6.745202	418.991	1.230852	0.095708	0.095373	421.012	50401.4	0.089443	0.252052	1670.34	91721.4
434	2.000000	1.233719	7.36931e+06	-55389.1	1005.82	-29741.7	0.000000	0.000000	7.251948	442.802	NaN	0.000000	0.001695	0.001760	28.0813	93.9234	0.001715	54750.1	5.353334	171.461	447.422	1.233270	0.098239	0.097791	442.802	54750.1	0.092174	0.265806	1665.88	97023.1
434	2.000000	1.236174	7.36931e+06	-55389.1	1005.82	-29741.7	0.000000	0.000000	7.255257	463.539	NaN	0.000000	0.001722	0.001785	28.0813	96.6909	0.001867	51781.2	4.126479	-6.389418	463.296	1.235763	0.100695	0.100283	463.539	51781.2	0.093981	0.275099	1684.99	90198.8
434	2.000000	1.238614	7.36931e+06	-55389.1	1005.82	-29741.7	0.000000	0.000000	7.258639	486.453	NaN	0.000000	0.001646	0.001791	28.0816	98.9057	0.001806	54770	5.799318	171.335	486.363	1.238334	0.103134	0.102854	486.453	54770	0.096473	0.288155	1688.16	93218.6
434	2.000000	1.241152	7.36931e+06	-55389.1	1005.82	-29741.7	0.000000	0.000000	7.262224	511.904	NaN	0.000000	0.001603	0.001767	28.0813	100.457	0.001794	56008.4	5.565192	-8.547753	509.382	1.240755	0.105672	0.105275	511.904	56008.4	0.098818	0.300698	1702.38	93317
434	2.000000	1.242608	7.36931e+06	-55389.1	1005.82	-29741.7	0.000000	0.000000	7.264449	530.619	NaN	0.000000	0.001613	0.001758	28.0818	102.458	0.001735	59055.3	7.116601	169.454	529.012	1.242265	0.107128	0.106786	530.619	59055.3	0.100389	0.309247	1715.84	97024.1