File: remote_trans/data/nanoindenter/0828-1/data/Data_2025-08-06,11h17m57s/2025-07-22_16-23-58_1_67.txt
2025-07-22, 16:23:58, 1
Index	Phase	Displacement	Time	Pos X	Pos Y	Pos Z	Rot A	Rot B	Piezo Z	Force A	Force B	Gripper	Voltage A	Voltage B	Temperature	Amplitude force	Amplitude pos	Stiffness	Phase shift	Phase excitation	Force A raw	Displacement raw	HMax	HMax raw	Real Force	Real Stiffness	Contact Depth	Area	Hardness	Reduced Mod.
[#]	[#]	[um]	[s]	[um]	[um]	[um]	[m°]	[m°]	[um]	[uN]	[uN]	[V]	[V]	[V]	[°C]	[uN]	[um]	[N/m]	[°]	[°]	[uN]	[um]	[um]	[um]	[uN]	[N/m]	[um]	[um^2]	[MPa]	[MPa]
67	1.000000	0.002702	7.3657e+06	-41989.1	955.819	-29784.9	0.000000	0.000000	6.002805	0.007107	NaN	0.000000	0.001601	0.001649	28.0825	0.059852	0.001015	58.9456	-137.717	-166.167	0.051984	0.001495	-1.090393	-1.091600	0.007107	58.9456	-1.090484	-3.735152E+14	-1.902719E-17	NaN
67	1.000000	0.010667	7.3657e+06	-41989.1	955.819	-29784.9	0.000000	0.000000	6.010769	-0.006283	NaN	0.000000	0.001604	0.001647	28.0812	0.105350	0.001005	104.805	-22.3217	-162.02	-0.022770	0.009345	-1.082428	-1.083750	-0.006283	104.805	-1.082383	-2.907557E+14	2.160930E-17	NaN
67	1.000000	0.018683	7.3657e+06	-41989.1	955.819	-29784.9	0.000000	0.000000	6.018785	-0.012979	NaN	0.000000	0.001608	0.001650	28.0809	0.122445	0.001747	70.0926	132.056	-166.514	0.078324	0.017437	-1.074412	-1.075658	-0.012979	70.0926	-1.074273	-2.262532E+14	5.736509E-17	NaN
67	1.000000	0.026677	7.3657e+06	-41989.1	955.819	-29784.9	0.000000	0.000000	6.026782	0.046796	NaN	0.000000	0.001594	0.001650	28.0814	0.061252	0.001860	32.9324	6.694237	-166.039	-0.012050	0.025325	-1.066418	-1.067770	0.046796	32.9324	-1.067484	-1.833917E+14	-2.551677E-16	NaN
67	1.000000	0.034650	7.3657e+06	-41989.1	955.818	-29784.9	0.000000	0.000000	6.034755	0.045791	NaN	0.000000	0.001530	0.001648	28.0813	0.036074	0.001998	18.0529	-146.444	-165.694	0.023471	0.033372	-1.058445	-1.059723	0.045791	18.0529	-1.060347	-1.470566E+14	-3.113810E-16	NaN
67	1.000000	0.042648	7.3657e+06	-41989.1	955.818	-29784.9	0.000000	0.000000	6.042751	0.006229	NaN	0.000000	0.001603	0.001657	28.0822	0.071913	0.001927	37.3188	105.395	-165.544	0.039765	0.041327	-1.050447	-1.051768	0.006229	37.3188	-1.050572	-1.086682E+14	-5.732037E-17	NaN
67	1.000000	0.050672	7.3657e+06	-41989.1	955.818	-29784.9	0.000000	0.000000	6.050773	-0.031084	NaN	0.000000	0.001602	0.001608	28.0802	0.109171	0.001878	58.1182	90.7338	-162.171	-0.114657	0.049345	-1.042423	-1.043750	-0.031084	58.1182	-1.042022	-8.339900E+13	3.727087E-16	NaN
67	1.000000	0.058658	7.3657e+06	-41989.1	955.818	-29784.9	0.000000	0.000000	6.058761	-0.011809	NaN	0.000000	0.001609	0.001670	28.0803	0.099979	0.001962	50.9606	25.7611	-165.082	-0.027562	0.057350	-1.034437	-1.035745	-0.011809	50.9606	-1.034263	-6.558692E+13	1.800572E-16	NaN
67	1.000000	0.066634	7.3657e+06	-41989.1	955.819	-29784.9	0.000000	0.000000	6.066740	0.067663	NaN	0.000000	0.001578	0.001671	28.08	0.112290	0.001955	57.4372	158.846	-166.691	0.103461	0.065332	-1.026461	-1.027763	0.067663	57.4372	-1.027345	-5.293735E+13	-1.278165E-15	NaN
67	1.000000	0.074656	7.3657e+06	-41989.1	955.819	-29784.9	0.000000	0.000000	6.074762	0.085427	NaN	0.000000	0.001554	0.001681	28.0805	0.080405	0.001948	41.274	81.3221	-163.616	0.002012	0.073343	-1.018440	-1.019752	0.085427	41.274	-1.019992	-4.215444E+13	-2.026521E-15	NaN
67	1.000000	0.082681	7.3657e+06	-41989.1	955.818	-29784.9	0.000000	0.000000	6.082785	0.037019	NaN	0.000000	0.001578	0.001646	28.0817	0.108043	0.001972	54.7825	173.752	-170.238	0.011802	0.081387	-1.010414	-1.011708	0.037019	54.7825	-1.010921	-3.182555E+13	-1.163187E-15	NaN
67	1.000000	0.090671	7.3657e+06	-41989.1	955.818	-29784.9	0.000000	0.000000	6.090777	0.074614	NaN	0.000000	0.001582	0.001636	28.0829	0.073048	0.002037	35.8653	15.0708	-164.615	0.097769	0.089380	-1.002424	-1.003715	0.074614	35.8653	-1.003984	-2.566881E+13	-2.906780E-15	NaN
67	1.000000	0.098685	7.3657e+06	-41989.1	955.818	-29784.9	0.000000	0.000000	6.098788	0.016994	NaN	0.000000	0.001579	0.001657	28.0832	0.043718	0.001982	22.0538	-151.021	-168.124	0.002128	0.097369	-0.994410	-0.995726	0.016994	22.0538	-0.994988	-1.942173E+13	-8.749910E-16	NaN
67	1.000000	0.106700	7.3657e+06	-41989.1	955.819	-29784.9	0.000000	0.000000	6.106806	0.065735	NaN	0.000000	0.001558	0.001671	28.0831	0.032525	0.001927	16.8762	167.516	-165.485	0.036421	0.105398	-0.986395	-0.987697	0.065735	16.8762	-0.989316	-1.628934E+13	-4.035442E-15	NaN
67	1.000000	0.114716	7.3657e+06	-41989.1	955.818	-29784.9	0.000000	0.000000	6.114822	0.076583	NaN	0.000000	0.001587	0.001663	28.0832	0.091135	0.002043	44.6092	-122.31	-166.049	0.138894	0.113377	-0.978379	-0.979718	0.076583	44.6092	-0.979667	-1.207592E+13	-6.341833E-15	NaN
67	1.000000	0.122678	7.3657e+06	-41989.1	955.819	-29784.9	0.000000	0.000000	6.122782	0.017822	NaN	0.000000	0.001580	0.001667	28.0818	0.069903	0.001953	35.801	159.504	-164.794	0.045615	0.121386	-0.970417	-0.971709	0.017822	35.801	-0.970790	-9.168841E+12	-1.943750E-15	NaN
67	1.000000	0.130664	7.3657e+06	-41989.1	955.819	-29784.8	0.000000	0.000000	6.130771	0.113133	NaN	0.000000	0.001562	0.001653	28.0818	0.068615	0.001987	34.5343	12.5592	-165.369	0.019665	0.129390	-0.962432	-0.963705	0.113133	34.5343	-0.964889	-7.634307E+12	-1.481900E-14	NaN
67	1.000000	0.138706	7.3657e+06	-41989.1	955.819	-29784.9	0.000000	0.000000	6.138807	-0.038309	NaN	0.000000	0.001566	0.001690	28.0821	0.065490	0.002051	31.9316	175.913	-165.635	-0.022445	0.137368	-0.954389	-0.955727	-0.038309	31.9316	-0.953489	-5.358952E+12	7.148616E-15	NaN
67	1.000000	0.146695	7.3657e+06	-41989.1	955.819	-29784.8	0.000000	0.000000	6.146799	0.042172	NaN	0.000000	0.001599	0.001645	28.0818	0.119475	0.002070	57.7056	118.155	-167.428	0.084256	0.145387	-0.946401	-0.947709	0.042172	57.7056	-0.946949	-4.373943E+12	-9.641632E-15	NaN
67	1.000000	0.154719	7.3657e+06	-41989.1	955.818	-29784.8	0.000000	0.000000	6.154822	0.004435	NaN	0.000000	0.001585	0.001662	28.0816	0.035157	0.001962	17.9188	53.3097	-166.771	0.035450	0.153392	-0.938376	-0.939703	0.004435	17.9188	-0.938562	-3.370827E+12	-1.315634E-15	NaN
67	1.000000	0.162690	7.3657e+06	-41989.1	955.819	-29784.8	0.000000	0.000000	6.162792	-0.017127	NaN	0.000000	0.001589	0.001657	28.083	0.179107	0.001962	91.2911	-137.88	-165.345	0.032322	0.161414	-0.930405	-0.931681	-0.017127	91.2911	-0.930264	-2.604721E+12	6.575477E-15	NaN
67	1.000000	0.170680	7.3657e+06	-41989.1	955.818	-29784.8	0.000000	0.000000	6.170783	0.006491	NaN	0.000000	0.001608	0.001627	28.0826	0.092500	0.001938	47.7404	-43.4832	-168.251	-0.012453	0.169396	-0.922415	-0.923699	0.006491	47.7404	-0.922517	-2.047338E+12	-3.170479E-15	NaN
67	1.000000	0.178694	7.3657e+06	-41989.1	955.818	-29784.8	0.000000	0.000000	6.178799	0.042231	NaN	0.000000	0.001605	0.001634	28.0819	0.096387	0.002018	47.7558	-78.5696	-166.42	-0.019573	0.177389	-0.914401	-0.915706	0.042231	47.7558	-0.915064	-1.623889E+12	-2.600604E-14	NaN
67	1.000000	0.186700	7.3657e+06	-41989.1	955.819	-29784.8	0.000000	0.000000	6.186804	0.024739	NaN	0.000000	0.001635	0.001636	28.0828	0.078772	0.002015	39.0952	134.826	-167.828	-0.032188	0.185407	-0.906395	-0.907688	0.024739	39.0952	-0.906870	-1.258573E+12	-1.965677E-14	NaN
67	1.000000	0.194698	7.3657e+06	-41989.1	955.818	-29784.8	0.000000	0.000000	6.194804	0.083799	NaN	0.000000	0.001636	0.001652	28.0822	0.032601	0.001900	17.1564	87.5843	-167.582	0.096272	0.193344	-0.898397	-0.899751	0.083799	17.1564	-0.902060	-1.083689E+12	-7.732719E-14	NaN
67	1.000000	0.202724	7.3657e+06	-41989.1	955.82	-29784.8	0.000000	0.000000	6.202825	-0.041392	NaN	0.000000	0.001625	0.001639	28.0812	0.010886	0.002034	5.351096	89.1083	-168.929	0.043082	0.201339	-0.890371	-0.891756	-0.041392	5.351096	-0.884570	-6.287813E+11	6.582829E-14	NaN
67	1.000000	0.210698	7.3657e+06	-41989.1	955.818	-29784.8	0.000000	0.000000	6.210800	-0.026623	NaN	0.000000	0.001662	0.001650	28.0816	0.106023	0.002135	49.6558	-78.0751	-166.077	0.020694	0.209446	-0.882397	-0.883649	-0.026623	49.6558	-0.881995	-5.803394E+11	4.587487E-14	NaN
67	1.000000	0.218720	7.3657e+06	-41989.1	955.818	-29784.8	0.000000	0.000000	6.218825	0.058306	NaN	0.000000	0.001645	0.001636	28.0816	0.086784	0.002021	42.9454	-48.8816	-167.396	0.017597	0.217407	-0.874376	-0.875688	0.058306	42.9454	-0.875394	-4.725095E+11	-1.233965E-13	NaN
67	1.000000	0.226689	7.3657e+06	-41989.1	955.818	-29784.8	0.000000	0.000000	6.226793	0.029795	NaN	0.000000	0.001648	0.001584	28.0807	0.060837	0.001854	32.8126	103.6	-168.724	0.062316	0.225429	-0.866406	-0.867666	0.029795	32.8126	-0.867087	-3.647758E+11	-8.167973E-14	NaN
67	1.000000	0.234758	7.3657e+06	-41989.1	955.818	-29784.8	0.000000	0.000000	6.234859	-0.049283	NaN	0.000000	0.001619	0.001622	28.0814	0.011524	0.002078	5.545173	40.4264	-164.576	-0.080901	0.233419	-0.858337	-0.859676	-0.049283	5.545173	-0.851671	-2.256159E+11	2.184385E-13	NaN
67	1.000000	0.242763	7.3657e+06	-41989.1	955.818	-29784.8	0.000000	0.000000	6.242866	-0.015208	NaN	0.000000	0.001647	0.001632	28.0819	0.134211	0.002014	66.6523	-114.346	-166.233	-0.005207	0.241457	-0.850332	-0.851638	-0.015208	66.6523	-0.850160	-2.152339E+11	7.065803E-14	NaN
67	1.000000	0.250716	7.3657e+06	-41989.1	955.819	-29784.8	0.000000	0.000000	6.250820	0.020897	NaN	0.000000	0.001628	0.001650	28.0813	0.095447	0.001901	50.2045	66.6514	-166.257	0.014907	0.249452	-0.842379	-0.843643	0.020897	50.2045	-0.842691	-1.705099E+11	-1.225549E-13	NaN
67	1.000000	0.258735	7.3657e+06	-41989.1	955.818	-29784.8	0.000000	0.000000	6.258840	0.046511	NaN	0.000000	0.001633	0.001659	28.0818	0.102613	0.001876	54.7012	46.7969	-169.37	0.027773	0.257468	-0.834360	-0.835627	0.046511	54.7012	-0.834998	-1.341271E+11	-3.467656E-13	NaN
67	1.000000	0.266751	7.3657e+06	-41989.1	955.818	-29784.8	0.000000	0.000000	6.266855	0.042751	NaN	0.000000	0.001652	0.001611	28.0813	0.044431	0.002028	21.9135	-157.024	-167.516	0.034605	0.265459	-0.826344	-0.827636	0.042751	21.9135	-0.827808	-1.071684E+11	-3.989120E-13	NaN
67	1.000000	0.274762	7.3657e+06	-41989.1	955.818	-29784.8	0.000000	0.000000	6.274866	0.048030	NaN	0.000000	0.001574	0.001623	28.0827	0.050819	0.002083	24.3967	-2.585145	-168.417	-0.016373	0.273466	-0.818333	-0.819629	0.048030	24.3967	-0.819810	-8.349000E+10	-5.752757E-13	NaN
67	1.000000	0.282759	7.3657e+06	-41989.1	955.819	-29784.8	0.000000	0.000000	6.282862	0.018937	NaN	0.000000	0.001547	0.001650	28.0816	0.047511	0.002073	22.9226	28.8731	-167.201	0.046679	0.281476	-0.810337	-0.811620	0.018937	22.9226	-0.810956	-6.332040E+10	-2.990651E-13	NaN
67	1.000000	0.290766	7.3657e+06	-41989.1	955.817	-29784.8	0.000000	0.000000	6.290867	-0.028638	NaN	0.000000	0.001569	0.001627	28.0805	0.080091	0.002084	38.4264	145.31	-165.834	0.017754	0.289475	-0.802329	-0.803620	-0.028638	38.4264	-0.801770	-4.752199E+10	6.026222E-13	NaN
67	1.000000	0.298753	7.3657e+06	-41989.1	955.818	-29784.8	0.000000	0.000000	6.298859	0.066136	NaN	0.000000	0.001582	0.001641	28.081	0.068945	0.002022	34.0966	-101.813	-168.618	-0.025894	0.297487	-0.794342	-0.795608	0.066136	34.0966	-0.795797	-3.942764E+10	-1.677412E-12	NaN
67	1.000000	0.306772	7.3657e+06	-41989.1	955.818	-29784.8	0.000000	0.000000	6.306872	-0.067647	NaN	0.000000	0.001596	0.001658	28.0811	0.020374	0.001901	10.7172	52.3547	-167.432	-0.019649	0.305469	-0.786323	-0.787626	-0.067647	10.7172	-0.781589	-2.528249E+10	2.675640E-12	NaN
67	1.000000	0.314751	7.3657e+06	-41989.1	955.819	-29784.8	0.000000	0.000000	6.314855	0.047484	NaN	0.000000	0.001583	0.001669	28.0817	0.106379	0.002030	52.405	101.304	-169.475	0.017680	0.313479	-0.778344	-0.779616	0.047484	52.405	-0.779024	-2.333290E+10	-2.035053E-12	NaN
67	1.000000	0.322753	7.3657e+06	-41989.1	955.818	-29784.8	0.000000	0.000000	6.322856	-0.002067	NaN	0.000000	0.001635	0.001686	28.0829	0.083782	0.002066	40.5439	162.158	-165.523	-0.044017	0.321468	-0.770342	-0.771627	-0.002067	40.5439	-0.770304	-1.775975E+10	1.163654E-13	NaN
67	1.000000	0.330731	7.3657e+06	-41989.1	955.819	-29784.8	0.000000	0.000000	6.330833	-0.027945	NaN	0.000000	0.001532	0.001654	28.083	0.063653	0.001993	31.9419	-99.843	-170.663	0.010284	0.329495	-0.762364	-0.763600	-0.027945	31.9419	-0.761707	-1.356844E+10	2.059526E-12	NaN
67	1.000000	0.338764	7.3657e+06	-41989.1	955.818	-29784.8	0.000000	0.000000	6.338870	0.087031	NaN	0.000000	0.001582	0.001656	28.0824	0.096553	0.001906	50.6649	-4.719745	-164.345	0.091318	0.337426	-0.754331	-0.755670	0.087031	50.6649	-0.755619	-1.121246E+10	-7.762019E-12	NaN
67	1.000000	0.346801	7.3657e+06	-41989.1	955.819	-29784.8	0.000000	0.000000	6.346904	0.001071	NaN	0.000000	0.001563	0.001649	28.0821	0.057957	0.002105	27.5369	-119.231	-169.271	0.027928	0.345500	-0.746294	-0.747595	0.001071	27.5369	-0.746323	-8.378422E+9	-1.278576E-13	NaN
67	1.000000	0.354766	7.3657e+06	-41989.1	955.818	-29784.8	0.000000	0.000000	6.354871	0.053296	NaN	0.000000	0.001558	0.001666	28.082	0.062226	0.002001	31.0919	16.1122	-168.085	0.090152	0.353476	-0.738329	-0.739619	0.053296	31.0919	-0.739615	-6.789113E+9	-7.850258E-12	NaN
67	1.000000	0.362783	7.3657e+06	-41989.1	955.818	-29784.8	0.000000	0.000000	6.362886	-0.005649	NaN	0.000000	0.001586	0.001639	28.0821	0.011776	0.001975	5.962624	-1.283111	-165.98	0.004016	0.361487	-0.730312	-0.731608	-0.005649	5.962624	-0.729602	-4.958811E+9	1.139210E-12	NaN
67	1.000000	0.370804	7.3657e+06	-41989.1	955.818	-29784.8	0.000000	0.000000	6.370905	-0.046228	NaN	0.000000	0.001605	0.001676	28.0831	0.148239	0.001993	74.3916	163.317	-166.43	0.050585	0.369466	-0.722291	-0.723629	-0.046228	74.3916	-0.721825	-3.884736E+9	1.189992E-11	NaN
67	1.000000	0.378779	7.3657e+06	-41989.1	955.818	-29784.8	0.000000	0.000000	6.378881	-0.013218	NaN	0.000000	0.001584	0.001683	28.0825	0.049978	0.002136	23.4019	-161.09	-167.018	-0.027477	0.377520	-0.714316	-0.715575	-0.013218	23.4019	-0.713893	-3.028062E+9	4.365148E-12	NaN
67	1.000000	0.386812	7.3657e+06	-41989.1	955.819	-29784.8	0.000000	0.000000	6.386917	0.043534	NaN	0.000000	0.001553	0.001681	28.081	0.088640	0.002005	44.2152	-14.7348	-164.039	0.006827	0.385435	-0.706283	-0.707660	0.043534	44.2152	-0.707021	-2.440008E+9	-1.784167E-11	NaN
67	1.000000	0.394798	7.3657e+06	-41989.1	955.819	-29784.8	0.000000	0.000000	6.394898	-0.056390	NaN	0.000000	0.001620	0.001711	28.0825	0.018455	0.002048	9.012390	-78.8218	-165.075	-0.023685	0.393469	-0.698298	-0.699626	-0.056390	9.012390	-0.693605	-1.600206E+9	3.523924E-11	NaN
67	1.000000	0.402781	7.3657e+06	-41989.1	955.818	-29784.8	0.000000	0.000000	6.402881	-0.067150	NaN	0.000000	0.001553	0.001670	28.0832	0.075979	0.001790	42.4542	-133.758	-166.503	0.079929	0.401511	-0.690314	-0.691584	-0.067150	42.4542	-0.689128	-1.389943E+9	4.831164E-11	NaN
67	1.000000	0.410799	7.3657e+06	-41989.1	955.818	-29784.8	0.000000	0.000000	6.410903	0.017533	NaN	0.000000	0.001601	0.001666	28.0833	0.140681	0.001824	77.1435	25.8283	-168.092	0.029613	0.409509	-0.682296	-0.683586	0.017533	77.1435	-0.682466	-1.127018E+9	-1.555735E-11	NaN
67	1.000000	0.418800	7.3657e+06	-41989.1	955.819	-29784.8	0.000000	0.000000	6.418903	0.003809	NaN	0.000000	0.001644	0.001677	28.0842	0.019899	0.001965	10.1247	13.7739	-166.896	0.070951	0.417514	-0.674295	-0.675581	0.003809	10.1247	-0.674577	-8.790839E+8	-4.332373E-12	NaN
67	1.000000	0.426817	7.3657e+06	-41989.1	955.818	-29784.8	0.000000	0.000000	6.426921	0.045902	NaN	0.000000	0.001633	0.001675	28.0838	0.073760	0.002042	36.116	110.565	-167.871	0.010638	0.425521	-0.666278	-0.667574	0.045902	36.116	-0.667232	-6.974234E+8	-6.581676E-11	NaN
67	1.000000	0.434813	7.3657e+06	-41989.1	955.819	-29784.8	0.000000	0.000000	6.434916	0.011316	NaN	0.000000	0.001609	0.001644	28.0841	0.095669	0.001989	48.1026	131.477	-167.425	0.032858	0.433559	-0.658283	-0.659536	0.011316	48.1026	-0.658459	-5.288831E+8	-2.139633E-11	NaN
67	1.000000	0.442828	7.3657e+06	-41989.1	955.818	-29784.8	0.000000	0.000000	6.442927	-0.079408	NaN	0.000000	0.001626	0.001651	28.0823	0.125529	0.002028	61.9129	-36.9754	-166.251	0.004398	0.441497	-0.650267	-0.651598	-0.079408	61.9129	-0.649305	-3.961988E+8	2.004249E-10	NaN
67	1.000000	0.450826	7.3657e+06	-41989.1	955.818	-29784.8	0.000000	0.000000	6.450929	0.005604	NaN	0.000000	0.001639	0.001679	28.0827	0.119763	0.002048	58.478	154.121	-167.736	0.047313	0.449513	-0.642269	-0.643582	0.005604	58.478	-0.642341	-3.179864E+8	-1.762214E-11	NaN
67	1.000000	0.458817	7.3657e+06	-41989.1	955.817	-29784.8	0.000000	0.000000	6.458921	0.021626	NaN	0.000000	0.001628	0.001634	28.0824	0.118977	0.002049	58.061	71.7953	-168.678	-0.034572	0.457564	-0.634278	-0.635531	0.021626	58.061	-0.634557	-2.486529E+8	-8.697357E-11	NaN
67	1.000000	0.466844	7.3657e+06	-41989.1	955.818	-29784.8	0.000000	0.000000	6.466948	0.025676	NaN	0.000000	0.001616	0.001623	28.0832	0.008716	0.001973	4.418924	100.397	-165.913	0.065688	0.465515	-0.626251	-0.627580	0.025676	4.418924	-0.630609	-2.194748E+8	-1.169896E-10	NaN
67	1.000000	0.474830	7.3657e+06	-41989.1	955.818	-29784.8	0.000000	0.000000	6.474933	0.007106	NaN	0.000000	0.001574	0.001717	28.0819	0.140321	0.002053	68.3494	-179.967	-166.817	0.068409	0.473527	-0.618265	-0.619568	0.007106	68.3494	-0.618343	-1.488866E+8	-4.772623E-11	NaN
67	1.000000	0.482828	7.3657e+06	-41989.1	955.819	-29784.8	0.000000	0.000000	6.482930	-0.036648	NaN	0.000000	0.001561	0.001735	28.0841	0.082820	0.001998	41.4486	38.2302	-170.163	-0.056139	0.481549	-0.610267	-0.611546	-0.036648	41.4486	-0.609604	-1.128917E+8	3.246339E-10	NaN
67	1.000000	0.490838	7.3657e+06	-41989.1	955.818	-29784.8	0.000000	0.000000	6.490943	0.055855	NaN	0.000000	0.001566	0.001705	28.0847	0.083532	0.002006	41.6454	40.2941	-168.058	0.013452	0.489550	-0.602257	-0.603545	0.055855	41.6454	-0.603263	-9.234130E+7	-6.048806E-10	NaN
67	1.000000	0.498821	7.3657e+06	-41989.1	955.818	-29784.8	0.000000	0.000000	6.498927	0.086524	NaN	0.000000	0.001598	0.001767	28.082	0.039531	0.002039	19.3839	-80.5887	-168.22	0.108696	0.497569	-0.594274	-0.595526	0.086524	19.3839	-0.597622	-7.721546E+7	-1.120557E-9	NaN
67	1.000000	0.506828	7.3657e+06	-41989.1	955.818	-29784.8	0.000000	0.000000	6.506930	-0.019377	NaN	0.000000	0.001549	0.001773	28.0822	0.053508	0.001993	26.8429	114.122	-164.475	-0.001203	0.505510	-0.586267	-0.587585	-0.019377	26.8429	-0.585725	-5.293229E+7	3.660680E-10	NaN
67	1.000000	0.514886	7.3657e+06	-41989.1	955.818	-29784.8	0.000000	0.000000	6.514989	0.011203	NaN	0.000000	0.001549	0.001743	28.0829	0.046301	0.001839	25.1808	-8.615991	-166.233	0.039270	0.513536	-0.578209	-0.579559	0.011203	25.1808	-0.578543	-4.213175E+7	-2.659046E-10	NaN
67	1.000000	0.522881	7.3657e+06	-41989.1	955.819	-29784.8	0.000000	0.000000	6.522986	0.055648	NaN	0.000000	0.001540	0.001729	28.0817	0.090209	0.002108	42.8012	24.416	-165.406	0.085462	0.521507	-0.570214	-0.571589	0.055648	42.8012	-0.571190	-3.334781E+7	-1.668713E-9	NaN
67	1.000000	0.530860	7.3657e+06	-41989.1	955.817	-29784.8	0.000000	0.000000	6.530964	0.031826	NaN	0.000000	0.001594	0.001741	28.0819	0.048351	0.001918	25.2105	124.879	-166.931	-0.052406	0.529520	-0.562235	-0.563575	0.031826	25.2105	-0.563182	-2.584571E+7	-1.231369E-9	NaN
67	1.000000	0.538852	7.3657e+06	-41989.1	955.818	-29784.8	0.000000	0.000000	6.538957	0.051074	NaN	0.000000	0.001591	0.001737	28.0826	0.047725	0.002017	23.6623	98.0444	-164.995	-0.032184	0.537604	-0.554243	-0.555491	0.051074	23.6623	-0.555862	-2.046985E+7	-2.495089E-9	NaN
67	1.000000	0.546866	7.3657e+06	-41989.1	955.818	-29784.8	0.000000	0.000000	6.546969	-0.004182	NaN	0.000000	0.001581	0.001778	28.0811	0.037009	0.001988	18.6179	108.619	-164.28	-0.010694	0.545515	-0.546229	-0.547580	-0.004182	18.6179	-0.546060	-1.497534E+7	2.792789E-10	NaN
67	1.000000	0.554853	7.3657e+06	-41989.1	955.819	-29784.8	0.000000	0.000000	6.554953	-0.050884	NaN	0.000000	0.001564	0.001759	28.0816	0.052079	0.001842	28.2734	133.4	-173.319	0.067635	0.553509	-0.538242	-0.539587	-0.050884	28.2734	-0.536893	-1.117516E+7	4.553281E-9	NaN
67	1.000000	0.562884	7.3657e+06	-41989.1	955.819	-29784.8	0.000000	0.000000	6.562985	-0.053940	NaN	0.000000	0.001636	0.001738	28.0828	0.144287	0.002129	67.7753	-49.0425	-167.365	-0.074542	0.561601	-0.530211	-0.531494	-0.053940	67.7753	-0.529614	-8.85549e+06	6.091129E-9	NaN
67	1.000000	0.570874	7.3657e+06	-41989.1	955.818	-29784.8	0.000000	0.000000	6.570976	-0.009894	NaN	0.000000	0.001551	0.001747	28.0826	0.054347	0.002018	26.9249	-159.845	-167.494	0.073527	0.569532	-0.522221	-0.523563	-0.009894	26.9249	-0.521946	-6.92874e+06	1.428008E-9	NaN
67	1.000000	0.578861	7.3657e+06	-41989.1	955.818	-29784.8	0.000000	0.000000	6.578963	-0.035504	NaN	0.000000	0.001575	0.001726	28.0827	0.088952	0.001984	44.8461	-58.693	-168.288	0.011638	0.577592	-0.514234	-0.515503	-0.035504	44.8461	-0.513640	-5.3101e+06	6.686216E-9	NaN
67	1.000000	0.586884	7.3657e+06	-41989.1	955.819	-29784.8	0.000000	0.000000	6.586986	-0.032030	NaN	0.000000	0.001598	0.001725	28.0819	0.020052	0.002068	9.694547	-9.854588	-169.65	-0.067762	0.585569	-0.506211	-0.507526	-0.032030	9.694547	-0.503733	-3.86436e+06	8.288648E-9	NaN
67	1.000000	0.594860	7.3657e+06	-41989.1	955.819	-29784.8	0.000000	0.000000	6.594966	0.065927	NaN	0.000000	0.001611	0.001723	28.0829	0.134056	0.002117	63.3147	-62.6981	-167.281	0.029088	0.593567	-0.498235	-0.499528	0.065927	63.3147	-0.499016	-3.32111e+06	-1.985085E-8	NaN
67	1.000000	0.602867	7.3657e+06	-41989.1	955.818	-29784.8	0.000000	0.000000	6.602974	0.101187	NaN	0.000000	0.001659	0.001707	28.0822	0.132376	0.001933	68.4847	-65.003	-168.545	0.111090	0.601627	-0.490228	-0.491468	0.101187	68.4847	-0.491336	-2.59452e+06	-3.900035E-8	NaN
67	1.000000	0.610901	7.3657e+06	-41989.1	955.819	-29784.8	0.000000	0.000000	6.611004	-0.012958	NaN	0.000000	0.001640	0.001729	28.0823	0.050313	0.001955	25.7371	-138.059	-166.772	0.029143	0.609559	-0.482194	-0.483536	-0.012958	25.7371	-0.481816	-1.90961e+06	6.785460E-9	NaN
67	1.000000	0.618880	7.3657e+06	-41989.1	955.819	-29784.8	0.000000	0.000000	6.618982	-0.020746	NaN	0.000000	0.001643	0.001684	28.0848	0.022764	0.001995	11.4116	127.804	-169.182	0.072984	0.617564	-0.474215	-0.475531	-0.020746	11.4116	-0.472852	-1.4302e+06	1.450560E-8	NaN
67	1.000000	0.626896	7.3657e+06	-41989.1	955.818	-29784.8	0.000000	0.000000	6.626997	-0.033476	NaN	0.000000	0.001676	0.001723	28.0855	0.044925	0.002075	21.6482	-163.039	-165.107	-0.042034	0.625629	-0.466199	-0.467466	-0.033476	21.6482	-0.465039	-1.11122e+06	3.012548E-8	NaN
67	1.000000	0.634920	7.3657e+06	-41989.1	955.819	-29784.8	0.000000	0.000000	6.635025	0.041135	NaN	0.000000	0.001633	0.001683	28.0842	0.055089	0.002044	26.9464	-132.027	-168.089	0.030719	0.633558	-0.458175	-0.459537	0.041135	26.9464	-0.459320	-923549	-4.454065E-8	NaN
67	1.000000	0.642921	7.3657e+06	-41989.1	955.818	-29784.8	0.000000	0.000000	6.643024	0.007602	NaN	0.000000	0.001624	0.001657	28.0859	0.076821	0.002065	37.2036	151.616	-166.885	0.027947	0.641614	-0.450174	-0.451481	0.007602	37.2036	-0.450327	-690165	-1.101468E-8	NaN
67	1.000000	0.650929	7.3657e+06	-41989.1	955.819	-29784.8	0.000000	0.000000	6.651029	-0.066004	NaN	0.000000	0.001637	0.001692	28.0849	0.074458	0.002124	35.0594	143.816	-163.854	0.050933	0.649602	-0.442166	-0.443493	-0.066004	35.0594	-0.440754	-505835	1.304854E-7	NaN
67	1.000000	0.658904	7.3657e+06	-41989.1	955.819	-29784.8	0.000000	0.000000	6.659010	0.081674	NaN	0.000000	0.001622	0.001688	28.0847	0.038061	0.001892	20.1207	92.4332	-162.719	0.046975	0.657629	-0.434191	-0.435466	0.081674	20.1207	-0.437235	-451159	-1.810316E-7	NaN
67	1.000000	0.666933	7.3657e+06	-41989.1	955.818	-29784.8	0.000000	0.000000	6.667036	-0.000571	NaN	0.000000	0.001624	0.001665	28.0832	0.077696	0.001982	39.2095	129.903	-168.622	0.129799	0.665597	-0.426162	-0.427498	-0.000571	39.2095	-0.426151	-314476	1.814987E-9	NaN
67	1.000000	0.674929	7.3657e+06	-41989.1	955.819	-29784.8	0.000000	0.000000	6.675033	0.039374	NaN	0.000000	0.001647	0.001713	28.0845	0.052451	0.002063	25.4223	3.484659	-168.647	-0.000600	0.673598	-0.418166	-0.419497	0.039374	25.4223	-0.419328	-251698	-1.564350E-7	NaN
67	1.000000	0.682911	7.3657e+06	-41989.1	955.818	-29784.8	0.000000	0.000000	6.683013	0.000468	NaN	0.000000	0.001610	0.001701	28.083	0.093165	0.002009	46.3691	-171.171	-164.993	-0.044391	0.681612	-0.410184	-0.411483	0.000468	46.3691	-0.410192	-186695	-2.505056E-9	NaN
67	1.000000	0.690935	7.3657e+06	-41989.1	955.818	-29784.8	0.000000	0.000000	6.691041	0.081894	NaN	0.000000	0.001620	0.001725	28.0837	0.067029	0.001968	34.063	-133.169	-166.398	0.052929	0.689590	-0.402160	-0.403505	0.081894	34.063	-0.403964	-152225	-5.379798E-7	NaN
67	1.000000	0.698900	7.3657e+06	-41989.1	955.818	-29784.8	0.000000	0.000000	6.699005	0.056414	NaN	0.000000	0.001639	0.001730	28.0841	0.083188	0.002003	41.5357	148.849	-162.107	0.035442	0.697572	-0.394195	-0.395523	0.056414	41.5357	-0.395214	-114205	-4.939705E-7	NaN
67	1.000000	0.706916	7.3657e+06	-41989.1	955.818	-29784.8	0.000000	0.000000	6.707020	0.032686	NaN	0.000000	0.001621	0.001725	28.0841	0.031263	0.002046	15.2807	57.3166	-166.796	0.015964	0.705666	-0.386179	-0.387429	0.032686	15.2807	-0.387783	-89422.1	-3.655204E-7	NaN
67	1.000000	0.714913	7.3657e+06	-41989.1	955.818	-29784.8	0.000000	0.000000	6.715018	0.046683	NaN	0.000000	0.001568	0.001708	28.0834	0.070601	0.001886	37.4319	-37.9699	-164.384	0.009866	0.713696	-0.378182	-0.379399	0.046683	37.4319	-0.379118	-67177.6	-6.949224E-7	NaN
67	1.000000	0.722916	7.3657e+06	-41989.1	955.818	-29784.8	0.000000	0.000000	6.723020	0.042644	NaN	0.000000	0.001587	0.001724	28.0853	0.121332	0.002084	58.2167	-2.718321	-168.895	0.057387	0.721646	-0.370179	-0.371449	0.042644	58.2167	-0.370729	-50888.3	-8.379932E-7	NaN
67	1.000000	0.730945	7.3657e+06	-41989.1	955.818	-29784.8	0.000000	0.000000	6.731048	-0.007293	NaN	0.000000	0.001607	0.001742	28.0854	0.077015	0.002003	38.4538	119.09	-167.044	0.017406	0.729621	-0.362150	-0.363474	-0.007293	38.4538	-0.362007	-38093.7	1.914474E-7	NaN
67	1.000000	0.738927	7.3657e+06	-41989.1	955.818	-29784.8	0.000000	0.000000	6.739031	0.037414	NaN	0.000000	0.001621	0.001708	28.0831	0.054910	0.001957	28.0567	88.8809	-167.95	0.043663	0.737636	-0.354169	-0.355459	0.037414	28.0567	-0.355169	-30334.7	-1.233368E-6	NaN
67	1.000000	0.746963	7.3657e+06	-41989.1	955.818	-29784.8	0.000000	0.000000	6.747067	0.011878	NaN	0.000000	0.001570	0.001737	28.0851	0.018263	0.002073	8.810074	163.198	-166.721	0.040887	0.745657	-0.346132	-0.347439	0.011878	8.810074	-0.347143	-23201.1	-5.119609E-7	NaN
67	1.000000	0.754958	7.3657e+06	-41989.1	955.819	-29784.8	0.000000	0.000000	6.755061	0.009089	NaN	0.000000	0.001581	0.001749	28.085	0.012312	0.001887	6.523392	97.4482	-165.07	-0.005190	0.753591	-0.338138	-0.339504	0.009089	6.523392	-0.339183	-17767.9	-5.115200E-7	NaN
67	1.000000	0.762955	7.3657e+06	-41989.1	955.818	-29784.8	0.000000	0.000000	6.763057	-0.021801	NaN	0.000000	0.001550	0.001717	28.0835	0.060155	0.002018	29.8057	-116.203	-164.734	-0.034321	0.761657	-0.330140	-0.331438	-0.021801	29.8057	-0.329591	-12866.6	1.694365E-6	NaN
67	1.000000	0.770976	7.3657e+06	-41989.1	955.818	-29784.8	0.000000	0.000000	6.771079	-0.016248	NaN	0.000000	0.001547	0.001727	28.0827	0.060872	0.001827	33.3218	-44.1769	-164.402	0.051468	0.769660	-0.322119	-0.323435	-0.016248	33.3218	-0.321753	-9872.52	1.645820E-6	NaN
67	1.000000	0.778957	7.3657e+06	-41989.1	955.819	-29784.8	0.000000	0.000000	6.779060	0.009131	NaN	0.000000	0.001575	0.001744	28.0815	0.105837	0.002025	52.2615	-111.052	-168.34	0.018124	0.777649	-0.314138	-0.315446	0.009131	52.2615	-0.314269	-7658.75	-1.192282E-6	NaN
67	1.000000	0.786963	7.3657e+06	-41989.1	955.819	-29784.8	0.000000	0.000000	6.787066	0.003579	NaN	0.000000	0.001611	0.001754	28.0828	0.078672	0.001949	40.3755	-150.101	-164.347	-0.063658	0.785645	-0.306133	-0.307450	0.003579	40.3755	-0.306199	-5817.6	-6.151749E-7	NaN
67	1.000000	0.794965	7.3657e+06	-41989.1	955.819	-29784.8	0.000000	0.000000	6.795069	0.030338	NaN	0.000000	0.001598	0.001771	28.0832	0.031482	0.002151	14.635	9.271687	-161.829	-0.006621	0.793633	-0.298130	-0.299462	0.030338	14.635	-0.299685	-4655.23	-6.516974E-6	NaN
67	1.000000	0.802966	7.3657e+06	-41989.1	955.819	-29784.8	0.000000	0.000000	6.803069	0.019709	NaN	0.000000	0.001585	0.001751	28.0837	0.005459	0.001893	2.884213	-168.736	-164.563	-0.031285	0.801769	-0.290130	-0.291327	0.019709	2.884213	-0.295255	-3998.44	-4.929170E-6	NaN
67	1.000000	0.810946	7.3657e+06	-41989.1	955.818	-29784.8	0.000000	0.000000	6.811046	-0.053848	NaN	0.000000	0.001548	0.001756	28.0828	0.036607	0.001988	18.4153	120.854	-166.651	-0.055141	0.809642	-0.282149	-0.283453	-0.053848	18.4153	-0.279956	-2356.74	2.284857E-5	NaN
67	1.000000	0.818982	7.3657e+06	-41989.1	955.818	-29784.8	0.000000	0.000000	6.819085	0.010773	NaN	0.000000	0.001558	0.001749	28.0837	0.098985	0.002020	49.0125	171.212	-165.465	-0.020139	0.817725	-0.274113	-0.275370	0.010773	49.0125	-0.274278	-1934.05	-5.570249E-6	NaN
67	1.000000	0.826961	7.3657e+06	-41989.1	955.818	-29784.8	0.000000	0.000000	6.827064	0.016589	NaN	0.000000	0.001550	0.001718	28.0842	0.053287	0.001940	27.4648	93.112	-166.727	0.029058	0.825634	-0.266135	-0.267462	0.016589	27.4648	-0.266588	-1477.75	-1.122551E-5	NaN
67	1.000000	0.834976	7.3657e+06	-41989.1	955.818	-29784.8	0.000000	0.000000	6.835078	-0.035623	NaN	0.000000	0.001567	0.001697	28.0845	0.085225	0.002029	41.9961	86.5635	-166.774	-0.058833	0.833658	-0.258119	-0.259437	-0.035623	41.9961	-0.257483	-1072.24	3.322347E-5	NaN
67	1.000000	0.842976	7.3657e+06	-41989.1	955.818	-29784.8	0.000000	0.000000	6.843078	-0.018117	NaN	0.000000	0.001576	0.001727	28.0821	0.044095	0.002025	21.7759	91.1539	-168.954	0.093313	0.841668	-0.250119	-0.251427	-0.018117	21.7759	-0.249495	-807.528	2.243531E-5	NaN
67	1.000000	0.851001	7.3657e+06	-41989.1	955.818	-29784.8	0.000000	0.000000	6.851102	-0.049666	NaN	0.000000	0.001568	0.001714	28.0819	0.115018	0.002076	55.3938	-96.961	-167.22	0.054156	0.849692	-0.242094	-0.243403	-0.049666	55.3938	-0.241422	-604.981	8.209545E-5	NaN
67	1.000000	0.859010	7.3657e+06	-41989.1	955.818	-29784.8	0.000000	0.000000	6.859112	-0.031120	NaN	0.000000	0.001522	0.001759	28.0821	0.100404	0.001964	51.1323	168.053	-164.894	0.030087	0.857679	-0.234085	-0.235416	-0.031120	51.1323	-0.233629	-456.769	6.813145E-5	NaN
67	1.000000	0.867011	7.3657e+06	-41989.1	955.819	-29784.8	0.000000	0.000000	6.867114	-0.002553	NaN	0.000000	0.001564	0.001752	28.0823	0.020265	0.002032	9.975409	-7.985506	-166.229	0.000200	0.865673	-0.226084	-0.227422	-0.002553	9.975409	-0.225892	-344.739	7.404712E-6	NaN
67	1.000000	0.875011	7.3657e+06	-41989.1	955.818	-29784.8	0.000000	0.000000	6.875113	-0.030151	NaN	0.000000	0.001577	0.001731	28.0828	0.079545	0.001999	39.7969	146.763	-164.964	-0.004636	0.873680	-0.218084	-0.219415	-0.030151	39.7969	-0.217516	-253.46	0.000119	NaN
67	1.000000	0.883011	7.3657e+06	-41989.1	955.818	-29784.8	0.000000	0.000000	6.883116	0.044263	NaN	0.000000	0.001573	0.001723	28.0839	0.004163	0.002047	2.033766	-165.471	-170.75	0.040930	0.881729	-0.210084	-0.211366	0.044263	2.033766	-0.226407	-351.288	-0.000126	NaN
67	1.000000	0.891017	7.3657e+06	-41989.1	955.818	-29784.8	0.000000	0.000000	6.891120	-0.003628	NaN	0.000000	0.001588	0.001751	28.0838	0.091324	0.001964	46.5056	125.774	-169.282	0.046606	0.889721	-0.202078	-0.203374	-0.003628	46.5056	-0.202019	-142.179	2.552012E-5	NaN
67	1.000000	0.899017	7.3657e+06	-41989.1	955.818	-29784.8	0.000000	0.000000	6.899119	-0.008580	NaN	0.000000	0.001578	0.001737	28.0834	0.024775	0.001985	12.48	87.5994	-166.438	0.017121	0.897710	-0.194078	-0.195385	-0.008580	12.48	-0.193562	-103.124	8.319710E-5	NaN
67	1.000000	0.906993	7.3657e+06	-41989.1	955.818	-29784.8	0.000000	0.000000	6.907097	0.015348	NaN	0.000000	0.001594	0.001712	28.0847	0.079183	0.002031	38.9868	-174.61	-167.894	0.006013	0.905655	-0.186102	-0.187441	0.015348	38.9868	-0.186397	-78.2797	-0.000196	NaN
67	1.000000	0.915027	7.3657e+06	-41989.1	955.818	-29784.8	0.000000	0.000000	6.915131	0.019608	NaN	0.000000	0.001604	0.001715	28.0847	0.038192	0.002010	18.9983	-4.769070	-166.14	-0.025287	0.913729	-0.178068	-0.179366	0.019608	18.9983	-0.178842	-58.3099	-0.000336	NaN
67	1.000000	0.923011	7.3657e+06	-41989.1	955.818	-29784.8	0.000000	0.000000	6.923114	0.012312	NaN	0.000000	0.001579	0.001738	28.0846	0.117954	0.001995	59.128	-50.6937	-165.367	0.060280	0.921716	-0.170084	-0.171379	0.012312	59.128	-0.170240	-41.4747	-0.000297	NaN
67	1.000000	0.931006	7.3657e+06	-41989.1	955.819	-29784.8	0.000000	0.000000	6.931109	0.018844	NaN	0.000000	0.001585	0.001724	28.085	0.090152	0.002088	43.1809	-131.512	-167.98	0.070400	0.929671	-0.162090	-0.163424	0.018844	43.1809	-0.162417	-30.2558	-0.000623	NaN
67	1.000000	0.939032	7.3657e+06	-41989.1	955.818	-29784.8	0.000000	0.000000	6.939136	0.017388	NaN	0.000000	0.001545	0.001785	28.084	0.058818	0.001972	29.8325	-91.4003	-165.279	-0.044619	0.937715	-0.154063	-0.155380	0.017388	29.8325	-0.154500	-21.8563	-0.000796	NaN
67	1.000000	0.947037	7.3657e+06	-41989.1	955.817	-29784.8	0.000000	0.000000	6.947141	0.032251	NaN	0.000000	0.001598	0.001744	28.0831	0.086905	0.002013	43.1669	-38.0866	-165.557	0.025151	0.945690	-0.146058	-0.147405	0.032251	43.1669	-0.146618	-15.705	-0.002054	NaN
67	1.000000	0.955002	7.3657e+06	-41989.1	955.818	-29784.8	0.000000	0.000000	6.955104	-0.022907	NaN	0.000000	0.001575	0.001776	28.0842	0.065234	0.002030	32.1278	155.398	-168.041	0.013195	0.953755	-0.138093	-0.139340	-0.022907	32.1278	-0.137559	-10.6397	0.002153	NaN
67	1.000000	0.963062	7.3657e+06	-41989.1	955.819	-29784.8	0.000000	0.000000	6.963166	0.028756	NaN	0.000000	0.001589	0.001754	28.0845	0.037441	0.001909	19.6129	-136.296	-168.569	-0.002343	0.961736	-0.130033	-0.131359	0.028756	19.6129	-0.131133	-8.016361	-0.003587	NaN
67	1.000000	0.971039	7.3657e+06	-41989.1	955.818	-29784.8	0.000000	0.000000	6.971142	0.002830	NaN	0.000000	0.001588	0.001749	28.0852	0.039010	0.001953	19.9791	-168.827	-164.271	0.107025	0.969759	-0.122056	-0.123337	0.002830	19.9791	-0.122162	-5.339903	-0.000530	NaN
67	1.000000	0.979057	7.3657e+06	-41989.1	955.818	-29784.8	0.000000	0.000000	6.979158	-0.041071	NaN	0.000000	0.001545	0.001698	28.0857	0.013384	0.002125	6.298240	-139.157	-170.013	-0.049873	0.977728	-0.114038	-0.115367	-0.041071	6.298240	-0.109147	-2.883075	0.014246	NaN
67	1.000000	0.987069	7.3657e+06	-41989.1	955.819	-29784.8	0.000000	0.000000	6.987174	0.057290	NaN	0.000000	0.001598	0.001742	28.0853	0.065221	0.001971	33.0855	17.6742	-165.679	-0.018126	0.985710	-0.106026	-0.107385	0.057290	33.0855	-0.107325	-2.637002	-0.021726	NaN
67	1.000000	0.995053	7.3657e+06	-41989.1	955.819	-29784.8	0.000000	0.000000	6.995156	-0.006623	NaN	0.000000	0.001555	0.001758	28.0855	0.137290	0.002139	64.199	50.7755	-165.97	0.013504	0.993718	-0.098042	-0.099378	-0.006623	64.199	-0.097964	-1.645901	0.004024	NaN
67	1.000000	1.003071	7.3657e+06	-41989.1	955.819	-29784.8	0.000000	0.000000	7.003174	-0.007485	NaN	0.000000	0.001589	0.001759	28.0841	0.062234	0.001967	31.6342	-118.958	-167.431	-0.020314	1.001701	-0.090024	-0.091395	-0.007485	31.6342	-0.089846	-1.072037	0.006982	NaN
67	1.000000	1.011071	7.3657e+06	-41989.1	955.819	-29784.8	0.000000	0.000000	7.011174	0.005467	NaN	0.000000	0.001600	0.001740	28.084	0.030248	0.001791	16.8932	124.978	-163.363	0.058777	1.009719	-0.082024	-0.083376	0.005467	16.8932	-0.082267	-0.704600	-0.007759	NaN
67	1.000000	1.019061	7.3657e+06	-41989.1	955.819	-29784.8	0.000000	0.000000	7.019168	0.081791	NaN	0.000000	0.001575	0.001712	28.0841	0.101929	0.001948	52.3339	-151.144	-167.549	0.069469	1.017757	-0.074034	-0.075338	0.081791	52.3339	-0.075206	-0.467565	-0.174930	NaN
67	1.000000	1.027074	7.3657e+06	-41989.1	955.819	-29784.8	0.000000	0.000000	7.027175	-0.033884	NaN	0.000000	0.001574	0.001739	28.0831	0.059199	0.001986	29.8086	-139.709	-166.152	0.088403	1.025739	-0.066021	-0.067356	-0.033884	29.8086	-0.065169	-0.251915	0.134507	NaN
67	1.000000	1.035053	7.3657e+06	-41989.1	955.818	-29784.8	0.000000	0.000000	7.035157	0.019083	NaN	0.000000	0.001574	0.001747	28.0842	0.024439	0.002083	11.7311	15.4114	-169.309	0.107681	1.033789	-0.058042	-0.059307	0.019083	11.7311	-0.059262	-0.171503	-0.111272	NaN
67	1.000000	1.043047	7.3657e+06	-41989.1	955.819	-29784.8	0.000000	0.000000	7.043148	-0.029001	NaN	0.000000	0.001589	0.001781	28.0832	0.080857	0.002016	40.1031	-159.222	-169.644	-0.047016	1.041743	-0.050048	-0.051352	-0.029001	40.1031	-0.049506	-0.088162	0.328955	NaN
67	1.000000	1.051084	7.3657e+06	-41989.1	955.819	-29784.8	0.000000	0.000000	7.051187	0.008521	NaN	0.000000	0.001587	0.001724	28.0835	0.023665	0.001916	12.3513	164.08	-163.959	0.046028	1.049739	-0.042011	-0.043356	0.008521	12.3513	-0.042529	-0.054004	-0.157791	NaN
67	1.000000	1.059088	7.3657e+06	-41989.1	955.818	-29784.8	0.000000	0.000000	7.059192	0.034975	NaN	0.000000	0.001572	0.001729	28.0848	0.051994	0.001727	30.1085	-64.2059	-165.803	0.061259	1.057731	-0.034007	-0.035364	0.034975	30.1085	-0.034878	-0.031762	-1.101190	NaN
67	1.000000	1.067094	7.3657e+06	-41989.1	955.819	-29784.8	0.000000	0.000000	7.067198	0.014054	NaN	0.000000	0.001568	0.001706	28.0835	0.082914	0.002082	39.8251	-65.3883	-169.449	0.032771	1.065805	-0.026001	-0.027290	0.014054	39.8251	-0.026265	-0.018215	-0.771584	NaN
67	1.000000	1.075062	7.3657e+06	-41989.1	955.82	-29784.8	0.000000	0.000000	7.075168	0.080150	NaN	0.000000	0.001554	0.001720	28.0835	0.097483	0.002032	47.9848	7.469919	-165.693	0.054433	1.073780	-0.018033	-0.019315	0.080150	47.9848	-0.019286	-0.012045	-6.653973	NaN
67	1.000000	1.083061	7.3657e+06	-41989.1	955.819	-29784.8	0.000000	0.000000	7.083164	0.008029	NaN	0.000000	0.001562	0.001697	28.0829	0.057045	0.002086	27.3425	70.6868	-170.909	-0.064213	1.081763	-0.010034	-0.011332	0.008029	27.3425	-0.010255	-0.006533	-1.228977	NaN
67	1.000000	1.091088	7.3657e+06	-41989.1	955.819	-29784.8	0.000000	0.000000	7.091193	0.046443	NaN	0.000000	0.001564	0.001692	28.0818	0.119382	0.002110	56.5912	91.6558	-165.158	-0.037041	1.089763	-0.002007	-0.003332	0.046443	56.5912	-0.002623	-0.001866	-24.885	NaN
67	1.000000	1.099048	7.3657e+06	-41989.1	955.819	-29784.8	0.000000	0.000000	7.099389	5.787895	NaN	0.000000	0.001568	0.001691	28.0824	6.356317	0.001809	3513.86	9.533543	-169.22	4.096195	1.097705	0.005953	0.004610	5.787895	3513.86	0.004718	0.003877	1492.79	51558.1
67	2.000000	1.102708	7.3657e+06	-41989.1	955.819	-29784.8	0.000000	0.000000	7.103246	10.5931	NaN	0.000000	0.001608	0.001730	28.0822	10.3067	0.001644	6270.02	8.515470	-173.946	10.2578	1.102311	0.009612	0.009215	10.5931	6270.02	0.008345	0.007400	1431.52	66593.2
67	2.000000	1.104643	7.3657e+06	-41989.1	955.818	-29784.8	0.000000	0.000000	7.105265	12.6463	NaN	0.000000	0.001581	0.001706	28.0827	11.7903	0.001529	7712.43	3.083189	-171.258	11.7178	1.104368	0.011548	0.011273	12.6463	7712.43	0.010318	0.009537	1326.01	72153.3
67	2.000000	1.106640	7.3657e+06	-41989.1	955.819	-29784.8	0.000000	0.000000	7.107439	16.9507	NaN	0.000000	0.001560	0.001701	28.083	14.515	0.001875	7739.81	6.099519	-172.426	16.5515	1.106297	0.013545	0.013202	16.9507	7739.81	0.011902	0.011373	1490.44	66308.3
67	2.000000	1.108597	7.3657e+06	-41989.1	955.819	-29784.8	0.000000	0.000000	7.109525	20.0918	NaN	0.000000	0.001539	0.001721	28.0833	16.0672	0.001708	9405.17	7.535939	-179.277	19.2009	1.108322	0.015502	0.015227	20.0918	9405.17	0.013899	0.013846	1451.13	73026.8
67	2.000000	1.110614	7.3657e+06	-41989.1	955.82	-29784.8	0.000000	0.000000	7.111677	23.368	NaN	0.000000	0.001551	0.001712	28.0842	18.4452	0.001728	10675.1	4.854738	-177.369	23.0333	1.110327	0.017519	0.017232	23.368	10675.1	0.015877	0.016472	1418.61	75991.6
67	2.000000	1.112678	7.3657e+06	-41989.1	955.82	-29784.8	0.000000	0.000000	7.113941	28.227	NaN	0.000000	0.001534	0.001713	28.0848	21.3828	0.001766	12109.4	7.761732	-179.756	28.9811	1.112312	0.019583	0.019217	28.227	12109.4	0.017835	0.019254	1466.06	79732.9
67	2.000000	1.114614	7.3657e+06	-41989.1	955.819	-29784.8	0.000000	0.000000	7.116134	34.4857	NaN	0.000000	0.001562	0.001710	28.0852	22.2467	0.001795	12395.7	1.917615	-174.62	33.7276	1.114263	0.021518	0.021168	34.4857	12395.7	0.019432	0.021657	1592.33	76955.6
67	2.000000	1.116586	7.3657e+06	-41989.1	955.82	-29784.8	0.000000	0.000000	7.118263	38.2956	NaN	0.000000	0.001524	0.001720	28.0841	25.1093	0.001775	14148.2	7.941170	178.962	37.9157	1.116220	0.023491	0.023124	38.2956	14148.2	0.021461	0.024891	1538.54	81932.2
67	2.000000	1.118573	7.36571e+06	-41989.1	955.82	-29784.8	0.000000	0.000000	7.120485	44.0194	NaN	0.000000	0.001546	0.001742	28.0834	25.6661	0.001779	14424.6	5.937580	-179.844	43.1824	1.118245	0.025478	0.025150	44.0194	14424.6	0.023189	0.027803	1583.25	79037
67	2.000000	1.120614	7.36571e+06	-41989.1	955.821	-29784.8	0.000000	0.000000	7.122579	45.3235	NaN	0.000000	0.001587	0.001700	28.0846	29.0266	0.001770	16399.8	6.974596	177.257	45.9637	1.120303	0.027519	0.027208	45.3235	16399.8	0.025446	0.031832	1423.85	83981.2
67	2.000000	1.122582	7.36571e+06	-41989.1	955.819	-29784.8	0.000000	0.000000	7.124877	53.3395	NaN	0.000000	0.001534	0.001730	28.0851	31.6464	0.001798	17596.1	6.884385	176.204	52.2734	1.122356	0.029487	0.029261	53.3395	17596.1	0.027214	0.035167	1516.76	85728.4
67	2.000000	1.124539	7.36571e+06	-41989.1	955.819	-29784.8	0.000000	0.000000	7.127142	60.8358	NaN	0.000000	0.001510	0.001695	28.0846	33.4783	0.001834	18259.1	6.403730	177.107	59.4408	1.124266	0.031444	0.031171	60.8358	18259.1	0.028945	0.038586	1576.64	84925.5
67	2.000000	1.126526	7.36571e+06	-41989.1	955.819	-29784.8	0.000000	0.000000	7.129482	69.4219	NaN	0.000000	0.001553	0.001714	28.0863	35.7618	0.001847	19365.7	3.662209	179.445	67.2251	1.126280	0.033431	0.033185	69.4219	19365.7	0.030743	0.042297	1641.29	86030.3
67	2.000000	1.128531	7.36571e+06	-41989.1	955.819	-29784.8	0.000000	0.000000	7.131845	78.1333	NaN	0.000000	0.001541	0.001691	28.085	36.765	0.001740	21133.7	4.416895	178.656	75.7793	1.128153	0.035436	0.035058	78.1333	21133.7	0.032663	0.046445	1682.28	89594.2
67	2.000000	1.130546	7.36571e+06	-41989.1	955.819	-29784.8	0.000000	0.000000	7.134105	84.1058	NaN	0.000000	0.001581	0.001729	28.0855	39.3721	0.001802	21851.1	6.820136	176.618	83.5243	1.130214	0.037451	0.037119	84.1058	21851.1	0.034564	0.050735	1657.74	88632.3
67	2.000000	1.132586	7.36571e+06	-41989.1	955.819	-29784.8	0.000000	0.000000	7.136499	92.7243	NaN	0.000000	0.001601	0.001712	28.0861	41.88	0.001828	22906.3	4.453455	177.467	91.9096	1.132249	0.039490	0.039154	92.7243	22906.3	0.036454	0.055187	1680.19	89086.1
67	2.000000	1.134475	7.36571e+06	-41989.1	955.82	-29784.8	0.000000	0.000000	7.138687	99.9846	NaN	0.000000	0.001562	0.001727	28.0863	42.9581	0.001764	24359.3	4.556127	175.389	96.5435	1.134267	0.041380	0.041172	99.9846	24359.3	0.038301	0.059712	1674.43	91076.3
67	2.000000	1.136525	7.36571e+06	-41989.1	955.819	-29784.8	0.000000	0.000000	7.141025	106.984	NaN	0.000000	0.001648	0.001659	28.0845	44.6527	0.001728	25837.9	2.637630	177.446	104.759	1.136332	0.043430	0.043237	106.984	25837.9	0.040325	0.064871	1649.18	92684.1
67	2.000000	1.138530	7.36571e+06	-41989.1	955.821	-29784.8	0.000000	0.000000	7.143596	120.77	NaN	0.000000	0.001612	0.001705	28.0852	45.7058	0.001785	25601.9	4.993957	176.017	118.924	1.138170	0.045435	0.045075	120.77	25601.9	0.041897	0.069022	1749.73	89033.1
67	2.000000	1.140588	7.36571e+06	-41989.1	955.82	-29784.8	0.000000	0.000000	7.145753	123.167	NaN	0.000000	0.001623	0.001704	28.0842	48.3932	0.001774	27279.3	3.749520	176.479	123.01	1.140216	0.047493	0.047121	123.167	27279.3	0.044106	0.075071	1640.67	90964.3
67	2.000000	1.142542	7.36571e+06	-41989.1	955.82	-29784.9	0.000000	0.000000	7.148046	131.421	NaN	0.000000	0.001619	0.001702	28.0853	50.3065	0.001746	28814.3	3.466813	175.846	129.434	1.142256	0.049447	0.049161	131.421	28814.3	0.046026	0.080527	1632.01	92770.8
67	2.000000	1.144568	7.36571e+06	-41989.1	955.82	-29784.8	0.000000	0.000000	7.150693	146.528	NaN	0.000000	0.001594	0.001715	28.0842	52.5551	0.001739	30219.2	5.375731	174.286	148.371	1.144190	0.051473	0.051095	146.528	30219.2	0.047836	0.085843	1706.94	94233
67	2.000000	1.146514	7.36571e+06	-41989.1	955.819	-29784.8	0.000000	0.000000	7.153099	157.739	NaN	0.000000	0.001535	0.001674	28.0865	54.6256	0.001851	29504.7	6.057496	174.145	155.766	1.146188	0.053419	0.053093	157.739	29504.7	0.049409	0.090595	1741.13	89559.6
67	2.000000	1.148494	7.36571e+06	-41989.1	955.82	-29784.8	0.000000	0.000000	7.155398	165.491	NaN	0.000000	0.001567	0.001670	28.0859	56.266	0.001829	30760.9	8.150601	171.999	162.202	1.148122	0.055398	0.055027	165.491	30760.9	0.051364	0.096674	1711.84	90389.3
67	2.000000	1.150524	7.36571e+06	-41989.1	955.819	-29784.8	0.000000	0.000000	7.157781	174.067	NaN	0.000000	0.001531	0.001701	28.0866	57.4749	0.001770	32470.1	0.647452	177.414	171.685	1.150272	0.057429	0.057177	174.067	32470.1	0.053408	0.103239	1686.06	92328.4
67	2.000000	1.152536	7.36571e+06	-41989.1	955.82	-29784.8	0.000000	0.000000	7.160339	187.372	NaN	0.000000	0.001528	0.001705	28.0872	59.4163	0.001856	32005.6	1.049814	177.756	184.828	1.152120	0.059441	0.059025	187.372	32005.6	0.055050	0.108659	1724.41	88708.9
67	2.000000	1.154504	7.36571e+06	-41989.1	955.82	-29784.8	0.000000	0.000000	7.162622	195.017	NaN	0.000000	0.001529	0.001704	28.0855	62.2208	0.001883	33034.7	7.398514	172.435	194.211	1.154221	0.061409	0.061126	195.017	33034.7	0.056981	0.115207	1692.75	88921.1
67	2.000000	1.156505	7.36571e+06	-41989.1	955.819	-29784.8	0.000000	0.000000	7.164934	202.571	NaN	0.000000	0.001568	0.001695	28.0833	63.9015	0.001697	37655.8	1.627003	176.525	201.008	1.156325	0.063410	0.063230	202.571	37655.8	0.059376	0.123579	1639.21	97866.3
67	2.000000	1.158475	7.36571e+06	-41989.1	955.82	-29784.8	0.000000	0.000000	7.167775	223.79	NaN	0.000000	0.001540	0.001657	28.0843	64.702	0.001810	35755.2	3.796303	174.738	220.867	1.158135	0.065379	0.065040	223.79	35755.2	0.060685	0.128277	1744.59	91209
67	2.000000	1.160441	7.36571e+06	-41989.1	955.82	-29784.8	0.000000	0.000000	7.170164	234.06	NaN	0.000000	0.001574	0.001710	28.0837	67.7364	0.001833	36953.5	5.148688	172.816	229.447	1.160147	0.067346	0.067052	234.06	36953.5	0.062596	0.135281	1730.18	91793.2
67	2.000000	1.162469	7.36571e+06	-41989.1	955.82	-29784.8	0.000000	0.000000	7.172592	243.828	NaN	0.000000	0.001564	0.001709	28.0849	68.6784	0.001814	37857.4	3.581095	174.98	241.385	1.162165	0.069374	0.069070	243.828	37857.4	0.064543	0.142601	1709.86	91593
67	2.000000	1.164453	7.36571e+06	-41989.1	955.82	-29784.8	0.000000	0.000000	7.174940	252.673	NaN	0.000000	0.001543	0.001706	28.0839	70.7268	0.001743	40573.2	3.077418	173.755	249.015	1.164208	0.071358	0.071113	252.673	40573.2	0.066687	0.150873	1674.74	95434.8
67	2.000000	1.166505	7.36571e+06	-41989.1	955.82	-29784.8	0.000000	0.000000	7.177764	271.443	NaN	0.000000	0.001572	0.001726	28.0845	73.5357	0.001686	43626.7	5.009238	171.595	271.306	1.166146	0.073410	0.073051	271.443	43626.7	0.068744	0.159014	1707.04	99955.6
67	2.000000	1.168496	7.36571e+06	-41989.1	955.82	-29784.8	0.000000	0.000000	7.180234	283.119	NaN	0.000000	0.001542	0.001730	28.085	73.8512	0.001676	44054	3.250064	173.408	281.736	1.168187	0.075401	0.075092	283.119	44054	0.070581	0.166458	1700.84	98652.1
67	2.000000	1.170520	7.36571e+06	-41989.1	955.82	-29784.8	0.000000	0.000000	7.182782	295.854	NaN	0.000000	0.001559	0.001714	28.086	77.0048	0.001810	42546.4	5.362413	172.174	295.005	1.170174	0.077424	0.077079	295.854	42546.4	0.072209	0.173191	1708.25	93405.7
67	2.000000	1.172554	7.36571e+06	-41989.1	955.82	-29784.8	0.000000	0.000000	7.185405	310.176	NaN	0.000000	0.001546	0.001725	28.085	79.2676	0.001775	44648.3	3.021209	174.282	312.301	1.172139	0.079459	0.079044	310.176	44648.3	0.074249	0.181801	1706.13	95671
67	2.000000	1.174425	7.36571e+06	-41989.1	955.82	-29784.8	0.000000	0.000000	7.187792	322.75	NaN	0.000000	0.001552	0.001719	28.0852	80.3994	0.001859	43250.5	6.302647	170.555	318.621	1.174197	0.081330	0.081102	322.75	43250.5	0.075733	0.188189	1715.03	91089.3
67	2.000000	1.176495	7.36571e+06	-41989.1	955.82	-29784.8	0.000000	0.000000	7.190492	338.069	NaN	0.000000	0.001548	0.001711	28.0846	82.0791	0.001813	45280.5	4.472921	172.236	336.682	1.176223	0.083400	0.083128	338.069	45280.5	0.077801	0.197260	1713.82	93146
67	2.000000	1.178407	7.36571e+06	-41989.1	955.819	-29784.8	0.000000	0.000000	7.193043	353.632	NaN	0.000000	0.001594	0.001746	28.0838	82.2469	0.001684	48842.6	4.539403	171.733	348.224	1.178121	0.085312	0.085026	353.632	48842.6	0.079881	0.206591	1711.75	98178.5
67	2.000000	1.180456	7.36571e+06	-41989.1	955.82	-29784.8	0.000000	0.000000	7.195770	370.111	NaN	0.000000	0.001557	0.001744	28.084	85.701	0.001739	49294.5	4.909065	171.611	367.887	1.180065	0.087361	0.086969	370.111	49294.5	0.081730	0.215050	1721.05	97118.6
67	2.000000	1.182512	7.36571e+06	-41989.1	955.82	-29784.9	0.000000	0.000000	7.198408	384.277	NaN	0.000000	0.001565	0.001723	28.0838	86.7181	0.001710	50699	1.894874	175.312	383.428	1.182168	0.089417	0.089072	384.277	50699	0.083732	0.224391	1712.53	97784.5
67	2.000000	1.184416	7.36571e+06	-41989.1	955.82	-29784.8	0.000000	0.000000	7.200914	398.902	NaN	0.000000	0.001528	0.001716	28.0837	89.545	0.001856	48246.9	5.504107	171.2	393.208	1.184059	0.091321	0.090964	398.902	48246.9	0.085120	0.230976	1727.02	91718.9
67	2.000000	1.186524	7.36571e+06	-41989.1	955.819	-29784.8	0.000000	0.000000	7.203493	410.393	NaN	0.000000	0.001558	0.001648	28.0848	91.7552	0.001856	49441.3	6.254408	169.981	411.731	1.186343	0.093429	0.093248	410.393	49441.3	0.087203	0.241025	1702.7	92009.4
67	2.000000	1.188561	7.36571e+06	-41989.1	955.82	-29784.8	0.000000	0.000000	7.206341	430.13	NaN	0.000000	0.001570	0.001705	28.0861	92.6895	0.001726	53717	9.609153	166.386	432.11	1.188080	0.095465	0.094985	430.13	53717	0.089460	0.252136	1705.95	97738.9
67	2.000000	1.190565	7.36571e+06	-41989.1	955.82	-29784.9	0.000000	0.000000	7.209070	447.766	NaN	0.000000	0.001522	0.001742	28.0873	95.1402	0.001752	54308.2	8.274489	167.701	451.338	1.190058	0.097470	0.096963	447.766	54308.2	0.091286	0.261299	1713.62	97066.7
67	2.000000	1.192528	7.36571e+06	-41989.1	955.821	-29784.8	0.000000	0.000000	7.211880	468.358	NaN	0.000000	0.001532	0.001704	28.0865	96.8029	0.001756	55114.8	7.629362	168.751	466.962	1.192119	0.099433	0.099024	468.358	55114.8	0.093060	0.270344	1732.45	96846.3
67	2.000000	1.194480	7.36571e+06	-41989.1	955.82	-29784.8	0.000000	0.000000	7.214262	478.844	NaN	0.000000	0.001548	0.001711	28.0859	98.2113	0.001798	54626.1	6.109291	169.674	477.368	1.194094	0.101385	0.100999	478.844	54626.1	0.094810	0.279413	1713.75	94417.1
67	2.000000	1.196504	7.36571e+06	-41989.1	955.82	-29784.8	0.000000	0.000000	7.216986	495.864	NaN	0.000000	0.001550	0.001734	28.0854	100.161	0.001816	55162.8	5.307494	170.657	495.684	1.196058	0.103409	0.102963	495.864	55162.8	0.096667	0.289185	1714.69	93719.9
67	2.000000	1.198469	7.36571e+06	-41989.1	955.82	-29784.8	0.000000	0.000000	7.219630	512.376	NaN	0.000000	0.001515	0.001736	28.0856	101.06	0.001773	56998.7	7.821116	167.968	511.047	1.198098	0.105374	0.105003	512.376	56998.7	0.098632	0.299698	1709.64	95125.3
67	2.000000	1.199464	7.36571e+06	-41989.1	955.819	-29784.8	0.000000	0.000000	7.220979	520.979	NaN	0.000000	0.001513	0.001740	28.1154	103.015	0.001784	57756.9	2.593118	173.072	519.243	1.199168	0.106369	0.106073	520.979	57756.9	0.099604	0.304963	1708.34	95555.1