File: remote_trans/data/nanoindenter/0828-1/data/Data_2025-08-06,11h17m57s/2025-07-22_16-23-58_1_220.txt
2025-07-22, 16:23:58, 1
Index	Phase	Displacement	Time	Pos X	Pos Y	Pos Z	Rot A	Rot B	Piezo Z	Force A	Force B	Gripper	Voltage A	Voltage B	Temperature	Amplitude force	Amplitude pos	Stiffness	Phase shift	Phase excitation	Force A raw	Displacement raw	HMax	HMax raw	Real Force	Real Stiffness	Contact Depth	Area	Hardness	Reduced Mod.
[#]	[#]	[um]	[s]	[um]	[um]	[um]	[m°]	[m°]	[um]	[uN]	[uN]	[V]	[V]	[V]	[°C]	[uN]	[um]	[N/m]	[°]	[°]	[uN]	[um]	[um]	[um]	[uN]	[N/m]	[um]	[um^2]	[MPa]	[MPa]
220	1.000000	0.002209	7.3672e+06	-49639.1	955.818	-29758.7	0.000000	0.000000	6.002794	0.063613	NaN	0.000000	0.001615	0.001738	28.081	0.064912	0.001045	62.088	-8.121150	-167.483	-0.003903	0.000975	-1.026120	-1.027354	0.063613	62.088	-1.026888	-5.219461E+13	-1.218770E-15	NaN
220	1.000000	0.010176	7.3672e+06	-49639.1	955.818	-29758.7	0.000000	0.000000	6.010757	-0.025097	NaN	0.000000	0.001586	0.001743	28.0803	0.094011	0.000967	97.2471	171.713	-163.613	0.044574	0.008873	-1.018153	-1.019456	-0.025097	97.2471	-1.017959	-3.958129E+13	6.340512E-16	NaN
220	1.000000	0.018176	7.3672e+06	-49639.1	955.819	-29758.7	0.000000	0.000000	6.018763	0.109131	NaN	0.000000	0.001601	0.001693	28.0804	0.119501	0.001691	70.6572	-88.0024	-165.903	0.146455	0.016850	-1.010152	-1.011479	0.109131	70.6572	-1.011311	-3.221233E+13	-3.387873E-15	NaN
220	1.000000	0.026208	7.3672e+06	-49639.1	955.818	-29758.7	0.000000	0.000000	6.026789	-0.044797	NaN	0.000000	0.001554	0.001688	28.0804	0.080192	0.001745	45.9627	-92.0975	-166.852	-0.020616	0.024853	-1.002120	-1.003475	-0.044797	45.9627	-1.001389	-2.368512E+13	1.891339E-15	NaN
220	1.000000	0.034158	7.3672e+06	-49639.1	955.818	-29758.7	0.000000	0.000000	6.034740	0.007287	NaN	0.000000	0.001609	0.001717	28.0804	0.023474	0.001951	12.0324	58.085	-168.972	0.012872	0.032811	-0.994171	-0.995518	0.007287	12.0324	-0.994625	-1.920433E+13	-3.794629E-16	NaN
220	1.000000	0.042159	7.3672e+06	-49639.1	955.818	-29758.7	0.000000	0.000000	6.042743	0.041478	NaN	0.000000	0.001572	0.001681	28.0806	0.088859	0.001947	45.6283	-117.039	-166.251	0.095537	0.040839	-0.986169	-0.987490	0.041478	45.6283	-0.986851	-1.509048E+13	-2.748612E-15	NaN
220	1.000000	0.050166	7.3672e+06	-49639.1	955.818	-29758.7	0.000000	0.000000	6.050750	0.027232	NaN	0.000000	0.001583	0.001724	28.0802	0.105026	0.001911	54.9529	-140.922	-166.529	0.047397	0.048877	-0.978162	-0.979452	0.027232	54.9529	-0.978534	-1.165896E+13	-2.335677E-15	NaN
220	1.000000	0.058177	7.3672e+06	-49639.1	955.818	-29758.7	0.000000	0.000000	6.058760	0.002998	NaN	0.000000	0.001600	0.001704	28.0801	0.058958	0.001983	29.7305	96.5507	-163.094	0.049553	0.056858	-0.970152	-0.971471	0.002998	29.7305	-0.970227	-9.010017E+12	-3.327953E-16	NaN
220	1.000000	0.066189	7.3672e+06	-49639.1	955.818	-29758.7	0.000000	0.000000	6.066771	0.005964	NaN	0.000000	0.001575	0.001714	28.0802	0.086194	0.001999	43.1203	-164.164	-163.536	0.082235	0.064840	-0.962140	-0.963489	0.005964	43.1203	-0.962244	-7.032661E+12	-8.480773E-16	NaN
220	1.000000	0.074183	7.3672e+06	-49639.1	955.818	-29758.7	0.000000	0.000000	6.074765	-0.009597	NaN	0.000000	0.001608	0.001704	28.0803	0.087291	0.001873	46.6167	-150.096	-167.801	0.019235	0.072840	-0.954145	-0.955489	-0.009597	46.6167	-0.953991	-5.443129E+12	1.763218E-15	NaN
220	1.000000	0.082192	7.3672e+06	-49639.1	955.818	-29758.7	0.000000	0.000000	6.082777	0.071330	NaN	0.000000	0.001608	0.001691	28.0806	0.033297	0.001975	16.8627	153.507	-167.708	0.115895	0.080885	-0.946137	-0.947444	0.071330	16.8627	-0.949309	-4.706623E+12	-1.515520E-14	NaN
220	1.000000	0.090157	7.3672e+06	-49639.1	955.818	-29758.7	0.000000	0.000000	6.090737	-0.055673	NaN	0.000000	0.001605	0.001714	28.0806	0.048359	0.002176	22.2192	179.905	-164.442	-0.035832	0.088816	-0.938172	-0.939513	-0.055673	22.2192	-0.936292	-3.141333E+12	1.772264E-14	NaN
220	1.000000	0.098184	7.3672e+06	-49639.1	955.817	-29758.7	0.000000	0.000000	6.098767	0.021486	NaN	0.000000	0.001605	0.001704	28.0806	0.039013	0.002091	18.6564	-44.3081	-169.183	0.042454	0.096854	-0.930145	-0.931475	0.021486	18.6564	-0.931009	-2.665711E+12	-8.059996E-15	NaN
220	1.000000	0.106185	7.3672e+06	-49639.1	955.818	-29758.7	0.000000	0.000000	6.106770	0.049449	NaN	0.000000	0.001592	0.001720	28.0804	0.050562	0.001975	25.5948	-131.703	-166.19	0.051018	0.104907	-0.922143	-0.923421	0.049449	25.5948	-0.923592	-2.116929E+12	-2.335885E-14	NaN
220	1.000000	0.114189	7.3672e+06	-49639.1	955.819	-29758.7	0.000000	0.000000	6.114773	0.034287	NaN	0.000000	0.001580	0.001731	28.0792	0.039661	0.001997	19.8637	-131.356	-164.433	0.073605	0.112854	-0.914140	-0.915474	0.034287	19.8637	-0.915434	-1.642684E+12	-2.087284E-14	NaN
220	1.000000	0.122167	7.3672e+06	-49639.1	955.818	-29758.7	0.000000	0.000000	6.122749	0.002583	NaN	0.000000	0.001602	0.001708	28.0791	0.026951	0.002097	12.851	85.3704	-163.039	0.003476	0.120865	-0.906162	-0.907463	0.002583	12.851	-0.906313	-1.236954E+12	-2.088052E-15	NaN
220	1.000000	0.130208	7.3672e+06	-49639.1	955.818	-29758.7	0.000000	0.000000	6.130792	0.022868	NaN	0.000000	0.001603	0.001677	28.0791	0.045185	0.002073	21.7937	58.2233	-166.004	0.026669	0.128879	-0.898120	-0.899450	0.022868	21.7937	-0.898907	-9.824264E+11	-2.327740E-14	NaN
220	1.000000	0.138202	7.3672e+06	-49639.1	955.817	-29758.7	0.000000	0.000000	6.138782	-0.039921	NaN	0.000000	0.001585	0.001667	28.0795	0.119820	0.002109	56.8005	119.559	-167.263	0.007260	0.136871	-0.890127	-0.891458	-0.039921	56.8005	-0.889600	-7.353746E+11	5.428615E-14	NaN
220	1.000000	0.146222	7.3672e+06	-49639.1	955.818	-29758.7	0.000000	0.000000	6.146801	-0.066688	NaN	0.000000	0.001578	0.001644	28.0792	0.086896	0.001959	44.3509	134.661	-167.612	-0.018423	0.144892	-0.882107	-0.883437	-0.066688	44.3509	-0.880979	-5.622782E+11	1.186029E-13	NaN
220	1.000000	0.154181	7.3672e+06	-49639.1	955.818	-29758.7	0.000000	0.000000	6.154764	0.011404	NaN	0.000000	0.001599	0.001632	28.0798	0.026568	0.002005	13.2521	-41.83	-165.928	-0.031131	0.152883	-0.874148	-0.875446	0.011404	13.2521	-0.874793	-4.637525E+11	-2.459033E-14	NaN
220	1.000000	0.162199	7.3672e+06	-49639.1	955.818	-29758.7	0.000000	0.000000	6.162783	0.042088	NaN	0.000000	0.001635	0.001633	28.0792	0.061512	0.002018	30.4805	179.355	-172.522	0.075088	0.160948	-0.866130	-0.867381	0.042088	30.4805	-0.867165	-3.656693E+11	-1.150975E-13	NaN
220	1.000000	0.170215	7.3672e+06	-49639.1	955.82	-29758.7	0.000000	0.000000	6.170797	0.006428	NaN	0.000000	0.001628	0.001665	28.0789	0.001887	0.002049	0.920776	121.58	-166.777	-0.076149	0.168936	-0.858114	-0.859393	0.006428	0.920776	-0.863350	-3.246828E+11	-1.979849E-14	NaN
220	1.000000	0.178246	7.3672e+06	-49639.1	955.818	-29758.7	0.000000	0.000000	6.178830	0.038420	NaN	0.000000	0.001655	0.001710	28.079	0.035921	0.001955	18.3744	-92.7012	-168.685	0.071658	0.176945	-0.850083	-0.851383	0.038420	18.3744	-0.851651	-2.254737E+11	-1.703983E-13	NaN
220	1.000000	0.186264	7.3672e+06	-49639.1	955.818	-29758.7	0.000000	0.000000	6.186848	0.032782	NaN	0.000000	0.001632	0.001665	28.079	0.049545	0.001971	25.1345	-46.138	-161.85	0.079408	0.184876	-0.842065	-0.843452	0.032782	25.1345	-0.843043	-1.723910E+11	-1.901588E-13	NaN
220	1.000000	0.194234	7.3672e+06	-49639.1	955.818	-29758.7	0.000000	0.000000	6.194815	-0.028008	NaN	0.000000	0.001616	0.001635	28.0793	0.072181	0.001937	37.2653	-97.7807	-164.025	0.004030	0.192914	-0.834095	-0.835415	-0.028008	37.2653	-0.833531	-1.281270E+11	2.185978E-13	NaN
220	1.000000	0.202222	7.3672e+06	-49639.1	955.818	-29758.7	0.000000	0.000000	6.202807	0.054264	NaN	0.000000	0.001628	0.001651	28.0791	0.033474	0.002098	15.9542	94.426	-165.901	0.052324	0.200914	-0.826107	-0.827415	0.054264	15.9542	-0.828657	-1.100493E+11	-4.930860E-13	NaN
220	1.000000	0.210253	7.3672e+06	-49639.1	955.818	-29758.7	0.000000	0.000000	6.210835	0.013632	NaN	0.000000	0.001600	0.001651	28.0793	0.073262	0.002015	36.3644	157.727	-161.984	0.002354	0.208927	-0.818076	-0.819402	0.013632	36.3644	-0.818357	-7.978733E+10	-1.708504E-13	NaN
220	1.000000	0.218231	7.3672e+06	-49639.1	955.817	-29758.7	0.000000	0.000000	6.218814	-0.001770	NaN	0.000000	0.001590	0.001679	28.079	0.045836	0.001966	23.3181	110.667	-164.577	-0.021817	0.216988	-0.810097	-0.811341	-0.001770	23.3181	-0.810040	-6.153462E+10	2.876870E-14	NaN
220	1.000000	0.226239	7.3672e+06	-49639.1	955.818	-29758.7	0.000000	0.000000	6.226821	-0.011633	NaN	0.000000	0.001566	0.001685	28.0791	0.029316	0.001990	14.7302	16.2501	-164.446	-0.066582	0.224918	-0.802090	-0.803411	-0.011633	14.7302	-0.801497	-4.711786E+10	2.468990E-13	NaN
220	1.000000	0.234222	7.3672e+06	-49639.1	955.818	-29758.7	0.000000	0.000000	6.234804	-0.014540	NaN	0.000000	0.001597	0.001672	28.0793	0.025371	0.002010	12.6203	-69.0796	-163.248	0.023955	0.232945	-0.794107	-0.795384	-0.014540	12.6203	-0.793243	-3.640143E+10	3.994373E-13	NaN
220	1.000000	0.242268	7.3672e+06	-49639.1	955.818	-29758.7	0.000000	0.000000	6.242853	0.046793	NaN	0.000000	0.001561	0.001646	28.0791	0.080955	0.002114	38.2981	-34.6373	-164.973	-0.056538	0.240923	-0.786060	-0.787406	0.046793	38.2981	-0.786977	-2.992382E+10	-1.563734E-12	NaN
220	1.000000	0.250278	7.3672e+06	-49639.1	955.817	-29758.7	0.000000	0.000000	6.250859	-0.030530	NaN	0.000000	0.001592	0.001655	28.0803	0.047466	0.001977	24.0063	11.1078	-168.104	0.050230	0.248966	-0.778051	-0.779362	-0.030530	24.0063	-0.777097	-2.196760E+10	1.389778E-12	NaN
220	1.000000	0.258274	7.3672e+06	-49639.1	955.819	-29758.7	0.000000	0.000000	6.258857	0.025619	NaN	0.000000	0.001591	0.001628	28.0802	0.076470	0.002111	36.226	-120.787	-164.32	-0.011867	0.256958	-0.770055	-0.771371	0.025619	36.226	-0.770586	-1.791706E+10	-1.429882E-12	NaN
220	1.000000	0.266264	7.3672e+06	-49639.1	955.82	-29758.7	0.000000	0.000000	6.266847	0.032736	NaN	0.000000	0.001615	0.001673	28.0805	0.046108	0.002098	21.9807	72.414	-164.432	0.043784	0.264974	-0.762065	-0.763354	0.032736	21.9807	-0.763182	-1.420975E+10	-2.303780E-12	NaN
220	1.000000	0.274267	7.3672e+06	-49639.1	955.819	-29758.7	0.000000	0.000000	6.274850	0.008369	NaN	0.000000	0.001600	0.001676	28.0806	0.069096	0.001947	35.4822	-94.7131	-166.174	0.024272	0.272969	-0.754062	-0.755359	0.008369	35.4822	-0.754239	-1.073769E+10	-7.794285E-13	NaN
220	1.000000	0.282234	7.3672e+06	-49639.1	955.818	-29758.7	0.000000	0.000000	6.282820	0.076957	NaN	0.000000	0.001590	0.001638	28.0806	0.036418	0.001941	18.7593	-62.4336	-167.683	0.028323	0.280974	-0.746094	-0.747355	0.076957	18.7593	-0.749171	-9.160836E+9	-8.400620E-12	NaN
220	1.000000	0.290270	7.3672e+06	-49639.1	955.818	-29758.7	0.000000	0.000000	6.290855	0.081551	NaN	0.000000	0.001607	0.001664	28.0807	0.046275	0.001952	23.7011	115.066	-165.467	0.102212	0.288962	-0.738059	-0.739367	0.081551	23.7011	-0.740640	-7.010816E+9	-1.163219E-11	NaN
220	1.000000	0.298242	7.3672e+06	-49639.1	955.817	-29758.7	0.000000	0.000000	6.298823	-0.050364	NaN	0.000000	0.001619	0.001677	28.0804	0.131192	0.001963	66.8157	-143.62	-167.495	-0.029515	0.296975	-0.730086	-0.731354	-0.050364	66.8157	-0.729521	-4.946277E+9	1.018218E-11	NaN
220	1.000000	0.306275	7.3672e+06	-49639.1	955.819	-29758.7	0.000000	0.000000	6.306859	0.036539	NaN	0.000000	0.001607	0.001667	28.0807	0.216906	0.001881	115.302	-113.213	-167.565	0.020300	0.304981	-0.722054	-0.723347	0.036539	115.302	-0.722291	-3.942025E+9	-9.269063E-12	NaN
220	1.000000	0.314268	7.3672e+06	-49639.1	955.818	-29758.7	0.000000	0.000000	6.314852	0.023591	NaN	0.000000	0.001593	0.001680	28.0806	0.069715	0.002016	34.5742	-159.371	-166.921	0.035557	0.312962	-0.714060	-0.715367	0.023591	34.5742	-0.714572	-3.093374E+9	-7.626309E-12	NaN
220	1.000000	0.322290	7.3672e+06	-49639.1	955.817	-29758.7	0.000000	0.000000	6.322875	0.078175	NaN	0.000000	0.001571	0.001661	28.0806	0.053663	0.002009	26.7176	-56.1691	-164.466	0.022561	0.320971	-0.706039	-0.707358	0.078175	26.7176	-0.708233	-2.534755E+9	-3.084109E-11	NaN
220	1.000000	0.330279	7.3672e+06	-49639.1	955.818	-29758.7	0.000000	0.000000	6.330862	-0.002157	NaN	0.000000	0.001614	0.001678	28.0809	0.061020	0.001966	31.0338	132.076	-164.491	-0.017673	0.328948	-0.698049	-0.699381	-0.002157	31.0338	-0.697997	-1.837297E+9	1.174206E-12	NaN
220	1.000000	0.338276	7.3672e+06	-49639.1	955.819	-29758.7	0.000000	0.000000	6.338863	0.104588	NaN	0.000000	0.001582	0.001666	28.0805	0.126526	0.002122	59.6338	110.793	-163.5	-0.013382	0.336986	-0.690053	-0.691343	0.104588	59.6338	-0.691368	-1.491459E+9	-7.012481E-11	NaN
220	1.000000	0.346314	7.3672e+06	-49639.1	955.819	-29758.7	0.000000	0.000000	6.346896	-0.009545	NaN	0.000000	0.001578	0.001641	28.0807	0.059814	0.002002	29.8787	-93.324	-163.534	0.032628	0.344953	-0.682015	-0.683376	-0.009545	29.8787	-0.681775	-1.102771E+9	8.655234E-12	NaN
220	1.000000	0.354300	7.3672e+06	-49639.1	955.817	-29758.7	0.000000	0.000000	6.354883	0.018900	NaN	0.000000	0.001577	0.001658	28.0806	0.086705	0.001942	44.6411	153.895	-167.115	0.072496	0.353008	-0.674028	-0.675321	0.018900	44.6411	-0.674346	-8.726960E+8	-2.165651E-11	NaN
220	1.000000	0.362284	7.3672e+06	-49639.1	955.817	-29758.7	0.000000	0.000000	6.362868	0.032624	NaN	0.000000	0.001598	0.001679	28.0806	0.015906	0.002061	7.717398	25.8105	-165.474	0.004896	0.360999	-0.666044	-0.667330	0.032624	7.717398	-0.669215	-7.424088E+8	-4.394337E-11	NaN
220	1.000000	0.370313	7.3672e+06	-49639.1	955.818	-29758.7	0.000000	0.000000	6.370895	-0.027659	NaN	0.000000	0.001600	0.001657	28.0806	0.106448	0.001989	53.5267	112.108	-165.566	0.006572	0.368996	-0.658015	-0.659332	-0.027659	53.5267	-0.657628	-5.151957E+8	5.368733E-11	NaN
220	1.000000	0.378305	7.3672e+06	-49639.1	955.818	-29758.7	0.000000	0.000000	6.378887	0.004710	NaN	0.000000	0.001587	0.001651	28.0802	0.068898	0.001964	35.0719	110.579	-169.613	0.032032	0.377005	-0.650024	-0.651324	0.004710	35.0719	-0.650125	-4.065784E+8	-1.158490E-11	NaN
220	1.000000	0.386303	7.3672e+06	-49639.1	955.818	-29758.7	0.000000	0.000000	6.386887	0.052341	NaN	0.000000	0.001588	0.001659	28.0801	0.076635	0.001919	39.9417	-35.861	-165.471	0.050758	0.384998	-0.642026	-0.643331	0.052341	39.9417	-0.643009	-3.247640E+8	-1.611675E-10	NaN
220	1.000000	0.394310	7.3672e+06	-49639.1	955.819	-29758.7	0.000000	0.000000	6.394892	-0.014040	NaN	0.000000	0.001579	0.001655	28.0792	0.023253	0.002150	10.8175	39.4533	-166.967	0.010093	0.392964	-0.634019	-0.635365	-0.014040	10.8175	-0.633045	-2.370485E+8	5.923041E-11	NaN
220	1.000000	0.402294	7.3672e+06	-49639.1	955.817	-29758.7	0.000000	0.000000	6.402879	0.068708	NaN	0.000000	0.001613	0.001653	28.0791	0.048060	0.001992	24.1209	159.587	-168.003	0.046389	0.401019	-0.626035	-0.627310	0.068708	24.1209	-0.628171	-2.031926E+8	-3.381415E-10	NaN
220	1.000000	0.410298	7.3672e+06	-49639.1	955.818	-29758.7	0.000000	0.000000	6.410881	0.021733	NaN	0.000000	0.001614	0.001623	28.0791	0.037838	0.001999	18.9294	173.351	-165.125	0.000762	0.408989	-0.618031	-0.619340	0.021733	18.9294	-0.618892	-1.514955E+8	-1.434553E-10	NaN
220	1.000000	0.418322	7.3672e+06	-49639.1	955.818	-29758.7	0.000000	0.000000	6.418906	0.046333	NaN	0.000000	0.001636	0.001691	28.0792	0.064253	0.001951	32.9404	-168.298	-165.316	0.008725	0.417006	-0.610007	-0.611323	0.046333	32.9404	-0.611062	-1.182284E+8	-3.918904E-10	NaN
220	1.000000	0.426323	7.3672e+06	-49639.1	955.818	-29758.7	0.000000	0.000000	6.426905	-0.001313	NaN	0.000000	0.001591	0.001639	28.0792	0.117160	0.002045	57.2911	109.558	-164.306	0.028024	0.424996	-0.602005	-0.603332	-0.001313	57.2911	-0.601988	-8.868313E+7	1.480993E-11	NaN
220	1.000000	0.434314	7.3672e+06	-49639.1	955.819	-29758.7	0.000000	0.000000	6.434895	-0.014515	NaN	0.000000	0.001586	0.001648	28.0792	0.052909	0.001961	26.9802	138.94	-164.392	-0.027280	0.433008	-0.594015	-0.595321	-0.014515	26.9802	-0.593612	-6.799036E+7	2.134839E-10	NaN
220	1.000000	0.442331	7.3672e+06	-49639.1	955.817	-29758.7	0.000000	0.000000	6.442915	0.029440	NaN	0.000000	0.001560	0.001640	28.0793	0.089188	0.001972	45.2299	-93.5337	-164.194	0.075123	0.441015	-0.585997	-0.587314	0.029440	45.2299	-0.586486	-5.422583E+7	-5.429103E-10	NaN
220	1.000000	0.450357	7.3672e+06	-49639.1	955.819	-29758.7	0.000000	0.000000	6.450939	0.010070	NaN	0.000000	0.001572	0.001653	28.0789	0.089462	0.001926	46.45	67.5503	-167.472	-0.017168	0.449056	-0.577972	-0.579272	0.010070	46.45	-0.578135	-4.158894E+7	-2.421303E-10	NaN
220	1.000000	0.458337	7.3672e+06	-49639.1	955.819	-29758.7	0.000000	0.000000	6.458921	0.042366	NaN	0.000000	0.001577	0.001664	28.079	0.031039	0.002102	14.7631	-36.0288	-165.351	0.048286	0.457088	-0.569991	-0.571241	0.042366	14.7631	-0.572144	-3.437540E+7	-1.232442E-9	NaN
220	1.000000	0.466335	7.3672e+06	-49639.1	955.818	-29758.7	0.000000	0.000000	6.466918	0.014760	NaN	0.000000	0.001576	0.001680	28.079	0.029753	0.002025	14.6929	177.139	-165.873	0.023812	0.465094	-0.561993	-0.563234	0.014760	14.6929	-0.562747	-2.549010E+7	-5.790636E-10	NaN
220	1.000000	0.474338	7.3672e+06	-49639.1	955.817	-29758.7	0.000000	0.000000	6.474922	0.039102	NaN	0.000000	0.001580	0.001671	28.0791	0.040743	0.002009	20.281	-16.6595	-165.842	0.032656	0.473050	-0.553990	-0.555279	0.039102	20.281	-0.555436	-2.019421E+7	-1.936286E-9	NaN
220	1.000000	0.482382	7.3672e+06	-49639.1	955.818	-29758.7	0.000000	0.000000	6.482965	0.019484	NaN	0.000000	0.001607	0.001654	28.0794	0.052164	0.002042	25.5499	8.029449	-164.166	0.052490	0.481058	-0.545947	-0.547270	0.019484	25.5499	-0.546519	-1.519604E+7	-1.282204E-9	NaN
220	1.000000	0.490371	7.3672e+06	-49639.1	955.818	-29758.7	0.000000	0.000000	6.490956	0.064095	NaN	0.000000	0.001608	0.001620	28.0789	0.088219	0.001932	45.6697	-111.965	-164.773	0.026119	0.489049	-0.537958	-0.539280	0.064095	45.6697	-0.539010	-1.195731E+7	-5.360331E-9	NaN
220	1.000000	0.498360	7.3672e+06	-49639.1	955.818	-29758.7	0.000000	0.000000	6.498946	0.071344	NaN	0.000000	0.001605	0.001644	28.0793	0.112855	0.002074	54.4269	-144.597	-165.558	0.007042	0.497015	-0.529968	-0.531314	0.071344	54.4269	-0.530951	-9.24244e+06	-7.719146E-9	NaN
220	1.000000	0.506341	7.3672e+06	-49639.1	955.819	-29758.7	0.000000	0.000000	6.506926	0.064500	NaN	0.000000	0.001608	0.001657	28.079	0.061972	0.001839	33.7079	-11.9391	-163.323	0.065377	0.505021	-0.521988	-0.523308	0.064500	33.7079	-0.523423	-7.26433e+06	-8.878966E-9	NaN
220	1.000000	0.514368	7.3672e+06	-49639.1	955.818	-29758.7	0.000000	0.000000	6.514951	0.002395	NaN	0.000000	0.001562	0.001622	28.079	0.098726	0.001987	49.6785	70.4826	-164.659	-0.012577	0.513077	-0.513960	-0.515251	0.002395	49.6785	-0.513996	-5.37111e+06	-4.458332E-10	NaN
220	1.000000	0.522375	7.3672e+06	-49639.1	955.818	-29758.7	0.000000	0.000000	6.522963	0.114777	NaN	0.000000	0.001564	0.001587	28.0794	0.083386	0.002059	40.5056	-170.611	-166.979	0.110642	0.521086	-0.505953	-0.507243	0.114777	40.5056	-0.508078	-4.4427e+06	-2.583507E-8	NaN
220	1.000000	0.530360	7.3672e+06	-49639.1	955.818	-29758.7	0.000000	0.000000	6.530944	0.035324	NaN	0.000000	0.001591	0.001673	28.0803	0.015037	0.001865	8.064665	-143.078	-164.503	0.022179	0.529081	-0.497969	-0.499248	0.035324	8.064665	-0.501254	-3.56868e+06	-9.898299E-9	NaN
220	1.000000	0.538377	7.3672e+06	-49639.1	955.818	-29758.7	0.000000	0.000000	6.538959	-0.017394	NaN	0.000000	0.001645	0.001677	28.0808	0.043668	0.001875	23.2956	111.272	-163.114	-0.044105	0.537044	-0.489952	-0.491285	-0.017394	23.2956	-0.489392	-2.43719e+06	7.136893E-9	NaN
220	1.000000	0.546376	7.3672e+06	-49639.1	955.818	-29758.7	0.000000	0.000000	6.546959	0.004621	NaN	0.000000	0.001595	0.001671	28.0803	0.076904	0.001929	39.874	-173.279	-164.541	0.039011	0.545025	-0.481953	-0.483304	0.004621	39.874	-0.482040	-1.92342e+06	-2.402384E-9	NaN
220	1.000000	0.554352	7.3672e+06	-49639.1	955.818	-29758.7	0.000000	0.000000	6.554938	0.081486	NaN	0.000000	0.001627	0.001699	28.0803	0.113236	0.002091	54.165	-158.441	-164.987	0.095933	0.553058	-0.473977	-0.475271	0.081486	54.165	-0.475105	-1.53805e+06	-5.297996E-8	NaN
220	1.000000	0.562400	7.3672e+06	-49639.1	955.817	-29758.7	0.000000	0.000000	6.562984	0.041478	NaN	0.000000	0.001644	0.001663	28.0802	0.060346	0.002044	29.5191	126.619	-167.956	0.036989	0.561125	-0.465929	-0.467204	0.041478	29.5191	-0.466983	-1.18325e+06	-3.505459E-8	NaN
220	1.000000	0.570376	7.3672e+06	-49639.1	955.818	-29758.7	0.000000	0.000000	6.570959	0.017641	NaN	0.000000	0.001624	0.001648	28.0802	0.077130	0.002008	38.4078	-159.664	-166.831	0.047063	0.569019	-0.457953	-0.459310	0.017641	38.4078	-0.458297	-893473	-1.974404E-8	NaN
220	1.000000	0.578386	7.3672e+06	-49639.1	955.818	-29758.7	0.000000	0.000000	6.578971	0.051197	NaN	0.000000	0.001610	0.001619	28.0806	0.075210	0.001947	38.636	-156.019	-166.56	0.038567	0.577081	-0.449942	-0.451248	0.051197	38.636	-0.450936	-703920	-7.273093E-8	NaN
220	1.000000	0.586400	7.3672e+06	-49639.1	955.818	-29758.7	0.000000	0.000000	6.586984	0.039990	NaN	0.000000	0.001607	0.001626	28.0804	0.012308	0.002033	6.053282	-106.672	-163.962	0.094469	0.585103	-0.441929	-0.443226	0.039990	6.053282	-0.446883	-617217	-6.479039E-8	NaN
220	1.000000	0.594378	7.3672e+06	-49639.1	955.818	-29758.7	0.000000	0.000000	6.594959	-0.011203	NaN	0.000000	0.001646	0.001655	28.0806	0.098835	0.002147	46.0388	46.1535	-164.319	-0.018940	0.593103	-0.433951	-0.435226	-0.011203	46.0388	-0.433769	-403043	2.779584E-8	NaN
220	1.000000	0.602399	7.3672e+06	-49639.1	955.817	-29758.7	0.000000	0.000000	6.602986	0.092871	NaN	0.000000	0.001585	0.001655	28.0805	0.037430	0.002056	18.2092	31.4037	-167.418	0.096893	0.601088	-0.425929	-0.427241	0.092871	18.2092	-0.429754	-353662	-2.625977E-7	NaN
220	1.000000	0.610397	7.3672e+06	-49639.1	955.818	-29758.7	0.000000	0.000000	6.610982	0.070234	NaN	0.000000	0.001617	0.001640	28.0805	0.065917	0.002107	31.2876	120.969	-165.794	0.004210	0.609089	-0.417932	-0.419240	0.070234	31.2876	-0.419615	-254073	-2.764328E-7	NaN
220	1.000000	0.618427	7.3672e+06	-49639.1	955.818	-29758.7	0.000000	0.000000	6.619012	0.071732	NaN	0.000000	0.001633	0.001681	28.0807	0.032940	0.001978	16.6519	-124.897	-163.094	-0.063213	0.617126	-0.409902	-0.411203	0.071732	16.6519	-0.413133	-205557	-3.489649E-7	NaN
220	1.000000	0.626391	7.3672e+06	-49639.1	955.818	-29758.7	0.000000	0.000000	6.626978	0.117551	NaN	0.000000	0.001618	0.001677	28.0806	0.036246	0.001991	18.2007	-42.6867	-166.632	0.071383	0.625092	-0.401938	-0.403237	0.117551	18.2007	-0.406782	-166962	-7.040603E-7	NaN
220	1.000000	0.634415	7.3672e+06	-49639.1	955.818	-29758.7	0.000000	0.000000	6.634997	-0.014233	NaN	0.000000	0.001619	0.001693	28.0808	0.072130	0.001948	37.0344	77.2276	-165.828	0.005485	0.633099	-0.393913	-0.395230	-0.014233	37.0344	-0.393625	-108392	1.313154E-7	NaN
220	1.000000	0.642413	7.3672e+06	-49639.1	955.818	-29758.7	0.000000	0.000000	6.642994	-0.049786	NaN	0.000000	0.001642	0.001680	28.0808	0.030764	0.002011	15.3004	-149.405	-165.082	-0.131679	0.641140	-0.385915	-0.387189	-0.049786	15.3004	-0.383475	-77576.7	6.417649E-7	NaN
220	1.000000	0.650438	7.3672e+06	-49639.1	955.819	-29758.7	0.000000	0.000000	6.651026	0.126880	NaN	0.000000	0.001676	0.001667	28.0807	0.089342	0.001971	45.3269	-122.135	-160.677	-0.003767	0.649079	-0.377891	-0.379249	0.126880	45.3269	-0.379990	-69142.9	-1.835034E-6	NaN
220	1.000000	0.658435	7.3672e+06	-49639.1	955.819	-29758.7	0.000000	0.000000	6.659022	0.095094	NaN	0.000000	0.001645	0.001682	28.0805	0.054175	0.002049	26.4448	38.0347	-166.812	0.128035	0.657087	-0.369893	-0.371241	0.095094	26.4448	-0.372590	-54127.2	-1.756867E-6	NaN
220	1.000000	0.666436	7.3672e+06	-49639.1	955.818	-29758.7	0.000000	0.000000	6.667021	0.065501	NaN	0.000000	0.001641	0.001659	28.0792	0.005251	0.001964	2.673243	112.251	-167.467	0.071974	0.665101	-0.361893	-0.363228	0.065501	2.673243	-0.380270	-69784.5	-9.386156E-7	NaN
220	1.000000	0.674394	7.3672e+06	-49639.1	955.817	-29758.7	0.000000	0.000000	6.674978	0.061165	NaN	0.000000	0.001618	0.001665	28.0797	0.057540	0.001998	28.8005	-111.466	-164.975	0.005737	0.673098	-0.353935	-0.355231	0.061165	28.8005	-0.355528	-30700.3	-1.992331E-6	NaN
220	1.000000	0.682443	7.3672e+06	-49639.1	955.818	-29758.7	0.000000	0.000000	6.683028	0.062835	NaN	0.000000	0.001641	0.001636	28.0796	0.071619	0.001989	36.0065	-39.5325	-165.417	0.072927	0.681133	-0.345886	-0.347195	0.062835	36.0065	-0.347195	-23241.5	-2.703590E-6	NaN
220	1.000000	0.690444	7.3672e+06	-49639.1	955.817	-29758.7	0.000000	0.000000	6.691029	0.075233	NaN	0.000000	0.001675	0.001661	28.0795	0.063026	0.001991	31.6597	47.4288	-162.916	0.070945	0.689120	-0.337885	-0.339209	0.075233	31.6597	-0.339667	-18059.2	-4.165892E-6	NaN
220	1.000000	0.698447	7.3672e+06	-49639.1	955.819	-29758.7	0.000000	0.000000	6.699030	0.005170	NaN	0.000000	0.001630	0.001683	28.0794	0.094602	0.001987	47.6167	-54.9578	-168.242	-0.002523	0.697129	-0.329882	-0.331200	0.005170	47.6167	-0.329963	-13028.9	-3.968005E-7	NaN
220	1.000000	0.706465	7.3672e+06	-49639.1	955.818	-29758.7	0.000000	0.000000	6.707047	0.000361	NaN	0.000000	0.001637	0.001651	28.0795	0.061855	0.002019	30.6406	-156.327	-165.029	0.075940	0.705099	-0.321864	-0.323230	0.000361	30.6406	-0.321873	-9912.61	-3.644084E-8	NaN
220	1.000000	0.714433	7.3672e+06	-49639.1	955.818	-29758.7	0.000000	0.000000	6.715018	0.067094	NaN	0.000000	0.001680	0.001654	28.0796	0.032418	0.001968	16.4721	-6.339319	-165.715	0.071130	0.713142	-0.313896	-0.315186	0.067094	16.4721	-0.316951	-8389.22	-7.997637E-6	NaN
220	1.000000	0.722464	7.3672e+06	-49639.1	955.818	-29758.7	0.000000	0.000000	6.723051	0.098067	NaN	0.000000	0.001654	0.001687	28.0796	0.105824	0.002066	51.2186	131.321	-166.859	-0.012861	0.721157	-0.305864	-0.307172	0.098067	51.2186	-0.307300	-6040.51	-1.623496E-5	NaN
220	1.000000	0.730450	7.3672e+06	-49639.1	955.818	-29758.7	0.000000	0.000000	6.731034	0.039397	NaN	0.000000	0.001664	0.001659	28.0799	0.148001	0.002045	72.3775	57.8436	-170.178	0.073467	0.729120	-0.297878	-0.299208	0.039397	72.3775	-0.298287	-4437.28	-8.878727E-6	NaN
220	1.000000	0.738418	7.3672e+06	-49639.1	955.819	-29758.7	0.000000	0.000000	6.739001	0.024831	NaN	0.000000	0.001636	0.001674	28.0802	0.066321	0.002077	31.9277	-39.5972	-165.996	-0.022199	0.737168	-0.289911	-0.291161	0.024831	31.9277	-0.290494	-3393.97	-7.316265E-6	NaN
220	1.000000	0.746454	7.3672e+06	-49639.1	955.817	-29758.7	0.000000	0.000000	6.747038	0.057881	NaN	0.000000	0.001656	0.001654	28.0796	0.042633	0.001862	22.8909	-34.5588	-163.699	0.068118	0.745124	-0.281875	-0.283205	0.057881	22.8909	-0.283771	-2690.24	-2.151513E-5	NaN
220	1.000000	0.754464	7.3672e+06	-49639.1	955.819	-29758.7	0.000000	0.000000	6.755049	0.059721	NaN	0.000000	0.001633	0.001642	28.0794	0.067692	0.002018	33.538	-162.159	-168.508	0.025859	0.753140	-0.273865	-0.275189	0.059721	33.538	-0.275200	-1997.27	-2.990135E-5	NaN
220	1.000000	0.762488	7.3672e+06	-49639.1	955.819	-29758.7	0.000000	0.000000	6.763072	0.050723	NaN	0.000000	0.001600	0.001731	28.0793	0.053259	0.002000	26.6326	-3.646824	-168.412	0.045314	0.761189	-0.265841	-0.267139	0.050723	26.6326	-0.267269	-1513.54	-3.351278E-5	NaN
220	1.000000	0.770478	7.3672e+06	-49639.1	955.817	-29758.7	0.000000	0.000000	6.771059	-0.021135	NaN	0.000000	0.001611	0.001707	28.0797	0.128196	0.001948	65.8077	-80.9628	-164.66	0.007790	0.769154	-0.257851	-0.259175	-0.021135	65.8077	-0.257610	-1077.08	1.962251E-5	NaN
220	1.000000	0.778502	7.3672e+06	-49639.1	955.817	-29758.7	0.000000	0.000000	6.779086	0.054797	NaN	0.000000	0.001613	0.001706	28.0792	0.030220	0.002044	14.7852	-35.8138	-162.55	0.059963	0.777159	-0.249827	-0.251169	0.054797	14.7852	-0.252607	-902.053	-6.074664E-5	NaN
220	1.000000	0.786457	7.3672e+06	-49639.1	955.818	-29758.7	0.000000	0.000000	6.787040	0.007061	NaN	0.000000	0.001593	0.001688	28.0795	0.024328	0.001889	12.8802	-30.1647	-163.669	0.044573	0.785167	-0.241871	-0.243162	0.007061	12.8802	-0.242283	-623.969	-1.131688E-5	NaN
220	1.000000	0.794465	7.3672e+06	-49639.1	955.818	-29758.7	0.000000	0.000000	6.795049	0.062888	NaN	0.000000	0.001613	0.001707	28.0793	0.043429	0.001902	22.8339	31.2944	-168.016	0.041918	0.793238	-0.233864	-0.235091	0.062888	22.8339	-0.235930	-496.41	-0.000127	NaN
220	1.000000	0.802485	7.3672e+06	-49639.1	955.818	-29758.7	0.000000	0.000000	6.803069	0.043005	NaN	0.000000	0.001592	0.001686	28.0805	0.050094	0.002074	24.1559	-8.176171	-166.124	-0.006172	0.801202	-0.225844	-0.227127	0.043005	24.1559	-0.227179	-361.329	-0.000119	NaN
220	1.000000	0.810488	7.3672e+06	-49639.1	955.818	-29758.7	0.000000	0.000000	6.811071	0.020465	NaN	0.000000	0.001601	0.001681	28.0808	0.115522	0.002003	57.6872	29.8172	-166.192	0.027409	0.809167	-0.217841	-0.219162	0.020465	57.6872	-0.218107	-259.049	-7.899958E-5	NaN
220	1.000000	0.818486	7.3672e+06	-49639.1	955.818	-29758.7	0.000000	0.000000	6.819069	0.011899	NaN	0.000000	0.001597	0.001657	28.0805	0.117867	0.002107	55.9464	22.607	-165.719	0.017850	0.817180	-0.209843	-0.211149	0.011899	55.9464	-0.210002	-191.803	-6.203969E-5	NaN
220	1.000000	0.826500	7.3672e+06	-49639.1	955.818	-29758.7	0.000000	0.000000	6.827085	0.047541	NaN	0.000000	0.001596	0.001654	28.0808	0.083839	0.002004	41.8329	-87.8287	-163.063	-0.026186	0.825228	-0.201828	-0.203101	0.047541	41.8329	-0.202681	-145.769	-0.000326	NaN
220	1.000000	0.834507	7.3672e+06	-49639.1	955.818	-29758.7	0.000000	0.000000	6.835090	0.011306	NaN	0.000000	0.001614	0.001712	28.0804	0.068829	0.002053	33.5191	-114.536	-165.623	0.076903	0.833189	-0.193822	-0.195140	0.011306	33.5191	-0.194074	-105.162	-0.000108	NaN
220	1.000000	0.842503	7.3672e+06	-49639.1	955.818	-29758.7	0.000000	0.000000	6.843087	0.041137	NaN	0.000000	0.001608	0.001694	28.0805	0.066733	0.002057	32.4489	170.921	-164.746	0.037451	0.841180	-0.185826	-0.187149	0.041137	32.4489	-0.186777	-79.4387	-0.000518	NaN
220	1.000000	0.850493	7.3672e+06	-49639.1	955.818	-29758.7	0.000000	0.000000	6.851077	0.029091	NaN	0.000000	0.001554	0.001657	28.0806	0.127934	0.001900	67.3194	119.388	-165.132	0.002378	0.849190	-0.177836	-0.179139	0.029091	67.3194	-0.178160	-56.7676	-0.000512	NaN
220	1.000000	0.858509	7.3672e+06	-49639.1	955.817	-29758.7	0.000000	0.000000	6.859094	0.063195	NaN	0.000000	0.001562	0.001710	28.0804	0.045885	0.002050	22.3833	-50.1335	-165.473	0.037685	0.857181	-0.169819	-0.171148	0.063195	22.3833	-0.171937	-44.379	-0.001424	NaN
220	1.000000	0.866498	7.3672e+06	-49639.1	955.818	-29758.7	0.000000	0.000000	6.867081	0.001927	NaN	0.000000	0.001570	0.001684	28.0806	0.077890	0.002015	38.6526	137.08	-165.478	0.025949	0.865228	-0.161830	-0.163101	0.001927	38.6526	-0.161868	-29.5868	-6.511757E-5	NaN
220	1.000000	0.874522	7.3672e+06	-49639.1	955.818	-29758.7	0.000000	0.000000	6.875105	0.015838	NaN	0.000000	0.001579	0.001651	28.0804	0.022222	0.002018	11.0138	55.5488	-164.445	0.114035	0.873178	-0.153807	-0.155150	0.015838	11.0138	-0.154886	-22.2086	-0.000713	NaN
220	1.000000	0.882499	7.3672e+06	-49639.1	955.817	-29758.7	0.000000	0.000000	6.883084	0.055540	NaN	0.000000	0.001573	0.001685	28.0805	0.087547	0.002085	41.98	132.973	-163.534	-0.024277	0.881199	-0.145830	-0.147129	0.055540	41.98	-0.146822	-15.841	-0.003506	NaN
220	1.000000	0.890500	7.3672e+06	-49639.1	955.818	-29758.7	0.000000	0.000000	6.891078	-0.102157	NaN	0.000000	0.001568	0.001701	28.0804	0.171701	0.002017	85.1187	63.1201	-166.858	0.002155	0.889208	-0.137829	-0.139120	-0.102157	85.1187	-0.136929	-10.3512	0.009869	NaN
220	1.000000	0.898532	7.3672e+06	-49639.1	955.819	-29758.7	0.000000	0.000000	6.899115	0.010257	NaN	0.000000	0.001569	0.001677	28.0803	0.050271	0.002036	24.6857	33.438	-164.411	-0.002178	0.897200	-0.129797	-0.131129	0.010257	24.6857	-0.130108	-7.658057	-0.001339	NaN
220	1.000000	0.906504	7.3672e+06	-49639.1	955.819	-29758.7	0.000000	0.000000	6.907087	0.002613	NaN	0.000000	0.001562	0.001699	28.0805	0.029510	0.001952	15.1186	-122.743	-166.713	0.038258	0.905216	-0.121824	-0.123113	0.002613	15.1186	-0.121954	-5.288847	-0.000494	NaN
220	1.000000	0.914505	7.3672e+06	-49639.1	955.818	-29758.7	0.000000	0.000000	6.915087	-0.016198	NaN	0.000000	0.001587	0.001657	28.0804	0.055661	0.001948	28.5717	96.1774	-168.408	0.059310	0.913268	-0.113824	-0.115061	-0.016198	28.5717	-0.113399	-3.539789	0.004576	NaN
220	1.000000	0.922548	7.3672e+06	-49639.1	955.818	-29758.7	0.000000	0.000000	6.923132	0.056004	NaN	0.000000	0.001567	0.001629	28.0805	0.062378	0.001955	31.9025	-7.480865	-167.981	-0.018883	0.921230	-0.105781	-0.107099	0.056004	31.9025	-0.107098	-2.607668	-0.021477	NaN
220	1.000000	0.930546	7.3672e+06	-49639.1	955.818	-29758.7	0.000000	0.000000	6.931130	0.041295	NaN	0.000000	0.001553	0.001657	28.0804	0.080447	0.002006	40.1057	-122.216	-167.599	0.068380	0.929207	-0.097783	-0.099122	0.041295	40.1057	-0.098555	-1.696753	-0.024337	NaN
220	1.000000	0.938515	7.3672e+06	-49639.1	955.818	-29758.7	0.000000	0.000000	6.939095	-0.052222	NaN	0.000000	0.001559	0.001641	28.0791	0.009390	0.001948	4.820112	-37.9645	-168.678	-0.049211	0.937271	-0.089814	-0.091057	-0.052222	4.820112	-0.081688	-0.681800	0.076594	NaN
220	1.000000	0.946554	7.3672e+06	-49639.1	955.818	-29758.7	0.000000	0.000000	6.947137	0.014012	NaN	0.000000	0.001626	0.001657	28.0794	0.032685	0.002076	15.7412	110.845	-167.236	0.004996	0.945211	-0.081775	-0.083118	0.014012	15.7412	-0.082442	-0.711649	-0.019689	NaN
220	1.000000	0.954541	7.3672e+06	-49639.1	955.818	-29758.7	0.000000	0.000000	6.955123	-0.009934	NaN	0.000000	0.001625	0.001634	28.0792	0.092488	0.002020	45.7774	-140.257	-166.292	0.030794	0.953234	-0.073788	-0.075095	-0.009934	45.7774	-0.073625	-0.425384	0.023353	NaN
220	1.000000	0.962545	7.3672e+06	-49639.1	955.818	-29758.7	0.000000	0.000000	6.963129	0.046166	NaN	0.000000	0.001635	0.001650	28.0795	0.083788	0.002044	40.9953	-41.727	-166.035	0.056221	0.961301	-0.065784	-0.067028	0.046166	40.9953	-0.066629	-0.276374	-0.167043	NaN
220	1.000000	0.970525	7.3672e+06	-49639.1	955.819	-29758.7	0.000000	0.000000	6.971107	-0.010645	NaN	0.000000	0.001667	0.001657	28.0791	0.054921	0.002182	25.1718	149.399	-164.71	-0.085011	0.969258	-0.057803	-0.059071	-0.010645	25.1718	-0.057486	-0.152341	0.069880	NaN
220	1.000000	0.978549	7.3672e+06	-49639.1	955.818	-29758.7	0.000000	0.000000	6.979130	-0.036355	NaN	0.000000	0.001656	0.001616	28.0792	0.067386	0.001866	36.1169	31.3864	-164.998	-0.067377	0.977260	-0.049780	-0.051068	-0.036355	36.1169	-0.049025	-0.085251	0.426448	NaN
220	1.000000	0.986581	7.3672e+06	-49639.1	955.818	-29758.7	0.000000	0.000000	6.987166	0.052641	NaN	0.000000	0.001675	0.001712	28.0792	0.095169	0.002020	47.1032	167.919	-166.318	-0.005386	0.985197	-0.041748	-0.043132	0.052641	47.1032	-0.042586	-0.054221	-0.970859	NaN
220	1.000000	0.994589	7.3672e+06	-49639.1	955.817	-29758.7	0.000000	0.000000	6.995171	0.002136	NaN	0.000000	0.001663	0.001660	28.0794	0.135043	0.001994	67.7179	-34.5492	-165.654	-0.035494	0.993274	-0.033740	-0.035055	0.002136	67.7179	-0.033764	-0.029463	-0.072514	NaN
220	1.000000	1.002560	7.3672e+06	-49639.1	955.818	-29758.7	0.000000	0.000000	7.003143	-0.000145	NaN	0.000000	0.001628	0.001657	28.0794	0.081507	0.001993	40.8941	-127.753	-166.188	0.025484	1.001246	-0.025768	-0.027083	-0.000145	40.8941	-0.025766	-0.017669	0.008224	NaN
220	1.000000	1.010590	7.3672e+06	-49639.1	955.818	-29758.7	0.000000	0.000000	7.011172	-0.002493	NaN	0.000000	0.001593	0.001628	28.0791	0.067921	0.002022	33.5918	64.1522	-166.969	0.007573	1.009205	-0.017739	-0.019123	-0.002493	33.5918	-0.017683	-0.010953	0.227640	NaN
220	1.000000	1.018589	7.3672e+06	-49639.1	955.817	-29758.7	0.000000	0.000000	7.019172	0.026935	NaN	0.000000	0.001593	0.001648	28.0795	0.108806	0.001955	55.6644	-178.807	-165.019	0.080817	1.017249	-0.009740	-0.011080	0.026935	55.6644	-0.010103	-0.006446	-4.178399	NaN
220	1.000000	1.026580	7.3672e+06	-49639.1	955.818	-29758.7	0.000000	0.000000	7.027163	0.034390	NaN	0.000000	0.001606	0.001676	28.0794	0.206174	0.001986	103.788	29.8991	-163.983	0.072719	1.025254	-0.001749	-0.003075	0.034390	103.788	-0.001998	-0.001438	-23.9206	NaN
220	1.000000	1.034537	7.3672e+06	-49639.1	955.818	-29758.7	0.000000	0.000000	7.035378	6.277450	NaN	0.000000	0.001602	0.001669	28.0794	6.101178	0.001739	3508.31	7.261029	-166.038	4.439881	1.033243	0.006208	0.004914	6.277450	3508.31	0.004866	0.004012	1564.75	50605.9
220	2.000000	1.038185	7.3672e+06	-49639.1	955.818	-29758.7	0.000000	0.000000	7.039185	10.152	NaN	0.000000	0.001630	0.001696	28.0797	9.867778	0.001710	5770.14	10.2255	-173.9	10.374	1.037826	0.009856	0.009498	10.152	5770.14	0.008537	0.007600	1335.72	60470.2
220	2.000000	1.040108	7.3672e+06	-49639.1	955.818	-29758.7	0.000000	0.000000	7.041236	13.2835	NaN	0.000000	0.001600	0.001689	28.0793	11.4285	0.001580	7233.13	6.428093	-173.065	12.8038	1.039842	0.011779	0.011513	13.2835	7233.13	0.010401	0.009631	1379.23	67338.2
220	2.000000	1.042094	7.3672e+06	-49639.1	955.818	-29758.7	0.000000	0.000000	7.043457	18.9793	NaN	0.000000	0.001615	0.001688	28.0796	14.1662	0.001677	8445.48	3.362488	-171.339	17.7081	1.041744	0.013765	0.013416	18.9793	8445.48	0.012080	0.011586	1638.18	71686.6
220	2.000000	1.044154	7.3672e+06	-49639.1	955.818	-29758.7	0.000000	0.000000	7.045559	20.0067	NaN	0.000000	0.001613	0.001692	28.0793	16.7828	0.001763	9520.39	8.680452	-177.477	20.38	1.043838	0.015825	0.015510	20.0067	9520.39	0.014249	0.014297	1399.39	72746
220	2.000000	1.046106	7.3672e+06	-49639.1	955.818	-29758.7	0.000000	0.000000	7.047653	23.4444	NaN	0.000000	0.001581	0.001675	28.0805	18.0295	0.001718	10493.6	3.990738	-175.475	22.6306	1.045811	0.017777	0.017482	23.4444	10493.6	0.016102	0.016783	1396.93	74005.5
220	2.000000	1.048053	7.3672e+06	-49639.1	955.817	-29758.7	0.000000	0.000000	7.049696	25.8037	NaN	0.000000	0.001593	0.001652	28.0806	21.5481	0.002067	10426	8.054102	-176.214	25.3438	1.047773	0.019724	0.019444	25.8037	10426	0.017868	0.019302	1336.83	68562.7
220	2.000000	1.050067	7.3672e+06	-49639.1	955.817	-29758.7	0.000000	0.000000	7.051862	29.475	NaN	0.000000	0.001617	0.001670	28.0804	22.4543	0.001762	12744.9	5.062756	-177.694	28.765	1.049839	0.021739	0.021510	29.475	12744.9	0.020004	0.022549	1307.15	77543.8
220	2.000000	1.052063	7.3672e+06	-49639.1	955.818	-29758.7	0.000000	0.000000	7.054142	36.4	NaN	0.000000	0.001611	0.001652	28.0815	24.3957	0.001799	13563.3	2.314901	-174.982	34.8862	1.051756	0.023734	0.023428	36.4	13563.3	0.021721	0.025320	1437.61	77877.1
220	2.000000	1.054089	7.3672e+06	-49639.1	955.818	-29758.7	0.000000	0.000000	7.056371	41.3465	NaN	0.000000	0.001608	0.001666	28.0806	26.171	0.001724	15182.6	3.346071	-176.981	39.9104	1.053760	0.025760	0.025431	41.3465	15182.6	0.023718	0.028724	1439.43	81845.6
220	2.000000	1.056020	7.3672e+06	-49639.1	955.817	-29758.7	0.000000	0.000000	7.058442	44.7593	NaN	0.000000	0.001626	0.001656	28.0806	28.1956	0.001702	16566.5	4.334956	-179.743	42.3065	1.055732	0.027691	0.027403	44.7593	16566.5	0.025665	0.032236	1388.5	84301.6
220	2.000000	1.058066	7.3672e+06	-49639.1	955.818	-29758.7	0.000000	0.000000	7.060760	51.3459	NaN	0.000000	0.001589	0.001681	28.0806	30.3336	0.001825	16623	4.409225	-178.618	51.0873	1.057711	0.029738	0.029382	51.3459	16623	0.027421	0.035568	1443.61	80529.5
220	2.000000	1.060046	7.3672e+06	-49639.1	955.817	-29758.7	0.000000	0.000000	7.062950	56.458	NaN	0.000000	0.001615	0.001677	28.0803	31.972	0.001886	16950.5	6.944886	178.068	55.0113	1.059737	0.031718	0.031408	56.458	16950.5	0.029219	0.039142	1442.41	78277.5
220	2.000000	1.062057	7.3672e+06	-49639.1	955.817	-29758.7	0.000000	0.000000	7.065109	60.0693	NaN	0.000000	0.001616	0.001660	28.081	34.6926	0.001770	19602.3	7.808892	175.294	58.2591	1.061720	0.033728	0.033391	60.0693	19602.3	0.031430	0.043760	1372.71	85613.7
220	2.000000	1.064043	7.3672e+06	-49639.1	955.818	-29758.7	0.000000	0.000000	7.067499	69.9046	NaN	0.000000	0.001603	0.001652	28.0805	36.1295	0.001835	19694	3.326323	-178.69	68.4863	1.063779	0.035714	0.035450	69.9046	19694	0.033052	0.047307	1477.69	82726.5
220	2.000000	1.066054	7.3672e+06	-49639.1	955.817	-29758.7	0.000000	0.000000	7.069676	73.9127	NaN	0.000000	0.001626	0.001633	28.0807	38.227	0.001915	19966	6.833531	178.059	73.9232	1.065810	0.037726	0.037481	73.9127	19966	0.034949	0.051628	1431.64	80282.9
220	2.000000	1.068013	7.3672e+06	-49639.1	955.817	-29758.7	0.000000	0.000000	7.071917	80.7952	NaN	0.000000	0.001596	0.001642	28.0805	40.4696	0.001862	21733.9	8.670794	174.707	80.0142	1.067694	0.039684	0.039365	80.7952	21733.9	0.036896	0.056252	1436.3	83722.1
220	2.000000	1.070055	7.3672e+06	-49639.1	955.817	-29758.7	0.000000	0.000000	7.074212	86.9494	NaN	0.000000	0.001603	0.001668	28.0804	41.3122	0.001920	21516.1	10.122	174.902	87.7542	1.069697	0.041726	0.041368	86.9494	21516.1	0.038695	0.060699	1432.46	79789.2
220	2.000000	1.072042	7.3672e+06	-49639.1	955.818	-29758.7	0.000000	0.000000	7.076336	90.2684	NaN	0.000000	0.001639	0.001640	28.082	44.4373	0.001907	23302.6	7.050219	175.047	89.1887	1.071731	0.043713	0.043402	90.2684	23302.6	0.040808	0.066133	1364.96	82788.3
220	2.000000	1.074007	7.3672e+06	-49639.1	955.817	-29758.7	0.000000	0.000000	7.078729	100.692	NaN	0.000000	0.001667	0.001689	28.0805	44.8201	0.001655	27086.9	3.564172	176.75	96.9983	1.073693	0.045678	0.045364	100.692	27086.9	0.042890	0.071710	1404.15	92414.8
220	2.000000	1.076059	7.3672e+06	-49639.1	955.817	-29758.7	0.000000	0.000000	7.081122	108.981	NaN	0.000000	0.001625	0.001649	28.0805	46.8954	0.001790	26202.6	6.429412	175.45	110.975	1.075660	0.047730	0.047331	108.981	26202.6	0.044610	0.076485	1424.86	86562.1
220	2.000000	1.078094	7.3672e+06	-49639.1	955.818	-29758.7	0.000000	0.000000	7.083588	119.45	NaN	0.000000	0.001596	0.001661	28.0806	49.142	0.001849	26578.4	2.942857	179.083	122.088	1.077668	0.049765	0.049339	119.45	26578.4	0.046395	0.081596	1463.92	85009.8
220	2.000000	1.079988	7.3672e+06	-49639.1	955.818	-29758.7	0.000000	0.000000	7.085873	128.973	NaN	0.000000	0.001623	0.001684	28.0792	49.851	0.001767	28218.2	3.505340	177.394	125.786	1.079733	0.051659	0.051404	128.973	28218.2	0.048231	0.087024	1482.05	87394.4
220	2.000000	1.081991	7.3672e+06	-49639.1	955.818	-29758.7	0.000000	0.000000	7.088194	136.705	NaN	0.000000	0.001600	0.001669	28.0804	51.0387	0.001647	30994.6	4.423111	176.201	133.983	1.081664	0.053662	0.053336	136.705	30994.6	0.050354	0.093510	1461.92	92604.1
220	2.000000	1.084050	7.3672e+06	-49639.1	955.818	-29758.7	0.000000	0.000000	7.090510	142.925	NaN	0.000000	0.001596	0.001672	28.0813	54.8812	0.001842	29800.7	8.477014	172.617	142.669	1.083802	0.055722	0.055474	142.925	29800.7	0.052125	0.099093	1442.33	86492.3
220	2.000000	1.086049	7.3672e+06	-49639.1	955.818	-29758.7	0.000000	0.000000	7.093069	156.567	NaN	0.000000	0.001529	0.001692	28.0832	55.0298	0.001663	33090.2	4.662414	176.66	157.219	1.085540	0.057720	0.057212	156.567	33090.2	0.054171	0.105741	1480.67	92971.7
220	2.000000	1.088000	7.3672e+06	-49639.1	955.818	-29758.7	0.000000	0.000000	7.095216	161.333	NaN	0.000000	0.001587	0.001670	28.0802	59.6192	0.001832	32546.6	8.457506	171.377	159.521	1.087709	0.059671	0.059380	161.333	32546.6	0.055954	0.111699	1444.35	88972.1
220	2.000000	1.090061	7.3672e+06	-49639.1	955.817	-29758.7	0.000000	0.000000	7.097687	171.313	NaN	0.000000	0.001628	0.001644	28.0795	60.0999	0.001734	34661.1	6.108218	173.915	173.76	1.089718	0.061732	0.061390	171.313	34661.1	0.058025	0.118822	1441.77	91868.6
220	2.000000	1.091998	7.3672e+06	-49639.1	955.817	-29758.7	0.000000	0.000000	7.099882	177.556	NaN	0.000000	0.001644	0.001677	28.0797	62.2649	0.001917	32476.9	3.147649	177.403	176.158	1.091700	0.063670	0.063371	177.556	32476.9	0.059569	0.124269	1428.8	84171.8
220	2.000000	1.094041	7.3672e+06	-49639.1	955.818	-29758.7	0.000000	0.000000	7.102493	191.364	NaN	0.000000	0.001642	0.001672	28.079	64.2579	0.001756	36588.3	7.220723	173.273	190.818	1.093604	0.065713	0.065276	191.364	36588.3	0.061790	0.132306	1446.38	91902.4
220	2.000000	1.095970	7.3672e+06	-49639.1	955.816	-29758.7	0.000000	0.000000	7.104896	202.918	NaN	0.000000	0.001635	0.001676	28.0791	66.1386	0.001700	38906.7	6.368198	172.382	200.086	1.095609	0.067642	0.067280	202.918	38906.7	0.063730	0.139522	1454.38	95164.7
220	2.000000	1.098016	7.3672e+06	-49639.1	955.818	-29758.7	0.000000	0.000000	7.107385	213.703	NaN	0.000000	0.001610	0.001650	28.0796	69.0897	0.001823	37893.4	2.220177	176.318	213.284	1.097734	0.069687	0.069405	213.703	37893.4	0.065457	0.146102	1462.7	90575.2
220	2.000000	1.099962	7.3672e+06	-49639.1	955.817	-29758.7	0.000000	0.000000	7.109949	228.73	NaN	0.000000	0.001614	0.001706	28.0791	70.5645	0.001917	36801.6	5.570278	173.697	226.252	1.099730	0.071633	0.071401	228.73	36801.6	0.066971	0.151987	1504.94	86245.7
220	2.000000	1.101923	7.3672e+06	-49639.1	955.817	-29758.7	0.000000	0.000000	7.112388	240.349	NaN	0.000000	0.001597	0.001727	28.0791	72.2921	0.001891	38231.7	4.759959	175.037	236.854	1.101691	0.073594	0.073363	240.349	38231.7	0.068879	0.159559	1506.34	87445.3
220	2.000000	1.103865	7.3672e+06	-49639.1	955.817	-29758.7	0.000000	0.000000	7.114697	249.272	NaN	0.000000	0.001585	0.001725	28.0788	73.7782	0.001829	40348.1	4.507450	173.714	241.633	1.103598	0.075536	0.075269	249.272	40348.1	0.070902	0.167778	1485.72	89997.1
220	2.000000	1.105996	7.3672e+06	-49639.1	955.817	-29758.7	0.000000	0.000000	7.117353	262.029	NaN	0.000000	0.001605	0.001769	28.0792	75.0682	0.001904	39423	6.424210	172.364	260.188	1.105644	0.077667	0.077316	262.029	39423	0.072682	0.175170	1495.85	86058.3
220	2.000000	1.107977	7.3672e+06	-49639.1	955.817	-29758.7	0.000000	0.000000	7.119895	275.664	NaN	0.000000	0.001610	0.001777	28.0793	76.8129	0.001783	43082.6	1.024000	176.6	274.297	1.107756	0.079649	0.079427	275.664	43082.6	0.074850	0.184374	1495.13	91669.4
220	2.000000	1.109991	7.3672e+06	-49639.1	955.817	-29758.7	0.000000	0.000000	7.122393	287.443	NaN	0.000000	0.001637	0.001745	28.0791	78.5861	0.001828	42986.7	5.322768	172.319	287.039	1.109618	0.081662	0.081289	287.443	42986.7	0.076647	0.192174	1495.74	89590.2
220	2.000000	1.112028	7.3672e+06	-49639.1	955.817	-29758.7	0.000000	0.000000	7.124775	295.849	NaN	0.000000	0.001633	0.001719	28.0792	80.3535	0.001690	47544.6	6.122254	170.971	298.239	1.111774	0.083699	0.083445	295.849	47544.6	0.079032	0.202758	1459.12	96468.5
220	2.000000	1.113964	7.3672e+06	-49639.1	955.817	-29758.7	0.000000	0.000000	7.127191	307.526	NaN	0.000000	0.001630	0.001723	28.0802	82.3454	0.001694	48606.2	4.266966	172.483	301.881	1.113648	0.085635	0.085319	307.526	48606.2	0.080890	0.211186	1456.18	96634.4
220	2.000000	1.115911	7.3672e+06	-49639.1	955.817	-29758.7	0.000000	0.000000	7.129911	326.311	NaN	0.000000	0.001618	0.001723	28.0803	84.5146	0.001855	45559.6	4.281730	173.898	321.424	1.115580	0.087582	0.087252	326.311	45559.6	0.082211	0.217276	1501.83	89299.1
220	2.000000	1.117987	7.3672e+06	-49639.1	955.816	-29758.7	0.000000	0.000000	7.132279	333.416	NaN	0.000000	0.001609	0.001701	28.0803	86.6603	0.001697	51066.1	1.595530	174.711	331.514	1.117771	0.089659	0.089442	333.416	51066.1	0.084762	0.229267	1454.27	97439.5
220	2.000000	1.119939	7.3672e+06	-49639.1	955.816	-29758.7	0.000000	0.000000	7.135265	358.559	NaN	0.000000	0.001612	0.001731	28.0804	87.1656	0.001786	48806.5	3.719558	173.621	356.255	1.119668	0.091610	0.091339	358.559	48806.5	0.086100	0.235679	1521.39	91852.5
220	2.000000	1.121931	7.3672e+06	-49639.1	955.816	-29758.7	0.000000	0.000000	7.137648	368.077	NaN	0.000000	0.001603	0.001720	28.0804	90.9187	0.001814	50134.1	4.944433	173.02	362.973	1.121476	0.093602	0.093148	368.077	50134.1	0.088096	0.245391	1499.96	92465
220	2.000000	1.124071	7.3672e+06	-49639.1	955.816	-29758.7	0.000000	0.000000	7.140282	380.076	NaN	0.000000	0.001586	0.001737	28.0802	93.7641	0.001781	52655.4	5.908178	171.537	383.03	1.123634	0.095742	0.095305	380.076	52655.4	0.090329	0.256475	1481.92	94993.4
220	2.000000	1.125880	7.3672e+06	-49639.1	955.817	-29758.7	0.000000	0.000000	7.142665	394.036	NaN	0.000000	0.001588	0.001705	28.0803	94.4373	0.001819	51930.3	3.882247	173.02	388.449	1.125650	0.097552	0.097322	394.036	51930.3	0.091861	0.264214	1491.35	92303
220	2.000000	1.128092	7.3672e+06	-49639.1	955.817	-29758.7	0.000000	0.000000	7.145329	405.057	NaN	0.000000	0.001589	0.001710	28.0801	97.8806	0.001894	51679.2	3.989057	172.593	409.035	1.127758	0.099763	0.099429	405.057	51679.2	0.093884	0.274599	1475.09	90103
220	2.000000	1.129912	7.3672e+06	-49639.1	955.816	-29758.7	0.000000	0.000000	7.147869	422.539	NaN	0.000000	0.001591	0.001702	28.0804	97.4903	0.001677	58129.4	4.395285	171.227	418.404	1.129755	0.101583	0.101427	422.539	58129.4	0.096132	0.286351	1475.6	99247.5
220	2.000000	1.131899	7.3672e+06	-49639.1	955.817	-29758.7	0.000000	0.000000	7.150608	440.815	NaN	0.000000	0.001579	0.001698	28.0802	101.114	0.001793	56406.5	9.854930	166.302	437.515	1.131642	0.103571	0.103314	440.815	56406.5	0.097709	0.294739	1495.61	94925.7
220	2.000000	1.133973	7.3672e+06	-49639.1	955.817	-29758.7	0.000000	0.000000	7.153377	457.731	NaN	0.000000	0.001600	0.001712	28.0804	102.398	0.001853	55250.9	4.746722	172.972	454.315	1.133513	0.105644	0.105184	457.731	55250.9	0.099431	0.304020	1505.59	91550.7
220	2.000000	1.134962	7.3672e+06	-49639.1	955.817	-29758.7	0.000000	0.000000	7.154398	458.526	NaN	0.000000	0.001594	0.001692	28.0805	103.809	0.001928	53831.8	2.235289	174.304	456.685	1.134611	0.106633	0.106283	458.526	53831.8	0.100245	0.308456	1486.52	88555.5