File: remote_trans/data/nanoindenter/0828-1/data/Data_2025-08-06,11h17m57s/2025-07-22_16-23-58_1_252.txt
2025-07-22, 16:23:58, 1
Index	Phase	Displacement	Time	Pos X	Pos Y	Pos Z	Rot A	Rot B	Piezo Z	Force A	Force B	Gripper	Voltage A	Voltage B	Temperature	Amplitude force	Amplitude pos	Stiffness	Phase shift	Phase excitation	Force A raw	Displacement raw	HMax	HMax raw	Real Force	Real Stiffness	Contact Depth	Area	Hardness	Reduced Mod.
[#]	[#]	[um]	[s]	[um]	[um]	[um]	[m°]	[m°]	[um]	[uN]	[uN]	[V]	[V]	[V]	[°C]	[uN]	[um]	[N/m]	[°]	[°]	[uN]	[um]	[um]	[um]	[uN]	[N/m]	[um]	[um^2]	[MPa]	[MPa]
252	1.000000	0.002609	7.36751e+06	-51239.1	955.818	-29753.2	0.000000	0.000000	6.002809	-0.082967	NaN	0.000000	0.001604	0.001682	28.078	0.043338	0.001005	43.1144	-89.0449	-163.949	0.038062	0.001379	-1.156733	-1.157962	-0.082967	43.1144	-1.155290	-2.765225E+15	3.000388E-17	NaN
252	1.000000	0.012645	7.36751e+06	-51239.1	955.819	-29753.2	0.000000	0.000000	6.012849	0.015973	NaN	0.000000	0.001609	0.001697	28.0776	0.071053	0.001239	57.3615	107.646	18.3172	-0.034474	0.011230	-1.146697	-1.148112	0.015973	57.3615	-1.146905	-2.134665E+15	-7.482626E-18	NaN
252	1.000000	0.022576	7.36751e+06	-51239.1	955.818	-29753.2	0.000000	0.000000	6.022777	-0.062833	NaN	0.000000	0.001592	0.001699	28.0778	0.046309	0.001763	26.2686	85.1085	-162.97	0.016573	0.021249	-1.136765	-1.138093	-0.062833	26.2686	-1.134971	-1.476723E+15	4.254926E-17	NaN
252	1.000000	0.032544	7.36751e+06	-51239.1	955.818	-29753.2	0.000000	0.000000	6.032746	-0.035719	NaN	0.000000	0.001608	0.001667	28.0776	0.019559	0.001859	10.524	61.8051	15.2227	-0.015210	0.031173	-1.126798	-1.128168	-0.035719	10.524	-1.124252	-1.060526E+15	3.368044E-17	NaN
252	1.000000	0.042546	7.36751e+06	-51239.1	955.818	-29753.2	0.000000	0.000000	6.042747	-0.061510	NaN	0.000000	0.001553	0.001667	28.0776	0.104462	0.002054	50.8681	-75.2773	-168.645	-0.119297	0.041286	-1.116795	-1.118056	-0.061510	50.8681	-1.115888	-8.190374E+14	7.509981E-17	NaN
252	1.000000	0.052545	7.36751e+06	-51239.1	955.818	-29753.2	0.000000	0.000000	6.052745	-0.070882	NaN	0.000000	0.001561	0.001683	28.0781	0.060729	0.001981	30.6507	134.984	12.2831	0.007525	0.051153	-1.106797	-1.108188	-0.070882	30.6507	-1.105062	-5.861659E+14	1.209254E-16	NaN
252	1.000000	0.062552	7.36751e+06	-51239.1	955.819	-29753.2	0.000000	0.000000	6.062754	-0.032181	NaN	0.000000	0.001556	0.001709	28.0775	0.026691	0.002005	13.3142	-89.107	-168.916	-0.026273	0.061200	-1.096790	-1.098141	-0.032181	13.3142	-1.094977	-4.291740E+14	7.498277E-17	NaN
252	1.000000	0.072576	7.36751e+06	-51239.1	955.818	-29753.2	0.000000	0.000000	6.072780	0.003568	NaN	0.000000	0.001555	0.001701	28.0777	0.074788	0.002023	36.9613	-74.731	16.6904	-0.042239	0.071198	-1.086765	-1.088143	0.003568	36.9613	-1.086838	-3.336928E+14	-1.069213E-17	NaN
252	1.000000	0.082548	7.36751e+06	-51239.1	955.819	-29753.2	0.000000	0.000000	6.082751	0.011567	NaN	0.000000	0.001576	0.001711	28.0774	0.112047	0.002105	53.2342	74.4137	-165.215	-0.022533	0.081237	-1.076794	-1.078104	0.011567	53.2342	-1.076957	-2.458357E+14	-4.705164E-17	NaN
252	1.000000	0.092574	7.36751e+06	-51239.1	955.82	-29753.2	0.000000	0.000000	6.092777	-0.004591	NaN	0.000000	0.001562	0.001691	28.0779	0.130233	0.002037	63.9473	-25.9312	11.8052	0.042163	0.091191	-1.066767	-1.068151	-0.004591	63.9473	-1.066714	-1.790746E+14	2.563570E-17	NaN
252	1.000000	0.102569	7.36751e+06	-51239.1	955.82	-29753.2	0.000000	0.000000	6.102768	-0.084557	NaN	0.000000	0.001588	0.001708	28.0791	0.050211	0.001993	25.1892	-30.9106	-162.972	-0.009942	0.101287	-1.056773	-1.058055	-0.084557	25.1892	-1.054255	-1.217902E+14	6.942808E-16	NaN
252	1.000000	0.112551	7.36751e+06	-51239.1	955.819	-29753.2	0.000000	0.000000	6.112752	-0.050920	NaN	0.000000	0.001582	0.001684	28.079	0.057572	0.002075	27.7401	70.5335	16.2505	-0.012668	0.111233	-1.046790	-1.048109	-0.050920	27.7401	-1.045414	-9.263092E+13	5.497076E-16	NaN
252	1.000000	0.122566	7.36751e+06	-51239.1	955.819	-29753.2	0.000000	0.000000	6.122767	-0.042071	NaN	0.000000	0.001640	0.001706	28.0787	0.066800	0.002004	33.3262	43.7155	-168.936	-0.004218	0.121278	-1.036776	-1.038063	-0.042071	33.3262	-1.035829	-6.884608E+13	6.110807E-16	NaN
252	1.000000	0.132557	7.36751e+06	-51239.1	955.819	-29753.2	0.000000	0.000000	6.132759	-0.025379	NaN	0.000000	0.001601	0.001717	28.0789	0.029076	0.001901	15.2984	36.0692	11.4279	0.022387	0.131173	-1.026784	-1.028169	-0.025379	15.2984	-1.025540	-5.005984E+13	5.069676E-16	NaN
252	1.000000	0.142601	7.36751e+06	-51239.1	955.818	-29753.2	0.000000	0.000000	6.142803	-0.024984	NaN	0.000000	0.001580	0.001725	28.0788	0.068726	0.001842	37.3032	-90.9465	-164.864	-0.130622	0.141243	-1.016741	-1.018098	-0.024984	37.3032	-1.016238	-3.752654E+13	6.657694E-16	NaN
252	1.000000	0.152591	7.36751e+06	-51239.1	955.818	-29753.2	0.000000	0.000000	6.152793	-0.051095	NaN	0.000000	0.001569	0.001748	28.0788	0.057189	0.002032	28.1466	38.9255	12.3321	-0.047049	0.151226	-1.006750	-1.008116	-0.051095	28.1466	-1.005389	-2.681102E+13	1.905747E-15	NaN
252	1.000000	0.162597	7.36751e+06	-51239.1	955.818	-29753.2	0.000000	0.000000	6.162799	-0.026390	NaN	0.000000	0.001600	0.001734	28.0788	0.105863	0.002028	52.1943	-97.7678	-167.526	0.027378	0.161262	-0.996745	-0.998079	-0.026390	52.1943	-0.996365	-2.026899E+13	1.301973E-15	NaN
252	1.000000	0.172586	7.36751e+06	-51239.1	955.818	-29753.2	0.000000	0.000000	6.172789	0.008129	NaN	0.000000	0.001567	0.001702	28.0791	0.032499	0.002050	15.8543	-105.896	14.1584	-0.006913	0.171266	-0.986756	-0.988076	0.008129	15.8543	-0.987140	-1.522636E+13	-5.338713E-16	NaN
252	1.000000	0.182587	7.36751e+06	-51239.1	955.819	-29753.2	0.000000	0.000000	6.182791	0.012862	NaN	0.000000	0.001604	0.001702	28.0789	0.013674	0.001995	6.852689	-152.031	-162.684	-0.018752	0.181266	-0.976755	-0.978076	0.012862	6.852689	-0.978162	-1.152526E+13	-1.115982E-15	NaN
252	1.000000	0.192574	7.36751e+06	-51239.1	955.818	-29753.2	0.000000	0.000000	6.192774	-0.069487	NaN	0.000000	0.001594	0.001706	28.0789	0.150440	0.002027	74.2009	-13.5224	14.6969	-0.062491	0.191250	-0.966768	-0.968091	-0.069487	74.2009	-0.966066	-7.918364E+12	8.775373E-15	NaN
252	1.000000	0.202597	7.36751e+06	-51239.1	955.82	-29753.2	0.000000	0.000000	6.202799	-0.009788	NaN	0.000000	0.001651	0.001699	28.0789	0.073932	0.001875	39.4329	-87.5955	-164.539	-0.020429	0.201241	-0.956745	-0.958101	-0.009788	39.4329	-0.956559	-5.894882E+12	1.660374E-15	NaN
252	1.000000	0.212646	7.36751e+06	-51239.1	955.818	-29753.2	0.000000	0.000000	6.212850	0.025260	NaN	0.000000	0.001624	0.001676	28.0791	0.053009	0.002083	25.4507	-119.692	15.5686	0.026867	0.211229	-0.946696	-0.948113	0.025260	25.4507	-0.947440	-4.441225E+12	-5.687627E-15	NaN
252	1.000000	0.222635	7.36751e+06	-51239.1	955.818	-29753.2	0.000000	0.000000	6.222840	0.047311	NaN	0.000000	0.001597	0.001662	28.0789	0.069909	0.002054	34.0369	-110.35	-164.139	0.073266	0.221373	-0.936707	-0.937969	0.047311	34.0369	-0.937749	-3.286759E+12	-1.439427E-14	NaN
252	1.000000	0.232629	7.36751e+06	-51239.1	955.819	-29753.2	0.000000	0.000000	6.232834	0.054599	NaN	0.000000	0.001644	0.001646	28.0777	0.039387	0.001901	20.7234	-159.345	14.7394	-0.023483	0.231234	-0.926713	-0.928107	0.054599	20.7234	-0.928689	-2.480272E+12	-2.201342E-14	NaN
252	1.000000	0.242616	7.36751e+06	-51239.1	955.818	-29753.2	0.000000	0.000000	6.242819	0.012720	NaN	0.000000	0.001627	0.001689	28.0777	0.038232	0.002047	18.6742	-174.823	-164.967	0.025128	0.241348	-0.916726	-0.917994	0.012720	18.6742	-0.917237	-1.737397E+12	-7.321430E-15	NaN
252	1.000000	0.252637	7.36751e+06	-51239.1	955.818	-29753.2	0.000000	0.000000	6.252841	0.007674	NaN	0.000000	0.001633	0.001656	28.078	0.062221	0.002098	29.6603	-44.8613	15.3153	-0.042615	0.251258	-0.906704	-0.908084	0.007674	29.6603	-0.906898	-1.259699E+12	-6.092144E-15	NaN
252	1.000000	0.262626	7.36751e+06	-51239.1	955.819	-29753.2	0.000000	0.000000	6.262830	0.021450	NaN	0.000000	0.001678	0.001669	28.0775	0.060587	0.001964	30.8443	-128.143	-166.147	0.004705	0.261281	-0.896716	-0.898060	0.021450	30.8443	-0.897237	-9.326854E+11	-2.299805E-14	NaN
252	1.000000	0.272653	7.36752e+06	-51239.1	955.819	-29753.2	0.000000	0.000000	6.272853	-0.085135	NaN	0.000000	0.001664	0.001688	28.0775	0.084180	0.002099	40.0967	-64.525	14.282	-0.019739	0.271280	-0.886688	-0.888061	-0.085135	40.0967	-0.885096	-6.391693E+11	1.331963E-13	NaN
252	1.000000	0.282635	7.36752e+06	-51239.1	955.819	-29753.2	0.000000	0.000000	6.282837	-0.007476	NaN	0.000000	0.001682	0.001723	28.0777	0.059008	0.002015	29.2849	166.729	-162.72	0.007472	0.281330	-0.876707	-0.878011	-0.007476	29.2849	-0.876516	-4.893100E+11	1.527852E-14	NaN
252	1.000000	0.292667	7.36752e+06	-51239.1	955.818	-29753.2	0.000000	0.000000	6.292873	0.065761	NaN	0.000000	0.001631	0.001678	28.0775	0.040108	0.002025	19.8046	35.2035	16.5879	0.086649	0.291321	-0.866675	-0.868021	0.065761	19.8046	-0.869165	-3.891811E+11	-1.689732E-13	NaN
252	1.000000	0.302627	7.36752e+06	-51239.1	955.819	-29753.2	0.000000	0.000000	6.302827	-0.065324	NaN	0.000000	0.001621	0.001698	28.0775	0.042919	0.001915	22.4111	-176.344	-167.169	-0.107906	0.301277	-0.856715	-0.858065	-0.065324	22.4111	-0.854529	-2.466366E+11	2.648608E-13	NaN
252	1.000000	0.312665	7.36752e+06	-51239.1	955.818	-29753.2	0.000000	0.000000	6.312868	-0.002680	NaN	0.000000	0.001685	0.001714	28.0775	0.089332	0.001906	46.8609	-51.0275	13.2418	-0.056208	0.311247	-0.846676	-0.848095	-0.002680	46.8609	-0.846633	-1.928170E+11	1.389834E-14	NaN
252	1.000000	0.322688	7.36752e+06	-51239.1	955.819	-29753.2	0.000000	0.000000	6.322892	0.010589	NaN	0.000000	0.001648	0.001661	28.0778	0.012133	0.002043	5.939914	-59.5713	-164.639	0.018856	0.321313	-0.836654	-0.838029	0.010589	5.939914	-0.837991	-1.472551E+11	-7.191148E-14	NaN
252	1.000000	0.332649	7.36752e+06	-51239.1	955.819	-29753.2	0.000000	0.000000	6.332854	0.045006	NaN	0.000000	0.001658	0.001669	28.0775	0.036963	0.002057	17.9721	95.3439	14.0694	0.122971	0.331274	-0.826692	-0.828068	0.045006	17.9721	-0.828571	-1.097516E+11	-4.100759E-13	NaN
252	1.000000	0.342669	7.36752e+06	-51239.1	955.818	-29753.2	0.000000	0.000000	6.342873	0.026169	NaN	0.000000	0.001643	0.001629	28.0782	0.026341	0.002149	12.2578	78.963	-164.405	-0.098809	0.341327	-0.816673	-0.818014	0.026169	12.2578	-0.818274	-7.957993E+10	-3.288410E-13	NaN
252	1.000000	0.352664	7.36752e+06	-51239.1	955.819	-29753.2	0.000000	0.000000	6.352868	0.007235	NaN	0.000000	0.001673	0.001662	28.0775	0.020143	0.001996	10.0937	32.3916	14.2292	0.051247	0.351310	-0.806677	-0.808032	0.007235	10.0937	-0.807215	-5.633559E+10	-1.284215E-13	NaN
252	1.000000	0.362692	7.36752e+06	-51239.1	955.818	-29753.2	0.000000	0.000000	6.362895	-0.016965	NaN	0.000000	0.001665	0.001666	28.0784	0.099228	0.002115	46.9051	89.7744	-165.456	0.006971	0.361374	-0.796649	-0.797967	-0.016965	46.9051	-0.796378	-4.015064E+10	4.225365E-13	NaN
252	1.000000	0.372690	7.36752e+06	-51239.1	955.818	-29753.2	0.000000	0.000000	6.372896	0.070059	NaN	0.000000	0.001673	0.001644	28.0786	0.107471	0.002022	53.162	-62.8275	15.681	0.003734	0.371346	-0.786651	-0.787996	0.070059	53.162	-0.787640	-3.055105E+10	-2.293173E-12	NaN
252	1.000000	0.382717	7.36752e+06	-51239.1	955.819	-29753.2	0.000000	0.000000	6.382917	-0.077486	NaN	0.000000	0.001662	0.001661	28.0792	0.087405	0.001923	45.4473	-82.7324	-161.482	0.033718	0.381384	-0.776624	-0.777958	-0.077486	45.4473	-0.775346	-2.079580E+10	3.726049E-12	NaN
252	1.000000	0.392704	7.36752e+06	-51239.1	955.819	-29753.2	0.000000	0.000000	6.392907	0.005685	NaN	0.000000	0.001582	0.001678	28.0788	0.030231	0.001974	15.3109	-51.6834	17.5933	0.070222	0.391400	-0.766638	-0.767941	0.005685	15.3109	-0.766917	-1.597267E+10	-3.559051E-13	NaN
252	1.000000	0.402717	7.36752e+06	-51239.1	955.819	-29753.2	0.000000	0.000000	6.402919	-0.020042	NaN	0.000000	0.001604	0.001699	28.0792	0.023953	0.002078	11.5247	-66.5018	-165.683	-0.093188	0.401366	-0.756625	-0.757975	-0.020042	11.5247	-0.755320	-1.110785E+10	1.804332E-12	NaN
252	1.000000	0.412697	7.36752e+06	-51239.1	955.818	-29753.2	0.000000	0.000000	6.412901	0.007971	NaN	0.000000	0.001612	0.001690	28.0787	0.059598	0.002086	28.5745	-62.9051	14.2488	-0.022790	0.411345	-0.746644	-0.747997	0.007971	28.5745	-0.746853	-8.518913E+9	-9.356750E-13	NaN
252	1.000000	0.422680	7.36752e+06	-51239.1	955.818	-29753.2	0.000000	0.000000	6.422882	-0.027002	NaN	0.000000	0.001644	0.001669	28.0787	0.101643	0.002080	48.8724	71.4832	-168.755	0.052955	0.421370	-0.736662	-0.737972	-0.027002	48.8724	-0.736247	-6.108551E+9	4.420315E-12	NaN
252	1.000000	0.432721	7.36752e+06	-51239.1	955.818	-29753.2	0.000000	0.000000	6.432925	0.017368	NaN	0.000000	0.001591	0.001696	28.0787	0.139892	0.001906	73.4078	138.412	13.248	-0.050111	0.431325	-0.726621	-0.728017	0.017368	73.4078	-0.726798	-4.541172E+9	-3.824507E-12	NaN
252	1.000000	0.442725	7.36752e+06	-51239.1	955.819	-29753.2	0.000000	0.000000	6.442929	0.013155	NaN	0.000000	0.001603	0.001704	28.0788	0.052756	0.001936	27.2559	65.8336	-168.793	-0.048180	0.441426	-0.716617	-0.717916	0.013155	27.2559	-0.716979	-3.336296E+9	-3.942914E-12	NaN
252	1.000000	0.452699	7.36752e+06	-51239.1	955.819	-29753.2	0.000000	0.000000	6.452903	0.005685	NaN	0.000000	0.001610	0.001703	28.0786	0.200317	0.002026	98.8548	-156.838	14.0088	-0.041767	0.451392	-0.706643	-0.707950	0.005685	98.8548	-0.706686	-2.414418E+9	-2.354764E-12	NaN
252	1.000000	0.462719	7.36752e+06	-51239.1	955.819	-29753.2	0.000000	0.000000	6.462923	0.000996	NaN	0.000000	0.001583	0.001677	28.0787	0.019277	0.001928	9.999752	-138.896	-167.59	0.014638	0.461432	-0.696622	-0.697909	0.000996	9.999752	-0.696697	-1.763675E+9	-5.647190E-13	NaN
252	1.000000	0.472720	7.36752e+06	-51239.1	955.818	-29753.2	0.000000	0.000000	6.472922	-0.022636	NaN	0.000000	0.001574	0.001688	28.079	0.130537	0.001962	66.5421	-146.311	14.7545	0.044311	0.471369	-0.686622	-0.687973	-0.022636	66.5421	-0.686367	-1.274273E+9	1.776353E-11	NaN
252	1.000000	0.482730	7.36752e+06	-51239.1	955.818	-29753.2	0.000000	0.000000	6.482934	0.035107	NaN	0.000000	0.001574	0.001699	28.0788	0.085358	0.001883	45.3214	-97.2704	-164.011	0.015554	0.481373	-0.676612	-0.677968	0.035107	45.3214	-0.677193	-9.545760E+8	-3.677726E-11	NaN
252	1.000000	0.492727	7.36752e+06	-51239.1	955.818	-29753.2	0.000000	0.000000	6.492930	-0.010913	NaN	0.000000	0.001574	0.001697	28.0785	0.054626	0.001995	27.3849	172.589	14.1714	-0.057116	0.491366	-0.666614	-0.667976	-0.010913	27.3849	-0.666316	-6.775718E+8	1.610576E-11	NaN
252	1.000000	0.502745	7.36752e+06	-51239.1	955.818	-29753.2	0.000000	0.000000	6.502948	-0.003380	NaN	0.000000	0.001579	0.001653	28.0784	0.117400	0.001969	59.6096	-158.658	-166.172	0.012159	0.501453	-0.656597	-0.657888	-0.003380	59.6096	-0.656554	-4.980365E+8	6.785814E-12	NaN
252	1.000000	0.512760	7.36752e+06	-51239.1	955.817	-29753.2	0.000000	0.000000	6.512964	0.014178	NaN	0.000000	0.001566	0.001692	28.0776	0.067807	0.002006	33.8047	111.357	17.8069	0.064317	0.511363	-0.646581	-0.647979	0.014178	33.8047	-0.646896	-3.671772E+8	-3.861481E-11	NaN
252	1.000000	0.522743	7.36752e+06	-51239.1	955.818	-29753.2	0.000000	0.000000	6.522945	-0.024757	NaN	0.000000	0.001561	0.001696	28.0775	0.063546	0.001868	34.0275	19.5197	-167.98	0.005130	0.521447	-0.636599	-0.637895	-0.024757	34.0275	-0.636053	-2.606911E+8	9.496836E-11	NaN
252	1.000000	0.532767	7.36752e+06	-51239.1	955.817	-29753.2	0.000000	0.000000	6.532970	-0.012057	NaN	0.000000	0.001556	0.001646	28.0775	0.058855	0.002131	27.6144	123.05	16.2732	-0.025895	0.531378	-0.626575	-0.627964	-0.012057	27.6144	-0.626247	-1.911966E+8	6.306165E-11	NaN
252	1.000000	0.542773	7.36752e+06	-51239.1	955.818	-29753.2	0.000000	0.000000	6.542977	0.031427	NaN	0.000000	0.001585	0.001696	28.0776	0.106409	0.001953	54.4813	-99.6996	-167.384	0.032663	0.541471	-0.616569	-0.617871	0.031427	54.4813	-0.617001	-1.426956E+8	-2.202349E-10	NaN
252	1.000000	0.552769	7.36752e+06	-51239.1	955.818	-29753.2	0.000000	0.000000	6.552975	0.057664	NaN	0.000000	0.001590	0.001691	28.0773	0.041055	0.001988	20.6529	-150.194	15.6471	-0.067338	0.551484	-0.606572	-0.607858	0.057664	20.6529	-0.608666	-1.095882E+8	-5.261920E-10	NaN
252	1.000000	0.562755	7.36752e+06	-51239.1	955.819	-29753.2	0.000000	0.000000	6.562956	-0.038266	NaN	0.000000	0.001606	0.001688	28.0775	0.072984	0.002120	34.4257	168.214	-166.781	0.017730	0.561422	-0.596587	-0.597920	-0.038266	34.4257	-0.595753	-7.277115E+7	5.258414E-10	NaN
252	1.000000	0.572828	7.36752e+06	-51239.1	955.818	-29753.2	0.000000	0.000000	6.573031	-0.002273	NaN	0.000000	0.001586	0.001680	28.0775	0.137625	0.002092	65.7934	175.548	16.9668	-0.033775	0.571402	-0.586514	-0.587940	-0.002273	65.7934	-0.586488	-5.422974E+7	4.190936E-11	NaN
252	1.000000	0.582776	7.36752e+06	-51239.1	955.817	-29753.2	0.000000	0.000000	6.582979	-0.001106	NaN	0.000000	0.001623	0.001640	28.0777	0.054658	0.001977	27.6419	13.7945	-166.564	-0.022395	0.581547	-0.576565	-0.577794	-0.001106	27.6419	-0.576535	-3.952740E+7	2.798832E-11	NaN
252	1.000000	0.592757	7.36752e+06	-51239.1	955.819	-29753.2	0.000000	0.000000	6.592961	0.001456	NaN	0.000000	0.001536	0.001681	28.0775	0.072819	0.002032	35.8404	3.085371	14.6523	0.069100	0.591376	-0.566584	-0.567965	0.001456	35.8404	-0.566615	-2.883020E+7	-5.049934E-11	NaN
252	1.000000	0.602770	7.36752e+06	-51239.1	955.818	-29753.2	0.000000	0.000000	6.602973	0.006003	NaN	0.000000	0.001540	0.001684	28.0774	0.074576	0.001996	37.3578	112.109	-165.163	-0.021934	0.601438	-0.556572	-0.557904	0.006003	37.3578	-0.556693	-2.101911E+7	-2.856169E-10	NaN
252	1.000000	0.612794	7.36752e+06	-51239.1	955.819	-29753.2	0.000000	0.000000	6.612997	-0.002760	NaN	0.000000	0.001562	0.001661	28.0775	0.123997	0.001944	63.7729	148.192	15.5695	0.037470	0.611425	-0.546547	-0.547917	-0.002760	63.7729	-0.546515	-1.519400E+7	1.816803E-10	NaN
252	1.000000	0.622809	7.36752e+06	-51239.1	955.819	-29753.2	0.000000	0.000000	6.623012	-0.012600	NaN	0.000000	0.001547	0.001676	28.0775	0.042144	0.001952	21.5886	-45.9122	-168.588	0.076619	0.621479	-0.536533	-0.537863	-0.012600	21.5886	-0.536095	-1.089398E+7	1.156576E-9	NaN
252	1.000000	0.632797	7.36752e+06	-51239.1	955.818	-29753.2	0.000000	0.000000	6.633001	0.041614	NaN	0.000000	0.001542	0.001680	28.0776	0.011593	0.001941	5.973116	171.812	11.3493	0.036527	0.631409	-0.526545	-0.527933	0.041614	5.973116	-0.531770	-9.48761e+06	-4.386096E-9	NaN
252	1.000000	0.642796	7.36752e+06	-51239.1	955.819	-29753.2	0.000000	0.000000	6.643000	0.025315	NaN	0.000000	0.001570	0.001681	28.0786	0.070629	0.002208	31.9841	177.041	-165.936	0.063736	0.641485	-0.516546	-0.517857	0.025315	31.9841	-0.517139	-5.94021e+06	-4.261660E-9	NaN
252	1.000000	0.652782	7.36752e+06	-51239.1	955.818	-29753.2	0.000000	0.000000	6.652985	0.018990	NaN	0.000000	0.001546	0.001683	28.0792	0.048770	0.002062	23.6557	-121.993	14.1173	0.007455	0.651460	-0.506560	-0.507882	0.018990	23.6557	-0.507162	-4.314e+06	-4.402013E-9	NaN
252	1.000000	0.662827	7.36752e+06	-51239.1	955.819	-29753.2	0.000000	0.000000	6.663029	-0.023502	NaN	0.000000	0.001542	0.001667	28.0789	0.068126	0.001984	34.3317	179.988	-162.681	0.003629	0.661500	-0.496514	-0.497842	-0.023502	34.3317	-0.496001	-3.01446e+06	7.796523E-9	NaN
252	1.000000	0.672792	7.36752e+06	-51239.1	955.819	-29753.2	0.000000	0.000000	6.672994	-0.029248	NaN	0.000000	0.001525	0.001664	28.079	0.065494	0.002014	32.5262	-120.677	12.7223	-0.050487	0.671453	-0.486550	-0.487889	-0.029248	32.5262	-0.485875	-2.17636e+06	1.343915E-8	NaN
252	1.000000	0.682793	7.36752e+06	-51239.1	955.819	-29753.2	0.000000	0.000000	6.682998	0.049698	NaN	0.000000	0.001580	0.001697	28.0789	0.098811	0.002004	49.3114	138.548	-164.945	0.059714	0.681508	-0.476549	-0.477833	0.049698	49.3114	-0.477305	-1.65116e+06	-3.009864E-8	NaN
252	1.000000	0.692832	7.36752e+06	-51239.1	955.818	-29753.2	0.000000	0.000000	6.693032	-0.080662	NaN	0.000000	0.001538	0.001682	28.0792	0.052265	0.001984	26.3437	-115.616	14.6005	-0.048344	0.691458	-0.466510	-0.467883	-0.080662	26.3437	-0.464213	-1.08194e+06	7.455372E-8	NaN
252	1.000000	0.702834	7.36752e+06	-51239.1	955.818	-29753.2	0.000000	0.000000	6.703035	-0.052254	NaN	0.000000	0.001573	0.001689	28.0788	0.088758	0.001999	44.3901	-131.815	-165.284	-0.006655	0.701508	-0.456508	-0.457834	-0.052254	44.3901	-0.455625	-819429	6.376911E-8	NaN
252	1.000000	0.712833	7.36752e+06	-51239.1	955.819	-29753.2	0.000000	0.000000	6.713034	-0.043318	NaN	0.000000	0.001562	0.001677	28.0788	0.092025	0.001908	48.2307	95.9406	15.6737	0.022289	0.711527	-0.446509	-0.447814	-0.043318	48.2307	-0.445835	-596578	7.261043E-8	NaN
252	1.000000	0.722833	7.36752e+06	-51239.1	955.818	-29753.2	0.000000	0.000000	6.723035	-0.029610	NaN	0.000000	0.001584	0.001688	28.0786	0.034591	0.002006	17.2446	42.545	-164.306	0.004577	0.721515	-0.436509	-0.437827	-0.029610	17.2446	-0.435221	-422546	7.007560E-8	NaN
252	1.000000	0.732831	7.36752e+06	-51239.1	955.818	-29753.2	0.000000	0.000000	6.733031	-0.084566	NaN	0.000000	0.001533	0.001681	28.079	0.117269	0.002055	57.0576	124.171	12.7721	-0.064001	0.731529	-0.426511	-0.427813	-0.084566	57.0576	-0.425399	-306855	2.755898E-7	NaN
252	1.000000	0.742837	7.36752e+06	-51239.1	955.818	-29753.2	0.000000	0.000000	6.743040	-0.006355	NaN	0.000000	0.001589	0.001705	28.08	0.106437	0.002016	52.7857	-164.61	-165.334	-0.042375	0.741559	-0.416505	-0.417782	-0.006355	52.7857	-0.416415	-228846	2.777026E-8	NaN
252	1.000000	0.752838	7.36752e+06	-51239.1	955.819	-29753.2	0.000000	0.000000	6.753041	-0.004295	NaN	0.000000	0.001629	0.001675	28.0789	0.058243	0.002111	27.585	108.03	13.6689	0.018430	0.751457	-0.406503	-0.407884	-0.004295	27.585	-0.406387	-164813	2.605766E-8	NaN
252	1.000000	0.762812	7.36752e+06	-51239.1	955.818	-29753.2	0.000000	0.000000	6.763013	-0.050746	NaN	0.000000	0.001595	0.001681	28.0786	0.091831	0.001921	47.7926	-148.998	-162.753	-0.022331	0.761541	-0.396530	-0.397800	-0.050746	47.7926	-0.395733	-116174	4.368108E-7	NaN
252	1.000000	0.772860	7.36752e+06	-51239.1	955.818	-29753.2	0.000000	0.000000	6.773060	-0.064163	NaN	0.000000	0.001552	0.001677	28.0791	0.031604	0.001893	16.6963	-162.28	15.8073	-0.123073	0.771540	-0.386482	-0.387802	-0.064163	16.6963	-0.383600	-77896.5	8.237002E-7	NaN
252	1.000000	0.782850	7.36752e+06	-51239.1	955.819	-29753.2	0.000000	0.000000	6.783048	-0.125686	NaN	0.000000	0.001573	0.001665	28.0775	0.088159	0.002013	43.7859	-170.114	-166.124	-0.006149	0.781628	-0.376492	-0.377714	-0.125686	43.7859	-0.374339	-57354.7	2.191384E-6	NaN
252	1.000000	0.792868	7.36752e+06	-51239.1	955.819	-29753.2	0.000000	0.000000	6.793069	-0.047113	NaN	0.000000	0.001582	0.001674	28.0776	0.185481	0.001910	97.099	-4.000463	16.7155	-0.037963	0.791533	-0.366474	-0.367809	-0.047113	97.099	-0.366110	-43658.1	1.079141E-6	NaN
252	1.000000	0.802868	7.36752e+06	-51239.1	955.818	-29753.2	0.000000	0.000000	6.803070	-0.044592	NaN	0.000000	0.001554	0.001684	28.0773	0.033687	0.001969	17.1104	90.0518	-166.085	-0.048648	0.801528	-0.356473	-0.357814	-0.044592	17.1104	-0.354519	-29684.1	1.502216E-6	NaN
252	1.000000	0.812846	7.36752e+06	-51239.1	955.818	-29753.2	0.000000	0.000000	6.813051	0.033627	NaN	0.000000	0.001533	0.001708	28.0775	0.115333	0.001997	57.7391	164.231	14.4168	-0.024539	0.811549	-0.346496	-0.347793	0.033627	57.7391	-0.346932	-23038.3	-1.459614E-6	NaN
252	1.000000	0.822872	7.36752e+06	-51239.1	955.818	-29753.2	0.000000	0.000000	6.823074	-0.028792	NaN	0.000000	0.001554	0.001729	28.0775	0.050989	0.002099	24.2892	152.102	-166.063	0.038293	0.821603	-0.336470	-0.337739	-0.028792	24.2892	-0.335581	-15742.6	1.828930E-6	NaN
252	1.000000	0.832870	7.36752e+06	-51239.1	955.818	-29753.2	0.000000	0.000000	6.833071	-0.045678	NaN	0.000000	0.001559	0.001708	28.0773	0.137218	0.002006	68.4054	126.016	13.7669	-0.002255	0.831478	-0.326472	-0.327863	-0.045678	68.4054	-0.325971	-11386.6	4.011544E-6	NaN
252	1.000000	0.842885	7.36752e+06	-51239.1	955.818	-29753.2	0.000000	0.000000	6.843088	-0.022508	NaN	0.000000	0.001526	0.001710	28.0776	0.153666	0.002091	73.5003	-154.79	-164.617	0.047596	0.841582	-0.316456	-0.317759	-0.022508	73.5003	-0.316227	-8185.45	2.749754E-6	NaN
252	1.000000	0.852860	7.36752e+06	-51239.1	955.817	-29753.2	0.000000	0.000000	6.853061	-0.041531	NaN	0.000000	0.001588	0.001735	28.0773	0.054492	0.002039	26.7286	-134.218	16.5183	-0.084588	0.851527	-0.306482	-0.307814	-0.041531	26.7286	-0.305316	-5644.84	7.357387E-6	NaN
252	1.000000	0.862901	7.36752e+06	-51239.1	955.819	-29753.2	0.000000	0.000000	6.863104	0.002990	NaN	0.000000	0.001593	0.001748	28.0774	0.126617	0.001997	63.4105	107.79	-164.386	0.070874	0.861519	-0.296441	-0.297823	0.002990	63.4105	-0.296476	-4169.86	-7.170082E-7	NaN
252	1.000000	0.872886	7.36752e+06	-51239.1	955.819	-29753.2	0.000000	0.000000	6.873091	0.032082	NaN	0.000000	0.001573	0.001696	28.0773	0.077951	0.002165	35.9972	-147.528	14.7252	-0.033205	0.871531	-0.286455	-0.287811	0.032082	35.9972	-0.287124	-3021.14	-1.061911E-5	NaN
252	1.000000	0.882900	7.36752e+06	-51239.1	955.818	-29753.2	0.000000	0.000000	6.883103	0.009864	NaN	0.000000	0.001578	0.001736	28.0775	0.106397	0.001975	53.8729	-11.0349	-167.741	-0.112766	0.881602	-0.276442	-0.277740	0.009864	53.8729	-0.276579	-2095.54	-4.707054E-6	NaN
252	1.000000	0.892920	7.36752e+06	-51239.1	955.819	-29753.2	0.000000	0.000000	6.893119	-0.093221	NaN	0.000000	0.001586	0.001684	28.0773	0.079905	0.001904	41.9593	7.128061	17.2142	-0.067141	0.891582	-0.266422	-0.267759	-0.093221	41.9593	-0.264756	-1385.67	6.727472E-5	NaN
252	1.000000	0.902902	7.36752e+06	-51239.1	955.818	-29753.2	0.000000	0.000000	6.903102	-0.068256	NaN	0.000000	0.001648	0.001710	28.0775	0.093812	0.001942	48.315	-166.523	-164.846	-0.045347	0.901609	-0.256440	-0.257732	-0.068256	48.315	-0.255380	-995.325	6.857678E-5	NaN
252	1.000000	0.912922	7.36752e+06	-51239.1	955.819	-29753.2	0.000000	0.000000	6.913126	0.024800	NaN	0.000000	0.001646	0.001689	28.0781	0.090511	0.001922	47.0844	-177.473	14.9189	0.058581	0.911571	-0.246420	-0.247770	0.024800	47.0844	-0.246815	-733.882	-3.379242E-5	NaN
252	1.000000	0.922935	7.36752e+06	-51239.1	955.818	-29753.2	0.000000	0.000000	6.923134	-0.087531	NaN	0.000000	0.001636	0.001659	28.0787	0.127350	0.001938	65.7177	-127.945	-166.585	-0.071896	0.921575	-0.236407	-0.237767	-0.087531	65.7177	-0.235408	-487.137	0.000180	NaN
252	1.000000	0.932925	7.36752e+06	-51239.1	955.818	-29753.2	0.000000	0.000000	6.933127	-0.020345	NaN	0.000000	0.001659	0.001740	28.0785	0.062326	0.001922	32.4216	32.6351	14.5389	-0.045004	0.931511	-0.226417	-0.227830	-0.020345	32.4216	-0.225946	-345.426	5.889814E-5	NaN
252	1.000000	0.942882	7.36752e+06	-51239.1	955.818	-29753.2	0.000000	0.000000	6.943085	-0.007890	NaN	0.000000	0.001653	0.001682	28.0786	0.025585	0.002040	12.5424	-117.091	-164.719	-0.038428	0.941650	-0.216459	-0.217692	-0.007890	12.5424	-0.215988	-239.546	3.293613E-5	NaN
252	1.000000	0.952921	7.36752e+06	-51239.1	955.819	-29753.2	0.000000	0.000000	6.953121	-0.076347	NaN	0.000000	0.001667	0.001679	28.0787	0.050919	0.001975	25.7866	65.2605	15.01	-0.060025	0.951544	-0.206420	-0.207798	-0.076347	25.7866	-0.204200	-154.347	0.000495	NaN
252	1.000000	0.962955	7.36752e+06	-51239.1	955.819	-29753.2	0.000000	0.000000	6.963159	0.017442	NaN	0.000000	0.001607	0.001716	28.0788	0.006690	0.002121	3.154216	20.2128	-166.655	-0.066362	0.961621	-0.196386	-0.197721	0.017442	3.154216	-0.200534	-134.421	-0.000130	NaN
252	1.000000	0.972891	7.36752e+06	-51239.1	955.818	-29753.2	0.000000	0.000000	6.973089	-0.117141	NaN	0.000000	0.001638	0.001695	28.0784	0.121807	0.002055	59.2599	-152.235	11.1418	-0.149036	0.971585	-0.186451	-0.187757	-0.117141	59.2599	-0.184968	-74.0625	0.001582	NaN
252	1.000000	0.982898	7.36752e+06	-51239.1	955.819	-29753.2	0.000000	0.000000	6.983102	0.009481	NaN	0.000000	0.001638	0.001700	28.0789	0.061624	0.001947	31.6453	-131.176	-163.609	-0.058640	0.981586	-0.176443	-0.177756	0.009481	31.6453	-0.176668	-53.5296	-0.000177	NaN
252	1.000000	0.992946	7.36752e+06	-51239.1	955.819	-29753.2	0.000000	0.000000	6.993148	-0.028992	NaN	0.000000	0.001663	0.001728	28.0787	0.056605	0.002019	28.0412	17.5795	15.2181	-0.002031	0.991594	-0.166395	-0.167748	-0.028992	28.0412	-0.165620	-34.4494	0.000842	NaN
252	1.000000	1.002971	7.36752e+06	-51239.1	955.819	-29753.2	0.000000	0.000000	7.003170	-0.088002	NaN	0.000000	0.001630	0.001694	28.0788	0.112076	0.001949	57.5172	-132.375	-163.323	-0.099154	1.001601	-0.156371	-0.157741	-0.088002	57.5172	-0.155223	-22.5215	0.003907	NaN
252	1.000000	1.012931	7.36752e+06	-51239.1	955.819	-29753.2	0.000000	0.000000	7.013133	-0.010760	NaN	0.000000	0.001663	0.001734	28.0785	0.075283	0.002020	37.277	-33.9846	14.9315	-0.073752	1.011574	-0.146411	-0.147767	-0.010760	37.277	-0.146195	-15.4251	0.000698	NaN
252	1.000000	1.022953	7.36752e+06	-51239.1	955.818	-29753.2	0.000000	0.000000	7.023153	-0.079426	NaN	0.000000	0.001649	0.001723	28.0793	0.093130	0.002011	46.3166	79.2211	-165.429	-0.130112	1.021637	-0.136388	-0.137705	-0.079426	46.3166	-0.135102	-9.555247	0.008312	NaN
252	1.000000	1.032959	7.36752e+06	-51239.1	955.819	-29753.2	0.000000	0.000000	7.033163	0.010660	NaN	0.000000	0.001678	0.001709	28.0786	0.060100	0.002200	27.324	169.039	17.7588	-0.029928	1.031553	-0.126382	-0.127789	0.010660	27.324	-0.126675	-6.561964	-0.001625	NaN
252	1.000000	1.042937	7.36752e+06	-51239.1	955.818	-29753.2	0.000000	0.000000	7.043135	-0.127512	NaN	0.000000	0.001672	0.001700	28.0789	0.041892	0.002010	20.8452	-122.575	-166.193	-0.142951	1.041683	-0.116405	-0.117659	-0.127512	20.8452	-0.111817	-3.281139	0.038862	NaN
252	1.000000	1.052971	7.36752e+06	-51239.1	955.819	-29753.2	0.000000	0.000000	7.053173	-0.035728	NaN	0.000000	0.001657	0.001720	28.0773	0.047682	0.002077	22.9536	-123.683	15.4096	-0.029500	1.051632	-0.106370	-0.107710	-0.035728	22.9536	-0.105203	-2.374401	0.015047	NaN
252	1.000000	1.062999	7.36752e+06	-51239.1	955.819	-29753.2	0.000000	0.000000	7.063201	-0.039514	NaN	0.000000	0.001673	0.001695	28.0777	0.074483	0.002074	35.9076	72.4991	-167.585	0.013885	1.061670	-0.096342	-0.097672	-0.039514	35.9076	-0.095517	-1.449377	0.027263	NaN
252	1.000000	1.072960	7.36752e+06	-51239.1	955.819	-29753.2	0.000000	0.000000	7.073163	0.000870	NaN	0.000000	0.001634	0.001684	28.0774	0.101416	0.002012	50.4162	-66.3382	12.4993	-0.004037	1.071577	-0.086381	-0.087765	0.000870	50.4162	-0.086394	-0.887722	-0.000980	NaN
252	1.000000	1.082987	7.36752e+06	-51239.1	955.819	-29753.2	0.000000	0.000000	7.083192	0.039940	NaN	0.000000	0.001634	0.001699	28.0775	0.047991	0.001916	25.0502	-76.1233	-165.818	0.076624	1.081653	-0.076354	-0.077689	0.039940	25.0502	-0.077550	-0.536927	-0.074386	NaN
252	1.000000	1.092972	7.36752e+06	-51239.1	955.818	-29753.2	0.000000	0.000000	7.093175	0.005875	NaN	0.000000	0.001663	0.001669	28.0775	0.017235	0.001990	8.661879	-74.3877	18.3789	0.004223	1.091678	-0.066370	-0.067664	0.005875	8.661879	-0.066878	-0.280765	-0.020925	NaN
252	1.000000	1.102964	7.36752e+06	-51239.1	955.819	-29753.2	0.000000	0.000000	7.103165	-0.046849	NaN	0.000000	0.001656	0.001719	28.0777	0.045706	0.002027	22.5461	147.931	-164.46	-0.003078	1.101680	-0.056377	-0.057662	-0.046849	22.5461	-0.054819	-0.127200	0.368306	NaN
252	1.000000	1.112985	7.36752e+06	-51239.1	955.818	-29753.2	0.000000	0.000000	7.113188	-0.006581	NaN	0.000000	0.001643	0.001663	28.0776	0.030890	0.001917	16.1146	-69.3995	15.4659	-0.014057	1.111631	-0.046357	-0.047710	-0.006581	16.1146	-0.046050	-0.069199	0.095105	NaN
252	1.000000	1.122984	7.36752e+06	-51239.1	955.819	-29753.2	0.000000	0.000000	7.123186	-0.035911	NaN	0.000000	0.001670	0.001680	28.0776	0.075117	0.002063	36.4158	136.477	-163.781	-0.022229	1.121636	-0.036357	-0.037705	-0.035911	36.4158	-0.035618	-0.033398	1.075237	NaN
252	1.000000	1.132988	7.36752e+06	-51239.1	955.819	-29753.2	0.000000	0.000000	7.133191	0.010922	NaN	0.000000	0.001660	0.001647	28.0776	0.035041	0.001930	18.154	-158.267	15.045	0.053381	1.131642	-0.026354	-0.027700	0.010922	18.154	-0.026805	-0.018828	-0.580131	NaN
252	1.000000	1.142993	7.36752e+06	-51239.1	955.819	-29753.2	0.000000	0.000000	7.143195	-0.021873	NaN	0.000000	0.001643	0.001674	28.0776	0.117604	0.001985	59.2435	-88.1858	-167.256	-0.004277	1.141669	-0.016349	-0.017673	-0.021873	59.2435	-0.016072	-0.009927	2.203278	NaN
252	1.000000	1.153001	7.36752e+06	-51239.1	955.819	-29753.2	0.000000	0.000000	7.153203	-0.029364	NaN	0.000000	0.001642	0.001652	28.0774	0.025096	0.001977	12.6938	174.297	12.005	-0.123816	1.151612	-0.006341	-0.007730	-0.029364	12.6938	-0.004606	-0.003167	9.270656	NaN
252	1.000000	1.163035	7.36752e+06	-51239.1	955.819	-29753.2	0.000000	0.000000	7.163301	1.541890	NaN	0.000000	0.001573	0.001627	28.0774	2.547160	0.001992	1278.86	10.2216	-165.39	0.532519	1.161663	0.003693	0.002321	1.541890	1278.86	0.002789	0.002203	699.979	24895
252	2.000000	1.170190	7.36752e+06	-51239.1	955.82	-29753.2	0.000000	0.000000	7.170758	8.873745	NaN	0.000000	0.001565	0.001621	28.0777	9.342471	0.001747	5346.3	5.710137	11.7136	8.810458	1.169810	0.010848	0.010469	8.873745	5346.3	0.009603	0.008744	1014.87	52237.1
252	2.000000	1.172589	7.36752e+06	-51239.1	955.82	-29753.2	0.000000	0.000000	7.173282	11.9137	NaN	0.000000	0.001577	0.001612	28.0775	11.6923	0.001629	7176.23	4.865465	-172.888	10.8654	1.172388	0.013247	0.013046	11.9137	7176.23	0.012002	0.011492	1036.66	61159.5
252	2.000000	1.175123	7.36752e+06	-51239.1	955.818	-29753.2	0.000000	0.000000	7.175941	14.9397	NaN	0.000000	0.001598	0.001593	28.0786	14.9984	0.001596	9399.39	6.726685	2.280080	14.2816	1.174746	0.015782	0.015404	14.9397	9399.39	0.014590	0.014742	1013.4	70728
252	2.000000	1.177587	7.36752e+06	-51239.1	955.82	-29753.2	0.000000	0.000000	7.178592	19.5038	NaN	0.000000	0.001587	0.001652	28.0784	18.2777	0.001929	9473.63	8.466873	-176.879	19.2274	1.177266	0.018245	0.017925	19.5038	9473.63	0.016701	0.017621	1106.84	65203.7
252	2.000000	1.180047	7.36752e+06	-51239.1	955.819	-29753.2	0.000000	0.000000	7.181320	25.9995	NaN	0.000000	0.001583	0.001646	28.0798	20.4594	0.001764	11600.1	5.090360	3.101165	23.6155	1.179717	0.020706	0.020376	25.9995	11600.1	0.019025	0.021033	1236.16	73078.2
252	2.000000	1.182578	7.36752e+06	-51239.1	955.819	-29753.2	0.000000	0.000000	7.184123	32.6227	NaN	0.000000	0.001589	0.001612	28.0785	22.8962	0.001734	13204.3	9.705701	177.521	32.1817	1.182198	0.023237	0.022856	32.6227	13204.3	0.021384	0.024764	1317.36	76662.2
252	2.000000	1.185005	7.36752e+06	-51239.1	955.82	-29753.2	0.000000	0.000000	7.186727	36.9282	NaN	0.000000	0.001587	0.001618	28.0789	25.6274	0.001824	14053.2	5.939512	2.054983	35.0592	1.184705	0.025663	0.025363	36.9282	14053.2	0.023693	0.028680	1287.6	75815.5
252	2.000000	1.187578	7.36752e+06	-51239.1	955.82	-29753.2	0.000000	0.000000	7.189509	42.0232	NaN	0.000000	0.001576	0.001614	28.0787	28.1875	0.001855	15196	6.402627	-179.329	42.6837	1.187220	0.028236	0.027878	42.0232	15196	0.026162	0.033164	1267.14	76238.1
252	2.000000	1.190117	7.36752e+06	-51239.1	955.82	-29753.2	0.000000	0.000000	7.192293	47.9568	NaN	0.000000	0.001591	0.001599	28.08	30.0971	0.001745	17249.2	3.852401	1.946605	48.4767	1.189717	0.030776	0.030375	47.9568	17249.2	0.028690	0.038073	1259.59	80766.6
252	2.000000	1.192488	7.36752e+06	-51239.1	955.819	-29753.2	0.000000	0.000000	7.195120	59.0523	NaN	0.000000	0.001613	0.001637	28.0786	32.0421	0.001742	18390.5	3.211477	-178.487	57.6426	1.192264	0.033146	0.032923	59.0523	18390.5	0.030738	0.042287	1396.45	81707.5
252	2.000000	1.195018	7.36752e+06	-51239.1	955.819	-29753.2	0.000000	0.000000	7.197870	64.4031	NaN	0.000000	0.001598	0.001643	28.0794	35.126	0.001798	19534.4	4.638156	-1.341780	62.866	1.194763	0.035676	0.035421	64.4031	19534.4	0.033204	0.047646	1351.69	81763.7
252	2.000000	1.197609	7.36752e+06	-51239.1	955.819	-29753.2	0.000000	0.000000	7.200744	71.2839	NaN	0.000000	0.001644	0.001587	28.0787	38.0874	0.001802	21139.4	6.529180	177.525	73.809	1.197235	0.038267	0.037894	71.2839	21139.4	0.035738	0.053479	1332.94	83517.2
252	2.000000	1.200048	7.36752e+06	-51239.1	955.819	-29753.2	0.000000	0.000000	7.203700	83.8809	NaN	0.000000	0.001614	0.001605	28.0787	39.6355	0.001766	22437.6	4.698717	-1.272000	81.5801	1.199717	0.040706	0.040375	83.8809	22437.6	0.037902	0.058719	1428.51	84598
252	2.000000	1.202517	7.36752e+06	-51239.1	955.819	-29753.2	0.000000	0.000000	7.206594	94.2024	NaN	0.000000	0.001590	0.001624	28.0786	43.0326	0.001849	23275.1	6.797928	176.212	93.3027	1.202193	0.043176	0.042852	94.2024	23275.1	0.040140	0.064391	1462.98	83801.5
252	2.000000	1.204993	7.36752e+06	-51239.1	955.82	-29753.2	0.000000	0.000000	7.209483	104.246	NaN	0.000000	0.001596	0.001643	28.0794	45.7348	0.001921	23813	4.920973	-2.334358	100.959	1.204609	0.045651	0.045267	104.246	23813	0.042368	0.070291	1483.06	82061
252	2.000000	1.207562	7.36752e+06	-51239.1	955.82	-29753.2	0.000000	0.000000	7.212532	115.923	NaN	0.000000	0.001588	0.001641	28.0781	47.5808	0.001807	26325.4	10.3184	171.995	118.7	1.207205	0.048220	0.047864	115.923	26325.4	0.044918	0.077354	1498.6	86478.1
252	2.000000	1.210027	7.36752e+06	-51239.1	955.82	-29753.2	0.000000	0.000000	7.215544	129.229	NaN	0.000000	0.001571	0.001664	28.0779	48.8868	0.001835	26643.4	8.542029	-5.714868	125.783	1.209606	0.050685	0.050264	129.229	26643.4	0.047047	0.083506	1547.55	84237.5
252	2.000000	1.212498	7.36752e+06	-51239.1	955.82	-29753.2	0.000000	0.000000	7.218439	139.513	NaN	0.000000	0.001566	0.001667	28.0775	51.9175	0.001878	27647.8	2.036037	179.869	138.393	1.212158	0.053157	0.052816	139.513	27647.8	0.049372	0.090482	1541.88	83975.5
252	2.000000	1.214998	7.36752e+06	-51239.1	955.819	-29753.2	0.000000	0.000000	7.221420	151.212	NaN	0.000000	0.001589	0.001644	28.0782	53.7724	0.001761	30528.6	3.375911	-3.014574	148.784	1.214634	0.055657	0.055292	151.212	30528.6	0.051942	0.098509	1535	88867.3
252	2.000000	1.217567	7.36752e+06	-51239.1	955.819	-29753.2	0.000000	0.000000	7.224600	166.074	NaN	0.000000	0.001567	0.001611	28.0779	57.4715	0.001837	31280	8.120365	173.257	168.55	1.217099	0.058225	0.057758	166.074	31280	0.054243	0.105979	1567.05	87787.1
252	2.000000	1.219938	7.36752e+06	-51239.1	955.82	-29753.2	0.000000	0.000000	7.227508	179.149	NaN	0.000000	0.001594	0.001583	28.078	58.5895	0.001704	34386.1	4.509177	-4.922095	173.308	1.219619	0.060596	0.060277	179.149	34386.1	0.056688	0.114202	1568.7	92965.1
252	2.000000	1.222503	7.36752e+06	-51239.1	955.819	-29753.2	0.000000	0.000000	7.230623	192.509	NaN	0.000000	0.001683	0.001669	28.0775	60.3714	0.001806	33422.5	5.995103	173.739	190.923	1.222060	0.063161	0.062719	192.509	33422.5	0.058841	0.121686	1582.02	87537.1
252	2.000000	1.225024	7.36752e+06	-51239.1	955.821	-29753.2	0.000000	0.000000	7.233582	203.163	NaN	0.000000	0.001658	0.001642	28.078	63.8064	0.001953	32671.5	6.529381	-5.237953	204.456	1.224560	0.065683	0.065218	203.163	32671.5	0.061019	0.129487	1568.99	82952.6
252	2.000000	1.227502	7.36752e+06	-51239.1	955.82	-29753.2	0.000000	0.000000	7.236715	219.077	NaN	0.000000	0.001646	0.001637	28.0776	64.5139	0.001818	35484.8	3.797332	175.917	218.121	1.227244	0.068161	0.067902	219.077	35484.8	0.063530	0.138770	1578.7	87029.6
252	2.000000	1.229922	7.36752e+06	-51239.1	955.82	-29753.2	0.000000	0.000000	7.239646	231.519	NaN	0.000000	0.001634	0.001590	28.0777	65.9043	0.001685	39113.9	3.158229	-4.914044	224.548	1.229700	0.070580	0.070359	231.519	39113.9	0.066141	0.148745	1556.48	92658
252	2.000000	1.232378	7.36752e+06	-51239.1	955.82	-29753.2	0.000000	0.000000	7.242791	248.271	NaN	0.000000	0.001667	0.001613	28.0775	67.9133	0.001703	39883.7	2.523516	175.718	243.799	1.232175	0.073036	0.072833	248.271	39883.7	0.068368	0.157511	1576.21	91814.8
252	2.000000	1.234942	7.36752e+06	-51239.1	955.82	-29753.2	0.000000	0.000000	7.246048	265.128	NaN	0.000000	0.001656	0.001627	28.078	71.5723	0.001841	38868.1	5.184046	-6.508562	261.04	1.234629	0.075600	0.075287	265.128	38868.1	0.070484	0.166062	1596.56	87142.8
252	2.000000	1.237486	7.36752e+06	-51239.1	955.821	-29753.2	0.000000	0.000000	7.249115	277.842	NaN	0.000000	0.001694	0.001636	28.0775	74.7295	0.001751	42681.1	7.130922	170.428	276.462	1.237195	0.078144	0.077854	277.842	42681.1	0.073262	0.177608	1564.35	92528.8
252	2.000000	1.239937	7.36752e+06	-51239.1	955.82	-29753.2	0.000000	0.000000	7.252546	301.68	NaN	0.000000	0.001670	0.001609	28.0778	75.1161	0.001899	39557.9	2.371358	-2.390441	295.624	1.239477	0.080595	0.080136	301.68	39557.9	0.074875	0.184484	1635.27	84144.9
252	2.000000	1.242494	7.36752e+06	-51239.1	955.821	-29753.2	0.000000	0.000000	7.255510	311.588	NaN	0.000000	0.001644	0.001657	28.0789	78.231	0.001716	45588.6	5.870471	171.705	313.192	1.242141	0.083152	0.082799	311.588	45588.6	0.078026	0.198260	1571.62	93543.2
252	2.000000	1.244886	7.36752e+06	-51239.1	955.821	-29753.2	0.000000	0.000000	7.258882	335.392	NaN	0.000000	0.001615	0.001617	28.0791	79.4476	0.001789	44409.8	1.029140	-3.399972	329.52	1.244647	0.085545	0.085305	335.392	44409.8	0.079881	0.206587	1623.49	89269
252	2.000000	1.247572	7.36752e+06	-51239.1	955.82	-29753.2	0.000000	0.000000	7.262224	351.351	NaN	0.000000	0.001554	0.001657	28.0788	83.5874	0.001773	47154.6	5.599972	171.633	354.022	1.247201	0.088230	0.087860	351.351	47154.6	0.082642	0.219281	1602.29	92001.9
252	2.000000	1.249936	7.36752e+06	-51239.1	955.82	-29753.2	0.000000	0.000000	7.265632	376.725	NaN	0.000000	0.001547	0.001648	28.0789	84.3619	0.001834	45990.4	1.788191	-4.042148	371.529	1.249604	0.090594	0.090262	376.725	45990.4	0.084451	0.227788	1653.84	88038.9
252	2.000000	1.252392	7.36752e+06	-51239.1	955.82	-29753.2	0.000000	0.000000	7.268928	397.147	NaN	0.000000	0.001539	0.001651	28.0789	86.9024	0.001767	49173.2	3.275842	173.713	391.394	1.252041	0.093051	0.092699	397.147	49173.2	0.086993	0.240002	1654.77	91705.4
252	2.000000	1.254873	7.36752e+06	-51239.1	955.821	-29753.2	0.000000	0.000000	7.272063	413.081	NaN	0.000000	0.001555	0.001614	28.0789	89.5522	0.001611	55602.5	5.533033	-9.603165	405.929	1.254665	0.095531	0.095323	413.081	55602.5	0.089959	0.254625	1622.31	100674
252	2.000000	1.257417	7.36752e+06	-51239.1	955.82	-29753.2	0.000000	0.000000	7.275168	426.713	NaN	0.000000	0.001504	0.001616	28.0789	93.9104	0.001785	52609.3	2.575212	173.92	422.687	1.257231	0.098075	0.097890	426.713	52609.3	0.091992	0.264882	1610.96	93392
252	2.000000	1.260002	7.36752e+06	-51239.1	955.819	-29753.2	0.000000	0.000000	7.278633	448.116	NaN	0.000000	0.001523	0.001632	28.0789	96.186	0.001744	55156.6	6.634522	-10.4306	446.59	1.259758	0.100660	0.100416	448.116	55156.6	0.094567	0.278143	1611.1	95551.2
252	2.000000	1.262449	7.36752e+06	-51239.1	955.82	-29753.2	0.000000	0.000000	7.282439	481.147	NaN	0.000000	0.001540	0.001631	28.0789	98.3729	0.001813	54250.3	10.9738	166.412	480.367	1.261990	0.103107	0.102648	481.147	54250.3	0.096456	0.288064	1670.28	92348.6
252	2.000000	1.264964	7.36752e+06	-51239.1	955.82	-29753.2	0.000000	0.000000	7.285511	494.712	NaN	0.000000	0.001510	0.001641	28.0789	100.648	0.001880	53547.2	7.014765	-10.3931	492.03	1.264587	0.105622	0.105245	494.712	53547.2	0.098693	0.300026	1648.9	89316.2
252	2.000000	1.267465	7.36752e+06	-51239.1	955.819	-29753.2	0.000000	0.000000	7.289058	520.142	NaN	0.000000	0.001514	0.001642	28.0789	101.762	0.001660	61304.3	3.441155	172.508	518.844	1.267148	0.108123	0.107806	520.142	61304.3	0.101760	0.316791	1641.91	99512.4