File: remote_trans/data/nanoindenter/0828-1/data/Data_2025-08-06,11h17m57s/2025-07-22_16-23-58_1_400.txt
2025-07-22, 16:23:58, 1
Index	Phase	Displacement	Time	Pos X	Pos Y	Pos Z	Rot A	Rot B	Piezo Z	Force A	Force B	Gripper	Voltage A	Voltage B	Temperature	Amplitude force	Amplitude pos	Stiffness	Phase shift	Phase excitation	Force A raw	Displacement raw	HMax	HMax raw	Real Force	Real Stiffness	Contact Depth	Area	Hardness	Reduced Mod.
[#]	[#]	[um]	[s]	[um]	[um]	[um]	[m°]	[m°]	[um]	[uN]	[uN]	[V]	[V]	[V]	[°C]	[uN]	[um]	[N/m]	[°]	[°]	[uN]	[um]	[um]	[um]	[uN]	[N/m]	[um]	[um^2]	[MPa]	[MPa]
400	1.000000	0.002846	7.36897e+06	-57089.1	1005.82	-29737.7	0.000000	0.000000	6.002807	0.076966	NaN	0.000000	0.001636	0.001677	28.0799	0.068414	0.000987	69.3078	144.059	-155.485	0.055060	0.001549	-1.019767	-1.021064	0.076966	69.3078	-1.020600	-4.295618E+13	-1.791740E-15	NaN
400	1.000000	0.010821	7.36897e+06	-57089.1	1005.82	-29737.7	0.000000	0.000000	6.010778	-0.007271	NaN	0.000000	0.001634	0.001666	28.0797	0.045267	0.000913	49.5605	-146.289	-167.121	0.055880	0.009494	-1.011793	-1.013119	-0.007271	49.5605	-1.011683	-3.258584E+13	2.231193E-16	NaN
400	1.000000	0.018789	7.36897e+06	-57089.1	1005.82	-29737.7	0.000000	0.000000	6.018747	0.015807	NaN	0.000000	0.001600	0.001682	28.0796	0.052603	0.001662	31.6466	61.204	-166.325	0.001742	0.017504	-1.003824	-1.005109	0.015807	31.6466	-1.004199	-2.584043E+13	-6.117126E-16	NaN
400	1.000000	0.026857	7.36897e+06	-57089.1	1005.82	-29737.7	0.000000	0.000000	6.026819	0.085046	NaN	0.000000	0.001644	0.001689	28.08	0.087939	0.001749	50.2868	-75.147	-163.604	0.074629	0.025493	-0.995756	-0.997120	0.085046	50.2868	-0.997024	-2.068734E+13	-4.111001E-15	NaN
400	1.000000	0.034774	7.36897e+06	-57089.1	1005.82	-29737.7	0.000000	0.000000	6.034733	0.013362	NaN	0.000000	0.001650	0.001706	28.0798	0.048475	0.001883	25.7446	-4.076662	-163.44	-0.016416	0.033502	-0.987839	-0.989112	0.013362	25.7446	-0.988228	-1.574893E+13	-8.484114E-16	NaN
400	1.000000	0.042780	7.36897e+06	-57089.1	1005.82	-29737.7	0.000000	0.000000	6.042739	0.021226	NaN	0.000000	0.001606	0.001707	28.0788	0.085061	0.001982	42.9228	5.861504	-160.998	0.034133	0.041492	-0.979833	-0.981122	0.021226	42.9228	-0.980204	-1.227892E+13	-1.728646E-15	NaN
400	1.000000	0.050823	7.36897e+06	-57089.1	1005.82	-29737.7	0.000000	0.000000	6.050781	0.013397	NaN	0.000000	0.001661	0.001730	28.0785	0.055224	0.001952	28.2912	117.94	-163.386	0.052093	0.049494	-0.971791	-0.973119	0.013397	28.2912	-0.972146	-9.562709E+12	-1.400947E-15	NaN
400	1.000000	0.058822	7.36897e+06	-57089.1	1005.82	-29737.7	0.000000	0.000000	6.058779	-0.009416	NaN	0.000000	0.001642	0.001696	28.0786	0.056276	0.001804	31.1972	-159.26	-160.351	0.029211	0.057521	-0.963791	-0.965092	-0.009416	31.1972	-0.963565	-7.327018E+12	1.285146E-15	NaN
400	1.000000	0.066779	7.36897e+06	-57089.1	1005.82	-29737.7	0.000000	0.000000	6.066738	0.012155	NaN	0.000000	0.001657	0.001709	28.0785	0.019348	0.002072	9.340312	123.857	-164.377	0.011823	0.065463	-0.955834	-0.957150	0.012155	9.340312	-0.956810	-5.940997E+12	-2.045880E-15	NaN
400	1.000000	0.074842	7.36897e+06	-57089.1	1005.82	-29737.7	0.000000	0.000000	6.074800	0.002136	NaN	0.000000	0.001663	0.001670	28.0785	0.052165	0.002050	25.4515	52.2865	-162.831	0.052390	0.073498	-0.947771	-0.949115	0.002136	25.4515	-0.947834	-4.495856E+12	-4.750265E-16	NaN
400	1.000000	0.082767	7.36897e+06	-57089.1	1005.82	-29737.7	0.000000	0.000000	6.082725	-0.007422	NaN	0.000000	0.001687	0.001716	28.0786	0.052477	0.001921	27.3174	-50.6297	-167.68	-0.031710	0.081492	-0.939846	-0.941122	-0.007422	27.3174	-0.939642	-3.485862E+12	2.129194E-15	NaN
400	1.000000	0.090795	7.36897e+06	-57089.1	1005.82	-29737.7	0.000000	0.000000	6.090751	-0.041384	NaN	0.000000	0.001665	0.001710	28.0787	0.026473	0.001967	13.4597	-92.4573	-165.926	-0.077520	0.089499	-0.931818	-0.933114	-0.041384	13.4597	-0.929512	-2.544584E+12	1.626338E-14	NaN
400	1.000000	0.098796	7.36897e+06	-57089.1	1005.82	-29737.7	0.000000	0.000000	6.098752	-0.044600	NaN	0.000000	0.001689	0.001706	28.0787	0.008004	0.002048	3.908683	133.467	-164.545	-0.047871	0.097546	-0.923818	-0.925067	-0.044600	3.908683	-0.915260	-1.633801E+12	2.729820E-14	NaN
400	1.000000	0.106806	7.36897e+06	-57089.1	1005.82	-29737.7	0.000000	0.000000	6.106763	-0.022126	NaN	0.000000	0.001680	0.001728	28.0783	0.097377	0.001973	49.3605	-176.697	-162.39	-0.023383	0.105494	-0.915807	-0.917119	-0.022126	49.3605	-0.915471	-1.644565E+12	1.345427E-14	NaN
400	1.000000	0.114802	7.36897e+06	-57089.1	1005.82	-29737.7	0.000000	0.000000	6.114758	-0.056687	NaN	0.000000	0.001661	0.001722	28.0785	0.035299	0.001953	18.0709	-133.576	-165.191	-0.119946	0.113516	-0.907811	-0.909097	-0.056687	18.0709	-0.905458	-1.204517E+12	4.706239E-14	NaN
400	1.000000	0.122843	7.36897e+06	-57089.1	1005.82	-29737.7	0.000000	0.000000	6.122801	-0.008598	NaN	0.000000	0.001678	0.001676	28.0784	0.080658	0.001971	40.9126	-147.723	-164.046	-0.015806	0.121483	-0.899770	-0.901131	-0.008598	40.9126	-0.899612	-1.004218E+12	8.561875E-15	NaN
400	1.000000	0.130807	7.36897e+06	-57089.1	1005.82	-29737.7	0.000000	0.000000	6.130767	0.053797	NaN	0.000000	0.001699	0.001681	28.0787	0.106601	0.001991	53.531	60.6563	-163.892	0.105565	0.129489	-0.891806	-0.893125	0.053797	53.531	-0.892560	-8.063303E+11	-6.671797E-14	NaN
400	1.000000	0.138796	7.36897e+06	-57089.1	1005.82	-29737.7	0.000000	0.000000	6.138752	-0.040436	NaN	0.000000	0.001667	0.001708	28.0787	0.222780	0.002052	108.565	-125.305	-163.405	0.058415	0.137566	-0.883818	-0.885047	-0.040436	108.565	-0.883538	-6.089131E+11	6.640666E-14	NaN
400	1.000000	0.146814	7.36897e+06	-57089.1	1005.82	-29737.7	0.000000	0.000000	6.146770	-0.054543	NaN	0.000000	0.001683	0.001683	28.0787	0.074708	0.001847	40.4401	83.2246	-165.528	0.014406	0.145535	-0.875799	-0.877078	-0.054543	40.4401	-0.874788	-4.636734E+11	1.176330E-13	NaN
400	1.000000	0.154840	7.36897e+06	-57089.1	1005.82	-29737.7	0.000000	0.000000	6.154797	0.000766	NaN	0.000000	0.001654	0.001707	28.0784	0.164361	0.002013	81.6465	-164.701	-163.785	-0.033464	0.153546	-0.867774	-0.869067	0.000766	81.6465	-0.867781	-3.727502E+11	-2.055345E-15	NaN
400	1.000000	0.162849	7.36897e+06	-57089.1	1005.82	-29737.7	0.000000	0.000000	6.162808	0.029693	NaN	0.000000	0.001703	0.001694	28.0784	0.065336	0.001957	33.3775	128.485	-164.265	-0.051402	0.161497	-0.859764	-0.861117	0.029693	33.3775	-0.860432	-2.964575E+11	-1.001606E-13	NaN
400	1.000000	0.170811	7.36897e+06	-57089.1	1005.82	-29737.7	0.000000	0.000000	6.170770	0.027979	NaN	0.000000	0.001716	0.001708	28.0785	0.080683	0.001920	42.0222	86.0167	-163.318	0.079876	0.169520	-0.851803	-0.853094	0.027979	42.0222	-0.852302	-2.300956E+11	-1.215970E-13	NaN
400	1.000000	0.178846	7.36897e+06	-57089.1	1005.82	-29737.7	0.000000	0.000000	6.178803	-0.017829	NaN	0.000000	0.001704	0.001687	28.0797	0.071010	0.001944	36.5224	-49.525	-166.248	0.105509	0.177577	-0.843767	-0.845036	-0.017829	36.5224	-0.843401	-1.743256E+11	1.022766E-13	NaN
400	1.000000	0.186855	7.36897e+06	-57089.1	1005.82	-29737.7	0.000000	0.000000	6.186811	-0.046494	NaN	0.000000	0.001690	0.001697	28.08	0.072019	0.002072	34.7571	88.7489	-168.182	-0.039229	0.185577	-0.835758	-0.837036	-0.046494	34.7571	-0.834755	-1.331141E+11	3.492830E-13	NaN
400	1.000000	0.194845	7.36897e+06	-57089.1	1005.82	-29737.7	0.000000	0.000000	6.194801	-0.038808	NaN	0.000000	0.001702	0.001713	28.0798	0.111594	0.001927	57.9048	-153.191	-162.484	-0.021334	0.193495	-0.827768	-0.829118	-0.038808	57.9048	-0.827266	-1.053710E+11	3.682971E-13	NaN
400	1.000000	0.202865	7.36897e+06	-57089.1	1005.82	-29737.7	0.000000	0.000000	6.202823	0.011065	NaN	0.000000	0.001694	0.001703	28.0801	0.082135	0.002136	38.4524	-133.311	-168.531	0.026137	0.201610	-0.819748	-0.821003	0.011065	38.4524	-0.819964	-8.389273E+10	-1.318954E-13	NaN
400	1.000000	0.210849	7.36897e+06	-57089.1	1005.82	-29737.7	0.000000	0.000000	6.210805	-0.037150	NaN	0.000000	0.001710	0.001713	28.0798	0.075937	0.002040	37.233	175.467	-165.58	-0.006676	0.209575	-0.811764	-0.813038	-0.037150	37.233	-0.811016	-6.343896E+10	5.856074E-13	NaN
400	1.000000	0.218871	7.36897e+06	-57089.1	1005.82	-29737.7	0.000000	0.000000	6.218829	0.017817	NaN	0.000000	0.001700	0.001724	28.0799	0.017384	0.001946	8.935027	-110.979	-166.304	0.008153	0.217581	-0.803742	-0.805032	0.017817	8.935027	-0.805238	-5.296082E+10	-3.364182E-13	NaN
400	1.000000	0.226847	7.36897e+06	-57089.1	1005.82	-29737.7	0.000000	0.000000	6.226804	-0.030717	NaN	0.000000	0.001701	0.001714	28.0799	0.083609	0.001997	41.8621	32.0323	-162.37	-0.103683	0.225611	-0.795766	-0.797002	-0.030717	41.8621	-0.795216	-3.871776E+10	7.933617E-13	NaN
400	1.000000	0.234895	7.36897e+06	-57089.1	1005.82	-29737.7	0.000000	0.000000	6.234853	-0.004784	NaN	0.000000	0.001637	0.001711	28.0801	0.108930	0.002091	52.0931	178.008	-162.6	-0.005025	0.233580	-0.787718	-0.789034	-0.004784	52.0931	-0.787649	-3.055976E+10	1.565566E-13	NaN
400	1.000000	0.242853	7.36897e+06	-57089.1	1005.82	-29737.7	0.000000	0.000000	6.242810	-0.030979	NaN	0.000000	0.001751	0.001699	28.0795	0.040836	0.001976	20.6664	-21.0581	-164.807	-0.027752	0.241583	-0.779760	-0.781030	-0.030979	20.6664	-0.778636	-2.305098E+10	1.343919E-12	NaN
400	1.000000	0.250879	7.36897e+06	-57089.1	1005.82	-29737.7	0.000000	0.000000	6.250836	-0.012146	NaN	0.000000	0.001757	0.001695	28.0796	0.092024	0.002069	44.4735	4.619682	-165.165	-0.010792	0.249501	-0.771734	-0.773113	-0.012146	44.4735	-0.771529	-1.845429E+10	6.581606E-13	NaN
400	1.000000	0.258872	7.36897e+06	-57089.1	1005.82	-29737.7	0.000000	0.000000	6.258832	0.035685	NaN	0.000000	0.001703	0.001732	28.0794	0.050861	0.002071	24.5627	123.161	-165.127	0.144361	0.257582	-0.763741	-0.765031	0.035685	24.5627	-0.764830	-1.496259E+10	-2.384938E-12	NaN
400	1.000000	0.266886	7.36897e+06	-57089.1	1005.82	-29737.7	0.000000	0.000000	6.266845	0.022620	NaN	0.000000	0.001706	0.001680	28.0795	0.069780	0.002012	34.6882	-108.03	-164.273	0.037384	0.265605	-0.755727	-0.757008	0.022620	34.6882	-0.756216	-1.142412E+10	-1.979997E-12	NaN
400	1.000000	0.274863	7.36897e+06	-57089.1	1005.82	-29737.7	0.000000	0.000000	6.274818	-0.050070	NaN	0.000000	0.001733	0.001721	28.0797	0.059786	0.001951	30.6367	-112.059	-162.634	0.021996	0.273572	-0.747751	-0.749041	-0.050070	30.6367	-0.746525	-8.431611E+9	5.938349E-12	NaN
400	1.000000	0.282866	7.36897e+06	-57089.1	1005.82	-29737.7	0.000000	0.000000	6.282822	-0.043544	NaN	0.000000	0.001658	0.001719	28.0793	0.049633	0.002095	23.6889	114.724	-165.037	-0.049266	0.281590	-0.739748	-0.741024	-0.043544	23.6889	-0.738369	-6.528896E+9	6.669391E-12	NaN
400	1.000000	0.290898	7.36897e+06	-57089.1	1005.82	-29737.7	0.000000	0.000000	6.290857	0.023968	NaN	0.000000	0.001660	0.001711	28.0797	0.077328	0.001907	40.5575	-176.733	-167.447	-0.061209	0.289587	-0.731715	-0.733026	0.023968	40.5575	-0.732158	-5.373018E+9	-4.460791E-12	NaN
400	1.000000	0.298877	7.36897e+06	-57089.1	1005.82	-29737.7	0.000000	0.000000	6.298833	-0.049192	NaN	0.000000	0.001686	0.001715	28.0795	0.061533	0.001921	32.0276	-5.492626	-164.138	-0.016714	0.297545	-0.723736	-0.725068	-0.049192	32.0276	-0.722584	-3.978448E+9	1.236453E-11	NaN
400	1.000000	0.306912	7.36897e+06	-57089.1	1005.82	-29737.7	0.000000	0.000000	6.306870	0.000112	NaN	0.000000	0.001639	0.001691	28.0798	0.025271	0.002041	12.3832	-5.384462	-164.996	0.045643	0.305567	-0.715701	-0.717046	0.000112	12.3832	-0.715708	-3.205779E+9	-3.503888E-14	NaN
400	1.000000	0.314921	7.36897e+06	-57089.1	1005.82	-29737.7	0.000000	0.000000	6.314878	-0.003597	NaN	0.000000	0.001630	0.001696	28.079	0.037927	0.002110	17.9765	133.938	-166.785	-0.037048	0.313578	-0.707692	-0.709035	-0.003597	17.9765	-0.707542	-2.480313E+9	1.450105E-12	NaN
400	1.000000	0.322929	7.36897e+06	-57089.1	1005.82	-29737.7	0.000000	0.000000	6.322889	0.036555	NaN	0.000000	0.001655	0.001722	28.0785	0.063421	0.001990	31.873	-173.36	-165.455	0.012946	0.321607	-0.699684	-0.701007	0.036555	31.873	-0.700544	-1.990493E+9	-1.836470E-11	NaN
400	1.000000	0.330899	7.36897e+06	-57089.1	1005.82	-29737.7	0.000000	0.000000	6.330857	0.008106	NaN	0.000000	0.001717	0.001724	28.0785	0.093651	0.001966	47.6438	-1.938514	-163.47	-0.006642	0.329637	-0.691714	-0.692976	0.008106	47.6438	-0.691842	-1.513874E+9	-5.354508E-12	NaN
400	1.000000	0.338925	7.36897e+06	-57089.1	1005.82	-29737.7	0.000000	0.000000	6.338882	-0.010158	NaN	0.000000	0.001722	0.001686	28.0783	0.120522	0.002050	58.8013	-21.6694	-166.358	-0.085643	0.337616	-0.683689	-0.684998	-0.010158	58.8013	-0.683559	-1.166470E+9	8.708041E-12	NaN
400	1.000000	0.346888	7.36897e+06	-57089.1	1005.82	-29737.7	0.000000	0.000000	6.346845	-0.024451	NaN	0.000000	0.001713	0.001723	28.0784	0.050352	0.002068	24.3493	105.027	-166.602	-0.051969	0.345627	-0.675725	-0.676986	-0.024451	24.3493	-0.674972	-8.900837E+8	2.747003E-11	NaN
400	1.000000	0.354928	7.36897e+06	-57089.1	1005.82	-29737.7	0.000000	0.000000	6.354887	0.027100	NaN	0.000000	0.001742	0.001693	28.0782	0.065211	0.002069	31.5247	-0.726246	-163.919	0.026293	0.353564	-0.667685	-0.669049	0.027100	31.5247	-0.668330	-7.219872E+8	-3.753510E-11	NaN
400	1.000000	0.362929	7.36897e+06	-57089.1	1005.82	-29737.7	0.000000	0.000000	6.362888	0.043406	NaN	0.000000	0.001719	0.001667	28.0785	0.065184	0.002069	31.5114	17.3796	-167.034	-0.043503	0.361593	-0.659685	-0.661020	0.043406	31.5114	-0.660718	-5.679382E+8	-7.642696E-11	NaN
400	1.000000	0.370890	7.36897e+06	-57089.1	1005.82	-29737.7	0.000000	0.000000	6.370852	0.097968	NaN	0.000000	0.001707	0.001709	28.0785	0.050889	0.002032	25.038	-155.551	-163.456	0.084383	0.369588	-0.651723	-0.653025	0.097968	25.038	-0.654658	-4.691131E+8	-2.088370E-10	NaN
400	1.000000	0.378936	7.36897e+06	-57089.1	1005.82	-29737.7	0.000000	0.000000	6.378897	0.071952	NaN	0.000000	0.001691	0.001703	28.0784	0.117537	0.001986	59.1779	23.8014	-166.305	0.139537	0.377599	-0.643677	-0.645014	0.071952	59.1779	-0.644589	-3.413792E+8	-2.107689E-10	NaN
400	1.000000	0.386934	7.36897e+06	-57089.1	1005.82	-29737.7	0.000000	0.000000	6.386891	-0.030145	NaN	0.000000	0.001657	0.001713	28.0785	0.126296	0.001974	63.9821	28.0119	-170.962	-0.081496	0.385648	-0.635679	-0.636965	-0.030145	63.9821	-0.635326	-2.547650E+8	1.183251E-10	NaN
400	1.000000	0.394950	7.36897e+06	-57089.1	1005.82	-29737.7	0.000000	0.000000	6.394907	-0.023537	NaN	0.000000	0.001686	0.001706	28.0783	0.129862	0.001948	66.6643	69.0831	-165.971	-0.004461	0.393622	-0.627663	-0.628992	-0.023537	66.6643	-0.627399	-1.982878E+8	1.187018E-10	NaN
400	1.000000	0.402886	7.36897e+06	-57089.1	1005.82	-29737.7	0.000000	0.000000	6.402844	-0.003175	NaN	0.000000	0.001693	0.001707	28.0783	0.042311	0.001823	23.2072	-0.761169	-164.112	0.086009	0.401622	-0.619727	-0.620992	-0.003175	23.2072	-0.619624	-1.550493E+8	2.047723E-11	NaN
400	1.000000	0.410939	7.36897e+06	-57089.1	1005.82	-29737.7	0.000000	0.000000	6.410899	0.033337	NaN	0.000000	0.001701	0.001732	28.0783	0.082607	0.001998	41.3491	3.899694	-166.073	-0.017693	0.409618	-0.611674	-0.612995	0.033337	41.3491	-0.612279	-1.228742E+8	-2.713125E-10	NaN
400	1.000000	0.418929	7.36897e+06	-57089.1	1005.82	-29737.7	0.000000	0.000000	6.418890	0.071929	NaN	0.000000	0.001732	0.001759	28.0784	0.031385	0.002092	15.0042	91.368	-165.91	0.095065	0.417620	-0.603684	-0.604993	0.071929	15.0042	-0.607279	-1.048758E+8	-6.858488E-10	NaN
400	1.000000	0.426948	7.36897e+06	-57089.1	1005.82	-29737.7	0.000000	0.000000	6.426908	0.063251	NaN	0.000000	0.001658	0.001734	28.0786	0.098170	0.002122	46.2734	-5.124327	-164.188	-0.026885	0.425627	-0.595665	-0.596986	0.063251	46.2734	-0.596690	-7.496737E+7	-8.437155E-10	NaN
400	1.000000	0.434974	7.36897e+06	-57089.1	1005.82	-29737.7	0.000000	0.000000	6.434932	0.009291	NaN	0.000000	0.001653	0.001758	28.0783	0.113687	0.002043	55.6364	165.034	-165.267	-0.031685	0.433629	-0.587640	-0.588984	0.009291	55.6364	-0.587765	-5.647393E+7	-1.645180E-10	NaN
400	1.000000	0.442961	7.36897e+06	-57089.1	1005.82	-29737.7	0.000000	0.000000	6.442921	0.060642	NaN	0.000000	0.001699	0.001730	28.0784	0.064849	0.002014	32.1914	151.346	-164.316	0.047521	0.441629	-0.579652	-0.580984	0.060642	32.1914	-0.581065	-4.564838E+7	-1.328452E-9	NaN
400	1.000000	0.450975	7.36898e+06	-57089.1	1005.82	-29737.7	0.000000	0.000000	6.450929	-0.083935	NaN	0.000000	0.001701	0.001725	28.0791	0.091056	0.001943	46.8706	-73.526	-165.278	0.013094	0.449671	-0.571638	-0.572942	-0.083935	46.8706	-0.570295	-3.241243E+7	2.589594E-9	NaN
400	1.000000	0.458952	7.36898e+06	-57089.1	1005.82	-29737.7	0.000000	0.000000	6.458910	-0.003243	NaN	0.000000	0.001676	0.001750	28.0799	0.027757	0.002108	13.1669	-136.178	-165.517	-0.134206	0.457656	-0.563661	-0.564958	-0.003243	13.1669	-0.563476	-2.608917E+7	1.243146E-10	NaN
400	1.000000	0.466934	7.36898e+06	-57089.1	1005.82	-29737.7	0.000000	0.000000	6.466892	0.005192	NaN	0.000000	0.001699	0.001726	28.0798	0.036121	0.002048	17.6396	-124.157	-165.537	0.002078	0.465629	-0.555679	-0.556984	0.005192	17.6396	-0.555900	-2.049461E+7	-2.533431E-10	NaN
400	1.000000	0.474965	7.36898e+06	-57089.1	1005.82	-29737.7	0.000000	0.000000	6.474925	0.041439	NaN	0.000000	0.001601	0.001748	28.0797	0.042724	0.001940	22.0194	-159.544	-161.445	-0.004446	0.473605	-0.547648	-0.549008	0.041439	22.0194	-0.549059	-1.647879E+7	-2.514697E-9	NaN
400	1.000000	0.482958	7.36898e+06	-57089.1	1005.82	-29737.7	0.000000	0.000000	6.482914	-0.050993	NaN	0.000000	0.001616	0.001746	28.0797	0.059134	0.002018	29.3025	-146.107	-163.176	-0.054354	0.481708	-0.539655	-0.540906	-0.050993	29.3025	-0.538350	-1.170769E+7	4.355521E-9	NaN
400	1.000000	0.490994	7.36898e+06	-57089.1	1005.82	-29737.7	0.000000	0.000000	6.490951	-0.019336	NaN	0.000000	0.001595	0.001765	28.0799	0.078329	0.002050	38.2018	121.907	-167.55	-0.073363	0.489633	-0.531619	-0.532981	-0.019336	38.2018	-0.531240	-9.32801e+06	2.072915E-9	NaN
400	1.000000	0.498988	7.36898e+06	-57089.1	1005.82	-29737.7	0.000000	0.000000	6.498948	0.051491	NaN	0.000000	0.001606	0.001726	28.08	0.031869	0.001908	16.7053	-128.983	-165.306	0.077200	0.497653	-0.523625	-0.524960	0.051491	16.7053	-0.525937	-7.87286e+06	-6.540289E-9	NaN
400	1.000000	0.506990	7.36898e+06	-57089.1	1005.82	-29737.7	0.000000	0.000000	6.506949	0.013626	NaN	0.000000	0.001596	0.001740	28.0797	0.086393	0.001929	44.7914	125.393	-165.081	0.020069	0.505667	-0.515623	-0.516947	0.013626	44.7914	-0.515851	-5.70006e+06	-2.390522E-9	NaN
400	1.000000	0.514975	7.36898e+06	-57089.1	1005.82	-29737.7	0.000000	0.000000	6.514933	0.014491	NaN	0.000000	0.001584	0.001697	28.0798	0.005248	0.001959	2.678439	-39.1235	-164.382	0.095385	0.513700	-0.507639	-0.508913	0.014491	2.678439	-0.511696	-4.9893e+06	-2.904447E-9	NaN
400	1.000000	0.522983	7.36898e+06	-57089.1	1005.82	-29737.7	0.000000	0.000000	6.522944	0.064677	NaN	0.000000	0.001589	0.001744	28.0799	0.080104	0.001993	40.2015	-22.7847	-163.346	0.089498	0.521666	-0.499630	-0.500947	0.064677	40.2015	-0.500837	-3.52118e+06	-1.836803E-8	NaN
400	1.000000	0.530996	7.36898e+06	-57089.1	1005.82	-29737.7	0.000000	0.000000	6.530954	0.008246	NaN	0.000000	0.001618	0.001711	28.0798	0.054484	0.001959	27.8075	126.961	-165.092	-0.029538	0.529662	-0.491617	-0.492951	0.008246	27.8075	-0.491840	-2.63693e+06	-3.127300E-9	NaN
400	1.000000	0.539001	7.36898e+06	-57089.1	1005.82	-29737.7	0.000000	0.000000	6.538959	0.004069	NaN	0.000000	0.001606	0.001704	28.0797	0.070871	0.001868	37.9463	-3.687171	-164.094	-0.010613	0.537700	-0.483612	-0.484913	0.004069	37.9463	-0.483693	-2.02864e+06	-2.005816E-9	NaN
400	1.000000	0.546987	7.36898e+06	-57089.1	1005.82	-29737.7	0.000000	0.000000	6.546945	0.022136	NaN	0.000000	0.001621	0.001754	28.0797	0.054246	0.001994	27.2049	-133.926	-164.665	0.057536	0.545655	-0.475627	-0.476958	0.022136	27.2049	-0.476237	-1.59525e+06	-1.387628E-8	NaN
400	1.000000	0.554999	7.36898e+06	-57089.1	1005.82	-29737.7	0.000000	0.000000	6.554957	-0.002425	NaN	0.000000	0.001647	0.001709	28.08	0.119388	0.002066	57.7903	-15.1121	-164.613	0.058361	0.553722	-0.467614	-0.468891	-0.002425	57.7903	-0.467582	-1.2064e+06	2.010034E-9	NaN
400	1.000000	0.563007	7.36898e+06	-57089.1	1005.82	-29737.7	0.000000	0.000000	6.562963	-0.052315	NaN	0.000000	0.001581	0.001719	28.0799	0.096821	0.001935	50.0301	-130.521	-163.357	-0.124198	0.561734	-0.459606	-0.460879	-0.052315	50.0301	-0.458822	-908790	5.756592E-8	NaN
400	1.000000	0.571019	7.36898e+06	-57089.1	1005.82	-29737.7	0.000000	0.000000	6.570979	0.037424	NaN	0.000000	0.001586	0.001741	28.0799	0.129913	0.001973	65.8496	167.759	-163.088	0.026239	0.569677	-0.451594	-0.452936	0.037424	65.8496	-0.452020	-729094	-5.132883E-8	NaN
400	1.000000	0.578991	7.36898e+06	-57089.1	1005.82	-29737.7	0.000000	0.000000	6.578950	0.040599	NaN	0.000000	0.001632	0.001729	28.0798	0.102162	0.002008	50.8755	82.6542	-164.054	0.039062	0.577681	-0.443623	-0.444933	0.040599	50.8755	-0.444221	-566124	-7.171440E-8	NaN
400	1.000000	0.587011	7.36898e+06	-57089.1	1005.82	-29737.7	0.000000	0.000000	6.586965	-0.088364	NaN	0.000000	0.001599	0.001728	28.0796	0.038803	0.001989	19.5054	-162.354	-164.1	-0.014250	0.585726	-0.435602	-0.436888	-0.088364	19.5054	-0.432205	-383039	2.306907E-7	NaN
400	1.000000	0.595032	7.36898e+06	-57089.1	1005.82	-29737.7	0.000000	0.000000	6.594992	0.047783	NaN	0.000000	0.001628	0.001710	28.0786	0.019518	0.001988	9.816981	22.9603	-165.503	0.062002	0.593719	-0.427581	-0.428895	0.047783	9.816981	-0.431232	-371098	-1.287610E-7	NaN
400	1.000000	0.603027	7.36898e+06	-57089.1	1005.82	-29737.7	0.000000	0.000000	6.602987	0.042368	NaN	0.000000	0.001606	0.001686	28.0788	0.056014	0.001993	28.1002	-99.0789	-161.835	0.025250	0.601678	-0.419586	-0.420935	0.042368	28.1002	-0.420717	-263380	-1.608621E-7	NaN
400	1.000000	0.610992	7.36898e+06	-57089.1	1005.82	-29737.7	0.000000	0.000000	6.610947	-0.066899	NaN	0.000000	0.001689	0.001719	28.0787	0.041335	0.002040	20.2613	168.049	-166.76	-0.122234	0.609704	-0.411621	-0.412910	-0.066899	20.2613	-0.409145	-180402	3.708353E-7	NaN
400	1.000000	0.619039	7.36898e+06	-57089.1	1005.82	-29737.7	0.000000	0.000000	6.618997	-0.000257	NaN	0.000000	0.001691	0.001688	28.0788	0.089813	0.001983	45.2953	144.822	-163.463	0.012243	0.617755	-0.403575	-0.404858	-0.000257	45.2953	-0.403570	-150274	1.707174E-9	NaN
400	1.000000	0.627040	7.36898e+06	-57089.1	1005.82	-29737.7	0.000000	0.000000	6.626999	0.015552	NaN	0.000000	0.001706	0.001724	28.0787	0.091508	0.001889	48.4505	76.9961	-161.163	0.020762	0.625708	-0.395573	-0.396906	0.015552	48.4505	-0.395814	-116480	-1.335136E-7	NaN
400	1.000000	0.635040	7.36898e+06	-57089.1	1005.82	-29737.7	0.000000	0.000000	6.634998	0.022510	NaN	0.000000	0.001661	0.001719	28.0787	0.075166	0.001979	37.9887	-99.6984	-167.306	0.061766	0.633694	-0.387574	-0.388920	0.022510	37.9887	-0.388018	-90117.2	-2.497849E-7	NaN
400	1.000000	0.643030	7.36898e+06	-57089.1	1005.82	-29737.7	0.000000	0.000000	6.642989	0.027439	NaN	0.000000	0.001666	0.001713	28.0785	0.025396	0.002094	12.1256	1.849615	-167.924	0.003346	0.641709	-0.379584	-0.380904	0.027439	12.1256	-0.381281	-72155	-3.802764E-7	NaN
400	1.000000	0.651081	7.36898e+06	-57089.1	1005.82	-29737.7	0.000000	0.000000	6.651040	0.040143	NaN	0.000000	0.001631	0.001700	28.0788	0.099276	0.001998	49.6895	20.783	-163.32	-0.070538	0.649753	-0.371532	-0.372860	0.040143	49.6895	-0.372138	-53322.3	-7.528456E-7	NaN
400	1.000000	0.659041	7.36898e+06	-57089.1	1005.82	-29737.7	0.000000	0.000000	6.658997	-0.045588	NaN	0.000000	0.001678	0.001689	28.0788	0.033823	0.001947	17.3687	-60.3953	-166.706	-0.037294	0.657697	-0.363572	-0.364917	-0.045588	17.3687	-0.361603	-37585.2	1.212914E-6	NaN
400	1.000000	0.667048	7.36898e+06	-57089.1	1005.82	-29737.7	0.000000	0.000000	6.667005	-0.022671	NaN	0.000000	0.001654	0.001697	28.0785	0.056575	0.002002	28.262	-96.6758	-167.565	-0.018457	0.665741	-0.355566	-0.356872	-0.022671	28.262	-0.354964	-30128.2	7.524890E-7	NaN
400	1.000000	0.675081	7.36898e+06	-57089.1	1005.82	-29737.7	0.000000	0.000000	6.675040	0.026323	NaN	0.000000	0.001632	0.001712	28.0788	0.054953	0.002014	27.2913	9.158975	-164.457	0.050910	0.673725	-0.347532	-0.348888	0.026323	27.2913	-0.348256	-24081.1	-1.093082E-6	NaN
400	1.000000	0.683056	7.36898e+06	-57089.1	1005.82	-29737.7	0.000000	0.000000	6.683014	0.002209	NaN	0.000000	0.001674	0.001716	28.0785	0.060206	0.002025	29.7256	-100.656	-163.244	-0.055634	0.681804	-0.339557	-0.340809	0.002209	29.7256	-0.339613	-18026.6	-1.225270E-7	NaN
400	1.000000	0.691061	7.36898e+06	-57089.1	1005.82	-29737.7	0.000000	0.000000	6.691020	0.019018	NaN	0.000000	0.001693	0.001700	28.0787	0.025013	0.002068	12.0937	-50.7875	-162.933	0.060809	0.689771	-0.331552	-0.332842	0.019018	12.0937	-0.332732	-14303	-1.329666E-6	NaN
400	1.000000	0.699070	7.36898e+06	-57089.1	1005.82	-29737.7	0.000000	0.000000	6.699029	0.027203	NaN	0.000000	0.001678	0.001699	28.0786	0.016599	0.001859	8.928748	-44.0979	-163.562	0.030793	0.697760	-0.323543	-0.324854	0.027203	8.928748	-0.325828	-11331.5	-2.400609E-6	NaN
400	1.000000	0.707071	7.36898e+06	-57089.1	1005.82	-29737.7	0.000000	0.000000	6.707032	0.057809	NaN	0.000000	0.001730	0.001704	28.0782	0.125176	0.001944	64.4057	100.835	-168.22	0.007545	0.705769	-0.315542	-0.316844	0.057809	64.4057	-0.316215	-8182.23	-7.065221E-6	NaN
400	1.000000	0.715077	7.36898e+06	-57089.1	1005.82	-29737.7	0.000000	0.000000	6.715036	0.021300	NaN	0.000000	0.001703	0.001701	28.0789	0.046146	0.002119	21.777	154.154	-162.126	0.084546	0.713755	-0.307536	-0.308859	0.021300	21.777	-0.308270	-6243.63	-3.411413E-6	NaN
400	1.000000	0.723069	7.36898e+06	-57089.1	1005.82	-29737.7	0.000000	0.000000	6.723025	-0.058397	NaN	0.000000	0.001688	0.001705	28.0784	0.059034	0.002030	29.0787	113.681	-166.167	-0.071424	0.721773	-0.299544	-0.300840	-0.058397	29.0787	-0.298038	-4399.57	1.327342E-5	NaN
400	1.000000	0.731067	7.36898e+06	-57089.1	1005.82	-29737.7	0.000000	0.000000	6.731027	0.056165	NaN	0.000000	0.001678	0.001703	28.08	0.068641	0.001852	37.0538	148.373	-163.459	0.056811	0.729749	-0.291547	-0.292864	0.056165	37.0538	-0.292683	-3659.9	-1.534596E-5	NaN
400	1.000000	0.739088	7.36898e+06	-57089.1	1005.82	-29737.7	0.000000	0.000000	6.739046	0.014949	NaN	0.000000	0.001648	0.001728	28.0806	0.060358	0.002038	29.6193	-167.648	-166.085	0.028330	0.737802	-0.283525	-0.284812	0.014949	29.6193	-0.283904	-2702.6	-5.531519E-6	NaN
400	1.000000	0.747106	7.36898e+06	-57089.1	1005.82	-29737.7	0.000000	0.000000	6.747064	0.004030	NaN	0.000000	0.001706	0.001712	28.0797	0.060757	0.001945	31.2373	-140.204	-167.797	0.004487	0.745783	-0.275507	-0.276830	0.004030	31.2373	-0.275604	-2025.55	-1.989569E-6	NaN
400	1.000000	0.755106	7.36898e+06	-57089.1	1005.82	-29737.7	0.000000	0.000000	6.755063	-0.034242	NaN	0.000000	0.001667	0.001696	28.0801	0.106568	0.002078	51.2834	72.8007	-161.742	-0.032785	0.753772	-0.267507	-0.268841	-0.034242	51.2834	-0.267006	-1499.62	2.283355E-5	NaN
400	1.000000	0.763082	7.36898e+06	-57089.1	1005.82	-29737.7	0.000000	0.000000	6.763040	6.095071E-5	NaN	0.000000	0.001677	0.001718	28.0796	0.079551	0.002009	39.6045	-66.7797	-165.505	-0.004354	0.761793	-0.259531	-0.260820	6.095071E-5	39.6045	-0.259532	-1152.77	-5.287309E-8	NaN
400	1.000000	0.771063	7.36898e+06	-57089.1	1005.82	-29737.7	0.000000	0.000000	6.771021	0.011193	NaN	0.000000	0.001664	0.001733	28.08	0.056280	0.002017	27.9058	-82.7876	-163.8	0.036123	0.769802	-0.251550	-0.252812	0.011193	27.9058	-0.251851	-878.156	-1.274639E-5	NaN
400	1.000000	0.779085	7.36898e+06	-57089.1	1005.82	-29737.7	0.000000	0.000000	6.779043	0.008615	NaN	0.000000	0.001662	0.001748	28.08	0.024818	0.001981	12.5285	-130.435	-165.804	0.015232	0.777778	-0.243529	-0.244835	0.008615	12.5285	-0.244044	-664.65	-1.296141E-5	NaN
400	1.000000	0.787120	7.36898e+06	-57089.1	1005.82	-29737.7	0.000000	0.000000	6.787076	-0.036708	NaN	0.000000	0.001679	0.001738	28.0799	0.124093	0.002032	61.0802	114.858	-165.274	-0.079791	0.785812	-0.235493	-0.236801	-0.036708	61.0802	-0.235043	-480.751	7.635512E-5	NaN
400	1.000000	0.795070	7.36898e+06	-57089.1	1005.82	-29737.7	0.000000	0.000000	6.795029	0.042509	NaN	0.000000	0.001670	0.001707	28.0799	0.035283	0.001956	18.0342	12.8561	-165.699	0.051279	0.793767	-0.227543	-0.228846	0.042509	18.0342	-0.229311	-390.516	-0.000109	NaN
400	1.000000	0.803079	7.36898e+06	-57089.1	1005.82	-29737.7	0.000000	0.000000	6.803034	-0.064234	NaN	0.000000	0.001671	0.001752	28.0799	0.114955	0.001912	60.1285	-94.1249	-160.188	0.026085	0.801774	-0.219534	-0.220839	-0.064234	60.1285	-0.218733	-265.1	0.000242	NaN
400	1.000000	0.811092	7.36898e+06	-57089.1	1005.82	-29737.7	0.000000	0.000000	6.811048	-0.050554	NaN	0.000000	0.001647	0.001724	28.0799	0.082469	0.001885	43.7478	123.1	-163.355	0.057210	0.809769	-0.211521	-0.212844	-0.050554	43.7478	-0.210655	-196.524	0.000257	NaN
400	1.000000	0.819146	7.36898e+06	-57089.1	1005.82	-29737.7	0.000000	0.000000	6.819103	-0.028725	NaN	0.000000	0.001657	0.001753	28.0797	0.090253	0.001914	47.1605	48.5549	-165.934	-0.024422	0.817770	-0.203467	-0.204843	-0.028725	47.1605	-0.203010	-147.591	0.000195	NaN
400	1.000000	0.827105	7.36898e+06	-57089.1	1005.82	-29737.7	0.000000	0.000000	6.827060	-0.072395	NaN	0.000000	0.001674	0.001726	28.08	0.081133	0.002091	38.7945	-30.9924	-164.309	-0.066314	0.825749	-0.195508	-0.196864	-0.072395	38.7945	-0.194108	-105.298	0.000688	NaN
400	1.000000	0.835138	7.36898e+06	-57089.1	1005.82	-29737.7	0.000000	0.000000	6.835095	-0.010985	NaN	0.000000	0.001620	0.001757	28.0797	0.086173	0.001956	44.0665	-20.8436	-160.477	-0.042515	0.833850	-0.187475	-0.188764	-0.010985	44.0665	-0.187288	-81.0251	0.000136	NaN
400	1.000000	0.843130	7.36898e+06	-57089.1	1005.82	-29737.7	0.000000	0.000000	6.843088	0.008339	NaN	0.000000	0.001604	0.001751	28.0798	0.073291	0.002019	36.2957	92.2031	-164.75	-0.037833	0.841778	-0.179483	-0.180835	0.008339	36.2957	-0.179656	-60.2017	-0.000139	NaN
400	1.000000	0.851117	7.36898e+06	-57089.1	1005.82	-29737.7	0.000000	0.000000	6.851076	0.037378	NaN	0.000000	0.001574	0.001786	28.0799	0.060236	0.001906	31.6084	-68.6516	-164.112	0.033964	0.849782	-0.171497	-0.172831	0.037378	31.6084	-0.172384	-45.175	-0.000827	NaN
400	1.000000	0.859137	7.36898e+06	-57089.1	1005.82	-29737.7	0.000000	0.000000	6.859095	0.015192	NaN	0.000000	0.001595	0.001742	28.0799	0.055252	0.002084	26.5088	-19.6764	-162.576	0.077556	0.857743	-0.163477	-0.164870	0.015192	26.5088	-0.163906	-32.1422	-0.000473	NaN
400	1.000000	0.867104	7.36898e+06	-57089.1	1005.82	-29737.7	0.000000	0.000000	6.867063	0.037320	NaN	0.000000	0.001614	0.001762	28.0786	0.005810	0.002154	2.696953	43.6043	-162.414	0.066602	0.865773	-0.155510	-0.156841	0.037320	2.696953	-0.165888	-34.8243	-0.001072	NaN
400	1.000000	0.875134	7.36898e+06	-57089.1	1005.82	-29737.7	0.000000	0.000000	6.875091	-0.012009	NaN	0.000000	0.001614	0.001774	28.0785	0.056975	0.001929	29.5412	-29.4757	-168.184	-0.021195	0.873871	-0.147479	-0.148742	-0.012009	29.5412	-0.147175	-16.0794	0.000747	NaN
400	1.000000	0.883139	7.36898e+06	-57089.1	1005.82	-29737.7	0.000000	0.000000	6.883099	0.054255	NaN	0.000000	0.001599	0.001745	28.0786	0.052695	0.001898	27.7574	44.401	-167.679	0.049313	0.881883	-0.139474	-0.140730	0.054255	27.7574	-0.140940	-12.3197	-0.004404	NaN
400	1.000000	0.891121	7.36898e+06	-57089.1	1005.82	-29737.7	0.000000	0.000000	6.891078	-0.030016	NaN	0.000000	0.001615	0.001732	28.0788	0.044202	0.001847	23.9361	-69.2959	-165.403	0.000529	0.889857	-0.131492	-0.132756	-0.030016	23.9361	-0.130551	-7.811076	0.003843	NaN
400	1.000000	0.899123	7.36898e+06	-57089.1	1005.82	-29737.7	0.000000	0.000000	6.899083	0.059193	NaN	0.000000	0.001619	0.001726	28.0786	0.016344	0.002086	7.836561	93.2422	-166.878	0.066973	0.897810	-0.123491	-0.124804	0.059193	7.836561	-0.129156	-7.338137	-0.008067	NaN
400	1.000000	0.907138	7.36898e+06	-57089.1	1005.82	-29737.7	0.000000	0.000000	6.907098	0.056240	NaN	0.000000	0.001617	0.001737	28.0786	0.021558	0.001991	10.8287	-115.683	-162.816	0.103179	0.905818	-0.115475	-0.116795	0.056240	10.8287	-0.119370	-4.692009	-0.011986	NaN
400	1.000000	0.915154	7.36898e+06	-57089.1	1005.82	-29737.7	0.000000	0.000000	6.915112	0.003517	NaN	0.000000	0.001644	0.001683	28.0787	0.047406	0.002087	22.7136	33.5589	-167.296	0.011179	0.913861	-0.107459	-0.108752	0.003517	22.7136	-0.107576	-2.669671	-0.001317	NaN
400	1.000000	0.923145	7.36898e+06	-57089.1	1005.82	-29737.7	0.000000	0.000000	6.923103	0.006463	NaN	0.000000	0.001633	0.001758	28.0788	0.063622	0.001957	32.5125	-86.9078	-163.785	-0.051584	0.921812	-0.099468	-0.100801	0.006463	32.5125	-0.099617	-1.791784	-0.003607	NaN
400	1.000000	0.931158	7.36898e+06	-57089.1	1005.82	-29737.7	0.000000	0.000000	6.931116	0.013911	NaN	0.000000	0.001627	0.001734	28.0788	0.075101	0.001949	38.5302	-12.0195	-161.863	0.094075	0.929793	-0.091455	-0.092820	0.013911	38.5302	-0.091726	-1.186053	-0.011729	NaN
400	1.000000	0.939137	7.36898e+06	-57089.1	1005.82	-29737.7	0.000000	0.000000	6.939095	0.002101	NaN	0.000000	0.001615	0.001760	28.0786	0.101928	0.002050	49.7282	113.721	-165.123	-0.045511	0.937842	-0.083476	-0.084771	0.002101	49.7282	-0.083508	-0.755773	-0.002780	NaN
400	1.000000	0.947147	7.36898e+06	-57089.1	1005.82	-29737.7	0.000000	0.000000	6.947106	0.028711	NaN	0.000000	0.001647	0.001748	28.0787	0.129870	0.002011	64.5641	136.069	-168.225	0.110951	0.945832	-0.075466	-0.076781	0.028711	64.5641	-0.075800	-0.484341	-0.059278	NaN
400	1.000000	0.955162	7.36898e+06	-57089.1	1005.82	-29737.7	0.000000	0.000000	6.955119	-0.014680	NaN	0.000000	0.001660	0.001722	28.0787	0.019385	0.002077	9.333756	-96.1346	-160.853	0.004815	0.953802	-0.067451	-0.068812	-0.014680	9.333756	-0.066272	-0.270207	0.054328	NaN
400	1.000000	0.963183	7.36898e+06	-57089.1	1005.82	-29737.7	0.000000	0.000000	6.963142	0.036748	NaN	0.000000	0.001630	0.001738	28.0788	0.027247	0.001999	13.6271	-22.4384	-160.862	0.085541	0.961837	-0.059431	-0.060776	0.036748	13.6271	-0.061453	-0.198147	-0.185460	NaN
400	1.000000	0.971168	7.36898e+06	-57089.1	1005.82	-29737.7	0.000000	0.000000	6.971129	0.074035	NaN	0.000000	0.001608	0.001704	28.0788	0.039583	0.002127	18.6096	123.878	-163.629	0.067653	0.969872	-0.051445	-0.052741	0.074035	18.6096	-0.054429	-0.123863	-0.597716	NaN
400	1.000000	0.979168	7.36898e+06	-57089.1	1005.82	-29737.7	0.000000	0.000000	6.979125	-0.018399	NaN	0.000000	0.001590	0.001750	28.0788	0.085962	0.002032	42.2968	-67.2095	-163.565	-0.089902	0.977890	-0.043445	-0.044723	-0.018399	42.2968	-0.043119	-0.056295	0.326840	NaN
400	1.000000	0.987187	7.36898e+06	-57089.1	1005.82	-29737.7	0.000000	0.000000	6.987149	0.099440	NaN	0.000000	0.001634	0.001756	28.079	0.158590	0.002022	78.4459	40.8456	-163.32	0.103420	0.985871	-0.035426	-0.036743	0.099440	78.4459	-0.036377	-0.035177	-2.826835	NaN
400	1.000000	0.995175	7.36898e+06	-57089.1	1005.82	-29737.7	0.000000	0.000000	6.995146	0.303489	NaN	0.000000	0.001619	0.001757	28.0788	0.306858	0.002061	148.892	57.9396	-167.225	0.240298	0.993840	-0.027438	-0.028773	0.303489	148.892	-0.028967	-0.021546	-14.0855	NaN
400	1.000000	1.003156	7.36898e+06	-57089.1	1005.82	-29737.7	0.000000	0.000000	7.003126	0.282049	NaN	0.000000	0.001648	0.001765	28.0801	0.422603	0.002062	204.939	43.8246	-164.903	0.200034	1.001909	-0.019457	-0.020704	0.282049	204.939	-0.020489	-0.012926	-21.8204	NaN
400	1.000000	1.011196	7.36898e+06	-57089.1	1005.82	-29737.7	0.000000	0.000000	7.011175	0.498936	NaN	0.000000	0.001647	0.001783	28.0799	0.581834	0.002058	282.693	51.0678	-163.027	0.538170	1.009864	-0.011417	-0.012749	0.498936	282.693	-0.012741	-0.007953	-62.7356	NaN
400	1.000000	1.019216	7.36898e+06	-57089.1	1005.82	-29737.7	0.000000	0.000000	7.019199	0.620653	NaN	0.000000	0.001616	0.001739	28.0801	0.956261	0.001997	478.924	41.0301	-169.783	0.573948	1.017888	-0.003398	-0.004725	0.620653	478.924	-0.004370	-0.003017	-205.728	NaN
400	1.000000	1.027175	7.36898e+06	-57089.1	1005.82	-29737.7	0.000000	0.000000	7.027165	0.789116	NaN	0.000000	0.001662	0.001708	28.0801	1.342293	0.001893	709.215	39.8986	-165.21	0.783216	1.025893	0.004561	0.003280	0.789116	709.215	0.003727	0.003001	262.964	11828.5
400	1.000000	1.035206	7.36898e+06	-57089.1	1005.82	-29737.7	0.000000	0.000000	7.035222	1.407594	NaN	0.000000	0.001602	0.001722	28.0797	2.243032	0.002020	1110.29	36.5528	-168.237	1.213541	1.033929	0.012593	0.011316	1.407594	1110.29	0.011642	0.011064	127.219	9643.83
400	1.000000	1.043169	7.36898e+06	-57089.1	1005.82	-29737.7	0.000000	0.000000	7.043406	6.797950	NaN	0.000000	0.001638	0.001733	28.08	7.110394	0.001740	4086.66	16.5797	-169.522	5.527836	1.041863	0.020556	0.019249	6.797950	4086.66	0.019308	0.021467	316.675	25483.5
400	2.000000	1.046748	7.36898e+06	-57089.1	1005.82	-29737.7	0.000000	0.000000	7.047081	9.127693	NaN	0.000000	0.001632	0.001743	28.0801	9.369636	0.001604	5841.7	11.9988	-172.665	8.565839	1.046444	0.024135	0.023831	9.127693	5841.7	0.022963	0.027413	332.966	32235.3
400	2.000000	1.048733	7.36898e+06	-57089.1	1005.82	-29737.7	0.000000	0.000000	7.049166	11.5471	NaN	0.000000	0.001598	0.001735	28.0805	11.5381	0.001754	6578.96	7.555768	-169.962	11.1023	1.048357	0.026120	0.025743	11.5471	6578.96	0.024803	0.030659	376.635	34328.4
400	2.000000	1.050712	7.36898e+06	-57089.1	1005.82	-29737.7	0.000000	0.000000	7.051312	15.6162	NaN	0.000000	0.001582	0.001765	28.08	13.685	0.001839	7440.44	8.586272	-172.926	15.335	1.050402	0.028099	0.027789	15.6162	7440.44	0.026525	0.033848	461.363	36949.2
400	2.000000	1.052673	7.36898e+06	-57089.1	1005.82	-29737.7	0.000000	0.000000	7.053372	18.0205	NaN	0.000000	0.001598	0.001767	28.0798	15.4663	0.001691	9144.81	12.9258	-179.313	17.1791	1.052341	0.030060	0.029728	18.0205	9144.81	0.028582	0.037855	476.038	42942.3
400	2.000000	1.054687	7.36898e+06	-57089.1	1005.82	-29737.7	0.000000	0.000000	7.055533	21.5831	NaN	0.000000	0.001617	0.001722	28.0801	17.7706	0.001811	9813.14	8.104007	-175.237	22.1182	1.054372	0.032073	0.031758	21.5831	9813.14	0.030424	0.041627	518.489	43943.5
400	2.000000	1.056655	7.36898e+06	-57089.1	1005.82	-29737.7	0.000000	0.000000	7.057639	24.9493	NaN	0.000000	0.001645	0.001734	28.08	19.1585	0.001741	11007.4	11.9882	179.93	24.7266	1.056396	0.034042	0.033782	24.9493	11007.4	0.032342	0.045737	545.492	47024.5
400	2.000000	1.058675	7.36898e+06	-57089.1	1005.82	-29737.7	0.000000	0.000000	7.059739	26.8801	NaN	0.000000	0.001658	0.001719	28.0802	21.088	0.001918	10995.6	7.625947	-175.606	26.5554	1.058323	0.036062	0.035710	26.8801	10995.6	0.034228	0.049965	537.983	44942.8
400	2.000000	1.060656	7.36898e+06	-57089.1	1005.82	-29737.7	0.000000	0.000000	7.061900	31.254	NaN	0.000000	0.001620	0.001755	28.0802	22.7377	0.002010	11313.6	6.512328	-174.044	31.0286	1.060361	0.038043	0.037748	31.254	11313.6	0.035971	0.054032	578.438	44468.1
400	2.000000	1.062642	7.36898e+06	-57089.1	1005.82	-29737.7	0.000000	0.000000	7.064123	37.019	NaN	0.000000	0.001644	0.001757	28.0798	24.2711	0.001907	12726	8.635651	-178.856	36.1061	1.062319	0.040029	0.039706	37.019	12726	0.037847	0.058584	631.899	48037.2
400	2.000000	1.064622	7.36898e+06	-57089.1	1005.82	-29737.7	0.000000	0.000000	7.066269	41.0554	NaN	0.000000	0.001621	0.001714	28.0801	25.5582	0.001849	13826	10.3795	178.898	40.8539	1.064371	0.042008	0.041758	41.0554	13826	0.039781	0.063465	646.901	50142.4
400	2.000000	1.066609	7.36898e+06	-57089.1	1005.82	-29737.7	0.000000	0.000000	7.068459	45.9847	NaN	0.000000	0.001630	0.001693	28.0799	26.0873	0.001649	15823.9	7.075535	179.962	43.9433	1.066368	0.043995	0.043755	45.9847	15823.9	0.041816	0.068806	668.328	55115.7
400	2.000000	1.068648	7.36898e+06	-57089.1	1005.82	-29737.7	0.000000	0.000000	7.070761	52.3775	NaN	0.000000	0.001622	0.001703	28.0787	28.5186	0.001822	15653.5	8.422102	-179.596	52.5705	1.068313	0.046035	0.045700	52.3775	15653.5	0.043525	0.073455	713.053	52768.4
400	2.000000	1.070627	7.36898e+06	-57089.1	1005.82	-29737.7	0.000000	0.000000	7.072907	56.437	NaN	0.000000	0.001644	0.001701	28.0787	30.5866	0.001822	16784.9	8.883504	177.91	54.5829	1.070262	0.048014	0.047649	56.437	16784.9	0.045492	0.078991	714.473	54563.7
400	2.000000	1.072615	7.36898e+06	-57089.1	1005.82	-29737.7	0.000000	0.000000	7.075136	62.28	NaN	0.000000	0.001655	0.001694	28.0786	32.6097	0.001766	18461.9	10.8258	175.974	61.1334	1.072252	0.050002	0.049639	62.28	18461.9	0.047472	0.084760	734.783	57936.9
400	2.000000	1.074638	7.36898e+06	-57089.1	1005.82	-29737.7	0.000000	0.000000	7.077337	66.6301	NaN	0.000000	0.001654	0.001696	28.079	34.9669	0.001848	18916.7	6.624951	178.424	66.538	1.074369	0.052025	0.051756	66.6301	18916.7	0.049383	0.090515	736.121	57445.7
400	2.000000	1.076617	7.36898e+06	-57089.1	1005.82	-29737.7	0.000000	0.000000	7.079741	76.9678	NaN	0.000000	0.001643	0.001657	28.0785	35.8115	0.001732	20671.2	5.347665	179.08	76.0314	1.076347	0.054004	0.053734	76.9678	20671.2	0.051211	0.096193	800.137	60892.9
400	2.000000	1.078697	7.36898e+06	-57089.1	1005.82	-29737.7	0.000000	0.000000	7.081828	77.1268	NaN	0.000000	0.001634	0.001702	28.0787	37.7586	0.001810	20864.6	5.816942	179.918	80.7002	1.078406	0.056084	0.055793	77.1268	20864.6	0.053312	0.102924	749.359	59419.1
400	2.000000	1.080628	7.36898e+06	-57089.1	1005.82	-29737.7	0.000000	0.000000	7.084118	85.8517	NaN	0.000000	0.001626	0.001695	28.0786	39.9352	0.001870	21352.1	4.750531	-179.474	86.1959	1.080287	0.058015	0.057673	85.8517	21352.1	0.054999	0.108490	791.331	59226.8
400	2.000000	1.082574	7.36898e+06	-57089.1	1005.82	-29737.7	0.000000	0.000000	7.086508	96.6639	NaN	0.000000	0.001619	0.001673	28.0787	40.919	0.001769	23129.7	5.716913	178.668	94.3569	1.082247	0.059960	0.059633	96.6639	23129.7	0.056826	0.114673	842.953	62404
400	2.000000	1.084568	7.36898e+06	-57089.1	1005.82	-29737.7	0.000000	0.000000	7.088695	101.342	NaN	0.000000	0.001643	0.001688	28.0791	45.0309	0.001855	24276.7	7.874437	175.62	98.6253	1.084312	0.061955	0.061699	101.342	24276.7	0.058824	0.121624	833.237	63599.5
400	2.000000	1.086563	7.36898e+06	-57089.1	1005.82	-29737.7	0.000000	0.000000	7.091014	109.226	NaN	0.000000	0.001657	0.001691	28.0787	44.6627	0.001815	24602.6	3.776616	179.426	105.565	1.086291	0.063949	0.063678	109.226	24602.6	0.060620	0.128040	853.062	62817.7
400	2.000000	1.088542	7.36898e+06	-57089.1	1005.82	-29737.7	0.000000	0.000000	7.093135	112.659	NaN	0.000000	0.001648	0.001676	28.0788	48.2958	0.001912	25256.8	6.688166	175.852	110	1.088340	0.065928	0.065727	112.659	25256.8	0.062583	0.135233	833.078	62749.6
400	2.000000	1.090584	7.36898e+06	-57089.1	1005.82	-29737.7	0.000000	0.000000	7.095459	119.519	NaN	0.000000	0.001699	0.001730	28.0788	49.1187	0.001747	28118.5	6.292388	175.607	117.497	1.090274	0.067971	0.067661	119.519	28118.5	0.064783	0.143515	832.797	67813.7
400	2.000000	1.092598	7.36898e+06	-57089.1	1005.82	-29737.7	0.000000	0.000000	7.097939	130.839	NaN	0.000000	0.001689	0.001691	28.0789	50.8333	0.001755	28970.6	6.693352	175.377	130.003	1.092280	0.069984	0.069667	130.839	28970.6	0.066597	0.150521	869.242	68223.2
400	2.000000	1.094620	7.36898e+06	-57089.1	1005.82	-29737.7	0.000000	0.000000	7.100311	139.366	NaN	0.000000	0.001653	0.001699	28.0788	54.0407	0.001894	28527.7	2.803445	179.427	142.219	1.094277	0.072006	0.071664	139.366	28527.7	0.068342	0.157410	885.366	65693.7
400	2.000000	1.096597	7.36898e+06	-57089.1	1005.82	-29737.7	0.000000	0.000000	7.102753	150.647	NaN	0.000000	0.001649	0.001716	28.0788	54.9653	0.001869	29412.5	8.690608	173.931	150.337	1.096276	0.073984	0.073663	150.647	29412.5	0.070142	0.164667	914.861	66222.1
400	2.000000	1.098581	7.36898e+06	-57089.1	1005.82	-29737.7	0.000000	0.000000	7.104856	153.545	NaN	0.000000	0.001666	0.001675	28.079	57.7115	0.001832	31497.4	6.906767	174.35	152.845	1.098284	0.075968	0.075671	153.545	31497.4	0.072311	0.173618	884.389	69063.8
400	2.000000	1.100568	7.36898e+06	-57089.1	1005.82	-29737.7	0.000000	0.000000	7.107384	166.674	NaN	0.000000	0.001663	0.001698	28.0788	59.4143	0.001740	34142.9	7.462362	172.894	164.113	1.100295	0.077955	0.077681	166.674	34142.9	0.074294	0.181991	915.835	73122.1
400	2.000000	1.102545	7.36898e+06	-57089.1	1005.82	-29737.7	0.000000	0.000000	7.109811	177.634	NaN	0.000000	0.001649	0.001686	28.08	59.6936	0.001789	33367.5	4.830030	176.479	174.663	1.102166	0.079931	0.079553	177.634	33367.5	0.075939	0.189082	939.458	70108.7
400	2.000000	1.104614	7.36898e+06	-57089.1	1005.82	-29737.7	0.000000	0.000000	7.112009	180.748	NaN	0.000000	0.001631	0.001688	28.0798	63.6136	0.001892	33615.5	5.517233	175.347	184.692	1.104327	0.082001	0.081714	180.748	33615.5	0.077968	0.198005	912.848	69020.1
400	2.000000	1.106642	7.36898e+06	-57089.1	1005.82	-29737.7	0.000000	0.000000	7.114077	181.728	NaN	0.000000	0.001663	0.001728	28.08	63.1302	0.001806	34963.5	1.192093	178.635	182.601	1.106502	0.084029	0.083889	181.728	34963.5	0.080131	0.207723	874.858	70088.3
400	2.000000	1.108668	7.36898e+06	-57089.1	1005.82	-29737.7	0.000000	0.000000	7.116761	197.721	NaN	0.000000	0.001634	0.001713	28.0802	65.7026	0.001827	35963.7	2.973688	177.325	201.815	1.108329	0.086055	0.085716	197.721	35963.7	0.081932	0.215982	915.455	70701.7
400	2.000000	1.110528	7.36898e+06	-57089.1	1005.82	-29737.7	0.000000	0.000000	7.119399	216.63	NaN	0.000000	0.001644	0.001697	28.08	67.6242	0.001801	37556.3	5.115560	174.483	213.354	1.110278	0.087915	0.087664	216.63	37556.3	0.083589	0.223715	968.33	72545.2
400	2.000000	1.112481	7.36898e+06	-57089.1	1005.82	-29737.7	0.000000	0.000000	7.121818	227.961	NaN	0.000000	0.001650	0.001697	28.0803	69.3599	0.001725	40199.9	9.345849	170.04	220.958	1.112134	0.089868	0.089521	227.961	40199.9	0.085615	0.233345	976.93	76032.6
400	2.000000	1.114619	7.36898e+06	-57089.1	1005.82	-29737.7	0.000000	0.000000	7.124258	235.298	NaN	0.000000	0.001655	0.001705	28.0799	72.6944	0.001779	40864.8	6.990288	172.031	237.076	1.114290	0.092006	0.091677	235.298	40864.8	0.087687	0.243386	966.766	75678.9
400	2.000000	1.116593	7.36898e+06	-57089.1	1005.82	-29737.7	0.000000	0.000000	7.126110	232.348	NaN	0.000000	0.001641	0.001709	28.08	72.9386	0.001791	40728.2	5.227177	173.301	231.919	1.116460	0.093980	0.093847	232.348	40728.2	0.089701	0.253337	917.149	73929.7
400	2.000000	1.118638	7.36898e+06	-57089.1	1005.82	-29737.7	0.000000	0.000000	7.128996	252.775	NaN	0.000000	0.001634	0.001691	28.0803	76.8154	0.001787	42980.5	9.062582	169.858	256.034	1.118204	0.096025	0.095591	252.775	42980.5	0.091614	0.262961	961.264	76577.2
400	2.000000	1.120601	7.36898e+06	-57089.1	1005.82	-29737.7	0.000000	0.000000	7.131429	264.224	NaN	0.000000	0.001643	0.001709	28.0809	78.3608	0.001759	44542.5	6.256187	171.823	263.347	1.120303	0.097987	0.097690	264.224	44542.5	0.093538	0.272809	968.531	77914.5
400	2.000000	1.122589	7.36898e+06	-57089.1	1005.82	-29737.7	0.000000	0.000000	7.133930	276.688	NaN	0.000000	0.001624	0.001719	28.0802	80.1813	0.001823	43994.5	7.238798	171.214	278.156	1.122360	0.099975	0.099746	276.688	43994.5	0.095258	0.281757	982.012	75724.1
400	2.000000	1.124666	7.36898e+06	-57089.1	1005.82	-29737.7	0.000000	0.000000	7.136121	279.444	NaN	0.000000	0.001619	0.001770	28.0798	82.4598	0.001870	44106.5	2.864502	175.858	287.319	1.124354	0.102052	0.101740	279.444	44106.5	0.097301	0.292555	955.183	74502.6
400	2.000000	1.126505	7.36898e+06	-57089.1	1005.82	-29737.7	0.000000	0.000000	7.138934	303.115	NaN	0.000000	0.001654	0.001713	28.0802	83.156	0.001864	44616.2	6.219894	172.454	299.038	1.126224	0.103892	0.103610	303.115	44616.2	0.098796	0.300583	1008.42	74350.3
400	2.000000	1.128432	7.36898e+06	-57089.1	1005.82	-29737.7	0.000000	0.000000	7.141490	318.412	NaN	0.000000	0.001686	0.001734	28.0803	85.3641	0.001900	44937.8	5.487625	173.169	311.873	1.128135	0.105819	0.105522	318.412	44937.8	0.100504	0.309877	1027.54	73754.8
400	2.000000	1.130531	7.36898e+06	-57089.1	1005.82	-29737.7	0.000000	0.000000	7.143844	324.623	NaN	0.000000	0.001660	0.001756	28.0798	87.2944	0.001799	48522.7	5.428853	172.032	322.175	1.130269	0.107917	0.107655	324.623	48522.7	0.102900	0.323133	1004.61	77987.9
400	2.000000	1.132510	7.36898e+06	-57089.1	1005.82	-29737.7	0.000000	0.000000	7.146805	348.474	NaN	0.000000	0.001644	0.001732	28.08	88.7991	0.001816	48907.6	9.114445	169.688	345.432	1.132108	0.109897	0.109495	348.474	48907.6	0.104553	0.332434	1048.25	77499.2
400	2.000000	1.134556	7.36898e+06	-57089.1	1005.82	-29737.7	0.000000	0.000000	7.149167	356.155	NaN	0.000000	0.001664	0.001689	28.0798	91.0263	0.001801	50555	4.818161	172.945	356.013	1.134139	0.111943	0.111526	356.155	50555	0.106659	0.344462	1033.95	78698.5
400	2.000000	1.136558	7.36898e+06	-57089.1	1005.82	-29737.7	0.000000	0.000000	7.151772	370.818	NaN	0.000000	0.001673	0.001666	28.0789	91.2244	0.001760	51825.5	4.145811	173.471	371.019	1.136241	0.113945	0.113628	370.818	51825.5	0.108578	0.355599	1042.8	79402.9
400	2.000000	1.138509	7.36898e+06	-57089.1	1005.82	-29737.7	0.000000	0.000000	7.154180	381.903	NaN	0.000000	0.001649	0.001690	28.0785	94.3219	0.001925	49009.1	3.142187	174.691	379.278	1.138202	0.115896	0.115588	381.903	49009.1	0.110052	0.364262	1048.43	74189.6
400	2.000000	1.140641	7.36898e+06	-57089.1	1005.82	-29737.7	0.000000	0.000000	7.156386	383.719	NaN	0.000000	0.001670	0.001644	28.0786	95.7486	0.001911	50099.8	1.828627	175.753	385.996	1.140426	0.118027	0.117812	383.719	50099.8	0.112283	0.377569	1016.29	74492.2
400	2.000000	1.142479	7.36898e+06	-57089.1	1005.82	-29737.7	0.000000	0.000000	7.159396	412.198	NaN	0.000000	0.001675	0.001650	28.0788	96.8546	0.001765	54871.8	3.087369	174.082	407.875	1.142168	0.119865	0.119555	412.198	54871.8	0.114231	0.389371	1058.62	80341.6
400	2.000000	1.143543	7.36898e+06	-57089.1	1005.82	-29737.7	0.000000	0.000000	7.160755	419.355	NaN	0.000000	0.001661	0.001645	28.0786	97.4325	0.001774	54923.3	3.918837	173.17	418.545	1.143200	0.120930	0.120586	419.355	54923.3	0.115204	0.395327	1060.78	79808.9