File: remote_trans/data/nanoindenter/0828-1/data/Data_2025-08-06,11h17m57s/2025-07-22_16-23-58_1_747.txt
2025-07-22, 16:23:58, 1
Index	Phase	Displacement	Time	Pos X	Pos Y	Pos Z	Rot A	Rot B	Piezo Z	Force A	Force B	Gripper	Voltage A	Voltage B	Temperature	Amplitude force	Amplitude pos	Stiffness	Phase shift	Phase excitation	Force A raw	Displacement raw	HMax	HMax raw	Real Force	Real Stiffness	Contact Depth	Area	Hardness	Reduced Mod.
[#]	[#]	[um]	[s]	[um]	[um]	[um]	[m°]	[m°]	[um]	[uN]	[uN]	[V]	[V]	[V]	[°C]	[uN]	[um]	[N/m]	[°]	[°]	[uN]	[um]	[um]	[um]	[uN]	[N/m]	[um]	[um^2]	[MPa]	[MPa]
747	1.000000	0.002677	7.37236e+06	-39739.1	1005.82	-29792.7	0.000000	0.000000	6.002813	-0.009467	NaN	0.000000	0.001572	0.001679	28.083	0.074626	0.000975	76.5566	-124.198	-166.734	0.012164	0.001427	-1.146275	-1.147525	-0.009467	76.5566	-1.146182	-2.087545E+15	4.534899E-18	NaN
747	1.000000	0.012727	7.37236e+06	-39739.1	1005.82	-29792.7	0.000000	0.000000	6.012860	-0.082369	NaN	0.000000	0.001591	0.001680	28.0829	0.046493	0.001123	41.4147	-11.5165	18.9792	0.017223	0.011285	-1.136225	-1.137667	-0.082369	41.4147	-1.134733	-1.465896E+15	5.619047E-17	NaN
747	1.000000	0.022613	7.37236e+06	-39739.1	1005.82	-29792.7	0.000000	0.000000	6.022748	-0.023417	NaN	0.000000	0.001613	0.001675	28.0826	0.114895	0.001717	66.9181	103.094	-164.797	0.033511	0.021372	-1.126339	-1.127580	-0.023417	66.9181	-1.126077	-1.122003E+15	2.087047E-17	NaN
747	1.000000	0.032614	7.37236e+06	-39739.1	1005.82	-29792.7	0.000000	0.000000	6.032750	-0.007744	NaN	0.000000	0.001567	0.001681	28.0828	0.090610	0.001770	51.1849	10.9285	17.3177	0.025375	0.031249	-1.116338	-1.117703	-0.007744	51.1849	-1.116224	-8.275845E+14	9.357578E-18	NaN
747	1.000000	0.042614	7.37236e+06	-39739.1	1005.82	-29792.7	0.000000	0.000000	6.042751	0.022104	NaN	0.000000	0.001603	0.001630	28.0832	0.081326	0.002029	40.0831	133.872	-166.098	0.050788	0.041390	-1.106338	-1.107562	0.022104	40.0831	-1.106752	-6.175789E+14	-3.579145E-17	NaN
747	1.000000	0.052597	7.37236e+06	-39739.1	1005.82	-29792.7	0.000000	0.000000	6.052732	-0.019440	NaN	0.000000	0.001593	0.001670	28.0824	0.173389	0.001995	86.8971	120.804	14.0072	-0.006930	0.051224	-1.096355	-1.097728	-0.019440	86.8971	-1.096187	-4.455379E+14	4.363273E-17	NaN
747	1.000000	0.062598	7.37236e+06	-39739.1	1005.82	-29792.7	0.000000	0.000000	6.062737	0.065464	NaN	0.000000	0.001578	0.001654	28.083	0.079324	0.002087	38.0076	95.8421	-162.145	0.035603	0.061321	-1.086354	-1.087631	0.065464	38.0076	-1.087646	-3.421356E+14	-1.913393E-16	NaN
747	1.000000	0.072619	7.37236e+06	-39739.1	1005.82	-29792.7	0.000000	0.000000	6.072753	-0.049384	NaN	0.000000	0.001699	0.001643	28.0814	0.027782	0.002023	13.7304	-84.5123	13.9522	-0.019033	0.071243	-1.076333	-1.077709	-0.049384	13.7304	-1.073636	-2.218362E+14	2.226165E-16	NaN
747	1.000000	0.082664	7.37236e+06	-39739.1	1005.82	-29792.7	0.000000	0.000000	6.082803	0.074011	NaN	0.000000	0.001688	0.001705	28.0816	0.035345	0.002072	17.0606	122.942	-166.1	0.052469	0.081273	-1.066288	-1.067679	0.074011	17.0606	-1.069541	-1.954468E+14	-3.786736E-16	NaN
747	1.000000	0.092634	7.37236e+06	-39739.1	1005.82	-29792.7	0.000000	0.000000	6.092771	0.017864	NaN	0.000000	0.001679	0.001700	28.0815	0.015001	0.001856	8.082341	98.2844	14.1863	0.104402	0.091255	-1.056318	-1.057697	0.017864	8.082341	-1.057976	-1.366526E+14	-1.307288E-16	NaN
747	1.000000	0.102607	7.37236e+06	-39739.1	1005.82	-29792.7	0.000000	0.000000	6.102742	-0.026966	NaN	0.000000	0.001688	0.001721	28.0817	0.056939	0.001899	29.9848	130.248	-163.039	-0.046123	0.101337	-1.046345	-1.047615	-0.026966	29.9848	-1.045671	-9.337143E+13	2.888078E-16	NaN
747	1.000000	0.112611	7.37236e+06	-39739.1	1005.82	-29792.7	0.000000	0.000000	6.112750	0.060738	NaN	0.000000	0.001641	0.001708	28.0816	0.073192	0.002108	34.7209	-0.438279	17.3362	0.025953	0.111297	-1.036341	-1.037655	0.060738	34.7209	-1.037653	-7.284644E+13	-8.337785E-16	NaN
747	1.000000	0.122651	7.37236e+06	-39739.1	1005.82	-29792.7	0.000000	0.000000	6.122789	0.033989	NaN	0.000000	0.001685	0.001740	28.0818	0.048060	0.001921	25.0227	137.858	-163.957	0.043606	0.121278	-1.026301	-1.027674	0.033989	25.0227	-1.027320	-5.289650E+13	-6.425575E-16	NaN
747	1.000000	0.132617	7.37236e+06	-39739.1	1005.82	-29792.7	0.000000	0.000000	6.132755	0.031896	NaN	0.000000	0.001678	0.001693	28.0816	0.096859	0.001950	49.6638	-22.7895	11.2984	0.086427	0.131282	-1.016335	-1.017670	0.031896	49.6638	-1.016816	-3.820459E+13	-8.348748E-16	NaN
747	1.000000	0.142654	7.37236e+06	-39739.1	1005.82	-29792.7	0.000000	0.000000	6.142791	0.017508	NaN	0.000000	0.001702	0.001706	28.0814	0.038440	0.001984	19.3785	-68.8279	-163.234	0.148663	0.141354	-1.006298	-1.007598	0.017508	19.3785	-1.006976	-2.816273E+13	-6.216654E-16	NaN
747	1.000000	0.152660	7.37236e+06	-39739.1	1005.82	-29792.7	0.000000	0.000000	6.152798	0.036643	NaN	0.000000	0.001688	0.001713	28.0814	0.103895	0.001874	55.4437	83.0684	16.175	0.024789	0.151251	-0.996292	-0.997701	0.036643	55.4437	-0.996787	-2.053597E+13	-1.784345E-15	NaN
747	1.000000	0.162685	7.37236e+06	-39739.1	1005.82	-29792.7	0.000000	0.000000	6.162821	0.002849	NaN	0.000000	0.001676	0.001706	28.0817	0.037801	0.002092	18.073	21.313	-165.091	-0.035559	0.161353	-0.986267	-0.987599	0.002849	18.073	-0.986385	-1.487390E+13	-1.915306E-16	NaN
747	1.000000	0.172648	7.37236e+06	-39739.1	1005.82	-29792.7	0.000000	0.000000	6.172784	-0.019902	NaN	0.000000	0.001628	0.001697	28.0816	0.070458	0.001956	36.0163	-171.897	18.1773	0.008250	0.171308	-0.976304	-0.977644	-0.019902	36.0163	-0.975889	-1.074053E+13	1.852964E-15	NaN
747	1.000000	0.182670	7.37236e+06	-39739.1	1005.82	-29792.7	0.000000	0.000000	6.182804	-0.047826	NaN	0.000000	0.001645	0.001729	28.0818	0.161849	0.002046	79.086	1.815251	-167.803	0.023651	0.181434	-0.966282	-0.967518	-0.047826	79.086	-0.965829	-7.860335E+12	6.084442E-15	NaN
747	1.000000	0.192667	7.37236e+06	-39739.1	1005.82	-29792.7	0.000000	0.000000	6.192804	0.016763	NaN	0.000000	0.001623	0.001738	28.0818	0.048997	0.002013	24.3394	141.476	15.4303	0.029862	0.191297	-0.956285	-0.957655	0.016763	24.3394	-0.956801	-5.939381E+12	-2.822312E-15	NaN
747	1.000000	0.202689	7.37236e+06	-39739.1	1005.82	-29792.7	0.000000	0.000000	6.202827	0.042050	NaN	0.000000	0.001636	0.001778	28.0819	0.036023	0.001959	18.3927	-103.788	-163.648	0.023600	0.201336	-0.946263	-0.947616	0.042050	18.3927	-0.947978	-4.516042E+12	-9.311304E-15	NaN
747	1.000000	0.212678	7.37236e+06	-39739.1	1005.82	-29792.7	0.000000	0.000000	6.212815	0.011468	NaN	0.000000	0.001612	0.001703	28.083	0.100689	0.001902	52.9326	-88.5004	16.2711	0.044992	0.211301	-0.936274	-0.937651	0.011468	52.9326	-0.936436	-3.155386E+12	-3.634386E-15	NaN
747	1.000000	0.222680	7.37236e+06	-39739.1	1005.82	-29792.7	0.000000	0.000000	6.222817	0.022445	NaN	0.000000	0.001618	0.001725	28.0833	0.148265	0.002095	70.7693	12.2733	-161.38	0.023882	0.221399	-0.926272	-0.927553	0.022445	70.7693	-0.926510	-2.317888E+12	-9.683504E-15	NaN
747	1.000000	0.232673	7.37236e+06	-39739.1	1005.82	-29792.7	0.000000	0.000000	6.232814	0.100619	NaN	0.000000	0.001647	0.001738	28.0834	0.141270	0.002016	70.0677	-117.304	16.9401	0.071962	0.231320	-0.916279	-0.917632	0.100619	70.0677	-0.917356	-1.743825E+12	-5.770040E-14	NaN
747	1.000000	0.242706	7.37236e+06	-39739.1	1005.82	-29792.7	0.000000	0.000000	6.242843	0.015340	NaN	0.000000	0.001623	0.001740	28.0833	0.023703	0.002080	11.3977	-147.79	-166.615	-0.027321	0.241394	-0.906245	-0.907558	0.015340	11.3977	-0.907255	-1.273746E+12	-1.204335E-14	NaN
747	1.000000	0.252691	7.37236e+06	-39739.1	1005.82	-29792.7	0.000000	0.000000	6.252828	0.024319	NaN	0.000000	0.001647	0.001750	28.0832	0.127651	0.002027	62.9788	-14.2501	14.6379	-0.013019	0.251273	-0.896261	-0.897679	0.024319	62.9788	-0.896551	-9.129755E+11	-2.663710E-14	NaN
747	1.000000	0.262720	7.37236e+06	-39739.1	1005.82	-29792.7	0.000000	0.000000	6.262861	0.110099	NaN	0.000000	0.001616	0.001710	28.0835	0.043248	0.001920	22.5228	-109.079	-163.682	0.049143	0.261383	-0.886232	-0.887569	0.110099	22.5228	-0.889898	-7.422271E+11	-1.483363E-13	NaN
747	1.000000	0.272703	7.37236e+06	-39739.1	1005.82	-29792.7	0.000000	0.000000	6.272840	0.020895	NaN	0.000000	0.001620	0.001741	28.0836	0.094053	0.002010	46.7944	-165.557	18.6819	0.012909	0.271317	-0.876249	-0.877635	0.020895	46.7944	-0.876584	-4.903578E+11	-4.261249E-14	NaN
747	1.000000	0.282697	7.37236e+06	-39739.1	1005.82	-29792.7	0.000000	0.000000	6.282832	-0.030333	NaN	0.000000	0.001642	0.001719	28.0835	0.050729	0.001980	25.6207	3.199213	-159.848	-0.069223	0.281395	-0.866255	-0.867557	-0.030333	25.6207	-0.865367	-3.457487E+11	8.773222E-14	NaN
747	1.000000	0.292723	7.37236e+06	-39739.1	1005.82	-29792.7	0.000000	0.000000	6.292859	-0.020002	NaN	0.000000	0.001604	0.001715	28.0835	0.013845	0.001996	6.936044	80.6272	11.3784	0.007155	0.291339	-0.856229	-0.857613	-0.020002	6.936044	-0.854066	-2.431035E+11	8.227696E-14	NaN
747	1.000000	0.302720	7.37236e+06	-39739.1	1005.82	-29792.7	0.000000	0.000000	6.302857	0.020287	NaN	0.000000	0.001660	0.001739	28.0837	0.063353	0.001905	33.2639	-98.7313	-164.213	0.040027	0.301396	-0.846232	-0.847556	0.020287	33.2639	-0.846690	-1.931561E+11	-1.050302E-13	NaN
747	1.000000	0.312749	7.37236e+06	-39739.1	1005.82	-29792.7	0.000000	0.000000	6.312887	0.027450	NaN	0.000000	0.001618	0.001731	28.0837	0.032610	0.002200	14.8207	-124.17	15.925	0.028556	0.311346	-0.836203	-0.837606	0.027450	14.8207	-0.837592	-1.454332E+11	-1.887469E-13	NaN
747	1.000000	0.322707	7.37236e+06	-39739.1	1005.82	-29792.7	0.000000	0.000000	6.322844	0.013108	NaN	0.000000	0.001663	0.001691	28.0836	0.105978	0.001984	53.4221	-130.429	-165.466	0.009082	0.321420	-0.826245	-0.827532	0.013108	53.4221	-0.826429	-1.026553E+11	-1.276925E-13	NaN
747	1.000000	0.332750	7.37236e+06	-39739.1	1005.82	-29792.7	0.000000	0.000000	6.332889	0.066132	NaN	0.000000	0.001623	0.001714	28.0833	0.035441	0.002033	17.4329	-78.2543	16.2724	0.016017	0.331383	-0.816202	-0.817569	0.066132	17.4329	-0.819047	-8.152376E+10	-8.111956E-13	NaN
747	1.000000	0.342735	7.37236e+06	-39739.1	1005.82	-29792.7	0.000000	0.000000	6.342874	0.059619	NaN	0.000000	0.001663	0.001688	28.0821	0.045887	0.001995	23.0037	44.0525	-163.312	0.057295	0.341442	-0.806217	-0.807510	0.059619	23.0037	-0.808161	-5.802487E+10	-1.027477E-12	NaN
747	1.000000	0.352718	7.37236e+06	-39739.1	1005.82	-29792.7	0.000000	0.000000	6.352857	0.050016	NaN	0.000000	0.001603	0.001728	28.0821	0.163300	0.001946	83.8983	128.922	19.4055	-0.030246	0.351417	-0.796234	-0.797535	0.050016	83.8983	-0.796681	-4.053229E+10	-1.233974E-12	NaN
747	1.000000	0.362744	7.37236e+06	-39739.1	1005.82	-29792.7	0.000000	0.000000	6.362885	0.104504	NaN	0.000000	0.001613	0.001740	28.0818	0.056120	0.002007	27.9631	97.1907	-164.455	0.098033	0.361425	-0.786208	-0.787527	0.104504	27.9631	-0.789011	-3.188936E+10	-3.277082E-12	NaN
747	1.000000	0.372750	7.37236e+06	-39739.1	1005.82	-29792.7	0.000000	0.000000	6.372889	0.065827	NaN	0.000000	0.001617	0.001755	28.082	0.014083	0.001969	7.150909	51.5161	18.9237	0.085456	0.371420	-0.776202	-0.777532	0.065827	7.150909	-0.783106	-2.651155E+10	-2.482949E-12	NaN
747	1.000000	0.382735	7.37236e+06	-39739.1	1005.82	-29792.7	0.000000	0.000000	6.382874	0.077403	NaN	0.000000	0.001583	0.001712	28.0822	0.005398	0.001963	2.749957	-58.1545	-160.224	0.015883	0.381425	-0.766217	-0.767527	0.077403	2.749957	-0.787327	-3.025376E+10	-2.558444E-12	NaN
747	1.000000	0.392772	7.37236e+06	-39739.1	1005.82	-29792.7	0.000000	0.000000	6.392913	0.128992	NaN	0.000000	0.001626	0.001671	28.082	0.140017	0.002055	68.1277	-98.5789	14.6645	0.011952	0.391395	-0.756180	-0.757557	0.128992	68.1277	-0.757600	-1.193037E+10	-1.081210E-11	NaN
747	1.000000	0.402755	7.37236e+06	-39739.1	1005.82	-29792.7	0.000000	0.000000	6.402890	-0.019465	NaN	0.000000	0.001633	0.001694	28.0819	0.043973	0.002110	20.8408	2.821959	-163.141	0.001592	0.401403	-0.746197	-0.747549	-0.019465	20.8408	-0.745497	-8.164212E+9	2.384214E-12	NaN
747	1.000000	0.412772	7.37236e+06	-39739.1	1005.82	-29792.7	0.000000	0.000000	6.412912	0.082981	NaN	0.000000	0.001649	0.001711	28.0818	0.084372	0.002060	40.9501	19.2887	13.2501	0.133645	0.411395	-0.736180	-0.737557	0.082981	40.9501	-0.737699	-6.393188E+9	-1.297957E-11	NaN
747	1.000000	0.422788	7.37236e+06	-39739.1	1005.82	-29792.7	0.000000	0.000000	6.422923	-0.051640	NaN	0.000000	0.001627	0.001681	28.0821	0.137538	0.001969	69.8541	105.429	-161.472	0.008721	0.421428	-0.726163	-0.727524	-0.051640	69.8541	-0.725609	-4.374766E+9	1.180402E-11	NaN
747	1.000000	0.432781	7.37236e+06	-39739.1	1005.82	-29792.7	0.000000	0.000000	6.432921	0.087936	NaN	0.000000	0.001623	0.001733	28.0819	0.057908	0.001854	31.2263	-149.799	18.0088	0.121402	0.431410	-0.716171	-0.717542	0.087936	31.2263	-0.718283	-3.475805E+9	-2.529939E-11	NaN
747	1.000000	0.442764	7.37236e+06	-39739.1	1005.82	-29792.7	0.000000	0.000000	6.442903	0.064729	NaN	0.000000	0.001639	0.001756	28.0818	0.075617	0.002134	35.4328	-87.4427	-162.556	0.010239	0.441463	-0.706188	-0.707489	0.064729	35.4328	-0.707558	-2.481504E+9	-2.608451E-11	NaN
747	1.000000	0.452739	7.37236e+06	-39739.1	1005.82	-29792.7	0.000000	0.000000	6.452879	0.071807	NaN	0.000000	0.001639	0.001707	28.0839	0.055640	0.002045	27.2075	103.964	18.7285	0.027713	0.451413	-0.696212	-0.697539	0.071807	27.2075	-0.698192	-1.848576E+9	-3.884441E-11	NaN
747	1.000000	0.462795	7.37236e+06	-39739.1	1005.82	-29792.7	0.000000	0.000000	6.462936	0.092455	NaN	0.000000	0.001595	0.001683	28.0841	0.038150	0.002055	18.5685	34.6878	-165.927	0.015960	0.461476	-0.686157	-0.687476	0.092455	18.5685	-0.689891	-1.423727E+9	-6.493901E-11	NaN
747	1.000000	0.472796	7.37236e+06	-39739.1	1005.82	-29792.7	0.000000	0.000000	6.472934	0.024460	NaN	0.000000	0.001567	0.001695	28.0823	0.095888	0.001956	49.0327	127.965	14.0228	0.014478	0.471443	-0.676156	-0.677509	0.024460	49.0327	-0.676530	-9.348418E+8	-2.616527E-11	NaN
747	1.000000	0.482790	7.37236e+06	-39739.1	1005.82	-29792.7	0.000000	0.000000	6.482931	0.114203	NaN	0.000000	0.001588	0.001708	28.0829	0.125215	0.002006	62.4109	145.557	-166.373	0.137332	0.481484	-0.666162	-0.667468	0.114203	62.4109	-0.667534	-7.041012E+8	-1.621964E-10	NaN
747	1.000000	0.492790	7.37236e+06	-39739.1	1005.82	-29792.7	0.000000	0.000000	6.492929	0.051931	NaN	0.000000	0.001557	0.001706	28.0829	0.123747	0.001931	64.0725	-162.067	17.224	0.103308	0.491478	-0.656162	-0.657474	0.051931	64.0725	-0.656770	-5.014339E+8	-1.035646E-10	NaN
747	1.000000	0.502807	7.37236e+06	-39739.1	1005.82	-29792.7	0.000000	0.000000	6.502947	0.078546	NaN	0.000000	0.001631	0.001711	28.0831	0.049226	0.002022	24.3426	143.924	-166.008	0.065508	0.501444	-0.646145	-0.647508	0.078546	24.3426	-0.648565	-3.870431E+8	-2.029389E-10	NaN
747	1.000000	0.512788	7.37236e+06	-39739.1	1005.82	-29792.7	0.000000	0.000000	6.512927	0.067513	NaN	0.000000	0.001625	0.001686	28.083	0.056705	0.002044	27.739	-79.6761	15.5415	0.201507	0.511430	-0.636164	-0.637522	0.067513	27.739	-0.637990	-2.771426E+8	-2.436040E-10	NaN
747	1.000000	0.522838	7.37236e+06	-39739.1	1005.82	-29792.7	0.000000	0.000000	6.522976	0.027223	NaN	0.000000	0.001611	0.001668	28.0831	0.038688	0.001913	20.2282	179.885	-166.415	0.029959	0.521520	-0.626114	-0.627432	0.027223	20.2282	-0.627123	-1.965656E+8	-1.384915E-10	NaN
747	1.000000	0.532838	7.37236e+06	-39739.1	1005.82	-29792.7	0.000000	0.000000	6.532976	0.048932	NaN	0.000000	0.001594	0.001706	28.083	0.135256	0.001954	69.2315	61.8598	18.3957	0.007037	0.531413	-0.616114	-0.617539	0.048932	69.2315	-0.616644	-1.410901E+8	-3.468162E-10	NaN
747	1.000000	0.542825	7.37236e+06	-39739.1	1005.82	-29792.7	0.000000	0.000000	6.542965	0.097153	NaN	0.000000	0.001655	0.001728	28.0832	0.012117	0.002027	5.977918	-80.9727	-162.147	0.101493	0.541438	-0.606127	-0.607514	0.097153	5.977918	-0.618316	-1.487597E+8	-6.530901E-10	NaN
747	1.000000	0.552823	7.37236e+06	-39739.1	1005.82	-29792.7	0.000000	0.000000	6.552962	0.069465	NaN	0.000000	0.001613	0.001700	28.0831	0.025279	0.001923	13.1459	35.856	15.9468	-0.029882	0.551465	-0.596129	-0.597487	0.069465	13.1459	-0.600092	-8.350864E+7	-8.318279E-10	NaN
747	1.000000	0.562847	7.37236e+06	-39739.1	1005.82	-29792.7	0.000000	0.000000	6.562987	0.085466	NaN	0.000000	0.001640	0.001721	28.0831	0.002928	0.002005	1.460277	-162.916	-164.835	-0.005074	0.561525	-0.586105	-0.587427	0.085466	1.460277	-0.630000	-2.152921E+8	-3.969750E-10	NaN
747	1.000000	0.572819	7.37236e+06	-39739.1	1005.82	-29792.7	0.000000	0.000000	6.572957	0.023835	NaN	0.000000	0.001655	0.001674	28.0834	0.134907	0.001956	68.9661	97.9512	14.1343	0.082641	0.571414	-0.576133	-0.577538	0.023835	68.9661	-0.576392	-3.934741E+7	-6.057479E-10	NaN
747	1.000000	0.582851	7.37236e+06	-39739.1	1005.82	-29792.7	0.000000	0.000000	6.582988	0.035077	NaN	0.000000	0.001643	0.001629	28.0831	0.076055	0.001897	40.0989	-131.267	-165.563	-0.002598	0.581553	-0.566101	-0.567399	0.035077	40.0989	-0.566757	-2.896141E+7	-1.211176E-9	NaN
747	1.000000	0.592837	7.37236e+06	-39739.1	1005.82	-29792.7	0.000000	0.000000	6.592975	0.034928	NaN	0.000000	0.001653	0.001671	28.0832	0.029695	0.001871	15.8715	-47.7485	14.9745	-0.020032	0.591481	-0.556115	-0.557471	0.034928	15.8715	-0.557765	-2.174997E+7	-1.605885E-9	NaN
747	1.000000	0.602823	7.37236e+06	-39739.1	1005.82	-29792.7	0.000000	0.000000	6.602963	0.087866	NaN	0.000000	0.001646	0.001704	28.0831	0.068865	0.002130	32.3384	50.4729	-164.071	0.110879	0.601537	-0.546129	-0.547415	0.087866	32.3384	-0.548166	-1.601605E+7	-5.486100E-9	NaN
747	1.000000	0.612832	7.37236e+06	-39739.1	1005.82	-29792.7	0.000000	0.000000	6.612970	0.031011	NaN	0.000000	0.001655	0.001700	28.0833	0.073809	0.002036	36.2541	-91.545	16.149	0.034985	0.611497	-0.536120	-0.537455	0.031011	36.2541	-0.536761	-1.112829E+7	-2.786691E-9	NaN
747	1.000000	0.622854	7.37236e+06	-39739.1	1005.82	-29792.7	0.000000	0.000000	6.622993	0.090734	NaN	0.000000	0.001675	0.001689	28.0819	0.048193	0.002005	24.0336	-174.29	-163.835	0.079121	0.621569	-0.526098	-0.527383	0.090734	24.0336	-0.528930	-8.66389e+06	-1.047263E-8	NaN
747	1.000000	0.632843	7.37236e+06	-39739.1	1005.82	-29792.7	0.000000	0.000000	6.632979	-0.024081	NaN	0.000000	0.001654	0.001682	28.0818	0.063799	0.002031	31.4055	106.454	12.9132	0.058009	0.631476	-0.516109	-0.517476	-0.024081	31.4055	-0.515534	-5.64234e+06	4.267963E-9	NaN
747	1.000000	0.642887	7.37236e+06	-39739.1	1005.82	-29792.7	0.000000	0.000000	6.643025	0.045495	NaN	0.000000	0.001671	0.001666	28.0819	0.050834	0.001982	25.6427	-30.786	-161.2	0.113532	0.641516	-0.506065	-0.507436	0.045495	25.6427	-0.507395	-4.34639e+06	-1.046741E-8	NaN
747	1.000000	0.652862	7.37236e+06	-39739.1	1005.82	-29792.7	0.000000	0.000000	6.653004	0.155322	NaN	0.000000	0.001650	0.001713	28.0819	0.057567	0.002031	28.3406	91.1475	13.9503	0.059453	0.651497	-0.496090	-0.497455	0.155322	28.3406	-0.500201	-3.44999e+06	-4.502094E-8	NaN
747	1.000000	0.662865	7.37236e+06	-39739.1	1005.82	-29792.7	0.000000	0.000000	6.663002	0.027313	NaN	0.000000	0.001629	0.001681	28.0819	0.041287	0.001991	20.7336	-158.658	-165.866	0.092558	0.661622	-0.486087	-0.487330	0.027313	20.7336	-0.487075	-2.2621e+06	-1.207438E-8	NaN
747	1.000000	0.672873	7.37236e+06	-39739.1	1005.82	-29792.7	0.000000	0.000000	6.673012	0.073290	NaN	0.000000	0.001643	0.001686	28.0818	0.076913	0.002126	36.1803	116.99	17.986	0.018485	0.671517	-0.476079	-0.477434	0.073290	36.1803	-0.477599	-1.66687e+06	-4.396833E-8	NaN
747	1.000000	0.682871	7.37236e+06	-39739.1	1005.82	-29792.7	0.000000	0.000000	6.683007	-0.001855	NaN	0.000000	0.001635	0.001664	28.0822	0.073259	0.001971	37.1632	-140.639	-165.453	0.029852	0.681598	-0.466081	-0.467354	-0.001855	37.1632	-0.466044	-1.14789e+06	1.616096E-9	NaN
747	1.000000	0.692880	7.37236e+06	-39739.1	1005.82	-29792.7	0.000000	0.000000	6.693020	0.070786	NaN	0.000000	0.001649	0.001707	28.0818	0.026592	0.001919	13.8591	46.8511	13.6446	0.116034	0.691530	-0.456072	-0.457422	0.070786	13.8591	-0.459902	-941116	-7.521456E-8	NaN
747	1.000000	0.702881	7.37236e+06	-39739.1	1005.82	-29792.7	0.000000	0.000000	6.703019	0.045479	NaN	0.000000	0.001683	0.001730	28.0819	0.028591	0.001892	15.1148	127.674	-164.166	0.003245	0.701551	-0.446071	-0.447401	0.045479	15.1148	-0.448328	-646832	-7.030961E-8	NaN
747	1.000000	0.712899	7.37236e+06	-39739.1	1005.82	-29792.7	0.000000	0.000000	6.713036	0.022159	NaN	0.000000	0.001639	0.001742	28.0817	0.128481	0.002099	61.2103	-171.155	14.7922	0.058449	0.711564	-0.436053	-0.437388	0.022159	61.2103	-0.436325	-437997	-5.059191E-8	NaN
747	1.000000	0.722886	7.37236e+06	-39739.1	1005.82	-29792.7	0.000000	0.000000	6.723026	0.093149	NaN	0.000000	0.001622	0.001699	28.0822	0.090400	0.001999	45.2304	111.854	-163.068	0.117697	0.721562	-0.426066	-0.427390	0.093149	45.2304	-0.427611	-329801	-2.824400E-7	NaN
747	1.000000	0.732891	7.37236e+06	-39739.1	1005.82	-29792.7	0.000000	0.000000	6.733026	-0.028738	NaN	0.000000	0.001641	0.001729	28.0821	0.089303	0.002014	44.3395	-164.999	18.8753	0.043862	0.731561	-0.416061	-0.417391	-0.028738	44.3395	-0.415575	-222646	1.290746E-7	NaN
747	1.000000	0.742906	7.37236e+06	-39739.1	1005.82	-29792.7	0.000000	0.000000	6.743044	0.058403	NaN	0.000000	0.001636	0.001687	28.082	0.064601	0.001955	33.0482	-78.9353	-164.242	-0.018927	0.741609	-0.406046	-0.407343	0.058403	33.0482	-0.407372	-170220	-3.431023E-7	NaN
747	1.000000	0.752920	7.37236e+06	-39739.1	1005.82	-29792.7	0.000000	0.000000	6.753057	0.008584	NaN	0.000000	0.001659	0.001676	28.0834	0.046465	0.002053	22.6292	94.5892	13.8197	0.031138	0.751532	-0.396032	-0.397420	0.008584	22.6292	-0.396316	-118422	-7.248521E-8	NaN
747	1.000000	0.762932	7.37236e+06	-39739.1	1005.82	-29792.7	0.000000	0.000000	6.763070	0.044455	NaN	0.000000	0.001644	0.001639	28.0833	0.110384	0.001934	57.0707	8.762960	-167.857	0.004329	0.761628	-0.386020	-0.387324	0.044455	57.0707	-0.386604	-86012.4	-5.168473E-7	NaN
747	1.000000	0.772923	7.37236e+06	-39739.1	1005.82	-29792.7	0.000000	0.000000	6.773062	0.053243	NaN	0.000000	0.001624	0.001686	28.0833	0.092353	0.001908	48.4135	-28.3783	14.3714	0.049511	0.771504	-0.376029	-0.377448	0.053243	48.4135	-0.376853	-62331.5	-8.541963E-7	NaN
747	1.000000	0.782904	7.37236e+06	-39739.1	1005.82	-29792.7	0.000000	0.000000	6.783041	0.009455	NaN	0.000000	0.001663	0.001689	28.0834	0.094458	0.002013	46.9283	-141.289	-165.073	0.036531	0.781605	-0.366048	-0.367347	0.009455	46.9283	-0.366199	-43786.9	-2.159427E-7	NaN
747	1.000000	0.792960	7.37236e+06	-39739.1	1005.82	-29792.7	0.000000	0.000000	6.793097	0.016080	NaN	0.000000	0.001644	0.001630	28.0836	0.065139	0.001894	34.3905	144.663	16.1295	0.059150	0.791591	-0.355992	-0.357361	0.016080	34.3905	-0.356343	-31545.8	-5.097231E-7	NaN
747	1.000000	0.802942	7.37236e+06	-39739.1	1005.82	-29792.7	0.000000	0.000000	6.803084	0.135175	NaN	0.000000	0.001663	0.001689	28.0833	0.090425	0.001979	45.6865	158.773	-163.066	0.081442	0.801658	-0.346010	-0.347294	0.135175	45.6865	-0.348229	-24059.4	-5.618398E-6	NaN
747	1.000000	0.812931	7.37236e+06	-39739.1	1005.82	-29792.7	0.000000	0.000000	6.813071	0.086504	NaN	0.000000	0.001698	0.001670	28.0833	0.039091	0.002074	18.8449	141.171	14.5101	0.011603	0.811536	-0.336021	-0.337416	0.086504	18.8449	-0.339463	-17936.2	-4.822895E-6	NaN
747	1.000000	0.822915	7.37236e+06	-39739.1	1005.82	-29792.7	0.000000	0.000000	6.823053	0.043368	NaN	0.000000	0.001676	0.001667	28.0831	0.004363	0.001975	2.208993	-58.6218	-161.894	0.031158	0.821632	-0.326037	-0.327320	0.043368	2.208993	-0.340761	-18734.7	-2.314833E-6	NaN
747	1.000000	0.832924	7.37236e+06	-39739.1	1005.82	-29792.7	0.000000	0.000000	6.833063	0.084445	NaN	0.000000	0.001671	0.001709	28.0836	0.082071	0.002065	39.7362	152.626	15.4665	0.097802	0.831588	-0.316028	-0.317364	0.084445	39.7362	-0.317622	-8582.59	-9.839098E-6	NaN
747	1.000000	0.842965	7.37236e+06	-39739.1	1005.82	-29792.7	0.000000	0.000000	6.843104	0.079949	NaN	0.000000	0.001659	0.001715	28.0832	0.140557	0.002067	67.9976	-146.28	-166.49	0.089952	0.841633	-0.305987	-0.307319	0.079949	67.9976	-0.306869	-5952.21	-1.343187E-5	NaN
747	1.000000	0.852932	7.37236e+06	-39739.1	1005.82	-29792.7	0.000000	0.000000	6.853072	0.091478	NaN	0.000000	0.001694	0.001715	28.0833	0.030595	0.001981	15.4476	9.896518	15.294	0.051031	0.851564	-0.296020	-0.297388	0.091478	15.4476	-0.300461	-4780.8	-1.913442E-5	NaN
747	1.000000	0.862941	7.37236e+06	-39739.1	1005.82	-29792.7	0.000000	0.000000	6.863078	0.015686	NaN	0.000000	0.001668	0.001676	28.0831	0.028635	0.002071	13.8269	176.94	-164.412	0.039755	0.861715	-0.286011	-0.287237	0.015686	13.8269	-0.286862	-2993.93	-5.239296E-6	NaN
747	1.000000	0.872987	7.37236e+06	-39739.1	1005.82	-29792.7	0.000000	0.000000	6.873125	0.049558	NaN	0.000000	0.001667	0.001728	28.0834	0.028318	0.002039	13.8904	117.477	17.0729	0.069225	0.871603	-0.275965	-0.277349	0.049558	13.8904	-0.278641	-2251.41	-2.201222E-5	NaN
747	1.000000	0.882940	7.37236e+06	-39739.1	1005.82	-29792.7	0.000000	0.000000	6.883078	0.035672	NaN	0.000000	0.001614	0.001704	28.0835	0.047029	0.001838	25.5807	-157	-161.659	0.025415	0.881681	-0.266011	-0.267271	0.035672	25.5807	-0.267057	-1502.32	-2.374465E-5	NaN
747	1.000000	0.892962	7.37236e+06	-39739.1	1005.82	-29792.7	0.000000	0.000000	6.893098	-0.006485	NaN	0.000000	0.001616	0.001685	28.082	0.089411	0.001950	45.8482	-151.043	15.2158	0.007057	0.891647	-0.255990	-0.257304	-0.006485	45.8482	-0.255884	-1013.26	6.400069E-6	NaN
747	1.000000	0.902982	7.37236e+06	-39739.1	1005.82	-29792.7	0.000000	0.000000	6.903119	0.015701	NaN	0.000000	0.001597	0.001722	28.0823	0.015420	0.002091	7.374144	178.657	-168.865	0.035686	0.901609	-0.245970	-0.247343	0.015701	7.374144	-0.247567	-753.855	-2.082704E-5	NaN
747	1.000000	0.912960	7.37236e+06	-39739.1	1005.82	-29792.7	0.000000	0.000000	6.913098	0.036706	NaN	0.000000	0.001585	0.001715	28.0819	0.051372	0.001998	25.7146	-20.821	15.8722	0.074249	0.911642	-0.235992	-0.237310	0.036706	25.7146	-0.237063	-517.133	-7.098074E-5	NaN
747	1.000000	0.922966	7.37236e+06	-39739.1	1005.82	-29792.7	0.000000	0.000000	6.923105	0.069672	NaN	0.000000	0.001612	0.001727	28.0822	0.131914	0.002006	65.761	-61.8293	-162.348	0.129477	0.921658	-0.225986	-0.227294	0.069672	65.761	-0.226781	-356.114	-0.000196	NaN
747	1.000000	0.932974	7.37236e+06	-39739.1	1005.82	-29792.7	0.000000	0.000000	6.933112	0.054899	NaN	0.000000	0.001602	0.001698	28.0821	0.065223	0.002109	30.9195	37.9841	13.3144	0.073079	0.931600	-0.215978	-0.217351	0.054899	30.9195	-0.217310	-251.544	-0.000218	NaN
747	1.000000	0.942968	7.37236e+06	-39739.1	1005.82	-29792.7	0.000000	0.000000	6.943107	0.072087	NaN	0.000000	0.001609	0.001722	28.0822	0.020348	0.001824	11.1572	-57.3059	-169.207	0.127717	0.941648	-0.205984	-0.207304	0.072087	11.1572	-0.210830	-197.809	-0.000364	NaN
747	1.000000	0.953009	7.37236e+06	-39739.1	1005.82	-29792.7	0.000000	0.000000	6.953147	0.055889	NaN	0.000000	0.001610	0.001719	28.0821	0.023363	0.002077	11.2458	-54.641	18.2469	0.051738	0.951653	-0.195943	-0.197299	0.055889	11.2458	-0.199671	-130.102	-0.000430	NaN
747	1.000000	0.963001	7.37236e+06	-39739.1	1005.82	-29792.7	0.000000	0.000000	6.963140	0.075227	NaN	0.000000	0.001602	0.001702	28.082	0.029428	0.001968	14.9571	49.016	-160.932	0.061943	0.961692	-0.185951	-0.187260	0.075227	14.9571	-0.189723	-89.0034	-0.000845	NaN
747	1.000000	0.973009	7.37236e+06	-39739.1	1005.82	-29792.7	0.000000	0.000000	6.973146	0.033457	NaN	0.000000	0.001636	0.001728	28.082	0.044237	0.001996	22.1597	-48.6056	16.0513	0.013687	0.971627	-0.175943	-0.177325	0.033457	22.1597	-0.177076	-54.3963	-0.000615	NaN
747	1.000000	0.982981	7.37236e+06	-39739.1	1005.82	-29792.7	0.000000	0.000000	6.983120	0.086647	NaN	0.000000	0.001620	0.001719	28.0821	0.064679	0.002066	31.3133	-86.4544	-166.959	0.088398	0.981656	-0.165971	-0.167296	0.086647	31.3133	-0.168047	-37.986	-0.002281	NaN
747	1.000000	0.993005	7.37236e+06	-39739.1	1005.82	-29792.7	0.000000	0.000000	6.993144	0.065117	NaN	0.000000	0.001599	0.001694	28.0818	0.086086	0.002013	42.7746	172.045	14.8354	0.159131	0.991680	-0.155947	-0.157272	0.065117	42.7746	-0.157089	-24.3257	-0.002677	NaN
747	1.000000	1.003013	7.37237e+06	-39739.1	1005.82	-29792.7	0.000000	0.000000	7.003153	0.103418	NaN	0.000000	0.001617	0.001710	28.0819	0.052848	0.002003	26.3859	-161.216	-160.491	0.178981	1.001704	-0.145939	-0.147248	0.103418	26.3859	-0.148879	-17.2793	-0.005985	NaN
747	1.000000	1.013019	7.37237e+06	-39739.1	1005.82	-29792.7	0.000000	0.000000	7.013157	0.024170	NaN	0.000000	0.001597	0.001677	28.0818	0.015024	0.002114	7.107286	21.9312	11.4005	0.030520	1.011611	-0.135933	-0.137341	0.024170	7.107286	-0.138483	-11.0765	-0.002182	NaN
747	1.000000	1.023019	7.37237e+06	-39739.1	1005.82	-29792.7	0.000000	0.000000	7.023160	0.112065	NaN	0.000000	0.001556	0.001710	28.0823	0.004849	0.002122	2.284873	108.03	-168.26	0.087068	1.021741	-0.125933	-0.127211	0.112065	2.284873	-0.162718	-30.6285	-0.003659	NaN
747	1.000000	1.033019	7.37237e+06	-39739.1	1005.82	-29792.7	0.000000	0.000000	7.033159	0.090647	NaN	0.000000	0.001602	0.001701	28.0831	0.063960	0.001941	32.9512	43.3706	15.6752	0.107453	1.031642	-0.115933	-0.117310	0.090647	32.9512	-0.117996	-4.400229	-0.020601	NaN
747	1.000000	1.043026	7.37237e+06	-39739.1	1005.82	-29792.7	0.000000	0.000000	7.043167	0.097192	NaN	0.000000	0.001562	0.001712	28.0831	0.030834	0.002089	14.7607	-33.4347	-166.516	0.133352	1.041697	-0.105926	-0.107255	0.097192	14.7607	-0.110864	-3.133693	-0.031015	NaN
747	1.000000	1.053052	7.37237e+06	-39739.1	1005.82	-29792.7	0.000000	0.000000	7.053194	0.138019	NaN	0.000000	0.001592	0.001690	28.083	0.055517	0.001895	29.2923	56.7257	13.7564	0.150247	1.051708	-0.095900	-0.097244	0.138019	29.2923	-0.099434	-1.775012	-0.077757	NaN
747	1.000000	1.063020	7.37237e+06	-39739.1	1005.82	-29792.7	0.000000	0.000000	7.063162	0.134326	NaN	0.000000	0.001618	0.001730	28.0831	0.082182	0.002075	39.602	-158.732	-164.846	0.128471	1.061704	-0.085932	-0.087248	0.134326	39.602	-0.088476	-0.995147	-0.134981	NaN
747	1.000000	1.073024	7.37237e+06	-39739.1	1005.82	-29792.7	0.000000	0.000000	7.073166	0.142696	NaN	0.000000	0.001615	0.001727	28.083	0.029150	0.001972	14.7842	-110.473	17.8141	0.060292	1.071679	-0.075928	-0.077273	0.142696	14.7842	-0.083167	-0.741404	-0.192467	NaN
747	1.000000	1.083036	7.37237e+06	-39739.1	1005.82	-29792.7	0.000000	0.000000	7.083175	0.078669	NaN	0.000000	0.001585	0.001702	28.083	0.079122	0.001907	41.4799	134.43	-163.207	0.052562	1.081769	-0.065916	-0.067183	0.078669	41.4799	-0.067339	-0.289024	-0.272188	NaN
747	1.000000	1.093040	7.37237e+06	-39739.1	1005.82	-29792.7	0.000000	0.000000	7.093181	0.105726	NaN	0.000000	0.001636	0.001704	28.0832	0.097804	0.001990	49.1396	-8.495029	14.3572	0.104120	1.091732	-0.055912	-0.057220	0.105726	49.1396	-0.057525	-0.152740	-0.692195	NaN
747	1.000000	1.103062	7.37237e+06	-39739.1	1005.82	-29792.7	0.000000	0.000000	7.103206	0.174634	NaN	0.000000	0.001642	0.001713	28.0831	0.074925	0.002054	36.4791	171.564	-166.161	0.155922	1.101782	-0.045890	-0.047170	0.174634	36.4791	-0.049480	-0.088002	-1.984424	NaN
747	1.000000	1.113037	7.37237e+06	-39739.1	1005.82	-29792.7	0.000000	0.000000	7.113179	0.139779	NaN	0.000000	0.001625	0.001688	28.083	0.073189	0.002042	35.8352	42.0377	17.2514	0.145584	1.111735	-0.035915	-0.037217	0.139779	35.8352	-0.038840	-0.041706	-3.351506	NaN
747	1.000000	1.123068	7.37237e+06	-39739.1	1005.82	-29792.7	0.000000	0.000000	7.123209	0.101334	NaN	0.000000	0.001628	0.001712	28.0836	0.095215	0.002082	45.7274	-65.8975	-164.096	0.227384	1.121743	-0.025884	-0.027209	0.101334	45.7274	-0.027546	-0.019710	-5.141324	NaN
747	1.000000	1.133072	7.37237e+06	-39739.1	1005.82	-29792.7	0.000000	0.000000	7.133213	0.099588	NaN	0.000000	0.001654	0.001697	28.0833	0.112418	0.002006	56.0519	-16.5149	13.7483	0.160431	1.131701	-0.015880	-0.017250	0.099588	56.0519	-0.017212	-0.010647	-9.353978	NaN
747	1.000000	1.143059	7.37237e+06	-39739.1	1005.82	-29792.7	0.000000	0.000000	7.143204	0.218608	NaN	0.000000	0.001563	0.001715	28.0833	0.057903	0.001835	31.5574	100.471	-163.127	0.102548	1.141788	-0.005893	-0.007164	0.218608	31.5574	-0.011088	-0.007008	-31.192	NaN
747	1.000000	1.153053	7.37237e+06	-39739.1	1005.82	-29792.7	0.000000	0.000000	7.153378	4.601290	NaN	0.000000	0.001620	0.001709	28.083	5.658712	0.001823	3104.82	6.229080	13.2855	2.656521	1.151682	0.004101	0.002730	4.601290	3104.82	0.002990	0.002371	1940.51	58254.2
747	2.000000	1.157667	7.37237e+06	-39739.1	1005.82	-29792.7	0.000000	0.000000	7.158216	10.0361	NaN	0.000000	0.001588	0.001694	28.082	10.5211	0.001845	5702.02	7.055800	-169.951	9.760729	1.157367	0.008715	0.008415	10.0361	5702.02	0.007395	0.006427	1561.44	64980.2
747	2.000000	1.160155	7.37237e+06	-39739.1	1005.82	-29792.7	0.000000	0.000000	7.160912	15.1049	NaN	0.000000	0.001587	0.001677	28.0821	12.9319	0.001822	7097.29	7.365399	8.403480	14.3408	1.159744	0.011203	0.010792	15.1049	7097.29	0.009606	0.008747	1726.78	69330.7
747	2.000000	1.162566	7.37237e+06	-39739.1	1005.82	-29792.7	0.000000	0.000000	7.163504	19.5207	NaN	0.000000	0.001634	0.001691	28.0819	15.3176	0.001756	8721.27	9.360614	-177.459	18.0946	1.162296	0.013614	0.013345	19.5207	8721.27	0.011935	0.011412	1710.48	74587.1
747	2.000000	1.165114	7.37237e+06	-39739.1	1005.82	-29792.7	0.000000	0.000000	7.166237	24.0199	NaN	0.000000	0.001632	0.001673	28.0818	17.6045	0.001695	10387.4	7.140773	4.152455	23.7125	1.164720	0.016162	0.015769	24.0199	10387.4	0.014428	0.014530	1653.16	78732.3
747	2.000000	1.167569	7.37237e+06	-39739.1	1005.82	-29792.7	0.000000	0.000000	7.168881	28.6079	NaN	0.000000	0.001651	0.001735	28.082	21.0493	0.001893	11121.5	6.267804	-176.312	27.2168	1.167328	0.018617	0.018376	28.6079	11121.5	0.016688	0.017603	1625.2	76585.5
747	2.000000	1.170074	7.37237e+06	-39739.1	1005.82	-29792.7	0.000000	0.000000	7.171699	36.2377	NaN	0.000000	0.001639	0.001701	28.0818	22.8029	0.001883	12112.5	7.720994	2.593052	35.3959	1.169679	0.021122	0.020727	36.2377	12112.5	0.018878	0.020810	1741.39	76714.2
747	2.000000	1.172558	7.37237e+06	-39739.1	1005.82	-29792.7	0.000000	0.000000	7.174391	41.2828	NaN	0.000000	0.001638	0.001693	28.0816	25.0156	0.001757	14240.1	7.407946	-179.473	40.8918	1.172256	0.023606	0.023304	41.2828	14240.1	0.021432	0.024842	1661.8	82545
747	2.000000	1.175047	7.37237e+06	-39739.1	1005.82	-29792.7	0.000000	0.000000	7.177212	49.353	NaN	0.000000	0.001632	0.001692	28.0816	27.8143	0.001908	14575.7	9.875982	-1.283660	48.8543	1.174730	0.026095	0.025778	49.353	14575.7	0.023556	0.028441	1735.3	78964.6
747	2.000000	1.177531	7.37237e+06	-39739.1	1005.82	-29792.7	0.000000	0.000000	7.180008	56.9401	NaN	0.000000	0.001621	0.001718	28.0821	29.7861	0.001803	16519.2	2.381984	-175.483	54.7186	1.177255	0.028579	0.028303	56.9401	16519.2	0.025994	0.032849	1733.37	83271.9
747	2.000000	1.180110	7.37237e+06	-39739.1	1005.82	-29792.7	0.000000	0.000000	7.183037	67.903	NaN	0.000000	0.001662	0.001714	28.0816	31.477	0.001713	18370.2	4.622615	2.512724	66.4024	1.179630	0.031158	0.030678	67.903	18370.2	0.028386	0.037464	1812.48	86711.8
747	2.000000	1.182552	7.37237e+06	-39739.1	1005.82	-29792.7	0.000000	0.000000	7.185822	76.2483	NaN	0.000000	0.001650	0.001695	28.0817	33.9978	0.001713	19851.4	4.750665	179.552	75.3129	1.182164	0.033600	0.033212	76.2483	19851.4	0.030720	0.042248	1804.76	88238.8
747	2.000000	1.185025	7.37237e+06	-39739.1	1005.82	-29792.7	0.000000	0.000000	7.188669	85.3599	NaN	0.000000	0.001615	0.001710	28.0817	37.4062	0.001799	20789.9	6.821819	-1.702071	83.2875	1.184632	0.036073	0.035680	85.3599	20789.9	0.032994	0.047178	1809.3	87448.9
747	2.000000	1.187504	7.37237e+06	-39739.1	1005.82	-29792.7	0.000000	0.000000	7.191628	97.0483	NaN	0.000000	0.001596	0.001709	28.0818	39.4894	0.001684	23456.5	3.967098	179.173	93.9434	1.187167	0.038552	0.038215	97.0483	23456.5	0.035449	0.052797	1838.16	93268.2
747	2.000000	1.190023	7.37237e+06	-39739.1	1005.82	-29792.7	0.000000	0.000000	7.194602	108.097	NaN	0.000000	0.001608	0.001679	28.0814	41.8238	0.001795	23300	4.717278	-1.049612	105.696	1.189615	0.041071	0.040663	108.097	23300	0.037592	0.057952	1865.28	88428.6
747	2.000000	1.192520	7.37237e+06	-39739.1	1005.82	-29792.7	0.000000	0.000000	7.197420	115.939	NaN	0.000000	0.001607	0.001676	28.0828	43.7059	0.001790	24417.6	5.170458	177.99	114.955	1.192295	0.043568	0.043343	115.939	24417.6	0.040007	0.064045	1810.26	88151.8
747	2.000000	1.194997	7.37237e+06	-39739.1	1005.82	-29792.7	0.000000	0.000000	7.200623	133.592	NaN	0.000000	0.001613	0.001694	28.0826	45.4104	0.001690	26878	1.159426	1.272631	129.909	1.194628	0.046045	0.045676	133.592	26878	0.042317	0.070153	1904.29	92714.3
747	2.000000	1.197493	7.37237e+06	-39739.1	1005.82	-29792.7	0.000000	0.000000	7.203471	142.175	NaN	0.000000	0.001622	0.001645	28.083	49.4826	0.001717	28818	4.342359	176.692	139.869	1.197269	0.048541	0.048317	142.175	28818	0.044840	0.077135	1843.19	94800.6
747	2.000000	1.200037	7.37237e+06	-39739.1	1005.82	-29792.7	0.000000	0.000000	7.206695	158.712	NaN	0.000000	0.001564	0.001679	28.0826	51.1196	0.001790	28555.6	5.746005	-3.474522	156.37	1.199629	0.051085	0.050677	158.712	28555.6	0.046916	0.083120	1909.43	90492.4
747	2.000000	1.202503	7.37237e+06	-39739.1	1005.82	-29792.7	0.000000	0.000000	7.209679	171.316	NaN	0.000000	0.001632	0.001677	28.0826	52.5635	0.001760	29868.8	0.394929	-179.27	169.92	1.202207	0.053551	0.053255	171.316	29868.8	0.049249	0.090107	1901.25	90910.1
747	2.000000	1.205038	7.37237e+06	-39739.1	1005.82	-29792.7	0.000000	0.000000	7.212687	182.825	NaN	0.000000	0.001618	0.001700	28.0828	55.7484	0.001690	32996.7	2.759296	-2.210118	181.934	1.204629	0.056086	0.055678	182.825	32996.7	0.051930	0.098473	1856.6	96069.5
747	2.000000	1.207503	7.37237e+06	-39739.1	1005.82	-29792.7	0.000000	0.000000	7.215735	196.989	NaN	0.000000	0.001654	0.001683	28.083	60.1371	0.001979	30389.6	6.233542	175.88	194.607	1.207105	0.058551	0.058153	196.989	30389.6	0.053690	0.104158	1891.25	86030.4
747	2.000000	1.210014	7.37237e+06	-39739.1	1005.82	-29792.7	0.000000	0.000000	7.218774	209.863	NaN	0.000000	0.001628	0.001685	28.0829	60.9299	0.001739	35037	3.520694	-3.454556	207.118	1.209714	0.061062	0.060762	209.863	35037	0.056570	0.113796	1844.2	94893.6
747	2.000000	1.212514	7.37237e+06	-39739.1	1005.82	-29792.7	0.000000	0.000000	7.221877	224.529	NaN	0.000000	0.001705	0.001688	28.0828	62.2137	0.001730	35970.3	3.577932	175.76	223.999	1.212256	0.063562	0.063304	224.529	35970.3	0.058880	0.121823	1843.08	94157
747	2.000000	1.215019	7.37237e+06	-39739.1	1005.82	-29792.7	0.000000	0.000000	7.224941	238.129	NaN	0.000000	0.001686	0.001715	28.0831	65.5386	0.001843	35561.4	7.601477	-7.710977	238.848	1.214627	0.066067	0.065675	238.129	35561.4	0.061045	0.129582	1837.67	90257
747	2.000000	1.217499	7.37237e+06	-39739.1	1005.82	-29792.7	0.000000	0.000000	7.228009	252.427	NaN	0.000000	0.001676	0.001684	28.0829	67.9444	0.001756	38703.5	4.952829	173.798	250.591	1.217216	0.068547	0.068264	252.427	38703.5	0.063656	0.139242	1812.86	94762.9
747	2.000000	1.219956	7.37237e+06	-39739.1	1005.82	-29792.7	0.000000	0.000000	7.231407	275.339	NaN	0.000000	0.001651	0.001680	28.0828	68.7606	0.001809	38006.1	-1.524204	2.192963	271.671	1.219554	0.071004	0.070602	275.339	38006.1	0.065570	0.146538	1878.96	90709.3
747	2.000000	1.222448	7.37237e+06	-39739.1	1005.82	-29792.7	0.000000	0.000000	7.234301	285.107	NaN	0.000000	0.001683	0.001695	28.0829	71.7167	0.001816	39481	3.141102	175.94	280.428	1.222121	0.073497	0.073169	285.107	39481	0.068080	0.156367	1823.32	91219.7
747	2.000000	1.224897	7.37237e+06	-39739.1	1005.82	-29792.7	0.000000	0.000000	7.237452	302.193	NaN	0.000000	0.001672	0.001700	28.0827	74.7085	0.001770	42218.4	5.599185	-7.318150	296.539	1.224598	0.075945	0.075646	302.193	42218.4	0.070577	0.166441	1815.61	94546.2
747	2.000000	1.227434	7.37237e+06	-39739.1	1005.82	-29792.7	0.000000	0.000000	7.240564	316.2	NaN	0.000000	0.001650	0.001717	28.0815	77.7255	0.001865	41668.6	5.261514	173.731	311.515	1.227197	0.078482	0.078245	316.2	41668.6	0.072790	0.175623	1800.44	90842.8
747	2.000000	1.229952	7.37237e+06	-39739.1	1005.82	-29792.7	0.000000	0.000000	7.243982	338.093	NaN	0.000000	0.001612	0.001714	28.0815	79.7668	0.001796	44423.4	7.792276	-8.714549	333.64	1.229495	0.081000	0.080543	338.093	44423.4	0.075292	0.186280	1814.97	94037.5
747	2.000000	1.232496	7.37237e+06	-39739.1	1005.82	-29792.7	0.000000	0.000000	7.247214	354.843	NaN	0.000000	0.001603	0.001685	28.0816	80.6651	0.001792	45017.8	4.237001	175.121	354.837	1.232000	0.083544	0.083048	354.843	45017.8	0.077633	0.196515	1805.68	92781.3
747	2.000000	1.234950	7.37237e+06	-39739.1	1005.82	-29792.7	0.000000	0.000000	7.250427	373.308	NaN	0.000000	0.001657	0.001743	28.0818	82.5353	0.001643	50221.5	3.253456	-5.588344	366.505	1.234512	0.085998	0.085560	373.308	50221.5	0.080423	0.209054	1785.7	100354
747	2.000000	1.237360	7.37237e+06	-39739.1	1005.82	-29792.7	0.000000	0.000000	7.253484	389.036	NaN	0.000000	0.001658	0.001708	28.0814	87.1639	0.001827	47699.7	4.511996	173.611	383.399	1.237201	0.088408	0.088249	389.036	47699.7	0.082291	0.217650	1787.43	93413.5
747	2.000000	1.240039	7.37237e+06	-39739.1	1005.82	-29792.7	0.000000	0.000000	7.256995	409.308	NaN	0.000000	0.001634	0.001711	28.0815	89.017	0.001784	49898.5	5.683222	-7.596287	409.065	1.239530	0.091087	0.090578	409.308	49898.5	0.084934	0.230089	1778.91	95041.3
747	2.000000	1.242374	7.37237e+06	-39739.1	1005.82	-29792.7	0.000000	0.000000	7.260048	426.774	NaN	0.000000	0.001624	0.001717	28.0816	90.7584	0.001728	52536.6	5.526077	171.59	421.266	1.242101	0.093422	0.093149	426.774	52536.6	0.087329	0.241638	1766.17	97645.7
747	2.000000	1.245014	7.37237e+06	-39739.1	1005.82	-29792.7	0.000000	0.000000	7.263626	449.589	NaN	0.000000	0.001580	0.001710	28.0819	94.0366	0.001777	52919.7	5.842532	-8.183064	450.333	1.244512	0.096062	0.095560	449.589	52919.7	0.089690	0.253284	1775.04	96069.8
747	2.000000	1.247449	7.37237e+06	-39739.1	1005.82	-29792.7	0.000000	0.000000	7.266868	469.235	NaN	0.000000	0.001624	0.001689	28.0818	98.0312	0.001790	54758.6	7.437181	169.378	466.257	1.247142	0.098497	0.098190	469.235	54758.6	0.092070	0.265280	1768.83	97134.4
747	2.000000	1.250050	7.37237e+06	-39739.1	1005.82	-29792.7	0.000000	0.000000	7.270302	489.513	NaN	0.000000	0.001576	0.001708	28.0819	100.01	0.001861	53751.7	6.845138	-8.965112	491.317	1.249517	0.101098	0.100565	489.513	53751.7	0.094267	0.276586	1769.84	93379.3
747	2.000000	1.252444	7.37237e+06	-39739.1	1005.82	-29792.7	0.000000	0.000000	7.273804	516.463	NaN	0.000000	0.001646	0.001683	28.0822	100.38	0.001655	60659.7	3.833213	172.646	515.514	1.252134	0.103492	0.103182	516.463	60659.7	0.097107	0.291521	1771.61	102645
747	2.000000	1.254375	7.37237e+06	-39739.1	1005.82	-29792.7	0.000000	0.000000	7.276355	531.56	NaN	0.000000	0.001600	0.001736	28.0819	104.718	0.001911	54797.5	4.844622	172.407	525.659	1.254123	0.105423	0.105171	531.56	54797.5	0.098148	0.297091	1789.22	91852.1