File: remote_trans/data/nanoindenter/0828-1/data/Data_2025-08-06,11h17m57s/2025-07-22_16-23-58_1_304.txt
2025-07-22, 16:23:58, 1
Index	Phase	Displacement	Time	Pos X	Pos Y	Pos Z	Rot A	Rot B	Piezo Z	Force A	Force B	Gripper	Voltage A	Voltage B	Temperature	Amplitude force	Amplitude pos	Stiffness	Phase shift	Phase excitation	Force A raw	Displacement raw	HMax	HMax raw	Real Force	Real Stiffness	Contact Depth	Area	Hardness	Reduced Mod.
[#]	[#]	[um]	[s]	[um]	[um]	[um]	[m°]	[m°]	[um]	[uN]	[uN]	[V]	[V]	[V]	[°C]	[uN]	[um]	[N/m]	[°]	[°]	[uN]	[um]	[um]	[um]	[uN]	[N/m]	[um]	[um^2]	[MPa]	[MPa]
304	1.000000	0.002370	7.36804e+06	-53839.1	955.818	-29745.4	0.000000	0.000000	6.002805	-0.054271	NaN	0.000000	0.001632	0.001682	28.0792	0.083774	0.000944	88.7533	161.451	-158.881	-0.056246	0.001102	-1.089159	-1.090427	-0.054271	88.7533	-1.088700	-3.534730E+14	1.535368E-16	NaN
304	1.000000	0.012415	7.36804e+06	-53839.1	955.82	-29745.4	0.000000	0.000000	6.012851	-0.026881	NaN	0.000000	0.001652	0.001688	28.079	0.104456	0.001372	76.1223	62.6566	17.9906	-0.004729	0.010996	-1.079114	-1.080532	-0.026881	76.1223	-1.078849	-2.606549E+14	1.031293E-16	NaN
304	1.000000	0.022330	7.36804e+06	-53839.1	955.818	-29745.4	0.000000	0.000000	6.022767	0.014151	NaN	0.000000	0.001664	0.001686	28.0787	0.074098	0.001789	41.4282	179.636	-170.326	0.026867	0.021049	-1.069199	-1.070479	0.014151	41.4282	-1.069456	-1.949281E+14	-7.259839E-17	NaN
304	1.000000	0.032316	7.36804e+06	-53839.1	955.818	-29745.4	0.000000	0.000000	6.032753	-0.021878	NaN	0.000000	0.001683	0.001664	28.0786	0.108040	0.001870	57.7618	131.123	14.9522	-0.096927	0.030953	-1.059213	-1.060576	-0.021878	57.7618	-1.058928	-1.407412E+14	1.554518E-16	NaN
304	1.000000	0.042321	7.36804e+06	-53839.1	955.819	-29745.4	0.000000	0.000000	6.042758	-0.005031	NaN	0.000000	0.001652	0.001678	28.0789	0.047990	0.002098	22.8698	-34.5029	-164.435	-0.034024	0.040992	-1.049208	-1.050537	-0.005031	22.8698	-1.049043	-1.036455E+14	4.854309E-17	NaN
304	1.000000	0.052332	7.36804e+06	-53839.1	955.819	-29745.4	0.000000	0.000000	6.052764	-0.133679	NaN	0.000000	0.001703	0.001681	28.0785	0.133648	0.002115	63.1884	132.304	11.0149	-0.122729	0.050962	-1.039197	-1.040566	-0.133679	63.1884	-1.037610	-7.274942E+13	1.837531E-15	NaN
304	1.000000	0.062341	7.36804e+06	-53839.1	955.819	-29745.4	0.000000	0.000000	6.062780	0.028870	NaN	0.000000	0.001695	0.001699	28.0788	0.090754	0.002165	41.9167	146.352	-163.251	-0.055149	0.061006	-1.029187	-1.030523	0.028870	41.9167	-1.029704	-5.695077E+13	-5.069254E-16	NaN
304	1.000000	0.072333	7.36804e+06	-53839.1	955.818	-29745.4	0.000000	0.000000	6.072767	-0.076244	NaN	0.000000	0.001640	0.001657	28.0786	0.097972	0.001940	50.508	7.065203	14.1032	-0.081158	0.070969	-1.019196	-1.020560	-0.076244	50.508	-1.018063	-3.970965E+13	1.920035E-15	NaN
304	1.000000	0.082342	7.36804e+06	-53839.1	955.817	-29745.4	0.000000	0.000000	6.082781	0.037678	NaN	0.000000	0.001599	0.001682	28.0779	0.035035	0.001953	17.9418	57.3405	-165.045	-0.009860	0.080985	-1.009187	-1.010544	0.037678	17.9418	-1.010762	-3.166881E+13	-1.189758E-15	NaN
304	1.000000	0.092362	7.36804e+06	-53839.1	955.819	-29745.4	0.000000	0.000000	6.092797	-0.055019	NaN	0.000000	0.001595	0.001675	28.0774	0.094334	0.002074	45.4868	165.175	16.0744	-0.006143	0.090925	-0.999167	-1.000604	-0.055019	45.4868	-0.998260	-2.149498E+13	2.559636E-15	NaN
304	1.000000	0.102300	7.36804e+06	-53839.1	955.818	-29745.4	0.000000	0.000000	6.102736	-0.042032	NaN	0.000000	0.001584	0.001651	28.0779	0.030081	0.002078	14.4789	-93.3313	-166.402	-0.042032	0.101026	-0.989229	-0.990502	-0.042032	14.4789	-0.987052	-1.518456E+13	2.768096E-15	NaN
304	1.000000	0.112338	7.36804e+06	-53839.1	955.818	-29745.4	0.000000	0.000000	6.112775	0.003557	NaN	0.000000	0.001634	0.001711	28.0776	0.130788	0.002020	64.7396	132.766	13.4876	-0.036168	0.110995	-0.979191	-0.980533	0.003557	64.7396	-0.979232	-1.191434E+13	-2.985320E-16	NaN
304	1.000000	0.122314	7.36804e+06	-53839.1	955.819	-29745.4	0.000000	0.000000	6.122753	0.033101	NaN	0.000000	0.001585	0.001702	28.0781	0.053195	0.001975	26.9374	-14.1307	-167.48	0.048611	0.121023	-0.969215	-0.970505	0.033101	26.9374	-0.970137	-8.984723E+12	-3.684145E-15	NaN
304	1.000000	0.132343	7.36804e+06	-53839.1	955.818	-29745.4	0.000000	0.000000	6.132781	0.022062	NaN	0.000000	0.001615	0.001707	28.0775	0.093945	0.002047	45.8957	160.978	12.3065	0.011820	0.130995	-0.959186	-0.960533	0.022062	45.8957	-0.959547	-6.467782E+12	-3.411070E-15	NaN
304	1.000000	0.142356	7.36804e+06	-53839.1	955.819	-29745.4	0.000000	0.000000	6.142790	-0.069889	NaN	0.000000	0.001609	0.001664	28.0775	0.087189	0.001956	44.569	-161.989	-165.385	-0.073934	0.141017	-0.949173	-0.950511	-0.069889	44.569	-0.947997	-4.518664E+12	1.546674E-14	NaN
304	1.000000	0.152347	7.36804e+06	-53839.1	955.818	-29745.4	0.000000	0.000000	6.152786	0.029755	NaN	0.000000	0.001575	0.001648	28.078	0.072392	0.001867	38.7714	-108.833	12.7235	0.009111	0.150962	-0.939182	-0.940567	0.029755	38.7714	-0.939758	-3.498371E+12	-8.505415E-15	NaN
304	1.000000	0.162368	7.36804e+06	-53839.1	955.818	-29745.4	0.000000	0.000000	6.162806	-0.005321	NaN	0.000000	0.001566	0.001683	28.0779	0.031374	0.002107	14.8877	-41.6282	-163.974	-0.032695	0.161087	-0.929160	-0.930442	-0.005321	14.8877	-0.928892	-2.496016E+12	2.131747E-15	NaN
304	1.000000	0.172344	7.36804e+06	-53839.1	955.818	-29745.4	0.000000	0.000000	6.172782	0.016030	NaN	0.000000	0.001591	0.001651	28.0776	0.036161	0.001957	18.4749	-108.137	14.2066	-0.019761	0.170968	-0.919185	-0.920561	0.016030	18.4749	-0.919835	-1.883569E+12	-8.510242E-15	NaN
304	1.000000	0.182367	7.36804e+06	-53839.1	955.818	-29745.4	0.000000	0.000000	6.182804	-0.009727	NaN	0.000000	0.001608	0.001669	28.0776	0.126963	0.002074	61.2065	-62.1574	-166.225	-0.017229	0.181024	-0.909162	-0.910505	-0.009727	61.2065	-0.909043	-1.346589E+12	7.223508E-15	NaN
304	1.000000	0.192385	7.36804e+06	-53839.1	955.818	-29745.4	0.000000	0.000000	6.192821	-0.037783	NaN	0.000000	0.001637	0.001684	28.0777	0.084037	0.002025	41.5061	-143.818	12.1428	0.055415	0.190972	-0.899143	-0.900557	-0.037783	41.5061	-0.898461	-9.688701E+11	3.899729E-14	NaN
304	1.000000	0.202392	7.36804e+06	-53839.1	955.818	-29745.4	0.000000	0.000000	6.202831	0.044054	NaN	0.000000	0.001596	0.001670	28.0776	0.103110	0.001888	54.6189	15.4422	-170.786	0.040649	0.201094	-0.889137	-0.890435	0.044054	54.6189	-0.889742	-7.386322E+11	-5.964240E-14	NaN
304	1.000000	0.212396	7.36804e+06	-53839.1	955.819	-29745.4	0.000000	0.000000	6.212835	0.025789	NaN	0.000000	0.001623	0.001684	28.0785	0.085133	0.001960	43.4427	-70.9567	11.2174	-0.004970	0.210998	-0.879133	-0.880531	0.025789	43.4427	-0.879578	-5.382685E+11	-4.791034E-14	NaN
304	1.000000	0.222374	7.36804e+06	-53839.1	955.818	-29745.4	0.000000	0.000000	6.222811	-0.012703	NaN	0.000000	0.001630	0.001657	28.0792	0.111945	0.001978	56.5954	47.7903	-166.471	-0.079297	0.221061	-0.869154	-0.870468	-0.012703	56.5954	-0.868986	-3.870139E+11	3.282297E-14	NaN
304	1.000000	0.232400	7.36804e+06	-53839.1	955.819	-29745.4	0.000000	0.000000	6.232835	-0.071686	NaN	0.000000	0.001634	0.001680	28.0795	0.047478	0.001922	24.6991	65.3612	11.2161	-0.065987	0.231035	-0.859128	-0.860494	-0.071686	24.6991	-0.856952	-2.659854E+11	2.695094E-13	NaN
304	1.000000	0.242412	7.36804e+06	-53839.1	955.819	-29745.4	0.000000	0.000000	6.242848	-0.033298	NaN	0.000000	0.001646	0.001690	28.079	0.070508	0.002074	33.9887	171.425	-166.41	-0.011045	0.241108	-0.849116	-0.850421	-0.033298	33.9887	-0.848382	-2.036205E+11	1.635319E-13	NaN
304	1.000000	0.252423	7.36804e+06	-53839.1	955.818	-29745.4	0.000000	0.000000	6.252858	-0.045394	NaN	0.000000	0.001649	0.001701	28.0792	0.017550	0.001985	8.841740	-40.1124	12.3728	-0.061902	0.251045	-0.839106	-0.840484	-0.045394	8.841740	-0.835255	-1.352093E+11	3.357321E-13	NaN
304	1.000000	0.262396	7.36804e+06	-53839.1	955.818	-29745.4	0.000000	0.000000	6.262835	0.053119	NaN	0.000000	0.001623	0.001659	28.079	0.098053	0.002144	45.7335	60.0422	-170.412	0.005048	0.261072	-0.829133	-0.830457	0.053119	45.7335	-0.830004	-1.147735E+11	-4.628201E-13	NaN
304	1.000000	0.272366	7.36804e+06	-53839.1	955.818	-29745.4	0.000000	0.000000	6.272805	0.043908	NaN	0.000000	0.001595	0.001669	28.0796	0.033360	0.002099	15.8912	-61.7298	13.7436	0.025309	0.271021	-0.819163	-0.820508	0.043908	15.8912	-0.821235	-8.728859E+10	-5.030245E-13	NaN
304	1.000000	0.282394	7.36804e+06	-53839.1	955.819	-29745.4	0.000000	0.000000	6.282831	-0.001232	NaN	0.000000	0.001629	0.001678	28.0791	0.080451	0.002034	39.5468	45.7254	-167.388	-0.005150	0.281164	-0.809135	-0.810365	-0.001232	39.5468	-0.809112	-5.977542E+10	2.061305E-14	NaN
304	1.000000	0.292407	7.36804e+06	-53839.1	955.818	-29745.4	0.000000	0.000000	6.292843	-0.048451	NaN	0.000000	0.001661	0.001692	28.0793	0.045470	0.001902	23.9032	-67.5476	12.8909	0.003580	0.291056	-0.799122	-0.800473	-0.048451	23.9032	-0.797601	-4.171593E+10	1.161461E-12	NaN
304	1.000000	0.302423	7.36804e+06	-53839.1	955.817	-29745.4	0.000000	0.000000	6.302859	-0.033399	NaN	0.000000	0.001650	0.001662	28.0789	0.120544	0.001973	61.0951	125.129	-165.536	-0.008721	0.301093	-0.789106	-0.790436	-0.033399	61.0951	-0.788696	-3.157715E+10	1.057684E-12	NaN
304	1.000000	0.312422	7.36804e+06	-53839.1	955.819	-29745.4	0.000000	0.000000	6.312860	0.003626	NaN	0.000000	0.001624	0.001664	28.0795	0.075947	0.002009	37.8011	161.358	15.5051	-0.004663	0.311064	-0.779107	-0.780465	0.003626	37.8011	-0.779179	-2.344599E+10	-1.546320E-13	NaN
304	1.000000	0.322429	7.36804e+06	-53839.1	955.818	-29745.4	0.000000	0.000000	6.322868	0.025811	NaN	0.000000	0.001667	0.001658	28.079	0.110469	0.002013	54.8857	-94.9455	-166.285	0.045841	0.321135	-0.769100	-0.770394	0.025811	54.8857	-0.769452	-1.729253E+10	-1.492624E-12	NaN
304	1.000000	0.332420	7.36804e+06	-53839.1	955.818	-29745.4	0.000000	0.000000	6.332858	0.021274	NaN	0.000000	0.001653	0.001650	28.0791	0.080230	0.001996	40.1915	138.243	17.2588	-0.050381	0.331043	-0.759109	-0.760486	0.021274	40.1915	-0.759506	-1.266441E+10	-1.679805E-12	NaN
304	1.000000	0.342463	7.36804e+06	-53839.1	955.819	-29745.4	0.000000	0.000000	6.342899	-0.033909	NaN	0.000000	0.001694	0.001675	28.079	0.163546	0.002003	81.65	168.635	-167.111	0.024982	0.341108	-0.749066	-0.750421	-0.033909	81.65	-0.748755	-9.042025E+9	3.750196E-12	NaN
304	1.000000	0.352460	7.36804e+06	-53839.1	955.818	-29745.4	0.000000	0.000000	6.352896	-0.039000	NaN	0.000000	0.001658	0.001673	28.0779	0.032032	0.002033	15.7582	161.041	15.8859	0.023709	0.351098	-0.739069	-0.740431	-0.039000	15.7582	-0.737213	-6.296311E+9	6.194058E-12	NaN
304	1.000000	0.362417	7.36804e+06	-53839.1	955.817	-29745.4	0.000000	0.000000	6.362856	0.026132	NaN	0.000000	0.001717	0.001682	28.0776	0.104549	0.001989	52.5632	-86.2146	-164.166	0.028096	0.361133	-0.729112	-0.730396	0.026132	52.5632	-0.729484	-4.940622E+9	-5.289273E-12	NaN
304	1.000000	0.372435	7.36804e+06	-53839.1	955.818	-29745.4	0.000000	0.000000	6.372872	-0.029046	NaN	0.000000	0.001706	0.001672	28.0777	0.063176	0.002008	31.4666	-3.361026	13.8798	0.049189	0.371089	-0.719094	-0.720440	-0.029046	31.4666	-0.718401	-3.488731E+9	8.325768E-12	NaN
304	1.000000	0.382463	7.36804e+06	-53839.1	955.817	-29745.4	0.000000	0.000000	6.382900	-0.019544	NaN	0.000000	0.001701	0.001693	28.0776	0.084178	0.001960	42.9505	-59.2845	-163.919	0.031860	0.381148	-0.709066	-0.710380	-0.019544	42.9505	-0.708724	-2.574188E+9	7.592148E-12	NaN
304	1.000000	0.392480	7.36804e+06	-53839.1	955.818	-29745.4	0.000000	0.000000	6.392919	0.034442	NaN	0.000000	0.001650	0.001650	28.0777	0.084923	0.002021	42.0165	65.3635	14.5839	-0.041527	0.391056	-0.699049	-0.700473	0.034442	42.0165	-0.699663	-1.936133E+9	-1.778896E-11	NaN
304	1.000000	0.402486	7.36804e+06	-53839.1	955.819	-29745.4	0.000000	0.000000	6.402925	0.037796	NaN	0.000000	0.001618	0.001667	28.0777	0.076912	0.002106	36.5118	19.1773	-168.458	-0.003039	0.401167	-0.689043	-0.690361	0.037796	36.5118	-0.689820	-1.420534E+9	-2.660655E-11	NaN
304	1.000000	0.412429	7.36804e+06	-53839.1	955.819	-29745.4	0.000000	0.000000	6.412865	-0.035010	NaN	0.000000	0.001652	0.001693	28.0778	0.063587	0.001962	32.4102	-159.98	13.0289	-0.071846	0.411135	-0.679100	-0.680394	-0.035010	32.4102	-0.678290	-9.881360E+8	3.543020E-11	NaN
304	1.000000	0.422465	7.36804e+06	-53839.1	955.818	-29745.4	0.000000	0.000000	6.422902	0.009232	NaN	0.000000	0.001670	0.001679	28.078	0.040517	0.001913	21.175	-16.3754	-172.91	0.001507	0.421177	-0.669064	-0.670352	0.009232	21.175	-0.669391	-7.465463E+8	-1.236564E-11	NaN
304	1.000000	0.432469	7.36804e+06	-53839.1	955.819	-29745.4	0.000000	0.000000	6.432906	-0.030859	NaN	0.000000	0.001660	0.001692	28.0781	0.105313	0.002071	50.8511	133.685	12.498	-0.020360	0.431065	-0.659059	-0.660464	-0.030859	50.8511	-0.658604	-5.313114E+8	5.808054E-11	NaN
304	1.000000	0.442467	7.36804e+06	-53839.1	955.817	-29745.4	0.000000	0.000000	6.442901	-0.076917	NaN	0.000000	0.001642	0.001676	28.0778	0.103477	0.002032	50.9158	-84.0043	-164.768	-0.044099	0.441132	-0.649062	-0.650397	-0.076917	50.9158	-0.647929	-3.793565E+8	2.027572E-10	NaN
304	1.000000	0.452515	7.36804e+06	-53839.1	955.818	-29745.4	0.000000	0.000000	6.452952	-0.007104	NaN	0.000000	0.001612	0.001698	28.0783	0.076142	0.002071	36.7726	-86.9213	15.5316	-0.054710	0.451119	-0.639014	-0.640410	-0.007104	36.7726	-0.638869	-2.849541E+8	2.493056E-11	NaN
304	1.000000	0.462477	7.36804e+06	-53839.1	955.819	-29745.4	0.000000	0.000000	6.462915	0.006206	NaN	0.000000	0.001592	0.001665	28.0779	0.002205	0.001873	1.177331	-16.0903	-165.363	-0.039564	0.461188	-0.629052	-0.630341	0.006206	1.177331	-0.633005	-2.367474E+8	-2.621249E-11	NaN
304	1.000000	0.472489	7.36804e+06	-53839.1	955.818	-29745.4	0.000000	0.000000	6.472929	0.069888	NaN	0.000000	0.001651	0.001696	28.0781	0.058211	0.002081	27.9728	35.7848	12.5116	0.025858	0.471129	-0.619040	-0.620399	0.069888	27.9728	-0.620914	-1.615070E+8	-4.327245E-10	NaN
304	1.000000	0.482492	7.36804e+06	-53839.1	955.818	-29745.4	0.000000	0.000000	6.482929	-0.022339	NaN	0.000000	0.001639	0.001635	28.0778	0.052296	0.002019	25.8966	42.8584	-165.139	-0.061285	0.481189	-0.609037	-0.610340	-0.022339	25.8966	-0.608390	-1.086313E+8	2.056383E-10	NaN
304	1.000000	0.492480	7.36804e+06	-53839.1	955.819	-29745.4	0.000000	0.000000	6.492917	-0.014297	NaN	0.000000	0.001636	0.001689	28.0796	0.042074	0.001972	21.3366	174.362	10.6044	-0.050547	0.491092	-0.599048	-0.600436	-0.014297	21.3366	-0.598546	-7.951195E+7	1.798156E-10	NaN
304	1.000000	0.502505	7.36804e+06	-53839.1	955.818	-29745.4	0.000000	0.000000	6.502943	0.030215	NaN	0.000000	0.001657	0.001684	28.0792	0.076262	0.002050	37.1966	-129.215	-164.778	0.079210	0.501192	-0.589024	-0.590337	0.030215	37.1966	-0.589633	-5.992573E+7	-5.042135E-10	NaN
304	1.000000	0.512512	7.36804e+06	-53839.1	955.818	-29745.4	0.000000	0.000000	6.512948	-0.033616	NaN	0.000000	0.001635	0.001672	28.0793	0.049172	0.001904	25.8236	-30.6957	11.8061	-0.047176	0.511191	-0.579017	-0.580338	-0.033616	25.8236	-0.578040	-4.146462E+7	8.107095E-10	NaN
304	1.000000	0.522510	7.36804e+06	-53839.1	955.819	-29745.4	0.000000	0.000000	6.522945	-0.063400	NaN	0.000000	0.001647	0.001701	28.0795	0.108253	0.002094	51.7085	103.39	-165.266	-0.029551	0.521168	-0.569019	-0.570361	-0.063400	51.7085	-0.568099	-3.022508E+7	2.097599E-9	NaN
304	1.000000	0.532515	7.36804e+06	-53839.1	955.818	-29745.4	0.000000	0.000000	6.532951	-0.011745	NaN	0.000000	0.001654	0.001686	28.0796	0.152438	0.002010	75.8384	-130.511	11.8234	-0.006266	0.531150	-0.559014	-0.560379	-0.011745	75.8384	-0.558898	-2.254940E+7	5.208672E-10	NaN
304	1.000000	0.542511	7.36804e+06	-53839.1	955.818	-29745.4	0.000000	0.000000	6.542945	-0.068556	NaN	0.000000	0.001622	0.001718	28.0797	0.039660	0.001901	20.8603	-26.444	-167.266	-0.041684	0.541181	-0.549018	-0.550348	-0.068556	20.8603	-0.546553	-1.521277E+7	4.506499E-9	NaN
304	1.000000	0.552540	7.36804e+06	-53839.1	955.818	-29745.4	0.000000	0.000000	6.552977	-0.014861	NaN	0.000000	0.001630	0.001676	28.0793	0.094284	0.002015	46.793	57.7162	15.2726	-0.007981	0.551190	-0.538989	-0.540339	-0.014861	46.793	-0.538751	-1.185853E+7	1.253213E-9	NaN
304	1.000000	0.562524	7.36804e+06	-53839.1	955.818	-29745.4	0.000000	0.000000	6.562962	0.025976	NaN	0.000000	0.001610	0.001729	28.0797	0.101410	0.002021	50.1745	139.914	-162.091	0.145810	0.561188	-0.529005	-0.530341	0.025976	50.1745	-0.529394	-8.79333e+06	-2.954012E-9	NaN
304	1.000000	0.572550	7.36804e+06	-53839.1	955.819	-29745.4	0.000000	0.000000	6.572984	-0.075737	NaN	0.000000	0.001655	0.001709	28.0794	0.090875	0.002046	44.4119	-150.931	15.4856	-0.050353	0.571131	-0.518979	-0.520398	-0.075737	44.4119	-0.517700	-6.04783e+06	1.252304E-8	NaN
304	1.000000	0.582560	7.36804e+06	-53839.1	955.818	-29745.4	0.000000	0.000000	6.582995	-0.041713	NaN	0.000000	0.001667	0.001706	28.0794	0.048036	0.002037	23.5796	-170.07	-166.701	-0.077005	0.581216	-0.508969	-0.510313	-0.041713	23.5796	-0.507643	-4.38099e+06	9.521270E-9	NaN
304	1.000000	0.592580	7.36804e+06	-53839.1	955.818	-29745.4	0.000000	0.000000	6.593018	0.011557	NaN	0.000000	0.001677	0.001735	28.0792	0.116039	0.001950	59.5191	-174.399	14.0345	0.093843	0.591166	-0.498949	-0.500363	0.011557	59.5191	-0.499095	-3.32958e+06	-3.470995E-9	NaN
304	1.000000	0.602555	7.36804e+06	-53839.1	955.819	-29745.4	0.000000	0.000000	6.602992	-0.013835	NaN	0.000000	0.001647	0.001674	28.0796	0.068377	0.001880	36.3734	138.862	-167.953	0.053400	0.601206	-0.488974	-0.490323	-0.013835	36.3734	-0.488688	-2.38265e+06	5.806649E-9	NaN
304	1.000000	0.612559	7.36804e+06	-53839.1	955.819	-29745.4	0.000000	0.000000	6.612996	0.007582	NaN	0.000000	0.001621	0.001660	28.0792	0.008846	0.002022	4.374870	128.351	12.056	-0.037728	0.611149	-0.478970	-0.480379	0.007582	4.374870	-0.480270	-1.81679e+06	-4.173302E-9	NaN
304	1.000000	0.622560	7.36804e+06	-53839.1	955.818	-29745.4	0.000000	0.000000	6.622997	-0.007257	NaN	0.000000	0.001617	0.001684	28.0782	0.136699	0.001851	73.8614	-167.206	-164.327	0.064502	0.621302	-0.468969	-0.470227	-0.007257	73.8614	-0.468895	-1.25866e+06	5.765394E-9	NaN
304	1.000000	0.632566	7.36804e+06	-53839.1	955.819	-29745.4	0.000000	0.000000	6.633002	-0.050040	NaN	0.000000	0.001610	0.001701	28.0778	0.056312	0.001967	28.6282	-42.2675	12.638	-0.126275	0.631152	-0.458963	-0.460376	-0.050040	28.6282	-0.457652	-875001	5.718881E-8	NaN
304	1.000000	0.642576	7.36804e+06	-53839.1	955.819	-29745.4	0.000000	0.000000	6.643010	-0.081213	NaN	0.000000	0.001599	0.001704	28.0779	0.082016	0.002045	40.1134	-57.7194	-165.049	-0.060120	0.641268	-0.448952	-0.450261	-0.081213	40.1134	-0.447434	-628344	1.292493E-7	NaN
304	1.000000	0.652560	7.36804e+06	-53839.1	955.818	-29745.4	0.000000	0.000000	6.652996	-0.021846	NaN	0.000000	0.001636	0.001686	28.078	0.062669	0.001993	31.4438	133.641	17.6406	-0.007695	0.651217	-0.438969	-0.440312	-0.021846	31.4438	-0.438448	-469302	4.655025E-8	NaN
304	1.000000	0.662567	7.36804e+06	-53839.1	955.818	-29745.4	0.000000	0.000000	6.663001	-0.068166	NaN	0.000000	0.001646	0.001691	28.078	0.044924	0.001973	22.7686	96.5582	-165.678	-0.035147	0.661268	-0.428962	-0.430261	-0.068166	22.7686	-0.426717	-320328	2.128018E-7	NaN
304	1.000000	0.672582	7.36804e+06	-53839.1	955.819	-29745.4	0.000000	0.000000	6.673020	0.012115	NaN	0.000000	0.001680	0.001697	28.078	0.102316	0.001984	51.5668	-161.807	13.6878	0.001358	0.671262	-0.418947	-0.420267	0.012115	51.5668	-0.419123	-250021	-4.845712E-8	NaN
304	1.000000	0.682583	7.36804e+06	-53839.1	955.818	-29745.4	0.000000	0.000000	6.683017	-0.074315	NaN	0.000000	0.001676	0.001697	28.0782	0.095978	0.001947	49.3022	-0.054704	-165.731	-0.022907	0.681280	-0.408946	-0.410249	-0.074315	49.3022	-0.407815	-172713	4.302834E-7	NaN
304	1.000000	0.692602	7.36804e+06	-53839.1	955.819	-29745.4	0.000000	0.000000	6.693040	0.021191	NaN	0.000000	0.001684	0.001683	28.0779	0.020700	0.001992	10.394	118.387	14.3252	-0.083387	0.691249	-0.398927	-0.400280	0.021191	10.394	-0.400456	-135673	-1.561886E-7	NaN
304	1.000000	0.702593	7.36804e+06	-53839.1	955.818	-29745.4	0.000000	0.000000	6.703029	-0.010500	NaN	0.000000	0.001687	0.001675	28.078	0.020485	0.002103	9.741884	-131.441	-170.099	-0.032934	0.701286	-0.388936	-0.390243	-0.010500	9.741884	-0.388128	-90444	1.160986E-7	NaN
304	1.000000	0.712568	7.36804e+06	-53839.1	955.819	-29745.4	0.000000	0.000000	6.713005	-0.004219	NaN	0.000000	0.001723	0.001679	28.0812	0.063983	0.002069	30.9285	5.583975	11.5061	-0.044928	0.711254	-0.378961	-0.380275	-0.004219	30.9285	-0.378858	-66604.1	6.334662E-8	NaN
304	1.000000	0.722591	7.36804e+06	-53839.1	955.818	-29745.4	0.000000	0.000000	6.723027	-0.026151	NaN	0.000000	0.001703	0.001633	28.0792	0.120384	0.001983	60.7185	151.741	-166.628	-0.041184	0.721293	-0.368938	-0.370235	-0.026151	60.7185	-0.368615	-47443.1	5.512083E-7	NaN
304	1.000000	0.732615	7.36804e+06	-53839.1	955.818	-29745.4	0.000000	0.000000	6.733050	-0.050424	NaN	0.000000	0.001736	0.001674	28.0782	0.024089	0.001841	13.0823	-87.8709	11.0008	-0.080777	0.731291	-0.358914	-0.360237	-0.050424	13.0823	-0.356023	-31211.6	1.615559E-6	NaN
304	1.000000	0.742623	7.36804e+06	-53839.1	955.819	-29745.4	0.000000	0.000000	6.743061	0.012399	NaN	0.000000	0.001708	0.001660	28.0784	0.041182	0.001997	20.6187	-163.651	-164.302	0.021351	0.741294	-0.348906	-0.350235	0.012399	20.6187	-0.349357	-24984.4	-4.962683E-7	NaN
304	1.000000	0.752606	7.36804e+06	-53839.1	955.819	-29745.4	0.000000	0.000000	6.753044	-0.005343	NaN	0.000000	0.001713	0.001649	28.0781	0.161523	0.001912	84.4664	-111.296	12.4996	-0.020594	0.751247	-0.338922	-0.340282	-0.005343	84.4664	-0.338875	-17585.3	3.038364E-7	NaN
304	1.000000	0.762604	7.36804e+06	-53839.1	955.818	-29745.4	0.000000	0.000000	6.763038	-0.077904	NaN	0.000000	0.001728	0.001715	28.0794	0.044408	0.002035	21.8228	46.4452	-163.927	-0.066765	0.761315	-0.328925	-0.330214	-0.077904	21.8228	-0.326247	-11493.2	6.778198E-6	NaN
304	1.000000	0.772617	7.36804e+06	-53839.1	955.819	-29745.4	0.000000	0.000000	6.773055	0.007170	NaN	0.000000	0.001705	0.001714	28.0793	0.021984	0.001924	11.4287	64.539	13.5583	0.054595	0.771248	-0.318912	-0.320280	0.007170	11.4287	-0.319382	-9110.5	-7.870237E-7	NaN
304	1.000000	0.782623	7.36804e+06	-53839.1	955.819	-29745.4	0.000000	0.000000	6.783062	0.037083	NaN	0.000000	0.001703	0.001712	28.079	0.116160	0.001954	59.4508	20.1746	-167.343	-0.027962	0.781322	-0.308906	-0.310206	0.037083	59.4508	-0.309374	-6483.17	-5.719859E-6	NaN
304	1.000000	0.792627	7.36804e+06	-53839.1	955.818	-29745.4	0.000000	0.000000	6.793062	-0.059974	NaN	0.000000	0.001731	0.001667	28.0792	0.057288	0.002069	27.6823	135.134	15.9869	-0.113845	0.791273	-0.298902	-0.300256	-0.059974	27.6823	-0.297277	-4286.09	1.399262E-5	NaN
304	1.000000	0.802636	7.36804e+06	-53839.1	955.819	-29745.4	0.000000	0.000000	6.803073	-0.008295	NaN	0.000000	0.001725	0.001679	28.0793	0.099589	0.002054	48.4781	-54.5162	-166.406	-0.026586	0.801362	-0.288893	-0.290166	-0.008295	48.4781	-0.288765	-3197.34	2.594267E-6	NaN
304	1.000000	0.812654	7.36804e+06	-53839.1	955.818	-29745.4	0.000000	0.000000	6.813091	-0.001189	NaN	0.000000	0.001671	0.001676	28.0792	0.062387	0.002098	29.7425	165.399	14.9958	0.032502	0.811251	-0.278875	-0.280277	-0.001189	29.7425	-0.278845	-2267.47	5.243483E-7	NaN
304	1.000000	0.822635	7.36804e+06	-53839.1	955.82	-29745.4	0.000000	0.000000	6.823071	-0.036863	NaN	0.000000	0.001711	0.001694	28.0788	0.093095	0.002034	45.7788	-107.491	-166.194	-0.069838	0.821351	-0.268894	-0.270178	-0.036863	45.7788	-0.268290	-1568.67	2.349944E-5	NaN
304	1.000000	0.832634	7.36804e+06	-53839.1	955.818	-29745.4	0.000000	0.000000	6.833073	0.047044	NaN	0.000000	0.001710	0.001710	28.0793	0.087536	0.001974	44.3436	-11.6064	11.8271	-0.033042	0.831305	-0.258895	-0.260224	0.047044	44.3436	-0.259691	-1159.24	-4.058164E-5	NaN
304	1.000000	0.842628	7.36804e+06	-53839.1	955.819	-29745.4	0.000000	0.000000	6.843067	0.029559	NaN	0.000000	0.001720	0.001693	28.0792	0.030765	0.002029	15.1632	10.3322	-163.808	-0.081911	0.841308	-0.248901	-0.250220	0.029559	15.1632	-0.250363	-832.866	-3.549103E-5	NaN
304	1.000000	0.852676	7.36804e+06	-53839.1	955.819	-29745.4	0.000000	0.000000	6.853115	0.028189	NaN	0.000000	0.001670	0.001697	28.079	0.018976	0.001963	9.668634	97.4429	13.3774	-0.084685	0.851293	-0.238853	-0.240236	0.028189	9.668634	-0.241039	-596.734	-4.723922E-5	NaN
304	1.000000	0.862677	7.36804e+06	-53839.1	955.818	-29745.4	0.000000	0.000000	6.863112	-0.068399	NaN	0.000000	0.001709	0.001711	28.0789	0.098438	0.001908	51.6035	151.96	-166.266	0.026975	0.861320	-0.228852	-0.230209	-0.068399	51.6035	-0.227857	-370.377	0.000185	NaN
304	1.000000	0.872644	7.36804e+06	-53839.1	955.818	-29745.4	0.000000	0.000000	6.873079	-0.054583	NaN	0.000000	0.001706	0.001693	28.0792	0.108509	0.001979	54.8196	33.5227	14.0138	-0.055256	0.871341	-0.218885	-0.220187	-0.054583	54.8196	-0.218138	-259.348	0.000210	NaN
304	1.000000	0.882670	7.36804e+06	-53839.1	955.818	-29745.4	0.000000	0.000000	6.883106	-0.029134	NaN	0.000000	0.001704	0.001722	28.0792	0.020679	0.001938	10.6714	-166.704	-164.431	-0.059404	0.881384	-0.208859	-0.210145	-0.029134	10.6714	-0.206812	-170.243	0.000171	NaN
304	1.000000	0.892663	7.36804e+06	-53839.1	955.818	-29745.4	0.000000	0.000000	6.893099	-0.014508	NaN	0.000000	0.001700	0.001705	28.0789	0.132832	0.001985	66.9278	118.731	11.325	-0.048444	0.891266	-0.198866	-0.200263	-0.014508	66.9278	-0.198704	-125.421	0.000116	NaN
304	1.000000	0.902676	7.36804e+06	-53839.1	955.819	-29745.4	0.000000	0.000000	6.903111	-0.078882	NaN	0.000000	0.001737	0.001694	28.0776	0.095689	0.002167	44.1583	-76.5252	-168.361	-0.060240	0.901396	-0.188852	-0.190133	-0.078882	44.1583	-0.187513	-81.7308	0.000965	NaN
304	1.000000	0.912654	7.36804e+06	-53839.1	955.819	-29745.4	0.000000	0.000000	6.913088	-0.083094	NaN	0.000000	0.001695	0.001708	28.0778	0.136003	0.001941	70.0536	40.0362	14.4542	-0.083227	0.911324	-0.178875	-0.180205	-0.083094	70.0536	-0.177985	-56.379	0.001474	NaN
304	1.000000	0.922657	7.36804e+06	-53839.1	955.819	-29745.4	0.000000	0.000000	6.923093	-0.032736	NaN	0.000000	0.001662	0.001707	28.0777	0.078062	0.002044	38.1974	-100.874	-167.274	0.082235	0.921374	-0.168872	-0.170155	-0.032736	38.1974	-0.168230	-38.2656	0.000855	NaN
304	1.000000	0.932658	7.36804e+06	-53839.1	955.818	-29745.4	0.000000	0.000000	6.933096	0.023466	NaN	0.000000	0.001659	0.001718	28.0777	0.082378	0.001958	42.0756	144.908	14.5459	-0.014188	0.931275	-0.158871	-0.160254	0.023466	42.0756	-0.159289	-26.6282	-0.000881	NaN
304	1.000000	0.942697	7.36804e+06	-53839.1	955.818	-29745.4	0.000000	0.000000	6.943133	-0.026908	NaN	0.000000	0.001648	0.001664	28.0775	0.045848	0.001927	23.7959	-15.4085	-167.927	-0.034101	0.941380	-0.148832	-0.150149	-0.026908	23.7959	-0.147984	-16.6394	0.001617	NaN
304	1.000000	0.952670	7.36804e+06	-53839.1	955.819	-29745.4	0.000000	0.000000	6.953107	-0.019172	NaN	0.000000	0.001638	0.001677	28.0786	0.048428	0.002110	22.948	31.9985	13.0857	-0.029747	0.951349	-0.138859	-0.140180	-0.019172	22.948	-0.138232	-10.9563	0.001750	NaN
304	1.000000	0.962728	7.36804e+06	-53839.1	955.819	-29745.4	0.000000	0.000000	6.963165	-0.004700	NaN	0.000000	0.001654	0.001649	28.0777	0.013628	0.001877	7.259836	139.997	-166.72	-0.026773	0.961358	-0.128801	-0.130171	-0.004700	7.259836	-0.128316	-7.066373	0.000665	NaN
304	1.000000	0.972711	7.36804e+06	-53839.1	955.82	-29745.4	0.000000	0.000000	6.973146	-0.045288	NaN	0.000000	0.001633	0.001690	28.0778	0.062909	0.001727	36.4165	-98.1049	13.0325	-0.029471	0.971387	-0.118818	-0.120142	-0.045288	36.4165	-0.117886	-4.377435	0.010346	NaN
304	1.000000	0.982702	7.36804e+06	-53839.1	955.82	-29745.4	0.000000	0.000000	6.983140	0.018372	NaN	0.000000	0.001675	0.001654	28.0777	0.065902	0.001937	34.021	23.2029	-169.044	0.002288	0.981470	-0.108827	-0.110059	0.018372	34.021	-0.109232	-2.895003	-0.006346	NaN
304	1.000000	0.992692	7.36804e+06	-53839.1	955.819	-29745.4	0.000000	0.000000	6.993128	-0.033948	NaN	0.000000	0.001664	0.001677	28.078	0.154122	0.001852	83.2209	87.1117	14.3283	-0.064604	0.991379	-0.098837	-0.100149	-0.033948	83.2209	-0.098531	-1.694664	0.020033	NaN
304	1.000000	1.002726	7.36804e+06	-53839.1	955.82	-29745.4	0.000000	0.000000	7.003162	-0.034710	NaN	0.000000	0.001631	0.001742	28.0776	0.046542	0.002098	22.1863	73.0182	-168.986	-0.045488	1.001376	-0.088803	-0.090153	-0.034710	22.1863	-0.087630	-0.950168	0.036530	NaN
304	1.000000	1.012694	7.36804e+06	-53839.1	955.82	-29745.4	0.000000	0.000000	7.013131	-0.012919	NaN	0.000000	0.001627	0.001690	28.078	0.016099	0.001985	8.109999	82.5548	11.6238	-0.016928	1.011409	-0.078835	-0.080120	-0.012919	8.109999	-0.077640	-0.539774	0.023934	NaN
304	1.000000	1.022723	7.36804e+06	-53839.1	955.82	-29745.4	0.000000	0.000000	7.023158	-0.052644	NaN	0.000000	0.001639	0.001686	28.0779	0.091384	0.002073	44.0808	33.8205	-165.576	-0.034565	1.021402	-0.068806	-0.070127	-0.052644	44.0808	-0.067910	-0.299567	0.175735	NaN
304	1.000000	1.032752	7.36804e+06	-53839.1	955.819	-29745.4	0.000000	0.000000	7.033188	-0.034798	NaN	0.000000	0.001629	0.001705	28.0791	0.055188	0.001945	28.3807	57.8506	15.9274	-0.008279	1.031338	-0.058776	-0.060191	-0.034798	28.3807	-0.057857	-0.156172	0.222816	NaN
304	1.000000	1.042730	7.36804e+06	-53839.1	955.82	-29745.4	0.000000	0.000000	7.043163	-0.096652	NaN	0.000000	0.001593	0.001681	28.0792	0.056468	0.001899	29.735	-65.7753	-166.154	-0.030863	1.041438	-0.048799	-0.050091	-0.096652	29.735	-0.046362	-0.070730	1.366485	NaN
304	1.000000	1.052729	7.36804e+06	-53839.1	955.819	-29745.4	0.000000	0.000000	7.053165	-0.045504	NaN	0.000000	0.001639	0.001702	28.079	0.062538	0.001922	32.5307	75.7773	14.2349	0.033735	1.051366	-0.038800	-0.040163	-0.045504	32.5307	-0.037751	-0.038669	1.176738	NaN
304	1.000000	1.062712	7.36804e+06	-53839.1	955.82	-29745.4	0.000000	0.000000	7.063147	-0.047777	NaN	0.000000	0.001618	0.001687	28.0793	0.027651	0.002033	13.6042	-152.837	-167.976	0.022673	1.061398	-0.028817	-0.030131	-0.047777	13.6042	-0.026183	-0.018124	2.636113	NaN
304	1.000000	1.072740	7.36804e+06	-53839.1	955.82	-29745.4	0.000000	0.000000	7.073178	0.008205	NaN	0.000000	0.001624	0.001693	28.0791	0.041299	0.002057	20.081	-93.5991	11.1311	-0.042034	1.071386	-0.018789	-0.020143	0.008205	20.081	-0.019095	-0.011911	-0.688812	NaN
304	1.000000	1.082722	7.36804e+06	-53839.1	955.82	-29745.4	0.000000	0.000000	7.083156	-0.068017	NaN	0.000000	0.001617	0.001684	28.0793	0.093405	0.002097	44.5363	-144.531	-165.863	-0.029605	1.081433	-0.008807	-0.010096	-0.068017	44.5363	-0.007662	-0.005033	13.5145	NaN
304	1.000000	1.092761	7.36804e+06	-53839.1	955.82	-29745.4	0.000000	0.000000	7.093216	0.420058	NaN	0.000000	0.001634	0.001706	28.0791	0.828341	0.001857	446.013	8.494380	11.4205	0.020877	1.091420	0.001232	-0.000109	0.420058	446.013	0.000526	0.000397	1057.72	20448.1
304	2.000000	1.101333	7.36804e+06	-53839.1	955.82	-29745.4	0.000000	0.000000	7.102135	8.867892	NaN	0.000000	0.001648	0.001718	28.0795	8.852211	0.001471	6017.34	5.785119	-171.617	9.061826	1.100935	0.009804	0.009406	8.867892	6017.34	0.008698	0.007771	1141.21	62366.4
304	2.000000	1.103837	7.36804e+06	-53839.1	955.82	-29745.4	0.000000	0.000000	7.104764	11.892	NaN	0.000000	0.001649	0.001702	28.0792	12.08	0.001660	7275.81	5.418998	5.743788	11.6834	1.103555	0.012308	0.012026	11.892	7275.81	0.011083	0.010410	1142.39	65153.3
304	2.000000	1.106309	7.36804e+06	-53839.1	955.82	-29745.4	0.000000	0.000000	7.107383	15.4883	NaN	0.000000	0.001637	0.001730	28.0799	15.2656	0.001807	8449.52	4.457156	-172.849	15.2238	1.106002	0.014780	0.014474	15.4883	8449.52	0.013405	0.013217	1171.85	67149
304	2.000000	1.108819	7.36804e+06	-53839.1	955.82	-29745.4	0.000000	0.000000	7.110060	19.5473	NaN	0.000000	0.001637	0.001689	28.0791	17.7758	0.001738	10226.9	7.472269	2.356385	19.4592	1.108476	0.017290	0.016948	19.5473	10226.9	0.015857	0.016445	1188.66	72862.3
304	2.000000	1.111235	7.36804e+06	-53839.1	955.821	-29745.4	0.000000	0.000000	7.112712	25.2601	NaN	0.000000	0.001656	0.001706	28.0799	20.4165	0.001865	10947.6	7.457436	-178.898	23.1725	1.110932	0.019707	0.019403	25.2601	10947.6	0.017976	0.019461	1297.98	71697.9
304	2.000000	1.113778	7.36804e+06	-53839.1	955.82	-29745.4	0.000000	0.000000	7.115443	29.8611	NaN	0.000000	0.001683	0.001712	28.0792	22.4978	0.001744	12903.3	4.022903	2.460322	29.3708	1.113344	0.022249	0.021816	29.8611	12903.3	0.020513	0.023355	1278.58	77141.2
304	2.000000	1.116263	7.36804e+06	-53839.1	955.821	-29745.4	0.000000	0.000000	7.118178	35.9216	NaN	0.000000	0.001652	0.001686	28.0798	26.1332	0.001798	14533.8	9.839791	175.905	35.7012	1.115930	0.024734	0.024401	35.9216	14533.8	0.022880	0.027272	1317.15	80406.7
304	2.000000	1.118791	7.36804e+06	-53839.1	955.82	-29745.4	0.000000	0.000000	7.121015	43.4307	NaN	0.000000	0.001642	0.001682	28.078	27.2737	0.001853	14719.6	3.648503	3.192561	42.7387	1.118495	0.027262	0.026966	43.4307	14719.6	0.025049	0.031105	1396.26	76252.6
304	2.000000	1.121234	7.36804e+06	-53839.1	955.821	-29745.4	0.000000	0.000000	7.123707	49.4899	NaN	0.000000	0.001618	0.001698	28.0781	29.7425	0.001742	17071.1	4.335487	179.347	48.2751	1.120933	0.029705	0.029404	49.4899	17071.1	0.027531	0.035782	1383.11	82452.6
304	2.000000	1.123702	7.36804e+06	-53839.1	955.819	-29745.4	0.000000	0.000000	7.126540	58.3702	NaN	0.000000	0.001624	0.001682	28.0777	32.2843	0.001738	18580.7	4.428827	-1.235044	55.5717	1.123360	0.032173	0.031832	58.3702	18580.7	0.029817	0.040366	1446.03	84494.4
304	2.000000	1.126243	7.36804e+06	-53839.1	955.82	-29745.4	0.000000	0.000000	7.129226	61.8969	NaN	0.000000	0.001662	0.001680	28.078	34.5845	0.001680	20586.9	2.205849	179.572	61.3637	1.125966	0.034714	0.034437	61.8969	20586.9	0.032459	0.045994	1345.75	87702.5
304	2.000000	1.128738	7.36804e+06	-53839.1	955.82	-29745.4	0.000000	0.000000	7.132103	71.1833	NaN	0.000000	0.001621	0.001690	28.0778	37.2168	0.001840	20225.9	6.661637	-3.701095	70.1908	1.128394	0.037209	0.036865	71.1833	20225.9	0.034569	0.050748	1402.69	82030.2
304	2.000000	1.131241	7.36804e+06	-53839.1	955.82	-29745.4	0.000000	0.000000	7.135032	81.5416	NaN	0.000000	0.001682	0.001707	28.078	39.4791	0.001815	21748.3	10.1868	172.685	80.9912	1.130856	0.039712	0.039327	81.5416	21748.3	0.036900	0.056263	1449.3	83770
304	2.000000	1.133712	7.36804e+06	-53839.1	955.82	-29745.4	0.000000	0.000000	7.137940	92.1637	NaN	0.000000	0.001641	0.001707	28.0778	41.6537	0.001902	21901	5.777753	-2.666457	90.7482	1.133289	0.042183	0.041760	92.1637	21901	0.039027	0.061538	1497.67	80661.4
304	2.000000	1.136193	7.36804e+06	-53839.1	955.82	-29745.4	0.000000	0.000000	7.140772	100.673	NaN	0.000000	0.001619	0.001709	28.0786	44.1248	0.001909	23111	4.181235	178.385	99.2427	1.135939	0.044664	0.044410	100.673	23111	0.041397	0.067689	1487.28	81157.9
304	2.000000	1.138736	7.36804e+06	-53839.1	955.82	-29745.4	0.000000	0.000000	7.143742	111.067	NaN	0.000000	0.001646	0.001649	28.078	45.9631	0.001718	26746.2	8.086077	-6.772592	110.534	1.138370	0.047207	0.046841	111.067	26746.2	0.044092	0.075032	1480.26	89209.8
304	2.000000	1.141177	7.36805e+06	-53839.1	955.82	-29745.4	0.000000	0.000000	7.146592	121.007	NaN	0.000000	0.001611	0.001671	28.0778	47.3813	0.001648	28756.6	0.739443	178.499	118.137	1.140853	0.049648	0.049324	121.007	28756.6	0.046492	0.081880	1477.87	91816.9
304	2.000000	1.143679	7.36805e+06	-53839.1	955.82	-29745.4	0.000000	0.000000	7.149591	133.09	NaN	0.000000	0.001626	0.001652	28.0778	51.2596	0.001755	29212.5	7.628161	-7.757161	130.725	1.143293	0.052150	0.051764	133.09	29212.5	0.048733	0.088539	1503.18	89696.3
304	2.000000	1.146157	7.36805e+06	-53839.1	955.82	-29745.4	0.000000	0.000000	7.152557	144.966	NaN	0.000000	0.001601	0.001706	28.0783	53.8833	0.001733	31095	7.968685	171.048	143.38	1.145868	0.054628	0.054339	144.966	31095	0.051131	0.095942	1510.98	91719.1
304	2.000000	1.148666	7.36805e+06	-53839.1	955.819	-29745.4	0.000000	0.000000	7.155651	159.193	NaN	0.000000	0.001601	0.001666	28.0781	54.9199	0.001785	30769.3	4.218549	-3.710064	156.763	1.148314	0.057137	0.056785	159.193	30769.3	0.053257	0.102744	1549.41	87702.6
304	2.000000	1.151168	7.36805e+06	-53839.1	955.82	-29745.4	0.000000	0.000000	7.158648	171.208	NaN	0.000000	0.001603	0.001691	28.0781	58.0244	0.001729	33558	5.495942	172.433	168.756	1.150788	0.059639	0.059259	171.208	33558	0.055813	0.111224	1539.31	91932.8
304	2.000000	1.153690	7.36805e+06	-53839.1	955.82	-29745.4	0.000000	0.000000	7.161658	183.076	NaN	0.000000	0.001620	0.001693	28.0791	60.5195	0.001787	33870.9	3.689780	-5.087757	180.684	1.153334	0.062161	0.061805	183.076	33870.9	0.058107	0.119109	1537.05	89666
304	2.000000	1.156170	7.36805e+06	-53839.1	955.821	-29745.4	0.000000	0.000000	7.164557	193.272	NaN	0.000000	0.001632	0.001665	28.079	64.482	0.001895	34030.2	6.231193	172.137	191.98	1.155871	0.064641	0.064342	193.272	34030.2	0.060382	0.127181	1519.66	87181.9
304	2.000000	1.158677	7.36805e+06	-53839.1	955.82	-29745.4	0.000000	0.000000	7.167752	210.013	NaN	0.000000	0.001645	0.001681	28.079	65.4319	0.001921	34066.6	5.794399	-6.059446	207.675	1.158327	0.067148	0.066798	210.013	34066.6	0.062524	0.135015	1555.48	84705.2
304	2.000000	1.161148	7.36805e+06	-53839.1	955.82	-29745.4	0.000000	0.000000	7.170880	225.979	NaN	0.000000	0.001609	0.001711	28.0791	67.5715	0.001820	37135.9	5.329727	172.357	225.284	1.160799	0.069619	0.069270	225.979	37135.9	0.065055	0.144557	1563.25	89237.5
304	2.000000	1.163735	7.36805e+06	-53839.1	955.82	-29745.4	0.000000	0.000000	7.173971	238.213	NaN	0.000000	0.001588	0.001648	28.079	71.32	0.001880	37929	5.374704	-6.991475	240.19	1.163234	0.072206	0.071705	238.213	37929	0.067496	0.154052	1546.32	88290
304	2.000000	1.166159	7.36805e+06	-53839.1	955.821	-29745.4	0.000000	0.000000	7.176735	246.491	NaN	0.000000	0.001619	0.001695	28.0792	73.3039	0.001772	41375.2	6.086340	170.115	244.362	1.166012	0.074630	0.074483	246.491	41375.2	0.070162	0.164747	1496.18	93133.2
304	2.000000	1.168666	7.36805e+06	-53839.1	955.821	-29745.4	0.000000	0.000000	7.180301	272.239	NaN	0.000000	0.001622	0.001653	28.0792	74.6747	0.001828	40853.1	6.496125	-9.160205	268.26	1.168311	0.077137	0.076782	272.239	40853.1	0.072139	0.172899	1574.56	89764.1
304	2.000000	1.171075	7.36805e+06	-53839.1	955.82	-29745.4	0.000000	0.000000	7.183242	285.178	NaN	0.000000	0.001623	0.001668	28.0791	76.6367	0.001793	42747.4	3.123718	173.332	279.643	1.170817	0.079546	0.079289	285.178	42747.4	0.074542	0.183055	1557.88	91283.5
304	2.000000	1.173693	7.36805e+06	-53839.1	955.821	-29745.4	0.000000	0.000000	7.186524	301.314	NaN	0.000000	0.001596	0.001664	28.0792	79.2561	0.001728	45870	6.757745	-11.1237	300.896	1.173320	0.082164	0.081791	301.314	45870	0.077237	0.194767	1547.04	94960.7
304	2.000000	1.176094	7.36805e+06	-53839.1	955.82	-29745.4	0.000000	0.000000	7.189643	318.759	NaN	0.000000	0.001559	0.001632	28.0793	83.1741	0.001894	43920.8	4.808668	171.45	314.485	1.175845	0.084565	0.084317	318.759	43920.8	0.079122	0.203162	1568.99	89027.1
304	2.000000	1.178639	7.36805e+06	-53839.1	955.821	-29745.4	0.000000	0.000000	7.192960	337.553	NaN	0.000000	0.001622	0.001685	28.0792	83.9728	0.001703	49294.5	4.402068	-8.660223	333.859	1.178310	0.087110	0.086781	337.553	49294.5	0.081974	0.216179	1561.45	96864.7
304	2.000000	1.181161	7.36805e+06	-53839.1	955.821	-29745.4	0.000000	0.000000	7.196265	356.586	NaN	0.000000	0.001617	0.001679	28.0793	85.3961	0.001781	47945.8	3.580757	172.491	357.883	1.180820	0.089632	0.089292	356.586	47945.8	0.084054	0.225909	1578.45	92163.2
304	2.000000	1.183597	7.36805e+06	-53839.1	955.82	-29745.4	0.000000	0.000000	7.199459	375.007	NaN	0.000000	0.001659	0.001688	28.0792	88.3926	0.001813	48745.4	4.367686	-8.401567	370.419	1.183228	0.092068	0.091699	375.007	48745.4	0.086298	0.236633	1584.76	91552.3
304	2.000000	1.186128	7.36805e+06	-53839.1	955.82	-29745.4	0.000000	0.000000	7.202343	383.571	NaN	0.000000	0.001704	0.001680	28.0783	90.1812	0.001755	51398.3	1.171193	173.905	380.994	1.185976	0.094599	0.094447	383.571	51398.3	0.089002	0.249863	1535.12	93944.4
304	2.000000	1.188631	7.36805e+06	-53839.1	955.82	-29745.4	0.000000	0.000000	7.206098	414.019	NaN	0.000000	0.001705	0.001687	28.0783	92.5103	0.001796	51511.6	4.078863	-8.266976	409.649	1.188305	0.097103	0.096777	414.019	51511.6	0.091074	0.260229	1590.98	92257.2
304	2.000000	1.191141	7.36805e+06	-53839.1	955.821	-29745.4	0.000000	0.000000	7.209104	426.087	NaN	0.000000	0.001706	0.001699	28.0778	95.0923	0.001735	54796.6	5.381508	169.39	425.634	1.190906	0.099612	0.099377	426.087	54796.6	0.093780	0.274061	1554.72	95632
304	2.000000	1.193626	7.36805e+06	-53839.1	955.821	-29745.4	0.000000	0.000000	7.212543	449.268	NaN	0.000000	0.001698	0.001672	28.078	99.0025	0.001786	55437.4	4.261840	-9.382893	445.147	1.193317	0.102098	0.101789	449.268	55437.4	0.096019	0.285759	1572.19	94749.4
304	2.000000	1.196149	7.36805e+06	-53839.1	955.821	-29745.4	0.000000	0.000000	7.216001	472.014	NaN	0.000000	0.001731	0.001701	28.0781	101.962	0.001890	53951.5	5.178057	170.196	472.038	1.195820	0.104620	0.104292	472.014	53951.5	0.098058	0.296608	1591.37	90507.6
304	2.000000	1.198613	7.36805e+06	-53839.1	955.822	-29745.4	0.000000	0.000000	7.219228	490.568	NaN	0.000000	0.001665	0.001668	28.078	103.234	0.001726	59805.6	5.538921	-10.8558	486.968	1.198290	0.107084	0.106761	490.568	59805.6	0.100932	0.312224	1571.21	97787.2
304	2.000000	1.199086	7.36805e+06	-53839.1	955.821	-29745.4	0.000000	0.000000	7.219973	497.145	NaN	0.000000	0.001681	0.001693	28.0779	103.586	0.001670	62036.4	3.528444	170.713	493.339	1.198739	0.107558	0.107210	497.145	62036.4	0.101547	0.315617	1575.15	100888