File: remote_trans/data/nanoindenter/0828-1/data/Data_2025-08-06,11h17m57s/2025-07-22_16-23-58_1_374.txt
2025-07-22, 16:23:58, 1
Index	Phase	Displacement	Time	Pos X	Pos Y	Pos Z	Rot A	Rot B	Piezo Z	Force A	Force B	Gripper	Voltage A	Voltage B	Temperature	Amplitude force	Amplitude pos	Stiffness	Phase shift	Phase excitation	Force A raw	Displacement raw	HMax	HMax raw	Real Force	Real Stiffness	Contact Depth	Area	Hardness	Reduced Mod.
[#]	[#]	[um]	[s]	[um]	[um]	[um]	[m°]	[m°]	[um]	[uN]	[uN]	[V]	[V]	[V]	[°C]	[uN]	[um]	[N/m]	[°]	[°]	[uN]	[um]	[um]	[um]	[uN]	[N/m]	[um]	[um^2]	[MPa]	[MPa]
374	1.000000	0.002100	7.36872e+06	-57339.1	955.818	-29737.4	0.000000	0.000000	6.002808	0.057880	NaN	0.000000	0.001603	0.001694	28.0819	0.008296	0.001048	7.912404	-145.306	-168.502	0.046463	0.000869	-1.015414	-1.016645	0.057880	7.912404	-1.020901	-4.335818E+13	-1.334927E-15	NaN
374	1.000000	0.010043	7.36872e+06	-57339.1	955.818	-29737.4	0.000000	0.000000	6.010748	-0.010377	NaN	0.000000	0.001606	0.001707	28.082	0.089068	0.001072	83.0554	-164.081	-161.602	-0.023209	0.008747	-1.007471	-1.008768	-0.010377	83.0554	-1.007378	-2.851588E+13	3.639008E-16	NaN
374	1.000000	0.018060	7.36872e+06	-57339.1	955.818	-29737.4	0.000000	0.000000	6.018767	0.051568	NaN	0.000000	0.001641	0.001738	28.0816	0.034567	0.001804	19.1638	171.586	-164.351	0.020822	0.016700	-0.999455	-1.000815	0.051568	19.1638	-1.001473	-2.374674E+13	-2.171582E-15	NaN
374	1.000000	0.026072	7.36872e+06	-57339.1	955.818	-29737.4	0.000000	0.000000	6.026778	0.003271	NaN	0.000000	0.001623	0.001725	28.0821	0.092897	0.001843	50.394	125.989	-165.414	0.012171	0.024784	-0.991442	-0.992730	0.003271	50.394	-0.991491	-1.742580E+13	-1.876917E-16	NaN
374	1.000000	0.034053	7.36872e+06	-57339.1	955.818	-29737.4	0.000000	0.000000	6.034758	-0.001561	NaN	0.000000	0.001646	0.001730	28.0821	0.064032	0.001858	34.459	-176.444	-165.064	-0.004186	0.032744	-0.983462	-0.984771	-0.001561	34.459	-0.983428	-1.357038E+13	1.150249E-16	NaN
374	1.000000	0.042021	7.36872e+06	-57339.1	955.818	-29737.4	0.000000	0.000000	6.042729	0.064284	NaN	0.000000	0.001637	0.001725	28.0822	0.073754	0.002062	35.7668	-147.599	-165.491	0.085522	0.040814	-0.975494	-0.976701	0.064284	35.7668	-0.976842	-1.106265E+13	-5.810888E-15	NaN
374	1.000000	0.050065	7.36872e+06	-57339.1	955.818	-29737.4	0.000000	0.000000	6.050772	0.047676	NaN	0.000000	0.001633	0.001735	28.0824	0.051016	0.002054	24.8389	168.385	-162.264	0.114077	0.048753	-0.967450	-0.968762	0.047676	24.8389	-0.968889	-8.643627E+12	-5.515693E-15	NaN
374	1.000000	0.058070	7.36872e+06	-57339.1	955.819	-29737.4	0.000000	0.000000	6.058774	-0.025508	NaN	0.000000	0.001640	0.001731	28.0821	0.068582	0.002133	32.1499	2.931947	-168.71	-0.017329	0.056731	-0.959445	-0.960784	-0.025508	32.1499	-0.958850	-6.329401E+12	4.030081E-15	NaN
374	1.000000	0.066042	7.36872e+06	-57339.1	955.819	-29737.4	0.000000	0.000000	6.066752	0.109314	NaN	0.000000	0.001647	0.001706	28.082	0.080692	0.002020	39.9404	-127.691	-165.617	0.090472	0.064771	-0.951472	-0.952743	0.109314	39.9404	-0.953525	-5.364946E+12	-2.037568E-14	NaN
374	1.000000	0.074061	7.36872e+06	-57339.1	955.818	-29737.4	0.000000	0.000000	6.074765	-0.038521	NaN	0.000000	0.001619	0.001698	28.0823	0.069057	0.001996	34.5929	175.382	-170.721	-0.084489	0.072739	-0.943454	-0.944775	-0.038521	34.5929	-0.942619	-3.823518E+12	1.007485E-14	NaN
374	1.000000	0.082021	7.36872e+06	-57339.1	955.819	-29737.4	0.000000	0.000000	6.082730	0.074417	NaN	0.000000	0.001619	0.001670	28.0824	0.065916	0.001974	33.3971	13.3598	-168.648	0.072624	0.080790	-0.935493	-0.936724	0.074417	33.3971	-0.937165	-3.227605E+12	-2.305646E-14	NaN
374	1.000000	0.090049	7.36872e+06	-57339.1	955.819	-29737.4	0.000000	0.000000	6.090754	0.001524	NaN	0.000000	0.001618	0.001687	28.0823	0.075958	0.002077	36.5672	-113.196	-167.515	0.043780	0.088742	-0.927466	-0.928773	0.001524	36.5672	-0.927497	-2.390112E+12	-6.378062E-16	NaN
374	1.000000	0.098047	7.36872e+06	-57339.1	955.819	-29737.4	0.000000	0.000000	6.098753	0.039375	NaN	0.000000	0.001641	0.001686	28.0809	0.023758	0.002041	11.6417	165.924	-166.745	0.047651	0.096753	-0.919468	-0.920762	0.039375	11.6417	-0.922005	-2.014997E+12	-1.954072E-14	NaN
374	1.000000	0.106075	7.36872e+06	-57339.1	955.819	-29737.4	0.000000	0.000000	6.106780	-0.009464	NaN	0.000000	0.001631	0.001686	28.0808	0.107803	0.001992	54.1063	-97.0778	-163.151	-0.000174	0.104734	-0.911439	-0.912780	-0.009464	54.1063	-0.911308	-1.444879E+12	6.550079E-15	NaN
374	1.000000	0.114077	7.36872e+06	-57339.1	955.818	-29737.4	0.000000	0.000000	6.114780	-0.031096	NaN	0.000000	0.001608	0.001700	28.0812	0.047020	0.002060	22.8225	-47.0316	-169.014	-0.030628	0.112783	-0.903438	-0.904732	-0.031096	22.8225	-0.902416	-1.095756E+12	2.837895E-14	NaN
374	1.000000	0.122106	7.36872e+06	-57339.1	955.818	-29737.4	0.000000	0.000000	6.122815	0.091905	NaN	0.000000	0.001620	0.001674	28.081	0.087152	0.001856	46.9575	38.8555	-165.263	0.021584	0.120768	-0.895409	-0.896747	0.091905	46.9575	-0.896877	-9.222790E+11	-9.965025E-14	NaN
374	1.000000	0.130095	7.36872e+06	-57339.1	955.817	-29737.4	0.000000	0.000000	6.130804	0.088749	NaN	0.000000	0.001598	0.001706	28.081	0.055793	0.001915	29.1351	-101.93	-166.508	0.147123	0.128750	-0.887420	-0.888765	0.088749	29.1351	-0.889704	-7.377618E+11	-1.202944E-13	NaN
374	1.000000	0.138070	7.36872e+06	-57339.1	955.817	-29737.4	0.000000	0.000000	6.138777	0.041973	NaN	0.000000	0.001597	0.001697	28.0811	0.049222	0.001969	25.0008	-75.4148	-164.313	0.073251	0.136786	-0.879444	-0.880729	0.041973	25.0008	-0.880703	-5.574694E+11	-7.529115E-14	NaN
374	1.000000	0.146093	7.36872e+06	-57339.1	955.818	-29737.4	0.000000	0.000000	6.146799	0.036717	NaN	0.000000	0.001581	0.001715	28.0806	0.016086	0.001922	8.370579	-82.1764	-164.2	0.155079	0.144766	-0.871422	-0.872749	0.036717	8.370579	-0.874712	-4.625793E+11	-7.937462E-14	NaN
374	1.000000	0.154076	7.36872e+06	-57339.1	955.818	-29737.4	0.000000	0.000000	6.154783	0.038743	NaN	0.000000	0.001593	0.001677	28.0808	0.118275	0.002007	58.9349	-176.871	-167.719	-0.016966	0.152746	-0.863439	-0.864769	0.038743	58.9349	-0.863932	-3.306231E+11	-1.171815E-13	NaN
374	1.000000	0.162083	7.36872e+06	-57339.1	955.819	-29737.4	0.000000	0.000000	6.162793	0.117303	NaN	0.000000	0.001626	0.001658	28.0807	0.089773	0.002005	44.7723	-98.6556	-167.375	0.057472	0.160749	-0.855432	-0.856765	0.117303	44.7723	-0.857397	-2.697038E+11	-4.349331E-13	NaN
374	1.000000	0.170101	7.36872e+06	-57339.1	955.818	-29737.4	0.000000	0.000000	6.170808	0.042119	NaN	0.000000	0.001578	0.001682	28.0807	0.037919	0.002030	18.6792	74.028	-163.869	0.068949	0.168722	-0.847414	-0.848793	0.042119	18.6792	-0.849105	-2.082659E+11	-2.022383E-13	NaN
374	1.000000	0.178123	7.36872e+06	-57339.1	955.819	-29737.4	0.000000	0.000000	6.178832	0.091290	NaN	0.000000	0.001584	0.001736	28.081	0.096698	0.002010	48.1206	-164.132	-166.102	0.007602	0.176791	-0.839392	-0.840724	0.091290	48.1206	-0.840815	-1.608166E+11	-5.676673E-13	NaN
374	1.000000	0.186117	7.36872e+06	-57339.1	955.819	-29737.4	0.000000	0.000000	6.186823	0.015073	NaN	0.000000	0.001611	0.001700	28.0809	0.037702	0.002017	18.6904	50.1123	-166.088	0.004998	0.184820	-0.831398	-0.832695	0.015073	18.6904	-0.832002	-1.221584E+11	-1.233881E-13	NaN
374	1.000000	0.194095	7.36872e+06	-57339.1	955.82	-29737.4	0.000000	0.000000	6.194802	0.040078	NaN	0.000000	0.001621	0.001685	28.0811	0.124705	0.001979	63.0223	-72.007	-165.993	0.016869	0.192770	-0.823419	-0.824745	0.040078	63.0223	-0.823896	-9.485104E+10	-4.225333E-13	NaN
374	1.000000	0.202140	7.36872e+06	-57339.1	955.818	-29737.4	0.000000	0.000000	6.202850	0.132459	NaN	0.000000	0.001589	0.001673	28.0808	0.094053	0.002049	45.9109	63.829	-166.459	0.116255	0.200772	-0.815375	-0.816743	0.132459	45.9109	-0.817539	-7.777435E+10	-1.703125E-12	NaN
374	1.000000	0.210087	7.36872e+06	-57339.1	955.818	-29737.4	0.000000	0.000000	6.210794	0.037341	NaN	0.000000	0.001611	0.001728	28.081	0.087107	0.001972	44.1684	-119.387	-166.177	-0.078443	0.208804	-0.807428	-0.808711	0.037341	44.1684	-0.808062	-5.784586E+10	-6.455211E-13	NaN
374	1.000000	0.218118	7.36872e+06	-57339.1	955.818	-29737.4	0.000000	0.000000	6.218826	0.053975	NaN	0.000000	0.001597	0.001691	28.0811	0.080777	0.002082	38.7966	-158.213	-162.766	-0.002100	0.216791	-0.799396	-0.800724	0.053975	38.7966	-0.800440	-4.558610E+10	-1.184012E-12	NaN
374	1.000000	0.226085	7.36872e+06	-57339.1	955.818	-29737.4	0.000000	0.000000	6.226792	0.049302	NaN	0.000000	0.001603	0.001718	28.0811	0.062726	0.001869	33.5698	35.5054	-165.575	-0.045229	0.224778	-0.791430	-0.792737	0.049302	33.5698	-0.792531	-3.560050E+10	-1.384882E-12	NaN
374	1.000000	0.234111	7.36872e+06	-57339.1	955.819	-29737.4	0.000000	0.000000	6.234819	0.063989	NaN	0.000000	0.001636	0.001731	28.0822	0.045061	0.002019	22.3173	167.381	-166.831	0.084872	0.232806	-0.783403	-0.784708	0.063989	22.3173	-0.785554	-2.862128E+10	-2.235715E-12	NaN
374	1.000000	0.242115	7.36872e+06	-57339.1	955.818	-29737.4	0.000000	0.000000	6.242823	0.074235	NaN	0.000000	0.001621	0.001728	28.0824	0.050108	0.002104	23.8147	-83.432	-166.433	0.061926	0.240800	-0.775400	-0.776714	0.074235	23.8147	-0.777737	-2.241217E+10	-3.312258E-12	NaN
374	1.000000	0.250107	7.36872e+06	-57339.1	955.818	-29737.4	0.000000	0.000000	6.250814	0.043923	NaN	0.000000	0.001626	0.001701	28.0823	0.048720	0.001934	25.1946	45.1688	-168.33	0.051017	0.248831	-0.767408	-0.768684	0.043923	25.1946	-0.768715	-1.689797E+10	-2.599324E-12	NaN
374	1.000000	0.258125	7.36872e+06	-57339.1	955.818	-29737.4	0.000000	0.000000	6.258835	0.136420	NaN	0.000000	0.001625	0.001726	28.0825	0.126072	0.001988	63.4022	-121.198	-164.689	0.142700	0.256803	-0.759390	-0.760712	0.136420	63.4022	-0.761004	-1.327263E+10	-1.027829E-11	NaN
374	1.000000	0.266135	7.36872e+06	-57339.1	955.818	-29737.4	0.000000	0.000000	6.266838	-0.036762	NaN	0.000000	0.001633	0.001705	28.0823	0.062080	0.001896	32.7485	-170.484	-164.513	-0.006844	0.264795	-0.751380	-0.752720	-0.036762	32.7485	-0.750538	-9.561915E+9	3.844651E-12	NaN
374	1.000000	0.274148	7.36872e+06	-57339.1	955.818	-29737.4	0.000000	0.000000	6.274853	-0.002324	NaN	0.000000	0.001637	0.001667	28.0823	0.034041	0.001935	17.5963	69.3342	-167.973	0.059578	0.272825	-0.743367	-0.744689	-0.002324	17.5963	-0.743268	-7.613031E+9	3.052091E-13	NaN
374	1.000000	0.282154	7.36872e+06	-57339.1	955.819	-29737.4	0.000000	0.000000	6.282863	0.081059	NaN	0.000000	0.001639	0.001692	28.0819	0.084947	0.002043	41.5792	-128.269	-165.023	0.016616	0.280852	-0.735360	-0.736663	0.081059	41.5792	-0.736822	-6.219732E+9	-1.303250E-11	NaN
374	1.000000	0.290154	7.36872e+06	-57339.1	955.818	-29737.4	0.000000	0.000000	6.290862	0.061082	NaN	0.000000	0.001617	0.001669	28.0818	0.061704	0.002020	30.5421	116.928	-166.113	0.027081	0.288834	-0.727361	-0.728681	0.061082	30.5421	-0.728861	-4.844829E+9	-1.260758E-11	NaN
374	1.000000	0.298144	7.36872e+06	-57339.1	955.819	-29737.4	0.000000	0.000000	6.298856	0.154076	NaN	0.000000	0.001613	0.001679	28.0821	0.021845	0.002009	10.8759	-71.4696	-167.387	0.121517	0.296808	-0.719370	-0.720707	0.154076	10.8759	-0.729995	-5.020493E+9	-3.068933E-11	NaN
374	1.000000	0.306180	7.36872e+06	-57339.1	955.819	-29737.4	0.000000	0.000000	6.306886	0.022050	NaN	0.000000	0.001632	0.001702	28.082	0.034385	0.002001	17.1856	140.773	-165.124	0.012198	0.304791	-0.711335	-0.712724	0.022050	17.1856	-0.712297	-2.880036E+9	-7.656208E-12	NaN
374	1.000000	0.314195	7.36872e+06	-57339.1	955.818	-29737.4	0.000000	0.000000	6.314901	0.025497	NaN	0.000000	0.001649	0.001702	28.082	0.016555	0.001949	8.493852	46.9816	-166.143	-0.002048	0.312871	-0.703320	-0.704644	0.025497	8.493852	-0.705571	-2.331289E+9	-1.093670E-11	NaN
374	1.000000	0.322157	7.36872e+06	-57339.1	955.818	-29737.4	0.000000	0.000000	6.322860	-0.054992	NaN	0.000000	0.001633	0.001671	28.0825	0.080432	0.002012	39.9804	-69.4656	-169.614	-0.070633	0.320877	-0.695358	-0.696638	-0.054992	39.9804	-0.694326	-1.636924E+9	3.359464E-11	NaN
374	1.000000	0.330168	7.36872e+06	-57339.1	955.819	-29737.4	0.000000	0.000000	6.330873	0.006158	NaN	0.000000	0.001618	0.001708	28.0824	0.022696	0.002015	11.2638	-134.066	-165.49	0.099440	0.328849	-0.687347	-0.688666	0.006158	11.2638	-0.687757	-1.331253E+9	-4.625839E-12	NaN
374	1.000000	0.338140	7.36872e+06	-57339.1	955.819	-29737.4	0.000000	0.000000	6.338844	-0.031482	NaN	0.000000	0.001647	0.001699	28.0819	0.074774	0.002117	35.3171	-142.258	-166.98	-0.082038	0.336886	-0.679375	-0.680628	-0.031482	35.3171	-0.678706	-1.001171E+9	3.144495E-11	NaN
374	1.000000	0.346176	7.36872e+06	-57339.1	955.819	-29737.4	0.000000	0.000000	6.346884	0.067490	NaN	0.000000	0.001623	0.001680	28.0819	0.083932	0.002013	41.6854	27.6968	-167.566	0.065303	0.344869	-0.671339	-0.672645	0.067490	41.6854	-0.672553	-8.247596E+8	-8.182940E-11	NaN
374	1.000000	0.354179	7.36872e+06	-57339.1	955.818	-29737.4	0.000000	0.000000	6.354886	0.054452	NaN	0.000000	0.001583	0.001667	28.082	0.092622	0.002012	46.0245	161.284	-169.095	0.060321	0.352936	-0.663336	-0.664579	0.054452	46.0245	-0.664224	-6.343236E+8	-8.584219E-11	NaN
374	1.000000	0.362176	7.36872e+06	-57339.1	955.819	-29737.4	0.000000	0.000000	6.362883	0.036462	NaN	0.000000	0.001648	0.001690	28.0823	0.108373	0.002014	53.8006	-103.462	-166.037	0.017165	0.360866	-0.655339	-0.656649	0.036462	53.8006	-0.655847	-4.870494E+8	-7.486404E-11	NaN
374	1.000000	0.370168	7.36872e+06	-57339.1	955.818	-29737.4	0.000000	0.000000	6.370873	-0.018540	NaN	0.000000	0.001610	0.001664	28.0814	0.034070	0.001905	17.8803	106.701	-169.816	-0.021566	0.368842	-0.647346	-0.648673	-0.018540	17.8803	-0.646569	-3.634055E+8	5.101694E-11	NaN
374	1.000000	0.378229	7.36872e+06	-57339.1	955.818	-29737.4	0.000000	0.000000	6.378933	-0.001870	NaN	0.000000	0.001631	0.001642	28.0804	0.098459	0.001908	51.5896	25.8146	-168.536	-0.001857	0.376865	-0.639286	-0.640650	-0.001870	51.5896	-0.639259	-2.884849E+8	6.483736E-12	NaN
374	1.000000	0.386176	7.36872e+06	-57339.1	955.819	-29737.4	0.000000	0.000000	6.386883	0.043037	NaN	0.000000	0.001646	0.001639	28.082	0.082966	0.002031	40.8461	-122.814	-165.202	-0.037878	0.384894	-0.631338	-0.632620	0.043037	40.8461	-0.632129	-2.302784E+8	-1.868929E-10	NaN
374	1.000000	0.394177	7.36872e+06	-57339.1	955.819	-29737.4	0.000000	0.000000	6.394886	0.093986	NaN	0.000000	0.001627	0.001655	28.0808	0.060744	0.001952	31.1264	169.885	-166.701	0.050422	0.392845	-0.623337	-0.624670	0.093986	31.1264	-0.625602	-1.873330E+8	-5.017077E-10	NaN
374	1.000000	0.402188	7.36872e+06	-57339.1	955.818	-29737.4	0.000000	0.000000	6.402892	-0.020474	NaN	0.000000	0.001616	0.001675	28.0808	0.081535	0.001967	41.4428	-23.1963	-165.313	-0.017651	0.400938	-0.615327	-0.616577	-0.020474	41.4428	-0.614956	-1.337477E+8	1.530792E-10	NaN
374	1.000000	0.410184	7.36872e+06	-57339.1	955.819	-29737.4	0.000000	0.000000	6.410892	0.065475	NaN	0.000000	0.001623	0.001698	28.081	0.068090	0.001996	34.119	-89.9654	-168.179	0.064898	0.408886	-0.607331	-0.608628	0.065475	34.119	-0.608770	-1.099495E+8	-5.955022E-10	NaN
374	1.000000	0.418171	7.36872e+06	-57339.1	955.818	-29737.4	0.000000	0.000000	6.418877	0.023452	NaN	0.000000	0.001693	0.001710	28.0811	0.192478	0.001920	100.224	127.779	-166.779	0.079344	0.416859	-0.599344	-0.600656	0.023452	100.224	-0.599519	-8.200470E+7	-2.859791E-10	NaN
374	1.000000	0.426240	7.36872e+06	-57339.1	955.817	-29737.4	0.000000	0.000000	6.426948	0.063439	NaN	0.000000	0.001686	0.001650	28.0812	0.016224	0.002134	7.603405	115.151	-168.503	-0.015842	0.424895	-0.591274	-0.592620	0.063439	7.603405	-0.597532	-7.699550E+7	-8.239250E-10	NaN
374	1.000000	0.434232	7.36872e+06	-57339.1	955.819	-29737.4	0.000000	0.000000	6.434936	-0.021158	NaN	0.000000	0.001663	0.001680	28.0808	0.028743	0.002033	14.1371	49.28	-168.368	-0.007198	0.432943	-0.583283	-0.584572	-0.021158	14.1371	-0.582161	-4.726513E+7	4.476525E-10	NaN
374	1.000000	0.442204	7.36872e+06	-57339.1	955.818	-29737.4	0.000000	0.000000	6.442910	0.026395	NaN	0.000000	0.001643	0.001666	28.081	0.046777	0.002058	22.734	-90.0792	-165.403	0.132008	0.440891	-0.575311	-0.576624	0.026395	22.734	-0.576181	-3.908504E+7	-6.753111E-10	NaN
374	1.000000	0.450228	7.36872e+06	-57339.1	955.818	-29737.4	0.000000	0.000000	6.450934	0.030137	NaN	0.000000	0.001682	0.001697	28.0811	0.082755	0.002077	39.8453	149.906	-168.422	0.048129	0.448899	-0.567287	-0.568615	0.030137	39.8453	-0.567854	-2.999010E+7	-1.004889E-9	NaN
374	1.000000	0.458188	7.36872e+06	-57339.1	955.819	-29737.4	0.000000	0.000000	6.458894	0.017028	NaN	0.000000	0.001675	0.001704	28.0812	0.074448	0.001981	37.5784	108.539	-168.077	0.022804	0.456944	-0.559326	-0.560571	0.017028	37.5784	-0.559666	-2.310798E+7	-7.369037E-10	NaN
374	1.000000	0.466238	7.36872e+06	-57339.1	955.818	-29737.4	0.000000	0.000000	6.466944	0.031384	NaN	0.000000	0.001652	0.001689	28.0815	0.133240	0.002027	65.7281	-37.4296	-171.097	0.070664	0.464927	-0.551277	-0.552587	0.031384	65.7281	-0.551635	-1.788958E+7	-1.754301E-9	NaN
374	1.000000	0.474226	7.36872e+06	-57339.1	955.819	-29737.4	0.000000	0.000000	6.474931	0.003549	NaN	0.000000	0.001665	0.001682	28.081	0.074106	0.001967	37.6738	150.564	-168.65	0.029642	0.472881	-0.543289	-0.544634	0.003549	37.6738	-0.543360	-1.373865E+7	-2.582974E-10	NaN
374	1.000000	0.482224	7.36872e+06	-57339.1	955.818	-29737.4	0.000000	0.000000	6.482931	0.041958	NaN	0.000000	0.001677	0.001692	28.0813	0.102745	0.001934	53.1123	-164.555	-167.133	-0.033888	0.480913	-0.535291	-0.536602	0.041958	53.1123	-0.535883	-1.082049E+7	-3.877686E-9	NaN
374	1.000000	0.490222	7.36872e+06	-57339.1	955.818	-29737.4	0.000000	0.000000	6.490931	0.097361	NaN	0.000000	0.001672	0.001609	28.0813	0.083877	0.002013	41.6623	-46.8486	-173.607	0.045399	0.488941	-0.527292	-0.528574	0.097361	41.6623	-0.529045	-8.69586e+06	-1.119630E-8	NaN
374	1.000000	0.498198	7.36872e+06	-57339.1	955.818	-29737.4	0.000000	0.000000	6.498904	0.022620	NaN	0.000000	0.001646	0.001655	28.0812	0.028126	0.002104	13.368	-160.599	-168.315	0.031051	0.496961	-0.519317	-0.520554	0.022620	13.368	-0.520586	-6.63362e+06	-3.409971E-9	NaN
374	1.000000	0.506239	7.36872e+06	-57339.1	955.819	-29737.4	0.000000	0.000000	6.506945	0.009272	NaN	0.000000	0.001623	0.001671	28.0818	0.072147	0.002019	35.7329	-86.8004	-164.57	-0.006859	0.504909	-0.511276	-0.512606	0.009272	35.7329	-0.511470	-4.95326e+06	-1.871916E-9	NaN
374	1.000000	0.514230	7.36872e+06	-57339.1	955.818	-29737.4	0.000000	0.000000	6.514934	-0.023715	NaN	0.000000	0.001656	0.001611	28.0824	0.040647	0.001902	21.3744	-95.419	-166.122	-0.020488	0.512973	-0.503285	-0.504542	-0.023715	21.3744	-0.502453	-3.70874e+06	6.394246E-9	NaN
374	1.000000	0.522257	7.36872e+06	-57339.1	955.819	-29737.4	0.000000	0.000000	6.522960	-0.037790	NaN	0.000000	0.001644	0.001629	28.0824	0.074659	0.001936	38.5721	-115.86	-167.325	0.031241	0.520899	-0.495258	-0.496615	-0.037790	38.5721	-0.494523	-2.8746e+06	1.314626E-8	NaN
374	1.000000	0.530230	7.36872e+06	-57339.1	955.819	-29737.4	0.000000	0.000000	6.530935	0.021485	NaN	0.000000	0.001612	0.001633	28.0824	0.018350	0.001934	9.489552	-135.843	-167.452	0.025687	0.528941	-0.487285	-0.488573	0.021485	9.489552	-0.488983	-2.40538e+06	-8.931997E-9	NaN
374	1.000000	0.538243	7.36872e+06	-57339.1	955.82	-29737.4	0.000000	0.000000	6.538947	-0.003356	NaN	0.000000	0.001617	0.001615	28.0824	0.053021	0.002055	25.7954	-90.1786	-166.563	-0.064003	0.536957	-0.479272	-0.480558	-0.003356	25.7954	-0.479175	-1.75377e+06	1.913725E-9	NaN
374	1.000000	0.546273	7.36872e+06	-57339.1	955.818	-29737.4	0.000000	0.000000	6.546980	0.042258	NaN	0.000000	0.001609	0.001639	28.0825	0.047109	0.002077	22.681	-110.269	-164.422	0.053927	0.544963	-0.471242	-0.472552	0.042258	22.681	-0.472639	-1.4204e+06	-2.975059E-8	NaN
374	1.000000	0.554297	7.36872e+06	-57339.1	955.819	-29737.4	0.000000	0.000000	6.555005	0.075214	NaN	0.000000	0.001605	0.001657	28.0828	0.037859	0.002039	18.5722	-116.536	-166.608	0.083375	0.552874	-0.463218	-0.464640	0.075214	18.5722	-0.466255	-1.15576e+06	-6.507772E-8	NaN
374	1.000000	0.562269	7.36872e+06	-57339.1	955.819	-29737.4	0.000000	0.000000	6.562975	0.023906	NaN	0.000000	0.001617	0.001653	28.0827	0.100741	0.001976	50.9705	18.988	-167.53	-0.002237	0.560946	-0.455246	-0.456569	0.023906	50.9705	-0.455598	-818705	-2.920034E-8	NaN
374	1.000000	0.570267	7.36872e+06	-57339.1	955.819	-29737.4	0.000000	0.000000	6.570972	-0.009265	NaN	0.000000	0.001652	0.001656	28.0827	0.035533	0.001834	19.3727	1.067721	-162.747	0.124760	0.568965	-0.447247	-0.448550	-0.009265	19.3727	-0.446889	-617324	1.500857E-8	NaN
374	1.000000	0.578275	7.36872e+06	-57339.1	955.819	-29737.4	0.000000	0.000000	6.578982	0.044727	NaN	0.000000	0.001651	0.001634	28.0827	0.060308	0.001913	31.5196	-170.915	-165.881	-0.020288	0.576915	-0.439240	-0.440599	0.044727	31.5196	-0.440304	-498485	-8.972512E-8	NaN
374	1.000000	0.586277	7.36872e+06	-57339.1	955.819	-29737.4	0.000000	0.000000	6.586984	0.031616	NaN	0.000000	0.001617	0.001650	28.0824	0.035724	0.001919	18.6179	-130.227	-165.739	0.025779	0.584959	-0.431238	-0.432556	0.031616	18.6179	-0.432511	-386880	-8.172042E-8	NaN
374	1.000000	0.594264	7.36872e+06	-57339.1	955.819	-29737.4	0.000000	0.000000	6.594969	-0.003659	NaN	0.000000	0.001624	0.001635	28.0827	0.064133	0.001958	32.7578	179.123	-168.369	-0.003647	0.592963	-0.423251	-0.424552	-0.003659	32.7578	-0.423167	-285305	1.282377E-8	NaN
374	1.000000	0.602274	7.36872e+06	-57339.1	955.818	-29737.4	0.000000	0.000000	6.602979	-0.000997	NaN	0.000000	0.001602	0.001654	28.0828	0.095361	0.002010	47.4534	0.799564	-167.515	0.073849	0.601002	-0.415240	-0.416512	-0.000997	47.4534	-0.415225	-220113	4.529632E-9	NaN
374	1.000000	0.610230	7.36872e+06	-57339.1	955.818	-29737.4	0.000000	0.000000	6.610935	0.000122	NaN	0.000000	0.001598	0.001688	28.0825	0.079028	0.002060	38.3652	60.4383	-166.985	-0.000151	0.608880	-0.407284	-0.408635	0.000122	38.3652	-0.407287	-169747	-7.193248E-10	NaN
374	1.000000	0.618276	7.36872e+06	-57339.1	955.819	-29737.4	0.000000	0.000000	6.618982	0.030617	NaN	0.000000	0.001647	0.001692	28.0827	0.069857	0.002129	32.8153	-24.4964	-165.571	0.008448	0.616956	-0.399239	-0.400559	0.030617	32.8153	-0.399939	-133390	-2.295300E-7	NaN
374	1.000000	0.626280	7.36872e+06	-57339.1	955.819	-29737.4	0.000000	0.000000	6.626986	0.011454	NaN	0.000000	0.001633	0.001664	28.0825	0.052015	0.001932	26.9228	159.002	-167.458	0.037561	0.624938	-0.391234	-0.392577	0.011454	26.9228	-0.391553	-101247	-1.131273E-7	NaN
374	1.000000	0.634318	7.36872e+06	-57339.1	955.819	-29737.4	0.000000	0.000000	6.635022	-0.019393	NaN	0.000000	0.001600	0.001683	28.0827	0.052559	0.002023	25.9749	-85.0837	-166.992	-0.060855	0.633010	-0.383197	-0.384505	-0.019393	25.9749	-0.382637	-75459.3	2.570040E-7	NaN
374	1.000000	0.642296	7.36872e+06	-57339.1	955.818	-29737.4	0.000000	0.000000	6.643002	0.025056	NaN	0.000000	0.001591	0.001714	28.0821	0.078421	0.002060	38.0751	174.371	-165.216	-0.003799	0.640966	-0.375219	-0.376549	0.025056	38.0751	-0.375712	-60022.1	-4.174496E-7	NaN
374	1.000000	0.650304	7.36872e+06	-57339.1	955.817	-29737.4	0.000000	0.000000	6.651010	0.030859	NaN	0.000000	0.001597	0.001694	28.0814	0.067335	0.001986	33.9008	-143.638	-169.216	0.024908	0.648967	-0.367211	-0.368548	0.030859	33.9008	-0.367894	-46321.7	-6.661990E-7	NaN
374	1.000000	0.658301	7.36872e+06	-57339.1	955.819	-29737.4	0.000000	0.000000	6.659008	0.053341	NaN	0.000000	0.001609	0.001725	28.0814	0.098922	0.001998	49.5223	146.189	-165.41	0.049884	0.656975	-0.359214	-0.360540	0.053341	49.5223	-0.360022	-35658.4	-1.495878E-6	NaN
374	1.000000	0.666306	7.36872e+06	-57339.1	955.818	-29737.4	0.000000	0.000000	6.667013	0.043907	NaN	0.000000	0.001629	0.001694	28.0813	0.061046	0.001997	30.5713	16.9258	-167.457	0.013727	0.664981	-0.351208	-0.352534	0.043907	30.5713	-0.352286	-27552.4	-1.593589E-6	NaN
374	1.000000	0.674313	7.36872e+06	-57339.1	955.818	-29737.4	0.000000	0.000000	6.675015	-0.060256	NaN	0.000000	0.001632	0.001730	28.0817	0.095632	0.001972	48.487	-98.4964	-163.027	-0.091667	0.672983	-0.343202	-0.344532	-0.060256	48.487	-0.342270	-19707.3	3.057533E-6	NaN
374	1.000000	0.682327	7.36872e+06	-57339.1	955.818	-29737.4	0.000000	0.000000	6.683034	0.052885	NaN	0.000000	0.001597	0.001727	28.081	0.072848	0.001969	36.9932	-120.55	-165.297	0.098650	0.680995	-0.335188	-0.336520	0.052885	36.9932	-0.336260	-16106.3	-3.283480E-6	NaN
374	1.000000	0.690317	7.36872e+06	-57339.1	955.819	-29737.4	0.000000	0.000000	6.691027	0.108117	NaN	0.000000	0.001646	0.001698	28.0812	0.044861	0.001962	22.8659	78.9328	-167.499	0.079833	0.689034	-0.327197	-0.328481	0.108117	22.8659	-0.330744	-13376.4	-8.082696E-6	NaN
374	1.000000	0.698313	7.36872e+06	-57339.1	955.818	-29737.4	0.000000	0.000000	6.699018	-0.001991	NaN	0.000000	0.001632	0.001703	28.0811	0.084014	0.002028	41.4225	77.9473	-166.196	-0.004763	0.696984	-0.319202	-0.320531	-0.001991	41.4225	-0.319165	-9043.84	2.201305E-7	NaN
374	1.000000	0.706315	7.36872e+06	-57339.1	955.819	-29737.4	0.000000	0.000000	6.707021	0.021037	NaN	0.000000	0.001601	0.001737	28.0812	0.108054	0.002018	53.5331	-165.095	-166.767	0.030682	0.705000	-0.311199	-0.312514	0.021037	53.5331	-0.311494	-6968.78	-3.018771E-6	NaN
374	1.000000	0.714316	7.36872e+06	-57339.1	955.818	-29737.4	0.000000	0.000000	6.715020	-0.025331	NaN	0.000000	0.001642	0.001699	28.0815	0.043514	0.002037	21.3602	-75.6208	-166.096	-0.053772	0.713046	-0.303198	-0.304468	-0.025331	21.3602	-0.302309	-5093.1	4.973515E-6	NaN
374	1.000000	0.722316	7.36872e+06	-57339.1	955.818	-29737.4	0.000000	0.000000	6.723021	-0.016421	NaN	0.000000	0.001622	0.001756	28.081	0.051451	0.002023	25.4335	74.9798	-165.541	-0.037784	0.721024	-0.295199	-0.296491	-0.016421	25.4335	-0.294714	-3924.83	4.183781E-6	NaN
374	1.000000	0.730317	7.36872e+06	-57339.1	955.82	-29737.4	0.000000	0.000000	6.731023	0.006837	NaN	0.000000	0.001628	0.001733	28.0812	0.076708	0.002104	36.4637	-49.7936	-166.066	0.025862	0.729089	-0.287197	-0.288426	0.006837	36.4637	-0.287338	-3043.57	-2.246471E-6	NaN
374	1.000000	0.738321	7.36872e+06	-57339.1	955.818	-29737.4	0.000000	0.000000	6.739029	0.057004	NaN	0.000000	0.001642	0.001748	28.0812	0.028719	0.001994	14.3995	14.2447	-169.003	0.015053	0.737115	-0.279193	-0.280400	0.057004	14.3995	-0.282162	-2544.29	-2.240453E-5	NaN
374	1.000000	0.746330	7.36872e+06	-57339.1	955.819	-29737.4	0.000000	0.000000	6.747035	-0.000346	NaN	0.000000	0.001592	0.001676	28.0815	0.106981	0.001994	53.6517	-33.4876	-167.523	-0.101722	0.745050	-0.271184	-0.272465	-0.000346	53.6517	-0.271180	-1735.67	1.991923E-7	NaN
374	1.000000	0.754359	7.36873e+06	-57339.1	955.818	-29737.4	0.000000	0.000000	6.755065	-0.000224	NaN	0.000000	0.001602	0.001661	28.0813	0.075346	0.001966	38.3284	-168.527	-165.694	0.030012	0.753049	-0.263155	-0.264466	-0.000224	38.3284	-0.263151	-1309.62	1.712910E-7	NaN
374	1.000000	0.762325	7.36873e+06	-57339.1	955.817	-29737.4	0.000000	0.000000	6.763030	0.001516	NaN	0.000000	0.001611	0.001654	28.0811	0.028915	0.001873	15.4414	-151.499	-164.848	-0.061608	0.761065	-0.255190	-0.256450	0.001516	15.4414	-0.255264	-991.233	-1.528994E-6	NaN
374	1.000000	0.770354	7.36873e+06	-57339.1	955.819	-29737.4	0.000000	0.000000	6.771057	-0.049984	NaN	0.000000	0.001628	0.001677	28.0814	0.064816	0.002058	31.4873	-74.9488	-165.525	-0.045789	0.769043	-0.247161	-0.248472	-0.049984	31.4873	-0.245970	-712.069	7.019508E-5	NaN
374	1.000000	0.778319	7.36873e+06	-57339.1	955.818	-29737.4	0.000000	0.000000	6.779022	-0.042598	NaN	0.000000	0.001627	0.001669	28.0813	0.068115	0.001942	35.0752	-81.9996	-169.697	0.007057	0.777026	-0.239196	-0.240489	-0.042598	35.0752	-0.238285	-540.428	7.882313E-5	NaN
374	1.000000	0.786355	7.36873e+06	-57339.1	955.819	-29737.4	0.000000	0.000000	6.787055	-0.109522	NaN	0.000000	0.001612	0.001643	28.0825	0.148920	0.002086	71.3898	-45.7349	-167.124	-0.036240	0.785117	-0.231160	-0.232398	-0.109522	71.3898	-0.230009	-400.557	0.000273	NaN
374	1.000000	0.794371	7.36873e+06	-57339.1	955.819	-29737.4	0.000000	0.000000	6.795071	-0.118899	NaN	0.000000	0.001573	0.001652	28.0823	0.095212	0.002005	47.4836	-137.658	-164.36	-0.164291	0.793042	-0.223144	-0.224472	-0.118899	47.4836	-0.221266	-290.999	0.000409	NaN
374	1.000000	0.802357	7.36873e+06	-57339.1	955.818	-29737.4	0.000000	0.000000	6.803056	-0.157026	NaN	0.000000	0.001619	0.001702	28.0825	0.076743	0.002005	38.2689	-28.6599	-166.895	-0.238020	0.801005	-0.215158	-0.216509	-0.157026	38.2689	-0.212080	-207.233	0.000758	NaN
374	1.000000	0.810351	7.36873e+06	-57339.1	955.818	-29737.4	0.000000	0.000000	6.811052	-0.089128	NaN	0.000000	0.001570	0.001685	28.0825	0.071466	0.001921	37.2033	13.2526	-162.325	-0.078458	0.809043	-0.207164	-0.208472	-0.089128	37.2033	-0.205367	-161.268	0.000553	NaN
374	1.000000	0.818397	7.36873e+06	-57339.1	955.819	-29737.4	0.000000	0.000000	6.819098	-0.101526	NaN	0.000000	0.001625	0.001624	28.0825	0.034240	0.002040	16.7806	-120.95	-162.867	-0.114789	0.817068	-0.199118	-0.200447	-0.101526	16.7806	-0.194580	-107.213	0.000947	NaN
374	1.000000	0.826381	7.36873e+06	-57339.1	955.818	-29737.4	0.000000	0.000000	6.827080	-0.149082	NaN	0.000000	0.001617	0.001654	28.0824	0.052120	0.001885	27.6566	168.523	-166.022	-0.108091	0.825052	-0.191133	-0.192463	-0.149082	27.6566	-0.187091	-80.4085	0.001854	NaN
374	1.000000	0.834364	7.36873e+06	-57339.1	955.819	-29737.4	0.000000	0.000000	6.835062	-0.161137	NaN	0.000000	0.001601	0.001671	28.0824	0.019585	0.002002	9.782601	28.382	-167.957	-0.140184	0.833026	-0.183151	-0.184489	-0.161137	9.782601	-0.170797	-42.4076	0.003800	NaN
374	1.000000	0.842369	7.36873e+06	-57339.1	955.818	-29737.4	0.000000	0.000000	6.843068	-0.139031	NaN	0.000000	0.001606	0.001670	28.0826	0.059777	0.002017	29.6311	-177.299	-166.003	-0.139941	0.841090	-0.175146	-0.176425	-0.139031	29.6311	-0.171627	-43.8342	0.003172	NaN
374	1.000000	0.850389	7.36873e+06	-57339.1	955.819	-29737.4	0.000000	0.000000	6.851089	-0.119949	NaN	0.000000	0.001644	0.001663	28.0824	0.060072	0.002053	29.2635	167.555	-167.815	-0.133161	0.849072	-0.167126	-0.168443	-0.119949	29.2635	-0.164052	-32.3322	0.003710	NaN
374	1.000000	0.858373	7.36873e+06	-57339.1	955.819	-29737.4	0.000000	0.000000	6.859074	-0.084862	NaN	0.000000	0.001619	0.001640	28.0825	0.099076	0.002044	48.4736	129.488	-168.596	-0.146575	0.857064	-0.159142	-0.160451	-0.084862	48.4736	-0.157829	-25.0787	0.003384	NaN
374	1.000000	0.866385	7.36873e+06	-57339.1	955.818	-29737.4	0.000000	0.000000	6.867086	-0.114154	NaN	0.000000	0.001662	0.001668	28.0826	0.077435	0.002051	37.755	66.3642	-166.677	-0.104984	0.865077	-0.151129	-0.152438	-0.114154	37.755	-0.148862	-17.2668	0.006611	NaN
374	1.000000	0.874387	7.36873e+06	-57339.1	955.817	-29737.4	0.000000	0.000000	6.875087	-0.122543	NaN	0.000000	0.001653	0.001648	28.0822	0.071578	0.002011	35.5876	107.676	-167.207	-0.138203	0.873123	-0.143128	-0.144392	-0.122543	35.5876	-0.140545	-12.1117	0.010118	NaN
374	1.000000	0.882389	7.36873e+06	-57339.1	955.819	-29737.4	0.000000	0.000000	6.883091	-0.084455	NaN	0.000000	0.001647	0.001691	28.0826	0.107035	0.002057	52.0448	158.701	-166.534	-0.149232	0.881039	-0.135126	-0.136476	-0.084455	52.0448	-0.133909	-9.066038	0.009316	NaN
374	1.000000	0.890408	7.36873e+06	-57339.1	955.817	-29737.4	0.000000	0.000000	6.891108	-0.138897	NaN	0.000000	0.001664	0.001655	28.0823	0.046612	0.001874	24.8759	-174.093	-168.262	-0.179335	0.889077	-0.127106	-0.128438	-0.138897	24.8759	-0.122919	-5.528946	0.025122	NaN
374	1.000000	0.898409	7.36873e+06	-57339.1	955.819	-29737.4	0.000000	0.000000	6.899112	-0.058457	NaN	0.000000	0.001628	0.001667	28.0825	0.072479	0.002055	35.2705	-84.6434	-169.21	-0.088417	0.897105	-0.119106	-0.120410	-0.058457	35.2705	-0.117863	-4.372738	0.013369	NaN
374	1.000000	0.906403	7.36873e+06	-57339.1	955.819	-29737.4	0.000000	0.000000	6.907104	-0.094795	NaN	0.000000	0.001655	0.001630	28.0825	0.101870	0.001921	53.0364	80.5173	-169.707	0.001376	0.905084	-0.111112	-0.112431	-0.094795	53.0364	-0.109772	-2.972031	0.031896	NaN
374	1.000000	0.914428	7.36873e+06	-57339.1	955.819	-29737.4	0.000000	0.000000	6.915130	-0.075571	NaN	0.000000	0.001660	0.001690	28.0823	0.104088	0.001852	56.2095	49.1769	-167.308	-0.067829	0.913114	-0.103087	-0.104401	-0.075571	56.2095	-0.102079	-2.030467	0.037219	NaN
374	1.000000	0.922402	7.36873e+06	-57339.1	955.818	-29737.4	0.000000	0.000000	6.923108	0.025436	NaN	0.000000	0.001615	0.001709	28.0813	0.015316	0.001945	7.875099	-133.699	-166.979	-0.058020	0.921085	-0.095112	-0.096430	0.025436	7.875099	-0.097535	-1.609768	-0.015801	NaN
374	1.000000	0.930423	7.36873e+06	-57339.1	955.818	-29737.4	0.000000	0.000000	6.931128	-0.010631	NaN	0.000000	0.001679	0.001629	28.081	0.023999	0.002046	11.7322	-156.441	-166.566	0.012022	0.929142	-0.087091	-0.088372	-0.010631	11.7322	-0.086412	-0.888581	0.011964	NaN
374	1.000000	0.938449	7.36873e+06	-57339.1	955.818	-29737.4	0.000000	0.000000	6.939154	-0.001862	NaN	0.000000	0.001704	0.001671	28.0811	0.137463	0.002096	65.5984	-81.7727	-164.168	-0.079143	0.937106	-0.079066	-0.080409	-0.001862	65.5984	-0.079045	-0.585759	0.003179	NaN
374	1.000000	0.946411	7.36873e+06	-57339.1	955.818	-29737.4	0.000000	0.000000	6.947114	-0.063609	NaN	0.000000	0.001717	0.001696	28.0812	0.084394	0.002092	40.3368	97.1877	-166.476	-0.039600	0.945082	-0.071103	-0.072433	-0.063609	40.3368	-0.069921	-0.339441	0.187394	NaN
374	1.000000	0.954391	7.36873e+06	-57339.1	955.819	-29737.4	0.000000	0.000000	6.955094	-0.051015	NaN	0.000000	0.001609	0.001669	28.0811	0.027476	0.001880	14.6144	-155.762	-169.651	-0.031594	0.953098	-0.063123	-0.064417	-0.051015	14.6144	-0.060505	-0.186196	0.273987	NaN
374	1.000000	0.962438	7.36873e+06	-57339.1	955.818	-29737.4	0.000000	0.000000	6.963142	-0.021224	NaN	0.000000	0.001639	0.001666	28.0815	0.175498	0.001976	88.8094	103.724	-168.086	0.057126	0.961147	-0.055077	-0.056368	-0.021224	88.8094	-0.054898	-0.127886	0.165963	NaN
374	1.000000	0.970453	7.36873e+06	-57339.1	955.818	-29737.4	0.000000	0.000000	6.971158	0.000770	NaN	0.000000	0.001616	0.001667	28.0812	0.062065	0.002063	30.0807	-7.293714	-164.117	-0.039194	0.969084	-0.047061	-0.048430	0.000770	30.0807	-0.047081	-0.074396	-0.010356	NaN
374	1.000000	0.978449	7.36873e+06	-57339.1	955.818	-29737.4	0.000000	0.000000	6.979151	-0.083252	NaN	0.000000	0.001661	0.001674	28.0813	0.102511	0.002096	48.9021	2.851464	-167.181	-0.051569	0.977165	-0.039065	-0.040350	-0.083252	48.9021	-0.037789	-0.038771	2.147276	NaN
374	1.000000	0.986457	7.36873e+06	-57339.1	955.818	-29737.4	0.000000	0.000000	6.987160	-0.047260	NaN	0.000000	0.001615	0.001720	28.0812	0.106106	0.002007	52.8576	56.3591	-169.288	-0.002532	0.985093	-0.031058	-0.032422	-0.047260	52.8576	-0.030387	-0.023593	2.003096	NaN
374	1.000000	0.994430	7.36873e+06	-57339.1	955.818	-29737.4	0.000000	0.000000	6.995134	-0.026279	NaN	0.000000	0.001644	0.001660	28.0812	0.067068	0.002083	32.2047	-109.423	-165.162	-0.031526	0.993058	-0.023085	-0.024457	-0.026279	32.2047	-0.022473	-0.014519	1.810028	NaN
374	1.000000	1.002458	7.36873e+06	-57339.1	955.818	-29737.4	0.000000	0.000000	7.003160	-0.065060	NaN	0.000000	0.001628	0.001644	28.0815	0.108674	0.001976	54.9915	32.4144	-168.73	-0.007659	1.001109	-0.015057	-0.016406	-0.065060	54.9915	-0.014170	-0.008783	7.407568	NaN
374	1.000000	1.010445	7.36873e+06	-57339.1	955.818	-29737.4	0.000000	0.000000	7.011149	-0.029278	NaN	0.000000	0.001653	0.001713	28.0812	0.107693	0.001903	56.5917	-24.587	-166.195	-0.015240	1.009032	-0.007070	-0.008483	-0.029278	56.5917	-0.006682	-0.004450	6.579964	NaN
374	1.000000	1.018433	7.36873e+06	-57339.1	955.818	-29737.4	0.000000	0.000000	7.019142	0.101211	NaN	0.000000	0.001607	0.001695	28.0812	0.251235	0.001979	126.981	17.0503	-168.924	0.008447	1.017163	0.000919	-0.000352	0.101211	126.981	0.000321	0.000241	419.661	7470.49
374	1.000000	1.026417	7.36873e+06	-57339.1	955.818	-29737.4	0.000000	0.000000	7.027379	6.243341	NaN	0.000000	0.001646	0.001713	28.0812	6.493282	0.001727	3759.15	15.9236	-175.561	5.412920	1.025088	0.008903	0.007573	6.243341	3759.15	0.007657	0.006692	932.966	41984.3
374	2.000000	1.030955	7.36873e+06	-57339.1	955.818	-29737.4	0.000000	0.000000	7.032062	9.770135	NaN	0.000000	0.001634	0.001702	28.0813	9.705706	0.001490	6514.42	1.562530	-170.646	8.928040	1.030702	0.013441	0.013187	9.770135	6514.42	0.012316	0.011871	823.051	54627.6
374	2.000000	1.032947	7.36873e+06	-57339.1	955.818	-29737.4	0.000000	0.000000	7.034185	12.9428	NaN	0.000000	0.001606	0.001702	28.0815	12.9376	0.001784	7250.46	6.884232	-175.64	12.2526	1.032701	0.015432	0.015187	12.9428	7250.46	0.014094	0.014096	918.202	55794.9
374	2.000000	1.034951	7.36873e+06	-57339.1	955.819	-29737.4	0.000000	0.000000	7.036246	14.3415	NaN	0.000000	0.001612	0.001643	28.0812	13.8961	0.001803	7707.04	3.239784	-170.689	13.6878	1.034685	0.017436	0.017171	14.3415	7707.04	0.016040	0.016698	858.878	54491.6
374	2.000000	1.036939	7.36873e+06	-57339.1	955.818	-29737.4	0.000000	0.000000	7.038306	16.1078	NaN	0.000000	0.001653	0.001668	28.0824	16.1065	0.001707	9435.2	11.1831	179.879	16.1818	1.036611	0.019424	0.019096	16.1078	9435.2	0.018144	0.019709	817.298	61404
374	2.000000	1.038955	7.36873e+06	-57339.1	955.818	-29737.4	0.000000	0.000000	7.040480	19.9431	NaN	0.000000	0.001618	0.001652	28.0824	18.3706	0.001934	9498.08	7.164584	-174.467	19.6084	1.038650	0.021440	0.021135	19.9431	9498.08	0.019865	0.022331	893.067	58070.4
374	2.000000	1.040912	7.36873e+06	-57339.1	955.818	-29737.4	0.000000	0.000000	7.042522	21.9842	NaN	0.000000	0.001644	0.001662	28.0822	20.2316	0.001848	10946.8	9.008530	-178.619	22.4926	1.040584	0.023398	0.023069	21.9842	10946.8	0.021891	0.025602	858.691	62506
374	2.000000	1.042909	7.36873e+06	-57339.1	955.818	-29737.4	0.000000	0.000000	7.044775	28.2235	NaN	0.000000	0.001628	0.001679	28.0826	23.0187	0.001881	12235	7.775557	-179.592	27.0274	1.042602	0.025394	0.025087	28.2235	12235	0.023664	0.028629	985.822	66064.8
374	2.000000	1.044858	7.36873e+06	-57339.1	955.819	-29737.4	0.000000	0.000000	7.046775	29.4529	NaN	0.000000	0.001649	0.001664	28.0823	23.798	0.001712	13902.8	6.832958	179.443	27.0672	1.044543	0.027343	0.027028	29.4529	13902.8	0.025755	0.032403	908.962	70564
374	2.000000	1.046888	7.36873e+06	-57339.1	955.819	-29737.4	0.000000	0.000000	7.048895	31.6425	NaN	0.000000	0.001595	0.001652	28.083	25.9352	0.001835	14134.6	6.880732	179.532	30.5809	1.046646	0.029373	0.029131	31.6425	14134.6	0.027694	0.036100	876.522	67967.6
374	2.000000	1.048961	7.36873e+06	-57339.1	955.818	-29737.4	0.000000	0.000000	7.051321	40.2313	NaN	0.000000	0.001642	0.001660	28.0826	28.4567	0.001748	16279.2	7.601262	178.89	43.2765	1.048576	0.031446	0.031061	40.2313	16279.2	0.029592	0.039903	1008.22	74456.3
374	2.000000	1.050851	7.36873e+06	-57339.1	955.819	-29737.4	0.000000	0.000000	7.053369	44.0697	NaN	0.000000	0.001658	0.001645	28.0826	29.7778	0.001660	17935.8	3.262569	179.956	43.3016	1.050608	0.033336	0.033093	44.0697	17935.8	0.031493	0.043895	1003.98	78214.2
374	2.000000	1.052844	7.36873e+06	-57339.1	955.819	-29737.4	0.000000	0.000000	7.055622	50.4035	NaN	0.000000	0.001645	0.001703	28.0827	32.8916	0.001807	18200	4.664839	178.785	48.034	1.052577	0.035329	0.035063	50.4035	18200	0.033252	0.047754	1055.49	76092.7
374	2.000000	1.054886	7.36873e+06	-57339.1	955.818	-29737.4	0.000000	0.000000	7.057889	55.8476	NaN	0.000000	0.001614	0.001682	28.0825	33.5661	0.001633	20559.4	5.359893	177.823	54.5246	1.054496	0.037371	0.036981	55.8476	20559.4	0.035334	0.052527	1063.22	81958.5
374	2.000000	1.056894	7.36873e+06	-57339.1	955.818	-29737.4	0.000000	0.000000	7.060081	60.3306	NaN	0.000000	0.001659	0.001670	28.0838	36.3299	0.001729	21015.6	5.596805	177.519	59.4842	1.056522	0.039379	0.039007	60.3306	21015.6	0.037226	0.057056	1057.38	80382.8
374	2.000000	1.058874	7.36873e+06	-57339.1	955.818	-29737.4	0.000000	0.000000	7.062157	62.6583	NaN	0.000000	0.001604	0.001653	28.0826	38.7648	0.001833	21142.9	3.506346	179.184	59.0709	1.058613	0.041359	0.041098	62.6583	21142.9	0.039136	0.061816	1013.63	77694.2
374	2.000000	1.060859	7.36873e+06	-57339.1	955.819	-29737.4	0.000000	0.000000	7.064523	71.9159	NaN	0.000000	0.001628	0.001659	28.0824	41.2229	0.001802	22872.2	7.431907	174.922	71.624	1.060460	0.043344	0.042946	71.9159	22872.2	0.040986	0.066601	1079.8	80973.1
374	2.000000	1.062879	7.36873e+06	-57339.1	955.819	-29737.4	0.000000	0.000000	7.066712	76.0039	NaN	0.000000	0.001659	0.001651	28.0824	44.1151	0.001845	23907.4	8.353446	172.521	75.3026	1.062635	0.045365	0.045120	76.0039	23907.4	0.042980	0.071957	1056.24	81426.9
374	2.000000	1.064900	7.36873e+06	-57339.1	955.818	-29737.4	0.000000	0.000000	7.068938	81.0082	NaN	0.000000	0.001638	0.001659	28.0825	44.6655	0.001731	25796.5	6.735776	173.912	83.7383	1.064599	0.047385	0.047084	81.0082	25796.5	0.045030	0.077673	1042.94	84566.6
374	2.000000	1.066896	7.36873e+06	-57339.1	955.819	-29737.4	0.000000	0.000000	7.071302	89.9519	NaN	0.000000	0.001657	0.001660	28.0835	46.9736	0.001808	25978.1	5.910358	174.907	93.0579	1.066585	0.049381	0.049070	89.9519	25978.1	0.046784	0.082733	1087.25	82516.5
374	2.000000	1.068859	7.36873e+06	-57339.1	955.819	-29737.4	0.000000	0.000000	7.073715	100.866	NaN	0.000000	0.001642	0.001651	28.083	48.0664	0.001818	26437.8	6.100820	175.301	99.5153	1.068454	0.051345	0.050939	100.866	26437.8	0.048483	0.087783	1149.04	81525.5
374	2.000000	1.070864	7.36873e+06	-57339.1	955.818	-29737.4	0.000000	0.000000	7.076015	108.056	NaN	0.000000	0.001621	0.001652	28.0813	49.8994	0.001824	27362.8	5.009026	175.094	106.874	1.070524	0.053349	0.053010	108.056	27362.8	0.050387	0.093613	1154.28	81707.9
374	2.000000	1.072829	7.36873e+06	-57339.1	955.819	-29737.4	0.000000	0.000000	7.078187	113.095	NaN	0.000000	0.001610	0.001636	28.0812	52.255	0.001898	27533.2	3.351792	177.018	111.086	1.072510	0.055314	0.054995	113.095	27533.2	0.052234	0.099442	1137.29	79770.9
374	2.000000	1.074833	7.36873e+06	-57339.1	955.819	-29737.4	0.000000	0.000000	7.080590	122.784	NaN	0.000000	0.001623	0.001684	28.0813	52.847	0.001634	32334.6	4.837184	174.383	119.815	1.074468	0.057318	0.056954	122.784	32334.6	0.054470	0.106729	1150.42	90427
374	2.000000	1.076855	7.36873e+06	-57339.1	955.818	-29737.4	0.000000	0.000000	7.082856	128.718	NaN	0.000000	0.001648	0.001679	28.0821	56.4877	0.001779	31748.9	3.392471	175.474	128.882	1.076441	0.059340	0.058927	128.718	31748.9	0.056300	0.112875	1140.36	86338.3
374	2.000000	1.078873	7.36873e+06	-57339.1	955.818	-29737.4	0.000000	0.000000	7.085202	136.69	NaN	0.000000	0.001627	0.001679	28.0813	57.7034	0.001690	34140.5	2.685783	176.493	136.93	1.078639	0.061359	0.061124	136.69	34140.5	0.058356	0.119978	1139.29	90051.6
374	2.000000	1.080874	7.36873e+06	-57339.1	955.818	-29737.4	0.000000	0.000000	7.087666	147.942	NaN	0.000000	0.001623	0.001668	28.0814	59.6941	0.001834	32550.9	6.940772	172.479	147.615	1.080395	0.063360	0.062880	147.942	32550.9	0.059951	0.125633	1177.58	83904.4
374	2.000000	1.082817	7.36873e+06	-57339.1	955.82	-29737.4	0.000000	0.000000	7.089856	153.94	NaN	0.000000	0.001609	0.001674	28.0814	61.7557	0.001705	36223.3	3.239850	174.459	150.963	1.082557	0.065303	0.065042	153.94	36223.3	0.062115	0.133503	1153.08	90576.4
374	2.000000	1.084844	7.36873e+06	-57339.1	955.818	-29737.4	0.000000	0.000000	7.092431	167.248	NaN	0.000000	0.001587	0.001643	28.0813	63.367	0.001728	36676.9	10.0189	168.368	166.314	1.084464	0.067329	0.066950	167.248	36676.9	0.063909	0.140199	1192.93	89493.9
374	2.000000	1.086817	7.36873e+06	-57339.1	955.818	-29737.4	0.000000	0.000000	7.094769	176.133	NaN	0.000000	0.001586	0.001609	28.0814	67.0651	0.001877	35724.9	8.520870	169.783	175.178	1.086454	0.069303	0.068939	176.133	35724.9	0.065605	0.146671	1200.87	85226.1
374	2.000000	1.088891	7.36873e+06	-57339.1	955.818	-29737.4	0.000000	0.000000	7.097121	182.89	NaN	0.000000	0.001588	0.001644	28.0813	68.2891	0.001833	37258.4	6.292744	171.505	183.237	1.088581	0.071377	0.071066	182.89	37258.4	0.067695	0.154839	1181.16	86508.4
374	2.000000	1.090792	7.36873e+06	-57339.1	955.818	-29737.4	0.000000	0.000000	7.099729	200.074	NaN	0.000000	0.001608	0.001660	28.0815	69.1454	0.001662	41614.3	4.258463	172.313	197.983	1.090457	0.073277	0.072942	200.074	41614.3	0.069671	0.162753	1229.31	94243.5
374	2.000000	1.092778	7.36873e+06	-57339.1	955.818	-29737.4	0.000000	0.000000	7.101658	198.69	NaN	0.000000	0.001612	0.001661	28.0814	72.6243	0.001861	39018.1	4.603011	172.292	194.327	1.092547	0.075263	0.075032	198.69	39018.1	0.071444	0.170010	1168.7	86457.3
374	2.000000	1.094837	7.36873e+06	-57339.1	955.818	-29737.4	0.000000	0.000000	7.104497	217.662	NaN	0.000000	0.001621	0.001625	28.0812	73.0074	0.001665	43853.8	5.386287	171.434	218.359	1.094439	0.077322	0.076925	217.662	43853.8	0.073599	0.179038	1215.73	94690.8
374	2.000000	1.096701	7.36873e+06	-57339.1	955.818	-29737.4	0.000000	0.000000	7.106772	227.647	NaN	0.000000	0.001573	0.001677	28.0815	75.5627	0.001796	42083.2	6.317939	170.827	221.598	1.096474	0.079186	0.078959	227.647	42083.2	0.075129	0.185574	1226.72	89253.1
374	2.000000	1.098794	7.36873e+06	-57339.1	955.818	-29737.4	0.000000	0.000000	7.109425	241.237	NaN	0.000000	0.001591	0.001624	28.0812	77.7016	0.001818	42740	5.631535	171.193	235.508	1.098398	0.081280	0.080883	241.237	42740	0.077046	0.193927	1243.96	88672.3
374	2.000000	1.100790	7.36873e+06	-57339.1	955.818	-29737.4	0.000000	0.000000	7.112014	255.673	NaN	0.000000	0.001593	0.001639	28.0818	79.034	0.001741	45383.4	6.948404	169.903	253.333	1.100447	0.083275	0.082932	255.673	45383.4	0.079050	0.202836	1260.49	92065.7
374	2.000000	1.102818	7.36873e+06	-57339.1	955.818	-29737.4	0.000000	0.000000	7.114554	268.108	NaN	0.000000	0.001578	0.001641	28.0812	82.5336	0.001871	44110.3	2.837991	174.129	265.963	1.102465	0.085303	0.084950	268.108	44110.3	0.080745	0.210521	1273.54	87834.6
374	2.000000	1.104767	7.36873e+06	-57339.1	955.819	-29737.4	0.000000	0.000000	7.117023	280.755	NaN	0.000000	0.001597	0.001604	28.0826	82.794	0.001745	47443.3	3.582051	172.191	277.757	1.104482	0.087252	0.086968	280.755	47443.3	0.082814	0.220084	1275.67	92396.2
374	2.000000	1.106804	7.36873e+06	-57339.1	955.819	-29737.4	0.000000	0.000000	7.119203	284.21	NaN	0.000000	0.001628	0.001613	28.0827	84.2906	0.001752	48109.8	1.143745	174.643	281.426	1.106464	0.089289	0.088949	284.21	48109.8	0.084859	0.229728	1237.16	91706.5
374	2.000000	1.108862	7.36873e+06	-57339.1	955.818	-29737.4	0.000000	0.000000	7.121948	300.907	NaN	0.000000	0.001603	0.001648	28.0826	86.7902	0.001775	48885.6	8.591744	168.233	301.508	1.108414	0.091348	0.090899	300.907	48885.6	0.086731	0.238729	1260.46	91411.6
374	2.000000	1.110837	7.36873e+06	-57339.1	955.819	-29737.4	0.000000	0.000000	7.124565	316.518	NaN	0.000000	0.001600	0.001646	28.084	88.4524	0.001721	51397.6	8.557261	167.532	317.927	1.110345	0.093322	0.092830	316.518	51397.6	0.088704	0.248386	1274.3	94221.9
374	2.000000	1.112679	7.36873e+06	-57339.1	955.817	-29737.4	0.000000	0.000000	7.126742	324.667	NaN	0.000000	0.001609	0.001667	28.0825	91.5527	0.001832	49974.7	4.450282	171.526	317.333	1.112540	0.095164	0.095025	324.667	49974.7	0.090291	0.256288	1266.8	90190.2
374	2.000000	1.114873	7.36873e+06	-57339.1	955.818	-29737.4	0.000000	0.000000	7.129404	336.025	NaN	0.000000	0.001602	0.001658	28.0827	92.189	0.001653	55767.3	5.491203	169.451	339.126	1.114602	0.097358	0.097088	336.025	55767.3	0.092839	0.269211	1248.19	98198.9
374	2.000000	1.116639	7.36873e+06	-57339.1	955.818	-29737.4	0.000000	0.000000	7.131605	346.616	NaN	0.000000	0.001652	0.001634	28.0827	95.874	0.001746	54900.3	6.657473	168.384	339.464	1.116399	0.099124	0.098885	346.616	54900.3	0.094389	0.277216	1250.35	95266.1
374	2.000000	1.118774	7.36873e+06	-57339.1	955.818	-29737.4	0.000000	0.000000	7.134489	364.812	NaN	0.000000	0.001603	0.001663	28.0825	98.4637	0.001799	54734.1	6.168303	169.333	360.937	1.118468	0.101259	0.100953	364.812	54734.1	0.096260	0.287029	1270.99	93340.1
374	2.000000	1.120794	7.36873e+06	-57339.1	955.819	-29737.4	0.000000	0.000000	7.136815	372.247	NaN	0.000000	0.001614	0.001686	28.083	99.0106	0.001755	56428.7	1.638834	173.335	372.829	1.120624	0.103279	0.103109	372.247	56428.7	0.098331	0.298077	1248.83	94429.8
374	2.000000	1.122828	7.36873e+06	-57339.1	955.818	-29737.4	0.000000	0.000000	7.139330	383.929	NaN	0.000000	0.001635	0.001680	28.0825	102.845	0.001779	57811.4	6.204058	168.683	386.813	1.122574	0.105314	0.105060	383.929	57811.4	0.100333	0.308937	1242.74	95027.9
374	2.000000	1.124749	7.36873e+06	-57339.1	955.818	-29737.4	0.000000	0.000000	7.142094	404.428	NaN	0.000000	0.001642	0.001680	28.0827	102.782	0.001757	58512.7	3.553748	171.299	401.303	1.124451	0.107234	0.106936	404.428	58512.7	0.102050	0.318402	1270.18	94740.5
374	2.000000	1.126760	7.36873e+06	-57339.1	955.819	-29737.4	0.000000	0.000000	7.144580	415.971	NaN	0.000000	0.001621	0.001657	28.0828	105.345	0.001729	60919.8	6.225118	168.26	411.995	1.126485	0.109246	0.108970	415.971	60919.8	0.104124	0.330012	1260.47	96887.4
374	2.000000	1.128384	7.36873e+06	-57339.1	955.818	-29737.4	0.000000	0.000000	7.146683	427.613	NaN	0.000000	0.001605	0.001696	28.0825	106.283	0.001706	62308.6	8.079754	-13.1879	429.78	1.127824	0.110869	0.110309	427.613	62308.6	0.105722	0.339087	1261.07	97761