File: remote_trans/data/nanoindenter/0828-1/data/Data_2025-08-06,11h17m57s/2025-07-22_16-23-58_1_802.txt
2025-07-22, 16:23:58, 1
Index	Phase	Displacement	Time	Pos X	Pos Y	Pos Z	Rot A	Rot B	Piezo Z	Force A	Force B	Gripper	Voltage A	Voltage B	Temperature	Amplitude force	Amplitude pos	Stiffness	Phase shift	Phase excitation	Force A raw	Displacement raw	HMax	HMax raw	Real Force	Real Stiffness	Contact Depth	Area	Hardness	Reduced Mod.
[#]	[#]	[um]	[s]	[um]	[um]	[um]	[m°]	[m°]	[um]	[uN]	[uN]	[V]	[V]	[V]	[°C]	[uN]	[um]	[N/m]	[°]	[°]	[uN]	[um]	[um]	[um]	[uN]	[N/m]	[um]	[um^2]	[MPa]	[MPa]
802	1.000000	0.003245	7.3729e+06	-40239.1	1055.82	-29790.7	0.000000	0.000000	6.002812	-0.004899	NaN	0.000000	0.001644	0.001742	28.0839	0.023795	0.001043	22.8087	12.1886	-168.711	0.035729	0.001956	-1.018119	-1.019408	-0.004899	22.8087	-1.017958	-3.958017E+13	1.237726E-16	NaN
802	1.000000	0.011213	7.3729e+06	-40239.1	1055.82	-29790.7	0.000000	0.000000	6.010782	0.041219	NaN	0.000000	0.001627	0.001744	28.0836	0.150625	0.000916	164.428	-44.838	-169.346	0.086609	0.009864	-1.010151	-1.011500	0.041219	164.428	-1.010339	-3.125726E+13	-1.318716E-15	NaN
802	1.000000	0.019176	7.3729e+06	-40239.1	1055.82	-29790.7	0.000000	0.000000	6.018744	0.017948	NaN	0.000000	0.001625	0.001740	28.0834	0.036487	0.001679	21.7306	-99.855	-164.283	0.069661	0.017863	-1.002188	-1.003501	0.017948	21.7306	-1.002808	-2.474979E+13	-7.251947E-16	NaN
802	1.000000	0.027206	7.3729e+06	-40239.1	1055.82	-29790.7	0.000000	0.000000	6.026775	0.034781	NaN	0.000000	0.001615	0.001736	28.0838	0.057203	0.001911	29.9374	74.7601	-162.387	0.109134	0.025901	-0.994158	-0.995463	0.034781	29.9374	-0.995030	-1.944677E+13	-1.788506E-15	NaN
802	1.000000	0.035153	7.3729e+06	-40239.1	1055.82	-29790.7	0.000000	0.000000	6.034722	0.026962	NaN	0.000000	0.001629	0.001766	28.0834	0.091693	0.001977	46.3719	-175.411	-162.493	0.013515	0.033900	-0.986211	-0.987465	0.026962	46.3719	-0.986647	-1.499516E+13	-1.798029E-15	NaN
802	1.000000	0.043163	7.3729e+06	-40239.1	1055.82	-29790.7	0.000000	0.000000	6.042733	0.055477	NaN	0.000000	0.001629	0.001724	28.0834	0.107751	0.001947	55.3353	139.466	-167.784	0.049092	0.041869	-0.978201	-0.979495	0.055477	55.3353	-0.978953	-1.181164E+13	-4.696789E-15	NaN
802	1.000000	0.051191	7.3729e+06	-40239.1	1055.82	-29790.7	0.000000	0.000000	6.050761	0.048768	NaN	0.000000	0.001594	0.001728	28.0833	0.024966	0.002127	11.7402	-58.2205	-164.897	0.065151	0.049841	-0.970173	-0.971523	0.048768	11.7402	-0.973289	-9.907936E+12	-4.922154E-15	NaN
802	1.000000	0.059190	7.3729e+06	-40239.1	1055.82	-29790.7	0.000000	0.000000	6.058758	0.017865	NaN	0.000000	0.001585	0.001726	28.0834	0.052346	0.002096	24.9741	150.656	-165.455	-0.041188	0.057875	-0.962175	-0.963489	0.017865	24.9741	-0.962711	-7.135434E+12	-2.503700E-15	NaN
802	1.000000	0.067202	7.3729e+06	-40239.1	1055.82	-29790.7	0.000000	0.000000	6.066770	-0.003528	NaN	0.000000	0.001562	0.001740	28.0837	0.074982	0.001937	38.7096	66.1901	-162.248	0.089769	0.065850	-0.954162	-0.955515	-0.003528	38.7096	-0.954094	-5.460490E+12	6.460155E-16	NaN
802	1.000000	0.075190	7.3729e+06	-40239.1	1055.82	-29790.7	0.000000	0.000000	6.074762	0.101271	NaN	0.000000	0.001557	0.001785	28.0833	0.053376	0.001967	27.1323	-99.3762	-161.632	0.021450	0.073868	-0.946174	-0.947497	0.101271	27.1323	-0.948973	-4.657801E+12	-2.174216E-14	NaN
802	1.000000	0.083199	7.3729e+06	-40239.1	1055.82	-29790.7	0.000000	0.000000	6.082767	0.015741	NaN	0.000000	0.001563	0.001785	28.0834	0.026751	0.002117	12.6358	176.873	-164.924	0.034602	0.081844	-0.938166	-0.939520	0.015741	12.6358	-0.939100	-3.427651E+12	-4.592421E-15	NaN
802	1.000000	0.091192	7.3729e+06	-40239.1	1055.82	-29790.7	0.000000	0.000000	6.090763	0.107363	NaN	0.000000	0.001605	0.001768	28.0836	0.027305	0.002091	13.0609	-75.873	-168.539	0.026998	0.089913	-0.930173	-0.931451	0.107363	13.0609	-0.936338	-3.145772E+12	-3.412924E-14	NaN
802	1.000000	0.099199	7.3729e+06	-40239.1	1055.82	-29790.7	0.000000	0.000000	6.098770	0.086281	NaN	0.000000	0.001585	0.001738	28.0825	0.168530	0.002006	84.0099	3.972739	-166.88	0.086127	0.097838	-0.922166	-0.923526	0.086281	84.0099	-0.922936	-2.074159E+12	-4.159822E-14	NaN
802	1.000000	0.107205	7.3729e+06	-40239.1	1055.82	-29790.7	0.000000	0.000000	6.106775	0.070728	NaN	0.000000	0.001647	0.001741	28.0826	0.110899	0.001992	55.6779	167.753	-161.534	0.031741	0.105870	-0.914159	-0.915494	0.070728	55.6779	-0.915112	-1.626314E+12	-4.348989E-14	NaN
802	1.000000	0.115181	7.3729e+06	-40239.1	1055.82	-29790.7	0.000000	0.000000	6.114754	0.118713	NaN	0.000000	0.001603	0.001688	28.0825	0.048920	0.002162	22.6276	13.8895	-170.723	0.142333	0.113891	-0.906183	-0.907474	0.118713	22.6276	-0.910118	-1.392361E+12	-8.526037E-14	NaN
802	1.000000	0.123217	7.3729e+06	-40239.1	1055.82	-29790.7	0.000000	0.000000	6.122787	0.069208	NaN	0.000000	0.001607	0.001743	28.0823	0.107626	0.002032	52.9587	-27.8653	-167.825	0.163214	0.121893	-0.898147	-0.899471	0.069208	52.9587	-0.899128	-9.891852E+11	-6.996514E-14	NaN
802	1.000000	0.131230	7.3729e+06	-40239.1	1055.82	-29790.7	0.000000	0.000000	6.130796	-0.040943	NaN	0.000000	0.001592	0.001706	28.0825	0.081247	0.001956	41.546	-108.814	-163.654	-0.036587	0.129869	-0.890134	-0.891496	-0.040943	41.546	-0.889395	-7.306937E+11	5.603307E-14	NaN
802	1.000000	0.139203	7.3729e+06	-40239.1	1055.82	-29790.7	0.000000	0.000000	6.138772	0.053950	NaN	0.000000	0.001678	0.001727	28.0823	0.075057	0.001928	38.9277	-3.841882	-170.32	0.064465	0.137855	-0.882162	-0.883509	0.053950	38.9277	-0.883201	-6.025541E+11	-8.953595E-14	NaN
802	1.000000	0.147209	7.3729e+06	-40239.1	1055.82	-29790.7	0.000000	0.000000	6.146778	0.029470	NaN	0.000000	0.001640	0.001721	28.0824	0.054756	0.002005	27.3077	-82.9768	-166.419	0.041243	0.145951	-0.874155	-0.875414	0.029470	27.3077	-0.874965	-4.662345E+11	-6.320948E-14	NaN
802	1.000000	0.155242	7.3729e+06	-40239.1	1055.82	-29790.7	0.000000	0.000000	6.154813	0.092215	NaN	0.000000	0.001591	0.001733	28.0825	0.067436	0.001920	35.1306	-32.9973	-164.229	0.108828	0.153901	-0.866122	-0.867463	0.092215	35.1306	-0.868091	-3.763685E+11	-2.450127E-13	NaN
802	1.000000	0.163201	7.3729e+06	-40239.1	1055.82	-29790.7	0.000000	0.000000	6.162773	0.088352	NaN	0.000000	0.001592	0.001718	28.0825	0.025816	0.002121	12.1691	-138.114	-168.869	0.020974	0.161889	-0.858163	-0.859476	0.088352	12.1691	-0.863608	-3.273058E+11	-2.699369E-13	NaN
802	1.000000	0.171251	7.3729e+06	-40239.1	1055.82	-29790.7	0.000000	0.000000	6.170822	0.087927	NaN	0.000000	0.001602	0.001703	28.0825	0.039109	0.002151	18.1827	-137.78	-166.745	0.053232	0.169907	-0.850113	-0.851457	0.087927	18.1827	-0.853740	-2.406465E+11	-3.653777E-13	NaN
802	1.000000	0.179216	7.3729e+06	-40239.1	1055.82	-29790.7	0.000000	0.000000	6.178784	0.018253	NaN	0.000000	0.001606	0.001722	28.0822	0.102288	0.001958	52.2374	-29.6971	-166.717	0.060311	0.177972	-0.842149	-0.843392	0.018253	52.2374	-0.842411	-1.690254E+11	-1.079905E-13	NaN
802	1.000000	0.187224	7.3729e+06	-40239.1	1055.82	-29790.7	0.000000	0.000000	6.186793	0.040224	NaN	0.000000	0.001591	0.001719	28.0824	0.019973	0.002038	9.801330	82.6642	-163.977	0.062615	0.185877	-0.834140	-0.835487	0.040224	9.801330	-0.837218	-1.437482E+11	-2.798225E-13	NaN
802	1.000000	0.195221	7.3729e+06	-40239.1	1055.82	-29790.7	0.000000	0.000000	6.194790	0.044853	NaN	0.000000	0.001586	0.001736	28.0825	0.100333	0.002037	49.2494	-164.446	-162.653	0.106913	0.193885	-0.826144	-0.827479	0.044853	49.2494	-0.826827	-1.039373E+11	-4.315399E-13	NaN
802	1.000000	0.203265	7.3729e+06	-40239.1	1055.82	-29790.7	0.000000	0.000000	6.202835	0.055865	NaN	0.000000	0.001603	0.001715	28.0827	0.086652	0.002054	42.1782	-8.818046	-165.714	0.049674	0.201952	-0.818099	-0.819412	0.055865	42.1782	-0.819092	-8.163988E+10	-6.842846E-13	NaN
802	1.000000	0.211241	7.3729e+06	-40239.1	1055.82	-29790.7	0.000000	0.000000	6.210812	0.077903	NaN	0.000000	0.001604	0.001740	28.0828	0.087242	0.002080	41.9405	-15.0803	-169.835	0.073897	0.209913	-0.810123	-0.811451	0.077903	41.9405	-0.811516	-6.443778E+10	-1.208963E-12	NaN
802	1.000000	0.219243	7.3729e+06	-40239.1	1055.82	-29790.7	0.000000	0.000000	6.218814	0.071428	NaN	0.000000	0.001636	0.001730	28.0824	0.048058	0.001902	25.2658	-116.184	-165.059	0.082376	0.217946	-0.802121	-0.803418	0.071428	25.2658	-0.804241	-5.133661E+10	-1.391365E-12	NaN
802	1.000000	0.227270	7.3729e+06	-40239.1	1055.82	-29790.7	0.000000	0.000000	6.226838	0.002067	NaN	0.000000	0.001630	0.001716	28.0829	0.131665	0.002051	64.1871	155.335	-168.251	-0.050067	0.225919	-0.794094	-0.795445	0.002067	64.1871	-0.794118	-3.741159E+10	-5.526033E-14	NaN
802	1.000000	0.235248	7.3729e+06	-40239.1	1055.82	-29790.7	0.000000	0.000000	6.234818	0.057797	NaN	0.000000	0.001675	0.001720	28.0838	0.138106	0.001902	72.6059	-64.8787	-163.543	0.108646	0.233923	-0.786116	-0.787441	0.057797	72.6059	-0.786713	-2.967840E+10	-1.947435E-12	NaN
802	1.000000	0.243257	7.3729e+06	-40239.1	1055.82	-29790.7	0.000000	0.000000	6.242824	0.002834	NaN	0.000000	0.001662	0.001750	28.0839	0.038280	0.001914	19.9972	17.9438	-167.056	0.019904	0.241960	-0.778108	-0.779405	0.002834	19.9972	-0.778214	-2.274884E+10	-1.245604E-13	NaN
802	1.000000	0.251259	7.3729e+06	-40239.1	1055.82	-29790.7	0.000000	0.000000	6.250830	0.077899	NaN	0.000000	0.001704	0.001754	28.0839	0.026450	0.002064	12.8138	36.1435	-163.487	0.038824	0.249964	-0.770105	-0.771400	0.077899	12.8138	-0.774665	-2.035731E+10	-3.826590E-12	NaN
802	1.000000	0.259268	7.3729e+06	-40239.1	1055.82	-29790.7	0.000000	0.000000	6.258839	0.099811	NaN	0.000000	0.001659	0.001726	28.0838	0.148436	0.002196	67.5887	177.307	-169.713	0.172025	0.257937	-0.762097	-0.763427	0.099811	67.5887	-0.763204	-1.421970E+10	-7.019218E-12	NaN
802	1.000000	0.267263	7.3729e+06	-40239.1	1055.82	-29790.7	0.000000	0.000000	6.266833	0.048637	NaN	0.000000	0.001660	0.001740	28.0842	0.145138	0.002027	71.6171	12.1099	-168.226	0.092068	0.265999	-0.754101	-0.755366	0.048637	71.6171	-0.754610	-1.086347E+10	-4.477072E-12	NaN
802	1.000000	0.275266	7.3729e+06	-40239.1	1055.82	-29790.7	0.000000	0.000000	6.274833	-0.014020	NaN	0.000000	0.001659	0.001757	28.0839	0.090034	0.002056	43.785	-77.7806	-162.503	-0.026769	0.274017	-0.746099	-0.747348	-0.014020	43.785	-0.745858	-8.257278E+9	1.697926E-12	NaN
802	1.000000	0.283264	7.3729e+06	-40239.1	1055.82	-29790.7	0.000000	0.000000	6.282833	0.042867	NaN	0.000000	0.001647	0.001721	28.0838	0.036706	0.001990	18.4422	149.756	-166.389	0.070222	0.281945	-0.738101	-0.739419	0.042867	18.4422	-0.739844	-6.837992E+9	-6.268895E-12	NaN
802	1.000000	0.291265	7.3729e+06	-40239.1	1055.82	-29790.7	0.000000	0.000000	6.290833	0.004182	NaN	0.000000	0.001666	0.001740	28.0836	0.048814	0.001875	26.0336	16.8752	-163.692	-0.009834	0.289930	-0.730099	-0.731434	0.004182	26.0336	-0.730219	-5.055886E+9	-8.272264E-13	NaN
802	1.000000	0.299268	7.3729e+06	-40239.1	1055.82	-29790.7	0.000000	0.000000	6.298838	0.067909	NaN	0.000000	0.001624	0.001683	28.0837	0.039946	0.002033	19.651	97.1169	-167.541	0.083530	0.297978	-0.722097	-0.723386	0.067909	19.651	-0.724688	-4.250131E+9	-1.597804E-11	NaN
802	1.000000	0.307280	7.3729e+06	-40239.1	1055.82	-29790.7	0.000000	0.000000	6.306852	0.104079	NaN	0.000000	0.001662	0.001725	28.0838	0.038840	0.002002	19.4027	10.5155	-168.603	0.144259	0.306018	-0.714084	-0.715347	0.104079	19.4027	-0.718107	-3.456655E+9	-3.010985E-11	NaN
802	1.000000	0.315307	7.3729e+06	-40239.1	1055.82	-29790.7	0.000000	0.000000	6.314877	0.082127	NaN	0.000000	0.001660	0.001737	28.0838	0.071641	0.001936	37.0061	-60.8321	-164.666	0.016093	0.313996	-0.706058	-0.707369	0.082127	37.0061	-0.707722	-2.494367E+9	-3.292480E-11	NaN
802	1.000000	0.323267	7.3729e+06	-40239.1	1055.82	-29790.7	0.000000	0.000000	6.322835	0.032377	NaN	0.000000	0.001688	0.001760	28.0839	0.064427	0.001893	34.037	-120.898	-168.233	0.060336	0.322002	-0.698098	-0.699363	0.032377	34.037	-0.698811	-1.884932E+9	-1.717674E-11	NaN
802	1.000000	0.331284	7.3729e+06	-40239.1	1055.82	-29790.7	0.000000	0.000000	6.330855	0.065197	NaN	0.000000	0.001689	0.001738	28.0835	0.022804	0.001923	11.8577	176.704	-168.032	-0.035018	0.329979	-0.690080	-0.691386	0.065197	11.8577	-0.694204	-1.630641E+9	-3.998269E-11	NaN
802	1.000000	0.339278	7.3729e+06	-40239.1	1055.82	-29790.7	0.000000	0.000000	6.338848	0.063334	NaN	0.000000	0.001674	0.001713	28.0839	0.034499	0.002053	16.8046	9.544726	-167.413	0.025321	0.338011	-0.682086	-0.683353	0.063334	16.8046	-0.684913	-1.217254E+9	-5.202984E-11	NaN
802	1.000000	0.347283	7.3729e+06	-40239.1	1055.82	-29790.7	0.000000	0.000000	6.346853	0.066846	NaN	0.000000	0.001644	0.001723	28.0838	0.066316	0.002020	32.8254	-119.205	-163.63	0.008384	0.345984	-0.674082	-0.675381	0.066846	32.8254	-0.675609	-9.081203E+8	-7.360949E-11	NaN
802	1.000000	0.355292	7.3729e+06	-40239.1	1055.82	-29790.7	0.000000	0.000000	6.354861	0.052791	NaN	0.000000	0.001675	0.001724	28.0837	0.140829	0.002001	70.3944	40.0666	-164.301	-0.004579	0.353946	-0.666073	-0.667418	0.052791	70.3944	-0.666635	-6.844310E+8	-7.713066E-11	NaN
802	1.000000	0.363289	7.3729e+06	-40239.1	1055.82	-29790.7	0.000000	0.000000	6.362857	0.010125	NaN	0.000000	0.001653	0.001748	28.0838	0.075214	0.001941	38.7449	-108.846	-164.547	0.006948	0.362027	-0.658075	-0.659337	0.010125	38.7449	-0.658271	-5.257591E+8	-1.925739E-11	NaN
802	1.000000	0.371310	7.3729e+06	-40239.1	1055.82	-29790.7	0.000000	0.000000	6.370878	0.009139	NaN	0.000000	0.001648	0.001739	28.0821	0.045506	0.001999	22.762	142.928	-163.291	0.102084	0.369977	-0.650054	-0.651387	0.009139	22.762	-0.650355	-4.095473E+8	-2.231582E-11	NaN
802	1.000000	0.379319	7.3729e+06	-40239.1	1055.82	-29790.7	0.000000	0.000000	6.378888	0.038773	NaN	0.000000	0.001689	0.001691	28.0824	0.147483	0.002068	71.332	135.539	-162.14	0.118091	0.377993	-0.642045	-0.643371	0.038773	71.332	-0.642453	-3.191118E+8	-1.215025E-10	NaN
802	1.000000	0.387334	7.3729e+06	-40239.1	1055.82	-29790.7	0.000000	0.000000	6.386903	0.052725	NaN	0.000000	0.001697	0.001724	28.0824	0.068949	0.001958	35.2103	117.535	-168.245	0.036691	0.386047	-0.634031	-0.635317	0.052725	35.2103	-0.635154	-2.533850E+8	-2.080812E-10	NaN
802	1.000000	0.395317	7.3729e+06	-40239.1	1055.82	-29790.8	0.000000	0.000000	6.394885	0.014395	NaN	0.000000	0.001680	0.001754	28.0823	0.101805	0.001870	54.4415	141.391	-166.271	0.027475	0.394086	-0.626047	-0.627278	0.014395	54.4415	-0.626246	-1.911866E+8	-7.529359E-11	NaN
802	1.000000	0.403307	7.3729e+06	-40239.1	1055.82	-29790.8	0.000000	0.000000	6.402877	0.048275	NaN	0.000000	0.001655	0.001721	28.0825	0.109845	0.001928	56.9803	-111.376	-163.782	0.129252	0.401980	-0.618057	-0.619384	0.048275	56.9803	-0.618692	-1.505423E+8	-3.206721E-10	NaN
802	1.000000	0.411343	7.3729e+06	-40239.1	1055.82	-29790.8	0.000000	0.000000	6.410911	0.021217	NaN	0.000000	0.001681	0.001732	28.0824	0.075664	0.002066	36.6189	125.243	-169.655	-0.123669	0.410058	-0.610022	-0.611306	0.021217	36.6189	-0.610456	-1.159819E+8	-1.829303E-10	NaN
802	1.000000	0.419333	7.3729e+06	-40239.1	1055.82	-29790.8	0.000000	0.000000	6.418905	0.114690	NaN	0.000000	0.001676	0.001734	28.0828	0.044769	0.001876	23.8609	-120.269	-166.132	0.027050	0.418112	-0.602031	-0.603252	0.114690	23.8609	-0.605636	-9.955540E+7	-1.152027E-9	NaN
802	1.000000	0.427327	7.3729e+06	-40239.1	1055.82	-29790.8	0.000000	0.000000	6.426897	0.060912	NaN	0.000000	0.001672	0.001713	28.0826	0.059559	0.001957	30.4321	-84.0273	-165.458	0.121197	0.426040	-0.594038	-0.595324	0.060912	30.4321	-0.595539	-7.227792E+7	-8.427472E-10	NaN
802	1.000000	0.435337	7.3729e+06	-40239.1	1055.82	-29790.8	0.000000	0.000000	6.434906	0.038844	NaN	0.000000	0.001665	0.001739	28.0823	0.035776	0.002068	17.2961	105.089	-170.487	0.018960	0.434024	-0.586027	-0.587340	0.038844	17.2961	-0.587712	-5.637830E+7	-6.889835E-10	NaN
802	1.000000	0.443330	7.3729e+06	-40239.1	1055.82	-29790.8	0.000000	0.000000	6.442900	0.040193	NaN	0.000000	0.001665	0.001720	28.0824	0.011179	0.002057	5.435107	51.6741	-166.907	-0.004060	0.442100	-0.578034	-0.579265	0.040193	5.435107	-0.583580	-4.944576E+7	-8.128803E-10	NaN
802	1.000000	0.451324	7.3729e+06	-40239.1	1055.82	-29790.8	0.000000	0.000000	6.450891	-0.032297	NaN	0.000000	0.001646	0.001770	28.0823	0.093184	0.001990	46.8236	-179.313	-167.319	-0.041641	0.450030	-0.570040	-0.571335	-0.032297	46.8236	-0.569523	-3.162530E+7	1.021239E-9	NaN
802	1.000000	0.459372	7.3729e+06	-40239.1	1055.82	-29790.8	0.000000	0.000000	6.458939	-0.018694	NaN	0.000000	0.001709	0.001737	28.0828	0.126375	0.002127	59.407	175.478	-165.332	0.031308	0.458063	-0.561992	-0.563302	-0.018694	59.407	-0.561756	-2.469850E+7	7.569057E-10	NaN
802	1.000000	0.467394	7.3729e+06	-40239.1	1055.82	-29790.8	0.000000	0.000000	6.466961	-0.011595	NaN	0.000000	0.001679	0.001736	28.0825	0.076005	0.001993	38.1266	-107.802	-168.441	-0.013550	0.466044	-0.553970	-0.555320	-0.011595	38.1266	-0.553742	-1.913248E+7	6.060544E-10	NaN
802	1.000000	0.475330	7.3729e+06	-40239.1	1055.82	-29790.8	0.000000	0.000000	6.474899	0.037003	NaN	0.000000	0.001723	0.001743	28.0826	0.047120	0.001913	24.6327	128.694	-162.329	0.043727	0.474059	-0.546034	-0.547305	0.037003	24.6327	-0.547161	-1.551040E+7	-2.385658E-9	NaN
802	1.000000	0.483362	7.3729e+06	-40239.1	1055.82	-29790.8	0.000000	0.000000	6.482932	0.054117	NaN	0.000000	0.001727	0.001752	28.0825	0.153127	0.002018	75.8853	-172.015	-166.167	0.093102	0.482074	-0.538002	-0.539291	0.054117	75.8853	-0.538537	-1.177775E+7	-4.594814E-9	NaN
802	1.000000	0.491346	7.3729e+06	-40239.1	1055.82	-29790.8	0.000000	0.000000	6.490915	0.025944	NaN	0.000000	0.001691	0.001762	28.0826	0.047799	0.001974	24.2128	124.393	-165.504	-0.006090	0.490048	-0.530018	-0.531317	0.025944	24.2128	-0.530822	-9.20418e+06	-2.818765E-9	NaN
802	1.000000	0.499361	7.3729e+06	-40239.1	1055.82	-29790.8	0.000000	0.000000	6.498931	0.064275	NaN	0.000000	0.001730	0.001747	28.0829	0.164557	0.001985	82.8927	-174.714	-164.79	0.031921	0.498040	-0.522003	-0.523325	0.064275	82.8927	-0.522585	-7.0719e+06	-9.088784E-9	NaN
802	1.000000	0.507387	7.3729e+06	-40239.1	1055.82	-29790.8	0.000000	0.000000	6.506957	0.060137	NaN	0.000000	0.001710	0.001703	28.0838	0.029575	0.002044	14.4683	162.158	-164.944	0.052736	0.506047	-0.513977	-0.515317	0.060137	14.4683	-0.517095	-5.93173e+06	-1.013823E-8	NaN
802	1.000000	0.515386	7.3729e+06	-40239.1	1055.82	-29790.8	0.000000	0.000000	6.514956	0.076262	NaN	0.000000	0.001706	0.001724	28.084	0.027068	0.001851	14.6255	-99.846	-169.225	0.130344	0.514061	-0.505979	-0.507304	0.076262	14.6255	-0.509889	-4.7084e+06	-1.619701E-8	NaN
802	1.000000	0.523378	7.3729e+06	-40239.1	1055.82	-29790.8	0.000000	0.000000	6.522946	0.007387	NaN	0.000000	0.001696	0.001761	28.0837	0.011038	0.002008	5.497526	114.23	-169.101	-0.034338	0.522075	-0.497986	-0.499289	0.007387	5.497526	-0.498994	-3.31883e+06	-2.225798E-9	NaN
802	1.000000	0.531379	7.3729e+06	-40239.1	1055.82	-29790.8	0.000000	0.000000	6.530948	0.036948	NaN	0.000000	0.001671	0.001766	28.0838	0.036604	0.002064	17.7332	-129.073	-163.8	0.020531	0.530075	-0.489986	-0.491289	0.036948	17.7332	-0.491548	-2.61233e+06	-1.414389E-8	NaN
802	1.000000	0.539404	7.3729e+06	-40239.1	1055.82	-29790.8	0.000000	0.000000	6.538976	0.125048	NaN	0.000000	0.001661	0.001738	28.0837	0.166120	0.002130	77.9858	141.65	-165.621	0.039624	0.538062	-0.481961	-0.483303	0.125048	77.9858	-0.483163	-1.99433e+06	-6.270180E-8	NaN
802	1.000000	0.547363	7.3729e+06	-40239.1	1055.82	-29790.8	0.000000	0.000000	6.546934	0.065326	NaN	0.000000	0.001694	0.001719	28.0837	0.142430	0.002012	70.7886	-177.217	-163.17	0.080863	0.546049	-0.474001	-0.475315	0.065326	70.7886	-0.474693	-1.51775e+06	-4.304154E-8	NaN
802	1.000000	0.555413	7.3729e+06	-40239.1	1055.82	-29790.8	0.000000	0.000000	6.554982	0.042787	NaN	0.000000	0.001694	0.001685	28.0839	0.015209	0.001840	8.266531	-84.4796	-168.558	0.036699	0.554093	-0.465951	-0.467272	0.042787	8.266531	-0.469833	-1.29739e+06	-3.297953E-8	NaN
802	1.000000	0.563387	7.3729e+06	-40239.1	1055.82	-29790.8	0.000000	0.000000	6.562958	0.083493	NaN	0.000000	0.001660	0.001730	28.0837	0.030305	0.002087	14.5209	-69.5099	-166.396	0.105922	0.562126	-0.457978	-0.459238	0.083493	14.5209	-0.462290	-1.0167e+06	-8.212190E-8	NaN
802	1.000000	0.571404	7.3729e+06	-40239.1	1055.82	-29790.8	0.000000	0.000000	6.570971	-0.009063	NaN	0.000000	0.001661	0.001754	28.0838	0.023219	0.002143	10.8349	6.634882	-165.55	0.035427	0.570108	-0.449960	-0.451257	-0.009063	10.8349	-0.449333	-668259	1.356205E-8	NaN
802	1.000000	0.579385	7.3729e+06	-40239.1	1055.82	-29790.8	0.000000	0.000000	6.578955	0.053463	NaN	0.000000	0.001685	0.001731	28.0836	0.054137	0.002063	26.2398	21.76	-169.282	0.105515	0.578084	-0.441979	-0.443281	0.053463	26.2398	-0.443507	-553148	-9.665220E-8	NaN
802	1.000000	0.587425	7.3729e+06	-40239.1	1055.82	-29790.8	0.000000	0.000000	6.586995	0.058599	NaN	0.000000	0.001705	0.001735	28.0837	0.073988	0.002035	36.3557	-1.482023	-168.969	0.071885	0.586125	-0.433939	-0.435239	0.058599	36.3557	-0.435148	-421551	-1.390078E-7	NaN
802	1.000000	0.595434	7.3729e+06	-40239.1	1055.82	-29790.8	0.000000	0.000000	6.595003	0.033357	NaN	0.000000	0.001696	0.001772	28.0837	0.130517	0.002094	62.3274	-127.167	-164.053	0.016963	0.594087	-0.425930	-0.427277	0.033357	62.3274	-0.426331	-316328	-1.054516E-7	NaN
802	1.000000	0.603399	7.3729e+06	-40239.1	1055.82	-29790.8	0.000000	0.000000	6.602967	0.010802	NaN	0.000000	0.001645	0.001739	28.0838	0.070476	0.001967	35.8316	-71.2007	-164.029	0.010826	0.602119	-0.417965	-0.419245	0.010802	35.8316	-0.418191	-242524	-4.454057E-8	NaN
802	1.000000	0.611419	7.3729e+06	-40239.1	1055.82	-29790.8	0.000000	0.000000	6.610987	0.002744	NaN	0.000000	0.001623	0.001714	28.0844	0.077045	0.002071	37.1992	110.068	-168.519	0.059336	0.610149	-0.409945	-0.411215	0.002744	37.1992	-0.410000	-185525	-1.478951E-8	NaN
802	1.000000	0.619391	7.3729e+06	-40239.1	1055.82	-29790.8	0.000000	0.000000	6.618960	0.035770	NaN	0.000000	0.001658	0.001750	28.0865	0.033681	0.001918	17.5594	11.9409	-166.729	0.016223	0.618094	-0.401974	-0.403270	0.035770	17.5594	-0.403501	-149935	-2.385708E-7	NaN
802	1.000000	0.627445	7.3729e+06	-40239.1	1055.82	-29790.8	0.000000	0.000000	6.627013	0.009331	NaN	0.000000	0.001644	0.001772	28.0874	0.074470	0.002052	36.2878	60.433	-165.219	-0.019560	0.626121	-0.393919	-0.395244	0.009331	36.2878	-0.394112	-110142	-8.471614E-8	NaN
802	1.000000	0.635415	7.3729e+06	-40239.1	1055.82	-29790.8	0.000000	0.000000	6.634985	0.066820	NaN	0.000000	0.001653	0.001748	28.0846	0.122500	0.002059	59.507	-154.624	-166.239	-0.004166	0.634150	-0.385949	-0.387214	0.066820	59.507	-0.386791	-86545.5	-7.720791E-7	NaN
802	1.000000	0.643407	7.3729e+06	-40239.1	1055.82	-29790.8	0.000000	0.000000	6.642975	0.023889	NaN	0.000000	0.001644	0.001743	28.083	0.094236	0.002112	44.6225	0.933959	-168.298	0.049079	0.642133	-0.377958	-0.379231	0.023889	44.6225	-0.378359	-65514.3	-3.646372E-7	NaN
802	1.000000	0.651427	7.3729e+06	-40239.1	1055.82	-29790.8	0.000000	0.000000	6.650996	0.035603	NaN	0.000000	0.001704	0.001702	28.0831	0.067401	0.002120	31.7933	-172.876	-166.927	0.053160	0.650085	-0.369937	-0.371280	0.035603	31.7933	-0.370777	-50969.7	-6.985097E-7	NaN
802	1.000000	0.659416	7.3729e+06	-40239.1	1055.82	-29790.8	0.000000	0.000000	6.658983	0.001555	NaN	0.000000	0.001695	0.001733	28.0827	0.088185	0.002038	43.2795	-88.7824	-167.819	0.005032	0.658100	-0.361948	-0.363265	0.001555	43.2795	-0.361975	-38053.1	-4.086926E-8	NaN
802	1.000000	0.667412	7.3729e+06	-40239.1	1055.82	-29790.8	0.000000	0.000000	6.666981	0.026160	NaN	0.000000	0.001711	0.001705	28.0828	0.048347	0.001976	24.4733	-136.854	-169.521	-0.018180	0.666126	-0.353952	-0.355239	0.026160	24.4733	-0.354754	-29917.6	-8.743899E-7	NaN
802	1.000000	0.675442	7.3729e+06	-40239.1	1055.82	-29790.8	0.000000	0.000000	6.675013	0.078866	NaN	0.000000	0.001721	0.001722	28.0828	0.120857	0.002087	57.9052	39.9992	-168.836	0.012365	0.674178	-0.345922	-0.347187	0.078866	57.9052	-0.346944	-23047.2	-3.421946E-6	NaN
802	1.000000	0.683442	7.3729e+06	-40239.1	1055.82	-29790.8	0.000000	0.000000	6.683011	0.030961	NaN	0.000000	0.001698	0.001726	28.0828	0.055012	0.001833	30.0131	-68.6985	-166.566	0.039959	0.682130	-0.337922	-0.339235	0.030961	30.0131	-0.338696	-17479.8	-1.771238E-6	NaN
802	1.000000	0.691445	7.3729e+06	-40239.1	1055.82	-29790.8	0.000000	0.000000	6.691013	0.003327	NaN	0.000000	0.001695	0.001701	28.0828	0.017195	0.001898	9.059757	-0.974847	-164.85	0.021594	0.690142	-0.329919	-0.331222	0.003327	9.059757	-0.330195	-13131.1	-2.533874E-7	NaN
802	1.000000	0.699439	7.3729e+06	-40239.1	1055.82	-29790.8	0.000000	0.000000	6.699008	0.042901	NaN	0.000000	0.001678	0.001714	28.0826	0.047616	0.001846	25.7909	-89.0492	-166.196	0.096461	0.698151	-0.321926	-0.323213	0.042901	25.7909	-0.323173	-10358.7	-4.141568E-6	NaN
802	1.000000	0.707440	7.3729e+06	-40239.1	1055.82	-29790.8	0.000000	0.000000	6.707011	0.096287	NaN	0.000000	0.001673	0.001722	28.0829	0.064177	0.002156	29.7685	-17.3937	-165.126	0.064696	0.706129	-0.313925	-0.315235	0.096287	29.7685	-0.316350	-8219.98	-1.171378E-5	NaN
802	1.000000	0.715456	7.3729e+06	-40239.1	1055.82	-29790.8	0.000000	0.000000	6.715025	0.037131	NaN	0.000000	0.001704	0.001711	28.0822	0.136773	0.002179	62.779	-145.498	-167.448	0.108041	0.714195	-0.305909	-0.307170	0.037131	62.779	-0.306352	-5848.13	-6.349279E-6	NaN
802	1.000000	0.723465	7.3729e+06	-40239.1	1055.82	-29790.8	0.000000	0.000000	6.723034	0.046883	NaN	0.000000	0.001654	0.001713	28.0824	0.007251	0.002032	3.567857	-130.569	-167.089	0.095201	0.722149	-0.297899	-0.299215	0.046883	3.567857	-0.307755	-6134.86	-7.642011E-6	NaN
802	1.000000	0.731477	7.3729e+06	-40239.1	1055.82	-29790.8	0.000000	0.000000	6.731047	0.074564	NaN	0.000000	0.001665	0.001726	28.0823	0.126843	0.001952	64.9793	91.979	-166.693	-0.007601	0.730142	-0.289888	-0.291223	0.074564	64.9793	-0.290748	-3423.81	-2.177802E-5	NaN
802	1.000000	0.739447	7.3729e+06	-40239.1	1055.82	-29790.8	0.000000	0.000000	6.739019	0.094134	NaN	0.000000	0.001633	0.001766	28.0822	0.104732	0.002105	49.7647	-30.3709	-164.82	0.072827	0.738185	-0.281917	-0.283179	0.094134	49.7647	-0.283336	-2649.92	-3.552318E-5	NaN
802	1.000000	0.747446	7.3729e+06	-40239.1	1055.82	-29790.8	0.000000	0.000000	6.747015	0.052869	NaN	0.000000	0.001638	0.001691	28.0826	0.092131	0.001985	46.4063	151.655	-166.735	0.043276	0.746127	-0.273919	-0.275238	0.052869	46.4063	-0.274773	-1967.72	-2.686830E-5	NaN
802	1.000000	0.755488	7.3729e+06	-40239.1	1055.82	-29790.8	0.000000	0.000000	6.755058	0.065141	NaN	0.000000	0.001604	0.001711	28.0822	0.039776	0.001934	20.5636	-60.7509	-167.729	0.039994	0.754167	-0.265877	-0.267197	0.065141	20.5636	-0.268252	-1566.61	-4.158084E-5	NaN
802	1.000000	0.763499	7.3729e+06	-40239.1	1055.82	-29790.8	0.000000	0.000000	6.763070	0.068449	NaN	0.000000	0.001664	0.001741	28.0823	0.036212	0.001981	18.2793	-17.38	-165.352	-0.000856	0.762142	-0.257865	-0.259223	0.068449	18.2793	-0.260674	-1200.16	-5.703354E-5	NaN
802	1.000000	0.771471	7.3729e+06	-40239.1	1055.82	-29790.8	0.000000	0.000000	6.771039	0.012589	NaN	0.000000	0.001666	0.001739	28.0823	0.058153	0.001989	29.2331	-146.321	-166.401	0.120295	0.770114	-0.249893	-0.251250	0.012589	29.2331	-0.250216	-828.526	-1.519489E-5	NaN
802	1.000000	0.779494	7.3729e+06	-40239.1	1055.82	-29790.8	0.000000	0.000000	6.779063	0.034717	NaN	0.000000	0.001633	0.001666	28.0834	0.065850	0.001947	33.8281	-69.2465	-164.724	0.036789	0.778151	-0.241871	-0.243214	0.034717	33.8281	-0.242640	-632.029	-5.492998E-5	NaN
802	1.000000	0.787508	7.3729e+06	-40239.1	1055.82	-29790.8	0.000000	0.000000	6.787079	0.093406	NaN	0.000000	0.001626	0.001675	28.0837	0.060577	0.001991	30.4293	-12.5882	-165.158	0.130963	0.786107	-0.233856	-0.235257	0.093406	30.4293	-0.236159	-500.531	-0.000187	NaN
802	1.000000	0.795478	7.3729e+06	-40239.1	1055.82	-29790.8	0.000000	0.000000	6.795047	0.040558	NaN	0.000000	0.001620	0.001674	28.0834	0.102143	0.002065	49.466	-66.482	-167.742	0.082559	0.794175	-0.225887	-0.227189	0.040558	49.466	-0.226502	-352.504	-0.000115	NaN
802	1.000000	0.803482	7.3729e+06	-40239.1	1055.82	-29790.8	0.000000	0.000000	6.803052	0.062674	NaN	0.000000	0.001605	0.001703	28.0836	0.051071	0.001868	27.347	7.401084	-168.103	0.035668	0.802181	-0.217883	-0.219184	0.062674	27.347	-0.219602	-273.721	-0.000229	NaN
802	1.000000	0.811541	7.3729e+06	-40239.1	1055.82	-29790.8	0.000000	0.000000	6.811109	0.004734	NaN	0.000000	0.001657	0.001697	28.0834	0.021069	0.002002	10.5247	-9.784748	-167.125	-0.027110	0.810175	-0.209824	-0.211189	0.004734	10.5247	-0.210161	-192.941	-2.453839E-5	NaN
802	1.000000	0.819492	7.3729e+06	-40239.1	1055.82	-29790.8	0.000000	0.000000	6.819061	0.027375	NaN	0.000000	0.001603	0.001698	28.0835	0.053804	0.001963	27.4043	76.707	-166.781	-0.034143	0.818235	-0.201872	-0.203130	0.027375	27.4043	-0.202621	-145.443	-0.000188	NaN
802	1.000000	0.827516	7.3729e+06	-40239.1	1055.82	-29790.8	0.000000	0.000000	6.827085	0.039244	NaN	0.000000	0.001643	0.001698	28.0837	0.047738	0.002063	23.1349	137.654	-164.02	0.075434	0.826189	-0.193848	-0.195175	0.039244	23.1349	-0.195120	-109.445	-0.000359	NaN
802	1.000000	0.835488	7.3729e+06	-40239.1	1055.82	-29790.8	0.000000	0.000000	6.835056	0.011615	NaN	0.000000	0.001641	0.001693	28.0834	0.125133	0.002043	61.2527	-21.3796	-167.292	0.001205	0.834170	-0.185877	-0.187194	0.011615	61.2527	-0.186019	-77.1417	-0.000151	NaN
802	1.000000	0.843485	7.3729e+06	-40239.1	1055.82	-29790.8	0.000000	0.000000	6.843055	0.062501	NaN	0.000000	0.001620	0.001670	28.0834	0.119809	0.001921	62.3733	179.383	-163.544	0.015978	0.842201	-0.177879	-0.179163	0.062501	62.3733	-0.178631	-57.8279	-0.001081	NaN
802	1.000000	0.851495	7.3729e+06	-40239.1	1055.82	-29790.8	0.000000	0.000000	6.851061	-0.036803	NaN	0.000000	0.001677	0.001682	28.0835	0.120415	0.001957	61.5248	18.2632	-166.439	-0.077161	0.850203	-0.169869	-0.171161	-0.036803	61.5248	-0.169420	-40.1365	0.000917	NaN
802	1.000000	0.859511	7.3729e+06	-40239.1	1055.82	-29790.8	0.000000	0.000000	6.859080	0.043801	NaN	0.000000	0.001636	0.001676	28.0837	0.041134	0.002109	19.5027	18.6903	-168.575	0.110158	0.858171	-0.161853	-0.163193	0.043801	19.5027	-0.163538	-31.6653	-0.001383	NaN
802	1.000000	0.867482	7.3729e+06	-40239.1	1055.82	-29790.8	0.000000	0.000000	6.867052	0.046794	NaN	0.000000	0.001619	0.001700	28.0835	0.051087	0.002078	24.5789	-166.9	-167.488	0.019583	0.866211	-0.153882	-0.155153	0.046794	24.5789	-0.155310	-22.6023	-0.002070	NaN
802	1.000000	0.875542	7.3729e+06	-40239.1	1055.82	-29790.8	0.000000	0.000000	6.875111	0.045009	NaN	0.000000	0.001644	0.001733	28.0833	0.156666	0.001933	81.066	-159.638	-168.588	0.095602	0.874235	-0.145823	-0.147130	0.045009	81.066	-0.146239	-15.4544	-0.002912	NaN
802	1.000000	0.883523	7.3729e+06	-40239.1	1055.82	-29790.8	0.000000	0.000000	6.883089	-0.030873	NaN	0.000000	0.001629	0.001740	28.0834	0.111911	0.002040	54.8587	39.188	-165.575	-0.021418	0.882212	-0.137842	-0.139153	-0.030873	54.8587	-0.137420	-10.5754	0.002919	NaN
802	1.000000	0.891533	7.3729e+06	-40239.1	1055.82	-29790.8	0.000000	0.000000	6.891103	0.064621	NaN	0.000000	0.001617	0.001696	28.0835	0.027601	0.002037	13.55	153.899	-166.839	0.063197	0.890240	-0.129832	-0.131124	0.064621	13.55	-0.133408	-8.867933	-0.007287	NaN
802	1.000000	0.899526	7.3729e+06	-40239.1	1055.82	-29790.8	0.000000	0.000000	6.899094	0.017554	NaN	0.000000	0.001634	0.001702	28.0836	0.039655	0.001999	19.8333	-73.7739	-164.38	0.127054	0.898217	-0.121839	-0.123147	0.017554	19.8333	-0.122502	-5.424168	-0.003236	NaN
802	1.000000	0.907532	7.3729e+06	-40239.1	1055.82	-29790.8	0.000000	0.000000	6.907100	0.001864	NaN	0.000000	0.001617	0.001687	28.0834	0.097417	0.001931	50.4566	-174.448	-170.055	0.071347	0.906209	-0.113832	-0.115155	0.001864	50.4566	-0.113860	-3.618604	-0.000515	NaN
802	1.000000	0.915548	7.3729e+06	-40239.1	1055.82	-29790.8	0.000000	0.000000	6.915118	0.069227	NaN	0.000000	0.001617	0.001717	28.0825	0.111595	0.001914	58.2974	-158.278	-167.263	0.068389	0.914234	-0.105817	-0.107131	0.069227	58.2974	-0.106707	-2.558000	-0.027063	NaN
802	1.000000	0.923520	7.3729e+06	-40239.1	1055.82	-29790.8	0.000000	0.000000	6.923088	0.017696	NaN	0.000000	0.001611	0.001724	28.082	0.042026	0.002042	20.5841	-178.784	-167.867	0.092688	0.922193	-0.097845	-0.099171	0.017696	20.5841	-0.098489	-1.691027	-0.010465	NaN
802	1.000000	0.931555	7.3729e+06	-40239.1	1055.82	-29790.8	0.000000	0.000000	6.931127	0.108691	NaN	0.000000	0.001619	0.001712	28.0823	0.083290	0.002083	39.9856	134.351	-167.292	0.134451	0.930243	-0.089809	-0.091122	0.108691	39.9856	-0.091848	-1.193788	-0.091047	NaN
802	1.000000	0.939538	7.3729e+06	-40239.1	1055.82	-29790.8	0.000000	0.000000	6.939107	0.045570	NaN	0.000000	0.001645	0.001661	28.0821	0.095152	0.001757	54.1585	-137.653	-165.419	-0.029463	0.938207	-0.081826	-0.083157	0.045570	54.1585	-0.082457	-0.712251	-0.063980	NaN
802	1.000000	0.947578	7.3729e+06	-40239.1	1055.82	-29790.8	0.000000	0.000000	6.947147	0.039568	NaN	0.000000	0.001637	0.001701	28.0821	0.121388	0.001999	60.7145	88.9046	-165.574	0.112850	0.946238	-0.073786	-0.075126	0.039568	60.7145	-0.074275	-0.442303	-0.089460	NaN
802	1.000000	0.955561	7.3729e+06	-40239.1	1055.82	-29790.8	0.000000	0.000000	6.955134	0.122962	NaN	0.000000	0.001643	0.001707	28.0824	0.045336	0.002185	20.7481	-17.8788	-166.593	0.070971	0.954270	-0.065803	-0.067095	0.122962	20.7481	-0.070248	-0.346364	-0.355009	NaN
802	1.000000	0.963575	7.3729e+06	-40239.1	1055.82	-29790.8	0.000000	0.000000	6.963143	0.011087	NaN	0.000000	0.001662	0.001742	28.0821	0.056806	0.001980	28.688	177.835	-162.018	0.129252	0.962244	-0.057790	-0.059120	0.011087	28.688	-0.058079	-0.158514	-0.069946	NaN
802	1.000000	0.971570	7.3729e+06	-40239.1	1055.82	-29790.8	0.000000	0.000000	6.971138	0.014713	NaN	0.000000	0.001581	0.001709	28.0824	0.056103	0.002159	25.9869	114.179	-164.142	-0.087074	0.970278	-0.049794	-0.051086	0.014713	25.9869	-0.050219	-0.092650	-0.158806	NaN
802	1.000000	0.979560	7.3729e+06	-40239.1	1055.82	-29790.8	0.000000	0.000000	6.979131	0.091528	NaN	0.000000	0.001603	0.001723	28.0821	0.078942	0.001909	41.343	-116.313	-164.94	0.052079	0.978250	-0.041805	-0.043114	0.091528	41.343	-0.043465	-0.057683	-1.586753	NaN
802	1.000000	0.987587	7.3729e+06	-40239.1	1055.82	-29790.8	0.000000	0.000000	6.987155	0.025501	NaN	0.000000	0.001641	0.001710	28.0822	0.135714	0.001972	68.8135	-153.666	-165.404	0.039027	0.986260	-0.033778	-0.035105	0.025501	68.8135	-0.034056	-0.030046	-0.848749	NaN
802	1.000000	0.995573	7.3729e+06	-40239.1	1055.82	-29790.8	0.000000	0.000000	6.995142	0.050881	NaN	0.000000	0.001631	0.001704	28.0821	0.063307	0.001980	31.9764	112.036	-165.216	0.041874	0.994210	-0.025792	-0.027154	0.050881	31.9764	-0.026985	-0.019038	-2.672669	NaN
802	1.000000	1.003561	7.3729e+06	-40239.1	1055.82	-29790.8	0.000000	0.000000	7.003130	0.030463	NaN	0.000000	0.001612	0.001728	28.082	0.097641	0.001960	49.8071	-102.182	-165.884	0.083616	1.002267	-0.017804	-0.019097	0.030463	49.8071	-0.018262	-0.011338	-2.686724	NaN
802	1.000000	1.011597	7.3729e+06	-40239.1	1055.82	-29790.8	0.000000	0.000000	7.011165	0.012481	NaN	0.000000	0.001658	0.001729	28.0822	0.052723	0.002127	24.7855	174.228	-164.09	0.063303	1.010276	-0.009767	-0.011089	0.012481	24.7855	-0.010145	-0.006470	-1.928973	NaN
802	1.000000	1.019543	7.3729e+06	-40239.1	1055.82	-29790.8	0.000000	0.000000	7.019180	1.710139	NaN	0.000000	0.001616	0.001694	28.0817	2.274165	0.001988	1143.87	9.989944	-166.025	0.664480	1.018266	-0.001822	-0.003098	1.710139	1143.87	-0.002943	-0.002082	-821.243	NaN
802	2.000000	1.026978	7.3729e+06	-40239.1	1055.82	-29790.8	0.000000	0.000000	7.026940	9.597800	NaN	0.000000	0.001635	0.001697	28.0834	8.429798	0.001532	5501.03	9.360929	-174.196	8.735697	1.026165	0.005614	0.004800	9.597800	5501.03	0.004305	0.003508	2735.82	84854.5
802	2.000000	1.029088	7.3729e+06	-40239.1	1055.82	-29790.8	0.000000	0.000000	7.029194	13.1021	NaN	0.000000	0.001577	0.001690	28.082	10.4234	0.001494	6978.02	2.951776	-173.202	11.7843	1.028748	0.007723	0.007383	13.1021	6978.02	0.006315	0.005366	2441.73	87032.8
802	2.000000	1.031106	7.3729e+06	-40239.1	1055.82	-29790.8	0.000000	0.000000	7.031302	15.3104	NaN	0.000000	0.001627	0.001709	28.0819	13.3386	0.001760	7578.52	5.447036	-174.581	14.685	1.030801	0.009741	0.009437	15.3104	7578.52	0.008226	0.007276	2104.28	81173.8
802	2.000000	1.033066	7.3729e+06	-40239.1	1055.82	-29790.8	0.000000	0.000000	7.033434	19.487	NaN	0.000000	0.001579	0.001743	28.0835	15.4302	0.001633	9446.72	3.500888	-174.989	19.5519	1.032754	0.011702	0.011389	19.487	9446.72	0.010155	0.009354	2083.33	89240.2
802	2.000000	1.035066	7.3729e+06	-40239.1	1055.82	-29790.8	0.000000	0.000000	7.035495	20.9742	NaN	0.000000	0.001638	0.001730	28.0834	17.1688	0.001770	9698.28	5.859498	-177.028	20.689	1.034767	0.013701	0.013402	20.9742	9698.28	0.012079	0.011585	1810.44	82322.2
802	2.000000	1.037094	7.3729e+06	-40239.1	1055.82	-29790.8	0.000000	0.000000	7.037774	27.077	NaN	0.000000	0.001616	0.001716	28.0834	19.2754	0.001897	10160.2	5.547325	-174.854	27.276	1.036789	0.015730	0.015425	27.077	10160.2	0.013731	0.013630	1986.52	79509.7
802	2.000000	1.039049	7.3729e+06	-40239.1	1055.82	-29790.8	0.000000	0.000000	7.039836	29.6718	NaN	0.000000	0.001636	0.001703	28.0835	21.4716	0.001788	12009.6	7.176463	-179.554	29.2293	1.038726	0.017685	0.017361	29.6718	12009.6	0.015832	0.016411	1808.07	85652.2
802	2.000000	1.041018	7.3729e+06	-40239.1	1055.82	-29790.8	0.000000	0.000000	7.042013	34.7361	NaN	0.000000	0.001594	0.001722	28.0832	23.9851	0.001808	13266.2	9.741352	177.464	33.9137	1.040714	0.019653	0.019350	34.7361	13266.2	0.017690	0.019041	1824.28	87836.7
802	2.000000	1.043063	7.3729e+06	-40239.1	1055.82	-29790.8	0.000000	0.000000	7.044281	40.1646	NaN	0.000000	0.001629	0.001713	28.0841	24.9038	0.001888	13191.5	6.863970	-179.34	40.949	1.042746	0.021699	0.021381	40.1646	13191.5	0.019415	0.021631	1856.77	81945.3
802	2.000000	1.044984	7.3729e+06	-40239.1	1055.82	-29790.8	0.000000	0.000000	7.046404	45.0829	NaN	0.000000	0.001630	0.001703	28.0833	26.8976	0.001782	15094.5	3.059084	-176.594	43.5094	1.044694	0.023619	0.023330	45.0829	15094.5	0.021379	0.024756	1821.07	87649.5
802	2.000000	1.046991	7.3729e+06	-40239.1	1055.82	-29790.8	0.000000	0.000000	7.048709	52.3396	NaN	0.000000	0.001636	0.001734	28.0834	29.3277	0.001742	16840	5.468077	179.868	50.789	1.046667	0.025626	0.025303	52.3396	16840	0.023295	0.027987	1870.13	91967.8
802	2.000000	1.049047	7.3729e+06	-40239.1	1055.82	-29790.8	0.000000	0.000000	7.051095	60.3537	NaN	0.000000	0.001589	0.001730	28.0834	30.8238	0.001782	17295.7	1.782119	-177.332	60.663	1.048679	0.027683	0.027315	60.3537	17295.7	0.025066	0.031136	1938.41	89553.6
802	2.000000	1.051026	7.3729e+06	-40239.1	1055.82	-29790.8	0.000000	0.000000	7.053265	65.0126	NaN	0.000000	0.001653	0.001724	28.0833	34.094	0.001821	18727.6	7.470424	176.696	65.6803	1.050677	0.029661	0.029313	65.0126	18727.6	0.027058	0.034866	1864.64	91633.4
802	2.000000	1.052958	7.3729e+06	-40239.1	1055.82	-29790.8	0.000000	0.000000	7.055584	74.4319	NaN	0.000000	0.001634	0.001716	28.0835	34.7288	0.001749	19853.9	2.700855	-179.103	72.1076	1.052678	0.031594	0.031313	74.4319	19853.9	0.028782	0.038257	1945.56	92738.8
802	2.000000	1.054988	7.3729e+06	-40239.1	1055.82	-29790.8	0.000000	0.000000	7.057751	77.764	NaN	0.000000	0.001589	0.001716	28.0832	37.9458	0.001888	20097.1	7.067904	175.931	76.2207	1.054707	0.033623	0.033342	77.764	20097.1	0.030721	0.042252	1840.48	89327
802	2.000000	1.057004	7.3729e+06	-40239.1	1055.82	-29790.8	0.000000	0.000000	7.060263	89.8133	NaN	0.000000	0.001615	0.001747	28.0835	39.1073	0.001811	21595.2	5.401933	177.652	87.3273	1.056624	0.035640	0.035260	89.8133	21595.2	0.032521	0.046131	1946.93	91861.7
802	2.000000	1.058983	7.3729e+06	-40239.1	1055.82	-29790.8	0.000000	0.000000	7.062572	97.863	NaN	0.000000	0.001648	0.001740	28.0834	40.1253	0.001681	23868.7	2.799980	178.753	97.0179	1.058705	0.037618	0.037341	97.863	23868.7	0.034543	0.050688	1930.69	96861.1
802	2.000000	1.060943	7.37291e+06	-40239.1	1055.82	-29790.8	0.000000	0.000000	7.064859	105.823	NaN	0.000000	0.001569	0.001680	28.0836	43.4304	0.001799	24144.4	4.637010	176.934	103.367	1.060669	0.039578	0.039305	105.823	24144.4	0.036291	0.054795	1931.25	94236.6
802	2.000000	1.063026	7.37291e+06	-40239.1	1055.82	-29790.8	0.000000	0.000000	7.067349	115.731	NaN	0.000000	0.001599	0.001722	28.0834	44.5309	0.001682	26475.8	7.605587	173.245	116.949	1.062647	0.041661	0.041283	115.731	26475.8	0.038383	0.059916	1931.55	98821.2
802	2.000000	1.064911	7.37291e+06	-40239.1	1055.82	-29790.8	0.000000	0.000000	7.069608	124.823	NaN	0.000000	0.001607	0.001706	28.0834	47.5277	0.001948	24398.3	3.925866	177.749	120.88	1.064722	0.043546	0.043358	124.823	24398.3	0.039709	0.063279	1972.57	88614
802	2.000000	1.066954	7.37291e+06	-40239.1	1055.82	-29790.8	0.000000	0.000000	7.072058	134.737	NaN	0.000000	0.001613	0.001740	28.0822	48.862	0.001756	27818.9	6.803429	174.81	133.054	1.066646	0.045590	0.045282	134.737	27818.9	0.041957	0.069184	1947.52	96629.7
802	2.000000	1.068967	7.37291e+06	-40239.1	1055.82	-29790.8	0.000000	0.000000	7.074460	144.184	NaN	0.000000	0.001581	0.001715	28.0822	50.1169	0.001815	27617	4.460536	175.845	143.915	1.068734	0.047603	0.047370	144.184	27617	0.043687	0.073903	1950.98	92815
802	2.000000	1.070907	7.37291e+06	-40239.1	1055.82	-29790.8	0.000000	0.000000	7.076831	154.684	NaN	0.000000	0.001607	0.001717	28.0823	51.7241	0.001731	29884.7	1.352491	178.635	150.36	1.070634	0.049542	0.049269	154.684	29884.7	0.045660	0.079473	1946.38	96853.1
802	2.000000	1.072925	7.37291e+06	-40239.1	1055.82	-29790.8	0.000000	0.000000	7.079336	166.537	NaN	0.000000	0.001623	0.001700	28.0822	52.7529	0.001708	30880.2	2.114095	177.17	164.048	1.072677	0.051560	0.051313	166.537	30880.2	0.047516	0.084889	1961.81	96834.1
802	2.000000	1.074937	7.37291e+06	-40239.1	1055.82	-29790.8	0.000000	0.000000	7.081746	176.21	NaN	0.000000	0.001594	0.001712	28.0821	56.3646	0.001810	31142.1	4.016199	175.164	173.056	1.074714	0.053573	0.053350	176.21	31142.1	0.049329	0.090352	1950.27	94656.9
802	2.000000	1.077060	7.37291e+06	-40239.1	1055.82	-29790.8	0.000000	0.000000	7.084292	186.504	NaN	0.000000	0.001631	0.001702	28.0824	58.615	0.001840	31856.7	6.440680	174.39	188.232	1.076581	0.055696	0.055217	186.504	31856.7	0.051305	0.096490	1932.88	93698.5
802	2.000000	1.078941	7.37291e+06	-40239.1	1055.82	-29790.8	0.000000	0.000000	7.086792	201.573	NaN	0.000000	0.001609	0.001718	28.0822	59.7954	0.001781	33574	4.012995	175.492	199.541	1.078646	0.057576	0.057281	201.573	33574	0.053073	0.102149	1973.32	95975.2
802	2.000000	1.080958	7.37291e+06	-40239.1	1055.82	-29790.8	0.000000	0.000000	7.089156	210.018	NaN	0.000000	0.001578	0.001703	28.0823	63.2239	0.001826	34615.6	3.834635	174.737	209.331	1.080663	0.059594	0.059299	210.018	34615.6	0.055043	0.108637	1933.21	95952.4
802	2.000000	1.082878	7.37291e+06	-40239.1	1055.82	-29790.8	0.000000	0.000000	7.091510	220.568	NaN	0.000000	0.001604	0.001774	28.0821	63.0918	0.001787	35301.8	1.899554	176.833	214.853	1.082647	0.061514	0.061283	220.568	35301.8	0.056828	0.114679	1923.36	95241.9
802	2.000000	1.084909	7.37291e+06	-40239.1	1055.82	-29790.8	0.000000	0.000000	7.094052	233.015	NaN	0.000000	0.001606	0.001727	28.0822	65.7681	0.001789	36764.7	-0.212498	178.552	229.734	1.084697	0.063545	0.063333	233.015	36764.7	0.058791	0.121509	1917.68	96360.8
802	2.000000	1.086999	7.37291e+06	-40239.1	1055.82	-29790.8	0.000000	0.000000	7.096828	249.686	NaN	0.000000	0.001581	0.001737	28.0821	68.5148	0.001890	36254	4.013493	175.098	250.271	1.086653	0.065635	0.065289	249.686	36254	0.060470	0.127498	1958.35	92763.5
802	2.000000	1.088947	7.37291e+06	-40239.1	1055.82	-29790.8	0.000000	0.000000	7.099454	266.19	NaN	0.000000	0.001567	0.001725	28.0822	68.934	0.001738	39670.6	1.282445	176.369	264.602	1.088635	0.067583	0.067271	266.19	39670.6	0.062550	0.135111	1970.16	98604.3
802	2.000000	1.090912	7.37291e+06	-40239.1	1055.82	-29790.8	0.000000	0.000000	7.101924	278.492	NaN	0.000000	0.001602	0.001743	28.0819	72.4515	0.001768	40980.3	1.690024	175.995	274.566	1.090671	0.069548	0.069307	278.492	40980.3	0.064451	0.142251	1957.75	99270.6
802	2.000000	1.092927	7.37291e+06	-40239.1	1055.82	-29790.8	0.000000	0.000000	7.104635	295.429	NaN	0.000000	0.001548	0.001718	28.0818	74.8787	0.001871	40013.2	12.7877	165.412	293.169	1.092523	0.071563	0.071159	295.429	40013.2	0.066026	0.148297	1992.14	94931.4
802	2.000000	1.094890	7.37291e+06	-40239.1	1055.82	-29790.8	0.000000	0.000000	7.107242	311.095	NaN	0.000000	0.001619	0.001726	28.082	74.7569	0.001686	44348.1	2.210308	174.929	307.511	1.094601	0.073526	0.073237	311.095	44348.1	0.068265	0.157100	1980.23	102226
802	2.000000	1.096976	7.37291e+06	-40239.1	1055.82	-29790.8	0.000000	0.000000	7.109791	322.371	NaN	0.000000	0.001590	0.001750	28.082	77.6884	0.001829	42473.6	2.207029	175.663	322.982	1.096719	0.075612	0.075355	322.371	42473.6	0.069919	0.163760	1968.56	95893.5
802	2.000000	1.098933	7.37291e+06	-40239.1	1055.82	-29790.8	0.000000	0.000000	7.112363	337.32	NaN	0.000000	0.001609	0.001747	28.082	79.7014	0.001796	44374.8	2.570891	174.924	336.58	1.098622	0.077569	0.077258	337.32	44374.8	0.071868	0.171768	1963.81	97822.4
802	2.000000	1.101034	7.37291e+06	-40239.1	1055.82	-29790.8	0.000000	0.000000	7.115074	352.178	NaN	0.000000	0.001590	0.001690	28.0829	82.776	0.001733	47761.1	2.911278	173.8	356.633	1.100672	0.079669	0.079307	352.178	47761.1	0.074139	0.181332	1942.17	102473
802	2.000000	1.102876	7.37291e+06	-40239.1	1055.82	-29790.8	0.000000	0.000000	7.117633	369.604	NaN	0.000000	0.001605	0.001708	28.0829	83.5139	0.001794	46539.6	3.707793	173.432	367.729	1.102674	0.081512	0.081310	369.604	46539.6	0.075556	0.187419	1972.07	98217.6
802	2.000000	1.104922	7.37291e+06	-40239.1	1055.82	-29790.8	0.000000	0.000000	7.120286	384.389	NaN	0.000000	0.001679	0.001692	28.0833	86.453	0.001769	48883.5	4.373228	172.31	383.67	1.104525	0.083558	0.083161	384.389	48883.5	0.077660	0.196636	1954.82	100717
802	2.000000	1.106802	7.37291e+06	-40239.1	1055.82	-29790.8	0.000000	0.000000	7.122604	395.057	NaN	0.000000	0.001698	0.001725	28.0834	89.3458	0.001821	49055.3	5.832805	170.375	386.797	1.106569	0.085438	0.085204	395.057	49055.3	0.079398	0.204404	1932.73	99132.2
802	2.000000	1.108869	7.37291e+06	-40239.1	1055.82	-29790.8	0.000000	0.000000	7.125488	414.937	NaN	0.000000	0.001702	0.001720	28.0833	90.1055	0.001864	48345.3	3.828929	172.126	410.388	1.108631	0.087505	0.087267	414.937	48345.3	0.081067	0.212000	1957.25	95931.2
802	2.000000	1.110875	7.37291e+06	-40239.1	1055.82	-29790.8	0.000000	0.000000	7.128083	429.25	NaN	0.000000	0.001596	0.001706	28.0832	92.279	0.001764	52317.5	1.931189	173.583	425.007	1.110668	0.089511	0.089304	429.25	52317.5	0.083357	0.222628	1928.11	101305
802	2.000000	1.112897	7.37291e+06	-40239.1	1055.82	-29790.8	0.000000	0.000000	7.131063	452.582	NaN	0.000000	0.001623	0.001681	28.083	93.3816	0.001813	51518.6	6.746901	169.376	451.466	1.112566	0.091532	0.091201	452.582	51518.6	0.084944	0.230133	1966.61	98117.7
802	2.000000	1.114845	7.37291e+06	-40239.1	1055.82	-29790.8	0.000000	0.000000	7.133692	469.142	NaN	0.000000	0.001634	0.001693	28.0834	94.6575	0.001835	51572.2	1.714786	174.763	462.933	1.114537	0.093481	0.093173	469.142	51572.2	0.086658	0.238375	1968.09	96507
802	2.000000	1.116979	7.37291e+06	-40239.1	1055.82	-29790.8	0.000000	0.000000	7.136471	484.844	NaN	0.000000	0.001623	0.001679	28.0832	97.517	0.001867	52227.2	4.236851	172.016	487.119	1.116579	0.095615	0.095215	484.844	52227.2	0.088652	0.248132	1953.98	95791.9
802	2.000000	1.118917	7.37291e+06	-40239.1	1055.82	-29790.8	0.000000	0.000000	7.139339	507.478	NaN	0.000000	0.001643	0.001720	28.0838	97.448	0.001700	57326.2	3.632734	171.665	508.435	1.118623	0.097552	0.097259	507.478	57326.2	0.090913	0.259415	1956.24	102832
802	2.000000	1.120821	7.37291e+06	-40239.1	1055.82	-29790.8	0.000000	0.000000	7.142099	528.31	NaN	0.000000	0.001632	0.001738	28.0833	100.851	0.001697	59445.1	4.581200	170.753	522.423	1.120542	0.099456	0.099177	528.31	59445.1	0.092791	0.268964	1964.24	104723
802	2.000000	1.122882	7.37291e+06	-40239.1	1055.82	-29790.8	0.000000	0.000000	7.144936	547.186	NaN	0.000000	0.001642	0.001723	28.083	100.757	0.001670	60339.3	2.583618	172.738	545.38	1.122436	0.101518	0.101071	547.186	60339.3	0.094716	0.278922	1961.79	104384
802	2.000000	1.124842	7.37291e+06	-40239.1	1055.82	-29790.8	0.000000	0.000000	7.147620	564.796	NaN	0.000000	0.001630	0.001722	28.0833	104.346	0.001767	59057.8	4.767573	170.365	560.431	1.124545	0.103478	0.103180	564.796	59057.8	0.096305	0.287268	1966.1	100672
802	2.000000	1.125462	7.37291e+06	-40239.1	1055.82	-29790.8	0.000000	0.000000	7.148390	568.433	NaN	0.000000	0.001609	0.001708	28.0833	104.363	0.001776	58778	3.311313	-7.967271	566.981	1.124987	0.104098	0.103622	568.433	58778	0.096845	0.290129	1959.24	99699.4