File: remote_trans/data/nanoindenter/0828-1/data/Data_2025-08-06,11h17m57s/2025-07-22_16-23-58_1_1035.txt
2025-07-22, 16:23:58, 1
Index	Phase	Displacement	Time	Pos X	Pos Y	Pos Z	Rot A	Rot B	Piezo Z	Force A	Force B	Gripper	Voltage A	Voltage B	Temperature	Amplitude force	Amplitude pos	Stiffness	Phase shift	Phase excitation	Force A raw	Displacement raw	HMax	HMax raw	Real Force	Real Stiffness	Contact Depth	Area	Hardness	Reduced Mod.
[#]	[#]	[um]	[s]	[um]	[um]	[um]	[m°]	[m°]	[um]	[uN]	[uN]	[V]	[V]	[V]	[°C]	[uN]	[um]	[N/m]	[°]	[°]	[uN]	[um]	[um]	[um]	[uN]	[N/m]	[um]	[um^2]	[MPa]	[MPa]
1035	1.000000	0.002394	7.37517e+06	-51889.1	1055.82	-29750.7	0.000000	0.000000	6.002791	0.095444	NaN	0.000000	0.001544	0.001786	28.0834	0.013814	0.000959	14.3981	-61.7086	-162.127	0.041420	0.001163	-1.107253	-1.108484	0.095444	14.3981	-1.112225	-7.313857E+14	-1.304977E-16	NaN
1035	1.000000	0.012451	7.37517e+06	-51889.1	1055.82	-29750.7	0.000000	0.000000	6.012844	-0.009407	NaN	0.000000	0.001545	0.001763	28.0831	0.045503	0.001157	39.3147	168.592	21.0822	-0.092892	0.011036	-1.097196	-1.098612	-0.009407	39.3147	-1.097017	-4.571071E+14	2.057968E-17	NaN
1035	1.000000	0.022347	7.37517e+06	-51889.1	1055.82	-29750.7	0.000000	0.000000	6.022739	-0.030220	NaN	0.000000	0.001570	0.001731	28.0834	0.120941	0.001711	70.6834	177.902	-163.254	-0.041701	0.021020	-1.087300	-1.088627	-0.030220	70.6834	-1.086980	-3.351606E+14	9.016508E-17	NaN
1035	1.000000	0.032371	7.37517e+06	-51889.1	1055.82	-29750.7	0.000000	0.000000	6.032765	0.027005	NaN	0.000000	0.001523	0.001739	28.0831	0.035319	0.001961	18.0065	3.975491	14.3749	-0.012532	0.030988	-1.077276	-1.078659	0.027005	18.0065	-1.078401	-2.570659E+14	-1.050527E-16	NaN
1035	1.000000	0.042341	7.37517e+06	-51889.1	1055.82	-29750.7	0.000000	0.000000	6.042737	0.073334	NaN	0.000000	0.001550	0.001751	28.0832	0.141266	0.001973	71.6145	-68.6836	-163.949	0.024861	0.041047	-1.067306	-1.068600	0.073334	71.6145	-1.068074	-1.867720E+14	-3.926416E-16	NaN
1035	1.000000	0.052356	7.37517e+06	-51889.1	1055.82	-29750.7	0.000000	0.000000	6.052747	-0.028707	NaN	0.000000	0.001530	0.001766	28.0831	0.075460	0.002034	37.1075	167.126	13.6935	-0.120447	0.051021	-1.057292	-1.058626	-0.028707	37.1075	-1.056711	-1.314083E+14	2.184593E-16	NaN
1035	1.000000	0.062345	7.37517e+06	-51889.1	1055.82	-29750.7	0.000000	0.000000	6.062736	-0.033125	NaN	0.000000	0.001542	0.001750	28.0832	0.094895	0.002009	47.2289	112.795	-165.431	0.008158	0.061015	-1.047302	-1.048632	-0.033125	47.2289	-1.046776	-9.662205E+13	3.428290E-16	NaN
1035	1.000000	0.072361	7.37517e+06	-51889.1	1055.82	-29750.7	0.000000	0.000000	6.072754	0.007011	NaN	0.000000	0.001527	0.001795	28.0831	0.120987	0.001972	61.3676	-125.005	12.8131	-0.022334	0.071003	-1.037286	-1.038644	0.007011	61.3676	-1.037372	-7.221531E+13	-9.708366E-17	NaN
1035	1.000000	0.082398	7.37517e+06	-51889.1	1055.82	-29750.7	0.000000	0.000000	6.082791	0.006226	NaN	0.000000	0.001509	0.001748	28.0819	0.078250	0.001990	39.3143	33.9837	-166.492	0.034433	0.081029	-1.027249	-1.028618	0.006226	39.3143	-1.027368	-5.297588E+13	-1.175174E-16	NaN
1035	1.000000	0.092373	7.37517e+06	-51889.1	1055.82	-29750.7	0.000000	0.000000	6.092764	-0.031690	NaN	0.000000	0.001507	0.001733	28.0824	0.052216	0.002103	24.8321	123.026	13.6425	0.016738	0.090982	-1.017275	-1.018665	-0.031690	24.8321	-1.016317	-3.761850E+13	8.424148E-16	NaN
1035	1.000000	0.102394	7.37517e+06	-51889.1	1055.82	-29750.7	0.000000	0.000000	6.102788	0.020392	NaN	0.000000	0.001549	0.001753	28.082	0.031516	0.002070	15.2285	-100.782	-167.526	0.033298	0.101053	-1.007253	-1.008594	0.020392	15.2285	-1.008257	-2.930392E+13	-6.958769E-16	NaN
1035	1.000000	0.112343	7.37517e+06	-51889.1	1055.82	-29750.7	0.000000	0.000000	6.112736	-0.005694	NaN	0.000000	0.001575	0.001772	28.0824	0.034478	0.001870	18.4375	-45.3185	13.7216	-0.017177	0.111033	-0.997304	-0.998614	-0.005694	18.4375	-0.997072	-2.071799E+13	2.748264E-16	NaN
1035	1.000000	0.122366	7.37517e+06	-51889.1	1055.82	-29750.7	0.000000	0.000000	6.122758	-0.010376	NaN	0.000000	0.001528	0.001732	28.0823	0.015493	0.001947	7.956436	-103.105	-164.865	0.067012	0.121117	-0.987282	-0.988530	-0.010376	7.956436	-0.986303	-1.483626E+13	6.994008E-16	NaN
1035	1.000000	0.132366	7.37517e+06	-51889.1	1055.82	-29750.7	0.000000	0.000000	6.132756	-0.071114	NaN	0.000000	0.001516	0.001766	28.0823	0.024954	0.002016	12.3788	-150.684	17.0265	-0.048080	0.131020	-0.977281	-0.978628	-0.071114	12.3788	-0.972973	-9.811240E+12	7.248254E-15	NaN
1035	1.000000	0.142399	7.37517e+06	-51889.1	1055.82	-29750.7	0.000000	0.000000	6.142790	-0.046808	NaN	0.000000	0.001550	0.001760	28.0818	0.050571	0.001960	25.806	60.0154	-167.124	-0.120387	0.141064	-0.967248	-0.968584	-0.046808	25.806	-0.965888	-7.874774E+12	5.944062E-15	NaN
1035	1.000000	0.152400	7.37517e+06	-51889.1	1055.82	-29750.7	0.000000	0.000000	6.152793	0.003436	NaN	0.000000	0.001545	0.001754	28.0821	0.120916	0.001846	65.4895	-75.893	15.1228	-0.028923	0.151002	-0.957247	-0.958645	0.003436	65.4895	-0.957287	-6.029611E+12	-5.698261E-16	NaN
1035	1.000000	0.162399	7.37517e+06	-51889.1	1055.82	-29750.7	0.000000	0.000000	6.162792	0.015944	NaN	0.000000	0.001543	0.001783	28.0828	0.141293	0.002046	69.0672	-146.606	-165.468	0.040340	0.161078	-0.947248	-0.948569	0.015944	69.0672	-0.947421	-4.438622E+12	-3.592186E-15	NaN
1035	1.000000	0.172400	7.37517e+06	-51889.1	1055.82	-29750.7	0.000000	0.000000	6.172794	0.028857	NaN	0.000000	0.001545	0.001781	28.082	0.079047	0.002063	38.3124	158.085	11.5367	0.052650	0.171065	-0.937247	-0.938582	0.028857	38.3124	-0.937812	-3.293203E+12	-8.762495E-15	NaN
1035	1.000000	0.182433	7.37517e+06	-51889.1	1055.82	-29750.7	0.000000	0.000000	6.182825	-0.014479	NaN	0.000000	0.001535	0.001767	28.0821	0.085600	0.002015	42.4759	-110.334	-167.958	-0.060759	0.181074	-0.927215	-0.928573	-0.014479	42.4759	-0.926959	-2.350457E+12	6.160215E-15	NaN
1035	1.000000	0.192444	7.37517e+06	-51889.1	1055.82	-29750.7	0.000000	0.000000	6.192838	0.032844	NaN	0.000000	0.001528	0.001757	28.082	0.035596	0.002012	17.6899	-149.871	12.5496	0.051825	0.191022	-0.917203	-0.918625	0.032844	17.6899	-0.918596	-1.812378E+12	-1.812200E-14	NaN
1035	1.000000	0.202429	7.37517e+06	-51889.1	1055.82	-29750.7	0.000000	0.000000	6.202819	-0.066628	NaN	0.000000	0.001564	0.001759	28.0824	0.021699	0.001889	11.4846	72.177	-163.5	-0.051154	0.201115	-0.907219	-0.908532	-0.066628	11.4846	-0.902868	-1.111249E+12	5.995773E-14	NaN
1035	1.000000	0.212417	7.37517e+06	-51889.1	1055.82	-29750.7	0.000000	0.000000	6.212808	-0.036992	NaN	0.000000	0.001534	0.001782	28.0822	0.064726	0.002109	30.6912	152.036	9.625264	0.026432	0.211081	-0.897230	-0.898566	-0.036992	30.6912	-0.896326	-9.066106E+11	4.080225E-14	NaN
1035	1.000000	0.222447	7.37517e+06	-51889.1	1055.82	-29750.7	0.000000	0.000000	6.222840	0.005977	NaN	0.000000	0.001570	0.001735	28.0833	0.009695	0.002154	4.500183	150.752	-162.613	0.021455	0.221060	-0.887201	-0.888588	0.005977	4.500183	-0.888197	-7.039435E+11	-8.490878E-15	NaN
1035	1.000000	0.232414	7.37517e+06	-51889.1	1055.82	-29750.7	0.000000	0.000000	6.232807	0.003330	NaN	0.000000	0.001604	0.001726	28.0835	0.062780	0.002018	31.1115	94.7126	12.094	-0.011338	0.231055	-0.877234	-0.878592	0.003330	31.1115	-0.877314	-5.016263E+11	-6.638000E-15	NaN
1035	1.000000	0.242432	7.37517e+06	-51889.1	1055.82	-29750.7	0.000000	0.000000	6.242827	0.047444	NaN	0.000000	0.001553	0.001725	28.0835	0.031812	0.002001	15.8948	-122.866	-164.824	-0.020752	0.241097	-0.867215	-0.868550	0.047444	15.8948	-0.869454	-3.926949E+11	-1.208152E-13	NaN
1035	1.000000	0.252422	7.37517e+06	-51889.1	1055.82	-29750.7	0.000000	0.000000	6.252815	-0.011282	NaN	0.000000	0.001538	0.001752	28.0835	0.141710	0.001896	74.7396	-80.6978	12.5054	0.000181	0.251063	-0.857225	-0.858584	-0.011282	74.7396	-0.857112	-2.673154E+11	4.220297E-14	NaN
1035	1.000000	0.262447	7.37517e+06	-51889.1	1055.82	-29750.7	0.000000	0.000000	6.262840	-0.013778	NaN	0.000000	0.001551	0.001758	28.0834	0.047452	0.002010	23.609	66.5192	-167.61	0.007937	0.261138	-0.847200	-0.848509	-0.013778	23.609	-0.846762	-1.935928E+11	7.116966E-14	NaN
1035	1.000000	0.272433	7.37517e+06	-51889.1	1055.82	-29750.7	0.000000	0.000000	6.272827	0.021439	NaN	0.000000	0.001589	0.001739	28.0839	0.087617	0.002159	40.5801	142.459	13.7559	-0.078725	0.271070	-0.837214	-0.838577	0.021439	40.5801	-0.837610	-1.455171E+11	-1.473266E-13	NaN
1035	1.000000	0.282479	7.37517e+06	-51889.1	1055.82	-29750.7	0.000000	0.000000	6.282877	0.129235	NaN	0.000000	0.001546	0.001711	28.0836	0.141057	0.001951	72.2902	-9.646069	-164.526	0.136896	0.281125	-0.827168	-0.828522	0.129235	72.2902	-0.828509	-1.095399E+11	-1.179794E-12	NaN
1035	1.000000	0.292455	7.37517e+06	-51889.1	1055.82	-29750.7	0.000000	0.000000	6.292848	0.001502	NaN	0.000000	0.001489	0.001752	28.0838	0.160433	0.001849	86.7659	170.363	14.103	-0.005149	0.291076	-0.817192	-0.818571	0.001502	86.7659	-0.817205	-7.696807E+10	-1.951210E-14	NaN
1035	1.000000	0.302469	7.37517e+06	-51889.1	1055.82	-29750.7	0.000000	0.000000	6.302861	-0.008751	NaN	0.000000	0.001576	0.001715	28.0835	0.017784	0.002169	8.199805	-9.318171	-165.122	-0.052187	0.301131	-0.807179	-0.808516	-0.008751	8.199805	-0.806378	-5.488198E+10	1.594454E-13	NaN
1035	1.000000	0.312450	7.37517e+06	-51889.1	1055.82	-29750.7	0.000000	0.000000	6.312842	-0.020032	NaN	0.000000	0.001624	0.001724	28.0838	0.030115	0.002003	15.0383	-137.378	13.549	-0.088677	0.311115	-0.797197	-0.798532	-0.020032	15.0383	-0.796198	-3.992547E+10	5.017229E-13	NaN
1035	1.000000	0.322457	7.37517e+06	-51889.1	1055.82	-29750.7	0.000000	0.000000	6.322850	0.011605	NaN	0.000000	0.001580	0.001726	28.0836	0.014627	0.002029	7.208283	90.0714	-166.63	0.062480	0.321196	-0.787190	-0.788452	0.011605	7.208283	-0.788398	-3.128394E+10	-3.709580E-13	NaN
1035	1.000000	0.332478	7.37517e+06	-51889.1	1055.82	-29750.7	0.000000	0.000000	6.332871	-0.007782	NaN	0.000000	0.001573	0.001748	28.0837	0.068389	0.002016	33.9277	20.8971	14.9669	-0.000148	0.331064	-0.777169	-0.778583	-0.007782	33.9277	-0.776997	-2.189882E+10	3.553754E-13	NaN
1035	1.000000	0.342455	7.37517e+06	-51889.1	1055.82	-29750.7	0.000000	0.000000	6.342848	0.013154	NaN	0.000000	0.001655	0.001727	28.0839	0.123763	0.001952	63.3884	156.534	-167.503	0.097581	0.341175	-0.767192	-0.768473	0.013154	63.3884	-0.767348	-1.618983E+10	-8.125146E-13	NaN
1035	1.000000	0.352473	7.37517e+06	-51889.1	1055.82	-29750.7	0.000000	0.000000	6.352866	0.008149	NaN	0.000000	0.001630	0.001734	28.0828	0.024262	0.002037	11.9084	57.8738	13.8159	0.045773	0.351130	-0.757174	-0.758518	0.008149	11.9084	-0.757687	-1.196293E+10	-6.812122E-13	NaN
1035	1.000000	0.362503	7.37517e+06	-51889.1	1055.82	-29750.7	0.000000	0.000000	6.362896	0.015447	NaN	0.000000	0.001629	0.001711	28.0824	0.117000	0.001947	60.1032	-170.11	-167.189	-0.064186	0.361169	-0.747144	-0.748478	0.015447	60.1032	-0.747337	-8.649030E+9	-1.786023E-12	NaN
1035	1.000000	0.372509	7.37517e+06	-51889.1	1055.82	-29750.7	0.000000	0.000000	6.372900	-0.041383	NaN	0.000000	0.001627	0.001733	28.0821	0.128108	0.002007	63.8374	109.074	10.1784	-0.076054	0.371085	-0.737138	-0.738563	-0.041383	63.8374	-0.736652	-6.186602E+9	6.689093E-12	NaN
1035	1.000000	0.382446	7.37517e+06	-51889.1	1055.82	-29750.7	0.000000	0.000000	6.382837	-0.051657	NaN	0.000000	0.001636	0.001765	28.0824	0.097035	0.002091	46.4008	-173.611	-165.544	-0.009792	0.381161	-0.727201	-0.728486	-0.051657	46.4008	-0.726366	-4.479985E+9	1.153059E-11	NaN
1035	1.000000	0.392502	7.37517e+06	-51889.1	1055.82	-29750.7	0.000000	0.000000	6.392893	-0.050674	NaN	0.000000	0.001623	0.001724	28.0823	0.130056	0.001906	68.2272	153.026	12.9409	-0.028705	0.391177	-0.717145	-0.718470	-0.050674	68.2272	-0.716588	-3.295609E+9	1.537619E-11	NaN
1035	1.000000	0.402523	7.37517e+06	-51889.1	1055.82	-29750.7	0.000000	0.000000	6.402916	0.010780	NaN	0.000000	0.001608	0.001770	28.0824	0.057796	0.002076	27.8419	-45.854	-167.818	-0.037127	0.401222	-0.707124	-0.708426	0.010780	27.8419	-0.707415	-2.470388E+9	-4.363697E-12	NaN
1035	1.000000	0.412513	7.37517e+06	-51889.1	1055.82	-29750.7	0.000000	0.000000	6.412907	0.048296	NaN	0.000000	0.001624	0.001757	28.0824	0.079325	0.001962	40.4398	-128.945	15.228	-0.010371	0.411123	-0.697135	-0.698524	0.048296	40.4398	-0.698030	-1.839205E+9	-2.625911E-11	NaN
1035	1.000000	0.422507	7.37517e+06	-51889.1	1055.82	-29750.7	0.000000	0.000000	6.422902	0.035861	NaN	0.000000	0.001630	0.001742	28.0826	0.029014	0.001988	14.5969	140.66	-169.128	-0.089538	0.421222	-0.687140	-0.688425	0.035861	14.5969	-0.688982	-1.383598E+9	-2.591901E-11	NaN
1035	1.000000	0.432510	7.37517e+06	-51889.1	1055.82	-29750.7	0.000000	0.000000	6.432903	0.019261	NaN	0.000000	0.001591	0.001769	28.0823	0.101224	0.002092	48.3919	132.588	12.0058	-0.031089	0.431184	-0.677137	-0.678464	0.019261	48.3919	-0.677436	-9.619093E+8	-2.002361E-11	NaN
1035	1.000000	0.442550	7.37517e+06	-51889.1	1055.82	-29750.7	0.000000	0.000000	6.442940	-0.051719	NaN	0.000000	0.001607	0.001751	28.0825	0.081301	0.001936	42.002	96.5376	-164.884	-0.066691	0.441214	-0.667097	-0.668433	-0.051719	42.002	-0.666174	-6.745512E+8	7.667190E-11	NaN
1035	1.000000	0.452545	7.37517e+06	-51889.1	1055.82	-29750.7	0.000000	0.000000	6.452939	0.030932	NaN	0.000000	0.001584	0.001731	28.0829	0.020400	0.002017	10.1157	-17.0709	12.9738	-0.008623	0.451155	-0.657102	-0.658492	0.030932	10.1157	-0.659395	-5.447354E+8	-5.678313E-11	NaN
1035	1.000000	0.462546	7.37517e+06	-51889.1	1055.82	-29750.7	0.000000	0.000000	6.462937	-0.038694	NaN	0.000000	0.001597	0.001741	28.0823	0.072572	0.002000	36.279	154.416	-165.967	-0.064390	0.461203	-0.647101	-0.648444	-0.038694	36.279	-0.646301	-3.603509E+8	1.073796E-10	NaN
1035	1.000000	0.472530	7.37517e+06	-51889.1	1055.82	-29750.7	0.000000	0.000000	6.472921	-0.052337	NaN	0.000000	0.001591	0.001768	28.0823	0.087852	0.001798	48.8545	-160.189	14.0153	-0.009470	0.471181	-0.637117	-0.638467	-0.052337	48.8545	-0.636314	-2.628461E+8	1.991183E-10	NaN
1035	1.000000	0.482541	7.37517e+06	-51889.1	1055.82	-29750.7	0.000000	0.000000	6.482933	-0.032203	NaN	0.000000	0.001577	0.001746	28.0824	0.102063	0.002019	50.5577	-139.645	-164.609	0.001594	0.481241	-0.627106	-0.628406	-0.032203	50.5577	-0.626628	-1.935150E+8	1.664104E-10	NaN
1035	1.000000	0.492515	7.37517e+06	-51889.1	1055.82	-29750.7	0.000000	0.000000	6.492908	0.003331	NaN	0.000000	0.001613	0.001733	28.0836	0.072791	0.002022	35.994	141.441	16.9491	0.034217	0.491217	-0.617132	-0.618430	0.003331	35.994	-0.617202	-1.436037E+8	-2.319296E-11	NaN
1035	1.000000	0.502537	7.37517e+06	-51889.1	1055.82	-29750.7	0.000000	0.000000	6.502929	-0.001500	NaN	0.000000	0.001585	0.001724	28.0836	0.152795	0.002096	72.8868	174.048	-167.319	-0.027279	0.501267	-0.607111	-0.608380	-0.001500	72.8868	-0.607095	-1.042658E+8	1.438802E-11	NaN
1035	1.000000	0.512557	7.37517e+06	-51889.1	1055.82	-29750.7	0.000000	0.000000	6.512950	0.000722	NaN	0.000000	0.001572	0.001742	28.0833	0.125568	0.002158	58.2001	102.184	12.9221	-0.045015	0.511163	-0.597090	-0.598484	0.000722	58.2001	-0.597100	-7.594712E+7	-9.506944E-12	NaN
1035	1.000000	0.522577	7.37517e+06	-51889.1	1055.82	-29750.7	0.000000	0.000000	6.522967	-0.066174	NaN	0.000000	0.001581	0.001698	28.0837	0.061384	0.002032	30.202	-14.4084	-163.778	-0.073350	0.521237	-0.587071	-0.588410	-0.066174	30.202	-0.585427	-5.243357E+7	1.262048E-9	NaN
1035	1.000000	0.532562	7.37517e+06	-51889.1	1055.82	-29750.7	0.000000	0.000000	6.532953	-0.037092	NaN	0.000000	0.001616	0.001679	28.0834	0.106257	0.001925	55.1914	138.137	15.1403	0.028378	0.531201	-0.577086	-0.578446	-0.037092	55.1914	-0.576581	-3.958545E+7	9.370033E-10	NaN
1035	1.000000	0.542563	7.37517e+06	-51889.1	1055.82	-29750.7	0.000000	0.000000	6.542955	-0.017714	NaN	0.000000	0.001611	0.001738	28.0834	0.043920	0.002050	21.4229	155.929	-168.578	-0.044425	0.541279	-0.567084	-0.568368	-0.017714	21.4229	-0.566464	-2.869240E+7	6.173791E-10	NaN
1035	1.000000	0.552577	7.37517e+06	-51889.1	1055.82	-29750.7	0.000000	0.000000	6.552969	-0.026015	NaN	0.000000	0.001600	0.001747	28.0834	0.047714	0.001990	23.9725	159.568	15.8444	-0.016525	0.551203	-0.557070	-0.558444	-0.026015	23.9725	-0.556256	-2.072877E+7	1.255020E-9	NaN
1035	1.000000	0.562552	7.37517e+06	-51889.1	1055.82	-29750.7	0.000000	0.000000	6.562946	0.014913	NaN	0.000000	0.001554	0.001754	28.0836	0.140956	0.001874	75.2176	134.032	-169.668	0.132599	0.561218	-0.547095	-0.548429	0.014913	75.2176	-0.547243	-1.555139E+7	-9.589388E-10	NaN
1035	1.000000	0.572582	7.37517e+06	-51889.1	1055.82	-29750.7	0.000000	0.000000	6.572974	-0.019460	NaN	0.000000	0.001583	0.001722	28.0836	0.045305	0.001990	22.7634	-20.837	12.709	-0.080029	0.571195	-0.537065	-0.538452	-0.019460	22.7634	-0.536424	-1.100897E+7	1.767645E-9	NaN
1035	1.000000	0.582563	7.37517e+06	-51889.1	1055.82	-29750.7	0.000000	0.000000	6.582957	0.035166	NaN	0.000000	0.001567	0.001713	28.0835	0.095768	0.002028	47.2298	50.0008	-165.967	0.021530	0.581220	-0.527084	-0.528427	0.035166	47.2298	-0.527643	-8.31438e+06	-4.229572E-9	NaN
1035	1.000000	0.592586	7.37517e+06	-51889.1	1055.82	-29750.7	0.000000	0.000000	6.592979	0.010241	NaN	0.000000	0.001542	0.001716	28.0835	0.002455	0.002099	1.169378	92.1892	17.7176	0.019157	0.591271	-0.517061	-0.518376	0.010241	1.169378	-0.523629	-7.3124e+06	-1.400433E-9	NaN
1035	1.000000	0.602585	7.37517e+06	-51889.1	1055.82	-29750.7	0.000000	0.000000	6.602977	-0.010063	NaN	0.000000	0.001551	0.001752	28.0837	0.095393	0.002010	47.4623	-52.1802	-166.773	-0.013140	0.601204	-0.507062	-0.508444	-0.010063	47.4623	-0.506903	-4.27833e+06	2.352091E-9	NaN
1035	1.000000	0.612619	7.37517e+06	-51889.1	1055.82	-29750.7	0.000000	0.000000	6.613014	0.055343	NaN	0.000000	0.001590	0.001758	28.0835	0.091807	0.002006	45.7676	-11.9515	16.2392	0.048175	0.611245	-0.497029	-0.498402	0.055343	45.7676	-0.497936	-3.20784e+06	-1.725233E-8	NaN
1035	1.000000	0.622599	7.37517e+06	-51889.1	1055.82	-29750.7	0.000000	0.000000	6.622992	0.010121	NaN	0.000000	0.001609	0.001744	28.0836	0.128762	0.001955	65.864	-87.7377	-164.823	0.092609	0.621285	-0.487048	-0.488362	0.010121	65.864	-0.487163	-2.26851e+06	-4.461370E-9	NaN
1035	1.000000	0.632620	7.37517e+06	-51889.1	1055.82	-29750.7	0.000000	0.000000	6.633015	0.051642	NaN	0.000000	0.001580	0.001757	28.0823	0.098524	0.002105	46.8152	-138.149	10.7789	0.015817	0.631245	-0.477027	-0.478402	0.051642	46.8152	-0.477854	-1.68068e+06	-3.072697E-8	NaN
1035	1.000000	0.642590	7.37517e+06	-51889.1	1055.82	-29750.7	0.000000	0.000000	6.642984	0.012311	NaN	0.000000	0.001588	0.001717	28.0824	0.032924	0.001918	17.165	-97.5204	-165.598	0.059577	0.641294	-0.467057	-0.468353	0.012311	17.165	-0.467595	-1.20688e+06	-1.020107E-8	NaN
1035	1.000000	0.652621	7.37517e+06	-51889.1	1055.82	-29750.7	0.000000	0.000000	6.653012	-0.026362	NaN	0.000000	0.001568	0.001734	28.0822	0.036422	0.001961	18.5694	-148.027	14.6786	0.117284	0.651262	-0.457027	-0.458385	-0.026362	18.5694	-0.455962	-828414	3.182179E-8	NaN
1035	1.000000	0.662587	7.37517e+06	-51889.1	1055.82	-29750.7	0.000000	0.000000	6.662979	-0.017985	NaN	0.000000	0.001581	0.001734	28.0824	0.068782	0.001904	36.1314	40.4493	-162.631	-0.053069	0.661287	-0.447060	-0.448360	-0.017985	36.1314	-0.446687	-613295	2.932443E-8	NaN
1035	1.000000	0.672644	7.37517e+06	-51889.1	1055.82	-29750.7	0.000000	0.000000	6.673037	0.028870	NaN	0.000000	0.001585	0.001721	28.0825	0.070520	0.001878	37.5465	-69.7839	14.3497	0.011036	0.671255	-0.437004	-0.438392	0.028870	37.5465	-0.437580	-456251	-6.327726E-8	NaN
1035	1.000000	0.682642	7.37517e+06	-51889.1	1055.82	-29750.7	0.000000	0.000000	6.683032	-0.060394	NaN	0.000000	0.001574	0.001698	28.0824	0.064563	0.002010	32.119	-85.2469	-164.171	0.008747	0.681358	-0.427005	-0.428289	-0.060394	32.119	-0.425595	-308826	1.955593E-7	NaN
1035	1.000000	0.692632	7.37517e+06	-51889.1	1055.82	-29750.7	0.000000	0.000000	6.693025	0.021879	NaN	0.000000	0.001573	0.001728	28.0823	0.096165	0.002054	46.8238	167.496	13.9193	0.015624	0.691223	-0.417015	-0.418424	0.021879	46.8238	-0.417366	-236072	-9.267895E-8	NaN
1035	1.000000	0.702636	7.37517e+06	-51889.1	1055.82	-29750.7	0.000000	0.000000	6.703027	-0.059409	NaN	0.000000	0.001542	0.001721	28.0823	0.032389	0.002120	15.2745	-112.247	-168.437	0.021514	0.701337	-0.407011	-0.408310	-0.059409	15.2745	-0.404094	-152877	3.886046E-7	NaN
1035	1.000000	0.712647	7.37517e+06	-51889.1	1055.82	-29750.7	0.000000	0.000000	6.713038	-0.045682	NaN	0.000000	0.001581	0.001766	28.0826	0.042046	0.002029	20.7223	-76.5497	15.4338	-0.014134	0.711279	-0.397000	-0.398368	-0.045682	20.7223	-0.395347	-114708	3.982446E-7	NaN
1035	1.000000	0.722629	7.37517e+06	-51889.1	1055.82	-29750.7	0.000000	0.000000	6.723022	-0.015042	NaN	0.000000	0.001558	0.001748	28.0824	0.069508	0.002138	32.5085	70.7902	-167.194	-0.050691	0.721374	-0.387018	-0.388274	-0.015042	32.5085	-0.386671	-86201.9	1.745022E-7	NaN
1035	1.000000	0.732606	7.37517e+06	-51889.1	1055.82	-29750.7	0.000000	0.000000	6.732998	-0.018774	NaN	0.000000	0.001546	0.001768	28.0823	0.143235	0.002133	67.1436	-19.1194	16.5675	-0.038874	0.731258	-0.377041	-0.378389	-0.018774	67.1436	-0.376831	-62285.7	3.014139E-7	NaN
1035	1.000000	0.742632	7.37517e+06	-51889.1	1055.82	-29750.7	0.000000	0.000000	6.743023	-0.039730	NaN	0.000000	0.001608	0.001758	28.0824	0.105918	0.002035	52.0406	8.255585	-166.956	-0.030056	0.741384	-0.367016	-0.368263	-0.039730	52.0406	-0.366443	-44143.7	9.000186E-7	NaN
1035	1.000000	0.752653	7.37517e+06	-51889.1	1055.82	-29750.7	0.000000	0.000000	6.753045	-0.029200	NaN	0.000000	0.001571	0.001729	28.0825	0.110032	0.001958	56.1884	120.147	14.2357	-0.019067	0.751293	-0.356994	-0.358354	-0.029200	56.1884	-0.356604	-31821.9	9.175972E-7	NaN
1035	1.000000	0.762675	7.37517e+06	-51889.1	1055.82	-29750.7	0.000000	0.000000	6.763066	-0.054817	NaN	0.000000	0.001531	0.001724	28.0829	0.103929	0.002030	51.2022	-104.001	-168.786	0.031471	0.761422	-0.346972	-0.348225	-0.054817	51.2022	-0.346169	-22457.2	2.440932E-6	NaN
1035	1.000000	0.772660	7.37518e+06	-51889.1	1055.82	-29750.7	0.000000	0.000000	6.773052	-0.019814	NaN	0.000000	0.001541	0.001717	28.0837	0.046995	0.002017	23.2981	94.7793	13.8207	-0.007211	0.771335	-0.336987	-0.338312	-0.019814	23.2981	-0.336349	-16154.6	1.226527E-6	NaN
1035	1.000000	0.782680	7.37518e+06	-51889.1	1055.82	-29750.7	0.000000	0.000000	6.783068	-0.100399	NaN	0.000000	0.001571	0.001724	28.0837	0.106489	0.002084	51.0881	87.9873	-168.958	-0.005865	0.781359	-0.326968	-0.328288	-0.100399	51.0881	-0.325494	-11204.3	8.960751E-6	NaN
1035	1.000000	0.792658	7.37518e+06	-51889.1	1055.82	-29750.7	0.000000	0.000000	6.793053	0.062288	NaN	0.000000	0.001492	0.001764	28.0835	0.122649	0.001932	63.491	-43.2686	14.2069	0.027432	0.791314	-0.316989	-0.318333	0.062288	63.491	-0.317725	-8612.59	-7.232150E-6	NaN
1035	1.000000	0.802669	7.37518e+06	-51889.1	1055.82	-29750.7	0.000000	0.000000	6.803062	0.018166	NaN	0.000000	0.001553	0.001755	28.0835	0.045225	0.001994	22.6756	97.7077	-166.774	-0.036547	0.801344	-0.306978	-0.308304	0.018166	22.6756	-0.307579	-6098.24	-2.978947E-6	NaN
1035	1.000000	0.812697	7.37518e+06	-51889.1	1055.82	-29750.7	0.000000	0.000000	6.813090	0.000790	NaN	0.000000	0.001563	0.001734	28.0835	0.055551	0.001971	28.1837	177.185	16.4592	0.029473	0.811332	-0.296950	-0.298315	0.000790	28.1837	-0.296971	-4241.33	-1.861652E-7	NaN
1035	1.000000	0.822656	7.37518e+06	-51889.1	1055.82	-29750.7	0.000000	0.000000	6.823050	0.013951	NaN	0.000000	0.001504	0.001756	28.0838	0.108972	0.001961	55.5731	140.306	-167.958	0.063463	0.821382	-0.286991	-0.288265	0.013951	55.5731	-0.287179	-3026.92	-4.609131E-6	NaN
1035	1.000000	0.832690	7.37518e+06	-51889.1	1055.82	-29750.7	0.000000	0.000000	6.833081	-0.034978	NaN	0.000000	0.001541	0.001727	28.0834	0.079982	0.002060	38.8183	-58.4009	11.237	0.018500	0.831344	-0.276957	-0.278303	-0.034978	38.8183	-0.276282	-2073.94	1.686559E-5	NaN
1035	1.000000	0.842702	7.37518e+06	-51889.1	1055.82	-29750.7	0.000000	0.000000	6.843096	0.010797	NaN	0.000000	0.001543	0.001763	28.0835	0.026201	0.001902	13.7768	-174.111	-166.63	0.027092	0.841395	-0.266945	-0.268253	0.010797	13.7768	-0.267533	-1527.58	-7.068287E-6	NaN
1035	1.000000	0.852677	7.37518e+06	-51889.1	1055.82	-29750.7	0.000000	0.000000	6.853071	0.031119	NaN	0.000000	0.001550	0.001746	28.0835	0.032326	0.001960	16.49	157.496	17.2171	0.021538	0.851343	-0.256970	-0.258305	0.031119	16.49	-0.258385	-1107.01	-2.811056E-5	NaN
1035	1.000000	0.862684	7.37518e+06	-51889.1	1055.82	-29750.7	0.000000	0.000000	6.863074	-0.068009	NaN	0.000000	0.001583	0.001721	28.0838	0.098395	0.001931	50.9588	-106.3	-166.176	-0.019155	0.861362	-0.246963	-0.248285	-0.068009	50.9588	-0.245962	-711.865	9.553604E-5	NaN
1035	1.000000	0.872666	7.37518e+06	-51889.1	1055.82	-29750.7	0.000000	0.000000	6.873060	0.032286	NaN	0.000000	0.001598	0.001704	28.0833	0.061390	0.001943	31.5984	113.114	12.4138	0.019070	0.871332	-0.236981	-0.238316	0.032286	31.5984	-0.237747	-530.061	-6.090969E-5	NaN
1035	1.000000	0.882695	7.37518e+06	-51889.1	1055.82	-29750.7	0.000000	0.000000	6.883089	0.029102	NaN	0.000000	0.001591	0.001743	28.0833	0.020815	0.001990	10.4614	14.4536	-163.711	-0.011109	0.881403	-0.226953	-0.228244	0.029102	10.4614	-0.229039	-386.663	-7.526466E-5	NaN
1035	1.000000	0.892692	7.37518e+06	-51889.1	1055.82	-29750.7	0.000000	0.000000	6.893085	0.016599	NaN	0.000000	0.001606	0.001741	28.0835	0.082500	0.001909	43.2159	160.11	8.800929	0.020072	0.891291	-0.216955	-0.218356	0.016599	43.2159	-0.217243	-250.926	-6.615277E-5	NaN
1035	1.000000	0.902725	7.37518e+06	-51889.1	1055.82	-29750.7	0.000000	0.000000	6.903117	-0.015940	NaN	0.000000	0.001522	0.001779	28.0821	0.098140	0.001963	50.0013	32.1457	-167.078	0.037824	0.901363	-0.206923	-0.208284	-0.015940	50.0013	-0.206684	-169.428	9.407869E-5	NaN
1035	1.000000	0.912723	7.37518e+06	-51889.1	1055.82	-29750.7	0.000000	0.000000	6.913113	-0.066188	NaN	0.000000	0.001559	0.001733	28.0822	0.031755	0.001999	15.8848	118.292	13.8053	-0.027893	0.911356	-0.196924	-0.198291	-0.066188	15.8848	-0.193799	-104.061	0.000636	NaN
1035	1.000000	0.922714	7.37518e+06	-51889.1	1055.82	-29750.7	0.000000	0.000000	6.923107	0.015464	NaN	0.000000	0.001568	0.001741	28.0822	0.016364	0.002080	7.868105	6.111268	-166.258	0.032976	0.921420	-0.186934	-0.188228	0.015464	7.868105	-0.188408	-84.6042	-0.000183	NaN
1035	1.000000	0.932732	7.37518e+06	-51889.1	1055.82	-29750.7	0.000000	0.000000	6.933124	-0.009782	NaN	0.000000	0.001578	0.001772	28.0825	0.071280	0.001989	35.8325	159.542	15.9017	0.017986	0.931354	-0.176915	-0.178293	-0.009782	35.8325	-0.176711	-53.6196	0.000182	NaN
1035	1.000000	0.942712	7.37518e+06	-51889.1	1055.82	-29750.7	0.000000	0.000000	6.943105	0.000252	NaN	0.000000	0.001615	0.001766	28.0821	0.049187	0.001855	26.5106	42.8783	-167.833	-0.065990	0.941425	-0.166935	-0.168222	0.000252	26.5106	-0.166943	-36.3364	-6.926736E-6	NaN
1035	1.000000	0.952738	7.37518e+06	-51889.1	1055.82	-29750.7	0.000000	0.000000	6.953127	-0.074818	NaN	0.000000	0.001560	0.001759	28.0823	0.007926	0.002056	3.855481	-84.6967	17.1119	-0.039323	0.951374	-0.156910	-0.158273	-0.074818	3.855481	-0.142355	-13.0933	0.005714	NaN
1035	1.000000	0.962722	7.37518e+06	-51889.1	1055.82	-29750.7	0.000000	0.000000	6.963116	0.040958	NaN	0.000000	0.001609	0.001758	28.0822	0.086915	0.002012	43.1974	-25.5723	-165.468	-0.011207	0.961392	-0.146925	-0.148256	0.040958	43.1974	-0.147637	-16.3967	-0.002498	NaN
1035	1.000000	0.972749	7.37518e+06	-51889.1	1055.82	-29750.7	0.000000	0.000000	6.973143	0.026697	NaN	0.000000	0.001613	0.001759	28.0825	0.050140	0.001934	25.9189	86.0759	12.6611	-0.005485	0.971357	-0.136898	-0.138290	0.026697	25.9189	-0.137671	-10.6919	-0.002497	NaN
1035	1.000000	0.982766	7.37518e+06	-51889.1	1055.82	-29750.7	0.000000	0.000000	6.983160	0.029846	NaN	0.000000	0.001602	0.001737	28.0821	0.106335	0.001946	54.6384	-75.5647	-167.624	0.019213	0.981412	-0.126881	-0.128235	0.029846	54.6384	-0.127290	-6.747148	-0.004423	NaN
1035	1.000000	0.992732	7.37518e+06	-51889.1	1055.82	-29750.7	0.000000	0.000000	6.993124	-0.024515	NaN	0.000000	0.001635	0.001753	28.082	0.084215	0.002038	41.3268	-119.261	11.1192	0.030756	0.991414	-0.116915	-0.118233	-0.024515	41.3268	-0.116470	-4.095567	0.005986	NaN
1035	1.000000	1.002742	7.37518e+06	-51889.1	1055.82	-29750.7	0.000000	0.000000	7.003136	0.009959	NaN	0.000000	0.001614	0.001779	28.0823	0.103155	0.002046	50.4085	122.733	-165.89	-0.027658	1.001411	-0.106905	-0.108237	0.009959	50.4085	-0.107053	-2.601938	-0.003828	NaN
1035	1.000000	1.012717	7.37518e+06	-51889.1	1055.82	-29750.7	0.000000	0.000000	7.013110	0.015164	NaN	0.000000	0.001594	0.001736	28.0821	0.075538	0.002091	36.1279	114.737	13.4623	-0.024811	1.011406	-0.096931	-0.098241	0.015164	36.1279	-0.097245	-1.585833	-0.009562	NaN
1035	1.000000	1.022754	7.37518e+06	-51889.1	1055.82	-29750.7	0.000000	0.000000	7.023145	-0.040797	NaN	0.000000	0.001606	0.001787	28.0821	0.043126	0.001932	22.3193	-15.4508	-167.089	-0.059048	1.021435	-0.086893	-0.088212	-0.040797	22.3193	-0.085523	-0.845874	0.048230	NaN
1035	1.000000	1.032734	7.37518e+06	-51889.1	1055.82	-29750.7	0.000000	0.000000	7.033126	-0.003664	NaN	0.000000	0.001602	0.001730	28.082	0.083276	0.002037	40.8733	-26.8829	16.1423	-0.046076	1.031441	-0.076914	-0.078206	-0.003664	40.8733	-0.076846	-0.515208	0.007112	NaN
1035	1.000000	1.042750	7.37518e+06	-51889.1	1055.82	-29750.7	0.000000	0.000000	7.043143	0.005898	NaN	0.000000	0.001563	0.001756	28.0836	0.041262	0.002036	20.2623	165.53	-162.941	0.026383	1.041453	-0.066897	-0.068194	0.005898	20.2623	-0.067115	-0.284989	-0.020696	NaN
1035	1.000000	1.052757	7.37518e+06	-51889.1	1055.82	-29750.7	0.000000	0.000000	7.053150	0.022280	NaN	0.000000	0.001562	0.001711	28.0832	0.035983	0.001934	18.6017	173.866	15.4587	0.007539	1.051426	-0.056891	-0.058221	0.022280	18.6017	-0.057789	-0.155463	-0.143314	NaN
1035	1.000000	1.062777	7.37518e+06	-51889.1	1055.82	-29750.7	0.000000	0.000000	7.063167	-0.077089	NaN	0.000000	0.001595	0.001782	28.0834	0.070688	0.002000	35.3381	44.9036	-167.074	0.001173	1.061444	-0.046870	-0.048204	-0.077089	35.3381	-0.045234	-0.065336	1.179890	NaN
1035	1.000000	1.072790	7.37518e+06	-51889.1	1055.82	-29750.7	0.000000	0.000000	7.073184	0.015423	NaN	0.000000	0.001570	0.001727	28.0833	0.097335	0.001990	48.922	32.3546	13.4356	-0.003410	1.071452	-0.036857	-0.038195	0.015423	48.922	-0.037093	-0.036953	-0.417372	NaN
1035	1.000000	1.082766	7.37518e+06	-51889.1	1055.82	-29750.7	0.000000	0.000000	7.083198	0.937803	NaN	0.000000	0.001571	0.001751	28.0835	1.416060	0.002014	703.197	14.0407	-169.079	0.576229	1.081493	-0.026881	-0.028154	0.937803	703.197	-0.027881	-0.020125	-46.5982	NaN
1035	1.000000	1.092774	7.37518e+06	-51889.1	1055.82	-29750.7	0.000000	0.000000	7.093337	4.141709	NaN	0.000000	0.001561	0.001748	28.0834	2.330051	0.001876	1241.79	18.2256	12.6001	4.080063	1.091425	-0.016873	-0.018222	4.141709	1241.79	-0.019375	-0.012109	-342.046	NaN
1035	1.000000	1.102779	7.37518e+06	-51889.1	1055.82	-29750.7	0.000000	0.000000	7.103453	6.825374	NaN	0.000000	0.001531	0.001747	28.0834	4.062928	0.001840	2208.2	15.6618	-169.87	6.155622	1.101456	-0.006868	-0.008191	6.825374	2208.2	-0.009186	-0.005920	-1152.85	NaN
1035	2.000000	1.107930	7.37518e+06	-51889.1	1055.82	-29750.7	0.000000	0.000000	7.108632	7.522083	NaN	0.000000	0.001571	0.001742	28.0836	4.593724	0.001846	2488.75	11.2605	8.357367	7.427373	1.107576	-0.001717	-0.002071	7.522083	2488.75	-0.003984	-0.002768	-2717.16	NaN
1035	2.000000	1.110392	7.37518e+06	-51889.1	1055.82	-29750.7	0.000000	0.000000	7.111102	7.733790	NaN	0.000000	0.001561	0.001742	28.084	4.979075	0.001903	2616.13	13.721	-172.617	7.904941	1.110100	0.000744	0.000452	7.733790	2616.13	-0.001473	-0.001070	-7225.95	NaN
1035	2.000000	1.112898	7.37518e+06	-51889.1	1055.82	-29750.7	0.000000	0.000000	7.113611	7.802523	NaN	0.000000	0.001597	0.001781	28.0833	5.252286	0.001964	2673.68	13.5273	9.172104	7.725858	1.112550	0.003250	0.002902	7.802523	2673.68	0.001062	0.000810	9632.67	85830
1035	2.000000	1.115392	7.37518e+06	-51889.1	1055.82	-29750.7	0.000000	0.000000	7.116136	8.536766	NaN	0.000000	0.001586	0.001790	28.0839	6.055419	0.002016	3002.95	8.232197	-165.234	8.561473	1.115069	0.005745	0.005422	8.536766	3002.95	0.003613	0.002902	2941.55	50928.7
1035	2.000000	1.117871	7.37518e+06	-51889.1	1055.82	-29750.7	0.000000	0.000000	7.118630	8.898209	NaN	0.000000	0.001558	0.001745	28.0833	6.615444	0.001866	3545.05	11.9943	8.378861	9.020962	1.117536	0.008224	0.007889	8.898209	3545.05	0.006342	0.005391	1650.48	44111.2
1035	2.000000	1.120369	7.37518e+06	-51889.1	1055.82	-29750.7	0.000000	0.000000	7.121152	9.504131	NaN	0.000000	0.001579	0.001779	28.0834	7.781800	0.002054	3788.89	13.605	-172.528	9.588182	1.120041	0.010721	0.010394	9.504131	3788.89	0.008840	0.007921	1199.91	38895.9
1035	2.000000	1.122827	7.37518e+06	-51889.1	1055.82	-29750.7	0.000000	0.000000	7.123666	10.8476	NaN	0.000000	0.001559	0.001731	28.0824	8.846330	0.001950	4536.41	13.9937	8.113747	10.5473	1.122515	0.013180	0.012868	10.8476	4536.41	0.011387	0.010764	1007.79	39948.8
1035	2.000000	1.125335	7.37518e+06	-51889.1	1055.82	-29750.7	0.000000	0.000000	7.126228	12.175	NaN	0.000000	0.001573	0.001728	28.0824	10.0994	0.002089	4833.91	13.8081	-171.805	11.9768	1.125053	0.015688	0.015406	12.175	4833.91	0.013799	0.013717	887.611	37709.2
1035	2.000000	1.127852	7.37518e+06	-51889.1	1055.82	-29750.7	0.000000	0.000000	7.128822	14.0303	NaN	0.000000	0.001552	0.001760	28.082	11.7281	0.001874	6258.3	13.4476	3.167953	13.581	1.127492	0.018205	0.017845	14.0303	6258.3	0.016523	0.017370	807.712	43383.4
1035	2.000000	1.130295	7.37518e+06	-51889.1	1055.82	-29750.7	0.000000	0.000000	7.131389	17.0368	NaN	0.000000	0.001556	0.001737	28.0824	14.0765	0.001946	7234.89	12.1536	-176.508	16.3824	1.130010	0.020648	0.020363	17.0368	7234.89	0.018882	0.020816	818.465	45815.4
1035	2.000000	1.132871	7.37518e+06	-51889.1	1055.82	-29750.7	0.000000	0.000000	7.134114	20.6633	NaN	0.000000	0.001553	0.001728	28.082	15.8859	0.001800	8824.34	7.527188	6.242292	20.0344	1.132517	0.023224	0.022870	20.6633	8824.34	0.021468	0.024901	829.813	51091.2
1035	2.000000	1.135311	7.37518e+06	-51889.1	1055.82	-29750.7	0.000000	0.000000	7.136779	26.1599	NaN	0.000000	0.001576	0.001725	28.0826	18.3165	0.001800	10174.1	6.761181	-176.417	25.7963	1.135002	0.025663	0.025355	26.1599	10174.1	0.023735	0.028754	909.771	54817
1035	2.000000	1.137827	7.37518e+06	-51889.1	1055.82	-29750.7	0.000000	0.000000	7.139708	36.1862	NaN	0.000000	0.001556	0.001728	28.0817	21.1701	0.001850	11443.3	5.801890	3.879739	35.1769	1.137462	0.028180	0.027815	36.1862	11443.3	0.025809	0.032503	1113.32	57991.4
1035	2.000000	1.140301	7.37518e+06	-51889.1	1055.82	-29750.7	0.000000	0.000000	7.142661	47.8274	NaN	0.000000	0.001565	0.001767	28.0822	24.419	0.001747	13979.8	8.878941	177.405	46.8642	1.139986	0.030654	0.030339	47.8274	13979.8	0.028088	0.036874	1297.06	66514.3
1035	2.000000	1.142789	7.37518e+06	-51889.1	1055.82	-29750.7	0.000000	0.000000	7.145703	61.3147	NaN	0.000000	0.001560	0.001744	28.0823	26.7662	0.001859	14395	7.474406	0.104498	58.5933	1.142383	0.033141	0.032736	61.3147	14395	0.029947	0.040634	1508.96	65244.2
1035	2.000000	1.145285	7.37518e+06	-51889.1	1055.82	-29750.7	0.000000	0.000000	7.148718	73.9244	NaN	0.000000	0.001591	0.001737	28.083	28.6959	0.001821	15761.9	7.531198	179.212	72.2982	1.144971	0.035638	0.035324	73.9244	15761.9	0.032120	0.045253	1633.58	67695.3
1035	2.000000	1.147765	7.37518e+06	-51889.1	1055.82	-29750.7	0.000000	0.000000	7.151755	87.4635	NaN	0.000000	0.001575	0.001757	28.0823	31.7023	0.001709	18550.5	8.559527	-5.220912	84.9274	1.147478	0.038118	0.037830	87.4635	18550.5	0.034582	0.050777	1722.51	75213.6
1035	2.000000	1.150305	7.37518e+06	-51889.1	1055.82	-29750.7	0.000000	0.000000	7.154896	102.077	NaN	0.000000	0.001589	0.001745	28.0827	34.7517	0.001934	17969.5	7.840875	176.978	101.406	1.149951	0.040658	0.040304	102.077	17969.5	0.036397	0.055050	1854.28	69973.2
1035	2.000000	1.152736	7.37518e+06	-51889.1	1055.82	-29750.7	0.000000	0.000000	7.157941	116.996	NaN	0.000000	0.001604	0.001713	28.0825	35.4512	0.001837	19301.2	5.185037	-0.583713	113.096	1.152436	0.043089	0.042789	116.996	19301.2	0.038543	0.060317	1939.68	71802.1
1035	2.000000	1.155288	7.37518e+06	-51889.1	1055.82	-29750.7	0.000000	0.000000	7.160907	127.071	NaN	0.000000	0.001539	0.001757	28.0835	37.679	0.001790	21044.1	4.216322	179.018	125.858	1.154998	0.045641	0.045351	127.071	21044.1	0.041112	0.066934	1898.46	74315.7
1035	2.000000	1.157717	7.37518e+06	-51889.1	1055.82	-29750.7	0.000000	0.000000	7.163941	141.789	NaN	0.000000	0.001593	0.001753	28.0837	40.0962	0.001790	22398.1	3.096995	-0.999080	137.568	1.157396	0.048070	0.047749	141.789	22398.1	0.043322	0.072896	1945.08	75793.4
1035	2.000000	1.160226	7.37518e+06	-51889.1	1055.82	-29750.7	0.000000	0.000000	7.167076	157.008	NaN	0.000000	0.001608	0.001739	28.084	42.8275	0.001787	23961.7	2.802934	178.848	153.502	1.159905	0.050579	0.050258	157.008	23961.7	0.045665	0.079486	1975.3	77650.9
1035	2.000000	1.162770	7.37518e+06	-51889.1	1055.82	-29750.7	0.000000	0.000000	7.170358	174.949	NaN	0.000000	0.001578	0.001748	28.0837	44.4349	0.001898	23412.4	3.980290	-0.978929	171.718	1.162414	0.053123	0.052767	174.949	23412.4	0.047519	0.084898	2060.7	73412.6
1035	2.000000	1.165228	7.37518e+06	-51889.1	1055.82	-29750.7	0.000000	0.000000	7.173626	194.657	NaN	0.000000	0.001575	0.001758	28.0842	44.9376	0.001609	27931.2	-1.511551	-177.766	190.619	1.164945	0.055581	0.055298	194.657	27931.2	0.050354	0.093510	2081.67	83451.4
1035	2.000000	1.167698	7.37518e+06	-51889.1	1055.82	-29750.7	0.000000	0.000000	7.176878	213.667	NaN	0.000000	0.001600	0.001768	28.0837	48.1511	0.001718	28024.9	3.055438	-1.653934	208.919	1.167287	0.058050	0.057640	213.667	28024.9	0.052332	0.099758	2141.85	81066.9
1035	2.000000	1.170248	7.37518e+06	-51889.1	1055.82	-29750.7	0.000000	0.000000	7.179112	205.992	NaN	0.000000	0.001569	0.001800	28.0838	51.5486	0.001694	30427	3.999138	175.359	203.394	1.170135	0.060601	0.060488	205.992	30427	0.055523	0.110247	1868.46	83723.8
1035	2.000000	1.172591	7.37518e+06	-51889.1	1055.82	-29750.7	0.000000	0.000000	7.182808	238.882	NaN	0.000000	0.001625	0.001740	28.0839	53.0907	0.001840	28858.8	4.921242	-4.017111	229.953	1.172263	0.062944	0.062616	238.882	28858.8	0.056735	0.114363	2088.81	77966.9
1035	2.000000	1.175204	7.37518e+06	-51889.1	1055.82	-29750.7	0.000000	0.000000	7.186316	260.647	NaN	0.000000	0.001620	0.001767	28.084	55.4493	0.001827	30348.2	5.172223	175.297	257.653	1.174875	0.065557	0.065228	260.647	30348.2	0.059116	0.122656	2125.01	79170.1
1035	2.000000	1.177691	7.37518e+06	-51889.1	1055.82	-29750.7	0.000000	0.000000	7.189787	284.563	NaN	0.000000	0.001603	0.001777	28.0837	56.9009	0.001792	31755.8	1.638868	-1.772249	279.87	1.177329	0.068044	0.067682	284.563	31755.8	0.061323	0.130596	2178.96	80284.4
1035	2.000000	1.180192	7.37518e+06	-51889.1	1055.82	-29750.7	0.000000	0.000000	7.193223	307.302	NaN	0.000000	0.001605	0.001763	28.0839	60.7492	0.001981	30664.6	5.404442	174.867	303.842	1.179776	0.070545	0.070129	307.302	30664.6	0.063029	0.136893	2244.84	75721.7
1035	2.000000	1.182695	7.37518e+06	-51889.1	1055.82	-29750.7	0.000000	0.000000	7.196907	336.011	NaN	0.000000	0.001618	0.001814	28.0841	61.0774	0.001642	37194.8	3.908028	-5.275600	329.052	1.182347	0.073048	0.072700	336.011	37194.8	0.066273	0.149257	2251.22	87960.4
1035	2.000000	1.185298	7.37518e+06	-51889.1	1055.82	-29750.7	0.000000	0.000000	7.200574	361.882	NaN	0.000000	0.001615	0.001808	28.0842	62.9409	0.001707	36862	3.115540	175.237	361.966	1.184987	0.075651	0.075340	361.882	36862	0.068288	0.157194	2302.14	84944.4
1035	2.000000	1.187808	7.37518e+06	-51889.1	1055.82	-29750.7	0.000000	0.000000	7.203773	378.646	NaN	0.000000	0.001650	0.001838	28.0841	65.3867	0.001880	34778.2	1.147635	-1.373228	380.032	1.187541	0.078160	0.077894	378.646	34778.2	0.069995	0.164067	2307.87	78445.9
1035	2.000000	1.190132	7.37518e+06	-51889.1	1055.82	-29750.7	0.000000	0.000000	7.207502	412.822	NaN	0.000000	0.001607	0.001799	28.0835	68.1221	0.001821	37404.9	3.931924	174.767	406.416	1.189745	0.080484	0.080098	412.822	37404.9	0.072207	0.173181	2383.76	82120.5
1035	2.000000	1.192794	7.37518e+06	-51889.1	1055.82	-29750.7	0.000000	0.000000	7.210746	426.958	NaN	0.000000	0.001584	0.001777	28.0827	69.986	0.001770	39544.1	4.111255	-5.532631	426.08	1.192469	0.083147	0.082821	426.958	39544.1	0.075049	0.185232	2305	83945.4
1035	2.000000	1.195294	7.37518e+06	-51889.1	1055.82	-29750.7	0.000000	0.000000	7.214248	451.326	NaN	0.000000	0.001593	0.001768	28.0826	72.3706	0.001788	40484	6.375058	172.164	453.444	1.194950	0.085647	0.085303	451.326	40484	0.077285	0.194980	2314.73	83764.7
1035	2.000000	1.197690	7.37518e+06	-51889.1	1055.82	-29750.7	0.000000	0.000000	7.217775	478.828	NaN	0.000000	0.001591	0.001767	28.0824	73.7498	0.001828	40351.1	2.021154	-3.553685	473.755	1.197366	0.088042	0.087719	478.828	40351.1	0.079143	0.203254	2355.81	81772.8
1035	2.000000	1.200318	7.37518e+06	-51889.1	1055.82	-29750.7	0.000000	0.000000	7.221331	501.396	NaN	0.000000	0.001605	0.001754	28.0826	77.8478	0.001981	39303.5	8.247738	169.854	503.323	1.200071	0.090670	0.090424	501.396	39303.5	0.081103	0.212162	2363.28	77959.9
1035	2.000000	1.202681	7.37518e+06	-51889.1	1055.82	-29750.7	0.000000	0.000000	7.224783	527.872	NaN	0.000000	0.001615	0.001778	28.0825	76.9294	0.001727	44535.8	1.692316	-4.122176	521.924	1.202357	0.093034	0.092709	527.872	44535.8	0.084145	0.226338	2332.23	85527.2
1035	2.000000	1.204764	7.37518e+06	-51889.1	1055.82	-29750.7	0.000000	0.000000	7.227532	544.052	NaN	0.000000	0.001540	0.001781	28.0826	78.9013	0.001689	46705.6	4.828766	-7.263410	545.113	1.204388	0.095117	0.094741	544.052	46705.6	0.086381	0.237032	2295.27	87647.4