File: remote_trans/data/nanoindenter/0828-1/data/Data_2025-08-06,11h17m57s/2025-07-22_16-23-58_1_302.txt
2025-07-22, 16:23:58, 1
Index	Phase	Displacement	Time	Pos X	Pos Y	Pos Z	Rot A	Rot B	Piezo Z	Force A	Force B	Gripper	Voltage A	Voltage B	Temperature	Amplitude force	Amplitude pos	Stiffness	Phase shift	Phase excitation	Force A raw	Displacement raw	HMax	HMax raw	Real Force	Real Stiffness	Contact Depth	Area	Hardness	Reduced Mod.
[#]	[#]	[um]	[s]	[um]	[um]	[um]	[m°]	[m°]	[um]	[uN]	[uN]	[V]	[V]	[V]	[°C]	[uN]	[um]	[N/m]	[°]	[°]	[uN]	[um]	[um]	[um]	[uN]	[N/m]	[um]	[um^2]	[MPa]	[MPa]
302	1.000000	0.003163	7.36802e+06	-53739.1	955.818	-29745.7	0.000000	0.000000	6.002822	0.044827	NaN	0.000000	0.001751	0.001643	28.0805	0.061878	0.000933	66.3305	168.679	-171.196	0.035828	0.001867	-1.097715	-1.099012	0.044827	66.3305	-1.098222	-4.744642E+14	-9.447867E-17	NaN
302	1.000000	0.013217	7.36802e+06	-53739.1	955.818	-29745.7	0.000000	0.000000	6.012874	0.001492	NaN	0.000000	0.001680	0.001665	28.0806	0.063485	0.001281	49.5498	-117.299	18.8531	0.076150	0.011788	-1.087662	-1.089090	0.001492	49.5498	-1.087684	-3.425448E+14	-4.356802E-18	NaN
302	1.000000	0.023108	7.36802e+06	-53739.1	955.819	-29745.7	0.000000	0.000000	6.022764	-0.001984	NaN	0.000000	0.001694	0.001631	28.0804	0.035001	0.001720	20.348	-72.5607	-165.752	-0.007175	0.021847	-1.077771	-1.079031	-0.001984	20.348	-1.077698	-2.515339E+14	7.887610E-18	NaN
302	1.000000	0.033084	7.36802e+06	-53739.1	955.819	-29745.7	0.000000	0.000000	6.032743	0.041270	NaN	0.000000	0.001677	0.001661	28.0805	0.024839	0.002008	12.3729	106.875	12.1956	0.083243	0.031754	-1.067794	-1.069124	0.041270	12.3729	-1.070296	-2.000606E+14	-2.062882E-16	NaN
302	1.000000	0.043125	7.36802e+06	-53739.1	955.819	-29745.7	0.000000	0.000000	6.042783	0.014380	NaN	0.000000	0.001691	0.001667	28.0806	0.070543	0.002124	33.2116	-156.768	-162.074	-0.010166	0.041844	-1.057753	-1.059035	0.014380	33.2116	-1.058078	-1.370852E+14	-1.048988E-16	NaN
302	1.000000	0.053124	7.36802e+06	-53739.1	955.819	-29745.7	0.000000	0.000000	6.052782	0.019892	NaN	0.000000	0.001699	0.001591	28.0808	0.070017	0.001953	35.8587	-162.684	17.2473	0.010755	0.051741	-1.047754	-1.049137	0.019892	35.8587	-1.048170	-1.008827E+14	-1.971782E-16	NaN
302	1.000000	0.063117	7.36802e+06	-53739.1	955.818	-29745.7	0.000000	0.000000	6.062775	0.020796	NaN	0.000000	0.001693	0.001625	28.0804	0.051693	0.002027	25.4975	-161.292	-164.957	0.074927	0.061802	-1.037761	-1.039077	0.020796	25.4975	-1.038373	-7.448863E+13	-2.791840E-16	NaN
302	1.000000	0.073110	7.36802e+06	-53739.1	955.818	-29745.7	0.000000	0.000000	6.072768	0.031224	NaN	0.000000	0.001641	0.001631	28.0806	0.018936	0.002026	9.347901	28.9847	16.2106	0.004869	0.071732	-1.027768	-1.029146	0.031224	9.347901	-1.030273	-5.796396E+13	-5.386798E-16	NaN
302	1.000000	0.083119	7.36802e+06	-53739.1	955.818	-29745.7	0.000000	0.000000	6.082777	0.030703	NaN	0.000000	0.001674	0.001628	28.0807	0.103288	0.002164	47.7216	161.697	-163.493	-0.044007	0.081831	-1.017759	-1.019048	0.030703	47.7216	-1.018242	-3.992954E+13	-7.689388E-16	NaN
302	1.000000	0.093121	7.36802e+06	-53739.1	955.818	-29745.7	0.000000	0.000000	6.092780	0.049284	NaN	0.000000	0.001701	0.001641	28.08	0.134605	0.001925	69.9124	163.521	19.011	0.094556	0.091784	-1.007758	-1.009094	0.049284	69.9124	-1.008286	-2.933024E+13	-1.680308E-15	NaN
302	1.000000	0.103106	7.36802e+06	-53739.1	955.818	-29745.7	0.000000	0.000000	6.102766	0.086018	NaN	0.000000	0.001676	0.001641	28.0794	0.108162	0.002040	53.0125	163.579	-163.781	0.060119	0.101794	-0.997772	-0.999084	0.086018	53.0125	-0.998989	-2.198680E+13	-3.912257E-15	NaN
302	1.000000	0.113089	7.36802e+06	-53739.1	955.818	-29745.7	0.000000	0.000000	6.112750	0.091491	NaN	0.000000	0.001728	0.001631	28.0795	0.022573	0.001897	11.899	-33.3181	15.6836	0.126130	0.111755	-0.987789	-0.989124	0.091491	11.899	-0.993556	-1.857808E+13	-4.924649E-15	NaN
302	1.000000	0.123112	7.36802e+06	-53739.1	955.818	-29745.7	0.000000	0.000000	6.122772	0.066260	NaN	0.000000	0.001737	0.001667	28.0796	0.099270	0.001842	53.9014	142.205	-166.77	0.039769	0.121814	-0.977766	-0.979065	0.066260	53.9014	-0.978688	-1.171479E+13	-5.656111E-15	NaN
302	1.000000	0.133151	7.36802e+06	-53739.1	955.818	-29745.7	0.000000	0.000000	6.132808	0.013294	NaN	0.000000	0.001747	0.001640	28.0794	0.103317	0.002005	51.5249	-14.799	13.6874	0.043179	0.131847	-0.967728	-0.969032	0.013294	51.5249	-0.967921	-8.387793E+12	-1.584914E-15	NaN
302	1.000000	0.143111	7.36802e+06	-53739.1	955.819	-29745.7	0.000000	0.000000	6.142768	0.006370	NaN	0.000000	0.001749	0.001626	28.0795	0.048479	0.001997	24.2785	-146.62	-163.043	-0.037628	0.141864	-0.957767	-0.959015	0.006370	24.2785	-0.957964	-6.157686E+12	-1.034488E-15	NaN
302	1.000000	0.153136	7.36802e+06	-53739.1	955.818	-29745.7	0.000000	0.000000	6.152796	0.086385	NaN	0.000000	0.001758	0.001655	28.0798	0.070858	0.002044	34.6638	-87.9111	13.7611	0.005833	0.151753	-0.947743	-0.949125	0.086385	34.6638	-0.949612	-4.751095E+12	-1.818210E-14	NaN
302	1.000000	0.163127	7.36802e+06	-53739.1	955.818	-29745.7	0.000000	0.000000	6.162784	0.023749	NaN	0.000000	0.001745	0.001644	28.0794	0.131164	0.001970	66.5834	-178.398	-163.524	-0.017865	0.161854	-0.937752	-0.939025	0.023749	66.5834	-0.938019	-3.314475E+12	-7.165128E-15	NaN
302	1.000000	0.173121	7.36802e+06	-53739.1	955.818	-29745.7	0.000000	0.000000	6.172778	-0.000395	NaN	0.000000	0.001753	0.001661	28.0799	0.076586	0.002069	37.0113	-63.4896	17.3051	-0.064821	0.171832	-0.927758	-0.929046	-0.000395	37.0113	-0.927750	-2.408933E+12	1.639893E-16	NaN
302	1.000000	0.183130	7.36802e+06	-53739.1	955.818	-29745.7	0.000000	0.000000	6.182788	0.028307	NaN	0.000000	0.001757	0.001623	28.0795	0.052861	0.002011	26.2819	18.2712	-164.5	0.036327	0.181864	-0.917749	-0.919014	0.028307	26.2819	-0.918556	-1.810146E+12	-1.563808E-14	NaN
302	1.000000	0.193150	7.36802e+06	-53739.1	955.818	-29745.7	0.000000	0.000000	6.192807	0.013023	NaN	0.000000	0.001741	0.001660	28.0803	0.081584	0.002059	39.6152	101.786	16.0086	0.011268	0.191761	-0.907729	-0.909118	0.013023	39.6152	-0.907975	-1.302604E+12	-9.997946E-15	NaN
302	1.000000	0.203151	7.36802e+06	-53739.1	955.818	-29745.7	0.000000	0.000000	6.202809	0.020232	NaN	0.000000	0.001717	0.001689	28.0796	0.075221	0.001996	37.695	88.5509	-166.534	0.102082	0.201862	-0.897727	-0.899016	0.020232	37.695	-0.898130	-9.589465E+11	-2.109777E-14	NaN
302	1.000000	0.213134	7.36802e+06	-53739.1	955.818	-29745.7	0.000000	0.000000	6.212790	-0.024300	NaN	0.000000	0.001754	0.001625	28.0799	0.120567	0.002146	56.1711	112.818	17.6456	0.063456	0.211789	-0.887744	-0.889089	-0.024300	56.1711	-0.887420	-6.871187E+11	3.536479E-14	NaN
302	1.000000	0.223157	7.36802e+06	-53739.1	955.819	-29745.7	0.000000	0.000000	6.222816	0.053268	NaN	0.000000	0.001731	0.001644	28.0798	0.044186	0.002074	21.3012	-134.935	-161.384	0.025515	0.221816	-0.877721	-0.879062	0.053268	21.3012	-0.879597	-5.385897E+11	-9.890219E-14	NaN
302	1.000000	0.233159	7.36802e+06	-53739.1	955.819	-29745.7	0.000000	0.000000	6.232812	-0.081859	NaN	0.000000	0.001746	0.001652	28.0812	0.039445	0.002119	18.6151	126.581	12.0992	-0.097605	0.231837	-0.867720	-0.869041	-0.081859	18.6151	-0.864422	-3.357093E+11	2.438395E-13	NaN
302	1.000000	0.243173	7.36802e+06	-53739.1	955.818	-29745.7	0.000000	0.000000	6.242831	0.025611	NaN	0.000000	0.001736	0.001676	28.0809	0.017596	0.002078	8.468192	131.04	-167.133	0.070405	0.241898	-0.857705	-0.858980	0.025611	8.468192	-0.859973	-2.922550E+11	-8.763220E-14	NaN
302	1.000000	0.253169	7.36802e+06	-53739.1	955.819	-29745.7	0.000000	0.000000	6.252828	0.055871	NaN	0.000000	0.001733	0.001714	28.0814	0.059821	0.002011	29.7492	-103.051	14.2255	0.045612	0.251798	-0.847709	-0.849081	0.055871	29.7492	-0.849118	-2.083501E+11	-2.681616E-13	NaN
302	1.000000	0.263150	7.36802e+06	-53739.1	955.818	-29745.7	0.000000	0.000000	6.262810	0.085664	NaN	0.000000	0.001751	0.001649	28.081	0.057394	0.002053	27.9613	95.3066	-161.978	0.041557	0.261875	-0.837729	-0.839003	0.085664	27.9613	-0.840026	-1.569097E+11	-5.459448E-13	NaN
302	1.000000	0.273159	7.36802e+06	-53739.1	955.819	-29745.7	0.000000	0.000000	6.272817	0.019881	NaN	0.000000	0.001782	0.001642	28.0808	0.123074	0.001935	63.5957	-79.224	15.3439	0.012355	0.271805	-0.827719	-0.829074	0.019881	63.5957	-0.827953	-1.076576E+11	-1.846732E-13	NaN
302	1.000000	0.283198	7.36802e+06	-53739.1	955.817	-29745.7	0.000000	0.000000	6.282856	0.024874	NaN	0.000000	0.001729	0.001670	28.0809	0.144863	0.002019	71.7656	152.557	-169.287	0.111356	0.281885	-0.817680	-0.818993	0.024874	71.7656	-0.817940	-7.875464E+10	-3.158479E-13	NaN
302	1.000000	0.293170	7.36802e+06	-53739.1	955.818	-29745.7	0.000000	0.000000	6.292826	-0.021891	NaN	0.000000	0.001658	0.001678	28.0809	0.135168	0.002033	66.4735	-127.384	16.2342	0.034763	0.291826	-0.807708	-0.809053	-0.021891	66.4735	-0.807461	-5.677111E+10	3.856034E-13	NaN
302	1.000000	0.303234	7.36802e+06	-53739.1	955.819	-29745.7	0.000000	0.000000	6.302891	0.024082	NaN	0.000000	0.001673	0.001678	28.081	0.068440	0.002036	33.6212	-73.8588	-164.648	0.011920	0.301793	-0.797645	-0.799086	0.024082	33.6212	-0.798182	-4.247989E+10	-5.669010E-13	NaN
302	1.000000	0.313195	7.36802e+06	-53739.1	955.819	-29745.7	0.000000	0.000000	6.312854	0.055641	NaN	0.000000	0.001663	0.001711	28.0808	0.140836	0.001971	71.4506	74.1952	12.318	0.085261	0.311850	-0.787684	-0.789028	0.055641	71.4506	-0.788268	-3.115720E+10	-1.785825E-12	NaN
302	1.000000	0.323215	7.36802e+06	-53739.1	955.818	-29745.7	0.000000	0.000000	6.322872	-0.003979	NaN	0.000000	0.001720	0.001706	28.081	0.062289	0.002078	29.9827	4.508840	-163.212	0.019380	0.321895	-0.777663	-0.778983	-0.003979	29.9827	-0.777564	-2.229061E+10	1.785272E-13	NaN
302	1.000000	0.333224	7.36802e+06	-53739.1	955.818	-29745.7	0.000000	0.000000	6.332881	0.010621	NaN	0.000000	0.001688	0.001699	28.0808	0.004735	0.002021	2.343616	22.0162	14.8243	0.060407	0.331843	-0.767654	-0.769036	0.010621	2.343616	-0.771053	-1.818126E+10	-5.841746E-13	NaN
302	1.000000	0.343207	7.36802e+06	-53739.1	955.817	-29745.7	0.000000	0.000000	6.342865	0.035671	NaN	0.000000	0.001704	0.001675	28.0811	0.029484	0.002022	14.5837	25.9837	-166.637	-0.035309	0.341862	-0.757671	-0.759017	0.035671	14.5837	-0.759506	-1.266420E+10	-2.816645E-12	NaN
302	1.000000	0.353231	7.36802e+06	-53739.1	955.818	-29745.7	0.000000	0.000000	6.352888	0.014186	NaN	0.000000	0.001670	0.001705	28.0808	0.060016	0.001939	30.9597	-128.369	17.5677	-0.064399	0.351889	-0.747648	-0.748989	0.014186	30.9597	-0.747991	-8.828259E+9	-1.606902E-12	NaN
302	1.000000	0.363221	7.36802e+06	-53739.1	955.818	-29745.7	0.000000	0.000000	6.362880	0.042665	NaN	0.000000	0.001649	0.001692	28.0808	0.209924	0.002048	102.511	172.281	-165.547	0.046446	0.361893	-0.737657	-0.738986	0.042665	102.511	-0.737969	-6.447572E+9	-6.617189E-12	NaN
302	1.000000	0.373253	7.36802e+06	-53739.1	955.818	-29745.7	0.000000	0.000000	6.372910	0.009057	NaN	0.000000	0.001654	0.001683	28.0798	0.065661	0.001976	33.2272	55.9196	13.1782	-0.034460	0.371903	-0.727625	-0.728975	0.009057	33.2272	-0.727830	-4.690615E+9	-1.930827E-12	NaN
302	1.000000	0.383217	7.36802e+06	-53739.1	955.819	-29745.7	0.000000	0.000000	6.382875	0.024353	NaN	0.000000	0.001656	0.001686	28.0792	0.056944	0.001922	29.6226	14.6634	-163.176	-0.001628	0.381911	-0.717662	-0.718968	0.024353	29.6226	-0.718278	-3.475286E+9	-7.007439E-12	NaN
302	1.000000	0.393235	7.36802e+06	-53739.1	955.819	-29745.7	0.000000	0.000000	6.392893	0.048812	NaN	0.000000	0.001633	0.001639	28.0794	0.026643	0.002004	13.2936	74.1178	16.0593	0.104667	0.391853	-0.707644	-0.709025	0.048812	13.2936	-0.710398	-2.713166E+9	-1.799061E-11	NaN
302	1.000000	0.403239	7.36802e+06	-53739.1	955.818	-29745.7	0.000000	0.000000	6.402894	-0.041348	NaN	0.000000	0.001641	0.001668	28.0797	0.024331	0.001960	12.4164	-18.0154	-166.166	0.008658	0.401939	-0.697640	-0.698940	-0.041348	12.4164	-0.695142	-1.679487E+9	2.461928E-11	NaN
302	1.000000	0.413286	7.36802e+06	-53739.1	955.819	-29745.7	0.000000	0.000000	6.412943	-0.003700	NaN	0.000000	0.001640	0.001682	28.0798	0.106866	0.001981	53.9452	-149.568	17.6361	-0.005516	0.411876	-0.687593	-0.689003	-0.003700	53.9452	-0.687541	-1.322242E+9	2.798534E-12	NaN
302	1.000000	0.423233	7.36802e+06	-53739.1	955.818	-29745.7	0.000000	0.000000	6.422890	0.001312	NaN	0.000000	0.001636	0.001704	28.0798	0.084802	0.002069	40.9916	34.4688	-165.33	-0.082874	0.421946	-0.677646	-0.678933	0.001312	40.9916	-0.677670	-9.690182E+8	-1.354045E-12	NaN
302	1.000000	0.433250	7.36802e+06	-53739.1	955.818	-29745.7	0.000000	0.000000	6.432906	-0.012831	NaN	0.000000	0.001621	0.001661	28.0795	0.087882	0.002083	42.1958	-176.029	18.7799	-0.008769	0.431915	-0.667629	-0.668964	-0.012831	42.1958	-0.667401	-7.011473E+8	1.830012E-11	NaN
302	1.000000	0.443245	7.36802e+06	-53739.1	955.818	-29745.7	0.000000	0.000000	6.442906	0.080952	NaN	0.000000	0.001646	0.001660	28.0801	0.056129	0.002019	27.8049	-35.3185	-165.305	0.132120	0.441962	-0.657633	-0.658916	0.080952	27.8049	-0.659817	-5.520227E+8	-1.466458E-10	NaN
302	1.000000	0.453267	7.36802e+06	-53739.1	955.818	-29745.7	0.000000	0.000000	6.452928	0.095892	NaN	0.000000	0.001655	0.001656	28.0798	0.071950	0.002038	35.2983	-7.033309	12.0759	0.093027	0.451894	-0.647611	-0.648985	0.095892	35.2983	-0.649649	-4.005178E+8	-2.394210E-10	NaN
302	1.000000	0.463269	7.36802e+06	-53739.1	955.818	-29745.7	0.000000	0.000000	6.462925	-0.018419	NaN	0.000000	0.001642	0.001670	28.0798	0.047359	0.002111	22.4385	-7.787460	-164.771	0.069931	0.461989	-0.637609	-0.638890	-0.018419	22.4385	-0.636994	-2.685553E+8	6.858678E-11	NaN
302	1.000000	0.473290	7.36802e+06	-53739.1	955.819	-29745.7	0.000000	0.000000	6.472948	0.037846	NaN	0.000000	0.001671	0.001656	28.0796	0.062762	0.002018	31.1084	97.7423	15.2811	-0.002166	0.471937	-0.627589	-0.628941	0.037846	31.1084	-0.628501	-2.053223E+8	-1.843227E-10	NaN
302	1.000000	0.483258	7.36802e+06	-53739.1	955.818	-29745.7	0.000000	0.000000	6.482913	-0.025197	NaN	0.000000	0.001664	0.001646	28.08	0.069333	0.001912	36.2652	-44.412	-164.28	-0.027892	0.481949	-0.617621	-0.618930	-0.025197	36.2652	-0.617100	-1.431403E+8	1.760279E-10	NaN
302	1.000000	0.493280	7.36802e+06	-53739.1	955.819	-29745.7	0.000000	0.000000	6.492938	0.032524	NaN	0.000000	0.001658	0.001662	28.0795	0.013591	0.001990	6.828206	101.791	14.6473	0.107786	0.491881	-0.607599	-0.608997	0.032524	6.828206	-0.611171	-1.186381E+8	-2.741466E-10	NaN
302	1.000000	0.503293	7.36802e+06	-53739.1	955.819	-29745.7	0.000000	0.000000	6.502952	0.062042	NaN	0.000000	0.001609	0.001657	28.0804	0.087063	0.002038	42.7154	177.988	-166.781	0.038377	0.501978	-0.597586	-0.598900	0.062042	42.7154	-0.598675	-7.983886E+7	-7.770863E-10	NaN
302	1.000000	0.513264	7.36802e+06	-53739.1	955.818	-29745.7	0.000000	0.000000	6.512921	0.012616	NaN	0.000000	0.001651	0.001680	28.0809	0.081095	0.001931	42.0023	24.5014	14.3163	-0.005345	0.511935	-0.587615	-0.588943	0.012616	42.0023	-0.587840	-5.660920E+7	-2.228658E-10	NaN
302	1.000000	0.523311	7.36802e+06	-53739.1	955.818	-29745.7	0.000000	0.000000	6.522969	0.019876	NaN	0.000000	0.001667	0.001657	28.081	0.102959	0.002068	49.7855	-18.9362	-166.524	0.051013	0.521948	-0.577567	-0.578930	0.019876	49.7855	-0.577867	-4.123618E+7	-4.820121E-10	NaN
302	1.000000	0.533285	7.36802e+06	-53739.1	955.818	-29745.7	0.000000	0.000000	6.532939	-0.065820	NaN	0.000000	0.001660	0.001688	28.0808	0.033212	0.002121	15.6562	-138.974	14.4181	-0.055213	0.531933	-0.567594	-0.568945	-0.065820	15.6562	-0.564441	-2.690264E+7	2.446598E-9	NaN
302	1.000000	0.543307	7.36802e+06	-53739.1	955.818	-29745.7	0.000000	0.000000	6.542965	0.023481	NaN	0.000000	0.001660	0.001675	28.0808	0.066210	0.002002	33.0787	-139.584	-164.038	0.009512	0.541984	-0.557572	-0.558895	0.023481	33.0787	-0.558104	-2.198598E+7	-1.067987E-9	NaN
302	1.000000	0.553307	7.36802e+06	-53739.1	955.819	-29745.7	0.000000	0.000000	6.552964	0.010391	NaN	0.000000	0.001634	0.001667	28.0808	0.096776	0.002018	47.9469	96.3119	14.3951	0.077069	0.551902	-0.547572	-0.548977	0.010391	47.9469	-0.547734	-1.579673E+7	-6.577933E-10	NaN
302	1.000000	0.563310	7.36802e+06	-53739.1	955.818	-29745.7	0.000000	0.000000	6.562966	-0.037198	NaN	0.000000	0.001699	0.001671	28.0808	0.089145	0.002058	43.3077	-99.1251	-162.706	0.026049	0.562014	-0.537568	-0.538864	-0.037198	43.3077	-0.536924	-1.118630E+7	3.325354E-9	NaN
302	1.000000	0.573314	7.36802e+06	-53739.1	955.819	-29745.7	0.000000	0.000000	6.572974	0.082853	NaN	0.000000	0.001666	0.001669	28.0807	0.015522	0.002056	7.547726	8.006919	17.7086	0.065243	0.571961	-0.527564	-0.528918	0.082853	7.547726	-0.535797	-1.079077E+7	-7.678092E-9	NaN
302	1.000000	0.583308	7.36802e+06	-53739.1	955.818	-29745.7	0.000000	0.000000	6.582964	-0.023524	NaN	0.000000	0.001650	0.001704	28.0809	0.111684	0.001917	58.2719	63.2897	-166.49	0.055159	0.581961	-0.517571	-0.518918	-0.023524	58.2719	-0.517268	-5.96475e+06	3.943797E-9	NaN
302	1.000000	0.593308	7.36802e+06	-53739.1	955.818	-29745.7	0.000000	0.000000	6.592964	-0.018323	NaN	0.000000	0.001659	0.001646	28.081	0.113293	0.001983	57.1338	178.769	14.806	-0.061433	0.591993	-0.507571	-0.508885	-0.018323	57.1338	-0.507330	-4.33733e+06	4.224486E-9	NaN
302	1.000000	0.603314	7.36802e+06	-53739.1	955.818	-29745.7	0.000000	0.000000	6.602966	-0.105536	NaN	0.000000	0.001655	0.001688	28.0809	0.074323	0.001973	37.6646	99.6393	-162.391	-0.034004	0.602008	-0.497564	-0.498871	-0.105536	37.6646	-0.495463	-2.96278e+06	3.562054E-8	NaN
302	1.000000	0.613334	7.36802e+06	-53739.1	955.819	-29745.7	0.000000	0.000000	6.612992	0.027925	NaN	0.000000	0.001699	0.001678	28.0807	0.078576	0.002009	39.1214	161.595	11.7163	0.078186	0.611975	-0.487544	-0.488904	0.027925	39.1214	-0.488080	-2.33644e+06	-1.195199E-8	NaN
302	1.000000	0.623293	7.36802e+06	-53739.1	955.819	-29745.7	0.000000	0.000000	6.622952	0.052810	NaN	0.000000	0.001703	0.001669	28.0808	0.106235	0.002054	51.7232	171.737	-163.752	-0.029490	0.622049	-0.477585	-0.478829	0.052810	51.7232	-0.478351	-1.70781e+06	-3.092239E-8	NaN
302	1.000000	0.633366	7.36802e+06	-53739.1	955.818	-29745.7	0.000000	0.000000	6.633023	0.001261	NaN	0.000000	0.001660	0.001697	28.0809	0.042111	0.001950	21.5969	-177.024	18.9308	0.081294	0.631946	-0.467512	-0.468933	0.001261	21.5969	-0.467556	-1.20538e+06	-1.046427E-9	NaN
302	1.000000	0.643316	7.36802e+06	-53739.1	955.818	-29745.7	0.000000	0.000000	6.642975	0.048404	NaN	0.000000	0.001656	0.001671	28.0796	0.012836	0.002007	6.395293	74.4269	-164.012	0.050371	0.642008	-0.457562	-0.458870	0.048404	6.395293	-0.463239	-1.04838e+06	-4.616989E-8	NaN
302	1.000000	0.653341	7.36802e+06	-53739.1	955.819	-29745.7	0.000000	0.000000	6.652999	0.047913	NaN	0.000000	0.001675	0.001660	28.0799	0.088971	0.002001	44.4626	-149.328	13.2498	0.009404	0.651995	-0.447538	-0.448883	0.047913	44.4626	-0.448346	-647211	-7.402934E-8	NaN
302	1.000000	0.663343	7.36802e+06	-53739.1	955.818	-29745.7	0.000000	0.000000	6.662999	-0.004800	NaN	0.000000	0.001655	0.001671	28.0797	0.036529	0.001854	19.699	115.207	-163.379	0.020280	0.662091	-0.437536	-0.438787	-0.004800	19.699	-0.437353	-452889	1.059927E-8	NaN
302	1.000000	0.673338	7.36802e+06	-53739.1	955.819	-29745.7	0.000000	0.000000	6.672996	0.031717	NaN	0.000000	0.001685	0.001695	28.0797	0.093344	0.002019	46.2283	-144.164	15.5917	0.022791	0.672037	-0.427540	-0.428841	0.031717	46.2283	-0.428055	-334610	-9.478830E-8	NaN
302	1.000000	0.683354	7.36802e+06	-53739.1	955.819	-29745.7	0.000000	0.000000	6.683011	0.003888	NaN	0.000000	0.001671	0.001668	28.0797	0.052828	0.001973	26.7805	-78.5287	-164.557	0.073754	0.682044	-0.417524	-0.418835	0.003888	26.7805	-0.417633	-238144	-1.632716E-8	NaN
302	1.000000	0.693350	7.36802e+06	-53739.1	955.819	-29745.7	0.000000	0.000000	6.693006	-0.017069	NaN	0.000000	0.001710	0.001693	28.0799	0.068091	0.002079	32.7544	172.23	12.8284	-0.016269	0.691923	-0.407528	-0.408956	-0.017069	32.7544	-0.407137	-168918	1.010511E-7	NaN
302	1.000000	0.703392	7.36802e+06	-53739.1	955.818	-29745.7	0.000000	0.000000	6.703049	0.015938	NaN	0.000000	0.001700	0.001672	28.0798	0.065643	0.001896	34.6245	-3.566682	-164.782	0.055528	0.702035	-0.397486	-0.398844	0.015938	34.6245	-0.397832	-124469	-1.280513E-7	NaN
302	1.000000	0.713388	7.36802e+06	-53739.1	955.818	-29745.7	0.000000	0.000000	6.713044	-0.029992	NaN	0.000000	0.001708	0.001682	28.0797	0.054138	0.002005	27.006	49.5986	14.5995	-0.032659	0.712039	-0.387490	-0.388839	-0.029992	27.006	-0.386657	-86163.5	3.480794E-7	NaN
302	1.000000	0.723371	7.36802e+06	-53739.1	955.818	-29745.7	0.000000	0.000000	6.723027	-0.006765	NaN	0.000000	0.001685	0.001678	28.0795	0.119987	0.002089	57.4277	-109.62	-164.902	0.034092	0.722044	-0.377508	-0.378834	-0.006765	57.4277	-0.377419	-63509.3	1.065157E-7	NaN
302	1.000000	0.733380	7.36802e+06	-53739.1	955.818	-29745.7	0.000000	0.000000	6.733037	-0.003039	NaN	0.000000	0.001688	0.001676	28.0795	0.022613	0.002137	10.5797	-6.872623	14.6636	-0.034906	0.731997	-0.367499	-0.368882	-0.003039	10.5797	-0.367283	-45392.2	6.693968E-8	NaN
302	1.000000	0.743366	7.36802e+06	-53739.1	955.819	-29745.7	0.000000	0.000000	6.743022	-0.016047	NaN	0.000000	0.001679	0.001696	28.0795	0.082931	0.001895	43.7547	-178.425	-165.295	-0.047370	0.742119	-0.357513	-0.358759	-0.016047	43.7547	-0.357238	-32500.6	4.937511E-7	NaN
302	1.000000	0.753399	7.36802e+06	-53739.1	955.818	-29745.7	0.000000	0.000000	6.753057	0.035014	NaN	0.000000	0.001667	0.001665	28.0795	0.097887	0.001934	50.6143	94.6221	11.7732	0.087725	0.751990	-0.347480	-0.348888	0.035014	50.6143	-0.347999	-23874.9	-1.466575E-6	NaN
302	1.000000	0.763382	7.36802e+06	-53739.1	955.819	-29745.7	0.000000	0.000000	6.763041	0.070613	NaN	0.000000	0.001710	0.001683	28.0794	0.082481	0.002134	38.6445	77.2481	-162.77	0.060241	0.762055	-0.337497	-0.338824	0.070613	38.6445	-0.338867	-17580.8	-4.016478E-6	NaN
302	1.000000	0.773413	7.36802e+06	-53739.1	955.818	-29745.7	0.000000	0.000000	6.773068	-0.018649	NaN	0.000000	0.001667	0.001686	28.0796	0.088627	0.001944	45.5946	-5.751584	14.0329	-0.030061	0.772062	-0.327466	-0.328817	-0.018649	45.5946	-0.327159	-11852.8	1.573407E-6	NaN
302	1.000000	0.783399	7.36802e+06	-53739.1	955.818	-29745.7	0.000000	0.000000	6.783056	0.010975	NaN	0.000000	0.001669	0.001728	28.0806	0.082795	0.002071	39.9803	28.4646	-164.352	0.026760	0.782114	-0.317479	-0.318764	0.010975	39.9803	-0.317685	-8600.92	-1.276032E-6	NaN
302	1.000000	0.793389	7.36802e+06	-53739.1	955.819	-29745.7	0.000000	0.000000	6.793046	0.003961	NaN	0.000000	0.001666	0.001715	28.081	0.178571	0.002054	86.9173	148.67	11.32	-0.021189	0.792070	-0.307490	-0.308808	0.003961	86.9173	-0.307524	-6086.72	-6.508195E-7	NaN
302	1.000000	0.803415	7.36802e+06	-53739.1	955.82	-29745.7	0.000000	0.000000	6.803071	-0.017078	NaN	0.000000	0.001692	0.001699	28.0807	0.052761	0.001924	27.4171	-84.1698	-165.681	0.048982	0.802144	-0.297463	-0.298735	-0.017078	27.4171	-0.296996	-4244.98	4.023155E-6	NaN
302	1.000000	0.813441	7.36802e+06	-53739.1	955.819	-29745.7	0.000000	0.000000	6.813097	-0.001041	NaN	0.000000	0.001635	0.001711	28.081	0.019438	0.001888	10.2947	165.146	14.6662	0.092813	0.812075	-0.287438	-0.288804	-0.001041	10.2947	-0.287362	-3046.11	3.418697E-7	NaN
302	1.000000	0.823395	7.36802e+06	-53739.1	955.819	-29745.7	0.000000	0.000000	6.823052	0.012430	NaN	0.000000	0.001627	0.001746	28.0806	0.045818	0.001963	23.3351	121.289	-166.405	-0.024536	0.822074	-0.277483	-0.278805	0.012430	23.3351	-0.277883	-2192.84	-5.668518E-6	NaN
302	1.000000	0.833419	7.36802e+06	-53739.1	955.817	-29745.7	0.000000	0.000000	6.833079	0.067486	NaN	0.000000	0.001632	0.001721	28.0807	0.082758	0.001914	43.2437	-157.81	13.6888	0.108243	0.832100	-0.267459	-0.268778	0.067486	43.2437	-0.268630	-1587.47	-4.251167E-5	NaN
302	1.000000	0.843433	7.36802e+06	-53739.1	955.818	-29745.7	0.000000	0.000000	6.843089	-0.019109	NaN	0.000000	0.001660	0.001673	28.0806	0.046072	0.002020	22.8123	-63.4733	-166.963	-0.051061	0.842113	-0.257445	-0.258766	-0.019109	22.8123	-0.256817	-1047.28	1.824640E-5	NaN
302	1.000000	0.853453	7.36802e+06	-53739.1	955.818	-29745.7	0.000000	0.000000	6.853114	0.091843	NaN	0.000000	0.001655	0.001710	28.081	0.145626	0.002083	69.9031	-152.698	19.2604	0.036507	0.852042	-0.247425	-0.248836	0.091843	69.9031	-0.248411	-776.905	-0.000118	NaN
302	1.000000	0.863426	7.36802e+06	-53739.1	955.818	-29745.7	0.000000	0.000000	6.863085	0.048903	NaN	0.000000	0.001663	0.001706	28.0807	0.096512	0.002121	45.5018	130.047	-165.838	0.025200	0.862103	-0.237452	-0.238776	0.048903	45.5018	-0.238258	-539.911	-9.057674E-5	NaN
302	1.000000	0.873464	7.36802e+06	-53739.1	955.819	-29745.7	0.000000	0.000000	6.873119	-0.042287	NaN	0.000000	0.001658	0.001765	28.0808	0.061936	0.001926	32.1629	-74.4353	17.0641	0.027724	0.872097	-0.227415	-0.228781	-0.042287	32.1629	-0.226429	-351.568	0.000120	NaN
302	1.000000	0.883436	7.36802e+06	-53739.1	955.818	-29745.7	0.000000	0.000000	6.883093	0.009664	NaN	0.000000	0.001643	0.001695	28.081	0.094777	0.002034	46.5949	127.242	-164.268	0.005578	0.882131	-0.217443	-0.218747	0.009664	46.5949	-0.217598	-254.237	-3.801147E-5	NaN
302	1.000000	0.893411	7.36802e+06	-53739.1	955.819	-29745.7	0.000000	0.000000	6.893066	-0.039540	NaN	0.000000	0.001637	0.001691	28.0806	0.018486	0.002054	9.000507	-108.912	13.5019	0.050040	0.892037	-0.207468	-0.208842	-0.039540	9.000507	-0.204173	-154.192	0.000256	NaN
302	1.000000	0.903457	7.36802e+06	-53739.1	955.819	-29745.7	0.000000	0.000000	6.903116	0.056632	NaN	0.000000	0.001619	0.001716	28.0808	0.072848	0.001864	39.0833	85.651	-163.266	0.066475	0.902178	-0.197421	-0.198700	0.056632	39.0833	-0.198508	-124.495	-0.000455	NaN
302	1.000000	0.913484	7.36802e+06	-53739.1	955.818	-29745.7	0.000000	0.000000	6.913143	0.052624	NaN	0.000000	0.001621	0.001704	28.0798	0.072481	0.001955	37.0814	86.3514	17.8044	0.021141	0.912117	-0.187394	-0.188761	0.052624	37.0814	-0.188459	-84.771	-0.000621	NaN
302	1.000000	0.923450	7.36802e+06	-53739.1	955.817	-29745.7	0.000000	0.000000	6.923107	0.019523	NaN	0.000000	0.001651	0.001689	28.0796	0.098631	0.001984	49.7143	-15.2344	-160.047	0.120602	0.922132	-0.177429	-0.178746	0.019523	49.7143	-0.177723	-55.8019	-0.000350	NaN
302	1.000000	0.933491	7.36802e+06	-53739.1	955.819	-29745.7	0.000000	0.000000	6.933152	0.114902	NaN	0.000000	0.001626	0.001695	28.0796	0.086665	0.002023	42.83	118.459	15.0155	0.079413	0.932077	-0.167388	-0.168802	0.114902	42.83	-0.169400	-40.1037	-0.002865	NaN
302	1.000000	0.943489	7.36802e+06	-53739.1	955.819	-29745.7	0.000000	0.000000	6.943145	-0.019007	NaN	0.000000	0.001607	0.001673	28.0798	0.032933	0.001931	17.0577	-128.027	-162.402	-0.032285	0.942154	-0.157390	-0.158724	-0.019007	17.0577	-0.156554	-23.7951	0.000799	NaN
302	1.000000	0.953466	7.36802e+06	-53739.1	955.819	-29745.7	0.000000	0.000000	6.953125	0.053101	NaN	0.000000	0.001657	0.001690	28.0796	0.065986	0.002054	32.1272	-131.396	14.5436	0.085957	0.952124	-0.147412	-0.148754	0.053101	32.1272	-0.148652	-17.1147	-0.003103	NaN
302	1.000000	0.963459	7.36802e+06	-53739.1	955.819	-29745.7	0.000000	0.000000	6.963115	-0.012999	NaN	0.000000	0.001665	0.001686	28.0796	0.100776	0.002053	49.09	-87.1815	-162.564	0.105470	0.962143	-0.137420	-0.138736	-0.012999	49.09	-0.137221	-10.4843	0.001240	NaN
302	1.000000	0.973491	7.36802e+06	-53739.1	955.818	-29745.7	0.000000	0.000000	6.973148	-0.003108	NaN	0.000000	0.001668	0.001628	28.0798	0.107368	0.002021	53.1343	163.928	13.2029	-0.027184	0.972088	-0.127387	-0.128790	-0.003108	53.1343	-0.127343	-6.763297	0.000460	NaN
302	1.000000	0.983499	7.36802e+06	-53739.1	955.818	-29745.7	0.000000	0.000000	6.983156	0.005406	NaN	0.000000	0.001670	0.001618	28.0798	0.063787	0.002229	28.6209	133.424	-166.59	0.028451	0.982130	-0.117379	-0.118748	0.005406	28.6209	-0.117521	-4.303202	-0.001256	NaN
302	1.000000	0.993513	7.36802e+06	-53739.1	955.817	-29745.7	0.000000	0.000000	6.993171	0.025837	NaN	0.000000	0.001638	0.001645	28.08	0.019461	0.001986	9.798354	11.3037	14.1515	0.052798	0.992116	-0.107365	-0.108763	0.025837	9.798354	-0.109343	-2.910712	-0.008876	NaN
302	1.000000	1.003496	7.36802e+06	-53739.1	955.818	-29745.7	0.000000	0.000000	7.003154	0.040237	NaN	0.000000	0.001673	0.001609	28.0799	0.064494	0.002023	31.8815	101.79	-164.025	-0.031362	1.002146	-0.097383	-0.098733	0.040237	31.8815	-0.098329	-1.677166	-0.023991	NaN
302	1.000000	1.013457	7.36802e+06	-53739.1	955.817	-29745.7	0.000000	0.000000	7.013114	-0.015304	NaN	0.000000	0.001624	0.001651	28.0798	0.057083	0.001961	29.1049	-61.7101	16.2211	-0.067843	1.012076	-0.087421	-0.088803	-0.015304	29.1049	-0.087027	-0.919215	0.016649	NaN
302	1.000000	1.023510	7.36802e+06	-53739.1	955.818	-29745.7	0.000000	0.000000	7.023166	-0.004471	NaN	0.000000	0.001640	0.001652	28.0799	0.162987	0.001981	82.2607	-20.5094	-166.329	-0.031793	1.022190	-0.077369	-0.078689	-0.004471	82.2607	-0.077328	-0.529988	0.008435	NaN
302	1.000000	1.033524	7.36802e+06	-53739.1	955.818	-29745.7	0.000000	0.000000	7.033181	0.003866	NaN	0.000000	0.001663	0.001661	28.0798	0.064391	0.002056	31.3164	18.163	14.0947	-0.016056	1.032195	-0.067355	-0.068684	0.003866	31.3164	-0.067447	-0.290996	-0.013284	NaN
302	1.000000	1.043500	7.36802e+06	-53739.1	955.817	-29745.7	0.000000	0.000000	7.043158	0.014002	NaN	0.000000	0.001661	0.001642	28.0798	0.114196	0.002031	56.2244	139.54	-162.195	-0.061715	1.042167	-0.057378	-0.058712	0.014002	56.2244	-0.057565	-0.153148	-0.091431	NaN
302	1.000000	1.053519	7.36802e+06	-53739.1	955.818	-29745.7	0.000000	0.000000	7.053178	0.053162	NaN	0.000000	0.001652	0.001637	28.0811	0.173479	0.001901	91.2625	112.272	13.2602	0.161173	1.052131	-0.047360	-0.048748	0.053162	91.2625	-0.047797	-0.078228	-0.679577	NaN
302	1.000000	1.063503	7.36802e+06	-53739.1	955.818	-29745.7	0.000000	0.000000	7.063161	0.018890	NaN	0.000000	0.001641	0.001622	28.0809	0.039699	0.002046	19.4066	163.523	-166.121	-0.056224	1.062242	-0.037375	-0.038636	0.018890	19.4066	-0.038105	-0.039631	-0.476657	NaN
302	1.000000	1.073532	7.36802e+06	-53739.1	955.819	-29745.7	0.000000	0.000000	7.073187	-0.034958	NaN	0.000000	0.001644	0.001640	28.0807	0.104184	0.001879	55.452	79.7105	17.9784	-0.002241	1.072152	-0.027347	-0.028726	-0.034958	55.452	-0.026874	-0.018907	1.848916	NaN
302	1.000000	1.083499	7.36802e+06	-53739.1	955.818	-29745.7	0.000000	0.000000	7.083157	0.031993	NaN	0.000000	0.001666	0.001639	28.0809	0.054749	0.002004	27.3242	-162.909	-168.049	-0.028036	1.082202	-0.017380	-0.018677	0.031993	27.3242	-0.018258	-0.011336	-2.822343	NaN
302	1.000000	1.093516	7.36802e+06	-53739.1	955.818	-29745.7	0.000000	0.000000	7.093172	-0.012529	NaN	0.000000	0.001662	0.001635	28.0809	0.073556	0.002082	35.3308	12.7802	13.2747	0.010744	1.092173	-0.007362	-0.008705	-0.012529	35.3308	-0.007096	-0.004698	2.667026	NaN
302	1.000000	1.103539	7.36803e+06	-53739.1	955.818	-29745.7	0.000000	0.000000	7.103208	0.302590	NaN	0.000000	0.001630	0.001643	28.0812	0.473772	0.002039	232.327	17.7354	-165.794	0.080529	1.102203	0.002661	0.001324	0.302590	232.327	0.001684	0.001301	232.644	5885.6
302	2.000000	1.112625	7.36803e+06	-53739.1	955.817	-29745.7	0.000000	0.000000	7.112610	7.987455	NaN	0.000000	0.001625	0.001639	28.081	8.542466	0.001798	4750.17	12.1354	8.373539	8.187371	1.112000	0.011746	0.011122	7.987455	4750.17	0.010485	0.009726	821.26	44006.7
302	2.000000	1.115169	7.36803e+06	-53739.1	955.817	-29745.7	0.000000	0.000000	7.115287	11.1999	NaN	0.000000	0.001640	0.001650	28.0811	11.1488	0.001811	6156.49	6.737051	-170.816	11.7833	1.114882	0.014291	0.014003	11.1999	6156.49	0.012926	0.012619	887.573	50072.8
302	2.000000	1.117703	7.36803e+06	-53739.1	955.818	-29745.7	0.000000	0.000000	7.117980	15.0785	NaN	0.000000	0.001663	0.001654	28.0808	13.9276	0.001784	7808.02	7.893251	7.471911	15.3405	1.117317	0.016824	0.016439	15.0785	7808.02	0.015376	0.015790	954.934	56770.4
302	2.000000	1.120122	7.36803e+06	-53739.1	955.817	-29745.7	0.000000	0.000000	7.120620	20.4507	NaN	0.000000	0.001640	0.001634	28.081	16.8615	0.001731	9743.19	6.955485	-177.258	19.6575	1.119816	0.019244	0.018937	20.4507	9743.19	0.017670	0.019012	1075.69	64559.9
302	2.000000	1.122605	7.36803e+06	-53739.1	955.818	-29745.7	0.000000	0.000000	7.123301	25.2612	NaN	0.000000	0.001664	0.001630	28.081	20.1498	0.001749	11522.8	5.113108	2.480230	23.3949	1.122281	0.021727	0.021402	25.2612	11522.8	0.020083	0.022672	1114.18	69916.7
302	2.000000	1.125066	7.36803e+06	-53739.1	955.818	-29745.7	0.000000	0.000000	7.126088	33.1856	NaN	0.000000	0.001637	0.001718	28.0808	22.7658	0.001782	12776	2.050325	-174.972	31.3372	1.124785	0.024188	0.023907	33.1856	12776	0.022239	0.026184	1267.39	72135.2
302	2.000000	1.127580	7.36803e+06	-53739.1	955.818	-29745.7	0.000000	0.000000	7.128816	38.4134	NaN	0.000000	0.001626	0.001621	28.0808	25.8756	0.001910	13545.9	9.696425	-0.475010	36.1913	1.127125	0.026701	0.026247	38.4134	13545.9	0.024574	0.030246	1270.04	71161.9
302	2.000000	1.130017	7.36803e+06	-53739.1	955.818	-29745.7	0.000000	0.000000	7.131504	44.4946	NaN	0.000000	0.001645	0.001666	28.0811	27.6273	0.001744	15837.9	5.341091	-179.311	41.8677	1.129739	0.029138	0.028861	44.4946	15837.9	0.027031	0.034815	1278.04	77551.5
302	2.000000	1.132572	7.36803e+06	-53739.1	955.818	-29745.7	0.000000	0.000000	7.134372	52.1063	NaN	0.000000	0.001649	0.001680	28.0798	30.5675	0.001774	17230.5	6.138176	-0.701124	51.0553	1.132212	0.031693	0.031333	52.1063	17230.5	0.029425	0.039561	1317.1	79147.2
302	2.000000	1.135116	7.36803e+06	-53739.1	955.819	-29745.7	0.000000	0.000000	7.137306	61.5858	NaN	0.000000	0.001630	0.001677	28.0797	34.2298	0.001789	19131.6	5.281981	177.997	61.409	1.134764	0.034238	0.033886	61.5858	19131.6	0.031823	0.044608	1380.6	82759.8
302	2.000000	1.137556	7.36803e+06	-53739.1	955.818	-29745.7	0.000000	0.000000	7.140004	67.8445	NaN	0.000000	0.001605	0.001677	28.0799	35.8827	0.001845	19449.3	5.273488	0.177259	66.6132	1.137235	0.036678	0.036356	67.8445	19449.3	0.034062	0.049584	1368.28	79800.6
302	2.000000	1.140014	7.36803e+06	-53739.1	955.818	-29745.7	0.000000	0.000000	7.142959	79.9603	NaN	0.000000	0.001652	0.001692	28.08	38.1304	0.001662	22938.2	4.811610	177.737	77.3978	1.139735	0.039135	0.038856	79.9603	22938.2	0.036521	0.055347	1444.72	89081.5
302	2.000000	1.142572	7.36803e+06	-53739.1	955.819	-29745.7	0.000000	0.000000	7.145576	81.3876	NaN	0.000000	0.001653	0.001663	28.08	41.5095	0.001872	22172.3	4.679240	-1.992101	81.5997	1.142407	0.041694	0.041529	81.3876	22172.3	0.038940	0.061319	1327.28	81806.4
302	2.000000	1.145018	7.36803e+06	-53739.1	955.818	-29745.7	0.000000	0.000000	7.148709	98.0956	NaN	0.000000	0.001636	0.001679	28.0797	43.5696	0.001742	25014.5	0.881233	179.872	94.098	1.144684	0.044139	0.043806	98.0956	25014.5	0.041198	0.067161	1460.6	88187.3
302	2.000000	1.147556	7.36803e+06	-53739.1	955.818	-29745.7	0.000000	0.000000	7.151804	111.613	NaN	0.000000	0.001663	0.001693	28.0802	45.1896	0.001735	26050	3.239035	-1.405647	109.577	1.147131	0.046678	0.046252	111.613	26050	0.043464	0.073288	1522.95	87915.3
302	2.000000	1.150017	7.36803e+06	-53739.1	955.819	-29745.7	0.000000	0.000000	7.154729	122.914	NaN	0.000000	0.001644	0.001719	28.0799	47.0772	0.001633	28821.7	5.131000	174.442	120.17	1.149687	0.049138	0.048808	122.914	28821.7	0.045940	0.080278	1531.11	92938.5
302	2.000000	1.152516	7.36803e+06	-53739.1	955.819	-29745.7	0.000000	0.000000	7.157610	132.2	NaN	0.000000	0.001614	0.001672	28.0801	49.8658	0.001727	28879.1	3.660245	-2.401955	129.128	1.152117	0.051637	0.051238	132.2	28879.1	0.048204	0.086942	1520.56	89483.4
302	2.000000	1.154991	7.36803e+06	-53739.1	955.818	-29745.7	0.000000	0.000000	7.160489	142.012	NaN	0.000000	0.001660	0.001668	28.0801	53.7156	0.001746	30759.1	4.104718	175.995	143.215	1.154769	0.054113	0.053891	142.012	30759.1	0.050650	0.094434	1503.83	91450.1
302	2.000000	1.157601	7.36803e+06	-53739.1	955.818	-29745.7	0.000000	0.000000	7.163812	159.33	NaN	0.000000	0.001628	0.001679	28.0801	55.9218	0.001820	30722.6	5.475632	-4.747716	159.206	1.157138	0.056723	0.056259	159.33	30722.6	0.052833	0.101371	1571.75	88160.6
302	2.000000	1.160014	7.36803e+06	-53739.1	955.817	-29745.7	0.000000	0.000000	7.166695	170.793	NaN	0.000000	0.001685	0.001668	28.0799	58.6879	0.001733	33863.1	7.645476	171.463	169.648	1.159707	0.059135	0.058829	170.793	33863.1	0.055352	0.109672	1557.31	93422.7
302	2.000000	1.162516	7.36803e+06	-53739.1	955.817	-29745.7	0.000000	0.000000	7.169732	183.765	NaN	0.000000	0.001616	0.001673	28.08	61.282	0.001754	34934.6	6.237792	-7.265962	182.13	1.162180	0.061638	0.061301	183.765	34934.6	0.057693	0.117664	1561.77	93047.8
302	2.000000	1.165008	7.36803e+06	-53739.1	955.818	-29745.7	0.000000	0.000000	7.173065	204.217	NaN	0.000000	0.001622	0.001686	28.0807	63.6078	0.001787	35590.8	1.813060	177.278	202.199	1.164709	0.064130	0.063830	204.217	35590.8	0.059826	0.125187	1631.3	91903.6
302	2.000000	1.167435	7.36803e+06	-53739.1	955.818	-29745.7	0.000000	0.000000	7.176213	221.763	NaN	0.000000	0.001606	0.001683	28.0814	65.047	0.001679	38744.6	4.781852	-5.703740	214.726	1.167127	0.066556	0.066249	221.763	38744.6	0.062264	0.134050	1654.33	96683.1
302	2.000000	1.169990	7.36803e+06	-53739.1	955.819	-29745.7	0.000000	0.000000	7.179305	234.816	NaN	0.000000	0.001625	0.001706	28.0811	67.0487	0.001700	39446.4	3.884238	174.853	232.611	1.169643	0.069111	0.068765	234.816	39446.4	0.064647	0.142996	1642.11	95305.6
302	2.000000	1.172470	7.36803e+06	-53739.1	955.818	-29745.7	0.000000	0.000000	7.182298	247.286	NaN	0.000000	0.001754	0.001679	28.0813	70.4972	0.001686	41810.8	3.257071	-5.071281	243.56	1.172174	0.071592	0.071295	247.286	41810.8	0.067156	0.152711	1619.31	97752.1
302	2.000000	1.174971	7.36803e+06	-53739.1	955.819	-29745.7	0.000000	0.000000	7.185373	261.249	NaN	0.000000	0.001711	0.001697	28.0811	75.2228	0.001832	41065.6	4.681401	173.19	258.91	1.174673	0.074092	0.073795	261.249	41065.6	0.069321	0.161337	1619.28	93408.2
302	2.000000	1.177497	7.36803e+06	-53739.1	955.818	-29745.7	0.000000	0.000000	7.188781	282.677	NaN	0.000000	0.001729	0.001670	28.0819	75.952	0.001751	43386.4	5.411527	-7.572821	279.852	1.177158	0.076618	0.076280	282.677	43386.4	0.071732	0.171205	1651.11	95800.7
302	2.000000	1.179987	7.36803e+06	-53739.1	955.818	-29745.7	0.000000	0.000000	7.191543	289.313	NaN	0.000000	0.001675	0.001690	28.081	79.13	0.001844	42907	2.935778	174.254	285.638	1.179639	0.079108	0.078760	289.313	42907	0.074051	0.180956	1598.8	92154.2
302	2.000000	1.182448	7.36803e+06	-53739.1	955.818	-29745.7	0.000000	0.000000	7.194788	308.354	NaN	0.000000	0.001651	0.001664	28.0814	81.2454	0.001705	47640.1	4.358397	-8.229180	303.074	1.182149	0.081569	0.081270	308.354	47640.1	0.076715	0.192470	1602.09	99211.8
302	2.000000	1.184998	7.36803e+06	-53739.1	955.818	-29745.7	0.000000	0.000000	7.197808	319.791	NaN	0.000000	0.001692	0.001663	28.0811	84.5295	0.001814	46588.7	2.136704	173.749	316.933	1.184860	0.084119	0.083982	319.791	46588.7	0.078971	0.202484	1579.34	94592.9
302	2.000000	1.187565	7.36803e+06	-53739.1	955.818	-29745.7	0.000000	0.000000	7.201901	356.902	NaN	0.000000	0.001672	0.001690	28.0813	85.7032	0.001652	51891.4	3.650943	-7.704053	355.903	1.187058	0.086686	0.086180	356.902	51891.4	0.081528	0.214116	1666.86	102458
302	2.000000	1.189871	7.36803e+06	-53739.1	955.819	-29745.7	0.000000	0.000000	7.204494	363.853	NaN	0.000000	0.001665	0.001704	28.0808	87.9473	0.001826	48168.5	2.926310	172.75	357.273	1.189626	0.088992	0.088748	363.853	48168.5	0.083327	0.222486	1635.39	93300.7
302	2.000000	1.192494	7.36803e+06	-53739.1	955.819	-29745.7	0.000000	0.000000	7.208313	392.94	NaN	0.000000	0.001684	0.001696	28.0812	90.9246	0.001793	50703.6	3.249478	-7.687836	390.8	1.192119	0.091615	0.091240	392.94	50703.6	0.085803	0.234247	1677.46	95713.9
302	2.000000	1.195301	7.36803e+06	-53739.1	955.818	-29745.7	0.000000	0.000000	7.211391	399.515	NaN	0.000000	0.001743	0.001712	28.0811	94.3076	0.001717	54920.6	3.274331	172.481	417.997	1.194762	0.094423	0.093883	399.515	54920.6	0.088967	0.249688	1600.06	100418
302	2.000000	1.197478	7.36803e+06	-53739.1	955.818	-29745.7	0.000000	0.000000	7.214530	422.928	NaN	0.000000	0.001713	0.001718	28.0812	96.3086	0.001822	52862.8	4.249396	-9.068378	418.863	1.197233	0.096599	0.096354	422.928	52862.8	0.090599	0.257833	1640.32	95116.2
302	2.000000	1.199986	7.36803e+06	-53739.1	955.818	-29745.7	0.000000	0.000000	7.218425	456.627	NaN	0.000000	0.001718	0.001684	28.0795	99.3002	0.001808	54931.1	5.208257	169.638	455.469	1.199629	0.099108	0.098751	456.627	54931.1	0.092873	0.269386	1695.06	96694.9
302	2.000000	1.202389	7.36803e+06	-53739.1	955.818	-29745.7	0.000000	0.000000	7.221714	478.184	NaN	0.000000	0.001705	0.001690	28.0796	101.902	0.001764	57760.2	2.144444	-7.164104	469.45	1.202046	0.101511	0.101167	478.184	57760.2	0.095301	0.281982	1695.8	99378.2
302	2.000000	1.204967	7.36803e+06	-53739.1	955.818	-29745.7	0.000000	0.000000	7.225200	500.254	NaN	0.000000	0.001615	0.001719	28.0799	105.659	0.001682	62802.6	4.530475	169.811	498.993	1.204742	0.104088	0.103864	500.254	62802.6	0.098114	0.296909	1684.87	105303
302	2.000000	1.207478	7.36803e+06	-53739.1	955.818	-29745.7	0.000000	0.000000	7.228089	509.428	NaN	0.000000	0.001617	0.001681	28.0796	107.794	0.001792	60158.5	5.616237	-11.8595	504.311	1.207327	0.106600	0.106449	509.428	60158.5	0.100249	0.308478	1651.42	98959.6
302	2.000000	1.209913	7.36803e+06	-53739.1	955.818	-29745.7	0.000000	0.000000	7.232299	552.596	NaN	0.000000	0.001617	0.001677	28.0796	109.331	0.001794	60950	8.370989	166.984	548.989	1.209535	0.109034	0.108656	552.596	60950	0.102235	0.319427	1729.96	98528.3
302	2.000000	1.210969	7.36803e+06	-53739.1	955.818	-29745.7	0.000000	0.000000	7.233592	558.358	NaN	0.000000	0.001618	0.001672	28.0796	110.086	0.001733	63527	5.596481	168.901	556.274	1.210663	0.110091	0.109785	558.358	63527	0.103499	0.326489	1710.19	101578