File: remote_trans/data/nanoindenter/0828-1/data/Data_2025-08-06,11h17m57s/2025-07-22_16-23-58_1_320.txt
2025-07-22, 16:23:58, 1
Index	Phase	Displacement	Time	Pos X	Pos Y	Pos Z	Rot A	Rot B	Piezo Z	Force A	Force B	Gripper	Voltage A	Voltage B	Temperature	Amplitude force	Amplitude pos	Stiffness	Phase shift	Phase excitation	Force A raw	Displacement raw	HMax	HMax raw	Real Force	Real Stiffness	Contact Depth	Area	Hardness	Reduced Mod.
[#]	[#]	[um]	[s]	[um]	[um]	[um]	[m°]	[m°]	[um]	[uN]	[uN]	[V]	[V]	[V]	[°C]	[uN]	[um]	[N/m]	[°]	[°]	[uN]	[um]	[um]	[um]	[uN]	[N/m]	[um]	[um^2]	[MPa]	[MPa]
320	1.000000	0.002314	7.3682e+06	-54639.1	955.819	-29743.4	0.000000	0.000000	6.002831	0.045153	NaN	0.000000	0.001711	0.001666	28.0796	0.099856	0.000922	108.281	-169.942	-168.534	0.073917	0.001052	-1.105616	-1.106878	0.045153	108.281	-1.105929	-6.020683E+14	-7.499661E-17	NaN
320	1.000000	0.012343	7.3682e+06	-54639.1	955.819	-29743.4	0.000000	0.000000	6.012859	0.014664	NaN	0.000000	0.001706	0.001685	28.0794	0.064380	0.001202	53.5548	129.658	20.6831	-0.016029	0.010940	-1.095587	-1.096989	0.014664	53.5548	-1.095792	-4.401276E+14	-3.331754E-17	NaN
320	1.000000	0.022238	7.3682e+06	-54639.1	955.819	-29743.4	0.000000	0.000000	6.022754	-1.661211E-5	NaN	0.000000	0.001717	0.001699	28.0798	0.057186	0.001794	31.8748	-63.8969	-165.135	0.103897	0.020975	-1.085691	-1.086954	-1.661211E-5	31.8748	-1.085691	-3.220696E+14	5.157927E-20	NaN
320	1.000000	0.032252	7.3682e+06	-54639.1	955.818	-29743.4	0.000000	0.000000	6.032768	0.009756	NaN	0.000000	0.001718	0.001662	28.0795	0.093911	0.001992	47.1455	-87.5045	14.9441	0.004755	0.030888	-1.075677	-1.077042	0.009756	47.1455	-1.075832	-2.374332E+14	-4.108845E-17	NaN
320	1.000000	0.042239	7.3682e+06	-54639.1	955.818	-29743.4	0.000000	0.000000	6.042757	0.057678	NaN	0.000000	0.001696	0.001687	28.0793	0.043414	0.002007	21.6271	80.0715	-164.038	0.140456	0.040900	-1.065691	-1.067030	0.057678	21.6271	-1.067691	-1.845732E+14	-3.124932E-16	NaN
320	1.000000	0.052254	7.3682e+06	-54639.1	955.818	-29743.4	0.000000	0.000000	6.052770	0.014449	NaN	0.000000	0.001700	0.001658	28.0794	0.023756	0.002052	11.5778	-86.4009	16.5099	0.077278	0.050885	-1.055676	-1.057045	0.014449	11.5778	-1.056612	-1.310034E+14	-1.102978E-16	NaN
320	1.000000	0.062230	7.3682e+06	-54639.1	955.818	-29743.4	0.000000	0.000000	6.062742	-0.061144	NaN	0.000000	0.001731	0.001670	28.0792	0.106782	0.002006	53.2372	-131.852	-162.624	-0.010929	0.060940	-1.045700	-1.046990	-0.061144	53.2372	-1.044839	-9.099704E+13	6.719345E-16	NaN
320	1.000000	0.072256	7.3682e+06	-54639.1	955.819	-29743.4	0.000000	0.000000	6.072774	0.048082	NaN	0.000000	0.001699	0.001706	28.0804	0.054630	0.002044	26.7209	-104.24	17.819	0.030617	0.070940	-1.035673	-1.036990	0.048082	26.7209	-1.037023	-7.143867E+13	-6.730487E-16	NaN
320	1.000000	0.082243	7.3682e+06	-54639.1	955.818	-29743.4	0.000000	0.000000	6.082761	0.063767	NaN	0.000000	0.001737	0.001737	28.0804	0.026099	0.001990	13.1157	-151.744	-164.107	0.060856	0.080959	-1.025687	-1.026971	0.063767	13.1157	-1.029333	-5.630070E+13	-1.132619E-15	NaN
320	1.000000	0.092239	7.3682e+06	-54639.1	955.819	-29743.4	0.000000	0.000000	6.092755	0.016988	NaN	0.000000	0.001718	0.001709	28.0806	0.090113	0.001925	46.8003	121.068	16.6196	-0.075457	0.090871	-1.015691	-1.017059	0.016988	46.8003	-1.015963	-3.720757E+13	-4.565645E-16	NaN
320	1.000000	0.102270	7.3682e+06	-54639.1	955.818	-29743.4	0.000000	0.000000	6.102784	-0.037255	NaN	0.000000	0.001705	0.001707	28.0805	0.108988	0.002021	53.9357	26.0296	-167.47	-0.041405	0.100921	-1.005660	-1.007008	-0.037255	53.9357	-1.005142	-2.660676E+13	1.400202E-15	NaN
320	1.000000	0.112254	7.3682e+06	-54639.1	955.818	-29743.4	0.000000	0.000000	6.112767	-0.066613	NaN	0.000000	0.001719	0.001694	28.0803	0.025827	0.002041	12.6544	-12.0079	14.4168	-0.016645	0.110914	-0.995676	-0.997016	-0.066613	12.6544	-0.991728	-1.755408E+13	3.794755E-15	NaN
320	1.000000	0.122228	7.3682e+06	-54639.1	955.818	-29743.4	0.000000	0.000000	6.122742	-0.039543	NaN	0.000000	0.001728	0.001687	28.0804	0.020546	0.001882	10.9171	-143.406	-165.415	-0.038921	0.120934	-0.985702	-0.986995	-0.039543	10.9171	-0.982985	-1.338522E+13	2.954208E-15	NaN
320	1.000000	0.132251	7.3682e+06	-54639.1	955.818	-29743.4	0.000000	0.000000	6.132764	-0.049785	NaN	0.000000	0.001728	0.001746	28.0807	0.089055	0.001814	49.1011	5.329628	10.5669	-0.090889	0.130863	-0.975679	-0.977066	-0.049785	49.1011	-0.974918	-1.042173E+13	4.777007E-15	NaN
320	1.000000	0.142270	7.3682e+06	-54639.1	955.817	-29743.4	0.000000	0.000000	6.142788	0.071311	NaN	0.000000	0.001697	0.001681	28.0805	0.028565	0.002023	14.1184	149.64	-164.374	0.028548	0.140966	-0.965660	-0.966964	0.071311	14.1184	-0.969448	-8.794834E+12	-8.108278E-15	NaN
320	1.000000	0.152262	7.3682e+06	-54639.1	955.819	-29743.4	0.000000	0.000000	6.152775	-0.067138	NaN	0.000000	0.001675	0.001673	28.0805	0.082660	0.002014	41.0441	40.1498	15.1789	-0.083886	0.150929	-0.955668	-0.957000	-0.067138	41.0441	-0.954441	-5.519707E+12	1.216329E-14	NaN
320	1.000000	0.162277	7.3682e+06	-54639.1	955.819	-29743.4	0.000000	0.000000	6.162791	-0.031382	NaN	0.000000	0.001663	0.001682	28.0807	0.137463	0.002038	67.4571	-7.086417	-162.606	0.051372	0.161024	-0.945653	-0.946906	-0.031382	67.4571	-0.945304	-4.156101E+12	7.550825E-15	NaN
320	1.000000	0.172275	7.3682e+06	-54639.1	955.818	-29743.4	0.000000	0.000000	6.172792	0.031843	NaN	0.000000	0.001668	0.001662	28.0804	0.038448	0.001983	19.3937	-10.1176	15.8642	0.074477	0.170939	-0.935655	-0.936991	0.031843	19.3937	-0.936886	-3.199794E+12	-9.951443E-15	NaN
320	1.000000	0.182287	7.3682e+06	-54639.1	955.819	-29743.4	0.000000	0.000000	6.182799	-0.091717	NaN	0.000000	0.001660	0.001667	28.0801	0.073714	0.001962	37.5789	-147.691	-164.828	-0.089261	0.180940	-0.925642	-0.926990	-0.091717	37.5789	-0.923812	-2.131404E+12	4.303140E-14	NaN
320	1.000000	0.192294	7.3682e+06	-54639.1	955.818	-29743.4	0.000000	0.000000	6.192811	0.035370	NaN	0.000000	0.001672	0.001675	28.0802	0.019323	0.001932	9.999122	116.65	17.1754	0.054762	0.190942	-0.915636	-0.916988	0.035370	9.999122	-0.918289	-1.795139E+12	-1.970347E-14	NaN
320	1.000000	0.202278	7.3682e+06	-54639.1	955.819	-29743.4	0.000000	0.000000	6.202792	-0.025661	NaN	0.000000	0.001669	0.001663	28.0806	0.155621	0.001999	77.8583	-155.859	-161.72	0.041800	0.201016	-0.905652	-0.906914	-0.025661	77.8583	-0.905405	-1.202508E+12	2.133976E-14	NaN
320	1.000000	0.212325	7.3682e+06	-54639.1	955.818	-29743.4	0.000000	0.000000	6.212840	0.008053	NaN	0.000000	0.001682	0.001657	28.0791	0.063424	0.001994	31.8041	173.54	11.4982	-0.048601	0.210919	-0.895605	-0.897011	0.008053	31.8041	-0.895795	-8.917429E+11	-9.030765E-15	NaN
320	1.000000	0.222332	7.3682e+06	-54639.1	955.818	-29743.4	0.000000	0.000000	6.222847	-0.011073	NaN	0.000000	0.001673	0.001635	28.0792	0.137909	0.002096	65.8008	-157.275	-169.303	0.086334	0.220992	-0.885597	-0.886937	-0.011073	65.8008	-0.885471	-6.466752E+11	1.712266E-14	NaN
320	1.000000	0.232306	7.3682e+06	-54639.1	955.818	-29743.4	0.000000	0.000000	6.232821	-0.006157	NaN	0.000000	0.001674	0.001680	28.0791	0.068589	0.001951	35.1585	-116.028	16.9691	-0.078730	0.230950	-0.875624	-0.876980	-0.006157	35.1585	-0.875493	-4.739645E+11	1.298938E-14	NaN
320	1.000000	0.242329	7.3682e+06	-54639.1	955.818	-29743.4	0.000000	0.000000	6.242848	0.072018	NaN	0.000000	0.001679	0.001668	28.079	0.010908	0.002047	5.328400	-32.3939	-165.428	0.037832	0.241021	-0.865600	-0.866908	0.072018	5.328400	-0.875737	-4.775867E+11	-1.507953E-13	NaN
320	1.000000	0.252311	7.3682e+06	-54639.1	955.818	-29743.4	0.000000	0.000000	6.252826	-0.030162	NaN	0.000000	0.001666	0.001627	28.0789	0.127624	0.002213	57.6642	-0.267586	16.028	0.018095	0.250919	-0.855618	-0.857010	-0.030162	57.6642	-0.855226	-2.520544E+11	1.196638E-13	NaN
320	1.000000	0.262335	7.3682e+06	-54639.1	955.819	-29743.4	0.000000	0.000000	6.262851	0.030601	NaN	0.000000	0.001672	0.001666	28.079	0.104549	0.002013	51.9417	123.648	-166.983	0.023216	0.261032	-0.845595	-0.846898	0.030601	51.9417	-0.846037	-1.892633E+11	-1.616824E-13	NaN
320	1.000000	0.272328	7.3682e+06	-54639.1	955.818	-29743.4	0.000000	0.000000	6.272842	-0.040990	NaN	0.000000	0.001651	0.001667	28.0791	0.026515	0.002044	12.973	-90.8448	19.1603	-0.067471	0.270949	-0.835601	-0.836980	-0.040990	12.973	-0.833231	-1.269348E+11	3.229185E-13	NaN
320	1.000000	0.282342	7.3682e+06	-54639.1	955.818	-29743.4	0.000000	0.000000	6.282857	-0.007375	NaN	0.000000	0.001633	0.001689	28.079	0.031155	0.002014	15.4724	-11.2422	-162.682	-0.035777	0.281046	-0.825588	-0.826883	-0.007375	15.4724	-0.825230	-9.888469E+10	7.457763E-14	NaN
320	1.000000	0.292315	7.3682e+06	-54639.1	955.819	-29743.4	0.000000	0.000000	6.292829	-0.033926	NaN	0.000000	0.001649	0.001699	28.0788	0.054319	0.001999	27.1675	147.149	13.5862	-0.087821	0.290971	-0.815615	-0.816958	-0.033926	27.1675	-0.814678	-7.112704E+10	4.769777E-13	NaN
320	1.000000	0.302327	7.3682e+06	-54639.1	955.819	-29743.4	0.000000	0.000000	6.302846	0.077601	NaN	0.000000	0.001655	0.001691	28.0791	0.069556	0.002069	33.6184	-53.8851	-166.48	0.054066	0.301066	-0.805602	-0.806864	0.077601	33.6184	-0.807334	-5.654491E+10	-1.372377E-12	NaN
320	1.000000	0.312333	7.3682e+06	-54639.1	955.818	-29743.4	0.000000	0.000000	6.312852	0.070553	NaN	0.000000	0.001639	0.001690	28.0789	0.058233	0.001919	30.3444	-90.1147	12.9772	0.060014	0.310989	-0.795596	-0.796941	0.070553	30.3444	-0.797340	-4.137658E+10	-1.705140E-12	NaN
320	1.000000	0.322333	7.3682e+06	-54639.1	955.818	-29743.4	0.000000	0.000000	6.322847	-0.036781	NaN	0.000000	0.001670	0.001683	28.0789	0.051143	0.002044	25.0149	121.648	-165.194	-0.038852	0.321077	-0.785597	-0.786852	-0.036781	25.0149	-0.784494	-2.768807E+10	1.328403E-12	NaN
320	1.000000	0.332344	7.3682e+06	-54639.1	955.819	-29743.4	0.000000	0.000000	6.332857	-0.053893	NaN	0.000000	0.001651	0.001706	28.0788	0.052241	0.001977	26.4272	-136.487	13.7378	-0.102568	0.330974	-0.775586	-0.776956	-0.053893	26.4272	-0.774056	-1.997326E+10	2.698270E-12	NaN
320	1.000000	0.342356	7.3682e+06	-54639.1	955.818	-29743.4	0.000000	0.000000	6.342872	0.025083	NaN	0.000000	0.001670	0.001699	28.0792	0.066733	0.002081	32.0704	17.3894	-161.399	0.109186	0.341013	-0.765574	-0.766916	0.025083	32.0704	-0.766161	-1.559904E+10	-1.607981E-12	NaN
320	1.000000	0.352350	7.3682e+06	-54639.1	955.818	-29743.4	0.000000	0.000000	6.352867	0.060975	NaN	0.000000	0.001640	0.001694	28.0802	0.135370	0.002131	63.5171	-160.085	12.7695	0.019535	0.351002	-0.755580	-0.756928	0.060975	63.5171	-0.756300	-1.145413E+10	-5.323445E-12	NaN
320	1.000000	0.362351	7.3682e+06	-54639.1	955.819	-29743.4	0.000000	0.000000	6.362868	0.041351	NaN	0.000000	0.001645	0.001679	28.08	0.068025	0.002054	33.1208	173.917	-165.569	0.088899	0.361095	-0.745578	-0.746835	0.041351	33.1208	-0.746515	-8.428925E+9	-4.905824E-12	NaN
320	1.000000	0.372364	7.3682e+06	-54639.1	955.818	-29743.4	0.000000	0.000000	6.372879	-0.002794	NaN	0.000000	0.001629	0.001681	28.0801	0.013810	0.001898	7.277238	-68.2228	19.6496	-0.006694	0.371031	-0.735566	-0.736899	-0.002794	7.277238	-0.735278	-5.925500E+9	4.714505E-13	NaN
320	1.000000	0.382393	7.3682e+06	-54639.1	955.818	-29743.4	0.000000	0.000000	6.382909	0.021655	NaN	0.000000	0.001647	0.001694	28.0803	0.059818	0.001989	30.0777	-77.4687	-167.805	0.052367	0.381064	-0.725537	-0.726865	0.021655	30.0777	-0.726077	-4.439477E+9	-4.877828E-12	NaN
320	1.000000	0.392399	7.3682e+06	-54639.1	955.818	-29743.4	0.000000	0.000000	6.392912	-0.051875	NaN	0.000000	0.001655	0.001695	28.0802	0.020571	0.001926	10.6827	-114.273	15.1994	0.008090	0.390966	-0.715530	-0.716964	-0.051875	10.6827	-0.711888	-2.843277E+9	1.824470E-11	NaN
320	1.000000	0.402352	7.3682e+06	-54639.1	955.819	-29743.4	0.000000	0.000000	6.402866	-0.035917	NaN	0.000000	0.001646	0.001691	28.0802	0.158791	0.002121	74.878	155.957	-164.187	-0.056835	0.401074	-0.705577	-0.706856	-0.035917	74.878	-0.705218	-2.305539E+9	1.557875E-11	NaN
320	1.000000	0.412358	7.3682e+06	-54639.1	955.818	-29743.4	0.000000	0.000000	6.412874	0.004346	NaN	0.000000	0.001671	0.001639	28.0801	0.107116	0.001920	55.7981	-158.4	14.62	-0.000752	0.410962	-0.695571	-0.696967	0.004346	55.7981	-0.695630	-1.705448E+9	-2.548103E-12	NaN
320	1.000000	0.422399	7.3682e+06	-54639.1	955.819	-29743.4	0.000000	0.000000	6.422914	-0.007858	NaN	0.000000	0.001647	0.001665	28.0803	0.064138	0.002086	30.7534	-169.968	-164.005	-0.013554	0.421073	-0.685531	-0.686857	-0.007858	30.7534	-0.685339	-1.233693E+9	6.369872E-12	NaN
320	1.000000	0.432355	7.3682e+06	-54639.1	955.819	-29743.4	0.000000	0.000000	6.432867	-0.090959	NaN	0.000000	0.001654	0.001653	28.0802	0.093693	0.002051	45.6857	49.5183	12.7827	-0.070216	0.431056	-0.675574	-0.676873	-0.090959	45.6857	-0.674081	-8.654383E+8	1.051020E-10	NaN
320	1.000000	0.442415	7.3682e+06	-54639.1	955.818	-29743.4	0.000000	0.000000	6.442931	-0.002974	NaN	0.000000	0.001678	0.001661	28.0803	0.068948	0.001915	36.0115	-132.55	-166.131	0.000265	0.441048	-0.665514	-0.666882	-0.002974	36.0115	-0.665452	-6.593805E+8	4.509931E-12	NaN
320	1.000000	0.452415	7.3682e+06	-54639.1	955.818	-29743.4	0.000000	0.000000	6.452931	0.022406	NaN	0.000000	0.001662	0.001688	28.0805	0.066263	0.001994	33.2292	-99.6187	14.6928	-0.026883	0.451037	-0.655514	-0.656893	0.022406	33.2292	-0.656020	-4.897183E+8	-4.575306E-11	NaN
320	1.000000	0.462398	7.3682e+06	-54639.1	955.818	-29743.4	0.000000	0.000000	6.462911	-0.063986	NaN	0.000000	0.001652	0.001701	28.0803	0.088825	0.001953	45.4765	134.976	-161.724	-0.151213	0.461099	-0.645531	-0.646830	-0.063986	45.4765	-0.644476	-3.401647E+8	1.881042E-10	NaN
320	1.000000	0.472420	7.3682e+06	-54639.1	955.818	-29743.4	0.000000	0.000000	6.472936	0.006204	NaN	0.000000	0.001678	0.001694	28.0803	0.078544	0.001889	41.5858	-11.5272	14.5871	0.039766	0.471039	-0.635509	-0.636891	0.006204	41.5858	-0.635621	-2.571586E+8	-2.412699E-11	NaN
320	1.000000	0.482447	7.3682e+06	-54639.1	955.819	-29743.4	0.000000	0.000000	6.482963	0.036819	NaN	0.000000	0.001651	0.001673	28.079	0.170995	0.001948	87.7645	66.9207	-159.096	0.026549	0.481106	-0.625483	-0.626824	0.036819	87.7645	-0.625798	-1.884969E+8	-1.953283E-10	NaN
320	1.000000	0.492418	7.3682e+06	-54639.1	955.817	-29743.4	0.000000	0.000000	6.492933	-0.000203	NaN	0.000000	0.001629	0.001680	28.0793	0.014071	0.002028	6.936847	-131.013	20.0279	-0.034299	0.491082	-0.615512	-0.616848	-0.000203	6.936847	-0.615490	-1.360267E+8	1.494611E-12	NaN
320	1.000000	0.502444	7.3682e+06	-54639.1	955.818	-29743.4	0.000000	0.000000	6.502958	-0.033958	NaN	0.000000	0.001680	0.001700	28.0792	0.118999	0.002131	55.8325	158.604	-165.946	-0.016147	0.501082	-0.605486	-0.606847	-0.033958	55.8325	-0.605030	-9.765991E+7	3.477203E-10	NaN
320	1.000000	0.512399	7.3682e+06	-54639.1	955.818	-29743.4	0.000000	0.000000	6.512914	-0.009393	NaN	0.000000	0.001653	0.001662	28.0793	0.069860	0.002000	34.9295	1.872211	16.2685	-0.036081	0.511057	-0.595530	-0.596873	-0.009393	34.9295	-0.595329	-7.179795E+7	1.308255E-10	NaN
320	1.000000	0.522415	7.3682e+06	-54639.1	955.818	-29743.4	0.000000	0.000000	6.522929	-0.025137	NaN	0.000000	0.001653	0.001654	28.079	0.072558	0.001992	36.428	117.158	-167.433	-0.074922	0.521074	-0.585515	-0.586856	-0.025137	36.428	-0.584997	-5.172220E+7	4.860043E-10	NaN
320	1.000000	0.532435	7.3682e+06	-54639.1	955.818	-29743.4	0.000000	0.000000	6.532948	-0.059680	NaN	0.000000	0.001657	0.001690	28.0795	0.037022	0.001950	18.9888	-134.784	20.7383	-0.019894	0.531093	-0.575494	-0.576836	-0.059680	18.9888	-0.573137	-3.547914E+7	1.682114E-9	NaN
320	1.000000	0.542435	7.3682e+06	-54639.1	955.819	-29743.4	0.000000	0.000000	6.542946	-0.118413	NaN	0.000000	0.001659	0.001680	28.079	0.028569	0.002059	13.8769	136.341	-164.479	-0.019885	0.541111	-0.565494	-0.566819	-0.118413	13.8769	-0.559094	-2.269074E+7	5.218557E-9	NaN
320	1.000000	0.552443	7.3682e+06	-54639.1	955.819	-29743.4	0.000000	0.000000	6.552962	0.086761	NaN	0.000000	0.001669	0.001686	28.0792	0.084510	0.001987	42.536	-0.705357	18.6024	0.076706	0.551074	-0.555486	-0.556856	0.086761	42.536	-0.557016	-2.123694E+7	-4.085398E-9	NaN
320	1.000000	0.562471	7.3682e+06	-54639.1	955.818	-29743.4	0.000000	0.000000	6.562986	-0.006996	NaN	0.000000	0.001648	0.001647	28.0791	0.085598	0.001886	45.3828	-2.496580	-161.36	-0.062875	0.561165	-0.545458	-0.546764	-0.006996	45.3828	-0.545343	-1.463627E+7	4.779696E-10	NaN
320	1.000000	0.572424	7.3682e+06	-54639.1	955.818	-29743.4	0.000000	0.000000	6.572937	-0.053975	NaN	0.000000	0.001648	0.001663	28.0792	0.054203	0.001901	28.5171	-125.974	17.5255	-0.035761	0.571051	-0.535506	-0.536879	-0.053975	28.5171	-0.534086	-1.021655E+7	5.283135E-9	NaN
320	1.000000	0.582463	7.3682e+06	-54639.1	955.819	-29743.4	0.000000	0.000000	6.582977	-0.034042	NaN	0.000000	0.001731	0.001660	28.0793	0.013447	0.002006	6.703302	-6.809074	-161.507	-0.029120	0.581121	-0.525467	-0.526809	-0.034042	6.703302	-0.521658	-6.86523e+06	4.958623E-9	NaN
320	1.000000	0.592457	7.3682e+06	-54639.1	955.818	-29743.4	0.000000	0.000000	6.592969	-0.071939	NaN	0.000000	0.001732	0.001622	28.0791	0.092416	0.002020	45.7547	166.573	15.2522	-0.102062	0.591114	-0.515473	-0.516816	-0.071939	45.7547	-0.514294	-5.42252e+06	1.326668E-8	NaN
320	1.000000	0.602469	7.3682e+06	-54639.1	955.819	-29743.4	0.000000	0.000000	6.602982	-0.044543	NaN	0.000000	0.001729	0.001651	28.0792	0.013195	0.002028	6.506886	-58.4266	-161.88	-0.043608	0.601171	-0.505461	-0.506759	-0.044543	6.506886	-0.500327	-3.46399e+06	1.285872E-8	NaN
320	1.000000	0.612477	7.3682e+06	-54639.1	955.819	-29743.4	0.000000	0.000000	6.612994	0.033606	NaN	0.000000	0.001743	0.001685	28.079	0.041737	0.002005	20.8142	157.723	15.1166	-0.021191	0.611121	-0.495452	-0.496809	0.033606	20.8142	-0.496663	-3.07932e+06	-1.091332E-8	NaN
320	1.000000	0.622469	7.3682e+06	-54639.1	955.819	-29743.4	0.000000	0.000000	6.622984	-0.001537	NaN	0.000000	0.001741	0.001651	28.0804	0.043174	0.001954	22.0978	-76.0273	-164.414	-0.002864	0.621134	-0.485461	-0.486796	-0.001537	22.0978	-0.485409	-2.1439e+06	7.168537E-10	NaN
320	1.000000	0.632477	7.3682e+06	-54639.1	955.819	-29743.4	0.000000	0.000000	6.632991	-0.020407	NaN	0.000000	0.001724	0.001653	28.0803	0.034055	0.002078	16.3848	33.1611	15.1111	-0.140849	0.631109	-0.475453	-0.476821	-0.020407	16.3848	-0.474519	-1.50924e+06	1.352123E-8	NaN
320	1.000000	0.642464	7.3682e+06	-54639.1	955.818	-29743.4	0.000000	0.000000	6.642979	-0.025853	NaN	0.000000	0.001702	0.001654	28.0808	0.081221	0.002053	39.5582	85.7062	-164.212	-0.025021	0.641174	-0.465465	-0.466756	-0.025853	39.5582	-0.464975	-1.10892e+06	2.331371E-8	NaN
320	1.000000	0.652470	7.3682e+06	-54639.1	955.818	-29743.4	0.000000	0.000000	6.652985	-0.021686	NaN	0.000000	0.001688	0.001635	28.0803	0.057666	0.002075	27.7919	35.1564	16.4458	-0.048979	0.651163	-0.455460	-0.456767	-0.021686	27.7919	-0.454874	-799740	2.711650E-8	NaN
320	1.000000	0.662514	7.3682e+06	-54639.1	955.819	-29743.4	0.000000	0.000000	6.663028	-0.016055	NaN	0.000000	0.001719	0.001657	28.0805	0.021168	0.001994	10.6166	-56.9988	-164.825	0.038645	0.661193	-0.445416	-0.446737	-0.016055	10.6166	-0.444282	-567241	2.830401E-8	NaN
320	1.000000	0.672487	7.3682e+06	-54639.1	955.819	-29743.4	0.000000	0.000000	6.673006	0.074445	NaN	0.000000	0.001709	0.001678	28.0804	0.041483	0.002064	20.0978	126.152	17.7803	0.066484	0.671131	-0.435442	-0.436798	0.074445	20.0978	-0.438221	-465849	-1.598061E-7	NaN
320	1.000000	0.682525	7.3682e+06	-54639.1	955.819	-29743.4	0.000000	0.000000	6.683043	0.065213	NaN	0.000000	0.001700	0.001645	28.0803	0.063620	0.002075	30.6648	24.3615	-170.228	0.048177	0.681177	-0.425404	-0.426752	0.065213	30.6648	-0.426999	-323291	-2.017173E-7	NaN
320	1.000000	0.692498	7.3682e+06	-54639.1	955.819	-29743.4	0.000000	0.000000	6.693010	-0.077028	NaN	0.000000	0.001705	0.001685	28.0805	0.111393	0.001922	57.9618	-29.3117	15.8096	-0.019136	0.691159	-0.415432	-0.416771	-0.077028	57.9618	-0.414435	-214503	3.591000E-7	NaN
320	1.000000	0.702509	7.3682e+06	-54639.1	955.818	-29743.4	0.000000	0.000000	6.703026	0.027719	NaN	0.000000	0.001780	0.001681	28.0803	0.097937	0.002006	48.8157	-138.697	-164.504	0.055163	0.701198	-0.405420	-0.406732	0.027719	48.8157	-0.405846	-161918	-1.711916E-7	NaN
320	1.000000	0.712507	7.3682e+06	-54639.1	955.818	-29743.4	0.000000	0.000000	6.713024	0.036928	NaN	0.000000	0.001768	0.001649	28.0804	0.060894	0.001927	31.6041	-175.787	17.3056	0.032015	0.711170	-0.395422	-0.396760	0.036928	31.6041	-0.396299	-118354	-3.120136E-7	NaN
320	1.000000	0.722509	7.3682e+06	-54639.1	955.818	-29743.4	0.000000	0.000000	6.723026	0.032067	NaN	0.000000	0.001755	0.001683	28.0803	0.193995	0.001844	105.183	-108.48	-165.417	0.000898	0.721223	-0.385421	-0.386706	0.032067	105.183	-0.385649	-83347.2	-3.847420E-7	NaN
320	1.000000	0.732537	7.3682e+06	-54639.1	955.818	-29743.4	0.000000	0.000000	6.733050	-0.072378	NaN	0.000000	0.001759	0.001627	28.0804	0.078969	0.002048	38.5619	50.2502	13.9643	-0.050610	0.731161	-0.375392	-0.376768	-0.072378	38.5619	-0.373985	-56685.4	1.276832E-6	NaN
320	1.000000	0.742497	7.3682e+06	-54639.1	955.818	-29743.4	0.000000	0.000000	6.743011	-0.038945	NaN	0.000000	0.001729	0.001663	28.0805	0.120673	0.002051	58.838	-139.434	-161.986	-0.019274	0.741177	-0.365433	-0.366753	-0.038945	58.838	-0.364936	-41988.7	9.275054E-7	NaN
320	1.000000	0.752532	7.3682e+06	-54639.1	955.819	-29743.4	0.000000	0.000000	6.753046	-0.015993	NaN	0.000000	0.001689	0.001651	28.0801	0.058517	0.002022	28.9338	-128.647	18.5384	0.000243	0.751186	-0.355398	-0.356744	-0.015993	28.9338	-0.354983	-30147.9	5.304805E-7	NaN
320	1.000000	0.762532	7.3682e+06	-54639.1	955.818	-29743.4	0.000000	0.000000	6.763047	0.005806	NaN	0.000000	0.001661	0.001694	28.0791	0.051702	0.001909	27.0893	-17.2167	-162.228	-0.003085	0.761243	-0.345398	-0.346687	0.005806	27.0893	-0.345559	-22003.1	-2.638759E-7	NaN
320	1.000000	0.772539	7.3682e+06	-54639.1	955.818	-29743.4	0.000000	0.000000	6.773056	0.021415	NaN	0.000000	0.001709	0.001721	28.0789	0.056739	0.002010	28.2323	115.665	15.6549	0.068074	0.771177	-0.335390	-0.336753	0.021415	28.2323	-0.335959	-15944.1	-1.343141E-6	NaN
320	1.000000	0.782539	7.3682e+06	-54639.1	955.818	-29743.4	0.000000	0.000000	6.783055	0.005939	NaN	0.000000	0.001685	0.001729	28.0794	0.125112	0.001909	65.542	43.5426	-161.888	0.017041	0.781206	-0.325390	-0.326723	0.005939	65.542	-0.325458	-11190.9	-5.306685E-7	NaN
320	1.000000	0.792533	7.3682e+06	-54639.1	955.818	-29743.4	0.000000	0.000000	6.793050	0.047323	NaN	0.000000	0.001698	0.001684	28.079	0.046715	0.001981	23.5799	-167.985	15.1431	-0.024408	0.791223	-0.315397	-0.316706	0.047323	23.5799	-0.316902	-8375.3	-5.650317E-6	NaN
320	1.000000	0.802534	7.3682e+06	-54639.1	955.818	-29743.4	0.000000	0.000000	6.803052	0.053183	NaN	0.000000	0.001682	0.001690	28.0794	0.058370	0.001986	29.3894	17.8507	-165.215	0.045082	0.801238	-0.305396	-0.306691	0.053183	29.3894	-0.306753	-5928.66	-8.970468E-6	NaN
320	1.000000	0.812559	7.3682e+06	-54639.1	955.818	-29743.4	0.000000	0.000000	6.813075	0.015254	NaN	0.000000	0.001722	0.001668	28.0791	0.077814	0.002091	37.207	-61.2735	17.537	-0.091453	0.811191	-0.295371	-0.296738	0.015254	37.207	-0.295678	-4057.08	-3.759744E-6	NaN
320	1.000000	0.822542	7.3682e+06	-54639.1	955.819	-29743.4	0.000000	0.000000	6.823061	0.085994	NaN	0.000000	0.001706	0.001670	28.0796	0.087558	0.002009	43.591	-178.735	-166.281	-0.014773	0.821259	-0.285388	-0.286671	0.085994	43.591	-0.286867	-2994.47	-2.871756E-5	NaN
320	1.000000	0.832562	7.3682e+06	-54639.1	955.818	-29743.4	0.000000	0.000000	6.833081	0.069232	NaN	0.000000	0.001651	0.001647	28.0791	0.105795	0.002021	52.3503	-98.584	13.1595	0.060692	0.831224	-0.275367	-0.276706	0.069232	52.3503	-0.276359	-2079.56	-3.329191E-5	NaN
320	1.000000	0.842593	7.3682e+06	-54639.1	955.819	-29743.4	0.000000	0.000000	6.843108	-0.017086	NaN	0.000000	0.001634	0.001681	28.0794	0.093494	0.002088	44.7867	18.256	-165.283	0.019315	0.841224	-0.265337	-0.266705	-0.017086	44.7867	-0.265050	-1400.1	1.220323E-5	NaN
320	1.000000	0.852543	7.3682e+06	-54639.1	955.818	-29743.4	0.000000	0.000000	6.853059	0.021853	NaN	0.000000	0.001686	0.001668	28.0792	0.089437	0.002026	44.1524	68.0574	15.5928	0.014057	0.851177	-0.255386	-0.256752	0.021853	44.1524	-0.255758	-1008.73	-2.166384E-5	NaN
320	1.000000	0.862582	7.3682e+06	-54639.1	955.817	-29743.4	0.000000	0.000000	6.863096	-0.037257	NaN	0.000000	0.001645	0.001679	28.0795	0.124518	0.002112	58.9616	-112.992	-161.315	-0.018227	0.861291	-0.245348	-0.246639	-0.037257	58.9616	-0.244874	-684.685	5.441522E-5	NaN
320	1.000000	0.872585	7.3682e+06	-54639.1	955.818	-29743.4	0.000000	0.000000	6.873100	-0.010177	NaN	0.000000	0.001677	0.001684	28.0791	0.115117	0.002080	55.3501	145.312	12.37	0.059112	0.871227	-0.235344	-0.236702	-0.010177	55.3501	-0.235206	-483.601	2.104361E-5	NaN
320	1.000000	0.882562	7.3682e+06	-54639.1	955.819	-29743.4	0.000000	0.000000	6.883077	-0.017326	NaN	0.000000	0.001685	0.001655	28.0794	0.050916	0.001862	27.352	-104.171	-166.049	-0.111631	0.881270	-0.225367	-0.226660	-0.017326	27.352	-0.224892	-332.371	5.212745E-5	NaN
320	1.000000	0.892611	7.3682e+06	-54639.1	955.818	-29743.4	0.000000	0.000000	6.893123	-0.093618	NaN	0.000000	0.001672	0.001695	28.0805	0.101017	0.001868	54.0907	174.673	13.9656	0.011068	0.891173	-0.215319	-0.216756	-0.093618	54.0907	-0.214021	-222.715	0.000420	NaN
320	1.000000	0.902569	7.3682e+06	-54639.1	955.818	-29743.4	0.000000	0.000000	6.903086	0.041312	NaN	0.000000	0.001663	0.001678	28.0806	0.051648	0.001995	25.8829	-150.825	-164.796	0.040509	0.901263	-0.205361	-0.206667	0.041312	25.8829	-0.206558	-168.632	-0.000245	NaN
320	1.000000	0.912590	7.3682e+06	-54639.1	955.818	-29743.4	0.000000	0.000000	6.913108	0.049046	NaN	0.000000	0.001641	0.001675	28.0804	0.021557	0.002024	10.6505	110.837	16.1099	0.032646	0.911210	-0.195339	-0.196719	0.049046	10.6505	-0.198793	-125.849	-0.000390	NaN
320	1.000000	0.922627	7.3682e+06	-54639.1	955.818	-29743.4	0.000000	0.000000	6.923142	-0.012110	NaN	0.000000	0.001671	0.001676	28.0805	0.008985	0.002059	4.364105	-140.542	-161.557	0.015543	0.921208	-0.185303	-0.186722	-0.012110	4.364105	-0.183221	-69.2002	0.000175	NaN
320	1.000000	0.932579	7.3682e+06	-54639.1	955.819	-29743.4	0.000000	0.000000	6.933095	0.002311	NaN	0.000000	0.001655	0.001688	28.0809	0.038254	0.001930	19.8177	-9.492808	16.1016	-0.063339	0.931269	-0.175350	-0.176661	0.002311	19.8177	-0.175438	-50.9917	-4.533045E-5	NaN
320	1.000000	0.942619	7.3682e+06	-54639.1	955.819	-29743.4	0.000000	0.000000	6.943135	0.002043	NaN	0.000000	0.001647	0.001660	28.0805	0.042132	0.001880	22.4086	51.0815	-160.24	-0.019274	0.941304	-0.165310	-0.166626	0.002043	22.4086	-0.165379	-34.1158	-5.989354E-5	NaN
320	1.000000	0.952589	7.3682e+06	-54639.1	955.818	-29743.4	0.000000	0.000000	6.953102	-0.061770	NaN	0.000000	0.001670	0.001697	28.0804	0.047824	0.002178	21.9613	-19.7598	16.9179	-0.077188	0.951227	-0.155341	-0.156703	-0.061770	21.9613	-0.153231	-20.7338	0.002979	NaN
320	1.000000	0.962620	7.3682e+06	-54639.1	955.818	-29743.4	0.000000	0.000000	6.963139	0.078557	NaN	0.000000	0.001663	0.001677	28.0804	0.071351	0.001861	38.3341	-122.993	-163.029	0.025696	0.961266	-0.145310	-0.146663	0.078557	38.3341	-0.146847	-15.8576	-0.004954	NaN
320	1.000000	0.972626	7.3682e+06	-54639.1	955.818	-29743.4	0.000000	0.000000	6.973143	0.037518	NaN	0.000000	0.001638	0.001731	28.0806	0.132623	0.001977	67.0897	-141.933	17.1218	-0.013834	0.971248	-0.135304	-0.136682	0.037518	67.0897	-0.135723	-9.819309	-0.003821	NaN
320	1.000000	0.982606	7.3682e+06	-54639.1	955.818	-29743.4	0.000000	0.000000	6.983125	0.073950	NaN	0.000000	0.001655	0.001696	28.0806	0.058538	0.001959	29.882	-127.779	-166.297	0.022848	0.981323	-0.125323	-0.126606	0.073950	29.882	-0.127179	-6.713401	-0.011015	NaN
320	1.000000	0.992604	7.3682e+06	-54639.1	955.818	-29743.4	0.000000	0.000000	6.993119	-0.003894	NaN	0.000000	0.001682	0.001683	28.0805	0.086483	0.002008	43.0711	129.366	15.3524	0.007209	0.991218	-0.115326	-0.116711	-0.003894	43.0711	-0.115258	-3.867447	0.001007	NaN
320	1.000000	1.002623	7.3682e+06	-54639.1	955.818	-29743.4	0.000000	0.000000	7.003138	-0.011516	NaN	0.000000	0.001696	0.001707	28.0804	0.014103	0.002090	6.748527	-144.259	-162.366	-0.106789	1.001310	-0.105306	-0.106620	-0.011516	6.748527	-0.104026	-2.239192	0.005143	NaN
320	1.000000	1.012642	7.3682e+06	-54639.1	955.817	-29743.4	0.000000	0.000000	7.013157	0.003049	NaN	0.000000	0.001702	0.001667	28.0804	0.044479	0.002064	21.5536	25.3731	15.584	-0.004976	1.011273	-0.095288	-0.096656	0.003049	21.5536	-0.095394	-1.440073	-0.002117	NaN
320	1.000000	1.022651	7.3682e+06	-54639.1	955.818	-29743.4	0.000000	0.000000	7.023166	-0.004366	NaN	0.000000	0.001679	0.001669	28.0806	0.131931	0.001964	67.1581	107.308	-163.819	-0.049257	1.021380	-0.085279	-0.086550	-0.004366	67.1581	-0.085230	-0.832218	0.005246	NaN
320	1.000000	1.032676	7.3682e+06	-54639.1	955.818	-29743.4	0.000000	0.000000	7.033190	-0.047722	NaN	0.000000	0.001714	0.001705	28.0791	0.058815	0.001937	30.3679	176.91	15.5466	-0.020457	1.031313	-0.075253	-0.076617	-0.047722	30.3679	-0.074075	-0.437023	0.109198	NaN
320	1.000000	1.042640	7.3682e+06	-54639.1	955.818	-29743.4	0.000000	0.000000	7.043154	-0.016112	NaN	0.000000	0.001637	0.001694	28.079	0.024590	0.002108	11.6667	72.2991	-167.6	-0.023891	1.041312	-0.065290	-0.066618	-0.016112	11.6667	-0.064254	-0.237594	0.067814	NaN
320	1.000000	1.052661	7.3682e+06	-54639.1	955.818	-29743.4	0.000000	0.000000	7.053176	-0.014250	NaN	0.000000	0.001655	0.001680	28.0793	0.084216	0.002052	41.0457	95.4553	14.1779	0.027292	1.051263	-0.055269	-0.056666	-0.014250	41.0457	-0.055008	-0.128852	0.110590	NaN
320	1.000000	1.062682	7.3682e+06	-54639.1	955.817	-29743.4	0.000000	0.000000	7.063196	-0.040239	NaN	0.000000	0.001684	0.001691	28.0792	0.118463	0.002128	55.6688	47.7352	-162.223	-0.018686	1.061293	-0.045247	-0.046636	-0.040239	55.6688	-0.044705	-0.062948	0.639242	NaN
320	1.000000	1.072639	7.3682e+06	-54639.1	955.819	-29743.4	0.000000	0.000000	7.073156	0.031365	NaN	0.000000	0.001727	0.001691	28.0791	0.083764	0.001973	42.454	-61.4712	16.4357	-0.033898	1.071306	-0.035291	-0.036623	0.031365	42.454	-0.035845	-0.033919	-0.924696	NaN
320	1.000000	1.082658	7.3682e+06	-54639.1	955.818	-29743.4	0.000000	0.000000	7.083175	0.038505	NaN	0.000000	0.001678	0.001683	28.0791	0.065986	0.002040	32.345	-25.429	-162.478	-0.019312	1.081363	-0.025272	-0.026567	0.038505	32.345	-0.026165	-0.018104	-2.126940	NaN
320	1.000000	1.092666	7.3682e+06	-54639.1	955.818	-29743.4	0.000000	0.000000	7.093178	-0.071875	NaN	0.000000	0.001718	0.001664	28.0793	0.088437	0.002002	44.1805	-111.567	14.5686	-0.013748	1.091295	-0.015264	-0.016634	-0.071875	44.1805	-0.014044	-0.008709	8.253089	NaN
320	1.000000	1.102656	7.3682e+06	-54639.1	955.819	-29743.4	0.000000	0.000000	7.103173	0.028073	NaN	0.000000	0.001694	0.001675	28.0792	0.047451	0.002009	23.6218	56.7761	-163.265	0.045834	1.101390	-0.005274	-0.006540	0.028073	23.6218	-0.006165	-0.004137	-6.785817	NaN
320	1.000000	1.112676	7.3682e+06	-54639.1	955.819	-29743.4	0.000000	0.000000	7.113278	2.090875	NaN	0.000000	0.001706	0.001675	28.0793	2.883024	0.001974	1460.72	9.573480	11.8237	0.994369	1.111285	0.004747	0.003355	2.090875	1460.72	0.003673	0.002954	707.714	24553.1
320	2.000000	1.120206	7.3682e+06	-54639.1	955.818	-29743.4	0.000000	0.000000	7.121105	9.324292	NaN	0.000000	0.001693	0.001705	28.0792	8.854638	0.001776	4984.55	5.982464	-168.544	8.956237	1.119934	0.012276	0.012004	9.324292	4984.55	0.010873	0.010168	917.006	45162.4
320	2.000000	1.122716	7.3682e+06	-54639.1	955.819	-29743.4	0.000000	0.000000	7.123766	12.9902	NaN	0.000000	0.001709	0.001676	28.0798	11.2047	0.001668	6716.02	4.465042	8.374733	11.8558	1.122344	0.014787	0.014415	12.9902	6716.02	0.013336	0.013130	989.341	53548.8
320	2.000000	1.125164	7.3682e+06	-54639.1	955.819	-29743.4	0.000000	0.000000	7.126316	15.4726	NaN	0.000000	0.001743	0.001646	28.0793	14.112	0.001798	7848.63	5.613783	-172.42	15.3822	1.124825	0.017234	0.016896	15.4726	7848.63	0.015756	0.016306	948.872	56155.1
320	2.000000	1.127678	7.3682e+06	-54639.1	955.819	-29743.4	0.000000	0.000000	7.128949	18.3672	NaN	0.000000	0.001742	0.001675	28.0798	16.9401	0.001792	9451.79	9.030557	2.356086	17.6298	1.127270	0.019749	0.019341	18.3672	9451.79	0.018291	0.019928	921.664	61172
320	2.000000	1.130168	7.3682e+06	-54639.1	955.819	-29743.4	0.000000	0.000000	7.131604	22.3816	NaN	0.000000	0.001712	0.001651	28.0796	19.5923	0.001898	10322.7	7.758153	-176.543	22.095	1.129847	0.022239	0.021917	22.3816	10322.7	0.020612	0.023514	951.854	61504.5
320	2.000000	1.132647	7.3682e+06	-54639.1	955.818	-29743.4	0.000000	0.000000	7.134278	27.116	NaN	0.000000	0.001695	0.001686	28.0809	21.9341	0.001950	11246.3	7.950456	2.880398	25.7003	1.132320	0.024717	0.024391	27.116	11246.3	0.022909	0.027321	992.491	62163.4
320	2.000000	1.135142	7.3682e+06	-54639.1	955.82	-29743.4	0.000000	0.000000	7.136993	32.4668	NaN	0.000000	0.001686	0.001639	28.0803	23.9584	0.001764	13578.2	9.182962	179.061	32.7315	1.134813	0.027212	0.026883	32.4668	13578.2	0.025419	0.031782	1021.56	69586.8
320	2.000000	1.137602	7.3682e+06	-54639.1	955.818	-29743.4	0.000000	0.000000	7.139810	41.1652	NaN	0.000000	0.001658	0.001666	28.0805	26.0701	0.001795	14525.9	1.542255	5.814421	38.7891	1.137287	0.029672	0.029357	41.1652	14525.9	0.027547	0.035812	1149.48	70129.7
320	2.000000	1.140128	7.3682e+06	-54639.1	955.818	-29743.4	0.000000	0.000000	7.142389	42.4521	NaN	0.000000	0.001653	0.001665	28.0804	28.5104	0.001755	16247.6	5.879848	179.959	42.2256	1.139875	0.032198	0.031946	42.4521	16247.6	0.030238	0.041239	1029.41	73098.3
320	2.000000	1.142630	7.3682e+06	-54639.1	955.818	-29743.4	0.000000	0.000000	7.145163	49.0647	NaN	0.000000	0.001689	0.001709	28.0806	30.7411	0.001850	16614.9	5.368797	1.704367	46.1862	1.142241	0.034700	0.034311	49.0647	16614.9	0.032485	0.046052	1065.41	70736.6
320	2.000000	1.145053	7.3682e+06	-54639.1	955.819	-29743.4	0.000000	0.000000	7.147872	55.9955	NaN	0.000000	0.001694	0.001694	28.0803	32.6711	0.001703	19183.4	5.683598	179.114	53.7985	1.144813	0.037123	0.036884	55.9955	19183.4	0.034934	0.051592	1085.34	77162.2
320	2.000000	1.147577	7.3682e+06	-54639.1	955.818	-29743.4	0.000000	0.000000	7.150702	63.4416	NaN	0.000000	0.001688	0.001694	28.0806	34.9616	0.001840	18998.5	8.051124	-2.531752	61.1246	1.147310	0.039648	0.039380	63.4416	18998.5	0.037143	0.056854	1115.86	72796.5
320	2.000000	1.150101	7.3682e+06	-54639.1	955.818	-29743.4	0.000000	0.000000	7.153505	70.2053	NaN	0.000000	0.001662	0.001641	28.0804	37.1528	0.001758	21130.8	4.583649	-179.939	69.472	1.149811	0.042172	0.041882	70.2053	21130.8	0.039680	0.063204	1110.78	76792.4
320	2.000000	1.152607	7.3682e+06	-54639.1	955.818	-29743.4	0.000000	0.000000	7.156315	77.5973	NaN	0.000000	0.001685	0.001708	28.0804	39.3592	0.001832	21483.2	3.947426	0.276218	75.7468	1.152185	0.044678	0.044255	77.5973	21483.2	0.041969	0.069215	1121.1	74605.4
320	2.000000	1.155131	7.3682e+06	-54639.1	955.818	-29743.4	0.000000	0.000000	7.159094	83.8134	NaN	0.000000	0.001700	0.001705	28.0805	42.6248	0.001766	24139.4	8.782527	173.809	85.5531	1.154790	0.047202	0.046860	83.8134	24139.4	0.044598	0.076449	1096.33	79765.3
320	2.000000	1.157558	7.3682e+06	-54639.1	955.819	-29743.4	0.000000	0.000000	7.161917	93.4342	NaN	0.000000	0.001742	0.001677	28.0815	44.2586	0.001757	25188.7	5.089931	-3.109238	90.8118	1.157293	0.049628	0.049363	93.4342	25188.7	0.046846	0.082915	1126.87	79921.6
320	2.000000	1.160029	7.3682e+06	-54639.1	955.819	-29743.4	0.000000	0.000000	7.164765	102.588	NaN	0.000000	0.001715	0.001713	28.0805	46.9511	0.001870	25105.1	3.126186	179.726	101.649	1.159807	0.052100	0.051877	102.588	25105.1	0.049035	0.089454	1146.83	76689.4
320	2.000000	1.162587	7.3682e+06	-54639.1	955.819	-29743.4	0.000000	0.000000	7.168026	119.705	NaN	0.000000	0.001751	0.001648	28.0804	48.5995	0.001727	28141.6	6.151773	-3.843026	117.912	1.162177	0.054657	0.054247	119.705	28141.6	0.051467	0.097001	1234.06	82553.1
320	2.000000	1.165172	7.3682e+06	-54639.1	955.818	-29743.4	0.000000	0.000000	7.170881	126.257	NaN	0.000000	0.001758	0.001680	28.0792	51.3804	0.001877	27370.2	6.539402	176.976	129.848	1.164722	0.057243	0.056793	126.257	27370.2	0.053783	0.104463	1208.63	77369.2
320	2.000000	1.167545	7.3682e+06	-54639.1	955.818	-29743.4	0.000000	0.000000	7.173631	135.421	NaN	0.000000	0.001762	0.001724	28.0803	53.8519	0.001768	30459.8	5.247825	-3.853490	133.263	1.167117	0.059615	0.059187	135.421	30459.8	0.056281	0.112811	1200.42	82856.2
320	2.000000	1.170039	7.3682e+06	-54639.1	955.819	-29743.4	0.000000	0.000000	7.176650	148.175	NaN	0.000000	0.001759	0.001660	28.0791	57.3213	0.001819	31509.7	4.233642	176.218	144.527	1.169858	0.062110	0.061928	148.175	31509.7	0.058583	0.120776	1226.86	82837.5
320	2.000000	1.172522	7.3682e+06	-54639.1	955.819	-29743.4	0.000000	0.000000	7.179633	160.347	NaN	0.000000	0.001767	0.001657	28.0791	58.9303	0.001853	31795	6.630184	-5.016566	156.61	1.172176	0.064592	0.064247	160.347	31795	0.060810	0.128728	1245.62	80964.6
320	2.000000	1.175113	7.3682e+06	-54639.1	955.819	-29743.4	0.000000	0.000000	7.182508	167.251	NaN	0.000000	0.001789	0.001671	28.0791	61.6218	0.001784	34550.4	6.255156	174.083	170.147	1.174897	0.067183	0.066968	167.251	34550.4	0.063553	0.138855	1204.5	84712.3
320	2.000000	1.177595	7.3682e+06	-54639.1	955.819	-29743.4	0.000000	0.000000	7.185639	183.036	NaN	0.000000	0.001717	0.001659	28.0796	63.6513	0.001799	35379.5	3.927331	-3.815159	180.226	1.177216	0.069665	0.069286	183.036	35379.5	0.065785	0.147366	1242.05	84202.7
320	2.000000	1.180077	7.3682e+06	-54639.1	955.819	-29743.4	0.000000	0.000000	7.188748	198.279	NaN	0.000000	0.001709	0.001664	28.0791	66.6412	0.001826	36501.1	6.925980	173.219	198.873	1.179702	0.072147	0.071772	198.279	36501.1	0.068073	0.156338	1268.27	84342.5
320	2.000000	1.182590	7.3682e+06	-54639.1	955.819	-29743.4	0.000000	0.000000	7.191959	215.228	NaN	0.000000	0.001680	0.001654	28.0792	68.041	0.001896	35882.4	4.117669	-3.533792	214.783	1.182155	0.074660	0.074225	215.228	35882.4	0.070162	0.164746	1306.42	80769.4
320	2.000000	1.185054	7.3682e+06	-54639.1	955.82	-29743.4	0.000000	0.000000	7.195033	230.057	NaN	0.000000	0.001703	0.001645	28.0791	70.4227	0.001871	37648.1	11.0437	169.011	229.26	1.184617	0.077124	0.076687	230.057	37648.1	0.072541	0.174578	1317.79	82322.9
320	2.000000	1.187487	7.3682e+06	-54639.1	955.82	-29743.4	0.000000	0.000000	7.197881	240.166	NaN	0.000000	0.001699	0.001658	28.0796	72.2203	0.001788	40389.5	2.109855	-3.259171	233.589	1.187133	0.079557	0.079203	240.166	40389.5	0.075098	0.185440	1295.11	85691.9
320	2.000000	1.190034	7.3682e+06	-54639.1	955.819	-29743.4	0.000000	0.000000	7.201013	254.382	NaN	0.000000	0.001695	0.001643	28.0791	76.4569	0.001836	41637.2	6.512348	171.779	254.113	1.189814	0.082104	0.081884	254.382	41637.2	0.077522	0.196025	1297.7	85920.9
320	2.000000	1.192547	7.3682e+06	-54639.1	955.819	-29743.4	0.000000	0.000000	7.204332	273.951	NaN	0.000000	0.001700	0.001659	28.0794	76.9328	0.001761	43683.2	5.220817	-5.880584	272.324	1.192178	0.084618	0.084249	273.951	43683.2	0.079914	0.206739	1325.11	87776.2
320	2.000000	1.195039	7.3682e+06	-54639.1	955.819	-29743.4	0.000000	0.000000	7.207687	294.945	NaN	0.000000	0.001717	0.001698	28.0792	79.9328	0.001794	44551.7	6.366401	173.577	293.688	1.194621	0.087110	0.086691	294.945	44551.7	0.082144	0.216967	1359.4	87385.6
320	2.000000	1.197480	7.3682e+06	-54639.1	955.82	-29743.4	0.000000	0.000000	7.210633	307.227	NaN	0.000000	0.001722	0.001689	28.0793	81.7245	0.001794	45563.3	1.552053	-3.427514	303.155	1.197189	0.089551	0.089259	307.227	45563.3	0.084493	0.227991	1347.54	87182.6
320	2.000000	1.200068	7.3682e+06	-54639.1	955.82	-29743.4	0.000000	0.000000	7.213968	325.39	NaN	0.000000	0.001788	0.001730	28.0806	85.8643	0.001830	46929.6	5.765912	172.416	326.797	1.199664	0.092138	0.091735	325.39	46929.6	0.086938	0.239733	1357.3	87570
320	2.000000	1.202526	7.3682e+06	-54639.1	955.819	-29743.4	0.000000	0.000000	7.216913	337.229	NaN	0.000000	0.001775	0.001716	28.0806	86.9166	0.001750	49663.4	3.476867	-6.190933	331.73	1.202177	0.094596	0.094247	337.229	49663.4	0.089503	0.252352	1336.34	90324.6
320	2.000000	1.205002	7.3682e+06	-54639.1	955.82	-29743.4	0.000000	0.000000	7.219956	351.014	NaN	0.000000	0.001769	0.001684	28.081	89.0861	0.001749	50947.7	4.467602	172.503	347.32	1.204697	0.097072	0.096767	351.014	50947.7	0.091905	0.264438	1327.4	90518.2
320	2.000000	1.207546	7.3682e+06	-54639.1	955.819	-29743.4	0.000000	0.000000	7.223687	379.855	NaN	0.000000	0.001767	0.001682	28.0807	92.3756	0.001783	51811.4	4.382637	-7.088776	378.235	1.207086	0.099616	0.099156	379.855	51811.4	0.094118	0.275809	1377.24	90135.3
320	2.000000	1.210039	7.3682e+06	-54639.1	955.819	-29743.4	0.000000	0.000000	7.226975	399.187	NaN	0.000000	0.001770	0.001684	28.0807	95.2784	0.001825	52195.7	3.750304	173.464	399.374	1.209691	0.102109	0.101761	399.187	52195.7	0.096373	0.287627	1387.86	88918.7
320	2.000000	1.212485	7.3682e+06	-54639.1	955.819	-29743.4	0.000000	0.000000	7.230402	423.048	NaN	0.000000	0.001797	0.001713	28.0807	97.6033	0.001915	50959.1	6.878640	-9.223168	417.38	1.212035	0.104555	0.104106	423.048	50959.1	0.098329	0.298063	1419.33	85278.9
320	2.000000	1.214869	7.3682e+06	-54639.1	955.819	-29743.4	0.000000	0.000000	7.233552	441.635	NaN	0.000000	0.001781	0.001712	28.0808	99.9353	0.001819	54948.7	6.929191	169.667	432.942	1.214572	0.106940	0.106643	441.635	54948.7	0.100912	0.312114	1414.98	89861.6
320	2.000000	1.217560	7.3682e+06	-54639.1	955.819	-29743.4	0.000000	0.000000	7.236665	451.907	NaN	0.000000	0.001774	0.001744	28.0807	102.353	0.001788	57256.7	2.345684	-5.907460	451.133	1.217246	0.109630	0.109317	451.907	57256.7	0.103711	0.327681	1379.11	91384.8
320	2.000000	1.217920	7.3682e+06	-54639.1	955.819	-29743.4	0.000000	0.000000	7.237354	459.916	NaN	0.000000	0.001769	0.001737	28.0808	103.292	0.001860	55521.2	6.090303	170.691	452.93	1.217732	0.109990	0.109803	459.916	55521.2	0.103778	0.328057	1401.94	88564