File: remote_trans/data/nanoindenter/0828-1/data/Data_2025-08-06,11h17m57s/2025-07-22_16-23-58_1_332.txt
2025-07-22, 16:23:58, 1
Index	Phase	Displacement	Time	Pos X	Pos Y	Pos Z	Rot A	Rot B	Piezo Z	Force A	Force B	Gripper	Voltage A	Voltage B	Temperature	Amplitude force	Amplitude pos	Stiffness	Phase shift	Phase excitation	Force A raw	Displacement raw	HMax	HMax raw	Real Force	Real Stiffness	Contact Depth	Area	Hardness	Reduced Mod.
[#]	[#]	[um]	[s]	[um]	[um]	[um]	[m°]	[m°]	[um]	[uN]	[uN]	[V]	[V]	[V]	[°C]	[uN]	[um]	[N/m]	[°]	[°]	[uN]	[um]	[um]	[um]	[uN]	[N/m]	[um]	[um^2]	[MPa]	[MPa]
332	1.000000	0.002620	7.36831e+06	-55239.1	955.817	-29742.2	0.000000	0.000000	6.002803	0.048137	NaN	0.000000	0.001591	0.001717	28.0783	0.062581	0.000978	63.9713	147.998	-168.796	0.007420	0.001355	-1.108838	-1.110104	0.048137	63.9713	-1.109403	-6.703045E+14	-7.181329E-17	NaN
332	1.000000	0.012705	7.36831e+06	-55239.1	955.818	-29742.2	0.000000	0.000000	6.012887	0.019212	NaN	0.000000	0.001516	0.001700	28.0782	0.156553	0.001235	126.733	133.937	21.307	-0.030516	0.011260	-1.098753	-1.100199	0.019212	126.733	-1.098867	-4.840146E+14	-3.969312E-17	NaN
332	1.000000	0.022568	7.36831e+06	-55239.1	955.819	-29742.2	0.000000	0.000000	6.022747	-0.042866	NaN	0.000000	0.001557	0.001679	28.0782	0.043274	0.001745	24.8034	103.609	-164.865	-0.001168	0.021245	-1.088891	-1.090213	-0.042866	24.8034	-1.087595	-3.415960E+14	1.254869E-16	NaN
332	1.000000	0.032562	7.36831e+06	-55239.1	955.819	-29742.2	0.000000	0.000000	6.032743	-0.003516	NaN	0.000000	0.001556	0.001687	28.078	0.083850	0.001971	42.55	119.408	14.4322	0.064221	0.031233	-1.078897	-1.080226	-0.003516	42.55	-1.078835	-2.605365E+14	1.349336E-17	NaN
332	1.000000	0.042597	7.36831e+06	-55239.1	955.819	-29742.2	0.000000	0.000000	6.042776	-0.029206	NaN	0.000000	0.001579	0.001703	28.078	0.046400	0.001922	24.1371	-155.663	-165.519	0.081716	0.041245	-1.068862	-1.070213	-0.029206	24.1371	-1.067954	-1.860830E+14	1.569492E-16	NaN
332	1.000000	0.052568	7.36831e+06	-55239.1	955.819	-29742.2	0.000000	0.000000	6.052749	-0.012647	NaN	0.000000	0.001572	0.001697	28.078	0.029451	0.001876	15.6961	166.16	19.0349	-0.042974	0.051149	-1.058890	-1.060309	-0.012647	15.6961	-1.058286	-1.379712E+14	9.166468E-17	NaN
332	1.000000	0.062576	7.36831e+06	-55239.1	955.819	-29742.2	0.000000	0.000000	6.062756	-0.019196	NaN	0.000000	0.001579	0.001720	28.0796	0.052600	0.002092	25.1441	-42.5428	-165.366	-0.044716	0.061256	-1.048883	-1.050203	-0.019196	25.1441	-1.048310	-1.013205E+14	1.894586E-16	NaN
332	1.000000	0.072570	7.36831e+06	-55239.1	955.82	-29742.2	0.000000	0.000000	6.072754	0.093183	NaN	0.000000	0.001554	0.001754	28.0793	0.059774	0.001876	31.8616	-23.1579	11.3936	0.086431	0.071220	-1.038889	-1.040239	0.093183	31.8616	-1.041083	-8.100741E+13	-1.150307E-15	NaN
332	1.000000	0.082572	7.36831e+06	-55239.1	955.818	-29742.2	0.000000	0.000000	6.082753	0.012872	NaN	0.000000	0.001546	0.001729	28.0792	0.049413	0.002143	23.0561	54.0765	-163.566	0.024228	0.081270	-1.028887	-1.030188	0.012872	23.0561	-1.029305	-5.625198E+13	-2.288356E-16	NaN
332	1.000000	0.092583	7.36831e+06	-55239.1	955.818	-29742.2	0.000000	0.000000	6.092763	-0.007975	NaN	0.000000	0.001554	0.001709	28.0792	0.043776	0.001981	22.0943	12.7497	13.4801	0.002389	0.091206	-1.018876	-1.020253	-0.007975	22.0943	-1.018605	-4.038162E+13	1.974881E-16	NaN
332	1.000000	0.102599	7.36831e+06	-55239.1	955.819	-29742.2	0.000000	0.000000	6.102778	-0.026026	NaN	0.000000	0.001567	0.001701	28.0795	0.090578	0.002130	42.5348	-138.903	-168.756	-0.073692	0.101266	-1.008860	-1.010193	-0.026026	42.5348	-1.008401	-2.943486E+13	8.841873E-16	NaN
332	1.000000	0.112571	7.36831e+06	-55239.1	955.819	-29742.2	0.000000	0.000000	6.112751	-0.032401	NaN	0.000000	0.001578	0.001703	28.0791	0.134050	0.001916	69.9773	18.9077	12.1931	-0.084766	0.111215	-0.998887	-1.000244	-0.032401	69.9773	-0.998540	-2.168256E+13	1.494323E-15	NaN
332	1.000000	0.122583	7.36831e+06	-55239.1	955.818	-29742.2	0.000000	0.000000	6.122764	0.002613	NaN	0.000000	0.001538	0.001696	28.0793	0.064019	0.002006	31.9127	128.192	-166.985	0.010490	0.121278	-0.988876	-0.990180	0.002613	31.9127	-0.988937	-1.609897E+13	-1.622852E-16	NaN
332	1.000000	0.132619	7.36831e+06	-55239.1	955.817	-29742.2	0.000000	0.000000	6.132798	-0.033018	NaN	0.000000	0.001561	0.001697	28.0793	0.026892	0.002037	13.2004	25.7018	10.5279	0.055942	0.131213	-0.978840	-0.980246	-0.033018	13.2004	-0.976964	-1.110466E+13	2.973329E-15	NaN
332	1.000000	0.142593	7.36831e+06	-55239.1	955.819	-29742.2	0.000000	0.000000	6.142775	0.020721	NaN	0.000000	0.001573	0.001677	28.0795	0.065733	0.001974	33.301	156.353	-165.095	-0.059491	0.141285	-0.968866	-0.970173	0.020721	33.301	-0.969332	-8.763230E+12	-2.364581E-15	NaN
332	1.000000	0.152589	7.36831e+06	-55239.1	955.819	-29742.2	0.000000	0.000000	6.152772	0.032717	NaN	0.000000	0.001573	0.001706	28.0791	0.107580	0.002005	53.6467	157.034	14.8237	0.081166	0.151226	-0.958869	-0.960233	0.032717	53.6467	-0.959327	-6.423765E+12	-5.093075E-15	NaN
332	1.000000	0.162606	7.36831e+06	-55239.1	955.817	-29742.2	0.000000	0.000000	6.162784	-0.060592	NaN	0.000000	0.001584	0.001700	28.0796	0.124441	0.002032	61.2528	120.719	-166.182	-0.102285	0.161296	-0.948853	-0.950162	-0.060592	61.2528	-0.948111	-4.534705E+12	1.336180E-14	NaN
332	1.000000	0.172610	7.36831e+06	-55239.1	955.818	-29742.2	0.000000	0.000000	6.172791	0.010912	NaN	0.000000	0.001582	0.001751	28.0793	0.070142	0.002181	32.1559	173.44	13.2322	-0.001231	0.171302	-0.938848	-0.940157	0.010912	32.1559	-0.939103	-3.427954E+12	-3.183137E-15	NaN
332	1.000000	0.182630	7.36831e+06	-55239.1	955.817	-29742.2	0.000000	0.000000	6.182813	0.057433	NaN	0.000000	0.001570	0.001684	28.0793	0.112219	0.001992	56.3397	93.692	-166.955	-0.010058	0.181324	-0.928829	-0.930134	0.057433	56.3397	-0.929593	-2.550995E+12	-2.251407E-14	NaN
332	1.000000	0.192634	7.36831e+06	-55239.1	955.818	-29742.2	0.000000	0.000000	6.192815	0.014083	NaN	0.000000	0.001571	0.001702	28.0791	0.045635	0.002025	22.5336	-150.295	15.7792	0.034557	0.191257	-0.918825	-0.920202	0.014083	22.5336	-0.919294	-1.852111E+12	-7.604008E-15	NaN
332	1.000000	0.202619	7.36831e+06	-55239.1	955.818	-29742.2	0.000000	0.000000	6.202798	-0.046096	NaN	0.000000	0.001589	0.001717	28.0781	0.044085	0.001974	22.3306	-72.7873	-165.479	0.010328	0.201326	-0.908840	-0.910132	-0.046096	22.3306	-0.907292	-1.275206E+12	3.614775E-14	NaN
332	1.000000	0.212615	7.36831e+06	-55239.1	955.818	-29742.2	0.000000	0.000000	6.212796	0.002861	NaN	0.000000	0.001553	0.001689	28.0781	0.053199	0.002054	25.897	-123.666	11.3256	-0.047178	0.211273	-0.898843	-0.900186	0.002861	25.897	-0.898926	-9.830053E+11	-2.910029E-15	NaN
332	1.000000	0.222629	7.36831e+06	-55239.1	955.819	-29742.2	0.000000	0.000000	6.222810	0.004280	NaN	0.000000	0.001577	0.001723	28.0779	0.082299	0.002013	40.879	117.672	-167.602	-0.017261	0.221341	-0.888830	-0.890117	0.004280	40.879	-0.888908	-7.197097E+11	-5.946254E-15	NaN
332	1.000000	0.232637	7.36831e+06	-55239.1	955.819	-29742.2	0.000000	0.000000	6.232818	0.009275	NaN	0.000000	0.001612	0.001718	28.0779	0.033780	0.002045	16.5206	-81.3038	12.1838	0.035170	0.231261	-0.878822	-0.880197	0.009275	16.5206	-0.879243	-5.326836E+11	-1.741163E-14	NaN
332	1.000000	0.242635	7.36831e+06	-55239.1	955.818	-29742.2	0.000000	0.000000	6.242818	0.046551	NaN	0.000000	0.001577	0.001727	28.0781	0.121016	0.001908	63.4341	-65.5151	-166.769	0.036876	0.241292	-0.868823	-0.870166	0.046551	63.4341	-0.869374	-3.917134E+11	-1.188402E-13	NaN
332	1.000000	0.252641	7.36831e+06	-55239.1	955.819	-29742.2	0.000000	0.000000	6.252824	0.063386	NaN	0.000000	0.001576	0.001687	28.0781	0.095925	0.002012	47.67	76.95	14.1274	0.061940	0.251309	-0.858818	-0.860150	0.063386	47.67	-0.859815	-2.908163E+11	-2.179580E-13	NaN
332	1.000000	0.262658	7.36831e+06	-55239.1	955.819	-29742.2	0.000000	0.000000	6.262838	-0.019565	NaN	0.000000	0.001624	0.001712	28.0781	0.023444	0.002109	11.1153	12.2723	-168.003	-0.068109	0.261316	-0.848800	-0.850143	-0.019565	11.1153	-0.847480	-1.979763E+11	9.882531E-14	NaN
332	1.000000	0.272651	7.36831e+06	-55239.1	955.819	-29742.2	0.000000	0.000000	6.272832	0.003151	NaN	0.000000	0.001605	0.001738	28.0781	0.051556	0.001911	26.9792	65.2409	12.9244	0.015342	0.271340	-0.838808	-0.840119	0.003151	26.9792	-0.838895	-1.514704E+11	-2.080213E-14	NaN
332	1.000000	0.282676	7.36831e+06	-55239.1	955.819	-29742.2	0.000000	0.000000	6.282859	0.037644	NaN	0.000000	0.001564	0.001697	28.0781	0.152969	0.002053	74.5096	12.8472	-167.669	0.047100	0.281351	-0.828783	-0.830108	0.037644	74.5096	-0.829161	-1.117940E+11	-3.367292E-13	NaN
332	1.000000	0.292646	7.36831e+06	-55239.1	955.819	-29742.2	0.000000	0.000000	6.292827	0.006724	NaN	0.000000	0.001574	0.001711	28.0781	0.151342	0.001949	77.6317	-81.4478	16.0998	-0.036106	0.291298	-0.818813	-0.820161	0.006724	77.6317	-0.818878	-8.109448E+10	-8.291299E-14	NaN
332	1.000000	0.302675	7.36831e+06	-55239.1	955.818	-29742.2	0.000000	0.000000	6.302856	0.011418	NaN	0.000000	0.001562	0.001696	28.078	0.075290	0.001919	39.2356	-20.0697	-169.417	0.071211	0.301352	-0.808783	-0.810107	0.011418	39.2356	-0.809002	-5.956996E+10	-1.916778E-13	NaN
332	1.000000	0.312674	7.36831e+06	-55239.1	955.818	-29742.2	0.000000	0.000000	6.312854	-0.012847	NaN	0.000000	0.001536	0.001682	28.0781	0.099323	0.002009	49.4273	51.9238	16.7444	-0.042970	0.311350	-0.798785	-0.800109	-0.012847	49.4273	-0.798590	-4.302468E+10	2.985953E-13	NaN
332	1.000000	0.322687	7.36831e+06	-55239.1	955.819	-29742.2	0.000000	0.000000	6.322869	0.019445	NaN	0.000000	0.001596	0.001709	28.0783	0.044625	0.001971	22.6379	100.522	-165.39	0.014619	0.321372	-0.788771	-0.790086	0.019445	22.6379	-0.789415	-3.229562E+10	-6.020977E-13	NaN
332	1.000000	0.332670	7.36831e+06	-55239.1	955.818	-29742.2	0.000000	0.000000	6.332849	-0.051840	NaN	0.000000	0.001594	0.001701	28.0784	0.047670	0.001942	24.549	-8.321400	13.435	0.030976	0.331303	-0.778789	-0.780156	-0.051840	24.549	-0.777205	-2.204172E+10	2.351918E-12	NaN
332	1.000000	0.342707	7.36831e+06	-55239.1	955.817	-29742.2	0.000000	0.000000	6.342889	0.027482	NaN	0.000000	0.001575	0.001734	28.0795	0.083172	0.001995	41.6894	-141.989	-165.781	0.087985	0.341404	-0.768752	-0.770055	0.027482	41.6894	-0.769246	-1.718145E+10	-1.599494E-12	NaN
332	1.000000	0.352698	7.36831e+06	-55239.1	955.818	-29742.2	0.000000	0.000000	6.352876	-0.068621	NaN	0.000000	0.001564	0.001703	28.0792	0.059272	0.001933	30.6558	-51.108	14.8864	0.000932	0.351289	-0.758760	-0.760169	-0.068621	30.6558	-0.757082	-1.173805E+10	5.846016E-12	NaN
332	1.000000	0.362690	7.36831e+06	-55239.1	955.818	-29742.2	0.000000	0.000000	6.362871	0.012086	NaN	0.000000	0.001582	0.001723	28.0794	0.042230	0.002013	20.9768	2.867765	-165.027	-0.050019	0.361386	-0.748769	-0.750073	0.012086	20.9768	-0.749201	-9.169418E+9	-1.318034E-12	NaN
332	1.000000	0.372686	7.36831e+06	-55239.1	955.819	-29742.2	0.000000	0.000000	6.372868	0.027685	NaN	0.000000	0.001536	0.001715	28.0793	0.127702	0.001900	67.2244	-24.6405	14.9334	0.027698	0.371346	-0.738772	-0.740112	0.027685	67.2244	-0.739081	-6.676353E+9	-4.146785E-12	NaN
332	1.000000	0.382692	7.36831e+06	-55239.1	955.818	-29742.2	0.000000	0.000000	6.382872	-0.011235	NaN	0.000000	0.001526	0.001716	28.0793	0.063251	0.002052	30.8173	145.959	-165.109	-0.036826	0.381417	-0.728767	-0.730042	-0.011235	30.8173	-0.728493	-4.789304E+9	2.345888E-12	NaN
332	1.000000	0.392745	7.36831e+06	-55239.1	955.819	-29742.2	0.000000	0.000000	6.392929	0.071746	NaN	0.000000	0.001551	0.001739	28.0796	0.042768	0.001966	21.7495	-111.706	14.1777	0.048658	0.391390	-0.718713	-0.720068	0.071746	21.7495	-0.721187	-3.807720E+9	-1.884224E-11	NaN
332	1.000000	0.402738	7.36831e+06	-55239.1	955.818	-29742.2	0.000000	0.000000	6.402918	-0.010497	NaN	0.000000	0.001567	0.001704	28.0797	0.045423	0.001954	23.2455	96.7435	-164.802	0.017118	0.401451	-0.708721	-0.710008	-0.010497	23.2455	-0.708382	-2.546670E+9	4.121776E-12	NaN
332	1.000000	0.412707	7.36831e+06	-55239.1	955.819	-29742.2	0.000000	0.000000	6.412889	0.018838	NaN	0.000000	0.001567	0.001709	28.0794	0.022512	0.001774	12.6898	-129.169	16.923	0.000358	0.411339	-0.698752	-0.700120	0.018838	12.6898	-0.699865	-1.948443E+9	-9.668155E-12	NaN
332	1.000000	0.422723	7.36831e+06	-55239.1	955.818	-29742.2	0.000000	0.000000	6.422904	-0.005023	NaN	0.000000	0.001552	0.001738	28.0792	0.075448	0.002056	36.6924	13.026	-167.459	-0.000496	0.421414	-0.688735	-0.690044	-0.005023	36.6924	-0.688633	-1.368452E+9	3.670534E-12	NaN
332	1.000000	0.432737	7.36831e+06	-55239.1	955.818	-29742.2	0.000000	0.000000	6.432917	-0.024187	NaN	0.000000	0.001589	0.001721	28.0794	0.065627	0.002009	32.6618	-45.2289	15.794	-0.081871	0.431377	-0.678721	-0.680081	-0.024187	32.6618	-0.678166	-9.842862E+8	2.457328E-11	NaN
332	1.000000	0.442752	7.36831e+06	-55239.1	955.819	-29742.2	0.000000	0.000000	6.442929	-0.085204	NaN	0.000000	0.001579	0.001722	28.0793	0.011579	0.002090	5.539546	124.837	-165.859	-0.051774	0.441452	-0.668707	-0.670007	-0.085204	5.539546	-0.657171	-5.078265E+8	1.677815E-10	NaN
332	1.000000	0.452740	7.36831e+06	-55239.1	955.82	-29742.2	0.000000	0.000000	6.452921	-0.001480	NaN	0.000000	0.001563	0.001717	28.0794	0.077086	0.002000	38.5486	-41.4956	14.1858	-0.014830	0.451367	-0.658719	-0.660092	-0.001480	38.5486	-0.658690	-5.327456E+8	2.778798E-12	NaN
332	1.000000	0.462740	7.36831e+06	-55239.1	955.819	-29742.2	0.000000	0.000000	6.462922	0.031183	NaN	0.000000	0.001564	0.001691	28.0793	0.057029	0.002007	28.4095	-121.552	-166.595	-0.009643	0.461484	-0.648719	-0.649975	0.031183	28.4095	-0.649542	-3.991680E+8	-7.811993E-11	NaN
332	1.000000	0.472742	7.36831e+06	-55239.1	955.818	-29742.2	0.000000	0.000000	6.472923	0.008600	NaN	0.000000	0.001581	0.001697	28.0784	0.026552	0.001955	13.5786	-64.7232	14.3774	-0.024714	0.471353	-0.638717	-0.640106	0.008600	13.5786	-0.639192	-2.878732E+8	-2.987561E-11	NaN
332	1.000000	0.482738	7.36831e+06	-55239.1	955.817	-29742.2	0.000000	0.000000	6.482918	-0.023437	NaN	0.000000	0.001593	0.001706	28.0781	0.032599	0.001997	16.3275	-9.045889	-165.343	-0.017628	0.481404	-0.628721	-0.630055	-0.023437	16.3275	-0.627644	-1.998352E+8	1.172833E-10	NaN
332	1.000000	0.492742	7.36831e+06	-55239.1	955.819	-29742.2	0.000000	0.000000	6.492922	-0.003493	NaN	0.000000	0.001530	0.001750	28.0782	0.033245	0.001967	16.9031	114.959	15.8737	0.017135	0.491413	-0.618717	-0.620045	-0.003493	16.9031	-0.618562	-1.499223E+8	2.329561E-11	NaN
332	1.000000	0.502772	7.36831e+06	-55239.1	955.818	-29742.2	0.000000	0.000000	6.502954	0.023470	NaN	0.000000	0.001541	0.001733	28.0782	0.029513	0.001999	14.766	-99.9441	-166.263	0.043036	0.501406	-0.608687	-0.610053	0.023470	14.766	-0.609879	-1.138805E+8	-2.060973E-10	NaN
332	1.000000	0.512761	7.36831e+06	-55239.1	955.818	-29742.2	0.000000	0.000000	6.512942	0.009521	NaN	0.000000	0.001556	0.001693	28.0785	0.077372	0.001918	40.3454	-152.989	13.7945	-0.027219	0.511407	-0.598698	-0.600052	0.009521	40.3454	-0.598875	-8.034517E+7	-1.185012E-10	NaN
332	1.000000	0.522742	7.36831e+06	-55239.1	955.818	-29742.2	0.000000	0.000000	6.522924	0.020820	NaN	0.000000	0.001570	0.001694	28.0778	0.044437	0.001932	23.0023	-146.688	-166.638	-0.020700	0.521442	-0.588716	-0.590017	0.020820	23.0023	-0.589395	-5.947384E+7	-3.500734E-10	NaN
332	1.000000	0.532748	7.36831e+06	-55239.1	955.818	-29742.2	0.000000	0.000000	6.532928	-0.017038	NaN	0.000000	0.001578	0.001698	28.0782	0.078072	0.002140	36.4865	-49.642	16.2424	-0.013350	0.531421	-0.578711	-0.580038	-0.017038	36.4865	-0.578361	-4.188916E+7	4.067296E-10	NaN
332	1.000000	0.542786	7.36831e+06	-55239.1	955.82	-29742.2	0.000000	0.000000	6.542967	-0.005631	NaN	0.000000	0.001546	0.001720	28.0783	0.091997	0.002040	45.096	101.468	-165.054	-0.011745	0.541457	-0.568672	-0.570002	-0.005631	45.096	-0.568579	-3.068962E+7	1.834754E-10	NaN
332	1.000000	0.552798	7.36831e+06	-55239.1	955.818	-29742.2	0.000000	0.000000	6.552978	-0.026641	NaN	0.000000	0.001544	0.001732	28.0785	0.051121	0.002088	24.4891	-163.123	13.5342	-0.046269	0.551437	-0.558661	-0.560021	-0.026641	24.4891	-0.557845	-2.180529E+7	1.221782E-9	NaN
332	1.000000	0.562797	7.36831e+06	-55239.1	955.818	-29742.2	0.000000	0.000000	6.562978	0.002499	NaN	0.000000	0.001550	0.001726	28.078	0.076802	0.002035	37.7488	-107.713	-164.115	0.007345	0.561525	-0.548661	-0.549933	0.002499	37.7488	-0.548711	-1.629667E+7	-1.533498E-10	NaN
332	1.000000	0.572790	7.36831e+06	-55239.1	955.819	-29742.2	0.000000	0.000000	6.572972	0.038487	NaN	0.000000	0.001552	0.001714	28.0782	0.084327	0.002040	41.3288	-70.476	15.1841	0.045337	0.571453	-0.538669	-0.540006	0.038487	41.3288	-0.539367	-1.209427E+7	-3.182287E-9	NaN
332	1.000000	0.582800	7.36831e+06	-55239.1	955.819	-29742.2	0.000000	0.000000	6.582983	0.043693	NaN	0.000000	0.001582	0.001724	28.0782	0.063548	0.002041	31.13	122.694	-164.756	-0.056004	0.581516	-0.528658	-0.529943	0.043693	31.13	-0.529711	-8.88308e+06	-4.918645E-9	NaN
332	1.000000	0.592801	7.36831e+06	-55239.1	955.818	-29742.2	0.000000	0.000000	6.592982	0.010542	NaN	0.000000	0.001558	0.001720	28.0783	0.039172	0.002053	19.0832	-91.3686	14.2297	-0.011138	0.591398	-0.518658	-0.520060	0.010542	19.0832	-0.519072	-6.31968e+06	-1.668109E-9	NaN
332	1.000000	0.602795	7.36831e+06	-55239.1	955.819	-29742.2	0.000000	0.000000	6.602976	0.002639	NaN	0.000000	0.001582	0.001756	28.0781	0.139524	0.001948	71.6227	67.0988	-165.677	-0.007292	0.601513	-0.508664	-0.509946	0.002639	71.6227	-0.508691	-4.53091e+06	-5.824291E-10	NaN
332	1.000000	0.612799	7.36831e+06	-55239.1	955.819	-29742.2	0.000000	0.000000	6.612977	-0.070822	NaN	0.000000	0.001572	0.001689	28.0794	0.056143	0.002004	28.0188	-75.3625	12.9162	0.026325	0.611457	-0.498660	-0.500002	-0.070822	28.0188	-0.496764	-3.08929e+06	2.292516E-8	NaN
332	1.000000	0.622840	7.36831e+06	-55239.1	955.819	-29742.2	0.000000	0.000000	6.623020	-0.022519	NaN	0.000000	0.001623	0.001724	28.0797	0.053343	0.001996	26.7246	-153.885	-167.15	-0.051864	0.621519	-0.488619	-0.489939	-0.022519	26.7246	-0.487987	-2.32947e+06	9.666977E-9	NaN
332	1.000000	0.632842	7.36831e+06	-55239.1	955.817	-29742.2	0.000000	0.000000	6.633019	-0.105992	NaN	0.000000	0.001699	0.001718	28.0795	0.071785	0.001936	37.0716	-5.068305	13.3422	-0.084788	0.631434	-0.478617	-0.480024	-0.105992	37.0716	-0.476472	-1.60741e+06	6.593982E-8	NaN
332	1.000000	0.642853	7.36831e+06	-55239.1	955.818	-29742.2	0.000000	0.000000	6.643033	-0.003474	NaN	0.000000	0.001672	0.001739	28.0795	0.008569	0.002002	4.279201	-41.8971	-166.713	-0.061756	0.641497	-0.468606	-0.469962	-0.003474	4.279201	-0.467997	-1.22267e+06	2.841695E-9	NaN
332	1.000000	0.652853	7.36831e+06	-55239.1	955.817	-29742.2	0.000000	0.000000	6.653034	0.014648	NaN	0.000000	0.001642	0.001716	28.0792	0.043093	0.002120	20.3307	136.933	13.9851	0.035292	0.651425	-0.458606	-0.460033	0.014648	20.3307	-0.459146	-918366	-1.595011E-8	NaN
332	1.000000	0.662817	7.36831e+06	-55239.1	955.818	-29742.2	0.000000	0.000000	6.663002	0.086441	NaN	0.000000	0.001681	0.001742	28.0795	0.182169	0.002056	88.6024	-138.315	-163.06	0.020611	0.661530	-0.448641	-0.449929	0.086441	88.6024	-0.449373	-669133	-1.291843E-7	NaN
332	1.000000	0.672854	7.36831e+06	-55239.1	955.818	-29742.2	0.000000	0.000000	6.673034	-0.020501	NaN	0.000000	0.001640	0.001798	28.0794	0.057684	0.002056	28.0576	-121.321	14.1412	-4.643951E-5	0.671449	-0.438604	-0.440010	-0.020501	28.0576	-0.438056	-463370	4.424233E-8	NaN
332	1.000000	0.682834	7.36831e+06	-55239.1	955.819	-29742.2	0.000000	0.000000	6.683017	0.056076	NaN	0.000000	0.001657	0.001762	28.0794	0.058385	0.001986	29.3923	151.06	-166.727	0.029937	0.681547	-0.428625	-0.429911	0.056076	29.3923	-0.430056	-357152	-1.570074E-7	NaN
332	1.000000	0.692843	7.36831e+06	-55239.1	955.818	-29742.2	0.000000	0.000000	6.693024	-0.000731	NaN	0.000000	0.001708	0.001798	28.0793	0.063740	0.001894	33.6574	-65.3925	12.8914	0.025277	0.691480	-0.418616	-0.419979	-0.000731	33.6574	-0.418599	-245780	2.975553E-9	NaN
332	1.000000	0.702834	7.36831e+06	-55239.1	955.818	-29742.2	0.000000	0.000000	6.703015	0.004377	NaN	0.000000	0.001641	0.001783	28.0796	0.045170	0.001934	23.3587	98.0824	-169.209	0.011115	0.701526	-0.408625	-0.409933	0.004377	23.3587	-0.408765	-178172	-2.456378E-8	NaN
332	1.000000	0.712832	7.36831e+06	-55239.1	955.818	-29742.2	0.000000	0.000000	6.713013	0.016660	NaN	0.000000	0.001646	0.001797	28.0794	0.106068	0.002029	52.2657	165.171	13.1483	-0.039827	0.711462	-0.398627	-0.399997	0.016660	52.2657	-0.398866	-128771	-1.293753E-7	NaN
332	1.000000	0.722855	7.36831e+06	-55239.1	955.819	-29742.2	0.000000	0.000000	6.723034	-0.051247	NaN	0.000000	0.001630	0.001763	28.0793	0.080418	0.001987	40.4664	-158.804	-162.863	-0.095248	0.721550	-0.388604	-0.389909	-0.051247	40.4664	-0.387654	-89042	5.755337E-7	NaN
332	1.000000	0.732845	7.36831e+06	-55239.1	955.817	-29742.2	0.000000	0.000000	6.733026	-0.004203	NaN	0.000000	0.001694	0.001790	28.0795	0.025146	0.002002	12.5613	-8.313705	12.6382	-0.085302	0.731480	-0.378613	-0.379978	-0.004203	12.5613	-0.378362	-65520.6	6.415260E-8	NaN
332	1.000000	0.742854	7.36831e+06	-55239.1	955.818	-29742.2	0.000000	0.000000	6.743035	0.010064	NaN	0.000000	0.001657	0.001779	28.0791	0.072866	0.001979	36.8281	142.186	-163.879	-0.048776	0.741513	-0.368605	-0.369945	0.010064	36.8281	-0.368810	-47751.3	-2.107614E-7	NaN
332	1.000000	0.752874	7.36831e+06	-55239.1	955.818	-29742.2	0.000000	0.000000	6.753056	0.021738	NaN	0.000000	0.001658	0.001742	28.0781	0.076935	0.002141	35.9342	124.545	15.7301	0.008534	0.751508	-0.358585	-0.359950	0.021738	35.9342	-0.359039	-34510	-6.299112E-7	NaN
332	1.000000	0.762892	7.36831e+06	-55239.1	955.818	-29742.2	0.000000	0.000000	6.763074	0.019403	NaN	0.000000	0.001633	0.001781	28.0781	0.102623	0.002015	50.9211	-44.0182	-163.451	0.004318	0.761528	-0.348567	-0.349931	0.019403	50.9211	-0.348853	-24566.6	-7.898233E-7	NaN
332	1.000000	0.772877	7.36832e+06	-55239.1	955.818	-29742.2	0.000000	0.000000	6.773059	0.032082	NaN	0.000000	0.001636	0.001764	28.0783	0.113932	0.002027	56.2076	12.4143	12.8834	-0.024500	0.771524	-0.338582	-0.339935	0.032082	56.2076	-0.339010	-17665.1	-1.816094E-6	NaN
332	1.000000	0.782894	7.36832e+06	-55239.1	955.818	-29742.2	0.000000	0.000000	6.783072	-0.078822	NaN	0.000000	0.001597	0.001750	28.0782	0.049505	0.001956	25.3067	-38.4722	-161.256	-0.052544	0.781570	-0.328564	-0.329889	-0.078822	25.3067	-0.326228	-11485.9	6.862477E-6	NaN
332	1.000000	0.792867	7.36832e+06	-55239.1	955.819	-29742.2	0.000000	0.000000	6.793049	0.019851	NaN	0.000000	0.001563	0.001750	28.0782	0.078354	0.001985	39.4636	67.9844	11.3908	-0.004252	0.791519	-0.318591	-0.319940	0.019851	39.4636	-0.318969	-8983.67	-2.209682E-6	NaN
332	1.000000	0.802900	7.36832e+06	-55239.1	955.819	-29742.2	0.000000	0.000000	6.803080	-0.019855	NaN	0.000000	0.001571	0.001773	28.0782	0.105201	0.001907	55.1677	153.905	-168.135	0.021995	0.801597	-0.308559	-0.309861	-0.019855	55.1677	-0.308289	-6247.72	3.178032E-6	NaN
332	1.000000	0.812870	7.36832e+06	-55239.1	955.818	-29742.2	0.000000	0.000000	6.813053	0.030775	NaN	0.000000	0.001532	0.001758	28.0783	0.072737	0.002052	35.4416	-42.3703	14.2245	-0.006012	0.811562	-0.298588	-0.299896	0.030775	35.4416	-0.299239	-4584.71	-6.712622E-6	NaN
332	1.000000	0.822937	7.36832e+06	-55239.1	955.819	-29742.2	0.000000	0.000000	6.823117	-0.011026	NaN	0.000000	0.001590	0.001744	28.0782	0.072291	0.002133	33.8935	-166.623	-165.516	-0.026216	0.821560	-0.288522	-0.289898	-0.011026	33.8935	-0.288278	-3144.06	3.506895E-6	NaN
332	1.000000	0.832884	7.36832e+06	-55239.1	955.819	-29742.2	0.000000	0.000000	6.833067	0.046024	NaN	0.000000	0.001590	0.001757	28.0778	0.103172	0.002056	50.1839	45.0539	13.0841	-0.005990	0.831554	-0.278574	-0.279905	0.046024	50.1839	-0.279262	-2300.57	-2.000539E-5	NaN
332	1.000000	0.842882	7.36832e+06	-55239.1	955.818	-29742.2	0.000000	0.000000	6.843061	-0.049405	NaN	0.000000	0.001589	0.001733	28.0782	0.057324	0.002055	27.8897	19.5792	-166.259	-0.047816	0.841598	-0.268577	-0.269861	-0.049405	27.8897	-0.267248	-1512.42	3.266649E-5	NaN
332	1.000000	0.852891	7.36832e+06	-55239.1	955.819	-29742.2	0.000000	0.000000	6.853072	0.007227	NaN	0.000000	0.001563	0.001756	28.0779	0.066684	0.001999	33.3611	-174.77	14.4872	-0.041451	0.851538	-0.258568	-0.259920	0.007227	33.3611	-0.258730	-1120.59	-6.449337E-6	NaN
332	1.000000	0.862931	7.36832e+06	-55239.1	955.818	-29742.2	0.000000	0.000000	6.863112	0.003869	NaN	0.000000	0.001606	0.001760	28.0782	0.067817	0.001842	36.8244	-111.441	-164.405	-0.052072	0.861614	-0.248527	-0.249845	0.003869	36.8244	-0.248606	-782.343	-4.945770E-6	NaN
332	1.000000	0.872907	7.36832e+06	-55239.1	955.818	-29742.2	0.000000	0.000000	6.873087	-0.020274	NaN	0.000000	0.001621	0.001772	28.0782	0.041492	0.002032	20.4242	-126.855	15.8914	-0.016568	0.871561	-0.238552	-0.239898	-0.020274	20.4242	-0.237807	-531.21	3.816544E-5	NaN
332	1.000000	0.882924	7.36832e+06	-55239.1	955.818	-29742.2	0.000000	0.000000	6.883108	0.075145	NaN	0.000000	0.001579	0.001772	28.0795	0.016710	0.001975	8.462796	-97.4205	-163.317	0.016753	0.881617	-0.228535	-0.229842	0.075145	8.462796	-0.235194	-483.39	-0.000155	NaN
332	1.000000	0.892904	7.36832e+06	-55239.1	955.818	-29742.2	0.000000	0.000000	6.893084	-0.007487	NaN	0.000000	0.001569	0.001730	28.0796	0.029795	0.002023	14.725	80.9834	13.6725	-0.024525	0.891557	-0.218555	-0.219902	-0.007487	14.725	-0.218174	-259.691	2.883059E-5	NaN
332	1.000000	0.902920	7.36832e+06	-55239.1	955.819	-29742.2	0.000000	0.000000	6.903104	0.074458	NaN	0.000000	0.001566	0.001785	28.0796	0.098419	0.002089	47.1089	-121.541	-167.034	-0.006978	0.901634	-0.208538	-0.209825	0.074458	47.1089	-0.209724	-189.82	-0.000392	NaN
332	1.000000	0.912939	7.36832e+06	-55239.1	955.818	-29742.2	0.000000	0.000000	6.913121	0.016436	NaN	0.000000	0.001542	0.001748	28.0795	0.031220	0.001949	16.0162	85.8853	11.82	-0.051415	0.911568	-0.198520	-0.199891	0.016436	16.0162	-0.199289	-128.237	-0.000128	NaN
332	1.000000	0.922938	7.36832e+06	-55239.1	955.817	-29742.2	0.000000	0.000000	6.923120	0.023852	NaN	0.000000	0.001569	0.001771	28.0798	0.113426	0.002005	56.5826	-81.2824	-167.39	0.038473	0.921606	-0.188521	-0.189853	0.023852	56.5826	-0.188837	-86.0154	-0.000277	NaN
332	1.000000	0.932961	7.36832e+06	-55239.1	955.819	-29742.2	0.000000	0.000000	6.933141	-0.020051	NaN	0.000000	0.001580	0.001766	28.0795	0.079772	0.002105	37.8978	-145.582	15.2062	-0.103518	0.931586	-0.178498	-0.179873	-0.020051	37.8978	-0.178101	-56.6373	0.000354	NaN
332	1.000000	0.942946	7.36832e+06	-55239.1	955.819	-29742.2	0.000000	0.000000	6.943126	-0.008680	NaN	0.000000	0.001586	0.001743	28.0795	0.068688	0.001896	36.2197	-17.3404	-165.18	-0.021734	0.941624	-0.168513	-0.169835	-0.008680	36.2197	-0.168333	-38.425	0.000226	NaN
332	1.000000	0.952921	7.36832e+06	-55239.1	955.818	-29742.2	0.000000	0.000000	6.953104	0.044326	NaN	0.000000	0.001588	0.001752	28.0796	0.070345	0.002064	34.0894	101.292	17.1466	0.077677	0.951642	-0.158538	-0.159817	0.044326	34.0894	-0.159513	-26.8737	-0.001649	NaN
332	1.000000	0.962970	7.36832e+06	-55239.1	955.819	-29742.2	0.000000	0.000000	6.963150	-0.006698	NaN	0.000000	0.001583	0.001762	28.0796	0.036623	0.001891	19.3708	-49.2533	-166.513	0.095959	0.961658	-0.148489	-0.149801	-0.006698	19.3708	-0.148229	-16.8125	0.000398	NaN
332	1.000000	0.972967	7.36832e+06	-55239.1	955.818	-29742.2	0.000000	0.000000	6.973146	-0.048389	NaN	0.000000	0.001609	0.001771	28.0795	0.051736	0.001966	26.3211	-110.44	15.4263	0.012582	0.971582	-0.138492	-0.139877	-0.048389	26.3211	-0.137113	-10.4349	0.004637	NaN
332	1.000000	0.982958	7.36832e+06	-55239.1	955.818	-29742.2	0.000000	0.000000	6.983139	0.004122	NaN	0.000000	0.001572	0.001743	28.0795	0.056804	0.002065	27.5082	-97.1769	-163.281	-0.028225	0.981705	-0.128501	-0.129754	0.004122	27.5082	-0.128613	-7.161462	-0.000576	NaN
332	1.000000	0.992939	7.36832e+06	-55239.1	955.819	-29742.2	0.000000	0.000000	6.993118	-0.045207	NaN	0.000000	0.001558	0.001771	28.0798	0.061487	0.001968	31.2466	12.5093	14.4659	-0.101365	0.991588	-0.118520	-0.119870	-0.045207	31.2466	-0.117435	-4.285772	0.010548	NaN
332	1.000000	1.002957	7.36832e+06	-55239.1	955.819	-29742.2	0.000000	0.000000	7.003140	0.039786	NaN	0.000000	0.001521	0.001724	28.0796	0.058642	0.001994	29.4068	69.8134	-166.569	-0.021985	1.001629	-0.108501	-0.109830	0.039786	29.4068	-0.109516	-2.935344	-0.013554	NaN
332	1.000000	1.012975	7.36832e+06	-55239.1	955.818	-29742.2	0.000000	0.000000	7.013158	0.048864	NaN	0.000000	0.001583	0.001800	28.0797	0.041467	0.001947	21.299	40.7498	14.5449	-0.021078	1.011591	-0.098483	-0.099868	0.048864	21.299	-0.100204	-1.846264	-0.026466	NaN
332	1.000000	1.022975	7.36832e+06	-55239.1	955.818	-29742.2	0.000000	0.000000	7.023154	-0.048541	NaN	0.000000	0.001547	0.001763	28.0782	0.042321	0.001928	21.9536	-70.3316	-167.405	-0.022277	1.021653	-0.088484	-0.089806	-0.048541	21.9536	-0.086825	-0.909081	0.053396	NaN
332	1.000000	1.032973	7.36832e+06	-55239.1	955.819	-29742.2	0.000000	0.000000	7.033157	0.065988	NaN	0.000000	0.001529	0.001715	28.0785	0.046515	0.002047	22.7222	-145.283	14.0187	0.065985	1.031595	-0.078485	-0.079864	0.065988	22.7222	-0.080664	-0.643046	-0.102618	NaN
332	1.000000	1.042953	7.36832e+06	-55239.1	955.819	-29742.2	0.000000	0.000000	7.043135	0.017653	NaN	0.000000	0.001533	0.001759	28.0782	0.030429	0.001916	15.8853	-48.4503	-162.726	0.060803	1.041668	-0.068505	-0.069790	0.017653	15.8853	-0.069339	-0.327441	-0.053911	NaN
332	1.000000	1.052991	7.36832e+06	-55239.1	955.819	-29742.2	0.000000	0.000000	7.053172	-0.001147	NaN	0.000000	0.001522	0.001766	28.0782	0.070222	0.001995	35.2027	20.4807	15.0452	-0.023285	1.051609	-0.058467	-0.059849	-0.001147	35.2027	-0.058443	-0.162409	0.007059	NaN
332	1.000000	1.062999	7.36832e+06	-55239.1	955.818	-29742.2	0.000000	0.000000	7.063181	0.049039	NaN	0.000000	0.001543	0.001757	28.0782	0.044194	0.002076	21.2886	87.2689	-166.649	0.090139	1.061719	-0.048460	-0.049740	0.049039	21.2886	-0.050188	-0.092451	-0.530432	NaN
332	1.000000	1.072989	7.36832e+06	-55239.1	955.818	-29742.2	0.000000	0.000000	7.073171	0.028161	NaN	0.000000	0.001547	0.001756	28.0785	0.025969	0.002045	12.6988	16.1276	12.5081	0.024935	1.071645	-0.038469	-0.039813	0.028161	12.6988	-0.040133	-0.045644	-0.616977	NaN
332	1.000000	1.082998	7.36832e+06	-55239.1	955.819	-29742.2	0.000000	0.000000	7.083180	0.028171	NaN	0.000000	0.001600	0.001749	28.0782	0.031535	0.002052	15.3715	38.9283	-166.57	0.024507	1.081646	-0.028461	-0.029813	0.028171	15.3715	-0.029836	-0.022772	-1.237113	NaN
332	1.000000	1.093004	7.36832e+06	-55239.1	955.819	-29742.2	0.000000	0.000000	7.093189	0.089611	NaN	0.000000	0.001547	0.001791	28.0782	0.173537	0.001985	87.4344	-112.564	13.0692	0.110660	1.091659	-0.018455	-0.019799	0.089611	87.4344	-0.019223	-0.012001	-7.466905	NaN
332	1.000000	1.103018	7.36832e+06	-55239.1	955.819	-29742.2	0.000000	0.000000	7.103199	0.004885	NaN	0.000000	0.001568	0.001794	28.0783	0.081684	0.002081	39.2556	68.1258	-164.214	0.008726	1.101675	-0.008440	-0.009784	0.004885	39.2556	-0.008534	-0.005543	-0.881355	NaN
332	1.000000	1.112995	7.36832e+06	-55239.1	955.819	-29742.2	0.000000	0.000000	7.113190	0.342677	NaN	0.000000	0.001585	0.001771	28.0782	0.610827	0.001933	315.919	17.8061	13.3627	0.094438	1.111630	0.001536	0.000172	0.342677	315.919	0.000723	0.000548	625.504	12331.7
332	2.000000	1.121597	7.36832e+06	-55239.1	955.818	-29742.2	0.000000	0.000000	7.122120	8.321170	NaN	0.000000	0.001593	0.001810	28.0782	8.668009	0.001648	5261.23	7.306330	-170.684	8.278879	1.121220	0.010138	0.009761	8.321170	5261.23	0.008952	0.008040	1034.98	53608.5
332	2.000000	1.124118	7.36832e+06	-55239.1	955.818	-29742.2	0.000000	0.000000	7.124826	12.8043	NaN	0.000000	0.001569	0.001736	28.0782	11.5428	0.001689	6834.15	6.243264	7.799620	11.3285	1.123713	0.012659	0.012254	12.8043	6834.15	0.011254	0.010609	1206.94	60620.9
332	2.000000	1.126554	7.36832e+06	-55239.1	955.818	-29742.2	0.000000	0.000000	7.127414	16.5066	NaN	0.000000	0.001586	0.001749	28.0787	13.8889	0.001747	7950.78	0.088966	-167.669	15.8201	1.126199	0.015095	0.014740	16.5066	7950.78	0.013538	0.013385	1233.21	62787.5
332	2.000000	1.129057	7.36832e+06	-55239.1	955.818	-29742.2	0.000000	0.000000	7.130055	19.8715	NaN	0.000000	0.001591	0.001730	28.0789	17.0554	0.001702	10020.9	4.111026	6.218978	18.585	1.128739	0.017598	0.017281	19.8715	10020.9	0.016111	0.016795	1183.16	70646.2
332	2.000000	1.131505	7.36832e+06	-55239.1	955.817	-29742.2	0.000000	0.000000	7.132653	23.5203	NaN	0.000000	0.001575	0.001717	28.0798	20.0661	0.001762	11387.8	5.056726	-175.603	21.8137	1.131175	0.020046	0.019716	23.5203	11387.8	0.018497	0.020235	1162.34	73140.6
332	2.000000	1.134017	7.36832e+06	-55239.1	955.818	-29742.2	0.000000	0.000000	7.135454	30.5397	NaN	0.000000	0.001565	0.001737	28.0795	21.7392	0.001803	12059.8	4.267130	5.283465	28.1264	1.133667	0.022558	0.022208	30.5397	12059.8	0.020659	0.023589	1294.67	71739.8
332	2.000000	1.136512	7.36832e+06	-55239.1	955.818	-29742.2	0.000000	0.000000	7.138125	34.8139	NaN	0.000000	0.001577	0.001729	28.0799	24.658	0.001704	14473.6	6.631356	-178.515	35.4813	1.136242	0.025053	0.024783	34.8139	14473.6	0.023249	0.027907	1247.48	79157.3
332	2.000000	1.139033	7.36832e+06	-55239.1	955.817	-29742.2	0.000000	0.000000	7.140839	39.5006	NaN	0.000000	0.001590	0.001746	28.0797	27.3345	0.001795	15225.5	5.023197	1.365932	39.3455	1.138776	0.027574	0.027317	39.5006	15225.5	0.025629	0.032169	1227.91	77557.9
332	2.000000	1.141490	7.36832e+06	-55239.1	955.818	-29742.2	0.000000	0.000000	7.143670	48.6095	NaN	0.000000	0.001600	0.001699	28.0799	30.0036	0.001834	16362.8	3.646449	-177.372	47.9613	1.141218	0.030031	0.029760	48.6095	16362.8	0.027803	0.036313	1338.62	78451.2
332	2.000000	1.143993	7.36832e+06	-55239.1	955.818	-29742.2	0.000000	0.000000	7.146457	55.4998	NaN	0.000000	0.001627	0.001707	28.0797	32.6668	0.001872	17450.6	9.200834	-2.894032	54.2879	1.143638	0.032534	0.032180	55.4998	17450.6	0.030149	0.041053	1351.92	78688.7
332	2.000000	1.146430	7.36832e+06	-55239.1	955.818	-29742.2	0.000000	0.000000	7.149266	64.5525	NaN	0.000000	0.001668	0.001690	28.0798	34.025	0.001865	18242.4	-0.146307	-174.543	60.9856	1.146175	0.034971	0.034716	64.5525	18242.4	0.032317	0.045683	1413.04	77978.8
332	2.000000	1.148974	7.36832e+06	-55239.1	955.818	-29742.2	0.000000	0.000000	7.152160	73.0519	NaN	0.000000	0.001668	0.001711	28.0796	36.9015	0.001737	21247.9	4.033995	0.434031	71.3873	1.148594	0.037515	0.037135	73.0519	21247.9	0.034937	0.051598	1415.78	85461.5
332	2.000000	1.151467	7.36832e+06	-55239.1	955.818	-29742.2	0.000000	0.000000	7.154888	78.7511	NaN	0.000000	0.001652	0.001715	28.0796	40.0786	0.001794	22338.5	7.886800	175.58	79.7521	1.151213	0.040009	0.039754	78.7511	22338.5	0.037365	0.057395	1372.08	85190.2
332	2.000000	1.153993	7.36832e+06	-55239.1	955.818	-29742.2	0.000000	0.000000	7.157927	91.2195	NaN	0.000000	0.001646	0.001754	28.0794	41.7226	0.001765	23644.1	6.993095	-3.953655	88.8586	1.153612	0.042535	0.042153	91.2195	23644.1	0.039641	0.063104	1445.53	85993.5
332	2.000000	1.156474	7.36832e+06	-55239.1	955.818	-29742.2	0.000000	0.000000	7.160735	99.1868	NaN	0.000000	0.001609	0.001717	28.0802	42.9917	0.001770	24284	2.226382	-179.291	97.6472	1.156182	0.045015	0.044723	99.1868	24284	0.041952	0.069170	1433.95	84359.4
332	2.000000	1.158945	7.36832e+06	-55239.1	955.819	-29742.2	0.000000	0.000000	7.163609	108.979	NaN	0.000000	0.001641	0.001737	28.0797	44.9876	0.001671	26928.2	2.788314	-1.212558	105.789	1.158568	0.047487	0.047109	108.979	26928.2	0.044452	0.076038	1433.21	89220.7
332	2.000000	1.161413	7.36832e+06	-55239.1	955.82	-29742.2	0.000000	0.000000	7.166434	117.659	NaN	0.000000	0.001621	0.001747	28.0798	49.2766	0.001777	27732.4	3.725902	177.76	114.886	1.161098	0.049954	0.049639	117.659	27732.4	0.046772	0.082698	1422.75	88107.2
332	2.000000	1.164047	7.36832e+06	-55239.1	955.818	-29742.2	0.000000	0.000000	7.169425	126.329	NaN	0.000000	0.001603	0.001702	28.0784	51.2529	0.001771	28943.4	6.769435	-4.134623	127.877	1.163555	0.052588	0.052097	126.329	28943.4	0.049315	0.090307	1398.88	87995.6
332	2.000000	1.166464	7.36832e+06	-55239.1	955.818	-29742.2	0.000000	0.000000	7.172242	136.076	NaN	0.000000	0.001629	0.001746	28.0789	53.376	0.001834	29096.3	7.010273	174.276	135.945	1.166112	0.055005	0.054654	136.076	29096.3	0.051497	0.097098	1401.43	85311.2
332	2.000000	1.168998	7.36832e+06	-55239.1	955.819	-29742.2	0.000000	0.000000	7.175268	148.029	NaN	0.000000	0.001579	0.001738	28.0784	56.0907	0.001824	30753.5	5.941128	-5.676331	147.387	1.168575	0.057539	0.057117	148.029	30753.5	0.053929	0.104943	1410.57	86734.5
332	2.000000	1.171464	7.36832e+06	-55239.1	955.819	-29742.2	0.000000	0.000000	7.178103	156.981	NaN	0.000000	0.001605	0.001742	28.0786	58.3187	0.001835	31775.2	5.300066	174.811	156.084	1.171211	0.060006	0.059753	156.981	31775.2	0.056300	0.112877	1390.73	86408.9
332	2.000000	1.173999	7.36832e+06	-55239.1	955.818	-29742.2	0.000000	0.000000	7.181282	172.645	NaN	0.000000	0.001579	0.001767	28.0784	60.0757	0.001839	32669.2	5.757582	-5.202816	170.336	1.173589	0.062540	0.062130	172.645	32669.2	0.058577	0.120755	1429.71	85893.3
332	2.000000	1.176552	7.36832e+06	-55239.1	955.819	-29742.2	0.000000	0.000000	7.183972	175.968	NaN	0.000000	0.001533	0.001739	28.0786	62.7941	0.001904	32978.3	4.615177	176.009	180.431	1.176147	0.065093	0.064688	175.968	32978.3	0.061091	0.129751	1356.2	83646.4
332	2.000000	1.178924	7.36832e+06	-55239.1	955.819	-29742.2	0.000000	0.000000	7.186988	191.642	NaN	0.000000	0.001588	0.001759	28.0784	65.9298	0.001883	35017.7	7.068770	-6.933075	190.437	1.178536	0.067465	0.067078	191.642	35017.7	0.063361	0.138135	1387.36	86081.4
332	2.000000	1.181387	7.36832e+06	-55239.1	955.818	-29742.2	0.000000	0.000000	7.190120	207.898	NaN	0.000000	0.001543	0.001764	28.0783	66.2595	0.001646	40261.4	3.253950	174.962	204.751	1.181154	0.069928	0.069696	207.898	40261.4	0.066056	0.148414	1400.8	95482.7
332	2.000000	1.183948	7.36832e+06	-55239.1	955.82	-29742.2	0.000000	0.000000	7.193320	223.439	NaN	0.000000	0.001535	0.001705	28.0785	68.7094	0.001841	37324.4	5.657761	-6.144926	219.197	1.183540	0.072489	0.072081	223.439	37324.4	0.067999	0.156045	1431.89	86326.1
332	2.000000	1.186478	7.36832e+06	-55239.1	955.818	-29742.2	0.000000	0.000000	7.196127	230.173	NaN	0.000000	0.001557	0.001748	28.0785	70.3685	0.001867	37683	3.571602	174.976	230.575	1.186260	0.075019	0.074802	230.173	37683	0.070438	0.165874	1387.64	84533.8
332	2.000000	1.188914	7.36832e+06	-55239.1	955.819	-29742.2	0.000000	0.000000	7.199170	244.912	NaN	0.000000	0.001586	0.001733	28.0784	73.8671	0.001869	39516.6	3.563792	-5.046979	243.129	1.188549	0.077456	0.077091	244.912	39516.6	0.072807	0.175695	1393.97	86133.8
332	2.000000	1.191439	7.36832e+06	-55239.1	955.819	-29742.2	0.000000	0.000000	7.202446	263.183	NaN	0.000000	0.001624	0.001724	28.0785	76.3186	0.001762	43301.8	4.778814	173.404	262.506	1.191091	0.079980	0.079632	263.183	43301.8	0.075422	0.186840	1408.6	91525.9
332	2.000000	1.193963	7.36832e+06	-55239.1	955.82	-29742.2	0.000000	0.000000	7.205462	275.133	NaN	0.000000	0.001586	0.001712	28.0784	77.4405	0.001698	45605.5	2.789154	-4.852240	273.407	1.193562	0.082505	0.082103	275.133	45605.5	0.077980	0.198056	1389.16	93625.9
332	2.000000	1.196545	7.36832e+06	-55239.1	955.82	-29742.2	0.000000	0.000000	7.208510	286.475	NaN	0.000000	0.001591	0.001724	28.0785	80.5078	0.001840	43742.9	2.783118	175.316	290.664	1.196160	0.085086	0.084702	286.475	43742.9	0.080174	0.207920	1377.81	87646.1
332	2.000000	1.198856	7.36832e+06	-55239.1	955.82	-29742.2	0.000000	0.000000	7.211256	297.019	NaN	0.000000	0.001626	0.001722	28.0796	82.6483	0.001793	46106.2	5.994115	-8.815434	290.143	1.198562	0.087398	0.087103	297.019	46106.2	0.082566	0.218929	1356.69	90028.7
332	2.000000	1.201290	7.36832e+06	-55239.1	955.82	-29742.2	0.000000	0.000000	7.214798	323.955	NaN	0.000000	0.001637	0.001729	28.0797	85.3842	0.001804	47319.6	3.356912	174.067	317.014	1.201057	0.089832	0.089598	323.955	47319.6	0.084697	0.228959	1414.9	90351.5
332	2.000000	1.203879	7.36832e+06	-55239.1	955.82	-29742.2	0.000000	0.000000	7.218121	341.814	NaN	0.000000	0.001621	0.001656	28.0797	86.991	0.001740	49991.5	4.645817	-6.805045	335.52	1.203423	0.092420	0.091964	341.814	49991.5	0.087292	0.241456	1415.64	92950.2
332	2.000000	1.206389	7.36832e+06	-55239.1	955.82	-29742.2	0.000000	0.000000	7.221539	363.879	NaN	0.000000	0.001541	0.001701	28.0796	89.3388	0.001801	49614.8	7.568056	169.679	362.642	1.206043	0.094930	0.094584	363.879	49614.8	0.089430	0.251985	1444.05	90302.1
332	2.000000	1.208854	7.36832e+06	-55239.1	955.819	-29742.2	0.000000	0.000000	7.224757	382.176	NaN	0.000000	0.001512	0.001698	28.0796	91.685	0.001830	50097.7	4.213222	-6.392516	377.719	1.208431	0.097396	0.096972	382.176	50097.7	0.091674	0.263266	1451.67	89206
332	2.000000	1.211464	7.36832e+06	-55239.1	955.82	-29742.2	0.000000	0.000000	7.227767	391.915	NaN	0.000000	0.001496	0.001706	28.0797	94.5122	0.001724	54834	4.836716	171.815	396.409	1.211042	0.100006	0.099583	391.915	54834	0.094645	0.278551	1406.98	94922.8
332	2.000000	1.213934	7.36832e+06	-55239.1	955.82	-29742.2	0.000000	0.000000	7.231185	414.97	NaN	0.000000	0.001509	0.001749	28.0798	96.0213	0.001780	53939.6	7.297159	-9.320054	416.09	1.213405	0.102475	0.101947	414.97	53939.6	0.096705	0.289387	1433.96	91609.7
332	2.000000	1.216384	7.36832e+06	-55239.1	955.82	-29742.2	0.000000	0.000000	7.234354	432.454	NaN	0.000000	0.001544	0.001715	28.0796	97.4236	0.001863	52282	3.023769	174.423	431.168	1.216008	0.104925	0.104549	432.454	52282	0.098721	0.300179	1440.65	87183.7
332	2.000000	1.218846	7.36832e+06	-55239.1	955.819	-29742.2	0.000000	0.000000	7.237567	450.697	NaN	0.000000	0.001577	0.001733	28.0795	100.445	0.001729	58100.3	4.515208	-8.468429	444.362	1.218548	0.107388	0.107090	450.697	58100.3	0.101570	0.315740	1427.43	94468.4
332	2.000000	1.219354	7.36832e+06	-55239.1	955.819	-29742.2	0.000000	0.000000	7.238379	458.076	NaN	0.000000	0.001594	0.001743	28.0797	101.291	0.001711	59185	8.898825	167.552	454.783	1.219000	0.107896	0.107541	458.076	59185	0.102091	0.318628	1437.65	95795