File: remote_trans/data/nanoindenter/0828-1/data/Data_2025-08-06,11h17m57s/2025-07-22_16-23-58_1_1075.txt
2025-07-22, 16:23:58, 1
Index	Phase	Displacement	Time	Pos X	Pos Y	Pos Z	Rot A	Rot B	Piezo Z	Force A	Force B	Gripper	Voltage A	Voltage B	Temperature	Amplitude force	Amplitude pos	Stiffness	Phase shift	Phase excitation	Force A raw	Displacement raw	HMax	HMax raw	Real Force	Real Stiffness	Contact Depth	Area	Hardness	Reduced Mod.
[#]	[#]	[um]	[s]	[um]	[um]	[um]	[m°]	[m°]	[um]	[uN]	[uN]	[V]	[V]	[V]	[°C]	[uN]	[um]	[N/m]	[°]	[°]	[uN]	[um]	[um]	[um]	[uN]	[N/m]	[um]	[um^2]	[MPa]	[MPa]
1075	1.000000	0.002543	7.37556e+06	-53889.1	1055.82	-29744.8	0.000000	0.000000	6.002836	0.026023	NaN	0.000000	0.001609	0.001737	28.0844	0.004027	0.001010	3.986245	-11.6287	-162.474	0.003322	0.001225	-1.235370	-1.236688	0.026023	3.986245	-1.240266	-3.799346E+16	-6.849234E-19	NaN
1075	1.000000	0.012563	7.37556e+06	-53889.1	1055.82	-29744.8	0.000000	0.000000	6.012855	-0.018467	NaN	0.000000	0.001538	0.001758	28.0826	0.057914	0.001347	42.9896	-38.9216	22.0506	-0.016308	0.011156	-1.225350	-1.226757	-0.018467	42.9896	-1.225028	-2.375714E+16	7.773344E-19	NaN
1075	1.000000	0.022463	7.37556e+06	-53889.1	1055.82	-29744.8	0.000000	0.000000	6.022754	-0.047065	NaN	0.000000	0.001566	0.001710	28.0828	0.044800	0.001662	26.9592	-77.1074	-168.354	-0.059111	0.021115	-1.215450	-1.216798	-0.047065	26.9592	-1.214140	-1.698520E+16	2.770932E-18	NaN
1075	1.000000	0.032487	7.37556e+06	-53889.1	1055.82	-29744.8	0.000000	0.000000	6.032779	-0.008973	NaN	0.000000	0.001597	0.001688	28.0828	0.101294	0.001843	54.9717	-38.1989	12.8764	-0.001176	0.031069	-1.205425	-1.206844	-0.008973	54.9717	-1.205303	-1.293469E+16	6.937200E-19	NaN
1075	1.000000	0.042442	7.37556e+06	-53889.1	1055.82	-29744.8	0.000000	0.000000	6.042736	0.034259	NaN	0.000000	0.001596	0.001715	28.0829	0.033393	0.001974	16.9198	-153.253	-168.024	-0.048421	0.041114	-1.195471	-1.196799	0.034259	16.9198	-1.196989	-1.000991E+16	-3.422538E-18	NaN
1075	1.000000	0.052446	7.37557e+06	-53889.1	1055.82	-29744.8	0.000000	0.000000	6.052741	0.065908	NaN	0.000000	0.001578	0.001700	28.0828	0.049105	0.001958	25.0793	69.3983	13.5803	0.067028	0.051053	-1.185467	-1.186860	0.065908	25.0793	-1.187438	-7.456083E+15	-8.839441E-18	NaN
1075	1.000000	0.062466	7.37557e+06	-53889.1	1055.82	-29744.8	0.000000	0.000000	6.062760	0.031313	NaN	0.000000	0.001563	0.001725	28.0829	0.079837	0.002026	39.3995	-53.1538	-163.248	0.025708	0.061157	-1.175447	-1.176756	0.031313	39.3995	-1.176043	-5.246278E+15	-5.968551E-18	NaN
1075	1.000000	0.072463	7.37557e+06	-53889.1	1055.82	-29744.8	0.000000	0.000000	6.072756	0.009456	NaN	0.000000	0.001570	0.001723	28.083	0.140353	0.002077	67.5893	-110.131	15.6885	-0.065808	0.071099	-1.165450	-1.166813	0.009456	67.5893	-1.165555	-3.795897E+15	-2.491199E-18	NaN
1075	1.000000	0.082438	7.37557e+06	-53889.1	1055.82	-29744.8	0.000000	0.000000	6.082726	-0.104373	NaN	0.000000	0.001554	0.001726	28.0828	0.092383	0.001941	47.5905	66.0683	-166.736	-0.088939	0.081177	-1.155475	-1.156736	-0.104373	47.5905	-1.153831	-2.643455E+15	3.948365E-17	NaN
1075	1.000000	0.092486	7.37557e+06	-53889.1	1055.82	-29744.8	0.000000	0.000000	6.092779	0.036343	NaN	0.000000	0.001535	0.001707	28.0829	0.075050	0.001871	40.1158	-61.8047	13.5184	0.030859	0.091162	-1.145427	-1.146750	0.036343	40.1158	-1.146107	-2.082687E+15	-1.745026E-17	NaN
1075	1.000000	0.102480	7.37557e+06	-53889.1	1055.82	-29744.8	0.000000	0.000000	6.102771	-0.015468	NaN	0.000000	0.001537	0.001699	28.0827	0.053608	0.002071	25.8877	-3.298170	-165.81	-0.089616	0.101148	-1.135433	-1.136765	-0.015468	25.8877	-1.134985	-1.477361E+15	1.046992E-17	NaN
1075	1.000000	0.112469	7.37557e+06	-53889.1	1055.82	-29744.8	0.000000	0.000000	6.112766	0.111823	NaN	0.000000	0.001572	0.001706	28.0829	0.054072	0.002020	26.772	35.6592	14.3964	0.073069	0.111104	-1.125444	-1.126809	0.111823	26.772	-1.128577	-1.212085E+15	-9.225649E-17	NaN
1075	1.000000	0.122474	7.37557e+06	-53889.1	1055.82	-29744.8	0.000000	0.000000	6.122766	0.005336	NaN	0.000000	0.001518	0.001740	28.0824	0.067651	0.002107	32.1093	128.674	-164.928	-0.104373	0.121164	-1.115439	-1.116749	0.005336	32.1093	-1.115564	-8.108704E+14	-6.580553E-18	NaN
1075	1.000000	0.132464	7.37557e+06	-53889.1	1055.82	-29744.8	0.000000	0.000000	6.132758	0.019294	NaN	0.000000	0.001494	0.001761	28.0825	0.032977	0.002012	16.3907	75.7838	12.7002	-0.031006	0.131151	-1.105449	-1.106762	0.019294	16.3907	-1.106331	-6.096115E+14	-3.164963E-17	NaN
1075	1.000000	0.142480	7.37557e+06	-53889.1	1055.82	-29744.8	0.000000	0.000000	6.142772	-0.001363	NaN	0.000000	0.001490	0.001731	28.0829	0.062544	0.001931	32.3885	125.888	-163.444	-0.064032	0.141159	-1.095433	-1.096754	-0.001363	32.3885	-1.095401	-4.348448E+14	3.133473E-18	NaN
1075	1.000000	0.152504	7.37557e+06	-53889.1	1055.82	-29744.8	0.000000	0.000000	6.152791	-0.121993	NaN	0.000000	0.001550	0.001717	28.0841	0.030225	0.001870	16.1632	11.3018	13.45	-0.063065	0.151139	-1.085409	-1.086774	-0.121993	16.1632	-1.079748	-2.680030E+14	4.551942E-16	NaN
1075	1.000000	0.162519	7.37557e+06	-53889.1	1055.82	-29744.8	0.000000	0.000000	6.162810	-0.033856	NaN	0.000000	0.001569	0.001719	28.0844	0.094384	0.001951	48.3742	102.787	-168.508	-0.009200	0.161220	-1.075394	-1.076693	-0.033856	48.3742	-1.074869	-2.304655E+14	1.469024E-16	NaN
1075	1.000000	0.172495	7.37557e+06	-53889.1	1055.82	-29744.8	0.000000	0.000000	6.172787	0.000737	NaN	0.000000	0.001583	0.001684	28.084	0.093110	0.002077	44.8279	156.297	15.1001	-0.011319	0.171135	-1.065418	-1.066778	0.000737	44.8279	-1.065430	-1.721051E+14	-4.284430E-18	NaN
1075	1.000000	0.182521	7.37557e+06	-53889.1	1055.82	-29744.8	0.000000	0.000000	6.182812	-0.036857	NaN	0.000000	0.001583	0.001704	28.0845	0.113721	0.002023	56.2206	-3.946302	-164.907	-0.048764	0.181159	-1.055392	-1.056754	-0.036857	56.2206	-1.054900	-1.242451E+14	2.966474E-16	NaN
1075	1.000000	0.192499	7.37557e+06	-53889.1	1055.82	-29744.8	0.000000	0.000000	6.192789	-0.060000	NaN	0.000000	0.001546	0.001721	28.0844	0.071862	0.001935	37.1296	-128.218	12.0633	0.006535	0.191208	-1.045414	-1.046705	-0.060000	37.1296	-1.044202	-8.922114E+13	6.724890E-16	NaN
1075	1.000000	0.202516	7.37557e+06	-53889.1	1055.82	-29744.8	0.000000	0.000000	6.202806	-0.074722	NaN	0.000000	0.001604	0.001729	28.0849	0.071779	0.001955	36.7202	-44.7803	-165.688	-0.045519	0.201180	-1.035396	-1.036733	-0.074722	36.7202	-1.033870	-6.479417E+13	1.153219E-15	NaN
1075	1.000000	0.212530	7.37557e+06	-53889.1	1055.82	-29744.8	0.000000	0.000000	6.212822	-0.014651	NaN	0.000000	0.001609	0.001647	28.0844	0.083950	0.002044	41.0694	-104.578	12.3826	0.025458	0.211125	-1.025383	-1.026788	-0.014651	41.0694	-1.025115	-4.940523E+13	2.965434E-16	NaN
1075	1.000000	0.222552	7.37557e+06	-53889.1	1055.82	-29744.8	0.000000	0.000000	6.222846	0.048263	NaN	0.000000	0.001586	0.001697	28.0847	0.116730	0.001982	58.9066	115.019	-165.236	-0.100798	0.221235	-1.015361	-1.016678	0.048263	58.9066	-1.015975	-3.722184E+13	-1.296626E-15	NaN
1075	1.000000	0.232507	7.37557e+06	-53889.1	1055.82	-29744.8	0.000000	0.000000	6.232799	-0.008158	NaN	0.000000	0.001590	0.001706	28.0847	0.060992	0.001976	30.8727	20.2326	15.6194	-0.041244	0.231203	-1.005406	-1.006710	-0.008158	30.8727	-1.005208	-2.666104E+13	3.059918E-16	NaN
1075	1.000000	0.242553	7.37557e+06	-53889.1	1055.82	-29744.8	0.000000	0.000000	6.242844	-0.043465	NaN	0.000000	0.001612	0.001698	28.0845	0.050984	0.001961	26.003	-13.8415	-165.812	-0.115024	0.241188	-0.995360	-0.996725	-0.043465	26.003	-0.994106	-1.889759E+13	2.300016E-15	NaN
1075	1.000000	0.252534	7.37557e+06	-53889.1	1055.82	-29744.8	0.000000	0.000000	6.252826	-0.018432	NaN	0.000000	0.001587	0.001681	28.0846	0.071518	0.001909	37.4598	144.47	15.2669	-0.017394	0.251144	-0.985379	-0.986769	-0.018432	37.4598	-0.985009	-1.425262E+13	1.293211E-15	NaN
1075	1.000000	0.262534	7.37557e+06	-53889.1	1055.82	-29744.8	0.000000	0.000000	6.262824	-0.063954	NaN	0.000000	0.001567	0.001713	28.0847	0.064779	0.001987	32.5959	-93.0697	-167.614	0.058440	0.261206	-0.975379	-0.976707	-0.063954	32.5959	-0.973908	-1.010000E+13	6.332035E-15	NaN
1075	1.000000	0.272577	7.37557e+06	-53889.1	1055.82	-29744.8	0.000000	0.000000	6.272867	-0.052395	NaN	0.000000	0.001593	0.001702	28.0848	0.055115	0.001963	28.0827	-21.8805	13.0991	-0.032036	0.271177	-0.965336	-0.966736	-0.052395	28.0827	-0.963937	-7.412047E+12	7.068854E-15	NaN
1075	1.000000	0.282561	7.37557e+06	-53889.1	1055.82	-29744.8	0.000000	0.000000	6.282852	-0.033496	NaN	0.000000	0.001573	0.001717	28.0834	0.030519	0.001986	15.3706	39.558	-168.153	-0.026074	0.281213	-0.955352	-0.956700	-0.033496	15.3706	-0.953717	-5.397038E+12	6.206298E-15	NaN
1075	1.000000	0.292577	7.37557e+06	-53889.1	1055.82	-29744.8	0.000000	0.000000	6.292871	0.043102	NaN	0.000000	0.001564	0.001708	28.0836	0.103941	0.002066	50.3028	-5.712984	10.5822	0.087285	0.291175	-0.945336	-0.946738	0.043102	50.3028	-0.945979	-4.244161E+12	-1.015562E-14	NaN
1075	1.000000	0.302567	7.37557e+06	-53889.1	1055.82	-29744.8	0.000000	0.000000	6.302858	-0.027809	NaN	0.000000	0.001577	0.001707	28.0833	0.066616	0.002055	32.4167	42.9302	-168.98	-0.068090	0.301235	-0.935346	-0.936678	-0.027809	32.4167	-0.934703	-2.989935E+12	9.300716E-15	NaN
1075	1.000000	0.312558	7.37557e+06	-53889.1	1055.82	-29744.8	0.000000	0.000000	6.312848	-0.061943	NaN	0.000000	0.001616	0.001660	28.0834	0.109950	0.002052	53.592	119.769	13.6264	-0.027910	0.311194	-0.925355	-0.926719	-0.061943	53.592	-0.924488	-2.176713E+12	2.845708E-14	NaN
1075	1.000000	0.322572	7.37557e+06	-53889.1	1055.82	-29744.8	0.000000	0.000000	6.322864	-0.026724	NaN	0.000000	0.001560	0.001701	28.0834	0.070549	0.001978	35.658	106.126	-168.028	-0.113977	0.321289	-0.915341	-0.916624	-0.026724	35.658	-0.914779	-1.609534E+12	1.660375E-14	NaN
1075	1.000000	0.332562	7.37557e+06	-53889.1	1055.82	-29744.8	0.000000	0.000000	6.332853	-0.041944	NaN	0.000000	0.001562	0.001718	28.0839	0.134235	0.002069	64.8852	-76.1806	15.8008	-0.037262	0.331214	-0.905351	-0.906698	-0.041944	64.8852	-0.904866	-1.182530E+12	3.546932E-14	NaN
1075	1.000000	0.342584	7.37557e+06	-53889.1	1055.82	-29744.8	0.000000	0.000000	6.342877	0.020568	NaN	0.000000	0.001528	0.001706	28.0835	0.071064	0.002076	34.2386	-141.942	-167.312	-0.059243	0.341239	-0.895329	-0.896674	0.020568	34.2386	-0.895779	-8.913126E+11	-2.307635E-14	NaN
1075	1.000000	0.352581	7.37557e+06	-53889.1	1055.82	-29744.8	0.000000	0.000000	6.352874	0.033624	NaN	0.000000	0.001557	0.001704	28.0833	0.025438	0.002130	11.9432	55.0373	10.556	0.040761	0.351242	-0.885332	-0.886671	0.033624	11.9432	-0.887444	-6.876386E+11	-4.889837E-14	NaN
1075	1.000000	0.362586	7.37557e+06	-53889.1	1055.82	-29744.8	0.000000	0.000000	6.362880	0.033305	NaN	0.000000	0.001546	0.001657	28.0833	0.036408	0.001958	18.5945	86.262	-170.918	0.028681	0.361281	-0.875327	-0.876632	0.033305	18.5945	-0.876670	-4.916717E+11	-6.773754E-14	NaN
1075	1.000000	0.372596	7.37557e+06	-53889.1	1055.82	-29744.8	0.000000	0.000000	6.372887	-0.030101	NaN	0.000000	0.001571	0.001674	28.0835	0.013086	0.001972	6.634454	-155.252	15.8	-0.042097	0.371251	-0.865317	-0.866662	-0.030101	6.634454	-0.861914	-3.104785E+11	9.695103E-14	NaN
1075	1.000000	0.382613	7.37557e+06	-53889.1	1055.82	-29744.8	0.000000	0.000000	6.382905	-0.019061	NaN	0.000000	0.001549	0.001659	28.0831	0.153865	0.001944	79.1629	-55.8292	-165.808	0.044301	0.381332	-0.855300	-0.856581	-0.019061	79.1629	-0.855119	-2.512201E+11	7.587201E-14	NaN
1075	1.000000	0.392595	7.37557e+06	-53889.1	1055.82	-29744.8	0.000000	0.000000	6.392886	-0.029544	NaN	0.000000	0.001555	0.001688	28.083	0.081002	0.001999	40.5244	-156.041	15.3941	-0.017597	0.391271	-0.845318	-0.846642	-0.029544	40.5244	-0.844772	-1.819409E+11	1.623830E-13	NaN
1075	1.000000	0.402598	7.37557e+06	-53889.1	1055.82	-29744.8	0.000000	0.000000	6.402892	0.036358	NaN	0.000000	0.001531	0.001696	28.0832	0.042961	0.001877	22.8918	105.064	-163.636	-0.064186	0.401271	-0.835315	-0.836642	0.036358	22.8918	-0.836506	-1.405888E+11	-2.586135E-13	NaN
1075	1.000000	0.412615	7.37557e+06	-53889.1	1055.82	-29744.8	0.000000	0.000000	6.412908	0.011307	NaN	0.000000	0.001551	0.001701	28.0831	0.095699	0.002099	45.6019	57.6247	12.2382	0.020716	0.411267	-0.825298	-0.826646	0.011307	45.6019	-0.825484	-9.966991E+10	-1.134479E-13	NaN
1075	1.000000	0.422635	7.37557e+06	-53889.1	1055.82	-29744.8	0.000000	0.000000	6.422925	-0.045039	NaN	0.000000	0.001552	0.001693	28.0842	0.040619	0.002066	19.6614	-69.7358	-166.16	0.011770	0.421303	-0.815278	-0.816610	-0.045039	19.6614	-0.813560	-6.868665E+10	6.557224E-13	NaN
1075	1.000000	0.432593	7.37557e+06	-53889.1	1055.82	-29744.8	0.000000	0.000000	6.432886	-0.008338	NaN	0.000000	0.001561	0.001701	28.0847	0.054348	0.002124	25.5916	-63.2679	12.2639	0.034916	0.431285	-0.805320	-0.806628	-0.008338	25.5916	-0.805075	-5.269211E+10	1.582334E-13	NaN
1075	1.000000	0.442620	7.37557e+06	-53889.1	1055.82	-29744.8	0.000000	0.000000	6.442911	-0.024399	NaN	0.000000	0.001530	0.001695	28.0848	0.115811	0.002012	57.5573	-175.925	-165.65	-0.014354	0.441320	-0.795293	-0.796593	-0.024399	57.5573	-0.794975	-3.842785E+10	6.349405E-13	NaN
1075	1.000000	0.452633	7.37557e+06	-53889.1	1055.82	-29744.8	0.000000	0.000000	6.452924	-0.028804	NaN	0.000000	0.001622	0.001706	28.085	0.027542	0.001959	14.0597	-146.109	12.0717	-0.035334	0.451252	-0.785280	-0.786661	-0.028804	14.0597	-0.783743	-2.704541E+10	1.065016E-12	NaN
1075	1.000000	0.462634	7.37557e+06	-53889.1	1055.82	-29744.8	0.000000	0.000000	6.462931	0.112345	NaN	0.000000	0.001571	0.001698	28.0848	0.042256	0.001943	21.7515	-178.703	-164.895	0.088385	0.461303	-0.775279	-0.776610	0.112345	21.7515	-0.779153	-2.342698E+10	-4.795545E-12	NaN
1075	1.000000	0.472607	7.37557e+06	-53889.1	1055.82	-29744.8	0.000000	0.000000	6.472899	-0.011581	NaN	0.000000	0.001566	0.001677	28.0848	0.065531	0.001968	33.2919	152.462	13.5953	-0.012145	0.471247	-0.765306	-0.766666	-0.011581	33.2919	-0.765045	-1.506371E+10	7.688335E-13	NaN
1075	1.000000	0.482639	7.37557e+06	-53889.1	1055.82	-29744.8	0.000000	0.000000	6.482930	-0.014823	NaN	0.000000	0.001604	0.001707	28.0847	0.080334	0.002046	39.2551	64.6163	-166.804	0.073659	0.481336	-0.755274	-0.756577	-0.014823	39.2551	-0.754991	-1.099387E+10	1.348280E-12	NaN
1075	1.000000	0.492658	7.37557e+06	-53889.1	1055.82	-29744.8	0.000000	0.000000	6.492950	0.004873	NaN	0.000000	0.001523	0.001674	28.0847	0.088504	0.002032	43.5632	18.8402	15.577	-0.021102	0.491259	-0.745255	-0.746654	0.004873	43.5632	-0.745339	-8.123970E+9	-5.998642E-13	NaN
1075	1.000000	0.502624	7.37557e+06	-53889.1	1055.82	-29744.8	0.000000	0.000000	6.502917	0.019594	NaN	0.000000	0.001537	0.001699	28.0848	0.019611	0.001996	9.826694	-117.228	-164.4	-0.016897	0.501374	-0.735289	-0.736539	0.019594	9.826694	-0.736784	-6.212327E+9	-3.154098E-12	NaN
1075	1.000000	0.512676	7.37557e+06	-53889.1	1055.82	-29744.8	0.000000	0.000000	6.512967	-0.024560	NaN	0.000000	0.001512	0.001723	28.085	0.062278	0.002006	31.0445	87.4667	12.0553	0.021140	0.511234	-0.725237	-0.726679	-0.024560	31.0445	-0.724644	-4.244166E+9	5.786860E-12	NaN
1075	1.000000	0.522653	7.37557e+06	-53889.1	1055.82	-29744.8	0.000000	0.000000	6.522948	0.052123	NaN	0.000000	0.001494	0.001712	28.0847	0.014054	0.002081	6.752827	109.195	-164.259	0.026620	0.521339	-0.715260	-0.716574	0.052123	6.752827	-0.721049	-3.791179E+9	-1.374836E-11	NaN
1075	1.000000	0.532658	7.37557e+06	-53889.1	1055.82	-29744.8	0.000000	0.000000	6.532952	0.032630	NaN	0.000000	0.001532	0.001709	28.0846	0.080755	0.001905	42.3975	-129.76	17.4658	-0.006638	0.531282	-0.705255	-0.706631	0.032630	42.3975	-0.705832	-2.350495E+9	-1.388238E-11	NaN
1075	1.000000	0.542638	7.37557e+06	-53889.1	1055.82	-29744.8	0.000000	0.000000	6.542932	0.032827	NaN	0.000000	0.001519	0.001702	28.0849	0.198259	0.001960	101.178	90.6329	-164.394	-0.028232	0.541357	-0.695275	-0.696556	0.032827	101.178	-0.695518	-1.699461E+9	-1.931597E-11	NaN
1075	1.000000	0.552651	7.37557e+06	-53889.1	1055.82	-29744.8	0.000000	0.000000	6.552944	0.012040	NaN	0.000000	0.001534	0.001697	28.0845	0.063946	0.001923	33.2489	-166.44	14.8573	-0.004010	0.551242	-0.685262	-0.686671	0.012040	33.2489	-0.685533	-1.241274E+9	-9.699902E-12	NaN
1075	1.000000	0.562642	7.37557e+06	-53889.1	1055.82	-29744.8	0.000000	0.000000	6.562935	0.009410	NaN	0.000000	0.001557	0.001687	28.0836	0.107360	0.002028	52.9318	-154.599	-166.345	-0.037447	0.561387	-0.675271	-0.676525	0.009410	52.9318	-0.675404	-9.022823E+8	-1.042882E-11	NaN
1075	1.000000	0.572693	7.37557e+06	-53889.1	1055.82	-29744.8	0.000000	0.000000	6.572984	-0.014118	NaN	0.000000	0.001547	0.001667	28.0837	0.056320	0.002034	27.6847	-123.078	12.591	-0.046430	0.571324	-0.665220	-0.666589	-0.014118	27.6847	-0.664838	-6.467301E+8	2.182973E-11	NaN
1075	1.000000	0.582697	7.37557e+06	-53889.1	1055.82	-29744.8	0.000000	0.000000	6.582990	-0.001024	NaN	0.000000	0.001571	0.001640	28.0841	0.100986	0.001910	52.8783	94.9913	-164.429	-0.002553	0.581334	-0.655215	-0.656579	-0.001024	52.8783	-0.655201	-4.772220E+8	2.146169E-12	NaN
1075	1.000000	0.592684	7.37557e+06	-53889.1	1055.82	-29744.8	0.000000	0.000000	6.592976	-0.003362	NaN	0.000000	0.001588	0.001664	28.0834	0.076054	0.002178	34.9149	150.57	16.3237	-0.000621	0.591312	-0.645229	-0.646601	-0.003362	34.9149	-0.645157	-3.475615E+8	9.672042E-12	NaN
1075	1.000000	0.602683	7.37557e+06	-53889.1	1055.82	-29744.8	0.000000	0.000000	6.602977	0.022045	NaN	0.000000	0.001562	0.001630	28.0837	0.084177	0.002050	41.071	-162.947	-165.966	0.033015	0.601394	-0.635230	-0.636519	0.022045	41.071	-0.635632	-2.572456E+8	-8.569737E-11	NaN
1075	1.000000	0.612679	7.37557e+06	-53889.1	1055.82	-29744.8	0.000000	0.000000	6.612971	-0.026319	NaN	0.000000	0.001519	0.001629	28.0836	0.171811	0.002035	84.4376	123.613	13.5935	-0.059943	0.611336	-0.625233	-0.626577	-0.026319	84.4376	-0.625000	-1.837978E+8	1.431935E-10	NaN
1075	1.000000	0.622718	7.37557e+06	-53889.1	1055.82	-29744.8	0.000000	0.000000	6.623010	-0.005113	NaN	0.000000	0.001544	0.001679	28.0837	0.088822	0.001943	45.7171	-70.4498	-166.364	-0.007983	0.621390	-0.615195	-0.616523	-0.005113	45.7171	-0.615111	-1.344059E+8	3.803898E-11	NaN
1075	1.000000	0.632711	7.37557e+06	-53889.1	1055.82	-29744.8	0.000000	0.000000	6.633002	-0.039535	NaN	0.000000	0.001549	0.001700	28.0835	0.058020	0.001840	31.536	81.2554	14.6789	0.016497	0.631302	-0.605202	-0.606611	-0.039535	31.536	-0.604262	-9.531081E+7	4.147995E-10	NaN
1075	1.000000	0.642698	7.37557e+06	-53889.1	1055.82	-29744.8	0.000000	0.000000	6.642991	0.005131	NaN	0.000000	0.001550	0.001639	28.0835	0.054214	0.002030	26.7107	71.8564	-164.536	-0.056661	0.641441	-0.595215	-0.596472	0.005131	26.7107	-0.595359	-7.186681E+7	-7.140026E-11	NaN
1075	1.000000	0.652730	7.37557e+06	-53889.1	1055.82	-29744.8	0.000000	0.000000	6.653021	-0.043201	NaN	0.000000	0.001529	0.001634	28.0834	0.076632	0.001929	39.7168	-97.4363	12.009	-0.133429	0.651348	-0.585182	-0.586565	-0.043201	39.7168	-0.584367	-5.069657E+7	8.521491E-10	NaN
1075	1.000000	0.662676	7.37557e+06	-53889.1	1055.82	-29744.8	0.000000	0.000000	6.662968	-0.020447	NaN	0.000000	0.001520	0.001637	28.0835	0.034326	0.001958	17.5305	136.051	-164.916	-0.009491	0.661412	-0.575237	-0.576501	-0.020447	17.5305	-0.574362	-3.688814E+7	5.543082E-10	NaN
1075	1.000000	0.672710	7.37557e+06	-53889.1	1055.82	-29744.8	0.000000	0.000000	6.673002	-0.001832	NaN	0.000000	0.001567	0.001654	28.0833	0.045291	0.002002	22.625	138.14	10.3354	0.007029	0.671327	-0.565203	-0.566586	-0.001832	22.625	-0.565142	-2.751022E+7	6.659637E-11	NaN
1075	1.000000	0.682727	7.37557e+06	-53889.1	1055.82	-29744.8	0.000000	0.000000	6.683018	-0.038876	NaN	0.000000	0.001508	0.001623	28.0834	0.050554	0.002031	24.8877	-22.9581	-167.963	-0.042192	0.681372	-0.555186	-0.556541	-0.038876	24.8877	-0.554014	-1.929932E+7	2.014372E-9	NaN
1075	1.000000	0.692711	7.37557e+06	-53889.1	1055.82	-29744.8	0.000000	0.000000	6.693007	0.086938	NaN	0.000000	0.001553	0.001634	28.0845	0.022874	0.002071	11.0446	79.506	12.9727	-0.005561	0.691375	-0.545202	-0.546538	0.086938	11.0446	-0.551105	-1.758996E+7	-4.942457E-9	NaN
1075	1.000000	0.702723	7.37557e+06	-53889.1	1055.82	-29744.8	0.000000	0.000000	6.703016	0.003477	NaN	0.000000	0.001529	0.001656	28.0846	0.110979	0.002121	52.3286	-132.772	-166.458	0.061140	0.701446	-0.535190	-0.536467	0.003477	52.3286	-0.535240	-1.060030E+7	-3.280365E-10	NaN
1075	1.000000	0.712692	7.37557e+06	-53889.1	1055.82	-29744.8	0.000000	0.000000	6.712982	-0.057208	NaN	0.000000	0.001540	0.001684	28.0844	0.076830	0.002025	37.9411	-0.619969	15.6467	0.006326	0.711322	-0.525221	-0.526591	-0.057208	37.9411	-0.524090	-7.42107e+06	7.708885E-9	NaN
1075	1.000000	0.722722	7.37557e+06	-53889.1	1055.82	-29744.8	0.000000	0.000000	6.723011	-0.096636	NaN	0.000000	0.001552	0.001672	28.0845	0.026885	0.001900	14.1475	121.576	-163.966	-0.075786	0.721425	-0.515191	-0.516488	-0.096636	14.1475	-0.510068	-4.7354e+06	2.040709E-8	NaN
1075	1.000000	0.732766	7.37557e+06	-53889.1	1055.82	-29744.8	0.000000	0.000000	6.733055	-0.075558	NaN	0.000000	0.001537	0.001646	28.0846	0.123369	0.001916	64.3936	122.291	14.3592	-0.022235	0.731441	-0.505147	-0.506472	-0.075558	64.3936	-0.504267	-3.9312e+06	1.922006E-8	NaN
1075	1.000000	0.742753	7.37557e+06	-53889.1	1055.82	-29744.8	0.000000	0.000000	6.743043	-0.060217	NaN	0.000000	0.001558	0.001646	28.0848	0.129631	0.002005	64.6395	-66.8576	-164.66	-0.052305	0.741459	-0.495160	-0.496454	-0.060217	64.6395	-0.494461	-2.86885e+06	2.099014E-8	NaN
1075	1.000000	0.752734	7.37557e+06	-53889.1	1055.82	-29744.8	0.000000	0.000000	6.753024	-0.038892	NaN	0.000000	0.001511	0.001654	28.0846	0.092231	0.002008	45.927	139.997	14.1929	-0.056221	0.751399	-0.485179	-0.486514	-0.038892	45.927	-0.484544	-2.08506e+06	1.865263E-8	NaN
1075	1.000000	0.762735	7.37557e+06	-53889.1	1055.82	-29744.8	0.000000	0.000000	6.763028	0.025862	NaN	0.000000	0.001545	0.001639	28.0846	0.095674	0.001960	48.8105	33.5812	-168.062	0.061869	0.761412	-0.475178	-0.476501	0.025862	48.8105	-0.475576	-1.56158e+06	-1.656148E-8	NaN
1075	1.000000	0.772745	7.37557e+06	-53889.1	1055.82	-29744.8	0.000000	0.000000	6.773036	-0.038514	NaN	0.000000	0.001538	0.001641	28.0848	0.052405	0.002042	25.6687	-142.63	10.9978	-0.016232	0.771424	-0.465168	-0.466489	-0.038514	25.6687	-0.464043	-1.07599e+06	3.579434E-8	NaN
1075	1.000000	0.782738	7.37557e+06	-53889.1	1055.82	-29744.8	0.000000	0.000000	6.783030	-0.001874	NaN	0.000000	0.001543	0.001672	28.0846	0.012256	0.001908	6.423422	74.5008	-167.841	-0.053044	0.781424	-0.455175	-0.456489	-0.001874	6.423422	-0.454957	-801875	2.337419E-9	NaN
1075	1.000000	0.792779	7.37557e+06	-53889.1	1055.82	-29744.8	0.000000	0.000000	6.793069	-0.052029	NaN	0.000000	0.001545	0.001641	28.0846	0.106577	0.002018	52.8249	-166.955	13.8304	0.065002	0.791430	-0.445134	-0.446483	-0.052029	52.8249	-0.444395	-569331	9.138547E-8	NaN
1075	1.000000	0.802795	7.37557e+06	-53889.1	1055.82	-29744.8	0.000000	0.000000	6.803085	-0.035398	NaN	0.000000	0.001551	0.001650	28.0845	0.130878	0.002028	64.5399	-132.908	-165.001	-0.036804	0.801501	-0.435118	-0.436412	-0.035398	64.5399	-0.434707	-415543	8.518576E-8	NaN
1075	1.000000	0.812781	7.37557e+06	-53889.1	1055.82	-29744.8	0.000000	0.000000	6.813071	-0.057939	NaN	0.000000	0.001537	0.001633	28.0846	0.107369	0.002000	53.6889	-46.5099	13.1666	-0.030435	0.811414	-0.425132	-0.426499	-0.057939	53.6889	-0.424323	-296273	1.955602E-7	NaN
1075	1.000000	0.822814	7.37557e+06	-53889.1	1055.82	-29744.8	0.000000	0.000000	6.823106	-0.001670	NaN	0.000000	0.001579	0.001641	28.0845	0.090903	0.001947	46.6777	-12.0471	-165.241	-0.012525	0.821448	-0.415099	-0.416465	-0.001670	46.6777	-0.415072	-219017	7.622987E-9	NaN
1075	1.000000	0.832805	7.37557e+06	-53889.1	1055.82	-29744.8	0.000000	0.000000	6.833098	0.018551	NaN	0.000000	0.001574	0.001658	28.0834	0.091337	0.002002	45.6142	-104.428	14.8146	0.029059	0.831434	-0.405108	-0.406479	0.018551	45.6142	-0.405413	-159635	-1.162057E-7	NaN
1075	1.000000	0.842782	7.37557e+06	-53889.1	1055.82	-29744.8	0.000000	0.000000	6.843072	-0.063512	NaN	0.000000	0.001587	0.001691	28.0835	0.056856	0.002070	27.4686	102.088	-166.361	-0.068656	0.841488	-0.395130	-0.396425	-0.063512	27.4686	-0.393396	-107578	5.903768E-7	NaN
1075	1.000000	0.852788	7.37557e+06	-53889.1	1055.82	-29744.8	0.000000	0.000000	6.853080	-0.023704	NaN	0.000000	0.001581	0.001654	28.083	0.033796	0.001908	17.7124	-3.125640	10.4976	-0.139803	0.851365	-0.385125	-0.386548	-0.023704	17.7124	-0.384121	-79248.2	2.991105E-7	NaN
1075	1.000000	0.862773	7.37557e+06	-53889.1	1055.82	-29744.8	0.000000	0.000000	6.863063	-0.052240	NaN	0.000000	0.001589	0.001642	28.0832	0.095318	0.001859	51.2692	146.082	-166.161	-0.046375	0.861520	-0.375140	-0.376393	-0.052240	51.2692	-0.374376	-57424	9.097245E-7	NaN
1075	1.000000	0.872787	7.37557e+06	-53889.1	1055.82	-29744.8	0.000000	0.000000	6.873076	-0.095706	NaN	0.000000	0.001566	0.001663	28.0832	0.084923	0.002015	42.141	129.717	13.2772	-0.069964	0.871394	-0.365126	-0.366519	-0.095706	42.141	-0.363422	-39928.6	2.396926E-6	NaN
1075	1.000000	0.882767	7.37557e+06	-53889.1	1055.82	-29744.8	0.000000	0.000000	6.883058	-0.023263	NaN	0.000000	0.001584	0.001667	28.0833	0.027897	0.001826	15.2773	174.524	-167.06	0.061821	0.881469	-0.355146	-0.356444	-0.023263	15.2773	-0.354004	-29178.9	7.972700E-7	NaN
1075	1.000000	0.892813	7.37557e+06	-53889.1	1055.82	-29744.8	0.000000	0.000000	6.893106	0.016592	NaN	0.000000	0.001652	0.001632	28.0831	0.092067	0.002000	46.029	72.6173	16.1226	0.021368	0.891498	-0.345100	-0.346415	0.016592	46.029	-0.345370	-21864.3	-7.588385E-7	NaN
1075	1.000000	0.902826	7.37557e+06	-53889.1	1055.82	-29744.8	0.000000	0.000000	6.903117	-0.015663	NaN	0.000000	0.001521	0.001675	28.083	0.014853	0.001981	7.496744	-106.892	-169.198	0.007885	0.901486	-0.335087	-0.336427	-0.015663	7.496744	-0.333520	-14688	1.066348E-6	NaN
1075	1.000000	0.912841	7.37557e+06	-53889.1	1055.82	-29744.8	0.000000	0.000000	6.913135	0.044546	NaN	0.000000	0.001534	0.001675	28.0833	0.035423	0.001926	18.3934	94.3451	17.4173	0.021419	0.911458	-0.325072	-0.326455	0.044546	18.3934	-0.326889	-11745	-3.792730E-6	NaN
1075	1.000000	0.922823	7.37557e+06	-53889.1	1055.82	-29744.8	0.000000	0.000000	6.923119	0.086757	NaN	0.000000	0.001505	0.001650	28.0832	0.070071	0.002029	34.5299	172.86	-163.19	0.052472	0.921572	-0.315090	-0.316341	0.086757	34.5299	-0.316974	-8395.84	-1.033328E-5	NaN
1075	1.000000	0.932802	7.37557e+06	-53889.1	1055.82	-29744.8	0.000000	0.000000	6.933093	-0.045162	NaN	0.000000	0.001513	0.001620	28.0833	0.069499	0.001946	35.7056	105.37	12.8563	-0.021650	0.931482	-0.305111	-0.306431	-0.045162	35.7056	-0.304162	-5426.43	8.322548E-6	NaN
1075	1.000000	0.942815	7.37557e+06	-53889.1	1055.82	-29744.8	0.000000	0.000000	6.943104	-0.088594	NaN	0.000000	0.001530	0.001645	28.083	0.028647	0.001865	15.3631	-159.729	-168.86	-0.059704	0.941529	-0.295098	-0.296384	-0.088594	15.3631	-0.290773	-3426.68	2.585418E-5	NaN
1075	1.000000	0.952818	7.37557e+06	-53889.1	1055.82	-29744.8	0.000000	0.000000	6.953109	-0.025858	NaN	0.000000	0.001547	0.001612	28.0834	0.056114	0.001960	28.6252	-43.8664	13.8602	0.107854	0.951516	-0.285095	-0.286397	-0.025858	28.6252	-0.284418	-2751.15	9.398981E-6	NaN
1075	1.000000	0.962830	7.37557e+06	-53889.1	1055.82	-29744.8	0.000000	0.000000	6.963121	-0.024680	NaN	0.000000	0.001515	0.001630	28.0833	0.138802	0.001992	69.6857	81.9905	-169.605	-0.064113	0.961558	-0.275083	-0.276355	-0.024680	69.6857	-0.274817	-1970.77	1.252290E-5	NaN
1075	1.000000	0.972843	7.37557e+06	-53889.1	1055.82	-29744.8	0.000000	0.000000	6.973136	0.016023	NaN	0.000000	0.001542	0.001651	28.0841	0.037141	0.002177	17.0615	-76.1373	12.3671	-0.044001	0.971526	-0.265070	-0.266387	0.016023	17.0615	-0.265774	-1436.15	-1.115720E-5	NaN
1075	1.000000	0.982837	7.37557e+06	-53889.1	1055.82	-29744.8	0.000000	0.000000	6.983130	0.018780	NaN	0.000000	0.001559	0.001654	28.0839	0.041235	0.001941	21.2463	113.139	-166.342	0.021224	0.981519	-0.255076	-0.256394	0.018780	21.2463	-0.255739	-1008.07	-1.863003E-5	NaN
1075	1.000000	0.992846	7.37557e+06	-53889.1	1055.82	-29744.8	0.000000	0.000000	6.993139	0.021324	NaN	0.000000	0.001538	0.001675	28.0845	0.080951	0.002033	39.8134	-98.9423	14.9281	0.023629	0.991486	-0.245067	-0.246427	0.021324	39.8134	-0.245469	-699.425	-3.048852E-5	NaN
1075	1.000000	1.002837	7.37557e+06	-53889.1	1055.82	-29744.8	0.000000	0.000000	7.003127	-0.043999	NaN	0.000000	0.001551	0.001643	28.0841	0.033132	0.002015	16.4405	-176.704	-162.643	-0.059167	1.001523	-0.235076	-0.236390	-0.043999	16.4405	-0.233069	-447.605	9.829851E-5	NaN
1075	1.000000	1.012857	7.37557e+06	-53889.1	1055.82	-29744.8	0.000000	0.000000	7.013149	-0.019361	NaN	0.000000	0.001507	0.001676	28.0844	0.020488	0.001814	11.2931	109.265	15.5155	-0.013897	1.011499	-0.225056	-0.226414	-0.019361	11.2931	-0.223770	-318.997	6.069426E-5	NaN
1075	1.000000	1.022863	7.37557e+06	-53889.1	1055.82	-29744.8	0.000000	0.000000	7.023155	-0.002585	NaN	0.000000	0.001552	0.001658	28.0843	0.095159	0.001935	49.1815	151.943	-168.633	-0.025623	1.021569	-0.215050	-0.216344	-0.002585	49.1815	-0.215011	-231.039	1.118959E-5	NaN
1075	1.000000	1.032873	7.37557e+06	-53889.1	1055.82	-29744.8	0.000000	0.000000	7.033165	-0.002716	NaN	0.000000	0.001509	0.001687	28.0848	0.141431	0.001958	72.2196	36.1986	16.8557	0.057719	1.031512	-0.205040	-0.206401	-0.002716	72.2196	-0.205012	-159.13	1.706965E-5	NaN
1075	1.000000	1.042870	7.37557e+06	-53889.1	1055.82	-29744.8	0.000000	0.000000	7.043162	-0.021240	NaN	0.000000	0.001528	0.001689	28.0841	0.025725	0.001975	13.0269	-11.9229	-167.926	-0.016168	1.041599	-0.195043	-0.196314	-0.021240	13.0269	-0.193820	-104.144	0.000204	NaN
1075	1.000000	1.052864	7.37557e+06	-53889.1	1055.82	-29744.8	0.000000	0.000000	7.053156	-0.008121	NaN	0.000000	0.001539	0.001688	28.0841	0.064034	0.001991	32.1595	11.8436	13.9858	0.039500	1.051526	-0.185049	-0.186386	-0.008121	32.1595	-0.184860	-73.752	0.000110	NaN
1075	1.000000	1.062887	7.37557e+06	-53889.1	1055.82	-29744.8	0.000000	0.000000	7.063177	-0.072177	NaN	0.000000	0.001539	0.001630	28.0839	0.101275	0.002043	49.5786	-54.5935	-166.559	-0.025127	1.061542	-0.175025	-0.176371	-0.072177	49.5786	-0.173934	-48.0437	0.001502	NaN
1075	1.000000	1.072883	7.37557e+06	-53889.1	1055.82	-29744.8	0.000000	0.000000	7.073174	-0.039408	NaN	0.000000	0.001537	0.001636	28.0843	0.009483	0.001961	4.834929	129.681	13.5906	-0.067026	1.071545	-0.165030	-0.166368	-0.039408	4.834929	-0.158917	-26.2248	0.001503	NaN
1075	1.000000	1.082902	7.37557e+06	-53889.1	1055.82	-29744.8	0.000000	0.000000	7.083193	-0.024129	NaN	0.000000	0.001541	0.001651	28.084	0.109871	0.002005	54.8088	-46.5061	-167.541	-0.071629	1.081551	-0.155011	-0.156362	-0.024129	54.8088	-0.154681	-22.0208	0.001096	NaN
1075	1.000000	1.092862	7.37557e+06	-53889.1	1055.82	-29744.8	0.000000	0.000000	7.093152	-0.056665	NaN	0.000000	0.001571	0.001659	28.0842	0.089231	0.001994	44.7586	58.6173	11.2962	-0.047362	1.091540	-0.145051	-0.146373	-0.056665	44.7586	-0.144101	-14.1097	0.004016	NaN
1075	1.000000	1.102898	7.37557e+06	-53889.1	1055.82	-29744.8	0.000000	0.000000	7.103189	-0.018624	NaN	0.000000	0.001526	0.001691	28.0828	0.046264	0.001897	24.3858	-30.2232	-165.817	0.003646	1.101617	-0.135015	-0.136296	-0.018624	24.3858	-0.134442	-9.281861	0.002007	NaN
1075	1.000000	1.112893	7.37557e+06	-53889.1	1055.82	-29744.8	0.000000	0.000000	7.113185	-0.010908	NaN	0.000000	0.001544	0.001667	28.0831	0.083349	0.002112	39.4721	175.44	14.1522	-0.015267	1.111531	-0.125020	-0.126382	-0.010908	39.4721	-0.124813	-6.029625	0.001809	NaN
1075	1.000000	1.122872	7.37557e+06	-53889.1	1055.82	-29744.8	0.000000	0.000000	7.123166	0.042685	NaN	0.000000	0.001524	0.001651	28.0829	0.089136	0.001934	46.0792	-96.9074	-163.857	0.008500	1.121571	-0.115041	-0.116342	0.042685	46.0792	-0.115736	-3.955951	-0.010790	NaN
1075	1.000000	1.132905	7.37557e+06	-53889.1	1055.82	-29744.8	0.000000	0.000000	7.133193	-0.110234	NaN	0.000000	0.001568	0.001643	28.083	0.084587	0.001803	46.9201	179.583	12.7223	-0.096191	1.131571	-0.105008	-0.106342	-0.110234	46.9201	-0.103246	-2.153306	0.051193	NaN
1075	1.000000	1.142932	7.37557e+06	-53889.1	1055.82	-29744.8	0.000000	0.000000	7.143225	0.009929	NaN	0.000000	0.001536	0.001662	28.083	0.049900	0.001934	25.8075	-93.9891	-166.106	-0.018383	1.141632	-0.094981	-0.096281	0.009929	25.8075	-0.095270	-1.430711	-0.006940	NaN
1075	1.000000	1.152918	7.37557e+06	-53889.1	1055.82	-29744.8	0.000000	0.000000	7.153211	0.006596	NaN	0.000000	0.001504	0.001689	28.0831	0.083563	0.002006	41.655	-90.7143	8.695819	-0.092883	1.151462	-0.084995	-0.086451	0.006596	41.655	-0.085113	-0.826844	-0.007977	NaN
1075	1.000000	1.162863	7.37557e+06	-53889.1	1055.82	-29744.8	0.000000	0.000000	7.163156	-0.005794	NaN	0.000000	0.001539	0.001692	28.0832	0.030949	0.002103	14.7179	12.0146	-166.952	-0.050768	1.161575	-0.075050	-0.076338	-0.005794	14.7179	-0.074754	-0.455154	0.012729	NaN
1075	1.000000	1.172916	7.37557e+06	-53889.1	1055.82	-29744.8	0.000000	0.000000	7.173206	-0.044867	NaN	0.000000	0.001533	0.001706	28.0833	0.052551	0.002056	25.5601	-96.4132	14.6054	-0.096763	1.171574	-0.064997	-0.066339	-0.044867	25.5601	-0.063681	-0.228990	0.195935	NaN
1075	1.000000	1.182930	7.37557e+06	-53889.1	1055.82	-29744.8	0.000000	0.000000	7.183222	-0.012060	NaN	0.000000	0.001504	0.001665	28.0834	0.057250	0.001989	28.7835	-102.591	-163.458	0.007485	1.181583	-0.054983	-0.056330	-0.012060	28.7835	-0.054669	-0.125904	0.095785	NaN
1075	1.000000	1.192918	7.37557e+06	-53889.1	1055.82	-29744.8	0.000000	0.000000	7.193210	-0.013059	NaN	0.000000	0.001543	0.001671	28.0832	0.081631	0.002082	39.2065	60.8418	11.8835	0.006161	1.191558	-0.044995	-0.046355	-0.013059	39.2065	-0.044745	-0.063126	0.206876	NaN
1075	1.000000	1.202930	7.37557e+06	-53889.1	1055.82	-29744.8	0.000000	0.000000	7.203221	-0.022158	NaN	0.000000	0.001579	0.001629	28.0837	0.132701	0.001963	67.5965	-31.0462	-162.897	-0.031941	1.201603	-0.034983	-0.036310	-0.022158	67.5965	-0.034737	-0.031459	0.704326	NaN
1075	1.000000	1.212945	7.37557e+06	-53889.1	1055.82	-29744.8	0.000000	0.000000	7.213236	-0.027234	NaN	0.000000	0.001556	0.001689	28.0836	0.111541	0.001875	59.4955	46.4602	17.0838	-0.055044	1.211621	-0.024968	-0.026292	-0.027234	59.4955	-0.024625	-0.016495	1.651037	NaN
1075	1.000000	1.222923	7.37557e+06	-53889.1	1055.82	-29744.8	0.000000	0.000000	7.223215	-0.002419	NaN	0.000000	0.001528	0.001617	28.0834	0.047301	0.001968	24.0358	-87.7217	-164.211	-0.009592	1.221685	-0.014990	-0.016228	-0.002419	24.0358	-0.014914	-0.009224	0.262206	NaN
1075	1.000000	1.232934	7.37557e+06	-53889.1	1055.82	-29744.8	0.000000	0.000000	7.233262	0.874084	NaN	0.000000	0.001545	0.001680	28.0838	1.409557	0.001969	715.842	6.949347	9.903614	0.192581	1.231615	-0.004979	-0.006298	0.874084	715.842	-0.005895	-0.003972	-220.061	NaN
1075	2.000000	1.241494	7.37557e+06	-53889.1	1055.82	-29744.8	0.000000	0.000000	7.242122	8.171861	NaN	0.000000	0.001616	0.001646	28.0846	9.174324	0.001726	5316.16	10.6003	-174.022	9.779586	1.241072	0.003581	0.003159	8.171861	5316.16	0.002428	0.001904	4292.79	111322
1075	2.000000	1.243949	7.37557e+06	-53889.1	1055.82	-29744.8	0.000000	0.000000	7.244714	11.4746	NaN	0.000000	0.001624	0.001671	28.0849	11.4725	0.001721	6667.25	11.7335	2.387990	11.0897	1.243594	0.006036	0.005681	11.4746	6667.25	0.004746	0.003902	2940.33	97510.1
1075	2.000000	1.246356	7.37557e+06	-53889.1	1055.82	-29744.8	0.000000	0.000000	7.247226	14.0511	NaN	0.000000	0.001636	0.001662	28.0846	14.2715	0.001656	8618.84	7.470883	-175.852	13.351	1.246096	0.008443	0.008183	14.0511	8618.84	0.007220	0.006252	2247.36	99587.2
1075	2.000000	1.248886	7.37557e+06	-53889.1	1055.82	-29744.8	0.000000	0.000000	7.249939	18.5043	NaN	0.000000	0.001622	0.001648	28.0845	17.2053	0.001716	10028.8	7.844223	2.084100	19.1836	1.248607	0.010973	0.010694	18.5043	10028.8	0.009589	0.008729	2119.98	98073.5
1075	2.000000	1.251415	7.37557e+06	-53889.1	1055.82	-29744.8	0.000000	0.000000	7.252639	22.6444	NaN	0.000000	0.001577	0.001684	28.0849	20.9623	0.001843	11375.9	8.783559	179.823	23.2486	1.251148	0.013502	0.013235	22.6444	11375.9	0.012009	0.011501	1968.83	96913.2
1075	2.000000	1.253891	7.37557e+06	-53889.1	1055.82	-29744.8	0.000000	0.000000	7.255470	31.2812	NaN	0.000000	0.001582	0.001635	28.0848	22.3913	0.001717	13042.9	4.841422	3.375323	30.0708	1.253461	0.015978	0.015548	31.2812	13042.9	0.014179	0.014206	2201.99	99979.8
1075	2.000000	1.256380	7.37557e+06	-53889.1	1055.82	-29744.8	0.000000	0.000000	7.258221	37.6493	NaN	0.000000	0.001594	0.001652	28.0849	25.3962	0.001711	14846.5	10.3144	177.18	38.8953	1.255961	0.018467	0.018048	37.6493	14846.5	0.016565	0.017429	2160.1	102744
1075	2.000000	1.258865	7.37557e+06	-53889.1	1055.82	-29744.8	0.000000	0.000000	7.260896	42.2605	NaN	0.000000	0.001635	0.001596	28.0846	27.7822	0.001749	15887.5	2.833758	2.330982	40.8592	1.258505	0.020952	0.020592	42.2605	15887.5	0.018957	0.020930	2019.09	100332
1075	2.000000	1.261333	7.37557e+06	-53889.1	1055.82	-29744.8	0.000000	0.000000	7.263515	45.9243	NaN	0.000000	0.001613	0.001684	28.0859	30.5544	0.001835	16649.7	5.753021	-179.657	46.4981	1.261051	0.023420	0.023138	45.9243	16649.7	0.021352	0.024711	1858.46	96768.7
1075	2.000000	1.263871	7.37557e+06	-53889.1	1055.82	-29744.8	0.000000	0.000000	7.266444	55.4414	NaN	0.000000	0.001603	0.001660	28.0846	32.8336	0.001856	17689.7	5.027517	0.825483	55.9386	1.263485	0.025958	0.025572	55.4414	17689.7	0.023608	0.028531	1943.19	95682.9
1075	2.000000	1.266321	7.37557e+06	-53889.1	1055.82	-29744.8	0.000000	0.000000	7.269349	66.5086	NaN	0.000000	0.001593	0.001683	28.0855	34.4631	0.001676	20560.2	4.200874	179.049	65.3008	1.265943	0.028408	0.028030	66.5086	20560.2	0.025982	0.032827	2026.04	103678
1075	2.000000	1.268832	7.37557e+06	-53889.1	1055.82	-29744.8	0.000000	0.000000	7.271955	68.815	NaN	0.000000	0.001615	0.001669	28.0846	37.8739	0.001756	21570.4	4.307147	-1.194434	68.0693	1.268426	0.030919	0.030513	68.815	21570.4	0.028526	0.037744	1823.19	101439
1075	2.000000	1.271382	7.37557e+06	-53889.1	1055.82	-29744.8	0.000000	0.000000	7.274944	79.4834	NaN	0.000000	0.001558	0.001651	28.0851	41.7296	0.001918	21762.1	6.069136	176.59	79.7583	1.271067	0.033469	0.033154	79.4834	21762.1	0.030730	0.042270	1880.37	96706.9
1075	2.000000	1.273810	7.37557e+06	-53889.1	1055.82	-29744.8	0.000000	0.000000	7.277780	89.4111	NaN	0.000000	0.001625	0.001679	28.0837	42.5096	0.001710	24853.4	4.999005	-2.168464	86.395	1.273400	0.035897	0.035487	89.4111	24853.4	0.033199	0.047635	1876.99	104038
1075	2.000000	1.276244	7.37557e+06	-53889.1	1055.82	-29744.8	0.000000	0.000000	7.280584	98.3951	NaN	0.000000	0.001599	0.001679	28.0843	44.8418	0.001747	25674	1.105424	-179.592	94.1999	1.275981	0.038331	0.038069	98.3951	25674	0.035457	0.052816	1862.99	102067
1075	2.000000	1.278774	7.37557e+06	-53889.1	1055.82	-29744.8	0.000000	0.000000	7.283603	110.307	NaN	0.000000	0.001609	0.001672	28.0833	48.1241	0.001692	28447.5	2.768794	-1.611055	107.95	1.278468	0.040861	0.040555	110.307	28447.5	0.037952	0.058844	1874.58	107144
1075	2.000000	1.281292	7.37557e+06	-53889.1	1055.82	-29744.8	0.000000	0.000000	7.286507	119.654	NaN	0.000000	0.001616	0.001694	28.0837	52.1172	0.001763	29566	4.699726	175.928	118.287	1.280971	0.043380	0.043058	119.654	29566	0.040344	0.064921	1843.07	106016
1075	2.000000	1.283847	7.37557e+06	-53889.1	1055.82	-29744.8	0.000000	0.000000	7.289538	131.248	NaN	0.000000	0.001552	0.001691	28.0832	54.3707	0.001778	30587.6	5.357801	-5.210364	130.068	1.283473	0.045934	0.045560	131.248	30587.6	0.042715	0.071234	1842.49	104707
1075	2.000000	1.286314	7.37557e+06	-53889.1	1055.82	-29744.8	0.000000	0.000000	7.292662	147.233	NaN	0.000000	0.001534	0.001632	28.0841	56.7369	0.001792	31654.5	3.910833	175.918	146.561	1.285913	0.048401	0.048000	147.233	31654.5	0.044912	0.077338	1903.75	103995
1075	2.000000	1.288783	7.37557e+06	-53889.1	1055.82	-29744.8	0.000000	0.000000	7.295604	158.712	NaN	0.000000	0.001573	0.001648	28.0833	60.6139	0.001762	34407.1	7.985074	-9.018128	155.901	1.288446	0.050870	0.050533	158.712	34407.1	0.047410	0.084577	1876.53	108092
1075	2.000000	1.291246	7.37557e+06	-53889.1	1055.82	-29744.8	0.000000	0.000000	7.298617	172.091	NaN	0.000000	0.001597	0.001654	28.0838	62.9819	0.001686	37362.8	5.084641	173.618	169.034	1.290960	0.053333	0.053047	172.091	37362.8	0.049878	0.092038	1869.79	112520
1075	2.000000	1.293759	7.37557e+06	-53889.1	1055.82	-29744.8	0.000000	0.000000	7.301667	185.135	NaN	0.000000	0.001588	0.001664	28.0831	64.6374	0.001738	37183	5.248346	-6.854534	179.595	1.293424	0.055846	0.055511	185.135	37183	0.052112	0.099053	1869.05	107941
1075	2.000000	1.296217	7.37557e+06	-53889.1	1055.82	-29744.8	0.000000	0.000000	7.304572	196.004	NaN	0.000000	0.001637	0.001647	28.0836	66.1663	0.001752	37756.2	2.205856	175.964	191.808	1.296094	0.058304	0.058181	196.004	37756.2	0.054411	0.106533	1839.84	105686
1075	2.000000	1.298759	7.37557e+06	-53889.1	1055.82	-29744.8	0.000000	0.000000	7.307917	215.532	NaN	0.000000	0.001610	0.001662	28.0834	69.1509	0.001806	38295.1	2.205579	-3.487659	212.692	1.298457	0.060846	0.060544	215.532	38295.1	0.056625	0.113984	1890.89	103632
1075	2.000000	1.301360	7.37557e+06	-53889.1	1055.82	-29744.8	0.000000	0.000000	7.311205	232.243	NaN	0.000000	0.001634	0.001670	28.0836	72.6968	0.001834	39644.6	5.261583	173.52	236.928	1.300995	0.063447	0.063082	232.243	39644.6	0.059053	0.122436	1896.85	103515
1075	2.000000	1.303813	7.37557e+06	-53889.1	1055.82	-29744.8	0.000000	0.000000	7.314228	246.101	NaN	0.000000	0.001641	0.001679	28.0833	73.4281	0.001782	41215.3	1.623071	-3.007792	243.958	1.303533	0.065900	0.065620	246.101	41215.3	0.061422	0.130955	1879.28	104057
1075	2.000000	1.306233	7.37557e+06	-53889.1	1055.82	-29744.8	0.000000	0.000000	7.317211	259.788	NaN	0.000000	0.001595	0.001652	28.0836	76.0268	0.001574	48296.4	6.197651	170.491	258.323	1.306014	0.068320	0.068101	259.788	48296.4	0.064286	0.141625	1834.34	117251
1075	2.000000	1.308690	7.37557e+06	-53889.1	1055.82	-29744.8	0.000000	0.000000	7.320419	278.03	NaN	0.000000	0.001598	0.001697	28.0844	79.7099	0.001885	42283	3.824794	-5.763539	271.993	1.308510	0.070778	0.070597	278.03	42283	0.065846	0.147601	1883.66	100553
1075	2.000000	1.311205	7.37557e+06	-53889.1	1055.82	-29744.8	0.000000	0.000000	7.323595	294.109	NaN	0.000000	0.001626	0.001654	28.0852	81.9085	0.001725	47483.3	2.096603	174.508	289.305	1.311073	0.073292	0.073160	294.109	47483.3	0.068647	0.158626	1854.1	108925
1075	2.000000	1.313717	7.37557e+06	-53889.1	1055.82	-29744.8	0.000000	0.000000	7.327036	316.698	NaN	0.000000	0.001604	0.001671	28.0845	83.3807	0.001766	47222.4	1.821736	-4.500630	309.881	1.313332	0.075804	0.075419	316.698	47222.4	0.070774	0.167251	1893.55	105496
1075	2.000000	1.316237	7.37557e+06	-53889.1	1055.82	-29744.8	0.000000	0.000000	7.330246	333.477	NaN	0.000000	0.001597	0.001661	28.0846	86.538	0.001732	49974.5	4.432314	172.281	330.89	1.315909	0.078324	0.077996	333.477	49974.5	0.073319	0.177852	1875.02	108266
1075	2.000000	1.318759	7.37557e+06	-53889.1	1055.82	-29744.8	0.000000	0.000000	7.333693	355.946	NaN	0.000000	0.001618	0.001617	28.0846	89.6455	0.001916	46778.7	6.591836	-9.098500	352.376	1.318361	0.080846	0.080448	355.946	46778.7	0.075140	0.185622	1917.59	99199
1075	2.000000	1.321330	7.37557e+06	-53889.1	1055.82	-29744.8	0.000000	0.000000	7.336790	368.761	NaN	0.000000	0.001644	0.001645	28.0845	91.9574	0.001696	54230.1	8.340989	167.481	371.518	1.320942	0.083417	0.083029	368.761	54230.1	0.078317	0.199556	1847.91	110913
1075	2.000000	1.323829	7.37557e+06	-53889.1	1055.82	-29744.8	0.000000	0.000000	7.340223	391.447	NaN	0.000000	0.001637	0.001651	28.0845	94.6701	0.001878	50408.9	9.830468	-13.6182	391.574	1.323448	0.085916	0.085535	391.447	50408.9	0.080092	0.207548	1886.05	101093
1075	2.000000	1.326282	7.37557e+06	-53889.1	1055.82	-29744.8	0.000000	0.000000	7.343466	410.66	NaN	0.000000	0.001600	0.001666	28.0847	96.2145	0.001765	54510.6	6.159915	169.79	412.777	1.325950	0.088369	0.088037	410.66	54510.6	0.082719	0.219639	1869.7	106267
1075	2.000000	1.328653	7.37557e+06	-53889.1	1055.82	-29744.8	0.000000	0.000000	7.346714	431.989	NaN	0.000000	0.001590	0.001675	28.0848	98.7311	0.001798	54899.8	2.334447	-6.212214	424.169	1.328326	0.090740	0.090413	431.989	54899.8	0.084838	0.229630	1881.24	104672
1075	2.000000	1.331211	7.37557e+06	-53889.1	1055.82	-29744.8	0.000000	0.000000	7.350279	456.469	NaN	0.000000	0.001533	0.001628	28.0845	101.965	0.001790	56974.8	5.285856	170.692	453.027	1.330821	0.093298	0.092908	456.469	56974.8	0.087289	0.241442	1890.6	105938
1075	2.000000	1.333750	7.37557e+06	-53889.1	1055.82	-29744.8	0.000000	0.000000	7.353509	473.272	NaN	0.000000	0.001523	0.001681	28.0845	103.816	0.001893	54837.6	3.535282	-7.111659	469.957	1.333488	0.095837	0.095575	473.272	54837.6	0.089364	0.251659	1880.6	99872.4
1075	2.000000	1.336198	7.37557e+06	-53889.1	1055.82	-29744.8	0.000000	0.000000	7.357294	505.766	NaN	0.000000	0.001568	0.001703	28.0847	105.104	0.001675	62750.5	3.876937	171.571	503.038	1.335861	0.098285	0.097948	505.766	62750.5	0.092240	0.266146	1900.33	111130
1075	2.000000	1.338731	7.37557e+06	-53889.1	1055.82	-29744.8	0.000000	0.000000	7.360792	529.225	NaN	0.000000	0.001522	0.001658	28.0847	108.281	0.001742	62152.2	6.207416	-10.9395	524.742	1.338331	0.100818	0.100418	529.225	62152.2	0.094432	0.277442	1907.51	107806
1075	2.000000	1.339241	7.37557e+06	-53889.1	1055.82	-29744.8	0.000000	0.000000	7.361358	530.582	NaN	0.000000	0.001528	0.001662	28.0847	108.976	0.001812	60132.9	5.325574	170.206	531.734	1.338964	0.101328	0.101051	530.582	60132.9	0.094711	0.278893	1902.46	104032