File: remote_trans/data/nanoindenter/0828-1/data/Data_2025-08-06,11h17m57s/2025-07-22_16-23-58_1_1190.txt
2025-07-22, 16:23:58, 1
Index	Phase	Displacement	Time	Pos X	Pos Y	Pos Z	Rot A	Rot B	Piezo Z	Force A	Force B	Gripper	Voltage A	Voltage B	Temperature	Amplitude force	Amplitude pos	Stiffness	Phase shift	Phase excitation	Force A raw	Displacement raw	HMax	HMax raw	Real Force	Real Stiffness	Contact Depth	Area	Hardness	Reduced Mod.
[#]	[#]	[um]	[s]	[um]	[um]	[um]	[m°]	[m°]	[um]	[uN]	[uN]	[V]	[V]	[V]	[°C]	[uN]	[um]	[N/m]	[°]	[°]	[uN]	[um]	[um]	[um]	[uN]	[N/m]	[um]	[um^2]	[MPa]	[MPa]
1190	1.000000	0.002453	7.37668e+06	-56089.1	1105.82	-29739.8	0.000000	0.000000	6.002804	0.062258	NaN	0.000000	0.001672	0.001672	28.0827	0.081658	0.001037	78.7809	-119.562	-171.072	0.078940	0.001195	-1.065514	-1.066773	0.062258	78.7809	-1.066107	-1.757439E+14	-3.542523E-16	NaN
1190	1.000000	0.010434	7.37668e+06	-56089.1	1105.82	-29739.8	0.000000	0.000000	6.010786	0.092621	NaN	0.000000	0.001663	0.001701	28.082	0.082401	0.000868	94.8899	89.1093	-159.648	0.007719	0.009107	-1.057533	-1.058860	0.092621	94.8899	-1.058265	-1.378813E+14	-6.717414E-16	NaN
1190	1.000000	0.018404	7.37668e+06	-56089.1	1105.82	-29739.8	0.000000	0.000000	6.018752	-0.008261	NaN	0.000000	0.001695	0.001691	28.0822	0.048812	0.001667	29.2761	141.749	-164.888	-0.099224	0.017074	-1.049563	-1.050893	-0.008261	29.2761	-1.049351	-1.046390E+14	7.894476E-17	NaN
1190	1.000000	0.026461	7.37668e+06	-56089.1	1105.82	-29739.8	0.000000	0.000000	6.026807	-0.050557	NaN	0.000000	0.001643	0.001703	28.082	0.143250	0.001860	76.9965	-141.154	-166.888	0.013858	0.025115	-1.041506	-1.042853	-0.050557	76.9965	-1.041014	-8.083488E+13	6.254348E-16	NaN
1190	1.000000	0.034426	7.37668e+06	-56089.1	1105.82	-29739.8	0.000000	0.000000	6.034771	-0.068567	NaN	0.000000	0.001620	0.001689	28.0819	0.088331	0.002017	43.7885	130.383	-162.801	-0.064958	0.033101	-1.033541	-1.034866	-0.068567	43.7885	-1.032367	-6.184688E+13	1.108662E-15	NaN
1190	1.000000	0.042425	7.37668e+06	-56089.1	1105.82	-29739.8	0.000000	0.000000	6.042771	-0.042480	NaN	0.000000	0.001595	0.001663	28.0822	0.044546	0.002011	22.1547	140.785	-165.037	-0.103997	0.041108	-1.025542	-1.026859	-0.042480	22.1547	-1.024104	-4.788203E+13	8.871842E-16	NaN
1190	1.000000	0.050414	7.37668e+06	-56089.1	1105.82	-29739.8	0.000000	0.000000	6.050762	0.003735	NaN	0.000000	0.001601	0.001646	28.0823	0.008934	0.001947	4.589348	79.7249	-163.511	7.401871E-5	0.049091	-1.017553	-1.018877	0.003735	4.589348	-1.018164	-3.983309E+13	-9.376177E-17	NaN
1190	1.000000	0.058396	7.37668e+06	-56089.1	1105.82	-29739.8	0.000000	0.000000	6.058744	0.010910	NaN	0.000000	0.001616	0.001628	28.0826	0.048635	0.001942	25.0489	-139.721	-164.783	0.022748	0.057110	-1.009572	-1.010858	0.010910	25.0489	-1.009898	-3.083288E+13	-3.538324E-16	NaN
1190	1.000000	0.066406	7.37668e+06	-56089.1	1105.82	-29739.8	0.000000	0.000000	6.066753	-0.031460	NaN	0.000000	0.001613	0.001637	28.0835	0.110004	0.002089	52.6496	-53.2982	-167.217	-0.018623	0.065121	-1.001562	-1.002846	-0.031460	52.6496	-1.001113	-2.348328E+13	1.339668E-15	NaN
1190	1.000000	0.074441	7.37668e+06	-56089.1	1105.82	-29739.8	0.000000	0.000000	6.074790	0.022163	NaN	0.000000	0.001637	0.001634	28.0834	0.079164	0.002107	37.5778	-52.094	-164.063	-0.045809	0.073119	-0.993527	-0.994849	0.022163	37.5778	-0.993969	-1.881757E+13	-1.177799E-15	NaN
1190	1.000000	0.082391	7.37668e+06	-56089.1	1105.82	-29739.8	0.000000	0.000000	6.082738	-0.020665	NaN	0.000000	0.001598	0.001650	28.0835	0.050021	0.001952	25.6305	54.2308	-169.111	0.002014	0.081055	-0.985577	-0.986912	-0.020665	25.6305	-0.984972	-1.423611E+13	1.451589E-15	NaN
1190	1.000000	0.090413	7.37668e+06	-56089.1	1105.82	-29739.8	0.000000	0.000000	6.090763	0.031279	NaN	0.000000	0.001617	0.001618	28.0833	0.051026	0.002024	25.2068	15.064	-165.789	0.055016	0.089086	-0.977554	-0.978881	0.031279	25.2068	-0.978485	-1.164118E+13	-2.686905E-15	NaN
1190	1.000000	0.098433	7.37668e+06	-56089.1	1105.82	-29739.8	0.000000	0.000000	6.098782	0.023000	NaN	0.000000	0.001610	0.001626	28.0835	0.029232	0.002010	14.5452	141.534	-167.104	0.078721	0.097113	-0.969535	-0.970854	0.023000	14.5452	-0.970721	-9.149034E+12	-2.513934E-15	NaN
1190	1.000000	0.106383	7.37668e+06	-56089.1	1105.82	-29739.8	0.000000	0.000000	6.106730	-0.020559	NaN	0.000000	0.001637	0.001618	28.0834	0.069198	0.001878	36.8528	-98.7101	-166.672	-0.013463	0.105045	-0.961585	-0.962923	-0.020559	36.8528	-0.961166	-6.801338E+12	3.022742E-15	NaN
1190	1.000000	0.114419	7.37668e+06	-56089.1	1105.82	-29739.8	0.000000	0.000000	6.114771	0.084204	NaN	0.000000	0.001635	0.001598	28.0834	0.062271	0.002021	30.8062	-113.076	-167.443	0.159525	0.113118	-0.953548	-0.954850	0.084204	30.8062	-0.955598	-5.721596E+12	-1.471690E-14	NaN
1190	1.000000	0.122439	7.37668e+06	-56089.1	1105.82	-29739.8	0.000000	0.000000	6.122785	-0.038130	NaN	0.000000	0.001642	0.001614	28.0844	0.032307	0.001970	16.4033	-97.1896	-163.677	-0.062387	0.121112	-0.945529	-0.946855	-0.038130	16.4033	-0.943785	-3.964641E+12	9.617501E-15	NaN
1190	1.000000	0.130444	7.37668e+06	-56089.1	1105.82	-29739.8	0.000000	0.000000	6.130789	-0.069910	NaN	0.000000	0.001580	0.001627	28.0834	0.113836	0.001944	58.5524	-104.779	-165.867	0.022028	0.129122	-0.937524	-0.938846	-0.069910	58.5524	-0.936628	-3.174270E+12	2.202399E-14	NaN
1190	1.000000	0.138452	7.37668e+06	-56089.1	1105.82	-29739.8	0.000000	0.000000	6.138800	-0.005588	NaN	0.000000	0.001618	0.001599	28.0833	0.109320	0.002042	53.5251	-163.812	-163.522	0.063367	0.137130	-0.929515	-0.930837	-0.005588	53.5251	-0.929437	-2.538637E+12	2.201109E-15	NaN
1190	1.000000	0.146405	7.37668e+06	-56089.1	1105.82	-29739.8	0.000000	0.000000	6.146756	0.057292	NaN	0.000000	0.001629	0.001572	28.0831	0.087089	0.001961	44.4086	69.8271	-166.742	0.049462	0.145139	-0.921562	-0.922829	0.057292	44.4086	-0.922530	-2.048147E+12	-2.797239E-14	NaN
1190	1.000000	0.154460	7.37668e+06	-56089.1	1105.82	-29739.8	0.000000	0.000000	6.154809	0.009221	NaN	0.000000	0.001631	0.001634	28.083	0.115670	0.001882	61.4645	155.688	-164.367	0.035129	0.153096	-0.913507	-0.914872	0.009221	61.4645	-0.913619	-1.552556E+12	-5.939233E-15	NaN
1190	1.000000	0.162446	7.37668e+06	-56089.1	1105.82	-29739.8	0.000000	0.000000	6.162794	-0.013725	NaN	0.000000	0.001608	0.001613	28.0833	0.014847	0.001939	7.658859	-101.281	-165.827	0.003723	0.161111	-0.905521	-0.906857	-0.013725	7.658859	-0.904177	-1.157465E+12	1.185753E-14	NaN
1190	1.000000	0.170468	7.37668e+06	-56089.1	1105.82	-29739.8	0.000000	0.000000	6.170815	-0.020349	NaN	0.000000	0.001601	0.001626	28.083	0.066408	0.002039	32.5732	146.014	-164.582	0.003177	0.169113	-0.897500	-0.898854	-0.020349	32.5732	-0.897031	-9.267216E+11	2.195847E-14	NaN
1190	1.000000	0.178457	7.37668e+06	-56089.1	1105.82	-29739.8	0.000000	0.000000	6.178804	-0.013287	NaN	0.000000	0.001612	0.001627	28.0832	0.059103	0.002027	29.1634	-123.768	-165.26	-0.061216	0.177120	-0.889511	-0.890848	-0.013287	29.1634	-0.889169	-7.255758E+11	1.831270E-14	NaN
1190	1.000000	0.186432	7.37668e+06	-56089.1	1105.82	-29739.8	0.000000	0.000000	6.186782	0.025083	NaN	0.000000	0.001603	0.001645	28.083	0.145101	0.001884	77.0061	-42.4969	-163.899	-0.051283	0.185163	-0.881535	-0.882805	0.025083	77.0061	-0.881779	-5.764603E+11	-4.351152E-14	NaN
1190	1.000000	0.194465	7.37668e+06	-56089.1	1105.82	-29739.8	0.000000	0.000000	6.194815	0.043525	NaN	0.000000	0.001612	0.001608	28.0831	0.099348	0.002021	49.1491	119.715	-167.12	-0.046259	0.193183	-0.873502	-0.874784	0.043525	49.1491	-0.874166	-4.547832E+11	-9.570521E-14	NaN
1190	1.000000	0.202460	7.37668e+06	-56089.1	1105.82	-29739.8	0.000000	0.000000	6.202807	-0.035558	NaN	0.000000	0.001581	0.001633	28.082	0.054481	0.001944	28.0242	-73.0046	-163.585	0.116041	0.201117	-0.865507	-0.866850	-0.035558	28.0242	-0.864555	-3.371113E+11	1.054794E-13	NaN
1190	1.000000	0.210455	7.37668e+06	-56089.1	1105.82	-29739.8	0.000000	0.000000	6.210803	-0.012589	NaN	0.000000	0.001628	0.001680	28.0822	0.122867	0.002076	59.1864	28.9978	-162.61	-0.008164	0.209137	-0.857512	-0.858831	-0.012589	59.1864	-0.857353	-2.693297E+11	4.674307E-14	NaN
1190	1.000000	0.218488	7.37668e+06	-56089.1	1105.82	-29739.8	0.000000	0.000000	6.218838	0.039537	NaN	0.000000	0.001599	0.001669	28.0827	0.110346	0.002005	55.0268	-114.985	-162.471	0.044541	0.217129	-0.849479	-0.850838	0.039537	55.0268	-0.850018	-2.142804E+11	-1.845126E-13	NaN
1190	1.000000	0.226489	7.37668e+06	-56089.1	1105.82	-29739.8	0.000000	0.000000	6.226837	-0.016759	NaN	0.000000	0.001613	0.001664	28.0821	0.064407	0.002077	31.0137	83.8829	-165.326	-0.044476	0.225153	-0.841478	-0.842814	-0.016759	31.0137	-0.841073	-1.621161E+11	1.033745E-13	NaN
1190	1.000000	0.234479	7.37668e+06	-56089.1	1105.82	-29739.8	0.000000	0.000000	6.234827	0.001097	NaN	0.000000	0.001599	0.001689	28.0822	0.056398	0.002178	25.8974	18.3793	-162.328	-0.015333	0.233168	-0.833489	-0.834800	0.001097	25.8974	-0.833520	-1.280841E+11	-8.561497E-15	NaN
1190	1.000000	0.242469	7.37668e+06	-56089.1	1105.82	-29739.8	0.000000	0.000000	6.242818	0.031717	NaN	0.000000	0.001604	0.001678	28.0819	0.018820	0.001993	9.442939	140.798	-166.398	0.024654	0.241166	-0.825499	-0.826802	0.031717	9.442939	-0.828018	-1.078740E+11	-2.940150E-13	NaN
1190	1.000000	0.250474	7.37668e+06	-56089.1	1105.82	-29739.8	0.000000	0.000000	6.250821	-0.033652	NaN	0.000000	0.001612	0.001695	28.0821	0.050011	0.002051	24.38	-47.6121	-164.289	-0.008315	0.249165	-0.817493	-0.818803	-0.033652	24.38	-0.816458	-7.519288E+10	4.475436E-13	NaN
1190	1.000000	0.258492	7.37668e+06	-56089.1	1105.82	-29739.8	0.000000	0.000000	6.258842	0.062489	NaN	0.000000	0.001561	0.001715	28.0823	0.071660	0.001980	36.1889	-89.1777	-161.337	0.049645	0.257163	-0.809476	-0.810804	0.062489	36.1889	-0.810771	-6.295507E+10	-9.925911E-13	NaN
1190	1.000000	0.266446	7.37668e+06	-56089.1	1105.82	-29739.8	0.000000	0.000000	6.266794	-0.003849	NaN	0.000000	0.001558	0.001716	28.0821	0.076483	0.002073	36.8882	-131.872	-165.681	0.011655	0.265128	-0.801522	-0.802839	-0.003849	36.8882	-0.801443	-4.703859E+10	8.181643E-14	NaN
1190	1.000000	0.274479	7.37668e+06	-56089.1	1105.82	-29739.8	0.000000	0.000000	6.274827	0.002647	NaN	0.000000	0.001588	0.001710	28.0823	0.089982	0.002111	42.6302	-149.858	-163.932	0.029083	0.273179	-0.793488	-0.794788	0.002647	42.6302	-0.793535	-3.673558E+10	-7.204471E-14	NaN
1190	1.000000	0.282498	7.37668e+06	-56089.1	1105.82	-29739.8	0.000000	0.000000	6.282848	0.045403	NaN	0.000000	0.001598	0.001723	28.0819	0.062028	0.002078	29.8553	117.321	-165.356	0.078608	0.281230	-0.785470	-0.786738	0.045403	29.8553	-0.786610	-2.958292E+10	-1.534781E-12	NaN
1190	1.000000	0.290484	7.37668e+06	-56089.1	1105.82	-29739.8	0.000000	0.000000	6.290836	0.082708	NaN	0.000000	0.001623	0.001687	28.0821	0.119536	0.002087	57.2792	179.986	-163.932	0.082485	0.289209	-0.777483	-0.778759	0.082708	57.2792	-0.778566	-2.300083E+10	-3.595869E-12	NaN
1190	1.000000	0.298519	7.37668e+06	-56089.1	1105.82	-29739.8	0.000000	0.000000	6.298866	-0.033694	NaN	0.000000	0.001622	0.001723	28.0821	0.097051	0.001883	51.5416	-91.1564	-162.3	0.059023	0.297213	-0.769449	-0.770754	-0.033694	51.5416	-0.768958	-1.702715E+10	1.978834E-12	NaN
1190	1.000000	0.306527	7.37668e+06	-56089.1	1105.82	-29739.8	0.000000	0.000000	6.306877	0.039634	NaN	0.000000	0.001601	0.001701	28.082	0.031031	0.001855	16.7296	-47.4842	-164.427	-0.000584	0.305179	-0.761440	-0.762788	0.039634	16.7296	-0.763217	-1.422526E+10	-2.786149E-12	NaN
1190	1.000000	0.314519	7.37668e+06	-56089.1	1105.82	-29739.8	0.000000	0.000000	6.314869	0.048414	NaN	0.000000	0.001626	0.001657	28.0824	0.056835	0.001994	28.5033	-77.2234	-165.939	0.030063	0.313242	-0.753449	-0.754726	0.048414	28.5033	-0.754723	-1.090176E+10	-4.440935E-12	NaN
1190	1.000000	0.322536	7.37669e+06	-56089.1	1105.82	-29739.8	0.000000	0.000000	6.322886	0.046611	NaN	0.000000	0.001631	0.001703	28.0822	0.008375	0.001966	4.259555	20.4247	-167.624	0.072941	0.321172	-0.745431	-0.746795	0.046611	4.259555	-0.753638	-1.053761E+10	-4.423265E-12	NaN
1190	1.000000	0.330521	7.37669e+06	-56089.1	1105.82	-29739.8	0.000000	0.000000	6.330870	0.020871	NaN	0.000000	0.001646	0.001637	28.0826	0.134530	0.001962	68.5654	137.778	-167.783	-0.060203	0.329234	-0.737446	-0.738733	0.020871	68.5654	-0.737675	-6.388268E+9	-3.267034E-12	NaN
1190	1.000000	0.338540	7.37669e+06	-56089.1	1105.82	-29739.8	0.000000	0.000000	6.338890	0.033763	NaN	0.000000	0.001643	0.001643	28.0835	0.036099	0.001954	18.4791	-165.637	-164.57	0.113700	0.337128	-0.729427	-0.730839	0.033763	18.4791	-0.730797	-5.148434E+9	-6.557833E-12	NaN
1190	1.000000	0.346506	7.37669e+06	-56089.1	1105.82	-29739.8	0.000000	0.000000	6.346857	0.059683	NaN	0.000000	0.001650	0.001592	28.0834	0.066272	0.002095	31.6299	79.6938	-165.473	0.034774	0.345178	-0.721461	-0.722790	0.059683	31.6299	-0.722876	-4.015090E+9	-1.486459E-11	NaN
1190	1.000000	0.354517	7.37669e+06	-56089.1	1105.82	-29739.8	0.000000	0.000000	6.354866	0.032325	NaN	0.000000	0.001729	0.001660	28.0839	0.101870	0.002032	50.1339	-7.381323	-169.241	0.067858	0.353212	-0.713450	-0.714755	0.032325	50.1339	-0.713934	-3.032003E+9	-1.066136E-11	NaN
1190	1.000000	0.362531	7.37669e+06	-56089.1	1105.82	-29739.8	0.000000	0.000000	6.362879	-0.010612	NaN	0.000000	0.001705	0.001636	28.0834	0.077161	0.001934	39.887	-103.515	-163.85	-0.012967	0.361205	-0.705436	-0.706762	-0.010612	39.887	-0.705237	-2.306921E+9	4.600007E-12	NaN
1190	1.000000	0.370509	7.37669e+06	-56089.1	1105.82	-29739.8	0.000000	0.000000	6.370860	0.056320	NaN	0.000000	0.001643	0.001639	28.0837	0.091826	0.002048	44.8419	-52.788	-165.384	-0.000645	0.369235	-0.697458	-0.698732	0.056320	44.8419	-0.698400	-1.860713E+9	-3.026785E-11	NaN
1190	1.000000	0.378531	7.37669e+06	-56089.1	1105.82	-29739.8	0.000000	0.000000	6.378876	-0.079727	NaN	0.000000	0.001668	0.001612	28.0835	0.110491	0.002017	54.7678	0.307323	-163.724	-0.113727	0.377216	-0.689436	-0.690751	-0.079727	54.7678	-0.688344	-1.356089E+9	5.879178E-11	NaN
1190	1.000000	0.386573	7.37669e+06	-56089.1	1105.82	-29739.8	0.000000	0.000000	6.386923	0.052255	NaN	0.000000	0.001679	0.001638	28.0835	0.092462	0.001921	48.1233	25.6107	-164.273	0.104835	0.385231	-0.681394	-0.682737	0.052255	48.1233	-0.682209	-1.117923E+9	-4.674319E-11	NaN
1190	1.000000	0.394544	7.37669e+06	-56089.1	1105.82	-29739.8	0.000000	0.000000	6.394893	0.005853	NaN	0.000000	0.001649	0.001670	28.0835	0.064299	0.002081	30.8916	-15.0035	-163.94	0.042679	0.393201	-0.673423	-0.674767	0.005853	30.8916	-0.673565	-8.514886E+8	-6.874338E-12	NaN
1190	1.000000	0.402526	7.37669e+06	-56089.1	1105.82	-29739.8	0.000000	0.000000	6.402873	-0.021446	NaN	0.000000	0.001650	0.001644	28.0833	0.079663	0.002058	38.7124	-85.7278	-164.83	0.070707	0.401255	-0.665442	-0.666713	-0.021446	38.7124	-0.665026	-6.505817E+8	3.296460E-11	NaN
1190	1.000000	0.410553	7.37669e+06	-56089.1	1105.82	-29739.8	0.000000	0.000000	6.410903	0.046720	NaN	0.000000	0.001599	0.001615	28.0838	0.076667	0.002088	36.7238	65.9326	-167.282	0.050669	0.409207	-0.657414	-0.658760	0.046720	36.7238	-0.658368	-5.273728E+8	-8.858945E-11	NaN
1190	1.000000	0.418565	7.37669e+06	-56089.1	1105.82	-29739.8	0.000000	0.000000	6.418911	-0.050408	NaN	0.000000	0.001639	0.001643	28.0835	0.157306	0.001977	79.5552	22.3366	-162.647	0.005835	0.417215	-0.649402	-0.650752	-0.050408	79.5552	-0.648927	-3.914952E+8	1.287565E-10	NaN
1190	1.000000	0.426556	7.37669e+06	-56089.1	1105.82	-29739.8	0.000000	0.000000	6.426904	-0.005215	NaN	0.000000	0.001643	0.001676	28.0836	0.030869	0.002080	14.8394	-158.369	-166.438	-0.035815	0.425206	-0.641411	-0.642761	-0.005215	14.8394	-0.641148	-3.062219E+8	1.703124E-11	NaN
1190	1.000000	0.434546	7.37669e+06	-56089.1	1105.82	-29739.8	0.000000	0.000000	6.434892	-0.029399	NaN	0.000000	0.001615	0.001689	28.0835	0.002340	0.002083	1.123664	-170.332	-165.923	-0.088404	0.433267	-0.633422	-0.634701	-0.029399	1.123664	-0.613799	-1.289374E+8	2.280080E-10	NaN
1190	1.000000	0.442570	7.37669e+06	-56089.1	1105.82	-29739.8	0.000000	0.000000	6.442918	0.010623	NaN	0.000000	0.001605	0.001664	28.0834	0.126649	0.001868	67.812	-68.1698	-164.237	0.040315	0.441301	-0.625398	-0.626667	0.010623	67.812	-0.625515	-1.868203E+8	-5.686054E-11	NaN
1190	1.000000	0.450563	7.37669e+06	-56089.1	1105.82	-29739.8	0.000000	0.000000	6.450911	-0.006042	NaN	0.000000	0.001597	0.001671	28.0836	0.092532	0.002019	45.8326	133.565	-164.561	-0.042012	0.449228	-0.617404	-0.618740	-0.006042	45.8326	-0.617305	-1.440758E+8	4.193391E-11	NaN
1190	1.000000	0.458584	7.37669e+06	-56089.1	1105.82	-29739.8	0.000000	0.000000	6.458931	-0.027928	NaN	0.000000	0.001606	0.001646	28.0836	0.130474	0.001934	67.4778	11.4805	-162.367	-0.088112	0.457241	-0.609383	-0.610726	-0.027928	67.4778	-0.609073	-1.110087E+8	2.515850E-10	NaN
1190	1.000000	0.466569	7.37669e+06	-56089.1	1105.82	-29739.8	0.000000	0.000000	6.466919	0.042062	NaN	0.000000	0.001594	0.001665	28.0837	0.086548	0.001964	44.076	-145.191	-165.986	0.004283	0.465338	-0.601398	-0.602629	0.042062	44.076	-0.602114	-8.903763E+7	-4.724109E-10	NaN
1190	1.000000	0.474557	7.37669e+06	-56089.1	1105.82	-29739.8	0.000000	0.000000	6.474904	-0.033340	NaN	0.000000	0.001573	0.001654	28.0823	0.066476	0.002116	31.4226	-94.1478	-167.113	-0.043712	0.473282	-0.593410	-0.594686	-0.033340	31.4226	-0.592614	-6.587268E+7	5.061347E-10	NaN
1190	1.000000	0.482582	7.37669e+06	-56089.1	1105.82	-29739.8	0.000000	0.000000	6.482930	0.004523	NaN	0.000000	0.001599	0.001629	28.0821	0.085765	0.002077	41.2883	-45.5371	-162.424	0.158194	0.481315	-0.585385	-0.586653	0.004523	41.2883	-0.585468	-5.250067E+7	-8.615457E-11	NaN
1190	1.000000	0.490571	7.37669e+06	-56089.1	1105.82	-29739.8	0.000000	0.000000	6.490921	0.035757	NaN	0.000000	0.001578	0.001622	28.0829	0.076959	0.002105	36.5653	110.965	-163.607	0.069555	0.489267	-0.577396	-0.578700	0.035757	36.5653	-0.578130	-4.158269E+7	-8.599065E-10	NaN
1190	1.000000	0.498615	7.37669e+06	-56089.1	1105.82	-29739.8	0.000000	0.000000	6.498960	-0.077084	NaN	0.000000	0.001608	0.001671	28.0822	0.088422	0.002017	43.8392	38.6717	-161.423	-0.024946	0.497290	-0.569353	-0.570678	-0.077084	43.8392	-0.568034	-3.016222E+7	2.555636E-9	NaN
1190	1.000000	0.506577	7.37669e+06	-56089.1	1105.82	-29739.8	0.000000	0.000000	6.506922	-0.067225	NaN	0.000000	0.001637	0.001655	28.0825	0.099528	0.001886	52.7804	136.881	-167.143	-0.013415	0.505307	-0.561390	-0.562660	-0.067225	52.7804	-0.560435	-2.368086E+7	2.838789E-9	NaN
1190	1.000000	0.514579	7.37669e+06	-56089.1	1105.82	-29739.8	0.000000	0.000000	6.514931	0.087900	NaN	0.000000	0.001571	0.001644	28.0823	0.111379	0.001947	57.2143	-57.0447	-162.289	0.072248	0.513270	-0.553388	-0.554697	0.087900	57.2143	-0.554541	-1.962593E+7	-4.478782E-9	NaN
1190	1.000000	0.522611	7.37669e+06	-56089.1	1105.82	-29739.8	0.000000	0.000000	6.522961	0.038224	NaN	0.000000	0.001606	0.001638	28.0823	0.022438	0.001863	12.0418	15.5224	-164.268	0.032976	0.521321	-0.545356	-0.546646	0.038224	12.0418	-0.547737	-1.579801E+7	-2.419551E-9	NaN
1190	1.000000	0.530618	7.37669e+06	-56089.1	1105.82	-29739.8	0.000000	0.000000	6.530966	-0.017176	NaN	0.000000	0.001610	0.001618	28.0824	0.081145	0.002053	39.5206	6.338339	-166.457	-0.045499	0.529306	-0.537349	-0.538661	-0.017176	39.5206	-0.537023	-1.122190E+7	1.530612E-9	NaN
1190	1.000000	0.538587	7.37669e+06	-56089.1	1105.82	-29739.8	0.000000	0.000000	6.538937	0.024749	NaN	0.000000	0.001600	0.001624	28.0823	0.129482	0.002020	64.105	44.192	-164.124	0.032662	0.537249	-0.529380	-0.530718	0.024749	64.105	-0.529670	-8.87128e+06	-2.789831E-9	NaN
1190	1.000000	0.546617	7.37669e+06	-56089.1	1105.82	-29739.8	0.000000	0.000000	6.546969	0.090886	NaN	0.000000	0.001643	0.001589	28.0825	0.026891	0.002109	12.7485	-2.205391	-163.955	0.099398	0.545296	-0.521351	-0.522671	0.090886	12.7485	-0.526697	-8.06673e+06	-1.126675E-8	NaN
1190	1.000000	0.554625	7.37669e+06	-56089.1	1105.82	-29739.8	0.000000	0.000000	6.554975	0.024815	NaN	0.000000	0.001603	0.001629	28.0823	0.042328	0.002005	21.1069	41.4532	-162.429	0.020843	0.553296	-0.513342	-0.514672	0.024815	21.1069	-0.514224	-5.41038e+06	-4.586560E-9	NaN
1190	1.000000	0.562618	7.37669e+06	-56089.1	1105.82	-29739.8	0.000000	0.000000	6.562964	-0.050036	NaN	0.000000	0.001604	0.001616	28.0824	0.115357	0.002152	53.6056	155.416	-165.278	0.001550	0.561292	-0.505349	-0.506676	-0.050036	53.6056	-0.504649	-3.97974e+06	1.257275E-8	NaN
1190	1.000000	0.570608	7.37669e+06	-56089.1	1105.82	-29739.8	0.000000	0.000000	6.570955	-0.009726	NaN	0.000000	0.001629	0.001621	28.0825	0.110635	0.002105	52.5469	116.792	-165.759	-0.028195	0.569330	-0.497360	-0.498638	-0.009726	52.5469	-0.497221	-3.135e+06	3.102244E-9	NaN
1190	1.000000	0.578638	7.37669e+06	-56089.1	1105.82	-29739.8	0.000000	0.000000	6.578985	-0.026849	NaN	0.000000	0.001647	0.001619	28.0823	0.066967	0.001979	33.8446	155.276	-163.175	0.061791	0.577317	-0.489329	-0.490650	-0.026849	33.8446	-0.488734	-2.38618e+06	1.125190E-8	NaN
1190	1.000000	0.586626	7.37669e+06	-56089.1	1105.82	-29739.8	0.000000	0.000000	6.586974	0.002556	NaN	0.000000	0.001655	0.001630	28.0825	0.076952	0.002032	37.869	135.417	-164.393	0.076357	0.585332	-0.481341	-0.482636	0.002556	37.869	-0.481392	-1.8837e+06	-1.356784E-9	NaN
1190	1.000000	0.594593	7.37669e+06	-56089.1	1105.82	-29739.8	0.000000	0.000000	6.594942	0.024082	NaN	0.000000	0.001680	0.001655	28.0824	0.075416	0.002076	36.319	-111.36	-167.484	0.025356	0.593278	-0.473375	-0.474690	0.024082	36.319	-0.473872	-1.47806e+06	-1.629314E-8	NaN
1190	1.000000	0.602658	7.37669e+06	-56089.1	1105.82	-29739.8	0.000000	0.000000	6.603008	0.045117	NaN	0.000000	0.001677	0.001621	28.0826	0.102224	0.002009	50.8828	97.495	-168.531	0.052627	0.601340	-0.465309	-0.466627	0.045117	50.8828	-0.465974	-1.14532e+06	-3.939243E-8	NaN
1190	1.000000	0.610628	7.37669e+06	-56089.1	1105.82	-29739.8	0.000000	0.000000	6.610974	-0.060529	NaN	0.000000	0.001710	0.001640	28.0835	0.111732	0.001983	56.3464	141.078	-165.052	-0.025309	0.609303	-0.457339	-0.458665	-0.060529	56.3464	-0.456533	-843889	7.172625E-8	NaN
1190	1.000000	0.618640	7.37669e+06	-56089.1	1105.82	-29739.8	0.000000	0.000000	6.618985	-0.065331	NaN	0.000000	0.001708	0.001624	28.0836	0.068349	0.002016	33.8993	-145.935	-166.676	-0.046254	0.617338	-0.449328	-0.450630	-0.065331	33.8993	-0.447882	-637548	1.024723E-7	NaN
1190	1.000000	0.626667	7.37669e+06	-56089.1	1105.82	-29739.8	0.000000	0.000000	6.627013	-0.046546	NaN	0.000000	0.001680	0.001632	28.0836	0.098470	0.002095	47.005	86.3646	-161.821	-0.038489	0.625321	-0.441300	-0.442646	-0.046546	47.005	-0.440557	-502610	9.260883E-8	NaN
1190	1.000000	0.634649	7.37669e+06	-56089.1	1105.82	-29739.8	0.000000	0.000000	6.634997	-0.008829	NaN	0.000000	0.001646	0.001624	28.0834	0.050070	0.001961	25.5292	99.0011	-165.807	-0.073262	0.633353	-0.433319	-0.434615	-0.008829	25.5292	-0.433059	-393845	2.241657E-8	NaN
1190	1.000000	0.642637	7.37669e+06	-56089.1	1105.82	-29739.8	0.000000	0.000000	6.642987	0.042616	NaN	0.000000	0.001675	0.001617	28.0838	0.048754	0.002058	23.6893	-130.917	-161.679	0.047088	0.641319	-0.425330	-0.426649	0.042616	23.6893	-0.426680	-319940	-1.332010E-7	NaN
1190	1.000000	0.650625	7.37669e+06	-56089.1	1105.82	-29739.8	0.000000	0.000000	6.650974	0.022604	NaN	0.000000	0.001671	0.001638	28.0833	0.136938	0.002003	68.3801	-102.385	-165.421	0.079526	0.649315	-0.417342	-0.418652	0.022604	68.3801	-0.417590	-237808	-9.505104E-8	NaN
1190	1.000000	0.658652	7.37669e+06	-56089.1	1105.82	-29739.8	0.000000	0.000000	6.658998	-0.058134	NaN	0.000000	0.001678	0.001654	28.0833	0.032752	0.002019	16.223	-132.528	-165.221	-0.001680	0.657355	-0.409315	-0.410613	-0.058134	16.223	-0.406628	-166120	3.499523E-7	NaN
1190	1.000000	0.666660	7.37669e+06	-56089.1	1105.82	-29739.8	0.000000	0.000000	6.667009	0.011676	NaN	0.000000	0.001655	0.001673	28.0833	0.069612	0.001873	37.1748	132.941	-161.797	0.040793	0.665301	-0.401307	-0.402667	0.011676	37.1748	-0.401543	-140603	-8.304047E-8	NaN
1190	1.000000	0.674668	7.37669e+06	-56089.1	1105.82	-29739.8	0.000000	0.000000	6.675014	-0.038735	NaN	0.000000	0.001677	0.001641	28.0834	0.032882	0.001948	16.8783	119.859	-165.519	-0.041968	0.673358	-0.393300	-0.394610	-0.038735	16.8783	-0.391578	-101330	3.822683E-7	NaN
1190	1.000000	0.682651	7.37669e+06	-56089.1	1105.82	-29739.8	0.000000	0.000000	6.682998	-0.023708	NaN	0.000000	0.001603	0.001627	28.0836	0.100376	0.002015	49.8067	-97.1925	-166.153	0.002373	0.681460	-0.385316	-0.386507	-0.023708	49.8067	-0.384959	-81471.4	2.909971E-7	NaN
1190	1.000000	0.690644	7.37669e+06	-56089.1	1105.82	-29739.8	0.000000	0.000000	6.690990	-0.049271	NaN	0.000000	0.001649	0.001606	28.0835	0.013402	0.002145	6.249399	-169.787	-165.3	-0.075026	0.689397	-0.377324	-0.378570	-0.049271	6.249399	-0.371411	-52052.2	9.465708E-7	NaN
1190	1.000000	0.698665	7.37669e+06	-56089.1	1105.82	-29739.8	0.000000	0.000000	6.699014	0.034340	NaN	0.000000	0.001633	0.001634	28.0835	0.031112	0.002010	15.4787	-62.8325	-162.778	0.068487	0.697411	-0.369303	-0.370557	0.034340	15.4787	-0.370967	-51291.4	-6.694986E-7	NaN
1190	1.000000	0.706642	7.37669e+06	-56089.1	1105.82	-29739.8	0.000000	0.000000	6.706992	0.046874	NaN	0.000000	0.001630	0.001611	28.0834	0.187206	0.002006	93.3203	170.054	-166.546	0.029494	0.705326	-0.361326	-0.362641	0.046874	93.3203	-0.361703	-37709.3	-1.243029E-6	NaN
1190	1.000000	0.714680	7.37669e+06	-56089.1	1105.82	-29739.8	0.000000	0.000000	6.715027	-0.038422	NaN	0.000000	0.001589	0.001623	28.0835	0.068198	0.001978	34.4869	-99.4005	-162.019	-0.080616	0.713405	-0.353287	-0.354563	-0.038422	34.4869	-0.352452	-27705.5	1.386809E-6	NaN
1190	1.000000	0.722675	7.37669e+06	-56089.1	1105.82	-29739.8	0.000000	0.000000	6.723021	-0.043273	NaN	0.000000	0.001583	0.001617	28.0837	0.109748	0.002100	52.2685	105.689	-165.541	-0.079802	0.721374	-0.345293	-0.346594	-0.043273	52.2685	-0.344672	-21359.1	2.025989E-6	NaN
1190	1.000000	0.730698	7.37669e+06	-56089.1	1105.82	-29739.8	0.000000	0.000000	6.731047	0.012911	NaN	0.000000	0.001595	0.001617	28.0834	0.072884	0.002206	33.045	-28.6177	-164.051	-0.006412	0.729390	-0.337270	-0.338577	0.012911	33.045	-0.337563	-16826.9	-7.672677E-7	NaN
1190	1.000000	0.738696	7.37669e+06	-56089.1	1105.82	-29739.8	0.000000	0.000000	6.739041	-0.072359	NaN	0.000000	0.001630	0.001595	28.0839	0.026023	0.002058	12.6443	48.9988	-168.177	-0.051254	0.737369	-0.329271	-0.330599	-0.072359	12.6443	-0.324979	-11011.2	6.571418E-6	NaN
1190	1.000000	0.746691	7.37669e+06	-56089.1	1105.82	-29739.8	0.000000	0.000000	6.747037	-0.066195	NaN	0.000000	0.001619	0.001606	28.0823	0.112911	0.001969	57.3436	-36.3887	-168.038	-0.109901	0.745380	-0.321276	-0.322587	-0.066195	57.3436	-0.320411	-9433.65	7.016863E-6	NaN
1190	1.000000	0.754702	7.37669e+06	-56089.1	1105.82	-29739.8	0.000000	0.000000	6.755049	-0.023940	NaN	0.000000	0.001614	0.001588	28.0823	0.045615	0.001974	23.1041	146.625	-159.58	-0.055863	0.753373	-0.313265	-0.314594	-0.023940	23.1041	-0.312488	-7208.57	3.320996E-6	NaN
1190	1.000000	0.762673	7.37669e+06	-56089.1	1105.82	-29739.8	0.000000	0.000000	6.763021	0.003003	NaN	0.000000	0.001618	0.001625	28.0824	0.072971	0.002043	35.7107	-114.908	-162.31	-0.024882	0.761413	-0.305294	-0.306554	0.003003	35.7107	-0.305358	-5652.76	-5.312194E-7	NaN
1190	1.000000	0.770702	7.37669e+06	-56089.1	1105.82	-29739.8	0.000000	0.000000	6.771049	-0.038265	NaN	0.000000	0.001647	0.001626	28.0823	0.088758	0.002022	43.8931	-14.7521	-164.267	-0.058683	0.769420	-0.297265	-0.298548	-0.038265	43.8931	-0.296611	-4189.25	9.134011E-6	NaN
1190	1.000000	0.778735	7.37669e+06	-56089.1	1105.82	-29739.8	0.000000	0.000000	6.779084	0.018317	NaN	0.000000	0.001654	0.001658	28.0829	0.031148	0.001931	16.1314	168.367	-163.764	-0.057155	0.777409	-0.289232	-0.290559	0.018317	16.1314	-0.290084	-3346.28	-5.473903E-6	NaN
1190	1.000000	0.786719	7.37669e+06	-56089.1	1105.82	-29739.8	0.000000	0.000000	6.787068	0.021234	NaN	0.000000	0.001643	0.001616	28.0824	0.051500	0.002034	25.324	-85.1171	-166.204	0.026087	0.785457	-0.281248	-0.282511	0.021234	25.324	-0.281877	-2519.22	-8.428930E-6	NaN
1190	1.000000	0.794690	7.37669e+06	-56089.1	1105.82	-29739.8	0.000000	0.000000	6.795040	0.043621	NaN	0.000000	0.001625	0.001601	28.0822	0.082821	0.002052	40.3698	24.9312	-164.417	0.026311	0.793403	-0.273277	-0.274565	0.043621	40.3698	-0.274087	-1921.23	-2.270473E-5	NaN
1190	1.000000	0.802701	7.37669e+06	-56089.1	1105.82	-29739.8	0.000000	0.000000	6.803048	-0.023807	NaN	0.000000	0.001649	0.001611	28.0822	0.010562	0.002004	5.269983	171.664	-164.974	-0.003296	0.801387	-0.265266	-0.266581	-0.023807	5.269983	-0.261878	-1252.21	1.901211E-5	NaN
1190	1.000000	0.810722	7.37669e+06	-56089.1	1105.82	-29739.8	0.000000	0.000000	6.811071	0.006586	NaN	0.000000	0.001635	0.001612	28.0821	0.068280	0.001993	34.2519	-111.458	-166.012	0.052859	0.809377	-0.257245	-0.258591	0.006586	34.2519	-0.257390	-1068.71	-6.162761E-6	NaN
1190	1.000000	0.818708	7.37669e+06	-56089.1	1105.82	-29739.8	0.000000	0.000000	6.819055	-0.024731	NaN	0.000000	0.001647	0.001608	28.0824	0.076136	0.002120	35.9217	176.341	-166.365	0.042179	0.817396	-0.249259	-0.250571	-0.024731	35.9217	-0.248743	-786.162	3.145774E-5	NaN
1190	1.000000	0.826723	7.37669e+06	-56089.1	1105.82	-29739.8	0.000000	0.000000	6.827071	0.013320	NaN	0.000000	0.001649	0.001635	28.0822	0.031945	0.002029	15.7413	92.346	-166.074	-0.021159	0.825402	-0.241245	-0.242566	0.013320	15.7413	-0.241879	-615.007	-2.165778E-5	NaN
1190	1.000000	0.834718	7.37669e+06	-56089.1	1105.82	-29739.8	0.000000	0.000000	6.835067	0.027598	NaN	0.000000	0.001629	0.001601	28.0824	0.059099	0.001937	30.5114	73.8102	-164.35	0.034628	0.833419	-0.233250	-0.234549	0.027598	30.5114	-0.233928	-461.752	-5.976798E-5	NaN
1190	1.000000	0.842745	7.37669e+06	-56089.1	1105.82	-29739.8	0.000000	0.000000	6.843094	0.012075	NaN	0.000000	0.001657	0.001636	28.0821	0.168779	0.002067	81.6678	-110.285	-167.616	0.038257	0.841430	-0.225222	-0.226537	0.012075	81.6678	-0.225333	-337.77	-3.574886E-5	NaN
1190	1.000000	0.850713	7.37669e+06	-56089.1	1105.82	-29739.8	0.000000	0.000000	6.851064	0.069023	NaN	0.000000	0.001637	0.001613	28.0821	0.084409	0.002047	41.2362	29.9242	-165.236	0.054719	0.849445	-0.217254	-0.218523	0.069023	41.2362	-0.218510	-262.927	-0.000263	NaN
1190	1.000000	0.858719	7.37669e+06	-56089.1	1105.82	-29739.8	0.000000	0.000000	6.859068	0.025871	NaN	0.000000	0.001616	0.001586	28.0822	0.061485	0.001998	30.7752	-137.422	-163.918	0.008025	0.857418	-0.209248	-0.210549	0.025871	30.7752	-0.209879	-190.922	-0.000136	NaN
1190	1.000000	0.866768	7.37669e+06	-56089.1	1105.82	-29739.8	0.000000	0.000000	6.867112	-0.086460	NaN	0.000000	0.001598	0.001583	28.0821	0.043961	0.001923	22.8585	-99.9647	-167.364	-0.056161	0.865426	-0.201200	-0.202541	-0.086460	22.8585	-0.198363	-123.81	0.000698	NaN
1190	1.000000	0.874770	7.37669e+06	-56089.1	1105.82	-29739.8	0.000000	0.000000	6.875117	-0.031096	NaN	0.000000	0.001619	0.001621	28.0825	0.038440	0.001965	19.562	114.397	-165.304	-0.044149	0.873469	-0.193197	-0.194498	-0.031096	19.562	-0.192005	-97.1553	0.000320	NaN
1190	1.000000	0.882748	7.37669e+06	-56089.1	1105.82	-29739.8	0.000000	0.000000	6.883097	0.032441	NaN	0.000000	0.001645	0.001657	28.0836	0.162525	0.001951	83.3113	14.763	-163.6	0.070356	0.881500	-0.185220	-0.186468	0.032441	83.3113	-0.185512	-75.6401	-0.000429	NaN
1190	1.000000	0.890756	7.37669e+06	-56089.1	1105.82	-29739.8	0.000000	0.000000	6.891106	0.042501	NaN	0.000000	0.001606	0.001629	28.0835	0.091624	0.002016	45.458	-148.785	-168.131	0.039834	0.889420	-0.177212	-0.178548	0.042501	45.458	-0.177913	-56.2195	-0.000756	NaN
1190	1.000000	0.898762	7.37669e+06	-56089.1	1105.82	-29739.8	0.000000	0.000000	6.899112	0.055938	NaN	0.000000	0.001618	0.001592	28.0836	0.077489	0.002121	36.5319	148.319	-165.852	-0.002431	0.897441	-0.169206	-0.170526	0.055938	36.5319	-0.170354	-41.6641	-0.001343	NaN
1190	1.000000	0.906744	7.37669e+06	-56089.1	1105.82	-29739.8	0.000000	0.000000	6.907092	-0.013788	NaN	0.000000	0.001587	0.001657	28.0836	0.029933	0.002025	14.783	-117.641	-165.098	-0.011862	0.905430	-0.161223	-0.162538	-0.013788	14.783	-0.160523	-28.0079	0.000492	NaN
1190	1.000000	0.914777	7.37669e+06	-56089.1	1105.82	-29739.8	0.000000	0.000000	6.915125	0.001762	NaN	0.000000	0.001639	0.001673	28.0837	0.068713	0.001991	34.5038	-106.959	-167.02	-0.041171	0.913502	-0.153191	-0.154465	0.001762	34.5038	-0.153229	-20.7318	-8.496899E-5	NaN
1190	1.000000	0.922777	7.37669e+06	-56089.1	1105.82	-29739.8	0.000000	0.000000	6.923125	-0.003106	NaN	0.000000	0.001651	0.001663	28.0839	0.082669	0.002056	40.2088	-12.9001	-169.092	0.015496	0.921455	-0.145190	-0.146513	-0.003106	40.2088	-0.145132	-14.7441	0.000211	NaN
1190	1.000000	0.930793	7.37669e+06	-56089.1	1105.82	-29739.8	0.000000	0.000000	6.931142	0.021038	NaN	0.000000	0.001620	0.001658	28.0838	0.057365	0.002032	28.2296	16.3247	-166.413	-0.005524	0.929426	-0.137175	-0.138542	0.021038	28.2296	-0.137734	-10.7211	-0.001962	NaN
1190	1.000000	0.938764	7.37669e+06	-56089.1	1105.82	-29739.8	0.000000	0.000000	6.939113	0.031802	NaN	0.000000	0.001630	0.001624	28.0836	0.032477	0.001965	16.5246	-150.347	-167.613	0.011005	0.937501	-0.129204	-0.130467	0.031802	16.5246	-0.130647	-7.844496	-0.004054	NaN
1190	1.000000	0.946783	7.37669e+06	-56089.1	1105.82	-29739.8	0.000000	0.000000	6.947131	0.002953	NaN	0.000000	0.001638	0.001622	28.0838	0.081214	0.001890	42.9647	-24.8618	-162.707	-0.001751	0.945436	-0.121185	-0.122531	0.002953	42.9647	-0.121236	-5.116484	-0.000577	NaN
1190	1.000000	0.954756	7.37669e+06	-56089.1	1105.82	-29739.8	0.000000	0.000000	6.955105	0.006293	NaN	0.000000	0.001597	0.001622	28.0837	0.137608	0.001945	70.7616	-175.771	-168.007	0.085161	0.953524	-0.113211	-0.114443	0.006293	70.7616	-0.113278	-3.519427	-0.001788	NaN
1190	1.000000	0.962754	7.37669e+06	-56089.1	1105.82	-29739.8	0.000000	0.000000	6.963102	-0.002928	NaN	0.000000	0.001608	0.001640	28.0836	0.146502	0.001891	77.4922	-139.906	-165.276	-0.019111	0.961459	-0.105213	-0.106509	-0.002928	77.4922	-0.105185	-2.372247	0.001234	NaN
1190	1.000000	0.970761	7.37669e+06	-56089.1	1105.82	-29739.8	0.000000	0.000000	6.971112	0.063585	NaN	0.000000	0.001566	0.001610	28.084	0.080753	0.001999	40.3883	8.746677	-169.264	-0.088992	0.969493	-0.097206	-0.098474	0.063585	40.3883	-0.098387	-1.682143	-0.037800	NaN
1190	1.000000	0.978793	7.37669e+06	-56089.1	1105.82	-29739.8	0.000000	0.000000	6.979143	0.051260	NaN	0.000000	0.001549	0.001622	28.0834	0.082014	0.001943	42.1998	116.28	-164.954	0.065912	0.977505	-0.089175	-0.090462	0.051260	42.1998	-0.090086	-1.086005	-0.047200	NaN
1190	1.000000	0.986814	7.37669e+06	-56089.1	1105.82	-29739.8	0.000000	0.000000	6.987162	0.000871	NaN	0.000000	0.001595	0.001649	28.0836	0.117796	0.002005	58.7603	78.9038	-167.126	0.021548	0.985497	-0.081153	-0.082470	0.000871	58.7603	-0.081165	-0.661748	-0.001316	NaN
1190	1.000000	0.994789	7.37669e+06	-56089.1	1105.82	-29739.8	0.000000	0.000000	6.995138	0.023363	NaN	0.000000	0.001570	0.001633	28.0836	0.094991	0.002057	46.189	-97.7614	-162.803	0.048601	0.993459	-0.073179	-0.074509	0.023363	46.189	-0.073558	-0.423675	-0.055144	NaN
1190	1.000000	1.002764	7.37669e+06	-56089.1	1105.82	-29739.8	0.000000	0.000000	7.003111	-0.037390	NaN	0.000000	0.001559	0.001662	28.0837	0.048775	0.001946	25.0689	146.847	-167.358	-0.042651	1.001477	-0.065203	-0.066490	-0.037390	25.0689	-0.064085	-0.235023	0.159092	NaN
1190	1.000000	1.010835	7.37669e+06	-56089.1	1105.82	-29739.8	0.000000	0.000000	7.011186	0.047761	NaN	0.000000	0.001522	0.001650	28.0839	0.083313	0.002021	41.2282	-137.091	-165.719	0.056770	1.009434	-0.057132	-0.058534	0.047761	41.2282	-0.058001	-0.157684	-0.302893	NaN
1190	1.000000	1.018793	7.37669e+06	-56089.1	1105.82	-29739.8	0.000000	0.000000	7.019141	-0.009527	NaN	0.000000	0.001527	0.001623	28.0823	0.043522	0.002153	20.217	89.6248	-164.859	-0.039645	1.017500	-0.049175	-0.050468	-0.009527	20.217	-0.048821	-0.084045	0.113357	NaN
1190	1.000000	1.026795	7.37669e+06	-56089.1	1105.82	-29739.8	0.000000	0.000000	7.027141	-0.055083	NaN	0.000000	0.001545	0.001612	28.0825	0.057669	0.001982	29.0973	-36.9524	-163.938	-0.072121	1.025489	-0.041172	-0.042479	-0.055083	29.0973	-0.039752	-0.044445	1.239350	NaN
1190	1.000000	1.034821	7.37669e+06	-56089.1	1105.82	-29739.8	0.000000	0.000000	7.035168	-0.032297	NaN	0.000000	0.001559	0.001621	28.0824	0.075701	0.001957	38.6798	100.729	-163.338	0.011762	1.033498	-0.033146	-0.034469	-0.032297	38.6798	-0.032520	-0.027120	1.190872	NaN
1190	1.000000	1.042789	7.37669e+06	-56089.1	1105.82	-29739.8	0.000000	0.000000	7.043134	-0.084783	NaN	0.000000	0.001542	0.001600	28.0824	0.086708	0.002034	42.6325	153.581	-166.214	-0.052631	1.041473	-0.025178	-0.026494	-0.084783	42.6325	-0.023687	-0.015597	5.435699	NaN
1190	1.000000	1.050821	7.37669e+06	-56089.1	1105.82	-29739.8	0.000000	0.000000	7.051170	0.032766	NaN	0.000000	0.001513	0.001631	28.0826	0.109315	0.001938	56.3956	-151.772	-167.314	0.042869	1.049473	-0.017147	-0.018494	0.032766	56.3956	-0.017582	-0.010887	-3.009650	NaN
1190	1.000000	1.058804	7.37669e+06	-56089.1	1105.82	-29739.8	0.000000	0.000000	7.059152	-0.002112	NaN	0.000000	0.001563	0.001592	28.0823	0.051167	0.001893	27.0268	173.883	-165.243	0.033990	1.057493	-0.009164	-0.010474	-0.002112	27.0268	-0.009105	-0.005874	0.359518	NaN
1190	1.000000	1.066812	7.37669e+06	-56089.1	1105.82	-29739.8	0.000000	0.000000	7.067200	0.968076	NaN	0.000000	0.001574	0.001596	28.083	1.407192	0.001863	755.432	7.061108	-163.685	0.165935	1.065527	-0.001155	-0.002440	0.968076	755.432	-0.002116	-0.001520	-636.95	NaN
1190	2.000000	1.074233	7.37669e+06	-56089.1	1105.82	-29739.8	0.000000	0.000000	7.074931	8.501008	NaN	0.000000	0.001532	0.001616	28.0825	8.241741	0.001696	4858.55	9.501097	-171.11	7.766312	1.073460	0.006266	0.005492	8.501008	4858.55	0.004954	0.004091	2077.88	69399.4
1190	2.000000	1.076413	7.37669e+06	-56089.1	1105.82	-29739.8	0.000000	0.000000	7.077223	11.2204	NaN	0.000000	0.001562	0.001589	28.0823	10.7221	0.001678	6388.51	5.895262	-171.576	11.0993	1.076048	0.008446	0.008081	11.2204	6388.51	0.007129	0.006161	1821.07	74358.7
1190	2.000000	1.078375	7.37669e+06	-56089.1	1105.82	-29739.8	0.000000	0.000000	7.079354	15.3381	NaN	0.000000	0.001558	0.001625	28.0824	12.8927	0.001692	7621.36	7.318515	-175.075	14.8713	1.078043	0.010407	0.010075	15.3381	7621.36	0.008898	0.007982	1921.57	77937.7
1190	2.000000	1.080394	7.37669e+06	-56089.1	1105.82	-29739.8	0.000000	0.000000	7.081519	18.8804	NaN	0.000000	0.001527	0.001624	28.0823	15.9874	0.001863	8581.6	11.9385	-178.209	19.7647	1.080124	0.012426	0.012156	18.8804	8581.6	0.010776	0.010057	1877.32	78181.9
1190	2.000000	1.082366	7.37669e+06	-56089.1	1105.82	-29739.8	0.000000	0.000000	7.083648	22.7086	NaN	0.000000	0.001553	0.001615	28.0832	17.5991	0.001845	9538.61	3.616558	-172.569	21.4613	1.082061	0.014398	0.014093	22.7086	9538.61	0.012613	0.012232	1856.46	78796.3
1190	2.000000	1.084252	7.37669e+06	-56089.1	1105.82	-29739.8	0.000000	0.000000	7.085759	28.1655	NaN	0.000000	0.001548	0.001637	28.0823	19.4391	0.001691	11495.7	4.095952	-175.001	25.341	1.083995	0.016284	0.016028	28.1655	11495.7	0.014447	0.014555	1935.13	87057.1
1190	2.000000	1.086353	7.37669e+06	-56089.1	1105.82	-29739.8	0.000000	0.000000	7.088021	32.0798	NaN	0.000000	0.001564	0.001621	28.0824	21.8383	0.001788	12210.9	3.438172	-174.982	32.2092	1.085989	0.018386	0.018022	32.0798	12210.9	0.016416	0.017220	1862.98	85017.4
1190	2.000000	1.088345	7.37669e+06	-56089.1	1105.82	-29739.8	0.000000	0.000000	7.090272	38.3822	NaN	0.000000	0.001569	0.001590	28.083	23.839	0.001723	13834.7	8.924541	178.14	38.2648	1.088002	0.020378	0.020034	38.3822	13834.7	0.018297	0.019936	1925.24	89519.8
1190	2.000000	1.090315	7.37669e+06	-56089.1	1105.82	-29739.8	0.000000	0.000000	7.092432	42.9938	NaN	0.000000	0.001557	0.001586	28.0824	25.8649	0.001625	15921	2.989272	-176.691	42.7367	1.089967	0.022347	0.021999	42.9938	15921	0.020322	0.023051	1865.19	95807.9
1190	2.000000	1.092359	7.37669e+06	-56089.1	1105.82	-29739.8	0.000000	0.000000	7.094775	50.2828	NaN	0.000000	0.001567	0.001612	28.0831	28.7669	0.001874	15348.9	8.906966	179.724	50.5143	1.091975	0.024391	0.024008	50.2828	15348.9	0.021934	0.025673	1958.56	87520.2
1190	2.000000	1.094278	7.37669e+06	-56089.1	1105.82	-29739.8	0.000000	0.000000	7.096870	54.5475	NaN	0.000000	0.001550	0.001575	28.0836	31.0958	0.001839	16910.7	9.432433	175.583	52.5069	1.094001	0.026310	0.026033	54.5475	16910.7	0.023891	0.029029	1879.08	90681.5
1190	2.000000	1.096315	7.37669e+06	-56089.1	1105.82	-29739.8	0.000000	0.000000	7.099269	63.3408	NaN	0.000000	0.001558	0.001586	28.0836	31.4547	0.001819	17294	0.937626	-174.455	62.5992	1.096020	0.028347	0.028052	63.3408	17294	0.025600	0.032117	1972.19	88166.1
1190	2.000000	1.098313	7.37669e+06	-56089.1	1105.82	-29739.8	0.000000	0.000000	7.101415	66.9473	NaN	0.000000	0.001568	0.001585	28.0838	34.0322	0.001774	19187.7	8.146181	176.653	67.6492	1.097965	0.030345	0.029998	66.9473	19187.7	0.027728	0.036167	1851.07	92181.1
1190	2.000000	1.100307	7.37669e+06	-56089.1	1105.82	-29739.8	0.000000	0.000000	7.103680	73.515	NaN	0.000000	0.001559	0.001580	28.0834	36.1638	0.001765	20486	9.082400	175.006	72.466	1.100000	0.032340	0.032032	73.515	20486	0.029649	0.040019	1837.02	93561.8
1190	2.000000	1.102321	7.37669e+06	-56089.1	1105.82	-29739.8	0.000000	0.000000	7.105986	80.6399	NaN	0.000000	0.001565	0.001602	28.0834	38.5036	0.001806	21317.6	7.243235	176.857	79.1464	1.102013	0.034353	0.034045	80.6399	21317.6	0.031516	0.043945	1835.03	92909.3
1190	2.000000	1.104253	7.37669e+06	-56089.1	1105.82	-29739.8	0.000000	0.000000	7.108168	86.6956	NaN	0.000000	0.001551	0.001610	28.0834	40.0724	0.001865	21484.7	7.684890	176.372	83.5422	1.103996	0.036286	0.036028	86.6956	21484.7	0.033259	0.047770	1814.86	89809.9
1190	2.000000	1.106286	7.37669e+06	-56089.1	1105.82	-29739.8	0.000000	0.000000	7.110526	94.5972	NaN	0.000000	0.001547	0.001613	28.0835	41.8522	0.001785	23446.9	5.535113	178.681	94.098	1.106007	0.038318	0.038039	94.5972	23446.9	0.035293	0.052429	1804.28	93555.9
1190	2.000000	1.108239	7.37669e+06	-56089.1	1105.82	-29739.8	0.000000	0.000000	7.112873	104.182	NaN	0.000000	0.001566	0.001613	28.0843	42.5707	0.001707	24944.7	4.045619	178.053	102.902	1.107982	0.040272	0.040015	104.182	24944.7	0.037140	0.056845	1832.74	95588.3
1190	2.000000	1.110274	7.37669e+06	-56089.1	1105.82	-29739.8	0.000000	0.000000	7.115109	109.075	NaN	0.000000	0.001567	0.001623	28.0838	45.4255	0.001866	24350.2	4.611428	178.462	108.3	1.110009	0.042306	0.042042	109.075	24350.2	0.038947	0.061335	1778.36	89830.1
1190	2.000000	1.112276	7.37669e+06	-56089.1	1105.82	-29739.8	0.000000	0.000000	7.117626	121.585	NaN	0.000000	0.001571	0.001622	28.0838	47.0282	0.001770	26562.1	5.352677	177.083	119.435	1.111926	0.044309	0.043959	121.585	26562.1	0.040876	0.066311	1833.57	94241.8
1190	2.000000	1.114176	7.37669e+06	-56089.1	1105.82	-29739.8	0.000000	0.000000	7.119946	131.789	NaN	0.000000	0.001587	0.001578	28.0834	48.1396	0.001736	27728.4	4.722902	177.318	126.513	1.113893	0.046209	0.045925	131.789	27728.4	0.042644	0.071040	1855.15	95049
1190	2.000000	1.116314	7.37669e+06	-56089.1	1105.82	-29739.8	0.000000	0.000000	7.122365	138.611	NaN	0.000000	0.001582	0.001591	28.0836	51.048	0.001813	28155.4	9.452555	173.96	140.445	1.115934	0.048347	0.047966	138.611	28155.4	0.044655	0.076610	1809.3	92937.7
1190	2.000000	1.118232	7.37669e+06	-56089.1	1105.82	-29739.8	0.000000	0.000000	7.124621	146.843	NaN	0.000000	0.001590	0.001591	28.0842	51.4421	0.001705	30176.3	2.357265	179.731	145.264	1.117926	0.050265	0.049959	146.843	30176.3	0.046615	0.082239	1785.57	96139.3
1190	2.000000	1.120231	7.37669e+06	-56089.1	1105.82	-29739.8	0.000000	0.000000	7.127091	158.292	NaN	0.000000	0.001545	0.001594	28.0834	54.5894	0.001778	30704.2	1.605902	179.394	154.559	1.119932	0.052264	0.051965	158.292	30704.2	0.048397	0.087523	1808.58	94822.3
1190	2.000000	1.122267	7.37669e+06	-56089.1	1105.82	-29739.8	0.000000	0.000000	7.129509	167.571	NaN	0.000000	0.001548	0.001652	28.0835	57.8433	0.001743	33185.3	7.825991	171.76	164.98	1.121985	0.054299	0.054018	167.571	33185.3	0.050512	0.094003	1782.61	98889.1
1190	2.000000	1.124236	7.37669e+06	-56089.1	1105.82	-29739.8	0.000000	0.000000	7.131928	178.51	NaN	0.000000	0.001549	0.001608	28.0834	58.8469	0.001729	34034	5.476971	174.548	176.738	1.123915	0.056269	0.055948	178.51	34034	0.052335	0.099766	1789.28	98445.1
1190	2.000000	1.126249	7.37669e+06	-56089.1	1105.82	-29739.8	0.000000	0.000000	7.134468	191.312	NaN	0.000000	0.001559	0.001581	28.0835	62.368	0.001764	35346.8	5.720646	173.675	190.03	1.125892	0.058282	0.057924	191.312	35346.8	0.054223	0.105910	1806.36	99232.8
1190	2.000000	1.128394	7.37669e+06	-56089.1	1105.82	-29739.8	0.000000	0.000000	7.136739	194.38	NaN	0.000000	0.001590	0.001571	28.0826	62.9253	0.001824	34499.4	3.155370	177.411	201.026	1.127984	0.060427	0.060016	194.38	34499.4	0.056201	0.112540	1727.21	93957.5
1190	2.000000	1.130270	7.37669e+06	-56089.1	1105.82	-29739.8	0.000000	0.000000	7.139293	210.867	NaN	0.000000	0.001580	0.001587	28.0824	66.0582	0.001739	37995.8	10.6246	168.965	211.344	1.129851	0.062303	0.061884	210.867	37995.8	0.058140	0.119224	1768.67	100537
1190	2.000000	1.132310	7.37669e+06	-56089.1	1105.82	-29739.8	0.000000	0.000000	7.141680	219.289	NaN	0.000000	0.001601	0.001572	28.0824	68.4962	0.001872	36581.4	6.669300	173.722	219.479	1.131955	0.064343	0.063987	219.289	36581.4	0.059847	0.125260	1750.67	94433.7
1190	2.000000	1.134277	7.37669e+06	-56089.1	1105.82	-29739.8	0.000000	0.000000	7.144257	234.128	NaN	0.000000	0.001569	0.001603	28.0822	69.2805	0.001710	40507.7	5.259007	174.36	233.402	1.133862	0.066310	0.065895	234.128	40507.7	0.061975	0.132985	1760.56	101487
1190	2.000000	1.136315	7.37669e+06	-56089.1	1105.82	-29739.8	0.000000	0.000000	7.146771	245.69	NaN	0.000000	0.001559	0.001597	28.0824	71.1692	0.001832	38851.7	4.800876	175.211	249.233	1.135935	0.068348	0.067968	245.69	38851.7	0.063605	0.139052	1766.89	95190.7
1190	2.000000	1.138321	7.37669e+06	-56089.1	1105.82	-29739.8	0.000000	0.000000	7.149227	256.626	NaN	0.000000	0.001578	0.001600	28.0824	70.9748	0.001748	40595.2	2.487191	177.408	259.676	1.137918	0.070354	0.069950	256.626	40595.2	0.065613	0.146700	1749.32	96835
1190	2.000000	1.140183	7.37669e+06	-56089.1	1105.82	-29739.8	0.000000	0.000000	7.151658	270.463	NaN	0.000000	0.001587	0.001604	28.0824	73.4727	0.001721	42689.2	3.408378	175.376	265.46	1.139812	0.072216	0.071845	270.463	42689.2	0.067464	0.153925	1757.11	99411.5
1190	2.000000	1.142318	7.37669e+06	-56089.1	1105.82	-29739.8	0.000000	0.000000	7.153963	274.603	NaN	0.000000	0.001542	0.001618	28.0824	76.041	0.001711	44450.4	3.854472	174.285	278.056	1.142044	0.074350	0.074076	274.603	44450.4	0.069717	0.162939	1685.32	100609
1190	2.000000	1.144192	7.37669e+06	-56089.1	1105.82	-29739.8	0.000000	0.000000	7.156875	299.824	NaN	0.000000	0.001532	0.001575	28.0823	78.0792	0.001765	44250	5.845731	172.773	295.876	1.143803	0.076224	0.075836	299.824	44250	0.071143	0.168767	1776.56	98410.8
1190	2.000000	1.146210	7.37669e+06	-56089.1	1105.82	-29739.8	0.000000	0.000000	7.159046	303.549	NaN	0.000000	0.001545	0.001580	28.0822	81.701	0.001715	47625.3	5.570328	171.784	300.811	1.145987	0.078243	0.078020	303.549	47625.3	0.073462	0.178457	1700.96	103002
1190	2.000000	1.148148	7.37669e+06	-56089.1	1105.82	-29739.8	0.000000	0.000000	7.161721	321.463	NaN	0.000000	0.001598	0.001561	28.0821	82.8241	0.001867	44371	5.999130	173.048	317.118	1.147866	0.080180	0.079898	321.463	44371	0.074747	0.183932	1747.73	94524.4
1190	2.000000	1.150250	7.37669e+06	-56089.1	1105.82	-29739.8	0.000000	0.000000	7.164500	337.907	NaN	0.000000	0.001576	0.001574	28.0825	84.6175	0.001747	48448.4	2.025491	176.336	338.683	1.149910	0.082283	0.081943	337.907	48448.4	0.077052	0.193950	1742.24	100510
1190	2.000000	1.152288	7.37669e+06	-56089.1	1105.82	-29739.8	0.000000	0.000000	7.166962	348.228	NaN	0.000000	0.001528	0.001564	28.0824	86.4039	0.001666	51858.8	0.453951	177.021	347.544	1.151948	0.084321	0.083980	348.228	51858.8	0.079285	0.203894	1707.89	104929
1190	2.000000	1.154173	7.37669e+06	-56089.1	1105.82	-29739.8	0.000000	0.000000	7.169476	363.503	NaN	0.000000	0.001565	0.001594	28.0824	88.8161	0.001870	47503.7	3.173634	174.411	358.833	1.153923	0.086206	0.085955	363.503	47503.7	0.080467	0.209252	1737.15	94878.1
1190	2.000000	1.156190	7.37669e+06	-56089.1	1105.82	-29739.8	0.000000	0.000000	7.172082	377.815	NaN	0.000000	0.001567	0.001593	28.0824	92.4185	0.001832	50447.4	9.810660	167.561	376.611	1.155840	0.088223	0.087872	377.815	50447.4	0.082606	0.219113	1724.29	98464.1
1190	2.000000	1.158202	7.37669e+06	-56089.1	1105.82	-29739.8	0.000000	0.000000	7.174658	391.531	NaN	0.000000	0.001563	0.001557	28.0824	91.5739	0.001760	52039.8	2.979769	173.803	390.07	1.158017	0.090235	0.090050	391.531	52039.8	0.084592	0.228460	1713.78	99472.5
1190	2.000000	1.160185	7.37669e+06	-56089.1	1105.82	-29739.8	0.000000	0.000000	7.177495	412.302	NaN	0.000000	0.001545	0.001564	28.0822	95.0951	0.001747	54422.4	6.456238	170.302	409.925	1.159923	0.092218	0.091955	412.302	54422.4	0.086536	0.237782	1733.95	101967
1190	2.000000	1.162255	7.37669e+06	-56089.1	1105.82	-29739.8	0.000000	0.000000	7.180252	428.996	NaN	0.000000	0.001543	0.001574	28.0837	97.3022	0.001764	55156.4	4.888471	171.925	427.576	1.161954	0.094287	0.093986	428.996	55156.4	0.088454	0.247154	1735.75	101364
1190	2.000000	1.164227	7.37669e+06	-56089.1	1105.82	-29739.8	0.000000	0.000000	7.182749	441.766	NaN	0.000000	0.001533	0.001585	28.0838	99.5577	0.001788	55678	9.072960	167.796	442.065	1.163896	0.096259	0.095929	441.766	55678	0.090308	0.256374	1723.13	100466
1190	2.000000	1.166171	7.37669e+06	-56089.1	1105.82	-29739.8	0.000000	0.000000	7.185410	459.184	NaN	0.000000	0.001548	0.001586	28.0836	101.213	0.001814	55810.4	4.594738	172.122	456.612	1.165982	0.098204	0.098014	459.184	55810.4	0.092033	0.265091	1732.18	99035.4
1190	2.000000	1.168126	7.37669e+06	-56089.1	1105.82	-29739.8	0.000000	0.000000	7.188011	474.896	NaN	0.000000	0.001528	0.001558	28.0837	101.296	0.001819	55693.6	1.796764	175.087	468.707	1.167882	0.100159	0.099915	474.896	55693.6	0.093763	0.273973	1733.37	97213.1
1190	2.000000	1.170145	7.37669e+06	-56089.1	1105.82	-29739.8	0.000000	0.000000	7.190484	485.939	NaN	0.000000	0.001533	0.001618	28.0835	104.144	0.001798	57931.3	4.103839	172.004	481.328	1.169955	0.102177	0.101988	485.939	57931.3	0.095886	0.285056	1704.71	99133.6
1190	2.000000	1.172164	7.37669e+06	-56089.1	1105.82	-29739.8	0.000000	0.000000	7.193364	506.847	NaN	0.000000	0.001481	0.001589	28.0836	105.153	0.001773	59312.7	2.509849	173.966	501.028	1.171853	0.104196	0.103885	506.847	59312.7	0.097787	0.295157	1717.21	99745.7
1190	2.000000	1.172694	7.37669e+06	-56089.1	1105.82	-29739.8	0.000000	0.000000	7.194079	511.357	NaN	0.000000	0.001487	0.001602	28.0835	106.37	0.001785	59588.6	3.936283	-7.240663	508.898	1.172312	0.104727	0.104345	511.357	59588.6	0.098290	0.297857	1716.79	99754.5