File: remote_trans/data/nanoindenter/0828-1/data/Data_2025-08-06,11h17m57s/2025-07-22_16-23-58_1_184.txt
2025-07-22, 16:23:58, 1
Index	Phase	Displacement	Time	Pos X	Pos Y	Pos Z	Rot A	Rot B	Piezo Z	Force A	Force B	Gripper	Voltage A	Voltage B	Temperature	Amplitude force	Amplitude pos	Stiffness	Phase shift	Phase excitation	Force A raw	Displacement raw	HMax	HMax raw	Real Force	Real Stiffness	Contact Depth	Area	Hardness	Reduced Mod.
[#]	[#]	[um]	[s]	[um]	[um]	[um]	[m°]	[m°]	[um]	[uN]	[uN]	[V]	[V]	[V]	[°C]	[uN]	[um]	[N/m]	[°]	[°]	[uN]	[um]	[um]	[um]	[uN]	[N/m]	[um]	[um^2]	[MPa]	[MPa]
184	1.000000	0.002205	7.36684e+06	-47839.1	955.819	-29764.9	0.000000	0.000000	6.002789	0.045453	NaN	0.000000	0.001687	0.001699	28.0795	0.039346	0.001006	39.1138	114.877	-165.367	0.026495	0.000915	-1.096192	-1.097482	0.045453	39.1138	-1.097064	-4.577736E+14	-9.929138E-17	NaN
184	1.000000	0.012286	7.36684e+06	-47839.1	955.818	-29764.9	0.000000	0.000000	6.012869	0.014102	NaN	0.000000	0.001680	0.001696	28.0798	0.018472	0.001246	14.8199	130.037	20.3929	0.093275	0.010831	-1.086111	-1.087566	0.014102	14.8199	-1.086824	-3.335571E+14	-4.227725E-17	NaN
184	1.000000	0.022166	7.36684e+06	-47839.1	955.82	-29764.9	0.000000	0.000000	6.022749	0.010158	NaN	0.000000	0.001684	0.001676	28.0794	0.054840	0.001803	30.424	-5.683860	-162.456	0.079049	0.020839	-1.076231	-1.077558	0.010158	30.424	-1.076481	-2.422450E+14	-4.193295E-17	NaN
184	1.000000	0.032182	7.36684e+06	-47839.1	955.819	-29764.9	0.000000	0.000000	6.032765	0.020160	NaN	0.000000	0.001693	0.001716	28.0799	0.097010	0.001957	49.5728	-159.994	16.9659	0.018215	0.030835	-1.066215	-1.067562	0.020160	49.5728	-1.066520	-1.780029E+14	-1.132594E-16	NaN
184	1.000000	0.042161	7.36684e+06	-47839.1	955.819	-29764.9	0.000000	0.000000	6.042743	-0.006658	NaN	0.000000	0.001667	0.001720	28.0799	0.015781	0.001937	8.145471	68.8121	-164.971	0.005019	0.040931	-1.056236	-1.057466	-0.006658	8.145471	-1.055623	-1.270561E+14	5.240370E-17	NaN
184	1.000000	0.052185	7.36684e+06	-47839.1	955.818	-29764.9	0.000000	0.000000	6.052768	-0.001578	NaN	0.000000	0.001668	0.001681	28.0796	0.059655	0.002050	29.1064	171.058	14.4278	-0.027184	0.050840	-1.046211	-1.047557	-0.001578	29.1064	-1.046171	-9.482797E+13	1.663680E-17	NaN
184	1.000000	0.062208	7.36684e+06	-47839.1	955.818	-29764.9	0.000000	0.000000	6.062790	-0.015858	NaN	0.000000	0.001648	0.001699	28.0795	0.072661	0.001958	37.1064	31.3171	-166.383	0.044286	0.060857	-1.036188	-1.037540	-0.015858	37.1064	-1.035868	-6.892889E+13	2.300676E-16	NaN
184	1.000000	0.072168	7.36684e+06	-47839.1	955.819	-29764.9	0.000000	0.000000	6.072752	0.058494	NaN	0.000000	0.001702	0.001673	28.0795	0.074234	0.002108	35.2202	82.02	14.0387	0.031797	0.070790	-1.026229	-1.027607	0.058494	35.2202	-1.027475	-5.315108E+13	-1.100519E-15	NaN
184	1.000000	0.082214	7.36684e+06	-47839.1	955.819	-29764.9	0.000000	0.000000	6.082795	-0.029859	NaN	0.000000	0.001677	0.001704	28.0798	0.013854	0.001983	6.987721	18.6897	-163.877	0.009307	0.080854	-1.016182	-1.017543	-0.029859	6.987721	-1.012978	-3.392002E+13	8.802786E-16	NaN
184	1.000000	0.092204	7.36684e+06	-47839.1	955.819	-29764.9	0.000000	0.000000	6.092785	-0.024916	NaN	0.000000	0.001674	0.001710	28.0796	0.079624	0.002032	39.1832	95.475	11.7305	0.048690	0.090817	-1.006193	-1.007580	-0.024916	39.1832	-1.005716	-2.708418E+13	9.199331E-16	NaN
184	1.000000	0.102185	7.36684e+06	-47839.1	955.818	-29764.9	0.000000	0.000000	6.102768	0.017083	NaN	0.000000	0.001707	0.001688	28.0797	0.058377	0.002101	27.7839	164.695	-163.462	-0.001688	0.100881	-0.996211	-0.997516	0.017083	27.7839	-0.996672	-2.046285E+13	-8.348087E-16	NaN
184	1.000000	0.112194	7.36684e+06	-47839.1	955.818	-29764.9	0.000000	0.000000	6.112774	-0.057510	NaN	0.000000	0.001709	0.001673	28.0797	0.150217	0.001926	77.9895	107.998	13.3151	-0.114072	0.110859	-0.986203	-0.987537	-0.057510	77.9895	-0.985650	-1.453842E+13	3.955720E-15	NaN
184	1.000000	0.122187	7.36684e+06	-47839.1	955.818	-29764.9	0.000000	0.000000	6.122769	0.001783	NaN	0.000000	0.001709	0.001693	28.0786	0.062350	0.002042	30.5378	-18.4397	-165.59	0.000627	0.120889	-0.976210	-0.977508	0.001783	30.5378	-0.976254	-1.086258E+13	-1.641725E-16	NaN
184	1.000000	0.132206	7.36684e+06	-47839.1	955.818	-29764.9	0.000000	0.000000	6.132787	-0.019513	NaN	0.000000	0.001662	0.001678	28.0785	0.056888	0.002134	26.6581	-178.404	11.9043	-0.017707	0.130853	-0.966191	-0.967543	-0.019513	26.6581	-0.965642	-7.814930E+12	2.496857E-15	NaN
184	1.000000	0.142246	7.36684e+06	-47839.1	955.818	-29764.9	0.000000	0.000000	6.142828	-0.002351	NaN	0.000000	0.001697	0.001707	28.0786	0.070154	0.001929	36.3694	-42.0636	-166.785	0.007815	0.140951	-0.956151	-0.957446	-0.002351	36.3694	-0.956102	-5.811882E+12	4.045636E-16	NaN
184	1.000000	0.152223	7.36684e+06	-47839.1	955.818	-29764.9	0.000000	0.000000	6.152803	-0.057535	NaN	0.000000	0.001708	0.001695	28.0787	0.060055	0.001961	30.6261	-101.118	16.281	-0.021553	0.150875	-0.946174	-0.947522	-0.057535	30.6261	-0.944765	-4.087074E+12	1.407729E-14	NaN
184	1.000000	0.162206	7.36684e+06	-47839.1	955.82	-29764.9	0.000000	0.000000	6.162789	0.028574	NaN	0.000000	0.001697	0.001709	28.0788	0.086079	0.002129	40.424	156.99	-166.117	0.001605	0.160919	-0.936191	-0.937478	0.028574	40.424	-0.936721	-3.183443E+12	-8.975846E-15	NaN
184	1.000000	0.172213	7.36684e+06	-47839.1	955.819	-29764.9	0.000000	0.000000	6.172799	0.084837	NaN	0.000000	0.001672	0.001693	28.0786	0.079687	0.001853	43.011	95.8892	13.345	0.098151	0.170878	-0.926184	-0.927519	0.084837	43.011	-0.927663	-2.402452E+12	-3.531258E-14	NaN
184	1.000000	0.182212	7.36684e+06	-47839.1	955.818	-29764.9	0.000000	0.000000	6.182793	-0.029748	NaN	0.000000	0.001685	0.001656	28.0788	0.079602	0.001912	41.6252	-171.623	-165.213	-0.034681	0.180931	-0.916184	-0.917466	-0.029748	41.6252	-0.915648	-1.653665E+12	1.798895E-14	NaN
184	1.000000	0.192229	7.36684e+06	-47839.1	955.818	-29764.9	0.000000	0.000000	6.192811	-0.002934	NaN	0.000000	0.001684	0.001690	28.0787	0.088563	0.001977	44.7977	-97.0833	16.8791	0.025284	0.190922	-0.906168	-0.907475	-0.002934	44.7977	-0.906119	-1.229511E+12	2.386518E-15	NaN
184	1.000000	0.202256	7.36684e+06	-47839.1	955.819	-29764.9	0.000000	0.000000	6.202841	0.070836	NaN	0.000000	0.001597	0.001690	28.0789	0.072957	0.002095	34.8323	104.768	-166.125	0.110405	0.200912	-0.896141	-0.897485	0.070836	34.8323	-0.897666	-9.452040E+11	-7.494211E-14	NaN
184	1.000000	0.212214	7.36684e+06	-47839.1	955.818	-29764.9	0.000000	0.000000	6.212796	-0.010581	NaN	0.000000	0.001691	0.001666	28.0785	0.072559	0.001969	36.842	94.9008	12.913	0.016596	0.210816	-0.886183	-0.887581	-0.010581	36.842	-0.885967	-6.567438E+11	1.611159E-14	NaN
184	1.000000	0.222267	7.36684e+06	-47839.1	955.819	-29764.9	0.000000	0.000000	6.222848	-0.042181	NaN	0.000000	0.001695	0.001698	28.0784	0.064339	0.002084	30.8708	108.968	-166.056	-0.008690	0.220908	-0.876130	-0.877488	-0.042181	30.8708	-0.875105	-4.682748E+11	9.007655E-14	NaN
184	1.000000	0.232258	7.36684e+06	-47839.1	955.819	-29764.9	0.000000	0.000000	6.232846	0.127940	NaN	0.000000	0.001667	0.001671	28.0809	0.035515	0.002075	17.1116	39.8242	14.1668	0.077624	0.230897	-0.866139	-0.867500	0.127940	17.1116	-0.871746	-4.217620E+11	-3.033466E-13	NaN
184	1.000000	0.242254	7.36684e+06	-47839.1	955.82	-29764.9	0.000000	0.000000	6.242835	-0.031426	NaN	0.000000	0.001691	0.001682	28.0805	0.065583	0.002054	31.9256	-24.8434	-164.554	-0.002401	0.240971	-0.856143	-0.857426	-0.031426	31.9256	-0.855405	-2.534626E+11	1.239849E-13	NaN
184	1.000000	0.252257	7.36684e+06	-47839.1	955.819	-29764.9	0.000000	0.000000	6.252838	-0.033661	NaN	0.000000	0.001689	0.001719	28.079	0.087848	0.002041	43.0497	159.152	16.3016	-0.039932	0.250925	-0.846140	-0.847472	-0.033661	43.0497	-0.845554	-1.864319E+11	1.805512E-13	NaN
184	1.000000	0.262259	7.36684e+06	-47839.1	955.818	-29764.9	0.000000	0.000000	6.262841	-0.016529	NaN	0.000000	0.001692	0.001691	28.08	0.056892	0.002005	28.3758	52.8462	-163.235	0.066247	0.260946	-0.836138	-0.837451	-0.016529	28.3758	-0.835701	-1.371014E+11	1.205637E-13	NaN
184	1.000000	0.272282	7.36684e+06	-47839.1	955.819	-29764.9	0.000000	0.000000	6.272865	0.028145	NaN	0.000000	0.001716	0.001677	28.0796	0.087363	0.002005	43.5809	117.445	14.9326	-0.061251	0.270936	-0.826115	-0.827460	0.028145	43.5809	-0.826599	-1.032021E+11	-2.727158E-13	NaN
184	1.000000	0.282263	7.36684e+06	-47839.1	955.819	-29764.9	0.000000	0.000000	6.282841	-0.086452	NaN	0.000000	0.001670	0.001645	28.0802	0.033980	0.001911	17.7768	-84.7268	-167.223	-0.053890	0.280913	-0.816134	-0.817483	-0.086452	17.7768	-0.812487	-6.642129E+10	1.301563E-12	NaN
184	1.000000	0.292252	7.36684e+06	-47839.1	955.819	-29764.9	0.000000	0.000000	6.292834	0.002539	NaN	0.000000	0.001668	0.001660	28.0795	0.020424	0.001962	10.409	-62.0178	16.0293	-0.039350	0.290950	-0.806145	-0.807446	0.002539	10.409	-0.806328	-5.479556E+10	-4.633878E-14	NaN
184	1.000000	0.302292	7.36684e+06	-47839.1	955.819	-29764.9	0.000000	0.000000	6.302873	-0.031076	NaN	0.000000	0.001679	0.001649	28.0798	0.053250	0.002014	26.4354	110.078	-165.449	-0.000218	0.300944	-0.796105	-0.797453	-0.031076	26.4354	-0.795224	-3.872729E+10	8.024409E-13	NaN
184	1.000000	0.312268	7.36684e+06	-47839.1	955.819	-29764.9	0.000000	0.000000	6.312849	-0.044541	NaN	0.000000	0.001633	0.001639	28.0797	0.051289	0.002038	25.1691	69.8737	13.5552	-0.039861	0.310881	-0.786128	-0.787515	-0.044541	25.1691	-0.784801	-2.795534E+10	1.593302E-12	NaN
184	1.000000	0.322262	7.36684e+06	-47839.1	955.819	-29764.9	0.000000	0.000000	6.322844	0.001756	NaN	0.000000	0.001675	0.001654	28.08	0.084640	0.001923	44.0141	10.8245	-168.194	0.050345	0.320963	-0.776135	-0.777433	0.001756	44.0141	-0.776165	-2.133585E+10	-8.230661E-14	NaN
184	1.000000	0.332303	7.36684e+06	-47839.1	955.819	-29764.9	0.000000	0.000000	6.332888	0.040872	NaN	0.000000	0.001631	0.001649	28.0798	0.045988	0.002017	22.7954	49.1992	16.9471	-0.038160	0.330903	-0.766093	-0.767494	0.040872	22.7954	-0.767438	-1.623562E+10	-2.517430E-12	NaN
184	1.000000	0.342308	7.36684e+06	-47839.1	955.818	-29764.9	0.000000	0.000000	6.342891	0.017055	NaN	0.000000	0.001673	0.001636	28.0798	0.074989	0.002083	35.9944	-39.8069	-164.199	-0.025877	0.340971	-0.756089	-0.757426	0.017055	35.9944	-0.756444	-1.150597E+10	-1.482231E-12	NaN
184	1.000000	0.352293	7.36684e+06	-47839.1	955.818	-29764.9	0.000000	0.000000	6.352876	0.019022	NaN	0.000000	0.001663	0.001676	28.08	0.040405	0.001896	21.3151	-57.7175	12.6714	-0.026392	0.350936	-0.746104	-0.747461	0.019022	21.3151	-0.746774	-8.497599E+9	-2.238504E-12	NaN
184	1.000000	0.362318	7.36684e+06	-47839.1	955.819	-29764.9	0.000000	0.000000	6.362901	0.023090	NaN	0.000000	0.001635	0.001639	28.0798	0.051860	0.002108	24.6014	-99.2919	-164.26	0.012748	0.360999	-0.736079	-0.737398	0.023090	24.6014	-0.736783	-6.211969E+9	-3.717016E-12	NaN
184	1.000000	0.372320	7.36684e+06	-47839.1	955.819	-29764.9	0.000000	0.000000	6.372902	-0.007517	NaN	0.000000	0.001692	0.001630	28.0797	0.091220	0.002046	44.591	82.656	11.1294	0.002359	0.370909	-0.726077	-0.727488	-0.007517	44.591	-0.725950	-4.421861E+9	1.699891E-12	NaN
184	1.000000	0.382306	7.36684e+06	-47839.1	955.818	-29764.9	0.000000	0.000000	6.382890	0.035461	NaN	0.000000	0.001684	0.001684	28.0796	0.017997	0.002096	8.588368	-114.007	-168.57	0.064852	0.380994	-0.716091	-0.717403	0.035461	8.588368	-0.719187	-3.575926E+9	-9.916587E-12	NaN
184	1.000000	0.392330	7.36684e+06	-47839.1	955.82	-29764.9	0.000000	0.000000	6.392914	0.026219	NaN	0.000000	0.001706	0.001668	28.0786	0.087099	0.001925	45.2475	-28.3763	14.6155	-0.091204	0.390967	-0.706066	-0.707430	0.026219	45.2475	-0.706501	-2.400442E+9	-1.092240E-11	NaN
184	1.000000	0.402321	7.36684e+06	-47839.1	955.819	-29764.9	0.000000	0.000000	6.402902	-0.032484	NaN	0.000000	0.001699	0.001630	28.0784	0.163187	0.002087	78.1874	-173.824	-167.364	0.057371	0.400997	-0.696076	-0.697400	-0.032484	78.1874	-0.695764	-1.712679E+9	1.896656E-11	NaN
184	1.000000	0.412326	7.36684e+06	-47839.1	955.818	-29764.9	0.000000	0.000000	6.412912	0.078373	NaN	0.000000	0.001714	0.001638	28.0786	0.012172	0.002020	6.026079	-12.6677	17.6304	0.070853	0.410939	-0.686071	-0.687458	0.078373	6.026079	-0.695825	-1.715951E+9	-4.567322E-11	NaN
184	1.000000	0.422337	7.36684e+06	-47839.1	955.818	-29764.9	0.000000	0.000000	6.422918	-0.041681	NaN	0.000000	0.001710	0.001629	28.0784	0.091953	0.001998	46.0261	-92.6531	-165.709	-0.135251	0.421046	-0.676060	-0.677351	-0.041681	46.0261	-0.675381	-9.016061E+8	4.623020E-11	NaN
184	1.000000	0.432350	7.36684e+06	-47839.1	955.819	-29764.9	0.000000	0.000000	6.432933	0.020704	NaN	0.000000	0.001702	0.001634	28.0787	0.018518	0.001969	9.404982	-40.5375	16.2478	0.066001	0.431005	-0.666046	-0.667392	0.020704	9.404982	-0.667698	-7.077405E+8	-2.925361E-11	NaN
184	1.000000	0.442298	7.36684e+06	-47839.1	955.818	-29764.9	0.000000	0.000000	6.442879	-0.014953	NaN	0.000000	0.001725	0.001649	28.0784	0.036549	0.002049	17.8338	39.124	-160.65	0.046951	0.440998	-0.656099	-0.657399	-0.014953	17.8338	-0.655470	-4.812933E+8	3.106857E-11	NaN
184	1.000000	0.452307	7.36684e+06	-47839.1	955.818	-29764.9	0.000000	0.000000	6.452889	-0.030424	NaN	0.000000	0.001721	0.001601	28.0783	0.122375	0.002016	60.6925	96.2726	15.2879	0.060553	0.451012	-0.646089	-0.647385	-0.030424	60.6925	-0.645713	-3.537211E+8	8.601050E-11	NaN
184	1.000000	0.462345	7.36684e+06	-47839.1	955.818	-29764.9	0.000000	0.000000	6.462927	-0.003907	NaN	0.000000	0.001707	0.001654	28.0783	0.091521	0.001823	50.2022	-176.85	-168.253	-0.009905	0.461008	-0.636051	-0.637389	-0.003907	50.2022	-0.635993	-2.601976E+8	1.501500E-11	NaN
184	1.000000	0.472339	7.36684e+06	-47839.1	955.819	-29764.9	0.000000	0.000000	6.472923	0.055585	NaN	0.000000	0.001724	0.001655	28.0786	0.089210	0.001952	45.6912	128.131	13.7937	0.095551	0.471011	-0.626058	-0.627386	0.055585	45.6912	-0.626971	-1.956208E+8	-2.841482E-10	NaN
184	1.000000	0.482367	7.36684e+06	-47839.1	955.819	-29764.9	0.000000	0.000000	6.482949	-0.005733	NaN	0.000000	0.001735	0.001649	28.0784	0.125403	0.002045	61.3094	100.109	-164.108	-0.094244	0.481088	-0.616030	-0.617309	-0.005733	61.3094	-0.615960	-1.380670E+8	4.152214E-11	NaN
184	1.000000	0.492360	7.36684e+06	-47839.1	955.819	-29764.9	0.000000	0.000000	6.492941	-0.031302	NaN	0.000000	0.001752	0.001638	28.0784	0.116129	0.001934	60.0499	-71.1599	14.6938	-0.051358	0.491048	-0.606036	-0.607348	-0.031302	60.0499	-0.605645	-9.958381E+7	3.143251E-10	NaN
184	1.000000	0.502369	7.36684e+06	-47839.1	955.819	-29764.9	0.000000	0.000000	6.502953	0.052039	NaN	0.000000	0.001730	0.001657	28.0782	0.081377	0.001999	40.706	-56.9669	-166.716	0.024440	0.501093	-0.596028	-0.597304	0.052039	40.706	-0.596987	-7.567498E+7	-6.876682E-10	NaN
184	1.000000	0.512349	7.36684e+06	-47839.1	955.819	-29764.9	0.000000	0.000000	6.512929	-0.046053	NaN	0.000000	0.001713	0.001635	28.0782	0.058189	0.001951	29.8264	-151.362	14.1368	-0.040313	0.511014	-0.586048	-0.587383	-0.046053	29.8264	-0.584890	-5.154588E+7	8.934369E-10	NaN
184	1.000000	0.522355	7.36684e+06	-47839.1	955.819	-29764.9	0.000000	0.000000	6.522938	0.022114	NaN	0.000000	0.001720	0.001632	28.0781	0.012146	0.002144	5.664070	-92.8626	-165.277	-0.027312	0.521072	-0.576042	-0.577325	0.022114	5.664070	-0.578970	-4.270805E+7	-5.177918E-10	NaN
184	1.000000	0.532370	7.36684e+06	-47839.1	955.818	-29764.9	0.000000	0.000000	6.532952	-0.014819	NaN	0.000000	0.001663	0.001632	28.0796	0.076812	0.001995	38.5051	-5.865825	16.2064	-0.013760	0.531041	-0.566027	-0.567356	-0.014819	38.5051	-0.565738	-2.803689E+7	5.285422E-10	NaN
184	1.000000	0.542352	7.36684e+06	-47839.1	955.818	-29764.9	0.000000	0.000000	6.542934	-0.007717	NaN	0.000000	0.001681	0.001651	28.0797	0.019728	0.001940	10.1714	-32.358	-165.425	-0.041921	0.541051	-0.556044	-0.557345	-0.007717	10.1714	-0.555475	-2.021945E+7	3.816772E-10	NaN
184	1.000000	0.552400	7.36684e+06	-47839.1	955.818	-29764.9	0.000000	0.000000	6.552983	0.029659	NaN	0.000000	0.001689	0.001669	28.0795	0.029695	0.002079	14.2835	-140.954	15.2718	0.008046	0.550999	-0.545997	-0.547398	0.029659	14.2835	-0.547555	-1.570649E+7	-1.888346E-9	NaN
184	1.000000	0.562360	7.36684e+06	-47839.1	955.819	-29764.9	0.000000	0.000000	6.562943	0.021176	NaN	0.000000	0.001676	0.001641	28.0796	0.078304	0.001982	39.5048	34.4873	-164.976	0.043316	0.561070	-0.536037	-0.537327	0.021176	39.5048	-0.536439	-1.101442E+7	-1.922555E-9	NaN
184	1.000000	0.572385	7.36684e+06	-47839.1	955.819	-29764.9	0.000000	0.000000	6.572967	0.001189	NaN	0.000000	0.001705	0.001594	28.0797	0.035064	0.002100	16.6941	139.56	13.4361	0.027524	0.571005	-0.526012	-0.527392	0.001189	16.6941	-0.526065	-7.90522e+06	-1.503558E-10	NaN
184	1.000000	0.582404	7.36684e+06	-47839.1	955.818	-29764.9	0.000000	0.000000	6.582983	-0.073295	NaN	0.000000	0.001717	0.001637	28.0796	0.060973	0.002011	30.3221	-15.9289	-163.715	-0.048557	0.581076	-0.515993	-0.517320	-0.073295	30.3221	-0.514180	-5.4028e+06	1.356604E-8	NaN
184	1.000000	0.592395	7.36684e+06	-47839.1	955.819	-29764.9	0.000000	0.000000	6.592978	0.015939	NaN	0.000000	0.001707	0.001641	28.0797	0.154876	0.001882	82.3115	-123.518	14.6266	-0.019366	0.590977	-0.506002	-0.507420	0.015939	82.3115	-0.506147	-4.17569e+06	-3.817171E-9	NaN
184	1.000000	0.602391	7.36684e+06	-47839.1	955.818	-29764.9	0.000000	0.000000	6.602969	-0.094960	NaN	0.000000	0.001681	0.001621	28.0797	0.003855	0.002042	1.888207	48.1578	-163.194	-0.027089	0.601115	-0.496006	-0.497282	-0.094960	1.888207	-0.458287	-893192	1.063157E-7	NaN
184	1.000000	0.612378	7.36684e+06	-47839.1	955.819	-29764.9	0.000000	0.000000	6.612958	-0.047861	NaN	0.000000	0.001679	0.001638	28.0797	0.107305	0.001993	53.8413	-64.2321	13.3941	-0.021801	0.611034	-0.486019	-0.487363	-0.047861	53.8413	-0.485352	-2.14e+06	2.236493E-8	NaN
184	1.000000	0.622394	7.36684e+06	-47839.1	955.819	-29764.9	0.000000	0.000000	6.622976	-0.006232	NaN	0.000000	0.001703	0.001597	28.0795	0.076247	0.001928	39.5443	114.953	-165.343	0.006872	0.621111	-0.476003	-0.477286	-0.006232	39.5443	-0.475884	-1.57722e+06	3.951074E-9	NaN
184	1.000000	0.632417	7.36684e+06	-47839.1	955.819	-29764.9	0.000000	0.000000	6.632998	-0.034848	NaN	0.000000	0.001700	0.001644	28.0795	0.108871	0.002046	53.2201	52.3711	17.4022	-0.023688	0.631054	-0.465979	-0.467343	-0.034848	53.2201	-0.465488	-1.12746e+06	3.090821E-8	NaN
184	1.000000	0.642439	7.36684e+06	-47839.1	955.819	-29764.9	0.000000	0.000000	6.643023	0.045756	NaN	0.000000	0.001698	0.001638	28.0794	0.073926	0.001928	38.3491	-17.6082	-163.601	0.068202	0.641127	-0.455958	-0.457269	0.045756	38.3491	-0.456853	-852657	-5.366305E-8	NaN
184	1.000000	0.652433	7.36684e+06	-47839.1	955.818	-29764.9	0.000000	0.000000	6.653013	-0.057141	NaN	0.000000	0.001703	0.001629	28.0796	0.048319	0.001801	26.8266	-162.564	13.48	0.026588	0.651026	-0.445964	-0.447370	-0.057141	26.8266	-0.444367	-568804	1.004579E-7	NaN
184	1.000000	0.662434	7.36684e+06	-47839.1	955.819	-29764.9	0.000000	0.000000	6.663017	0.019274	NaN	0.000000	0.001675	0.001629	28.0785	0.024649	0.001890	13.0392	-46.161	-168.117	0.051494	0.661121	-0.435963	-0.437275	0.019274	13.0392	-0.437071	-448759	-4.295044E-8	NaN
184	1.000000	0.672405	7.36684e+06	-47839.1	955.818	-29764.9	0.000000	0.000000	6.672989	0.033807	NaN	0.000000	0.001717	0.001626	28.0781	0.092931	0.002040	45.5534	60.6664	13.6205	-0.030236	0.671103	-0.425992	-0.427294	0.033807	45.5534	-0.426548	-318574	-1.061192E-7	NaN
184	1.000000	0.682427	7.36684e+06	-47839.1	955.819	-29764.9	0.000000	0.000000	6.683010	0.025811	NaN	0.000000	0.001673	0.001620	28.0782	0.126534	0.002045	61.8734	-54.8304	-163.441	0.118952	0.681126	-0.415970	-0.417270	0.025811	61.8734	-0.416283	-227859	-1.132779E-7	NaN
184	1.000000	0.692437	7.36684e+06	-47839.1	955.819	-29764.9	0.000000	0.000000	6.693019	-0.016493	NaN	0.000000	0.001703	0.001643	28.0784	0.041420	0.002016	20.5449	-114.439	14.9823	-0.018836	0.691099	-0.405960	-0.407298	-0.016493	20.5449	-0.405358	-159346	1.035041E-7	NaN
184	1.000000	0.702464	7.36684e+06	-47839.1	955.819	-29764.9	0.000000	0.000000	6.703046	-0.012228	NaN	0.000000	0.001733	0.001656	28.0781	0.060571	0.002023	29.9389	-39.904	-164.713	-0.025468	0.701169	-0.395933	-0.397228	-0.012228	29.9389	-0.395627	-115766	1.056238E-7	NaN
184	1.000000	0.712435	7.36684e+06	-47839.1	955.818	-29764.9	0.000000	0.000000	6.713019	0.045126	NaN	0.000000	0.001679	0.001678	28.0781	0.031825	0.002065	15.4086	29.515	13.2278	0.015832	0.711063	-0.385962	-0.387333	0.045126	15.4086	-0.388158	-90533.6	-4.984430E-7	NaN
184	1.000000	0.722442	7.36684e+06	-47839.1	955.818	-29764.9	0.000000	0.000000	6.723020	-0.108250	NaN	0.000000	0.001704	0.001638	28.0784	0.109504	0.001932	56.6823	75.4269	-166.571	-0.086051	0.721163	-0.375955	-0.377234	-0.108250	56.6823	-0.374523	-57704.1	1.875944E-6	NaN
184	1.000000	0.732456	7.36684e+06	-47839.1	955.819	-29764.9	0.000000	0.000000	6.733035	-0.082115	NaN	0.000000	0.001691	0.001660	28.0782	0.058934	0.002075	28.4014	-175.327	17.5886	-0.038094	0.731168	-0.365941	-0.367229	-0.082115	28.4014	-0.363773	-40396.2	2.032745E-6	NaN
184	1.000000	0.742485	7.36684e+06	-47839.1	955.818	-29764.9	0.000000	0.000000	6.743067	0.001697	NaN	0.000000	0.001704	0.001632	28.0783	0.114849	0.001957	58.6995	-82.6837	-162.301	0.032105	0.741105	-0.355912	-0.357291	0.001697	58.6995	-0.355934	-31118.2	-5.453181E-8	NaN
184	1.000000	0.752464	7.36684e+06	-47839.1	955.819	-29764.9	0.000000	0.000000	6.753045	-0.017784	NaN	0.000000	0.001777	0.001605	28.0783	0.061245	0.002064	29.673	-164.027	15.3673	0.048006	0.751130	-0.345933	-0.347266	-0.017784	29.673	-0.345483	-21947.6	8.103138E-7	NaN
184	1.000000	0.762448	7.36684e+06	-47839.1	955.818	-29764.9	0.000000	0.000000	6.763032	0.028191	NaN	0.000000	0.001813	0.001615	28.0784	0.070395	0.001991	35.3626	-21.636	-163.997	0.048537	0.761176	-0.335949	-0.337221	0.028191	35.3626	-0.336547	-16262.1	-1.733560E-6	NaN
184	1.000000	0.772500	7.36684e+06	-47839.1	955.818	-29764.9	0.000000	0.000000	6.773081	-0.016775	NaN	0.000000	0.001756	0.001635	28.0782	0.048632	0.001951	24.9233	-138.765	15.7993	0.032144	0.771070	-0.325897	-0.327326	-0.016775	24.9233	-0.325392	-11165.9	1.502351E-6	NaN
184	1.000000	0.782457	7.36685e+06	-47839.1	955.82	-29764.9	0.000000	0.000000	6.783039	-0.014276	NaN	0.000000	0.001738	0.001643	28.0781	0.078972	0.002004	39.3987	117.843	-165.173	0.082967	0.781170	-0.315940	-0.317227	-0.014276	39.3987	-0.315668	-8031.66	1.777421E-6	NaN
184	1.000000	0.792492	7.36685e+06	-47839.1	955.819	-29764.9	0.000000	0.000000	6.793074	-0.000802	NaN	0.000000	0.001734	0.001624	28.0782	0.056030	0.001917	29.2259	-117.614	16.4128	0.028601	0.791109	-0.305905	-0.307288	-0.000802	29.2259	-0.305884	-5755.36	1.394010E-7	NaN
184	1.000000	0.802513	7.36685e+06	-47839.1	955.819	-29764.9	0.000000	0.000000	6.803092	-0.063408	NaN	0.000000	0.001751	0.001607	28.0794	0.143384	0.002006	71.4776	159.319	-166.461	-0.079415	0.801176	-0.295884	-0.297221	-0.063408	71.4776	-0.295219	-3993.52	1.587779E-5	NaN
184	1.000000	0.812471	7.36685e+06	-47839.1	955.819	-29764.9	0.000000	0.000000	6.813052	-0.036142	NaN	0.000000	0.001746	0.001601	28.0796	0.020670	0.002030	10.1808	123.865	17.8475	-0.021907	0.811110	-0.285926	-0.287287	-0.036142	10.1808	-0.283263	-2643.26	1.367341E-5	NaN
184	1.000000	0.822503	7.36685e+06	-47839.1	955.818	-29764.9	0.000000	0.000000	6.823084	-0.021010	NaN	0.000000	0.001710	0.001624	28.0793	0.042996	0.001984	21.6679	-154.105	-164.276	-0.043070	0.821175	-0.275894	-0.277222	-0.021010	21.6679	-0.275167	-1994.91	1.053181E-5	NaN
184	1.000000	0.832540	7.36685e+06	-47839.1	955.819	-29764.9	0.000000	0.000000	6.833119	-0.072790	NaN	0.000000	0.001664	0.001645	28.0797	0.082210	0.001869	43.9896	-155.838	13.9629	-0.051027	0.831117	-0.265857	-0.267280	-0.072790	43.9896	-0.264616	-1378.88	5.278893E-5	NaN
184	1.000000	0.842510	7.36685e+06	-47839.1	955.818	-29764.9	0.000000	0.000000	6.843094	0.040209	NaN	0.000000	0.001681	0.001644	28.0794	0.096444	0.002000	48.2129	-40.6323	-166.385	0.014646	0.841188	-0.255887	-0.257208	0.040209	48.2129	-0.256512	-1036.06	-3.881003E-5	NaN
184	1.000000	0.852512	7.36685e+06	-47839.1	955.818	-29764.9	0.000000	0.000000	6.853092	-0.058210	NaN	0.000000	0.001704	0.001643	28.0794	0.020113	0.001858	10.827	111.029	12.4809	-0.031800	0.851118	-0.245885	-0.247279	-0.058210	10.827	-0.241853	-614.422	9.473915E-5	NaN
184	1.000000	0.862494	7.36685e+06	-47839.1	955.82	-29764.9	0.000000	0.000000	6.863076	0.000958	NaN	0.000000	0.001690	0.001652	28.0794	0.047625	0.001929	24.6937	-83.0769	-165.887	0.076471	0.861225	-0.235903	-0.237171	0.000958	24.6937	-0.235932	-496.456	-1.930108E-6	NaN
184	1.000000	0.872535	7.36685e+06	-47839.1	955.819	-29764.9	0.000000	0.000000	6.873117	-0.029552	NaN	0.000000	0.001698	0.001620	28.0797	0.152000	0.002064	73.6319	113.566	9.851106	0.084800	0.871161	-0.225861	-0.227236	-0.029552	73.6319	-0.225560	-340.589	8.676734E-5	NaN
184	1.000000	0.882531	7.36685e+06	-47839.1	955.818	-29764.9	0.000000	0.000000	6.883112	-0.044788	NaN	0.000000	0.001691	0.001621	28.0793	0.051449	0.002015	25.5353	-70.1265	-163.503	-0.072062	0.881195	-0.215866	-0.217201	-0.044788	25.5353	-0.214550	-227.131	0.000197	NaN
184	1.000000	0.892515	7.36685e+06	-47839.1	955.819	-29764.9	0.000000	0.000000	6.893097	0.002049	NaN	0.000000	0.001673	0.001614	28.0794	0.016999	0.001943	8.747290	-117.521	16.3651	0.040685	0.891157	-0.205882	-0.207239	0.002049	8.747290	-0.206057	-165.498	-1.237826E-5	NaN
184	1.000000	0.902561	7.36685e+06	-47839.1	955.818	-29764.9	0.000000	0.000000	6.903141	-0.044541	NaN	0.000000	0.001707	0.001629	28.0794	0.092425	0.001912	48.3418	-18.4943	-162.703	-0.058028	0.901235	-0.195836	-0.197162	-0.044541	48.3418	-0.195145	-109.548	0.000407	NaN
184	1.000000	0.912522	7.36685e+06	-47839.1	955.818	-29764.9	0.000000	0.000000	6.913103	-0.021224	NaN	0.000000	0.001680	0.001623	28.0796	0.104380	0.002009	51.9654	43.9213	14.6092	-0.067451	0.911157	-0.185875	-0.187240	-0.021224	51.9654	-0.185569	-75.8072	0.000280	NaN
184	1.000000	0.922530	7.36685e+06	-47839.1	955.819	-29764.9	0.000000	0.000000	6.923112	-0.003147	NaN	0.000000	0.001666	0.001596	28.0796	0.013065	0.001811	7.214022	-0.283125	-166.308	0.011023	0.921184	-0.175867	-0.177213	-0.003147	7.214022	-0.175539	-51.1967	6.147307E-5	NaN
184	1.000000	0.932540	7.36685e+06	-47839.1	955.818	-29764.9	0.000000	0.000000	6.933121	-0.045233	NaN	0.000000	0.001702	0.001616	28.0795	0.086175	0.002008	42.9051	31.949	16.1196	-0.034978	0.931162	-0.165856	-0.167235	-0.045233	42.9051	-0.165066	-33.6868	0.001343	NaN
184	1.000000	0.942552	7.36685e+06	-47839.1	955.819	-29764.9	0.000000	0.000000	6.943131	-0.067586	NaN	0.000000	0.001732	0.001616	28.0785	0.066065	0.001968	33.575	168.249	-166.927	-0.076552	0.941245	-0.155845	-0.157152	-0.067586	33.575	-0.154335	-21.7074	0.003113	NaN
184	1.000000	0.952542	7.36685e+06	-47839.1	955.818	-29764.9	0.000000	0.000000	6.953123	-0.018055	NaN	0.000000	0.001725	0.001660	28.0783	0.033422	0.001979	16.8905	-60.5227	15.3576	-0.019951	0.951165	-0.145855	-0.147232	-0.018055	16.8905	-0.145053	-14.6945	0.001229	NaN
184	1.000000	0.962559	7.36685e+06	-47839.1	955.819	-29764.9	0.000000	0.000000	6.963139	-0.059227	NaN	0.000000	0.001708	0.001640	28.0783	0.105550	0.001970	53.5743	153.77	-167.566	-0.096423	0.961190	-0.135838	-0.137207	-0.059227	53.5743	-0.135009	-9.515957	0.006224	NaN
184	1.000000	0.972528	7.36685e+06	-47839.1	955.82	-29764.9	0.000000	0.000000	6.973110	-0.011807	NaN	0.000000	0.001703	0.001636	28.0782	0.092774	0.001867	49.6796	70.2182	16.3754	-0.092852	0.971234	-0.125869	-0.127163	-0.011807	49.6796	-0.125690	-6.275348	0.001881	NaN
184	1.000000	0.982550	7.36685e+06	-47839.1	955.82	-29764.9	0.000000	0.000000	6.983130	-0.063522	NaN	0.000000	0.001704	0.001633	28.0786	0.012331	0.001959	6.296000	-65.6503	-163.897	-0.065160	0.981271	-0.115846	-0.117126	-0.063522	6.296000	-0.108279	-2.763421	0.022987	NaN
184	1.000000	0.992546	7.36685e+06	-47839.1	955.821	-29764.9	0.000000	0.000000	6.993127	-0.038777	NaN	0.000000	0.001688	0.001621	28.0783	0.035193	0.002048	17.184	22.797	16.2415	-0.033533	0.991233	-0.105851	-0.107163	-0.038777	17.184	-0.104158	-2.253995	0.017204	NaN
184	1.000000	1.002551	7.36685e+06	-47839.1	955.819	-29764.9	0.000000	0.000000	7.003135	0.023858	NaN	0.000000	0.001694	0.001589	28.0784	0.061000	0.001930	31.6037	173.501	-161.935	0.037942	1.001231	-0.095845	-0.097166	0.023858	31.6037	-0.096412	-1.518620	-0.015710	NaN
184	1.000000	1.012575	7.36685e+06	-47839.1	955.821	-29764.9	0.000000	0.000000	7.013157	-0.006476	NaN	0.000000	0.001696	0.001604	28.0788	0.057412	0.001830	31.3796	-168.833	13.9058	0.032548	1.011188	-0.085821	-0.087209	-0.006476	31.3796	-0.085667	-0.852667	0.007595	NaN
184	1.000000	1.022579	7.36685e+06	-47839.1	955.819	-29764.9	0.000000	0.000000	7.023163	0.031635	NaN	0.000000	0.001700	0.001627	28.0785	0.075717	0.001988	38.0856	105.626	-164.656	0.023490	1.021218	-0.075818	-0.077179	0.031635	38.0856	-0.076441	-0.503041	-0.062887	NaN
184	1.000000	1.032605	7.36685e+06	-47839.1	955.82	-29764.9	0.000000	0.000000	7.033187	-0.001862	NaN	0.000000	0.001689	0.001599	28.0784	0.054619	0.001998	27.3327	-16.957	17.2366	0.014002	1.031274	-0.065792	-0.067123	-0.001862	27.3327	-0.065741	-0.261258	0.007126	NaN
184	1.000000	1.042595	7.36685e+06	-47839.1	955.82	-29764.9	0.000000	0.000000	7.043176	-0.039568	NaN	0.000000	0.001686	0.001642	28.0785	0.044053	0.001959	22.4879	-88.4456	-163.277	-0.037376	1.041257	-0.055802	-0.057140	-0.039568	22.4879	-0.054482	-0.124310	0.318300	NaN
184	1.000000	1.052610	7.36685e+06	-47839.1	955.819	-29764.9	0.000000	0.000000	7.053188	-0.102434	NaN	0.000000	0.001713	0.001680	28.0784	0.039381	0.001892	20.8129	80.309	17.7473	-0.007221	1.051243	-0.045787	-0.047154	-0.102434	20.8129	-0.042096	-0.052383	1.955482	NaN
184	1.000000	1.062592	7.36685e+06	-47839.1	955.819	-29764.9	0.000000	0.000000	7.063171	-0.082357	NaN	0.000000	0.001697	0.001684	28.0786	0.058772	0.002044	28.7498	51.3935	-165.705	-0.077718	1.061228	-0.035805	-0.037169	-0.082357	28.7498	-0.033656	-0.029251	2.815509	NaN
184	1.000000	1.072591	7.36685e+06	-47839.1	955.82	-29764.9	0.000000	0.000000	7.073172	-0.011127	NaN	0.000000	0.001687	0.001654	28.0792	0.032173	0.001915	16.7964	151.536	16.1667	0.015437	1.071198	-0.025806	-0.027199	-0.011127	16.7964	-0.025309	-0.017188	0.647375	NaN
184	1.000000	1.082604	7.36685e+06	-47839.1	955.82	-29764.9	0.000000	0.000000	7.083187	0.012252	NaN	0.000000	0.001658	0.001676	28.0797	0.155142	0.002056	75.4719	-40.3237	-165.194	0.039194	1.081234	-0.015792	-0.017163	0.012252	75.4719	-0.015914	-0.009830	-1.246355	NaN
184	1.000000	1.092605	7.36685e+06	-47839.1	955.82	-29764.9	0.000000	0.000000	7.093188	0.012816	NaN	0.000000	0.001643	0.001679	28.0796	0.041523	0.002035	20.4051	133.716	13.2601	-0.027465	1.091280	-0.005792	-0.007117	0.012816	20.4051	-0.006263	-0.004197	-3.053935	NaN
184	1.000000	1.102545	7.36685e+06	-47839.1	955.819	-29764.9	0.000000	0.000000	7.103236	2.644332	NaN	0.000000	0.001646	0.001665	28.0801	3.518669	0.001869	1882.35	11.4257	-169.733	1.268372	1.101229	0.004148	0.002832	2.644332	1882.35	0.003094	0.002459	1075.19	34678.3
184	2.000000	1.109691	7.36685e+06	-47839.1	955.82	-29764.9	0.000000	0.000000	7.110691	10.1475	NaN	0.000000	0.001650	0.001679	28.0795	9.723073	0.001571	6189.04	7.386369	9.013888	9.274285	1.109299	0.011294	0.010902	10.1475	6189.04	0.010065	0.009253	1096.63	58782.5
184	2.000000	1.112141	7.36685e+06	-47839.1	955.82	-29764.9	0.000000	0.000000	7.113307	14.1817	NaN	0.000000	0.001639	0.001683	28.0799	13.1461	0.001717	7658.25	7.964382	-174.952	13.3441	1.111901	0.013745	0.013505	14.1817	7658.25	0.012356	0.011919	1189.85	64089
184	2.000000	1.114649	7.36685e+06	-47839.1	955.82	-29764.9	0.000000	0.000000	7.116008	18.8761	NaN	0.000000	0.001676	0.001700	28.0797	15.577	0.001752	8892.63	8.216762	4.753853	17.5342	1.114203	0.016252	0.015807	18.8761	8892.63	0.014660	0.014835	1272.38	66704.7
184	2.000000	1.117108	7.36685e+06	-47839.1	955.82	-29764.9	0.000000	0.000000	7.118538	20.6219	NaN	0.000000	0.001701	0.001667	28.08	17.3886	0.001739	9996.75	9.262134	-177.508	19.7325	1.116821	0.018711	0.018424	20.6219	9996.75	0.017164	0.018280	1128.09	67552.3
184	2.000000	1.119620	7.36685e+06	-47839.1	955.82	-29764.9	0.000000	0.000000	7.121234	25.0977	NaN	0.000000	0.001682	0.001651	28.0795	20.9672	0.001820	11522.2	8.698667	2.380182	24.2247	1.119303	0.021223	0.020906	25.0977	11522.2	0.019589	0.021901	1145.96	71134
184	2.000000	1.122117	7.36685e+06	-47839.1	955.821	-29764.9	0.000000	0.000000	7.123942	30.2258	NaN	0.000000	0.001673	0.001656	28.0796	23.1955	0.001756	13210.4	4.633896	-175.198	29.5456	1.121801	0.023721	0.023405	30.2258	13210.4	0.022005	0.025791	1171.96	75154.8
184	2.000000	1.124622	7.36685e+06	-47839.1	955.821	-29764.9	0.000000	0.000000	7.126777	38.242	NaN	0.000000	0.001660	0.001693	28.0795	25.7554	0.001760	14634.1	5.486285	2.073321	36.8528	1.124331	0.026226	0.025934	38.242	14634.1	0.024266	0.029693	1287.89	77590.7
184	2.000000	1.127119	7.36685e+06	-47839.1	955.82	-29764.9	0.000000	0.000000	7.129501	43.787	NaN	0.000000	0.001694	0.001727	28.08	27.8244	0.001729	16091.1	3.731723	-177.885	43.6549	1.126777	0.028722	0.028381	43.787	16091.1	0.026681	0.034145	1282.38	79559.7
184	2.000000	1.129620	7.36685e+06	-47839.1	955.82	-29764.9	0.000000	0.000000	7.132267	50.2095	NaN	0.000000	0.001678	0.001697	28.0795	31.0202	0.001854	16729.7	9.113020	-1.834855	51.5681	1.129291	0.031223	0.030894	50.2095	16729.7	0.028973	0.038641	1299.38	77756.6
184	2.000000	1.132077	7.36685e+06	-47839.1	955.821	-29764.9	0.000000	0.000000	7.135078	58.8271	NaN	0.000000	0.001687	0.001721	28.0797	33.5871	0.001822	18433.8	8.669878	176.35	57.2247	1.131771	0.033681	0.033374	58.8271	18433.8	0.031287	0.043454	1353.78	80793.1
184	2.000000	1.134654	7.36685e+06	-47839.1	955.82	-29764.9	0.000000	0.000000	7.137949	65.9738	NaN	0.000000	0.001707	0.001705	28.0783	34.763	0.001621	21445.5	3.726904	0.648490	65.0499	1.134271	0.036258	0.035874	65.9738	21445.5	0.033950	0.049330	1337.4	88217.1
184	2.000000	1.137132	7.36685e+06	-47839.1	955.82	-29764.9	0.000000	0.000000	7.140583	69.7845	NaN	0.000000	0.001712	0.001646	28.0783	37.0074	0.001644	22509.7	5.073454	178.764	70.9702	1.136744	0.038735	0.038348	69.7845	22509.7	0.036410	0.055080	1266.96	87628.5
184	2.000000	1.139580	7.36685e+06	-47839.1	955.819	-29764.9	0.000000	0.000000	7.143445	79.866	NaN	0.000000	0.001666	0.001630	28.0782	40.0654	0.001727	23204.2	2.366288	0.978736	78.0164	1.139218	0.041183	0.040822	79.866	23204.2	0.038601	0.060464	1320.89	86217
184	2.000000	1.142115	7.36685e+06	-47839.1	955.82	-29764.9	0.000000	0.000000	7.146251	86.4229	NaN	0.000000	0.001723	0.001637	28.0784	43.8642	0.001876	23384.6	5.220076	177.818	86.8669	1.141862	0.043718	0.043465	86.4229	23384.6	0.040947	0.066497	1299.64	82851.7
184	2.000000	1.144590	7.36685e+06	-47839.1	955.82	-29764.9	0.000000	0.000000	7.149283	100.001	NaN	0.000000	0.001663	0.001667	28.0785	45.2657	0.001823	24829.7	7.249762	-3.740365	99.156	1.144241	0.046193	0.045844	100.001	24829.7	0.043172	0.072484	1379.63	84260.7
184	2.000000	1.147072	7.36685e+06	-47839.1	955.821	-29764.9	0.000000	0.000000	7.152076	107.536	NaN	0.000000	0.001677	0.001656	28.0784	47.5061	0.001830	25955.3	5.761423	176.268	106.529	1.146788	0.048675	0.048392	107.536	25955.3	0.045568	0.079208	1357.63	84258.7
184	2.000000	1.149524	7.36685e+06	-47839.1	955.821	-29764.9	0.000000	0.000000	7.155065	120.624	NaN	0.000000	0.001663	0.001634	28.0786	49.2978	0.001786	27601.8	4.214048	-2.601999	117.397	1.149156	0.051127	0.050759	120.624	27601.8	0.047849	0.085882	1404.53	86051.8
184	2.000000	1.152067	7.36685e+06	-47839.1	955.82	-29764.9	0.000000	0.000000	7.157799	125.269	NaN	0.000000	0.001706	0.001586	28.0785	52.0955	0.001689	30840.1	4.553981	176.318	125.31	1.151844	0.053670	0.053447	125.269	30840.1	0.050623	0.094350	1327.7	91731.4
184	2.000000	1.154594	7.36685e+06	-47839.1	955.819	-29764.9	0.000000	0.000000	7.161065	143.217	NaN	0.000000	0.001686	0.001651	28.0788	54.3285	0.001818	29885.6	5.112828	-3.355365	142.988	1.154276	0.056197	0.055879	143.217	29885.6	0.052603	0.100629	1423.21	86074.3
184	2.000000	1.157079	7.36685e+06	-47839.1	955.82	-29764.9	0.000000	0.000000	7.164213	159.338	NaN	0.000000	0.001680	0.001677	28.0785	55.6107	0.001683	33035.1	3.948738	177.587	160.467	1.156629	0.058682	0.058232	159.338	33035.1	0.055065	0.108709	1465.73	91541
184	2.000000	1.159484	7.36685e+06	-47839.1	955.819	-29764.9	0.000000	0.000000	7.167000	168.641	NaN	0.000000	0.001705	0.001652	28.0785	59.4809	0.001799	33062.6	4.114317	-3.742519	163.302	1.159199	0.061088	0.060802	168.641	33062.6	0.057262	0.116174	1451.62	88624.8
184	2.000000	1.162067	7.36685e+06	-47839.1	955.82	-29764.9	0.000000	0.000000	7.170141	182.215	NaN	0.000000	0.001682	0.001701	28.0785	62.6826	0.001757	35675.5	5.387577	173.956	181.777	1.161829	0.063670	0.063432	182.215	35675.5	0.059839	0.125232	1455.02	92105.4
184	2.000000	1.164540	7.36685e+06	-47839.1	955.82	-29764.9	0.000000	0.000000	7.173303	198.974	NaN	0.000000	0.001640	0.001694	28.0786	63.8268	0.001657	38522.9	2.948419	-3.871844	195.675	1.164214	0.066143	0.065817	198.974	38522.9	0.062269	0.134072	1484.08	96122.3
184	2.000000	1.166995	7.36685e+06	-47839.1	955.819	-29764.9	0.000000	0.000000	7.176521	217.528	NaN	0.000000	0.001708	0.001693	28.0784	66.659	0.001698	39247.4	4.440262	174.192	214.379	1.166716	0.068598	0.068319	217.528	39247.4	0.064441	0.142215	1529.57	95084.9
184	2.000000	1.169518	7.36685e+06	-47839.1	955.819	-29764.9	0.000000	0.000000	7.179692	233.284	NaN	0.000000	0.001701	0.001700	28.0797	69.9424	0.001772	39467.1	3.028297	-4.045225	230.592	1.169151	0.071122	0.070754	233.284	39467.1	0.066688	0.150878	1546.18	92831.5
184	2.000000	1.172029	7.36685e+06	-47839.1	955.819	-29764.9	0.000000	0.000000	7.182748	246.568	NaN	0.000000	0.001623	0.001665	28.0799	73.6234	0.001836	40101.6	4.894541	173.491	245.194	1.171830	0.073632	0.073433	246.568	40101.6	0.069021	0.160127	1539.83	91559.4
184	2.000000	1.174513	7.36685e+06	-47839.1	955.82	-29764.9	0.000000	0.000000	7.186249	271.282	NaN	0.000000	0.001705	0.001681	28.0796	74.3052	0.001718	43259.9	4.335635	-5.708210	267.318	1.174057	0.076116	0.075660	271.282	43259.9	0.071413	0.169884	1596.87	95892.2
184	2.000000	1.177001	7.36685e+06	-47839.1	955.82	-29764.9	0.000000	0.000000	7.189530	290.586	NaN	0.000000	0.001698	0.001677	28.0798	76.3733	0.001804	42342.2	3.934587	174.407	289.455	1.176693	0.078604	0.078297	290.586	42342.2	0.073457	0.178433	1628.55	91581.7
184	2.000000	1.179365	7.36685e+06	-47839.1	955.82	-29764.9	0.000000	0.000000	7.192854	313.93	NaN	0.000000	0.001667	0.001677	28.0795	79.607	0.001756	45338.7	8.308490	-9.899872	303.501	1.178998	0.080968	0.080602	313.93	45338.7	0.075775	0.188370	1666.55	95441.2
184	2.000000	1.181968	7.36685e+06	-47839.1	955.82	-29764.9	0.000000	0.000000	7.196259	333.432	NaN	0.000000	0.001623	0.001685	28.0801	82.7296	0.001830	45216.8	4.474080	173.685	330.259	1.181768	0.083572	0.083372	333.432	45216.8	0.078041	0.198327	1681.22	92764.5
184	2.000000	1.184453	7.36685e+06	-47839.1	955.82	-29764.9	0.000000	0.000000	7.199922	362.09	NaN	0.000000	0.001663	0.001686	28.0799	83.5595	0.001727	48397.4	2.858567	-4.972892	355.903	1.184113	0.086056	0.085716	362.09	48397.4	0.080445	0.209154	1731.21	96685.7
184	2.000000	1.187052	7.36685e+06	-47839.1	955.821	-29764.9	0.000000	0.000000	7.203381	382.993	NaN	0.000000	0.001648	0.001651	28.0797	85.5326	0.001774	48226.2	3.652998	174.161	383.05	1.186682	0.088655	0.088285	382.993	48226.2	0.082699	0.219547	1744.47	94035.5
184	2.000000	1.189508	7.36685e+06	-47839.1	955.82	-29764.9	0.000000	0.000000	7.206677	403.423	NaN	0.000000	0.001626	0.001589	28.0796	89.014	0.001815	49038.6	7.146713	-9.946791	400.52	1.189157	0.091112	0.090760	403.423	49038.6	0.084942	0.230123	1753.08	93396.7
184	2.000000	1.191961	7.36685e+06	-47839.1	955.821	-29764.9	0.000000	0.000000	7.210129	427.721	NaN	0.000000	0.001664	0.001609	28.0798	91.0784	0.001789	50905.1	3.886397	173.415	423.377	1.191633	0.093565	0.093237	427.721	50905.1	0.087263	0.241315	1772.46	94676.6
184	2.000000	1.194479	7.36685e+06	-47839.1	955.821	-29764.9	0.000000	0.000000	7.213791	455.548	NaN	0.000000	0.001594	0.001590	28.0796	91.4362	0.001727	52956.6	3.265272	-6.367762	449.022	1.194171	0.096083	0.095775	455.548	52956.6	0.089631	0.252987	1800.68	96193.1
184	2.000000	1.197017	7.36685e+06	-47839.1	955.821	-29764.9	0.000000	0.000000	7.217098	474.246	NaN	0.000000	0.001585	0.001583	28.0795	92.9664	0.001798	51713.7	0.284506	176.814	473.06	1.196771	0.098621	0.098374	474.246	51713.7	0.091743	0.263614	1799.02	92022.6
184	2.000000	1.199568	7.36685e+06	-47839.1	955.82	-29764.9	0.000000	0.000000	7.220518	495.384	NaN	0.000000	0.001601	0.001566	28.0795	97.4378	0.001881	51799.2	4.642645	-7.418898	496.604	1.199293	0.101171	0.100896	495.384	51799.2	0.093999	0.275191	1800.14	90214.9
184	2.000000	1.201859	7.36685e+06	-47839.1	955.82	-29764.9	0.000000	0.000000	7.223901	521.961	NaN	0.000000	0.001603	0.001607	28.0786	98.5167	0.001882	52357.9	1.420860	175.947	514.297	1.201591	0.103462	0.103194	521.961	52357.9	0.095986	0.285580	1827.72	89514
184	2.000000	1.204473	7.36685e+06	-47839.1	955.82	-29764.9	0.000000	0.000000	7.227539	546.865	NaN	0.000000	0.001605	0.001590	28.0783	100.766	0.001670	60331.1	6.008492	-9.640694	542.662	1.204217	0.106076	0.105821	546.865	60331.1	0.099278	0.303190	1803.71	100105
184	2.000000	1.206982	7.36685e+06	-47839.1	955.82	-29764.9	0.000000	0.000000	7.231026	570.641	NaN	0.000000	0.001583	0.001605	28.0782	102.753	0.001781	57695.3	6.082555	170.598	569.51	1.206607	0.108585	0.108210	570.641	57695.3	0.101167	0.313521	1820.11	94141.5