File: remote_trans/data/nanoindenter/0828-1/data/Data_2025-08-06,11h17m57s/2025-07-22_16-23-58_1_473.txt
2025-07-22, 16:23:58, 1
Index	Phase	Displacement	Time	Pos X	Pos Y	Pos Z	Rot A	Rot B	Piezo Z	Force A	Force B	Gripper	Voltage A	Voltage B	Temperature	Amplitude force	Amplitude pos	Stiffness	Phase shift	Phase excitation	Force A raw	Displacement raw	HMax	HMax raw	Real Force	Real Stiffness	Contact Depth	Area	Hardness	Reduced Mod.
[#]	[#]	[um]	[s]	[um]	[um]	[um]	[m°]	[m°]	[um]	[uN]	[uN]	[V]	[V]	[V]	[°C]	[uN]	[um]	[N/m]	[°]	[°]	[uN]	[um]	[um]	[um]	[uN]	[N/m]	[um]	[um^2]	[MPa]	[MPa]
473	1.000000	0.002462	7.36968e+06	-53439.1	1005.82	-29746.4	0.000000	0.000000	6.002779	0.055827	NaN	0.000000	0.001547	0.001778	28.0824	0.043986	0.000914	48.1157	118.631	-169.215	0.040776	0.001224	-1.084015	-1.085252	0.055827	48.1157	-1.084885	-3.141396E+14	-1.777148E-16	NaN
473	1.000000	0.010469	7.36968e+06	-53439.1	1005.82	-29746.4	0.000000	0.000000	6.010782	-0.044739	NaN	0.000000	0.001578	0.001791	28.082	0.080088	0.000939	85.3342	-156.848	-161.954	-0.026030	0.009146	-1.076008	-1.077330	-0.044739	85.3342	-1.075614	-2.358368E+14	1.897033E-16	NaN
473	1.000000	0.018463	7.36968e+06	-53439.1	1005.82	-29746.4	0.000000	0.000000	6.018779	0.041038	NaN	0.000000	0.001536	0.001761	28.0819	0.096245	0.001713	56.1965	-4.128770	-165.445	-0.031875	0.017172	-1.068013	-1.069305	0.041038	56.1965	-1.068561	-1.896086E+14	-2.164357E-16	NaN
473	1.000000	0.026448	7.36968e+06	-53439.1	1005.82	-29746.4	0.000000	0.000000	6.026767	0.114105	NaN	0.000000	0.001608	0.001730	28.0821	0.068435	0.001807	37.8819	45.1383	-168.027	0.041031	0.025157	-1.060029	-1.061319	0.114105	37.8819	-1.062288	-1.561575E+14	-7.307022E-16	NaN
473	1.000000	0.034423	7.36968e+06	-53439.1	1005.82	-29746.4	0.000000	0.000000	6.034739	0.039963	NaN	0.000000	0.001605	0.001778	28.0819	0.063985	0.001895	33.7619	-79.038	-164.847	0.080270	0.033125	-1.052053	-1.053351	0.039963	33.7619	-1.052941	-1.169363E+14	-3.417492E-16	NaN
473	1.000000	0.042454	7.36968e+06	-53439.1	1005.82	-29746.4	0.000000	0.000000	6.042772	0.082176	NaN	0.000000	0.001576	0.001748	28.0821	0.097000	0.001925	50.3878	53.9538	-159.725	0.029847	0.041084	-1.044023	-1.045392	0.082176	50.3878	-1.045246	-9.215195E+13	-8.917487E-16	NaN
473	1.000000	0.050467	7.36968e+06	-53439.1	1005.82	-29746.4	0.000000	0.000000	6.050782	0.004388	NaN	0.000000	0.001550	0.001750	28.0819	0.100572	0.002139	47.0144	129.946	-166.7	-0.060408	0.049126	-1.036009	-1.037350	0.004388	47.0144	-1.036079	-6.938120E+13	-6.324211E-17	NaN
473	1.000000	0.058422	7.36968e+06	-53439.1	1005.82	-29746.4	0.000000	0.000000	6.058740	0.094849	NaN	0.000000	0.001560	0.001762	28.0805	0.031245	0.002032	15.3741	130.617	-164.164	0.075537	0.057159	-1.028055	-1.029317	0.094849	15.3741	-1.032682	-6.245312E+13	-1.518716E-15	NaN
473	1.000000	0.066441	7.36968e+06	-53439.1	1005.82	-29746.4	0.000000	0.000000	6.066756	0.005412	NaN	0.000000	0.001545	0.001770	28.0806	0.071548	0.001926	37.1528	49.3559	-164.838	0.055817	0.065113	-1.020035	-1.021363	0.005412	37.1528	-1.020144	-4.235415E+13	-1.277692E-16	NaN
473	1.000000	0.074426	7.36968e+06	-53439.1	1005.82	-29746.4	0.000000	0.000000	6.074741	-0.006717	NaN	0.000000	0.001568	0.001763	28.0808	0.111410	0.001870	59.5676	-162.345	-165.207	-0.039714	0.073116	-1.012050	-1.013360	-0.006717	59.5676	-1.011966	-3.287286E+13	2.043354E-16	NaN
473	1.000000	0.082442	7.36968e+06	-53439.1	1005.82	-29746.4	0.000000	0.000000	6.082754	-0.073840	NaN	0.000000	0.001574	0.001766	28.0807	0.066470	0.001965	33.8354	-138.713	-164.408	-0.026311	0.081132	-1.004035	-1.005344	-0.073840	33.8354	-1.002398	-2.443725E+13	3.021606E-15	NaN
473	1.000000	0.090443	7.36968e+06	-53439.1	1005.82	-29746.4	0.000000	0.000000	6.090759	0.034788	NaN	0.000000	0.001586	0.001767	28.0804	0.096805	0.002045	47.331	-55.4315	-165.016	0.031535	0.089123	-0.996033	-0.997353	0.034788	47.331	-0.996585	-2.040724E+13	-1.704681E-15	NaN
473	1.000000	0.098463	7.36968e+06	-53439.1	1005.82	-29746.4	0.000000	0.000000	6.098778	0.017592	NaN	0.000000	0.001597	0.001747	28.0806	0.073031	0.002030	35.9789	-130.929	-163.951	0.050772	0.097190	-0.988014	-0.989286	0.017592	35.9789	-0.988380	-1.582338E+13	-1.111746E-15	NaN
473	1.000000	0.106449	7.36968e+06	-53439.1	1005.82	-29746.4	0.000000	0.000000	6.106765	0.049600	NaN	0.000000	0.001572	0.001768	28.0807	0.101436	0.001972	51.44	-50.8847	-159.921	0.059297	0.105150	-0.980028	-0.981327	0.049600	51.44	-0.980751	-1.248901E+13	-3.971526E-15	NaN
473	1.000000	0.114473	7.36968e+06	-53439.1	1005.82	-29746.4	0.000000	0.000000	6.114788	-0.003602	NaN	0.000000	0.001585	0.001796	28.0807	0.086936	0.001982	43.8698	92.2717	-165.061	-0.003727	0.113144	-0.972003	-0.973332	-0.003602	43.8698	-0.971942	-9.502301E+12	3.790606E-16	NaN
473	1.000000	0.122474	7.36968e+06	-53439.1	1005.82	-29746.4	0.000000	0.000000	6.122789	0.007604	NaN	0.000000	0.001573	0.001780	28.0806	0.043058	0.001915	22.4874	-87.4043	-163.187	0.004526	0.121163	-0.964003	-0.965314	0.007604	22.4874	-0.964256	-7.485991E+12	-1.015801E-15	NaN
473	1.000000	0.130458	7.36968e+06	-53439.1	1005.82	-29746.4	0.000000	0.000000	6.130776	0.085017	NaN	0.000000	0.001608	0.001756	28.0806	0.039644	0.002014	19.6821	-87.072	-166.762	0.206403	0.129135	-0.956019	-0.957341	0.085017	19.6821	-0.959258	-6.410167E+12	-1.326287E-14	NaN
473	1.000000	0.138474	7.36968e+06	-53439.1	1005.82	-29746.4	0.000000	0.000000	6.138791	0.046823	NaN	0.000000	0.001591	0.001782	28.0808	0.113078	0.002005	56.403	-92.35	-163.138	0.059802	0.137132	-0.948002	-0.949345	0.046823	56.403	-0.948625	-4.607700E+12	-1.016197E-14	NaN
473	1.000000	0.146475	7.36968e+06	-53439.1	1005.82	-29746.4	0.000000	0.000000	6.146791	0.019369	NaN	0.000000	0.001573	0.001772	28.0807	0.066665	0.001961	34.0009	-177.056	-163.119	0.025823	0.145121	-0.940001	-0.941355	0.019369	34.0009	-0.940429	-3.572059E+12	-5.422406E-15	NaN
473	1.000000	0.154467	7.36968e+06	-53439.1	1005.82	-29746.4	0.000000	0.000000	6.154786	0.102791	NaN	0.000000	0.001528	0.001746	28.0803	0.146945	0.002035	72.2048	-110.521	-163.483	0.086395	0.153140	-0.932010	-0.933336	0.102791	72.2048	-0.933078	-2.842705E+12	-3.615942E-14	NaN
473	1.000000	0.162469	7.36968e+06	-53439.1	1005.82	-29746.4	0.000000	0.000000	6.162784	0.014695	NaN	0.000000	0.001538	0.001778	28.0803	0.141618	0.002027	69.859	69.6651	-164.452	0.016289	0.161210	-0.924008	-0.925266	0.014695	69.859	-0.924165	-2.154975E+12	-6.819049E-15	NaN
473	1.000000	0.170450	7.36968e+06	-53439.1	1005.82	-29746.4	0.000000	0.000000	6.170770	0.132713	NaN	0.000000	0.001516	0.001786	28.0802	0.078751	0.001965	40.0832	-62.6678	-163.795	0.202977	0.169158	-0.916026	-0.917319	0.132713	40.0832	-0.918510	-1.807521E+12	-7.342257E-14	NaN
473	1.000000	0.178486	7.36968e+06	-53439.1	1005.82	-29746.4	0.000000	0.000000	6.178803	0.074287	NaN	0.000000	0.001528	0.001754	28.0805	0.101537	0.002056	49.3842	-139.549	-164.569	0.045377	0.177152	-0.907991	-0.909325	0.074287	49.3842	-0.909119	-1.349791E+12	-5.503617E-14	NaN
473	1.000000	0.186504	7.36968e+06	-53439.1	1005.82	-29746.4	0.000000	0.000000	6.186821	0.057608	NaN	0.000000	0.001581	0.001724	28.0807	0.042780	0.001912	22.3778	-41.0441	-164.033	0.087544	0.185193	-0.899973	-0.901283	0.057608	22.3778	-0.901904	-1.078426E+12	-5.341883E-14	NaN
473	1.000000	0.194489	7.36968e+06	-53439.1	1005.82	-29746.4	0.000000	0.000000	6.194804	0.007985	NaN	0.000000	0.001541	0.001753	28.0818	0.087371	0.002193	39.8489	161.971	-163.377	-0.007247	0.193164	-0.891987	-0.893312	0.007985	39.8489	-0.892138	-7.958097E+11	-1.003372E-14	NaN
473	1.000000	0.202490	7.36968e+06	-53439.1	1005.82	-29746.4	0.000000	0.000000	6.202807	0.043609	NaN	0.000000	0.001535	0.001729	28.0819	0.014534	0.001904	7.634592	-102.92	-162.401	-0.006437	0.201167	-0.883986	-0.885310	0.043609	7.634592	-0.888270	-7.055600E+11	-6.180709E-14	NaN
473	1.000000	0.210495	7.36968e+06	-53439.1	1005.82	-29746.4	0.000000	0.000000	6.210809	-0.000327	NaN	0.000000	0.001528	0.001739	28.0821	0.101787	0.001962	51.8726	9.580064	-163.012	0.005530	0.209170	-0.875982	-0.877306	-0.000327	51.8726	-0.875977	-4.811706E+11	6.805870E-16	NaN
473	1.000000	0.218504	7.36968e+06	-53439.1	1005.82	-29746.4	0.000000	0.000000	6.218820	0.024764	NaN	0.000000	0.001542	0.001758	28.082	0.102928	0.002028	50.7614	15.1156	-164.876	0.049322	0.217174	-0.867973	-0.869302	0.024764	50.7614	-0.868339	-3.792846E+11	-6.529206E-14	NaN
473	1.000000	0.226511	7.36968e+06	-53439.1	1005.82	-29746.4	0.000000	0.000000	6.226828	0.064750	NaN	0.000000	0.001573	0.001759	28.0817	0.015139	0.001918	7.892486	-140.235	-158.686	0.134239	0.225179	-0.859966	-0.861298	0.064750	7.892486	-0.866119	-3.539391E+11	-1.829407E-13	NaN
473	1.000000	0.234515	7.36968e+06	-53439.1	1005.82	-29746.4	0.000000	0.000000	6.234831	0.027963	NaN	0.000000	0.001599	0.001765	28.0818	0.035240	0.001878	18.767	147.173	-166.532	0.034010	0.233247	-0.851962	-0.853230	0.027963	18.767	-0.853079	-2.357393E+11	-1.186163E-13	NaN
473	1.000000	0.242532	7.36968e+06	-53439.1	1005.82	-29746.4	0.000000	0.000000	6.242850	0.074417	NaN	0.000000	0.001602	0.001772	28.0817	0.056072	0.002101	26.6922	-81.0617	-161.113	0.046786	0.241223	-0.843945	-0.845254	0.074417	26.6922	-0.846036	-1.892561E+11	-3.932095E-13	NaN
473	1.000000	0.250506	7.36968e+06	-53439.1	1005.82	-29746.4	0.000000	0.000000	6.250823	0.059176	NaN	0.000000	0.001600	0.001779	28.0818	0.051075	0.002035	25.1016	-116.179	-160.975	0.048182	0.249195	-0.835971	-0.837282	0.059176	25.1016	-0.837739	-1.461029E+11	-4.050295E-13	NaN
473	1.000000	0.258534	7.36968e+06	-53439.1	1005.82	-29746.4	0.000000	0.000000	6.258848	-0.028604	NaN	0.000000	0.001578	0.001773	28.0818	0.034655	0.002050	16.9036	-163.771	-165.941	0.006611	0.257185	-0.827942	-0.829292	-0.028604	16.9036	-0.826673	-1.034398E+11	2.765282E-13	NaN
473	1.000000	0.266522	7.36968e+06	-53439.1	1005.82	-29746.4	0.000000	0.000000	6.266835	-0.035114	NaN	0.000000	0.001584	0.001797	28.0818	0.039356	0.002085	18.8804	-54.8746	-163.028	0.050655	0.265209	-0.819954	-0.821268	-0.035114	18.8804	-0.818560	-8.029300E+10	4.373230E-13	NaN
473	1.000000	0.274517	7.36968e+06	-53439.1	1005.82	-29746.4	0.000000	0.000000	6.274831	-0.014876	NaN	0.000000	0.001569	0.001730	28.0817	0.110875	0.002028	54.6819	-15.1259	-163.174	-0.067416	0.273201	-0.811959	-0.813276	-0.014876	54.6819	-0.811755	-6.492083E+10	2.291459E-13	NaN
473	1.000000	0.282541	7.36968e+06	-53439.1	1005.82	-29746.4	0.000000	0.000000	6.282856	-0.002764	NaN	0.000000	0.001569	0.001755	28.0817	0.004647	0.001894	2.453797	-31.7326	-163.695	-0.035195	0.281190	-0.803935	-0.805287	-0.002764	2.453797	-0.803091	-4.952371E+10	5.580294E-14	NaN
473	1.000000	0.290535	7.36968e+06	-53439.1	1005.82	-29746.4	0.000000	0.000000	6.290853	0.096926	NaN	0.000000	0.001556	0.001768	28.0817	0.033480	0.002016	16.6108	31.9934	-162.987	0.079884	0.289202	-0.795942	-0.797275	0.096926	16.6108	-0.800318	-4.541311E+10	-2.134315E-12	NaN
473	1.000000	0.298554	7.36968e+06	-53439.1	1005.82	-29746.4	0.000000	0.000000	6.298872	0.085309	NaN	0.000000	0.001581	0.001769	28.082	0.030548	0.001999	15.2848	45.4466	-165.906	0.112558	0.297237	-0.787923	-0.789239	0.085309	15.2848	-0.792109	-3.513372E+10	-2.428135E-12	NaN
473	1.000000	0.306544	7.36968e+06	-53439.1	1005.82	-29746.4	0.000000	0.000000	6.306861	0.064402	NaN	0.000000	0.001562	0.001786	28.082	0.030203	0.001915	15.7701	-130.758	-165.253	0.073425	0.305254	-0.779932	-0.781223	0.064402	15.7701	-0.782995	-2.641995E+10	-2.437636E-12	NaN
473	1.000000	0.314532	7.36968e+06	-53439.1	1005.82	-29746.4	0.000000	0.000000	6.314848	0.026123	NaN	0.000000	0.001579	0.001806	28.0818	0.077880	0.001971	39.5216	-123.407	-165.868	-0.029298	0.313237	-0.771945	-0.773239	0.026123	39.5216	-0.772441	-1.898829E+10	-1.375750E-12	NaN
473	1.000000	0.322525	7.36968e+06	-53439.1	1005.82	-29746.4	0.000000	0.000000	6.322841	0.024506	NaN	0.000000	0.001580	0.001809	28.0818	0.037126	0.001974	18.8056	-33.4879	-167.311	-0.038853	0.321252	-0.763951	-0.765225	0.024506	18.8056	-0.764929	-1.500865E+10	-1.632762E-12	NaN
473	1.000000	0.330541	7.36968e+06	-53439.1	1005.82	-29746.4	0.000000	0.000000	6.330859	0.066482	NaN	0.000000	0.001542	0.001823	28.0806	0.073335	0.002007	36.5448	60.3025	-164.592	0.038586	0.329251	-0.755935	-0.757225	0.066482	36.5448	-0.757300	-1.181849E+10	-5.625233E-12	NaN
473	1.000000	0.338538	7.36968e+06	-53439.1	1005.82	-29746.4	0.000000	0.000000	6.338853	-0.005951	NaN	0.000000	0.001543	0.001860	28.0806	0.061498	0.002032	30.2586	-21.7658	-161.519	-0.030766	0.337183	-0.747938	-0.749294	-0.005951	30.2586	-0.747791	-8.773005E+9	6.783224E-13	NaN
473	1.000000	0.346556	7.36968e+06	-53439.1	1005.82	-29746.4	0.000000	0.000000	6.346873	0.057935	NaN	0.000000	0.001526	0.001793	28.0807	0.021901	0.002128	10.2909	-154.796	-163.982	0.005797	0.345321	-0.739920	-0.741155	0.057935	10.2909	-0.744143	-7.824791E+9	-7.404046E-12	NaN
473	1.000000	0.354586	7.36968e+06	-53439.1	1005.82	-29746.4	0.000000	0.000000	6.354901	0.000544	NaN	0.000000	0.001532	0.001805	28.0805	0.142497	0.001984	71.8139	2.568833	-162.178	0.026933	0.353253	-0.731890	-0.733223	0.000544	71.8139	-0.731896	-5.329012E+9	-1.021077E-13	NaN
473	1.000000	0.362547	7.36968e+06	-53439.1	1005.82	-29746.4	0.000000	0.000000	6.362864	0.050769	NaN	0.000000	0.001560	0.001790	28.0809	0.058029	0.001916	30.2859	67.1783	-165.282	0.074602	0.361250	-0.723929	-0.725227	0.050769	30.2859	-0.725187	-4.317134E+9	-1.175995E-11	NaN
473	1.000000	0.370577	7.36968e+06	-53439.1	1005.82	-29746.4	0.000000	0.000000	6.370893	0.045306	NaN	0.000000	0.001574	0.001820	28.0805	0.065378	0.002053	31.846	-31.042	-165.678	0.087779	0.369262	-0.715900	-0.717215	0.045306	31.846	-0.716967	-3.335073E+9	-1.358480E-11	NaN
473	1.000000	0.378554	7.36968e+06	-53439.1	1005.82	-29746.4	0.000000	0.000000	6.378871	0.040155	NaN	0.000000	0.001550	0.001805	28.0807	0.042032	0.002017	20.8366	-26.4541	-162.978	0.023029	0.377234	-0.707922	-0.709242	0.040155	20.8366	-0.709368	-2.626741E+9	-1.528709E-11	NaN
473	1.000000	0.386578	7.36968e+06	-53439.1	1005.82	-29746.4	0.000000	0.000000	6.386896	0.073791	NaN	0.000000	0.001550	0.001778	28.0807	0.007314	0.002048	3.571898	-152.554	-162.949	0.082886	0.385258	-0.699898	-0.701219	0.073791	3.571898	-0.715392	-3.174129E+9	-2.324774E-11	NaN
473	1.000000	0.394573	7.36968e+06	-53439.1	1005.82	-29746.4	0.000000	0.000000	6.394892	0.102477	NaN	0.000000	0.001549	0.001776	28.0805	0.044154	0.001887	23.3967	179.166	-164.089	0.052269	0.393249	-0.691904	-0.693228	0.102477	23.3967	-0.695189	-1.681953E+9	-6.092723E-11	NaN
473	1.000000	0.402587	7.36968e+06	-53439.1	1005.82	-29746.4	0.000000	0.000000	6.402899	-0.058794	NaN	0.000000	0.001548	0.001790	28.0808	0.063180	0.002057	30.7169	76.4431	-165.86	-0.024922	0.401289	-0.683889	-0.685187	-0.058794	30.7169	-0.682454	-1.126583E+9	5.218809E-11	NaN
473	1.000000	0.410571	7.36968e+06	-53439.1	1005.82	-29746.4	0.000000	0.000000	6.410887	0.032677	NaN	0.000000	0.001564	0.001786	28.0805	0.066174	0.002039	32.4543	165.074	-164.769	0.064481	0.409289	-0.675905	-0.677188	0.032677	32.4543	-0.676660	-9.386960E+8	-3.481093E-11	NaN
473	1.000000	0.418583	7.36968e+06	-53439.1	1005.82	-29746.4	0.000000	0.000000	6.418900	0.067431	NaN	0.000000	0.001559	0.001738	28.0807	0.067578	0.002105	32.1014	-86.2093	-166.304	0.073358	0.417303	-0.667894	-0.669174	0.067431	32.1014	-0.669469	-7.483834E+8	-9.010240E-11	NaN
473	1.000000	0.426578	7.36968e+06	-53439.1	1005.82	-29746.4	0.000000	0.000000	6.426893	0.016183	NaN	0.000000	0.001579	0.001778	28.0807	0.053623	0.001990	26.9404	-35.4339	-165.569	0.058348	0.425330	-0.659899	-0.661147	0.016183	26.9404	-0.660349	-5.613738E+8	-2.882738E-11	NaN
473	1.000000	0.434589	7.36968e+06	-53439.1	1005.82	-29746.4	0.000000	0.000000	6.434904	0.014742	NaN	0.000000	0.001567	0.001767	28.0807	0.084338	0.001908	44.1982	116.659	-166.291	0.051088	0.433303	-0.651888	-0.653173	0.014742	44.1982	-0.652138	-4.332535E+8	-3.402738E-11	NaN
473	1.000000	0.442570	7.36968e+06	-53439.1	1005.82	-29746.4	0.000000	0.000000	6.442886	0.036054	NaN	0.000000	0.001557	0.001796	28.0808	0.133054	0.001931	68.9204	90.7003	-163.695	-0.025233	0.441303	-0.643907	-0.645173	0.036054	68.9204	-0.644299	-3.382739E+8	-1.065815E-10	NaN
473	1.000000	0.450614	7.36968e+06	-53439.1	1005.82	-29746.4	0.000000	0.000000	6.450930	0.028800	NaN	0.000000	0.001548	0.001791	28.0806	0.049626	0.001914	25.9281	98.7141	-163.461	0.022979	0.449296	-0.635863	-0.637180	0.028800	25.9281	-0.636696	-2.660406E+8	-1.082535E-10	NaN
473	1.000000	0.458622	7.36968e+06	-53439.1	1005.82	-29746.4	0.000000	0.000000	6.458940	0.064170	NaN	0.000000	0.001544	0.001806	28.0809	0.058357	0.001915	30.4705	37.0618	-166.057	0.039978	0.457313	-0.627854	-0.629163	0.064170	30.4705	-0.629434	-2.114693E+8	-3.034490E-10	NaN
473	1.000000	0.466628	7.36968e+06	-53439.1	1005.82	-29746.4	0.000000	0.000000	6.466943	0.025217	NaN	0.000000	0.001513	0.001821	28.0813	0.039586	0.001933	20.4755	-169.862	-163.847	-0.005006	0.465269	-0.619849	-0.621208	0.025217	20.4755	-0.620773	-1.607878E+8	-1.568317E-10	NaN
473	1.000000	0.474582	7.36968e+06	-53439.1	1005.82	-29746.4	0.000000	0.000000	6.474899	0.046458	NaN	0.000000	0.001545	0.001809	28.0819	0.059734	0.002071	28.8405	-99.0601	-165.109	0.101799	0.473302	-0.611894	-0.613174	0.046458	28.8405	-0.613102	-1.261218E+8	-3.683620E-10	NaN
473	1.000000	0.482624	7.36968e+06	-53439.1	1005.82	-29746.4	0.000000	0.000000	6.482939	0.012117	NaN	0.000000	0.001533	0.001821	28.0819	0.020187	0.002020	9.994668	30.7631	-163.723	-0.008958	0.481303	-0.603853	-0.605173	0.012117	9.994668	-0.604762	-9.683452E+7	-1.251351E-10	NaN
473	1.000000	0.490595	7.36968e+06	-53439.1	1005.82	-29746.4	0.000000	0.000000	6.490912	0.049563	NaN	0.000000	0.001561	0.001811	28.0818	0.087994	0.002027	43.4192	71.5918	-165.315	0.082285	0.489283	-0.595881	-0.597193	0.049563	43.4192	-0.596737	-7.507921E+7	-6.601434E-10	NaN
473	1.000000	0.498637	7.36968e+06	-53439.1	1005.82	-29746.4	0.000000	0.000000	6.498953	0.033594	NaN	0.000000	0.001560	0.001787	28.082	0.183845	0.001946	94.4912	-145.418	-164.235	-0.023356	0.497270	-0.587840	-0.589206	0.033594	94.4912	-0.588107	-5.709021E+7	-5.884371E-10	NaN
473	1.000000	0.506619	7.36968e+06	-53439.1	1005.82	-29746.4	0.000000	0.000000	6.506937	0.084083	NaN	0.000000	0.001601	0.001766	28.0829	0.076301	0.002050	37.2225	-28.8996	-163.979	0.098418	0.505322	-0.579858	-0.581155	0.084083	37.2225	-0.581552	-4.636035E+7	-1.813691E-9	NaN
473	1.000000	0.514636	7.36968e+06	-53439.1	1005.82	-29746.4	0.000000	0.000000	6.514955	0.099022	NaN	0.000000	0.001556	0.001827	28.082	0.053467	0.002147	24.906	111.277	-165.227	0.087290	0.513329	-0.571841	-0.573147	0.099022	24.906	-0.574823	-3.743243E+7	-2.645350E-9	NaN
473	1.000000	0.522646	7.36968e+06	-53439.1	1005.82	-29746.4	0.000000	0.000000	6.522962	0.035610	NaN	0.000000	0.001556	0.001778	28.0819	0.143110	0.002146	66.6967	59.8031	-164.696	-0.001963	0.521369	-0.563831	-0.565108	0.035610	66.6967	-0.564231	-2.672355E+7	-1.332534E-9	NaN
473	1.000000	0.530640	7.36968e+06	-53439.1	1005.82	-29746.4	0.000000	0.000000	6.530955	0.031238	NaN	0.000000	0.001527	0.001778	28.0817	0.035990	0.002083	17.2744	-149.703	-166.855	0.055136	0.529362	-0.555837	-0.557114	0.031238	17.2744	-0.557193	-2.135721E+7	-1.462640E-9	NaN
473	1.000000	0.538649	7.36968e+06	-53439.1	1005.82	-29746.4	0.000000	0.000000	6.538966	0.062368	NaN	0.000000	0.001551	0.001814	28.0817	0.043917	0.001979	22.1957	-111.958	-165.664	0.036009	0.537314	-0.547828	-0.549162	0.062368	22.1957	-0.549935	-1.694554E+7	-3.680514E-9	NaN
473	1.000000	0.546631	7.36968e+06	-53439.1	1005.82	-29746.4	0.000000	0.000000	6.546947	0.024222	NaN	0.000000	0.001544	0.001765	28.0817	0.062864	0.002118	29.683	-161.576	-163.364	0.056025	0.545365	-0.539846	-0.541112	0.024222	29.683	-0.540458	-1.252292E+7	-1.934229E-9	NaN
473	1.000000	0.554660	7.36968e+06	-53439.1	1005.82	-29746.4	0.000000	0.000000	6.554975	-0.009152	NaN	0.000000	0.001567	0.001811	28.0819	0.066168	0.002057	32.1747	-45.1851	-166.905	-0.040977	0.553372	-0.531816	-0.533104	-0.009152	32.1747	-0.531603	-9.43695e+06	9.698513E-10	NaN
473	1.000000	0.562644	7.36968e+06	-53439.1	1005.82	-29746.4	0.000000	0.000000	6.562959	0.013223	NaN	0.000000	0.001539	0.001780	28.0817	0.078005	0.001961	39.7872	-89.8228	-163.879	0.055179	0.561328	-0.523833	-0.525149	0.013223	39.7872	-0.524082	-7.4191e+06	-1.782251E-9	NaN
473	1.000000	0.570649	7.36968e+06	-53439.1	1005.82	-29746.4	0.000000	0.000000	6.570963	-0.006629	NaN	0.000000	0.001590	0.001788	28.0819	0.086718	0.002016	43.0121	-142.696	-165.777	0.068150	0.569395	-0.515827	-0.517082	-0.006629	43.0121	-0.515712	-5.67467e+06	1.168124E-9	NaN
473	1.000000	0.578643	7.36968e+06	-53439.1	1005.82	-29746.4	0.000000	0.000000	6.578962	0.110216	NaN	0.000000	0.001540	0.001768	28.0816	0.079178	0.001917	41.3009	146.748	-165.102	0.050779	0.577373	-0.507834	-0.509104	0.110216	41.3009	-0.509835	-4.70021e+06	-2.344917E-8	NaN
473	1.000000	0.586655	7.36968e+06	-53439.1	1005.82	-29746.4	0.000000	0.000000	6.586970	0.001571	NaN	0.000000	0.001555	0.001759	28.0819	0.121494	0.002011	60.4031	75.4452	-163.034	0.018923	0.585326	-0.499822	-0.501151	0.001571	60.4031	-0.499841	-3.41037e+06	-4.606604E-10	NaN
473	1.000000	0.594659	7.36968e+06	-53439.1	1005.82	-29746.4	0.000000	0.000000	6.594974	0.006995	NaN	0.000000	0.001569	0.001769	28.0818	0.129225	0.002058	62.7933	-102.211	-163.77	-0.005818	0.593361	-0.491817	-0.493115	0.006995	62.7933	-0.491901	-2.64211e+06	-2.647682E-9	NaN
473	1.000000	0.602655	7.36968e+06	-53439.1	1005.82	-29746.4	0.000000	0.000000	6.602970	0.019558	NaN	0.000000	0.001566	0.001768	28.0813	0.064161	0.002091	30.6889	-144.892	-165.293	0.043621	0.601370	-0.483822	-0.485107	0.019558	30.6889	-0.484300	-2.0687e+06	-9.454438E-9	NaN
473	1.000000	0.610652	7.36968e+06	-53439.1	1005.82	-29746.4	0.000000	0.000000	6.610970	0.077118	NaN	0.000000	0.001558	0.001750	28.0807	0.090354	0.001966	45.9511	-141.862	-166.061	0.115319	0.609359	-0.475825	-0.477118	0.077118	45.9511	-0.477084	-1.63942e+06	-4.703980E-8	NaN
473	1.000000	0.618665	7.36968e+06	-53439.1	1005.82	-29746.4	0.000000	0.000000	6.618983	0.078474	NaN	0.000000	0.001558	0.001741	28.0804	0.090474	0.001991	45.4437	34.8376	-165.326	0.059298	0.617392	-0.467812	-0.469084	0.078474	45.4437	-0.469107	-1.2673e+06	-6.192211E-8	NaN
473	1.000000	0.626672	7.36968e+06	-53439.1	1005.82	-29746.4	0.000000	0.000000	6.626991	0.099525	NaN	0.000000	0.001566	0.001767	28.0806	0.063661	0.001976	32.2241	8.339865	-165.013	0.199841	0.625359	-0.459804	-0.461118	0.099525	32.2241	-0.462121	-1.01114e+06	-9.842770E-8	NaN
473	1.000000	0.634672	7.36968e+06	-53439.1	1005.82	-29746.4	0.000000	0.000000	6.634987	-0.009075	NaN	0.000000	0.001568	0.001747	28.0804	0.062378	0.002010	31.0294	-159.948	-164.048	-0.065439	0.633387	-0.451804	-0.453090	-0.009075	31.0294	-0.451585	-718880	1.262421E-8	NaN
473	1.000000	0.642678	7.36968e+06	-53439.1	1005.82	-29746.4	0.000000	0.000000	6.642994	0.044431	NaN	0.000000	0.001529	0.001723	28.0806	0.020896	0.002025	10.3182	73.0527	-165.591	-0.013810	0.641371	-0.443799	-0.445105	0.044431	10.3182	-0.447029	-620132	-7.164765E-8	NaN
473	1.000000	0.650710	7.36968e+06	-53439.1	1005.82	-29746.4	0.000000	0.000000	6.651024	-0.020537	NaN	0.000000	0.001550	0.001720	28.0806	0.080277	0.002033	39.4839	91.0052	-164.141	0.010784	0.649368	-0.435767	-0.437109	-0.020537	39.4839	-0.435377	-424694	4.835672E-8	NaN
473	1.000000	0.658696	7.36968e+06	-53439.1	1005.82	-29746.4	0.000000	0.000000	6.659013	0.055461	NaN	0.000000	0.001568	0.001743	28.0804	0.070761	0.001942	36.4448	-115.039	-166.109	0.006806	0.657333	-0.427780	-0.429143	0.055461	36.4448	-0.428921	-344193	-1.611332E-7	NaN
473	1.000000	0.666738	7.36968e+06	-53439.1	1005.82	-29746.4	0.000000	0.000000	6.667055	0.061571	NaN	0.000000	0.001562	0.001714	28.0808	0.066232	0.002036	32.5384	170.122	-162.633	0.055119	0.665367	-0.419738	-0.421109	0.061571	32.5384	-0.421158	-267196	-2.304345E-7	NaN
473	1.000000	0.674692	7.36968e+06	-53439.1	1005.82	-29746.4	0.000000	0.000000	6.675009	0.046051	NaN	0.000000	0.001564	0.001728	28.0804	0.034291	0.002053	16.7	172.409	-163.006	0.025339	0.673357	-0.411784	-0.413120	0.046051	16.7	-0.413852	-210453	-2.188175E-7	NaN
473	1.000000	0.682706	7.36968e+06	-53439.1	1005.82	-29746.4	0.000000	0.000000	6.683023	0.037320	NaN	0.000000	0.001564	0.001757	28.0807	0.035832	0.002045	17.5176	118.213	-165.993	0.057519	0.681375	-0.403770	-0.405101	0.037320	17.5176	-0.405368	-159400	-2.341269E-7	NaN
473	1.000000	0.690672	7.36968e+06	-53439.1	1005.82	-29746.4	0.000000	0.000000	6.690989	0.047604	NaN	0.000000	0.001548	0.001738	28.0804	0.124867	0.001939	64.3949	-67.6956	-163.186	0.014154	0.689416	-0.395804	-0.397061	0.047604	64.3949	-0.396359	-118588	-4.014237E-7	NaN
473	1.000000	0.698714	7.36968e+06	-53439.1	1005.82	-29746.4	0.000000	0.000000	6.699029	0.014459	NaN	0.000000	0.001552	0.001742	28.0805	0.055541	0.001948	28.5129	-39.0783	-166.549	0.028178	0.697369	-0.387763	-0.389108	0.014459	28.5129	-0.388143	-90489.6	-1.597914E-7	NaN
473	1.000000	0.706699	7.36968e+06	-53439.1	1005.82	-29746.4	0.000000	0.000000	6.707013	-0.002064	NaN	0.000000	0.001539	0.001762	28.0806	0.147660	0.001956	75.4966	-135.974	-162.785	-0.065021	0.705396	-0.379778	-0.381080	-0.002064	75.4966	-0.379758	-68613.4	3.008378E-8	NaN
473	1.000000	0.714704	7.36968e+06	-53439.1	1005.82	-29746.4	0.000000	0.000000	6.715021	0.049919	NaN	0.000000	0.001527	0.001751	28.0805	0.107876	0.001934	55.7649	89.2387	-162.05	0.070429	0.713452	-0.371773	-0.373024	0.049919	55.7649	-0.372444	-53865.1	-9.267370E-7	NaN
473	1.000000	0.722689	7.36968e+06	-53439.1	1005.82	-29746.4	0.000000	0.000000	6.723003	-0.017546	NaN	0.000000	0.001538	0.001741	28.0807	0.079428	0.001870	42.48	-83.1281	-164.347	0.014988	0.721377	-0.363787	-0.365099	-0.017546	42.48	-0.363477	-40001.9	4.386361E-7	NaN
473	1.000000	0.730709	7.36968e+06	-53439.1	1005.82	-29746.4	0.000000	0.000000	6.731027	0.087307	NaN	0.000000	0.001547	0.001748	28.0804	0.069681	0.001930	36.1086	-117.41	-162.491	-0.022643	0.729398	-0.355768	-0.357078	0.087307	36.1086	-0.357581	-32874.9	-2.655726E-6	NaN
473	1.000000	0.738697	7.36968e+06	-53439.1	1005.82	-29746.4	0.000000	0.000000	6.739012	0.014350	NaN	0.000000	0.001555	0.001723	28.0809	0.131142	0.002004	65.4534	99.7799	-165.655	-0.044538	0.737338	-0.347779	-0.349138	0.014350	65.4534	-0.347944	-23831.3	-6.021558E-7	NaN
473	1.000000	0.746743	7.36969e+06	-53439.1	1005.82	-29746.4	0.000000	0.000000	6.747058	0.021197	NaN	0.000000	0.001531	0.001741	28.0818	0.141066	0.002174	64.8992	-33.365	-167.301	0.081781	0.745429	-0.339734	-0.341047	0.021197	64.8992	-0.339979	-18249.2	-1.161527E-6	NaN
473	1.000000	0.754713	7.36969e+06	-53439.1	1005.82	-29746.4	0.000000	0.000000	6.755032	0.115649	NaN	0.000000	0.001563	0.001730	28.0818	0.093570	0.002182	42.8777	167.339	-164.41	0.024458	0.753415	-0.331764	-0.333062	0.115649	42.8777	-0.333787	-14820.3	-7.803400E-6	NaN
473	1.000000	0.762738	7.36969e+06	-53439.1	1005.82	-29746.4	0.000000	0.000000	6.763055	0.035449	NaN	0.000000	0.001563	0.001688	28.0819	0.074078	0.001936	38.2726	-158.807	-167.725	0.049758	0.761481	-0.323738	-0.324996	0.035449	38.2726	-0.324433	-10809.6	-3.279402E-6	NaN
473	1.000000	0.770721	7.36969e+06	-53439.1	1005.82	-29746.4	0.000000	0.000000	6.771037	0.040372	NaN	0.000000	0.001565	0.001720	28.0819	0.021670	0.002018	10.7389	-26.6462	-165.222	-0.015020	0.769379	-0.315756	-0.317098	0.040372	10.7389	-0.318575	-8864.64	-4.554265E-6	NaN
473	1.000000	0.778715	7.36969e+06	-53439.1	1005.82	-29746.4	0.000000	0.000000	6.779032	0.058707	NaN	0.000000	0.001552	0.001715	28.082	0.044898	0.002009	22.3446	58.0644	-168.201	-0.008866	0.777485	-0.307761	-0.308992	0.058707	22.3446	-0.309732	-6562.8	-8.945454E-6	NaN
473	1.000000	0.786725	7.36969e+06	-53439.1	1005.82	-29746.4	0.000000	0.000000	6.787039	-0.006385	NaN	0.000000	0.001534	0.001709	28.0821	0.099643	0.001983	50.2466	89.8527	-165.526	0.001831	0.785427	-0.299752	-0.301049	-0.006385	50.2466	-0.299657	-4650.77	1.372839E-6	NaN
473	1.000000	0.794750	7.36969e+06	-53439.1	1005.82	-29746.4	0.000000	0.000000	6.795062	-0.051194	NaN	0.000000	0.001579	0.001730	28.0817	0.123441	0.001938	63.6902	147.855	-166.297	-0.001884	0.793447	-0.291727	-0.293029	-0.051194	63.6902	-0.291124	-3468.47	1.475979E-5	NaN
473	1.000000	0.802706	7.36969e+06	-53439.1	1005.82	-29746.4	0.000000	0.000000	6.803020	-0.014036	NaN	0.000000	0.001559	0.001766	28.0818	0.153677	0.002063	74.5095	-152.893	-167.095	-0.040217	0.801487	-0.283771	-0.284989	-0.014036	74.5095	-0.283629	-2677.01	5.243319E-6	NaN
473	1.000000	0.810741	7.36969e+06	-53439.1	1005.82	-29746.4	0.000000	0.000000	6.811055	-0.019772	NaN	0.000000	0.001553	0.001749	28.0819	0.090118	0.001917	47.0112	-103.154	-164.939	0.097249	0.809475	-0.275735	-0.277001	-0.019772	47.0112	-0.275420	-2012.61	9.824196E-6	NaN
473	1.000000	0.818739	7.36969e+06	-53439.1	1005.82	-29746.4	0.000000	0.000000	6.819053	-0.001314	NaN	0.000000	0.001577	0.001727	28.0824	0.073536	0.002064	35.6301	6.265982	-164.521	0.087754	0.817445	-0.267738	-0.269031	-0.001314	35.6301	-0.267710	-1537.12	8.545254E-7	NaN
473	1.000000	0.826741	7.36969e+06	-53439.1	1005.82	-29746.4	0.000000	0.000000	6.827059	0.076095	NaN	0.000000	0.001559	0.001777	28.0819	0.024179	0.002016	11.9953	-118.642	-161.253	0.031655	0.825479	-0.259735	-0.260998	0.076095	11.9953	-0.264493	-1372.93	-5.542543E-5	NaN
473	1.000000	0.834752	7.36969e+06	-53439.1	1005.82	-29746.4	0.000000	0.000000	6.835069	0.048099	NaN	0.000000	0.001589	0.001742	28.0818	0.074145	0.001902	38.9837	-4.222319	-163.248	0.011104	0.833455	-0.251724	-0.253022	0.048099	38.9837	-0.252649	-903.424	-5.324037E-5	NaN
473	1.000000	0.842762	7.36969e+06	-53439.1	1005.82	-29746.4	0.000000	0.000000	6.843077	0.002652	NaN	0.000000	0.001566	0.001729	28.0819	0.145274	0.002035	71.3885	81.0038	-163.951	-0.039108	0.841409	-0.243715	-0.245068	0.002652	71.3885	-0.243743	-657.505	-4.034114E-6	NaN
473	1.000000	0.850772	7.36969e+06	-53439.1	1005.82	-29746.4	0.000000	0.000000	6.851086	-0.008414	NaN	0.000000	0.001593	0.001742	28.082	0.025153	0.002019	12.46	51.8969	-162.835	0.015648	0.849452	-0.235705	-0.237024	-0.008414	12.46	-0.235199	-483.466	1.740311E-5	NaN
473	1.000000	0.858773	7.36969e+06	-53439.1	1005.82	-29746.4	0.000000	0.000000	6.859090	0.047525	NaN	0.000000	0.001572	0.001773	28.083	0.075608	0.002044	36.9933	-30.0203	-167.154	0.077931	0.857432	-0.227703	-0.229044	0.047525	36.9933	-0.228667	-381.46	-0.000125	NaN
473	1.000000	0.866794	7.36969e+06	-53439.1	1005.82	-29746.4	0.000000	0.000000	6.867108	-0.026661	NaN	0.000000	0.001586	0.001768	28.0818	0.096665	0.002072	46.6584	-110.156	-164.954	0.040795	0.865448	-0.219682	-0.221029	-0.026661	46.6584	-0.219254	-270.238	9.865576E-5	NaN
473	1.000000	0.874783	7.36969e+06	-53439.1	1005.82	-29746.4	0.000000	0.000000	6.875098	0.012580	NaN	0.000000	0.001562	0.001752	28.0819	0.038330	0.001952	19.6399	-108.393	-164.567	0.018347	0.873514	-0.211693	-0.212963	0.012580	19.6399	-0.212174	-207.955	-6.049546E-5	NaN
473	1.000000	0.882791	7.36969e+06	-53439.1	1005.82	-29746.4	0.000000	0.000000	6.883107	0.023884	NaN	0.000000	0.001577	0.001717	28.0807	0.112557	0.001995	56.4198	-87.9043	-167.084	0.001438	0.881502	-0.203685	-0.204975	0.023884	56.4198	-0.204003	-153.207	-0.000156	NaN
473	1.000000	0.890786	7.36969e+06	-53439.1	1005.82	-29746.4	0.000000	0.000000	6.891099	-0.038815	NaN	0.000000	0.001567	0.001776	28.0808	0.048321	0.001959	24.663	20.0634	-164.394	0.019364	0.889468	-0.195690	-0.197008	-0.038815	24.663	-0.194510	-106.926	0.000363	NaN
473	1.000000	0.898812	7.36969e+06	-53439.1	1005.82	-29746.4	0.000000	0.000000	6.899130	0.073149	NaN	0.000000	0.001552	0.001775	28.0807	0.047612	0.002055	23.1741	110.255	-163.575	0.062831	0.897498	-0.187664	-0.188978	0.073149	23.1741	-0.190032	-90.0657	-0.000812	NaN
473	1.000000	0.906827	7.36969e+06	-53439.1	1005.82	-29746.4	0.000000	0.000000	6.907143	0.036336	NaN	0.000000	0.001537	0.001761	28.0806	0.100753	0.002071	48.6432	115.746	-166.735	0.025055	0.905488	-0.179650	-0.180989	0.036336	48.6432	-0.180210	-61.5227	-0.000591	NaN
473	1.000000	0.914794	7.36969e+06	-53439.1	1005.82	-29746.4	0.000000	0.000000	6.915111	0.053107	NaN	0.000000	0.001561	0.001730	28.0809	0.077927	0.002003	38.9012	-123.323	-163.177	-0.006321	0.913438	-0.171682	-0.173038	0.053107	38.9012	-0.172706	-45.7581	-0.001161	NaN
473	1.000000	0.922773	7.36969e+06	-53439.1	1005.82	-29746.4	0.000000	0.000000	6.923088	0.014972	NaN	0.000000	0.001560	0.001765	28.0807	0.087174	0.002106	41.3861	24.2658	-168.305	0.037136	0.921483	-0.163704	-0.164993	0.014972	41.3861	-0.163975	-32.2322	-0.000464	NaN
473	1.000000	0.930829	7.36969e+06	-53439.1	1005.82	-29746.4	0.000000	0.000000	6.931148	0.104362	NaN	0.000000	0.001547	0.001763	28.0807	0.088267	0.002027	43.5475	67.6978	-168.426	0.056065	0.929527	-0.155648	-0.156949	0.104362	43.5475	-0.157445	-24.6855	-0.004228	NaN
473	1.000000	0.938774	7.36969e+06	-53439.1	1005.82	-29746.4	0.000000	0.000000	6.939090	0.022779	NaN	0.000000	0.001560	0.001781	28.0808	0.149818	0.001992	75.21	168.307	-164.788	0.084493	0.937455	-0.147702	-0.149021	0.022779	75.21	-0.147930	-16.601	-0.001372	NaN
473	1.000000	0.946824	7.36969e+06	-53439.1	1005.82	-29746.4	0.000000	0.000000	6.947138	-0.019938	NaN	0.000000	0.001573	0.001736	28.0808	0.113330	0.001988	57.0069	-39.8455	-163.174	-0.050558	0.945530	-0.139653	-0.140946	-0.019938	57.0069	-0.139390	-11.5214	0.001731	NaN
473	1.000000	0.954810	7.36969e+06	-53439.1	1005.82	-29746.4	0.000000	0.000000	6.955125	0.004169	NaN	0.000000	0.001589	0.001714	28.0807	0.087386	0.002106	41.4859	-132.519	-163.166	-0.011234	0.953499	-0.131667	-0.132978	0.004169	41.4859	-0.131742	-8.236631	-0.000506	NaN
473	1.000000	0.962834	7.36969e+06	-53439.1	1005.82	-29746.4	0.000000	0.000000	6.963151	0.038928	NaN	0.000000	0.001568	0.001723	28.0808	0.005004	0.002040	2.452883	125.051	-162.339	0.041490	0.961485	-0.123642	-0.124992	0.038928	2.452883	-0.135545	-9.742859	-0.003996	NaN
473	1.000000	0.970815	7.36969e+06	-53439.1	1005.82	-29746.4	0.000000	0.000000	6.971132	0.046942	NaN	0.000000	0.001614	0.001745	28.0809	0.027901	0.002039	13.6828	-117.028	-165.276	0.047560	0.969524	-0.115662	-0.116952	0.046942	13.6828	-0.118235	-4.449598	-0.010550	NaN
473	1.000000	0.978817	7.36969e+06	-53439.1	1005.82	-29746.4	0.000000	0.000000	6.979133	0.034029	NaN	0.000000	0.001578	0.001737	28.0805	0.095912	0.001993	48.1126	-142.421	-170.42	0.007502	0.977531	-0.107660	-0.108945	0.034029	48.1126	-0.108190	-2.751342	-0.012368	NaN
473	1.000000	0.986815	7.36969e+06	-53439.1	1005.82	-29746.4	0.000000	0.000000	6.987133	0.083730	NaN	0.000000	0.001595	0.001704	28.0808	0.071579	0.001995	35.8721	118.388	-163.043	0.061931	0.985556	-0.099662	-0.100921	0.083730	35.8721	-0.101412	-1.963205	-0.042650	NaN
473	1.000000	0.994841	7.36969e+06	-53439.1	1005.82	-29746.4	0.000000	0.000000	6.995158	0.053106	NaN	0.000000	0.001592	0.001731	28.0806	0.074533	0.002080	35.8253	64.3452	-163.676	0.112940	0.993526	-0.091635	-0.092950	0.053106	35.8253	-0.092747	-1.252410	-0.042403	NaN
473	1.000000	1.002845	7.36969e+06	-53439.1	1005.82	-29746.4	0.000000	0.000000	7.003160	-0.005764	NaN	0.000000	0.001610	0.001738	28.0807	0.045094	0.001837	24.5511	106.72	-163.864	-0.053120	1.001533	-0.083631	-0.084943	-0.005764	24.5511	-0.083455	-0.753542	0.007649	NaN
473	1.000000	1.010805	7.36969e+06	-53439.1	1005.82	-29746.4	0.000000	0.000000	7.011118	-0.026840	NaN	0.000000	0.001542	0.001693	28.0806	0.114940	0.001898	60.5607	-82.4278	-164.977	-0.004847	1.009521	-0.075672	-0.076956	-0.026840	60.5607	-0.075339	-0.471289	0.056949	NaN
473	1.000000	1.018877	7.36969e+06	-53439.1	1005.82	-29746.4	0.000000	0.000000	7.019195	0.083071	NaN	0.000000	0.001535	0.001703	28.0818	0.053956	0.002004	26.9191	-50.3826	-165.418	0.111606	1.017529	-0.067600	-0.068948	0.083071	26.9191	-0.069915	-0.339313	-0.244822	NaN
473	1.000000	1.026826	7.36969e+06	-53439.1	1005.82	-29746.4	0.000000	0.000000	7.027142	0.048199	NaN	0.000000	0.001538	0.001752	28.0821	0.086161	0.001942	44.3668	-55.2114	-165.401	-0.035899	1.025506	-0.059651	-0.060971	0.048199	44.3668	-0.060466	-0.185711	-0.259539	NaN
473	1.000000	1.034854	7.36969e+06	-53439.1	1005.82	-29746.4	0.000000	0.000000	7.035169	0.006840	NaN	0.000000	0.001529	0.001760	28.0818	0.019473	0.001954	9.963534	-45.9621	-164.271	-0.010667	1.033546	-0.051622	-0.052930	0.006840	9.963534	-0.052137	-0.105827	-0.064635	NaN
473	1.000000	1.042849	7.36969e+06	-53439.1	1005.82	-29746.4	0.000000	0.000000	7.043166	0.054804	NaN	0.000000	0.001546	0.001768	28.0818	0.111058	0.001874	59.26	126.57	-168.229	0.064934	1.041511	-0.043628	-0.044965	0.054804	59.26	-0.044321	-0.061268	-0.894496	NaN
473	1.000000	1.050827	7.36969e+06	-53439.1	1005.82	-29746.4	0.000000	0.000000	7.051143	0.027283	NaN	0.000000	0.001556	0.001757	28.082	0.092875	0.001837	50.5711	165.416	-165.315	0.043331	1.049511	-0.035650	-0.036966	0.027283	50.5711	-0.036054	-0.034409	-0.792891	NaN
473	1.000000	1.058863	7.36969e+06	-53439.1	1005.82	-29746.4	0.000000	0.000000	7.059176	-0.027990	NaN	0.000000	0.001516	0.001730	28.0819	0.115116	0.001965	58.5856	-164.251	-166.139	0.057395	1.057556	-0.027614	-0.028920	-0.027990	58.5856	-0.027255	-0.019358	1.445912	NaN
473	1.000000	1.066873	7.36969e+06	-53439.1	1005.82	-29746.4	0.000000	0.000000	7.067189	0.034029	NaN	0.000000	0.001558	0.001719	28.082	0.070598	0.002029	34.8002	-167.909	-161.795	0.013834	1.065597	-0.019604	-0.020880	0.034029	34.8002	-0.020337	-0.012811	-2.656170	NaN
473	1.000000	1.074845	7.36969e+06	-53439.1	1005.82	-29746.4	0.000000	0.000000	7.075164	0.095993	NaN	0.000000	0.001573	0.001704	28.082	0.157412	0.002008	78.3835	-90.0867	-162.653	0.071492	1.073524	-0.011632	-0.012952	0.095993	78.3835	-0.012550	-0.007843	-12.2386	NaN
473	1.000000	1.082844	7.36969e+06	-53439.1	1005.82	-29746.4	0.000000	0.000000	7.083185	0.619491	NaN	0.000000	0.001563	0.001730	28.0818	0.975526	0.001883	518.207	13.4573	-168.216	0.114789	1.081504	-0.003632	-0.004972	0.619491	518.207	-0.004529	-0.003118	-198.651	NaN
473	1.000000	1.090688	7.36969e+06	-53439.1	1005.82	-29746.4	0.000000	0.000000	7.091334	8.058850	NaN	0.000000	0.001571	0.001725	28.082	7.751658	0.001725	4494.15	11.834	-169.555	6.597689	1.089475	0.004211	0.002998	8.058850	4494.15	0.002866	0.002268	3553.67	86223
473	2.000000	1.093391	7.36969e+06	-53439.1	1005.82	-29746.4	0.000000	0.000000	7.094138	10.512	NaN	0.000000	0.001553	0.001737	28.082	10.5784	0.001686	6274.65	7.136126	-172.403	9.808731	1.093070	0.006915	0.006593	10.512	6274.65	0.005658	0.004742	2216.69	83247.9
473	2.000000	1.095399	7.36969e+06	-53439.1	1005.82	-29746.4	0.000000	0.000000	7.096239	12.7739	NaN	0.000000	0.001585	0.001700	28.0821	12.8832	0.001712	7525.74	9.721980	-175.643	12.6869	1.095076	0.008923	0.008600	12.7739	7525.74	0.007650	0.006684	1910.97	84098.5
473	2.000000	1.097368	7.36969e+06	-53439.1	1005.82	-29746.4	0.000000	0.000000	7.098350	16.2261	NaN	0.000000	0.001555	0.001694	28.0821	14.153	0.001642	8618.51	2.946742	-170.005	16.2546	1.096997	0.010891	0.010520	16.2261	8618.51	0.009479	0.008608	1884.93	84868.3
473	2.000000	1.099309	7.36969e+06	-53439.1	1005.82	-29746.4	0.000000	0.000000	7.100446	19.9826	NaN	0.000000	0.001574	0.001717	28.0821	17.2023	0.001778	9673.62	7.523808	-175.868	19.0781	1.099042	0.012833	0.012565	19.9826	9673.62	0.011283	0.010643	1877.56	85670.9
473	2.000000	1.101285	7.36969e+06	-53439.1	1005.82	-29746.4	0.000000	0.000000	7.102554	23.2025	NaN	0.000000	0.001573	0.001738	28.0827	18.7102	0.001744	10728.8	7.175762	-177.47	21.7487	1.100994	0.014808	0.014517	23.2025	10728.8	0.013186	0.012942	1792.79	86163.5
473	2.000000	1.103297	7.36969e+06	-53439.1	1005.82	-29746.4	0.000000	0.000000	7.104724	27.0447	NaN	0.000000	0.001547	0.001698	28.0821	21.3984	0.001778	12032.8	6.908525	-178.494	25.9009	1.103032	0.016821	0.016556	27.0447	12032.8	0.015135	0.015466	1748.66	88399.9
473	2.000000	1.105356	7.36969e+06	-53439.1	1005.82	-29746.4	0.000000	0.000000	7.107018	32.7392	NaN	0.000000	0.001509	0.001728	28.0818	23.4322	0.001889	12405.4	5.153349	-175.468	33.2286	1.105045	0.018880	0.018568	32.7392	12405.4	0.016900	0.017904	1828.64	84706.2
473	2.000000	1.107295	7.36969e+06	-53439.1	1005.82	-29746.4	0.000000	0.000000	7.109142	37.2558	NaN	0.000000	0.001510	0.001722	28.0807	24.9874	0.001858	13447.6	6.571098	-177.725	36.6556	1.106971	0.020818	0.020494	37.2558	13447.6	0.018741	0.020602	1808.39	85598.4
473	2.000000	1.109287	7.36969e+06	-53439.1	1005.82	-29746.4	0.000000	0.000000	7.111465	45.2932	NaN	0.000000	0.001533	0.001708	28.0808	26.5961	0.001747	15224.4	1.141338	-173.972	44.4276	1.108983	0.022810	0.022506	45.2932	15224.4	0.020579	0.023461	1930.61	90812
473	2.000000	1.111324	7.36969e+06	-53439.1	1005.82	-29746.4	0.000000	0.000000	7.113622	48.2334	NaN	0.000000	0.001526	0.001716	28.0812	28.4422	0.001737	16372.6	6.463419	179.543	48.9788	1.111077	0.024847	0.024600	48.2334	16372.6	0.022638	0.026858	1795.86	91275.5
473	2.000000	1.113296	7.36969e+06	-53439.1	1005.82	-29746.4	0.000000	0.000000	7.115901	55.6865	NaN	0.000000	0.001550	0.001712	28.0811	31.195	0.001858	16788.1	5.758310	-179.585	55.3094	1.112977	0.026819	0.026500	55.6865	16788.1	0.024331	0.029811	1868	88836.2
473	2.000000	1.115307	7.36969e+06	-53439.1	1005.82	-29746.4	0.000000	0.000000	7.118150	61.4598	NaN	0.000000	0.001541	0.001745	28.081	32.4279	0.001698	19102.4	5.928112	179.295	60.7934	1.114991	0.028831	0.028515	61.4598	19102.4	0.026418	0.033645	1826.7	95148
473	2.000000	1.117275	7.36969e+06	-53439.1	1005.82	-29746.4	0.000000	0.000000	7.120480	70.2833	NaN	0.000000	0.001572	0.001720	28.0808	34.2086	0.001668	20503.8	4.858350	179.144	69.5803	1.116969	0.030798	0.030493	70.2833	20503.8	0.028227	0.037150	1891.88	97191.4
473	2.000000	1.119310	7.36969e+06	-53439.1	1005.82	-29746.4	0.000000	0.000000	7.122836	78.0744	NaN	0.000000	0.001554	0.001714	28.0809	37.1678	0.001790	20766.4	3.846280	-179.377	78.412	1.119004	0.032833	0.032527	78.0744	20766.4	0.030013	0.040771	1914.93	93963
473	2.000000	1.121308	7.36969e+06	-53439.1	1005.82	-29746.4	0.000000	0.000000	7.125151	85.781	NaN	0.000000	0.001538	0.001708	28.081	37.3782	0.001682	22218.4	1.530673	-177.621	85.9985	1.120938	0.034831	0.034462	85.781	22218.4	0.031935	0.044851	1912.59	95852.1
473	2.000000	1.123237	7.36969e+06	-53439.1	1005.82	-29746.4	0.000000	0.000000	7.127354	92.4589	NaN	0.000000	0.001563	0.001705	28.0811	40.9558	0.001822	22475	5.322920	178.786	90.215	1.122939	0.036760	0.036462	92.4589	22475	0.033675	0.048706	1898.32	93043.1
473	2.000000	1.125283	7.36969e+06	-53439.1	1005.82	-29746.4	0.000000	0.000000	7.129732	100.521	NaN	0.000000	0.001555	0.001732	28.0807	43.4322	0.001865	23283.6	9.358426	174.706	98.7144	1.124880	0.038806	0.038403	100.521	23283.6	0.035568	0.053077	1893.86	92335.9
473	2.000000	1.127291	7.36969e+06	-53439.1	1005.82	-29746.4	0.000000	0.000000	7.132167	110.894	NaN	0.000000	0.001591	0.001720	28.081	43.7224	0.001706	25630.3	1.850475	-179.53	110.297	1.126892	0.040814	0.040416	110.894	25630.3	0.037569	0.057898	1915.34	97318.5
473	2.000000	1.129235	7.36969e+06	-53439.1	1005.82	-29746.4	0.000000	0.000000	7.134344	116.556	NaN	0.000000	0.001605	0.001737	28.0807	47.4752	0.001768	26848.2	6.093632	175.452	113.965	1.128989	0.042759	0.042512	116.556	26848.2	0.039503	0.062749	1857.49	97922.8
473	2.000000	1.131269	7.36969e+06	-53439.1	1005.82	-29746.4	0.000000	0.000000	7.136859	128.257	NaN	0.000000	0.001530	0.001729	28.0813	47.6136	0.001771	26883.1	1.968525	-179.611	128.185	1.130899	0.044792	0.044422	128.257	26883.1	0.041214	0.067204	1908.46	94744.7
473	2.000000	1.133203	7.36969e+06	-53439.1	1005.82	-29746.4	0.000000	0.000000	7.139183	137.738	NaN	0.000000	0.001558	0.001734	28.0811	50.88	0.001806	28165.7	4.857177	176.764	134.77	1.132913	0.046726	0.046436	137.738	28165.7	0.043058	0.072171	1908.49	95788.3
473	2.000000	1.135278	7.36969e+06	-53439.1	1005.82	-29746.4	0.000000	0.000000	7.141559	145.075	NaN	0.000000	0.001557	0.001708	28.0807	53.4258	0.001910	27971	8.320454	174.63	145.114	1.134873	0.048801	0.048396	145.075	27971	0.044911	0.077335	1875.93	91895.1
473	2.000000	1.137309	7.36969e+06	-53439.1	1005.82	-29746.4	0.000000	0.000000	7.143979	154.528	NaN	0.000000	0.001568	0.001718	28.0811	54.1091	0.001640	32995.9	4.603394	175.447	155.878	1.136924	0.050832	0.050447	154.528	32995.9	0.047320	0.084309	1832.86	103824
473	2.000000	1.139261	7.36969e+06	-53439.1	1005.82	-29746.4	0.000000	0.000000	7.146297	163.413	NaN	0.000000	0.001522	0.001712	28.0809	57.1889	0.001883	30378.1	3.221598	177.588	161.638	1.139022	0.052784	0.052545	163.413	30378.1	0.048750	0.088588	1844.63	93249.2
473	2.000000	1.141226	7.36969e+06	-53439.1	1005.82	-29746.4	0.000000	0.000000	7.148834	177.316	NaN	0.000000	0.001577	0.001726	28.0822	58.2368	0.001768	32941.9	4.012684	176.047	175.292	1.140878	0.054749	0.054401	177.316	32941.9	0.050712	0.094627	1873.84	97839.6
473	2.000000	1.143258	7.36969e+06	-53439.1	1005.82	-29746.4	0.000000	0.000000	7.151314	188.228	NaN	0.000000	0.001562	0.001712	28.0821	60.282	0.001839	32783.9	7.057443	173.69	189.979	1.142961	0.056781	0.056484	188.228	32783.9	0.052475	0.100217	1878.2	94615.7
473	2.000000	1.145284	7.36969e+06	-53439.1	1005.82	-29746.4	0.000000	0.000000	7.153929	202.534	NaN	0.000000	0.001540	0.001707	28.0824	61.3907	0.001760	34883	5.913870	174.943	201.794	1.144856	0.058807	0.058380	202.534	34883	0.054453	0.106672	1898.66	97580.1
473	2.000000	1.147221	7.36969e+06	-53439.1	1005.82	-29746.4	0.000000	0.000000	7.156263	212.179	NaN	0.000000	0.001564	0.001752	28.0824	62.77	0.001779	35276.5	4.454115	175.884	209.193	1.146867	0.060745	0.060391	212.179	35276.5	0.056233	0.112650	1883.54	96027.2
473	2.000000	1.149305	7.36969e+06	-53439.1	1005.82	-29746.4	0.000000	0.000000	7.158786	222.844	NaN	0.000000	0.001591	0.001734	28.0822	66.008	0.001628	40544.7	4.393302	173.559	223.346	1.148971	0.062829	0.062494	222.844	40544.7	0.058707	0.121211	1838.48	106399
473	2.000000	1.151230	7.36969e+06	-53439.1	1005.82	-29746.4	0.000000	0.000000	7.161337	238.08	NaN	0.000000	0.001514	0.001760	28.0821	66.3751	0.001673	39671.9	3.136082	175.43	236.728	1.150908	0.064753	0.064431	238.08	39671.9	0.060252	0.126714	1878.88	101823
473	2.000000	1.153263	7.36969e+06	-53439.1	1005.82	-29746.4	0.000000	0.000000	7.163714	246.433	NaN	0.000000	0.001506	0.001718	28.082	70.2897	0.001701	41314.7	3.758172	174.87	247.768	1.152825	0.066787	0.066349	246.433	41314.7	0.062313	0.134233	1835.86	103026
473	2.000000	1.155173	7.36969e+06	-53439.1	1005.82	-29746.4	0.000000	0.000000	7.166080	257.517	NaN	0.000000	0.001534	0.001746	28.0825	71.8431	0.001778	40407.8	3.616853	175.677	251.189	1.154824	0.068697	0.068348	257.517	40407.8	0.063917	0.140228	1836.42	98587.5
473	2.000000	1.157196	7.36969e+06	-53439.1	1005.82	-29746.4	0.000000	0.000000	7.168700	272.022	NaN	0.000000	0.001502	0.001745	28.0824	74.2506	0.001710	43423.8	7.961460	170.49	269.008	1.156874	0.070720	0.070398	272.022	43423.8	0.066022	0.148282	1834.49	103028
473	2.000000	1.159241	7.36969e+06	-53439.1	1005.82	-29746.4	0.000000	0.000000	7.171197	283.025	NaN	0.000000	0.001562	0.001753	28.0821	77.3787	0.001888	40975.6	6.189868	172.723	282.511	1.158928	0.072765	0.072451	283.025	40975.6	0.067585	0.154401	1833.05	95273.6
473	2.000000	1.161155	7.36969e+06	-53439.1	1005.82	-29746.4	0.000000	0.000000	7.173569	294.161	NaN	0.000000	0.001558	0.001753	28.0821	78.0061	0.001807	43169.1	5.484137	172.448	289.955	1.160928	0.074678	0.074451	294.161	43169.1	0.069568	0.162334	1812.07	97890.8
473	2.000000	1.163219	7.36969e+06	-53439.1	1005.82	-29746.4	0.000000	0.000000	7.176368	312.033	NaN	0.000000	0.001529	0.001752	28.082	80.2152	0.001868	42943.5	8.145704	170.53	310.764	1.162865	0.076742	0.076388	312.033	42943.5	0.071293	0.169387	1842.13	95330.3
473	2.000000	1.165234	7.36969e+06	-53439.1	1005.82	-29746.4	0.000000	0.000000	7.178787	321.842	NaN	0.000000	0.001557	0.001772	28.0825	82.0563	0.001805	45468	5.696500	171.834	319.401	1.165023	0.078758	0.078546	321.842	45468	0.073449	0.178401	1804.04	98351.5
473	2.000000	1.167122	7.36969e+06	-53439.1	1005.82	-29746.4	0.000000	0.000000	7.181296	336.958	NaN	0.000000	0.001524	0.001761	28.0822	82.6765	0.001755	47109.8	2.626396	175.216	331.816	1.166911	0.080646	0.080434	336.958	47109.8	0.075281	0.186232	1809.34	99737.2
473	2.000000	1.169242	7.36969e+06	-53439.1	1005.82	-29746.4	0.000000	0.000000	7.184189	355.756	NaN	0.000000	0.001551	0.001765	28.0821	86.0308	0.001894	45422.6	6.291056	171.732	356.917	1.168878	0.082765	0.082402	355.756	45422.6	0.076891	0.193245	1840.96	94404.3
473	2.000000	1.171227	7.36969e+06	-53439.1	1005.82	-29746.4	0.000000	0.000000	7.186762	370.032	NaN	0.000000	0.001534	0.001761	28.0823	86.8285	0.001861	46664.2	6.516309	171.405	368.558	1.170911	0.084751	0.084435	370.032	46664.2	0.078803	0.201731	1834.28	94922.8
473	2.000000	1.173214	7.36969e+06	-53439.1	1005.82	-29746.4	0.000000	0.000000	7.189481	387.83	NaN	0.000000	0.001570	0.001789	28.0821	88.0933	0.001800	48942	5.578704	171.969	387.166	1.172835	0.086738	0.086358	387.83	48942	0.080795	0.210749	1840.24	97403
473	2.000000	1.175262	7.36969e+06	-53439.1	1005.82	-29746.4	0.000000	0.000000	7.192045	400.388	NaN	0.000000	0.001547	0.001763	28.081	90.6763	0.001889	47997.9	5.588706	172.706	401.75	1.174907	0.088785	0.088430	400.388	47997.9	0.082529	0.218755	1830.3	93759.7
473	2.000000	1.177137	7.36969e+06	-53439.1	1005.82	-29746.4	0.000000	0.000000	7.194614	417.261	NaN	0.000000	0.001551	0.001758	28.0808	91.8479	0.001789	51334.3	7.935645	169.067	412.458	1.176833	0.090660	0.090357	417.261	51334.3	0.084564	0.228326	1827.47	98152.8
473	2.000000	1.179199	7.36969e+06	-53439.1	1005.82	-29746.4	0.000000	0.000000	7.197501	437.309	NaN	0.000000	0.001563	0.001767	28.0808	94.144	0.001748	53857.9	3.391969	173.482	436.397	1.178889	0.092722	0.092413	437.309	53857.9	0.086633	0.238251	1835.49	100810
473	2.000000	1.181182	7.36969e+06	-53439.1	1005.82	-29746.4	0.000000	0.000000	7.199940	448.393	NaN	0.000000	0.001553	0.001727	28.0809	94.8085	0.001719	55138.6	4.035004	172.552	446.59	1.180928	0.094706	0.094451	448.393	55138.6	0.088607	0.247907	1808.71	101178
473	2.000000	1.183289	7.36969e+06	-53439.1	1005.82	-29746.4	0.000000	0.000000	7.202700	464.276	NaN	0.000000	0.001537	0.001748	28.0809	97.3637	0.001724	56465.9	1.491276	175.124	467.489	1.182877	0.096812	0.096401	464.276	56465.9	0.090646	0.258067	1799.05	101553
473	2.000000	1.185315	7.36969e+06	-53439.1	1005.82	-29746.4	0.000000	0.000000	7.205307	478.409	NaN	0.000000	0.001546	0.001764	28.0814	100.681	0.001773	56790.2	6.194858	170.639	482.881	1.184857	0.098838	0.098380	478.409	56790.2	0.092520	0.267577	1787.93	100305
473	2.000000	1.187179	7.36969e+06	-53439.1	1005.82	-29746.4	0.000000	0.000000	7.208050	499.767	NaN	0.000000	0.001572	0.001731	28.0807	102.922	0.001886	54560.4	8.634118	168.508	498.209	1.186787	0.100702	0.100311	499.767	54560.4	0.093832	0.274330	1821.77	95173.1
473	2.000000	1.189260	7.36969e+06	-53439.1	1005.82	-29746.4	0.000000	0.000000	7.210695	513.509	NaN	0.000000	0.001559	0.001741	28.081	104.824	0.001777	58977.9	6.285776	170.244	515.088	1.188833	0.102783	0.102356	513.509	58977.9	0.096253	0.286992	1789.28	100584
473	2.000000	1.190098	7.36969e+06	-53439.1	1005.82	-29746.4	0.000000	0.000000	7.211827	520.643	NaN	0.000000	0.001596	0.001748	28.0809	105.1	0.001778	59101	5.857733	169.765	515.135	1.189908	0.103621	0.103431	520.643	59101	0.097014	0.291030	1788.97	100092