File: remote_trans/data/nanoindenter/0828-1/data/Data_2025-08-06,11h17m57s/2025-07-22_16-23-58_1_428.txt
2025-07-22, 16:23:58, 1
Index	Phase	Displacement	Time	Pos X	Pos Y	Pos Z	Rot A	Rot B	Piezo Z	Force A	Force B	Gripper	Voltage A	Voltage B	Temperature	Amplitude force	Amplitude pos	Stiffness	Phase shift	Phase excitation	Force A raw	Displacement raw	HMax	HMax raw	Real Force	Real Stiffness	Contact Depth	Area	Hardness	Reduced Mod.
[#]	[#]	[um]	[s]	[um]	[um]	[um]	[m°]	[m°]	[um]	[uN]	[uN]	[V]	[V]	[V]	[°C]	[uN]	[um]	[N/m]	[°]	[°]	[uN]	[um]	[um]	[um]	[uN]	[N/m]	[um]	[um^2]	[MPa]	[MPa]
428	1.000000	0.002650	7.36924e+06	-55689.1	1005.82	-29741	0.000000	0.000000	6.002796	-0.014888	NaN	0.000000	0.001751	0.001763	28.0813	0.053106	0.001022	51.941	-58.9512	-170.295	0.076945	0.001423	-1.026714	-1.027941	-0.014888	51.941	-1.026500	-5.156962E+13	2.887022E-16	NaN
428	1.000000	0.010616	7.36924e+06	-55689.1	1005.82	-29741	0.000000	0.000000	6.010765	0.028518	NaN	0.000000	0.001733	0.001755	28.081	0.079500	0.000866	91.7638	111.153	-170.603	0.069536	0.009270	-1.018748	-1.020094	0.028518	91.7638	-1.018981	-4.085449E+13	-6.980399E-16	NaN
428	1.000000	0.018613	7.36924e+06	-55689.1	1005.82	-29741.1	0.000000	0.000000	6.018764	0.087915	NaN	0.000000	0.001738	0.001754	28.0815	0.182399	0.001620	112.59	106.288	-165.001	0.021696	0.017259	-1.010751	-1.012105	0.087915	112.59	-1.011337	-3.223832E+13	-2.727021E-15	NaN
428	1.000000	0.026640	7.36924e+06	-55689.1	1005.82	-29741.1	0.000000	0.000000	6.026787	-0.010272	NaN	0.000000	0.001750	0.001738	28.0811	0.027092	0.001876	14.4426	72.9435	-167.804	-0.035093	0.025324	-1.002724	-1.004040	-0.010272	14.4426	-1.002191	-2.428088E+13	4.230667E-16	NaN
428	1.000000	0.034630	7.36924e+06	-55689.1	1005.82	-29741.1	0.000000	0.000000	6.034778	0.023893	NaN	0.000000	0.001729	0.001767	28.081	0.068572	0.002048	33.4757	65.6295	-163.811	-0.026607	0.033303	-0.994734	-0.996061	0.023893	33.4757	-0.995270	-1.959193E+13	-1.219529E-15	NaN
428	1.000000	0.042581	7.36924e+06	-55689.1	1005.82	-29741.1	0.000000	0.000000	6.042727	-0.036962	NaN	0.000000	0.001738	0.001742	28.0819	0.012597	0.001887	6.674956	-133.545	-166.435	-0.062598	0.041317	-0.986783	-0.988047	-0.036962	6.674956	-0.982630	-1.323844E+13	2.792005E-15	NaN
428	1.000000	0.050594	7.36924e+06	-55689.1	1005.82	-29741.1	0.000000	0.000000	6.050741	-0.004792	NaN	0.000000	0.001730	0.001736	28.0811	0.070051	0.002000	35.0201	-7.408404	-163.212	-0.011025	0.049316	-0.978770	-0.980048	-0.004792	35.0201	-0.978668	-1.170736E+13	4.092994E-16	NaN
428	1.000000	0.058595	7.36924e+06	-55689.1	1005.82	-29741.1	0.000000	0.000000	6.058742	0.003966	NaN	0.000000	0.001722	0.001775	28.0816	0.087681	0.002090	41.9562	176.266	-166.268	-0.072952	0.057310	-0.970770	-0.972054	0.003966	41.9562	-0.970841	-9.183127E+12	-4.318608E-16	NaN
428	1.000000	0.066607	7.36924e+06	-55689.1	1005.82	-29741.1	0.000000	0.000000	6.066753	-0.034551	NaN	0.000000	0.001726	0.001726	28.0813	0.060448	0.002028	29.8109	-166.476	-165.979	0.002722	0.065311	-0.962757	-0.964053	-0.034551	29.8109	-0.961888	-6.955292E+12	4.967642E-15	NaN
428	1.000000	0.074607	7.36924e+06	-55689.1	1005.82	-29741.1	0.000000	0.000000	6.074756	0.039127	NaN	0.000000	0.001714	0.001716	28.0809	0.078703	0.002026	38.841	-146.856	-166.452	0.038384	0.073309	-0.954757	-0.956055	0.039127	38.841	-0.955513	-5.706489E+12	-6.856657E-15	NaN
428	1.000000	0.082596	7.36924e+06	-55689.1	1005.82	-29741.1	0.000000	0.000000	6.082744	0.016150	NaN	0.000000	0.001716	0.001751	28.0815	0.100889	0.001983	50.8678	-144.367	-166.424	-0.001458	0.081299	-0.946768	-0.948065	0.016150	50.8678	-0.947007	-4.381811E+12	-3.685698E-15	NaN
428	1.000000	0.090639	7.36924e+06	-55689.1	1005.82	-29741.1	0.000000	0.000000	6.090787	0.009986	NaN	0.000000	0.001688	0.001719	28.0809	0.039424	0.001913	20.6122	-11.4757	-165.453	-0.029275	0.089286	-0.938725	-0.940078	0.009986	20.6122	-0.939088	-3.426364E+12	-2.914354E-15	NaN
428	1.000000	0.098610	7.36924e+06	-55689.1	1005.82	-29741.1	0.000000	0.000000	6.098759	0.036340	NaN	0.000000	0.001699	0.001749	28.0811	0.022545	0.002150	10.4854	-138.478	-164.237	0.055892	0.097346	-0.930754	-0.932018	0.036340	10.4854	-0.933353	-2.867145E+12	-1.267466E-14	NaN
428	1.000000	0.106594	7.36924e+06	-55689.1	1005.82	-29741.1	0.000000	0.000000	6.106739	-0.040197	NaN	0.000000	0.001720	0.001747	28.081	0.115069	0.002113	54.461	112.894	-167.047	0.068463	0.105360	-0.922770	-0.924004	-0.040197	54.461	-0.922217	-2.028323E+12	1.981773E-14	NaN
428	1.000000	0.114627	7.36924e+06	-55689.1	1005.82	-29741.1	0.000000	0.000000	6.114775	0.016008	NaN	0.000000	0.001748	0.001758	28.0809	0.068763	0.002077	33.0989	-58.2011	-166.831	-0.013269	0.113318	-0.914737	-0.916046	0.016008	33.0989	-0.915100	-1.625686E+12	-9.846828E-15	NaN
428	1.000000	0.122628	7.36924e+06	-55689.1	1005.82	-29741.1	0.000000	0.000000	6.122774	-0.046689	NaN	0.000000	0.001719	0.001696	28.0811	0.076018	0.001911	39.7786	-151.286	-162.646	-0.069298	0.121360	-0.906736	-0.908005	-0.046689	39.7786	-0.905856	-1.219495E+12	3.828576E-14	NaN
428	1.000000	0.130627	7.36924e+06	-55689.1	1005.82	-29741.1	0.000000	0.000000	6.130775	0.030532	NaN	0.000000	0.001707	0.001732	28.0797	0.042061	0.001965	21.4093	-119.993	-165.476	-0.012453	0.129324	-0.898737	-0.900040	0.030532	21.4093	-0.899807	-1.010320E+12	-3.022052E-14	NaN
428	1.000000	0.138596	7.36924e+06	-55689.1	1005.82	-29741.1	0.000000	0.000000	6.138741	-0.058111	NaN	0.000000	0.001723	0.001776	28.08	0.079676	0.001889	42.1692	28.7657	-167.964	0.023937	0.137358	-0.890768	-0.892006	-0.058111	42.1692	-0.889735	-7.384621E+11	7.869243E-14	NaN
428	1.000000	0.146639	7.36924e+06	-55689.1	1005.82	-29741.1	0.000000	0.000000	6.146785	-0.027272	NaN	0.000000	0.001736	0.001784	28.0796	0.088847	0.002065	43.0234	76.6672	-165.056	0.002740	0.145276	-0.882726	-0.884089	-0.027272	43.0234	-0.882250	-5.849740E+11	4.662143E-14	NaN
428	1.000000	0.154607	7.36924e+06	-55689.1	1005.82	-29741.1	0.000000	0.000000	6.154756	0.028458	NaN	0.000000	0.001711	0.001727	28.0797	0.143336	0.001967	72.8542	146.619	-163.291	0.064197	0.153361	-0.874757	-0.876003	0.028458	72.8542	-0.875050	-4.674784E+11	-6.087498E-14	NaN
428	1.000000	0.162675	7.36924e+06	-55689.1	1005.82	-29741.1	0.000000	0.000000	6.162822	-0.028094	NaN	0.000000	0.001717	0.001745	28.0797	0.104054	0.002099	49.5638	-25.0083	-169.569	-0.007080	0.161371	-0.866689	-0.867993	-0.028094	49.5638	-0.866264	-3.555415E+11	7.901828E-14	NaN
428	1.000000	0.170654	7.36924e+06	-55689.1	1005.82	-29741.1	0.000000	0.000000	6.170802	0.014595	NaN	0.000000	0.001695	0.001723	28.0795	0.097374	0.001944	50.1013	74.596	-164.821	-0.050807	0.169322	-0.858711	-0.860042	0.014595	50.1013	-0.858929	-2.828948E+11	-5.159147E-14	NaN
428	1.000000	0.178641	7.36924e+06	-55689.1	1005.82	-29741.1	0.000000	0.000000	6.178786	-0.052212	NaN	0.000000	0.001706	0.001698	28.0797	0.025716	0.001998	12.8723	79.8849	-165.469	-0.010621	0.177326	-0.850723	-0.852038	-0.052212	12.8723	-0.847681	-1.992221E+11	2.620785E-13	NaN
428	1.000000	0.186627	7.36924e+06	-55689.1	1005.82	-29741.1	0.000000	0.000000	6.186774	-0.003857	NaN	0.000000	0.001680	0.001710	28.0796	0.100715	0.001870	53.867	172.574	-167.1	-0.014387	0.185355	-0.842737	-0.844009	-0.003857	53.867	-0.842683	-1.704678E+11	2.262510E-14	NaN
428	1.000000	0.194680	7.36925e+06	-55689.1	1005.82	-29741.1	0.000000	0.000000	6.194826	-0.021722	NaN	0.000000	0.001715	0.001706	28.0796	0.095489	0.001879	50.8085	165.106	-165.342	-0.041084	0.193339	-0.834684	-0.836026	-0.021722	50.8085	-0.834364	-1.314994E+11	1.651867E-13	NaN
428	1.000000	0.202653	7.36925e+06	-55689.1	1005.82	-29741.1	0.000000	0.000000	6.202801	0.021298	NaN	0.000000	0.001730	0.001723	28.0798	0.111054	0.001968	56.4267	118.681	-168.648	0.068867	0.201321	-0.826711	-0.828043	0.021298	56.4267	-0.826994	-1.044821E+11	-2.038419E-13	NaN
428	1.000000	0.210657	7.36925e+06	-55689.1	1005.82	-29741.1	0.000000	0.000000	6.210804	-0.004791	NaN	0.000000	0.001725	0.001715	28.0798	0.058328	0.002050	28.4594	129.883	-164.574	-0.020878	0.209368	-0.818707	-0.819996	-0.004791	28.4594	-0.818581	-8.034712E+10	5.963111E-14	NaN
428	1.000000	0.218657	7.36925e+06	-55689.1	1005.82	-29741.1	0.000000	0.000000	6.218806	0.042859	NaN	0.000000	0.001722	0.001745	28.0802	0.034135	0.001907	17.8971	-63.616	-164.335	-0.011114	0.217297	-0.810707	-0.812068	0.042859	17.8971	-0.812503	-6.645598E+10	-6.449249E-13	NaN
428	1.000000	0.226684	7.36925e+06	-55689.1	1005.82	-29741.1	0.000000	0.000000	6.226833	0.036261	NaN	0.000000	0.001682	0.001714	28.0801	0.074851	0.002007	37.2939	-24.3836	-165.675	0.036003	0.225372	-0.802680	-0.803992	0.036261	37.2939	-0.803409	-5.001893E+10	-7.249524E-13	NaN
428	1.000000	0.234695	7.36925e+06	-55689.1	1005.82	-29741.1	0.000000	0.000000	6.234844	0.054053	NaN	0.000000	0.001671	0.001760	28.0803	0.087782	0.002010	43.6679	-97.3251	-163.107	0.000401	0.233393	-0.794670	-0.795971	0.054053	43.6679	-0.795598	-3.918321E+10	-1.379493E-12	NaN
428	1.000000	0.242681	7.36925e+06	-55689.1	1005.82	-29741.1	0.000000	0.000000	6.242828	-0.014716	NaN	0.000000	0.001711	0.001714	28.08	0.035986	0.001838	19.5748	37.9856	-167.551	-0.046791	0.241359	-0.786683	-0.788005	-0.014716	19.5748	-0.786119	-2.913208E+10	5.051636E-13	NaN
428	1.000000	0.250692	7.36925e+06	-55689.1	1005.82	-29741.1	0.000000	0.000000	6.250840	0.024334	NaN	0.000000	0.001711	0.001757	28.08	0.057439	0.002157	26.6271	-104.438	-164.599	0.021329	0.249405	-0.778672	-0.779960	0.024334	26.6271	-0.779357	-2.357765E+10	-1.032082E-12	NaN
428	1.000000	0.258692	7.36925e+06	-55689.1	1005.82	-29741.1	0.000000	0.000000	6.258844	0.114023	NaN	0.000000	0.001728	0.001712	28.08	0.116580	0.001984	58.7598	67.6639	-165.531	0.074942	0.257375	-0.770673	-0.771989	0.114023	58.7598	-0.772128	-1.880337E+10	-6.063979E-12	NaN
428	1.000000	0.266713	7.36925e+06	-55689.1	1005.82	-29741.1	0.000000	0.000000	6.266861	0.011367	NaN	0.000000	0.001700	0.001720	28.0813	0.032762	0.002011	16.2907	163.435	-161.073	-0.036439	0.265404	-0.762651	-0.763960	0.011367	16.2907	-0.763174	-1.420642E+10	-8.001334E-13	NaN
428	1.000000	0.274707	7.36925e+06	-55689.1	1005.82	-29741.1	0.000000	0.000000	6.274853	-0.026131	NaN	0.000000	0.001738	0.001725	28.0816	0.075444	0.001909	39.5129	156.613	-164.968	-0.008560	0.273390	-0.754657	-0.755975	-0.026131	39.5129	-0.754161	-1.071169E+10	2.439531E-12	NaN
428	1.000000	0.282686	7.36925e+06	-55689.1	1005.82	-29741.1	0.000000	0.000000	6.282832	-0.027327	NaN	0.000000	0.001716	0.001737	28.0812	0.027189	0.002002	13.5812	-135.84	-167.923	0.024126	0.281382	-0.746678	-0.747982	-0.027327	13.5812	-0.745169	-8.080809E+9	3.381698E-12	NaN
428	1.000000	0.290684	7.36925e+06	-55689.1	1005.82	-29741.1	0.000000	0.000000	6.290830	-0.037018	NaN	0.000000	0.001739	0.001774	28.0814	0.059682	0.001927	30.9781	-101.666	-164.397	-0.043015	0.289375	-0.738680	-0.739989	-0.037018	30.9781	-0.737784	-6.410199E+9	5.774899E-12	NaN
428	1.000000	0.298723	7.36925e+06	-55689.1	1005.82	-29741.1	0.000000	0.000000	6.298870	-0.012816	NaN	0.000000	0.001707	0.001787	28.0812	0.058843	0.001937	30.384	-144.572	-167.997	-0.087474	0.297356	-0.730641	-0.732008	-0.012816	30.384	-0.730324	-5.072600E+9	2.526523E-12	NaN
428	1.000000	0.306718	7.36925e+06	-55689.1	1005.82	-29741.1	0.000000	0.000000	6.306866	0.031063	NaN	0.000000	0.001731	0.001752	28.0812	0.173756	0.001983	87.6147	-135.294	-166.652	0.037661	0.305375	-0.722646	-0.723989	0.031063	87.6147	-0.722912	-4.019641E+9	-7.727839E-12	NaN
428	1.000000	0.314690	7.36925e+06	-55689.1	1005.82	-29741.1	0.000000	0.000000	6.314837	-0.007134	NaN	0.000000	0.001697	0.001743	28.0812	0.124797	0.002057	60.6641	-109.833	-166.499	0.045874	0.313402	-0.714675	-0.715962	-0.007134	60.6641	-0.714586	-3.094775E+9	2.305229E-12	NaN
428	1.000000	0.322717	7.36925e+06	-55689.1	1005.82	-29741.1	0.000000	0.000000	6.322861	-0.060776	NaN	0.000000	0.001689	0.001737	28.0809	0.076592	0.001851	41.3698	128.913	-166.353	-0.170380	0.321430	-0.706648	-0.707934	-0.060776	41.3698	-0.705546	-2.329444E+9	2.609039E-11	NaN
428	1.000000	0.330711	7.36925e+06	-55689.1	1005.82	-29741.1	0.000000	0.000000	6.330857	-0.038672	NaN	0.000000	0.001695	0.001773	28.0814	0.042569	0.001933	22.0195	-143.131	-163.653	0.026869	0.329440	-0.698653	-0.699924	-0.038672	22.0195	-0.697336	-1.799492E+9	2.149075E-11	NaN
428	1.000000	0.338736	7.36925e+06	-55689.1	1005.82	-29741.1	0.000000	0.000000	6.338884	0.010794	NaN	0.000000	0.001683	0.001737	28.081	0.055384	0.001955	28.3224	-129.899	-166.546	-0.017458	0.337395	-0.690628	-0.691969	0.010794	28.3224	-0.690913	-1.470285E+9	-7.341478E-12	NaN
428	1.000000	0.346688	7.36925e+06	-55689.1	1005.82	-29741.1	0.000000	0.000000	6.346837	0.032270	NaN	0.000000	0.001681	0.001760	28.0812	0.067219	0.002137	31.4564	112.563	-166.103	-0.014079	0.345394	-0.682676	-0.683970	0.032270	31.4564	-0.683445	-1.162306E+9	-2.776361E-11	NaN
428	1.000000	0.354697	7.36925e+06	-55689.1	1005.82	-29741.1	0.000000	0.000000	6.354847	0.042528	NaN	0.000000	0.001709	0.001748	28.0812	0.037598	0.001975	19.0342	84.7264	-163.293	0.012440	0.353424	-0.674667	-0.675940	0.042528	19.0342	-0.676342	-9.293454E+8	-4.576127E-11	NaN
428	1.000000	0.362743	7.36925e+06	-55689.1	1005.82	-29741.1	0.000000	0.000000	6.362890	-0.018112	NaN	0.000000	0.001667	0.001754	28.0813	0.111247	0.001981	56.1523	-136.574	-167.085	0.012226	0.361428	-0.666621	-0.667936	-0.018112	56.1523	-0.666379	-6.789259E+8	2.667714E-11	NaN
428	1.000000	0.370725	7.36925e+06	-55689.1	1005.82	-29741.1	0.000000	0.000000	6.370873	0.002357	NaN	0.000000	0.001711	0.001738	28.0823	0.070749	0.001986	35.6238	90.9832	-163.369	-0.006579	0.369464	-0.658639	-0.659900	0.002357	35.6238	-0.658689	-5.327284E+8	-4.423875E-12	NaN
428	1.000000	0.378733	7.36925e+06	-55689.1	1005.82	-29741.1	0.000000	0.000000	6.378881	0.030031	NaN	0.000000	0.001729	0.001761	28.0813	0.038806	0.001925	20.1612	86.6201	-166.335	-0.029819	0.377407	-0.650632	-0.651957	0.030031	20.1612	-0.651749	-4.279655E+8	-7.017168E-11	NaN
428	1.000000	0.386741	7.36925e+06	-55689.1	1005.82	-29741.1	0.000000	0.000000	6.386889	0.020572	NaN	0.000000	0.001714	0.001771	28.0813	0.064402	0.001826	35.273	62.8848	-168.821	0.066328	0.385395	-0.642623	-0.643969	0.020572	35.273	-0.643060	-3.252920E+8	-6.324173E-11	NaN
428	1.000000	0.394737	7.36925e+06	-55689.1	1005.82	-29741.1	0.000000	0.000000	6.394886	0.044239	NaN	0.000000	0.001718	0.001758	28.0813	0.031464	0.001951	16.1312	115.866	-166.815	-0.049357	0.393351	-0.634627	-0.636013	0.044239	16.1312	-0.636684	-2.659418E+8	-1.663495E-10	NaN
428	1.000000	0.402740	7.36925e+06	-55689.1	1005.82	-29741.1	0.000000	0.000000	6.402885	-0.041824	NaN	0.000000	0.001723	0.001764	28.0802	0.046124	0.001937	23.8149	20.6541	-168.362	-0.026990	0.401441	-0.626625	-0.627924	-0.041824	23.8149	-0.625307	-1.855960E+8	2.253498E-10	NaN
428	1.000000	0.410766	7.36925e+06	-55689.1	1005.82	-29741.1	0.000000	0.000000	6.410914	0.016618	NaN	0.000000	0.001719	0.001761	28.0806	0.065589	0.002021	32.4508	-125.646	-167.674	0.025775	0.409395	-0.618598	-0.619969	0.016618	32.4508	-0.618982	-1.519277E+8	-1.093782E-10	NaN
428	1.000000	0.418758	7.36925e+06	-55689.1	1005.82	-29741.1	0.000000	0.000000	6.418906	0.012101	NaN	0.000000	0.001715	0.001737	28.0804	0.022366	0.001997	11.1979	105.533	-164.285	0.034914	0.417469	-0.610606	-0.611895	0.012101	11.1979	-0.611417	-1.195646E+8	-1.012075E-10	NaN
428	1.000000	0.426759	7.36925e+06	-55689.1	1005.82	-29741.1	0.000000	0.000000	6.426905	-0.031314	NaN	0.000000	0.001695	0.001725	28.0804	0.073155	0.002098	34.8623	76.7655	-166.229	-0.040346	0.425428	-0.602605	-0.603936	-0.031314	34.8623	-0.601932	-8.852446E+7	3.537346E-10	NaN
428	1.000000	0.434758	7.36925e+06	-55689.1	1005.82	-29741.1	0.000000	0.000000	6.434901	-0.102829	NaN	0.000000	0.001695	0.001712	28.0803	0.113064	0.001981	57.0846	-113.551	-164.616	0.024961	0.433461	-0.594606	-0.595903	-0.102829	57.0846	-0.593255	-6.722539E+7	1.529613E-9	NaN
428	1.000000	0.442790	7.36925e+06	-55689.1	1005.82	-29741.1	0.000000	0.000000	6.442938	0.006611	NaN	0.000000	0.001751	0.001750	28.0801	0.070755	0.002063	34.2935	32.8257	-164.896	0.069899	0.441525	-0.586574	-0.587839	0.006611	34.2935	-0.586718	-5.462800E+7	-1.210146E-10	NaN
428	1.000000	0.450760	7.36925e+06	-55689.1	1005.82	-29741.1	0.000000	0.000000	6.450907	0.002387	NaN	0.000000	0.001739	0.001739	28.0804	0.153147	0.001997	76.6981	-176.533	-163.054	0.028224	0.449449	-0.578605	-0.579915	0.002387	76.6981	-0.578628	-4.224608E+7	-5.649564E-11	NaN
428	1.000000	0.458740	7.36925e+06	-55689.1	1005.82	-29741.1	0.000000	0.000000	6.458889	0.042723	NaN	0.000000	0.001760	0.001777	28.0802	0.079319	0.002092	37.9155	-142.617	-167.335	0.001234	0.457442	-0.570624	-0.571922	0.042723	37.9155	-0.571469	-3.364586E+7	-1.269789E-9	NaN
428	1.000000	0.466768	7.36925e+06	-55689.1	1005.82	-29741.1	0.000000	0.000000	6.466918	0.053239	NaN	0.000000	0.001782	0.001775	28.0806	0.086339	0.002009	42.9712	123.638	-167.221	-0.046585	0.465475	-0.562596	-0.563890	0.053239	42.9712	-0.563525	-2.612969E+7	-2.037491E-9	NaN
428	1.000000	0.474786	7.36925e+06	-55689.1	1005.82	-29741.1	0.000000	0.000000	6.474934	0.018073	NaN	0.000000	0.001795	0.001726	28.0802	0.053036	0.001904	27.8539	24.5491	-165.125	0.040393	0.473454	-0.554578	-0.555911	0.018073	27.8539	-0.555064	-1.995636E+7	-9.056150E-10	NaN
428	1.000000	0.482782	7.36925e+06	-55689.1	1005.82	-29741.1	0.000000	0.000000	6.482931	0.022943	NaN	0.000000	0.001740	0.001749	28.0803	0.065486	0.001973	33.1965	-113.426	-164.463	0.024959	0.481473	-0.546582	-0.547891	0.022943	33.1965	-0.547100	-1.548045E+7	-1.482053E-9	NaN
428	1.000000	0.490797	7.36925e+06	-55689.1	1005.82	-29741.1	0.000000	0.000000	6.490942	-0.057224	NaN	0.000000	0.001735	0.001736	28.0807	0.039538	0.001911	20.6905	47.838	-164.964	-0.066271	0.489516	-0.538567	-0.539848	-0.057224	20.6905	-0.536492	-1.103317E+7	5.186567E-9	NaN
428	1.000000	0.498788	7.36925e+06	-55689.1	1005.82	-29741.1	0.000000	0.000000	6.498934	-0.018312	NaN	0.000000	0.001732	0.001752	28.0804	0.050552	0.001998	25.3005	159.358	-167.59	-0.007981	0.497512	-0.530576	-0.531852	-0.018312	25.3005	-0.530033	-8.9751e+06	2.040299E-9	NaN
428	1.000000	0.506800	7.36925e+06	-55689.1	1005.82	-29741.1	0.000000	0.000000	6.506949	0.040665	NaN	0.000000	0.001741	0.001743	28.0806	0.081778	0.001942	42.1143	65.1125	-167.521	-0.032230	0.505402	-0.522564	-0.523963	0.040665	42.1143	-0.523288	-7.23303e+06	-5.622163E-9	NaN
428	1.000000	0.514783	7.36925e+06	-55689.1	1005.82	-29741.1	0.000000	0.000000	6.514927	-0.067699	NaN	0.000000	0.001752	0.001761	28.0801	0.097188	0.002129	45.6522	71.768	-163.985	0.004453	0.513501	-0.514582	-0.515864	-0.067699	45.6522	-0.513469	-5.28113e+06	1.281895E-8	NaN
428	1.000000	0.522764	7.36925e+06	-55689.1	1005.82	-29741.1	0.000000	0.000000	6.522912	0.016697	NaN	0.000000	0.001713	0.001756	28.0803	0.057236	0.002031	28.1768	152.624	-162.782	0.078185	0.521482	-0.506600	-0.507882	0.016697	28.1768	-0.507044	-4.29772e+06	-3.884980E-9	NaN
428	1.000000	0.530781	7.36925e+06	-55689.1	1005.82	-29741.1	0.000000	0.000000	6.530927	-0.025246	NaN	0.000000	0.001724	0.001759	28.08	0.065996	0.002124	31.0721	-59.0687	-167.295	0.043726	0.529473	-0.498584	-0.499891	-0.025246	31.0721	-0.497974	-3.21182e+06	7.860326E-9	NaN
428	1.000000	0.538823	7.36925e+06	-55689.1	1005.82	-29741.1	0.000000	0.000000	6.538972	0.034668	NaN	0.000000	0.001715	0.001758	28.0813	0.059088	0.002141	27.6021	-134.867	-166.295	0.019188	0.537507	-0.490541	-0.491858	0.034668	27.6021	-0.491483	-2.60681e+06	-1.329887E-8	NaN
428	1.000000	0.546820	7.36925e+06	-55689.1	1005.82	-29741.1	0.000000	0.000000	6.546967	-0.002157	NaN	0.000000	0.001711	0.001730	28.0813	0.061770	0.001964	31.4433	145.923	-168.44	0.076325	0.545474	-0.482544	-0.483890	-0.002157	31.4433	-0.482493	-1.95172e+06	1.105005E-9	NaN
428	1.000000	0.554811	7.36925e+06	-55689.1	1005.82	-29741.1	0.000000	0.000000	6.554958	-0.006543	NaN	0.000000	0.001713	0.001766	28.0814	0.059896	0.001948	30.7545	2.187325	-167.398	-0.022441	0.553462	-0.474553	-0.475902	-0.006543	30.7545	-0.474393	-1.50314e+06	4.353127E-9	NaN
428	1.000000	0.562834	7.36925e+06	-55689.1	1005.82	-29741.1	0.000000	0.000000	6.562983	0.048958	NaN	0.000000	0.001725	0.001759	28.0816	0.090665	0.002134	42.4803	44.0825	-165.963	-0.037839	0.561537	-0.466530	-0.467827	0.048958	42.4803	-0.467394	-1.1991e+06	-4.082885E-8	NaN
428	1.000000	0.570815	7.36925e+06	-55689.1	1005.82	-29741.1	0.000000	0.000000	6.570962	-0.021698	NaN	0.000000	0.001736	0.001750	28.0813	0.118560	0.002116	56.0413	94.967	-163.411	0.001520	0.569533	-0.458549	-0.459831	-0.021698	56.0413	-0.458259	-892363	2.431563E-8	NaN
428	1.000000	0.578828	7.36925e+06	-55689.1	1005.82	-29741.1	0.000000	0.000000	6.578979	0.080818	NaN	0.000000	0.001710	0.001761	28.0814	0.004949	0.002080	2.379395	84.2455	-163.448	0.105711	0.577504	-0.450536	-0.451860	0.080818	2.379395	-0.476010	-1.58362e+06	-5.103350E-8	NaN
428	1.000000	0.586825	7.36925e+06	-55689.1	1005.82	-29741.1	0.000000	0.000000	6.586970	-0.058955	NaN	0.000000	0.001703	0.001802	28.0814	0.008276	0.001990	4.159376	108.377	-166.337	-0.101378	0.585556	-0.442539	-0.443808	-0.058955	4.159376	-0.431908	-379363	1.554044E-7	NaN
428	1.000000	0.594803	7.36925e+06	-55689.1	1005.82	-29741.1	0.000000	0.000000	6.594951	-0.001201	NaN	0.000000	0.001695	0.001775	28.0815	0.017445	0.001908	9.144660	-8.285943	-163.372	-0.030862	0.593493	-0.434561	-0.435871	-0.001201	9.144660	-0.434462	-412245	2.912671E-9	NaN
428	1.000000	0.602842	7.36925e+06	-55689.1	1005.82	-29741.1	0.000000	0.000000	6.602989	-0.013047	NaN	0.000000	0.001758	0.001757	28.0815	0.067662	0.001965	34.4355	166.037	-164.603	-0.038747	0.601506	-0.426522	-0.427858	-0.013047	34.4355	-0.426238	-315366	4.137242E-8	NaN
428	1.000000	0.610830	7.36925e+06	-55689.1	1005.82	-29741.1	0.000000	0.000000	6.610978	0.024367	NaN	0.000000	0.001785	0.001764	28.0814	0.104846	0.002063	50.8125	146.909	-170.623	-0.005601	0.609504	-0.418534	-0.419860	0.024367	50.8125	-0.418894	-248155	-9.819151E-8	NaN
428	1.000000	0.618837	7.36925e+06	-55689.1	1005.82	-29741.1	0.000000	0.000000	6.618983	-0.028296	NaN	0.000000	0.001719	0.001777	28.0819	0.124942	0.001871	66.7705	148.576	-164.299	0.002903	0.617492	-0.410527	-0.411872	-0.028296	66.7705	-0.410209	-186800	1.514782E-7	NaN
428	1.000000	0.626850	7.36925e+06	-55689.1	1005.82	-29741.1	0.000000	0.000000	6.626995	-0.061458	NaN	0.000000	0.001744	0.001761	28.0815	0.058880	0.002089	28.1907	69.455	-166.827	-0.021770	0.625529	-0.402514	-0.403835	-0.061458	28.1907	-0.400879	-137572	4.467340E-7	NaN
428	1.000000	0.634856	7.36925e+06	-55689.1	1005.82	-29741.1	0.000000	0.000000	6.635001	-0.053124	NaN	0.000000	0.001746	0.001736	28.0814	0.019544	0.001965	9.947394	-82.1113	-166.84	-0.025015	0.633522	-0.394508	-0.395842	-0.053124	9.947394	-0.390503	-97803.8	5.431658E-7	NaN
428	1.000000	0.642848	7.36925e+06	-55689.1	1005.82	-29741.1	0.000000	0.000000	6.642996	0.004484	NaN	0.000000	0.001763	0.001769	28.0815	0.065179	0.002114	30.8253	13.053	-164.113	-0.035305	0.641536	-0.386516	-0.387828	0.004484	30.8253	-0.386625	-86072.9	-5.209003E-8	NaN
428	1.000000	0.650840	7.36925e+06	-55689.1	1005.82	-29741.1	0.000000	0.000000	6.650986	-0.031521	NaN	0.000000	0.001733	0.001735	28.0815	0.135257	0.002100	64.4076	-175.607	-164.826	-0.076454	0.649562	-0.378524	-0.379802	-0.031521	64.4076	-0.378157	-65077.6	4.843556E-7	NaN
428	1.000000	0.658854	7.36925e+06	-55689.1	1005.82	-29741.1	0.000000	0.000000	6.659000	-0.037744	NaN	0.000000	0.001733	0.001762	28.0819	0.085025	0.002105	40.3867	177.077	-168.14	-0.038744	0.657600	-0.370510	-0.371764	-0.037744	40.3867	-0.369809	-49360.8	7.646479E-7	NaN
428	1.000000	0.666861	7.36925e+06	-55689.1	1005.82	-29741.1	0.000000	0.000000	6.667008	-0.020592	NaN	0.000000	0.001782	0.001736	28.0814	0.038476	0.001890	20.3571	175.236	-167.067	-0.023429	0.665558	-0.362503	-0.363806	-0.020592	20.3571	-0.361744	-37761.8	5.453201E-7	NaN
428	1.000000	0.674870	7.36925e+06	-55689.1	1005.82	-29741.1	0.000000	0.000000	6.675017	-0.013131	NaN	0.000000	0.001805	0.001771	28.0805	0.021478	0.001930	11.1305	157.458	-164.79	0.001165	0.673545	-0.354494	-0.355819	-0.013131	11.1305	-0.353609	-28796.6	4.559808E-7	NaN
428	1.000000	0.682843	7.36925e+06	-55689.1	1005.82	-29741.1	0.000000	0.000000	6.682991	0.011581	NaN	0.000000	0.001799	0.001769	28.0803	0.093029	0.001946	47.814	46.21	-167.786	0.014608	0.681569	-0.346521	-0.347796	0.011581	47.814	-0.346703	-22861.9	-5.065761E-7	NaN
428	1.000000	0.690877	7.36925e+06	-55689.1	1005.82	-29741.1	0.000000	0.000000	6.691023	-0.020855	NaN	0.000000	0.001802	0.001762	28.0804	0.057663	0.002036	28.3272	-135.876	-165.548	-0.012777	0.689545	-0.338488	-0.339819	-0.020855	28.3272	-0.337935	-17039	1.223943E-6	NaN
428	1.000000	0.698880	7.36925e+06	-55689.1	1005.82	-29741.1	0.000000	0.000000	6.699025	-0.044103	NaN	0.000000	0.001781	0.001773	28.0805	0.046143	0.001943	23.7478	-76.3349	-162.959	0.046997	0.697593	-0.330484	-0.331771	-0.044103	23.7478	-0.329092	-12651.5	3.485949E-6	NaN
428	1.000000	0.706871	7.36925e+06	-55689.1	1005.82	-29741.1	0.000000	0.000000	6.707017	-0.047430	NaN	0.000000	0.001807	0.001769	28.0804	0.086018	0.002071	41.5296	111.023	-168.332	-0.011532	0.705601	-0.322493	-0.323763	-0.047430	41.5296	-0.321636	-9833.53	4.823298E-6	NaN
428	1.000000	0.714856	7.36925e+06	-55689.1	1005.82	-29741.1	0.000000	0.000000	6.715002	-0.026161	NaN	0.000000	0.001800	0.001754	28.0808	0.116150	0.002004	57.9638	127.09	-166.37	0.051968	0.713580	-0.314509	-0.315784	-0.026161	57.9638	-0.314170	-7633.03	3.427363E-6	NaN
428	1.000000	0.722884	7.36925e+06	-55689.1	1005.82	-29741.1	0.000000	0.000000	6.723030	-0.020108	NaN	0.000000	0.001781	0.001781	28.0803	0.125068	0.002047	61.0907	41.724	-168.88	-0.075374	0.721571	-0.306480	-0.307793	-0.020108	61.0907	-0.306234	-5824.46	3.452312E-6	NaN
428	1.000000	0.730914	7.36925e+06	-55689.1	1005.82	-29741.1	0.000000	0.000000	6.731058	-0.084897	NaN	0.000000	0.001794	0.001776	28.0805	0.014340	0.001949	7.356414	179.322	-164.677	-0.047194	0.729598	-0.298451	-0.299766	-0.084897	7.356414	-0.289795	-3313.09	2.562457E-5	NaN
428	1.000000	0.738910	7.36925e+06	-55689.1	1005.82	-29741.1	0.000000	0.000000	6.739056	-0.021945	NaN	0.000000	0.001792	0.001790	28.0804	0.043954	0.002014	21.8254	-154.959	-167.59	-0.029214	0.737609	-0.290455	-0.291755	-0.021945	21.8254	-0.289700	-3302.28	6.645464E-6	NaN
428	1.000000	0.746871	7.36925e+06	-55689.1	1005.82	-29741.1	0.000000	0.000000	6.747016	-0.043426	NaN	0.000000	0.001792	0.001728	28.0804	0.052400	0.002035	25.7451	-50.43	-162.869	0.035567	0.745613	-0.282494	-0.283752	-0.043426	25.7451	-0.281228	-2463.17	1.763032E-5	NaN
428	1.000000	0.754883	7.36925e+06	-55689.1	1005.82	-29741.1	0.000000	0.000000	6.755032	0.019129	NaN	0.000000	0.001781	0.001773	28.0807	0.089356	0.002056	43.4569	36.2625	-166.412	0.014719	0.753553	-0.274481	-0.275811	0.019129	43.4569	-0.274811	-1970.32	-9.708385E-6	NaN
428	1.000000	0.762912	7.36925e+06	-55689.1	1005.82	-29741.1	0.000000	0.000000	6.763059	-0.009257	NaN	0.000000	0.001779	0.001768	28.0803	0.028490	0.002027	14.0525	53.4326	-168.933	0.078796	0.761600	-0.266452	-0.267764	-0.009257	14.0525	-0.265958	-1445.46	6.403903E-6	NaN
428	1.000000	0.770888	7.36925e+06	-55689.1	1005.82	-29741.1	0.000000	0.000000	6.771035	0.000289	NaN	0.000000	0.001788	0.001764	28.0804	0.118952	0.002023	58.804	94.5803	-167.199	0.025634	0.769594	-0.258476	-0.259770	0.000289	58.804	-0.258480	-1110.72	-2.604294E-7	NaN
428	1.000000	0.778885	7.36925e+06	-55689.1	1005.82	-29741.1	0.000000	0.000000	6.779032	-0.007899	NaN	0.000000	0.001770	0.001727	28.0803	0.064722	0.002083	31.066	-121.908	-164.935	-0.036038	0.777596	-0.250479	-0.251768	-0.007899	31.066	-0.250288	-830.654	9.509680E-6	NaN
428	1.000000	0.786887	7.36925e+06	-55689.1	1005.82	-29741.1	0.000000	0.000000	6.787035	0.019546	NaN	0.000000	0.001772	0.001735	28.0803	0.123020	0.001906	64.5475	-37.5732	-165.637	0.074100	0.785573	-0.242478	-0.243791	0.019546	64.5475	-0.242705	-633.492	-3.085491E-5	NaN
428	1.000000	0.794909	7.36925e+06	-55689.1	1005.82	-29741.1	0.000000	0.000000	6.795056	-0.015046	NaN	0.000000	0.001839	0.001754	28.0803	0.091250	0.002008	45.4495	-162.355	-165.968	0.020919	0.793588	-0.234455	-0.235777	-0.015046	45.4495	-0.234207	-466.428	3.225789E-5	NaN
428	1.000000	0.802896	7.36925e+06	-55689.1	1005.82	-29741.1	0.000000	0.000000	6.803042	-0.021432	NaN	0.000000	0.001806	0.001754	28.0801	0.039540	0.001903	20.7802	-77.8347	-164.925	-0.016749	0.801615	-0.226468	-0.227749	-0.021432	20.7802	-0.225695	-342.269	6.261627E-5	NaN
428	1.000000	0.810933	7.36925e+06	-55689.1	1005.82	-29741.1	0.000000	0.000000	6.811080	-0.014263	NaN	0.000000	0.001801	0.001759	28.0814	0.074112	0.001898	39.0469	-124.838	-165.417	-0.060100	0.809633	-0.218431	-0.219731	-0.014263	39.0469	-0.218157	-259.535	5.495544E-5	NaN
428	1.000000	0.818914	7.36925e+06	-55689.1	1005.82	-29741.1	0.000000	0.000000	6.819063	0.038713	NaN	0.000000	0.001806	0.001750	28.0812	0.014794	0.002021	7.318731	52.8699	-167.153	0.076714	0.817632	-0.210450	-0.211732	0.038713	7.318731	-0.214417	-226.014	-0.000171	NaN
428	1.000000	0.826921	7.36925e+06	-55689.1	1005.82	-29741.1	0.000000	0.000000	6.827067	-0.023554	NaN	0.000000	0.001732	0.001732	28.0814	0.064308	0.002086	30.824	118.236	-163.47	-0.128849	0.825609	-0.202443	-0.203755	-0.023554	30.824	-0.201870	-141.381	0.000167	NaN
428	1.000000	0.834911	7.36925e+06	-55689.1	1005.82	-29741.1	0.000000	0.000000	6.835058	0.002860	NaN	0.000000	0.001740	0.001722	28.0812	0.107339	0.001952	54.9929	119.917	-169.094	0.019102	0.833605	-0.194453	-0.195759	0.002860	54.9929	-0.194492	-106.854	-2.676509E-5	NaN
428	1.000000	0.842897	7.36925e+06	-55689.1	1005.82	-29741.1	0.000000	0.000000	6.843045	0.023460	NaN	0.000000	0.001703	0.001723	28.0813	0.120263	0.002079	57.8478	8.776782	-169.927	0.042586	0.841659	-0.186468	-0.187705	0.023460	57.8478	-0.186772	-79.4229	-0.000295	NaN
428	1.000000	0.850947	7.36925e+06	-55689.1	1005.82	-29741.1	0.000000	0.000000	6.851095	0.017951	NaN	0.000000	0.001727	0.001758	28.0816	0.036958	0.001967	18.7887	-114.376	-168.027	-0.015679	0.849616	-0.178417	-0.179748	0.017951	18.7887	-0.179133	-58.9809	-0.000304	NaN
428	1.000000	0.858959	7.36925e+06	-55689.1	1005.82	-29741.1	0.000000	0.000000	6.859107	0.016074	NaN	0.000000	0.001707	0.001738	28.0811	0.046750	0.002087	22.4038	173.312	-162.493	0.048724	0.857599	-0.170405	-0.171765	0.016074	22.4038	-0.170944	-42.6562	-0.000377	NaN
428	1.000000	0.866940	7.36925e+06	-55689.1	1005.82	-29741.1	0.000000	0.000000	6.867086	-0.037620	NaN	0.000000	0.001717	0.001770	28.0812	0.065323	0.001922	33.9877	175.054	-167.538	0.009530	0.865616	-0.162424	-0.163749	-0.037620	33.9877	-0.161593	-29.2582	0.001286	NaN
428	1.000000	0.874963	7.36925e+06	-55689.1	1005.82	-29741.1	0.000000	0.000000	6.875111	0.007593	NaN	0.000000	0.001700	0.001729	28.0812	0.075710	0.002018	37.5114	-135.226	-163.137	0.013931	0.873589	-0.154401	-0.155775	0.007593	37.5114	-0.154553	-21.9043	-0.000347	NaN
428	1.000000	0.882981	7.36925e+06	-55689.1	1005.82	-29741.1	0.000000	0.000000	6.883126	-0.072789	NaN	0.000000	0.001722	0.001718	28.0813	0.038660	0.002144	18.028	-20.2576	-166.184	0.035159	0.881658	-0.146383	-0.147706	-0.072789	18.028	-0.143355	-13.6664	0.005326	NaN
428	1.000000	0.890943	7.36925e+06	-55689.1	1005.82	-29741.1	0.000000	0.000000	6.891091	0.034348	NaN	0.000000	0.001717	0.001733	28.0814	0.165775	0.001999	82.9418	145.299	-165.538	0.021937	0.889636	-0.138422	-0.139729	0.034348	82.9418	-0.138732	-11.1971	-0.003068	NaN
428	1.000000	0.898986	7.36925e+06	-55689.1	1005.82	-29741.1	0.000000	0.000000	6.899133	-0.008673	NaN	0.000000	0.001693	0.001692	28.0809	0.088885	0.002050	43.3604	-21.7837	-166.189	0.037497	0.897691	-0.130378	-0.131673	-0.008673	43.3604	-0.130228	-7.699011	0.001127	NaN
428	1.000000	0.906972	7.36925e+06	-55689.1	1005.82	-29741.1	0.000000	0.000000	6.907119	-0.013149	NaN	0.000000	0.001702	0.001732	28.0818	0.074470	0.001924	38.6993	2.974299	-162.759	0.036934	0.905628	-0.122392	-0.123737	-0.013149	38.6993	-0.122138	-5.333827	0.002465	NaN
428	1.000000	0.914945	7.36925e+06	-55689.1	1005.82	-29741.1	0.000000	0.000000	6.915090	-0.063271	NaN	0.000000	0.001657	0.001713	28.0813	0.121868	0.002110	57.7454	-13.6178	-167.742	-0.017096	0.913683	-0.114419	-0.115681	-0.063271	57.7454	-0.113597	-3.573492	0.017706	NaN
428	1.000000	0.922929	7.36925e+06	-55689.1	1005.82	-29741.1	0.000000	0.000000	6.923074	-0.056912	NaN	0.000000	0.001732	0.001733	28.0813	0.091865	0.001959	46.8834	-77.616	-167.922	-0.153774	0.921728	-0.106435	-0.107636	-0.056912	46.8834	-0.105525	-2.412653	0.023589	NaN
428	1.000000	0.930984	7.36925e+06	-55689.1	1005.82	-29741.1	0.000000	0.000000	6.931133	0.026492	NaN	0.000000	0.001709	0.001727	28.0812	0.053585	0.001902	28.1752	-49.1495	-165.584	0.155883	0.929657	-0.098380	-0.099707	0.026492	28.1752	-0.099085	-1.743586	-0.015194	NaN
428	1.000000	0.938982	7.36925e+06	-55689.1	1005.82	-29741.1	0.000000	0.000000	6.939127	-0.057978	NaN	0.000000	0.001731	0.001747	28.0813	0.028358	0.002036	13.9286	179.401	-167.702	-0.069985	0.937619	-0.090382	-0.091745	-0.057978	13.9286	-0.087260	-0.931079	0.062270	NaN
428	1.000000	0.947019	7.36925e+06	-55689.1	1005.82	-29741.1	0.000000	0.000000	6.947164	-0.060360	NaN	0.000000	0.001735	0.001703	28.0806	0.053282	0.001929	27.6197	-125.644	-165.697	-0.061756	0.945654	-0.082345	-0.083710	-0.060360	27.6197	-0.080706	-0.644624	0.093636	NaN
428	1.000000	0.954985	7.36925e+06	-55689.1	1005.82	-29741.1	0.000000	0.000000	6.955128	-0.111229	NaN	0.000000	0.001744	0.001717	28.08	0.159234	0.002001	79.5713	-97.0679	-162.752	-0.070990	0.953649	-0.074379	-0.075715	-0.111229	79.5713	-0.073331	-0.417915	0.266153	NaN
428	1.000000	0.963014	7.36925e+06	-55689.1	1005.82	-29741.1	0.000000	0.000000	6.963164	0.076357	NaN	0.000000	0.001673	0.001723	28.0801	0.075549	0.002004	37.705	22.8849	-167.454	0.079007	0.961639	-0.066350	-0.067726	0.076357	37.705	-0.067869	-0.298801	-0.255545	NaN
428	1.000000	0.970996	7.36925e+06	-55689.1	1005.82	-29741.1	0.000000	0.000000	6.971143	0.005088	NaN	0.000000	0.001721	0.001709	28.0801	0.034751	0.001957	17.7583	11.5984	-166.394	-0.013228	0.969696	-0.058368	-0.059668	0.005088	17.7583	-0.058583	-0.163937	-0.031039	NaN
428	1.000000	0.978976	7.36925e+06	-55689.1	1005.82	-29741.1	0.000000	0.000000	6.979123	-0.018640	NaN	0.000000	0.001721	0.001693	28.0801	0.090909	0.002099	43.3145	-93.5481	-166.263	0.000112	0.977714	-0.050388	-0.051650	-0.018640	43.3145	-0.050065	-0.091667	0.203347	NaN
428	1.000000	0.987002	7.36925e+06	-55689.1	1005.82	-29741.1	0.000000	0.000000	6.987151	0.036938	NaN	0.000000	0.001743	0.001739	28.0803	0.062780	0.002050	30.6187	135.017	-163.084	0.064776	0.985719	-0.042362	-0.043645	0.036938	30.6187	-0.043267	-0.056882	-0.649367	NaN
428	1.000000	0.994971	7.36925e+06	-55689.1	1005.82	-29741.1	0.000000	0.000000	6.995118	-0.007808	NaN	0.000000	0.001721	0.001762	28.0801	0.059787	0.002126	28.1249	141.93	-167.85	-0.048706	0.993732	-0.034393	-0.035632	-0.007808	28.1249	-0.034185	-0.030308	0.257606	NaN
428	1.000000	1.002992	7.36925e+06	-55689.1	1005.82	-29741.1	0.000000	0.000000	7.003139	-0.012550	NaN	0.000000	0.001748	0.001763	28.0803	0.035184	0.001999	17.6036	53.9276	-164.571	-0.023633	1.001680	-0.026372	-0.027684	-0.012550	17.6036	-0.025837	-0.017746	0.707179	NaN
428	1.000000	1.010986	7.36925e+06	-55689.1	1005.82	-29741.1	0.000000	0.000000	7.011134	0.003629	NaN	0.000000	0.001753	0.001763	28.0802	0.109756	0.001782	61.5794	-134.142	-166.365	0.001916	1.009649	-0.018378	-0.019715	0.003629	61.5794	-0.018422	-0.011447	-0.317044	NaN
428	1.000000	1.019018	7.36925e+06	-55689.1	1005.82	-29741.1	0.000000	0.000000	7.019165	-0.007456	NaN	0.000000	0.001755	0.001738	28.0801	0.049979	0.001959	25.5119	133.734	-170.026	-0.007288	1.017708	-0.010346	-0.011656	-0.007456	25.5119	-0.010127	-0.006460	1.154116	NaN
428	1.000000	1.026983	7.36925e+06	-55689.1	1005.82	-29741.1	0.000000	0.000000	7.027132	0.031944	NaN	0.000000	0.001710	0.001760	28.0803	0.158055	0.001941	81.4146	-17.5697	-162.997	0.077376	1.025714	-0.002381	-0.003650	0.031944	81.4146	-0.002675	-0.001902	-16.7975	NaN
428	1.000000	1.034948	7.36925e+06	-55689.1	1005.82	-29741.1	0.000000	0.000000	7.035349	6.159817	NaN	0.000000	0.001697	0.001738	28.0801	5.535504	0.001786	3099.59	8.011978	-168.647	4.040237	1.033715	0.005584	0.004351	6.159817	3099.59	0.004094	0.003321	1854.72	49139.6
428	2.000000	1.038590	7.36925e+06	-55689.1	1005.82	-29741.1	0.000000	0.000000	7.039162	10.3201	NaN	0.000000	0.001724	0.001739	28.0808	9.762683	0.001758	5554.85	10.1523	-177.482	9.384279	1.038302	0.009226	0.008937	10.3201	5554.85	0.007832	0.006870	1502.14	61229.1
428	2.000000	1.040573	7.36925e+06	-55689.1	1005.82	-29741.1	0.000000	0.000000	7.041280	13.603	NaN	0.000000	0.001701	0.001742	28.0803	11.0144	0.001517	7261.19	3.480746	-172.335	13.1638	1.040226	0.011209	0.010862	13.603	7261.19	0.009804	0.008964	1517.52	70069.9
428	2.000000	1.042557	7.36925e+06	-55689.1	1005.82	-29741.1	0.000000	0.000000	7.043382	16.4858	NaN	0.000000	0.001717	0.001749	28.0803	13.977	0.001776	7869.03	4.680203	-172.59	16.4653	1.042225	0.013192	0.012861	16.4858	7869.03	0.011621	0.011039	1493.36	68426.2
428	2.000000	1.044536	7.36925e+06	-55689.1	1005.82	-29741.1	0.000000	0.000000	7.045529	20.5558	NaN	0.000000	0.001723	0.001756	28.0801	16.3135	0.001791	9107.36	10.9335	-178.878	20.8821	1.044206	0.015171	0.014842	20.5558	9107.36	0.013479	0.013310	1544.41	72123.9
428	2.000000	1.046536	7.36925e+06	-55689.1	1005.82	-29741.1	0.000000	0.000000	7.047591	22.0696	NaN	0.000000	0.001687	0.001789	28.08	18.1104	0.001754	10326.8	4.663648	-175.877	21.6283	1.046237	0.017171	0.016873	22.0696	10326.8	0.015569	0.016051	1374.96	74470.7
428	2.000000	1.048461	7.36925e+06	-55689.1	1005.82	-29741.1	0.000000	0.000000	7.049749	27.7364	NaN	0.000000	0.001725	0.001765	28.0818	20.3021	0.001836	11059.7	5.980049	-178.347	25.2536	1.048230	0.019097	0.018866	27.7364	11059.7	0.017216	0.018355	1511.12	74583
428	2.000000	1.050562	7.36925e+06	-55689.1	1005.82	-29741.1	0.000000	0.000000	7.051964	30.5141	NaN	0.000000	0.001692	0.001738	28.0816	22.0519	0.001799	12260.5	6.814572	-178.982	31.2885	1.050257	0.021198	0.020893	30.5141	12260.5	0.019331	0.021502	1419.13	76391.2
428	2.000000	1.052507	7.36925e+06	-55689.1	1005.82	-29741.1	0.000000	0.000000	7.054229	38.2713	NaN	0.000000	0.001698	0.001733	28.0816	23.2992	0.001623	14358.4	6.073004	-179.432	37.8138	1.052223	0.023143	0.022859	38.2713	14358.4	0.021144	0.024372	1570.31	84030.4
428	2.000000	1.054574	7.36925e+06	-55689.1	1005.82	-29741.1	0.000000	0.000000	7.056653	46.9448	NaN	0.000000	0.001677	0.001740	28.0814	26.2693	0.001772	14824.2	3.445960	-176.046	46.5002	1.054168	0.025210	0.024804	46.9448	14824.2	0.022835	0.027195	1726.25	82130.3
428	2.000000	1.056497	7.36925e+06	-55689.1	1005.82	-29741.1	0.000000	0.000000	7.058672	49.2691	NaN	0.000000	0.001675	0.001732	28.0816	28.1869	0.001845	15277.9	5.767748	-179.685	48.4944	1.056184	0.027133	0.026820	49.2691	15277.9	0.024715	0.030498	1615.47	79928.1
428	2.000000	1.058531	7.36925e+06	-55689.1	1005.82	-29741.1	0.000000	0.000000	7.060811	51.833	NaN	0.000000	0.001659	0.001732	28.0814	30.0287	0.001784	16830.2	5.468738	179.828	53.8038	1.058232	0.029167	0.028867	51.833	16830.2	0.026857	0.034482	1503.2	82807.2
428	2.000000	1.060439	7.36925e+06	-55689.1	1005.82	-29741.1	0.000000	0.000000	7.063110	61.3361	NaN	0.000000	0.001668	0.001706	28.0815	30.643	0.001618	18935.1	3.097364	179.588	58.2302	1.060158	0.031075	0.030793	61.3361	18935.1	0.028646	0.037984	1614.8	88765.1
428	2.000000	1.062455	7.36925e+06	-55689.1	1005.82	-29741.1	0.000000	0.000000	7.065439	68.9556	NaN	0.000000	0.001679	0.001748	28.083	32.7303	0.001651	19822.4	6.148859	177.609	67.8311	1.062148	0.033090	0.032784	68.9556	19822.4	0.030481	0.041747	1651.73	88636.8
428	2.000000	1.064545	7.36925e+06	-55689.1	1005.82	-29741.1	0.000000	0.000000	7.067847	76.676	NaN	0.000000	0.001670	0.001702	28.0814	35.5374	0.001864	19067.7	9.594162	175.961	77.4001	1.064136	0.035181	0.034772	76.676	19067.7	0.032165	0.045351	1690.73	81804.8
428	2.000000	1.066399	7.36925e+06	-55689.1	1005.82	-29741.1	0.000000	0.000000	7.069948	82.6683	NaN	0.000000	0.001645	0.001706	28.0816	37.092	0.001753	21160.1	2.557168	-179.587	79.1253	1.066138	0.037035	0.036774	82.6683	21160.1	0.034105	0.049683	1663.91	86733.4
428	2.000000	1.068510	7.36925e+06	-55689.1	1005.82	-29741.1	0.000000	0.000000	7.072440	91.9482	NaN	0.000000	0.001694	0.001728	28.0813	41.0153	0.001858	22074.6	5.327597	178.368	92.7073	1.068076	0.039145	0.038712	91.9482	22074.6	0.036021	0.054151	1698	86668.7
428	2.000000	1.070437	7.36925e+06	-55689.1	1005.82	-29741.1	0.000000	0.000000	7.074541	96.1713	NaN	0.000000	0.001645	0.001707	28.0814	42.1371	0.001671	25223	4.088888	177.018	94.4812	1.070120	0.041073	0.040756	96.1713	25223	0.038213	0.059492	1616.54	94480.1
428	2.000000	1.072464	7.36925e+06	-55689.1	1005.82	-29741.1	0.000000	0.000000	7.076986	106.335	NaN	0.000000	0.001698	0.001718	28.082	45.122	0.001835	24585.7	6.780137	175.675	104.909	1.072115	0.043100	0.042751	106.335	24585.7	0.039856	0.063657	1670.43	89029
428	2.000000	1.074488	7.36925e+06	-55689.1	1005.82	-29741.1	0.000000	0.000000	7.079234	111.774	NaN	0.000000	0.001705	0.001752	28.0815	46.5403	0.001779	26166.3	0.276646	-179.519	110.919	1.074194	0.045124	0.044830	111.774	26166.3	0.041920	0.069085	1617.93	90954.6
428	2.000000	1.076418	7.36925e+06	-55689.1	1005.82	-29741.1	0.000000	0.000000	7.081666	123.981	NaN	0.000000	0.001689	0.001772	28.0819	48.6752	0.001906	25538.7	7.657766	174.316	122.452	1.076114	0.047054	0.046750	123.981	25538.7	0.043413	0.073146	1694.99	86273.4
428	2.000000	1.078433	7.36925e+06	-55689.1	1005.82	-29741.1	0.000000	0.000000	7.084163	135.718	NaN	0.000000	0.001696	0.001752	28.0814	49.4161	0.001747	28293	1.678530	179.913	134.008	1.078109	0.049068	0.048745	135.718	28293	0.045471	0.078930	1719.48	92009.6
428	2.000000	1.080484	7.36925e+06	-55689.1	1005.82	-29741.1	0.000000	0.000000	7.086732	148.306	NaN	0.000000	0.001720	0.001741	28.0815	50.4099	0.001685	29916.1	4.620737	176.529	147.912	1.080117	0.051119	0.050753	148.306	29916.1	0.047401	0.084550	1754.06	93998.5
428	2.000000	1.082416	7.36925e+06	-55689.1	1005.82	-29741.1	0.000000	0.000000	7.089199	161.285	NaN	0.000000	0.001732	0.001763	28.0803	53.0487	0.001754	30238.5	2.819125	177.592	158.075	1.082039	0.053052	0.052675	161.285	30238.5	0.049052	0.089506	1801.96	92344
428	2.000000	1.084464	7.36925e+06	-55689.1	1005.82	-29741.1	0.000000	0.000000	7.091456	166.384	NaN	0.000000	0.001701	0.001726	28.0801	55.1605	0.001789	30824.7	-0.350795	-178.724	164.098	1.084090	0.055100	0.054726	166.384	30824.7	0.051051	0.095690	1738.78	91041.4
428	2.000000	1.086425	7.36925e+06	-55689.1	1005.82	-29741.1	0.000000	0.000000	7.093739	174.223	NaN	0.000000	0.001744	0.001706	28.0806	57.752	0.001815	31827.8	3.784766	175.86	173.027	1.086119	0.057061	0.056754	174.223	31827.8	0.052955	0.101766	1712	91154.8
428	2.000000	1.088528	7.36925e+06	-55689.1	1005.82	-29741.1	0.000000	0.000000	7.096299	185.308	NaN	0.000000	0.001713	0.001678	28.0802	60.2662	0.001769	34059.7	4.455591	175.184	190.025	1.088189	0.059164	0.058825	185.308	34059.7	0.055084	0.108772	1703.64	94353.1
428	2.000000	1.090413	7.36925e+06	-55689.1	1005.82	-29741.1	0.000000	0.000000	7.098956	204.067	NaN	0.000000	0.001708	0.001706	28.0803	61.2108	0.001892	32349.9	3.832540	176.275	203.695	1.090133	0.061049	0.060769	204.067	32349.9	0.056318	0.112938	1806.9	87948.1
428	2.000000	1.092348	7.36925e+06	-55689.1	1005.82	-29741.1	0.000000	0.000000	7.101213	211.894	NaN	0.000000	0.001699	0.001731	28.0803	63.5402	0.001768	35946	5.422588	173.233	206.463	1.092055	0.062984	0.062690	211.894	35946	0.058563	0.120706	1755.46	94527.9
428	2.000000	1.094515	7.36925e+06	-55689.1	1005.82	-29741.1	0.000000	0.000000	7.103881	224.088	NaN	0.000000	0.001723	0.001752	28.08	66.2582	0.001822	36362.1	9.352499	170.506	224.176	1.094024	0.065151	0.064660	224.088	36362.1	0.060529	0.127711	1754.65	92962.8
428	2.000000	1.096471	7.36925e+06	-55689.1	1005.82	-29741.1	0.000000	0.000000	7.105854	224.504	NaN	0.000000	0.001696	0.001722	28.0804	67.1768	0.001690	39742	3.409354	173.865	224.979	1.096309	0.067107	0.066944	224.504	39742	0.062870	0.136300	1647.13	98350.1
428	2.000000	1.098365	7.36925e+06	-55689.1	1005.82	-29741.1	0.000000	0.000000	7.108784	249.671	NaN	0.000000	0.001675	0.001726	28.0801	69.6208	0.001782	39073.1	2.946309	174.871	245.704	1.098179	0.069001	0.068815	249.671	39073.1	0.064209	0.141331	1766.57	94958.1
428	2.000000	1.100457	7.36925e+06	-55689.1	1005.82	-29741.1	0.000000	0.000000	7.111526	265.481	NaN	0.000000	0.001691	0.001701	28.0804	71.092	0.001740	40862.2	6.960193	170.766	267.337	1.100046	0.071093	0.070682	265.481	40862.2	0.066220	0.149052	1781.14	96699.9
428	2.000000	1.102383	7.36925e+06	-55689.1	1005.82	-29741.1	0.000000	0.000000	7.114074	280.618	NaN	0.000000	0.001709	0.001726	28.0804	73.6342	0.001775	41479.9	6.670792	171.409	277.536	1.102108	0.073019	0.072744	280.618	41479.9	0.067945	0.155828	1800.82	96003.7
428	2.000000	1.104442	7.36925e+06	-55689.1	1005.82	-29741.1	0.000000	0.000000	7.116725	295.003	NaN	0.000000	0.001737	0.001716	28.0802	75.5962	0.001798	42046	3.694808	175.208	292.77	1.103997	0.075078	0.074633	295.003	42046	0.069816	0.163339	1806.08	95050.2
428	2.000000	1.106431	7.36925e+06	-55689.1	1005.82	-29741.1	0.000000	0.000000	7.119204	306.891	NaN	0.000000	0.001712	0.001727	28.0805	77.4994	0.001810	42820.4	6.017801	171.431	306.453	1.106113	0.077067	0.076748	306.891	42820.4	0.071692	0.171038	1794.29	94597.1
428	2.000000	1.108484	7.36925e+06	-55689.1	1005.82	-29741.1	0.000000	0.000000	7.121538	313.717	NaN	0.000000	0.001722	0.001766	28.0802	79.5929	0.001744	45639.4	4.213874	172.655	316.445	1.108174	0.079120	0.078810	313.717	45639.4	0.073965	0.180590	1737.19	98122.1
428	2.000000	1.110404	7.36925e+06	-55689.1	1005.82	-29741.1	0.000000	0.000000	7.124404	336.74	NaN	0.000000	0.001710	0.001740	28.0805	80.1419	0.001818	44092.9	4.541095	173.057	335.333	1.110099	0.081040	0.080734	336.74	44092.9	0.075312	0.186366	1806.88	93316.6
428	2.000000	1.112458	7.36925e+06	-55689.1	1005.82	-29741.1	0.000000	0.000000	7.126949	348.673	NaN	0.000000	0.001710	0.001731	28.0804	84.6858	0.001947	43492.6	8.762140	169.503	348.018	1.111978	0.083094	0.082614	348.673	43492.6	0.077081	0.194080	1796.54	90198.1
428	2.000000	1.114453	7.36925e+06	-55689.1	1005.82	-29741.1	0.000000	0.000000	7.129734	367.874	NaN	0.000000	0.001701	0.001749	28.0801	85.6076	0.001873	45699.6	5.147719	172.187	369.822	1.114030	0.085089	0.084666	367.874	45699.6	0.079051	0.202845	1813.57	92705.1
428	2.000000	1.116407	7.36925e+06	-55689.1	1005.82	-29741.1	0.000000	0.000000	7.132170	379.59	NaN	0.000000	0.001747	0.001736	28.0818	86.2484	0.001757	49075.3	1.690324	174.783	378.383	1.116109	0.087043	0.086745	379.59	49075.3	0.081241	0.212799	1783.8	97196.7
428	2.000000	1.118384	7.36925e+06	-55689.1	1005.82	-29741.1	0.000000	0.000000	7.134889	397.624	NaN	0.000000	0.001716	0.001736	28.0814	88.9519	0.001725	51555.1	4.654788	171.393	393.259	1.118062	0.089020	0.088697	397.624	51555.1	0.083235	0.222056	1790.65	99957.2
428	2.000000	1.120381	7.36925e+06	-55689.1	1005.82	-29741.1	0.000000	0.000000	7.137815	420.225	NaN	0.000000	0.001724	0.001717	28.0815	89.8336	0.001671	53753.3	5.189695	170.603	417.881	1.119996	0.091016	0.090632	420.225	53753.3	0.085153	0.231133	1818.11	102152
428	2.000000	1.122290	7.36925e+06	-55689.1	1005.82	-29741.1	0.000000	0.000000	7.140394	436.493	NaN	0.000000	0.001731	0.001737	28.0814	91.9454	0.001660	55388.5	5.865197	169.774	430.118	1.121988	0.092926	0.092624	436.493	55388.5	0.087016	0.240112	1817.88	103273
428	2.000000	1.124414	7.36925e+06	-55689.1	1005.82	-29741.1	0.000000	0.000000	7.143005	448.333	NaN	0.000000	0.001721	0.001729	28.0813	96.1398	0.001834	52429.7	6.603388	169.448	445.803	1.124087	0.095050	0.094723	448.333	52429.7	0.088637	0.248054	1807.4	96178.4
428	2.000000	1.126445	7.36925e+06	-55689.1	1005.82	-29741.1	0.000000	0.000000	7.146201	476.65	NaN	0.000000	0.001693	0.001775	28.0814	97.4802	0.001830	53273.6	9.634191	167.158	476.593	1.125873	0.097080	0.096509	476.65	53273.6	0.090370	0.256683	1856.96	96069.9
428	2.000000	1.128409	7.36925e+06	-55689.1	1005.82	-29741.1	0.000000	0.000000	7.148754	490.965	NaN	0.000000	0.001731	0.001762	28.0815	100.195	0.001722	58179.9	6.764146	168.408	487.146	1.128029	0.099044	0.098665	490.965	58179.9	0.092715	0.268577	1828.02	102568
428	2.000000	1.130251	7.36925e+06	-55689.1	1005.82	-29741.1	0.000000	0.000000	7.151557	514.329	NaN	0.000000	0.001712	0.001764	28.0813	100.87	0.001865	54092	5.867221	170.099	506.953	1.130025	0.100887	0.100661	514.329	54092	0.093756	0.273932	1877.57	94424.4
428	2.000000	1.132290	7.36925e+06	-55689.1	1005.82	-29741.1	0.000000	0.000000	7.154117	526.982	NaN	0.000000	0.001717	0.001768	28.0814	103.886	0.001801	57690.7	6.780602	168.938	519.09	1.131924	0.102926	0.102559	526.982	57690.7	0.096075	0.286051	1842.27	98550.1
428	2.000000	1.134445	7.36925e+06	-55689.1	1005.82	-29741.1	0.000000	0.000000	7.156758	538.821	NaN	0.000000	0.001710	0.001725	28.0816	104.196	0.001675	62223.9	2.721502	172.156	539.204	1.134234	0.105081	0.104870	538.821	62223.9	0.098586	0.299449	1799.37	103889
428	2.000000	1.135344	7.36925e+06	-55689.1	1005.82	-29741.1	0.000000	0.000000	7.158405	556.979	NaN	0.000000	0.001726	0.001748	28.0814	106.346	0.001791	59381.1	9.107472	166.74	552.422	1.134964	0.105980	0.105599	556.979	59381.1	0.098945	0.301389	1848.04	98823