File: remote_trans/data/nanoindenter/0828-1/data/Data_2025-08-06,11h17m57s/2025-07-22_16-23-58_1_637.txt
2025-07-22, 16:23:58, 1
Index	Phase	Displacement	Time	Pos X	Pos Y	Pos Z	Rot A	Rot B	Piezo Z	Force A	Force B	Gripper	Voltage A	Voltage B	Temperature	Amplitude force	Amplitude pos	Stiffness	Phase shift	Phase excitation	Force A raw	Displacement raw	HMax	HMax raw	Real Force	Real Stiffness	Contact Depth	Area	Hardness	Reduced Mod.
[#]	[#]	[um]	[s]	[um]	[um]	[um]	[m°]	[m°]	[um]	[uN]	[uN]	[V]	[V]	[V]	[°C]	[uN]	[um]	[N/m]	[°]	[°]	[uN]	[um]	[um]	[um]	[uN]	[N/m]	[um]	[um^2]	[MPa]	[MPa]
637	1.000000	0.002591	7.37128e+06	-45239.1	1005.82	-29773.1	0.000000	0.000000	6.002838	-0.021122	NaN	0.000000	0.001669	0.001733	28.0844	0.102808	0.001051	97.8517	153.349	-169.089	0.040848	0.001333	-1.063408	-1.064667	-0.021122	97.8517	-1.063247	-1.608602E+14	1.313095E-16	NaN
637	1.000000	0.010521	7.37128e+06	-45239.1	1005.82	-29773.1	0.000000	0.000000	6.010769	0.001052	NaN	0.000000	0.001665	0.001727	28.0852	0.097442	0.000853	114.215	-91.2855	-168.334	0.011193	0.009162	-1.055479	-1.056838	0.001052	114.215	-1.055485	-1.265164E+14	-8.316950E-18	NaN
637	1.000000	0.018526	7.37128e+06	-45239.1	1005.82	-29773.1	0.000000	0.000000	6.018774	-0.003632	NaN	0.000000	0.001641	0.001763	28.0848	0.060428	0.001753	34.4709	73.7521	-167.249	0.031615	0.017155	-1.047474	-1.048845	-0.003632	34.4709	-1.047395	-9.848934E+13	3.687265E-17	NaN
637	1.000000	0.026540	7.37128e+06	-45239.1	1005.82	-29773.1	0.000000	0.000000	6.026786	-0.041164	NaN	0.000000	0.001655	0.001759	28.0846	0.078298	0.001971	39.7172	-87.7955	-163.174	0.065408	0.025187	-1.039460	-1.040813	-0.041164	39.7172	-1.038683	-7.520602E+13	5.473564E-16	NaN
637	1.000000	0.034497	7.37128e+06	-45239.1	1005.82	-29773.1	0.000000	0.000000	6.034745	0.018953	NaN	0.000000	0.001635	0.001739	28.0849	0.109428	0.001991	54.9698	-149.513	-163.363	0.053925	0.033205	-1.031503	-1.032795	0.018953	54.9698	-1.031762	-6.069796E+13	-3.122525E-16	NaN
637	1.000000	0.042507	7.37128e+06	-45239.1	1005.82	-29773.1	0.000000	0.000000	6.042756	0.014186	NaN	0.000000	0.001650	0.001758	28.0847	0.139120	0.002038	68.277	-31.1057	-161.001	0.042484	0.041186	-1.023492	-1.024814	0.014186	68.277	-1.023648	-4.721032E+13	-3.004812E-16	NaN
637	1.000000	0.050492	7.37128e+06	-45239.1	1005.82	-29773.1	0.000000	0.000000	6.050739	-0.004589	NaN	0.000000	0.001637	0.001711	28.0852	0.024923	0.001900	13.1188	0.041036	-165.481	0.031312	0.049200	-1.015508	-1.016800	-0.004589	13.1188	-1.015246	-3.638966E+13	1.261097E-16	NaN
637	1.000000	0.058494	7.37128e+06	-45239.1	1005.82	-29773.1	0.000000	0.000000	6.058742	-0.007928	NaN	0.000000	0.001611	0.001725	28.0845	0.064966	0.001945	33.4051	68.567	-167.045	0.011927	0.057218	-1.007506	-1.008782	-0.007928	33.4051	-1.007328	-2.847156E+13	2.784500E-16	NaN
637	1.000000	0.066531	7.37128e+06	-45239.1	1005.82	-29773.1	0.000000	0.000000	6.066778	-0.010850	NaN	0.000000	0.001638	0.001729	28.0846	0.110063	0.002089	52.6896	-33.2446	-160.41	-0.026500	0.065200	-0.999469	-1.000800	-0.010850	52.6896	-0.999315	-2.220973E+13	4.885058E-16	NaN
637	1.000000	0.074485	7.37128e+06	-45239.1	1005.82	-29773.1	0.000000	0.000000	6.074730	-0.064964	NaN	0.000000	0.001649	0.001736	28.0849	0.165475	0.002160	76.6076	139.695	-164.929	0.038824	0.073192	-0.991515	-0.992808	-0.064964	76.6076	-0.990879	-1.709809E+13	3.799464E-15	NaN
637	1.000000	0.082507	7.37128e+06	-45239.1	1005.82	-29773.1	0.000000	0.000000	6.082755	0.015409	NaN	0.000000	0.001666	0.001743	28.0835	0.041772	0.001973	21.1699	24.4501	-165.593	-0.003896	0.081227	-0.983493	-0.984773	0.015409	21.1699	-0.984039	-1.382994E+13	-1.114153E-15	NaN
637	1.000000	0.090517	7.37128e+06	-45239.1	1005.82	-29773.1	0.000000	0.000000	6.090763	-0.050135	NaN	0.000000	0.001624	0.001755	28.084	0.068816	0.001992	34.5518	8.729289	-165.098	-0.002625	0.089209	-0.975483	-0.976791	-0.050135	34.5518	-0.974395	-1.025381E+13	4.889385E-15	NaN
637	1.000000	0.098528	7.37128e+06	-45239.1	1005.82	-29773.1	0.000000	0.000000	6.098774	-0.044807	NaN	0.000000	0.001630	0.001748	28.0835	0.091561	0.002043	44.8244	-176.769	-165.286	0.033517	0.097210	-0.967472	-0.968790	-0.044807	44.8244	-0.966722	-8.081332E+12	5.544474E-15	NaN
637	1.000000	0.106533	7.37128e+06	-45239.1	1005.82	-29773.1	0.000000	0.000000	6.106778	-0.064318	NaN	0.000000	0.001617	0.001737	28.0835	0.074628	0.001979	37.7054	62.111	-163.738	-0.081548	0.105185	-0.959467	-0.960815	-0.064318	37.7054	-0.958188	-6.200611E+12	1.037282E-14	NaN
637	1.000000	0.114520	7.37128e+06	-45239.1	1005.82	-29773.1	0.000000	0.000000	6.114769	0.043302	NaN	0.000000	0.001638	0.001733	28.0832	0.060515	0.001899	31.8691	-20.1116	-165.09	-0.011974	0.113240	-0.951480	-0.952760	0.043302	31.8691	-0.952499	-5.196771E+12	-8.332477E-15	NaN
637	1.000000	0.122494	7.37128e+06	-45239.1	1005.82	-29773.1	0.000000	0.000000	6.122741	-0.032870	NaN	0.000000	0.001678	0.001740	28.0833	0.069519	0.002003	34.7039	-82.2183	-164.931	-0.068663	0.121186	-0.943506	-0.944813	-0.032870	34.7039	-0.942795	-3.844560E+12	8.549748E-15	NaN
637	1.000000	0.130525	7.37128e+06	-45239.1	1005.82	-29773.1	0.000000	0.000000	6.130774	0.020888	NaN	0.000000	0.001665	0.001747	28.0836	0.047628	0.001982	24.0284	-66.8238	-161.299	0.034387	0.129160	-0.935475	-0.936840	0.020888	24.0284	-0.936127	-3.125194E+12	-6.683823E-15	NaN
637	1.000000	0.138538	7.37128e+06	-45239.1	1005.82	-29773.1	0.000000	0.000000	6.138784	-0.050567	NaN	0.000000	0.001659	0.001689	28.0832	0.029887	0.002065	14.4735	81.8342	-163.079	-0.102139	0.137210	-0.927462	-0.928789	-0.050567	14.4735	-0.924842	-2.200750E+12	2.297707E-14	NaN
637	1.000000	0.146558	7.37128e+06	-45239.1	1005.82	-29773.1	0.000000	0.000000	6.146808	0.040130	NaN	0.000000	0.001666	0.001767	28.0832	0.139465	0.002130	65.4855	179.705	-163.085	0.053261	0.145204	-0.919441	-0.920796	0.040130	65.4855	-0.919901	-1.887428E+12	-2.126163E-14	NaN
637	1.000000	0.154557	7.37128e+06	-45239.1	1005.82	-29773.1	0.000000	0.000000	6.154806	0.024433	NaN	0.000000	0.001675	0.001735	28.0835	0.073358	0.002017	36.3699	-169.919	-166.724	0.001674	0.153277	-0.911443	-0.912723	0.024433	36.3699	-0.911947	-1.473851E+12	-1.657783E-14	NaN
637	1.000000	0.162520	7.37128e+06	-45239.1	1005.82	-29773.1	0.000000	0.000000	6.162766	-0.032304	NaN	0.000000	0.001709	0.001705	28.0832	0.035201	0.001933	18.2123	63.9705	-166.245	0.034360	0.161238	-0.903480	-0.904761	-0.032304	18.2123	-0.902150	-1.086720E+12	2.972599E-14	NaN
637	1.000000	0.170556	7.37128e+06	-45239.1	1005.82	-29773.1	0.000000	0.000000	6.170804	0.001343	NaN	0.000000	0.001660	0.001722	28.0833	0.020432	0.002020	10.113	69.1968	-162.05	0.027590	0.169253	-0.895443	-0.896747	0.001343	10.113	-0.895543	-8.847822E+11	-1.517903E-15	NaN
637	1.000000	0.178560	7.37128e+06	-45239.1	1005.82	-29773.1	0.000000	0.000000	6.178806	-0.031133	NaN	0.000000	0.001716	0.001739	28.0839	0.005639	0.002062	2.735047	173.783	-165.581	-0.006126	0.177263	-0.887440	-0.888737	-0.031133	2.735047	-0.878903	-5.270729E+11	5.906735E-14	NaN
637	1.000000	0.186571	7.37128e+06	-45239.1	1005.82	-29773.1	0.000000	0.000000	6.186818	-0.017738	NaN	0.000000	0.001695	0.001727	28.0875	0.038391	0.001772	21.6603	-149.194	-164.392	0.003936	0.185210	-0.879429	-0.880790	-0.017738	21.6603	-0.878815	-5.256300E+11	3.374589E-14	NaN
637	1.000000	0.194574	7.37128e+06	-45239.1	1005.82	-29773.1	0.000000	0.000000	6.194824	0.055079	NaN	0.000000	0.001718	0.001738	28.0852	0.032272	0.001903	16.9577	-136.859	-166.871	0.013189	0.193231	-0.871426	-0.872768	0.055079	16.9577	-0.873862	-4.504991E+11	-1.222629E-13	NaN
637	1.000000	0.202590	7.37128e+06	-45239.1	1005.82	-29773.1	0.000000	0.000000	6.202839	0.021864	NaN	0.000000	0.001721	0.001772	28.084	0.028873	0.001999	14.4442	-165.411	-165.506	-0.088528	0.201247	-0.863410	-0.864753	0.021864	14.4442	-0.864545	-3.370051E+11	-6.487836E-14	NaN
637	1.000000	0.210563	7.37128e+06	-45239.1	1005.82	-29773.1	0.000000	0.000000	6.210808	-0.074099	NaN	0.000000	0.001728	0.001763	28.0839	0.109035	0.002015	54.1065	1.855990	-161.6	-0.058495	0.209234	-0.855437	-0.856766	-0.074099	54.1065	-0.854410	-2.457216E+11	3.015558E-13	NaN
637	1.000000	0.218616	7.37128e+06	-45239.1	1005.82	-29773.1	0.000000	0.000000	6.218865	0.026894	NaN	0.000000	0.001685	0.001713	28.085	0.070711	0.001988	35.5735	-80.2478	-159.816	0.067729	0.217249	-0.847384	-0.848750	0.026894	35.5735	-0.847951	-2.009045E+11	-1.338657E-13	NaN
637	1.000000	0.226570	7.37128e+06	-45239.1	1005.82	-29773.1	0.000000	0.000000	6.226820	0.063877	NaN	0.000000	0.001715	0.001700	28.0851	0.077553	0.001955	39.6649	8.724655	-164.408	0.001646	0.225297	-0.839430	-0.840703	0.063877	39.6649	-0.840638	-1.599328E+11	-3.993960E-13	NaN
637	1.000000	0.234563	7.37128e+06	-45239.1	1005.82	-29773.1	0.000000	0.000000	6.234811	0.001854	NaN	0.000000	0.001708	0.001724	28.0851	0.028709	0.002080	13.8039	-159.122	-164.631	0.045972	0.233293	-0.831437	-0.832707	0.001854	13.8039	-0.831537	-1.203986E+11	-1.539799E-14	NaN
637	1.000000	0.242583	7.37128e+06	-45239.1	1005.82	-29773.1	0.000000	0.000000	6.242832	0.009986	NaN	0.000000	0.001703	0.001734	28.0849	0.055433	0.001986	27.911	4.368854	-163.22	-0.007267	0.241306	-0.823417	-0.824694	0.009986	27.911	-0.823685	-9.422703E+10	-1.059775E-13	NaN
637	1.000000	0.250588	7.37128e+06	-45239.1	1005.82	-29773.1	0.000000	0.000000	6.250834	-0.032102	NaN	0.000000	0.001685	0.001749	28.0852	0.042420	0.001954	21.7072	-62.1784	-163.289	0.006446	0.249305	-0.815412	-0.816695	-0.032102	21.7072	-0.814303	-7.029868E+10	4.566516E-13	NaN
637	1.000000	0.258585	7.37128e+06	-45239.1	1005.82	-29773.1	0.000000	0.000000	6.258835	0.048623	NaN	0.000000	0.001710	0.001748	28.085	0.073856	0.001909	38.6963	51.3408	-159.557	-0.020183	0.257284	-0.807415	-0.808716	0.048623	38.6963	-0.808357	-5.838286E+10	-8.328292E-13	NaN
637	1.000000	0.266611	7.37128e+06	-45239.1	1005.82	-29773.1	0.000000	0.000000	6.266857	-0.050133	NaN	0.000000	0.001671	0.001730	28.0854	0.065178	0.002161	30.1611	129.104	-166.453	-0.078807	0.265293	-0.799389	-0.800707	-0.050133	30.1611	-0.798142	-4.242685E+10	1.181636E-12	NaN
637	1.000000	0.274601	7.37128e+06	-45239.1	1005.82	-29773.1	0.000000	0.000000	6.274846	-0.065663	NaN	0.000000	0.001715	0.001742	28.085	0.096281	0.002141	44.9625	-176.929	-165.662	-0.096926	0.273342	-0.791399	-0.792658	-0.065663	44.9625	-0.790304	-3.320543E+10	1.977487E-12	NaN
637	1.000000	0.282604	7.37128e+06	-45239.1	1005.82	-29773.1	0.000000	0.000000	6.282849	-0.051211	NaN	0.000000	0.001664	0.001729	28.0852	0.053066	0.001923	27.5957	70.0141	-163.377	-0.008607	0.281338	-0.783396	-0.784662	-0.051211	27.5957	-0.782005	-2.561353E+10	1.999360E-12	NaN
637	1.000000	0.290595	7.37128e+06	-45239.1	1005.82	-29773.1	0.000000	0.000000	6.290842	-0.007868	NaN	0.000000	0.001671	0.001751	28.085	0.114795	0.002012	57.0411	-159.616	-159.796	0.031066	0.289318	-0.775405	-0.776682	-0.007868	57.0411	-0.775301	-2.076706E+10	3.788877E-13	NaN
637	1.000000	0.298594	7.37128e+06	-45239.1	1005.82	-29773.1	0.000000	0.000000	6.298842	0.017607	NaN	0.000000	0.001643	0.001744	28.085	0.022455	0.002132	10.5337	110.364	-165.918	-0.018035	0.297275	-0.767406	-0.768725	0.017607	10.5337	-0.768660	-1.686878E+10	-1.043739E-12	NaN
637	1.000000	0.306593	7.37128e+06	-45239.1	1005.82	-29773.1	0.000000	0.000000	6.306842	0.025134	NaN	0.000000	0.001642	0.001762	28.0851	0.076628	0.002048	37.4157	-159.816	-167.824	0.015108	0.305257	-0.759407	-0.760743	0.025134	37.4157	-0.759911	-1.282598E+10	-1.959648E-12	NaN
637	1.000000	0.314598	7.37128e+06	-45239.1	1005.82	-29773.1	0.000000	0.000000	6.314846	0.016846	NaN	0.000000	0.001680	0.001717	28.0852	0.126034	0.001943	64.8503	-24.2662	-167.015	0.013573	0.313310	-0.751402	-0.752690	0.016846	64.8503	-0.751597	-9.884545E+9	-1.704248E-12	NaN
637	1.000000	0.322612	7.37128e+06	-45239.1	1005.82	-29773.1	0.000000	0.000000	6.322862	0.046462	NaN	0.000000	0.001734	0.001712	28.0852	0.106129	0.002104	50.4478	-35.4838	-165.249	0.061345	0.321279	-0.743388	-0.744721	0.046462	50.4478	-0.744079	-7.809117E+9	-5.949751E-12	NaN
637	1.000000	0.330637	7.37128e+06	-45239.1	1005.82	-29773.1	0.000000	0.000000	6.330883	-0.043967	NaN	0.000000	0.001668	0.001729	28.0849	0.104457	0.002049	50.9765	-100.163	-163.938	-0.021153	0.329325	-0.735363	-0.736675	-0.043967	50.9765	-0.734716	-5.821996E+9	7.551823E-12	NaN
637	1.000000	0.338614	7.37128e+06	-45239.1	1005.82	-29773.1	0.000000	0.000000	6.338861	-0.022196	NaN	0.000000	0.001651	0.001723	28.085	0.097216	0.002069	46.9767	138.482	-163.722	0.036178	0.337295	-0.727386	-0.728705	-0.022196	46.9767	-0.727032	-4.574579E+9	4.851953E-12	NaN
637	1.000000	0.346630	7.37128e+06	-45239.1	1005.82	-29773.1	0.000000	0.000000	6.346878	0.012161	NaN	0.000000	0.001767	0.001701	28.085	0.119592	0.002012	59.4303	97.5562	-164.775	0.086112	0.345263	-0.719370	-0.720737	0.012161	59.4303	-0.719523	-3.613860E+9	-3.365233E-12	NaN
637	1.000000	0.354633	7.37128e+06	-45239.1	1005.82	-29773.1	0.000000	0.000000	6.354880	-0.035937	NaN	0.000000	0.001753	0.001743	28.0836	0.077133	0.002051	37.6024	177.012	-164.931	-0.055644	0.353301	-0.711367	-0.712699	-0.035937	37.6024	-0.710650	-2.734744E+9	1.314081E-11	NaN
637	1.000000	0.362635	7.37128e+06	-45239.1	1005.82	-29773.1	0.000000	0.000000	6.362887	0.104845	NaN	0.000000	0.001741	0.001736	28.0839	0.064971	0.001898	34.24	178.27	-166.107	0.040629	0.361313	-0.703365	-0.704687	0.104845	34.24	-0.705662	-2.337933E+9	-4.484524E-11	NaN
637	1.000000	0.370664	7.37128e+06	-45239.1	1005.82	-29773.1	0.000000	0.000000	6.370913	0.033370	NaN	0.000000	0.001774	0.001710	28.0836	0.149455	0.001860	80.3527	6.544107	-164.914	0.034668	0.369290	-0.695336	-0.696710	0.033370	80.3527	-0.695647	-1.706391E+9	-1.955585E-11	NaN
637	1.000000	0.378632	7.37128e+06	-45239.1	1005.82	-29773.1	0.000000	0.000000	6.378880	0.001469	NaN	0.000000	0.001746	0.001763	28.0837	0.080136	0.002005	39.9745	-1.433137	-165.365	0.014011	0.377317	-0.687368	-0.688683	0.001469	39.9745	-0.687395	-1.316179E+9	-1.116147E-12	NaN
637	1.000000	0.386639	7.37128e+06	-45239.1	1005.82	-29773.1	0.000000	0.000000	6.386888	0.019742	NaN	0.000000	0.001692	0.001743	28.0836	0.150591	0.002066	72.9035	-131.684	-165.985	0.114281	0.385306	-0.679361	-0.680694	0.019742	72.9035	-0.679564	-1.028587E+9	-1.919295E-11	NaN
637	1.000000	0.394637	7.37128e+06	-45239.1	1005.82	-29773.1	0.000000	0.000000	6.394887	0.049385	NaN	0.000000	0.001703	0.001750	28.0835	0.043834	0.001994	21.9857	82.5036	-162.297	-0.009327	0.393309	-0.671363	-0.672691	0.049385	21.9857	-0.673048	-8.377172E+8	-5.895130E-11	NaN
637	1.000000	0.402700	7.37128e+06	-45239.1	1005.82	-29773.1	0.000000	0.000000	6.402947	-0.023744	NaN	0.000000	0.001683	0.001760	28.0839	0.109074	0.002076	52.5465	-141.468	-163.841	0.003373	0.401353	-0.663299	-0.664646	-0.023744	52.5465	-0.662961	-6.095595E+8	3.895201E-11	NaN
637	1.000000	0.410658	7.37128e+06	-45239.1	1005.82	-29773.1	0.000000	0.000000	6.410906	-0.001275	NaN	0.000000	0.001709	0.001749	28.0833	0.107189	0.002030	52.814	-152.301	-166.282	-0.046247	0.409368	-0.655342	-0.656631	-0.001275	52.814	-0.655324	-4.790757E+8	2.660779E-12	NaN
637	1.000000	0.418677	7.37128e+06	-45239.1	1005.82	-29773.1	0.000000	0.000000	6.418926	0.020663	NaN	0.000000	0.001697	0.001702	28.0837	0.129735	0.001962	66.1172	9.038675	-165.293	0.065209	0.417379	-0.647322	-0.648621	0.020663	66.1172	-0.647557	-3.749209E+8	-5.511408E-11	NaN
637	1.000000	0.426674	7.37128e+06	-45239.1	1005.82	-29773.1	0.000000	0.000000	6.426920	-0.029256	NaN	0.000000	0.001677	0.001715	28.0834	0.021589	0.001984	10.8814	33.1022	-165.325	-0.043464	0.425366	-0.639326	-0.640634	-0.029256	10.8814	-0.637310	-2.712523E+8	1.078555E-10	NaN
637	1.000000	0.434663	7.37128e+06	-45239.1	1005.82	-29773.1	0.000000	0.000000	6.434911	0.009560	NaN	0.000000	0.001681	0.001759	28.0835	0.148401	0.002056	72.1777	7.903016	-164.571	-0.041190	0.433353	-0.631337	-0.632646	0.009560	72.1777	-0.631436	-2.252928E+8	-4.243248E-11	NaN
637	1.000000	0.442645	7.37128e+06	-45239.1	1005.82	-29773.1	0.000000	0.000000	6.442894	0.040660	NaN	0.000000	0.001670	0.001764	28.0839	0.061819	0.002068	29.8998	107.801	-166.444	0.076673	0.441355	-0.623355	-0.624645	0.040660	29.8998	-0.624375	-1.802019E+8	-2.256382E-10	NaN
637	1.000000	0.450692	7.37128e+06	-45239.1	1005.82	-29773.1	0.000000	0.000000	6.450939	-0.012855	NaN	0.000000	0.001670	0.001740	28.0833	0.092583	0.002082	44.4722	-57.485	-162.385	0.013579	0.449325	-0.615308	-0.616675	-0.012855	44.4722	-0.615091	-1.343216E+8	9.570516E-11	NaN
637	1.000000	0.458666	7.37128e+06	-45239.1	1005.82	-29773.1	0.000000	0.000000	6.458913	-0.014513	NaN	0.000000	0.001665	0.001731	28.0837	0.123000	0.001903	64.6398	-100.407	-162.518	0.042416	0.457339	-0.607334	-0.608661	-0.014513	64.6398	-0.607166	-1.044993E+8	1.388769E-10	NaN
637	1.000000	0.466674	7.37128e+06	-45239.1	1005.82	-29773.1	0.000000	0.000000	6.466920	-0.036954	NaN	0.000000	0.001692	0.001715	28.0836	0.056122	0.002047	27.4213	-92.4247	-165.983	-0.050181	0.465370	-0.599326	-0.600630	-0.036954	27.4213	-0.598316	-7.893333E+7	4.681646E-10	NaN
637	1.000000	0.474699	7.37128e+06	-45239.1	1005.82	-29773.1	0.000000	0.000000	6.474946	-0.016022	NaN	0.000000	0.001692	0.001766	28.0836	0.075714	0.002037	37.1785	57.0223	-166.131	-0.029930	0.473388	-0.591301	-0.592612	-0.016022	37.1785	-0.590978	-6.253809E+7	2.561928E-10	NaN
637	1.000000	0.482653	7.37128e+06	-45239.1	1005.82	-29773.1	0.000000	0.000000	6.482898	-0.067724	NaN	0.000000	0.001651	0.001739	28.0834	0.133792	0.001909	70.0995	32.8848	-166.065	-0.056710	0.481387	-0.583347	-0.584613	-0.067724	70.0995	-0.582623	-4.796419E+7	1.411966E-9	NaN
637	1.000000	0.490702	7.37128e+06	-45239.1	1005.82	-29773.1	0.000000	0.000000	6.490949	-0.008403	NaN	0.000000	0.001683	0.001727	28.0844	0.083212	0.002000	41.6108	-145.692	-165.421	-0.053548	0.489318	-0.575298	-0.576682	-0.008403	41.6108	-0.575147	-3.782026E+7	2.221802E-10	NaN
637	1.000000	0.498655	7.37128e+06	-45239.1	1005.82	-29773.1	0.000000	0.000000	6.498903	-0.005666	NaN	0.000000	0.001700	0.001725	28.0844	0.067112	0.002007	33.4324	-59.2265	-164.572	-0.050513	0.497404	-0.567345	-0.568596	-0.005666	33.4324	-0.567217	-2.938853E+7	1.927978E-10	NaN
637	1.000000	0.506687	7.37128e+06	-45239.1	1005.82	-29773.1	0.000000	0.000000	6.506935	0.012663	NaN	0.000000	0.001684	0.001713	28.0844	0.005696	0.002010	2.833529	-171.131	-166.412	-0.002490	0.505353	-0.559313	-0.560647	0.012663	2.833529	-0.562665	-2.542382E+7	-4.980837E-10	NaN
637	1.000000	0.514693	7.37128e+06	-45239.1	1005.82	-29773.1	0.000000	0.000000	6.514941	0.013017	NaN	0.000000	0.001690	0.001732	28.0845	0.055565	0.002128	26.1092	140.896	-162.434	0.048504	0.513342	-0.551307	-0.552658	0.013017	26.1092	-0.551681	-1.791599E+7	-7.265355E-10	NaN
637	1.000000	0.522719	7.37128e+06	-45239.1	1005.82	-29773.1	0.000000	0.000000	6.522964	-0.054494	NaN	0.000000	0.001689	0.001734	28.0842	0.120459	0.001944	61.9788	88.2297	-167.165	0.026613	0.521428	-0.543281	-0.544572	-0.054494	61.9788	-0.542622	-1.341876E+7	4.060993E-9	NaN
637	1.000000	0.530704	7.37128e+06	-45239.1	1005.82	-29773.1	0.000000	0.000000	6.530954	0.034552	NaN	0.000000	0.001670	0.001723	28.0843	0.132212	0.001940	68.1635	-166.31	-167.009	0.002483	0.529412	-0.535296	-0.536588	0.034552	68.1635	-0.535676	-1.074899E+7	-3.214470E-9	NaN
637	1.000000	0.538686	7.37128e+06	-45239.1	1005.82	-29773.1	0.000000	0.000000	6.538932	-0.045123	NaN	0.000000	0.001718	0.001712	28.0843	0.027617	0.001895	14.5723	162.312	-163.856	-0.072997	0.537437	-0.527314	-0.528562	-0.045123	14.5723	-0.524992	-7.63832e+06	5.907458E-9	NaN
637	1.000000	0.546727	7.37128e+06	-45239.1	1005.82	-29773.1	0.000000	0.000000	6.546974	-0.028274	NaN	0.000000	0.001681	0.001722	28.0844	0.063052	0.001945	32.4099	-156.905	-164.789	0.062375	0.545403	-0.519273	-0.520597	-0.028274	32.4099	-0.518618	-6.22843e+06	4.539431E-9	NaN
637	1.000000	0.554726	7.37128e+06	-45239.1	1005.82	-29773.1	0.000000	0.000000	6.554976	0.056872	NaN	0.000000	0.001678	0.001718	28.0846	0.118911	0.001932	61.5575	138.63	-165.424	-0.031267	0.553390	-0.511274	-0.512610	0.056872	61.5575	-0.511967	-5.03281e+06	-1.130035E-8	NaN
637	1.000000	0.562738	7.37128e+06	-45239.1	1005.82	-29773.1	0.000000	0.000000	6.562987	0.026409	NaN	0.000000	0.001690	0.001688	28.0843	0.066351	0.002110	31.4465	39.8844	-163.621	-0.054736	0.561311	-0.503262	-0.504689	0.026409	31.4465	-0.503892	-3.88417e+06	-6.799100E-9	NaN
637	1.000000	0.570732	7.37128e+06	-45239.1	1005.82	-29773.1	0.000000	0.000000	6.570981	0.047141	NaN	0.000000	0.001687	0.001736	28.0845	0.057347	0.002066	27.7518	122.1	-162.238	0.041373	0.569381	-0.495268	-0.496619	0.047141	27.7518	-0.496542	-3.06737e+06	-1.536841E-8	NaN
637	1.000000	0.578718	7.37128e+06	-45239.1	1005.82	-29773.1	0.000000	0.000000	6.578966	-0.000757	NaN	0.000000	0.001664	0.001688	28.0843	0.073566	0.002035	36.1418	-139.558	-165.958	-0.040773	0.577442	-0.487282	-0.488558	-0.000757	36.1418	-0.487266	-2.27604e+06	3.324178E-10	NaN
637	1.000000	0.586707	7.37128e+06	-45239.1	1005.82	-29773.1	0.000000	0.000000	6.586953	-0.035359	NaN	0.000000	0.001711	0.001705	28.0842	0.050475	0.001958	25.783	-118.408	-165.058	-0.079889	0.585411	-0.479293	-0.480589	-0.035359	25.783	-0.478265	-1.70307e+06	2.076199E-8	NaN
637	1.000000	0.594725	7.37128e+06	-45239.1	1005.82	-29773.1	0.000000	0.000000	6.594971	-0.060564	NaN	0.000000	0.001661	0.001733	28.0842	0.146566	0.001962	74.6901	-16.6209	-160	-0.048100	0.593434	-0.471275	-0.472566	-0.060564	74.6901	-0.470666	-1.33276e+06	4.544269E-8	NaN
637	1.000000	0.602752	7.37128e+06	-45239.1	1005.82	-29773.1	0.000000	0.000000	6.602998	-0.031050	NaN	0.000000	0.001698	0.001689	28.0842	0.069855	0.002038	34.2701	156.514	-163.309	0.100598	0.601415	-0.463248	-0.464584	-0.031050	34.2701	-0.462569	-1.0259e+06	3.026558E-8	NaN
637	1.000000	0.610722	7.37128e+06	-45239.1	1005.82	-29773.1	0.000000	0.000000	6.610966	-0.077019	NaN	0.000000	0.001664	0.001708	28.0845	0.037410	0.002031	18.4239	-150.562	-164.567	-0.017962	0.609406	-0.455278	-0.456594	-0.077019	18.4239	-0.452143	-732003	1.052161E-7	NaN
637	1.000000	0.618734	7.37128e+06	-45239.1	1005.82	-29773.1	0.000000	0.000000	6.618984	0.058344	NaN	0.000000	0.001682	0.001721	28.0841	0.155744	0.001914	81.3763	-33.4774	-165.521	0.061659	0.617429	-0.447266	-0.448571	0.058344	81.3763	-0.447804	-635923	-9.174724E-8	NaN
637	1.000000	0.626734	7.37128e+06	-45239.1	1005.82	-29773.1	0.000000	0.000000	6.626982	-0.012171	NaN	0.000000	0.001686	0.001707	28.0831	0.036171	0.002060	17.5612	135.682	-164.595	-0.023352	0.625393	-0.439266	-0.440607	-0.012171	17.5612	-0.438746	-473871	2.568499E-8	NaN
637	1.000000	0.634766	7.37128e+06	-45239.1	1005.82	-29773.1	0.000000	0.000000	6.635013	-0.016196	NaN	0.000000	0.001696	0.001717	28.0832	0.080551	0.002016	39.9467	130.871	-168.812	-0.040961	0.633456	-0.431234	-0.432544	-0.016196	39.9467	-0.430930	-367460	4.407653E-8	NaN
637	1.000000	0.642745	7.37128e+06	-45239.1	1005.82	-29773.1	0.000000	0.000000	6.642993	0.025761	NaN	0.000000	0.001656	0.001733	28.083	0.076202	0.002064	36.9175	129.244	-162.91	-0.063751	0.641455	-0.423255	-0.424544	0.025761	36.9175	-0.423779	-291059	-8.850752E-8	NaN
637	1.000000	0.650748	7.37128e+06	-45239.1	1005.82	-29773.1	0.000000	0.000000	6.650994	-0.041856	NaN	0.000000	0.001646	0.001750	28.0834	0.035639	0.002085	17.0902	-159.103	-165.752	-0.045079	0.649384	-0.415252	-0.416616	-0.041856	17.0902	-0.413415	-207463	2.017514E-7	NaN
637	1.000000	0.658764	7.37128e+06	-45239.1	1005.82	-29773.1	0.000000	0.000000	6.659013	0.039599	NaN	0.000000	0.001670	0.001723	28.0828	0.098700	0.001909	51.6919	161.884	-162.602	-0.024549	0.657420	-0.407236	-0.408579	0.039599	51.6919	-0.407811	-172686	-2.293099E-7	NaN
637	1.000000	0.666792	7.37128e+06	-45239.1	1005.82	-29773.1	0.000000	0.000000	6.667041	0.038829	NaN	0.000000	0.001675	0.001720	28.083	0.047697	0.001954	24.4137	27.8743	-165.821	0.032998	0.665469	-0.399208	-0.400531	0.038829	24.4137	-0.400401	-135430	-2.867084E-7	NaN
637	1.000000	0.674770	7.37128e+06	-45239.1	1005.82	-29773.1	0.000000	0.000000	6.675021	0.071987	NaN	0.000000	0.001687	0.001748	28.0828	0.090816	0.002077	43.7259	-117.27	-161.422	0.071787	0.673439	-0.391229	-0.392560	0.071987	43.7259	-0.392464	-104329	-6.900019E-7	NaN
637	1.000000	0.682777	7.37128e+06	-45239.1	1005.82	-29773.1	0.000000	0.000000	6.683027	0.044800	NaN	0.000000	0.001692	0.001714	28.0827	0.035811	0.001911	18.7367	-17.8896	-166.657	0.034316	0.681484	-0.383223	-0.384516	0.044800	18.7367	-0.385016	-81624.1	-5.488593E-7	NaN
637	1.000000	0.690766	7.37128e+06	-45239.1	1005.82	-29773.1	0.000000	0.000000	6.691016	0.042484	NaN	0.000000	0.001668	0.001733	28.0828	0.074387	0.002023	36.764	164.455	-164.579	0.047036	0.689481	-0.375234	-0.376519	0.042484	36.764	-0.376100	-60797.4	-6.987790E-7	NaN
637	1.000000	0.698766	7.37128e+06	-45239.1	1005.82	-29773.1	0.000000	0.000000	6.699014	0.005968	NaN	0.000000	0.001650	0.001731	28.0829	0.107760	0.001968	54.7527	161.961	-166.82	3.862686E-5	0.697416	-0.367234	-0.368584	0.005968	54.7527	-0.367316	-45441.3	-1.313407E-7	NaN
637	1.000000	0.706810	7.37128e+06	-45239.1	1005.82	-29773.1	0.000000	0.000000	6.707055	-0.072142	NaN	0.000000	0.001713	0.001727	28.0832	0.079530	0.001909	41.6517	-143.925	-164.335	0.002158	0.705471	-0.359190	-0.360529	-0.072142	41.6517	-0.357891	-33216	2.171909E-6	NaN
637	1.000000	0.714776	7.37128e+06	-45239.1	1005.82	-29773.1	0.000000	0.000000	6.715022	-0.027850	NaN	0.000000	0.001665	0.001744	28.0827	0.076386	0.002069	36.9197	178.422	-167.546	-0.037048	0.713444	-0.351224	-0.352555	-0.027850	36.9197	-0.350659	-26095.1	1.067264E-6	NaN
637	1.000000	0.722789	7.37128e+06	-45239.1	1005.82	-29773.1	0.000000	0.000000	6.723036	-0.004823	NaN	0.000000	0.001628	0.001714	28.0826	0.122713	0.002026	60.5545	146.857	-163.506	0.023811	0.721489	-0.343211	-0.344511	-0.004823	60.5545	-0.343152	-20298.4	2.376210E-7	NaN
637	1.000000	0.730798	7.37129e+06	-45239.1	1005.82	-29773.1	0.000000	0.000000	6.731045	-0.020856	NaN	0.000000	0.001696	0.001698	28.0827	0.026815	0.001831	14.6483	-105.549	-161.337	-0.002106	0.729468	-0.335202	-0.336532	-0.020856	14.6483	-0.334134	-14994.5	1.390937E-6	NaN
637	1.000000	0.738784	7.37129e+06	-45239.1	1005.82	-29773.1	0.000000	0.000000	6.739031	-0.025330	NaN	0.000000	0.001665	0.001739	28.0829	0.096207	0.002103	45.7551	-40.0472	-166.468	0.037751	0.737500	-0.327216	-0.328500	-0.025330	45.7551	-0.326801	-11710.2	2.163117E-6	NaN
637	1.000000	0.746805	7.37129e+06	-45239.1	1005.82	-29773.1	0.000000	0.000000	6.747056	0.065526	NaN	0.000000	0.001655	0.001744	28.0832	0.042639	0.002061	20.6858	-154.643	-167.514	0.015279	0.745454	-0.319195	-0.320546	0.065526	20.6858	-0.321571	-9811.73	-6.678291E-6	NaN
637	1.000000	0.754854	7.37129e+06	-45239.1	1005.82	-29773.1	0.000000	0.000000	6.755099	-0.079337	NaN	0.000000	0.001645	0.001742	28.083	0.012905	0.002030	6.357698	57.1878	-163.955	-0.002402	0.753506	-0.311145	-0.312493	-0.079337	6.357698	-0.301786	-5002.78	1.585860E-5	NaN
637	1.000000	0.762829	7.37129e+06	-45239.1	1005.82	-29773.1	0.000000	0.000000	6.763078	0.025289	NaN	0.000000	0.001654	0.001749	28.0842	0.081502	0.001984	41.0826	-15.7817	-165.158	0.002091	0.761497	-0.303171	-0.304503	0.025289	41.0826	-0.303633	-5329.11	-4.745531E-6	NaN
637	1.000000	0.770818	7.37129e+06	-45239.1	1005.82	-29773.1	0.000000	0.000000	6.771067	0.031861	NaN	0.000000	0.001643	0.001731	28.0845	0.111993	0.001862	60.1538	-43.1508	-164.521	0.042837	0.769493	-0.295182	-0.296507	0.031861	60.1538	-0.295579	-4043.24	-7.880090E-6	NaN
637	1.000000	0.778797	7.37129e+06	-45239.1	1005.82	-29773.1	0.000000	0.000000	6.779042	-0.060279	NaN	0.000000	0.001673	0.001749	28.0841	0.070389	0.001990	35.38	-19.0658	-162.553	0.004603	0.777488	-0.287203	-0.288512	-0.060279	35.38	-0.285925	-2898.5	2.079656E-5	NaN
637	1.000000	0.786828	7.37129e+06	-45239.1	1005.82	-29773.1	0.000000	0.000000	6.787076	0.010668	NaN	0.000000	0.001629	0.001755	28.0842	0.041171	0.002070	19.8849	5.206425	-162.557	-0.002147	0.785504	-0.279172	-0.280496	0.010668	19.8849	-0.279574	-2325.67	-4.586864E-6	NaN
637	1.000000	0.794816	7.37129e+06	-45239.1	1005.82	-29773.1	0.000000	0.000000	6.795063	-0.027653	NaN	0.000000	0.001673	0.001749	28.0842	0.036295	0.001876	19.346	-22.3224	-165.146	-0.050901	0.793494	-0.271183	-0.272506	-0.027653	19.346	-0.270111	-1672	1.653906E-5	NaN
637	1.000000	0.802826	7.37129e+06	-45239.1	1005.82	-29773.1	0.000000	0.000000	6.803071	-0.071156	NaN	0.000000	0.001714	0.001729	28.0846	0.065740	0.001976	33.2643	139.286	-163.718	-0.077660	0.801482	-0.263174	-0.264518	-0.071156	33.2643	-0.261570	-1238.67	5.744520E-5	NaN
637	1.000000	0.810817	7.37129e+06	-45239.1	1005.82	-29773.1	0.000000	0.000000	6.811062	-0.054446	NaN	0.000000	0.001653	0.001746	28.0844	0.087146	0.002007	43.4265	8.877935	-167.207	0.029514	0.809497	-0.255183	-0.256503	-0.054446	43.4265	-0.254243	-955.99	5.695272E-5	NaN
637	1.000000	0.818824	7.37129e+06	-45239.1	1005.82	-29773.1	0.000000	0.000000	6.819070	-0.042025	NaN	0.000000	0.001657	0.001752	28.0842	0.019312	0.002059	9.379992	150.965	-166.136	-0.091972	0.817523	-0.247176	-0.248477	-0.042025	9.379992	-0.243816	-659.236	6.374855E-5	NaN
637	1.000000	0.826827	7.37129e+06	-45239.1	1005.82	-29773.1	0.000000	0.000000	6.827074	-0.017391	NaN	0.000000	0.001690	0.001748	28.0841	0.039137	0.001994	19.6262	-162.677	-163.029	0.024487	0.825540	-0.239173	-0.240460	-0.017391	19.6262	-0.238509	-544.807	3.192156E-5	NaN
637	1.000000	0.834837	7.37129e+06	-45239.1	1005.82	-29773.1	0.000000	0.000000	6.835083	-0.037745	NaN	0.000000	0.001677	0.001762	28.084	0.007574	0.002009	3.770593	-142.258	-168.223	-0.008303	0.833544	-0.231163	-0.232456	-0.037745	3.770593	-0.223655	-317.656	0.000119	NaN
637	1.000000	0.842846	7.37129e+06	-45239.1	1005.82	-29773.1	0.000000	0.000000	6.843092	-0.025172	NaN	0.000000	0.001651	0.001732	28.0844	0.055869	0.002033	27.4788	-102.411	-165.27	-0.041677	0.841518	-0.223154	-0.224482	-0.025172	27.4788	-0.222467	-304.12	8.276973E-5	NaN
637	1.000000	0.850852	7.37129e+06	-45239.1	1005.82	-29773.1	0.000000	0.000000	6.851102	0.047252	NaN	0.000000	0.001661	0.001705	28.0841	0.148719	0.001945	76.4467	31.7295	-161.624	0.046836	0.849452	-0.215148	-0.216548	0.047252	76.4467	-0.215612	-236.237	-0.000200	NaN
637	1.000000	0.858807	7.37129e+06	-45239.1	1005.82	-29773.1	0.000000	0.000000	6.859054	-0.018204	NaN	0.000000	0.001693	0.001763	28.0842	0.050779	0.002162	23.4903	134.532	-164.228	-0.052337	0.857589	-0.207193	-0.208411	-0.018204	23.4903	-0.206612	-168.975	0.000108	NaN
637	1.000000	0.866804	7.37129e+06	-45239.1	1005.82	-29773.1	0.000000	0.000000	6.867052	-0.015044	NaN	0.000000	0.001686	0.001773	28.0843	0.139038	0.002005	69.3597	-153.312	-163.191	0.006153	0.865544	-0.199195	-0.200456	-0.015044	69.3597	-0.199033	-126.997	0.000118	NaN
637	1.000000	0.874823	7.37129e+06	-45239.1	1005.82	-29773.1	0.000000	0.000000	6.875072	0.041603	NaN	0.000000	0.001724	0.001748	28.0843	0.131085	0.002017	64.9892	99.7057	-163.214	0.013201	0.873576	-0.191177	-0.192424	0.041603	64.9892	-0.191657	-95.8675	-0.000434	NaN
637	1.000000	0.882857	7.37129e+06	-45239.1	1005.82	-29773.1	0.000000	0.000000	6.883106	0.013098	NaN	0.000000	0.001687	0.001772	28.0844	0.130096	0.001903	68.362	99.6344	-164.267	0.048632	0.881553	-0.183143	-0.184447	0.013098	68.362	-0.183286	-69.3751	-0.000189	NaN
637	1.000000	0.890858	7.37129e+06	-45239.1	1005.82	-29773.1	0.000000	0.000000	6.891105	-0.019625	NaN	0.000000	0.001747	0.001738	28.0844	0.089473	0.001832	48.841	125.611	-162.257	-0.061045	0.889561	-0.175142	-0.176439	-0.019625	48.841	-0.174841	-49.8014	0.000394	NaN
637	1.000000	0.898884	7.37129e+06	-45239.1	1005.82	-29773.1	0.000000	0.000000	6.899130	-0.039175	NaN	0.000000	0.001770	0.001760	28.0834	0.020754	0.002032	10.213	-164.81	-163.195	-0.049803	0.897553	-0.167116	-0.168446	-0.039175	10.213	-0.164239	-32.5785	0.001202	NaN
637	1.000000	0.906863	7.37129e+06	-45239.1	1005.82	-29773.1	0.000000	0.000000	6.907107	-0.101971	NaN	0.000000	0.001730	0.001758	28.083	0.069679	0.002020	34.4896	44.3772	-168.38	-0.085186	0.905511	-0.159137	-0.160489	-0.101971	34.4896	-0.156919	-24.1566	0.004221	NaN
637	1.000000	0.914854	7.37129e+06	-45239.1	1005.82	-29773.1	0.000000	0.000000	6.915101	-0.040570	NaN	0.000000	0.001698	0.001749	28.0831	0.160810	0.001962	81.9707	-70.1813	-164.374	-0.015856	0.913529	-0.151145	-0.152471	-0.040570	81.9707	-0.150774	-18.7116	0.002168	NaN
637	1.000000	0.922869	7.37129e+06	-45239.1	1005.82	-29773.1	0.000000	0.000000	6.923119	0.050123	NaN	0.000000	0.001693	0.001766	28.0829	0.117444	0.002093	56.1257	161.112	-165.992	0.085208	0.921550	-0.143131	-0.144450	0.050123	56.1257	-0.143801	-13.9298	-0.003598	NaN
637	1.000000	0.930877	7.37129e+06	-45239.1	1005.82	-29773.1	0.000000	0.000000	6.931123	-0.045834	NaN	0.000000	0.001663	0.001748	28.0829	0.094383	0.002097	45.016	41.9215	-168.377	-0.009872	0.929577	-0.135123	-0.136422	-0.045834	45.016	-0.134360	-9.248078	0.004956	NaN
637	1.000000	0.938875	7.37129e+06	-45239.1	1005.82	-29773.1	0.000000	0.000000	6.939122	-0.014236	NaN	0.000000	0.001667	0.001745	28.0832	0.120879	0.001921	62.9098	70.2257	-165.423	-0.064836	0.937546	-0.127125	-0.128454	-0.014236	62.9098	-0.126956	-6.645795	0.002142	NaN
637	1.000000	0.946902	7.37129e+06	-45239.1	1005.82	-29773.1	0.000000	0.000000	6.947144	-0.137315	NaN	0.000000	0.001673	0.001781	28.0828	0.022845	0.002017	11.3233	-6.665226	-164.744	-0.181797	0.945529	-0.119098	-0.120471	-0.137315	11.3233	-0.110003	-3.005572	0.045687	NaN
637	1.000000	0.954882	7.37129e+06	-45239.1	1005.82	-29773.1	0.000000	0.000000	6.955124	-0.137563	NaN	0.000000	0.001697	0.001747	28.083	0.043167	0.002193	19.6872	127.372	-163.814	-0.188669	0.953552	-0.111118	-0.112448	-0.137563	19.6872	-0.105877	-2.455195	0.056029	NaN
637	1.000000	0.962869	7.37129e+06	-45239.1	1005.82	-29773.1	0.000000	0.000000	6.963114	-0.069176	NaN	0.000000	0.001701	0.001754	28.0828	0.042981	0.001950	22.0383	-12.4253	-167.547	-0.104224	0.961563	-0.103131	-0.104436	-0.069176	22.0383	-0.100777	-1.900864	0.036392	NaN
637	1.000000	0.970899	7.37129e+06	-45239.1	1005.82	-29773.1	0.000000	0.000000	6.971144	-0.081634	NaN	0.000000	0.001658	0.001786	28.0828	0.200323	0.001856	107.928	42.5128	-166.9	-0.041017	0.969630	-0.095101	-0.096370	-0.081634	107.928	-0.094533	-1.376471	0.059307	NaN
637	1.000000	0.978896	7.37129e+06	-45239.1	1005.82	-29773.1	0.000000	0.000000	6.979144	0.004452	NaN	0.000000	0.001663	0.001756	28.0831	0.190070	0.001931	98.4097	14.4143	-164.59	-0.020246	0.977603	-0.087104	-0.088397	0.004452	98.4097	-0.087138	-0.924871	-0.004813	NaN
637	1.000000	0.986876	7.37129e+06	-45239.1	1005.82	-29773.1	0.000000	0.000000	6.987125	0.046847	NaN	0.000000	0.001668	0.001751	28.083	0.186892	0.002024	92.337	43.7829	-167.537	0.019578	0.985567	-0.079124	-0.080433	0.046847	92.337	-0.079505	-0.601562	-0.077875	NaN
637	1.000000	0.994879	7.37129e+06	-45239.1	1005.82	-29773.1	0.000000	0.000000	6.995130	0.065063	NaN	0.000000	0.001670	0.001729	28.0833	0.180339	0.002054	87.7842	31.2752	-165.445	0.115330	0.993611	-0.071121	-0.072389	0.065063	87.7842	-0.071676	-0.378041	-0.172107	NaN
637	1.000000	1.002877	7.37129e+06	-45239.1	1005.82	-29773.1	0.000000	0.000000	7.003135	0.246047	NaN	0.000000	0.001641	0.001782	28.0831	0.375716	0.002048	183.445	28.9684	-169.021	0.217932	1.001596	-0.063123	-0.064404	0.246047	183.445	-0.064129	-0.235687	-1.043954	NaN
637	1.000000	1.010932	7.37129e+06	-45239.1	1005.82	-29773.1	0.000000	0.000000	7.011206	0.622423	NaN	0.000000	0.001646	0.001723	28.0832	0.462040	0.001976	233.87	16.0307	-167.52	0.586795	1.009596	-0.055068	-0.056404	0.622423	233.87	-0.057064	-0.148075	-4.203418	NaN
637	1.000000	1.018867	7.37129e+06	-45239.1	1005.82	-29773.1	0.000000	0.000000	7.019152	0.910371	NaN	0.000000	0.001723	0.001741	28.0833	0.616812	0.002042	302.018	29.2593	-166.106	0.867488	1.017626	-0.047133	-0.048374	0.910371	302.018	-0.049393	-0.087473	-10.4075	NaN
637	1.000000	1.026886	7.37129e+06	-45239.1	1005.82	-29773.1	0.000000	0.000000	7.027189	1.340169	NaN	0.000000	0.001681	0.001757	28.0831	0.760573	0.001921	395.839	27.2502	-168.039	1.225515	1.025613	-0.039114	-0.040387	1.340169	395.839	-0.041653	-0.050779	-26.3922	NaN
637	1.000000	1.034908	7.37129e+06	-45239.1	1005.82	-29773.1	0.000000	0.000000	7.035227	1.718373	NaN	0.000000	0.001681	0.001758	28.0846	0.705718	0.001936	364.599	31.9558	-168.171	1.681231	1.033594	-0.031092	-0.032406	1.718373	364.599	-0.034626	-0.031224	-55.0329	NaN
637	1.000000	1.042897	7.37129e+06	-45239.1	1005.82	-29773.1	0.000000	0.000000	7.043220	1.830607	NaN	0.000000	0.001641	0.001771	28.0845	0.904417	0.001953	463.076	32.2807	-168.807	1.880030	1.041607	-0.023103	-0.024393	1.830607	463.076	-0.026068	-0.017997	-101.718	NaN
637	1.000000	1.050915	7.37129e+06	-45239.1	1005.82	-29773.1	0.000000	0.000000	7.051224	1.494822	NaN	0.000000	0.001660	0.001786	28.0846	0.962467	0.001856	518.697	38.7682	-165.619	1.606980	1.049586	-0.015085	-0.016414	1.494822	518.697	-0.017246	-0.010669	-140.115	NaN
637	1.000000	1.058906	7.37129e+06	-45239.1	1005.82	-29773.1	0.000000	0.000000	7.059225	1.727758	NaN	0.000000	0.001645	0.001765	28.0848	1.654703	0.001963	842.773	29.7307	-166.575	1.639299	1.057630	-0.007094	-0.008370	1.727758	842.773	-0.008631	-0.005600	-308.552	NaN
637	1.000000	1.066884	7.37129e+06	-45239.1	1005.82	-29773.1	0.000000	0.000000	7.067343	5.140635	NaN	0.000000	0.001632	0.001771	28.0842	5.768021	0.001845	3126.05	15.6461	-172.629	3.692788	1.065539	0.000884	-0.000461	5.140635	3126.05	-0.000350	-0.000260	-19803	NaN
637	2.000000	1.070571	7.37129e+06	-45239.1	1005.82	-29773.1	0.000000	0.000000	7.071155	8.194984	NaN	0.000000	0.001654	0.001695	28.0845	8.653263	0.001623	5330.27	4.939324	-168.606	7.681457	1.070208	0.004571	0.004208	8.194984	5330.27	0.003418	0.002734	2997.01	93130.6
637	2.000000	1.072572	7.37129e+06	-45239.1	1005.82	-29773.1	0.000000	0.000000	7.073225	9.857498	NaN	0.000000	0.001617	0.001744	28.0846	11.4614	0.001898	6039.08	7.597436	-172.286	10.3234	1.072248	0.006572	0.006248	9.857498	6039.08	0.005348	0.004453	2213.54	82680.6
637	2.000000	1.074526	7.37129e+06	-45239.1	1005.82	-29773.1	0.000000	0.000000	7.075362	14.295	NaN	0.000000	0.001656	0.001744	28.0845	13.4162	0.001671	8029.62	7.060625	-174.245	14.0963	1.074213	0.008527	0.008214	14.295	8029.62	0.007191	0.006224	2296.83	92991.1
637	2.000000	1.076524	7.37129e+06	-45239.1	1005.82	-29773.1	0.000000	0.000000	7.077487	17.3868	NaN	0.000000	0.001608	0.001725	28.0845	16.0683	0.001639	9801.1	9.358077	-179.963	17.1452	1.076232	0.010524	0.010232	17.3868	9801.1	0.009194	0.008299	2094.98	98294.5
637	2.000000	1.078560	7.37129e+06	-45239.1	1005.82	-29773.1	0.000000	0.000000	7.079682	21.2849	NaN	0.000000	0.001679	0.001786	28.0843	17.9554	0.001830	9813.18	6.401366	-173.6	22.1023	1.078247	0.012560	0.012247	21.2849	9813.18	0.010933	0.010237	2079.25	88613.6
637	2.000000	1.080481	7.37129e+06	-45239.1	1005.82	-29773.1	0.000000	0.000000	7.081753	24.9266	NaN	0.000000	0.001650	0.001798	28.0848	20.0433	0.001858	10788.4	9.102931	-178.58	24.2034	1.080154	0.014481	0.014154	24.9266	10788.4	0.012748	0.012398	2010.49	88522
637	2.000000	1.082473	7.37129e+06	-45239.1	1005.82	-29773.1	0.000000	0.000000	7.083935	29.5476	NaN	0.000000	0.001623	0.001782	28.0844	22.016	0.001895	11617.7	5.143544	-176.029	28.3648	1.082178	0.016473	0.016178	29.5476	11617.7	0.014565	0.014710	2008.65	87515.1
637	2.000000	1.084499	7.37129e+06	-45239.1	1005.82	-29773.1	0.000000	0.000000	7.086172	34.6836	NaN	0.000000	0.001619	0.001787	28.0847	23.661	0.001844	12832.8	3.151708	-175.555	34.147	1.084144	0.018499	0.018145	34.6836	12832.8	0.016472	0.017298	2005.02	89144.3
637	2.000000	1.086480	7.37129e+06	-45239.1	1005.82	-29773.1	0.000000	0.000000	7.088438	41.5863	NaN	0.000000	0.001656	0.001800	28.0844	26.0899	0.001809	14425	7.878064	178.405	41.8102	1.086165	0.020481	0.020165	41.5863	14425	0.018318	0.019968	2082.61	93264.8
637	2.000000	1.088490	7.37129e+06	-45239.1	1005.82	-29773.1	0.000000	0.000000	7.090680	47.2393	NaN	0.000000	0.001661	0.001761	28.0848	27.5413	0.001656	16626.5	5.783765	179.911	46.3248	1.088082	0.022490	0.022082	47.2393	16626.5	0.020359	0.023110	2044.1	99924.6
637	2.000000	1.090446	7.37129e+06	-45239.1	1005.82	-29773.1	0.000000	0.000000	7.092930	54.3977	NaN	0.000000	0.001642	0.001751	28.0854	29.1403	0.001673	17419.7	4.180834	-178.932	52.3557	1.090046	0.024446	0.024046	54.3977	17419.7	0.022104	0.025957	2095.69	98783.9
637	2.000000	1.092436	7.37129e+06	-45239.1	1005.82	-29773.1	0.000000	0.000000	7.095132	59.5683	NaN	0.000000	0.001667	0.001762	28.0845	33.0611	0.001880	17589.2	8.805307	176.768	58.8897	1.092132	0.026436	0.026132	59.5683	17589.2	0.023896	0.029038	2051.41	94305.4
637	2.000000	1.094443	7.37129e+06	-45239.1	1005.82	-29773.1	0.000000	0.000000	7.097495	68.2211	NaN	0.000000	0.001651	0.001757	28.0835	33.4299	0.001764	18946.8	10.0511	174.741	67.4878	1.094047	0.028443	0.028047	68.2211	18946.8	0.025742	0.032380	2106.89	96198.8
637	2.000000	1.096471	7.37129e+06	-45239.1	1005.82	-29773.1	0.000000	0.000000	7.099652	71.3416	NaN	0.000000	0.001656	0.001785	28.0835	35.7086	0.001659	21523.8	5.247796	177.501	72.1478	1.096173	0.030471	0.030173	71.3416	21523.8	0.027985	0.036671	1945.43	102690
637	2.000000	1.098501	7.37129e+06	-45239.1	1005.82	-29773.1	0.000000	0.000000	7.102203	84.0326	NaN	0.000000	0.001653	0.001784	28.0838	39.2683	0.001895	20724.4	7.774650	175.217	84.0253	1.098147	0.032501	0.032147	84.0326	20724.4	0.029460	0.039632	2120.31	95111.1
637	2.000000	1.100421	7.37129e+06	-45239.1	1005.82	-29773.1	0.000000	0.000000	7.104396	90.6785	NaN	0.000000	0.001629	0.001789	28.0836	40.1462	0.001748	22972.8	2.929120	179.174	88.8779	1.100132	0.034421	0.034132	90.6785	22972.8	0.031461	0.043826	2069.06	100259
637	2.000000	1.102435	7.37129e+06	-45239.1	1005.82	-29773.1	0.000000	0.000000	7.106732	98.4969	NaN	0.000000	0.001667	0.001802	28.0836	43.1094	0.001713	25167.3	4.537300	177.237	96.8762	1.102120	0.036435	0.036120	98.4969	25167.3	0.033500	0.048311	2038.81	104613
637	2.000000	1.104369	7.37129e+06	-45239.1	1005.82	-29773.1	0.000000	0.000000	7.109140	110.043	NaN	0.000000	0.001670	0.001791	28.0832	43.4218	0.001705	25474.4	2.700301	178.952	106.683	1.104032	0.038369	0.038032	110.043	25474.4	0.035129	0.052047	2114.31	102019
637	2.000000	1.106414	7.37129e+06	-45239.1	1005.82	-29773.1	0.000000	0.000000	7.111553	118.992	NaN	0.000000	0.001680	0.001803	28.0834	46.6061	0.001795	25962	6.298672	175.16	115.798	1.106041	0.040414	0.040041	118.992	25962	0.036976	0.056447	2108.02	99836.6
637	2.000000	1.108437	7.37129e+06	-45239.1	1005.82	-29773.1	0.000000	0.000000	7.113932	127.654	NaN	0.000000	0.001710	0.001841	28.0833	48.9778	0.001887	25955.2	4.569696	176.496	125.448	1.108176	0.042437	0.042176	127.654	25955.2	0.038748	0.060834	2098.4	96144.6
637	2.000000	1.110398	7.37129e+06	-45239.1	1005.82	-29773.1	0.000000	0.000000	7.116357	138.929	NaN	0.000000	0.001628	0.001848	28.084	49.9128	0.001787	27930.3	1.959509	177.809	136.146	1.110084	0.044398	0.044084	138.929	27930.3	0.040668	0.065766	2112.49	99506
637	2.000000	1.112430	7.37129e+06	-45239.1	1005.82	-29773.1	0.000000	0.000000	7.118856	150.282	NaN	0.000000	0.001672	0.001846	28.0835	52.3076	0.001595	32797.1	5.481784	173.475	150.026	1.112110	0.046431	0.046110	150.282	32797.1	0.042994	0.071994	2087.41	111676
637	2.000000	1.114404	7.37129e+06	-45239.1	1005.82	-29773.1	0.000000	0.000000	7.121336	162.605	NaN	0.000000	0.001733	0.001802	28.0831	53.9839	0.001843	29285.7	4.895474	174.761	161.431	1.114062	0.048404	0.048062	162.605	29285.7	0.044240	0.075444	2155.32	97413.1
637	2.000000	1.116391	7.37129e+06	-45239.1	1005.82	-29773.1	0.000000	0.000000	7.123681	171.303	NaN	0.000000	0.001778	0.001845	28.0832	57.0117	0.001683	33882.5	5.700544	172.763	169.155	1.116009	0.050391	0.050009	171.303	33882.5	0.046600	0.082193	2084.16	107977
637	2.000000	1.118468	7.37129e+06	-45239.1	1005.82	-29773.1	0.000000	0.000000	7.126377	186.362	NaN	0.000000	0.001692	0.001826	28.0833	59.5131	0.001764	33732	5.753314	173.811	185.023	1.118073	0.052469	0.052073	186.362	33732	0.048325	0.087306	2134.59	104302
637	2.000000	1.120404	7.37129e+06	-45239.1	1005.82	-29773.1	0.000000	0.000000	7.128783	197.79	NaN	0.000000	0.001722	0.001831	28.0834	61.0697	0.001723	35453.5	3.920776	174.125	196.012	1.120100	0.054405	0.054101	197.79	35453.5	0.050220	0.093096	2124.59	106162
637	2.000000	1.122422	7.37129e+06	-45239.1	1005.82	-29773.1	0.000000	0.000000	7.131369	211.624	NaN	0.000000	0.001741	0.001813	28.0835	64.4991	0.001914	33706.4	2.050089	176.762	208.972	1.122097	0.056423	0.056097	211.624	33706.4	0.051714	0.097784	2164.2	98481.1
637	2.000000	1.124444	7.37129e+06	-45239.1	1005.82	-29773.1	0.000000	0.000000	7.133865	223.166	NaN	0.000000	0.001725	0.001841	28.0833	65.6	0.001815	36141.5	4.695161	173.706	225.162	1.124095	0.058444	0.058095	223.166	36141.5	0.053813	0.104561	2134.31	102116
637	2.000000	1.126416	7.37129e+06	-45239.1	1005.82	-29773.1	0.000000	0.000000	7.136474	238.656	NaN	0.000000	0.001740	0.001829	28.0834	68.1879	0.001819	37486.1	5.398576	173.053	239.094	1.126001	0.060416	0.060002	238.656	37486.1	0.055641	0.110644	2156.97	102963
637	2.000000	1.128454	7.37129e+06	-45239.1	1005.82	-29773.1	0.000000	0.000000	7.138976	249.949	NaN	0.000000	0.001736	0.001839	28.0842	70.4338	0.001828	38537.3	6.049347	171.655	249.277	1.128111	0.062454	0.062111	249.949	38537.3	0.057590	0.117307	2130.73	102800
637	2.000000	1.130349	7.37129e+06	-45239.1	1005.82	-29773.1	0.000000	0.000000	7.141337	261.272	NaN	0.000000	0.001741	0.001838	28.0848	71.4988	0.001840	38864.4	3.399179	173.959	256.572	1.130035	0.064350	0.064035	261.272	38864.4	0.059308	0.123337	2118.37	101106
637	2.000000	1.132413	7.37129e+06	-45239.1	1005.82	-29773.1	0.000000	0.000000	7.144007	276.035	NaN	0.000000	0.001722	0.001814	28.0849	74.277	0.001822	40766.8	6.636299	170.777	277.95	1.132073	0.066413	0.066073	276.035	40766.8	0.061334	0.130637	2113	103050
637	2.000000	1.134368	7.37129e+06	-45239.1	1005.82	-29773.1	0.000000	0.000000	7.146368	285.89	NaN	0.000000	0.001713	0.001818	28.0844	73.6532	0.001731	42553.1	1.162416	175.714	284.011	1.134106	0.068368	0.068106	285.89	42553.1	0.063329	0.138016	2071.42	104650
637	2.000000	1.136362	7.37129e+06	-45239.1	1005.82	-29773.1	0.000000	0.000000	7.148973	300.755	NaN	0.000000	0.001765	0.001782	28.0848	77.0561	0.001712	45011.5	7.269254	169.371	299.053	1.136103	0.070362	0.070103	300.755	45011.5	0.065351	0.145692	2064.32	107740
637	2.000000	1.138431	7.37129e+06	-45239.1	1005.82	-29773.1	0.000000	0.000000	7.151597	314.263	NaN	0.000000	0.001756	0.001811	28.0844	79.2628	0.001805	43913.6	4.909471	172.018	314.894	1.138018	0.072431	0.072018	314.263	43913.6	0.067064	0.152349	2062.79	102790
637	2.000000	1.140280	7.37129e+06	-45239.1	1005.82	-29773.1	0.000000	0.000000	7.154196	332.496	NaN	0.000000	0.001699	0.001818	28.0848	80.8978	0.001829	44228.3	6.851816	169.641	328.13	1.140076	0.074281	0.074076	332.496	44228.3	0.068642	0.158609	2096.33	101464
637	2.000000	1.142315	7.37129e+06	-45239.1	1005.82	-29773.1	0.000000	0.000000	7.156827	347.019	NaN	0.000000	0.001743	0.001780	28.0843	82.9355	0.001882	44069.6	4.519691	172.156	343.819	1.142070	0.076315	0.076070	347.019	44069.6	0.070409	0.165756	2093.56	98895.8
637	2.000000	1.144300	7.37129e+06	-45239.1	1005.82	-29773.1	0.000000	0.000000	7.159404	361.408	NaN	0.000000	0.001780	0.001795	28.0843	83.0428	0.001754	47338	2.454090	174.072	355.295	1.143902	0.078300	0.077903	361.408	47338	0.072574	0.174716	2068.54	103470
637	2.000000	1.146334	7.37129e+06	-45239.1	1005.82	-29773.1	0.000000	0.000000	7.161915	373.026	NaN	0.000000	0.001724	0.001817	28.0842	86.0623	0.001729	49781.8	6.477522	169.102	370.106	1.146128	0.080334	0.080129	373.026	49781.8	0.074714	0.183791	2029.62	106092
637	2.000000	1.148331	7.37129e+06	-45239.1	1005.82	-29773.1	0.000000	0.000000	7.164565	388.914	NaN	0.000000	0.001771	0.001779	28.0844	88.4626	0.001875	47190.8	3.075563	173.121	384.666	1.148055	0.082331	0.082055	388.914	47190.8	0.076150	0.190001	2046.91	98912.8
637	2.000000	1.150265	7.37129e+06	-45239.1	1005.82	-29773.1	0.000000	0.000000	7.167303	408.451	NaN	0.000000	0.001740	0.001742	28.0846	90.5105	0.001814	49906.4	5.388502	170.448	402.514	1.150063	0.084265	0.084063	408.451	49906.4	0.078127	0.198709	2055.53	102287
637	2.000000	1.152405	7.37129e+06	-45239.1	1005.82	-29773.1	0.000000	0.000000	7.169970	421.271	NaN	0.000000	0.001722	0.001779	28.0845	92.6962	0.001812	51163.1	3.978568	171.435	422.573	1.152106	0.086405	0.086106	421.271	51163.1	0.080230	0.208174	2023.65	102451
637	2.000000	1.154277	7.37129e+06	-45239.1	1005.82	-29773.1	0.000000	0.000000	7.172470	436.541	NaN	0.000000	0.001752	0.001769	28.0846	93.106	0.001833	50806.8	5.346132	170.409	430.8	1.154030	0.088277	0.088030	436.541	50806.8	0.081833	0.215527	2025.45	99987.1
637	2.000000	1.156374	7.37129e+06	-45239.1	1005.82	-29773.1	0.000000	0.000000	7.175388	456.531	NaN	0.000000	0.001749	0.001719	28.0845	95.82	0.001796	53366	5.467683	169.905	456.789	1.155967	0.090374	0.089967	456.531	53366	0.083958	0.225457	2024.91	102685
637	2.000000	1.158316	7.37129e+06	-45239.1	1005.82	-29773.1	0.000000	0.000000	7.178233	478.5	NaN	0.000000	0.001730	0.001719	28.0845	97.0833	0.001781	54517.5	4.319950	171.118	472.861	1.158001	0.092316	0.092001	478.5	54517.5	0.085733	0.233912	2045.64	102987
637	2.000000	1.160241	7.37129e+06	-45239.1	1005.82	-29773.1	0.000000	0.000000	7.180693	491.494	NaN	0.000000	0.001732	0.001739	28.0846	98.1799	0.001790	54858.9	3.159472	171.775	483.413	1.159950	0.094241	0.093950	491.494	54858.9	0.087522	0.242579	2026.12	101764
637	2.000000	1.162328	7.37129e+06	-45239.1	1005.82	-29773.1	0.000000	0.000000	7.183478	508.484	NaN	0.000000	0.001709	0.001708	28.0837	101.097	0.001850	54633.9	2.307094	172.693	505.296	1.162075	0.096328	0.096075	508.484	54633.9	0.089348	0.251579	2021.17	99517.1
637	2.000000	1.164299	7.37129e+06	-45239.1	1005.82	-29773.1	0.000000	0.000000	7.186207	526.927	NaN	0.000000	0.001719	0.001765	28.0837	101.765	0.001728	58891.7	5.615469	169.03	524.925	1.164112	0.098299	0.098112	526.927	58891.7	0.091588	0.262829	2004.83	104952
637	2.000000	1.166243	7.37129e+06	-45239.1	1005.82	-29773.1	0.000000	0.000000	7.189212	552.743	NaN	0.000000	0.001742	0.001675	28.0831	105.388	0.001728	60979.9	6.945696	167.512	546.403	1.165876	0.100243	0.099876	552.743	60979.9	0.093445	0.272326	2029.71	106762
637	2.000000	1.167361	7.37129e+06	-45239.1	1005.82	-29773.1	0.000000	0.000000	7.190757	563.122	NaN	0.000000	0.001734	0.001673	28.0832	106.16	0.001938	54787.3	3.547070	171.575	560.804	1.167061	0.101361	0.101061	563.122	54787.3	0.093653	0.273399	2059.71	95731.3