File: remote_trans/data/nanoindenter/0828-1/data/Data_2025-08-06,11h17m57s/2025-07-22_16-23-58_1_308.txt
2025-07-22, 16:23:58, 1
Index	Phase	Displacement	Time	Pos X	Pos Y	Pos Z	Rot A	Rot B	Piezo Z	Force A	Force B	Gripper	Voltage A	Voltage B	Temperature	Amplitude force	Amplitude pos	Stiffness	Phase shift	Phase excitation	Force A raw	Displacement raw	HMax	HMax raw	Real Force	Real Stiffness	Contact Depth	Area	Hardness	Reduced Mod.
[#]	[#]	[um]	[s]	[um]	[um]	[um]	[m°]	[m°]	[um]	[uN]	[uN]	[V]	[V]	[V]	[°C]	[uN]	[um]	[N/m]	[°]	[°]	[uN]	[um]	[um]	[um]	[uN]	[N/m]	[um]	[um^2]	[MPa]	[MPa]
308	1.000000	0.002724	7.36808e+06	-54039.1	955.817	-29744.9	0.000000	0.000000	6.002781	-0.024758	NaN	0.000000	0.001650	0.001638	28.0777	0.075062	0.000957	78.4143	104.838	-172.752	-0.086641	0.001476	-1.092260	-1.093508	-0.024758	78.4143	-1.092023	-3.917243E+14	6.320255E-17	NaN
308	1.000000	0.012786	7.36808e+06	-54039.1	955.819	-29744.9	0.000000	0.000000	6.012846	0.055813	NaN	0.000000	0.001633	0.001638	28.0775	0.034132	0.001198	28.4792	-52.807	17.364	0.056742	0.011410	-1.082198	-1.083574	0.055813	28.4792	-1.083668	-3.025382E+14	-1.844810E-16	NaN
308	1.000000	0.022714	7.36808e+06	-54039.1	955.819	-29744.9	0.000000	0.000000	6.022773	0.039380	NaN	0.000000	0.001620	0.001660	28.0775	0.056873	0.001609	35.3499	129.301	-168.747	0.001231	0.021377	-1.072270	-1.073607	0.039380	35.3499	-1.073106	-2.182285E+14	-1.804509E-16	NaN
308	1.000000	0.032682	7.36808e+06	-54039.1	955.818	-29744.9	0.000000	0.000000	6.032739	-0.022672	NaN	0.000000	0.001644	0.001677	28.0775	0.075215	0.001873	40.1648	-131.173	12.7388	0.044038	0.031291	-1.062302	-1.063693	-0.022672	40.1648	-1.061879	-1.541949E+14	1.470373E-16	NaN
308	1.000000	0.042710	7.36808e+06	-54039.1	955.818	-29744.9	0.000000	0.000000	6.042769	0.019996	NaN	0.000000	0.001670	0.001648	28.0781	0.046582	0.002015	23.1139	-29.6067	-168.177	0.045406	0.041418	-1.052274	-1.053566	0.019996	23.1139	-1.052923	-1.168705E+14	-1.710943E-16	NaN
308	1.000000	0.052680	7.36808e+06	-54039.1	955.818	-29744.9	0.000000	0.000000	6.052739	0.024993	NaN	0.000000	0.001647	0.001657	28.0775	0.070782	0.001992	35.5273	-158.885	17.1472	0.001969	0.051319	-1.042304	-1.043664	0.024993	35.5273	-1.042831	-8.551431E+13	-2.922646E-16	NaN
308	1.000000	0.062707	7.36808e+06	-54039.1	955.818	-29744.9	0.000000	0.000000	6.062764	-0.041727	NaN	0.000000	0.001606	0.001686	28.0778	0.044575	0.001834	24.2997	-79.2868	-165.176	-0.040717	0.061429	-1.032276	-1.033555	-0.041727	24.2997	-1.030989	-5.926217E+13	7.041070E-16	NaN
308	1.000000	0.072719	7.36808e+06	-54039.1	955.819	-29744.9	0.000000	0.000000	6.072776	-0.025714	NaN	0.000000	0.001605	0.001630	28.0775	0.073237	0.002080	35.2054	37.3952	11.7752	-0.015442	0.071328	-1.022265	-1.023656	-0.025714	35.2054	-1.021717	-4.446863E+13	5.782552E-16	NaN
308	1.000000	0.082700	7.36808e+06	-54039.1	955.819	-29744.9	0.000000	0.000000	6.082760	0.042683	NaN	0.000000	0.001601	0.001645	28.0778	0.043649	0.002118	20.6102	4.346366	-167.694	0.008743	0.081370	-1.012284	-1.013614	0.042683	20.6102	-1.013837	-3.483537E+13	-1.225263E-15	NaN
308	1.000000	0.092709	7.36808e+06	-54039.1	955.817	-29744.9	0.000000	0.000000	6.092766	-0.019849	NaN	0.000000	0.001590	0.001668	28.0781	0.079582	0.001905	41.772	163.418	12.602	0.021091	0.091342	-1.002275	-1.003642	-0.019849	41.772	-1.001918	-2.407661E+13	8.243947E-16	NaN
308	1.000000	0.102707	7.36808e+06	-54039.1	955.818	-29744.9	0.000000	0.000000	6.102763	-0.049840	NaN	0.000000	0.001658	0.001665	28.079	0.012609	0.001853	6.804573	-92.9562	-164.54	0.028455	0.101428	-0.992277	-0.993555	-0.049840	6.804573	-0.986784	-1.505896E+13	3.309655E-15	NaN
308	1.000000	0.112727	7.36808e+06	-54039.1	955.818	-29744.9	0.000000	0.000000	6.112787	0.057689	NaN	0.000000	0.001636	0.001640	28.0789	0.130012	0.002028	64.1054	126.933	12.1416	0.074752	0.111374	-0.982257	-0.983610	0.057689	64.1054	-0.982932	-1.336312E+13	-4.317031E-15	NaN
308	1.000000	0.122728	7.36808e+06	-54039.1	955.819	-29744.9	0.000000	0.000000	6.122784	-0.060246	NaN	0.000000	0.001662	0.001664	28.0791	0.069815	0.001850	37.7308	-132.069	-164.608	0.038134	0.121404	-0.972256	-0.973579	-0.060246	37.7308	-0.971058	-9.245324E+12	6.516342E-15	NaN
308	1.000000	0.132720	7.36808e+06	-54039.1	955.819	-29744.9	0.000000	0.000000	6.132781	0.067317	NaN	0.000000	0.001678	0.001649	28.0788	0.086626	0.002065	41.959	98.1712	11.0539	0.004609	0.131350	-0.962264	-0.963634	0.067317	41.959	-0.963467	-7.304890E+12	-9.215402E-15	NaN
308	1.000000	0.142739	7.36808e+06	-54039.1	955.817	-29744.9	0.000000	0.000000	6.142795	-0.056866	NaN	0.000000	0.001670	0.001691	28.0788	0.073001	0.002070	35.262	-158.509	-166.204	-0.013500	0.141417	-0.952245	-0.953566	-0.056866	35.262	-0.951035	-4.965829E+12	1.145156E-14	NaN
308	1.000000	0.152718	7.36808e+06	-54039.1	955.82	-29744.9	0.000000	0.000000	6.152780	0.074899	NaN	0.000000	0.001674	0.001637	28.0785	0.066740	0.001986	33.5988	42.8565	13.3456	0.057824	0.151415	-0.942265	-0.943569	0.074899	33.5988	-0.943937	-3.983382E+12	-1.880297E-14	NaN
308	1.000000	0.162737	7.36808e+06	-54039.1	955.819	-29744.9	0.000000	0.000000	6.162793	-0.066706	NaN	0.000000	0.001696	0.001697	28.0788	0.057900	0.001983	29.2005	13.6551	-165.793	-0.089051	0.161466	-0.932246	-0.933517	-0.066706	29.2005	-0.930533	-2.626582E+12	2.539632E-14	NaN
308	1.000000	0.172759	7.36808e+06	-54039.1	955.819	-29744.9	0.000000	0.000000	6.172819	0.055936	NaN	0.000000	0.001702	0.001692	28.0786	0.040332	0.002068	19.5066	-74.1898	15.3872	0.005875	0.171386	-0.922225	-0.923597	0.055936	19.5066	-0.924376	-2.169097E+12	-2.578780E-14	NaN
308	1.000000	0.182733	7.36808e+06	-54039.1	955.818	-29744.9	0.000000	0.000000	6.182792	0.017050	NaN	0.000000	0.001660	0.001705	28.0788	0.084757	0.001939	43.7207	176.073	-164.988	-0.006742	0.181453	-0.912251	-0.913531	0.017050	43.7207	-0.912543	-1.501461E+12	-1.135558E-14	NaN
308	1.000000	0.192756	7.36808e+06	-54039.1	955.818	-29744.9	0.000000	0.000000	6.192814	-0.001215	NaN	0.000000	0.001597	0.001686	28.0789	0.079530	0.001980	40.1582	26.9769	15.8228	-0.022610	0.191376	-0.902228	-0.903608	-0.001215	40.1582	-0.902205	-1.088590E+12	1.115909E-15	NaN
308	1.000000	0.202756	7.36808e+06	-54039.1	955.819	-29744.9	0.000000	0.000000	6.202815	-0.000287	NaN	0.000000	0.001657	0.001645	28.079	0.077817	0.002026	38.4064	86.4417	-165.277	0.016583	0.201449	-0.892227	-0.893535	-0.000287	38.4064	-0.892222	-7.978954E+11	3.599687E-16	NaN
308	1.000000	0.212788	7.36808e+06	-54039.1	955.819	-29744.9	0.000000	0.000000	6.212847	0.028851	NaN	0.000000	0.001612	0.001629	28.0789	0.032187	0.002166	14.861	-163.997	15.1038	0.055786	0.211382	-0.882196	-0.883602	0.028851	14.861	-0.883652	-6.110752E+11	-4.721381E-14	NaN
308	1.000000	0.222775	7.36808e+06	-54039.1	955.818	-29744.9	0.000000	0.000000	6.222829	-0.104598	NaN	0.000000	0.001612	0.001675	28.079	0.116031	0.002135	54.3383	-171.15	-165.838	-0.024292	0.221470	-0.872209	-0.873514	-0.104598	54.3383	-0.870765	-4.090659E+11	2.556989E-13	NaN
308	1.000000	0.232753	7.36808e+06	-54039.1	955.818	-29744.9	0.000000	0.000000	6.232811	-0.016976	NaN	0.000000	0.001598	0.001702	28.0779	0.067663	0.002062	32.8217	-117.564	12.2993	-0.022041	0.231393	-0.862230	-0.863591	-0.016976	32.8217	-0.861843	-3.097842E+11	5.479956E-14	NaN
308	1.000000	0.242773	7.36808e+06	-54039.1	955.818	-29744.9	0.000000	0.000000	6.242830	-0.036844	NaN	0.000000	0.001659	0.001660	28.078	0.063843	0.001918	33.2819	145.655	-164.52	0.051811	0.241435	-0.852211	-0.853548	-0.036844	33.2819	-0.851380	-2.235789E+11	1.647897E-13	NaN
308	1.000000	0.252807	7.36808e+06	-54039.1	955.818	-29744.9	0.000000	0.000000	6.252865	0.000573	NaN	0.000000	0.001661	0.001682	28.0777	0.109573	0.002157	50.8049	111.445	14.5353	-0.002988	0.251395	-0.842177	-0.843589	0.000573	50.8049	-0.842185	-1.678395E+11	-3.416304E-15	NaN
308	1.000000	0.262756	7.36808e+06	-54039.1	955.818	-29744.9	0.000000	0.000000	6.262812	-0.065246	NaN	0.000000	0.001658	0.001682	28.0781	0.062633	0.002005	31.2408	43.4756	-166.11	-0.027244	0.261472	-0.832228	-0.833512	-0.065246	31.2408	-0.830661	-1.171518E+11	5.569373E-13	NaN
308	1.000000	0.272782	7.36808e+06	-54039.1	955.818	-29744.9	0.000000	0.000000	6.272840	-0.007198	NaN	0.000000	0.001662	0.001691	28.0778	0.083597	0.002038	41.0134	-128.068	11.0454	0.006649	0.271453	-0.822201	-0.823531	-0.007198	41.0134	-0.822070	-8.959356E+10	8.034054E-14	NaN
308	1.000000	0.282804	7.36808e+06	-54039.1	955.817	-29744.9	0.000000	0.000000	6.282862	-0.001175	NaN	0.000000	0.001696	0.001717	28.078	0.066032	0.001964	33.6292	168.496	-164.363	-0.010092	0.281484	-0.812179	-0.813500	-0.001175	33.6292	-0.812153	-6.573308E+10	1.787787E-14	NaN
308	1.000000	0.292819	7.36808e+06	-54039.1	955.818	-29744.9	0.000000	0.000000	6.292876	-0.041356	NaN	0.000000	0.001696	0.001686	28.0781	0.019496	0.001947	10.0115	169.524	9.909973	-0.092034	0.291411	-0.802165	-0.803573	-0.041356	10.0115	-0.799066	-4.367066E+10	9.470061E-13	NaN
308	1.000000	0.302797	7.36808e+06	-54039.1	955.818	-29744.9	0.000000	0.000000	6.302852	-0.068471	NaN	0.000000	0.001711	0.001697	28.078	0.122672	0.002133	57.5224	53.9475	-165.528	-0.028669	0.301468	-0.792187	-0.793516	-0.068471	57.5224	-0.791294	-3.424997E+10	1.999155E-12	NaN
308	1.000000	0.312798	7.36808e+06	-54039.1	955.819	-29744.9	0.000000	0.000000	6.312856	0.006708	NaN	0.000000	0.001746	0.001706	28.0779	0.037179	0.001892	19.6526	-135.36	12.7555	-0.005153	0.311432	-0.782186	-0.783551	0.006708	19.6526	-0.782442	-2.596664E+10	-2.583161E-13	NaN
308	1.000000	0.322839	7.36808e+06	-54039.1	955.819	-29744.9	0.000000	0.000000	6.322896	-0.034065	NaN	0.000000	0.001687	0.001691	28.0781	0.020362	0.002088	9.752022	-105.841	-165.113	-0.033786	0.321501	-0.772145	-0.773483	-0.034065	9.752022	-0.769525	-1.733201E+10	1.965460E-12	NaN
308	1.000000	0.332839	7.36808e+06	-54039.1	955.818	-29744.9	0.000000	0.000000	6.332897	-0.000544	NaN	0.000000	0.001675	0.001671	28.0782	0.084001	0.002013	41.7284	142.935	13.6538	0.040587	0.331438	-0.762145	-0.763546	-0.000544	41.7284	-0.762135	-1.375149E+10	3.953726E-14	NaN
308	1.000000	0.342818	7.36808e+06	-54039.1	955.818	-29744.9	0.000000	0.000000	6.342877	0.014049	NaN	0.000000	0.001722	0.001691	28.0776	0.023083	0.001967	11.7351	-3.407472	-165.329	-0.064329	0.341494	-0.752166	-0.753489	0.014049	11.7351	-0.753064	-1.034948E+10	-1.357482E-12	NaN
308	1.000000	0.352838	7.36808e+06	-54039.1	955.819	-29744.9	0.000000	0.000000	6.352896	0.003694	NaN	0.000000	0.001674	0.001679	28.0777	0.090459	0.002003	45.1551	-20.1673	14.2009	-0.039292	0.351461	-0.742146	-0.743523	0.003694	45.1551	-0.742208	-7.364145E+9	-5.016495E-13	NaN
308	1.000000	0.362841	7.36808e+06	-54039.1	955.818	-29744.9	0.000000	0.000000	6.362899	-0.016637	NaN	0.000000	0.001677	0.001638	28.0776	0.097384	0.002006	48.5581	101.302	-166.193	0.025485	0.361489	-0.732142	-0.733495	-0.016637	48.5581	-0.731885	-5.327241E+9	3.123070E-12	NaN
308	1.000000	0.372804	7.36808e+06	-54039.1	955.818	-29744.9	0.000000	0.000000	6.372862	-0.014321	NaN	0.000000	0.001651	0.001692	28.0792	0.038031	0.001999	19.0241	174.527	16.489	0.002303	0.371460	-0.722180	-0.723523	-0.014321	19.0241	-0.721615	-3.859206E+9	3.710791E-12	NaN
308	1.000000	0.382823	7.36808e+06	-54039.1	955.817	-29744.9	0.000000	0.000000	6.382881	-0.004412	NaN	0.000000	0.001672	0.001678	28.0788	0.070146	0.001986	35.3173	4.784494	-168.042	-0.013824	0.381549	-0.712161	-0.713435	-0.004412	35.3173	-0.712067	-2.859304E+9	1.543177E-12	NaN
308	1.000000	0.392855	7.36808e+06	-54039.1	955.819	-29744.9	0.000000	0.000000	6.392914	0.011442	NaN	0.000000	0.001680	0.001702	28.079	0.110870	0.002049	54.1055	10.2121	14.767	0.057874	0.391502	-0.702129	-0.703482	0.011442	54.1055	-0.702287	-2.102632E+9	-5.441704E-12	NaN
308	1.000000	0.402834	7.36808e+06	-54039.1	955.818	-29744.9	0.000000	0.000000	6.402894	0.036887	NaN	0.000000	0.001753	0.001667	28.0789	0.098977	0.001900	52.0944	111.923	-166.032	0.051384	0.401514	-0.692149	-0.693470	0.036887	52.0944	-0.692680	-1.554334E+9	-2.373188E-11	NaN
308	1.000000	0.412854	7.36808e+06	-54039.1	955.819	-29744.9	0.000000	0.000000	6.412912	-0.022566	NaN	0.000000	0.001701	0.001691	28.0791	0.013380	0.001946	6.876716	118.571	13.7703	-0.004207	0.411502	-0.682129	-0.683482	-0.022566	6.876716	-0.679668	-1.031973E+9	2.186668E-11	NaN
308	1.000000	0.422831	7.36808e+06	-54039.1	955.818	-29744.9	0.000000	0.000000	6.422891	0.051270	NaN	0.000000	0.001708	0.001678	28.079	0.093227	0.002025	46.029	166.468	-165.844	0.032499	0.421548	-0.672153	-0.673436	0.051270	46.029	-0.672988	-8.361499E+8	-6.131698E-11	NaN
308	1.000000	0.432820	7.36808e+06	-54039.1	955.818	-29744.9	0.000000	0.000000	6.432879	0.019946	NaN	0.000000	0.001687	0.001659	28.0792	0.140964	0.002067	68.2129	-89.7669	11.5675	0.047624	0.431458	-0.662164	-0.663525	0.019946	68.2129	-0.662383	-5.985562E+8	-3.332327E-11	NaN
308	1.000000	0.442844	7.36808e+06	-54039.1	955.818	-29744.9	0.000000	0.000000	6.442903	0.010674	NaN	0.000000	0.001681	0.001654	28.0793	0.080723	0.002009	40.1724	2.367834	-166.426	0.038116	0.441533	-0.652139	-0.653451	0.010674	40.1724	-0.652339	-4.360062E+8	-2.448041E-11	NaN
308	1.000000	0.452861	7.36808e+06	-54039.1	955.818	-29744.9	0.000000	0.000000	6.452922	0.057602	NaN	0.000000	0.001683	0.001663	28.0793	0.032173	0.001945	16.5435	-109.787	13.2977	0.066720	0.451517	-0.642122	-0.643467	0.057602	16.5435	-0.644734	-3.429463E+8	-1.679608E-10	NaN
308	1.000000	0.462899	7.36808e+06	-54039.1	955.818	-29744.9	0.000000	0.000000	6.462959	0.050719	NaN	0.000000	0.001661	0.001613	28.0793	0.096490	0.001958	49.2741	48.3259	-166.715	0.000321	0.461586	-0.632085	-0.633397	0.050719	49.2741	-0.632857	-2.356398E+8	-2.152399E-10	NaN
308	1.000000	0.472884	7.36808e+06	-54039.1	955.818	-29744.9	0.000000	0.000000	6.472942	0.014237	NaN	0.000000	0.001665	0.001661	28.0793	0.079706	0.002096	38.0338	-145.791	13.7998	-0.013760	0.471502	-0.622100	-0.623482	0.014237	38.0338	-0.622381	-1.691824E+8	-8.415426E-11	NaN
308	1.000000	0.482864	7.36808e+06	-54039.1	955.819	-29744.9	0.000000	0.000000	6.482920	-0.047385	NaN	0.000000	0.001678	0.001633	28.0795	0.061157	0.001849	33.0758	12.5684	-165.621	-0.009715	0.481548	-0.612120	-0.613436	-0.047385	33.0758	-0.611045	-1.181673E+8	4.009997E-10	NaN
308	1.000000	0.492887	7.36808e+06	-54039.1	955.818	-29744.9	0.000000	0.000000	6.492948	0.055781	NaN	0.000000	0.001661	0.001649	28.0794	0.052467	0.001973	26.5867	-124.987	13.9545	0.091613	0.491534	-0.602096	-0.603450	0.055781	26.5867	-0.603670	-9.353915E+7	-5.963421E-10	NaN
308	1.000000	0.502900	7.36808e+06	-54039.1	955.818	-29744.9	0.000000	0.000000	6.502959	0.005955	NaN	0.000000	0.001582	0.001611	28.0786	0.021887	0.001865	11.7368	-90.5084	-165.249	0.092511	0.501572	-0.592083	-0.593412	0.005955	11.7368	-0.592464	-6.555884E+7	-9.083635E-11	NaN
308	1.000000	0.512872	7.36808e+06	-54039.1	955.819	-29744.9	0.000000	0.000000	6.512929	-0.018437	NaN	0.000000	0.001598	0.001629	28.0781	0.091200	0.002143	42.5518	-130.084	14.1695	-0.082613	0.511541	-0.582112	-0.583443	-0.018437	42.5518	-0.581787	-4.670761E+7	3.947405E-10	NaN
308	1.000000	0.522883	7.36808e+06	-54039.1	955.818	-29744.9	0.000000	0.000000	6.522941	0.010888	NaN	0.000000	0.001613	0.001596	28.0784	0.071138	0.001902	37.4109	-29.7583	-166.86	-0.017700	0.521558	-0.572101	-0.573426	0.010888	37.4109	-0.572320	-3.456826E+7	-3.149835E-10	NaN
308	1.000000	0.532888	7.36808e+06	-54039.1	955.819	-29744.9	0.000000	0.000000	6.532946	0.011597	NaN	0.000000	0.001571	0.001612	28.0781	0.061464	0.002024	30.3623	-104.262	12.8363	-0.039220	0.531553	-0.562096	-0.563430	0.011597	30.3623	-0.562382	-2.519600E+7	-4.602753E-10	NaN
308	1.000000	0.542876	7.36808e+06	-54039.1	955.818	-29744.9	0.000000	0.000000	6.542931	-0.066632	NaN	0.000000	0.001608	0.001597	28.0781	0.061696	0.002095	29.4488	170.998	-167.929	-0.008344	0.541568	-0.552108	-0.553416	-0.066632	29.4488	-0.550411	-1.720470E+7	3.872875E-9	NaN
308	1.000000	0.552898	7.36808e+06	-54039.1	955.819	-29744.9	0.000000	0.000000	6.552955	-0.032111	NaN	0.000000	0.001642	0.001606	28.0781	0.036692	0.002070	17.7261	86.6267	17.8084	0.034297	0.551549	-0.542086	-0.543435	-0.032111	17.7261	-0.540727	-1.263115E+7	2.542178E-9	NaN
308	1.000000	0.562921	7.36808e+06	-54039.1	955.819	-29744.9	0.000000	0.000000	6.562979	-0.015704	NaN	0.000000	0.001625	0.001664	28.0781	0.033112	0.002018	16.4086	-37.7699	-166.098	0.057094	0.561573	-0.532062	-0.533411	-0.015704	16.4086	-0.531345	-9.35937e+06	1.677853E-9	NaN
308	1.000000	0.572915	7.36808e+06	-54039.1	955.819	-29744.9	0.000000	0.000000	6.572975	0.054825	NaN	0.000000	0.001585	0.001649	28.0778	0.040729	0.002000	20.3605	-166.407	15.2442	0.070763	0.571586	-0.522069	-0.523398	0.054825	20.3605	-0.524088	-7.42064e+06	-7.388139E-9	NaN
308	1.000000	0.582948	7.36808e+06	-54039.1	955.819	-29744.9	0.000000	0.000000	6.583006	-0.010629	NaN	0.000000	0.001627	0.001630	28.0778	0.041388	0.001908	21.6965	133.182	-164.547	-0.066522	0.581585	-0.512036	-0.513398	-0.010629	21.6965	-0.511668	-4.98481e+06	2.132246E-9	NaN
308	1.000000	0.592942	7.36808e+06	-54039.1	955.818	-29744.9	0.000000	0.000000	6.593003	0.069109	NaN	0.000000	0.001610	0.001629	28.078	0.036925	0.001923	19.2026	-115.182	12.5115	0.066003	0.591575	-0.502042	-0.503409	0.069109	19.2026	-0.504741	-3.99147e+06	-1.731419E-8	NaN
308	1.000000	0.602908	7.36808e+06	-54039.1	955.818	-29744.9	0.000000	0.000000	6.602963	-0.070515	NaN	0.000000	0.001616	0.001550	28.0779	0.115094	0.002040	56.4282	-62.1915	-165.812	-0.091263	0.601590	-0.492076	-0.493394	-0.070515	56.4282	-0.491139	-2.57813e+06	2.735124E-8	NaN
308	1.000000	0.612912	7.36808e+06	-54039.1	955.818	-29744.9	0.000000	0.000000	6.612969	-0.030788	NaN	0.000000	0.001608	0.001588	28.0777	0.025368	0.001919	13.2225	-160.333	14.1122	-0.029684	0.611577	-0.482072	-0.483406	-0.030788	13.2225	-0.480325	-1.82005e+06	1.691583E-8	NaN
308	1.000000	0.622935	7.36808e+06	-54039.1	955.818	-29744.9	0.000000	0.000000	6.622995	0.044761	NaN	0.000000	0.001593	0.001563	28.0779	0.061189	0.002026	30.2015	12.5935	-167.26	0.020976	0.621605	-0.472048	-0.473378	0.044761	30.2015	-0.473160	-1.44448e+06	-3.098762E-8	NaN
308	1.000000	0.632936	7.36808e+06	-54039.1	955.818	-29744.9	0.000000	0.000000	6.632994	0.001950	NaN	0.000000	0.001590	0.001598	28.0794	0.046994	0.001949	24.1107	-0.875983	10.7393	-0.021503	0.631564	-0.462048	-0.463420	0.001950	24.1107	-0.462109	-1.01075e+06	-1.929346E-9	NaN
308	1.000000	0.642953	7.36808e+06	-54039.1	955.819	-29744.9	0.000000	0.000000	6.643008	-0.079254	NaN	0.000000	0.001597	0.001582	28.0792	0.056480	0.002003	28.1934	132.214	-164.454	-0.076256	0.641584	-0.452031	-0.453400	-0.079254	28.1934	-0.449923	-681171	1.163501E-7	NaN
308	1.000000	0.652955	7.36808e+06	-54039.1	955.818	-29744.9	0.000000	0.000000	6.653012	-0.035551	NaN	0.000000	0.001603	0.001564	28.079	0.041146	0.002043	20.1425	-120.995	13.6516	-0.042294	0.651564	-0.442029	-0.443420	-0.035551	20.1425	-0.440705	-505022	7.039462E-8	NaN
308	1.000000	0.662946	7.36808e+06	-54039.1	955.819	-29744.9	0.000000	0.000000	6.663003	-0.023530	NaN	0.000000	0.001604	0.001587	28.079	0.100178	0.002062	48.5739	-117.149	-166.731	-0.026851	0.661668	-0.432038	-0.433316	-0.023530	48.5739	-0.431675	-376486	6.249962E-8	NaN
308	1.000000	0.672940	7.36808e+06	-54039.1	955.818	-29744.9	0.000000	0.000000	6.672998	0.006968	NaN	0.000000	0.001613	0.001569	28.0795	0.096713	0.001965	49.2177	-45.7153	11.869	0.031967	0.671579	-0.422044	-0.423405	0.006968	49.2177	-0.422150	-275995	-2.524567E-8	NaN
308	1.000000	0.682940	7.36808e+06	-54039.1	955.818	-29744.9	0.000000	0.000000	6.682999	0.015852	NaN	0.000000	0.001609	0.001555	28.0792	0.079207	0.001998	39.6462	152.687	-168.576	0.020265	0.681678	-0.412044	-0.413305	0.015852	39.6462	-0.412344	-200319	-7.913334E-8	NaN
308	1.000000	0.692987	7.36808e+06	-54039.1	955.819	-29744.9	0.000000	0.000000	6.693044	-0.027164	NaN	0.000000	0.001606	0.001584	28.0792	0.020529	0.001977	10.3831	134.449	13.9449	0.008208	0.691599	-0.401996	-0.403385	-0.027164	10.3831	-0.400034	-133808	2.030058E-7	NaN
308	1.000000	0.702974	7.36808e+06	-54039.1	955.818	-29744.9	0.000000	0.000000	6.703032	0.007806	NaN	0.000000	0.001568	0.001631	28.0793	0.086583	0.002002	43.2499	-120.548	-166.872	-0.009763	0.701654	-0.392010	-0.393330	0.007806	43.2499	-0.392145	-103240	-7.561262E-8	NaN
308	1.000000	0.712949	7.36808e+06	-54039.1	955.818	-29744.9	0.000000	0.000000	6.713006	-0.045250	NaN	0.000000	0.001587	0.001577	28.0793	0.056004	0.002005	27.9317	-130.394	14.4976	-0.044309	0.711623	-0.382034	-0.383360	-0.045250	27.9317	-0.380819	-71063.4	6.367611E-7	NaN
308	1.000000	0.722961	7.36808e+06	-54039.1	955.819	-29744.9	0.000000	0.000000	6.723020	0.005630	NaN	0.000000	0.001603	0.001554	28.0792	0.014943	0.001912	7.816605	-103.589	-166.121	0.029223	0.721657	-0.372023	-0.373327	0.005630	7.816605	-0.372563	-54077.6	-1.041127E-7	NaN
308	1.000000	0.732980	7.36808e+06	-54039.1	955.818	-29744.9	0.000000	0.000000	6.733036	-0.055620	NaN	0.000000	0.001629	0.001543	28.0791	0.088587	0.002131	41.5671	-7.972800	12.2239	-0.030174	0.731614	-0.362004	-0.363370	-0.055620	41.5671	-0.361000	-36838.2	1.509845E-6	NaN
308	1.000000	0.742974	7.36808e+06	-54039.1	955.819	-29744.9	0.000000	0.000000	6.743032	0.000952	NaN	0.000000	0.001606	0.001559	28.0791	0.094461	0.001965	48.0787	-16.0553	-169.396	-0.004851	0.741649	-0.352010	-0.353334	0.000952	48.0787	-0.352025	-27313.8	-3.484269E-8	NaN
308	1.000000	0.752963	7.36808e+06	-54039.1	955.818	-29744.9	0.000000	0.000000	6.753021	-0.013769	NaN	0.000000	0.001608	0.001571	28.0793	0.109862	0.002109	52.0862	142.159	16.2185	0.055248	0.751635	-0.342021	-0.343349	-0.013769	52.0862	-0.341822	-19413.6	7.092330E-7	NaN
308	1.000000	0.763008	7.36808e+06	-54039.1	955.818	-29744.9	0.000000	0.000000	6.763067	0.012933	NaN	0.000000	0.001598	0.001582	28.0792	0.085467	0.001836	46.5564	167.247	-166.764	0.040051	0.761707	-0.331976	-0.333277	0.012933	46.5564	-0.332184	-14041.7	-9.210065E-7	NaN
308	1.000000	0.773009	7.36808e+06	-54039.1	955.818	-29744.9	0.000000	0.000000	6.773067	-0.009895	NaN	0.000000	0.001607	0.001592	28.0793	0.044950	0.001976	22.7475	101.816	14.9003	0.011216	0.771631	-0.321975	-0.323353	-0.009895	22.7475	-0.321648	-9837.66	1.005834E-6	NaN
308	1.000000	0.782998	7.36808e+06	-54039.1	955.817	-29744.9	0.000000	0.000000	6.783055	-0.024015	NaN	0.000000	0.001640	0.001588	28.0783	0.118629	0.001956	60.6358	62.4465	-163.569	-0.069450	0.781702	-0.311986	-0.313281	-0.024015	60.6358	-0.311689	-7015.23	3.423298E-6	NaN
308	1.000000	0.793005	7.36808e+06	-54039.1	955.818	-29744.9	0.000000	0.000000	6.793061	-0.048989	NaN	0.000000	0.001611	0.001622	28.0782	0.022071	0.001951	11.3135	-5.336208	12.1873	-0.102814	0.791667	-0.301978	-0.303317	-0.048989	11.3135	-0.298731	-4505.43	1.087330E-5	NaN
308	1.000000	0.803024	7.36808e+06	-54039.1	955.818	-29744.9	0.000000	0.000000	6.803083	0.016548	NaN	0.000000	0.001637	0.001589	28.078	0.022634	0.002074	10.9132	-85.4232	-170.858	-0.022211	0.801694	-0.291960	-0.293290	0.016548	10.9132	-0.293097	-3712.43	-4.457495E-6	NaN
308	1.000000	0.813015	7.36808e+06	-54039.1	955.818	-29744.9	0.000000	0.000000	6.813071	-0.055525	NaN	0.000000	0.001663	0.001594	28.0781	0.056315	0.002178	25.8534	-30.0684	13.2672	-0.047843	0.811617	-0.281968	-0.283367	-0.055525	25.8534	-0.280358	-2389.82	2.323381E-5	NaN
308	1.000000	0.823014	7.36808e+06	-54039.1	955.819	-29744.9	0.000000	0.000000	6.823073	0.032475	NaN	0.000000	0.001637	0.001602	28.0781	0.040765	0.001913	21.3132	-102.566	-163.449	0.028120	0.821739	-0.271970	-0.273245	0.032475	21.3132	-0.273113	-1856.98	-1.748811E-5	NaN
308	1.000000	0.833003	7.36808e+06	-54039.1	955.818	-29744.9	0.000000	0.000000	6.833063	0.061223	NaN	0.000000	0.001624	0.001553	28.0779	0.079664	0.002002	39.785	17.3349	15.1299	0.059899	0.831683	-0.261981	-0.263301	0.061223	39.785	-0.263135	-1308.89	-4.677492E-5	NaN
308	1.000000	0.843051	7.36808e+06	-54039.1	955.819	-29744.9	0.000000	0.000000	6.843108	-0.021173	NaN	0.000000	0.001620	0.001587	28.0779	0.116134	0.002002	58.0136	21.0686	-165.007	-0.043258	0.841714	-0.251933	-0.253270	-0.021173	58.0136	-0.251659	-872.184	2.427615E-5	NaN
308	1.000000	0.853043	7.36808e+06	-54039.1	955.819	-29744.9	0.000000	0.000000	6.853102	0.004474	NaN	0.000000	0.001594	0.001538	28.0778	0.035438	0.001974	17.9538	-160.841	14.7179	-0.016098	0.851694	-0.241940	-0.243290	0.004474	17.9538	-0.242127	-620.501	-7.210511E-6	NaN
308	1.000000	0.863025	7.36808e+06	-54039.1	955.818	-29744.9	0.000000	0.000000	6.863083	0.005591	NaN	0.000000	0.001603	0.001580	28.078	0.038303	0.002040	18.7752	11.402	-165.936	-0.003959	0.861745	-0.231959	-0.233238	0.005591	18.7752	-0.232182	-433.444	-1.289883E-5	NaN
308	1.000000	0.873044	7.36808e+06	-54039.1	955.819	-29744.9	0.000000	0.000000	6.873100	-0.042857	NaN	0.000000	0.001608	0.001551	28.0778	0.148711	0.001996	74.5121	78.9987	14.0907	0.015135	0.871645	-0.221940	-0.223339	-0.042857	74.5121	-0.221508	-293.602	0.000146	NaN
308	1.000000	0.883054	7.36808e+06	-54039.1	955.819	-29744.9	0.000000	0.000000	6.883113	0.023942	NaN	0.000000	0.001673	0.001576	28.0778	0.104853	0.001998	52.4798	-128.203	-166.591	-0.012211	0.881694	-0.211930	-0.213290	0.023942	52.4798	-0.212272	-208.716	-0.000115	NaN
308	1.000000	0.893050	7.36808e+06	-54039.1	955.817	-29744.9	0.000000	0.000000	6.893108	-0.005729	NaN	0.000000	0.001672	0.001555	28.0779	0.038036	0.002128	17.8743	-126.968	10.5589	-0.055205	0.891670	-0.201934	-0.203314	-0.005729	17.8743	-0.201694	-140.441	4.078986E-5	NaN
308	1.000000	0.903038	7.36808e+06	-54039.1	955.819	-29744.9	0.000000	0.000000	6.903097	0.011852	NaN	0.000000	0.001673	0.001581	28.0779	0.068481	0.001891	36.206	38.5817	-166.769	-0.015442	0.901740	-0.191946	-0.193243	0.011852	36.206	-0.192191	-97.8504	-0.000121	NaN
308	1.000000	0.913047	7.36808e+06	-54039.1	955.819	-29744.9	0.000000	0.000000	6.913103	-0.037698	NaN	0.000000	0.001693	0.001593	28.0786	0.147504	0.002058	71.6867	115.403	13.0936	0.034203	0.911672	-0.181937	-0.183311	-0.037698	71.6867	-0.181543	-64.8148	0.000582	NaN
308	1.000000	0.923058	7.36808e+06	-54039.1	955.819	-29744.9	0.000000	0.000000	6.923112	-0.093115	NaN	0.000000	0.001648	0.001582	28.0792	0.115182	0.001980	58.1825	-145.49	-164.768	-0.068707	0.921749	-0.171926	-0.173235	-0.093115	58.1825	-0.170725	-42.2863	0.002202	NaN
308	1.000000	0.933078	7.36808e+06	-54039.1	955.818	-29744.9	0.000000	0.000000	6.933134	-0.045288	NaN	0.000000	0.001683	0.001572	28.0794	0.134868	0.001950	69.1797	38.6467	12.7876	0.018788	0.931667	-0.161906	-0.163316	-0.045288	69.1797	-0.161415	-29.0461	0.001559	NaN
308	1.000000	0.943067	7.36808e+06	-54039.1	955.819	-29744.9	0.000000	0.000000	6.943127	0.042619	NaN	0.000000	0.001614	0.001564	28.0792	0.012252	0.002030	6.036029	48.1879	-167.159	-0.052221	0.941725	-0.151917	-0.153259	0.042619	6.036029	-0.157212	-24.45	-0.001743	NaN
308	1.000000	0.953110	7.36808e+06	-54039.1	955.817	-29744.9	0.000000	0.000000	6.953167	-0.019183	NaN	0.000000	0.001598	0.001549	28.0794	0.116374	0.002125	54.7555	67.0139	11.5653	0.065452	0.951729	-0.141874	-0.143255	-0.019183	54.7555	-0.141611	-12.6812	0.001513	NaN
308	1.000000	0.963050	7.36808e+06	-54039.1	955.818	-29744.9	0.000000	0.000000	6.963109	0.022255	NaN	0.000000	0.001613	0.001579	28.0794	0.076165	0.001957	38.9211	-131.734	-167.51	0.065954	0.961820	-0.131934	-0.133164	0.022255	38.9211	-0.132363	-8.466788	-0.002629	NaN
308	1.000000	0.973088	7.36808e+06	-54039.1	955.818	-29744.9	0.000000	0.000000	6.973144	-0.053640	NaN	0.000000	0.001597	0.001606	28.0795	0.015863	0.001864	8.509448	133.958	17.9765	-0.051325	0.971679	-0.121896	-0.123305	-0.053640	8.509448	-0.117168	-4.232399	0.012674	NaN
308	1.000000	0.983079	7.36808e+06	-54039.1	955.818	-29744.9	0.000000	0.000000	6.983136	-0.026152	NaN	0.000000	0.001638	0.001595	28.0793	0.134514	0.002143	62.7689	94.196	-165.445	-0.017326	0.981813	-0.111905	-0.113170	-0.026152	62.7689	-0.111593	-3.245878	0.008057	NaN
308	1.000000	0.993097	7.36808e+06	-54039.1	955.818	-29744.9	0.000000	0.000000	6.993154	-0.019889	NaN	0.000000	0.001645	0.001571	28.0795	0.076961	0.001916	40.1719	-127.827	15.9402	0.053593	0.991700	-0.101887	-0.103284	-0.019889	40.1719	-0.101516	-1.973488	0.010078	NaN
308	1.000000	1.003096	7.36808e+06	-54039.1	955.818	-29744.9	0.000000	0.000000	7.003154	-0.011509	NaN	0.000000	0.001653	0.001584	28.0796	0.045307	0.001931	23.4604	126.391	-167.796	-0.059210	1.001761	-0.091888	-0.093223	-0.011509	23.4604	-0.091520	-1.173050	0.009811	NaN
308	1.000000	1.013095	7.36808e+06	-54039.1	955.818	-29744.9	0.000000	0.000000	7.013153	-0.000544	NaN	0.000000	0.001654	0.001583	28.0794	0.109305	0.001991	54.9116	143.323	14.0447	0.004961	1.011733	-0.081888	-0.083251	-0.000544	54.9116	-0.081881	-0.689332	0.000789	NaN
308	1.000000	1.023109	7.36808e+06	-54039.1	955.818	-29744.9	0.000000	0.000000	7.023167	-0.008911	NaN	0.000000	0.001644	0.001535	28.0796	0.121269	0.002056	58.9758	-10.3624	-166.616	0.003770	1.021760	-0.071874	-0.073223	-0.008911	58.9758	-0.071761	-0.379996	0.023451	NaN
308	1.000000	1.033114	7.36808e+06	-54039.1	955.818	-29744.9	0.000000	0.000000	7.033173	-0.001096	NaN	0.000000	0.001616	0.001581	28.0793	0.056371	0.001931	29.1884	-36.6745	13.1322	-0.058996	1.031727	-0.061869	-0.063256	-0.001096	29.1884	-0.061841	-0.203235	0.005393	NaN
308	1.000000	1.043091	7.36808e+06	-54039.1	955.818	-29744.9	0.000000	0.000000	7.043151	0.038395	NaN	0.000000	0.001611	0.001582	28.0797	0.058340	0.001943	30.0326	-28.5906	-164.713	-0.071182	1.041805	-0.051893	-0.053178	0.038395	30.0326	-0.052851	-0.111168	-0.345381	NaN
308	1.000000	1.053116	7.36808e+06	-54039.1	955.818	-29744.9	0.000000	0.000000	7.053176	0.032246	NaN	0.000000	0.001621	0.001557	28.078	0.027649	0.001963	14.0881	171.884	12.5802	0.007795	1.051733	-0.041868	-0.043251	0.032246	14.0881	-0.043584	-0.058170	-0.554348	NaN
308	1.000000	1.063131	7.36808e+06	-54039.1	955.818	-29744.9	0.000000	0.000000	7.063188	-0.021772	NaN	0.000000	0.001624	0.001540	28.0781	0.100950	0.002035	49.607	-21.7227	-165.724	-0.035034	1.061806	-0.031853	-0.033178	-0.021772	49.607	-0.031524	-0.025401	0.857134	NaN
308	1.000000	1.073122	7.36808e+06	-54039.1	955.818	-29744.9	0.000000	0.000000	7.073184	0.090495	NaN	0.000000	0.001599	0.001570	28.078	0.041223	0.001896	21.7421	123.007	13.9082	0.052951	1.071743	-0.021861	-0.023241	0.090495	21.7421	-0.024983	-0.016853	-5.369625	NaN
308	1.000000	1.083151	7.36808e+06	-54039.1	955.817	-29744.9	0.000000	0.000000	7.083210	0.011892	NaN	0.000000	0.001660	0.001549	28.0781	0.099019	0.002046	48.4032	18.6637	-167.168	0.054216	1.081776	-0.011832	-0.013208	0.011892	48.4032	-0.012017	-0.007538	-1.577547	NaN
308	1.000000	1.093129	7.36808e+06	-54039.1	955.818	-29744.9	0.000000	0.000000	7.093187	0.002427	NaN	0.000000	0.001644	0.001611	28.0779	0.027432	0.002016	13.608	-146.65	12.738	0.027811	1.091772	-0.001855	-0.003212	0.002427	13.608	-0.001989	-0.001432	-1.695552	NaN
308	1.000000	1.103019	7.36808e+06	-54039.1	955.818	-29744.9	0.000000	0.000000	7.103401	7.865278	NaN	0.000000	0.001711	0.001603	28.0783	8.123411	0.001658	4900.54	9.973785	-173.339	6.422491	1.101781	0.008036	0.006797	7.865278	4900.54	0.006832	0.005868	1340.31	58447.2
308	2.000000	1.106230	7.36808e+06	-54039.1	955.818	-29744.9	0.000000	0.000000	7.106868	14.0958	NaN	0.000000	0.001654	0.001594	28.078	12.1906	0.001784	6835.19	6.680183	5.776863	13.7089	1.105855	0.011246	0.010872	14.0958	6835.19	0.009699	0.008849	1592.89	66385.4
308	2.000000	1.108692	7.36808e+06	-54039.1	955.817	-29744.9	0.000000	0.000000	7.109495	18.1098	NaN	0.000000	0.001628	0.001584	28.0789	14.6719	0.001702	8620.44	4.319610	-173.368	18.0194	1.108315	0.013708	0.013331	18.1098	8620.44	0.012132	0.011649	1554.61	72972
308	2.000000	1.111165	7.36808e+06	-54039.1	955.818	-29744.9	0.000000	0.000000	7.112141	22.3107	NaN	0.000000	0.001613	0.001595	28.0779	17.5888	0.001759	9999.9	6.936814	1.503842	20.8862	1.110836	0.016181	0.015852	22.3107	9999.9	0.014508	0.014635	1524.47	75521.7
308	2.000000	1.113711	7.36808e+06	-54039.1	955.818	-29744.9	0.000000	0.000000	7.114777	24.5161	NaN	0.000000	0.001594	0.001604	28.0785	19.7045	0.001677	11749.8	4.207033	-177.311	26.468	1.113395	0.018727	0.018411	24.5161	11749.8	0.017162	0.018277	1341.35	79405
308	2.000000	1.116162	7.36808e+06	-54039.1	955.818	-29744.9	0.000000	0.000000	7.117589	33.2612	NaN	0.000000	0.001608	0.001602	28.0779	22.6776	0.001790	12671.6	7.157696	-0.158729	33.2833	1.115785	0.021179	0.020802	33.2612	12671.6	0.019210	0.021316	1560.39	79296.3
308	2.000000	1.118667	7.36808e+06	-54039.1	955.817	-29744.9	0.000000	0.000000	7.120372	40.0364	NaN	0.000000	0.001621	0.001653	28.0783	25.0257	0.001696	14759.5	5.803132	-179.968	40.0474	1.118341	0.023683	0.023357	40.0364	14759.5	0.021648	0.025199	1588.81	84947.8
308	2.000000	1.121142	7.36808e+06	-54039.1	955.818	-29744.9	0.000000	0.000000	7.123073	45.5512	NaN	0.000000	0.001597	0.001590	28.0777	26.5578	0.001732	15337.9	4.977184	0.366121	43.864	1.120792	0.026158	0.025809	45.5512	15337.9	0.023930	0.029099	1565.41	82149
308	2.000000	1.123631	7.36808e+06	-54039.1	955.818	-29744.9	0.000000	0.000000	7.125920	54.2379	NaN	0.000000	0.001625	0.001619	28.0789	29.4826	0.001758	16768.1	4.039378	179.468	53.3113	1.123287	0.028647	0.028303	54.2379	16768.1	0.026221	0.033275	1629.98	83983.9
308	2.000000	1.126066	7.36808e+06	-54039.1	955.819	-29744.9	0.000000	0.000000	7.128658	61.6133	NaN	0.000000	0.001646	0.001597	28.0792	31.9554	0.001839	17379.5	5.332799	-1.094651	59.0824	1.125784	0.031082	0.030800	61.6133	17379.5	0.028423	0.037539	1641.31	81953.9
308	2.000000	1.128590	7.36808e+06	-54039.1	955.818	-29744.9	0.000000	0.000000	7.131547	70.4657	NaN	0.000000	0.001631	0.001640	28.08	34.7826	0.001738	20018.1	4.936980	177.649	67.7676	1.128275	0.033606	0.033292	70.4657	20018.1	0.030966	0.042770	1647.53	88435.2
308	2.000000	1.131135	7.36808e+06	-54039.1	955.819	-29744.9	0.000000	0.000000	7.134653	84.1346	NaN	0.000000	0.001642	0.001626	28.0789	36.9264	0.001721	21451.6	5.115239	-2.505112	83.5175	1.130810	0.036151	0.035827	84.1346	21451.6	0.033209	0.047658	1765.37	89776.6
308	2.000000	1.133588	7.36808e+06	-54039.1	955.818	-29744.9	0.000000	0.000000	7.137384	90.8652	NaN	0.000000	0.001668	0.001640	28.0794	38.9073	0.001688	23051.3	5.263664	176.33	90.0789	1.133273	0.038604	0.038289	90.8652	23051.3	0.035648	0.053265	1705.9	91252.6
308	2.000000	1.136082	7.36808e+06	-54039.1	955.818	-29744.9	0.000000	0.000000	7.140319	101.578	NaN	0.000000	0.001619	0.001668	28.0791	41.5654	0.001786	23278.4	4.359901	-3.651628	98.834	1.135745	0.041099	0.040762	101.578	23278.4	0.037826	0.058531	1735.48	87909.3
308	2.000000	1.138624	7.36808e+06	-54039.1	955.818	-29744.9	0.000000	0.000000	7.143227	110.483	NaN	0.000000	0.001580	0.001596	28.0802	44.95	0.001837	24467.5	8.335096	172.01	109.983	1.138290	0.043641	0.043306	110.483	24467.5	0.040254	0.064686	1707.98	87893.2
308	2.000000	1.141100	7.36808e+06	-54039.1	955.819	-29744.9	0.000000	0.000000	7.146100	120.141	NaN	0.000000	0.001620	0.001622	28.079	44.9066	0.001692	26538.8	2.819736	-2.230578	118.442	1.140715	0.046116	0.045731	120.141	26538.8	0.042721	0.071249	1686.21	90837.7
308	2.000000	1.143521	7.36808e+06	-54039.1	955.818	-29744.9	0.000000	0.000000	7.148847	128.069	NaN	0.000000	0.001659	0.001611	28.0796	47.5134	0.001742	27270.6	4.827039	174.601	124.28	1.143277	0.048538	0.048293	128.069	27270.6	0.045015	0.077631	1649.71	89423.2
308	2.000000	1.146076	7.36808e+06	-54039.1	955.818	-29744.9	0.000000	0.000000	7.151806	137.895	NaN	0.000000	0.001638	0.001649	28.0791	50.1707	0.001852	27096.1	4.440877	-3.717341	135.731	1.145680	0.051092	0.050696	137.895	27096.1	0.047275	0.084177	1638.15	85326.4
308	2.000000	1.148616	7.36808e+06	-54039.1	955.818	-29744.9	0.000000	0.000000	7.154880	150.852	NaN	0.000000	0.001670	0.001638	28.0793	52.6653	0.001836	28683	8.165250	171.684	151.024	1.148279	0.053633	0.053295	150.852	28683	0.049688	0.091452	1649.52	86656.6
308	2.000000	1.151094	7.36808e+06	-54039.1	955.818	-29744.9	0.000000	0.000000	7.157807	161.768	NaN	0.000000	0.001665	0.001667	28.079	53.1737	0.001799	29560.6	1.191822	-1.195484	159.614	1.150647	0.056111	0.055663	161.768	29560.6	0.052006	0.098715	1638.73	85959.6
308	2.000000	1.153518	7.36808e+06	-54039.1	955.818	-29744.9	0.000000	0.000000	7.160768	174.841	NaN	0.000000	0.001603	0.001694	28.079	55.3163	0.001757	31480.1	4.901050	174.491	172.701	1.153263	0.058535	0.058279	174.841	31480.1	0.054369	0.106395	1643.32	88175.7
308	2.000000	1.156019	7.36808e+06	-54039.1	955.818	-29744.9	0.000000	0.000000	7.163941	191.175	NaN	0.000000	0.001611	0.001638	28.0791	59.8282	0.001764	33907.3	7.812240	-10.1589	186.157	1.155676	0.061035	0.060692	191.175	33907.3	0.056807	0.114607	1668.09	91508.5
308	2.000000	1.158546	7.36808e+06	-54039.1	955.819	-29744.9	0.000000	0.000000	7.166703	196.89	NaN	0.000000	0.001623	0.001656	28.0782	62.9966	0.001890	33331.5	4.339312	173.95	195.649	1.158313	0.063562	0.063329	196.89	33331.5	0.059132	0.122713	1604.47	86932.7
308	2.000000	1.161149	7.36808e+06	-54039.1	955.818	-29744.9	0.000000	0.000000	7.169865	210.478	NaN	0.000000	0.001648	0.001646	28.0777	64.5157	0.001825	35348.9	5.721562	-7.184588	211.556	1.160723	0.066165	0.065740	210.478	35348.9	0.061700	0.131974	1594.85	88900.7
308	2.000000	1.163567	7.36808e+06	-54039.1	955.817	-29744.9	0.000000	0.000000	7.172855	224.38	NaN	0.000000	0.001602	0.001660	28.0782	65.7113	0.001774	37035.3	2.679849	174.92	223.647	1.163371	0.068584	0.068387	224.38	37035.3	0.064040	0.140692	1594.84	90210.1
308	2.000000	1.166053	7.36808e+06	-54039.1	955.817	-29744.9	0.000000	0.000000	7.176207	245.442	NaN	0.000000	0.001642	0.001661	28.0779	69.2163	0.001750	39556.1	7.549783	-10.4223	241.358	1.165586	0.071069	0.070602	245.442	39556.1	0.066416	0.149813	1638.32	93371
308	2.000000	1.168574	7.36808e+06	-54039.1	955.818	-29744.9	0.000000	0.000000	7.178819	247.648	NaN	0.000000	0.001616	0.001658	28.0776	72.6338	0.001872	38792.7	4.076362	172.967	248.448	1.168457	0.073590	0.073473	247.648	38792.7	0.068802	0.159251	1555.09	88814.2
308	2.000000	1.171032	7.36808e+06	-54039.1	955.818	-29744.9	0.000000	0.000000	7.182204	270.21	NaN	0.000000	0.001632	0.001640	28.0778	73.5325	0.001759	41801	2.079859	-5.903739	265.02	1.170782	0.076048	0.075798	270.21	41801	0.071200	0.169003	1598.85	92899.5
308	2.000000	1.173688	7.36808e+06	-54039.1	955.817	-29744.9	0.000000	0.000000	7.185227	279.123	NaN	0.000000	0.001603	0.001612	28.078	76.1028	0.001740	43747.5	5.316862	171.198	287.459	1.173345	0.078704	0.078362	279.123	43747.5	0.073919	0.180394	1547.3	94105.7
308	2.000000	1.176046	7.36808e+06	-54039.1	955.819	-29744.9	0.000000	0.000000	7.188676	305.641	NaN	0.000000	0.001619	0.001652	28.0774	78.5184	0.001865	42105.5	3.732122	-6.992975	304.996	1.175713	0.081063	0.080729	305.641	42105.5	0.075618	0.187691	1628.42	88795.4
308	2.000000	1.178579	7.36808e+06	-54039.1	955.818	-29744.9	0.000000	0.000000	7.191678	317.049	NaN	0.000000	0.001625	0.001657	28.0778	81.434	0.001849	44044.8	4.043669	172.273	317.028	1.178281	0.083595	0.083297	317.049	44044.8	0.078196	0.199018	1593.07	90203.2
308	2.000000	1.181054	7.36808e+06	-54039.1	955.818	-29744.9	0.000000	0.000000	7.195223	343.055	NaN	0.000000	0.001646	0.001637	28.0776	81.9327	0.001762	46502.4	3.326483	-7.060373	340.273	1.180694	0.086070	0.085710	343.055	46502.4	0.080537	0.209572	1636.93	92807.1
308	2.000000	1.183556	7.36808e+06	-54039.1	955.817	-29744.9	0.000000	0.000000	7.198337	357.925	NaN	0.000000	0.001625	0.001661	28.0777	83.9046	0.001728	48544.1	5.599381	170.447	357.818	1.183164	0.088572	0.088180	357.925	48544.1	0.083042	0.221151	1618.46	94311.6
308	2.000000	1.186024	7.36808e+06	-54039.1	955.817	-29744.9	0.000000	0.000000	7.201080	364.62	NaN	0.000000	0.001592	0.001637	28.0776	87.2559	0.001810	48220.5	3.488433	-7.981656	361.613	1.185778	0.091040	0.090795	364.62	48220.5	0.085369	0.232165	1570.52	91433.7
308	2.000000	1.188516	7.36808e+06	-54039.1	955.819	-29744.9	0.000000	0.000000	7.204760	393.495	NaN	0.000000	0.001617	0.001608	28.0778	90.1135	0.001736	51909.5	2.771862	172.724	393.196	1.188268	0.093532	0.093284	393.495	51909.5	0.087847	0.244170	1611.57	95978.6
308	2.000000	1.191101	7.36808e+06	-54039.1	955.819	-29744.9	0.000000	0.000000	7.208173	413.629	NaN	0.000000	0.001602	0.001592	28.0779	94.0121	0.001890	49735.6	6.803928	-11.0015	413.732	1.190728	0.096117	0.095744	413.629	49735.6	0.089880	0.254228	1627	90121.5
308	2.000000	1.193481	7.36808e+06	-54039.1	955.819	-29744.9	0.000000	0.000000	7.211304	431.888	NaN	0.000000	0.001607	0.001609	28.0789	96.6645	0.001835	52679.6	5.000313	169.984	428.657	1.193190	0.098497	0.098206	431.888	52679.6	0.092348	0.266697	1619.4	93198
308	2.000000	1.195944	7.36808e+06	-54039.1	955.818	-29744.9	0.000000	0.000000	7.214716	454.964	NaN	0.000000	0.001681	0.001661	28.0791	98.3774	0.001869	52644.2	6.608792	-11.0655	450.146	1.195564	0.100960	0.100580	454.964	52644.2	0.094478	0.277681	1638.44	91274.8
308	2.000000	1.198425	7.36808e+06	-54039.1	955.819	-29744.9	0.000000	0.000000	7.218158	478.305	NaN	0.000000	0.001689	0.001624	28.0792	100.202	0.001801	55622.8	3.742412	171.447	474.19	1.198111	0.103442	0.103128	478.305	55622.8	0.096992	0.290913	1644.15	94220.4
308	2.000000	1.201114	7.36808e+06	-54039.1	955.818	-29744.9	0.000000	0.000000	7.221307	489.504	NaN	0.000000	0.001730	0.001641	28.0792	101.37	0.001734	58451.3	0.754439	-6.101969	488.756	1.200741	0.106130	0.105757	489.504	58451.3	0.099849	0.306295	1598.15	96493.4
308	2.000000	1.202454	7.36808e+06	-54039.1	955.819	-29744.9	0.000000	0.000000	7.223482	509.798	NaN	0.000000	0.001743	0.001643	28.0794	103.958	0.001813	57346.3	1.980338	173.233	508.286	1.202140	0.107471	0.107156	509.798	57346.3	0.100803	0.311518	1636.5	93872.2