File: remote_trans/data/nanoindenter/0828-1/data/Data_2025-08-06,11h17m57s/2025-07-22_16-23-58_1_350.txt
2025-07-22, 16:23:58, 1
Index	Phase	Displacement	Time	Pos X	Pos Y	Pos Z	Rot A	Rot B	Piezo Z	Force A	Force B	Gripper	Voltage A	Voltage B	Temperature	Amplitude force	Amplitude pos	Stiffness	Phase shift	Phase excitation	Force A raw	Displacement raw	HMax	HMax raw	Real Force	Real Stiffness	Contact Depth	Area	Hardness	Reduced Mod.
[#]	[#]	[um]	[s]	[um]	[um]	[um]	[m°]	[m°]	[um]	[uN]	[uN]	[V]	[V]	[V]	[°C]	[uN]	[um]	[N/m]	[°]	[°]	[uN]	[um]	[um]	[um]	[uN]	[N/m]	[um]	[um^2]	[MPa]	[MPa]
350	1.000000	0.002286	7.36848e+06	-56139.1	955.819	-29740	0.000000	0.000000	6.002790	0.005237	NaN	0.000000	0.001568	0.001766	28.0803	0.154925	0.001054	147.035	-33.1583	-163.115	0.059160	0.001016	-1.070707	-1.071976	0.005237	147.035	-1.070733	-2.027871E+14	-2.582365E-17	NaN
350	1.000000	0.010244	7.36848e+06	-56139.1	955.818	-29740	0.000000	0.000000	6.010752	0.086675	NaN	0.000000	0.001616	0.001740	28.0802	0.100387	0.000861	116.557	-148.047	-161.97	0.007395	0.008914	-1.062748	-1.064078	0.086675	116.557	-1.063306	-1.611561E+14	-5.378350E-16	NaN
350	1.000000	0.018264	7.36848e+06	-56139.1	955.819	-29740	0.000000	0.000000	6.018769	0.012406	NaN	0.000000	0.001589	0.001734	28.08	0.022754	0.001710	13.3032	-120.613	-165.404	0.093879	0.016913	-1.054728	-1.056079	0.012406	13.3032	-1.055428	-1.262905E+14	-9.823019E-17	NaN
350	1.000000	0.026291	7.36848e+06	-56139.1	955.818	-29740	0.000000	0.000000	6.026795	0.009941	NaN	0.000000	0.001597	0.001699	28.08	0.024540	0.001905	12.8815	-131.496	-166.167	-0.033039	0.024967	-1.046702	-1.048026	0.009941	12.8815	-1.047281	-9.814255E+13	-1.012926E-16	NaN
350	1.000000	0.034208	7.36848e+06	-56139.1	955.817	-29740	0.000000	0.000000	6.034712	0.001883	NaN	0.000000	0.001587	0.001724	28.08	0.054819	0.001943	28.217	-26.8389	-164.89	-0.051321	0.032911	-1.038785	-1.040081	0.001883	28.217	-1.038835	-7.556078E+13	-2.491918E-17	NaN
350	1.000000	0.042277	7.36848e+06	-56139.1	955.819	-29740	0.000000	0.000000	6.042781	-0.025175	NaN	0.000000	0.001611	0.001711	28.0801	0.018057	0.002026	8.913212	-159.206	-165.382	0.062197	0.040906	-1.030715	-1.032086	-0.025175	8.913212	-1.028597	-5.503066E+13	4.574786E-16	NaN
350	1.000000	0.050261	7.36848e+06	-56139.1	955.817	-29740	0.000000	0.000000	6.050768	0.052119	NaN	0.000000	0.001599	0.001699	28.0802	0.057072	0.002028	28.138	-27.843	-167.595	0.002598	0.048948	-1.022731	-1.024044	0.052119	28.138	-1.024120	-4.790560E+13	-1.087954E-15	NaN
350	1.000000	0.058221	7.36848e+06	-56139.1	955.817	-29740	0.000000	0.000000	6.058725	-0.016189	NaN	0.000000	0.001636	0.001718	28.0805	0.078972	0.002127	37.1248	115.951	-167.392	0.012814	0.056936	-1.014771	-1.016057	-0.016189	37.1248	-1.014444	-3.549722E+13	4.560550E-16	NaN
350	1.000000	0.066225	7.36848e+06	-56139.1	955.818	-29740	0.000000	0.000000	6.066726	-0.067416	NaN	0.000000	0.001633	0.001737	28.08	0.028425	0.001912	14.8665	-10.1593	-170.888	0.012457	0.064916	-1.006767	-1.008077	-0.067416	14.8665	-1.003366	-2.518198E+13	2.677170E-15	NaN
350	1.000000	0.074279	7.36848e+06	-56139.1	955.817	-29740	0.000000	0.000000	6.074784	0.024069	NaN	0.000000	0.001647	0.001727	28.0801	0.048693	0.001952	24.9421	-162.497	-160.765	0.032847	0.072939	-0.998714	-1.000053	0.024069	24.9421	-0.999437	-2.229429E+13	-1.079622E-15	NaN
350	1.000000	0.082277	7.36848e+06	-56139.1	955.818	-29740	0.000000	0.000000	6.082781	-0.026333	NaN	0.000000	0.001619	0.001778	28.0801	0.118689	0.001969	60.2671	-85.6364	-166.569	0.037777	0.080945	-0.990715	-0.992048	-0.026333	60.2671	-0.990387	-1.683945E+13	1.563741E-15	NaN
350	1.000000	0.090276	7.36848e+06	-56139.1	955.818	-29740	0.000000	0.000000	6.090782	0.034025	NaN	0.000000	0.001630	0.001763	28.0801	0.039850	0.001987	20.0515	127.413	-162.521	0.064717	0.088979	-0.982716	-0.984014	0.034025	20.0515	-0.983989	-1.380861E+13	-2.464008E-15	NaN
350	1.000000	0.098257	7.36848e+06	-56139.1	955.818	-29740	0.000000	0.000000	6.098759	-0.038934	NaN	0.000000	0.001630	0.001730	28.0804	0.053794	0.001959	27.4549	10.878	-164.208	-0.042604	0.096993	-0.974736	-0.975999	-0.038934	27.4549	-0.973672	-1.002646E+13	3.883108E-15	NaN
350	1.000000	0.106289	7.36848e+06	-56139.1	955.818	-29740	0.000000	0.000000	6.106792	-0.017582	NaN	0.000000	0.001629	0.001748	28.08	0.069519	0.001934	35.9486	-178.072	-163.786	-0.027223	0.104934	-0.966704	-0.968058	-0.017582	35.9486	-0.966337	-7.985277E+12	2.201837E-15	NaN
350	1.000000	0.114283	7.36848e+06	-56139.1	955.818	-29740	0.000000	0.000000	6.114788	0.022163	NaN	0.000000	0.001654	0.001752	28.0805	0.076870	0.001887	40.7427	142.356	-166.845	0.022300	0.112958	-0.958709	-0.960034	0.022163	40.7427	-0.959117	-6.382167E+12	-3.472629E-15	NaN
350	1.000000	0.122284	7.36848e+06	-56139.1	955.818	-29740	0.000000	0.000000	6.122789	0.004742	NaN	0.000000	0.001636	0.001784	28.0803	0.115751	0.001922	60.2279	91.4216	-168.431	0.009249	0.120967	-0.950708	-0.952025	0.004742	60.2279	-0.950767	-4.924625E+12	-9.628948E-16	NaN
350	1.000000	0.130262	7.36848e+06	-56139.1	955.817	-29740	0.000000	0.000000	6.130766	0.006242	NaN	0.000000	0.001656	0.001789	28.0802	0.194450	0.002058	94.5074	100.284	-168.053	-0.041532	0.128890	-0.942731	-0.944102	0.006242	94.5074	-0.942780	-3.842757E+12	-1.624408E-15	NaN
350	1.000000	0.138255	7.36848e+06	-56139.1	955.818	-29740	0.000000	0.000000	6.138757	-0.062259	NaN	0.000000	0.001598	0.001756	28.0793	0.030351	0.002055	14.7676	-88.4415	-166.229	-0.055452	0.136970	-0.934737	-0.936023	-0.062259	14.7676	-0.931575	-2.713031E+12	2.294810E-14	NaN
350	1.000000	0.146280	7.36848e+06	-56139.1	955.817	-29740	0.000000	0.000000	6.146786	0.026887	NaN	0.000000	0.001612	0.001738	28.0789	0.081316	0.001954	41.6219	-6.405884	-168.039	0.098239	0.144987	-0.926712	-0.928005	0.026887	41.6219	-0.927197	-2.367885E+12	-1.135471E-14	NaN
350	1.000000	0.154292	7.36848e+06	-56139.1	955.817	-29740	0.000000	0.000000	6.154795	-0.020360	NaN	0.000000	0.001610	0.001706	28.0791	0.104565	0.002106	49.6549	-27.6489	-166.558	0.049046	0.152967	-0.918701	-0.920026	-0.020360	49.6549	-0.918393	-1.800982E+12	1.130493E-14	NaN
350	1.000000	0.162284	7.36848e+06	-56139.1	955.818	-29740	0.000000	0.000000	6.162787	-0.021330	NaN	0.000000	0.001627	0.001726	28.079	0.021037	0.002015	10.4402	79.8956	-163.706	0.074077	0.160989	-0.910709	-0.912003	-0.021330	10.4402	-0.909176	-1.352190E+12	1.577432E-14	NaN
350	1.000000	0.170321	7.36848e+06	-56139.1	955.818	-29740	0.000000	0.000000	6.170825	-0.016895	NaN	0.000000	0.001631	0.001729	28.079	0.053536	0.002063	25.9472	-51.1698	-164.95	0.016716	0.168961	-0.902671	-0.904032	-0.016895	25.9472	-0.902183	-1.087829E+12	1.553124E-14	NaN
350	1.000000	0.178292	7.36848e+06	-56139.1	955.818	-29740	0.000000	0.000000	6.178797	0.003458	NaN	0.000000	0.001549	0.001704	28.0794	0.080472	0.002014	39.9497	93.2796	-165.631	-0.049828	0.176987	-0.894700	-0.896006	0.003458	39.9497	-0.894765	-8.636135E+11	-4.003911E-15	NaN
350	1.000000	0.186289	7.36848e+06	-56139.1	955.818	-29740	0.000000	0.000000	6.186794	0.025412	NaN	0.000000	0.001555	0.001732	28.079	0.133867	0.001952	68.5718	-130.878	-165.997	-0.022771	0.184955	-0.886704	-0.888038	0.025412	68.5718	-0.886982	-6.778180E+11	-3.749088E-14	NaN
350	1.000000	0.194316	7.36848e+06	-56139.1	955.818	-29740	0.000000	0.000000	6.194820	-0.028594	NaN	0.000000	0.001547	0.001758	28.079	0.037935	0.002053	18.4812	-124.678	-164.498	0.054770	0.192972	-0.878676	-0.880020	-0.028594	18.4812	-0.877516	-5.047868E+11	5.664518E-14	NaN
350	1.000000	0.202349	7.36848e+06	-56139.1	955.819	-29740	0.000000	0.000000	6.202855	0.042839	NaN	0.000000	0.001574	0.001764	28.0791	0.063754	0.002057	30.9861	-148.982	-167.25	0.060681	0.200993	-0.870643	-0.871999	0.042839	30.9861	-0.871680	-4.208944E+11	-1.017800E-13	NaN
350	1.000000	0.210311	7.36848e+06	-56139.1	955.818	-29740	0.000000	0.000000	6.210815	-0.003602	NaN	0.000000	0.001550	0.001754	28.0793	0.042772	0.002020	21.171	151.931	-165.041	0.067427	0.209042	-0.862681	-0.863951	-0.003602	21.171	-0.862553	-3.167238E+11	1.137383E-14	NaN
350	1.000000	0.218328	7.36848e+06	-56139.1	955.818	-29740	0.000000	0.000000	6.218831	-0.045615	NaN	0.000000	0.001566	0.001748	28.0793	0.065839	0.001975	33.3427	-108.949	-164.652	-0.017319	0.217015	-0.854664	-0.855978	-0.045615	33.3427	-0.853638	-2.398816E+11	1.901573E-13	NaN
350	1.000000	0.226307	7.36848e+06	-56139.1	955.818	-29740	0.000000	0.000000	6.226813	0.049888	NaN	0.000000	0.001587	0.001767	28.079	0.131098	0.002046	64.0838	-118.72	-164.639	0.094417	0.225026	-0.846686	-0.847966	0.049888	64.0838	-0.847270	-1.966803E+11	-2.536507E-13	NaN
350	1.000000	0.234316	7.36848e+06	-56139.1	955.818	-29740	0.000000	0.000000	6.234822	0.030049	NaN	0.000000	0.001543	0.001736	28.0792	0.072181	0.002035	35.4624	-177.288	-167.196	0.034047	0.233039	-0.838676	-0.839953	0.030049	35.4624	-0.839312	-1.534505E+11	-1.958215E-13	NaN
350	1.000000	0.242335	7.36848e+06	-56139.1	955.818	-29740	0.000000	0.000000	6.242840	0.002217	NaN	0.000000	0.001559	0.001745	28.0792	0.037373	0.001938	19.2813	-95.4052	-163.137	0.014833	0.241018	-0.830657	-0.831975	0.002217	19.2813	-0.830743	-1.174517E+11	-1.887205E-14	NaN
350	1.000000	0.250320	7.36848e+06	-56139.1	955.818	-29740	0.000000	0.000000	6.250825	0.025360	NaN	0.000000	0.001558	0.001725	28.0794	0.039747	0.001973	20.1475	-86.7619	-165.161	-0.020229	0.249054	-0.822672	-0.823939	0.025360	20.1475	-0.823616	-9.402560E+10	-2.697096E-13	NaN
350	1.000000	0.258328	7.36848e+06	-56139.1	955.817	-29740	0.000000	0.000000	6.258833	0.017473	NaN	0.000000	0.001569	0.001757	28.0792	0.053771	0.001959	27.4441	-163.064	-167.282	-0.032701	0.257021	-0.814665	-0.815972	0.017473	27.4441	-0.815142	-7.216558E+10	-2.421179E-13	NaN
350	1.000000	0.266355	7.36848e+06	-56139.1	955.818	-29740	0.000000	0.000000	6.266860	0.022754	NaN	0.000000	0.001567	0.001767	28.0792	0.041887	0.002053	20.4037	73.9617	-166.02	0.046390	0.265002	-0.806637	-0.807991	0.022754	20.4037	-0.807474	-5.679270E+10	-4.006577E-13	NaN
350	1.000000	0.274326	7.36848e+06	-56139.1	955.818	-29740	0.000000	0.000000	6.274828	-0.057875	NaN	0.000000	0.001571	0.001760	28.0806	0.066017	0.002075	31.8215	37.3846	-165.081	-0.073775	0.273044	-0.798666	-0.799948	-0.057875	31.8215	-0.797302	-4.132725E+10	1.400403E-12	NaN
350	1.000000	0.282335	7.36848e+06	-56139.1	955.817	-29740	0.000000	0.000000	6.282838	-0.043882	NaN	0.000000	0.001519	0.001763	28.0803	0.063205	0.002037	31.0265	-169.398	-166.977	-0.081746	0.281079	-0.790657	-0.791914	-0.043882	31.0265	-0.789596	-3.247903E+10	1.351088E-12	NaN
350	1.000000	0.290334	7.36848e+06	-56139.1	955.819	-29740	0.000000	0.000000	6.290843	0.093654	NaN	0.000000	0.001548	0.001722	28.0805	0.109242	0.002082	52.4621	-166.047	-165.969	0.125632	0.289074	-0.782658	-0.783919	0.093654	52.4621	-0.783997	-2.726084E+10	-3.435481E-12	NaN
350	1.000000	0.298355	7.36849e+06	-56139.1	955.817	-29740	0.000000	0.000000	6.298860	0.023855	NaN	0.000000	0.001526	0.001730	28.0802	0.114815	0.001892	60.6796	-33.3771	-166.951	0.087669	0.297042	-0.774637	-0.775950	0.023855	60.6796	-0.774932	-2.052854E+10	-1.162058E-12	NaN
350	1.000000	0.306382	7.36849e+06	-56139.1	955.818	-29740	0.000000	0.000000	6.306886	0.000243	NaN	0.000000	0.001512	0.001707	28.0802	0.103374	0.001914	54.0113	162.91	-166.684	0.023137	0.304966	-0.766610	-0.768027	0.000243	54.0113	-0.766614	-1.582187E+10	-1.534733E-14	NaN
350	1.000000	0.314376	7.36849e+06	-56139.1	955.818	-29740	0.000000	0.000000	6.314882	0.023346	NaN	0.000000	0.001552	0.001758	28.0803	0.088668	0.002077	42.684	154.252	-166.761	0.044827	0.313038	-0.758616	-0.759954	0.023346	42.684	-0.759026	-1.247545E+10	-1.871390E-12	NaN
350	1.000000	0.322314	7.36849e+06	-56139.1	955.818	-29740	0.000000	0.000000	6.322815	-0.072323	NaN	0.000000	0.001525	0.001754	28.0803	0.040655	0.001963	20.7113	160.024	-165.415	-0.088747	0.321033	-0.750679	-0.751959	-0.072323	20.7113	-0.748060	-8.847264E+9	8.174574E-12	NaN
350	1.000000	0.330352	7.36849e+06	-56139.1	955.818	-29740	0.000000	0.000000	6.330855	-0.021987	NaN	0.000000	0.001554	0.001737	28.0809	0.139234	0.001941	71.7393	28.1284	-165.242	0.000442	0.329088	-0.742640	-0.743905	-0.021987	71.7393	-0.742410	-7.411151E+9	2.966793E-12	NaN
350	1.000000	0.338376	7.36849e+06	-56139.1	955.818	-29740	0.000000	0.000000	6.338880	-0.014757	NaN	0.000000	0.001551	0.001767	28.0802	0.127533	0.001937	65.8241	-91.9651	-167.602	-0.036474	0.337060	-0.734617	-0.735932	-0.014757	65.8241	-0.734448	-5.773341E+9	2.556028E-12	NaN
350	1.000000	0.346375	7.36849e+06	-56139.1	955.819	-29740	0.000000	0.000000	6.346878	-0.023910	NaN	0.000000	0.001543	0.001704	28.0805	0.076463	0.002087	36.6323	18.2594	-164.029	0.001047	0.345032	-0.726618	-0.727960	-0.023910	36.6323	-0.726128	-4.446650E+9	5.377167E-12	NaN
350	1.000000	0.354372	7.36849e+06	-56139.1	955.817	-29740	0.000000	0.000000	6.354876	-0.027947	NaN	0.000000	0.001545	0.001820	28.0803	0.062662	0.002108	29.728	-179.774	-164.654	-0.019637	0.353071	-0.718620	-0.719921	-0.027947	29.728	-0.717915	-3.435853E+9	8.133981E-12	NaN
350	1.000000	0.362403	7.36849e+06	-56139.1	955.818	-29740	0.000000	0.000000	6.362906	-0.033705	NaN	0.000000	0.001558	0.001758	28.0803	0.041157	0.002016	20.4139	173.895	-167.434	0.016489	0.361061	-0.710589	-0.711931	-0.033705	20.4139	-0.709351	-2.625342E+9	1.283839E-11	NaN
350	1.000000	0.370367	7.36849e+06	-56139.1	955.817	-29740	0.000000	0.000000	6.370870	-0.022987	NaN	0.000000	0.001577	0.001799	28.0805	0.033612	0.002060	16.316	-5.661240	-165.712	0.028136	0.369098	-0.702626	-0.703894	-0.022987	16.316	-0.701569	-2.055699E+9	1.118191E-11	NaN
350	1.000000	0.378372	7.36849e+06	-56139.1	955.818	-29740	0.000000	0.000000	6.378875	-0.039374	NaN	0.000000	0.001558	0.001743	28.0801	0.108503	0.002040	53.1933	92.081	-165.592	0.031487	0.377074	-0.694620	-0.695919	-0.039374	53.1933	-0.694065	-1.623540E+9	2.425201E-11	NaN
350	1.000000	0.386390	7.36849e+06	-56139.1	955.819	-29740	0.000000	0.000000	6.386891	-0.077066	NaN	0.000000	0.001543	0.001737	28.0808	0.020664	0.001964	10.5223	143.464	-169.678	-0.000566	0.385059	-0.686603	-0.687933	-0.077066	10.5223	-0.681110	-1.079896E+9	7.136460E-11	NaN
350	1.000000	0.394397	7.36849e+06	-56139.1	955.819	-29740	0.000000	0.000000	6.394899	-0.062367	NaN	0.000000	0.001574	0.001707	28.0803	0.043864	0.002032	21.5907	-70.6999	-165.37	-0.024154	0.393038	-0.678595	-0.679955	-0.062367	21.5907	-0.676428	-9.318660E+8	6.692709E-11	NaN
350	1.000000	0.402409	7.36849e+06	-56139.1	955.818	-29740	0.000000	0.000000	6.402913	0.007345	NaN	0.000000	0.001603	0.001722	28.0803	0.079658	0.001918	41.5412	32.1091	-170.01	-0.079282	0.401055	-0.670584	-0.671938	0.007345	41.5412	-0.670716	-7.783849E+8	-9.435813E-12	NaN
350	1.000000	0.410408	7.36849e+06	-56139.1	955.818	-29740	0.000000	0.000000	6.410914	0.053337	NaN	0.000000	0.001597	0.001722	28.0791	0.051007	0.001890	26.9888	93.6952	-167.519	0.087974	0.409024	-0.662585	-0.663968	0.053337	26.9888	-0.664067	-6.312023E+8	-8.450131E-11	NaN
350	1.000000	0.418418	7.36849e+06	-56139.1	955.818	-29740	0.000000	0.000000	6.418923	0.027620	NaN	0.000000	0.001574	0.001721	28.0791	0.054975	0.002102	26.156	-59.0497	-162.625	-0.064702	0.417115	-0.654575	-0.655878	0.027620	26.156	-0.655367	-4.797259E+8	-5.757437E-11	NaN
350	1.000000	0.426384	7.36849e+06	-56139.1	955.818	-29740	0.000000	0.000000	6.426889	0.011570	NaN	0.000000	0.001549	0.001717	28.0803	0.084642	0.001996	42.4	165.857	-166.132	0.048077	0.425104	-0.646608	-0.647888	0.011570	42.4	-0.646813	-3.662152E+8	-3.159267E-11	NaN
350	1.000000	0.434393	7.36849e+06	-56139.1	955.819	-29740	0.000000	0.000000	6.434899	0.033938	NaN	0.000000	0.001570	0.001747	28.0792	0.097208	0.001907	50.9708	78.3722	-167.799	0.044505	0.433088	-0.638599	-0.639904	0.033938	50.9708	-0.639099	-2.870270E+8	-1.182383E-10	NaN
350	1.000000	0.442397	7.36849e+06	-56139.1	955.818	-29740	0.000000	0.000000	6.442904	0.047354	NaN	0.000000	0.001532	0.001733	28.079	0.153574	0.001957	78.4591	20.1669	-164.593	0.036478	0.441083	-0.630595	-0.631909	0.047354	78.4591	-0.631048	-2.225408E+8	-2.127880E-10	NaN
350	1.000000	0.450407	7.36849e+06	-56139.1	955.818	-29740	0.000000	0.000000	6.450911	-0.000917	NaN	0.000000	0.001533	0.001731	28.0791	0.125331	0.001941	64.563	-121.117	-165.58	-0.062065	0.449065	-0.622585	-0.623927	-0.000917	64.563	-0.622575	-1.702233E+8	5.385569E-12	NaN
350	1.000000	0.458417	7.36849e+06	-56139.1	955.818	-29740	0.000000	0.000000	6.458921	-0.008332	NaN	0.000000	0.001571	0.001691	28.079	0.146301	0.001972	74.1954	92.8928	-168.995	-0.076035	0.457131	-0.614576	-0.615862	-0.008332	74.1954	-0.614492	-1.317947E+8	6.322080E-11	NaN
350	1.000000	0.466403	7.36849e+06	-56139.1	955.819	-29740	0.000000	0.000000	6.466909	0.031026	NaN	0.000000	0.001554	0.001756	28.0791	0.083303	0.001884	44.2046	-21.2077	-164.454	-0.034613	0.465169	-0.606589	-0.607823	0.031026	44.2046	-0.607116	-1.043336E+8	-2.973741E-10	NaN
350	1.000000	0.474433	7.36849e+06	-56139.1	955.818	-29740	0.000000	0.000000	6.474935	-0.052407	NaN	0.000000	0.001528	0.001695	28.079	0.033322	0.001996	16.6905	174.4	-165.162	-0.042791	0.473084	-0.598560	-0.599908	-0.052407	16.6905	-0.596205	-7.382114E+7	7.099146E-10	NaN
350	1.000000	0.482466	7.36849e+06	-56139.1	955.819	-29740	0.000000	0.000000	6.482968	-0.053226	NaN	0.000000	0.001540	0.001685	28.0793	0.025362	0.002161	11.7343	-179.602	-166.22	-0.005251	0.481090	-0.590527	-0.591903	-0.053226	11.7343	-0.587125	-5.533756E+7	9.618399E-10	NaN
350	1.000000	0.490435	7.36849e+06	-56139.1	955.818	-29740	0.000000	0.000000	6.490939	-0.000737	NaN	0.000000	0.001525	0.001728	28.0792	0.009438	0.002001	4.716874	119.611	-164.529	0.031278	0.489145	-0.582558	-0.583848	-0.000737	4.716874	-0.582441	-4.768754E+7	1.545768E-11	NaN
350	1.000000	0.498423	7.36849e+06	-56139.1	955.818	-29740	0.000000	0.000000	6.498929	0.035998	NaN	0.000000	0.001532	0.001723	28.079	0.119049	0.001968	60.48	177.134	-166.306	0.000389	0.497117	-0.574569	-0.575875	0.035998	60.48	-0.575016	-3.766299E+7	-9.557876E-10	NaN
350	1.000000	0.506459	7.36849e+06	-56139.1	955.819	-29740	0.000000	0.000000	6.506964	0.002995	NaN	0.000000	0.001499	0.001722	28.0791	0.074339	0.001945	38.2277	167.932	-165.937	-0.062209	0.505153	-0.566533	-0.567840	0.002995	38.2277	-0.566592	-2.880916E+7	-1.039473E-10	NaN
350	1.000000	0.514436	7.36849e+06	-56139.1	955.818	-29740	0.000000	0.000000	6.514940	-0.011947	NaN	0.000000	0.001516	0.001755	28.079	0.023428	0.002101	11.152	27.7671	-167.217	0.016233	0.513172	-0.558556	-0.559820	-0.011947	11.152	-0.557753	-2.174131E+7	5.495096E-10	NaN
350	1.000000	0.522448	7.36849e+06	-56139.1	955.818	-29740	0.000000	0.000000	6.522952	-0.019799	NaN	0.000000	0.001515	0.001721	28.0793	0.017322	0.001983	8.735639	-155.791	-164.819	0.034953	0.521100	-0.550544	-0.551892	-0.019799	8.735639	-0.548844	-1.636613E+7	1.209756E-9	NaN
350	1.000000	0.530454	7.36849e+06	-56139.1	955.818	-29740	0.000000	0.000000	6.530956	-0.039364	NaN	0.000000	0.001514	0.001738	28.0791	0.156808	0.001831	85.6579	64.1295	-165.233	-0.024080	0.529167	-0.542539	-0.543826	-0.039364	85.6579	-0.542194	-1.323674E+7	2.973834E-9	NaN
350	1.000000	0.538463	7.36849e+06	-56139.1	955.818	-29740	0.000000	0.000000	6.538966	-0.049245	NaN	0.000000	0.001543	0.001724	28.0792	0.035598	0.001911	18.6235	44.5322	-166.035	-0.024952	0.537167	-0.534529	-0.535825	-0.049245	18.6235	-0.532546	-9.72581e+06	5.063289E-9	NaN
350	1.000000	0.546472	7.36849e+06	-56139.1	955.818	-29740	0.000000	0.000000	6.546975	-0.026466	NaN	0.000000	0.001524	0.001725	28.0804	0.098325	0.002106	46.6967	-168.383	-164.044	-0.053831	0.545067	-0.526521	-0.527925	-0.026466	46.6967	-0.526096	-7.91294e+06	3.344602E-9	NaN
350	1.000000	0.554468	7.36849e+06	-56139.1	955.819	-29740	0.000000	0.000000	6.554971	-0.028254	NaN	0.000000	0.001527	0.001730	28.0805	0.078599	0.002017	38.9601	-79.9441	-165.318	0.072572	0.553142	-0.518525	-0.519850	-0.028254	38.9601	-0.517981	-6.1025e+06	4.629889E-9	NaN
350	1.000000	0.562484	7.36849e+06	-56139.1	955.819	-29740	0.000000	0.000000	6.562988	6.526873E-5	NaN	0.000000	0.001546	0.001735	28.0806	0.102950	0.002069	49.7511	101.345	-163.867	-0.020536	0.561128	-0.510508	-0.511865	6.526873E-5	49.7511	-0.510509	-4.80298e+06	-1.358922E-11	NaN
350	1.000000	0.570457	7.36849e+06	-56139.1	955.818	-29740	0.000000	0.000000	6.570961	-0.012450	NaN	0.000000	0.001539	0.001726	28.0805	0.030057	0.002074	14.4898	112.975	-168.514	0.036374	0.569103	-0.502535	-0.503889	-0.012450	14.4898	-0.501891	-3.64245e+06	3.417989E-9	NaN
350	1.000000	0.578458	7.36849e+06	-56139.1	955.819	-29740	0.000000	0.000000	6.578965	0.079689	NaN	0.000000	0.001554	0.001699	28.0805	0.126402	0.001994	63.402	-97.1405	-164.847	0.019865	0.577143	-0.494535	-0.495850	0.079689	63.402	-0.495477	-2.96415e+06	-2.688438E-8	NaN
350	1.000000	0.586479	7.36849e+06	-56139.1	955.819	-29740	0.000000	0.000000	6.586980	-0.064960	NaN	0.000000	0.001508	0.001727	28.0803	0.125716	0.001851	67.9279	-25.2934	-163.544	0.023872	0.585181	-0.486514	-0.487811	-0.064960	67.9279	-0.485796	-2.17085e+06	2.992384E-8	NaN
350	1.000000	0.594459	7.36849e+06	-56139.1	955.818	-29740	0.000000	0.000000	6.594963	1.549345E-5	NaN	0.000000	0.001558	0.001699	28.0804	0.031207	0.002009	15.5336	129.919	-162.303	-0.059545	0.593148	-0.478534	-0.479844	1.549345E-5	15.5336	-0.478534	-1.71793e+06	-9.018670E-12	NaN
350	1.000000	0.602484	7.36849e+06	-56139.1	955.817	-29740	0.000000	0.000000	6.602987	-0.044877	NaN	0.000000	0.001521	0.001679	28.0806	0.087865	0.001957	44.9067	-84.0363	-168.771	-0.037845	0.601169	-0.470508	-0.471823	-0.044877	44.9067	-0.469758	-1.29426e+06	3.467435E-8	NaN
350	1.000000	0.610461	7.36849e+06	-56139.1	955.817	-29740	0.000000	0.000000	6.610966	0.009853	NaN	0.000000	0.001539	0.001680	28.0804	0.030178	0.002115	14.2689	72.8632	-169.181	0.017092	0.609212	-0.462531	-0.463780	0.009853	14.2689	-0.463049	-1.04196e+06	-9.455999E-9	NaN
350	1.000000	0.618491	7.36849e+06	-56139.1	955.818	-29740	0.000000	0.000000	6.618992	-0.078594	NaN	0.000000	0.001522	0.001671	28.0804	0.070634	0.001966	35.9238	-145.59	-166.99	-0.097501	0.617181	-0.454501	-0.455811	-0.078594	35.9238	-0.452861	-749228	1.048994E-7	NaN
350	1.000000	0.626485	7.36849e+06	-56139.1	955.818	-29740	0.000000	0.000000	6.626991	0.057458	NaN	0.000000	0.001538	0.001703	28.0804	0.075816	0.001956	38.7692	58.7343	-167.478	0.072623	0.625195	-0.446508	-0.447797	0.057458	38.7692	-0.447619	-632131	-9.089609E-8	NaN
350	1.000000	0.634489	7.36849e+06	-56139.1	955.818	-29740	0.000000	0.000000	6.634993	-0.005239	NaN	0.000000	0.001522	0.001693	28.0808	0.079054	0.001945	40.6371	-128.881	-166.588	-0.028437	0.633159	-0.438503	-0.439834	-0.005239	40.6371	-0.438407	-468677	1.117818E-8	NaN
350	1.000000	0.642503	7.36849e+06	-56139.1	955.818	-29740	0.000000	0.000000	6.643006	-0.013461	NaN	0.000000	0.001498	0.001730	28.0806	0.107860	0.002026	53.2367	125.878	-166.669	-0.008868	0.641184	-0.430490	-0.431809	-0.013461	53.2367	-0.430300	-360003	3.739083E-8	NaN
350	1.000000	0.650492	7.36849e+06	-56139.1	955.818	-29740	0.000000	0.000000	6.650996	0.007189	NaN	0.000000	0.001521	0.001710	28.0807	0.069684	0.001940	35.9198	-126.631	-164.495	-0.005951	0.649190	-0.422501	-0.423802	0.007189	35.9198	-0.422651	-280540	-2.562534E-8	NaN
350	1.000000	0.658498	7.36849e+06	-56139.1	955.819	-29740	0.000000	0.000000	6.659004	0.038890	NaN	0.000000	0.001525	0.001714	28.0805	0.128451	0.002054	62.5425	37.8962	-166.143	0.046614	0.657172	-0.414495	-0.415821	0.038890	62.5425	-0.414961	-218223	-1.782127E-7	NaN
350	1.000000	0.666508	7.36849e+06	-56139.1	955.817	-29740	0.000000	0.000000	6.667014	0.033973	NaN	0.000000	0.001488	0.001751	28.0805	0.145479	0.001787	81.3949	-5.777563	-165.605	0.092663	0.665183	-0.406484	-0.407809	0.033973	81.3949	-0.406797	-167046	-2.033753E-7	NaN
350	1.000000	0.674500	7.36849e+06	-56139.1	955.818	-29740	0.000000	0.000000	6.675003	-0.018617	NaN	0.000000	0.001499	0.001762	28.0806	0.077937	0.001969	39.5912	166.379	-171.457	-0.007178	0.673206	-0.398493	-0.399786	-0.018617	39.5912	-0.398140	-125736	1.480614E-7	NaN
350	1.000000	0.682489	7.36849e+06	-56139.1	955.818	-29740	0.000000	0.000000	6.682991	-0.068667	NaN	0.000000	0.001519	0.001796	28.0794	0.054448	0.002074	26.2466	162.479	-161.994	-0.038778	0.681207	-0.390503	-0.391786	-0.068667	26.2466	-0.388541	-91683.5	7.489583E-7	NaN
350	1.000000	0.690498	7.36849e+06	-56139.1	955.818	-29740	0.000000	0.000000	6.691000	-0.070640	NaN	0.000000	0.001520	0.001770	28.0793	0.110524	0.001980	55.8211	45.2881	-166.993	-0.029840	0.689150	-0.382494	-0.383843	-0.070640	55.8211	-0.381545	-72787.7	9.704905E-7	NaN
350	1.000000	0.698504	7.36849e+06	-56139.1	955.818	-29740	0.000000	0.000000	6.699005	-0.074032	NaN	0.000000	0.001493	0.001750	28.0795	0.108772	0.002107	51.6336	174.926	-163.511	-0.038235	0.697224	-0.374489	-0.375768	-0.074032	51.6336	-0.373413	-55622.8	1.330959E-6	NaN
350	1.000000	0.706499	7.36849e+06	-56139.1	955.819	-29740	0.000000	0.000000	6.707004	0.015499	NaN	0.000000	0.001468	0.001785	28.0792	0.095665	0.002002	47.7752	19.0741	-164.056	-0.000220	0.705228	-0.366493	-0.367764	0.015499	47.7752	-0.366737	-44575.9	-3.477050E-7	NaN
350	1.000000	0.714540	7.36849e+06	-56139.1	955.817	-29740	0.000000	0.000000	6.715047	0.073376	NaN	0.000000	0.001504	0.001783	28.0795	0.044074	0.001939	22.7282	-2.925010	-166.152	0.116313	0.713230	-0.358452	-0.359763	0.073376	22.7282	-0.360874	-36683.8	-2.000242E-6	NaN
350	1.000000	0.722519	7.36849e+06	-56139.1	955.818	-29740	0.000000	0.000000	6.723025	0.044985	NaN	0.000000	0.001517	0.001765	28.0794	0.106043	0.001971	53.8098	82.7272	-165.618	-0.015959	0.721255	-0.350474	-0.351737	0.044985	53.8098	-0.351101	-26483.4	-1.698613E-6	NaN
350	1.000000	0.730527	7.36849e+06	-56139.1	955.818	-29740	0.000000	0.000000	6.731032	0.003142	NaN	0.000000	0.001524	0.001766	28.0794	0.032078	0.001898	16.9051	-139.764	-168.034	-0.008671	0.729256	-0.342465	-0.343737	0.003142	16.9051	-0.342605	-19929.7	-1.576659E-7	NaN
350	1.000000	0.738535	7.36849e+06	-56139.1	955.818	-29740	0.000000	0.000000	6.739041	0.023210	NaN	0.000000	0.001513	0.001722	28.0794	0.130722	0.001995	65.5192	-168.932	-165.78	0.018494	0.737226	-0.334457	-0.335766	0.023210	65.5192	-0.334723	-15294.5	-1.517562E-6	NaN
350	1.000000	0.746529	7.36849e+06	-56139.1	955.818	-29740	0.000000	0.000000	6.747033	-0.003200	NaN	0.000000	0.001549	0.001765	28.0791	0.053252	0.001968	27.0595	-7.206404	-164.275	0.034110	0.745225	-0.326463	-0.327768	-0.003200	27.0595	-0.326375	-11542.8	2.772072E-7	NaN
350	1.000000	0.754553	7.36849e+06	-56139.1	955.818	-29740	0.000000	0.000000	6.755054	-0.064339	NaN	0.000000	0.001550	0.001736	28.0792	0.058721	0.002144	27.3823	44.0639	-167.454	0.006664	0.753191	-0.318440	-0.319802	-0.064339	27.3823	-0.316678	-8311.78	7.740717E-6	NaN
350	1.000000	0.762555	7.36849e+06	-56139.1	955.819	-29740	0.000000	0.000000	6.763058	-0.031762	NaN	0.000000	0.001539	0.001721	28.0791	0.111074	0.002032	54.6752	-161.751	-169.498	-0.109272	0.761196	-0.310437	-0.311796	-0.031762	54.6752	-0.310001	-6623.31	4.795469E-6	NaN
350	1.000000	0.770547	7.36849e+06	-56139.1	955.818	-29740	0.000000	0.000000	6.771050	-0.009855	NaN	0.000000	0.001563	0.001711	28.0795	0.053809	0.001882	28.5967	63.4538	-166.739	0.053334	0.769214	-0.302446	-0.303778	-0.009855	28.5967	-0.302187	-5071.96	1.943097E-6	NaN
350	1.000000	0.778562	7.36849e+06	-56139.1	955.818	-29740	0.000000	0.000000	6.779064	-0.075285	NaN	0.000000	0.001530	0.001715	28.0795	0.045674	0.002060	22.1727	125.825	-164.922	-0.041853	0.777247	-0.294430	-0.295745	-0.075285	22.1727	-0.291883	-3560.42	2.114491E-5	NaN
350	1.000000	0.786529	7.36849e+06	-56139.1	955.817	-29740	0.000000	0.000000	6.787032	-0.020926	NaN	0.000000	0.001544	0.001700	28.0792	0.083512	0.001891	44.1638	-10.5118	-165.576	0.013435	0.785286	-0.286463	-0.287706	-0.020926	44.1638	-0.286108	-2916.86	7.174035E-6	NaN
350	1.000000	0.794574	7.36849e+06	-56139.1	955.818	-29740	0.000000	0.000000	6.795076	-0.054083	NaN	0.000000	0.001583	0.001706	28.0796	0.045429	0.001944	23.3657	-65.0381	-162.913	-0.049915	0.793276	-0.278418	-0.279716	-0.054083	23.3657	-0.276682	-2103.1	2.571589E-5	NaN
350	1.000000	0.802548	7.36849e+06	-56139.1	955.817	-29740	0.000000	0.000000	6.803051	-0.036369	NaN	0.000000	0.001582	0.001705	28.0791	0.075635	0.002082	36.3306	43.5823	-161.832	-0.018266	0.801204	-0.270445	-0.271788	-0.036369	36.3306	-0.269694	-1647.75	2.207212E-5	NaN
350	1.000000	0.810548	7.36849e+06	-56139.1	955.819	-29740	0.000000	0.000000	6.811053	0.016293	NaN	0.000000	0.001568	0.001688	28.0792	0.104144	0.002052	50.7629	-12.2229	-164.243	-0.043186	0.809211	-0.262444	-0.263781	0.016293	50.7629	-0.262685	-1288.32	-1.264669E-5	NaN
350	1.000000	0.818568	7.36849e+06	-56139.1	955.817	-29740	0.000000	0.000000	6.819073	0.033723	NaN	0.000000	0.001537	0.001688	28.0808	0.084077	0.001921	43.771	-40.0608	-164.574	0.020580	0.817283	-0.254425	-0.255710	0.033723	43.771	-0.255003	-982.099	-3.433716E-5	NaN
350	1.000000	0.826586	7.36849e+06	-56139.1	955.817	-29740	0.000000	0.000000	6.827090	-0.011357	NaN	0.000000	0.001544	0.001687	28.0806	0.063423	0.001729	36.682	118.456	-165.963	0.037129	0.825259	-0.246406	-0.247733	-0.011357	36.682	-0.246174	-717.275	1.583322E-5	NaN
350	1.000000	0.834575	7.36849e+06	-56139.1	955.817	-29740	0.000000	0.000000	6.835078	-0.022847	NaN	0.000000	0.001544	0.001750	28.0806	0.084324	0.002021	41.7165	-27.8689	-168.326	-0.058839	0.833301	-0.238418	-0.239692	-0.022847	41.7165	-0.238007	-535.047	4.270037E-5	NaN
350	1.000000	0.842576	7.36849e+06	-56139.1	955.82	-29740	0.000000	0.000000	6.843079	-0.021640	NaN	0.000000	0.001553	0.001724	28.0805	0.104660	0.002031	51.5201	-69.9529	-166.187	-0.059286	0.841264	-0.230416	-0.231729	-0.021640	51.5201	-0.230101	-401.899	5.384342E-5	NaN
350	1.000000	0.850579	7.36849e+06	-56139.1	955.818	-29740	0.000000	0.000000	6.851081	-0.047070	NaN	0.000000	0.001579	0.001684	28.0805	0.036498	0.001967	18.5573	-11.7909	-168.537	-0.089600	0.849247	-0.222413	-0.223746	-0.047070	18.5573	-0.220511	-283.036	0.000166	NaN
350	1.000000	0.858587	7.36849e+06	-56139.1	955.819	-29740	0.000000	0.000000	6.859089	-0.066053	NaN	0.000000	0.001527	0.001693	28.0805	0.081831	0.001973	41.4718	-133.419	-170.068	-0.048779	0.857302	-0.214405	-0.215690	-0.066053	41.4718	-0.213211	-216.122	0.000306	NaN
350	1.000000	0.866578	7.36849e+06	-56139.1	955.818	-29740	0.000000	0.000000	6.867081	-0.023871	NaN	0.000000	0.001561	0.001703	28.0808	0.057182	0.001992	28.701	31.1792	-164.374	0.049115	0.865278	-0.206415	-0.207714	-0.023871	28.701	-0.205791	-163.852	0.000146	NaN
350	1.000000	0.874581	7.36849e+06	-56139.1	955.818	-29740	0.000000	0.000000	6.875082	-0.085256	NaN	0.000000	0.001525	0.001664	28.0804	0.036779	0.002101	17.5095	134.691	-163.04	-0.079712	0.873270	-0.198412	-0.199722	-0.085256	17.5095	-0.194760	-107.95	0.000790	NaN
350	1.000000	0.882605	7.36849e+06	-56139.1	955.818	-29740	0.000000	0.000000	6.883109	-0.017984	NaN	0.000000	0.001526	0.001645	28.0804	0.050842	0.002053	24.7693	154.16	-167.221	-0.042003	0.881288	-0.190387	-0.191704	-0.017984	24.7693	-0.189842	-89.412	0.000201	NaN
350	1.000000	0.890589	7.36849e+06	-56139.1	955.818	-29740	0.000000	0.000000	6.891094	0.016374	NaN	0.000000	0.001531	0.001644	28.0804	0.081653	0.002092	39.0264	-38.5238	-167.072	0.045025	0.889298	-0.182403	-0.183695	0.016374	39.0264	-0.182718	-67.8556	-0.000241	NaN
350	1.000000	0.898606	7.36849e+06	-56139.1	955.818	-29740	0.000000	0.000000	6.899111	0.018812	NaN	0.000000	0.001530	0.001629	28.0804	0.052568	0.002102	25.0083	68.6724	-163.814	0.037453	0.897252	-0.174386	-0.175741	0.018812	25.0083	-0.174950	-50.0181	-0.000376	NaN
350	1.000000	0.906598	7.36849e+06	-56139.1	955.819	-29740	0.000000	0.000000	6.907101	-0.038534	NaN	0.000000	0.001533	0.001681	28.0803	0.042959	0.002116	20.2978	62.3292	-170.631	-0.024754	0.905325	-0.166394	-0.167667	-0.038534	20.2978	-0.164970	-33.557	0.001148	NaN
350	1.000000	0.914617	7.36849e+06	-56139.1	955.817	-29740	0.000000	0.000000	6.915118	-0.066792	NaN	0.000000	0.001531	0.001670	28.0805	0.069365	0.002056	33.7319	-11.0651	-167.946	-0.109810	0.913254	-0.158376	-0.159739	-0.066792	33.7319	-0.156891	-24.1279	0.002768	NaN
350	1.000000	0.922604	7.36849e+06	-56139.1	955.817	-29740	0.000000	0.000000	6.923107	-0.036135	NaN	0.000000	0.001534	0.001679	28.0806	0.060754	0.002029	29.9406	170.198	-165.272	-0.001570	0.921291	-0.150388	-0.151701	-0.036135	29.9406	-0.149483	-17.7244	0.002039	NaN
350	1.000000	0.930602	7.36849e+06	-56139.1	955.818	-29740	0.000000	0.000000	6.931107	0.019821	NaN	0.000000	0.001538	0.001699	28.0805	0.125022	0.001974	63.3304	-159.681	-167.048	-0.086775	0.929298	-0.142391	-0.143694	0.019821	63.3304	-0.142626	-13.246	-0.001496	NaN
350	1.000000	0.938603	7.36849e+06	-56139.1	955.819	-29740	0.000000	0.000000	6.939107	-0.024948	NaN	0.000000	0.001554	0.001657	28.0804	0.086025	0.001939	44.3695	-9.448034	-163.232	0.011461	0.937391	-0.134389	-0.135601	-0.024948	44.3695	-0.133967	-9.089490	0.002745	NaN
350	1.000000	0.946647	7.36849e+06	-56139.1	955.817	-29740	0.000000	0.000000	6.947150	-0.029214	NaN	0.000000	0.001564	0.001671	28.0803	0.030365	0.001987	15.2853	-124.506	-165.689	0.000969	0.945357	-0.126346	-0.127635	-0.029214	15.2853	-0.124912	-6.057047	0.004823	NaN
350	1.000000	0.954602	7.36849e+06	-56139.1	955.818	-29740	0.000000	0.000000	6.955105	-0.032619	NaN	0.000000	0.001545	0.001674	28.0792	0.056132	0.001974	28.4354	49.5022	-168.216	-0.048752	0.953362	-0.118390	-0.119630	-0.032619	28.4354	-0.117530	-4.304960	0.007577	NaN
350	1.000000	0.962613	7.36849e+06	-56139.1	955.818	-29740	0.000000	0.000000	6.963115	-0.046967	NaN	0.000000	0.001546	0.001671	28.0795	0.066148	0.002218	29.8292	-33.3261	-166.24	-0.101298	0.961353	-0.110379	-0.111640	-0.046967	29.8292	-0.109199	-2.890292	0.016250	NaN
350	1.000000	0.970633	7.36849e+06	-56139.1	955.818	-29740	0.000000	0.000000	6.971136	-0.035269	NaN	0.000000	0.001555	0.001690	28.0794	0.030410	0.002125	14.3079	4.842509	-165.371	-0.057891	0.969310	-0.102359	-0.103682	-0.035269	14.3079	-0.100510	-1.875311	0.018807	NaN
350	1.000000	0.978612	7.36849e+06	-56139.1	955.819	-29740	0.000000	0.000000	6.979116	-0.011589	NaN	0.000000	0.001573	0.001672	28.0792	0.041985	0.001899	22.1149	-64.1244	-166.554	-0.025595	0.977364	-0.094380	-0.095628	-0.011589	22.1149	-0.093987	-1.337438	0.008665	NaN
350	1.000000	0.986627	7.36849e+06	-56139.1	955.82	-29740	0.000000	0.000000	6.987132	0.012468	NaN	0.000000	0.001541	0.001689	28.0792	0.044719	0.001977	22.6235	14.0389	-166.197	-0.023960	0.985315	-0.086365	-0.087678	0.012468	22.6235	-0.086778	-0.906731	-0.013751	NaN
350	1.000000	0.994630	7.36849e+06	-56139.1	955.82	-29740	0.000000	0.000000	6.995137	0.069802	NaN	0.000000	0.001557	0.001694	28.0792	0.081712	0.002032	40.2125	16.7543	-165.777	0.048644	0.993303	-0.078363	-0.079689	0.069802	40.2125	-0.079665	-0.607143	-0.114968	NaN
350	1.000000	1.002609	7.36849e+06	-56139.1	955.819	-29740	0.000000	0.000000	7.003115	0.050255	NaN	0.000000	0.001534	0.001599	28.0795	0.049825	0.002018	24.6939	-81.2526	-168.146	0.086583	1.001337	-0.070384	-0.071656	0.050255	24.6939	-0.071910	-0.383455	-0.131058	NaN
350	1.000000	1.010650	7.36849e+06	-56139.1	955.819	-29740	0.000000	0.000000	7.011156	0.031706	NaN	0.000000	0.001569	0.001625	28.0794	0.080909	0.002047	39.5244	66.6069	-166.464	0.015551	1.009339	-0.062342	-0.063653	0.031706	39.5244	-0.062944	-0.218338	-0.145216	NaN
350	1.000000	1.018630	7.36849e+06	-56139.1	955.819	-29740	0.000000	0.000000	7.019134	0.012119	NaN	0.000000	0.001531	0.001613	28.079	0.050872	0.002062	24.6671	-159.424	-164.661	0.127548	1.017344	-0.054363	-0.055649	0.012119	24.6671	-0.054731	-0.126441	-0.095848	NaN
350	1.000000	1.026647	7.36849e+06	-56139.1	955.82	-29740	0.000000	0.000000	7.027157	0.131463	NaN	0.000000	0.001558	0.001624	28.0793	0.070136	0.002015	34.8032	101.51	-170.539	0.058457	1.025402	-0.046345	-0.047590	0.131463	34.8032	-0.049178	-0.086167	-1.525665	NaN
350	1.000000	1.034682	7.36849e+06	-56139.1	955.819	-29740	0.000000	0.000000	7.035189	0.057407	NaN	0.000000	0.001598	0.001624	28.0792	0.018794	0.001909	9.845860	-21.8914	-164.456	0.070662	1.033331	-0.038310	-0.039661	0.057407	9.845860	-0.042683	-0.054592	-1.051558	NaN
350	1.000000	1.042641	7.36849e+06	-56139.1	955.82	-29740	0.000000	0.000000	7.043145	-0.001747	NaN	0.000000	0.001549	0.001625	28.0791	0.065556	0.002136	30.6896	-131.694	-168.517	0.016654	1.041400	-0.030352	-0.031592	-0.001747	30.6896	-0.030309	-0.023475	0.074442	NaN
350	1.000000	1.050662	7.36849e+06	-56139.1	955.821	-29740	0.000000	0.000000	7.051167	0.026311	NaN	0.000000	0.001563	0.001599	28.0794	0.032028	0.002000	16.0156	7.200037	-167.279	-0.005577	1.049324	-0.022331	-0.023668	0.026311	16.0156	-0.023563	-0.015483	-1.699269	NaN
350	1.000000	1.058674	7.36849e+06	-56139.1	955.82	-29740	0.000000	0.000000	7.059182	0.101791	NaN	0.000000	0.001527	0.001623	28.0796	0.029793	0.001986	15	-146.322	-162.311	0.052799	1.057328	-0.014319	-0.015664	0.101791	15	-0.019408	-0.012132	-8.390014	NaN
350	1.000000	1.066692	7.36849e+06	-56139.1	955.821	-29740	0.000000	0.000000	7.067229	0.784434	NaN	0.000000	0.001536	0.001606	28.0793	0.644444	0.001911	337.162	8.625225	-169.678	0.591453	1.065338	-0.006300	-0.007654	0.784434	337.162	-0.008045	-0.005258	-149.182	NaN
350	1.000000	1.074640	7.36849e+06	-56139.1	955.82	-29740	0.000000	0.000000	7.075243	2.394774	NaN	0.000000	0.001534	0.001614	28.0791	1.262817	0.001942	650.347	15.4003	-167.663	2.015860	1.073378	0.001648	0.000386	2.394774	650.347	-0.001114	-0.000815	-2938.76	NaN
350	1.000000	1.082626	7.36849e+06	-56139.1	955.82	-29740	0.000000	0.000000	7.083404	6.653283	NaN	0.000000	0.001535	0.001607	28.0791	4.818253	0.001885	2556.48	12.3029	-172.573	5.251993	1.081363	0.009633	0.008371	6.653283	2556.48	0.007681	0.006717	990.558	28499.5
350	2.000000	1.086265	7.36849e+06	-56139.1	955.819	-29740	0.000000	0.000000	7.087155	9.382571	NaN	0.000000	0.001561	0.001628	28.0804	7.737009	0.001657	4668.04	3.500001	-168.955	9.742083	1.085982	0.013273	0.012990	9.382571	4668.04	0.011765	0.011210	836.973	40281.3
350	2.000000	1.088242	7.36849e+06	-56139.1	955.82	-29740	0.000000	0.000000	7.089219	11.4889	NaN	0.000000	0.001601	0.001645	28.0806	10.1288	0.001798	5634.2	4.657626	-171.75	10.9137	1.087951	0.015250	0.014959	11.4889	5634.2	0.013720	0.013617	843.743	44113.4
350	2.000000	1.090218	7.36849e+06	-56139.1	955.819	-29740	0.000000	0.000000	7.091314	14.3948	NaN	0.000000	0.001610	0.001683	28.0808	11.9754	0.001814	6602.94	5.637455	-173.691	13.2028	1.089878	0.017225	0.016886	14.3948	6602.94	0.015590	0.016080	895.185	47573.3
350	2.000000	1.092197	7.36849e+06	-56139.1	955.818	-29740	0.000000	0.000000	7.093452	18.2639	NaN	0.000000	0.001624	0.001675	28.0802	14.5516	0.001763	8254.8	5.659258	-175.566	17.1118	1.091862	0.019204	0.018870	18.2639	8254.8	0.017545	0.018830	969.919	54960.5
350	2.000000	1.094227	7.36849e+06	-56139.1	955.819	-29740	0.000000	0.000000	7.095616	21.5168	NaN	0.000000	0.001603	0.001669	28.0805	16.7392	0.001809	9254.44	8.448930	-176.985	23.3249	1.093959	0.021234	0.020967	21.5168	9254.44	0.019491	0.021748	989.358	57333.8
350	2.000000	1.096236	7.36849e+06	-56139.1	955.818	-29740	0.000000	0.000000	7.097745	24.4288	NaN	0.000000	0.001602	0.001662	28.0804	18.3899	0.001709	10758.9	7.677430	-178.589	25.4903	1.095876	0.023243	0.022884	24.4288	10758.9	0.021541	0.025021	976.326	62142.3
350	2.000000	1.098181	7.36849e+06	-56139.1	955.82	-29740	0.000000	0.000000	7.099853	28.3723	NaN	0.000000	0.001628	0.001692	28.0809	20.615	0.001872	11010.9	8.135859	-179.033	28.7198	1.097898	0.025189	0.024906	28.3723	11010.9	0.023256	0.027920	1016.21	60205.9
350	2.000000	1.100206	7.36849e+06	-56139.1	955.82	-29740	0.000000	0.000000	7.102009	31.5795	NaN	0.000000	0.001610	0.001656	28.0808	22.6195	0.001828	12370.7	6.917775	-178.501	29.7194	1.099849	0.027213	0.026857	31.5795	12370.7	0.025299	0.031561	1000.58	63619.5
350	2.000000	1.102173	7.36849e+06	-56139.1	955.82	-29740	0.000000	0.000000	7.104214	37.3517	NaN	0.000000	0.001564	0.001668	28.0805	23.7719	0.001832	12977.3	3.218103	-175.818	37.2435	1.101832	0.029181	0.028839	37.3517	12977.3	0.027022	0.034797	1073.42	63560.4
350	2.000000	1.104213	7.36849e+06	-56139.1	955.82	-29740	0.000000	0.000000	7.106330	39.1878	NaN	0.000000	0.001536	0.001666	28.0806	26.6379	0.001925	13836	7.777053	179.393	39.6374	1.103898	0.031221	0.030905	39.1878	13836	0.029097	0.038892	1007.6	64099.2
350	2.000000	1.106171	7.36849e+06	-56139.1	955.82	-29740	0.000000	0.000000	7.108696	49.1362	NaN	0.000000	0.001503	0.001653	28.0804	27.7458	0.001869	14846.8	9.553003	177.861	50.1171	1.105817	0.033178	0.032825	49.1362	14846.8	0.030696	0.042199	1164.4	66032.4
350	2.000000	1.108125	7.36849e+06	-56139.1	955.819	-29740	0.000000	0.000000	7.110857	54.1484	NaN	0.000000	0.001511	0.001653	28.0808	30.0325	0.001864	16113.6	7.951608	178.338	53.3302	1.107797	0.035133	0.034805	54.1484	16113.6	0.032612	0.046333	1168.69	68394.7
350	2.000000	1.110210	7.36849e+06	-56139.1	955.82	-29740	0.000000	0.000000	7.112971	54.8558	NaN	0.000000	0.001502	0.001700	28.0805	31.179	0.001763	17682.5	6.731154	178.317	55.0125	1.109896	0.037217	0.036904	54.8558	17682.5	0.034890	0.051491	1065.35	71195.2
350	2.000000	1.112147	7.36849e+06	-56139.1	955.82	-29740	0.000000	0.000000	7.115305	64.5043	NaN	0.000000	0.001526	0.001649	28.0804	32.9697	0.001671	19734.7	7.493872	176.028	65.0024	1.111835	0.039154	0.038843	64.5043	19734.7	0.036703	0.055785	1156.3	76338.6
350	2.000000	1.114143	7.36849e+06	-56139.1	955.819	-29740	0.000000	0.000000	7.117492	69.1355	NaN	0.000000	0.001503	0.001670	28.0806	34.9679	0.001818	19234.8	2.436129	-178.961	68.2646	1.113828	0.041151	0.040835	69.1355	19234.8	0.038455	0.060097	1150.4	71685.9
350	2.000000	1.116136	7.36849e+06	-56139.1	955.819	-29740	0.000000	0.000000	7.119992	81.4839	NaN	0.000000	0.001515	0.001709	28.0804	36.4601	0.001700	21443	4.525168	178.22	79.6045	1.115761	0.043143	0.042769	81.4839	21443	0.040293	0.064789	1257.69	76968
350	2.000000	1.118146	7.36849e+06	-56139.1	955.82	-29740	0.000000	0.000000	7.122103	83.9303	NaN	0.000000	0.001520	0.001708	28.0805	38.5686	0.001852	20822.9	7.653733	176.363	84.2323	1.117766	0.045154	0.044773	83.9303	20822.9	0.042131	0.069650	1205.02	72086.3
350	2.000000	1.120125	7.36849e+06	-56139.1	955.821	-29740	0.000000	0.000000	7.124291	89.0094	NaN	0.000000	0.001489	0.001698	28.0792	41.452	0.001799	23035.8	5.647887	177.023	87.4704	1.119829	0.047132	0.046836	89.0094	23035.8	0.044234	0.075428	1180.05	76631.7
350	2.000000	1.122073	7.36849e+06	-56139.1	955.82	-29740	0.000000	0.000000	7.126613	98.0808	NaN	0.000000	0.001488	0.001679	28.0791	43.2956	0.001885	22970.6	6.639867	175.144	95.6514	1.121834	0.049081	0.048841	98.0808	22970.6	0.045879	0.080101	1224.47	74152.6
350	2.000000	1.124107	7.36849e+06	-56139.1	955.82	-29740	0.000000	0.000000	7.128780	101.318	NaN	0.000000	0.001552	0.001645	28.0804	44.721	0.001788	25011.8	3.649518	177.254	98.6999	1.123866	0.051115	0.050874	101.318	25011.8	0.048077	0.086561	1170.49	77670.9
350	2.000000	1.126074	7.36849e+06	-56139.1	955.82	-29740	0.000000	0.000000	7.131418	117.646	NaN	0.000000	0.001554	0.001635	28.0792	45.5152	0.001758	25894.3	2.569035	178.767	114.719	1.125790	0.053082	0.052798	117.646	25894.3	0.049674	0.091408	1287.04	78250.1
350	2.000000	1.128092	7.36849e+06	-56139.1	955.819	-29740	0.000000	0.000000	7.133741	125.05	NaN	0.000000	0.001523	0.001662	28.0792	49.1387	0.001760	27912.6	6.004186	174.877	122.998	1.127658	0.055100	0.054666	125.05	27912.6	0.051740	0.097866	1277.76	81518.7
350	2.000000	1.130127	7.36849e+06	-56139.1	955.82	-29740	0.000000	0.000000	7.136200	135.371	NaN	0.000000	0.001532	0.001631	28.0791	51.1275	0.001757	29102.9	10.3286	171.581	134.866	1.129752	0.057135	0.056760	135.371	29102.9	0.053646	0.104015	1301.46	82444.7
350	2.000000	1.132070	7.36849e+06	-56139.1	955.819	-29740	0.000000	0.000000	7.138456	142.969	NaN	0.000000	0.001533	0.001653	28.0791	53.3995	0.001898	28134.8	7.814414	172.65	139.829	1.131797	0.059077	0.058805	142.969	28134.8	0.055266	0.109382	1307.06	77721.9
350	2.000000	1.134154	7.36849e+06	-56139.1	955.819	-29740	0.000000	0.000000	7.140846	150.402	NaN	0.000000	0.001526	0.001713	28.0797	54.407	0.001748	31120.2	2.824863	177.004	151.905	1.133819	0.061161	0.060826	150.402	31120.2	0.057537	0.117123	1284.13	83079.5
350	2.000000	1.136071	7.36849e+06	-56139.1	955.819	-29740	0.000000	0.000000	7.143092	158.41	NaN	0.000000	0.001526	0.001709	28.0791	55.2506	0.001698	32534.3	0.825706	177.686	155.002	1.135821	0.063078	0.062828	158.41	32534.3	0.059427	0.123760	1279.98	84493.7
350	2.000000	1.138003	7.36849e+06	-56139.1	955.819	-29740	0.000000	0.000000	7.145761	176.31	NaN	0.000000	0.001528	0.001724	28.0792	58.4385	0.001850	31596.8	4.095688	175.988	172.097	1.137755	0.065011	0.064763	176.31	31596.8	0.060826	0.128786	1369.02	80442
350	2.000000	1.140117	7.36849e+06	-56139.1	955.819	-29740	0.000000	0.000000	7.148370	188.343	NaN	0.000000	0.001520	0.001719	28.0792	60.4262	0.001803	33515.3	5.344300	173.965	186.739	1.139709	0.067125	0.066717	188.343	33515.3	0.062910	0.136449	1380.32	82895.5
350	2.000000	1.142083	7.36849e+06	-56139.1	955.82	-29740	0.000000	0.000000	7.150733	198.009	NaN	0.000000	0.001524	0.001736	28.0791	61.6041	0.001821	33825.5	5.638551	173.621	194.51	1.141759	0.069090	0.068766	198.009	33825.5	0.064700	0.143199	1382.76	81667.2
350	2.000000	1.144074	7.36849e+06	-56139.1	955.82	-29740	0.000000	0.000000	7.152959	203.714	NaN	0.000000	0.001540	0.001718	28.0793	63.7945	0.001796	35520	6.463930	171.775	201.614	1.143820	0.071081	0.070827	203.714	35520	0.066780	0.151236	1346.99	83448.6
350	2.000000	1.146091	7.36849e+06	-56139.1	955.821	-29740	0.000000	0.000000	7.155588	218.594	NaN	0.000000	0.001500	0.001684	28.0791	63.7614	0.001793	35557.5	2.671461	175.922	218.02	1.145778	0.073098	0.072786	218.594	35557.5	0.068488	0.157990	1383.59	81731.4
350	2.000000	1.148090	7.36849e+06	-56139.1	955.82	-29740	0.000000	0.000000	7.158001	228.648	NaN	0.000000	0.001517	0.001716	28.0795	67.4416	0.001777	37948.4	1.453803	176.806	227.211	1.147650	0.075097	0.074658	228.648	37948.4	0.070578	0.166448	1373.69	84982.1
350	2.000000	1.150040	7.36849e+06	-56139.1	955.82	-29740	0.000000	0.000000	7.160370	238.837	NaN	0.000000	0.001525	0.001700	28.079	69.8084	0.001789	39024.1	4.636658	173.285	233.23	1.149685	0.077047	0.076693	238.837	39024.1	0.072457	0.174226	1370.84	85418
350	2.000000	1.152102	7.36849e+06	-56139.1	955.821	-29740	0.000000	0.000000	7.162857	249.153	NaN	0.000000	0.001508	0.001700	28.0792	71.7757	0.001666	43086.2	6.253265	170.669	249.89	1.151832	0.079110	0.078839	249.153	43086.2	0.074773	0.184044	1353.77	91759.3
350	2.000000	1.154100	7.36849e+06	-56139.1	955.82	-29740	0.000000	0.000000	7.165339	260.917	NaN	0.000000	0.001512	0.001701	28.0801	75.9361	0.001907	39826.1	8.803749	169.394	260.65	1.153811	0.081108	0.080818	260.917	39826.1	0.076194	0.190194	1371.85	83433.8
350	2.000000	1.156034	7.36849e+06	-56139.1	955.821	-29740	0.000000	0.000000	7.167848	274.907	NaN	0.000000	0.001523	0.001715	28.0803	75.2997	0.001732	43465.9	4.531988	172.467	271.378	1.155801	0.083041	0.082809	274.907	43465.9	0.078298	0.199470	1378.19	88916.6
350	2.000000	1.158043	7.36849e+06	-56139.1	955.821	-29740	0.000000	0.000000	7.170581	292.489	NaN	0.000000	0.001527	0.001701	28.0805	79.023	0.001958	40359.2	5.231108	173.222	289.569	1.157731	0.085051	0.084739	292.489	40359.2	0.079616	0.205388	1424.08	81363.4
350	2.000000	1.160084	7.36849e+06	-56139.1	955.82	-29740	0.000000	0.000000	7.173024	302.285	NaN	0.000000	0.001527	0.001729	28.0804	80.405	0.001793	44837.9	6.993958	170.144	301.818	1.159728	0.087092	0.086736	302.285	44837.9	0.082035	0.216462	1396.48	88049.7
350	2.000000	1.162166	7.36849e+06	-56139.1	955.822	-29740	0.000000	0.000000	7.175540	312.826	NaN	0.000000	0.001525	0.001725	28.0803	81.0355	0.001729	46864.7	5.580811	170.744	316.143	1.161823	0.089174	0.088831	312.826	46864.7	0.084167	0.226446	1381.46	89978.2
350	2.000000	1.163986	7.36849e+06	-56139.1	955.82	-29740	0.000000	0.000000	7.178146	331.936	NaN	0.000000	0.001538	0.001729	28.0803	82.8404	0.001632	50762.7	4.778531	170.932	327.427	1.163652	0.090994	0.090660	331.936	50762.7	0.086089	0.235626	1408.74	95544.7
350	2.000000	1.166101	7.36849e+06	-56139.1	955.82	-29740	0.000000	0.000000	7.180580	339.677	NaN	0.000000	0.001520	0.001759	28.0804	84.9607	0.001717	49474.2	6.619427	169.049	339.692	1.165908	0.093109	0.092916	339.677	49474.2	0.087959	0.244720	1388.02	91372.7
350	2.000000	1.168094	7.36849e+06	-56139.1	955.82	-29740	0.000000	0.000000	7.183554	363.525	NaN	0.000000	0.001543	0.001749	28.081	87.0502	0.001807	48182.6	7.015010	169.736	362.399	1.167630	0.095102	0.094638	363.525	48182.6	0.089444	0.252054	1442.25	87683.3
350	2.000000	1.170082	7.36849e+06	-56139.1	955.82	-29740	0.000000	0.000000	7.186305	382.081	NaN	0.000000	0.001526	0.001764	28.0804	88.1344	0.001728	50997.6	9.481068	167.992	382.119	1.169613	0.097090	0.096620	382.081	50997.6	0.091471	0.262233	1457.03	90987
350	2.000000	1.172057	7.36849e+06	-56139.1	955.821	-29740	0.000000	0.000000	7.188760	393.764	NaN	0.000000	0.001513	0.001778	28.0805	89.0296	0.001690	52664.7	2.574227	173.335	393.156	1.171732	0.099064	0.098740	393.764	52664.7	0.093457	0.272387	1445.6	92193.3
350	2.000000	1.174006	7.36849e+06	-56139.1	955.821	-29740	0.000000	0.000000	7.191490	412.728	NaN	0.000000	0.001569	0.001736	28.0803	92.1843	0.001850	49822.5	5.077017	171.667	408.69	1.173669	0.101013	0.100677	412.728	49822.5	0.094800	0.279361	1477.4	86122.3
350	2.000000	1.176111	7.36849e+06	-56139.1	955.819	-29740	0.000000	0.000000	7.194297	429.804	NaN	0.000000	0.001502	0.001732	28.0803	92.9225	0.001735	53545.9	5.328784	170.17	429.112	1.175568	0.103118	0.102575	429.804	53545.9	0.097098	0.291476	1474.58	90614.5
350	2.000000	1.177945	7.36849e+06	-56139.1	955.821	-29740	0.000000	0.000000	7.196699	443.605	NaN	0.000000	0.001525	0.001740	28.0811	95.6667	0.001742	54909.7	3.144660	172.417	436.351	1.177738	0.104953	0.104745	443.605	54909.7	0.098894	0.301109	1473.23	91424
350	2.000000	1.180096	7.36849e+06	-56139.1	955.82	-29740	0.000000	0.000000	7.199670	463.532	NaN	0.000000	0.001518	0.001770	28.0804	98.6631	0.001764	55918.3	4.499114	171.708	462.515	1.179603	0.107104	0.106610	463.532	55918.3	0.100887	0.311976	1485.79	91467.5
350	2.000000	1.181991	7.36849e+06	-56139.1	955.819	-29740	0.000000	0.000000	7.201634	465.213	NaN	0.000000	0.001535	0.001737	28.0805	100.528	0.001741	57755.6	1.696764	173.407	460.791	1.181947	0.108998	0.108955	465.213	57755.6	0.102957	0.323453	1438.27	92781.5
350	2.000000	1.183026	7.36849e+06	-56139.1	955.818	-29740	0.000000	0.000000	7.203575	487.236	NaN	0.000000	0.001505	0.001713	28.0808	101.351	0.001719	58960.4	2.139545	172.982	484.689	1.182641	0.110033	0.109649	487.236	58960.4	0.103836	0.328383	1483.74	94003.4