File: remote_trans/data/nanoindenter/0828-1/data/Data_2025-08-06,11h17m57s/2025-07-22_16-23-58_1_148.txt
2025-07-22, 16:23:58, 1
Index	Phase	Displacement	Time	Pos X	Pos Y	Pos Z	Rot A	Rot B	Piezo Z	Force A	Force B	Gripper	Voltage A	Voltage B	Temperature	Amplitude force	Amplitude pos	Stiffness	Phase shift	Phase excitation	Force A raw	Displacement raw	HMax	HMax raw	Real Force	Real Stiffness	Contact Depth	Area	Hardness	Reduced Mod.
[#]	[#]	[um]	[s]	[um]	[um]	[um]	[m°]	[m°]	[um]	[uN]	[uN]	[V]	[V]	[V]	[°C]	[uN]	[um]	[N/m]	[°]	[°]	[uN]	[um]	[um]	[um]	[uN]	[N/m]	[um]	[um^2]	[MPa]	[MPa]
148	1.000000	0.002381	7.36649e+06	-46039.1	955.818	-29770.9	0.000000	0.000000	6.002731	0.046863	NaN	0.000000	0.001571	0.001735	28.0994	0.053766	0.001007	53.3661	-9.671003	174.595	0.031107	0.001148	-1.069808	-1.071041	0.046863	53.3661	-1.070467	-2.011211E+14	-2.330094E-16	NaN
148	1.000000	0.010351	7.36649e+06	-46039.1	955.819	-29770.9	0.000000	0.000000	6.010699	0.012275	NaN	0.000000	0.001580	0.001725	28.0989	0.012435	0.001004	12.3898	120.26	175.4	-0.022074	0.009045	-1.061838	-1.063144	0.012275	12.3898	-1.062581	-1.575816E+14	-7.789660E-17	NaN
148	1.000000	0.018333	7.36649e+06	-46039.1	955.818	-29770.9	0.000000	0.000000	6.018682	0.033282	NaN	0.000000	0.001566	0.001753	28.0983	0.094540	0.001869	50.5739	-143.174	172.462	-0.004496	0.017048	-1.053856	-1.055140	0.033282	50.5739	-1.054349	-1.221454E+14	-2.724763E-16	NaN
148	1.000000	0.026365	7.36649e+06	-46039.1	955.819	-29770.9	0.000000	0.000000	6.026712	-0.029284	NaN	0.000000	0.001600	0.001722	28.0985	0.055624	0.001764	31.5251	135.741	171.713	-0.079869	0.025044	-1.045824	-1.047144	-0.029284	31.5251	-1.045127	-9.181237E+13	3.189547E-16	NaN
148	1.000000	0.034329	7.36649e+06	-46039.1	955.818	-29770.9	0.000000	0.000000	6.034679	0.039117	NaN	0.000000	0.001597	0.001719	28.1002	0.118509	0.001975	60.0148	-165.42	177.158	-0.031926	0.032989	-1.037860	-1.039199	0.039117	60.0148	-1.038349	-7.443230E+13	-5.255364E-16	NaN
148	1.000000	0.042350	7.36649e+06	-46039.1	955.818	-29770.9	0.000000	0.000000	6.042699	0.023463	NaN	0.000000	0.001608	0.001736	28.1004	0.057544	0.001864	30.8727	62.1714	177.542	-0.053950	0.041000	-1.029839	-1.031189	0.023463	30.8727	-1.030409	-5.820713E+13	-4.030992E-16	NaN
148	1.000000	0.050355	7.36649e+06	-46039.1	955.817	-29770.9	0.000000	0.000000	6.050705	0.048509	NaN	0.000000	0.001591	0.001752	28.0998	0.113777	0.002100	54.169	142.787	174.835	0.052880	0.049027	-1.021834	-1.023162	0.048509	54.169	-1.022506	-4.556832E+13	-1.064536E-15	NaN
148	1.000000	0.058321	7.36649e+06	-46039.1	955.818	-29770.9	0.000000	0.000000	6.058670	0.039295	NaN	0.000000	0.001598	0.001798	28.0995	0.044108	0.002061	21.3962	31.0162	175.872	0.060353	0.057023	-1.013868	-1.015166	0.039295	21.3962	-1.015245	-3.638929E+13	-1.079860E-15	NaN
148	1.000000	0.066334	7.36649e+06	-46039.1	955.818	-29770.9	0.000000	0.000000	6.066682	-0.003538	NaN	0.000000	0.001626	0.001761	28.1002	0.022067	0.001970	11.202	106.149	174.294	-0.030579	0.065069	-1.005854	-1.007120	-0.003538	11.202	-1.005617	-2.700173E+13	1.310115E-16	NaN
148	1.000000	0.074330	7.36649e+06	-46039.1	955.818	-29770.9	0.000000	0.000000	6.074679	-0.001098	NaN	0.000000	0.001632	0.001732	28.0989	0.089894	0.002082	43.1719	152.141	176.607	-0.029762	0.073034	-0.997858	-0.999155	-0.001098	43.1719	-0.997839	-2.121651E+13	5.173599E-17	NaN
148	1.000000	0.082337	7.36649e+06	-46039.1	955.818	-29770.9	0.000000	0.000000	6.082687	0.050203	NaN	0.000000	0.001636	0.001742	28.098	0.062125	0.001887	32.9181	74.2049	172.62	0.003131	0.081034	-0.989852	-0.991154	0.050203	32.9181	-0.990996	-1.716024E+13	-2.925540E-15	NaN
148	1.000000	0.090372	7.36649e+06	-46039.1	955.819	-29770.9	0.000000	0.000000	6.090724	0.093212	NaN	0.000000	0.001624	0.001752	28.0985	0.089728	0.001977	45.3888	-23.0016	172.641	0.089823	0.089050	-0.981817	-0.983138	0.093212	45.3888	-0.983357	-1.354062E+13	-6.883883E-15	NaN
148	1.000000	0.098335	7.36649e+06	-46039.1	955.817	-29770.9	0.000000	0.000000	6.098687	0.080894	NaN	0.000000	0.001589	0.001758	28.0985	0.057599	0.002015	28.5806	142.466	179.734	-0.052461	0.097050	-0.973854	-0.975138	0.080894	28.5806	-0.975976	-1.076956E+13	-7.511333E-15	NaN
148	1.000000	0.106340	7.36649e+06	-46039.1	955.818	-29770.9	0.000000	0.000000	6.106688	-0.001381	NaN	0.000000	0.001592	0.001775	28.0981	0.027796	0.002037	13.6451	-5.058798	174.887	-0.040458	0.105041	-0.965848	-0.967147	-0.001381	13.6451	-0.965772	-7.846631E+12	1.760253E-16	NaN
148	1.000000	0.114359	7.36649e+06	-46039.1	955.819	-29770.9	0.000000	0.000000	6.114708	0.024050	NaN	0.000000	0.001645	0.001757	28.0992	0.092614	0.002066	44.8217	-124.42	178.447	-0.006658	0.113064	-0.957830	-0.959125	0.024050	44.8217	-0.958232	-6.209169E+12	-3.873296E-15	NaN
148	1.000000	0.122406	7.36649e+06	-46039.1	955.818	-29770.9	0.000000	0.000000	6.122753	-0.035690	NaN	0.000000	0.001603	0.001782	28.0996	0.124093	0.001986	62.4691	-74.9015	173.051	-0.015533	0.121053	-0.949783	-0.951136	-0.035690	62.4691	-0.949354	-4.713212E+12	7.572374E-15	NaN
148	1.000000	0.130381	7.36649e+06	-46039.1	955.819	-29770.9	0.000000	0.000000	6.130729	-0.008153	NaN	0.000000	0.001617	0.001718	28.1003	0.118974	0.001987	59.88	149.75	173.796	0.028452	0.129098	-0.941807	-0.943090	-0.008153	59.88	-0.941705	-3.716564E+12	2.193706E-15	NaN
148	1.000000	0.138391	7.36649e+06	-46039.1	955.818	-29770.9	0.000000	0.000000	6.138739	0.005537	NaN	0.000000	0.001633	0.001729	28.101	0.050028	0.001929	25.9408	132.263	179.305	-0.053359	0.137064	-0.933798	-0.935125	0.005537	25.9408	-0.933958	-2.921544E+12	-1.895138E-15	NaN
148	1.000000	0.146362	7.36649e+06	-46039.1	955.818	-29770.9	0.000000	0.000000	6.146710	-0.023718	NaN	0.000000	0.001628	0.001771	28.1005	0.063930	0.001993	32.0775	-118.765	177.522	-0.011302	0.145053	-0.925826	-0.927135	-0.023718	32.0775	-0.925272	-2.230355E+12	1.063433E-14	NaN
148	1.000000	0.154401	7.36649e+06	-46039.1	955.818	-29770.9	0.000000	0.000000	6.154749	-0.003777	NaN	0.000000	0.001596	0.001754	28.0988	0.033434	0.002089	16.0071	164.407	174.121	0.031164	0.153063	-0.917788	-0.919126	-0.003777	16.0071	-0.917611	-1.757697E+12	2.148582E-15	NaN
148	1.000000	0.162364	7.36649e+06	-46039.1	955.818	-29770.9	0.000000	0.000000	6.162714	0.065762	NaN	0.000000	0.001582	0.001795	28.0988	0.037260	0.001963	18.9803	49.2894	-179.699	0.041690	0.161092	-0.909825	-0.911096	0.065762	18.9803	-0.912424	-1.495877E+12	-4.396189E-14	NaN
148	1.000000	0.170407	7.36649e+06	-46039.1	955.818	-29770.9	0.000000	0.000000	6.170755	-0.021393	NaN	0.000000	0.001593	0.001752	28.1002	0.039088	0.001949	20.0585	169.174	175.975	0.027487	0.169067	-0.901781	-0.903121	-0.021393	20.0585	-0.900981	-1.047917E+12	2.041439E-14	NaN
148	1.000000	0.178403	7.36649e+06	-46039.1	955.818	-29770.9	0.000000	0.000000	6.178751	-0.012258	NaN	0.000000	0.001581	0.001754	28.0997	0.034901	0.002061	16.937	-101.574	177.277	0.061849	0.177023	-0.893785	-0.895165	-0.012258	16.937	-0.893242	-8.236525E+11	1.488257E-14	NaN
148	1.000000	0.186369	7.36649e+06	-46039.1	955.818	-29770.9	0.000000	0.000000	6.186718	0.014205	NaN	0.000000	0.001614	0.001757	28.0991	0.115764	0.001841	62.8761	156.407	176.471	-0.032104	0.185050	-0.885820	-0.887138	0.014205	62.8761	-0.885989	-6.571905E+11	-2.161548E-14	NaN
148	1.000000	0.194375	7.36649e+06	-46039.1	955.818	-29770.9	0.000000	0.000000	6.194724	0.013167	NaN	0.000000	0.001583	0.001750	28.0995	0.012905	0.001878	6.871919	87.3953	175.363	0.070416	0.193101	-0.877814	-0.879088	0.013167	6.871919	-0.879251	-5.328123E+11	-2.471166E-14	NaN
148	1.000000	0.202411	7.36649e+06	-46039.1	955.818	-29770.9	0.000000	0.000000	6.202760	0.023423	NaN	0.000000	0.001576	0.001773	28.1	0.180399	0.001938	93.0675	-27.8127	173.509	0.042468	0.201131	-0.869778	-0.871057	0.023423	93.0675	-0.869967	-3.990184E+11	-5.870096E-14	NaN
148	1.000000	0.210391	7.36649e+06	-46039.1	955.818	-29770.9	0.000000	0.000000	6.210737	-0.063569	NaN	0.000000	0.001589	0.001786	28.1005	0.062836	0.002025	31.0317	-76.9536	174.003	-0.044922	0.209116	-0.861797	-0.863072	-0.063569	31.0317	-0.860261	-2.948842E+11	2.155718E-13	NaN
148	1.000000	0.218402	7.36649e+06	-46039.1	955.818	-29770.9	0.000000	0.000000	6.218750	0.003238	NaN	0.000000	0.001557	0.001759	28.1002	0.031750	0.001968	16.1333	24.1548	177.32	-0.055916	0.217094	-0.853787	-0.855094	0.003238	16.1333	-0.853938	-2.421324E+11	-1.337362E-14	NaN
148	1.000000	0.226431	7.36649e+06	-46039.1	955.819	-29770.9	0.000000	0.000000	6.226779	-0.003227	NaN	0.000000	0.001579	0.001789	28.1004	0.049004	0.001978	24.7753	-104.617	175.421	-0.024202	0.225069	-0.845757	-0.847120	-0.003227	24.7753	-0.845660	-1.870501E+11	1.725325E-14	NaN
148	1.000000	0.234427	7.36649e+06	-46039.1	955.818	-29770.9	0.000000	0.000000	6.234776	0.020308	NaN	0.000000	0.001575	0.001796	28.099	0.047855	0.002046	23.3918	38.2471	176.364	0.078309	0.233090	-0.837762	-0.839098	0.020308	23.3918	-0.838413	-1.492072E+11	-1.361073E-13	NaN
148	1.000000	0.242400	7.36649e+06	-46039.1	955.818	-29770.9	0.000000	0.000000	6.242747	-0.026182	NaN	0.000000	0.001563	0.001773	28.0988	0.090623	0.002034	44.5565	-79.1424	177.618	-0.036177	0.241093	-0.829789	-0.831095	-0.026182	44.5565	-0.829348	-1.124479E+11	2.328381E-13	NaN
148	1.000000	0.250426	7.36649e+06	-46039.1	955.819	-29770.9	0.000000	0.000000	6.250772	-0.049865	NaN	0.000000	0.001617	0.001764	28.099	0.100748	0.001963	51.3243	111.582	173.383	-0.002179	0.249114	-0.821763	-0.823074	-0.049865	51.3243	-0.821034	-8.674308E+10	5.748533E-13	NaN
148	1.000000	0.258423	7.36649e+06	-46039.1	955.818	-29770.9	0.000000	0.000000	6.258770	-0.013510	NaN	0.000000	0.001573	0.001768	28.0978	0.118544	0.002159	54.9028	-158.889	173.143	0.094460	0.257067	-0.813766	-0.815122	-0.013510	54.9028	-0.813581	-6.873187E+10	1.965593E-13	NaN
148	1.000000	0.266408	7.36649e+06	-46039.1	955.818	-29770.9	0.000000	0.000000	6.266757	0.026770	NaN	0.000000	0.001598	0.001780	28.0977	0.043577	0.001955	22.2954	97.2662	175.584	0.019545	0.265117	-0.805781	-0.807072	0.026770	22.2954	-0.806682	-5.540447E+10	-4.831764E-13	NaN
148	1.000000	0.274412	7.36649e+06	-46039.1	955.819	-29770.9	0.000000	0.000000	6.274758	-0.059912	NaN	0.000000	0.001629	0.001763	28.0984	0.045035	0.001864	24.1623	-122.987	173.721	0.009225	0.273087	-0.797776	-0.799102	-0.059912	24.1623	-0.795917	-3.957567E+10	1.513869E-12	NaN
148	1.000000	0.282439	7.36649e+06	-46039.1	955.818	-29770.9	0.000000	0.000000	6.282787	0.003312	NaN	0.000000	0.001609	0.001803	28.0984	0.069473	0.001984	35.0199	-85.1208	174.382	-0.002761	0.281101	-0.789750	-0.791088	0.003312	35.0199	-0.789821	-3.270779E+10	-1.012566E-13	NaN
148	1.000000	0.290444	7.36649e+06	-46039.1	955.818	-29770.9	0.000000	0.000000	6.290791	-0.033470	NaN	0.000000	0.001596	0.001750	28.0995	0.024348	0.001975	12.3296	84.2365	174.62	-0.037172	0.289126	-0.781744	-0.783063	-0.033470	12.3296	-0.779708	-2.383795E+10	1.404083E-12	NaN
148	1.000000	0.298440	7.36649e+06	-46039.1	955.818	-29770.9	0.000000	0.000000	6.298792	0.097517	NaN	0.000000	0.001638	0.001755	28.0987	0.041225	0.002127	19.3846	-50.155	175.214	0.028474	0.297185	-0.773749	-0.775003	0.097517	19.3846	-0.777522	-2.226136E+10	-4.380559E-12	NaN
148	1.000000	0.306426	7.36649e+06	-46039.1	955.818	-29770.9	0.000000	0.000000	6.306775	0.018856	NaN	0.000000	0.001610	0.001747	28.099	0.113413	0.002029	55.8878	-166.478	177.218	0.045870	0.305163	-0.765762	-0.767025	0.018856	55.8878	-0.766016	-1.552832E+10	-1.214275E-12	NaN
148	1.000000	0.314424	7.36649e+06	-46039.1	955.818	-29770.9	0.000000	0.000000	6.314771	-0.015676	NaN	0.000000	0.001617	0.001780	28.0981	0.041168	0.001930	21.3304	170.412	175.831	-0.044596	0.313118	-0.757765	-0.759071	-0.015676	21.3304	-0.757214	-1.178670E+10	1.329952E-12	NaN
148	1.000000	0.322442	7.36649e+06	-46039.1	955.819	-29770.9	0.000000	0.000000	6.322788	-0.047393	NaN	0.000000	0.001629	0.001760	28.0977	0.009909	0.002028	4.886978	177.878	178.044	-0.033889	0.321132	-0.749747	-0.751056	-0.047393	4.886978	-0.742474	-7.425858E+9	6.382107E-12	NaN
148	1.000000	0.330432	7.36649e+06	-46039.1	955.819	-29770.9	0.000000	0.000000	6.330781	0.008996	NaN	0.000000	0.001603	0.001766	28.0973	0.032599	0.001894	17.2089	163.327	174.712	0.063110	0.329170	-0.741756	-0.743019	0.008996	17.2089	-0.742148	-7.350482E+9	-1.223835E-12	NaN
148	1.000000	0.338458	7.36649e+06	-46039.1	955.818	-29770.9	0.000000	0.000000	6.338806	-0.018424	NaN	0.000000	0.001603	0.001729	28.098	0.043062	0.002002	21.5124	87.1725	177.074	0.005249	0.337144	-0.733730	-0.735044	-0.018424	21.5124	-0.733088	-5.532089E+9	3.330416E-12	NaN
148	1.000000	0.346485	7.36649e+06	-46039.1	955.818	-29770.9	0.000000	0.000000	6.346832	-0.035420	NaN	0.000000	0.001588	0.001761	28.0966	0.032326	0.002004	16.1295	159.118	177.353	-0.026030	0.345173	-0.725703	-0.727016	-0.035420	16.1295	-0.724056	-4.166636E+9	8.500782E-12	NaN
148	1.000000	0.354485	7.36649e+06	-46039.1	955.818	-29770.9	0.000000	0.000000	6.354833	-7.535763E-5	NaN	0.000000	0.001590	0.001768	28.098	0.079103	0.001949	40.5812	14.793	171.389	0.070888	0.353162	-0.717704	-0.719027	-7.535763E-5	40.5812	-0.717702	-3.412974E+9	2.207975E-14	NaN
148	1.000000	0.362499	7.36649e+06	-46039.1	955.819	-29770.9	0.000000	0.000000	6.362851	0.096520	NaN	0.000000	0.001560	0.001740	28.0985	0.120732	0.001892	63.7971	-85.9586	175.655	0.125066	0.361195	-0.709689	-0.710994	0.096520	63.7971	-0.710824	-2.749762E+9	-3.510105E-11	NaN
148	1.000000	0.370465	7.36649e+06	-46039.1	955.819	-29770.9	0.000000	0.000000	6.370814	0.021330	NaN	0.000000	0.001589	0.001743	28.0984	0.110768	0.001935	57.2468	106.67	175.697	-0.056866	0.369182	-0.701724	-0.703007	0.021330	57.2468	-0.702003	-2.083942E+9	-1.023557E-11	NaN
148	1.000000	0.378483	7.36649e+06	-46039.1	955.818	-29770.9	0.000000	0.000000	6.378830	-0.024106	NaN	0.000000	0.001581	0.001757	28.0971	0.042795	0.002030	21.0796	-124.63	176.249	0.006715	0.377145	-0.693706	-0.695044	-0.024106	21.0796	-0.692848	-1.562565E+9	1.542722E-11	NaN
148	1.000000	0.386470	7.36649e+06	-46039.1	955.818	-29770.9	0.000000	0.000000	6.386817	-0.020676	NaN	0.000000	0.001589	0.001791	28.0977	0.088956	0.002028	43.8586	-83.5519	176.574	0.012970	0.385147	-0.685719	-0.687042	-0.020676	43.8586	-0.685365	-1.234726E+9	1.674577E-11	NaN
148	1.000000	0.394491	7.36649e+06	-46039.1	955.819	-29770.9	0.000000	0.000000	6.394838	-0.017677	NaN	0.000000	0.001666	0.001779	28.0975	0.037317	0.001901	19.6338	-78.6411	173.798	-0.090467	0.393126	-0.677698	-0.679062	-0.017677	19.6338	-0.677023	-9.494717E+8	1.861815E-11	NaN
148	1.000000	0.402495	7.36649e+06	-46039.1	955.818	-29770.9	0.000000	0.000000	6.402840	-0.084239	NaN	0.000000	0.001606	0.001768	28.0984	0.086433	0.002080	41.5581	120.586	174.404	0.044993	0.401134	-0.669694	-0.671055	-0.084239	41.5581	-0.668173	-7.184355E+8	1.172531E-10	NaN
148	1.000000	0.410507	7.36649e+06	-46039.1	955.818	-29770.9	0.000000	0.000000	6.410854	-0.024072	NaN	0.000000	0.001652	0.001769	28.0969	0.039801	0.001959	20.318	117.448	177.166	-0.002790	0.409187	-0.661681	-0.663002	-0.024072	20.318	-0.660793	-5.692809E+8	4.228464E-11	NaN
148	1.000000	0.418482	7.36649e+06	-46039.1	955.818	-29770.9	0.000000	0.000000	6.418830	-0.008099	NaN	0.000000	0.001628	0.001775	28.0972	0.077626	0.002017	38.4846	-7.089271	176.602	0.066623	0.417205	-0.653707	-0.654984	-0.008099	38.4846	-0.653549	-4.529834E+8	1.787864E-11	NaN
148	1.000000	0.426499	7.36649e+06	-46039.1	955.818	-29770.9	0.000000	0.000000	6.426848	0.019652	NaN	0.000000	0.001609	0.001771	28.0974	0.107062	0.001976	54.1786	-28.1485	175.515	0.032449	0.425194	-0.645690	-0.646995	0.019652	54.1786	-0.645962	-3.565082E+8	-5.512239E-11	NaN
148	1.000000	0.434504	7.36649e+06	-46039.1	955.818	-29770.9	0.000000	0.000000	6.434852	-0.004176	NaN	0.000000	0.001639	0.001784	28.099	0.093754	0.001953	48.0069	56.4198	173.934	-0.037535	0.433167	-0.637684	-0.639022	-0.004176	48.0069	-0.637619	-2.739158E+8	1.524643E-11	NaN
148	1.000000	0.442550	7.36649e+06	-46039.1	955.818	-29770.9	0.000000	0.000000	6.442899	0.029453	NaN	0.000000	0.001697	0.001781	28.098	0.015666	0.001794	8.733032	-100.355	178.914	-0.008713	0.441142	-0.629639	-0.631046	0.029453	8.733032	-0.632168	-2.305668E+8	-1.277398E-10	NaN
148	1.000000	0.450513	7.36649e+06	-46039.1	955.818	-29770.9	0.000000	0.000000	6.450860	-0.026045	NaN	0.000000	0.001676	0.001783	28.099	0.137501	0.002018	68.1289	-34.308	174.47	-0.089808	0.449197	-0.621676	-0.622991	-0.026045	68.1289	-0.621389	-1.639542E+8	1.588574E-10	NaN
148	1.000000	0.458518	7.36649e+06	-46039.1	955.818	-29770.9	0.000000	0.000000	6.458867	0.019038	NaN	0.000000	0.001663	0.001794	28.0986	0.060829	0.002050	29.6762	94.8135	178.385	0.035076	0.457214	-0.613670	-0.614974	0.019038	29.6762	-0.614152	-1.303833E+8	-1.460194E-10	NaN
148	1.000000	0.466525	7.36649e+06	-46039.1	955.818	-29770.9	0.000000	0.000000	6.466871	-0.035439	NaN	0.000000	0.001674	0.001805	28.0988	0.067042	0.002012	33.3156	29.9208	175.225	0.014093	0.465170	-0.605664	-0.607019	-0.035439	33.3156	-0.604866	-9.715445E+7	3.647656E-10	NaN
148	1.000000	0.474502	7.36649e+06	-46039.1	955.818	-29770.9	0.000000	0.000000	6.474850	0.001046	NaN	0.000000	0.001687	0.001799	28.0973	0.065807	0.002012	32.7047	-62.2246	170.802	-0.011334	0.473181	-0.597687	-0.599007	0.001046	32.7047	-0.597711	-7.743346E+7	-1.351405E-11	NaN
148	1.000000	0.482527	7.36649e+06	-46039.1	955.819	-29770.9	0.000000	0.000000	6.482875	-0.003553	NaN	0.000000	0.001689	0.001770	28.0982	0.066758	0.001895	35.2203	152.419	174.236	-0.017663	0.481203	-0.589661	-0.590985	-0.003553	35.2203	-0.589586	-5.983473E+7	5.938279E-11	NaN
148	1.000000	0.490513	7.36649e+06	-46039.1	955.818	-29770.9	0.000000	0.000000	6.490863	0.050597	NaN	0.000000	0.001688	0.001791	28.0978	0.059612	0.001873	31.8319	-133.756	174.423	0.070380	0.489234	-0.581676	-0.582955	0.050597	31.8319	-0.582868	-4.833936E+7	-1.046706E-9	NaN
148	1.000000	0.498536	7.36649e+06	-46039.1	955.818	-29770.9	0.000000	0.000000	6.498879	-0.114681	NaN	0.000000	0.001675	0.001809	28.0977	0.019043	0.001982	9.606537	13.924	175.708	-0.079563	0.497209	-0.573653	-0.574979	-0.114681	9.606537	-0.564699	-2.712479E+7	4.227914E-9	NaN
148	1.000000	0.506505	7.36649e+06	-46039.1	955.819	-29770.9	0.000000	0.000000	6.506852	-0.023157	NaN	0.000000	0.001663	0.001788	28.0977	0.040788	0.002120	19.2419	-177.507	174.267	-0.053807	0.505237	-0.565684	-0.566951	-0.023157	19.2419	-0.564781	-2.719585E+7	8.514759E-10	NaN
148	1.000000	0.514538	7.36649e+06	-46039.1	955.818	-29770.9	0.000000	0.000000	6.514888	0.058816	NaN	0.000000	0.001681	0.001801	28.0985	0.032774	0.001951	16.7942	43.4629	176.024	0.035476	0.513189	-0.557651	-0.558999	0.058816	16.7942	-0.560278	-2.356232E+7	-2.496194E-9	NaN
148	1.000000	0.522556	7.36649e+06	-46039.1	955.818	-29770.9	0.000000	0.000000	6.522903	-0.016788	NaN	0.000000	0.001698	0.001783	28.0979	0.091982	0.002077	44.2887	-91.825	175.385	0.048794	0.521321	-0.549633	-0.550867	-0.016788	44.2887	-0.549349	-1.663153E+7	1.009419E-9	NaN
148	1.000000	0.530550	7.36649e+06	-46039.1	955.818	-29770.9	0.000000	0.000000	6.530899	0.034403	NaN	0.000000	0.001623	0.001787	28.0987	0.108707	0.002032	53.4999	-130.359	176.301	-0.029854	0.529294	-0.541639	-0.542894	0.034403	53.4999	-0.542121	-1.320602E+7	-2.605128E-9	NaN
148	1.000000	0.538521	7.36649e+06	-46039.1	955.818	-29770.9	0.000000	0.000000	6.538867	-0.053960	NaN	0.000000	0.001646	0.001745	28.0969	0.097562	0.001886	51.7405	-102.897	176.685	-0.032947	0.537211	-0.533667	-0.534977	-0.053960	51.7405	-0.532885	-9.83186e+06	5.488234E-9	NaN
148	1.000000	0.546566	7.36649e+06	-46039.1	955.818	-29770.9	0.000000	0.000000	6.546914	0.006927	NaN	0.000000	0.001631	0.001774	28.097	0.066198	0.001952	33.9153	2.014994	176.84	-0.010739	0.545227	-0.525623	-0.526962	0.006927	33.9153	-0.525776	-7.83236e+06	-8.844627E-10	NaN
148	1.000000	0.554547	7.36649e+06	-46039.1	955.819	-29770.9	0.000000	0.000000	6.554895	0.011859	NaN	0.000000	0.001625	0.001796	28.0952	0.067313	0.002050	32.8295	26.8691	174.755	0.007874	0.553187	-0.517642	-0.519002	0.011859	32.8295	-0.517913	-6.08925e+06	-1.947484E-9	NaN
148	1.000000	0.562566	7.36649e+06	-46039.1	955.818	-29770.9	0.000000	0.000000	6.562915	0.034527	NaN	0.000000	0.001587	0.001733	28.0954	0.029997	0.002041	14.6997	102.87	175.521	-0.028492	0.561270	-0.509623	-0.510919	0.034527	14.6997	-0.511384	-4.93966e+06	-6.989710E-9	NaN
148	1.000000	0.570565	7.36649e+06	-46039.1	955.818	-29770.9	0.000000	0.000000	6.570913	0.000306	NaN	0.000000	0.001578	0.001807	28.0962	0.044823	0.001984	22.5917	-73.4729	177.383	0.061618	0.569209	-0.501624	-0.502980	0.000306	22.5917	-0.501634	-3.61251e+06	-8.476077E-11	NaN
148	1.000000	0.578567	7.36649e+06	-46039.1	955.819	-29770.9	0.000000	0.000000	6.578917	0.046268	NaN	0.000000	0.001630	0.001783	28.0961	0.040007	0.001965	20.364	175.03	173.781	0.013389	0.577196	-0.493622	-0.494993	0.046268	20.364	-0.495326	-2.94972e+06	-1.568545E-8	NaN
148	1.000000	0.586572	7.36649e+06	-46039.1	955.818	-29770.9	0.000000	0.000000	6.586918	-0.041077	NaN	0.000000	0.001580	0.001776	28.0958	0.073916	0.002066	35.7753	-169.08	174.978	-0.017233	0.585234	-0.485617	-0.486955	-0.041077	35.7753	-0.484756	-2.0993e+06	1.956717E-8	NaN
148	1.000000	0.594573	7.36649e+06	-46039.1	955.819	-29770.9	0.000000	0.000000	6.594920	-0.029052	NaN	0.000000	0.001637	0.001785	28.0965	0.062098	0.001931	32.1544	160.7	177.052	0.065355	0.593209	-0.477615	-0.478980	-0.029052	32.1544	-0.476937	-1.63171e+06	1.780437E-8	NaN
148	1.000000	0.602578	7.36649e+06	-46039.1	955.818	-29770.9	0.000000	0.000000	6.602924	-0.041255	NaN	0.000000	0.001608	0.001769	28.0962	0.104173	0.002056	50.6788	-174.271	176.078	0.033291	0.601264	-0.469611	-0.470924	-0.041255	50.6788	-0.469000	-1.26296e+06	3.266511E-8	NaN
148	1.000000	0.610570	7.36649e+06	-46039.1	955.817	-29770.9	0.000000	0.000000	6.610918	0.007519	NaN	0.000000	0.001617	0.001786	28.0963	0.036707	0.002172	16.9033	-126.997	173.217	0.018279	0.609292	-0.461619	-0.462897	0.007519	16.9033	-0.461952	-1.00566e+06	-7.476802E-9	NaN
148	1.000000	0.618596	7.36649e+06	-46039.1	955.819	-29770.9	0.000000	0.000000	6.618943	-0.024545	NaN	0.000000	0.001646	0.001808	28.0963	0.040545	0.001958	20.7082	-152.933	175.536	-0.003986	0.617281	-0.453592	-0.454907	-0.024545	20.7082	-0.452703	-745424	3.292746E-8	NaN
148	1.000000	0.626592	7.36649e+06	-46039.1	955.819	-29770.9	0.000000	0.000000	6.626938	-0.052630	NaN	0.000000	0.001551	0.001782	28.0971	0.010739	0.002002	5.363526	-108.953	173.027	-0.060396	0.625273	-0.445597	-0.446916	-0.052630	5.363526	-0.438237	-466103	1.129155E-7	NaN
148	1.000000	0.634596	7.36649e+06	-46039.1	955.818	-29770.9	0.000000	0.000000	6.634944	0.006853	NaN	0.000000	0.001592	0.001789	28.0953	0.066036	0.002102	31.4118	15.3888	176.681	-0.019145	0.633272	-0.437593	-0.438916	0.006853	31.4118	-0.437756	-458867	-1.493494E-8	NaN
148	1.000000	0.642607	7.36649e+06	-46039.1	955.818	-29770.9	0.000000	0.000000	6.642955	0.013945	NaN	0.000000	0.001601	0.001800	28.0946	0.087348	0.002063	42.341	69.2969	172.509	0.108007	0.641260	-0.429582	-0.430929	0.013945	42.341	-0.429829	-354521	-3.933398E-8	NaN
148	1.000000	0.650584	7.36649e+06	-46039.1	955.818	-29770.9	0.000000	0.000000	6.650931	-0.029039	NaN	0.000000	0.001622	0.001765	28.0952	0.046451	0.002100	22.1202	-127.16	175.28	0.036582	0.649259	-0.421605	-0.422930	-0.029039	22.1202	-0.420620	-262548	1.106027E-7	NaN
148	1.000000	0.658601	7.36649e+06	-46039.1	955.819	-29770.9	0.000000	0.000000	6.658949	0.002992	NaN	0.000000	0.001631	0.001759	28.0948	0.129669	0.001961	66.1395	116.494	174.024	-0.006841	0.657267	-0.413588	-0.414921	0.002992	66.1395	-0.413622	-208873	-1.432509E-8	NaN
148	1.000000	0.666621	7.36649e+06	-46039.1	955.818	-29770.9	0.000000	0.000000	6.666972	0.068658	NaN	0.000000	0.001622	0.001774	28.0959	0.103273	0.002013	51.2964	168.766	173.318	0.023906	0.665269	-0.405568	-0.406920	0.068658	51.2964	-0.406572	-165816	-4.140613E-7	NaN
148	1.000000	0.674590	7.36649e+06	-46039.1	955.818	-29770.9	0.000000	0.000000	6.674938	-0.002824	NaN	0.000000	0.001596	0.001809	28.0979	0.078876	0.002035	38.7603	-31.3664	176.441	-0.047589	0.673311	-0.397598	-0.398877	-0.002824	38.7603	-0.397544	-123297	2.290168E-8	NaN
148	1.000000	0.682582	7.36649e+06	-46039.1	955.818	-29770.9	0.000000	0.000000	6.682928	-0.049313	NaN	0.000000	0.001586	0.001788	28.0971	0.077596	0.002051	37.8327	39.888	172.029	-0.103288	0.681303	-0.389606	-0.390885	-0.049313	37.8327	-0.388629	-91948.7	5.363079E-7	NaN
148	1.000000	0.690591	7.36649e+06	-46039.1	955.819	-29770.9	0.000000	0.000000	6.690938	-0.027910	NaN	0.000000	0.001559	0.001769	28.0973	0.108486	0.001990	54.5096	86.1363	178.234	0.021366	0.689283	-0.381597	-0.382906	-0.027910	54.5096	-0.381213	-71993.9	3.876732E-7	NaN
148	1.000000	0.698638	7.36649e+06	-46039.1	955.818	-29770.9	0.000000	0.000000	6.698986	-0.017022	NaN	0.000000	0.001598	0.001780	28.0976	0.026527	0.002158	12.2913	137.088	176.263	-0.027349	0.697255	-0.373550	-0.374934	-0.017022	12.2913	-0.372512	-53986	3.153013E-7	NaN
148	1.000000	0.706591	7.36649e+06	-46039.1	955.819	-29770.9	0.000000	0.000000	6.706937	-0.058592	NaN	0.000000	0.001608	0.001776	28.0973	0.038593	0.002009	19.2076	27.591	173.026	0.027707	0.705293	-0.365597	-0.366896	-0.058592	19.2076	-0.363309	-39779.1	1.472935E-6	NaN
148	1.000000	0.714630	7.36649e+06	-46039.1	955.819	-29770.9	0.000000	0.000000	6.714976	-0.044101	NaN	0.000000	0.001603	0.001789	28.0964	0.066902	0.001917	34.905	118.359	176.205	-0.068261	0.713264	-0.357559	-0.358925	-0.044101	34.905	-0.356611	-31829	1.385557E-6	NaN
148	1.000000	0.722621	7.36649e+06	-46039.1	955.819	-29770.9	0.000000	0.000000	6.722970	0.038757	NaN	0.000000	0.001575	0.001802	28.0969	0.033059	0.002014	16.4136	-2.119130	173.92	0.055012	0.721346	-0.349568	-0.350843	0.038757	16.4136	-0.351339	-26695	-1.451829E-6	NaN
148	1.000000	0.730631	7.36649e+06	-46039.1	955.818	-29770.9	0.000000	0.000000	6.730976	-0.070556	NaN	0.000000	0.001606	0.001800	28.0962	0.070470	0.001913	36.8342	128.7	175.092	-0.051768	0.729268	-0.341558	-0.342920	-0.070556	36.8342	-0.340121	-18336.7	3.847815E-6	NaN
148	1.000000	0.738607	7.36649e+06	-46039.1	955.818	-29770.9	0.000000	0.000000	6.738956	0.012870	NaN	0.000000	0.001604	0.001766	28.0963	0.036843	0.001832	20.1084	-8.175583	175.39	0.044978	0.737299	-0.333582	-0.334890	0.012870	20.1084	-0.334062	-14958.1	-8.604303E-7	NaN
148	1.000000	0.746668	7.36649e+06	-46039.1	955.818	-29770.9	0.000000	0.000000	6.747016	-0.008993	NaN	0.000000	0.001625	0.001784	28.0957	0.050197	0.002034	24.6761	-39.0277	177.76	-0.012998	0.745298	-0.325521	-0.326891	-0.008993	24.6761	-0.325247	-11111.3	8.093940E-7	NaN
148	1.000000	0.754633	7.36649e+06	-46039.1	955.818	-29770.9	0.000000	0.000000	6.754982	0.003406	NaN	0.000000	0.001580	0.001792	28.0976	0.026188	0.002124	12.3274	-156.427	179.68	-0.029863	0.753301	-0.317555	-0.318888	0.003406	12.3274	-0.317763	-8623.56	-3.949191E-7	NaN
148	1.000000	0.762626	7.36649e+06	-46039.1	955.819	-29770.9	0.000000	0.000000	6.762973	-0.026592	NaN	0.000000	0.001571	0.001765	28.0974	0.153603	0.002038	75.3798	86.8843	172.414	-0.080615	0.761351	-0.309563	-0.310838	-0.026592	75.3798	-0.309298	-6466.53	4.112256E-6	NaN
148	1.000000	0.770634	7.36649e+06	-46039.1	955.819	-29770.9	0.000000	0.000000	6.770983	0.025389	NaN	0.000000	0.001574	0.001777	28.0974	0.077760	0.001968	39.5184	-176.37	179.482	0.013051	0.769290	-0.301555	-0.302899	0.025389	39.5184	-0.302037	-5045.88	-5.031728E-6	NaN
148	1.000000	0.778659	7.36649e+06	-46039.1	955.818	-29770.9	0.000000	0.000000	6.779006	-0.044111	NaN	0.000000	0.001587	0.001764	28.0968	0.109418	0.002164	50.5687	35.5363	178.8	0.009204	0.777275	-0.293529	-0.294913	-0.044111	50.5687	-0.292875	-3684.13	1.197336E-5	NaN
148	1.000000	0.786640	7.36649e+06	-46039.1	955.818	-29770.9	0.000000	0.000000	6.786990	0.033908	NaN	0.000000	0.001608	0.001784	28.0966	0.067771	0.002062	32.8642	-153.89	174.007	-0.023883	0.785358	-0.285548	-0.286831	0.033908	32.8642	-0.286322	-2938.55	-1.153891E-5	NaN
148	1.000000	0.794656	7.36649e+06	-46039.1	955.818	-29770.9	0.000000	0.000000	6.795006	0.047500	NaN	0.000000	0.001575	0.001813	28.0963	0.073775	0.001979	37.2799	123.364	177.201	0.137775	0.793378	-0.277532	-0.278811	0.047500	37.2799	-0.278488	-2239.48	-2.121010E-5	NaN
148	1.000000	0.802664	7.36649e+06	-46039.1	955.819	-29770.9	0.000000	0.000000	6.803013	0.028739	NaN	0.000000	0.001575	0.001803	28.0959	0.050692	0.002054	24.6825	-49.5777	173.81	0.013820	0.801379	-0.269525	-0.270810	0.028739	24.6825	-0.270398	-1688.87	-1.701691E-5	NaN
148	1.000000	0.810662	7.36649e+06	-46039.1	955.818	-29770.9	0.000000	0.000000	6.811008	-0.029361	NaN	0.000000	0.001578	0.001810	28.0942	0.069577	0.001962	35.459	-28.595	173.494	0.033023	0.809273	-0.261527	-0.262916	-0.029361	35.459	-0.260906	-1210.04	2.426441E-5	NaN
148	1.000000	0.818672	7.36649e+06	-46039.1	955.819	-29770.9	0.000000	0.000000	6.819021	0.014433	NaN	0.000000	0.001598	0.001773	28.0941	0.042755	0.002059	20.7611	158.377	171.992	0.063131	0.817370	-0.253517	-0.254818	0.014433	20.7611	-0.254038	-949.072	-1.520738E-5	NaN
148	1.000000	0.826648	7.36649e+06	-46039.1	955.818	-29770.9	0.000000	0.000000	6.826998	0.043263	NaN	0.000000	0.001590	0.001789	28.0942	0.050283	0.002126	23.6482	68.253	178.749	-0.011782	0.825357	-0.245541	-0.246832	0.043263	23.6482	-0.246913	-736.459	-5.874478E-5	NaN
148	1.000000	0.834650	7.36649e+06	-46039.1	955.818	-29770.9	0.000000	0.000000	6.834995	-0.058503	NaN	0.000000	0.001618	0.001755	28.0947	0.175395	0.002033	86.2932	-154.118	174.636	-0.002044	0.833367	-0.237539	-0.238822	-0.058503	86.2932	-0.237031	-516.535	0.000113	NaN
148	1.000000	0.842676	7.36649e+06	-46039.1	955.818	-29770.9	0.000000	0.000000	6.843021	-0.067703	NaN	0.000000	0.001650	0.001786	28.0967	0.047155	0.002045	23.0566	65.6932	177.278	-0.029277	0.841329	-0.229513	-0.230860	-0.067703	23.0566	-0.227310	-363.06	0.000186	NaN
148	1.000000	0.850684	7.36649e+06	-46039.1	955.818	-29770.9	0.000000	0.000000	6.851033	0.002457	NaN	0.000000	0.001654	0.001806	28.0955	0.114464	0.001992	57.4555	-1.862522	179.049	-0.052239	0.849367	-0.221504	-0.222822	0.002457	57.4555	-0.221536	-293.904	-8.358843E-6	NaN
148	1.000000	0.858692	7.36649e+06	-46039.1	955.818	-29770.9	0.000000	0.000000	6.859041	0.031686	NaN	0.000000	0.001681	0.001755	28.0952	0.118422	0.002125	55.7345	-112.521	177.007	0.069705	0.857367	-0.213497	-0.214822	0.031686	55.7345	-0.213923	-221.915	-0.000143	NaN
148	1.000000	0.866674	7.36649e+06	-46039.1	955.817	-29770.9	0.000000	0.000000	6.867023	0.024780	NaN	0.000000	0.001670	0.001806	28.0954	0.070614	0.001983	35.6164	169.522	175.174	-0.004631	0.865369	-0.205514	-0.206820	0.024780	35.6164	-0.206036	-165.366	-0.000150	NaN
148	1.000000	0.874682	7.36649e+06	-46039.1	955.818	-29770.9	0.000000	0.000000	6.875029	-0.021970	NaN	0.000000	0.001665	0.001791	28.0948	0.124901	0.001865	66.9665	-37.044	177.475	0.031819	0.873380	-0.197507	-0.198809	-0.021970	66.9665	-0.197261	-118.738	0.000185	NaN
148	1.000000	0.882691	7.36649e+06	-46039.1	955.819	-29770.9	0.000000	0.000000	6.883041	0.058257	NaN	0.000000	0.001684	0.001795	28.094	0.106997	0.002060	51.9389	-50.4015	178.256	0.047521	0.881410	-0.189498	-0.190779	0.058257	51.9389	-0.190339	-91.137	-0.000639	NaN
148	1.000000	0.890708	7.36649e+06	-46039.1	955.818	-29770.9	0.000000	0.000000	6.891054	-0.049578	NaN	0.000000	0.001684	0.001764	28.0936	0.129442	0.002004	64.5979	88.2774	177.745	-0.050436	0.889350	-0.181481	-0.182838	-0.049578	64.5979	-0.180905	-63.2197	0.000784	NaN
148	1.000000	0.898680	7.36649e+06	-46039.1	955.819	-29770.9	0.000000	0.000000	6.899031	0.071565	NaN	0.000000	0.001702	0.001805	28.0935	0.091257	0.001974	46.2377	-168.573	177.715	0.048412	0.897337	-0.173509	-0.174852	0.071565	46.2377	-0.174669	-49.4649	-0.001447	NaN
148	1.000000	0.906713	7.36649e+06	-46039.1	955.818	-29770.9	0.000000	0.000000	6.907061	-0.010930	NaN	0.000000	0.001652	0.001777	28.0932	0.102616	0.002086	49.1848	-48.8688	177.176	0.083664	0.905371	-0.165475	-0.166817	-0.010930	49.1848	-0.165309	-34.019	0.000321	NaN
148	1.000000	0.914722	7.36649e+06	-46039.1	955.817	-29770.9	0.000000	0.000000	6.915070	0.000619	NaN	0.000000	0.001621	0.001780	28.0952	0.045545	0.002009	22.6736	27.52	172.838	0.010049	0.913373	-0.157467	-0.158816	0.000619	22.6736	-0.157487	-24.7287	-2.504261E-5	NaN
148	1.000000	0.922701	7.36649e+06	-46039.1	955.818	-29770.9	0.000000	0.000000	6.923049	-0.002395	NaN	0.000000	0.001594	0.001803	28.0954	0.117862	0.002117	55.6853	120.674	174.711	-0.086331	0.921388	-0.149488	-0.150801	-0.002395	55.6853	-0.149456	-17.7041	0.000135	NaN
148	1.000000	0.930714	7.36649e+06	-46039.1	955.819	-29770.9	0.000000	0.000000	6.931061	-0.034903	NaN	0.000000	0.001607	0.001768	28.0951	0.058018	0.002003	28.9703	-85.844	177.693	0.047985	0.929403	-0.141475	-0.142786	-0.034903	28.9703	-0.140571	-12.1251	0.002879	NaN
148	1.000000	0.938714	7.36649e+06	-46039.1	955.818	-29770.9	0.000000	0.000000	6.939060	-0.055071	NaN	0.000000	0.001585	0.001776	28.0961	0.021621	0.001985	10.8941	-15.1016	176.979	0.012317	0.937374	-0.133475	-0.134814	-0.055071	10.8941	-0.129684	-7.513816	0.007329	NaN
148	1.000000	0.946699	7.36649e+06	-46039.1	955.818	-29770.9	0.000000	0.000000	6.947044	-0.078698	NaN	0.000000	0.001582	0.001776	28.0959	0.095065	0.002017	47.1336	155.839	173.53	-0.120417	0.945372	-0.125489	-0.126816	-0.078698	47.1336	-0.124237	-5.873182	0.013400	NaN
148	1.000000	0.954724	7.36649e+06	-46039.1	955.818	-29770.9	0.000000	0.000000	6.955072	-0.016081	NaN	0.000000	0.001564	0.001764	28.0946	0.085359	0.002103	40.5872	18.3181	178.975	0.045693	0.953379	-0.117464	-0.118810	-0.016081	40.5872	-0.117167	-4.232226	0.003800	NaN
148	1.000000	0.962702	7.36649e+06	-46039.1	955.819	-29770.9	0.000000	0.000000	6.963050	0.012847	NaN	0.000000	0.001589	0.001765	28.0952	0.057410	0.002033	28.2394	-48.876	173.7	-0.044984	0.961416	-0.109487	-0.110773	0.012847	28.2394	-0.109828	-2.980193	-0.004311	NaN
148	1.000000	0.970714	7.36649e+06	-46039.1	955.818	-29770.9	0.000000	0.000000	6.971065	0.047802	NaN	0.000000	0.001602	0.001789	28.0955	0.119548	0.001883	63.4726	-178.716	172.611	-0.013045	0.969399	-0.101474	-0.102789	0.047802	63.4726	-0.102039	-2.026415	-0.023589	NaN
148	1.000000	0.978689	7.36649e+06	-46039.1	955.818	-29770.9	0.000000	0.000000	6.979037	0.010093	NaN	0.000000	0.001569	0.001778	28.0949	0.093899	0.002051	45.784	-54.1845	173.053	0.008452	0.977462	-0.093500	-0.094727	0.010093	45.784	-0.093665	-1.314868	-0.007676	NaN
148	1.000000	0.986740	7.36649e+06	-46039.1	955.818	-29770.9	0.000000	0.000000	6.987090	0.047920	NaN	0.000000	0.001600	0.001779	28.0957	0.037901	0.001850	20.4872	-66.4467	175.779	-0.031337	0.985390	-0.085449	-0.086799	0.047920	20.4872	-0.087203	-0.928174	-0.051628	NaN
148	1.000000	0.994720	7.36649e+06	-46039.1	955.818	-29770.9	0.000000	0.000000	6.995069	0.029987	NaN	0.000000	0.001627	0.001785	28.0954	0.070919	0.001896	37.3949	156.786	172.619	-0.029507	0.993407	-0.077469	-0.078782	0.029987	37.3949	-0.078070	-0.553496	-0.054178	NaN
148	1.000000	1.002765	7.36649e+06	-46039.1	955.819	-29770.9	0.000000	0.000000	7.003111	-0.037044	NaN	0.000000	0.001606	0.001788	28.095	0.041544	0.002057	20.2002	80.0932	174.05	-0.046676	1.001371	-0.069424	-0.070817	-0.037044	20.2002	-0.068048	-0.302171	0.122591	NaN
148	1.000000	1.010717	7.36649e+06	-46039.1	955.819	-29770.9	0.000000	0.000000	7.011066	0.020148	NaN	0.000000	0.001572	0.001802	28.0963	0.100620	0.002152	46.7617	102.94	177.584	0.029783	1.009458	-0.061472	-0.062731	0.020148	46.7617	-0.061795	-0.202622	-0.099437	NaN
148	1.000000	1.018723	7.36649e+06	-46039.1	955.819	-29770.9	0.000000	0.000000	7.019074	0.054179	NaN	0.000000	0.001587	0.001816	28.0962	0.031044	0.001998	15.5368	0.758479	174.425	0.065804	1.017426	-0.053465	-0.054763	0.054179	15.5368	-0.056081	-0.138576	-0.390971	NaN
148	1.000000	1.026727	7.36649e+06	-46039.1	955.818	-29770.9	0.000000	0.000000	7.027076	0.020444	NaN	0.000000	0.001588	0.001798	28.0954	0.026188	0.002041	12.8309	126.254	175.923	0.030406	1.025434	-0.045462	-0.046754	0.020444	12.8309	-0.046657	-0.072215	-0.283105	NaN
148	1.000000	1.034766	7.36649e+06	-46039.1	955.819	-29770.9	0.000000	0.000000	7.035112	-0.042971	NaN	0.000000	0.001592	0.001769	28.0949	0.043515	0.001981	21.971	148.645	174.213	-0.069291	1.033458	-0.037423	-0.038730	-0.042971	21.971	-0.035956	-0.034178	1.257270	NaN
148	1.000000	1.042745	7.36649e+06	-46039.1	955.817	-29770.9	0.000000	0.000000	7.043093	0.003788	NaN	0.000000	0.001588	0.001802	28.0948	0.098207	0.001943	50.5356	117.407	176.613	-0.056292	1.041365	-0.029444	-0.030823	0.003788	50.5356	-0.029500	-0.022289	-0.169970	NaN
148	1.000000	1.050751	7.36649e+06	-46039.1	955.818	-29770.9	0.000000	0.000000	7.051099	-0.008852	NaN	0.000000	0.001626	0.001812	28.0949	0.105533	0.002007	52.5733	-28.8202	176.255	0.031320	1.049462	-0.021438	-0.022727	-0.008852	52.5733	-0.021311	-0.013563	0.652656	NaN
148	1.000000	1.058744	7.36649e+06	-46039.1	955.818	-29770.9	0.000000	0.000000	7.059091	-0.023398	NaN	0.000000	0.001599	0.001795	28.0948	0.064387	0.002017	31.9168	-56.7394	178.155	-0.040187	1.057429	-0.013445	-0.014760	-0.023398	31.9168	-0.012895	-0.008042	2.909556	NaN
148	1.000000	1.066746	7.36649e+06	-46039.1	955.818	-29770.9	0.000000	0.000000	7.067094	-0.003037	NaN	0.000000	0.001587	0.001810	28.096	0.145388	0.001989	73.0795	124.567	171.256	-0.081596	1.065457	-0.005442	-0.006732	-0.003037	73.0795	-0.005411	-0.003674	0.826736	NaN
148	1.000000	1.074770	7.36649e+06	-46039.1	955.818	-29770.9	0.000000	0.000000	7.075158	0.962300	NaN	0.000000	0.001598	0.001777	28.0963	1.646026	0.001939	848.698	10.5065	176.253	0.242750	1.073453	0.002581	0.001265	0.962300	848.698	0.001731	0.001338	719.041	21195.7
148	2.000000	1.082249	7.36649e+06	-46039.1	955.819	-29770.9	0.000000	0.000000	7.082973	9.134877	NaN	0.000000	0.001614	0.001783	28.0948	8.531387	0.001531	5571.76	9.529000	165.331	8.353997	1.081390	0.010061	0.009201	9.134877	5571.76	0.008831	0.007911	1154.7	57233.3
148	2.000000	1.084385	7.36649e+06	-46039.1	955.818	-29770.9	0.000000	0.000000	7.085227	12.0072	NaN	0.000000	0.001592	0.001803	28.0954	10.0274	0.001542	6503.27	6.862875	167.523	11.011	1.084024	0.012196	0.011836	12.0072	6503.27	0.010812	0.010098	1189.12	59128.7
148	2.000000	1.086364	7.36649e+06	-46039.1	955.818	-29770.9	0.000000	0.000000	7.087200	11.8746	NaN	0.000000	0.001579	0.001773	28.0943	11.5713	0.001721	6725.4	5.972385	168.252	11.5505	1.086052	0.014175	0.013863	11.8746	6725.4	0.012851	0.012525	948.04	54903
148	2.000000	1.088427	7.36649e+06	-46039.1	955.819	-29770.9	0.000000	0.000000	7.089400	15.199	NaN	0.000000	0.001547	0.001754	28.0943	14.2096	0.001772	8018.98	7.668436	166.541	15.5645	1.088021	0.016239	0.015832	15.199	8018.98	0.014817	0.015042	1010.43	59736.2
148	2.000000	1.090294	7.36649e+06	-46039.1	955.818	-29770.9	0.000000	0.000000	7.091396	18.338	NaN	0.000000	0.001587	0.001785	28.093	16.0743	0.001762	9123.13	5.187456	166.504	17.2254	1.090062	0.018106	0.017873	18.338	9123.13	0.016598	0.017476	1049.32	63051.5
148	2.000000	1.092352	7.36649e+06	-46039.1	955.818	-29770.9	0.000000	0.000000	7.093609	22.1185	NaN	0.000000	0.001559	0.001819	28.094	17.8102	0.001774	10042	6.568779	165.75	22.1947	1.092045	0.020163	0.019856	22.1185	10042	0.018511	0.020257	1091.89	64462.6
148	2.000000	1.094325	7.36649e+06	-46039.1	955.819	-29770.9	0.000000	0.000000	7.095763	26.5133	NaN	0.000000	0.001567	0.001822	28.0936	19.3045	0.001658	11645.6	5.757629	165.177	26.8699	1.094056	0.022137	0.021868	26.5133	11645.6	0.020429	0.023221	1141.78	69822.2
148	2.000000	1.096268	7.36649e+06	-46039.1	955.819	-29770.9	0.000000	0.000000	7.097857	30.1847	NaN	0.000000	0.001597	0.001785	28.0928	21.8268	0.001705	12799.5	4.851675	163.98	28.5928	1.096029	0.024080	0.023840	30.1847	12799.5	0.022311	0.026304	1147.51	72102.7
148	2.000000	1.098378	7.36649e+06	-46039.1	955.818	-29770.9	0.000000	0.000000	7.100195	35.7439	NaN	0.000000	0.001582	0.001734	28.094	23.73	0.001755	13518.8	3.874033	166.817	36.5582	1.098035	0.026189	0.025846	35.7439	13518.8	0.024206	0.029587	1208.09	71806
148	2.000000	1.100282	7.36649e+06	-46039.1	955.819	-29770.9	0.000000	0.000000	7.102281	40.152	NaN	0.000000	0.001585	0.001783	28.0941	25.6112	0.001608	15923.6	3.034881	163.119	38.8818	1.099984	0.028094	0.027795	40.152	15923.6	0.026203	0.033240	1207.95	79797
148	2.000000	1.102295	7.36649e+06	-46039.1	955.818	-29770.9	0.000000	0.000000	7.104554	46.4777	NaN	0.000000	0.001581	0.001788	28.0957	28.9573	0.001960	14775.8	6.982040	160.395	45.7267	1.102037	0.030107	0.029848	46.4777	14775.8	0.027747	0.036204	1283.77	70948.8
148	2.000000	1.104372	7.36649e+06	-46039.1	955.818	-29770.9	0.000000	0.000000	7.106774	49.9759	NaN	0.000000	0.001593	0.001782	28.0951	30.2677	0.001731	17484.1	7.167522	159.237	55.1844	1.104085	0.032183	0.031897	49.9759	17484.1	0.030039	0.040825	1224.14	79059.2
148	2.000000	1.106340	7.36649e+06	-46039.1	955.819	-29770.9	0.000000	0.000000	7.109112	58.9748	NaN	0.000000	0.001592	0.001775	28.093	32.8265	0.001869	17559.5	6.857456	160.404	58.6235	1.105903	0.034151	0.033715	58.9748	17559.5	0.031632	0.044194	1334.44	76313.3
148	2.000000	1.108319	7.36649e+06	-46039.1	955.818	-29770.9	0.000000	0.000000	7.111342	65.0805	NaN	0.000000	0.001626	0.001778	28.095	35.032	0.001834	19101.3	5.449572	161.286	64.929	1.107960	0.036130	0.035771	65.0805	19101.3	0.033575	0.048480	1342.43	79260.7
148	2.000000	1.110244	7.36649e+06	-46039.1	955.818	-29770.9	0.000000	0.000000	7.113584	72.7786	NaN	0.000000	0.001606	0.001801	28.0933	36.0981	0.001795	20106.2	-0.741975	165.375	70.4561	1.109992	0.038055	0.037804	72.7786	20106.2	0.035340	0.052542	1385.16	80140.2
148	2.000000	1.112268	7.36649e+06	-46039.1	955.818	-29770.9	0.000000	0.000000	7.115777	76.8844	NaN	0.000000	0.001617	0.001763	28.0933	39.5244	0.001791	22063.3	4.690524	158.939	75.2077	1.111999	0.040080	0.039811	76.8844	22063.3	0.037466	0.057644	1333.79	83958.9
148	2.000000	1.114214	7.36649e+06	-46039.1	955.819	-29770.9	0.000000	0.000000	7.117986	83.2785	NaN	0.000000	0.001593	0.001775	28.0927	39.9727	0.001687	23692.3	3.491530	159.197	79.7975	1.114027	0.042026	0.041838	83.2785	23692.3	0.039390	0.062460	1333.3	86611.8
148	2.000000	1.116269	7.36649e+06	-46039.1	955.819	-29770.9	0.000000	0.000000	7.120375	91.4162	NaN	0.000000	0.001607	0.001760	28.0934	43.1497	0.001833	23535.5	6.150743	157.762	91.1171	1.115980	0.044080	0.043792	91.4162	23535.5	0.041167	0.067080	1362.79	83023.3
148	2.000000	1.118254	7.36649e+06	-46039.1	955.818	-29770.9	0.000000	0.000000	7.122666	98.842	NaN	0.000000	0.001609	0.001797	28.0948	44.1771	0.001900	23251.1	4.478140	160.512	96.5991	1.117840	0.046066	0.045651	98.842	23251.1	0.042878	0.071676	1379	79346.8
148	2.000000	1.120212	7.36649e+06	-46039.1	955.818	-29770.9	0.000000	0.000000	7.125038	108.931	NaN	0.000000	0.001598	0.001800	28.0948	45.8239	0.001754	26121.4	4.517948	158.402	105.578	1.119913	0.048024	0.047725	108.931	26121.4	0.044896	0.077292	1409.34	85842.5
148	2.000000	1.122280	7.36649e+06	-46039.1	955.818	-29770.9	0.000000	0.000000	7.127352	114.909	NaN	0.000000	0.001609	0.001818	28.095	48.4252	0.001832	26436.7	3.428858	158.831	113.311	1.122008	0.050091	0.049819	114.909	26436.7	0.046831	0.082872	1386.6	83903.2
148	2.000000	1.124232	7.36649e+06	-46039.1	955.818	-29770.9	0.000000	0.000000	7.129696	124.431	NaN	0.000000	0.001607	0.001796	28.0959	48.6189	0.001636	29714.7	2.813116	159.071	122.453	1.123945	0.052044	0.051757	124.431	29714.7	0.048903	0.089052	1397.28	90975.1
148	2.000000	1.126259	7.36649e+06	-46039.1	955.818	-29770.9	0.000000	0.000000	7.132051	132.418	NaN	0.000000	0.001599	0.001807	28.0945	51.8546	0.001711	30308.8	4.424056	157.557	131.091	1.125827	0.054071	0.053638	132.418	30308.8	0.050794	0.094883	1395.59	89897.7
148	2.000000	1.128239	7.36649e+06	-46039.1	955.819	-29770.9	0.000000	0.000000	7.134317	139.384	NaN	0.000000	0.001604	0.001757	28.0961	54.5227	0.001864	29252.7	4.624686	157.542	136.231	1.127945	0.056050	0.055756	139.384	29252.7	0.052477	0.100222	1390.76	84422.6
148	2.000000	1.130202	7.36649e+06	-46039.1	955.818	-29770.9	0.000000	0.000000	7.136789	151.742	NaN	0.000000	0.001603	0.001741	28.0937	56.6869	0.001914	29613.5	5.767789	155.981	148.572	1.129858	0.058014	0.057670	151.742	29613.5	0.054171	0.105739	1435.06	83204
148	2.000000	1.132247	7.36649e+06	-46039.1	955.818	-29770.9	0.000000	0.000000	7.139196	160.568	NaN	0.000000	0.001581	0.001778	28.0942	57.552	0.001769	32528	5.578194	155.524	160.767	1.131899	0.060058	0.059710	160.568	32528	0.056356	0.113067	1420.11	88381.7
148	2.000000	1.134242	7.36649e+06	-46039.1	955.819	-29770.9	0.000000	0.000000	7.141538	169.003	NaN	0.000000	0.001601	0.001780	28.0932	58.6588	0.001774	33070.7	5.156800	155.742	169.791	1.133844	0.062054	0.061655	169.003	33070.7	0.058221	0.119506	1414.18	87401.9
148	2.000000	1.136214	7.36649e+06	-46039.1	955.818	-29770.9	0.000000	0.000000	7.143866	177.675	NaN	0.000000	0.001599	0.001773	28.0941	60.3763	0.001745	34607.6	0.251795	160.817	174.624	1.135884	0.064025	0.063696	177.675	34607.6	0.060175	0.126435	1405.27	88922.3
148	2.000000	1.138258	7.36649e+06	-46039.1	955.818	-29770.9	0.000000	0.000000	7.146328	187.831	NaN	0.000000	0.001612	0.001759	28.0934	63.1291	0.001794	35182.8	3.122665	157.909	186.131	1.137977	0.066069	0.065789	187.831	35182.8	0.062065	0.133319	1408.89	88035.7
148	2.000000	1.140180	7.36649e+06	-46039.1	955.818	-29770.9	0.000000	0.000000	7.148685	198.406	NaN	0.000000	0.001607	0.001767	28.0944	66.3677	0.001820	36470.1	8.095795	151.369	195.095	1.139989	0.067992	0.067801	198.406	36470.1	0.063912	0.140208	1415.09	88986.5
148	2.000000	1.142246	7.36649e+06	-46039.1	955.818	-29770.9	0.000000	0.000000	7.151153	208.219	NaN	0.000000	0.001629	0.001771	28.0943	67.9754	0.001713	39681.2	5.737590	153.657	206.909	1.142034	0.070057	0.069845	208.219	39681.2	0.066122	0.148670	1400.54	94025.6
148	2.000000	1.144300	7.36649e+06	-46039.1	955.819	-29770.9	0.000000	0.000000	7.153827	223.286	NaN	0.000000	0.001627	0.001781	28.094	69.1512	0.001775	38950.1	5.393288	155.001	225.514	1.143959	0.072111	0.071770	223.286	38950.1	0.067812	0.155301	1437.77	90301.5
148	2.000000	1.146266	7.36649e+06	-46039.1	955.819	-29770.9	0.000000	0.000000	7.156013	228.628	NaN	0.000000	0.001614	0.001783	28.0942	71.41	0.001873	38123	4.352740	154.946	226.932	1.146000	0.074078	0.073812	228.628	38123	0.069580	0.162384	1407.95	86434.7
148	2.000000	1.148206	7.36649e+06	-46039.1	955.819	-29770.9	0.000000	0.000000	7.158899	251.643	NaN	0.000000	0.001626	0.001743	28.095	72.5997	0.001823	39830.8	3.294290	157.139	248.791	1.147792	0.076018	0.075603	251.643	39830.8	0.071279	0.169332	1486.1	88434.8
148	2.000000	1.150224	7.36649e+06	-46039.1	955.818	-29770.9	0.000000	0.000000	7.161324	261.556	NaN	0.000000	0.001588	0.001759	28.0926	73.8166	0.001745	42305.5	2.595414	155.891	259.301	1.149963	0.078035	0.077775	261.556	42305.5	0.073398	0.178185	1467.89	91566.2
148	2.000000	1.152261	7.36649e+06	-46039.1	955.818	-29770.9	0.000000	0.000000	7.163722	270.321	NaN	0.000000	0.001590	0.001775	28.0917	77.1447	0.001843	41854.1	6.512615	152.788	271.809	1.151909	0.080073	0.079720	270.321	41854.1	0.075229	0.186005	1453.3	88664.3
148	2.000000	1.154229	7.36649e+06	-46039.1	955.819	-29770.9	0.000000	0.000000	7.166538	290.949	NaN	0.000000	0.001604	0.001765	28.0919	77.2159	0.001701	45404.9	7.074822	151.444	289.786	1.153864	0.082041	0.081675	290.949	45404.9	0.077235	0.194758	1493.9	94000.2
148	2.000000	1.156165	7.36649e+06	-46039.1	955.818	-29770.9	0.000000	0.000000	7.168913	301.64	NaN	0.000000	0.001605	0.001784	28.0922	79.7966	0.001791	44543.8	1.717259	156.859	297.538	1.155937	0.083976	0.083749	301.64	44543.8	0.078898	0.202153	1492.13	90514.9
148	2.000000	1.158195	7.36649e+06	-46039.1	955.819	-29770.9	0.000000	0.000000	7.171615	317.977	NaN	0.000000	0.001676	0.001768	28.0925	82.3108	0.001845	44609.5	6.133173	153.154	312.828	1.157820	0.086007	0.085631	317.977	44609.5	0.080661	0.210138	1513.18	88909.4
148	2.000000	1.160157	7.36649e+06	-46039.1	955.818	-29770.9	0.000000	0.000000	7.173909	326.052	NaN	0.000000	0.001646	0.001751	28.0928	82.8527	0.001787	46357.6	3.263041	154.866	321.575	1.159850	0.087969	0.087662	326.052	46357.6	0.082694	0.219522	1485.28	90397.2
148	2.000000	1.162197	7.36649e+06	-46039.1	955.818	-29770.9	0.000000	0.000000	7.176452	338.283	NaN	0.000000	0.001638	0.001757	28.0936	85.5976	0.001915	44692.9	4.544189	154.442	335.664	1.161938	0.090008	0.089749	338.283	44692.9	0.084332	0.227224	1488.77	85661.4
148	2.000000	1.164182	7.36649e+06	-46039.1	955.818	-29770.9	0.000000	0.000000	7.178925	350.152	NaN	0.000000	0.001616	0.001772	28.0934	84.9593	0.001581	53727.7	0.318753	156.73	346.287	1.163966	0.091994	0.091778	350.152	53727.7	0.087106	0.240550	1455.63	100085
148	2.000000	1.166123	7.36649e+06	-46039.1	955.818	-29770.9	0.000000	0.000000	7.181668	369.682	NaN	0.000000	0.001659	0.001753	28.0924	88.8273	0.001709	51974.7	7.242862	150.174	363.91	1.165889	0.093934	0.093700	369.682	51974.7	0.088599	0.247871	1491.43	95378.9
148	2.000000	1.168213	7.36649e+06	-46039.1	955.818	-29770.9	0.000000	0.000000	7.184420	385.762	NaN	0.000000	0.001644	0.001732	28.0927	90.8878	0.001725	52695.2	4.215072	153.981	383.842	1.167758	0.096025	0.095570	385.762	52695.2	0.090534	0.257508	1498.06	94874.5
148	2.000000	1.170215	7.36649e+06	-46039.1	955.817	-29770.9	0.000000	0.000000	7.187059	401.258	NaN	0.000000	0.001629	0.001733	28.092	92.1104	0.001853	49710.8	2.395917	156.011	398.881	1.169839	0.098027	0.097650	401.258	49710.8	0.091973	0.264784	1515.41	88262.9
148	2.000000	1.172132	7.36649e+06	-46039.1	955.818	-29770.9	0.000000	0.000000	7.189459	413.032	NaN	0.000000	0.001681	0.001768	28.0918	95.6452	0.001840	51972.9	4.622386	152.986	408.275	1.171970	0.099943	0.099781	413.032	51972.9	0.093983	0.275110	1501.33	90531
148	2.000000	1.174282	7.36649e+06	-46039.1	955.817	-29770.9	0.000000	0.000000	7.192032	423.307	NaN	0.000000	0.001637	0.001721	28.0916	96.3656	0.001717	56126.9	6.653414	150.773	427.154	1.173822	0.102094	0.101633	423.307	56126.9	0.096437	0.287968	1469.98	95559.2
148	2.000000	1.176150	7.36649e+06	-46039.1	955.817	-29770.9	0.000000	0.000000	7.194613	440.651	NaN	0.000000	0.001647	0.001745	28.0913	98.0766	0.001689	58070.5	1.577118	155.221	435.516	1.175834	0.103961	0.103645	440.651	58070.5	0.098270	0.297749	1479.94	97230.7
148	2.000000	1.178176	7.36649e+06	-46039.1	955.818	-29770.9	0.000000	0.000000	7.197293	456.551	NaN	0.000000	0.001622	0.001743	28.0921	101.231	0.001844	54891.2	4.861515	152.431	450.906	1.177922	0.105988	0.105733	456.551	54891.2	0.099750	0.305754	1493.2	90696.3
148	2.000000	1.180300	7.36649e+06	-46039.1	955.818	-29770.9	0.000000	0.000000	7.199659	462.472	NaN	0.000000	0.001598	0.001747	28.0934	103.321	0.001911	54054	3.537001	153.767	464.235	1.180030	0.108111	0.107842	462.472	54054	0.101694	0.316429	1461.54	87793.6
148	2.000000	1.180638	7.36649e+06	-46039.1	955.818	-29770.9	0.000000	0.000000	7.200222	467.924	NaN	0.000000	0.001593	0.001743	28.1299	102.929	0.001774	58018.5	5.123019	-28.7526	461.656	1.180436	0.108449	0.108247	467.924	58018.5	0.102401	0.320350	1460.67	93654.2