File: remote_trans/data/nanoindenter/0828-1/data/Data_2025-08-06,11h17m57s/2025-07-22_16-23-58_1_1016.txt
2025-07-22, 16:23:58, 1
Index	Phase	Displacement	Time	Pos X	Pos Y	Pos Z	Rot A	Rot B	Piezo Z	Force A	Force B	Gripper	Voltage A	Voltage B	Temperature	Amplitude force	Amplitude pos	Stiffness	Phase shift	Phase excitation	Force A raw	Displacement raw	HMax	HMax raw	Real Force	Real Stiffness	Contact Depth	Area	Hardness	Reduced Mod.
[#]	[#]	[um]	[s]	[um]	[um]	[um]	[m°]	[m°]	[um]	[uN]	[uN]	[V]	[V]	[V]	[°C]	[uN]	[um]	[N/m]	[°]	[°]	[uN]	[um]	[um]	[um]	[uN]	[N/m]	[um]	[um^2]	[MPa]	[MPa]
1016	1.000000	0.001926	7.37499e+06	-50939.1	1055.82	-29753.9	0.000000	0.000000	6.002766	0.025723	NaN	0.000000	0.001573	0.001696	28.084	0.030345	0.000873	34.7572	136.311	-166.808	0.064061	0.000707	-1.125220	-1.126439	0.025723	34.7572	-1.125775	-1.111585E+15	-2.314057E-17	NaN
1016	1.000000	0.012023	7.37499e+06	-50939.1	1055.82	-29753.9	0.000000	0.000000	6.012862	0.006970	NaN	0.000000	0.001615	0.001661	28.0829	0.090657	0.001171	77.4074	-109.142	16.8559	0.061278	0.010551	-1.115122	-1.116594	0.006970	77.4074	-1.115190	-8.015445E+14	-8.695282E-18	NaN
1016	1.000000	0.021902	7.37499e+06	-50939.1	1055.82	-29753.9	0.000000	0.000000	6.022742	0.018740	NaN	0.000000	0.001598	0.001664	28.0828	0.027605	0.001623	17.0105	-112.68	-167.236	0.038470	0.020626	-1.105243	-1.106520	0.018740	17.0105	-1.106069	-6.046950E+14	-3.099072E-17	NaN
1016	1.000000	0.031905	7.37499e+06	-50939.1	1055.82	-29753.9	0.000000	0.000000	6.032744	0.018384	NaN	0.000000	0.001590	0.001637	28.0828	0.036560	0.001939	18.8554	4.241599	11.0191	0.023447	0.030510	-1.095241	-1.096636	0.018384	18.8554	-1.095972	-4.425802E+14	-4.153891E-17	NaN
1016	1.000000	0.041903	7.37499e+06	-50939.1	1055.82	-29753.9	0.000000	0.000000	6.042743	0.032018	NaN	0.000000	0.001572	0.001642	28.0831	0.010126	0.002038	4.969053	-51.6019	-163.235	-0.009439	0.040639	-1.085242	-1.086506	0.032018	4.969053	-1.090075	-3.688222E+14	-8.681185E-17	NaN
1016	1.000000	0.051936	7.37499e+06	-50939.1	1055.82	-29753.9	0.000000	0.000000	6.052774	-0.021960	NaN	0.000000	0.001623	0.001648	28.083	0.124035	0.002008	61.7674	168.677	18.8047	-0.042555	0.050569	-1.075209	-1.076576	-0.021960	61.7674	-1.074942	-2.309837E+14	9.507188E-17	NaN
1016	1.000000	0.061936	7.37499e+06	-50939.1	1055.82	-29753.9	0.000000	0.000000	6.062772	-0.069922	NaN	0.000000	0.001598	0.001700	28.083	0.077662	0.002133	36.4134	71.6807	-166.201	-0.021320	0.060603	-1.065209	-1.066542	-0.069922	36.4134	-1.063769	-1.634801E+14	4.277122E-16	NaN
1016	1.000000	0.071892	7.37499e+06	-50939.1	1055.82	-29753.9	0.000000	0.000000	6.072732	0.033109	NaN	0.000000	0.001609	0.001649	28.083	0.008842	0.002107	4.196598	-158.279	11.7208	0.024569	0.070531	-1.055253	-1.056614	0.033109	4.196598	-1.061170	-1.508499E+14	-2.194836E-16	NaN
1016	1.000000	0.081909	7.37499e+06	-50939.1	1055.82	-29753.9	0.000000	0.000000	6.082748	-0.011463	NaN	0.000000	0.001593	0.001670	28.0831	0.045617	0.001960	23.2764	-172.909	-166.88	-0.065999	0.080621	-1.045236	-1.046524	-0.011463	23.2764	-1.044867	-9.107543E+13	1.258586E-16	NaN
1016	1.000000	0.091924	7.37499e+06	-50939.1	1055.82	-29753.9	0.000000	0.000000	6.092763	-0.011905	NaN	0.000000	0.001617	0.001634	28.0832	0.068471	0.002041	33.5531	143.498	12.0861	0.008182	0.090617	-1.035221	-1.036529	-0.011905	33.5531	-1.034955	-6.700691E+13	1.776676E-16	NaN
1016	1.000000	0.101920	7.37499e+06	-50939.1	1055.82	-29753.9	0.000000	0.000000	6.102759	0.003079	NaN	0.000000	0.001596	0.001648	28.083	0.096766	0.002010	48.1401	-153.654	-166.817	0.003532	0.100659	-1.025226	-1.026487	0.003079	48.1401	-1.025274	-4.964805E+13	-6.201419E-17	NaN
1016	1.000000	0.111944	7.37499e+06	-50939.1	1055.82	-29753.9	0.000000	0.000000	6.112782	-0.017965	NaN	0.000000	0.001595	0.001655	28.0832	0.115117	0.002131	54.0146	-176.714	14.3497	0.018838	0.110593	-1.015201	-1.016552	-0.017965	54.0146	-1.014951	-3.605943E+13	4.982118E-16	NaN
1016	1.000000	0.121941	7.37499e+06	-50939.1	1055.82	-29753.9	0.000000	0.000000	6.122779	-0.026395	NaN	0.000000	0.001580	0.001678	28.0831	0.073774	0.001904	38.7525	140.36	-166.205	-0.022847	0.120580	-1.005204	-1.006565	-0.026395	38.7525	-1.004694	-2.623954E+13	1.005921E-15	NaN
1016	1.000000	0.131961	7.37499e+06	-50939.1	1055.82	-29753.9	0.000000	0.000000	6.132799	-0.013321	NaN	0.000000	0.001604	0.001644	28.0834	0.022959	0.001977	11.6157	110.409	14.6947	-0.009256	0.130601	-0.995184	-0.996544	-0.013321	11.6157	-0.994324	-1.902579E+13	7.001502E-16	NaN
1016	1.000000	0.141912	7.37499e+06	-50939.1	1055.82	-29753.9	0.000000	0.000000	6.142752	0.024591	NaN	0.000000	0.001613	0.001615	28.0834	0.046338	0.001917	24.173	-99.1824	-163.252	-0.037765	0.140654	-0.985233	-0.986491	0.024591	24.173	-0.985996	-1.469541E+13	-1.673360E-15	NaN
1016	1.000000	0.151926	7.37499e+06	-50939.1	1055.82	-29753.9	0.000000	0.000000	6.152761	-0.088955	NaN	0.000000	0.001583	0.001644	28.0844	0.033217	0.001936	17.1619	49.9221	15.0773	-0.156280	0.150611	-0.975219	-0.976534	-0.088955	17.1619	-0.971332	-9.324257E+12	9.540145E-15	NaN
1016	1.000000	0.161925	7.37499e+06	-50939.1	1055.82	-29753.9	0.000000	0.000000	6.162761	-0.059088	NaN	0.000000	0.001610	0.001649	28.0843	0.099472	0.002038	48.7987	160.121	-164.511	-0.022527	0.160654	-0.965220	-0.966491	-0.059088	48.7987	-0.964312	-7.498911E+12	7.879482E-15	NaN
1016	1.000000	0.171940	7.37499e+06	-50939.1	1055.82	-29753.9	0.000000	0.000000	6.172776	-0.071168	NaN	0.000000	0.001587	0.001629	28.0844	0.059345	0.002000	29.6744	-13.9067	13.7671	-0.074103	0.170593	-0.955205	-0.956553	-0.071168	29.6744	-0.953406	-5.345215E+12	1.331426E-14	NaN
1016	1.000000	0.181943	7.37499e+06	-50939.1	1055.82	-29753.9	0.000000	0.000000	6.182781	-0.025361	NaN	0.000000	0.001566	0.001661	28.0846	0.025325	0.001914	13.2289	-98.3663	-163.509	-0.090360	0.180650	-0.945202	-0.946495	-0.025361	13.2289	-0.943764	-3.961999E+12	6.401047E-15	NaN
1016	1.000000	0.191982	7.37499e+06	-50939.1	1055.82	-29753.9	0.000000	0.000000	6.192822	0.031834	NaN	0.000000	0.001556	0.001623	28.0844	0.014207	0.002099	6.767896	-58.0846	13.1985	-0.026216	0.190617	-0.935163	-0.936528	0.031834	6.767896	-0.938691	-3.384372E+12	-9.406095E-15	NaN
1016	1.000000	0.201958	7.37499e+06	-50939.1	1055.82	-29753.9	0.000000	0.000000	6.202796	-0.013784	NaN	0.000000	0.001556	0.001668	28.0842	0.083067	0.001931	43.0244	-54.0692	-164.529	0.014140	0.200648	-0.925187	-0.926497	-0.013784	43.0244	-0.924947	-2.207970E+12	6.242707E-15	NaN
1016	1.000000	0.211990	7.37499e+06	-50939.1	1055.82	-29753.9	0.000000	0.000000	6.212826	-0.051881	NaN	0.000000	0.001582	0.001674	28.0844	0.034634	0.001880	18.4219	-40.8405	14.5072	-0.051627	0.210580	-0.915155	-0.916565	-0.051881	18.4219	-0.913043	-1.524982E+12	3.402084E-14	NaN
1016	1.000000	0.221993	7.37499e+06	-50939.1	1055.82	-29753.9	0.000000	0.000000	6.222833	0.026204	NaN	0.000000	0.001622	0.001674	28.0845	0.042175	0.001956	21.5572	-177.338	-168.859	0.054480	0.220630	-0.905152	-0.906515	0.026204	21.5572	-0.906064	-1.227417E+12	-2.134855E-14	NaN
1016	1.000000	0.232006	7.37499e+06	-50939.1	1055.82	-29753.9	0.000000	0.000000	6.232844	-0.026461	NaN	0.000000	0.001628	0.001613	28.0845	0.049569	0.001999	24.8005	125.178	15.6329	-0.020065	0.230537	-0.895139	-0.896608	-0.026461	24.8005	-0.894339	-8.522320E+11	3.104885E-14	NaN
1016	1.000000	0.241980	7.37499e+06	-50939.1	1055.82	-29753.9	0.000000	0.000000	6.242819	-0.000857	NaN	0.000000	0.001584	0.001642	28.084	0.111609	0.001981	56.3412	-19.373	-165.514	0.011301	0.240702	-0.885165	-0.886443	-0.000857	56.3412	-0.885154	-6.403256E+11	1.338444E-15	NaN
1016	1.000000	0.252010	7.37499e+06	-50939.1	1055.82	-29753.9	0.000000	0.000000	6.252850	0.010022	NaN	0.000000	0.001590	0.001683	28.0841	0.135958	0.001951	69.6723	147.059	12.7941	-0.011707	0.250640	-0.875135	-0.876505	0.010022	69.6723	-0.875243	-4.702899E+11	-2.130970E-14	NaN
1016	1.000000	0.261960	7.37499e+06	-50939.1	1055.82	-29753.9	0.000000	0.000000	6.262800	0.025617	NaN	0.000000	0.001573	0.001670	28.0842	0.026306	0.001913	13.7508	62.5642	-164.899	-0.019968	0.260625	-0.865186	-0.866520	0.025617	13.7508	-0.866583	-3.590929E+11	-7.133671E-14	NaN
1016	1.000000	0.271995	7.37499e+06	-50939.1	1055.82	-29753.9	0.000000	0.000000	6.272833	-0.023794	NaN	0.000000	0.001545	0.001676	28.0843	0.058681	0.002177	26.9508	168.868	14.3947	0.030829	0.270661	-0.855150	-0.856485	-0.023794	26.9508	-0.854488	-2.463257E+11	9.659663E-14	NaN
1016	1.000000	0.281983	7.37499e+06	-50939.1	1055.82	-29753.9	0.000000	0.000000	6.282823	0.010572	NaN	0.000000	0.001549	0.001662	28.0829	0.042748	0.002005	21.3234	-32.0737	-167.05	-0.057041	0.280718	-0.845162	-0.846428	0.010572	21.3234	-0.845534	-1.863158E+11	-5.673992E-14	NaN
1016	1.000000	0.292003	7.37499e+06	-50939.1	1055.82	-29753.9	0.000000	0.000000	6.292845	0.066535	NaN	0.000000	0.001592	0.001662	28.083	0.091202	0.001975	46.189	-112.887	12.6191	0.110602	0.290650	-0.835142	-0.836495	0.066535	46.189	-0.836222	-1.393499E+11	-4.774641E-13	NaN
1016	1.000000	0.302013	7.37499e+06	-50939.1	1055.82	-29753.9	0.000000	0.000000	6.302854	0.051556	NaN	0.000000	0.001583	0.001635	28.083	0.057967	0.002044	28.3595	-30.3846	-167.364	0.075858	0.300679	-0.825132	-0.826466	0.051556	28.3595	-0.826496	-1.028681E+11	-5.011865E-13	NaN
1016	1.000000	0.312044	7.37499e+06	-50939.1	1055.82	-29753.9	0.000000	0.000000	6.312884	0.028029	NaN	0.000000	0.001637	0.001622	28.0831	0.174856	0.002129	82.1297	-98.536	16.5149	0.094351	0.310663	-0.815101	-0.816482	0.028029	82.1297	-0.815357	-7.265055E+10	-3.858071E-13	NaN
1016	1.000000	0.322034	7.37499e+06	-50939.1	1055.82	-29753.9	0.000000	0.000000	6.322871	-0.027413	NaN	0.000000	0.001585	0.001637	28.0831	0.093758	0.001972	47.5395	24.6005	-167.714	0.000410	0.320715	-0.805111	-0.806430	-0.027413	47.5395	-0.804679	-5.204372E+10	5.267334E-13	NaN
1016	1.000000	0.332019	7.37499e+06	-50939.1	1055.82	-29753.9	0.000000	0.000000	6.332857	-0.015653	NaN	0.000000	0.001574	0.001660	28.0833	0.065256	0.002056	31.7415	157.081	15.3181	-0.060533	0.330643	-0.795126	-0.796502	-0.015653	31.7415	-0.794756	-3.816586E+10	4.101329E-13	NaN
1016	1.000000	0.342020	7.37499e+06	-50939.1	1055.82	-29753.9	0.000000	0.000000	6.342859	0.002222	NaN	0.000000	0.001603	0.001675	28.0832	0.093890	0.001906	49.2526	48.9757	-167.479	0.034124	0.340721	-0.785125	-0.786424	0.002222	49.2526	-0.785159	-2.826987E+10	-7.861069E-14	NaN
1016	1.000000	0.352023	7.37499e+06	-50939.1	1055.82	-29753.9	0.000000	0.000000	6.352864	0.038578	NaN	0.000000	0.001592	0.001655	28.0832	0.073787	0.001976	37.3413	-85.2021	10.5997	0.042976	0.350655	-0.775122	-0.776490	0.038578	37.3413	-0.775897	-2.115756E+10	-1.823370E-12	NaN
1016	1.000000	0.362037	7.37499e+06	-50939.1	1055.82	-29753.9	0.000000	0.000000	6.362876	-0.002479	NaN	0.000000	0.001611	0.001680	28.0835	0.081578	0.002036	40.0753	28.3843	-166.04	-0.030939	0.360722	-0.765108	-0.766423	-0.002479	40.0753	-0.765061	-1.507127E+10	1.644639E-13	NaN
1016	1.000000	0.372047	7.37499e+06	-50939.1	1055.82	-29753.9	0.000000	0.000000	6.372888	0.056613	NaN	0.000000	0.001581	0.001663	28.0831	0.051683	0.002028	25.4897	170.268	13.2317	0.027560	0.370717	-0.755099	-0.756428	0.056613	25.4897	-0.756764	-1.162196E+10	-4.871190E-12	NaN
1016	1.000000	0.382045	7.37499e+06	-50939.1	1055.82	-29753.9	0.000000	0.000000	6.382883	-0.015317	NaN	0.000000	0.001582	0.001652	28.0832	0.142562	0.002059	69.223	118.777	-163.684	-0.043586	0.380718	-0.745100	-0.746428	-0.015317	69.223	-0.744934	-8.021506E+9	1.909487E-12	NaN
1016	1.000000	0.392043	7.37499e+06	-50939.1	1055.82	-29753.9	0.000000	0.000000	6.392882	-0.003335	NaN	0.000000	0.001574	0.001652	28.0831	0.058775	0.001950	30.1391	60.2944	13.2605	-0.037162	0.390685	-0.735102	-0.736461	-0.003335	30.1391	-0.735019	-5.877638E+9	5.674615E-13	NaN
1016	1.000000	0.402044	7.37499e+06	-50939.1	1055.82	-29753.9	0.000000	0.000000	6.402882	-0.024926	NaN	0.000000	0.001600	0.001666	28.0833	0.074014	0.002060	35.9217	21.2817	-167.793	-0.079715	0.400783	-0.725101	-0.726362	-0.024926	35.9217	-0.724580	-4.235747E+9	5.884748E-12	NaN
1016	1.000000	0.412081	7.37499e+06	-50939.1	1055.82	-29753.9	0.000000	0.000000	6.412921	0.033722	NaN	0.000000	0.001548	0.001673	28.0832	0.020660	0.001985	10.4096	-42.4187	13.4457	-0.020986	0.410696	-0.715064	-0.716449	0.033722	10.4096	-0.717494	-3.390722E+9	-9.945284E-12	NaN
1016	1.000000	0.422049	7.37499e+06	-50939.1	1055.82	-29753.9	0.000000	0.000000	6.422886	-0.036631	NaN	0.000000	0.001577	0.001673	28.0843	0.114594	0.002102	54.5139	66.676	-165.92	-0.003045	0.420749	-0.705096	-0.706396	-0.036631	54.5139	-0.704592	-2.260669E+9	1.620360E-11	NaN
1016	1.000000	0.432067	7.37499e+06	-50939.1	1055.82	-29753.9	0.000000	0.000000	6.432905	-0.015233	NaN	0.000000	0.001563	0.001633	28.0844	0.042770	0.002004	21.3413	74.2399	14.4576	-0.024743	0.430725	-0.695078	-0.696420	-0.015233	21.3413	-0.694543	-1.648137E+9	9.242783E-12	NaN
1016	1.000000	0.442068	7.37499e+06	-50939.1	1055.82	-29753.9	0.000000	0.000000	6.442908	0.023388	NaN	0.000000	0.001571	0.001667	28.0846	0.093466	0.001815	51.4911	55.7233	-170.218	-0.020426	0.440797	-0.685077	-0.686349	0.023388	51.4911	-0.685417	-1.236748E+9	-1.891097E-11	NaN
1016	1.000000	0.452100	7.37499e+06	-50939.1	1055.82	-29753.9	0.000000	0.000000	6.452936	-0.055922	NaN	0.000000	0.001577	0.001700	28.0846	0.039332	0.001923	20.4518	-11.7632	14.0101	-0.021583	0.450727	-0.675046	-0.676418	-0.055922	20.4518	-0.672995	-8.363239E+8	6.686615E-11	NaN
1016	1.000000	0.462101	7.37499e+06	-50939.1	1055.82	-29753.9	0.000000	0.000000	6.462946	0.138361	NaN	0.000000	0.001583	0.001675	28.0844	0.100950	0.001955	51.6363	-62.0923	-160.908	0.063063	0.460735	-0.665044	-0.666411	0.138361	51.6363	-0.667054	-6.935234E+8	-1.995038E-10	NaN
1016	1.000000	0.472082	7.37499e+06	-50939.1	1055.82	-29753.9	0.000000	0.000000	6.472919	-0.033560	NaN	0.000000	0.001610	0.001674	28.085	0.090667	0.002022	44.8335	-24.0344	11.7727	-0.073299	0.470714	-0.655063	-0.656432	-0.033560	44.8335	-0.654502	-4.668101E+8	7.189238E-11	NaN
1016	1.000000	0.482109	7.37499e+06	-50939.1	1055.82	-29753.9	0.000000	0.000000	6.482946	-0.060043	NaN	0.000000	0.001568	0.001661	28.0845	0.021114	0.002013	10.4905	131.794	-166.424	-0.062700	0.480837	-0.645036	-0.646308	-0.060043	10.4905	-0.640743	-3.023335E+8	1.985972E-10	NaN
1016	1.000000	0.492118	7.37499e+06	-50939.1	1055.82	-29753.9	0.000000	0.000000	6.492955	-0.052774	NaN	0.000000	0.001535	0.001623	28.0842	0.127777	0.001955	65.3705	-6.851482	14.2648	-0.055813	0.490737	-0.635027	-0.636408	-0.052774	65.3705	-0.634422	-2.475900E+8	2.131511E-10	NaN
1016	1.000000	0.502099	7.37499e+06	-50939.1	1055.82	-29753.9	0.000000	0.000000	6.502939	0.026792	NaN	0.000000	0.001531	0.001641	28.0844	0.020465	0.002043	10.0174	-72.7293	-166.511	0.008808	0.500807	-0.625046	-0.626338	0.026792	10.0174	-0.627052	-1.961247E+8	-1.366089E-10	NaN
1016	1.000000	0.512095	7.37499e+06	-50939.1	1055.82	-29753.9	0.000000	0.000000	6.512932	-0.037190	NaN	0.000000	0.001561	0.001661	28.0846	0.060396	0.001881	32.1136	-61.6416	15.415	0.010858	0.510716	-0.615051	-0.616430	-0.037190	32.1136	-0.614182	-1.305093E+8	2.849641E-10	NaN
1016	1.000000	0.522143	7.37499e+06	-50939.1	1055.82	-29753.9	0.000000	0.000000	6.522983	0.020779	NaN	0.000000	0.001556	0.001668	28.0843	0.029003	0.002043	14.197	-145.198	-163.959	0.071212	0.520803	-0.605002	-0.606343	0.020779	14.197	-0.606099	-1.010271E+8	-2.056816E-10	NaN
1016	1.000000	0.532132	7.37499e+06	-50939.1	1055.82	-29753.9	0.000000	0.000000	6.532968	-0.079772	NaN	0.000000	0.001547	0.001642	28.0844	0.076968	0.001971	39.0452	-165.83	16.8993	0.009406	0.530758	-0.595013	-0.596387	-0.079772	39.0452	-0.593481	-6.770839E+7	1.178174E-9	NaN
1016	1.000000	0.542111	7.37499e+06	-50939.1	1055.82	-29753.9	0.000000	0.000000	6.542953	0.068953	NaN	0.000000	0.001537	0.001670	28.0844	0.016623	0.002029	8.192062	165.599	-165.002	0.031781	0.540785	-0.585034	-0.586361	0.068953	8.192062	-0.591347	-6.327490E+7	-1.089742E-9	NaN
1016	1.000000	0.552077	7.37499e+06	-50939.1	1055.82	-29753.9	0.000000	0.000000	6.552913	-0.058160	NaN	0.000000	0.001544	0.001667	28.0842	0.019520	0.001872	10.4258	-142.032	16.9447	-0.023374	0.550750	-0.575068	-0.576395	-0.058160	10.4258	-0.570885	-3.302590E+7	1.761029E-9	NaN
1016	1.000000	0.562121	7.37499e+06	-50939.1	1055.82	-29753.9	0.000000	0.000000	6.562959	0.000928	NaN	0.000000	0.001591	0.001693	28.0829	0.049138	0.002113	23.2578	56.8392	-164.91	-0.053557	0.560826	-0.565025	-0.566319	0.000928	23.2578	-0.565055	-2.743339E+7	-3.384229E-11	NaN
1016	1.000000	0.572135	7.37499e+06	-50939.1	1055.82	-29753.9	0.000000	0.000000	6.572975	0.043400	NaN	0.000000	0.001576	0.001644	28.083	0.087234	0.001984	43.9659	-52.7609	12.0953	0.069159	0.570792	-0.555011	-0.556353	0.043400	43.9659	-0.555751	-2.039771E+7	-2.127705E-9	NaN
1016	1.000000	0.582107	7.37499e+06	-50939.1	1055.82	-29753.9	0.000000	0.000000	6.582947	0.037022	NaN	0.000000	0.001543	0.001637	28.0831	0.026917	0.001951	13.7964	151.735	-166.657	0.088493	0.580839	-0.545039	-0.546306	0.037022	13.7964	-0.547051	-1.545627E+7	-2.395251E-9	NaN
1016	1.000000	0.592123	7.37499e+06	-50939.1	1055.82	-29753.9	0.000000	0.000000	6.592959	-0.077743	NaN	0.000000	0.001508	0.001636	28.083	0.027903	0.001900	14.6846	128.507	16.6614	-0.051604	0.590802	-0.535022	-0.536343	-0.077743	14.6846	-0.531051	-9.27201e+06	8.384729E-9	NaN
1016	1.000000	0.602141	7.37499e+06	-50939.1	1055.82	-29753.9	0.000000	0.000000	6.602979	-0.012132	NaN	0.000000	0.001540	0.001626	28.0826	0.028863	0.002172	13.2891	68.9705	-168.786	0.039075	0.600844	-0.525005	-0.526301	-0.012132	13.2891	-0.524320	-7.47581e+06	1.622850E-9	NaN
1016	1.000000	0.612155	7.37499e+06	-50939.1	1055.82	-29753.9	0.000000	0.000000	6.612995	0.037627	NaN	0.000000	0.001546	0.001665	28.0828	0.047412	0.001932	24.5412	-174.641	12.64	0.066187	0.610828	-0.514990	-0.516318	0.037627	24.5412	-0.516140	-5.7531e+06	-6.540373E-9	NaN
1016	1.000000	0.622152	7.37499e+06	-50939.1	1055.82	-29753.9	0.000000	0.000000	6.622993	0.049819	NaN	0.000000	0.001575	0.001646	28.0831	0.066587	0.002034	32.7362	96.085	-164.621	0.083194	0.620842	-0.504993	-0.506303	0.049819	32.7362	-0.506135	-4.1741e+06	-1.193518E-8	NaN
1016	1.000000	0.632190	7.37499e+06	-50939.1	1055.82	-29753.9	0.000000	0.000000	6.633033	0.087411	NaN	0.000000	0.001588	0.001676	28.083	0.062968	0.001967	32.0204	-142.328	16.0323	0.152347	0.630771	-0.494955	-0.496374	0.087411	32.0204	-0.497002	-3.11305e+06	-2.807888E-8	NaN
1016	1.000000	0.642166	7.37499e+06	-50939.1	1055.82	-29753.9	0.000000	0.000000	6.643003	-0.038185	NaN	0.000000	0.001559	0.001654	28.0827	0.086468	0.002131	40.568	110.769	-167.307	-0.115314	0.640882	-0.484979	-0.486263	-0.038185	40.568	-0.484273	-2.06693e+06	1.847446E-8	NaN
1016	1.000000	0.652133	7.37499e+06	-50939.1	1055.82	-29753.9	0.000000	0.000000	6.652969	-0.073996	NaN	0.000000	0.001599	0.001675	28.0831	0.064375	0.002003	32.1317	43.6381	14.1517	-0.143731	0.650771	-0.475012	-0.476375	-0.073996	32.1317	-0.473285	-1.45031e+06	5.102083E-8	NaN
1016	1.000000	0.662157	7.37499e+06	-50939.1	1055.82	-29753.9	0.000000	0.000000	6.662995	-0.024433	NaN	0.000000	0.001565	0.001628	28.0831	0.042266	0.001922	21.9889	161.115	-167.426	-0.036920	0.660810	-0.464988	-0.466335	-0.024433	21.9889	-0.464155	-1.0799e+06	2.262519E-8	NaN
1016	1.000000	0.672162	7.37499e+06	-50939.1	1055.82	-29753.9	0.000000	0.000000	6.673003	0.043005	NaN	0.000000	0.001556	0.001646	28.083	0.155788	0.001891	82.378	167.76	11.8831	-0.011293	0.670779	-0.454983	-0.456367	0.043005	82.378	-0.455375	-812804	-5.290912E-8	NaN
1016	1.000000	0.682171	7.37499e+06	-50939.1	1055.82	-29753.9	0.000000	0.000000	6.683012	0.033753	NaN	0.000000	0.001556	0.001689	28.083	0.095676	0.002031	47.1125	-109.005	-165.705	-0.039276	0.680835	-0.444974	-0.446310	0.033753	47.1125	-0.445511	-590332	-5.717585E-8	NaN
1016	1.000000	0.692208	7.37499e+06	-50939.1	1055.82	-29753.9	0.000000	0.000000	6.693049	0.057053	NaN	0.000000	0.001584	0.001685	28.0845	0.063218	0.001927	32.803	-101	13.9533	0.091811	0.690846	-0.434937	-0.436300	0.057053	32.803	-0.436242	-436815	-1.306108E-7	NaN
1016	1.000000	0.702191	7.37499e+06	-50939.1	1055.82	-29753.9	0.000000	0.000000	6.703029	-0.006168	NaN	0.000000	0.001539	0.001647	28.0842	0.154570	0.001853	83.4352	-131.379	-168.516	-0.036388	0.700843	-0.424955	-0.426303	-0.006168	83.4352	-0.424899	-301893	2.043142E-8	NaN
1016	1.000000	0.712161	7.37499e+06	-50939.1	1055.82	-29753.9	0.000000	0.000000	6.712999	-0.031757	NaN	0.000000	0.001555	0.001684	28.0842	0.021607	0.002096	10.3105	101.196	16.497	-0.050857	0.710849	-0.414984	-0.416296	-0.031757	10.3105	-0.412674	-202493	1.568326E-7	NaN
1016	1.000000	0.722205	7.37499e+06	-50939.1	1055.82	-29753.9	0.000000	0.000000	6.723043	-0.025327	NaN	0.000000	0.001548	0.001653	28.0842	0.058698	0.001905	30.8189	-44.6313	-165.211	0.013054	0.720894	-0.404940	-0.406251	-0.025327	30.8189	-0.404324	-154033	1.644225E-7	NaN
1016	1.000000	0.732243	7.37499e+06	-50939.1	1055.82	-29753.9	0.000000	0.000000	6.733079	-0.050964	NaN	0.000000	0.001534	0.001691	28.0845	0.085323	0.001989	42.899	-124.464	16.9602	-0.056014	0.730801	-0.394903	-0.396345	-0.050964	42.899	-0.394012	-109778	4.642449E-7	NaN
1016	1.000000	0.742200	7.37499e+06	-50939.1	1055.82	-29753.9	0.000000	0.000000	6.743042	0.061032	NaN	0.000000	0.001557	0.001662	28.0838	0.031480	0.001948	16.1633	130.344	-165.734	0.020546	0.740854	-0.384945	-0.386291	0.061032	16.1633	-0.387777	-89403.4	-6.826605E-7	NaN
1016	1.000000	0.752190	7.37499e+06	-50939.1	1055.82	-29753.9	0.000000	0.000000	6.753027	-0.047543	NaN	0.000000	0.001564	0.001657	28.0844	0.065188	0.001969	33.1079	129.946	15.6801	0.014456	0.750836	-0.374955	-0.376309	-0.047543	33.1079	-0.373878	-56486.2	8.416655E-7	NaN
1016	1.000000	0.762220	7.37499e+06	-50939.1	1055.82	-29753.9	0.000000	0.000000	6.763061	0.044908	NaN	0.000000	0.001549	0.001676	28.0842	0.033713	0.001949	17.2955	-8.354538	-166.684	0.004670	0.760912	-0.364925	-0.366233	0.044908	17.2955	-0.366872	-44777	-1.002920E-6	NaN
1016	1.000000	0.772198	7.37499e+06	-50939.1	1055.82	-29753.9	0.000000	0.000000	6.773037	0.014794	NaN	0.000000	0.001549	0.001651	28.0846	0.047208	0.001937	24.3739	-74.3337	14.0097	0.018645	0.770875	-0.354947	-0.356270	0.014794	24.3739	-0.355403	-30572.2	-4.839024E-7	NaN
1016	1.000000	0.782206	7.37499e+06	-50939.1	1055.82	-29753.9	0.000000	0.000000	6.783046	0.035251	NaN	0.000000	0.001571	0.001656	28.0842	0.062333	0.001966	31.7122	24.1674	-168.197	-0.047937	0.780954	-0.344939	-0.346191	0.035251	31.7122	-0.345773	-22161.5	-1.590657E-6	NaN
1016	1.000000	0.792196	7.37499e+06	-50939.1	1055.82	-29753.9	0.000000	0.000000	6.793034	-0.025072	NaN	0.000000	0.001562	0.001688	28.0846	0.094733	0.002127	44.5411	25.6973	13.4173	-0.098029	0.790860	-0.334949	-0.336285	-0.025072	44.5411	-0.334527	-15194.2	1.650118E-6	NaN
1016	1.000000	0.802229	7.37499e+06	-50939.1	1055.82	-29753.9	0.000000	0.000000	6.803069	0.039479	NaN	0.000000	0.001565	0.001711	28.0844	0.155036	0.001895	81.8098	-25.0525	-166.353	0.074574	0.800915	-0.324916	-0.326230	0.039479	81.8098	-0.325278	-11123	-3.549286E-6	NaN
1016	1.000000	0.812230	7.37499e+06	-50939.1	1055.82	-29753.9	0.000000	0.000000	6.813068	-0.000946	NaN	0.000000	0.001603	0.001679	28.0844	0.145171	0.002120	68.4725	111.768	17.7888	-0.016620	0.810916	-0.314916	-0.316229	-0.000946	68.4725	-0.314905	-7826.18	1.208483E-7	NaN
1016	1.000000	0.822235	7.37499e+06	-50939.1	1055.82	-29753.9	0.000000	0.000000	6.823078	0.092419	NaN	0.000000	0.001519	0.001688	28.0841	0.077396	0.001979	39.1126	145.317	-166.001	0.039543	0.820916	-0.304910	-0.306229	0.092419	39.1126	-0.306682	-5914.41	-1.562603E-5	NaN
1016	1.000000	0.832242	7.37499e+06	-50939.1	1055.82	-29753.9	0.000000	0.000000	6.833078	-0.065744	NaN	0.000000	0.001532	0.001685	28.0829	0.015003	0.002033	7.380367	-159.499	15.8025	-0.094049	0.830854	-0.294904	-0.296291	-0.065744	7.380367	-0.288223	-3138.04	2.095054E-5	NaN
1016	1.000000	0.842254	7.37499e+06	-50939.1	1055.82	-29753.9	0.000000	0.000000	6.843088	-0.119642	NaN	0.000000	0.001492	0.001635	28.0832	0.016561	0.001901	8.710324	-104.559	-165.447	-0.081139	0.840933	-0.284891	-0.286212	-0.119642	8.710324	-0.274589	-1955.16	6.119288E-5	NaN
1016	1.000000	0.852231	7.37499e+06	-50939.1	1055.82	-29753.9	0.000000	0.000000	6.853071	0.021654	NaN	0.000000	0.001553	0.001687	28.083	0.036412	0.001846	19.7265	152.247	14.0469	0.014581	0.850883	-0.274914	-0.276262	0.021654	19.7265	-0.275737	-2034.98	-1.064107E-5	NaN
1016	1.000000	0.862239	7.37499e+06	-50939.1	1055.82	-29753.9	0.000000	0.000000	6.863078	0.003751	NaN	0.000000	0.001571	0.001684	28.0829	0.038872	0.001926	20.184	33.4488	-165.341	0.005490	0.860951	-0.264906	-0.266194	0.003751	20.184	-0.265045	-1399.85	-2.679668E-6	NaN
1016	1.000000	0.872258	7.37499e+06	-50939.1	1055.82	-29753.9	0.000000	0.000000	6.873099	0.053020	NaN	0.000000	0.001581	0.001685	28.0832	0.042981	0.001998	21.5093	103.7	14.5659	0.037006	0.870883	-0.254887	-0.256262	0.053020	21.5093	-0.256736	-1044.28	-5.077156E-5	NaN
1016	1.000000	0.882274	7.37499e+06	-50939.1	1055.82	-29753.9	0.000000	0.000000	6.883114	0.012005	NaN	0.000000	0.001524	0.001642	28.0828	0.057038	0.002030	28.0949	-7.076201	-163.062	0.010075	0.880961	-0.244871	-0.246184	0.012005	28.0949	-0.245191	-692.511	-1.733570E-5	NaN
1016	1.000000	0.892251	7.37499e+06	-50939.1	1055.82	-29753.9	0.000000	0.000000	6.893088	-0.037421	NaN	0.000000	0.001589	0.001648	28.083	0.065847	0.001925	34.2061	-17.393	13.6804	0.044795	0.890938	-0.234894	-0.236208	-0.037421	34.2061	-0.234074	-464.191	8.061483E-5	NaN
1016	1.000000	0.902291	7.37499e+06	-50939.1	1055.82	-29753.9	0.000000	0.000000	6.903131	0.020462	NaN	0.000000	0.001549	0.001645	28.0827	0.126347	0.001998	63.2312	-47.839	-166.428	-0.052521	0.900930	-0.224854	-0.226215	0.020462	63.2312	-0.225097	-334.869	-6.110370E-5	NaN
1016	1.000000	0.912280	7.37499e+06	-50939.1	1055.82	-29753.9	0.000000	0.000000	6.913119	0.012445	NaN	0.000000	0.001559	0.001630	28.0831	0.073656	0.001981	37.1894	122.7	13.9411	0.039821	0.910954	-0.214865	-0.216191	0.012445	37.1894	-0.215116	-231.943	-5.365432E-5	NaN
1016	1.000000	0.922274	7.37499e+06	-50939.1	1055.82	-29753.9	0.000000	0.000000	6.923113	0.000578	NaN	0.000000	0.001537	0.001688	28.0828	0.091982	0.002061	44.6198	25.0517	-166.282	-0.098771	0.920991	-0.204871	-0.206154	0.000578	44.6198	-0.204881	-158.35	-3.652949E-6	NaN
1016	1.000000	0.932265	7.37499e+06	-50939.1	1055.82	-29753.9	0.000000	0.000000	6.933103	-0.033862	NaN	0.000000	0.001558	0.001697	28.0829	0.045996	0.001868	24.6248	137.344	13.3161	-0.023746	0.930889	-0.194880	-0.196256	-0.033862	24.6248	-0.193848	-104.258	0.000325	NaN
1016	1.000000	0.942296	7.37499e+06	-50939.1	1055.82	-29753.9	0.000000	0.000000	6.943134	-0.029363	NaN	0.000000	0.001572	0.001668	28.0829	0.101789	0.001920	53.022	-160.669	-169.013	-0.082436	0.940947	-0.184849	-0.186198	-0.029363	53.022	-0.184434	-72.5415	0.000405	NaN
1016	1.000000	0.952275	7.37499e+06	-50939.1	1055.82	-29753.9	0.000000	0.000000	6.953115	0.021886	NaN	0.000000	0.001583	0.001670	28.0832	0.051164	0.001976	25.8896	-17.3517	13.9654	-0.036893	0.950927	-0.174870	-0.176218	0.021886	25.8896	-0.175504	-51.1255	-0.000428	NaN
1016	1.000000	0.962296	7.37499e+06	-50939.1	1055.82	-29753.9	0.000000	0.000000	6.963136	0.030139	NaN	0.000000	0.001575	0.001674	28.0835	0.040754	0.002021	20.1645	-115.492	-167.252	0.028596	0.960943	-0.164849	-0.166202	0.030139	20.1645	-0.165970	-34.9403	-0.000863	NaN
1016	1.000000	0.972294	7.37499e+06	-50939.1	1055.82	-29753.9	0.000000	0.000000	6.973134	0.008700	NaN	0.000000	0.001558	0.001682	28.084	0.024757	0.001959	12.6378	26.5997	12.039	0.008158	0.970933	-0.154851	-0.156212	0.008700	12.6378	-0.155367	-22.656	-0.000384	NaN
1016	1.000000	0.982306	7.37499e+06	-50939.1	1055.82	-29753.9	0.000000	0.000000	6.983148	0.067883	NaN	0.000000	0.001569	0.001670	28.0841	0.052538	0.001991	26.387	39.8176	-166.373	-0.042355	0.980993	-0.144839	-0.146153	0.067883	26.387	-0.146768	-15.8051	-0.004295	NaN
1016	1.000000	0.992307	7.37499e+06	-50939.1	1055.82	-29753.9	0.000000	0.000000	6.993144	-0.023527	NaN	0.000000	0.001552	0.001691	28.0841	0.091888	0.001904	48.2626	105.698	14.0277	-0.045197	0.990933	-0.134839	-0.136212	-0.023527	48.2626	-0.134473	-9.294357	0.002531	NaN
1016	1.000000	1.002293	7.37499e+06	-50939.1	1055.82	-29753.9	0.000000	0.000000	7.003132	0.005103	NaN	0.000000	0.001557	0.001662	28.0842	0.048956	0.002026	24.1656	-25.9146	-162.63	0.022925	1.001004	-0.124852	-0.126141	0.005103	24.1656	-0.125010	-6.084091	-0.000839	NaN
1016	1.000000	1.012317	7.37499e+06	-50939.1	1055.82	-29753.9	0.000000	0.000000	7.013156	-0.005900	NaN	0.000000	0.001552	0.001670	28.0841	0.039005	0.002043	19.0926	56.0322	15.8694	-0.035119	1.010985	-0.114828	-0.116160	-0.005900	19.0926	-0.114596	-3.747798	0.001574	NaN
1016	1.000000	1.022308	7.37499e+06	-50939.1	1055.82	-29753.9	0.000000	0.000000	7.023145	-0.028539	NaN	0.000000	0.001525	0.001664	28.0847	0.030985	0.001861	16.6519	175.341	-167.385	-0.042105	1.020976	-0.104837	-0.106169	-0.028539	16.6519	-0.103552	-2.186656	0.013051	NaN
1016	1.000000	1.032353	7.37499e+06	-50939.1	1055.82	-29753.9	0.000000	0.000000	7.033190	-0.042777	NaN	0.000000	0.001578	0.001664	28.0841	0.036964	0.002063	17.9163	-89.1201	15.0702	-0.039435	1.030916	-0.094793	-0.096229	-0.042777	17.9163	-0.093002	-1.269472	0.033696	NaN
1016	1.000000	1.042310	7.37499e+06	-50939.1	1055.82	-29753.9	0.000000	0.000000	7.043148	-0.008931	NaN	0.000000	0.001584	0.001701	28.0842	0.053659	0.002058	26.0759	92.066	-167.12	0.012404	1.041033	-0.084835	-0.086112	-0.008931	26.0759	-0.084578	-0.802531	0.011128	NaN
1016	1.000000	1.052283	7.37499e+06	-50939.1	1055.82	-29753.9	0.000000	0.000000	7.053120	-0.025536	NaN	0.000000	0.001545	0.001691	28.084	0.061707	0.001970	31.3195	-152.062	15.5611	-0.056455	1.050919	-0.074863	-0.076226	-0.025536	31.3195	-0.074251	-0.441669	0.057818	NaN
1016	1.000000	1.062328	7.37499e+06	-50939.1	1055.82	-29753.9	0.000000	0.000000	7.063166	-0.014481	NaN	0.000000	0.001519	0.001692	28.0842	0.031757	0.001908	16.6442	-66.8935	-163.476	0.040752	1.061041	-0.064818	-0.066104	-0.014481	16.6442	-0.064165	-0.236238	0.061297	NaN
1016	1.000000	1.072351	7.37499e+06	-50939.1	1055.82	-29753.9	0.000000	0.000000	7.073190	-0.013249	NaN	0.000000	0.001541	0.001663	28.0841	0.041492	0.001963	21.138	159.893	13.5877	-0.020013	1.070941	-0.054794	-0.056204	-0.013249	21.138	-0.054324	-0.122975	0.107736	NaN
1016	1.000000	1.082322	7.37499e+06	-50939.1	1055.82	-29753.9	0.000000	0.000000	7.083159	-0.036590	NaN	0.000000	0.001573	0.001653	28.0842	0.103495	0.001898	54.5241	-123.761	-169.359	-0.075165	1.081041	-0.044823	-0.046105	-0.036590	54.5241	-0.044320	-0.061263	0.597265	NaN
1016	1.000000	1.092305	7.37499e+06	-50939.1	1055.82	-29753.9	0.000000	0.000000	7.093145	0.014488	NaN	0.000000	0.001556	0.001658	28.0844	0.044852	0.001943	23.0808	-116.548	17.7712	0.058372	1.090965	-0.034840	-0.036180	0.014488	23.0808	-0.035310	-0.032707	-0.442961	NaN
1016	1.000000	1.102367	7.37499e+06	-50939.1	1055.82	-29753.9	0.000000	0.000000	7.103208	0.038411	NaN	0.000000	0.001527	0.001736	28.0829	0.047319	0.002115	22.3738	48.6234	-165.136	0.032645	1.101066	-0.024778	-0.026079	0.038411	22.3738	-0.026066	-0.017994	-2.134623	NaN
1016	1.000000	1.112374	7.37499e+06	-50939.1	1055.82	-29753.9	0.000000	0.000000	7.113211	-0.045984	NaN	0.000000	0.001561	0.001765	28.083	0.051816	0.002040	25.403	68.462	12.9397	0.005061	1.110926	-0.014771	-0.016219	-0.045984	25.403	-0.013413	-0.008341	5.512904	NaN
1016	1.000000	1.122336	7.37499e+06	-50939.1	1055.82	-29753.9	0.000000	0.000000	7.123175	0.012448	NaN	0.000000	0.001612	0.001736	28.083	0.046651	0.002011	23.2001	151.596	-170.462	-0.020120	1.121041	-0.004809	-0.006105	0.012448	23.2001	-0.005211	-0.003549	-3.507294	NaN
1016	1.000000	1.132306	7.37499e+06	-50939.1	1055.82	-29753.9	0.000000	0.000000	7.133444	7.289470	NaN	0.000000	0.001605	0.001724	28.083	7.263195	0.001651	4399.08	10.4758	8.398842	5.436379	1.131013	0.005161	0.003868	7.289470	4399.08	0.003918	0.003167	2301.59	71416.9
1016	2.000000	1.135966	7.37499e+06	-50939.1	1055.82	-29753.9	0.000000	0.000000	7.137257	10.9999	NaN	0.000000	0.001560	0.001753	28.0833	10.707	0.001663	6439.97	10.1759	-174.175	11.0708	1.135544	0.008821	0.008399	10.9999	6439.97	0.007540	0.006574	1673.36	72570
1016	2.000000	1.138404	7.37499e+06	-50939.1	1055.82	-29753.9	0.000000	0.000000	7.139845	14.6553	NaN	0.000000	0.001613	0.001739	28.0833	13.5561	0.001767	7671.85	7.913381	5.018527	13.5155	1.138105	0.011258	0.010960	14.6553	7671.85	0.009826	0.008988	1630.45	73931.6
1016	2.000000	1.140874	7.37499e+06	-50939.1	1055.82	-29753.9	0.000000	0.000000	7.142466	18.308	NaN	0.000000	0.001588	0.001738	28.0833	16.2257	0.001748	9281.72	7.628065	-176.901	17.8096	1.140612	0.013729	0.013467	18.308	9281.72	0.012250	0.011791	1552.77	78097.2
1016	2.000000	1.143390	7.37499e+06	-50939.1	1055.82	-29753.9	0.000000	0.000000	7.145220	24.1127	NaN	0.000000	0.001609	0.001748	28.0834	18.6998	0.001789	10452.2	5.921368	3.977672	22.9346	1.143028	0.016244	0.015883	24.1127	10452.2	0.014514	0.014643	1646.71	78916.6
1016	2.000000	1.145800	7.37499e+06	-50939.1	1055.82	-29753.9	0.000000	0.000000	7.147868	29.8903	NaN	0.000000	0.001608	0.001742	28.0834	21.5718	0.001703	12663.4	6.105663	-179.53	27.7431	1.145586	0.018655	0.018441	29.8903	12663.4	0.016885	0.017882	1671.57	86520.6
1016	2.000000	1.148368	7.37499e+06	-50939.1	1055.82	-29753.9	0.000000	0.000000	7.150644	34.9435	NaN	0.000000	0.001604	0.001777	28.0833	24.023	0.001775	13533.3	8.185269	-0.701781	33.9911	1.147959	0.021223	0.020813	34.9435	13533.3	0.019287	0.021434	1630.32	84455.8
1016	2.000000	1.150911	7.37499e+06	-50939.1	1055.82	-29753.9	0.000000	0.000000	7.153300	37.7102	NaN	0.000000	0.001573	0.001781	28.0836	27.18	0.001778	15289.9	4.825805	-179.805	38.1117	1.150553	0.023765	0.023408	37.7102	15289.9	0.021916	0.025642	1470.62	87236.9
1016	2.000000	1.153394	7.37499e+06	-50939.1	1055.82	-29753.9	0.000000	0.000000	7.156231	48.6054	NaN	0.000000	0.001608	0.001774	28.0836	28.6897	0.001811	15838.6	3.971609	2.639586	47.4467	1.152962	0.026249	0.025817	48.6054	15838.6	0.023947	0.029128	1668.68	84788.2
1016	2.000000	1.155846	7.37499e+06	-50939.1	1055.82	-29753.9	0.000000	0.000000	7.158896	53.7747	NaN	0.000000	0.001619	0.001767	28.0835	31.0999	0.001810	17184.7	6.863220	179.534	53.3328	1.155415	0.028701	0.028270	53.7747	17184.7	0.026354	0.033524	1604.05	85750.2
1016	2.000000	1.158307	7.37499e+06	-50939.1	1055.82	-29753.9	0.000000	0.000000	7.161562	58.7612	NaN	0.000000	0.001634	0.001728	28.0834	34.5298	0.001809	19087	4.084029	-0.373554	56.0927	1.158036	0.031162	0.030891	58.7612	19087	0.028853	0.038399	1530.26	88991.4
1016	2.000000	1.160781	7.37499e+06	-50939.1	1055.82	-29753.9	0.000000	0.000000	7.164267	64.3706	NaN	0.000000	0.001634	0.001739	28.0848	36.7558	0.001796	20461.4	3.804232	179.214	61.5372	1.160589	0.033635	0.033444	64.3706	20461.4	0.031276	0.043430	1482.17	89704.3
1016	2.000000	1.163357	7.37499e+06	-50939.1	1055.82	-29753.9	0.000000	0.000000	7.167207	73.2306	NaN	0.000000	0.001629	0.001753	28.0845	38.5891	0.001818	21222.7	6.525798	-2.816688	73.4985	1.162848	0.036212	0.035703	73.2306	21222.7	0.033624	0.048591	1507.09	87962.4
1016	2.000000	1.165777	7.37499e+06	-50939.1	1055.82	-29753.9	0.000000	0.000000	7.170076	84.1424	NaN	0.000000	0.001642	0.001708	28.0845	40.2859	0.001802	22359.5	2.350034	-179.865	81.1584	1.165553	0.038632	0.038408	84.1424	22359.5	0.035809	0.053647	1568.45	88198.8
1016	2.000000	1.168289	7.37499e+06	-50939.1	1055.82	-29753.9	0.000000	0.000000	7.172806	89.4312	NaN	0.000000	0.001633	0.001685	28.0845	41.9501	0.001764	23783	3.151860	-1.223779	86.8744	1.167937	0.041144	0.040792	89.4312	23783	0.038324	0.059768	1496.31	88880.5
1016	2.000000	1.170820	7.37499e+06	-50939.1	1055.82	-29753.9	0.000000	0.000000	7.175832	101.48	NaN	0.000000	0.001552	0.001754	28.0848	45.6153	0.001819	25070.6	2.028900	178.997	99.2004	1.170511	0.043674	0.043366	101.48	25070.6	0.040639	0.065689	1544.84	89369.7
1016	2.000000	1.173357	7.37499e+06	-50939.1	1055.82	-29753.9	0.000000	0.000000	7.178641	108.091	NaN	0.000000	0.001568	0.001728	28.0846	47.9643	0.001857	25826	5.301050	-3.659700	107.582	1.173004	0.046212	0.045859	108.091	25826	0.043073	0.072211	1496.89	87807.3
1016	2.000000	1.175820	7.37499e+06	-50939.1	1055.82	-29753.9	0.000000	0.000000	7.181430	116.037	NaN	0.000000	0.001532	0.001740	28.0844	49.1725	0.001824	26951.6	1.242097	179.409	115.083	1.175445	0.048674	0.048299	116.037	26951.6	0.045445	0.078857	1471.49	87687.6
1016	2.000000	1.178343	7.37499e+06	-50939.1	1055.82	-29753.9	0.000000	0.000000	7.184520	129.804	NaN	0.000000	0.001548	0.001752	28.0844	52.936	0.001804	29345.5	4.309527	-3.931599	129.143	1.177899	0.051198	0.050754	129.804	29345.5	0.047881	0.085975	1509.78	91438
1016	2.000000	1.180787	7.37499e+06	-50939.1	1055.82	-29753.9	0.000000	0.000000	7.187233	136.354	NaN	0.000000	0.001543	0.001771	28.0847	55.0174	0.001778	30951.4	2.139557	177.083	133.458	1.180632	0.053642	0.053487	136.354	30951.4	0.050338	0.093460	1458.96	92499.9
1016	2.000000	1.183294	7.37499e+06	-50939.1	1055.82	-29753.9	0.000000	0.000000	7.190288	149.673	NaN	0.000000	0.001597	0.001777	28.0846	56.8677	0.001807	31467	2.008046	-2.375577	146.918	1.183016	0.056149	0.055871	149.673	31467	0.052581	0.100558	1488.43	90660.8
1016	2.000000	1.185841	7.37499e+06	-50939.1	1055.82	-29753.9	0.000000	0.000000	7.193177	157.992	NaN	0.000000	0.001568	0.001731	28.0847	59.8457	0.001812	33033.1	4.917603	174.288	160.504	1.185484	0.058696	0.058338	157.992	33033.1	0.055109	0.108856	1451.39	91473.8
1016	2.000000	1.188300	7.37499e+06	-50939.1	1055.82	-29753.9	0.000000	0.000000	7.196389	176.312	NaN	0.000000	0.001589	0.001727	28.0848	62.3633	0.001875	33259.4	8.866333	-9.220901	175.988	1.187877	0.061155	0.060732	176.312	33259.4	0.057179	0.115887	1521.42	89262.8
1016	2.000000	1.190775	7.37499e+06	-50939.1	1055.82	-29753.9	0.000000	0.000000	7.199212	184.757	NaN	0.000000	0.001590	0.001746	28.0851	63.799	0.001718	37144	2.433979	174.989	182.068	1.190529	0.063630	0.063384	184.757	37144	0.059900	0.125448	1472.77	95814.1
1016	2.000000	1.193275	7.37499e+06	-50939.1	1055.82	-29753.9	0.000000	0.000000	7.202304	199.168	NaN	0.000000	0.001592	0.001748	28.0841	66.3537	0.001765	37595.1	4.658677	-6.489311	197.447	1.193076	0.066130	0.065931	199.168	37595.1	0.062157	0.133656	1490.16	93953
1016	2.000000	1.195753	7.37499e+06	-50939.1	1055.82	-29753.9	0.000000	0.000000	7.205620	219.542	NaN	0.000000	0.001559	0.001711	28.0835	67.1418	0.001743	38528.4	0.619391	177.504	217.115	1.195426	0.068607	0.068280	219.542	38528.4	0.064334	0.141806	1548.19	93477.5
1016	2.000000	1.198287	7.37499e+06	-50939.1	1055.82	-29753.9	0.000000	0.000000	7.208653	231.676	NaN	0.000000	0.001589	0.001741	28.0838	71.0319	0.001780	39900	2.670981	-4.653229	228.752	1.197847	0.071141	0.070702	231.676	39900	0.066787	0.151262	1531.62	93730.5
1016	2.000000	1.200772	7.37499e+06	-50939.1	1055.82	-29753.9	0.000000	0.000000	7.211335	236.478	NaN	0.000000	0.001574	0.001713	28.0834	74.3483	0.001826	40721.8	3.025225	174.223	234.497	1.200527	0.073626	0.073382	236.478	40721.8	0.069271	0.161135	1467.58	92684.2
1016	2.000000	1.203190	7.37499e+06	-50939.1	1055.82	-29753.9	0.000000	0.000000	7.214643	258.086	NaN	0.000000	0.001586	0.001733	28.0836	75.146	0.001778	42268	5.437545	-8.158933	250.868	1.202864	0.076045	0.075719	258.086	42268	0.071466	0.170102	1517.24	93633.3
1016	2.000000	1.205796	7.37499e+06	-50939.1	1055.82	-29753.9	0.000000	0.000000	7.217690	268.828	NaN	0.000000	0.001602	0.001710	28.0834	76.0418	0.001667	45625.8	1.661470	175.38	270.403	1.205485	0.078651	0.078340	268.828	45625.8	0.074231	0.181726	1479.3	97785.7
1016	2.000000	1.208243	7.37499e+06	-50939.1	1055.82	-29753.9	0.000000	0.000000	7.221116	292.631	NaN	0.000000	0.001582	0.001759	28.0836	79.9572	0.001876	42614.8	5.737875	-7.966581	291.33	1.207934	0.081098	0.080789	292.631	42614.8	0.075948	0.189122	1547.31	89528.8
1016	2.000000	1.210710	7.37499e+06	-50939.1	1055.82	-29753.9	0.000000	0.000000	7.224049	303.959	NaN	0.000000	0.001574	0.001744	28.0834	80.9713	0.001729	46834.3	0.424587	176.064	300.448	1.210449	0.083565	0.083304	303.959	46834.3	0.078698	0.201257	1510.31	95381
1016	2.000000	1.213262	7.37499e+06	-50939.1	1055.82	-29753.9	0.000000	0.000000	7.227324	321.539	NaN	0.000000	0.001574	0.001768	28.0841	83.4024	0.001818	45873	2.922213	-5.869408	317.364	1.212940	0.086117	0.085795	321.539	45873	0.080860	0.211050	1523.52	91229.9
1016	2.000000	1.215679	7.37499e+06	-50939.1	1055.82	-29753.9	0.000000	0.000000	7.230497	339.937	NaN	0.000000	0.001565	0.001739	28.0836	85.3871	0.001668	51204.1	4.523772	171.245	334.489	1.215389	0.088534	0.088243	339.937	51204.1	0.083555	0.223555	1520.6	98943
1016	2.000000	1.218216	7.37499e+06	-50939.1	1055.82	-29753.9	0.000000	0.000000	7.233731	356.897	NaN	0.000000	0.001585	0.001744	28.0836	89.0875	0.001699	52423.4	4.837204	-9.085847	352.247	1.217846	0.091071	0.090701	356.897	52423.4	0.085965	0.235026	1518.54	98796.3
1016	2.000000	1.220827	7.37499e+06	-50939.1	1055.82	-29753.9	0.000000	0.000000	7.236943	371.508	NaN	0.000000	0.001570	0.001784	28.0834	93.6624	0.001767	53000.1	6.168946	169.336	373.832	1.220399	0.093682	0.093254	371.508	53000.1	0.088424	0.247008	1504.03	97430.3
1016	2.000000	1.223345	7.37499e+06	-50939.1	1055.82	-29753.9	0.000000	0.000000	7.240239	390.418	NaN	0.000000	0.001574	0.001753	28.0837	94.4739	0.001724	54790.8	2.223045	-6.085158	392.083	1.223015	0.096200	0.095869	390.418	54790.8	0.090855	0.259123	1506.69	98339.5
1016	2.000000	1.225773	7.37499e+06	-50939.1	1055.82	-29753.9	0.000000	0.000000	7.243615	413.473	NaN	0.000000	0.001619	0.001697	28.0837	96.8238	0.001745	55477.1	1.120926	174.491	412.263	1.225403	0.098628	0.098257	413.473	55477.1	0.093038	0.270232	1530.06	97503
1016	2.000000	1.228114	7.37499e+06	-50939.1	1055.82	-29753.9	0.000000	0.000000	7.246642	430.165	NaN	0.000000	0.001594	0.001712	28.0849	98.3624	0.001703	57742.9	-0.922832	-3.888183	421.076	1.227887	0.100968	0.100742	430.165	57742.9	0.095381	0.282401	1523.24	99274.8
1016	2.000000	1.230791	7.37499e+06	-50939.1	1055.82	-29753.9	0.000000	0.000000	7.249863	443.388	NaN	0.000000	0.001598	0.001734	28.0847	102.943	0.001774	58026.7	2.645229	172.11	444.475	1.230600	0.103646	0.103455	443.388	58026.7	0.097915	0.295840	1498.74	97470.3
1016	2.000000	1.232125	7.37499e+06	-50939.1	1055.82	-29753.9	0.000000	0.000000	7.252401	472.652	NaN	0.000000	0.001585	0.001726	28.0846	104.322	0.001715	60841.4	9.762305	-15.0177	465.229	1.231797	0.104980	0.104652	472.652	60841.4	0.099153	0.302515	1562.41	101065