File: remote_trans/data/nanoindenter/0828-1/data/Data_2025-08-06,11h17m57s/2025-07-22_16-23-58_1_1127.txt
2025-07-22, 16:23:58, 1
Index	Phase	Displacement	Time	Pos X	Pos Y	Pos Z	Rot A	Rot B	Piezo Z	Force A	Force B	Gripper	Voltage A	Voltage B	Temperature	Amplitude force	Amplitude pos	Stiffness	Phase shift	Phase excitation	Force A raw	Displacement raw	HMax	HMax raw	Real Force	Real Stiffness	Contact Depth	Area	Hardness	Reduced Mod.
[#]	[#]	[um]	[s]	[um]	[um]	[um]	[m°]	[m°]	[um]	[uN]	[uN]	[V]	[V]	[V]	[°C]	[uN]	[um]	[N/m]	[°]	[°]	[uN]	[um]	[um]	[um]	[uN]	[N/m]	[um]	[um^2]	[MPa]	[MPa]
1127	1.000000	0.002163	7.37607e+06	-56489.1	1055.82	-29738.6	0.000000	0.000000	6.002775	-0.072764	NaN	0.000000	0.001620	0.001758	28.0838	0.067226	0.001052	63.9012	29.2231	-166.359	-0.012188	0.000955	-1.233365	-1.234572	-0.072764	63.9012	-1.232511	-2.991830E+16	2.432101E-18	NaN
1127	1.000000	0.012239	7.37607e+06	-56489.1	1055.82	-29738.6	0.000000	0.000000	6.012855	0.003468	NaN	0.000000	0.001642	0.001754	28.0837	0.034094	0.001222	27.8906	5.769681	17.1294	0.034783	0.010791	-1.223288	-1.224737	0.003468	27.8906	-1.223381	-2.258189E+16	-1.535847E-19	NaN
1127	1.000000	0.022157	7.37607e+06	-56489.1	1055.82	-29738.6	0.000000	0.000000	6.022768	-0.098226	NaN	0.000000	0.001673	0.001768	28.0839	0.089739	0.001800	49.8646	-169.483	-163.703	-0.053045	0.020842	-1.213371	-1.214686	-0.098226	49.8646	-1.211893	-1.584847E+16	6.197842E-18	NaN
1127	1.000000	0.032172	7.37607e+06	-56489.1	1055.82	-29738.6	0.000000	0.000000	6.032788	0.004770	NaN	0.000000	0.001645	0.001757	28.0837	0.027944	0.002012	13.892	161.432	14.8867	-0.023970	0.030752	-1.203355	-1.204776	0.004770	13.892	-1.203613	-1.227786E+16	-3.885313E-19	NaN
1127	1.000000	0.042149	7.37607e+06	-56489.1	1055.82	-29738.6	0.000000	0.000000	6.042764	-0.001453	NaN	0.000000	0.001644	0.001786	28.084	0.004652	0.001963	2.369588	150.42	-164.083	-0.011303	0.040801	-1.193379	-1.194726	-0.001453	2.369588	-1.192919	-8.829145E+15	1.645994E-19	NaN
1127	1.000000	0.052111	7.37608e+06	-56489.1	1055.82	-29738.6	0.000000	0.000000	6.052727	0.020467	NaN	0.000000	0.001662	0.001746	28.0837	0.103805	0.001823	56.9394	28.8004	11.8105	-0.057916	0.050773	-1.183417	-1.184754	0.020467	56.9394	-1.183686	-6.641352E+15	-3.081786E-18	NaN
1127	1.000000	0.062159	7.37608e+06	-56489.1	1055.82	-29738.6	0.000000	0.000000	6.062774	-0.010504	NaN	0.000000	0.001639	0.001742	28.0837	0.086098	0.002036	42.2927	78.3688	-164.382	0.015842	0.060790	-1.173368	-1.174737	-0.010504	42.2927	-1.173182	-4.803132E+15	2.186916E-18	NaN
1127	1.000000	0.072162	7.37608e+06	-56489.1	1055.82	-29738.6	0.000000	0.000000	6.072780	0.061777	NaN	0.000000	0.001617	0.001733	28.0837	0.082100	0.002057	39.9051	-41.5031	17.4303	0.096116	0.070807	-1.163366	-1.164720	0.061777	39.9051	-1.164527	-3.677407E+15	-1.679903E-17	NaN
1127	1.000000	0.082158	7.37608e+06	-56489.1	1055.82	-29738.6	0.000000	0.000000	6.082773	-0.029759	NaN	0.000000	0.001656	0.001676	28.084	0.124897	0.001966	63.5397	-117.778	-165.118	0.018518	0.080831	-1.153369	-1.154696	-0.029759	63.5397	-1.153018	-2.577995E+15	1.154339E-17	NaN
1127	1.000000	0.092149	7.37608e+06	-56489.1	1055.82	-29738.6	0.000000	0.000000	6.092764	-0.038543	NaN	0.000000	0.001647	0.001663	28.0835	0.038291	0.001967	19.4694	85.1295	12.5431	-0.017503	0.090780	-1.143378	-1.144747	-0.038543	19.4694	-1.141893	-1.828630E+15	2.107742E-17	NaN
1127	1.000000	0.102158	7.37608e+06	-56489.1	1055.82	-29738.6	0.000000	0.000000	6.102771	-0.054867	NaN	0.000000	0.001671	0.001678	28.0844	0.029013	0.002101	13.8099	-75.7506	-164.325	-0.008073	0.100810	-1.133369	-1.134718	-0.054867	13.8099	-1.130390	-1.281886E+15	4.280172E-17	NaN
1127	1.000000	0.112169	7.37608e+06	-56489.1	1055.82	-29738.6	0.000000	0.000000	6.112782	-0.067054	NaN	0.000000	0.001650	0.001696	28.0837	0.063716	0.001861	34.2458	-39.3584	10.7248	-0.034256	0.110738	-1.123359	-1.124789	-0.067054	34.2458	-1.121890	-9.858937E+14	6.801367E-17	NaN
1127	1.000000	0.122144	7.37608e+06	-56489.1	1055.82	-29738.6	0.000000	0.000000	6.122760	0.022000	NaN	0.000000	0.001657	0.001694	28.084	0.031924	0.002165	14.7447	-88.7054	-169.052	0.003360	0.120852	-1.113384	-1.114675	0.022000	14.7447	-1.114503	-7.847158E+14	-2.803614E-17	NaN
1127	1.000000	0.132166	7.37608e+06	-56489.1	1055.82	-29738.6	0.000000	0.000000	6.132781	-0.030100	NaN	0.000000	0.001691	0.001693	28.083	0.065039	0.002060	31.5759	-60.5903	14.6727	-0.024862	0.130795	-1.103361	-1.104733	-0.030100	31.5759	-1.102646	-5.439917E+14	5.533234E-17	NaN
1127	1.000000	0.142172	7.37608e+06	-56489.1	1055.82	-29738.6	0.000000	0.000000	6.142788	-0.000170	NaN	0.000000	0.001676	0.001704	28.0825	0.071282	0.002008	35.5022	122.858	-164.877	0.039602	0.140858	-1.093355	-1.094670	-0.000170	35.5022	-1.093352	-4.081456E+14	4.164585E-19	NaN
1127	1.000000	0.152166	7.37608e+06	-56489.1	1055.82	-29738.6	0.000000	0.000000	6.152784	0.031283	NaN	0.000000	0.001680	0.001668	28.0826	0.026472	0.001923	13.7645	81.633	14.9932	-0.010744	0.150797	-1.083361	-1.084730	0.031283	13.7645	-1.085065	-3.158999E+14	-9.902733E-17	NaN
1127	1.000000	0.162180	7.37608e+06	-56489.1	1055.82	-29738.6	0.000000	0.000000	6.162795	-0.029687	NaN	0.000000	0.001639	0.001710	28.0825	0.017804	0.002019	8.819421	62.1424	-166.81	-0.043349	0.160874	-1.073347	-1.074654	-0.029687	8.819421	-1.070823	-2.033502E+14	1.459886E-16	NaN
1127	1.000000	0.172175	7.37608e+06	-56489.1	1055.82	-29738.6	0.000000	0.000000	6.172794	0.068499	NaN	0.000000	0.001650	0.001720	28.0824	0.038511	0.001967	19.5779	150.71	15.8164	0.052044	0.170820	-1.063352	-1.064708	0.068499	19.5779	-1.065976	-1.750349E+14	-3.913440E-16	NaN
1127	1.000000	0.182192	7.37608e+06	-56489.1	1055.82	-29738.6	0.000000	0.000000	6.182808	-0.000994	NaN	0.000000	0.001611	0.001673	28.0824	0.056477	0.001952	28.9384	-94.8114	-166.043	0.042577	0.180856	-1.053335	-1.054671	-0.000994	28.9384	-1.053310	-1.182778E+14	8.407667E-18	NaN
1127	1.000000	0.192189	7.37608e+06	-56489.1	1055.82	-29738.6	0.000000	0.000000	6.192804	-0.015541	NaN	0.000000	0.001662	0.001710	28.0824	0.070918	0.001966	36.0806	112.912	14.8028	-0.084492	0.190798	-1.043339	-1.044729	-0.015541	36.0806	-1.043016	-8.600327E+13	1.807031E-16	NaN
1127	1.000000	0.202206	7.37608e+06	-56489.1	1055.82	-29738.6	0.000000	0.000000	6.202822	0.010544	NaN	0.000000	0.001634	0.001711	28.0824	0.041448	0.002024	20.4739	-152.771	-165.97	-0.055049	0.200857	-1.033322	-1.034671	0.010544	20.4739	-1.033708	-6.446914E+13	-1.635490E-16	NaN
1127	1.000000	0.212212	7.37608e+06	-56489.1	1055.82	-29738.6	0.000000	0.000000	6.212826	-0.042844	NaN	0.000000	0.001645	0.001694	28.0823	0.079163	0.001979	40.0045	30.3584	19.3574	0.022612	0.210865	-1.023315	-1.024662	-0.042844	40.0045	-1.022512	-4.557746E+13	9.400201E-16	NaN
1127	1.000000	0.222184	7.37608e+06	-56489.1	1055.82	-29738.6	0.000000	0.000000	6.222799	-0.020386	NaN	0.000000	0.001678	0.001732	28.0827	0.042485	0.002015	21.0888	-118.965	-163.861	0.020167	0.220870	-1.013343	-1.014657	-0.020386	21.0888	-1.012618	-3.354440E+13	6.077198E-16	NaN
1127	1.000000	0.232192	7.37608e+06	-56489.1	1055.82	-29738.6	0.000000	0.000000	6.232808	0.014495	NaN	0.000000	0.001654	0.001722	28.0823	0.050294	0.002016	24.951	101.117	13.3215	0.019012	0.230878	-1.003335	-1.004649	0.014495	24.951	-1.003771	-2.549980E+13	-5.684314E-16	NaN
1127	1.000000	0.242182	7.37608e+06	-56489.1	1055.82	-29738.6	0.000000	0.000000	6.242798	0.022972	NaN	0.000000	0.001673	0.001771	28.0823	0.132649	0.001984	66.8487	-80.8204	-163.098	-0.011168	0.240883	-0.993346	-0.994644	0.022972	66.8487	-0.993604	-1.860551E+13	-1.234664E-15	NaN
1127	1.000000	0.252196	7.37608e+06	-56489.1	1055.82	-29738.6	0.000000	0.000000	6.252815	0.075121	NaN	0.000000	0.001653	0.001710	28.0823	0.121290	0.001878	64.5837	121.43	15.1764	0.059796	0.250850	-0.983331	-0.984678	0.075121	64.5837	-0.984204	-1.390089E+13	-5.404009E-15	NaN
1127	1.000000	0.262225	7.37608e+06	-56489.1	1055.82	-29738.7	0.000000	0.000000	6.262841	-0.011088	NaN	0.000000	0.001632	0.001697	28.0829	0.032524	0.001896	17.1548	19.7007	-163.614	-0.031335	0.260915	-0.973302	-0.974613	-0.011088	17.1548	-0.972817	-9.764019E+12	1.135560E-15	NaN
1127	1.000000	0.272214	7.37608e+06	-56489.1	1055.82	-29738.7	0.000000	0.000000	6.272827	-0.050165	NaN	0.000000	0.001641	0.001744	28.0836	0.083758	0.002032	41.2204	92.3832	12.9108	-0.042722	0.270846	-0.963314	-0.964681	-0.050165	41.2204	-0.962401	-7.067016E+12	7.098489E-15	NaN
1127	1.000000	0.282222	7.37608e+06	-56489.1	1055.82	-29738.7	0.000000	0.000000	6.282838	0.009024	NaN	0.000000	0.001642	0.001701	28.0836	0.042160	0.002034	20.7229	149.276	-164.704	-0.044742	0.280943	-0.953305	-0.954584	0.009024	20.7229	-0.953632	-5.382745E+12	-1.676396E-15	NaN
1127	1.000000	0.292235	7.37608e+06	-56489.1	1055.82	-29738.7	0.000000	0.000000	6.292849	-0.040829	NaN	0.000000	0.001659	0.001726	28.0837	0.040915	0.001993	20.5311	172.91	9.774260	-0.050227	0.290896	-0.943292	-0.944632	-0.040829	20.5311	-0.941801	-3.727596E+12	1.095329E-14	NaN
1127	1.000000	0.302257	7.37608e+06	-56489.1	1055.82	-29738.7	0.000000	0.000000	6.302872	-0.017195	NaN	0.000000	0.001664	0.001740	28.0837	0.037106	0.001984	18.7	-137.16	-169.926	-0.009268	0.300930	-0.933271	-0.934597	-0.017195	18.7	-0.932581	-2.799177E+12	6.142795E-15	NaN
1127	1.000000	0.312229	7.37608e+06	-56489.1	1055.82	-29738.7	0.000000	0.000000	6.312845	0.012632	NaN	0.000000	0.001669	0.001715	28.0836	0.076275	0.002000	38.1436	81.2468	12.4833	-0.007139	0.310874	-0.923298	-0.924653	0.012632	38.1436	-0.923547	-2.113932E+12	-5.975501E-15	NaN
1127	1.000000	0.322233	7.37608e+06	-56489.1	1055.82	-29738.7	0.000000	0.000000	6.322853	0.112151	NaN	0.000000	0.001605	0.001737	28.0835	0.118856	0.002054	57.8729	-22.3962	-167.911	0.106792	0.320904	-0.913295	-0.914623	0.112151	57.8729	-0.914748	-1.608013E+12	-6.974482E-14	NaN
1127	1.000000	0.332240	7.37608e+06	-56489.1	1055.82	-29738.7	0.000000	0.000000	6.332856	0.003017	NaN	0.000000	0.001615	0.001728	28.0839	0.053138	0.002055	25.8635	-162.609	13.9774	-0.039023	0.330937	-0.903287	-0.904590	0.003017	25.8635	-0.903374	-1.128913E+12	-2.672257E-15	NaN
1127	1.000000	0.342266	7.37608e+06	-56489.1	1055.82	-29738.7	0.000000	0.000000	6.342882	0.012684	NaN	0.000000	0.001638	0.001769	28.0835	0.090344	0.002002	45.1379	-37.9899	-165.779	-0.010452	0.340955	-0.893261	-0.894572	0.012684	45.1379	-0.893472	-8.295626E+11	-1.528949E-14	NaN
1127	1.000000	0.352262	7.37608e+06	-56489.1	1055.82	-29738.7	0.000000	0.000000	6.352875	-0.081421	NaN	0.000000	0.001651	0.001738	28.0836	0.036115	0.001961	18.4154	5.944626	12.6783	0.004456	0.350855	-0.883265	-0.884672	-0.081421	18.4154	-0.879949	-5.445268E+11	1.495255E-13	NaN
1127	1.000000	0.362247	7.37608e+06	-56489.1	1055.82	-29738.7	0.000000	0.000000	6.362864	0.051353	NaN	0.000000	0.001655	0.001723	28.0837	0.102036	0.001930	52.8752	28.3091	-165.874	0.052223	0.360937	-0.873281	-0.874590	0.051353	52.8752	-0.874009	-4.525663E+11	-1.134717E-13	NaN
1127	1.000000	0.372258	7.37608e+06	-56489.1	1055.82	-29738.7	0.000000	0.000000	6.372876	0.044360	NaN	0.000000	0.001674	0.001703	28.0839	0.118874	0.002002	59.3912	-128.319	14.4281	-0.042655	0.370938	-0.863269	-0.864589	0.044360	59.3912	-0.863829	-3.295700E+11	-1.345988E-13	NaN
1127	1.000000	0.382306	7.37608e+06	-56489.1	1055.82	-29738.7	0.000000	0.000000	6.382920	-0.044753	NaN	0.000000	0.001654	0.001729	28.0838	0.110227	0.002158	51.0756	-119.964	-163.253	-0.001097	0.380958	-0.853221	-0.854570	-0.044753	51.0756	-0.852564	-2.319840E+11	1.929160E-13	NaN
1127	1.000000	0.392272	7.37608e+06	-56489.1	1055.82	-29738.7	0.000000	0.000000	6.392890	0.042441	NaN	0.000000	0.001631	0.001717	28.0838	0.014263	0.001965	7.258291	153.292	13.3984	0.056039	0.390904	-0.843255	-0.844623	0.042441	7.258291	-0.847641	-1.989706E+11	-2.133024E-13	NaN
1127	1.000000	0.402284	7.37608e+06	-56489.1	1055.82	-29738.7	0.000000	0.000000	6.402901	0.014814	NaN	0.000000	0.001657	0.001729	28.0839	0.058263	0.002004	29.0801	22.8969	-167.45	0.042310	0.400962	-0.833243	-0.834566	0.014814	29.0801	-0.833625	-1.285036E+11	-1.152836E-13	NaN
1127	1.000000	0.412278	7.37608e+06	-56489.1	1055.82	-29738.7	0.000000	0.000000	6.412894	0.006375	NaN	0.000000	0.001659	0.001693	28.0824	0.083974	0.002022	41.5205	125.977	14.9296	0.042051	0.410910	-0.823249	-0.824617	0.006375	41.5205	-0.823364	-9.328838E+10	-6.833277E-14	NaN
1127	1.000000	0.422299	7.37608e+06	-56489.1	1055.82	-29738.7	0.000000	0.000000	6.422914	-0.020868	NaN	0.000000	0.001691	0.001710	28.0826	0.034035	0.002037	16.7124	-13.6567	-165.837	0.041500	0.421009	-0.813229	-0.814518	-0.020868	16.7124	-0.812292	-6.601900E+10	3.160884E-13	NaN
1127	1.000000	0.432317	7.37608e+06	-56489.1	1055.82	-29738.7	0.000000	0.000000	6.432932	-0.026892	NaN	0.000000	0.001651	0.001715	28.0826	0.007940	0.002037	3.897499	-178.824	8.083344	-0.027867	0.430905	-0.803210	-0.804622	-0.026892	3.897499	-0.798035	-4.228513E+10	6.359779E-13	NaN
1127	1.000000	0.442266	7.37608e+06	-56489.1	1055.82	-29738.7	0.000000	0.000000	6.442880	-0.054403	NaN	0.000000	0.001702	0.001697	28.0827	0.109753	0.001917	57.2411	-114.413	-166.991	-0.041026	0.441006	-0.793261	-0.794522	-0.054403	57.2411	-0.792548	-3.561970E+10	1.527328E-12	NaN
1127	1.000000	0.452280	7.37608e+06	-56489.1	1055.82	-29738.7	0.000000	0.000000	6.452895	-0.012339	NaN	0.000000	0.001660	0.001742	28.0825	0.059811	0.002150	27.8139	155.257	16.1031	-0.058500	0.450919	-0.783248	-0.784609	-0.012339	27.8139	-0.782915	-2.635348E+10	4.682172E-13	NaN
1127	1.000000	0.462289	7.37608e+06	-56489.1	1055.82	-29738.7	0.000000	0.000000	6.462904	-0.022390	NaN	0.000000	0.001662	0.001724	28.0824	0.032806	0.001952	16.8091	-102.791	-165.622	-0.005008	0.461017	-0.773239	-0.774510	-0.022390	16.8091	-0.772240	-1.886923E+10	1.186564E-12	NaN
1127	1.000000	0.472315	7.37608e+06	-56489.1	1055.82	-29738.7	0.000000	0.000000	6.472930	-0.025618	NaN	0.000000	0.001625	0.001737	28.0827	0.073650	0.001926	38.2302	161.895	15.2104	-0.026467	0.470922	-0.763212	-0.764606	-0.025618	38.2302	-0.762709	-1.400100E+10	1.829695E-12	NaN
1127	1.000000	0.482307	7.37608e+06	-56489.1	1055.82	-29738.7	0.000000	0.000000	6.482924	0.012973	NaN	0.000000	0.001651	0.001720	28.0826	0.022643	0.001951	11.6075	15.6666	-168.221	0.061910	0.480985	-0.753220	-0.754542	0.012973	11.6075	-0.754058	-1.067713E+10	-1.215058E-12	NaN
1127	1.000000	0.492309	7.37608e+06	-56489.1	1055.82	-29738.7	0.000000	0.000000	6.492926	0.025374	NaN	0.000000	0.001652	0.001693	28.0827	0.061547	0.002011	30.6016	8.102489	12.8389	-0.005842	0.490950	-0.743218	-0.744577	0.025374	30.6016	-0.743840	-7.750883E+9	-3.273727E-12	NaN
1127	1.000000	0.502314	7.37608e+06	-56489.1	1055.82	-29738.7	0.000000	0.000000	6.502933	0.081946	NaN	0.000000	0.001692	0.001693	28.0825	0.054767	0.001916	28.5907	54.8053	-166.584	0.091664	0.501014	-0.733214	-0.734514	0.081946	28.5907	-0.735363	-5.941463E+9	-1.379217E-11	NaN
1127	1.000000	0.512318	7.37608e+06	-56489.1	1055.82	-29738.7	0.000000	0.000000	6.512934	0.007215	NaN	0.000000	0.001647	0.001711	28.083	0.096074	0.002052	46.8099	-166.021	11.0069	0.034944	0.510932	-0.723209	-0.724596	0.007215	46.8099	-0.723325	-4.072044E+9	-1.771795E-12	NaN
1127	1.000000	0.522355	7.37608e+06	-56489.1	1055.82	-29738.7	0.000000	0.000000	6.522972	0.032273	NaN	0.000000	0.001663	0.001701	28.0827	0.090318	0.001963	46.0152	-79.0938	-165.949	0.051382	0.521017	-0.713172	-0.714510	0.032273	46.0152	-0.713698	-3.009636E+9	-1.072336E-11	NaN
1127	1.000000	0.532346	7.37608e+06	-56489.1	1055.82	-29738.7	0.000000	0.000000	6.532964	0.058845	NaN	0.000000	0.001704	0.001698	28.0827	0.110957	0.002058	53.9171	-158.135	12.182	0.013494	0.530983	-0.703181	-0.704545	0.058845	53.9171	-0.704000	-2.218962E+9	-2.651921E-11	NaN
1127	1.000000	0.542321	7.37608e+06	-56489.1	1055.82	-29738.7	0.000000	0.000000	6.542937	0.017165	NaN	0.000000	0.001669	0.001734	28.084	0.094303	0.002140	44.0718	163.264	-165.065	-0.002450	0.541012	-0.693207	-0.694515	0.017165	44.0718	-0.693499	-1.594889E+9	-1.076244E-11	NaN
1127	1.000000	0.552327	7.37608e+06	-56489.1	1055.82	-29738.7	0.000000	0.000000	6.552943	0.011925	NaN	0.000000	0.001653	0.001716	28.084	0.104879	0.001954	53.6819	179.757	14.5475	0.007827	0.551015	-0.683201	-0.684512	0.011925	53.6819	-0.683367	-1.159452E+9	-1.028524E-11	NaN
1127	1.000000	0.562358	7.37608e+06	-56489.1	1055.82	-29738.7	0.000000	0.000000	6.562974	-0.013091	NaN	0.000000	0.001658	0.001700	28.0837	0.059676	0.002064	28.9081	138.587	-165.145	-0.027314	0.561027	-0.673169	-0.674500	-0.013091	28.9081	-0.672829	-8.319756E+8	1.573538E-11	NaN
1127	1.000000	0.572362	7.37608e+06	-56489.1	1055.82	-29738.7	0.000000	0.000000	6.572977	-0.016549	NaN	0.000000	0.001658	0.001729	28.0838	0.027129	0.002062	13.1574	153.714	15.8283	-0.057648	0.571025	-0.663165	-0.664502	-0.016549	13.1574	-0.662222	-5.955249E+8	2.778834E-11	NaN
1127	1.000000	0.582354	7.37608e+06	-56489.1	1055.82	-29738.7	0.000000	0.000000	6.582969	-0.034790	NaN	0.000000	0.001687	0.001713	28.084	0.031846	0.002051	15.5253	16.9769	-168.299	-0.094007	0.581048	-0.653173	-0.654479	-0.034790	15.5253	-0.651492	-4.245157E+8	8.195195E-11	NaN
1127	1.000000	0.592341	7.37608e+06	-56489.1	1055.82	-29738.7	0.000000	0.000000	6.592957	0.003020	NaN	0.000000	0.001645	0.001723	28.084	0.030478	0.001934	15.7584	44.3385	14.498	-0.019205	0.590993	-0.643186	-0.644534	0.003020	15.7584	-0.643330	-3.280745E+8	-9.205782E-12	NaN
1127	1.000000	0.602356	7.37608e+06	-56489.1	1055.82	-29738.7	0.000000	0.000000	6.602973	0.027474	NaN	0.000000	0.001622	0.001697	28.0837	0.007740	0.002050	3.776215	-144.044	-166.233	0.052423	0.601036	-0.633171	-0.634491	0.027474	3.776215	-0.638628	-2.827874E+8	-9.715368E-11	NaN
1127	1.000000	0.612360	7.37608e+06	-56489.1	1055.82	-29738.7	0.000000	0.000000	6.612974	-0.040553	NaN	0.000000	0.001629	0.001689	28.0835	0.014921	0.001963	7.602886	15.9287	10.895	-0.078010	0.611020	-0.623167	-0.624507	-0.040553	7.602886	-0.619167	-1.528209E+8	2.653638E-10	NaN
1127	1.000000	0.622339	7.37608e+06	-56489.1	1055.82	-29738.7	0.000000	0.000000	6.622956	0.024621	NaN	0.000000	0.001654	0.001703	28.0839	0.161282	0.001981	81.396	9.747878	-162.43	0.082100	0.621041	-0.613189	-0.614487	0.024621	81.396	-0.613416	-1.273795E+8	-1.932906E-10	NaN
1127	1.000000	0.632388	7.37608e+06	-56489.1	1055.82	-29738.7	0.000000	0.000000	6.633002	-0.038096	NaN	0.000000	0.001658	0.001688	28.0837	0.064838	0.001963	33.0228	44.7101	13.0801	-0.057429	0.631035	-0.603140	-0.604492	-0.038096	33.0228	-0.602274	-8.949132E+7	4.256945E-10	NaN
1127	1.000000	0.642374	7.37608e+06	-56489.1	1055.82	-29738.7	0.000000	0.000000	6.642989	-0.017610	NaN	0.000000	0.001636	0.001673	28.084	0.018783	0.002100	8.944942	148.318	-168.866	-0.035403	0.641075	-0.593153	-0.594452	-0.017610	8.944942	-0.591677	-6.394083E+7	2.754172E-10	NaN
1127	1.000000	0.652378	7.37608e+06	-56489.1	1055.82	-29738.7	0.000000	0.000000	6.652994	0.002494	NaN	0.000000	0.001664	0.001717	28.0838	0.082954	0.001929	42.9972	-79.1237	13.8368	-0.058404	0.650974	-0.583149	-0.584553	0.002494	42.9972	-0.583193	-4.884048E+7	-5.106500E-11	NaN
1127	1.000000	0.662382	7.37608e+06	-56489.1	1055.82	-29738.7	0.000000	0.000000	6.662996	-0.036220	NaN	0.000000	0.001669	0.001724	28.084	0.078021	0.001960	39.7988	44.486	-164.978	0.002289	0.661056	-0.573145	-0.574471	-0.036220	39.7988	-0.572463	-3.472626E+7	1.043007E-9	NaN
1127	1.000000	0.672409	7.37608e+06	-56489.1	1055.82	-29738.7	0.000000	0.000000	6.673025	0.006355	NaN	0.000000	0.001672	0.001713	28.0837	0.017504	0.001902	9.204621	123.258	15.9686	0.018083	0.671026	-0.563119	-0.564502	0.006355	9.204621	-0.563636	-2.622242E+7	-2.423562E-10	NaN
1127	1.000000	0.682412	7.37608e+06	-56489.1	1055.82	-29738.7	0.000000	0.000000	6.683028	0.006479	NaN	0.000000	0.001706	0.001718	28.0827	0.098191	0.001925	51.0022	-144.122	-164.569	-0.037723	0.681107	-0.553116	-0.554420	0.006479	51.0022	-0.553211	-1.881151E+7	-3.444147E-10	NaN
1127	1.000000	0.692368	7.37608e+06	-56489.1	1055.82	-29738.7	0.000000	0.000000	6.692984	-0.009267	NaN	0.000000	0.001707	0.001705	28.0827	0.120337	0.002078	57.9177	58.6087	13.5821	-0.002826	0.691027	-0.543159	-0.544500	-0.009267	57.9177	-0.543039	-1.359876E+7	6.814894E-10	NaN
1127	1.000000	0.702389	7.37608e+06	-56489.1	1055.82	-29738.7	0.000000	0.000000	6.703003	-0.059433	NaN	0.000000	0.001743	0.001665	28.0828	0.048961	0.001879	26.0591	144.607	-167.646	0.006793	0.701125	-0.533138	-0.534403	-0.059433	26.0591	-0.531428	-9.38422e+06	6.333303E-9	NaN
1127	1.000000	0.712401	7.37608e+06	-56489.1	1055.82	-29738.7	0.000000	0.000000	6.713013	-0.078366	NaN	0.000000	0.001743	0.001674	28.0826	0.139712	0.002038	68.5698	-82.8063	15.6969	-0.097362	0.711052	-0.523127	-0.524476	-0.078366	68.5698	-0.522269	-7.00091e+06	1.119363E-8	NaN
1127	1.000000	0.722416	7.37608e+06	-56489.1	1055.82	-29738.7	0.000000	0.000000	6.723030	-0.046150	NaN	0.000000	0.001680	0.001681	28.0827	0.102346	0.002074	49.3503	61.3366	-163.733	-0.002086	0.721116	-0.513112	-0.514412	-0.046150	49.3503	-0.512410	-5.10483e+06	9.040446E-9	NaN
1127	1.000000	0.732418	7.37608e+06	-56489.1	1055.82	-29738.7	0.000000	0.000000	6.733033	-0.019983	NaN	0.000000	0.001677	0.001681	28.0828	0.028033	0.002103	13.3329	147.446	13.6905	0.051106	0.731050	-0.503109	-0.504477	-0.019983	13.3329	-0.501985	-3.65349e+06	5.469594E-9	NaN
1127	1.000000	0.742416	7.37608e+06	-56489.1	1055.82	-29738.7	0.000000	0.000000	6.743033	0.021466	NaN	0.000000	0.001716	0.001681	28.0825	0.032458	0.001992	16.2969	-87.0837	-166.531	-0.024439	0.741123	-0.493111	-0.494405	0.021466	16.2969	-0.494099	-2.83568e+06	-7.570033E-9	NaN
1127	1.000000	0.752421	7.37608e+06	-56489.1	1055.82	-29738.7	0.000000	0.000000	6.753035	-0.046899	NaN	0.000000	0.001598	0.001723	28.0824	0.054172	0.001981	27.3449	37.0128	15.6198	-0.051002	0.751099	-0.483106	-0.484429	-0.046899	27.3449	-0.481820	-1.90986e+06	2.455604E-8	NaN
1127	1.000000	0.762454	7.37608e+06	-56489.1	1055.82	-29738.7	0.000000	0.000000	6.763068	-0.040468	NaN	0.000000	0.001698	0.001710	28.0834	0.014127	0.002018	7.000131	30.1935	-165.079	-0.066419	0.761161	-0.473073	-0.474366	-0.040468	7.000131	-0.468738	-1.25227e+06	3.231570E-8	NaN
1127	1.000000	0.772416	7.37608e+06	-56489.1	1055.82	-29738.7	0.000000	0.000000	6.773029	-0.066861	NaN	0.000000	0.001647	0.001723	28.0826	0.073370	0.001934	37.9466	-15.9899	12.3721	-0.013787	0.771053	-0.463111	-0.464475	-0.066861	37.9466	-0.461790	-1.00037e+06	6.683563E-8	NaN
1127	1.000000	0.782462	7.37608e+06	-56489.1	1055.82	-29738.7	0.000000	0.000000	6.783075	-0.070195	NaN	0.000000	0.001641	0.001740	28.0824	0.020125	0.002063	9.753205	-35.0246	-168.475	0.025602	0.781159	-0.453066	-0.454368	-0.070195	9.753205	-0.447668	-633128	1.108698E-7	NaN
1127	1.000000	0.792438	7.37608e+06	-56489.1	1055.82	-29738.7	0.000000	0.000000	6.793053	-0.012819	NaN	0.000000	0.001671	0.001697	28.0825	0.070962	0.001892	37.5018	-179.434	14.0492	0.002858	0.791098	-0.443090	-0.444429	-0.012819	37.5018	-0.442833	-541178	2.368750E-8	NaN
1127	1.000000	0.802467	7.37608e+06	-56489.1	1055.82	-29738.7	0.000000	0.000000	6.803081	-0.053007	NaN	0.000000	0.001664	0.001703	28.0829	0.018120	0.002051	8.835905	113.245	-165.96	-0.052700	0.801108	-0.433060	-0.434420	-0.053007	8.835905	-0.428561	-340174	1.558231E-7	NaN
1127	1.000000	0.812454	7.37608e+06	-56489.1	1055.82	-29738.7	0.000000	0.000000	6.813072	0.053136	NaN	0.000000	0.001625	0.001693	28.0825	0.075902	0.001960	38.7173	95.8008	11.7244	0.028300	0.811108	-0.423074	-0.424419	0.053136	38.7173	-0.424103	-294156	-1.806386E-7	NaN
1127	1.000000	0.822437	7.37608e+06	-56489.1	1055.82	-29738.7	0.000000	0.000000	6.823053	-0.002017	NaN	0.000000	0.001669	0.001664	28.0838	0.087959	0.002107	41.7522	118.932	-167.023	0.009430	0.821116	-0.413090	-0.414412	-0.002017	41.7522	-0.413054	-205027	9.839626E-9	NaN
1127	1.000000	0.832454	7.37608e+06	-56489.1	1055.82	-29738.7	0.000000	0.000000	6.833068	-0.040961	NaN	0.000000	0.001682	0.001705	28.0838	0.050885	0.002049	24.8372	172.385	13.4566	-0.116180	0.831075	-0.403074	-0.404452	-0.040961	24.8372	-0.401837	-141965	2.885260E-7	NaN
1127	1.000000	0.842468	7.37608e+06	-56489.1	1055.82	-29738.7	0.000000	0.000000	6.843085	0.030253	NaN	0.000000	0.001731	0.001713	28.0841	0.064207	0.001903	33.737	-172.697	-165.709	-0.023954	0.841153	-0.393059	-0.394375	0.030253	33.737	-0.393732	-108772	-2.781302E-7	NaN
1127	1.000000	0.852465	7.37608e+06	-56489.1	1055.82	-29738.7	0.000000	0.000000	6.853082	0.028187	NaN	0.000000	0.001674	0.001681	28.0839	0.065567	0.002043	32.0904	153.546	15.0222	0.037867	0.851116	-0.383062	-0.384411	0.028187	32.0904	-0.383721	-78208.4	-3.604061E-7	NaN
1127	1.000000	0.862477	7.37608e+06	-56489.1	1055.82	-29738.7	0.000000	0.000000	6.863090	-0.075148	NaN	0.000000	0.001698	0.001682	28.084	0.064320	0.002055	31.2933	113.364	-168.194	0.027529	0.861179	-0.373050	-0.374349	-0.075148	31.2933	-0.371249	-51773.9	1.451464E-6	NaN
1127	1.000000	0.872478	7.37608e+06	-56489.1	1055.82	-29738.7	0.000000	0.000000	6.873092	-0.037809	NaN	0.000000	0.001735	0.001726	28.0841	0.079531	0.001937	41.0625	-154.489	16.6566	-0.119737	0.871112	-0.363050	-0.364415	-0.037809	41.0625	-0.362359	-38541.6	9.809880E-7	NaN
1127	1.000000	0.882492	7.37608e+06	-56489.1	1055.82	-29738.7	0.000000	0.000000	6.883106	-0.045391	NaN	0.000000	0.001659	0.001732	28.0839	0.034309	0.002057	16.677	-94.626	-167.681	-0.015205	0.881177	-0.353036	-0.354350	-0.045391	16.677	-0.350994	-26389.6	1.720026E-6	NaN
1127	1.000000	0.892500	7.37608e+06	-56489.1	1055.82	-29738.7	0.000000	0.000000	6.893114	-0.048226	NaN	0.000000	0.001657	0.001719	28.084	0.116061	0.002024	57.3323	121.893	11.2377	-0.106677	0.891055	-0.343028	-0.344472	-0.048226	57.3323	-0.342397	-19791.2	2.436726E-6	NaN
1127	1.000000	0.902494	7.37608e+06	-56489.1	1055.82	-29738.7	0.000000	0.000000	6.903110	0.010426	NaN	0.000000	0.001647	0.001708	28.0839	0.017735	0.001942	9.134399	-163.9	-166.263	-0.091952	0.901157	-0.333034	-0.334370	0.010426	9.134399	-0.333890	-14871.7	-7.010956E-7	NaN
1127	1.000000	0.912461	7.37608e+06	-56489.1	1055.82	-29738.7	0.000000	0.000000	6.913072	-0.114590	NaN	0.000000	0.001653	0.001704	28.0843	0.111330	0.001930	57.6789	-131.286	16.2784	0.008120	0.911118	-0.323066	-0.324410	-0.114590	57.6789	-0.321576	-9813.61	1.167661E-5	NaN
1127	1.000000	0.922478	7.37608e+06	-56489.1	1055.82	-29738.7	0.000000	0.000000	6.923095	0.024350	NaN	0.000000	0.001643	0.001711	28.0838	0.047376	0.002097	22.5903	-90.5466	-167.047	-0.132945	0.921174	-0.313050	-0.314353	0.024350	22.5903	-0.313858	-7552.46	-3.224159E-6	NaN
1127	1.000000	0.932500	7.37608e+06	-56489.1	1055.82	-29738.7	0.000000	0.000000	6.933115	-0.018123	NaN	0.000000	0.001667	0.001723	28.084	0.104105	0.002157	48.2549	-169.391	9.409924	-0.009865	0.931126	-0.303027	-0.304401	-0.018123	48.2549	-0.302745	-5169.75	3.505526E-6	NaN
1127	1.000000	0.942513	7.37608e+06	-56489.1	1055.82	-29738.7	0.000000	0.000000	6.943127	-0.046446	NaN	0.000000	0.001644	0.001720	28.0838	0.082357	0.001969	41.829	88.8745	-166.318	-0.021628	0.941158	-0.293014	-0.294370	-0.046446	41.829	-0.292181	-3597.17	1.291174E-5	NaN
1127	1.000000	0.952513	7.37608e+06	-56489.1	1055.82	-29738.7	0.000000	0.000000	6.953129	0.007153	NaN	0.000000	0.001649	0.001732	28.0831	0.031347	0.002036	15.3983	148.899	16.0096	0.015594	0.951115	-0.283014	-0.284412	0.007153	15.3983	-0.283363	-2652.41	-2.696622E-6	NaN
1127	1.000000	0.962507	7.37608e+06	-56489.1	1055.82	-29738.7	0.000000	0.000000	6.963123	-0.008474	NaN	0.000000	0.001656	0.001740	28.0828	0.069143	0.001933	35.7708	-10.9246	-165.573	-0.032861	0.961282	-0.273020	-0.274246	-0.008474	35.7708	-0.272843	-1839.52	4.606644E-6	NaN
1127	1.000000	0.972519	7.37608e+06	-56489.1	1055.82	-29738.7	0.000000	0.000000	6.973136	0.025996	NaN	0.000000	0.001670	0.001677	28.083	0.057773	0.001932	29.9021	24.2025	8.421341	0.079636	0.971119	-0.263009	-0.264409	0.025996	29.9021	-0.263661	-1333.32	-1.949754E-5	NaN
1127	1.000000	0.982524	7.37608e+06	-56489.1	1055.82	-29738.7	0.000000	0.000000	6.983140	-0.005465	NaN	0.000000	0.001656	0.001699	28.0829	0.078189	0.001863	41.9724	-102.761	-166.242	0.051106	0.981215	-0.253003	-0.254312	-0.005465	41.9724	-0.252905	-911.674	5.994259E-6	NaN
1127	1.000000	0.992497	7.37608e+06	-56489.1	1055.82	-29738.7	0.000000	0.000000	6.993112	-0.019025	NaN	0.000000	0.001643	0.001670	28.083	0.107656	0.002020	53.3066	-25.2789	13.4128	0.016033	0.991162	-0.243030	-0.244365	-0.019025	53.3066	-0.242763	-634.813	2.996985E-5	NaN
1127	1.000000	1.002552	7.37608e+06	-56489.1	1055.82	-29738.7	0.000000	0.000000	7.003166	-0.052477	NaN	0.000000	0.001662	0.001682	28.0826	0.062077	0.002070	29.9947	30.7659	-163.693	-0.104536	1.001269	-0.232975	-0.234258	-0.052477	29.9947	-0.231663	-425.355	0.000123	NaN
1127	1.000000	1.012547	7.37608e+06	-56489.1	1055.82	-29738.7	0.000000	0.000000	7.013163	-0.010754	NaN	0.000000	0.001704	0.001670	28.0829	0.047182	0.001946	24.2476	-146.734	9.557972	0.031974	1.011126	-0.222980	-0.224401	-0.010754	24.2476	-0.222648	-306.138	3.512896E-5	NaN
1127	1.000000	1.022517	7.37608e+06	-56489.1	1055.82	-29738.7	0.000000	0.000000	7.023134	0.048560	NaN	0.000000	0.001672	0.001737	28.0829	0.046368	0.002133	21.7374	-162.179	-170.292	-0.019475	1.021250	-0.213011	-0.214277	0.048560	21.7374	-0.214686	-228.279	-0.000213	NaN
1127	1.000000	1.032530	7.37608e+06	-56489.1	1055.82	-29738.7	0.000000	0.000000	7.033144	-0.034504	NaN	0.000000	0.001670	0.001712	28.0827	0.052133	0.001911	27.28	-36.1698	12.6531	-0.003904	1.031183	-0.202997	-0.204345	-0.034504	27.28	-0.202049	-142.337	0.000242	NaN
1127	1.000000	1.042544	7.37608e+06	-56489.1	1055.82	-29738.7	0.000000	0.000000	7.043161	0.019681	NaN	0.000000	0.001680	0.001719	28.0826	0.048063	0.002130	22.5626	-100.092	-163.404	0.007236	1.041232	-0.192983	-0.194295	0.019681	22.5626	-0.193637	-103.419	-0.000190	NaN
1127	1.000000	1.052528	7.37608e+06	-56489.1	1055.82	-29738.7	0.000000	0.000000	7.053142	-0.044962	NaN	0.000000	0.001675	0.001669	28.0829	0.026017	0.002014	12.9173	27.9149	14.8718	0.006458	1.051223	-0.182999	-0.184305	-0.044962	12.9173	-0.180389	-61.9549	0.000726	NaN
1127	1.000000	1.062555	7.37608e+06	-56489.1	1055.82	-29738.7	0.000000	0.000000	7.063170	-0.025507	NaN	0.000000	0.001646	0.001710	28.0827	0.034111	0.002120	16.093	90.1264	-165.522	-0.016233	1.061292	-0.172972	-0.174235	-0.025507	16.093	-0.171784	-44.1091	0.000578	NaN
1127	1.000000	1.072579	7.37608e+06	-56489.1	1055.82	-29738.7	0.000000	0.000000	7.073193	-0.027286	NaN	0.000000	0.001634	0.001683	28.0829	0.098367	0.001912	51.4393	121.718	11.6325	0.006447	1.071200	-0.162949	-0.164328	-0.027286	51.4393	-0.162551	-30.4212	0.000897	NaN
1127	1.000000	1.082582	7.37608e+06	-56489.1	1055.82	-29738.7	0.000000	0.000000	7.083197	-0.025539	NaN	0.000000	0.001627	0.001692	28.0827	0.010229	0.002120	4.824653	-0.620526	-164.636	0.017060	1.081256	-0.152945	-0.154272	-0.025539	4.824653	-0.148975	-17.3495	0.001472	NaN
1127	1.000000	1.092559	7.37608e+06	-56489.1	1055.82	-29738.7	0.000000	0.000000	7.093173	-0.050570	NaN	0.000000	0.001670	0.001713	28.0842	0.014703	0.001982	7.419021	35.9571	12.9149	-0.110461	1.091188	-0.142968	-0.144339	-0.050570	7.419021	-0.137856	-10.7784	0.004692	NaN
1127	1.000000	1.102560	7.37608e+06	-56489.1	1055.82	-29738.7	0.000000	0.000000	7.103175	-0.021516	NaN	0.000000	0.001634	0.001712	28.0839	0.011741	0.002052	5.721264	-43.1016	-165.837	-0.018265	1.101224	-0.132968	-0.134303	-0.021516	5.721264	-0.130147	-7.671315	0.002805	NaN
1127	1.000000	1.112584	7.37608e+06	-56489.1	1055.82	-29738.7	0.000000	0.000000	7.113199	-0.040133	NaN	0.000000	0.001666	0.001715	28.084	0.036835	0.001890	19.4852	95.3595	11.6841	0.023221	1.111194	-0.122943	-0.124333	-0.040133	19.4852	-0.121398	-5.154919	0.007785	NaN
1127	1.000000	1.122575	7.37608e+06	-56489.1	1055.82	-29738.7	0.000000	0.000000	7.123192	0.031136	NaN	0.000000	0.001649	0.001714	28.0838	0.018915	0.002005	9.436283	142.677	-164.868	0.051303	1.121272	-0.112952	-0.114256	0.031136	9.436283	-0.115427	-3.898456	-0.007987	NaN
1127	1.000000	1.132610	7.37608e+06	-56489.1	1055.82	-29738.7	0.000000	0.000000	7.133227	0.033950	NaN	0.000000	0.001652	0.001736	28.0841	0.004534	0.002002	2.264713	-63.2945	14.8557	-0.012588	1.131239	-0.102918	-0.104288	0.033950	2.264713	-0.114161	-3.670889	-0.009248	NaN
1127	1.000000	1.142585	7.37608e+06	-56489.1	1055.82	-29738.7	0.000000	0.000000	7.143201	-0.001120	NaN	0.000000	0.001673	0.001702	28.0838	0.095899	0.002177	44.0434	-156.213	-166.868	-0.004654	1.141255	-0.092943	-0.094272	-0.001120	44.0434	-0.092923	-1.264202	0.000886	NaN
1127	1.000000	1.152575	7.37608e+06	-56489.1	1055.82	-29738.7	0.000000	0.000000	7.153192	0.027292	NaN	0.000000	0.001673	0.001677	28.0839	0.090605	0.001952	46.4113	-32.7175	15.4267	0.019047	1.151236	-0.082952	-0.084291	0.027292	46.4113	-0.083393	-0.750909	-0.036345	NaN
1127	1.000000	1.162597	7.37608e+06	-56489.1	1055.82	-29738.7	0.000000	0.000000	7.163213	0.010846	NaN	0.000000	0.001696	0.001690	28.084	0.132059	0.002038	64.8047	178.681	-167.783	0.037640	1.161306	-0.072931	-0.074221	0.010846	64.8047	-0.073056	-0.411051	-0.026386	NaN
1127	1.000000	1.172598	7.37608e+06	-56489.1	1055.82	-29738.7	0.000000	0.000000	7.173214	-0.000482	NaN	0.000000	0.001721	0.001693	28.084	0.124138	0.002002	62.0096	117.47	17.6251	-0.041784	1.171241	-0.062930	-0.064286	-0.000482	62.0096	-0.062924	-0.218057	0.002211	NaN
1127	1.000000	1.182582	7.37608e+06	-56489.1	1055.82	-29738.7	0.000000	0.000000	7.183198	0.014265	NaN	0.000000	0.001710	0.001689	28.0838	0.079238	0.001831	43.2862	46.4776	-161.61	0.020714	1.181247	-0.052945	-0.054280	0.014265	43.2862	-0.053193	-0.113806	-0.125346	NaN
1127	1.000000	1.192586	7.37608e+06	-56489.1	1055.82	-29738.7	0.000000	0.000000	7.193199	-0.075138	NaN	0.000000	0.001728	0.001730	28.0838	0.065343	0.001935	33.7609	0.466205	12.2452	-0.085184	1.191207	-0.042941	-0.044321	-0.075138	33.7609	-0.041272	-0.049437	1.519875	NaN
1127	1.000000	1.202624	7.37608e+06	-56489.1	1055.82	-29738.7	0.000000	0.000000	7.203241	0.027849	NaN	0.000000	0.001711	0.001707	28.084	0.091450	0.001961	46.6259	24.5859	-167.888	-0.032433	1.201341	-0.032904	-0.034187	0.027849	46.6259	-0.033352	-0.028662	-0.971651	NaN
1127	1.000000	1.212597	7.37608e+06	-56489.1	1055.82	-29738.7	0.000000	0.000000	7.213213	0.001510	NaN	0.000000	0.001683	0.001707	28.0837	0.105919	0.002058	51.4667	-132.586	14.8795	-0.097774	1.211245	-0.022930	-0.024283	0.001510	51.4667	-0.022952	-0.014934	-0.101078	NaN
1127	1.000000	1.222619	7.37608e+06	-56489.1	1055.82	-29738.7	0.000000	0.000000	7.223236	0.020540	NaN	0.000000	0.001733	0.001689	28.0841	0.059502	0.001995	29.8256	69.8723	-165.321	-0.016392	1.221381	-0.012908	-0.014147	0.020540	29.8256	-0.013425	-0.008348	-2.460483	NaN
1127	1.000000	1.232616	7.37608e+06	-56489.1	1055.82	-29738.7	0.000000	0.000000	7.233228	-0.088828	NaN	0.000000	0.001696	0.001716	28.0827	0.020498	0.001921	10.6726	-179.505	13.8933	-0.084185	1.231274	-0.002912	-0.004253	-0.088828	10.6726	0.003330	0.002660	-33.395	189.065
1127	2.000000	1.240334	7.37608e+06	-56489.1	1055.82	-29738.7	0.000000	0.000000	7.241300	8.505430	NaN	0.000000	0.001646	0.001675	28.0829	9.115100	0.001709	5332.8	11.09	-174.666	8.308310	1.240021	0.004807	0.004493	8.505430	5332.8	0.003611	0.002901	2932.37	90466.9
1127	2.000000	1.242810	7.37608e+06	-56489.1	1055.82	-29738.7	0.000000	0.000000	7.243944	12.594	NaN	0.000000	0.001675	0.001647	28.0825	12.002	0.001681	7138.58	11.2995	3.373033	11.7751	1.242399	0.007282	0.006872	12.594	7138.58	0.005959	0.005026	2505.9	91999.3
1127	2.000000	1.245273	7.37608e+06	-56489.1	1055.82	-29738.7	0.000000	0.000000	7.246550	16.0758	NaN	0.000000	0.001650	0.001700	28.0825	15.0216	0.001687	8903.73	8.921500	-177.245	15.7078	1.244987	0.009745	0.009460	16.0758	8903.73	0.008391	0.007448	2158.42	94259.8
1127	2.000000	1.247733	7.37608e+06	-56489.1	1055.82	-29738.7	0.000000	0.000000	7.249263	22.2027	NaN	0.000000	0.001656	0.001685	28.0827	18.472	0.001803	10244.1	3.837424	6.336050	20.3845	1.247409	0.012206	0.011882	22.2027	10244.1	0.010581	0.009834	2257.79	94381.1
1127	2.000000	1.250216	7.37608e+06	-56489.1	1055.82	-29738.7	0.000000	0.000000	7.251960	27.4068	NaN	0.000000	0.001634	0.001732	28.0835	21.2068	0.001650	12850.3	8.793856	178.51	26.5967	1.249930	0.014689	0.014402	27.4068	12850.3	0.013089	0.012821	2137.61	103686
1127	2.000000	1.252746	7.37608e+06	-56489.1	1055.82	-29738.7	0.000000	0.000000	7.254773	34.317	NaN	0.000000	0.001643	0.001725	28.0826	23.312	0.001830	12741.9	7.521266	-0.236664	32.6928	1.252376	0.017218	0.016849	34.317	12741.9	0.015198	0.015551	2206.79	93354.4
1127	2.000000	1.255209	7.37608e+06	-56489.1	1055.82	-29738.7	0.000000	0.000000	7.257436	39.166	NaN	0.000000	0.001693	0.001738	28.083	25.0258	0.001728	14479.7	5.097221	-178.253	38.8219	1.254966	0.019681	0.019439	39.166	14479.7	0.017652	0.018987	2062.8	96008.1
1127	2.000000	1.257698	7.37608e+06	-56489.1	1055.82	-29738.7	0.000000	0.000000	7.260288	47.9985	NaN	0.000000	0.001641	0.001719	28.0826	27.779	0.001686	16480.3	-0.942966	7.834866	46.0465	1.257329	0.022170	0.021802	47.9985	16480.3	0.019986	0.022520	2131.34	100335
1127	2.000000	1.260254	7.37608e+06	-56489.1	1055.82	-29738.7	0.000000	0.000000	7.263060	53.2286	NaN	0.000000	0.001664	0.001698	28.0832	32.4759	0.001782	18228.4	4.215554	-178.989	53.5612	1.259907	0.024727	0.024380	53.2286	18228.4	0.022536	0.026686	1994.65	101949
1127	2.000000	1.262715	7.37608e+06	-56489.1	1055.82	-29738.7	0.000000	0.000000	7.266041	65.8766	NaN	0.000000	0.001645	0.001740	28.0824	34.6992	0.001817	19092.4	4.934465	0.570849	64.6208	1.262364	0.027187	0.026836	65.8766	19092.4	0.024600	0.030291	2174.77	100225
1127	2.000000	1.265141	7.37608e+06	-56489.1	1055.82	-29738.7	0.000000	0.000000	7.268698	71.4715	NaN	0.000000	0.001643	0.001711	28.083	37.0846	0.001746	21239.9	3.790361	179.646	67.0965	1.264851	0.029614	0.029323	71.4715	21239.9	0.027090	0.034929	2046.22	103833
1127	2.000000	1.267657	7.37608e+06	-56489.1	1055.82	-29738.7	0.000000	0.000000	7.271554	79.7483	NaN	0.000000	0.001621	0.001775	28.0828	40.1619	0.001700	23622.5	7.722317	-5.020875	74.7935	1.267321	0.032130	0.031793	79.7483	23622.5	0.029598	0.039914	1998.01	108028
1127	2.000000	1.270203	7.37608e+06	-56489.1	1055.82	-29738.7	0.000000	0.000000	7.274503	89.5546	NaN	0.000000	0.001620	0.001694	28.0852	43.7083	0.001811	24136.5	6.295674	176.426	86.7543	1.269910	0.034675	0.034382	89.5546	24136.5	0.031893	0.044758	2000.87	104235
1127	2.000000	1.272718	7.37608e+06	-56489.1	1055.82	-29738.7	0.000000	0.000000	7.277321	96.9145	NaN	0.000000	0.001651	0.001737	28.0838	44.9733	0.001688	26647.6	5.244112	-3.743614	94.1187	1.272374	0.037191	0.036846	96.9145	26647.6	0.034463	0.050504	1918.96	108335
1127	2.000000	1.275205	7.37608e+06	-56489.1	1055.82	-29738.7	0.000000	0.000000	7.280453	112.577	NaN	0.000000	0.001651	0.001763	28.0842	47.6983	0.001795	26571.4	4.288242	177.932	112.63	1.274898	0.039678	0.039370	112.577	26571.4	0.036500	0.055297	2035.86	103237
1127	2.000000	1.277661	7.37608e+06	-56489.1	1055.82	-29738.7	0.000000	0.000000	7.283262	121.173	NaN	0.000000	0.001657	0.001748	28.0843	50.7409	0.001745	29069.9	6.843709	-5.549261	118.045	1.277317	0.042134	0.041790	121.173	29069.9	0.039007	0.061488	1970.67	107108
1127	2.000000	1.280164	7.37608e+06	-56489.1	1055.82	-29738.7	0.000000	0.000000	7.286208	131.954	NaN	0.000000	0.001657	0.001736	28.0849	53.7612	0.001894	28380.8	6.883701	175.303	130.877	1.279841	0.044636	0.044314	131.954	28380.8	0.041149	0.067032	1968.53	100152
1127	2.000000	1.282659	7.37608e+06	-56489.1	1055.82	-29738.7	0.000000	0.000000	7.289374	148.251	NaN	0.000000	0.001655	0.001733	28.0837	54.5011	0.001841	29603.6	2.136774	-0.567706	144.188	1.282295	0.047132	0.046768	148.251	29603.6	0.043376	0.073044	2029.62	100075
1127	2.000000	1.285194	7.37608e+06	-56489.1	1055.82	-29738.7	0.000000	0.000000	7.292193	155.154	NaN	0.000000	0.001684	0.001714	28.0841	57.1602	0.001688	33859.6	4.233584	175.571	155.575	1.284807	0.049667	0.049279	155.154	33859.6	0.046230	0.081118	1912.69	108617
1127	2.000000	1.287610	7.37608e+06	-56489.1	1055.82	-29738.7	0.000000	0.000000	7.295197	169.44	NaN	0.000000	0.001653	0.001764	28.0838	59.9919	0.001867	32129.2	7.061924	-5.807658	163.888	1.287225	0.052083	0.051698	169.44	32129.2	0.048127	0.086713	1954.03	99685.1
1127	2.000000	1.290120	7.37608e+06	-56489.1	1055.82	-29738.7	0.000000	0.000000	7.298259	182.869	NaN	0.000000	0.001642	0.001742	28.0838	62.0013	0.001765	35118.8	2.180702	177.815	178.755	1.289826	0.054592	0.054299	182.869	35118.8	0.050687	0.094548	1934.15	104349
1127	2.000000	1.292705	7.37608e+06	-56489.1	1055.82	-29738.7	0.000000	0.000000	7.301562	200.304	NaN	0.000000	0.001630	0.001698	28.0837	63.2944	0.001810	34969.5	7.129630	-5.990656	198.132	1.292334	0.057178	0.056806	200.304	34969.5	0.052882	0.101528	1972.89	100270
1127	2.000000	1.295163	7.37608e+06	-56489.1	1055.82	-29738.7	0.000000	0.000000	7.304491	211.751	NaN	0.000000	0.001629	0.001714	28.0837	65.9881	0.001776	37146.2	3.989107	175.482	208.875	1.294900	0.059636	0.059373	211.751	37146.2	0.055360	0.109699	1930.3	102468
1127	2.000000	1.297580	7.37608e+06	-56489.1	1055.82	-29738.7	0.000000	0.000000	7.307426	224.36	NaN	0.000000	0.001604	0.001726	28.0839	70.3144	0.001795	39170.9	5.013181	-5.950529	219.19	1.297259	0.062052	0.061731	224.36	39170.9	0.057756	0.117886	1903.19	104233
1127	2.000000	1.300159	7.37608e+06	-56489.1	1055.82	-29738.7	0.000000	0.000000	7.310514	236.741	NaN	0.000000	0.001658	0.001727	28.0837	72.5736	0.001738	41767.6	6.894722	172.158	236.107	1.299745	0.064631	0.064218	236.741	41767.6	0.060380	0.127175	1861.54	107007
1127	2.000000	1.302699	7.37608e+06	-56489.1	1055.82	-29738.7	0.000000	0.000000	7.313669	251.684	NaN	0.000000	0.001614	0.001712	28.0834	74.8511	0.001813	41294.6	9.341728	-9.782637	249.941	1.302228	0.067171	0.066700	251.684	41294.6	0.062600	0.135297	1860.23	102571
1127	2.000000	1.305215	7.37608e+06	-56489.1	1055.82	-29738.7	0.000000	0.000000	7.316772	265.941	NaN	0.000000	0.001663	0.001735	28.0827	77.2959	0.001866	41428.3	9.369378	169.435	270.034	1.304801	0.069688	0.069273	265.941	41428.3	0.064873	0.143860	1848.61	99793
1127	2.000000	1.307654	7.37608e+06	-56489.1	1055.82	-29738.7	0.000000	0.000000	7.320012	285.434	NaN	0.000000	0.001630	0.001682	28.0863	78.7173	0.001723	45694.8	8.774854	-10.2365	283.858	1.307044	0.072126	0.071516	285.434	45694.8	0.067441	0.153835	1855.46	106442
1127	2.000000	1.310153	7.37608e+06	-56489.1	1055.82	-29738.7	0.000000	0.000000	7.323143	300.755	NaN	0.000000	0.001648	0.001700	28.0832	80.5377	0.001730	46541.5	5.277949	172.893	300.197	1.309831	0.074626	0.074304	300.755	46541.5	0.069779	0.163192	1842.95	105260
1127	2.000000	1.312702	7.37608e+06	-56489.1	1055.82	-29738.7	0.000000	0.000000	7.326502	320.453	NaN	0.000000	0.001601	0.001709	28.0827	82.9617	0.001871	44329.8	3.769856	-5.101613	319.112	1.312165	0.077175	0.076637	320.453	44329.8	0.071753	0.171293	1870.79	97858.8
1127	2.000000	1.315121	7.37608e+06	-56489.1	1055.82	-29738.7	0.000000	0.000000	7.329594	336.813	NaN	0.000000	0.001613	0.001726	28.0828	85.3366	0.001791	47651.3	2.653629	175.003	334.867	1.314820	0.079594	0.079293	336.813	47651.3	0.074292	0.181986	1850.76	102054
1127	2.000000	1.317662	7.37608e+06	-56489.1	1055.82	-29738.7	0.000000	0.000000	7.332751	351.794	NaN	0.000000	0.001634	0.001724	28.0827	88.3207	0.001901	46466.5	3.941711	-6.113293	350.674	1.317420	0.082135	0.081892	351.794	46466.5	0.076457	0.191341	1838.57	97053
1127	2.000000	1.320165	7.37608e+06	-56489.1	1055.82	-29738.7	0.000000	0.000000	7.336392	379.444	NaN	0.000000	0.001616	0.001718	28.0827	91.3525	0.001804	50635.8	7.798463	169.589	381.275	1.319739	0.084638	0.084212	379.444	50635.8	0.079018	0.202694	1872.01	102757
1127	2.000000	1.322591	7.37608e+06	-56489.1	1055.82	-29738.7	0.000000	0.000000	7.339570	397.733	NaN	0.000000	0.001646	0.001698	28.0824	92.2338	0.001736	53114.8	2.471961	-5.868339	391.952	1.322341	0.087064	0.086814	397.733	53114.8	0.081448	0.213747	1860.77	104964
1127	2.000000	1.325092	7.37608e+06	-56489.1	1055.82	-29738.7	0.000000	0.000000	7.342819	415.91	NaN	0.000000	0.001633	0.001732	28.0824	93.1491	0.001634	57000.7	-1.212655	177.604	412.251	1.324837	0.089565	0.089309	415.91	57000.7	0.084093	0.226092	1839.56	109524
1127	2.000000	1.327537	7.37608e+06	-56489.1	1055.82	-29738.7	0.000000	0.000000	7.346176	438.07	NaN	0.000000	0.001616	0.001703	28.0825	97.1135	0.001743	55722.5	3.950201	-7.594708	428.478	1.327166	0.092010	0.091639	438.07	55722.5	0.086113	0.235741	1858.27	104854
1127	2.000000	1.330121	7.37608e+06	-56489.1	1055.82	-29738.7	0.000000	0.000000	7.349419	454.092	NaN	0.000000	0.001624	0.001710	28.0824	100.063	0.001679	59609.6	1.003354	175.122	451.565	1.329879	0.094593	0.094351	454.092	59609.6	0.088880	0.249258	1821.77	109085
1127	2.000000	1.332562	7.37608e+06	-56489.1	1055.82	-29738.7	0.000000	0.000000	7.352961	480.848	NaN	0.000000	0.001614	0.001694	28.0826	102.499	0.001814	56510.6	6.270568	-9.661309	471.851	1.332246	0.097035	0.096718	480.848	56510.6	0.090653	0.258104	1863	101626
1127	2.000000	1.335001	7.37608e+06	-56489.1	1055.82	-29738.7	0.000000	0.000000	7.356466	506.776	NaN	0.000000	0.001650	0.001687	28.0825	104.122	0.001673	62224.8	4.670626	171.276	499.571	1.334722	0.099474	0.099195	506.776	62224.8	0.093366	0.271918	1863.71	109023
1127	2.000000	1.337580	7.37608e+06	-56489.1	1055.82	-29738.7	0.000000	0.000000	7.359827	525.771	NaN	0.000000	0.001641	0.001703	28.0829	108.069	0.001737	62209.5	6.999093	-11.2645	521.572	1.337293	0.102053	0.101766	525.771	62209.5	0.095714	0.284150	1850.33	106624
1127	2.000000	1.338039	7.37608e+06	-56489.1	1055.82	-29738.7	0.000000	0.000000	7.360626	534.047	NaN	0.000000	0.001629	0.001720	28.0838	108.693	0.001756	61900.2	10.1439	165.99	529.074	1.337681	0.102512	0.102154	534.047	61900.2	0.096041	0.285872	1868.14	105774