File: remote_trans/data/nanoindenter/0828-1/data/Data_2025-08-06,11h17m57s/2025-07-22_16-23-58_1_327.txt
2025-07-22, 16:23:58, 1
Index	Phase	Displacement	Time	Pos X	Pos Y	Pos Z	Rot A	Rot B	Piezo Z	Force A	Force B	Gripper	Voltage A	Voltage B	Temperature	Amplitude force	Amplitude pos	Stiffness	Phase shift	Phase excitation	Force A raw	Displacement raw	HMax	HMax raw	Real Force	Real Stiffness	Contact Depth	Area	Hardness	Reduced Mod.
[#]	[#]	[um]	[s]	[um]	[um]	[um]	[m°]	[m°]	[um]	[uN]	[uN]	[V]	[V]	[V]	[°C]	[uN]	[um]	[N/m]	[°]	[°]	[uN]	[um]	[um]	[um]	[uN]	[N/m]	[um]	[um^2]	[MPa]	[MPa]
327	1.000000	0.002801	7.36826e+06	-54989.1	955.819	-29742.7	0.000000	0.000000	6.002780	-0.026212	NaN	0.000000	0.001590	0.001604	28.0807	0.160908	0.000955	168.424	-169.03	-162.323	-0.033336	0.001576	-1.153990	-1.155214	-0.026212	168.424	-1.153873	-2.646904E+15	9.902827E-18	NaN
327	1.000000	0.012892	7.36826e+06	-54989.1	955.818	-29742.7	0.000000	0.000000	6.012872	-4.349827E-5	NaN	0.000000	0.001599	0.001594	28.0807	0.110381	0.001332	82.8778	168.345	17.7586	-0.050047	0.011451	-1.143899	-1.145339	-4.349827E-5	82.8778	-1.143898	-1.945411E+15	2.235943E-20	NaN
327	1.000000	0.022788	7.36826e+06	-54989.1	955.82	-29742.7	0.000000	0.000000	6.022769	0.034906	NaN	0.000000	0.001602	0.001650	28.0803	0.063725	0.001626	39.1989	-118.362	-164.5	0.052053	0.021443	-1.134003	-1.135347	0.034906	39.1989	-1.134670	-1.463068E+15	-2.385806E-17	NaN
327	1.000000	0.032801	7.36826e+06	-54989.1	955.818	-29742.7	0.000000	0.000000	6.032780	-0.025566	NaN	0.000000	0.001610	0.001648	28.0807	0.054541	0.001942	28.089	13.4929	16.8211	0.011866	0.031384	-1.123990	-1.125406	-0.025566	28.089	-1.123307	-1.030001E+15	2.482140E-17	NaN
327	1.000000	0.042814	7.36826e+06	-54989.1	955.819	-29742.7	0.000000	0.000000	6.042794	0.007312	NaN	0.000000	0.001614	0.001659	28.0807	0.104905	0.001913	54.8355	-96.9329	-167.945	-0.006934	0.041448	-1.113976	-1.115342	0.007312	54.8355	-1.114076	-7.744432E+14	-9.442146E-18	NaN
327	1.000000	0.052791	7.36826e+06	-54989.1	955.819	-29742.7	0.000000	0.000000	6.052768	-0.060623	NaN	0.000000	0.001584	0.001642	28.08	0.083568	0.001912	43.6963	-51.6978	14.8271	-0.022400	0.051403	-1.103999	-1.105387	-0.060623	43.6963	-1.102959	-5.492703E+14	1.103702E-16	NaN
327	1.000000	0.062784	7.36826e+06	-54989.1	955.818	-29742.7	0.000000	0.000000	6.062764	0.012068	NaN	0.000000	0.001596	0.001677	28.0792	0.041651	0.001936	21.5145	-75.8733	-165.654	0.058733	0.061396	-1.094007	-1.095394	0.012068	21.5145	-1.094427	-4.219444E+14	-2.860073E-17	NaN
327	1.000000	0.072776	7.36826e+06	-54989.1	955.819	-29742.7	0.000000	0.000000	6.072753	-0.074959	NaN	0.000000	0.001591	0.001680	28.0792	0.092207	0.002017	45.7199	-120.494	15.9202	-0.039438	0.071420	-1.084014	-1.085370	-0.074959	45.7199	-1.082785	-2.943858E+14	2.546296E-16	NaN
327	1.000000	0.082767	7.36826e+06	-54989.1	955.818	-29742.7	0.000000	0.000000	6.082748	0.026043	NaN	0.000000	0.001569	0.001659	28.0793	0.031401	0.001951	16.0965	-70.4082	-167.094	-0.036128	0.081477	-1.074023	-1.075313	0.026043	16.0965	-1.075237	-2.330972E+14	-1.117269E-16	NaN
327	1.000000	0.092788	7.36826e+06	-54989.1	955.817	-29742.7	0.000000	0.000000	6.092770	0.052481	NaN	0.000000	0.001604	0.001670	28.0792	0.037066	0.001967	18.8421	101.954	15.4188	-0.018224	0.091445	-1.064002	-1.065345	0.052481	18.8421	-1.066091	-1.756598E+14	-2.987650E-16	NaN
327	1.000000	0.102777	7.36826e+06	-54989.1	955.818	-29742.7	0.000000	0.000000	6.102759	0.047382	NaN	0.000000	0.001616	0.001661	28.0795	0.044439	0.001909	23.2735	148.436	-168.278	-0.013384	0.101513	-1.054013	-1.055277	0.047382	23.2735	-1.055540	-1.267299E+14	-3.738811E-16	NaN
327	1.000000	0.112796	7.36826e+06	-54989.1	955.818	-29742.7	0.000000	0.000000	6.112778	0.051026	NaN	0.000000	0.001627	0.001670	28.0793	0.140990	0.002091	67.4365	151.34	14.0093	0.028276	0.111452	-1.043994	-1.045338	0.051026	67.4365	-1.044562	-9.021967E+13	-5.655770E-16	NaN
327	1.000000	0.122800	7.36826e+06	-54989.1	955.819	-29742.7	0.000000	0.000000	6.122779	-0.015920	NaN	0.000000	0.001634	0.001687	28.0791	0.068529	0.002121	32.3129	-170.123	-167.24	0.011788	0.121519	-1.033990	-1.035271	-0.015920	32.3129	-1.033621	-6.429572E+13	2.476072E-16	NaN
327	1.000000	0.132774	7.36826e+06	-54989.1	955.819	-29742.7	0.000000	0.000000	6.132755	0.016087	NaN	0.000000	0.001621	0.001714	28.0789	0.108412	0.002037	53.2164	146.891	18.5572	-0.012884	0.131500	-1.024016	-1.025290	0.016087	53.2164	-1.024243	-4.808832E+13	-3.345319E-16	NaN
327	1.000000	0.142798	7.36826e+06	-54989.1	955.818	-29742.7	0.000000	0.000000	6.142775	-0.070999	NaN	0.000000	0.001627	0.001723	28.0791	0.060337	0.001883	32.0354	109.583	-168.74	0.024017	0.141473	-1.013993	-1.015317	-0.070999	32.0354	-1.012330	-3.324653E+13	2.135539E-15	NaN
327	1.000000	0.152803	7.36826e+06	-54989.1	955.819	-29742.7	0.000000	0.000000	6.152782	-0.020561	NaN	0.000000	0.001609	0.001703	28.079	0.120275	0.001939	62.0394	-149.724	15.1072	0.085385	0.151446	-1.003987	-1.005344	-0.020561	62.0394	-1.003739	-2.547441E+13	8.071224E-16	NaN
327	1.000000	0.162837	7.36826e+06	-54989.1	955.819	-29742.7	0.000000	0.000000	6.162814	-0.071280	NaN	0.000000	0.001616	0.001691	28.0792	0.098709	0.001898	51.995	11.2639	-168.155	-0.075801	0.161533	-0.993953	-0.995257	-0.071280	51.995	-0.992925	-1.821805E+13	3.912582E-15	NaN
327	1.000000	0.172817	7.36826e+06	-54989.1	955.819	-29742.7	0.000000	0.000000	6.172798	0.025527	NaN	0.000000	0.001619	0.001692	28.079	0.109503	0.002036	53.7961	174.448	17.808	0.023230	0.171452	-0.983973	-0.985338	0.025527	53.7961	-0.984329	-1.395503E+13	-1.829232E-15	NaN
327	1.000000	0.182836	7.36826e+06	-54989.1	955.818	-29742.7	0.000000	0.000000	6.182815	-0.010497	NaN	0.000000	0.001606	0.001686	28.0792	0.171810	0.001936	88.7272	172.166	-168.101	0.028033	0.181488	-0.973954	-0.975302	-0.010497	88.7272	-0.973866	-1.008690E+13	1.040694E-15	NaN
327	1.000000	0.192834	7.36826e+06	-54989.1	955.818	-29742.7	0.000000	0.000000	6.192810	-0.109886	NaN	0.000000	0.001611	0.001669	28.0803	0.064267	0.001978	32.4847	-174.022	12.0943	-0.126140	0.191440	-0.963956	-0.965351	-0.109886	32.4847	-0.961419	-6.854834E+12	1.603046E-14	NaN
327	1.000000	0.202814	7.36826e+06	-54989.1	955.818	-29742.7	0.000000	0.000000	6.202793	-0.050292	NaN	0.000000	0.001594	0.001652	28.0802	0.068270	0.001996	34.2072	-151.051	-166.13	-0.067927	0.201467	-0.953976	-0.955323	-0.050292	34.2072	-0.952873	-5.257434E+12	9.565941E-15	NaN
327	1.000000	0.212823	7.36826e+06	-54989.1	955.818	-29742.7	0.000000	0.000000	6.212802	-0.008906	NaN	0.000000	0.001615	0.001668	28.0802	0.073960	0.001998	37.0157	-48.1972	9.917586	0.055571	0.211429	-0.943968	-0.945361	-0.008906	37.0157	-0.943787	-3.964852E+12	2.246251E-15	NaN
327	1.000000	0.222824	7.36826e+06	-54989.1	955.82	-29742.7	0.000000	0.000000	6.222804	0.010517	NaN	0.000000	0.001629	0.001683	28.0804	0.014709	0.001928	7.627466	-90.7428	-166.183	-0.049140	0.221523	-0.933966	-0.935267	0.010517	7.627466	-0.935000	-3.017720E+12	-3.485011E-15	NaN
327	1.000000	0.232850	7.36826e+06	-54989.1	955.819	-29742.7	0.000000	0.000000	6.232826	-0.118990	NaN	0.000000	0.001604	0.001650	28.0801	0.089270	0.002157	41.3781	143.953	17.6264	-0.010738	0.231505	-0.923940	-0.925285	-0.118990	41.3781	-0.921783	-2.001156E+12	5.946048E-14	NaN
327	1.000000	0.242833	7.36826e+06	-54989.1	955.819	-29742.7	0.000000	0.000000	6.242814	0.012423	NaN	0.000000	0.001616	0.001655	28.0801	0.067354	0.001962	34.3293	83.9599	-168.586	0.067483	0.241512	-0.913957	-0.915279	0.012423	34.3293	-0.914228	-1.582223E+12	-7.851821E-15	NaN
327	1.000000	0.252846	7.36826e+06	-54989.1	955.818	-29742.7	0.000000	0.000000	6.252826	-0.019425	NaN	0.000000	0.001615	0.001711	28.0801	0.046119	0.002004	23.0168	133.145	13.8436	0.035459	0.251549	-0.903944	-0.905241	-0.019425	23.0168	-0.903311	-1.126680E+12	1.724087E-14	NaN
327	1.000000	0.262842	7.36826e+06	-54989.1	955.82	-29742.7	0.000000	0.000000	6.262820	-0.031449	NaN	0.000000	0.001600	0.001649	28.0804	0.056736	0.001988	28.5403	72.7092	-165.632	-0.039897	0.261543	-0.893949	-0.895247	-0.031449	28.5403	-0.893122	-8.205735E+11	3.832509E-14	NaN
327	1.000000	0.272862	7.36826e+06	-54989.1	955.818	-29742.7	0.000000	0.000000	6.272840	-0.055985	NaN	0.000000	0.001597	0.001712	28.0802	0.050010	0.001856	26.9403	-97.2443	15.1747	-0.062214	0.271529	-0.883928	-0.885261	-0.055985	26.9403	-0.882369	-5.871491E+11	9.535028E-14	NaN
327	1.000000	0.282845	7.36826e+06	-54989.1	955.819	-29742.7	0.000000	0.000000	6.282825	-0.016078	NaN	0.000000	0.001600	0.001709	28.0803	0.122587	0.002048	59.8516	141.73	-162.991	-0.030172	0.281614	-0.873945	-0.875177	-0.016078	59.8516	-0.873744	-4.488373E+11	3.582072E-14	NaN
327	1.000000	0.292893	7.36826e+06	-54989.1	955.818	-29742.7	0.000000	0.000000	6.292875	0.032112	NaN	0.000000	0.001591	0.001734	28.0802	0.047111	0.001959	24.0525	-87.7429	14.0573	0.041988	0.291483	-0.863897	-0.865307	0.032112	24.0525	-0.864898	-3.407313E+11	-9.424413E-14	NaN
327	1.000000	0.302875	7.36826e+06	-54989.1	955.82	-29742.7	0.000000	0.000000	6.302854	-0.038109	NaN	0.000000	0.001607	0.001682	28.0802	0.092870	0.001964	47.2961	-56.7678	-168.165	0.036999	0.301567	-0.853915	-0.855223	-0.038109	47.2961	-0.853311	-2.374459E+11	1.604956E-13	NaN
327	1.000000	0.312866	7.36826e+06	-54989.1	955.82	-29742.7	0.000000	0.000000	6.312845	-0.024969	NaN	0.000000	0.001597	0.001682	28.0801	0.064740	0.002059	31.4402	121.297	11.0883	0.034169	0.311527	-0.843924	-0.845263	-0.024969	31.4402	-0.843328	-1.739327E+11	1.435559E-13	NaN
327	1.000000	0.322879	7.36826e+06	-54989.1	955.82	-29742.7	0.000000	0.000000	6.322857	-0.042578	NaN	0.000000	0.001670	0.001661	28.0802	0.060379	0.002047	29.4899	-113.555	-167.441	-0.084378	0.321586	-0.833912	-0.835204	-0.042578	29.4899	-0.832829	-1.253494E+11	3.396756E-13	NaN
327	1.000000	0.332902	7.36826e+06	-54989.1	955.82	-29742.7	0.000000	0.000000	6.332879	-0.082909	NaN	0.000000	0.001677	0.001649	28.0789	0.077125	0.002016	38.2503	126.298	13.9642	0.020198	0.331527	-0.823888	-0.825264	-0.082909	38.2503	-0.822263	-9.013484E+10	9.198293E-13	NaN
327	1.000000	0.342886	7.36826e+06	-54989.1	955.819	-29742.7	0.000000	0.000000	6.342863	-0.075338	NaN	0.000000	0.001696	0.001696	28.079	0.025098	0.001949	12.8753	-63.8951	-166.424	-0.097350	0.341599	-0.813904	-0.815192	-0.075338	12.8753	-0.809516	-6.053435E+10	1.244548E-12	NaN
327	1.000000	0.352863	7.36826e+06	-54989.1	955.819	-29742.7	0.000000	0.000000	6.352842	-0.008395	NaN	0.000000	0.001644	0.001668	28.0789	0.057043	0.001872	30.4795	-55.1683	13.036	-0.045127	0.351508	-0.803928	-0.805282	-0.008395	30.4795	-0.803721	-5.050885E+10	1.662024E-13	NaN
327	1.000000	0.362903	7.36826e+06	-54989.1	955.818	-29742.7	0.000000	0.000000	6.362882	-0.026687	NaN	0.000000	0.001702	0.001674	28.0801	0.087739	0.002075	42.2885	-4.446554	-164.435	-0.005875	0.361597	-0.793887	-0.795194	-0.026687	42.2885	-0.793413	-3.659651E+10	7.292172E-13	NaN
327	1.000000	0.372886	7.36826e+06	-54989.1	955.818	-29742.7	0.000000	0.000000	6.372865	-0.018761	NaN	0.000000	0.001703	0.001681	28.0793	0.060349	0.002026	29.7835	70.0447	15.8179	-0.052213	0.371559	-0.783905	-0.785231	-0.018761	29.7835	-0.783432	-2.678341E+10	7.004673E-13	NaN
327	1.000000	0.382873	7.36826e+06	-54989.1	955.817	-29742.7	0.000000	0.000000	6.382854	0.021325	NaN	0.000000	0.001749	0.001679	28.079	0.061114	0.002077	29.4236	-49.8994	-165.151	0.013032	0.381601	-0.773917	-0.775190	0.021325	29.4236	-0.774460	-2.022758E+10	-1.054274E-12	NaN
327	1.000000	0.392904	7.36826e+06	-54989.1	955.819	-29742.7	0.000000	0.000000	6.392881	-0.074998	NaN	0.000000	0.001740	0.001645	28.0792	0.061752	0.002127	29.032	148.243	10.7959	0.026414	0.391555	-0.763886	-0.765236	-0.074998	29.032	-0.761949	-1.367149E+10	5.485726E-12	NaN
327	1.000000	0.402931	7.36826e+06	-54989.1	955.819	-29742.7	0.000000	0.000000	6.402908	-0.073982	NaN	0.000000	0.001683	0.001656	28.079	0.157402	0.001894	83.1001	-109.095	-168.126	-0.062709	0.401610	-0.753859	-0.755180	-0.073982	83.1001	-0.753191	-1.039098E+10	7.119810E-12	NaN
327	1.000000	0.412930	7.36826e+06	-54989.1	955.819	-29742.7	0.000000	0.000000	6.412908	-0.046960	NaN	0.000000	0.001686	0.001678	28.0794	0.050670	0.002027	25.0001	-175.254	12.8388	-0.062175	0.411584	-0.743860	-0.745206	-0.046960	25.0001	-0.742451	-7.420668E+9	6.328310E-12	NaN
327	1.000000	0.422974	7.36826e+06	-54989.1	955.819	-29742.7	0.000000	0.000000	6.422953	-0.027688	NaN	0.000000	0.001661	0.001688	28.0788	0.067881	0.002028	33.4674	-7.303700	-164.667	-0.060427	0.421664	-0.733816	-0.735126	-0.027688	33.4674	-0.733196	-5.550850E+9	4.988108E-12	NaN
327	1.000000	0.432905	7.36826e+06	-54989.1	955.818	-29742.7	0.000000	0.000000	6.432883	-0.063321	NaN	0.000000	0.001669	0.001659	28.0791	0.027509	0.001994	13.7951	80.0527	12.8136	-0.093896	0.431611	-0.723885	-0.725180	-0.063321	13.7951	-0.720442	-3.719698E+9	1.702320E-11	NaN
327	1.000000	0.442956	7.36826e+06	-54989.1	955.819	-29742.7	0.000000	0.000000	6.442936	-0.001226	NaN	0.000000	0.001682	0.001657	28.0791	0.025795	0.002089	12.3509	-69.9037	-165.171	-0.052483	0.441645	-0.713834	-0.715145	-0.001226	12.3509	-0.713760	-3.015433E+9	4.066587E-13	NaN
327	1.000000	0.452924	7.36826e+06	-54989.1	955.818	-29742.7	0.000000	0.000000	6.452905	0.030682	NaN	0.000000	0.001682	0.001687	28.0792	0.121779	0.002002	60.8221	162.617	16.978	-0.008053	0.451575	-0.703867	-0.705215	0.030682	60.8221	-0.704245	-2.236108E+9	-1.372131E-11	NaN
327	1.000000	0.462962	7.36827e+06	-54989.1	955.82	-29742.7	0.000000	0.000000	6.462943	0.041616	NaN	0.000000	0.001661	0.001677	28.0799	0.094543	0.001916	49.3534	76.4696	-169.809	0.094320	0.461606	-0.693829	-0.695184	0.041616	49.3534	-0.694461	-1.643897E+9	-2.531524E-11	NaN
327	1.000000	0.472930	7.36827e+06	-54989.1	955.819	-29742.7	0.000000	0.000000	6.472909	-0.015301	NaN	0.000000	0.001663	0.001685	28.0804	0.157346	0.002064	76.2466	176.95	11.6963	-0.079077	0.471613	-0.683861	-0.685177	-0.015301	76.2466	-0.683710	-1.172032E+9	1.305522E-11	NaN
327	1.000000	0.482947	7.36827e+06	-54989.1	955.819	-29742.7	0.000000	0.000000	6.482926	-0.016653	NaN	0.000000	0.001673	0.001668	28.0804	0.097595	0.001957	49.8754	70.6958	-166.778	0.013624	0.481691	-0.673843	-0.675099	-0.016653	49.8754	-0.673593	-8.522360E+8	1.954008E-11	NaN
327	1.000000	0.492955	7.36827e+06	-54989.1	955.819	-29742.7	0.000000	0.000000	6.492938	0.075508	NaN	0.000000	0.001649	0.001654	28.0804	0.057880	0.002122	27.2706	101.757	9.951526	0.024929	0.491573	-0.663835	-0.665217	0.075508	27.2706	-0.665912	-6.690057E+8	-1.128660E-10	NaN
327	1.000000	0.502958	7.36827e+06	-54989.1	955.819	-29742.7	0.000000	0.000000	6.502938	0.014802	NaN	0.000000	0.001669	0.001618	28.0804	0.089495	0.002103	42.5537	-146.735	-165.792	-0.108388	0.501671	-0.653833	-0.655119	0.014802	42.5537	-0.654094	-4.608348E+8	-3.211910E-11	NaN
327	1.000000	0.512953	7.36827e+06	-54989.1	955.818	-29742.7	0.000000	0.000000	6.512932	-0.013176	NaN	0.000000	0.001630	0.001630	28.0805	0.038981	0.001987	19.6185	68.6959	11.9358	0.004645	0.511585	-0.643838	-0.645206	-0.013176	19.6185	-0.643334	-3.281163E+8	4.015578E-11	NaN
327	1.000000	0.522974	7.36827e+06	-54989.1	955.818	-29742.7	0.000000	0.000000	6.522953	-0.040422	NaN	0.000000	0.001685	0.001643	28.0806	0.102643	0.002116	48.5094	3.529989	-167.456	-0.052507	0.521640	-0.633816	-0.635150	-0.040422	48.5094	-0.633191	-2.381437E+8	1.697369E-10	NaN
327	1.000000	0.532970	7.36827e+06	-54989.1	955.819	-29742.7	0.000000	0.000000	6.532953	0.058578	NaN	0.000000	0.001709	0.001656	28.0803	0.097604	0.002052	47.566	-10.0541	14.9572	0.140190	0.531602	-0.623820	-0.625188	0.058578	47.566	-0.624744	-1.823154E+8	-3.213016E-10	NaN
327	1.000000	0.542977	7.36827e+06	-54989.1	955.819	-29742.7	0.000000	0.000000	6.542957	-0.021994	NaN	0.000000	0.001702	0.001651	28.0801	0.074958	0.001990	37.6583	-135.509	-168.579	-0.090332	0.541663	-0.613813	-0.615127	-0.021994	37.6583	-0.613375	-1.272155E+8	1.728857E-10	NaN
327	1.000000	0.553006	7.36827e+06	-54989.1	955.818	-29742.7	0.000000	0.000000	6.552987	0.004932	NaN	0.000000	0.001760	0.001703	28.0807	0.080631	0.001911	42.1901	154.644	12.0899	0.048044	0.551654	-0.603784	-0.605136	0.004932	42.1901	-0.603872	-9.413957E+7	-5.239215E-11	NaN
327	1.000000	0.562986	7.36827e+06	-54989.1	955.818	-29742.7	0.000000	0.000000	6.562962	-0.087366	NaN	0.000000	0.001682	0.001719	28.0804	0.053074	0.002056	25.8179	-45.1936	-167.516	-0.008298	0.561701	-0.593804	-0.595090	-0.087366	25.8179	-0.591266	-6.311399E+7	1.384249E-9	NaN
327	1.000000	0.572987	7.36827e+06	-54989.1	955.818	-29742.7	0.000000	0.000000	6.572964	-0.081630	NaN	0.000000	0.001680	0.001658	28.0803	0.018886	0.001892	9.983783	101.474	14.4326	0.006900	0.571607	-0.583803	-0.585184	-0.081630	9.983783	-0.577671	-4.098016E+7	1.991948E-9	NaN
327	1.000000	0.583021	7.36827e+06	-54989.1	955.818	-29742.7	0.000000	0.000000	6.583000	-0.014574	NaN	0.000000	0.001709	0.001655	28.0803	0.014937	0.001982	7.538110	-30.7912	-164.006	-0.016702	0.581724	-0.573769	-0.575066	-0.014574	7.538110	-0.572319	-3.456806E+7	4.216164E-10	NaN
327	1.000000	0.593010	7.36827e+06	-54989.1	955.819	-29742.7	0.000000	0.000000	6.592991	0.021574	NaN	0.000000	0.001676	0.001632	28.0807	0.072469	0.001991	36.4036	109.2	13.5119	-0.001246	0.591640	-0.563780	-0.565151	0.021574	36.4036	-0.564225	-2.671832E+7	-8.074639E-10	NaN
327	1.000000	0.603020	7.36827e+06	-54989.1	955.818	-29742.7	0.000000	0.000000	6.603001	0.014346	NaN	0.000000	0.001676	0.001656	28.0791	0.038965	0.001937	20.1116	70.9155	-164.006	-0.006428	0.601694	-0.553770	-0.555096	0.014346	20.1116	-0.554305	-1.947915E+7	-7.364894E-10	NaN
327	1.000000	0.613018	7.36827e+06	-54989.1	955.819	-29742.7	0.000000	0.000000	6.612996	-0.049020	NaN	0.000000	0.001692	0.001672	28.0793	0.092525	0.002140	43.2454	115.792	14.1026	-0.029417	0.611621	-0.543772	-0.545169	-0.049020	43.2454	-0.542922	-1.354800E+7	3.618213E-9	NaN
327	1.000000	0.623022	7.36827e+06	-54989.1	955.818	-29742.7	0.000000	0.000000	6.623000	-0.056353	NaN	0.000000	0.001712	0.001668	28.0792	0.091325	0.001982	46.0738	124.396	-166.188	-0.060653	0.621679	-0.533768	-0.535111	-0.056353	46.0738	-0.532851	-9.82112e+06	5.737984E-9	NaN
327	1.000000	0.633049	7.36827e+06	-54989.1	955.818	-29742.7	0.000000	0.000000	6.633025	-0.098658	NaN	0.000000	0.001695	0.001660	28.0794	0.109757	0.002077	52.8466	163.014	12.4945	-0.050453	0.631594	-0.523742	-0.525196	-0.098658	52.8466	-0.522341	-7.01708e+06	1.405973E-8	NaN
327	1.000000	0.643001	7.36827e+06	-54989.1	955.817	-29742.7	0.000000	0.000000	6.642980	-0.027489	NaN	0.000000	0.001684	0.001649	28.079	0.122748	0.001997	61.4762	-179.639	-163.54	-0.056033	0.641701	-0.513789	-0.515089	-0.027489	61.4762	-0.513454	-5.27848e+06	5.207750E-9	NaN
327	1.000000	0.653016	7.36827e+06	-54989.1	955.818	-29742.7	0.000000	0.000000	6.652997	0.038470	NaN	0.000000	0.001698	0.001679	28.079	0.110354	0.002071	53.2795	130.391	13.5006	-0.020732	0.651664	-0.503775	-0.505126	0.038470	53.2795	-0.504316	-3.93743e+06	-9.770273E-9	NaN
327	1.000000	0.663040	7.36827e+06	-54989.1	955.818	-29742.7	0.000000	0.000000	6.663018	-0.039024	NaN	0.000000	0.001668	0.001677	28.079	0.094542	0.001908	49.5475	39.4838	-163.326	0.002668	0.661684	-0.493751	-0.495106	-0.039024	49.5475	-0.493160	-2.7513e+06	1.418376E-8	NaN
327	1.000000	0.673014	7.36827e+06	-54989.1	955.819	-29742.7	0.000000	0.000000	6.672991	-0.064818	NaN	0.000000	0.001691	0.001688	28.0791	0.105363	0.001942	54.2585	158.269	13.6074	-0.052942	0.671673	-0.483776	-0.485117	-0.064818	54.2585	-0.482880	-1.97623e+06	3.279891E-8	NaN
327	1.000000	0.683043	7.36827e+06	-54989.1	955.818	-29742.7	0.000000	0.000000	6.683020	-0.083099	NaN	0.000000	0.001682	0.001679	28.079	0.121731	0.001938	62.82	96.9613	-163.949	-0.116361	0.681748	-0.473747	-0.475043	-0.083099	62.82	-0.472755	-1.42574e+06	5.828450E-8	NaN
327	1.000000	0.693042	7.36827e+06	-54989.1	955.819	-29742.7	0.000000	0.000000	6.693018	-0.089030	NaN	0.000000	0.001700	0.001699	28.079	0.151921	0.001944	78.1496	147.456	14.727	-0.087545	0.691679	-0.463748	-0.465111	-0.089030	78.1496	-0.462894	-1.03675e+06	8.587412E-8	NaN
327	1.000000	0.703075	7.36827e+06	-54989.1	955.818	-29742.7	0.000000	0.000000	6.703056	0.000335	NaN	0.000000	0.001680	0.001677	28.0791	0.076104	0.001955	38.9306	141.293	-167.666	0.010656	0.701728	-0.453715	-0.455062	0.000335	38.9306	-0.453721	-770416	-4.342958E-10	NaN
327	1.000000	0.713025	7.36827e+06	-54989.1	955.817	-29742.7	0.000000	0.000000	6.713001	-0.089279	NaN	0.000000	0.001651	0.001656	28.0789	0.082058	0.001988	41.2785	121.695	12.5445	-0.122807	0.711693	-0.443766	-0.445097	-0.089279	41.2785	-0.442144	-529188	1.687103E-7	NaN
327	1.000000	0.723042	7.36827e+06	-54989.1	955.819	-29742.7	0.000000	0.000000	6.723021	-0.040487	NaN	0.000000	0.001661	0.001650	28.0788	0.030572	0.001945	15.7206	-158.32	-163.891	-0.078018	0.721699	-0.433748	-0.435091	-0.040487	15.7206	-0.431816	-378224	1.070461E-7	NaN
327	1.000000	0.733053	7.36827e+06	-54989.1	955.819	-29742.7	0.000000	0.000000	6.733032	-0.037169	NaN	0.000000	0.001686	0.001672	28.0789	0.080081	0.001991	40.2195	-40.45	14.0316	-0.128629	0.731666	-0.423737	-0.425124	-0.037169	40.2195	-0.423044	-284162	1.308036E-7	NaN
327	1.000000	0.743076	7.36827e+06	-54989.1	955.82	-29742.7	0.000000	0.000000	6.743055	-0.043135	NaN	0.000000	0.001654	0.001663	28.0803	0.040893	0.002070	19.7586	174.989	-164.013	-0.057891	0.741712	-0.413714	-0.415078	-0.043135	19.7586	-0.412077	-198575	2.172237E-7	NaN
327	1.000000	0.753061	7.36827e+06	-54989.1	955.818	-29742.7	0.000000	0.000000	6.753039	-0.054750	NaN	0.000000	0.001664	0.001678	28.0802	0.122027	0.002133	57.2071	159.493	14.0899	-0.057266	0.751763	-0.403729	-0.405027	-0.054750	57.2071	-0.403011	-147544	3.710739E-7	NaN
327	1.000000	0.763075	7.36827e+06	-54989.1	955.819	-29742.7	0.000000	0.000000	6.763053	-0.051316	NaN	0.000000	0.001660	0.001684	28.0803	0.062152	0.002124	29.2614	-179.108	-165.095	-0.026969	0.761744	-0.393715	-0.395046	-0.051316	29.2614	-0.392400	-104108	4.929143E-7	NaN
327	1.000000	0.773077	7.36827e+06	-54989.1	955.819	-29742.7	0.000000	0.000000	6.773056	-0.011758	NaN	0.000000	0.001652	0.001674	28.0803	0.059090	0.001944	30.3967	-156.082	12.3632	-0.045560	0.771719	-0.383714	-0.385071	-0.011758	30.3967	-0.383423	-77444.9	1.518239E-7	NaN
327	1.000000	0.783121	7.36827e+06	-54989.1	955.819	-29742.7	0.000000	0.000000	6.783096	-0.110182	NaN	0.000000	0.001690	0.001702	28.0802	0.060305	0.001832	32.9231	-3.114301	-166.472	-0.108333	0.781752	-0.373669	-0.375039	-0.110182	32.9231	-0.371159	-51620.4	2.134458E-6	NaN
327	1.000000	0.793052	7.36827e+06	-54989.1	955.818	-29742.7	0.000000	0.000000	6.793032	-0.013148	NaN	0.000000	0.001703	0.001685	28.0803	0.044365	0.001916	23.1593	-169.307	11.126	-0.034622	0.791741	-0.363738	-0.365050	-0.013148	23.1593	-0.363312	-39782.5	3.304904E-7	NaN
327	1.000000	0.803104	7.36827e+06	-54989.1	955.82	-29742.7	0.000000	0.000000	6.803084	-0.005714	NaN	0.000000	0.001676	0.001718	28.0802	0.082255	0.002063	39.8626	-73.9434	-166.782	-0.031086	0.801714	-0.353686	-0.355077	-0.005714	39.8626	-0.353578	-28767.4	1.986223E-7	NaN
327	1.000000	0.813075	7.36827e+06	-54989.1	955.819	-29742.7	0.000000	0.000000	6.813055	-0.000306	NaN	0.000000	0.001673	0.001715	28.0803	0.095489	0.001926	49.5841	2.062767	15.3541	-0.024235	0.811727	-0.343716	-0.345063	-0.000306	49.5841	-0.343711	-20682.5	1.481236E-8	NaN
327	1.000000	0.823108	7.36827e+06	-54989.1	955.818	-29742.7	0.000000	0.000000	6.823086	-0.028904	NaN	0.000000	0.001686	0.001709	28.0803	0.062392	0.002046	30.5013	-130.973	-164.384	-0.059108	0.821778	-0.333683	-0.335012	-0.028904	30.5013	-0.332972	-14419.3	2.004560E-6	NaN
327	1.000000	0.833114	7.36827e+06	-54989.1	955.818	-29742.7	0.000000	0.000000	6.833094	-0.012435	NaN	0.000000	0.001697	0.001685	28.0805	0.023733	0.002024	11.7255	36.6533	15.6459	0.100395	0.831775	-0.323676	-0.325015	-0.012435	11.7255	-0.322880	-10256.6	1.212378E-6	NaN
327	1.000000	0.843114	7.36827e+06	-54989.1	955.819	-29742.7	0.000000	0.000000	6.843092	-0.044784	NaN	0.000000	0.001668	0.001662	28.0803	0.052490	0.001877	27.9607	28.8264	-166.443	-0.000124	0.841772	-0.313677	-0.315019	-0.044784	27.9607	-0.312475	-7205.49	6.215314E-6	NaN
327	1.000000	0.853096	7.36827e+06	-54989.1	955.818	-29742.7	0.000000	0.000000	6.853076	-0.004138	NaN	0.000000	0.001748	0.001671	28.0807	0.076416	0.001990	38.4069	3.352422	13.3762	-0.024860	0.851755	-0.303694	-0.305035	-0.004138	38.4069	-0.303613	-5325.54	7.770493E-7	NaN
327	1.000000	0.863112	7.36827e+06	-54989.1	955.819	-29742.7	0.000000	0.000000	6.863092	0.001182	NaN	0.000000	0.001708	0.001685	28.0805	0.114846	0.002083	55.1237	-164.116	-165.336	-0.004305	0.861796	-0.293678	-0.294994	0.001182	55.1237	-0.293694	-3789.52	-3.118711E-7	NaN
327	1.000000	0.873092	7.36827e+06	-54989.1	955.819	-29742.7	0.000000	0.000000	6.873070	-0.067128	NaN	0.000000	0.001703	0.001670	28.0796	0.031460	0.002035	15.4627	78.7423	17.1276	-0.058635	0.871783	-0.283698	-0.285007	-0.067128	15.4627	-0.280442	-2396.84	2.800707E-5	NaN
327	1.000000	0.883114	7.36827e+06	-54989.1	955.819	-29742.7	0.000000	0.000000	6.883091	-0.076443	NaN	0.000000	0.001692	0.001645	28.0793	0.114431	0.001902	60.1731	24.3198	-163.592	-0.104182	0.881879	-0.273676	-0.274911	-0.076443	60.1731	-0.272724	-1831.89	4.172882E-5	NaN
327	1.000000	0.893113	7.36827e+06	-54989.1	955.818	-29742.7	0.000000	0.000000	6.893093	0.004137	NaN	0.000000	0.001678	0.001684	28.0794	0.066299	0.002045	32.4153	-116.842	11.6824	-0.065327	0.891744	-0.263678	-0.265046	0.004137	32.4153	-0.263773	-1338.62	-3.090358E-6	NaN
327	1.000000	0.903147	7.36827e+06	-54989.1	955.818	-29742.7	0.000000	0.000000	6.903128	0.011698	NaN	0.000000	0.001746	0.001643	28.0793	0.054670	0.001986	27.5291	162.309	-166.125	0.075786	0.901817	-0.253643	-0.254974	0.011698	27.5291	-0.253962	-946.518	-1.235940E-5	NaN
327	1.000000	0.913124	7.36827e+06	-54989.1	955.818	-29742.7	0.000000	0.000000	6.913103	-0.019613	NaN	0.000000	0.001755	0.001665	28.0794	0.041863	0.002172	19.2769	87.3768	14.1422	-0.019970	0.911811	-0.243667	-0.244979	-0.019613	19.2769	-0.242903	-638.022	3.073978E-5	NaN
327	1.000000	0.923120	7.36827e+06	-54989.1	955.819	-29742.7	0.000000	0.000000	6.923098	-0.063172	NaN	0.000000	0.001753	0.001665	28.0793	0.114191	0.002035	56.1251	172.688	-164.385	-0.072300	0.921844	-0.233670	-0.234946	-0.063172	56.1251	-0.232826	-443.68	0.000142	NaN
327	1.000000	0.933156	7.36827e+06	-54989.1	955.819	-29742.7	0.000000	0.000000	6.933134	-0.063587	NaN	0.000000	0.001740	0.001660	28.0793	0.052168	0.001892	27.573	158.981	16.4102	-0.050683	0.931819	-0.223634	-0.224972	-0.063587	27.573	-0.221904	-297.901	0.000213	NaN
327	1.000000	0.943171	7.36827e+06	-54989.1	955.818	-29742.7	0.000000	0.000000	6.943146	-0.135073	NaN	0.000000	0.001769	0.001663	28.0793	0.028823	0.001974	14.5986	-165.338	-163.215	-0.046462	0.941850	-0.213619	-0.214941	-0.135073	14.5986	-0.206680	-169.405	0.000797	NaN
327	1.000000	0.953142	7.36827e+06	-54989.1	955.818	-29742.7	0.000000	0.000000	6.953119	-0.083747	NaN	0.000000	0.001734	0.001734	28.0792	0.046224	0.001938	23.8534	37.7303	11.8727	-0.142297	0.951784	-0.203648	-0.205006	-0.083747	23.8534	-0.201015	-136.888	0.000612	NaN
327	1.000000	0.963121	7.36827e+06	-54989.1	955.819	-29742.7	0.000000	0.000000	6.963098	-0.073927	NaN	0.000000	0.001733	0.001699	28.0795	0.094711	0.002087	45.3888	-30.155	-166.609	-0.004570	0.961840	-0.193669	-0.194950	-0.073927	45.3888	-0.192447	-98.8163	0.000748	NaN
327	1.000000	0.973145	7.36827e+06	-54989.1	955.82	-29742.7	0.000000	0.000000	6.973123	-0.062462	NaN	0.000000	0.001690	0.001688	28.0793	0.042053	0.002027	20.7442	146.008	10.7276	-0.051970	0.971795	-0.183645	-0.184995	-0.062462	20.7442	-0.181387	-64.4214	0.000970	NaN
327	1.000000	0.983167	7.36827e+06	-54989.1	955.819	-29742.7	0.000000	0.000000	6.983145	-0.065729	NaN	0.000000	0.001714	0.001651	28.0792	0.112289	0.002034	55.1989	-152.141	-161.079	-0.005926	0.981841	-0.173623	-0.174949	-0.065729	55.1989	-0.172730	-45.8018	0.001435	NaN
327	1.000000	0.993129	7.36827e+06	-54989.1	955.82	-29742.7	0.000000	0.000000	6.993106	-0.093075	NaN	0.000000	0.001738	0.001642	28.0792	0.050673	0.002102	24.1053	65.6368	14.3695	-0.108156	0.991743	-0.163661	-0.165048	-0.093075	24.1053	-0.160765	-28.2858	0.003291	NaN
327	1.000000	1.003177	7.36827e+06	-54989.1	955.819	-29742.7	0.000000	0.000000	7.003157	0.014033	NaN	0.000000	0.001765	0.001661	28.0796	0.029216	0.001954	14.9507	-6.518178	-166.003	0.006495	1.001855	-0.153613	-0.154936	0.014033	14.9507	-0.154317	-21.6913	-0.000647	NaN
327	1.000000	1.013186	7.36827e+06	-54989.1	955.818	-29742.7	0.000000	0.000000	7.013164	-0.033566	NaN	0.000000	0.001712	0.001682	28.0805	0.007162	0.001942	3.687431	-169.394	17.0607	-0.075801	1.011839	-0.143605	-0.144952	-0.033566	3.687431	-0.136778	-10.2831	0.003264	NaN
327	1.000000	1.023171	7.36827e+06	-54989.1	955.818	-29742.7	0.000000	0.000000	7.023150	-0.028435	NaN	0.000000	0.001749	0.001657	28.0804	0.114282	0.001990	57.4241	-72.9126	-163.509	-0.099791	1.021904	-0.133620	-0.134886	-0.028435	57.4241	-0.133248	-8.805344	0.003229	NaN
327	1.000000	1.033188	7.36827e+06	-54989.1	955.819	-29742.7	0.000000	0.000000	7.033166	-0.069285	NaN	0.000000	0.001693	0.001678	28.0805	0.009365	0.002171	4.312701	46.8327	13.5189	-0.034651	1.031825	-0.123602	-0.124965	-0.069285	4.312701	-0.111553	-3.239671	0.021386	NaN
327	1.000000	1.043179	7.36827e+06	-54989.1	955.819	-29742.7	0.000000	0.000000	7.043159	0.006291	NaN	0.000000	0.001694	0.001661	28.0804	0.016292	0.001935	8.418863	110.921	-165.781	-0.011667	1.041861	-0.113612	-0.114929	0.006291	8.418863	-0.114172	-3.672889	-0.001713	NaN
327	1.000000	1.053191	7.36827e+06	-54989.1	955.818	-29742.7	0.000000	0.000000	7.053167	-0.077354	NaN	0.000000	0.001750	0.001663	28.0807	0.105482	0.002024	52.1057	120.719	14.5589	-0.048362	1.051801	-0.103600	-0.104989	-0.077354	52.1057	-0.102486	-2.072652	0.037321	NaN
327	1.000000	1.063184	7.36827e+06	-54989.1	955.818	-29742.7	0.000000	0.000000	7.063162	-0.058859	NaN	0.000000	0.001749	0.001683	28.0805	0.037519	0.001823	20.5811	75.7837	-167.106	0.002427	1.061830	-0.093606	-0.094960	-0.058859	20.5811	-0.091461	-1.169358	0.050334	NaN
327	1.000000	1.073166	7.36827e+06	-54989.1	955.817	-29742.7	0.000000	0.000000	7.073144	-0.050559	NaN	0.000000	0.001746	0.001666	28.0805	0.075585	0.001877	40.2737	-145.153	8.479956	-0.130505	1.071855	-0.083624	-0.084935	-0.050559	40.2737	-0.082683	-0.721398	0.070085	NaN
327	1.000000	1.083189	7.36827e+06	-54989.1	955.82	-29742.7	0.000000	0.000000	7.083171	0.039039	NaN	0.000000	0.001744	0.001677	28.0805	0.098555	0.002137	46.1151	66.7511	-164.629	0.039367	1.081916	-0.073601	-0.074874	0.039039	46.1151	-0.074236	-0.441269	-0.088470	NaN
327	1.000000	1.093204	7.36827e+06	-54989.1	955.82	-29742.7	0.000000	0.000000	7.093185	0.019068	NaN	0.000000	0.001743	0.001651	28.0805	0.114901	0.002074	55.4031	150.161	16.5469	0.039363	1.091829	-0.063586	-0.064961	0.019068	55.4031	-0.063844	-0.231412	-0.082399	NaN
327	1.000000	1.103218	7.36827e+06	-54989.1	955.819	-29742.7	0.000000	0.000000	7.103196	-0.057139	NaN	0.000000	0.001796	0.001667	28.0806	0.104006	0.002099	49.5415	-121.088	-165.881	-0.124493	1.101907	-0.053572	-0.054883	-0.057139	49.5415	-0.052707	-0.110070	0.519114	NaN
327	1.000000	1.113209	7.36827e+06	-54989.1	955.82	-29742.7	0.000000	0.000000	7.113188	-0.029167	NaN	0.000000	0.001753	0.001711	28.0807	0.114961	0.002088	55.0654	-107.648	14.2523	-0.029204	1.111891	-0.043582	-0.044899	-0.029167	55.0654	-0.043184	-0.056554	0.515739	NaN
327	1.000000	1.123216	7.36827e+06	-54989.1	955.817	-29742.7	0.000000	0.000000	7.123195	-0.024903	NaN	0.000000	0.001720	0.001665	28.0805	0.016305	0.001987	8.204455	-80.771	-167.393	-0.027556	1.121858	-0.033574	-0.034932	-0.024903	8.204455	-0.031298	-0.025029	0.994989	NaN
327	1.000000	1.133239	7.36827e+06	-54989.1	955.818	-29742.7	0.000000	0.000000	7.133219	-0.005054	NaN	0.000000	0.001741	0.001686	28.0804	0.026328	0.001973	13.3416	4.408990	10.6201	-0.036747	1.131884	-0.023551	-0.024906	-0.005054	13.3416	-0.023267	-0.015215	0.332164	NaN
327	1.000000	1.143224	7.36827e+06	-54989.1	955.817	-29742.7	0.000000	0.000000	7.143203	-0.035313	NaN	0.000000	0.001747	0.001694	28.0805	0.088196	0.001920	45.9313	57.1064	-165.064	-0.044784	1.141913	-0.013566	-0.014877	-0.035313	45.9313	-0.012990	-0.008096	4.361662	NaN
327	1.000000	1.153214	7.36827e+06	-54989.1	955.818	-29742.7	0.000000	0.000000	7.153194	-0.000566	NaN	0.000000	0.001719	0.001658	28.0797	0.043057	0.001963	21.9293	46.5965	18.1892	-0.054579	1.151896	-0.003576	-0.004894	-0.000566	21.9293	-0.003557	-0.002490	0.227138	NaN
327	1.000000	1.163189	7.36827e+06	-54989.1	955.818	-29742.7	0.000000	0.000000	7.163355	4.534867	NaN	0.000000	0.001735	0.001657	28.0791	5.273063	0.001775	2971.53	10.0723	-166.791	3.456231	1.161918	0.006398	0.005128	4.534867	2971.53	0.005254	0.004366	1038.62	41086.6
327	2.000000	1.168400	7.36827e+06	-54989.1	955.817	-29742.7	0.000000	0.000000	7.168789	9.956636	NaN	0.000000	0.001736	0.001678	28.0793	9.962498	0.001645	6055.04	4.480981	9.189083	9.623844	1.168045	0.011609	0.011255	9.956636	6055.04	0.010376	0.009603	1036.87	56454.3
327	2.000000	1.170858	7.36827e+06	-54989.1	955.818	-29742.7	0.000000	0.000000	7.171396	13.5625	NaN	0.000000	0.001745	0.001659	28.0791	12.822	0.001663	7710.94	8.451724	-178.322	13.0602	1.170551	0.014068	0.013761	13.5625	7710.94	0.012748	0.012399	1093.84	63268.7
327	2.000000	1.173301	7.36827e+06	-54989.1	955.818	-29742.7	0.000000	0.000000	7.173992	17.2672	NaN	0.000000	0.001690	0.001658	28.0793	15.6298	0.001805	8660.43	5.617841	5.847647	15.8973	1.172917	0.016511	0.016127	17.2672	8660.43	0.015016	0.015307	1128.09	63954.8
327	2.000000	1.175795	7.36827e+06	-54989.1	955.819	-29742.7	0.000000	0.000000	7.176701	22.5097	NaN	0.000000	0.001687	0.001669	28.0791	18.5543	0.001846	10051.7	5.475545	-177.012	21.6772	1.175578	0.019005	0.018788	22.5097	10051.7	0.017326	0.018513	1215.91	67496.1
327	2.000000	1.178311	7.36827e+06	-54989.1	955.818	-29742.7	0.000000	0.000000	7.179438	27.8797	NaN	0.000000	0.001686	0.001670	28.0793	20.4928	0.001716	11944.8	8.012344	0.617564	26.5298	1.177883	0.021521	0.021092	27.8797	11944.8	0.019770	0.022182	1256.85	73274.2
327	2.000000	1.180801	7.36827e+06	-54989.1	955.818	-29742.7	0.000000	0.000000	7.182168	33.6966	NaN	0.000000	0.001689	0.001669	28.0791	22.7111	0.001740	13053.8	4.135059	-176.159	33.2928	1.180499	0.024011	0.023708	33.6966	13053.8	0.022075	0.025909	1300.59	74094.6
327	2.000000	1.183236	7.36827e+06	-54989.1	955.817	-29742.7	0.000000	0.000000	7.184942	41.9598	NaN	0.000000	0.001672	0.001683	28.0792	25.9322	0.001584	16368.6	3.839531	0.668485	38.9373	1.182865	0.026446	0.026075	41.9598	16368.6	0.024523	0.030154	1391.52	86122.1
327	2.000000	1.185756	7.36827e+06	-54989.1	955.819	-29742.7	0.000000	0.000000	7.187681	47.2789	NaN	0.000000	0.001675	0.001651	28.0791	29.6028	0.001813	16327.7	5.486136	179.321	46.2518	1.185504	0.028966	0.028714	47.2789	16327.7	0.026794	0.034361	1375.96	80476.5
327	2.000000	1.188288	7.36827e+06	-54989.1	955.818	-29742.7	0.000000	0.000000	7.190563	55.7931	NaN	0.000000	0.001694	0.001674	28.0791	30.9828	0.001640	18891	5.195664	-0.885771	55.7267	1.187926	0.031498	0.031136	55.7931	18891	0.029283	0.039270	1420.74	87095.5
327	2.000000	1.190765	7.36827e+06	-54989.1	955.818	-29742.7	0.000000	0.000000	7.193235	60.54	NaN	0.000000	0.001694	0.001667	28.0792	32.8354	0.001758	18678.9	3.959875	-179.504	59.9269	1.190460	0.033974	0.033670	60.54	18678.9	0.031544	0.044004	1375.79	81354.3
327	2.000000	1.193257	7.36827e+06	-54989.1	955.818	-29742.7	0.000000	0.000000	7.196065	68.7463	NaN	0.000000	0.001786	0.001664	28.0792	36.2362	0.001818	19931.5	6.541442	-2.592761	68.7463	1.192841	0.036466	0.036051	68.7463	19931.5	0.033880	0.049169	1398.15	82123.3
327	2.000000	1.195749	7.36827e+06	-54989.1	955.817	-29742.7	0.000000	0.000000	7.198812	74.9496	NaN	0.000000	0.001751	0.001686	28.0802	38.9687	0.001891	20610.4	4.485545	178.815	72.8915	1.195361	0.038959	0.038570	74.9496	20610.4	0.036231	0.054651	1371.41	80548.7
327	2.000000	1.198252	7.36827e+06	-54989.1	955.819	-29742.7	0.000000	0.000000	7.201933	89.9607	NaN	0.000000	0.001737	0.001674	28.0804	41.4184	0.001747	23708.7	6.854866	-4.853632	86.4647	1.197883	0.041462	0.041092	89.9607	23708.7	0.038616	0.060501	1486.93	88064
327	2.000000	1.200724	7.36827e+06	-54989.1	955.819	-29742.7	0.000000	0.000000	7.204741	98.1333	NaN	0.000000	0.001705	0.001683	28.0805	42.9861	0.001792	23992.7	1.050755	-179.668	95.0141	1.200553	0.043933	0.043763	98.1333	23992.7	0.040866	0.066285	1480.47	85142
327	2.000000	1.203221	7.36827e+06	-54989.1	955.818	-29742.7	0.000000	0.000000	7.207798	111.734	NaN	0.000000	0.001712	0.001725	28.0804	46.0923	0.001755	26267.8	3.171600	-2.271985	108.433	1.202874	0.046431	0.046084	111.734	26267.8	0.043241	0.072671	1537.52	89025.6
327	2.000000	1.205676	7.36827e+06	-54989.1	955.818	-29742.7	0.000000	0.000000	7.210563	119.283	NaN	0.000000	0.001776	0.001646	28.0803	49.1368	0.001783	27561.5	5.020304	175.438	116.004	1.205398	0.048886	0.048607	119.283	27561.5	0.045640	0.079414	1502.04	89356.6
327	2.000000	1.208198	7.36827e+06	-54989.1	955.819	-29742.7	0.000000	0.000000	7.213849	137.862	NaN	0.000000	0.001763	0.001635	28.0805	50.7742	0.001776	28589.4	3.356463	-3.017450	133.256	1.207850	0.051407	0.051059	137.862	28589.4	0.047791	0.085707	1608.52	89221.6
327	2.000000	1.210710	7.36827e+06	-54989.1	955.818	-29742.7	0.000000	0.000000	7.216656	145.036	NaN	0.000000	0.001742	0.001641	28.0805	52.9275	0.001743	30373	3.049038	176.789	143.255	1.210406	0.053919	0.053616	145.036	30373	0.050338	0.093461	1551.84	90770.6
327	2.000000	1.213154	7.36827e+06	-54989.1	955.818	-29742.7	0.000000	0.000000	7.219648	158.35	NaN	0.000000	0.001773	0.001628	28.0804	56.783	0.001833	30984.5	6.761556	-7.147852	153.301	1.212812	0.056364	0.056022	158.35	30984.5	0.052531	0.100396	1577.26	89342.9
327	2.000000	1.215702	7.36827e+06	-54989.1	955.817	-29742.7	0.000000	0.000000	7.222590	167.921	NaN	0.000000	0.001715	0.001644	28.08	58.8482	0.001875	31384.8	3.243784	176.162	166.007	1.215476	0.058912	0.058685	167.921	31384.8	0.054899	0.108155	1552.6	87190.4
327	2.000000	1.218249	7.36827e+06	-54989.1	955.818	-29742.7	0.000000	0.000000	7.225974	188.254	NaN	0.000000	0.001735	0.001641	28.0807	60.3929	0.001768	34163.8	6.265994	-6.421524	186.646	1.217792	0.061459	0.061001	188.254	34163.8	0.057326	0.116396	1617.36	91489.3
327	2.000000	1.220683	7.36827e+06	-54989.1	955.819	-29742.7	0.000000	0.000000	7.228829	198.492	NaN	0.000000	0.001711	0.001610	28.0803	61.88	0.001707	36244.8	6.283181	171.723	195.905	1.220379	0.063893	0.063588	198.492	36244.8	0.059786	0.125041	1587.42	93646.8
327	2.000000	1.223123	7.36827e+06	-54989.1	955.818	-29742.7	0.000000	0.000000	7.232048	217.43	NaN	0.000000	0.001753	0.001626	28.0803	66.2253	0.001889	35061.6	6.039345	-7.581272	211.611	1.222750	0.066333	0.065960	217.43	35061.6	0.061682	0.131909	1648.33	88199.7
327	2.000000	1.225604	7.36827e+06	-54989.1	955.818	-29742.7	0.000000	0.000000	7.234904	226.568	NaN	0.000000	0.001698	0.001672	28.0804	68.6216	0.001861	36867	6.141709	171.605	221.491	1.225345	0.068814	0.068554	226.568	36867	0.064205	0.141316	1603.28	89601.5
327	2.000000	1.228200	7.36827e+06	-54989.1	955.82	-29742.7	0.000000	0.000000	7.238329	246.709	NaN	0.000000	0.001742	0.001625	28.0804	70.4802	0.001875	37586.5	8.198638	-9.811971	241.864	1.227799	0.071410	0.071009	246.709	37586.5	0.066487	0.150093	1643.71	88638.8
327	2.000000	1.230711	7.36827e+06	-54989.1	955.82	-29742.7	0.000000	0.000000	7.241596	265.069	NaN	0.000000	0.001754	0.001607	28.079	72.0284	0.001862	38681.9	3.555865	174.221	262.882	1.230340	0.073921	0.073550	265.069	38681.9	0.068782	0.159168	1665.35	88583.5
327	2.000000	1.233187	7.36827e+06	-54989.1	955.821	-29742.7	0.000000	0.000000	7.244630	278.661	NaN	0.000000	0.001798	0.001636	28.0791	74.5715	0.001909	39057.3	5.231941	-7.610654	275.852	1.232838	0.076397	0.076048	278.661	39057.3	0.071046	0.168368	1655.07	86965.2
327	2.000000	1.235728	7.36827e+06	-54989.1	955.819	-29742.7	0.000000	0.000000	7.247945	297.461	NaN	0.000000	0.001739	0.001613	28.079	76.2861	0.001869	40815.5	8.183461	169.404	296.948	1.235341	0.078938	0.078551	297.461	40815.5	0.073472	0.178497	1666.48	88263.8
327	2.000000	1.238216	7.36827e+06	-54989.1	955.817	-29742.7	0.000000	0.000000	7.251128	314.366	NaN	0.000000	0.001746	0.001635	28.0793	78.1081	0.001846	42317.8	5.631556	-8.510080	312.98	1.237883	0.081426	0.081093	314.366	42317.8	0.075854	0.188713	1665.84	89001
327	2.000000	1.240667	7.36827e+06	-54989.1	955.818	-29742.7	0.000000	0.000000	7.254395	334.199	NaN	0.000000	0.001751	0.001602	28.0792	79.3465	0.001815	43724	3.633322	173.689	330.963	1.240325	0.083877	0.083535	334.199	43724	0.078144	0.198786	1681.2	89598.3
327	2.000000	1.243206	7.36827e+06	-54989.1	955.817	-29742.7	0.000000	0.000000	7.257734	353.648	NaN	0.000000	0.001751	0.001662	28.0793	81.5726	0.001767	46162.1	5.589615	-9.457132	351.276	1.242852	0.086415	0.086061	353.648	46162.1	0.080670	0.210178	1682.61	91995
327	2.000000	1.245637	7.36827e+06	-54989.1	955.817	-29742.7	0.000000	0.000000	7.260758	368.057	NaN	0.000000	0.001736	0.001588	28.0789	84.4581	0.001657	50974.3	5.189288	170.447	364.369	1.245401	0.088847	0.088610	368.057	50974.3	0.083432	0.222977	1650.65	98626.6
327	2.000000	1.248135	7.36827e+06	-54989.1	955.819	-29742.7	0.000000	0.000000	7.264203	391.087	NaN	0.000000	0.001725	0.001635	28.0792	86.4893	0.001748	49485.2	5.210144	-8.827227	385.209	1.247824	0.091344	0.091034	391.087	49485.2	0.085417	0.232395	1682.86	93785.5
327	2.000000	1.250614	7.36827e+06	-54989.1	955.818	-29742.7	0.000000	0.000000	7.267719	416.311	NaN	0.000000	0.001697	0.001615	28.079	88.0512	0.001763	49943.1	4.979191	171.682	412.825	1.250212	0.093823	0.093422	416.311	49943.1	0.087572	0.242822	1714.47	92598.7
327	2.000000	1.253103	7.36827e+06	-54989.1	955.817	-29742.7	0.000000	0.000000	7.270715	428.639	NaN	0.000000	0.001681	0.001582	28.0791	92.3803	0.001786	51716.8	4.616751	-8.963545	422.351	1.252770	0.096312	0.095979	428.639	51716.8	0.090096	0.255311	1678.89	93512.6
327	2.000000	1.255696	7.36827e+06	-54989.1	955.818	-29742.7	0.000000	0.000000	7.274023	446.015	NaN	0.000000	0.001670	0.001606	28.079	94.8523	0.001756	54020.8	2.575185	172.822	445.444	1.255463	0.098905	0.098673	446.015	54020.8	0.092713	0.268565	1660.73	95237.9
327	2.000000	1.258261	7.36827e+06	-54989.1	955.819	-29742.7	0.000000	0.000000	7.277614	470.945	NaN	0.000000	0.001680	0.001646	28.0791	97.1714	0.001875	51837.7	3.867430	-7.890488	471.712	1.257872	0.101471	0.101082	470.945	51837.7	0.094657	0.278612	1690.32	89726.1
327	2.000000	1.260668	7.36827e+06	-54989.1	955.817	-29742.7	0.000000	0.000000	7.280863	491.419	NaN	0.000000	0.001679	0.001609	28.0789	99.3308	0.001730	57403.5	3.722930	171.447	492.517	1.260417	0.103878	0.103626	491.419	57403.5	0.097457	0.293391	1674.96	96825.2
327	2.000000	1.263199	7.36827e+06	-54989.1	955.818	-29742.7	0.000000	0.000000	7.283950	504.914	NaN	0.000000	0.001679	0.001634	28.0791	102.68	0.001816	56538.4	5.056848	-9.957778	503.504	1.262895	0.106409	0.106105	504.914	56538.4	0.099711	0.305546	1652.5	93449.9
327	2.000000	1.265164	7.36827e+06	-54989.1	955.819	-29742.7	0.000000	0.000000	7.286837	527.323	NaN	0.000000	0.001622	0.001637	28.0804	104.821	0.001864	56224.7	5.425678	-9.883324	523.929	1.264687	0.108374	0.107897	527.323	56224.7	0.101340	0.314473	1676.85	91602.9