File: remote_trans/data/nanoindenter/0828-1/data/Data_2025-08-06,11h17m57s/2025-07-22_16-23-58_1_246.txt
2025-07-22, 16:23:58, 1
Index	Phase	Displacement	Time	Pos X	Pos Y	Pos Z	Rot A	Rot B	Piezo Z	Force A	Force B	Gripper	Voltage A	Voltage B	Temperature	Amplitude force	Amplitude pos	Stiffness	Phase shift	Phase excitation	Force A raw	Displacement raw	HMax	HMax raw	Real Force	Real Stiffness	Contact Depth	Area	Hardness	Reduced Mod.
[#]	[#]	[um]	[s]	[um]	[um]	[um]	[m°]	[m°]	[um]	[uN]	[uN]	[V]	[V]	[V]	[°C]	[uN]	[um]	[N/m]	[°]	[°]	[uN]	[um]	[um]	[um]	[uN]	[N/m]	[um]	[um^2]	[MPa]	[MPa]
246	1.000000	0.002568	7.36745e+06	-50939.1	955.818	-29754.3	0.000000	0.000000	6.002806	0.042750	NaN	0.000000	0.001685	0.001657	28.0794	0.115435	0.000942	122.583	118.037	-168.679	0.040673	0.001259	-1.127063	-1.128372	0.042750	122.583	-1.127325	-1.166109E+15	-3.666002E-17	NaN
246	1.000000	0.012617	7.36745e+06	-50939.1	955.818	-29754.3	0.000000	0.000000	6.012853	0.000301	NaN	0.000000	0.001693	0.001661	28.0792	0.127987	0.001219	104.98	151.806	15.8121	0.003691	0.011134	-1.117014	-1.118497	0.000301	104.98	-1.117016	-8.480839E+14	-3.546404E-19	NaN
246	1.000000	0.022511	7.36745e+06	-50939.1	955.818	-29754.3	0.000000	0.000000	6.022751	0.090259	NaN	0.000000	0.001711	0.001634	28.0792	0.030022	0.001698	17.6782	176.226	-169.344	0.095762	0.021198	-1.107120	-1.108433	0.090259	17.6782	-1.110949	-7.031197E+14	-1.283700E-16	NaN
246	1.000000	0.032521	7.36745e+06	-50939.1	955.819	-29754.3	0.000000	0.000000	6.032758	0.011214	NaN	0.000000	0.001660	0.001623	28.0793	0.060635	0.001970	30.7807	-166.298	14.7517	0.031137	0.031134	-1.097110	-1.098497	0.011214	30.7807	-1.097383	-4.623146E+14	-2.425589E-17	NaN
246	1.000000	0.042531	7.36745e+06	-50939.1	955.818	-29754.3	0.000000	0.000000	6.042768	0.025073	NaN	0.000000	0.001669	0.001621	28.0793	0.100660	0.002213	45.4905	5.712415	-167.668	-0.024019	0.041198	-1.087100	-1.088433	0.025073	45.4905	-1.087513	-3.407397E+14	-7.358333E-17	NaN
246	1.000000	0.052493	7.36745e+06	-50939.1	955.818	-29754.3	0.000000	0.000000	6.052730	0.007842	NaN	0.000000	0.001696	0.001630	28.0783	0.119749	0.002033	58.9134	-168.178	12.6861	0.081238	0.051141	-1.077137	-1.078490	0.007842	58.9134	-1.077237	-2.479765E+14	-3.162384E-17	NaN
246	1.000000	0.062533	7.36746e+06	-50939.1	955.819	-29754.3	0.000000	0.000000	6.062768	-0.031786	NaN	0.000000	0.001618	0.001615	28.0788	0.061689	0.002035	30.3205	-131.454	-168.731	0.062034	0.061269	-1.067098	-1.068362	-0.031786	30.3205	-1.066312	-1.768624E+14	1.797236E-16	NaN
246	1.000000	0.072515	7.36746e+06	-50939.1	955.82	-29754.3	0.000000	0.000000	6.072754	0.052296	NaN	0.000000	0.001622	0.001651	28.079	0.072220	0.001940	37.2288	-86.2437	12.3328	-0.041669	0.071166	-1.057116	-1.058465	0.052296	37.2288	-1.058169	-1.374739E+14	-3.804097E-16	NaN
246	1.000000	0.082505	7.36746e+06	-50939.1	955.818	-29754.3	0.000000	0.000000	6.082741	-0.013759	NaN	0.000000	0.001618	0.001630	28.0788	0.028480	0.001964	14.4984	-154.462	-169.2	0.023461	0.081225	-1.047126	-1.048406	-0.013759	14.4984	-1.046414	-9.554596E+13	1.440048E-16	NaN
246	1.000000	0.092534	7.36746e+06	-50939.1	955.819	-29754.3	0.000000	0.000000	6.092770	-0.010935	NaN	0.000000	0.001589	0.001630	28.0789	0.079859	0.001970	40.537	-50.2082	13.4265	0.049279	0.091173	-1.037097	-1.038458	-0.010935	40.537	-1.036895	-7.115569E+13	1.536811E-16	NaN
246	1.000000	0.102529	7.36746e+06	-50939.1	955.818	-29754.3	0.000000	0.000000	6.102768	0.044694	NaN	0.000000	0.001625	0.001658	28.079	0.107296	0.001904	56.3386	-108.727	-168.763	-0.016453	0.101226	-1.027102	-1.028405	0.044694	56.3386	-1.027697	-5.351776E+13	-8.351316E-16	NaN
246	1.000000	0.112530	7.36746e+06	-50939.1	955.818	-29754.3	0.000000	0.000000	6.112768	0.020917	NaN	0.000000	0.001614	0.001627	28.0789	0.116644	0.002185	53.3851	-5.333011	14.3183	0.067792	0.111127	-1.017101	-1.018504	0.020917	53.3851	-1.017395	-3.889519E+13	-5.377662E-16	NaN
246	1.000000	0.122525	7.36746e+06	-50939.1	955.819	-29754.3	0.000000	0.000000	6.122761	-0.019322	NaN	0.000000	0.001627	0.001600	28.0787	0.031498	0.002028	15.5316	73.5953	-166.259	0.021939	0.121232	-1.007106	-1.008399	-0.019322	15.5316	-1.006173	-2.747077E+13	7.033512E-16	NaN
246	1.000000	0.132535	7.36746e+06	-50939.1	955.819	-29754.3	0.000000	0.000000	6.132770	-0.029947	NaN	0.000000	0.001623	0.001609	28.0786	0.059960	0.001964	30.5333	-163.852	17.93	-0.020454	0.131201	-0.997096	-0.998430	-0.029947	30.5333	-0.996360	-2.026571E+13	1.477733E-15	NaN
246	1.000000	0.142578	7.36746e+06	-50939.1	955.818	-29754.3	0.000000	0.000000	6.142814	-0.033882	NaN	0.000000	0.001548	0.001562	28.0802	0.045985	0.002021	22.7487	81.6965	-165.892	0.016646	0.141251	-0.987053	-0.988380	-0.033882	22.7487	-0.985935	-1.466788E+13	2.309976E-15	NaN
246	1.000000	0.152527	7.36746e+06	-50939.1	955.817	-29754.3	0.000000	0.000000	6.152766	0.071482	NaN	0.000000	0.001573	0.001618	28.0798	0.061957	0.002070	29.9257	-38.7895	14.3375	0.041404	0.151159	-0.977104	-0.978472	0.071482	29.9257	-0.978896	-1.179056E+13	-6.062677E-15	NaN
246	1.000000	0.162548	7.36746e+06	-50939.1	955.818	-29754.3	0.000000	0.000000	6.162784	-0.026256	NaN	0.000000	0.001625	0.001627	28.0795	0.173885	0.001857	93.6412	32.1199	-166.318	0.026758	0.161229	-0.967083	-0.968402	-0.026256	93.6412	-0.966872	-8.119143E+12	3.233809E-15	NaN
246	1.000000	0.172585	7.36746e+06	-50939.1	955.819	-29754.3	0.000000	0.000000	6.172818	-0.071645	NaN	0.000000	0.001592	0.001592	28.0798	0.047106	0.001989	23.6782	-55.1074	15.3306	-0.018095	0.171204	-0.957046	-0.958427	-0.071645	23.6782	-0.954777	-5.577597E+12	1.284512E-14	NaN
246	1.000000	0.182558	7.36746e+06	-50939.1	955.818	-29754.3	0.000000	0.000000	6.182792	-0.071281	NaN	0.000000	0.001601	0.001629	28.08	0.051515	0.001911	26.9632	156.111	-166.433	-0.038130	0.181292	-0.947073	-0.948339	-0.071281	26.9632	-0.945090	-4.128586E+12	1.726523E-14	NaN
246	1.000000	0.192566	7.36746e+06	-50939.1	955.818	-29754.3	0.000000	0.000000	6.192804	0.030254	NaN	0.000000	0.001618	0.001604	28.0796	0.132783	0.002038	65.1499	-97.3372	12.6383	0.032424	0.191258	-0.937065	-0.938373	0.030254	65.1499	-0.937413	-3.252625E+12	-9.301397E-15	NaN
246	1.000000	0.202572	7.36746e+06	-50939.1	955.818	-29754.3	0.000000	0.000000	6.202810	0.029811	NaN	0.000000	0.001617	0.001580	28.0795	0.037772	0.002081	18.1503	142.627	-163.871	-0.050970	0.201259	-0.927059	-0.928372	0.029811	18.1503	-0.928291	-2.449781E+12	-1.216889E-14	NaN
246	1.000000	0.212597	7.36746e+06	-50939.1	955.819	-29754.3	0.000000	0.000000	6.212832	-0.041701	NaN	0.000000	0.001591	0.001572	28.0797	0.043836	0.002075	21.1291	-52.0561	13.6515	0.040957	0.211187	-0.917034	-0.918444	-0.041701	21.1291	-0.915554	-1.648810E+12	2.529186E-14	NaN
246	1.000000	0.222591	7.36746e+06	-50939.1	955.819	-29754.3	0.000000	0.000000	6.222828	-0.001938	NaN	0.000000	0.001637	0.001574	28.08	0.032561	0.002006	16.2291	177.191	-164.432	0.003007	0.221252	-0.907040	-0.908379	-0.001938	16.2291	-0.906950	-1.261728E+12	1.535865E-15	NaN
246	1.000000	0.232548	7.36746e+06	-50939.1	955.819	-29754.3	0.000000	0.000000	6.232781	-0.094778	NaN	0.000000	0.001617	0.001610	28.0797	0.117892	0.002038	57.8503	-61.0722	14.7233	-0.053100	0.231237	-0.897083	-0.898394	-0.094778	57.8503	-0.895854	-8.933946E+11	1.060871E-13	NaN
246	1.000000	0.242613	7.36746e+06	-50939.1	955.819	-29754.3	0.000000	0.000000	6.242848	-0.033065	NaN	0.000000	0.001600	0.001641	28.0797	0.135305	0.002033	66.5448	-101.065	-166.437	0.018976	0.241288	-0.887018	-0.888343	-0.033065	66.5448	-0.886646	-6.707614E+11	4.929418E-14	NaN
246	1.000000	0.252566	7.36746e+06	-50939.1	955.819	-29754.3	0.000000	0.000000	6.252802	-0.012303	NaN	0.000000	0.001663	0.001673	28.0798	0.058449	0.002139	27.3312	151.381	14.5637	0.044813	0.251198	-0.877065	-0.878433	-0.012303	27.3312	-0.876727	-4.925487E+11	2.497770E-14	NaN
246	1.000000	0.262605	7.36746e+06	-50939.1	955.819	-29754.3	0.000000	0.000000	6.262843	0.044174	NaN	0.000000	0.001675	0.001621	28.0797	0.092295	0.001904	48.4651	-113.052	-167.453	0.013505	0.261259	-0.867026	-0.868371	0.044174	48.4651	-0.867710	-3.719248E+11	-1.187708E-13	NaN
246	1.000000	0.272587	7.36746e+06	-50939.1	955.819	-29754.3	0.000000	0.000000	6.272824	-0.007147	NaN	0.000000	0.001591	0.001596	28.0797	0.115028	0.001945	59.1524	-148.468	12.6761	0.031819	0.271244	-0.857044	-0.858386	-0.007147	59.1524	-0.856953	-2.659969E+11	2.686776E-14	NaN
246	1.000000	0.282625	7.36746e+06	-50939.1	955.819	-29754.3	0.000000	0.000000	6.282862	0.013439	NaN	0.000000	0.001601	0.001645	28.0783	0.014737	0.002029	7.263079	-37.8119	-163.926	0.019229	0.281268	-0.847006	-0.848363	0.013439	7.263079	-0.848394	-2.036964E+11	-6.597364E-14	NaN
246	1.000000	0.292601	7.36746e+06	-50939.1	955.819	-29754.3	0.000000	0.000000	6.292835	-0.050308	NaN	0.000000	0.001620	0.001643	28.0787	0.122985	0.002084	59.0139	86.673	14.4616	-0.130351	0.291234	-0.837030	-0.838396	-0.050308	59.0139	-0.836391	-1.400854E+11	3.591268E-13	NaN
246	1.000000	0.302641	7.36746e+06	-50939.1	955.818	-29754.3	0.000000	0.000000	6.302877	-0.023155	NaN	0.000000	0.001627	0.001603	28.0783	0.056114	0.002017	27.8247	77.6895	-167.643	-0.013983	0.301299	-0.826990	-0.828332	-0.023155	27.8247	-0.826366	-1.024527E+11	2.260087E-13	NaN
246	1.000000	0.312654	7.36746e+06	-50939.1	955.818	-29754.3	0.000000	0.000000	6.312891	0.026701	NaN	0.000000	0.001608	0.001617	28.0784	0.013164	0.001927	6.832488	-161.524	14.4036	0.028776	0.311297	-0.816977	-0.818334	0.026701	6.832488	-0.819908	-8.374595E+10	-3.188299E-13	NaN
246	1.000000	0.322619	7.36746e+06	-50939.1	955.818	-29754.3	0.000000	0.000000	6.322853	-0.044779	NaN	0.000000	0.001613	0.001651	28.0783	0.045850	0.001916	23.9319	-126.88	-164.807	-0.076796	0.321309	-0.807012	-0.808321	-0.044779	23.9319	-0.805609	-5.357819E+10	8.357658E-13	NaN
246	1.000000	0.332632	7.36746e+06	-50939.1	955.818	-29754.3	0.000000	0.000000	6.332866	-0.065838	NaN	0.000000	0.001597	0.001613	28.0786	0.123161	0.002033	60.5709	34.4661	14.7338	-0.001561	0.331322	-0.796999	-0.798309	-0.065838	60.5709	-0.796184	-3.990772E+10	1.649763E-12	NaN
246	1.000000	0.342642	7.36746e+06	-50939.1	955.819	-29754.3	0.000000	0.000000	6.342877	-0.038150	NaN	0.000000	0.001563	0.001663	28.0783	0.053357	0.001918	27.8194	-147.454	-168.018	0.029064	0.341308	-0.786989	-0.788323	-0.038150	27.8194	-0.785960	-2.898765E+10	1.316067E-12	NaN
246	1.000000	0.352644	7.36746e+06	-50939.1	955.819	-29754.3	0.000000	0.000000	6.352880	-0.006619	NaN	0.000000	0.001585	0.001644	28.0784	0.089105	0.002056	43.3316	-95.5736	14.5864	-0.014015	0.351329	-0.776987	-0.778302	-0.006619	43.3316	-0.776872	-2.181356E+10	3.034466E-13	NaN
246	1.000000	0.362645	7.36746e+06	-50939.1	955.818	-29754.3	0.000000	0.000000	6.362883	0.013362	NaN	0.000000	0.001554	0.001660	28.0786	0.035918	0.001855	19.3623	-90.1589	-166.622	-0.003845	0.361300	-0.766985	-0.768331	0.013362	19.3623	-0.767503	-1.626873E+10	-8.213356E-13	NaN
246	1.000000	0.372672	7.36746e+06	-50939.1	955.818	-29754.3	0.000000	0.000000	6.372909	0.028147	NaN	0.000000	0.001622	0.001652	28.0786	0.076479	0.001973	38.7712	-160.543	16.439	0.006363	0.371319	-0.756959	-0.758312	0.028147	38.7712	-0.757504	-1.189438E+10	-2.366440E-12	NaN
246	1.000000	0.382659	7.36746e+06	-50939.1	955.819	-29754.3	0.000000	0.000000	6.382893	-0.065926	NaN	0.000000	0.001623	0.001677	28.0786	0.065420	0.002026	32.2921	10.6981	-170.598	-0.060735	0.381311	-0.746972	-0.748320	-0.065926	32.2921	-0.745441	-8.149856E+9	8.089259E-12	NaN
246	1.000000	0.392684	7.36746e+06	-50939.1	955.819	-29754.3	0.000000	0.000000	6.392922	0.022095	NaN	0.000000	0.001624	0.001632	28.0785	0.105952	0.002143	49.4466	-20.7973	14.0236	0.082991	0.391274	-0.736947	-0.738357	0.022095	49.4466	-0.737282	-6.310027E+9	-3.501508E-12	NaN
246	1.000000	0.402671	7.36746e+06	-50939.1	955.818	-29754.3	0.000000	0.000000	6.402908	0.015664	NaN	0.000000	0.001632	0.001640	28.0787	0.049401	0.001968	25.0986	124.243	-166.772	0.006343	0.401365	-0.726960	-0.728266	0.015664	25.0986	-0.727428	-4.631867E+9	-3.381776E-12	NaN
246	1.000000	0.412659	7.36746e+06	-50939.1	955.818	-29754.3	0.000000	0.000000	6.412899	0.068301	NaN	0.000000	0.001610	0.001625	28.0796	0.057103	0.002071	27.5661	20.2181	14.5632	0.024991	0.411307	-0.716971	-0.718324	0.068301	27.5661	-0.718830	-3.536005E+9	-1.931586E-11	NaN
246	1.000000	0.422657	7.36746e+06	-50939.1	955.818	-29754.3	0.000000	0.000000	6.422892	-0.038949	NaN	0.000000	0.001608	0.001661	28.0797	0.073455	0.001998	36.7574	-162.487	-165.684	-0.022622	0.421349	-0.706974	-0.708282	-0.038949	36.7574	-0.706179	-2.376272E+9	1.639097E-11	NaN
246	1.000000	0.432674	7.36746e+06	-50939.1	955.818	-29754.3	0.000000	0.000000	6.432911	0.027500	NaN	0.000000	0.001638	0.001652	28.0804	0.047570	0.002029	23.4459	106.557	14.9691	0.069545	0.431331	-0.696957	-0.698300	0.027500	23.4459	-0.697837	-1.828053E+9	-1.504330E-11	NaN
246	1.000000	0.442670	7.36746e+06	-50939.1	955.818	-29754.3	0.000000	0.000000	6.442905	-0.048376	NaN	0.000000	0.001641	0.001621	28.0798	0.083568	0.001945	42.9628	-5.283454	-166.389	-0.015619	0.441358	-0.686961	-0.688273	-0.048376	42.9628	-0.686116	-1.264246E+9	3.826459E-11	NaN
246	1.000000	0.452667	7.36746e+06	-50939.1	955.818	-29754.3	0.000000	0.000000	6.452901	-0.060524	NaN	0.000000	0.001608	0.001623	28.0797	0.141419	0.001960	72.1697	111.908	16.0549	-0.045242	0.451339	-0.676964	-0.678292	-0.060524	72.1697	-0.676335	-9.291344E+8	6.513996E-11	NaN
246	1.000000	0.462712	7.36746e+06	-50939.1	955.819	-29754.3	0.000000	0.000000	6.462951	0.052216	NaN	0.000000	0.001621	0.001639	28.0797	0.040226	0.001994	20.1733	-93.7852	-167.107	0.003931	0.461354	-0.666919	-0.668277	0.052216	20.1733	-0.668860	-7.341593E+8	-7.112361E-11	NaN
246	1.000000	0.472704	7.36746e+06	-50939.1	955.819	-29754.3	0.000000	0.000000	6.472942	0.049057	NaN	0.000000	0.001640	0.001617	28.0796	0.040851	0.001955	20.9003	-134.031	15.3584	0.051394	0.471293	-0.656927	-0.658338	0.049057	20.9003	-0.658688	-5.327108E+8	-9.208921E-11	NaN
246	1.000000	0.482691	7.36746e+06	-50939.1	955.818	-29754.3	0.000000	0.000000	6.482924	-0.086421	NaN	0.000000	0.001630	0.001598	28.0796	0.086746	0.001869	46.4039	-1.612695	-165.417	-0.073733	0.481359	-0.646940	-0.648272	-0.086421	46.4039	-0.645543	-3.518212E+8	2.456379E-10	NaN
246	1.000000	0.492712	7.36746e+06	-50939.1	955.818	-29754.3	0.000000	0.000000	6.492947	-0.032315	NaN	0.000000	0.001646	0.001582	28.0795	0.048135	0.001939	24.8271	-69.3939	15.0439	-0.063269	0.491334	-0.636919	-0.638297	-0.032315	24.8271	-0.635943	-2.597852E+8	1.243910E-10	NaN
246	1.000000	0.502685	7.36746e+06	-50939.1	955.818	-29754.3	0.000000	0.000000	6.502922	0.001878	NaN	0.000000	0.001645	0.001614	28.0795	0.074232	0.001989	37.3193	3.874175	-166.845	0.002280	0.501461	-0.626946	-0.628170	0.001878	37.3193	-0.626983	-1.957001E+8	-9.594226E-12	NaN
246	1.000000	0.512733	7.36746e+06	-50939.1	955.818	-29754.3	0.000000	0.000000	6.512970	-0.001241	NaN	0.000000	0.001620	0.001596	28.0798	0.045423	0.002012	22.5786	86.2024	12.2762	0.001118	0.511323	-0.616898	-0.618308	-0.001241	22.5786	-0.616856	-1.420417E+8	8.733366E-12	NaN
246	1.000000	0.522731	7.36746e+06	-50939.1	955.819	-29754.3	0.000000	0.000000	6.522970	0.054578	NaN	0.000000	0.001652	0.001564	28.0796	0.081964	0.001860	44.0547	-130.494	-163.623	-0.005524	0.521414	-0.606900	-0.608217	0.054578	44.0547	-0.607829	-1.067189E+8	-5.114167E-10	NaN
246	1.000000	0.532720	7.36746e+06	-50939.1	955.818	-29754.3	0.000000	0.000000	6.532956	-0.015942	NaN	0.000000	0.001640	0.001590	28.0797	0.124021	0.001996	62.1204	-89.0913	16.3896	-0.000247	0.531332	-0.596910	-0.598299	-0.015942	62.1204	-0.596718	-7.503298E+7	2.124635E-10	NaN
246	1.000000	0.542719	7.36746e+06	-50939.1	955.818	-29754.3	0.000000	0.000000	6.542954	-0.053578	NaN	0.000000	0.001653	0.001628	28.0798	0.128276	0.002049	62.6081	-101.391	-167.468	0.019260	0.541387	-0.586911	-0.588244	-0.053578	62.6081	-0.586270	-5.385517E+7	9.948596E-10	NaN
246	1.000000	0.552725	7.36746e+06	-50939.1	955.819	-29754.3	0.000000	0.000000	6.552962	-0.003090	NaN	0.000000	0.001655	0.001654	28.0785	0.046874	0.001972	23.7756	-116.017	14.3022	0.017649	0.551379	-0.576906	-0.578252	-0.003090	23.7756	-0.576808	-3.987193E+7	7.750674E-11	NaN
246	1.000000	0.562742	7.36746e+06	-50939.1	955.818	-29754.3	0.000000	0.000000	6.562980	0.042404	NaN	0.000000	0.001612	0.001659	28.0785	0.044140	0.002038	21.6618	116.417	-167.907	-0.013194	0.561386	-0.566889	-0.568245	0.042404	21.6618	-0.568357	-3.047399E+7	-1.391469E-9	NaN
246	1.000000	0.572743	7.36746e+06	-50939.1	955.818	-29754.3	0.000000	0.000000	6.572982	0.049166	NaN	0.000000	0.001632	0.001668	28.0785	0.092564	0.001998	46.3397	-65.1907	13.225	0.003310	0.571370	-0.556888	-0.558261	0.049166	46.3397	-0.557683	-2.169334E+7	-2.266390E-9	NaN
246	1.000000	0.582764	7.36746e+06	-50939.1	955.818	-29754.3	0.000000	0.000000	6.583001	0.030602	NaN	0.000000	0.001626	0.001653	28.0787	0.048894	0.001966	24.8732	26.2877	-169.688	0.090983	0.581418	-0.546867	-0.548213	0.030602	24.8732	-0.547790	-1.582490E+7	-1.933777E-9	NaN
246	1.000000	0.592765	7.36746e+06	-50939.1	955.819	-29754.3	0.000000	0.000000	6.593000	-0.031037	NaN	0.000000	0.001638	0.001641	28.0787	0.060279	0.001923	31.354	72.9809	18.5594	-0.031091	0.591410	-0.536866	-0.538221	-0.031037	31.354	-0.536124	-1.090397E+7	2.846384E-9	NaN
246	1.000000	0.602726	7.36746e+06	-50939.1	955.819	-29754.3	0.000000	0.000000	6.602963	0.021706	NaN	0.000000	0.001633	0.001608	28.0787	0.032546	0.002153	15.1177	25.4967	-165.121	0.028917	0.601423	-0.526905	-0.528207	0.021706	15.1177	-0.527982	-8.4051e+06	-2.582528E-9	NaN
246	1.000000	0.612730	7.36746e+06	-50939.1	955.818	-29754.3	0.000000	0.000000	6.612965	-0.037683	NaN	0.000000	0.001646	0.001630	28.0787	0.023405	0.002048	11.4294	-156.832	11.9645	-0.030006	0.611395	-0.516901	-0.518236	-0.037683	11.4294	-0.514428	-5.44594e+06	6.919407E-9	NaN
246	1.000000	0.622757	7.36746e+06	-50939.1	955.818	-29754.3	0.000000	0.000000	6.622994	0.002425	NaN	0.000000	0.001647	0.001673	28.0789	0.118867	0.001967	60.4167	-149.046	-165.835	0.043718	0.621435	-0.506873	-0.508196	0.002425	60.4167	-0.506903	-4.27833e+06	-5.668244E-10	NaN
246	1.000000	0.632769	7.36746e+06	-50939.1	955.818	-29754.3	0.000000	0.000000	6.633006	0.009187	NaN	0.000000	0.001620	0.001630	28.0785	0.048404	0.001897	25.5211	-143.981	17.2258	0.016895	0.631403	-0.496862	-0.498228	0.009187	25.5211	-0.497132	-3.12603e+06	-2.938981E-9	NaN
246	1.000000	0.642776	7.36746e+06	-50939.1	955.819	-29754.3	0.000000	0.000000	6.643014	0.038115	NaN	0.000000	0.001588	0.001596	28.0786	0.041721	0.002003	20.8286	138.614	-165.188	-0.023991	0.641439	-0.486855	-0.488192	0.038115	20.8286	-0.488227	-2.34756e+06	-1.623583E-8	NaN
246	1.000000	0.652759	7.36746e+06	-50939.1	955.818	-29754.3	0.000000	0.000000	6.652997	0.012543	NaN	0.000000	0.001617	0.001597	28.0787	0.020983	0.002025	10.3635	79.4012	14.1324	-0.001487	0.651467	-0.476871	-0.478164	0.012543	10.3635	-0.477779	-1.6766e+06	-7.481161E-9	NaN
246	1.000000	0.662764	7.36746e+06	-50939.1	955.817	-29754.3	0.000000	0.000000	6.663001	0.013741	NaN	0.000000	0.001636	0.001597	28.0786	0.162335	0.002006	80.9047	72.1536	-163.183	0.012340	0.661441	-0.466867	-0.468190	0.013741	80.9047	-0.466994	-1.1837e+06	-1.160823E-8	NaN
246	1.000000	0.672782	7.36746e+06	-50939.1	955.819	-29754.3	0.000000	0.000000	6.673019	0.017701	NaN	0.000000	0.001598	0.001603	28.0786	0.110458	0.001943	56.8606	51.0171	11.7579	0.001125	0.671420	-0.456849	-0.458210	0.017701	56.8606	-0.457083	-859033	-2.060530E-8	NaN
246	1.000000	0.682768	7.36746e+06	-50939.1	955.818	-29754.3	0.000000	0.000000	6.683004	-0.002286	NaN	0.000000	0.001592	0.001611	28.0788	0.050134	0.002033	24.6642	-75.0511	-167.573	0.108106	0.681475	-0.446863	-0.448156	-0.002286	24.6642	-0.446793	-615418	3.715317E-9	NaN
246	1.000000	0.692777	7.36746e+06	-50939.1	955.818	-29754.3	0.000000	0.000000	6.693017	0.076093	NaN	0.000000	0.001577	0.001573	28.08	0.078026	0.002095	37.2428	54.0005	13.152	-0.010224	0.691434	-0.436854	-0.438197	0.076093	37.2428	-0.438386	-468360	-1.624670E-7	NaN
246	1.000000	0.702799	7.36746e+06	-50939.1	955.818	-29754.3	0.000000	0.000000	6.703036	-0.003854	NaN	0.000000	0.001602	0.001629	28.0797	0.028075	0.001967	14.2751	40.2967	-163.306	0.054784	0.701481	-0.426832	-0.428150	-0.003854	14.2751	-0.426629	-319416	1.206599E-8	NaN
246	1.000000	0.712805	7.36746e+06	-50939.1	955.818	-29754.3	0.000000	0.000000	6.713043	0.030110	NaN	0.000000	0.001514	0.001647	28.0797	0.049275	0.001933	25.4885	-77.249	10.02	0.047725	0.711414	-0.416826	-0.418217	0.030110	25.4885	-0.417712	-238754	-1.261138E-7	NaN
246	1.000000	0.722803	7.36746e+06	-50939.1	955.818	-29754.3	0.000000	0.000000	6.723041	0.032030	NaN	0.000000	0.001549	0.001586	28.0797	0.046922	0.001963	23.9086	66.476	-168.681	-0.019140	0.721492	-0.406828	-0.408138	0.032030	23.9086	-0.407833	-172813	-1.853453E-7	NaN
246	1.000000	0.732809	7.36746e+06	-50939.1	955.819	-29754.3	0.000000	0.000000	6.733046	0.011794	NaN	0.000000	0.001583	0.001583	28.08	0.021187	0.002038	10.3965	19.2416	14.4712	0.056320	0.731431	-0.396822	-0.398200	0.011794	10.3965	-0.397673	-123820	-9.524812E-8	NaN
246	1.000000	0.742814	7.36746e+06	-50939.1	955.818	-29754.3	0.000000	0.000000	6.743050	-0.012995	NaN	0.000000	0.001560	0.001578	28.0799	0.055592	0.002043	27.2134	-29.5527	-166.706	0.034162	0.741487	-0.386817	-0.388143	-0.012995	27.2134	-0.386459	-85601.4	1.518120E-7	NaN
246	1.000000	0.752794	7.36746e+06	-50939.1	955.818	-29754.3	0.000000	0.000000	6.753029	-0.035313	NaN	0.000000	0.001621	0.001581	28.0798	0.083399	0.002013	41.4361	143.226	18.1309	0.006889	0.751465	-0.376837	-0.378165	-0.035313	41.4361	-0.376198	-60993.9	5.789649E-7	NaN
246	1.000000	0.762807	7.36746e+06	-50939.1	955.818	-29754.3	0.000000	0.000000	6.763044	-0.002314	NaN	0.000000	0.001573	0.001609	28.0799	0.073540	0.001920	38.2978	-25.3927	-167.399	-0.025383	0.761474	-0.366823	-0.368157	-0.002314	38.2978	-0.366778	-44637.6	5.183283E-8	NaN
246	1.000000	0.772825	7.36746e+06	-50939.1	955.818	-29754.3	0.000000	0.000000	6.773059	-0.049254	NaN	0.000000	0.001629	0.001606	28.08	0.118946	0.002074	57.3512	-28.5927	8.601086	-0.056938	0.771442	-0.356806	-0.358189	-0.049254	57.3512	-0.356162	-31356.1	1.570800E-6	NaN
246	1.000000	0.782824	7.36746e+06	-50939.1	955.818	-29754.3	0.000000	0.000000	6.783058	-0.049727	NaN	0.000000	0.001593	0.001602	28.0798	0.061743	0.002060	29.9711	-36.8904	-164.443	0.111789	0.781510	-0.346807	-0.348121	-0.049727	29.9711	-0.345563	-22006	2.259706E-6	NaN
246	1.000000	0.792832	7.36746e+06	-50939.1	955.819	-29754.3	0.000000	0.000000	6.793069	0.014215	NaN	0.000000	0.001579	0.001581	28.08	0.025962	0.002019	12.8583	49.7039	15.9797	0.023923	0.791462	-0.336799	-0.338169	0.014215	12.8583	-0.337628	-16864	-8.429109E-7	NaN
246	1.000000	0.802830	7.36746e+06	-50939.1	955.819	-29754.3	0.000000	0.000000	6.803066	0.002507	NaN	0.000000	0.001622	0.001615	28.08	0.117387	0.001923	61.0289	-129.47	-166.85	0.010267	0.801550	-0.326801	-0.328081	0.002507	61.0289	-0.326832	-11722.6	-2.138900E-7	NaN
246	1.000000	0.812852	7.36746e+06	-50939.1	955.819	-29754.3	0.000000	0.000000	6.813088	-0.019310	NaN	0.000000	0.001617	0.001595	28.08	0.027562	0.002031	13.5697	-24.995	14.4487	-0.023771	0.811500	-0.316779	-0.318131	-0.019310	13.5697	-0.315712	-8043.53	2.400663E-6	NaN
246	1.000000	0.822836	7.36746e+06	-50939.1	955.818	-29754.3	0.000000	0.000000	6.823073	-0.011870	NaN	0.000000	0.001566	0.001603	28.0784	0.074351	0.002028	36.655	-113.276	-164.047	0.086390	0.821517	-0.306794	-0.308114	-0.011870	36.655	-0.306552	-5888.06	2.015867E-6	NaN
246	1.000000	0.832850	7.36746e+06	-50939.1	955.818	-29754.3	0.000000	0.000000	6.833088	0.014743	NaN	0.000000	0.001596	0.001622	28.0787	0.014857	0.001970	7.539951	135.812	14.1961	0.075970	0.831485	-0.296780	-0.298145	0.014743	7.539951	-0.298247	-4431.23	-3.327037E-6	NaN
246	1.000000	0.842813	7.36746e+06	-50939.1	955.819	-29754.3	0.000000	0.000000	6.843052	0.047104	NaN	0.000000	0.001669	0.001597	28.0786	0.055554	0.002099	26.4682	-90.396	-168.104	-0.011757	0.841566	-0.286818	-0.288065	0.047104	26.4682	-0.288152	-3130.44	-1.504715E-5	NaN
246	1.000000	0.852846	7.36746e+06	-50939.1	955.818	-29754.3	0.000000	0.000000	6.853083	0.020802	NaN	0.000000	0.001632	0.001688	28.0787	0.071650	0.001936	37.0085	-105.464	15.4903	-0.031697	0.851499	-0.276785	-0.278132	0.020802	37.0085	-0.277207	-2141.85	-9.712053E-6	NaN
246	1.000000	0.862901	7.36746e+06	-50939.1	955.818	-29754.3	0.000000	0.000000	6.863135	-0.059748	NaN	0.000000	0.001612	0.001654	28.0786	0.140054	0.001937	72.2934	-162.677	-168.795	0.045924	0.861564	-0.266730	-0.268067	-0.059748	72.2934	-0.266110	-1453.19	4.111483E-5	NaN
246	1.000000	0.872837	7.36746e+06	-50939.1	955.818	-29754.3	0.000000	0.000000	6.873075	0.037517	NaN	0.000000	0.001649	0.001660	28.0785	0.149373	0.002103	71.0122	-153.221	14.1689	0.042869	0.871486	-0.256794	-0.258145	0.037517	71.0122	-0.257190	-1061.21	-3.535315E-5	NaN
246	1.000000	0.882851	7.36746e+06	-50939.1	955.818	-29754.3	0.000000	0.000000	6.883087	-0.014725	NaN	0.000000	0.001631	0.001673	28.0782	0.106562	0.001902	56.0133	-118.752	-166.663	0.067031	0.881550	-0.246780	-0.248081	-0.014725	56.0133	-0.246583	-727.83	2.023132E-5	NaN
246	1.000000	0.892843	7.36746e+06	-50939.1	955.818	-29754.3	0.000000	0.000000	6.893080	-0.008433	NaN	0.000000	0.001588	0.001672	28.0783	0.168202	0.001942	86.6099	89.2684	14.9911	0.035009	0.891480	-0.236788	-0.238151	-0.008433	86.6099	-0.236715	-510.679	1.651363E-5	NaN
246	1.000000	0.902893	7.36746e+06	-50939.1	955.819	-29754.3	0.000000	0.000000	6.903129	0.000825	NaN	0.000000	0.001590	0.001675	28.0785	0.040926	0.001984	20.6305	-152.933	-164.366	0.095775	0.901575	-0.226738	-0.228056	0.000825	20.6305	-0.226768	-355.951	-2.316909E-6	NaN
246	1.000000	0.912882	7.36746e+06	-50939.1	955.819	-29754.3	0.000000	0.000000	6.913121	0.052177	NaN	0.000000	0.001582	0.001633	28.0784	0.044796	0.001893	23.6662	-152.257	13.2878	0.012794	0.911482	-0.216749	-0.218149	0.052177	23.6662	-0.218402	-261.891	-0.000199	NaN
246	1.000000	0.922864	7.36746e+06	-50939.1	955.819	-29754.3	0.000000	0.000000	6.923102	0.034179	NaN	0.000000	0.001605	0.001684	28.0787	0.136576	0.001979	69.0043	-62.6383	-167.361	0.014631	0.921609	-0.206767	-0.208022	0.034179	69.0043	-0.207138	-172.339	-0.000198	NaN
246	1.000000	0.932872	7.36746e+06	-50939.1	955.819	-29754.3	0.000000	0.000000	6.933109	0.029309	NaN	0.000000	0.001625	0.001681	28.0783	0.049407	0.001975	25.0109	101.469	11.8197	-0.011174	0.931493	-0.196759	-0.198137	0.029309	25.0109	-0.197638	-120.451	-0.000243	NaN
246	1.000000	0.942876	7.36746e+06	-50939.1	955.819	-29754.3	0.000000	0.000000	6.943113	0.010086	NaN	0.000000	0.001614	0.001677	28.0785	0.031302	0.002037	15.3705	168.978	-165.898	0.027534	0.941567	-0.186755	-0.188064	0.010086	15.3705	-0.187247	-80.8964	-0.000125	NaN
246	1.000000	0.952893	7.36746e+06	-50939.1	955.819	-29754.3	0.000000	0.000000	6.953130	0.027928	NaN	0.000000	0.001599	0.001668	28.0786	0.050002	0.001967	25.419	-133.985	13.2136	0.010633	0.951516	-0.176738	-0.178115	0.027928	25.419	-0.177562	-55.4492	-0.000504	NaN
246	1.000000	0.962858	7.36746e+06	-50939.1	955.818	-29754.3	0.000000	0.000000	6.963096	0.037417	NaN	0.000000	0.001632	0.001640	28.0797	0.025023	0.001984	12.6115	112.344	-170.149	0.061333	0.961569	-0.166773	-0.168062	0.037417	12.6115	-0.168998	-39.463	-0.000948	NaN
246	1.000000	0.972904	7.36746e+06	-50939.1	955.818	-29754.3	0.000000	0.000000	6.973139	-0.041619	NaN	0.000000	0.001641	0.001681	28.0796	0.060311	0.002016	29.9173	-3.760295	13.2861	-0.032239	0.971523	-0.156726	-0.158108	-0.041619	29.9173	-0.155683	-22.9542	0.001813	NaN
246	1.000000	0.982901	7.36746e+06	-50939.1	955.818	-29754.3	0.000000	0.000000	6.983138	0.007980	NaN	0.000000	0.001625	0.001673	28.0797	0.074708	0.002066	36.1532	40.6894	-162.529	-0.023502	0.981577	-0.146730	-0.148054	0.007980	36.1532	-0.146895	-15.8904	-0.000502	NaN
246	1.000000	0.992923	7.36746e+06	-50939.1	955.817	-29754.3	0.000000	0.000000	6.993160	0.015992	NaN	0.000000	0.001592	0.001687	28.0799	0.066481	0.001955	34.0065	121.086	13.8319	0.084445	0.991503	-0.136708	-0.138128	0.015992	34.0065	-0.137060	-10.411	-0.001536	NaN
246	1.000000	1.002897	7.36746e+06	-50939.1	955.817	-29754.3	0.000000	0.000000	7.003133	-0.021649	NaN	0.000000	0.001621	0.001684	28.0796	0.083825	0.001853	45.2492	113.332	-164.987	-0.019716	1.001619	-0.126734	-0.128012	-0.021649	45.2492	-0.126375	-6.473407	0.003344	NaN
246	1.000000	1.012977	7.36746e+06	-50939.1	955.816	-29754.3	0.000000	0.000000	7.013212	-0.026623	NaN	0.000000	0.001627	0.001672	28.0797	0.086223	0.002133	40.4255	171.964	13.2397	-0.089444	1.011627	-0.116654	-0.118003	-0.026623	40.4255	-0.116160	-4.036137	0.006596	NaN
246	1.000000	1.022912	7.36746e+06	-50939.1	955.817	-29754.3	0.000000	0.000000	7.023147	-0.036926	NaN	0.000000	0.001581	0.001613	28.0797	0.064567	0.002148	30.066	-132.154	-168.863	-0.054980	1.021623	-0.106719	-0.108008	-0.036926	30.066	-0.105797	-2.445490	0.015100	NaN
246	1.000000	1.032956	7.36746e+06	-50939.1	955.817	-29754.3	0.000000	0.000000	7.033193	0.022066	NaN	0.000000	0.001628	0.001660	28.0801	0.127423	0.002023	62.9804	139.319	12.8113	0.030740	1.031599	-0.096675	-0.098032	0.022066	62.9804	-0.096938	-1.560724	-0.014139	NaN
246	1.000000	1.042932	7.36746e+06	-50939.1	955.817	-29754.3	0.000000	0.000000	7.043167	-0.034426	NaN	0.000000	0.001634	0.001653	28.0796	0.081777	0.002025	40.3814	-52.1784	-165.237	-0.006369	1.041589	-0.086699	-0.088042	-0.034426	40.3814	-0.086060	-0.871441	0.039505	NaN
246	1.000000	1.052917	7.36746e+06	-50939.1	955.817	-29754.3	0.000000	0.000000	7.053154	0.003081	NaN	0.000000	0.001603	0.001664	28.0794	0.147960	0.002085	70.9609	-61.4337	12.0858	0.012762	1.051606	-0.076714	-0.078025	0.003081	70.9609	-0.076746	-0.512189	-0.006016	NaN
246	1.000000	1.062951	7.36746e+06	-50939.1	955.818	-29754.3	0.000000	0.000000	7.063187	-0.017427	NaN	0.000000	0.001604	0.001652	28.0796	0.119944	0.002097	57.1881	-162.063	-165.008	-0.102440	1.061646	-0.066680	-0.067985	-0.017427	57.1881	-0.066451	-0.273295	0.063766	NaN
246	1.000000	1.072927	7.36746e+06	-50939.1	955.817	-29754.3	0.000000	0.000000	7.073160	-0.075351	NaN	0.000000	0.001617	0.001678	28.0797	0.085591	0.002056	41.6393	-13.5708	15.837	-0.006590	1.071578	-0.056704	-0.058052	-0.075351	41.6393	-0.055347	-0.131849	0.571495	NaN
246	1.000000	1.082935	7.36746e+06	-50939.1	955.819	-29754.3	0.000000	0.000000	7.083171	-0.016505	NaN	0.000000	0.001634	0.001676	28.0798	0.037745	0.002035	18.5514	30.9757	-165.205	0.047178	1.081645	-0.046696	-0.047986	-0.016505	18.5514	-0.046029	-0.069095	0.238875	NaN
246	1.000000	1.092970	7.36746e+06	-50939.1	955.818	-29754.3	0.000000	0.000000	7.093205	-0.025117	NaN	0.000000	0.001638	0.001657	28.0793	0.058839	0.002037	28.8808	-27.2382	13.1216	0.017770	1.091562	-0.036661	-0.038069	-0.025117	28.8808	-0.036009	-0.034302	0.732237	NaN
246	1.000000	1.102989	7.36746e+06	-50939.1	955.818	-29754.3	0.000000	0.000000	7.103225	-0.001815	NaN	0.000000	0.001594	0.001669	28.0785	0.064689	0.002099	30.8211	142.652	-167.441	-0.046901	1.101611	-0.026642	-0.028020	-0.001815	30.8211	-0.026598	-0.018590	0.097637	NaN
246	1.000000	1.112976	7.36746e+06	-50939.1	955.817	-29754.3	0.000000	0.000000	7.113215	0.057371	NaN	0.000000	0.001584	0.001698	28.0785	0.035030	0.002072	16.9097	95.0992	12.5483	0.020554	1.111545	-0.016654	-0.018086	0.057371	16.9097	-0.019199	-0.011984	-4.787280	NaN
246	1.000000	1.122961	7.36746e+06	-50939.1	955.818	-29754.3	0.000000	0.000000	7.123197	-0.020116	NaN	0.000000	0.001631	0.001742	28.0785	0.054790	0.001959	27.9632	125.582	-164.089	-0.060552	1.121654	-0.006670	-0.007977	-0.020116	27.9632	-0.006130	-0.004116	4.887751	NaN
246	1.000000	1.132958	7.36746e+06	-50939.1	955.818	-29754.3	0.000000	0.000000	7.133294	2.426460	NaN	0.000000	0.001606	0.001642	28.0787	3.173189	0.001855	1710.18	4.400063	15.7669	1.078782	1.131596	0.003327	0.001965	2.426460	1710.18	0.002263	0.001768	1372.09	37155.2
246	2.000000	1.139528	7.36746e+06	-50939.1	955.817	-29754.3	0.000000	0.000000	7.140185	10.2341	NaN	0.000000	0.001645	0.001671	28.079	9.058414	0.001621	5587.75	4.721289	-172.082	9.536002	1.139246	0.009897	0.009615	10.2341	5587.75	0.008523	0.007586	1349.04	58613.6
246	2.000000	1.142030	7.36746e+06	-50939.1	955.817	-29754.3	0.000000	0.000000	7.142913	15.7213	NaN	0.000000	0.001596	0.001666	28.0785	12.8332	0.001737	7389.04	3.603497	7.749578	14.8625	1.141658	0.012399	0.012027	15.7213	7389.04	0.010803	0.010088	1558.39	67213.2
246	2.000000	1.144521	7.36746e+06	-50939.1	955.817	-29754.3	0.000000	0.000000	7.145536	18.9228	NaN	0.000000	0.001592	0.001683	28.0783	15.8885	0.001847	8602.17	6.954836	-176.48	19.1414	1.144182	0.014890	0.014551	18.9228	8602.17	0.013241	0.013010	1454.47	68903.3
246	2.000000	1.147050	7.36746e+06	-50939.1	955.818	-29754.3	0.000000	0.000000	7.148235	23.0503	NaN	0.000000	0.001615	0.001655	28.0785	18.0008	0.001814	9924.64	11.2248	-0.741703	23.8161	1.146617	0.017419	0.016987	23.0503	9924.64	0.015677	0.016199	1422.94	71243
246	2.000000	1.149484	7.36746e+06	-50939.1	955.818	-29754.3	0.000000	0.000000	7.150822	26.8022	NaN	0.000000	0.001599	0.001614	28.0789	20.2572	0.001805	11220.5	5.588022	-178.23	26.6823	1.149182	0.019853	0.019552	26.8022	11220.5	0.018061	0.019587	1368.37	73248.8
246	2.000000	1.152041	7.36746e+06	-50939.1	955.818	-29754.3	0.000000	0.000000	7.153632	32.9575	NaN	0.000000	0.001587	0.001647	28.0785	22.784	0.001814	12559.7	9.199110	0.289102	34.8261	1.151593	0.022410	0.021962	32.9575	12559.7	0.020442	0.023241	1418.08	75270.4
246	2.000000	1.154451	7.36746e+06	-50939.1	955.817	-29754.3	0.000000	0.000000	7.156393	41.4812	NaN	0.000000	0.001613	0.001665	28.0783	25.4324	0.001728	14715	8.099917	177.676	40.8039	1.154144	0.024820	0.024513	41.4812	14715	0.022706	0.026973	1537.86	81859.1
246	2.000000	1.157008	7.36746e+06	-50939.1	955.817	-29754.3	0.000000	0.000000	7.159157	46.5041	NaN	0.000000	0.001587	0.001636	28.0785	26.9912	0.001800	14991.4	6.205502	0.522319	46.6158	1.156687	0.027377	0.027056	46.5041	14991.4	0.025050	0.031107	1494.95	77657.5
246	2.000000	1.159450	7.36746e+06	-50939.1	955.819	-29754.3	0.000000	0.000000	7.161967	55.4359	NaN	0.000000	0.001601	0.001591	28.0785	29.5524	0.001825	16191.2	7.230919	-179.937	55.3076	1.159069	0.029820	0.029438	55.4359	16191.2	0.027252	0.035240	1573.1	78801.8
246	2.000000	1.161981	7.36746e+06	-50939.1	955.817	-29754.3	0.000000	0.000000	7.164812	63.089	NaN	0.000000	0.001588	0.001648	28.0798	32.6592	0.001845	17701.7	11.1208	-6.008134	65.0666	1.161567	0.032350	0.031936	63.089	17701.7	0.029677	0.040077	1574.18	80786.2
246	2.000000	1.164436	7.36746e+06	-50939.1	955.82	-29754.3	0.000000	0.000000	7.167720	74.1198	NaN	0.000000	0.001619	0.001668	28.08	34.9105	0.001747	19985.6	3.051820	-179.623	72.4586	1.164113	0.034805	0.034482	74.1198	19985.6	0.032023	0.045042	1645.57	86036.1
246	2.000000	1.166941	7.36746e+06	-50939.1	955.818	-29754.3	0.000000	0.000000	7.170628	83.9173	NaN	0.000000	0.001628	0.001675	28.0801	37.2471	0.001662	22404.9	6.885202	-4.774765	81.6174	1.166538	0.037310	0.036907	83.9173	22404.9	0.034501	0.050590	1658.77	91008.9
246	2.000000	1.169436	7.36746e+06	-50939.1	955.818	-29754.3	0.000000	0.000000	7.173486	92.7252	NaN	0.000000	0.001637	0.001669	28.0797	39.6006	0.001710	23157.2	5.587845	175.564	91.2741	1.169053	0.039805	0.039422	92.7252	23157.2	0.036802	0.056026	1655.04	89385.1
246	2.000000	1.171901	7.36746e+06	-50939.1	955.819	-29754.3	0.000000	0.000000	7.176091	96.1272	NaN	0.000000	0.001610	0.001669	28.08	42.1401	0.001751	24072	3.116970	-1.459762	93.9654	1.171633	0.042270	0.042002	96.1272	24072	0.039275	0.062169	1546.23	88206.2
246	2.000000	1.174452	7.36746e+06	-50939.1	955.818	-29754.3	0.000000	0.000000	7.179172	109.01	NaN	0.000000	0.001626	0.001658	28.0799	45.3629	0.001846	24570.9	2.330508	178.736	107.155	1.174054	0.044821	0.044424	109.01	24570.9	0.041494	0.067947	1604.34	86121.3
246	2.000000	1.176965	7.36746e+06	-50939.1	955.817	-29754.3	0.000000	0.000000	7.182282	123.545	NaN	0.000000	0.001603	0.001669	28.08	47.6585	0.001811	26321.7	5.663856	-4.738728	121.426	1.176590	0.047334	0.046959	123.545	26321.7	0.043814	0.074255	1663.79	88251.9
246	2.000000	1.179385	7.36746e+06	-50939.1	955.817	-29754.3	0.000000	0.000000	7.185150	134.439	NaN	0.000000	0.001589	0.001648	28.0797	49.2955	0.001754	28097.1	3.850278	176.332	132.045	1.179056	0.049754	0.049425	134.439	28097.1	0.046165	0.080929	1661.19	90236.5
246	2.000000	1.181859	7.36746e+06	-50939.1	955.817	-29754.3	0.000000	0.000000	7.188133	146.81	NaN	0.000000	0.001644	0.001652	28.0799	51.9178	0.001788	29042.5	3.770278	-3.316969	142.694	1.181441	0.052228	0.051811	146.81	29042.5	0.048437	0.087644	1675.08	89628.7
246	2.000000	1.184461	7.36746e+06	-50939.1	955.817	-29754.3	0.000000	0.000000	7.190987	152.938	NaN	0.000000	0.001597	0.001645	28.0797	55.8933	0.001893	29521.7	7.891882	171.947	156.108	1.184161	0.054830	0.054530	152.938	29521.7	0.050945	0.095355	1603.87	87345.8
246	2.000000	1.187017	7.36746e+06	-50939.1	955.818	-29754.3	0.000000	0.000000	7.194189	168.657	NaN	0.000000	0.001598	0.001653	28.0799	57.2799	0.001811	31635.7	7.624861	-8.303135	169.423	1.186543	0.057386	0.056912	168.657	31635.7	0.053388	0.103172	1634.72	89985
246	2.000000	1.189382	7.36746e+06	-50939.1	955.818	-29754.3	0.000000	0.000000	7.197081	181.459	NaN	0.000000	0.001592	0.001676	28.0797	59.7449	0.001891	31594.9	5.967544	173.369	180.866	1.189065	0.059751	0.059434	181.459	31594.9	0.055444	0.109979	1649.94	87043.1
246	2.000000	1.191910	7.36746e+06	-50939.1	955.817	-29754.3	0.000000	0.000000	7.200339	199.206	NaN	0.000000	0.001631	0.001651	28.0798	61.2487	0.001755	34908.9	1.919541	-2.974110	198.513	1.191569	0.062280	0.061938	199.206	34908.9	0.058000	0.118733	1677.76	92560
246	2.000000	1.194448	7.36746e+06	-50939.1	955.816	-29754.3	0.000000	0.000000	7.203374	211.313	NaN	0.000000	0.001617	0.001600	28.0799	64.5041	0.001770	36447.5	1.088347	177.181	211.545	1.194139	0.064817	0.064508	211.313	36447.5	0.060469	0.127494	1657.43	93260
246	2.000000	1.196860	7.36746e+06	-50939.1	955.818	-29754.3	0.000000	0.000000	7.206526	229.291	NaN	0.000000	0.001619	0.001591	28.0785	66.8287	0.001885	35454.1	7.745108	-9.334385	225.943	1.196574	0.067230	0.066944	229.291	35454.1	0.062379	0.134478	1705.05	88331.3
246	2.000000	1.199342	7.36746e+06	-50939.1	955.818	-29754.3	0.000000	0.000000	7.209636	244.561	NaN	0.000000	0.001619	0.001615	28.0784	68.6755	0.001781	38556.8	6.015720	172.137	241.193	1.199018	0.069711	0.069387	244.561	38556.8	0.064954	0.144171	1696.33	92776.2
246	2.000000	1.201858	7.36746e+06	-50939.1	955.817	-29754.3	0.000000	0.000000	7.212830	261.073	NaN	0.000000	0.001602	0.001585	28.0786	70.5481	0.001670	42237.4	2.777623	-5.224047	257.077	1.201482	0.072227	0.071851	261.073	42237.4	0.067591	0.154427	1690.59	98199.3
246	2.000000	1.204366	7.36746e+06	-50939.1	955.818	-29754.3	0.000000	0.000000	7.215833	273.097	NaN	0.000000	0.001640	0.001622	28.0787	75.9252	0.001737	43714.4	7.966028	168.253	272.008	1.204129	0.074735	0.074498	273.097	43714.4	0.070049	0.164288	1662.3	98535.9
246	2.000000	1.206854	7.36746e+06	-50939.1	955.818	-29754.3	0.000000	0.000000	7.219215	294.832	NaN	0.000000	0.001627	0.001624	28.0786	77.9872	0.001833	42555.7	8.984540	-11.5175	289.268	1.206395	0.077224	0.076764	294.832	42555.7	0.072028	0.172433	1709.83	93631.2
246	2.000000	1.209427	7.36746e+06	-50939.1	955.818	-29754.3	0.000000	0.000000	7.222241	305.865	NaN	0.000000	0.001587	0.001619	28.0786	80.2554	0.001919	41830.5	7.878979	170.155	306.838	1.208989	0.079796	0.079358	305.865	41830.5	0.074312	0.182069	1679.94	89567
246	2.000000	1.211876	7.36746e+06	-50939.1	955.817	-29754.3	0.000000	0.000000	7.225495	325.442	NaN	0.000000	0.001616	0.001604	28.0788	82.7637	0.001841	44966.2	4.456282	-7.345104	323.182	1.211468	0.082245	0.081837	325.442	44966.2	0.076817	0.192917	1686.95	93534.9
246	2.000000	1.214386	7.36746e+06	-50939.1	955.817	-29754.3	0.000000	0.000000	7.228853	346.054	NaN	0.000000	0.001613	0.001613	28.0787	85.4611	0.001831	46674.6	4.728039	171.833	345.731	1.213970	0.084755	0.084339	346.054	46674.6	0.079194	0.203488	1700.61	94533.3
246	2.000000	1.216850	7.36746e+06	-50939.1	955.818	-29754.3	0.000000	0.000000	7.232057	364.049	NaN	0.000000	0.001619	0.001610	28.0786	86.7544	0.001900	45671.3	3.359650	-5.878580	360.888	1.216372	0.087219	0.086741	364.049	45671.3	0.081240	0.212794	1710.81	90456
246	2.000000	1.219414	7.36746e+06	-50939.1	955.818	-29754.3	0.000000	0.000000	7.235193	377.949	NaN	0.000000	0.001605	0.001606	28.0784	89.7965	0.001819	49367.9	5.147771	170.671	380.334	1.219099	0.089783	0.089468	377.949	49367.9	0.084041	0.225847	1673.47	94909.6
246	2.000000	1.221823	7.36746e+06	-50939.1	955.818	-29754.3	0.000000	0.000000	7.238482	399.34	NaN	0.000000	0.001616	0.001617	28.0787	91.1488	0.001740	52393.5	6.193296	-10.8774	395.461	1.221500	0.092192	0.091869	399.34	52393.5	0.086476	0.237493	1681.48	98225.8
246	2.000000	1.224414	7.36746e+06	-50939.1	955.817	-29754.3	0.000000	0.000000	7.241930	420.179	NaN	0.000000	0.001635	0.001613	28.0784	93.9439	0.001733	54205	4.294560	171.12	421.21	1.224076	0.094783	0.094445	420.179	54205	0.088969	0.249700	1682.73	99106.8
246	2.000000	1.226898	7.36746e+06	-50939.1	955.817	-29754.3	0.000000	0.000000	7.245201	439.323	NaN	0.000000	0.001605	0.001599	28.0786	95.316	0.001717	55515.4	3.373530	-8.108459	438.823	1.226605	0.097267	0.096974	439.323	55515.4	0.091332	0.261532	1679.8	99179.9
246	2.000000	1.229401	7.36746e+06	-50939.1	955.819	-29754.3	0.000000	0.000000	7.248717	463.943	NaN	0.000000	0.001577	0.001605	28.0787	98.5997	0.001836	53709.6	8.666891	166.641	464.602	1.228979	0.099770	0.099348	463.943	53709.6	0.093292	0.271538	1708.57	94169.3
246	2.000000	1.231783	7.36746e+06	-50939.1	955.818	-29754.3	0.000000	0.000000	7.252150	489.521	NaN	0.000000	0.001618	0.001607	28.0801	99.3951	0.001708	58198.7	3.864151	-9.157263	483.46	1.231456	0.102152	0.101825	489.521	58198.7	0.095844	0.284834	1718.62	99630.2
246	2.000000	1.234423	7.36746e+06	-50939.1	955.817	-29754.3	0.000000	0.000000	7.255271	501.222	NaN	0.000000	0.001639	0.001585	28.0797	104.36	0.001850	56413	8.691795	166.053	501.486	1.234070	0.104792	0.104439	501.222	56413	0.098128	0.296985	1687.7	94576.9
246	2.000000	1.236892	7.36746e+06	-50939.1	955.818	-29754.3	0.000000	0.000000	7.259007	532.017	NaN	0.000000	0.001591	0.001606	28.0798	105.492	0.001763	59847	7.975641	-12.8032	530.906	1.236497	0.107262	0.106866	532.017	59847	0.100594	0.310371	1714.14	98146.6