File: remote_trans/data/nanoindenter/0828-1/data/Data_2025-08-06,11h17m57s/2025-07-22_16-23-58_1_443.txt
2025-07-22, 16:23:58, 1
Index	Phase	Displacement	Time	Pos X	Pos Y	Pos Z	Rot A	Rot B	Piezo Z	Force A	Force B	Gripper	Voltage A	Voltage B	Temperature	Amplitude force	Amplitude pos	Stiffness	Phase shift	Phase excitation	Force A raw	Displacement raw	HMax	HMax raw	Real Force	Real Stiffness	Contact Depth	Area	Hardness	Reduced Mod.
[#]	[#]	[um]	[s]	[um]	[um]	[um]	[m°]	[m°]	[um]	[uN]	[uN]	[V]	[V]	[V]	[°C]	[uN]	[um]	[N/m]	[°]	[°]	[uN]	[um]	[um]	[um]	[uN]	[N/m]	[um]	[um^2]	[MPa]	[MPa]
443	1.000000	0.002545	7.36939e+06	-54939.1	1005.82	-29742.7	0.000000	0.000000	6.002801	-0.054911	NaN	0.000000	0.001525	0.001763	28.0813	0.123029	0.000949	129.638	150.035	-169.922	-0.043978	0.001297	-1.013666	-1.014915	-0.054911	129.638	-1.013349	-3.431237E+13	1.600314E-15	NaN
443	1.000000	0.010521	7.36939e+06	-54939.1	1005.82	-29742.7	0.000000	0.000000	6.010780	0.001259	NaN	0.000000	0.001591	0.001725	28.0807	0.042488	0.001065	39.8849	-72.5738	-165.2	0.019839	0.009239	-1.005690	-1.006972	0.001259	39.8849	-1.005713	-2.708227E+13	-4.649464E-17	NaN
443	1.000000	0.018542	7.36939e+06	-54939.1	1005.82	-29742.7	0.000000	0.000000	6.018801	-0.002558	NaN	0.000000	0.001570	0.001758	28.0811	0.025165	0.001829	13.7565	170.148	-166.802	-0.011182	0.017255	-0.997669	-0.998956	-0.002558	13.7565	-0.997529	-2.101370E+13	1.217075E-16	NaN
443	1.000000	0.026515	7.36939e+06	-54939.1	1005.82	-29742.7	0.000000	0.000000	6.026776	0.046841	NaN	0.000000	0.001575	0.001746	28.0809	0.073300	0.001861	39.3774	-48.3585	-166.49	0.082161	0.025204	-0.989696	-0.991007	0.046841	39.3774	-0.990588	-1.694462E+13	-2.764373E-15	NaN
443	1.000000	0.034473	7.36939e+06	-54939.1	1005.82	-29742.7	0.000000	0.000000	6.034735	0.067693	NaN	0.000000	0.001560	0.001753	28.0808	0.082382	0.001957	42.0887	5.967811	-164.231	0.021852	0.033191	-0.981738	-0.983020	0.067693	42.0887	-0.982944	-1.336823E+13	-5.063704E-15	NaN
443	1.000000	0.042505	7.36939e+06	-54939.1	1005.82	-29742.7	0.000000	0.000000	6.042763	-0.024345	NaN	0.000000	0.001568	0.001760	28.0811	0.100873	0.001915	52.6745	59.5301	-161.166	-0.014070	0.041148	-0.973706	-0.975063	-0.024345	52.6745	-0.973360	-9.929810E+12	2.451671E-15	NaN
443	1.000000	0.050477	7.36939e+06	-54939.1	1005.82	-29742.7	0.000000	0.000000	6.050733	-0.065877	NaN	0.000000	0.001562	0.001745	28.0809	0.063475	0.001964	32.3211	174.897	-162.191	0.021874	0.049175	-0.965734	-0.967037	-0.065877	32.3211	-0.964205	-7.474126E+12	8.814036E-15	NaN
443	1.000000	0.058510	7.36939e+06	-54939.1	1005.82	-29742.7	0.000000	0.000000	6.058768	-0.008403	NaN	0.000000	0.001582	0.001738	28.0809	0.032574	0.001973	16.5084	-13.3427	-164.503	-0.006859	0.057182	-0.957701	-0.959029	-0.008403	16.5084	-0.957320	-6.035746E+12	1.392251E-15	NaN
443	1.000000	0.066499	7.36939e+06	-54939.1	1005.82	-29742.7	0.000000	0.000000	6.066757	-0.010859	NaN	0.000000	0.001575	0.001766	28.0808	0.042650	0.002082	20.4876	-156.69	-165.568	0.028315	0.065165	-0.949713	-0.951046	-0.010859	20.4876	-0.949315	-4.707483E+12	2.306841E-15	NaN
443	1.000000	0.074502	7.36939e+06	-54939.1	1005.82	-29742.7	0.000000	0.000000	6.074760	-0.030448	NaN	0.000000	0.001626	0.001746	28.0806	0.043314	0.001937	22.3663	-53.3148	-165.023	0.001538	0.073238	-0.941709	-0.942973	-0.030448	22.3663	-0.940688	-3.600987E+12	8.455553E-15	NaN
443	1.000000	0.082501	7.36939e+06	-54939.1	1005.82	-29742.7	0.000000	0.000000	6.082758	-0.024530	NaN	0.000000	0.001648	0.001730	28.081	0.086095	0.001883	45.7144	151.338	-163.858	0.006874	0.081219	-0.933711	-0.934992	-0.024530	45.7144	-0.933308	-2.863142E+12	8.567523E-15	NaN
443	1.000000	0.090514	7.36939e+06	-54939.1	1005.82	-29742.7	0.000000	0.000000	6.090773	-0.001424	NaN	0.000000	0.001625	0.001747	28.0808	0.104438	0.002088	50.0261	6.594584	-163.541	0.042413	0.089153	-0.925697	-0.927058	-0.001424	50.0261	-0.925676	-2.258537E+12	6.306179E-16	NaN
443	1.000000	0.098498	7.36939e+06	-54939.1	1005.82	-29742.7	0.000000	0.000000	6.098759	0.032877	NaN	0.000000	0.001633	0.001745	28.0809	0.031673	0.002118	14.9534	160.134	-164.63	0.037275	0.097195	-0.917713	-0.919016	0.032877	14.9534	-0.919362	-1.856044E+12	-1.771374E-14	NaN
443	1.000000	0.106523	7.36939e+06	-54939.1	1005.82	-29742.7	0.000000	0.000000	6.106782	-0.000703	NaN	0.000000	0.001636	0.001720	28.0807	0.110729	0.002018	54.863	-33.9845	-162.27	0.009039	0.105207	-0.909688	-0.911004	-0.000703	54.863	-0.909679	-1.373479E+12	5.120888E-16	NaN
443	1.000000	0.114508	7.36939e+06	-54939.1	1005.82	-29742.7	0.000000	0.000000	6.114768	0.026813	NaN	0.000000	0.001591	0.001741	28.0808	0.085866	0.001844	46.5623	24.6804	-163.002	0.008780	0.113180	-0.901703	-0.903031	0.026813	46.5623	-0.902135	-1.086206E+12	-2.468545E-14	NaN
443	1.000000	0.122486	7.36939e+06	-54939.1	1005.82	-29742.7	0.000000	0.000000	6.122744	-0.009980	NaN	0.000000	0.001590	0.001711	28.0797	0.059243	0.002059	28.7659	93.9292	-161.313	-0.016299	0.121177	-0.893725	-0.895034	-0.009980	28.7659	-0.893465	-8.293817E+11	1.203265E-14	NaN
443	1.000000	0.130525	7.36939e+06	-54939.1	1005.82	-29742.7	0.000000	0.000000	6.130783	-0.003246	NaN	0.000000	0.001637	0.001751	28.0798	0.058764	0.001942	30.2545	64.2354	-163.948	0.061819	0.129195	-0.885687	-0.887016	-0.003246	30.2545	-0.885606	-6.494017E+11	4.997815E-15	NaN
443	1.000000	0.138541	7.36939e+06	-54939.1	1005.82	-29742.7	0.000000	0.000000	6.138802	0.052644	NaN	0.000000	0.001611	0.001743	28.0796	0.049975	0.001954	25.5707	-103.312	-168.22	-0.012871	0.137241	-0.877670	-0.878970	0.052644	25.5707	-0.879214	-5.322124E+11	-9.891477E-14	NaN
443	1.000000	0.146537	7.36939e+06	-54939.1	1005.82	-29742.7	0.000000	0.000000	6.146794	-0.031639	NaN	0.000000	0.001648	0.001767	28.0794	0.048068	0.002026	23.7314	-58.9229	-163.986	-0.035714	0.145199	-0.869674	-0.871012	-0.031639	23.7314	-0.868675	-3.832752E+11	8.254969E-14	NaN
443	1.000000	0.154534	7.36939e+06	-54939.1	1005.82	-29742.7	0.000000	0.000000	6.154794	0.029915	NaN	0.000000	0.001628	0.001748	28.0797	0.047066	0.001963	23.9812	91.371	-169.437	0.000442	0.153217	-0.861677	-0.862994	0.029915	23.9812	-0.862613	-3.173087E+11	-9.427872E-14	NaN
443	1.000000	0.162525	7.36939e+06	-54939.1	1005.82	-29742.7	0.000000	0.000000	6.162781	-0.051302	NaN	0.000000	0.001630	0.001759	28.0796	0.025780	0.001987	12.9755	-115.207	-163.639	-0.067017	0.161195	-0.853687	-0.855016	-0.051302	12.9755	-0.850721	-2.190298E+11	2.342261E-13	NaN
443	1.000000	0.170522	7.36939e+06	-54939.1	1005.82	-29742.7	0.000000	0.000000	6.170779	-0.056323	NaN	0.000000	0.001628	0.001791	28.0795	0.058329	0.001943	30.0241	118.377	-164.219	0.008682	0.169201	-0.845689	-0.847010	-0.056323	30.0241	-0.844282	-1.791832E+11	3.143341E-13	NaN
443	1.000000	0.178551	7.36939e+06	-54939.1	1005.82	-29742.7	0.000000	0.000000	6.178809	-0.016896	NaN	0.000000	0.001618	0.001771	28.0796	0.087377	0.001994	43.8217	-156.272	-163.857	0.021996	0.177235	-0.837661	-0.838976	-0.016896	43.8217	-0.837371	-1.444374E+11	1.169812E-13	NaN
443	1.000000	0.186534	7.36939e+06	-54939.1	1005.82	-29742.7	0.000000	0.000000	6.186793	0.007457	NaN	0.000000	0.001640	0.001742	28.0797	0.122624	0.002190	55.9822	-105.276	-163.49	-0.001432	0.185242	-0.829677	-0.830969	0.007457	55.9822	-0.829777	-1.139622E+11	-6.543028E-14	NaN
443	1.000000	0.194586	7.36939e+06	-54939.1	1005.82	-29742.7	0.000000	0.000000	6.194844	-0.025478	NaN	0.000000	0.001606	0.001750	28.0797	0.128382	0.002119	60.582	107.146	-166.045	0.016016	0.193239	-0.821625	-0.822972	-0.025478	60.582	-0.821310	-8.749233E+10	2.912034E-13	NaN
443	1.000000	0.202514	7.36939e+06	-54939.1	1005.82	-29742.7	0.000000	0.000000	6.202775	0.047371	NaN	0.000000	0.001599	0.001742	28.0796	0.106250	0.001992	53.3298	110.324	-163.957	0.040405	0.201206	-0.813697	-0.815005	0.047371	53.3298	-0.814363	-7.043060E+10	-6.725962E-13	NaN
443	1.000000	0.210567	7.36939e+06	-54939.1	1005.82	-29742.7	0.000000	0.000000	6.210824	-0.038537	NaN	0.000000	0.001579	0.001738	28.0797	0.091449	0.002001	45.7068	-47.4802	-160.259	0.008500	0.209278	-0.805645	-0.806933	-0.038537	45.7068	-0.805012	-5.258864E+10	7.327954E-13	NaN
443	1.000000	0.218574	7.36939e+06	-54939.1	1005.82	-29742.7	0.000000	0.000000	6.218831	-0.050169	NaN	0.000000	0.001592	0.001759	28.0795	0.068598	0.001928	35.5876	141.656	-163.634	-0.066957	0.217232	-0.797637	-0.798979	-0.050169	35.5876	-0.796580	-4.040499E+10	1.241658E-12	NaN
443	1.000000	0.226573	7.36939e+06	-54939.1	1005.82	-29742.7	0.000000	0.000000	6.226831	-0.013515	NaN	0.000000	0.001646	0.001782	28.0795	0.060716	0.001980	30.6663	-90.7654	-161.448	0.005616	0.225255	-0.789638	-0.790956	-0.013515	30.6663	-0.789308	-3.218728E+10	4.198826E-13	NaN
443	1.000000	0.234583	7.36939e+06	-54939.1	1005.82	-29742.7	0.000000	0.000000	6.234842	0.016652	NaN	0.000000	0.001646	0.001732	28.0798	0.068854	0.001983	34.7207	-120.361	-162.082	-0.055400	0.233282	-0.781628	-0.782929	0.016652	34.7207	-0.781988	-2.560029E+10	-6.504714E-13	NaN
443	1.000000	0.242603	7.36939e+06	-54939.1	1005.82	-29742.7	0.000000	0.000000	6.242861	-0.035492	NaN	0.000000	0.001622	0.001730	28.0795	0.123548	0.002132	57.946	25.0356	-167.374	-0.038209	0.241292	-0.773608	-0.774919	-0.035492	57.946	-0.773149	-1.941382E+10	1.828168E-12	NaN
443	1.000000	0.250545	7.36939e+06	-54939.1	1005.82	-29742.7	0.000000	0.000000	6.250804	0.000512	NaN	0.000000	0.001656	0.001756	28.0797	0.066908	0.002090	32.0165	-62.3772	-163.904	-0.053744	0.249286	-0.765666	-0.766925	0.000512	32.0165	-0.765678	-1.536515E+10	-3.331680E-14	NaN
443	1.000000	0.258590	7.36939e+06	-54939.1	1005.82	-29742.7	0.000000	0.000000	6.258847	-0.040387	NaN	0.000000	0.001649	0.001734	28.0807	0.049262	0.001971	24.9951	99.2335	-164.314	0.002650	0.257277	-0.757621	-0.758934	-0.040387	24.9951	-0.756409	-1.149347E+10	3.513878E-12	NaN
443	1.000000	0.266562	7.36939e+06	-54939.1	1005.82	-29742.7	0.000000	0.000000	6.266819	-0.061929	NaN	0.000000	0.001639	0.001712	28.0808	0.021611	0.001848	11.6953	5.449988	-161.042	-0.056346	0.265239	-0.749649	-0.750972	-0.061929	11.6953	-0.745677	-8.210522E+9	7.542685E-12	NaN
443	1.000000	0.274594	7.36939e+06	-54939.1	1005.82	-29742.7	0.000000	0.000000	6.274852	-0.022067	NaN	0.000000	0.001585	0.001741	28.0809	0.034834	0.002035	17.1175	150.998	-165.349	-0.035345	0.273316	-0.741617	-0.742895	-0.022067	17.1175	-0.740650	-7.013188E+9	3.146538E-12	NaN
443	1.000000	0.282597	7.36939e+06	-54939.1	1005.82	-29742.7	0.000000	0.000000	6.282857	0.008700	NaN	0.000000	0.001624	0.001722	28.0808	0.083079	0.001996	41.6215	-7.702008	-159.541	0.093750	0.281287	-0.733614	-0.734924	0.008700	41.6215	-0.733770	-5.651841E+9	-1.539309E-12	NaN
443	1.000000	0.290596	7.36939e+06	-54939.1	1005.82	-29742.7	0.000000	0.000000	6.290854	-0.007523	NaN	0.000000	0.001596	0.001746	28.0808	0.121361	0.001927	62.9717	-118.687	-162.972	-0.074385	0.289258	-0.725615	-0.726953	-0.007523	62.9717	-0.725526	-4.363351E+9	1.724120E-12	NaN
443	1.000000	0.298576	7.36939e+06	-54939.1	1005.82	-29742.7	0.000000	0.000000	6.298833	-0.041666	NaN	0.000000	0.001645	0.001729	28.0807	0.126810	0.002120	59.8251	55.5186	-164.579	-0.077608	0.297345	-0.717636	-0.718866	-0.041666	59.8251	-0.717113	-3.350418E+9	1.243618E-11	NaN
443	1.000000	0.306579	7.36939e+06	-54939.1	1005.82	-29742.7	0.000000	0.000000	6.306838	-0.008925	NaN	0.000000	0.001660	0.001752	28.0811	0.062830	0.002119	29.6478	-6.744909	-165.611	-0.049421	0.305299	-0.709632	-0.710912	-0.008925	29.6478	-0.709406	-2.629913E+9	3.393530E-12	NaN
443	1.000000	0.314622	7.36939e+06	-54939.1	1005.82	-29742.7	0.000000	0.000000	6.314880	-0.026490	NaN	0.000000	0.001633	0.001760	28.0809	0.086129	0.001921	44.8351	76.0065	-165.63	0.010020	0.313295	-0.701589	-0.702916	-0.026490	44.8351	-0.701146	-2.028541E+9	1.305847E-11	NaN
443	1.000000	0.322575	7.36939e+06	-54939.1	1005.82	-29742.7	0.000000	0.000000	6.322832	-0.033963	NaN	0.000000	0.001635	0.001751	28.0806	0.054636	0.001962	27.841	-61.499	-165.293	0.001811	0.321229	-0.693636	-0.694983	-0.033963	27.841	-0.692721	-1.556348E+9	2.182223E-11	NaN
443	1.000000	0.330610	7.36939e+06	-54939.1	1005.82	-29742.7	0.000000	0.000000	6.330867	-0.034733	NaN	0.000000	0.001603	0.001765	28.081	0.043541	0.001953	22.2897	-140.016	-166.691	0.023283	0.329326	-0.685601	-0.686885	-0.034733	22.2897	-0.684433	-1.199000E+9	2.896863E-11	NaN
443	1.000000	0.338582	7.36939e+06	-54939.1	1005.82	-29742.7	0.000000	0.000000	6.338840	-0.045265	NaN	0.000000	0.001642	0.001750	28.0808	0.077486	0.001975	39.2377	22.0599	-162.464	-0.054264	0.337312	-0.677629	-0.678899	-0.045265	39.2377	-0.676763	-9.417516E+8	4.806467E-11	NaN
443	1.000000	0.346599	7.36939e+06	-54939.1	1005.82	-29742.7	0.000000	0.000000	6.346857	-0.031757	NaN	0.000000	0.001634	0.001745	28.081	0.024395	0.001927	12.6589	115.582	-166.12	-0.062653	0.345301	-0.669612	-0.670911	-0.031757	12.6589	-0.667730	-7.084760E+8	4.482435E-11	NaN
443	1.000000	0.354599	7.36939e+06	-54939.1	1005.82	-29742.7	0.000000	0.000000	6.354856	-0.036276	NaN	0.000000	0.001651	0.001761	28.0809	0.028866	0.002000	14.4338	41.5502	-163.081	-0.016564	0.353286	-0.661612	-0.662925	-0.036276	14.4338	-0.659728	-5.504734E+8	6.589880E-11	NaN
443	1.000000	0.362617	7.36939e+06	-54939.1	1005.82	-29742.7	0.000000	0.000000	6.362877	0.005994	NaN	0.000000	0.001666	0.001767	28.0808	0.165629	0.002028	81.667	86.9244	-162.687	-0.002439	0.361336	-0.653594	-0.654875	0.005994	81.667	-0.653649	-4.544122E+8	-1.319135E-11	NaN
443	1.000000	0.370609	7.36939e+06	-54939.1	1005.82	-29742.7	0.000000	0.000000	6.370865	-0.071123	NaN	0.000000	0.001641	0.001757	28.081	0.035870	0.001915	18.7319	-126.288	-163.465	-0.118739	0.369292	-0.645602	-0.646920	-0.071123	18.7319	-0.642754	-3.221638E+8	2.207659E-10	NaN
443	1.000000	0.378613	7.36939e+06	-54939.1	1005.82	-29742.7	0.000000	0.000000	6.378871	-0.023437	NaN	0.000000	0.001601	0.001739	28.0809	0.083757	0.001922	43.5862	-138.248	-166.24	-0.048682	0.377335	-0.637598	-0.638876	-0.023437	43.5862	-0.637195	-2.702679E+8	8.671872E-11	NaN
443	1.000000	0.386622	7.36939e+06	-54939.1	1005.82	-29742.7	0.000000	0.000000	6.386879	-0.036180	NaN	0.000000	0.001592	0.001754	28.0809	0.057195	0.001938	29.5108	158.93	-166.075	-0.041303	0.385312	-0.629590	-0.630899	-0.036180	29.5108	-0.628670	-2.064233E+8	1.752717E-10	NaN
443	1.000000	0.394632	7.36939e+06	-54939.1	1005.82	-29742.7	0.000000	0.000000	6.394889	-0.034878	NaN	0.000000	0.001624	0.001764	28.0798	0.047621	0.001955	24.3612	-60.9277	-165.272	-0.024256	0.393382	-0.621580	-0.622829	-0.034878	24.3612	-0.620506	-1.594355E+8	2.187594E-10	NaN
443	1.000000	0.402648	7.36939e+06	-54939.1	1005.82	-29742.7	0.000000	0.000000	6.402906	-0.020006	NaN	0.000000	0.001590	0.001806	28.0798	0.124947	0.002092	59.7202	96.9132	-169.277	0.043133	0.401353	-0.613563	-0.614858	-0.020006	59.7202	-0.613312	-1.269624E+8	1.575722E-10	NaN
443	1.000000	0.410628	7.36939e+06	-54939.1	1005.82	-29742.7	0.000000	0.000000	6.410886	-0.034206	NaN	0.000000	0.001594	0.001780	28.0798	0.050792	0.001972	25.758	160.611	-163.16	-0.014721	0.409346	-0.605583	-0.606865	-0.034206	25.758	-0.604587	-9.629888E+7	3.552039E-10	NaN
443	1.000000	0.418637	7.36939e+06	-54939.1	1005.82	-29742.7	0.000000	0.000000	6.418894	-0.040337	NaN	0.000000	0.001654	0.001792	28.0797	0.071714	0.001993	35.9803	-139.556	-166.977	-0.043868	0.417363	-0.597574	-0.598849	-0.040337	35.9803	-0.596733	-7.506895E+7	5.373374E-10	NaN
443	1.000000	0.426652	7.36939e+06	-54939.1	1005.82	-29742.7	0.000000	0.000000	6.426909	-0.066446	NaN	0.000000	0.001629	0.001807	28.0797	0.115644	0.001982	58.3413	-101.839	-168.75	-0.017360	0.425311	-0.589559	-0.590900	-0.066446	58.3413	-0.588705	-5.818430E+7	1.142000E-9	NaN
443	1.000000	0.434657	7.36939e+06	-54939.1	1005.82	-29742.7	0.000000	0.000000	6.434911	-0.122513	NaN	0.000000	0.001625	0.001751	28.0795	0.025505	0.001969	12.9559	99.8078	-166.175	-0.126669	0.433370	-0.581554	-0.582841	-0.122513	12.9559	-0.574462	-3.700593E+7	3.310629E-9	NaN
443	1.000000	0.442682	7.36939e+06	-54939.1	1005.82	-29742.7	0.000000	0.000000	6.442937	-0.082825	NaN	0.000000	0.001620	0.001759	28.0797	0.066235	0.001991	33.2656	17.678	-169.044	-0.055840	0.441370	-0.573530	-0.574841	-0.082825	33.2656	-0.571662	-3.385302E+7	2.446612E-9	NaN
443	1.000000	0.450669	7.36939e+06	-54939.1	1005.82	-29742.7	0.000000	0.000000	6.450925	-0.060801	NaN	0.000000	0.001644	0.001737	28.0797	0.077930	0.002072	37.6038	-170.803	-169.464	-0.064110	0.449395	-0.565542	-0.566817	-0.060801	37.6038	-0.564330	-2.680756E+7	2.268065E-9	NaN
443	1.000000	0.458679	7.36939e+06	-54939.1	1005.82	-29742.7	0.000000	0.000000	6.458936	-0.052246	NaN	0.000000	0.001630	0.001750	28.0797	0.037507	0.002018	18.5817	-39.6968	-166.325	-0.011168	0.457388	-0.557532	-0.558823	-0.052246	18.5817	-0.555423	-2.018568E+7	2.588271E-9	NaN
443	1.000000	0.466657	7.36939e+06	-54939.1	1005.82	-29742.7	0.000000	0.000000	6.466914	-0.032873	NaN	0.000000	0.001617	0.001774	28.0795	0.040332	0.002007	20.096	-78.9065	-166.633	-0.022232	0.465319	-0.549555	-0.550892	-0.032873	20.096	-0.548328	-1.609870E+7	2.041957E-9	NaN
443	1.000000	0.474680	7.36939e+06	-54939.1	1005.82	-29742.7	0.000000	0.000000	6.474940	0.027165	NaN	0.000000	0.001650	0.001742	28.0795	0.026268	0.002066	12.7116	33.7226	-166.082	0.035501	0.473370	-0.541531	-0.542841	0.027165	12.7116	-0.543134	-1.363998E+7	-1.991588E-9	NaN
443	1.000000	0.482673	7.36939e+06	-54939.1	1005.82	-29742.7	0.000000	0.000000	6.482932	-0.007500	NaN	0.000000	0.001649	0.001761	28.0797	0.123682	0.001915	64.5924	66.2709	-164.261	-0.013348	0.481382	-0.533538	-0.534830	-0.007500	64.5924	-0.533451	-1.001132E+7	7.491925E-10	NaN
443	1.000000	0.490675	7.36939e+06	-54939.1	1005.82	-29742.7	0.000000	0.000000	6.490935	0.017999	NaN	0.000000	0.001621	0.001767	28.0795	0.096647	0.001908	50.6418	118.423	-165.289	0.032509	0.489386	-0.525536	-0.526825	0.017999	50.6418	-0.525802	-7.83903e+06	-2.296092E-9	NaN
443	1.000000	0.498700	7.36939e+06	-54939.1	1005.82	-29742.7	0.000000	0.000000	6.498961	0.054141	NaN	0.000000	0.001611	0.001747	28.08	0.132569	0.002054	64.5385	33.4697	-166.427	0.002739	0.497298	-0.517512	-0.518913	0.054141	64.5385	-0.518141	-6.13389e+06	-8.826558E-9	NaN
443	1.000000	0.506702	7.36939e+06	-54939.1	1005.82	-29742.7	0.000000	0.000000	6.506958	-0.068722	NaN	0.000000	0.001619	0.001788	28.0807	0.080383	0.002025	39.6971	14.0752	-166.658	-0.073877	0.505384	-0.509509	-0.510827	-0.068722	39.6971	-0.508211	-4.4616e+06	1.540291E-8	NaN
443	1.000000	0.514674	7.36939e+06	-54939.1	1005.82	-29742.7	0.000000	0.000000	6.514933	0.007909	NaN	0.000000	0.001620	0.001747	28.08	0.058830	0.002103	27.9787	-89.3113	-160.315	-0.003923	0.513312	-0.501537	-0.502900	0.007909	27.9787	-0.501749	-3.62592e+06	-2.181218E-9	NaN
443	1.000000	0.522712	7.36939e+06	-54939.1	1005.82	-29742.7	0.000000	0.000000	6.522968	-0.075341	NaN	0.000000	0.001667	0.001779	28.0798	0.064872	0.002129	30.4766	-176.116	-164.995	-0.017690	0.521369	-0.493499	-0.494842	-0.075341	30.4766	-0.491645	-2.62043e+06	2.875125E-8	NaN
443	1.000000	0.530694	7.36939e+06	-54939.1	1005.82	-29742.7	0.000000	0.000000	6.530954	0.020285	NaN	0.000000	0.001682	0.001761	28.0807	0.076758	0.001953	39.311	-47.4965	-162.856	-0.024652	0.529380	-0.485517	-0.486831	0.020285	39.311	-0.485904	-2.17838e+06	-9.311754E-9	NaN
443	1.000000	0.538710	7.36939e+06	-54939.1	1005.82	-29742.7	0.000000	0.000000	6.538966	-0.081385	NaN	0.000000	0.001661	0.001776	28.0812	0.106366	0.001985	53.5794	165.801	-167.92	-0.030509	0.537403	-0.477501	-0.478808	-0.081385	53.5794	-0.476361	-1.60168e+06	5.081262E-8	NaN
443	1.000000	0.546709	7.36939e+06	-54939.1	1005.82	-29742.7	0.000000	0.000000	6.546967	-0.015315	NaN	0.000000	0.001637	0.001757	28.081	0.052756	0.001930	27.3357	-82.0875	-170.207	-0.005836	0.545414	-0.469502	-0.470797	-0.015315	27.3357	-0.469082	-1.2663e+06	1.209396E-8	NaN
443	1.000000	0.554701	7.36939e+06	-54939.1	1005.82	-29742.7	0.000000	0.000000	6.554959	-0.019740	NaN	0.000000	0.001679	0.001785	28.0812	0.090030	0.001957	46.0046	-98.234	-165.551	-0.074595	0.553406	-0.461510	-0.462805	-0.019740	46.0046	-0.461188	-981101	2.011994E-8	NaN
443	1.000000	0.562720	7.36939e+06	-54939.1	1005.82	-29742.7	0.000000	0.000000	6.562978	-0.027048	NaN	0.000000	0.001643	0.001764	28.0813	0.098075	0.001855	52.8598	179.926	-162.866	-0.056143	0.561381	-0.453491	-0.454830	-0.027048	52.8598	-0.453108	-755248	3.581373E-8	NaN
443	1.000000	0.570720	7.36939e+06	-54939.1	1005.82	-29742.7	0.000000	0.000000	6.570977	-0.047174	NaN	0.000000	0.001636	0.001729	28.0812	0.063562	0.001827	34.8	101.99	-165.404	-0.060564	0.569410	-0.445491	-0.446802	-0.047174	34.8	-0.444474	-570793	8.264590E-8	NaN
443	1.000000	0.578684	7.36939e+06	-54939.1	1005.82	-29742.7	0.000000	0.000000	6.578944	0.014813	NaN	0.000000	0.001641	0.001736	28.0811	0.064382	0.002045	31.4891	160.06	-167.198	-0.056364	0.577378	-0.437527	-0.438833	0.014813	31.4891	-0.437880	-460717	-3.215171E-8	NaN
443	1.000000	0.586688	7.36939e+06	-54939.1	1005.82	-29742.7	0.000000	0.000000	6.586948	0.025279	NaN	0.000000	0.001637	0.001750	28.0811	0.085171	0.002067	41.1956	119.559	-165.978	-0.040470	0.585380	-0.429523	-0.430831	0.025279	41.1956	-0.429983	-356305	-7.094620E-8	NaN
443	1.000000	0.594722	7.36939e+06	-54939.1	1005.82	-29742.7	0.000000	0.000000	6.594979	-0.050727	NaN	0.000000	0.001633	0.001740	28.0812	0.076007	0.001963	38.728	-27.8383	-167.724	-0.080060	0.593444	-0.421489	-0.422767	-0.050727	38.728	-0.420507	-261579	1.939265E-7	NaN
443	1.000000	0.602696	7.36939e+06	-54939.1	1005.82	-29742.7	0.000000	0.000000	6.602955	-0.013508	NaN	0.000000	0.001597	0.001716	28.0813	0.090692	0.001946	46.6031	-127.771	-165.248	-0.027591	0.601424	-0.413515	-0.414787	-0.013508	46.6031	-0.413297	-206666	6.536168E-8	NaN
443	1.000000	0.610712	7.36939e+06	-54939.1	1005.82	-29742.7	0.000000	0.000000	6.610971	-0.010454	NaN	0.000000	0.001643	0.001735	28.0812	0.102028	0.002107	48.4244	31.9086	-165.128	-0.057223	0.609409	-0.405499	-0.406802	-0.010454	48.4244	-0.405337	-159237	6.564901E-8	NaN
443	1.000000	0.618729	7.36939e+06	-54939.1	1005.82	-29742.7	0.000000	0.000000	6.618990	0.037454	NaN	0.000000	0.001607	0.001776	28.0811	0.133481	0.002089	63.8905	58.2963	-166.867	-0.031525	0.617413	-0.397482	-0.398798	0.037454	63.8905	-0.397922	-124837	-3.000227E-7	NaN
443	1.000000	0.626754	7.36939e+06	-54939.1	1005.82	-29742.7	0.000000	0.000000	6.627012	-0.018128	NaN	0.000000	0.001623	0.001712	28.081	0.008171	0.002060	3.965661	115.46	-163.285	-0.074127	0.625454	-0.389457	-0.390757	-0.018128	3.965661	-0.386028	-84395.5	2.148006E-7	NaN
443	1.000000	0.634748	7.36939e+06	-54939.1	1005.82	-29742.7	0.000000	0.000000	6.635009	0.029115	NaN	0.000000	0.001584	0.001705	28.0811	0.098437	0.001968	50.0228	-167.891	-167.143	0.000279	0.633434	-0.381463	-0.382777	0.029115	50.0228	-0.381899	-73643.9	-3.953423E-7	NaN
443	1.000000	0.642753	7.36939e+06	-54939.1	1005.82	-29742.7	0.000000	0.000000	6.643009	-0.065954	NaN	0.000000	0.001600	0.001749	28.0811	0.052159	0.002066	25.246	127.601	-165.845	-0.035427	0.641462	-0.373459	-0.374749	-0.065954	25.246	-0.371499	-52205.2	1.263369E-6	NaN
443	1.000000	0.650745	7.36939e+06	-54939.1	1005.82	-29742.7	0.000000	0.000000	6.651001	-0.056995	NaN	0.000000	0.001576	0.001737	28.0813	0.114415	0.002032	56.2946	-51.997	-166.249	-0.105435	0.649421	-0.365466	-0.366790	-0.056995	56.2946	-0.364707	-41670.1	1.367769E-6	NaN
443	1.000000	0.658771	7.36939e+06	-54939.1	1005.82	-29742.7	0.000000	0.000000	6.659027	-0.068678	NaN	0.000000	0.001615	0.001757	28.0813	0.101038	0.001908	52.9648	-128.58	-167.769	-0.123325	0.657417	-0.357440	-0.358794	-0.068678	52.9648	-0.356468	-31677.1	2.168052E-6	NaN
443	1.000000	0.666776	7.36939e+06	-54939.1	1005.82	-29742.7	0.000000	0.000000	6.667031	-0.099167	NaN	0.000000	0.001575	0.001767	28.0807	0.058179	0.001973	29.4832	3.527195	-161.064	-0.157610	0.665439	-0.349435	-0.350772	-0.099167	29.4832	-0.346912	-23022.8	4.307355E-6	NaN
443	1.000000	0.674782	7.36939e+06	-54939.1	1005.82	-29742.7	0.000000	0.000000	6.675039	-0.064020	NaN	0.000000	0.001612	0.001800	28.0799	0.012894	0.001959	6.580376	-84.8299	-168.698	-0.122900	0.673442	-0.341429	-0.342769	-0.064020	6.580376	-0.334132	-14993.5	4.269835E-6	NaN
443	1.000000	0.682734	7.36939e+06	-54939.1	1005.82	-29742.7	0.000000	0.000000	6.682995	0.045002	NaN	0.000000	0.001580	0.001766	28.08	0.019288	0.002047	9.422374	-89.9743	-165.785	0.006464	0.681424	-0.333477	-0.334787	0.045002	9.422374	-0.337059	-16544.5	-2.720065E-6	NaN
443	1.000000	0.690763	7.36939e+06	-54939.1	1005.82	-29742.7	0.000000	0.000000	6.691017	-0.112556	NaN	0.000000	0.001574	0.001761	28.0799	0.097568	0.001890	51.6275	-88.8218	-168.534	0.072633	0.689456	-0.325448	-0.326755	-0.112556	51.6275	-0.323813	-10585.4	1.063321E-5	NaN
443	1.000000	0.698758	7.3694e+06	-54939.1	1005.82	-29742.7	0.000000	0.000000	6.699015	-0.063279	NaN	0.000000	0.001630	0.001765	28.0801	0.052481	0.002053	25.5647	52.8874	-165.233	-0.068134	0.697455	-0.317453	-0.318756	-0.063279	25.5647	-0.315596	-8012.12	7.897861E-6	NaN
443	1.000000	0.706770	7.3694e+06	-54939.1	1005.82	-29742.7	0.000000	0.000000	6.707028	-0.017799	NaN	0.000000	0.001568	0.001753	28.0799	0.048585	0.002082	23.3345	120.877	-165.528	-0.093830	0.705456	-0.309441	-0.310755	-0.017799	23.3345	-0.308869	-6372.61	2.793105E-6	NaN
443	1.000000	0.714788	7.3694e+06	-54939.1	1005.82	-29742.7	0.000000	0.000000	6.715044	-0.068263	NaN	0.000000	0.001589	0.001747	28.0796	0.058261	0.001870	31.1582	-171.473	-165.43	-0.027350	0.713447	-0.301423	-0.302764	-0.068263	31.1582	-0.299780	-4670.49	1.461575E-5	NaN
443	1.000000	0.722759	7.3694e+06	-54939.1	1005.82	-29742.7	0.000000	0.000000	6.723018	0.009534	NaN	0.000000	0.001624	0.001733	28.0797	0.084628	0.001983	42.6687	63.1865	-162.865	-0.006768	0.721483	-0.293452	-0.294728	0.009534	42.6687	-0.293620	-3779.78	-2.522447E-6	NaN
443	1.000000	0.730782	7.3694e+06	-54939.1	1005.82	-29742.7	0.000000	0.000000	6.731043	0.051501	NaN	0.000000	0.001585	0.001760	28.0798	0.011974	0.002008	5.963728	110.506	-165.981	-0.011924	0.729463	-0.285430	-0.286748	0.051501	5.963728	-0.291906	-3563.23	-1.445347E-5	NaN
443	1.000000	0.738799	7.3694e+06	-54939.1	1005.82	-29742.7	0.000000	0.000000	6.739054	-0.108656	NaN	0.000000	0.001531	0.001730	28.0796	0.002584	0.001902	1.358966	103.036	-165.293	-0.077172	0.737477	-0.277412	-0.278734	-0.108656	1.358966	-0.217446	-252.808	0.000430	NaN
443	1.000000	0.746781	7.3694e+06	-54939.1	1005.82	-29742.7	0.000000	0.000000	6.747038	-0.052005	NaN	0.000000	0.001566	0.001700	28.08	0.007408	0.001991	3.721531	121.725	-165.94	-0.020247	0.745513	-0.269430	-0.270698	-0.052005	3.721531	-0.258950	-1129.31	4.605037E-5	NaN
443	1.000000	0.754771	7.3694e+06	-54939.1	1005.82	-29742.7	0.000000	0.000000	6.755030	-0.004541	NaN	0.000000	0.001586	0.001719	28.0799	0.012874	0.002055	6.264193	174.352	-165.262	-0.013368	0.753483	-0.261440	-0.262728	-0.004541	6.264193	-0.260896	-1209.63	3.753676E-6	NaN
443	1.000000	0.762828	7.3694e+06	-54939.1	1005.82	-29742.7	0.000000	0.000000	6.763087	-0.019712	NaN	0.000000	0.001585	0.001755	28.0798	0.121245	0.002063	58.7669	106.718	-165.779	-0.015314	0.761482	-0.253383	-0.254729	-0.019712	58.7669	-0.253131	-919.012	2.144950E-5	NaN
443	1.000000	0.770803	7.3694e+06	-54939.1	1005.82	-29742.7	0.000000	0.000000	6.771060	-0.038150	NaN	0.000000	0.001580	0.001793	28.0798	0.068501	0.002092	32.7486	-142.114	-159.53	-0.056940	0.769482	-0.245409	-0.246729	-0.038150	32.7486	-0.244535	-676.43	5.639850E-5	NaN
443	1.000000	0.778808	7.3694e+06	-54939.1	1005.82	-29742.7	0.000000	0.000000	6.779063	-0.075011	NaN	0.000000	0.001573	0.001738	28.0798	0.066747	0.001986	33.6045	-81.7151	-164.576	-0.007088	0.777466	-0.237404	-0.238745	-0.075011	33.6045	-0.235729	-492.831	0.000152	NaN
443	1.000000	0.786795	7.3694e+06	-54939.1	1005.82	-29742.7	0.000000	0.000000	6.787054	0.002733	NaN	0.000000	0.001590	0.001762	28.0797	0.151403	0.002098	72.1484	144.824	-162.397	0.004239	0.785496	-0.229416	-0.230715	0.002733	72.1484	-0.229444	-392.408	-6.964738E-6	NaN
443	1.000000	0.794820	7.3694e+06	-54939.1	1005.82	-29742.7	0.000000	0.000000	6.795081	0.033638	NaN	0.000000	0.001568	0.001778	28.0797	0.026768	0.002078	12.8836	-138.721	-163.213	0.053147	0.793503	-0.221391	-0.222708	0.033638	12.8836	-0.223349	-314.112	-0.000107	NaN
443	1.000000	0.802835	7.3694e+06	-54939.1	1005.82	-29742.7	0.000000	0.000000	6.803090	-0.093268	NaN	0.000000	0.001582	0.001738	28.0802	0.030260	0.002071	14.6131	-143.285	-166.226	-0.040173	0.801518	-0.213376	-0.214693	-0.093268	14.6131	-0.208589	-181.948	0.000513	NaN
443	1.000000	0.810789	7.3694e+06	-54939.1	1005.82	-29742.7	0.000000	0.000000	6.811049	0.043157	NaN	0.000000	0.001538	0.001762	28.0811	0.068018	0.002009	33.8648	61.5466	-167.181	0.005765	0.809510	-0.205423	-0.206701	0.043157	33.8648	-0.206378	-167.501	-0.000258	NaN
443	1.000000	0.818814	7.3694e+06	-54939.1	1005.82	-29742.7	0.000000	0.000000	6.819075	0.045441	NaN	0.000000	0.001523	0.001753	28.0812	0.065511	0.001949	33.6042	-173.812	-165.1	0.046460	0.817498	-0.197397	-0.198713	0.045441	33.6042	-0.198411	-124.037	-0.000366	NaN
443	1.000000	0.826827	7.3694e+06	-54939.1	1005.82	-29742.7	0.000000	0.000000	6.827084	-0.048356	NaN	0.000000	0.001607	0.001768	28.081	0.072345	0.002041	35.4501	139.976	-165.545	-0.012625	0.825570	-0.189384	-0.190641	-0.048356	35.4501	-0.188361	-84.4522	0.000573	NaN
443	1.000000	0.834806	7.3694e+06	-54939.1	1005.82	-29742.7	0.000000	0.000000	6.835065	0.010001	NaN	0.000000	0.001573	0.001757	28.081	0.077860	0.001986	39.2117	10.5953	-167.538	-0.024063	0.833481	-0.181405	-0.182730	0.010001	39.2117	-0.181597	-64.9519	-0.000154	NaN
443	1.000000	0.842836	7.3694e+06	-54939.1	1005.82	-29742.7	0.000000	0.000000	6.843092	-0.071758	NaN	0.000000	0.001569	0.001760	28.0811	0.070643	0.001986	35.5724	127.524	-168.884	-0.079623	0.841476	-0.173375	-0.174735	-0.071758	35.5724	-0.171862	-44.2466	0.001622	NaN
443	1.000000	0.850811	7.3694e+06	-54939.1	1005.82	-29742.7	0.000000	0.000000	6.851071	0.012323	NaN	0.000000	0.001589	0.001716	28.0813	0.138346	0.002125	65.097	170.416	-166.471	-0.003957	0.849468	-0.165400	-0.166743	0.012323	65.097	-0.165542	-34.3409	-0.000359	NaN
443	1.000000	0.858824	7.3694e+06	-54939.1	1005.82	-29742.7	0.000000	0.000000	6.859080	-0.073067	NaN	0.000000	0.001548	0.001709	28.0811	0.084543	0.001973	42.857	160.896	-165.302	-0.041212	0.857461	-0.157388	-0.158750	-0.073067	42.857	-0.156109	-23.3618	0.003128	NaN
443	1.000000	0.866854	7.3694e+06	-54939.1	1005.82	-29742.7	0.000000	0.000000	6.867112	-0.014034	NaN	0.000000	0.001543	0.001759	28.0808	0.039472	0.002002	19.7139	-69.85	-165.004	0.028327	0.865475	-0.149357	-0.150737	-0.014034	19.7139	-0.148823	-17.2387	0.000814	NaN
443	1.000000	0.874842	7.3694e+06	-54939.1	1005.82	-29742.7	0.000000	0.000000	6.875098	-0.077150	NaN	0.000000	0.001543	0.001739	28.0809	0.010515	0.001926	5.460647	18.4558	-161.153	-0.092158	0.873524	-0.141369	-0.142687	-0.077150	5.460647	-0.130773	-7.888652	0.009780	NaN
443	1.000000	0.882854	7.3694e+06	-54939.1	1005.82	-29742.7	0.000000	0.000000	6.883110	-0.065968	NaN	0.000000	0.001520	0.001718	28.081	0.107824	0.002067	52.1599	-99.4821	-164.647	-0.112388	0.881603	-0.133357	-0.134608	-0.065968	52.1599	-0.132409	-8.484039	0.007776	NaN
443	1.000000	0.890863	7.3694e+06	-54939.1	1005.82	-29742.7	0.000000	0.000000	6.891123	0.011849	NaN	0.000000	0.001560	0.001762	28.0809	0.069675	0.002068	33.6897	-69.1692	-163.406	0.000160	0.889550	-0.125348	-0.126661	0.011849	33.6897	-0.125612	-6.252957	-0.001895	NaN
443	1.000000	0.898821	7.3694e+06	-54939.1	1005.82	-29742.7	0.000000	0.000000	6.899080	0.005478	NaN	0.000000	0.001544	0.001739	28.0811	0.015405	0.002098	7.342564	-21.283	-168.165	-0.024171	0.897569	-0.117390	-0.118642	0.005478	7.342564	-0.117950	-4.390610	-0.001248	NaN
443	1.000000	0.906852	7.3694e+06	-54939.1	1005.82	-29742.7	0.000000	0.000000	6.907109	-0.050790	NaN	0.000000	0.001569	0.001713	28.0811	0.091251	0.002037	44.8075	159.449	-167.016	-0.119497	0.905533	-0.109359	-0.110678	-0.050790	44.8075	-0.108509	-2.794611	0.018174	NaN
443	1.000000	0.914848	7.3694e+06	-54939.1	1005.82	-29742.7	0.000000	0.000000	6.915107	0.000604	NaN	0.000000	0.001576	0.001710	28.081	0.068884	0.001948	35.3564	10.3517	-166.61	0.040025	0.913493	-0.101364	-0.102718	0.000604	35.3564	-0.101376	-1.959624	-0.000308	NaN
443	1.000000	0.922840	7.3694e+06	-54939.1	1005.82	-29742.7	0.000000	0.000000	6.923100	0.014552	NaN	0.000000	0.001585	0.001722	28.0809	0.073413	0.002088	35.1584	81.8952	-167.908	-0.041540	0.921521	-0.093371	-0.094690	0.014552	35.1584	-0.093681	-1.315981	-0.011058	NaN
443	1.000000	0.930851	7.3694e+06	-54939.1	1005.82	-29742.7	0.000000	0.000000	6.931109	-0.017721	NaN	0.000000	0.001582	0.001771	28.081	0.155159	0.002048	75.7472	34.5325	-167.851	0.053604	0.929570	-0.085360	-0.086641	-0.017721	75.7472	-0.085185	-0.830129	0.021347	NaN
443	1.000000	0.938867	7.3694e+06	-54939.1	1005.82	-29742.7	0.000000	0.000000	6.939124	-0.037006	NaN	0.000000	0.001563	0.001760	28.0808	0.032690	0.001945	16.8068	-83.4501	-162.682	0.003208	0.937556	-0.077345	-0.078655	-0.037006	16.8068	-0.075693	-0.481295	0.076888	NaN
443	1.000000	0.946852	7.3694e+06	-54939.1	1005.82	-29742.7	0.000000	0.000000	6.947110	-0.024019	NaN	0.000000	0.001596	0.001759	28.0798	0.066103	0.001766	37.4299	-155.799	-167.641	-0.016351	0.945508	-0.069359	-0.070703	-0.024019	37.4299	-0.068878	-0.318209	0.075481	NaN
443	1.000000	0.954900	7.3694e+06	-54939.1	1005.82	-29742.7	0.000000	0.000000	6.955157	-0.044498	NaN	0.000000	0.001615	0.001731	28.0801	0.120185	0.001946	61.7676	-167.026	-166.491	-0.038344	0.953519	-0.061311	-0.062692	-0.044498	61.7676	-0.060770	-0.189472	0.234853	NaN
443	1.000000	0.962908	7.3694e+06	-54939.1	1005.82	-29742.7	0.000000	0.000000	6.963166	-0.018951	NaN	0.000000	0.001594	0.001788	28.0797	0.121610	0.002066	58.8489	-128.756	-164.389	-0.032960	0.961576	-0.053304	-0.054635	-0.018951	58.8489	-0.053062	-0.112790	0.168021	NaN
443	1.000000	0.970870	7.3694e+06	-54939.1	1005.82	-29742.7	0.000000	0.000000	6.971126	-0.076923	NaN	0.000000	0.001614	0.001753	28.0797	0.023012	0.002002	11.4929	63.1627	-164.323	-0.009605	0.969548	-0.045341	-0.046663	-0.076923	11.4929	-0.040321	-0.046250	1.663196	NaN
443	1.000000	0.978904	7.3694e+06	-54939.1	1005.82	-29742.7	0.000000	0.000000	6.979165	0.033894	NaN	0.000000	0.001605	0.001771	28.0798	0.075641	0.002045	36.995	-172.23	-167.887	0.009238	0.977603	-0.037307	-0.038608	0.033894	36.995	-0.037994	-0.039326	-0.861869	NaN
443	1.000000	0.986900	7.3694e+06	-54939.1	1005.82	-29742.7	0.000000	0.000000	6.987158	-0.023016	NaN	0.000000	0.001628	0.001776	28.08	0.109666	0.002062	53.1918	-128.525	-165.189	0.019902	0.985601	-0.029311	-0.030611	-0.023016	53.1918	-0.028987	-0.021574	1.066861	NaN
443	1.000000	0.994911	7.3694e+06	-54939.1	1005.82	-29742.7	0.000000	0.000000	6.995171	0.016202	NaN	0.000000	0.001603	0.001742	28.08	0.061498	0.002109	29.1552	-142.162	-167.381	0.022546	0.993568	-0.021300	-0.022643	0.016202	29.1552	-0.021717	-0.013889	-1.166603	NaN
443	1.000000	1.002902	7.3694e+06	-54939.1	1005.82	-29742.7	0.000000	0.000000	7.003163	0.046642	NaN	0.000000	0.001585	0.001753	28.0796	0.120294	0.001958	61.4437	-75.5634	-162.977	0.043457	1.001613	-0.013309	-0.014598	0.046642	61.4437	-0.013878	-0.008612	-5.416017	NaN
443	1.000000	1.010884	7.3694e+06	-54939.1	1005.82	-29742.7	0.000000	0.000000	7.011142	-0.012807	NaN	0.000000	0.001585	0.001754	28.0797	0.056769	0.001946	29.1755	167.757	-166.431	-0.025432	1.009614	-0.005327	-0.006597	-0.012807	29.1755	-0.004998	-0.003415	3.749798	NaN
443	1.000000	1.018893	7.3694e+06	-54939.1	1005.82	-29742.7	0.000000	0.000000	7.019200	1.174892	NaN	0.000000	0.001584	0.001738	28.0795	1.810570	0.002048	884.043	12.8838	-169.336	0.428981	1.017555	0.002682	0.001344	1.174892	884.043	0.001685	0.001302	902.679	22387.9
443	2.000000	1.026359	7.3694e+06	-54939.1	1005.82	-29742.7	0.000000	0.000000	7.026940	7.827630	NaN	0.000000	0.001590	0.001729	28.0797	8.228815	0.001714	4801.97	14.1477	-175.744	7.717337	1.025507	0.010148	0.009296	7.827630	4801.97	0.008925	0.008011	977.057	49015.9
443	2.000000	1.028494	7.3694e+06	-54939.1	1005.82	-29742.7	0.000000	0.000000	7.029128	9.113946	NaN	0.000000	0.001570	0.001724	28.0798	9.833791	0.001797	5473.13	9.909188	-173.99	8.554469	1.028223	0.012283	0.012012	9.113946	5473.13	0.011034	0.010353	880.322	49144.7
443	2.000000	1.030487	7.3694e+06	-54939.1	1005.82	-29742.7	0.000000	0.000000	7.031252	12.3131	NaN	0.000000	0.001584	0.001709	28.0798	12.2511	0.001772	6915.56	9.164776	-176.449	11.6337	1.030226	0.014276	0.014015	12.3131	6915.56	0.012940	0.012636	974.43	56207.3
443	2.000000	1.032453	7.3694e+06	-54939.1	1005.82	-29742.7	0.000000	0.000000	7.033306	14.4213	NaN	0.000000	0.001544	0.001711	28.08	14.0335	0.001802	7788.06	8.853772	-175.939	13.9954	1.032230	0.016242	0.016019	14.4213	7788.06	0.014853	0.015090	955.653	57923
443	2.000000	1.034496	7.3694e+06	-54939.1	1005.82	-29742.7	0.000000	0.000000	7.035447	16.827	NaN	0.000000	0.001551	0.001721	28.0797	16.0632	0.001784	9006.35	9.357275	-177.694	17.2265	1.034192	0.018285	0.017981	16.827	9006.35	0.016884	0.017880	941.107	61537.3
443	2.000000	1.036498	7.3694e+06	-54939.1	1005.82	-29742.7	0.000000	0.000000	7.037619	20.9685	NaN	0.000000	0.001546	0.001691	28.0806	18.356	0.001787	10273.4	6.077294	-175.854	20.3471	1.036160	0.020287	0.019949	20.9685	10273.4	0.018756	0.020625	1016.65	65356.4
443	2.000000	1.038459	7.3694e+06	-54939.1	1005.82	-29742.7	0.000000	0.000000	7.039705	23.9993	NaN	0.000000	0.001549	0.001716	28.0798	19.5079	0.001771	11015	1.696617	-172.192	23.6749	1.038160	0.022248	0.021949	23.9993	11015	0.020614	0.023516	1020.54	65625.4
443	2.000000	1.040433	7.3694e+06	-54939.1	1005.82	-29742.7	0.000000	0.000000	7.041864	28.4992	NaN	0.000000	0.001613	0.001714	28.0812	23.0625	0.001737	13279.2	3.879785	-177.868	27.9928	1.040163	0.024222	0.023952	28.4992	13279.2	0.022612	0.026814	1062.85	74090.8
443	2.000000	1.042448	7.3694e+06	-54939.1	1005.82	-29742.7	0.000000	0.000000	7.044149	35.0444	NaN	0.000000	0.001642	0.001737	28.081	23.9987	0.001709	14041.9	3.962726	-177.171	33.4261	1.042139	0.026237	0.025928	35.0444	14041.9	0.024365	0.029871	1173.17	74228.8
443	2.000000	1.044439	7.3694e+06	-54939.1	1005.82	-29742.7	0.000000	0.000000	7.046116	34.4569	NaN	0.000000	0.001642	0.001752	28.0809	27.01	0.001947	13874.9	11.8438	176.156	35.318	1.044172	0.028228	0.027961	34.4569	13874.9	0.026366	0.033547	1027.13	69211.3
443	2.000000	1.046419	7.3694e+06	-54939.1	1005.82	-29742.7	0.000000	0.000000	7.048437	42.7745	NaN	0.000000	0.001645	0.001740	28.0812	28.7417	0.001766	16278.9	8.678664	175.992	40.006	1.046081	0.030208	0.029870	42.7745	16278.9	0.028237	0.037169	1150.81	77145.1
443	2.000000	1.048390	7.3694e+06	-54939.1	1005.82	-29742.7	0.000000	0.000000	7.050568	46.6411	NaN	0.000000	0.001643	0.001756	28.0811	30.1433	0.001760	17131	4.724418	179.904	44.4936	1.048082	0.032179	0.031871	46.6411	17131	0.030137	0.041029	1136.79	77270.3
443	2.000000	1.050425	7.3694e+06	-54939.1	1005.82	-29742.7	0.000000	0.000000	7.052758	50.4356	NaN	0.000000	0.001637	0.001745	28.0811	31.5872	0.001813	17425.8	4.973100	-179.454	49.285	1.050101	0.034214	0.033890	50.4356	17425.8	0.032043	0.045084	1118.7	74981.3
443	2.000000	1.052470	7.3694e+06	-54939.1	1005.82	-29742.7	0.000000	0.000000	7.055038	56.1134	NaN	0.000000	0.001633	0.001743	28.0812	33.0288	0.001710	19320.4	6.356711	177.478	57.8954	1.052123	0.036259	0.035912	56.1134	19320.4	0.034081	0.049628	1130.69	79237.2
443	2.000000	1.054413	7.3694e+06	-54939.1	1005.82	-29742.7	0.000000	0.000000	7.057155	60.3481	NaN	0.000000	0.001639	0.001733	28.0811	36.1878	0.001929	18759.2	11.5967	174.157	60.0194	1.054014	0.038202	0.037803	60.3481	18759.2	0.035790	0.053600	1125.89	74029.5
443	2.000000	1.056401	7.3694e+06	-54939.1	1005.82	-29742.7	0.000000	0.000000	7.059467	68.251	NaN	0.000000	0.001668	0.001751	28.0811	37.6402	0.001775	21209.5	4.893979	177.963	66.5428	1.056102	0.040190	0.039891	68.251	21209.5	0.037776	0.058408	1168.53	80180.7
443	2.000000	1.058393	7.3694e+06	-54939.1	1005.82	-29742.7	0.000000	0.000000	7.061867	78.1449	NaN	0.000000	0.001610	0.001750	28.081	38.0562	0.001633	23300.7	4.301762	178.554	77.1878	1.058041	0.042182	0.041830	78.1449	23300.7	0.039667	0.063170	1237.05	84700.7
443	2.000000	1.060402	7.3694e+06	-54939.1	1005.82	-29742.7	0.000000	0.000000	7.063895	78.6	NaN	0.000000	0.001530	0.001736	28.0812	41.6378	0.001738	23952.6	1.715966	179.232	77.8772	1.060173	0.044191	0.043962	78.6	23952.6	0.041730	0.068576	1146.17	83567.8
443	2.000000	1.062414	7.3694e+06	-54939.1	1005.82	-29742.7	0.000000	0.000000	7.066378	90.0797	NaN	0.000000	0.001578	0.001729	28.0809	42.8385	0.001621	26434	5.758046	175.037	89.4805	1.062071	0.046203	0.045860	90.0797	26434	0.043647	0.073792	1220.72	88906
443	2.000000	1.064396	7.3694e+06	-54939.1	1005.82	-29742.7	0.000000	0.000000	7.068627	96.5559	NaN	0.000000	0.001573	0.001761	28.081	46.0964	0.001861	24771.3	4.542251	176.046	94.188	1.064036	0.048185	0.047825	96.5559	24771.3	0.045261	0.078330	1232.67	80864.3
443	2.000000	1.066474	7.3694e+06	-54939.1	1005.82	-29742.7	0.000000	0.000000	7.070809	99.0934	NaN	0.000000	0.001593	0.001727	28.0813	48.2022	0.001940	24844.2	7.585554	175.145	100.821	1.066000	0.050262	0.049789	99.0934	24844.2	0.047271	0.084165	1177.37	78240.9
443	2.000000	1.068415	7.3694e+06	-54939.1	1005.82	-29742.7	0.000000	0.000000	7.073075	106.981	NaN	0.000000	0.001521	0.001756	28.081	49.7393	0.001866	26655.2	5.417128	175.158	106.644	1.068071	0.052204	0.051860	106.981	26655.2	0.049194	0.089938	1189.49	81205.1
443	2.000000	1.070396	7.3694e+06	-54939.1	1005.82	-29742.7	0.000000	0.000000	7.075411	115.63	NaN	0.000000	0.001533	0.001733	28.0814	52.015	0.001816	28640.2	2.159897	178.259	116.424	1.070139	0.054185	0.053928	115.63	28640.2	0.051157	0.096021	1204.21	84443.2
443	2.000000	1.072330	7.3694e+06	-54939.1	1005.82	-29742.7	0.000000	0.000000	7.077857	128.086	NaN	0.000000	0.001566	0.001723	28.0811	52.9482	0.001818	29123.1	3.852897	175.665	123.773	1.072022	0.056118	0.055811	128.086	29123.1	0.052820	0.101328	1264.07	83588.5
443	2.000000	1.074377	7.3694e+06	-54939.1	1005.82	-29742.7	0.000000	0.000000	7.080258	136.66	NaN	0.000000	0.001557	0.001769	28.0798	55.3004	0.001875	29489.6	4.033769	176.218	135.296	1.074050	0.058166	0.057839	136.66	29489.6	0.054691	0.107461	1271.72	82189.5
443	2.000000	1.076410	7.3694e+06	-54939.1	1005.82	-29742.7	0.000000	0.000000	7.082546	142.871	NaN	0.000000	0.001578	0.001761	28.08	56.7406	0.001833	30947.3	5.634093	174.043	140.013	1.076028	0.060199	0.059816	142.871	30947.3	0.056736	0.114366	1249.24	83607.7
443	2.000000	1.078404	7.3694e+06	-54939.1	1005.82	-29742.7	0.000000	0.000000	7.084855	150.53	NaN	0.000000	0.001586	0.001765	28.0798	58.1196	0.001826	31835.8	4.436386	175.852	150.602	1.078169	0.062193	0.061958	150.53	31835.8	0.058646	0.120999	1244.06	83617.5
443	2.000000	1.080391	7.3694e+06	-54939.1	1005.82	-29742.7	0.000000	0.000000	7.086986	154.042	NaN	0.000000	0.001605	0.001786	28.0803	60.32	0.001746	34542.2	4.940933	173.485	152.772	1.080192	0.064179	0.063981	154.042	34542.2	0.060835	0.128819	1195.8	87929.3
443	2.000000	1.082360	7.3694e+06	-54939.1	1005.82	-29742.7	0.000000	0.000000	7.089510	167.511	NaN	0.000000	0.001589	0.001789	28.0798	61.3185	0.001660	36941.1	4.308551	173.295	166.751	1.082092	0.066149	0.065881	167.511	36941.1	0.062748	0.135848	1233.08	91570.6
443	2.000000	1.084342	7.3694e+06	-54939.1	1005.82	-29742.7	0.000000	0.000000	7.091850	176.211	NaN	0.000000	0.001593	0.001736	28.08	64.6856	0.001792	36099.2	7.884399	170.455	174.144	1.084036	0.068131	0.067825	176.211	36099.2	0.064470	0.142325	1238.09	87424
443	2.000000	1.086398	7.3694e+06	-54939.1	1005.82	-29742.7	0.000000	0.000000	7.094610	193.33	NaN	0.000000	0.001545	0.001707	28.0799	66.7132	0.001771	37668.6	9.959602	169.845	192.423	1.085965	0.070187	0.069754	193.33	37668.6	0.066338	0.149511	1293.08	89005.4
443	2.000000	1.088291	7.3694e+06	-54939.1	1005.82	-29742.7	0.000000	0.000000	7.096748	199.3	NaN	0.000000	0.001565	0.001698	28.08	67.2778	0.001785	37687	1.194640	176.545	194.871	1.088047	0.072080	0.071836	199.3	37687	0.068114	0.156499	1273.49	87038.1
443	2.000000	1.090402	7.3694e+06	-54939.1	1005.82	-29742.7	0.000000	0.000000	7.099146	206.259	NaN	0.000000	0.001551	0.001736	28.0805	70.9612	0.001815	39088.2	9.030707	168.69	206.821	1.090175	0.074191	0.073964	206.259	39088.2	0.070234	0.165039	1249.76	87907.3
443	2.000000	1.092432	7.3694e+06	-54939.1	1005.82	-29742.7	0.000000	0.000000	7.101810	221.679	NaN	0.000000	0.001585	0.001773	28.0798	71.2697	0.001871	38089.7	6.367840	172.01	225.811	1.092075	0.076221	0.075864	221.679	38089.7	0.071856	0.171721	1290.93	83978.6
443	2.000000	1.094261	7.3694e+06	-54939.1	1005.82	-29742.7	0.000000	0.000000	7.103890	227.782	NaN	0.000000	0.001602	0.001790	28.0812	73.4568	0.001836	40013.9	1.002357	176.193	222.213	1.094014	0.078050	0.077803	227.782	40013.9	0.073780	0.179805	1266.83	86215
443	2.000000	1.096393	7.3694e+06	-54939.1	1005.82	-29742.7	0.000000	0.000000	7.106722	244.816	NaN	0.000000	0.001607	0.001785	28.0799	76.4888	0.001877	40742.8	6.850163	170.418	243.19	1.095993	0.080182	0.079782	244.816	40742.8	0.075675	0.187936	1302.65	85865.5
443	2.000000	1.098299	7.3694e+06	-54939.1	1005.82	-29742.7	0.000000	0.000000	7.108923	251.982	NaN	0.000000	0.001546	0.001773	28.0798	77.0766	0.001728	44597.3	6.847703	170.177	248.092	1.098068	0.082088	0.081857	251.982	44597.3	0.077850	0.197479	1275.99	91689.8
443	2.000000	1.100390	7.3694e+06	-54939.1	1005.82	-29742.7	0.000000	0.000000	7.111144	255.14	NaN	0.000000	0.001570	0.001701	28.0801	79.0947	0.001766	44798.7	4.106618	171.973	255.462	1.100172	0.084179	0.083961	255.14	44798.7	0.079907	0.206709	1234.3	90024.2
443	2.000000	1.102324	7.3694e+06	-54939.1	1005.82	-29742.7	0.000000	0.000000	7.113946	276.253	NaN	0.000000	0.001551	0.001719	28.08	80.506	0.001807	44553.3	6.209187	170.494	273.789	1.102062	0.086112	0.085851	276.253	44553.3	0.081462	0.213814	1292.02	88030.9
443	2.000000	1.104326	7.3694e+06	-54939.1	1005.82	-29742.7	0.000000	0.000000	7.116430	287.959	NaN	0.000000	0.001593	0.001719	28.0803	82.4958	0.001779	46374.1	4.605257	172.492	286.645	1.104000	0.088114	0.087789	287.959	46374.1	0.083457	0.223097	1290.73	89701.9
443	2.000000	1.106390	7.3694e+06	-54939.1	1005.82	-29742.7	0.000000	0.000000	7.119139	303.623	NaN	0.000000	0.001553	0.001748	28.0801	84.927	0.001873	45348.2	5.789182	171.188	303.849	1.106086	0.090179	0.089875	303.623	45348.2	0.085157	0.231151	1313.53	86175.7
443	2.000000	1.108280	7.3694e+06	-54939.1	1005.82	-29742.7	0.000000	0.000000	7.121618	317.944	NaN	0.000000	0.001584	0.001738	28.0813	86.5845	0.001682	51473.8	7.209599	168.197	314.085	1.107923	0.092069	0.091712	317.944	51473.8	0.087437	0.242162	1312.94	95566.7
443	2.000000	1.110266	7.3694e+06	-54939.1	1005.82	-29742.7	0.000000	0.000000	7.123808	322.894	NaN	0.000000	0.001575	0.001725	28.0812	90.195	0.001807	49903.9	6.685834	168.74	316.665	1.109971	0.094055	0.093760	322.894	49903.9	0.089203	0.250856	1287.16	91032.2
443	2.000000	1.112202	7.3694e+06	-54939.1	1005.82	-29742.7	0.000000	0.000000	7.126239	334.944	NaN	0.000000	0.001616	0.001716	28.0811	90.365	0.001810	49915.3	4.574960	170.886	325.513	1.111932	0.095991	0.095721	334.944	49915.3	0.090958	0.259642	1290.02	89499.4
443	2.000000	1.114258	7.3694e+06	-54939.1	1005.82	-29742.7	0.000000	0.000000	7.129123	355.059	NaN	0.000000	0.001580	0.001696	28.0818	92.3422	0.001780	51863.8	5.194505	170.45	349.065	1.113861	0.098047	0.097650	355.059	51863.8	0.092912	0.269586	1317.05	91261.7
443	2.000000	1.116282	7.3694e+06	-54939.1	1005.82	-29742.7	0.000000	0.000000	7.131681	368.03	NaN	0.000000	0.001581	0.001698	28.0812	94.2709	0.001785	52805.5	5.727375	169.503	362.85	1.116017	0.100071	0.099806	368.03	52805.5	0.094844	0.279589	1316.32	91241.4
443	2.000000	1.118256	7.3694e+06	-54939.1	1005.82	-29742.7	0.000000	0.000000	7.134255	382.63	NaN	0.000000	0.001560	0.001715	28.0812	95.5213	0.001807	52875.5	0.716548	174.486	376.781	1.117929	0.102045	0.101718	382.63	52875.5	0.096618	0.288922	1324.33	89874.7
443	2.000000	1.120339	7.3694e+06	-54939.1	1005.82	-29742.7	0.000000	0.000000	7.136876	395.713	NaN	0.000000	0.001563	0.001723	28.0812	99.2169	0.001831	54192.4	6.321924	168.978	394.72	1.119991	0.104128	0.103780	395.713	54192.4	0.098652	0.299803	1319.91	90426.1
443	2.000000	1.122243	7.3694e+06	-54939.1	1005.82	-29742.7	0.000000	0.000000	7.139692	417.877	NaN	0.000000	0.001552	0.001715	28.0811	100.169	0.001807	55419.7	7.361354	168.175	412.5	1.121881	0.106032	0.105670	417.877	55419.7	0.100377	0.309180	1351.56	91060.9
443	2.000000	1.124361	7.3694e+06	-54939.1	1005.82	-29742.7	0.000000	0.000000	7.142500	434.67	NaN	0.000000	0.001561	0.001734	28.0813	103.014	0.001804	57118.2	8.286590	166.917	436.262	1.123931	0.108150	0.107720	434.67	57118.2	0.102442	0.320580	1355.89	92167.8
443	2.000000	1.124821	7.3694e+06	-54939.1	1005.82	-29742.7	0.000000	0.000000	7.143021	436.136	NaN	0.000000	0.001585	0.001712	28.0813	102.168	0.001713	59642.6	5.524422	-10.7623	433.255	1.124507	0.108610	0.108295	436.136	59642.6	0.103125	0.324396	1344.46	95673.6