File: remote_trans/data/nanoindenter/0828-1/data/Data_2025-08-06,11h17m57s/2025-07-22_16-23-58_1_392.txt
2025-07-22, 16:23:58, 1
Index	Phase	Displacement	Time	Pos X	Pos Y	Pos Z	Rot A	Rot B	Piezo Z	Force A	Force B	Gripper	Voltage A	Voltage B	Temperature	Amplitude force	Amplitude pos	Stiffness	Phase shift	Phase excitation	Force A raw	Displacement raw	HMax	HMax raw	Real Force	Real Stiffness	Contact Depth	Area	Hardness	Reduced Mod.
[#]	[#]	[um]	[s]	[um]	[um]	[um]	[m°]	[m°]	[um]	[uN]	[uN]	[V]	[V]	[V]	[°C]	[uN]	[um]	[N/m]	[°]	[°]	[uN]	[um]	[um]	[um]	[uN]	[N/m]	[um]	[um^2]	[MPa]	[MPa]
392	1.000000	0.002555	7.3689e+06	-57489.1	1005.82	-29737	0.000000	0.000000	6.002815	0.033833	NaN	0.000000	0.001676	0.001577	28.0807	0.109878	0.000957	114.857	137.859	-166.703	0.029081	0.001234	-1.080091	-1.081411	0.033833	114.857	-1.080311	-2.727109E+14	-1.240618E-16	NaN
392	1.000000	0.010532	7.3689e+06	-57489.1	1005.82	-29737	0.000000	0.000000	6.010794	0.093201	NaN	0.000000	0.001688	0.001598	28.0815	0.034945	0.001099	31.7926	127.272	-169.216	0.032692	0.009214	-1.072114	-1.073431	0.093201	31.7926	-1.074312	-2.265285E+14	-4.114337E-16	NaN
392	1.000000	0.018505	7.3689e+06	-57489.1	1005.82	-29737	0.000000	0.000000	6.018766	0.032556	NaN	0.000000	0.001650	0.001572	28.0816	0.085542	0.001728	49.4901	167.052	-166.179	0.050188	0.017186	-1.064140	-1.065459	0.032556	49.4901	-1.064633	-1.679127E+14	-1.938877E-16	NaN
392	1.000000	0.026552	7.3689e+06	-57489.1	1005.82	-29737	0.000000	0.000000	6.026809	-0.043820	NaN	0.000000	0.001665	0.001584	28.0821	0.024450	0.001807	13.5296	75.8808	-167.537	0.004242	0.025194	-1.056093	-1.057451	-0.043820	13.5296	-1.053664	-1.195829E+14	3.664417E-16	NaN
392	1.000000	0.034494	7.3689e+06	-57489.1	1005.82	-29737	0.000000	0.000000	6.034751	-0.024730	NaN	0.000000	0.001659	0.001579	28.0815	0.154588	0.001865	82.8912	-176.869	-170.672	-0.024818	0.033183	-1.048152	-1.049463	-0.024730	82.8912	-1.047928	-1.001290E+14	2.469782E-16	NaN
392	1.000000	0.042465	7.3689e+06	-57489.1	1005.82	-29737	0.000000	0.000000	6.042723	-0.027538	NaN	0.000000	0.001666	0.001620	28.0815	0.088114	0.002005	43.9418	100.817	-163.411	-0.024841	0.041212	-1.040180	-1.041434	-0.027538	43.9418	-1.039710	-7.763774E+13	3.547019E-16	NaN
392	1.000000	0.050521	7.3689e+06	-57489.1	1005.82	-29737	0.000000	0.000000	6.050782	0.041647	NaN	0.000000	0.001653	0.001627	28.0815	0.025492	0.001936	13.1694	117.2	-167.345	0.060803	0.049176	-1.032124	-1.033469	0.041647	13.1694	-1.034496	-6.606159E+13	-6.304343E-16	NaN
392	1.000000	0.058483	7.3689e+06	-57489.1	1005.82	-29737	0.000000	0.000000	6.058741	-0.012812	NaN	0.000000	0.001655	0.001606	28.0815	0.088167	0.001909	46.1918	-28.1018	-164.153	0.041652	0.057131	-1.024162	-1.025514	-0.012812	46.1918	-1.023954	-4.765994E+13	2.688307E-16	NaN
392	1.000000	0.066538	7.3689e+06	-57489.1	1005.82	-29737	0.000000	0.000000	6.066797	-0.011289	NaN	0.000000	0.001673	0.001600	28.0818	0.029005	0.002018	14.374	38.0276	-167.431	0.010868	0.065196	-1.016107	-1.017449	-0.011289	14.374	-1.015518	-3.669825E+13	3.076183E-16	NaN
392	1.000000	0.074495	7.3689e+06	-57489.1	1005.82	-29737	0.000000	0.000000	6.074755	0.021299	NaN	0.000000	0.001632	0.001620	28.0816	0.076465	0.002134	35.8336	-105.216	-167.412	0.021120	0.073161	-1.008150	-1.009485	0.021299	35.8336	-1.008596	-2.961302E+13	-7.192317E-16	NaN
392	1.000000	0.082486	7.3689e+06	-57489.1	1005.82	-29737	0.000000	0.000000	6.082743	-0.062777	NaN	0.000000	0.001651	0.001598	28.0817	0.034834	0.001943	17.9318	33.849	-164.95	-0.019021	0.081196	-1.000159	-1.001449	-0.062777	17.9318	-0.997533	-2.101642E+13	2.987049E-15	NaN
392	1.000000	0.090509	7.3689e+06	-57489.1	1005.82	-29737	0.000000	0.000000	6.090767	-0.020636	NaN	0.000000	0.001659	0.001616	28.0814	0.091717	0.001956	46.883	40.9934	-169.087	-0.040750	0.089288	-0.992136	-0.993358	-0.020636	46.883	-0.991806	-1.759674E+13	1.172727E-15	NaN
392	1.000000	0.098510	7.3689e+06	-57489.1	1005.82	-29737	0.000000	0.000000	6.098767	-0.040204	NaN	0.000000	0.001660	0.001604	28.0818	0.083807	0.002089	40.1139	-118.132	-166.079	-0.038654	0.097183	-0.984135	-0.985462	-0.040204	40.1139	-0.983384	-1.355164E+13	2.966750E-15	NaN
392	1.000000	0.106515	7.3689e+06	-57489.1	1005.82	-29737	0.000000	0.000000	6.106773	-0.017189	NaN	0.000000	0.001678	0.001608	28.0816	0.035772	0.001959	18.259	-47.9529	-164.23	-0.032041	0.105271	-0.976130	-0.977374	-0.017189	18.259	-0.975424	-1.058668E+13	1.623623E-15	NaN
392	1.000000	0.114516	7.3689e+06	-57489.1	1005.82	-29737	0.000000	0.000000	6.114774	-0.029687	NaN	0.000000	0.001669	0.001581	28.0816	0.081723	0.001942	42.0782	90.9892	-165.82	-0.048385	0.113184	-0.968129	-0.969462	-0.029687	42.0782	-0.967600	-8.304648E+12	3.574798E-15	NaN
392	1.000000	0.122527	7.3689e+06	-57489.1	1005.82	-29737	0.000000	0.000000	6.122786	0.007808	NaN	0.000000	0.001697	0.001567	28.0818	0.041374	0.002010	20.5793	98.6529	-168.039	-0.087612	0.121283	-0.960118	-0.961363	0.007808	20.5793	-0.960403	-6.642022E+12	-1.175545E-15	NaN
392	1.000000	0.130500	7.3689e+06	-57489.1	1005.82	-29737	0.000000	0.000000	6.130758	-0.029417	NaN	0.000000	0.001663	0.001576	28.0814	0.064744	0.001983	32.6511	29.3541	-168.771	-0.046362	0.129206	-0.952145	-0.953440	-0.029417	32.6511	-0.951469	-5.033167E+12	5.844588E-15	NaN
392	1.000000	0.138501	7.3689e+06	-57489.1	1005.82	-29737	0.000000	0.000000	6.138761	0.030859	NaN	0.000000	0.001678	0.001563	28.0816	0.041659	0.002009	20.7372	85.8293	-168.124	0.039551	0.137247	-0.944144	-0.945398	0.030859	20.7372	-0.945260	-4.150474E+12	-7.435153E-15	NaN
392	1.000000	0.146559	7.3689e+06	-57489.1	1005.82	-29737	0.000000	0.000000	6.146815	-0.074855	NaN	0.000000	0.001649	0.001550	28.08	0.109013	0.001973	55.2557	123.311	-165.412	0.017559	0.145219	-0.936087	-0.937426	-0.074855	55.2557	-0.935071	-3.024307E+12	2.475117E-14	NaN
392	1.000000	0.154540	7.3689e+06	-57489.1	1005.82	-29737	0.000000	0.000000	6.154797	-0.034465	NaN	0.000000	0.001663	0.001600	28.0802	0.100216	0.001843	54.379	88.9319	-165.699	-0.081295	0.153232	-0.928106	-0.929413	-0.034465	54.379	-0.927630	-2.400018E+12	1.436044E-14	NaN
392	1.000000	0.162535	7.3689e+06	-57489.1	1005.82	-29737	0.000000	0.000000	6.162795	0.029130	NaN	0.000000	0.001695	0.001553	28.0802	0.082209	0.002095	39.2434	-57.0487	-168.369	0.006856	0.161198	-0.920111	-0.921447	0.029130	39.2434	-0.920667	-1.932930E+12	-1.507020E-14	NaN
392	1.000000	0.170529	7.3689e+06	-57489.1	1005.82	-29737	0.000000	0.000000	6.170787	-0.026359	NaN	0.000000	0.001689	0.001588	28.0802	0.134834	0.001984	67.9683	-172.637	-164.688	-0.006226	0.169266	-0.912116	-0.913380	-0.026359	67.9683	-0.911825	-1.468309E+12	1.795185E-14	NaN
392	1.000000	0.178537	7.3689e+06	-57489.1	1005.82	-29737	0.000000	0.000000	6.178794	-0.044637	NaN	0.000000	0.001668	0.001628	28.0803	0.051372	0.001976	25.997	159.966	-168.582	-0.039205	0.177231	-0.904109	-0.905415	-0.044637	25.997	-0.902821	-1.109639E+12	4.022688E-14	NaN
392	1.000000	0.186526	7.3689e+06	-57489.1	1005.82	-29737	0.000000	0.000000	6.186783	-0.036992	NaN	0.000000	0.001638	0.001602	28.0802	0.055543	0.002080	26.7048	18.5862	-168.548	0.022589	0.185239	-0.896120	-0.897406	-0.036992	26.7048	-0.895081	-8.721477E+11	4.241469E-14	NaN
392	1.000000	0.194561	7.3689e+06	-57489.1	1005.82	-29737	0.000000	0.000000	6.194817	-0.061618	NaN	0.000000	0.001582	0.001595	28.0803	0.046715	0.001891	24.7057	134.585	-164.917	-0.068825	0.193235	-0.888084	-0.889410	-0.061618	24.7057	-0.886214	-6.618041E+11	9.310634E-14	NaN
392	1.000000	0.202573	7.3689e+06	-57489.1	1005.82	-29737	0.000000	0.000000	6.202828	-0.096424	NaN	0.000000	0.001632	0.001606	28.0803	0.029642	0.002083	14.2271	-25.3909	-166.253	-0.061471	0.201236	-0.880072	-0.881409	-0.096424	14.2271	-0.874989	-4.665852E+11	2.066582E-13	NaN
392	1.000000	0.210562	7.3689e+06	-57489.1	1005.82	-29737	0.000000	0.000000	6.210821	0.009201	NaN	0.000000	0.001633	0.001577	28.0802	0.027626	0.002193	12.5985	-100.829	-166.774	0.075167	0.209242	-0.872084	-0.873403	0.009201	12.5985	-0.872631	-4.335536E+11	-2.122312E-14	NaN
392	1.000000	0.218592	7.3689e+06	-57489.1	1005.82	-29737	0.000000	0.000000	6.218848	-0.059652	NaN	0.000000	0.001607	0.001528	28.0803	0.066865	0.002027	32.9806	-129.85	-165.638	-0.012871	0.217248	-0.864053	-0.865397	-0.059652	32.9806	-0.862697	-3.181430E+11	1.874992E-13	NaN
392	1.000000	0.226568	7.3689e+06	-57489.1	1005.82	-29737	0.000000	0.000000	6.226825	-0.033394	NaN	0.000000	0.001633	0.001602	28.0802	0.030482	0.001995	15.2825	164.027	-165.442	0.016882	0.225269	-0.856078	-0.857376	-0.033394	15.2825	-0.854439	-2.459448E+11	1.357778E-13	NaN
392	1.000000	0.234561	7.3689e+06	-57489.1	1005.82	-29737	0.000000	0.000000	6.234820	-0.012104	NaN	0.000000	0.001653	0.001566	28.0801	0.093304	0.002013	46.3505	-103.684	-168.888	-0.006635	0.233384	-0.848084	-0.849261	-0.012104	46.3505	-0.847888	-2.005127E+11	6.036444E-14	NaN
392	1.000000	0.242548	7.3689e+06	-57489.1	1005.82	-29737	0.000000	0.000000	6.242808	0.009944	NaN	0.000000	0.001630	0.001585	28.0801	0.061085	0.001926	31.722	172.103	-163.604	-0.096826	0.241270	-0.840097	-0.841375	0.009944	31.722	-0.840332	-1.584132E+11	-6.277062E-14	NaN
392	1.000000	0.250564	7.3689e+06	-57489.1	1005.82	-29737	0.000000	0.000000	6.250824	0.019831	NaN	0.000000	0.001626	0.001601	28.08	0.081530	0.001902	42.8595	-136.529	-166.826	0.063402	0.249290	-0.832081	-0.833355	0.019831	42.8595	-0.832428	-1.237933E+11	-1.601913E-13	NaN
392	1.000000	0.258554	7.3689e+06	-57489.1	1005.82	-29737	0.000000	0.000000	6.258812	-0.005368	NaN	0.000000	0.001651	0.001612	28.08	0.123033	0.001988	61.8884	-71.6623	-166.392	-0.007780	0.257255	-0.824092	-0.825390	-0.005368	61.8884	-0.824027	-9.523788E+10	5.635949E-14	NaN
392	1.000000	0.266564	7.3689e+06	-57489.1	1005.82	-29737	0.000000	0.000000	6.266823	-0.009064	NaN	0.000000	0.001637	0.001595	28.0801	0.042846	0.002047	20.9279	-42.9073	-164.1	0.003472	0.265248	-0.816081	-0.817398	-0.009064	20.9279	-0.815756	-7.356210E+10	1.232115E-13	NaN
392	1.000000	0.274601	7.3689e+06	-57489.1	1005.82	-29737	0.000000	0.000000	6.274859	-0.028760	NaN	0.000000	0.001630	0.001600	28.0802	0.108386	0.002135	50.7601	-14.2814	-164.87	-0.049117	0.273303	-0.808044	-0.809343	-0.028760	50.7601	-0.807619	-5.705175E+10	5.041044E-13	NaN
392	1.000000	0.282595	7.3689e+06	-57489.1	1005.82	-29737	0.000000	0.000000	6.282856	0.033390	NaN	0.000000	0.001576	0.001614	28.0809	0.084401	0.002038	41.4224	152.613	-164.444	-0.008337	0.281290	-0.800050	-0.801356	0.033390	41.4224	-0.800655	-4.589328E+10	-7.275678E-13	NaN
392	1.000000	0.290604	7.3689e+06	-57489.1	1005.82	-29737	0.000000	0.000000	6.290863	-0.009340	NaN	0.000000	0.001587	0.001587	28.0812	0.019883	0.002127	9.349064	-99.2013	-164.327	-0.035790	0.289301	-0.792041	-0.793345	-0.009340	9.349064	-0.791292	-3.424715E+10	2.727233E-13	NaN
392	1.000000	0.298616	7.3689e+06	-57489.1	1005.82	-29737	0.000000	0.000000	6.298873	-0.042155	NaN	0.000000	0.001593	0.001570	28.0812	0.120601	0.002044	58.9978	-121.538	-166.416	-0.051351	0.297223	-0.784030	-0.785422	-0.042155	58.9978	-0.783494	-2.683517E+10	1.570900E-12	NaN
392	1.000000	0.306591	7.3689e+06	-57489.1	1005.82	-29737	0.000000	0.000000	6.306850	-0.007111	NaN	0.000000	0.001574	0.001608	28.0814	0.044863	0.002045	21.9347	31.7423	-166.99	-0.028203	0.305291	-0.776054	-0.777355	-0.007111	21.9347	-0.775811	-2.110103E+10	3.369893E-13	NaN
392	1.000000	0.314605	7.3689e+06	-57489.1	1005.82	-29737	0.000000	0.000000	6.314865	0.011404	NaN	0.000000	0.001548	0.001610	28.0815	0.033630	0.001970	17.0733	-83.9706	-165.197	-0.041723	0.313279	-0.768040	-0.769367	0.011404	17.0733	-0.768541	-1.680607E+10	-6.785853E-13	NaN
392	1.000000	0.322598	7.3689e+06	-57489.1	1005.82	-29737	0.000000	0.000000	6.322857	-0.007785	NaN	0.000000	0.001568	0.001573	28.0815	0.027189	0.002091	13.0052	-34.3574	-162.716	-0.047612	0.321227	-0.760047	-0.761418	-0.007785	13.0052	-0.759598	-1.270092E+10	6.129317E-13	NaN
392	1.000000	0.330620	7.3689e+06	-57489.1	1005.82	-29737	0.000000	0.000000	6.330878	-0.013954	NaN	0.000000	0.001568	0.001610	28.0813	0.011440	0.002113	5.413171	-106.711	-166.914	-0.012036	0.329301	-0.752025	-0.753345	-0.013954	5.413171	-0.750092	-9.429110E+9	1.479853E-12	NaN
392	1.000000	0.338632	7.3689e+06	-57489.1	1005.82	-29737	0.000000	0.000000	6.338893	0.057010	NaN	0.000000	0.001596	0.001596	28.0815	0.041521	0.001976	21.0106	20.2029	-167.304	0.004830	0.337375	-0.744013	-0.745270	0.057010	21.0106	-0.746048	-8.306615E+9	-6.863147E-12	NaN
392	1.000000	0.346637	7.3689e+06	-57489.1	1005.82	-29737	0.000000	0.000000	6.346895	-0.019668	NaN	0.000000	0.001613	0.001618	28.0816	0.046107	0.002003	23.0141	4.298444	-166.43	-0.032680	0.345335	-0.736008	-0.737311	-0.019668	23.0141	-0.735367	-5.942175E+9	3.309916E-12	NaN
392	1.000000	0.354598	7.3689e+06	-57489.1	1005.82	-29737	0.000000	0.000000	6.354856	-0.007361	NaN	0.000000	0.001636	0.001575	28.0815	0.053602	0.001940	27.6328	-140.308	-164.338	-0.030914	0.353297	-0.728047	-0.729349	-0.007361	27.6328	-0.727848	-4.693234E+9	1.568339E-12	NaN
392	1.000000	0.362642	7.3689e+06	-57489.1	1005.82	-29737	0.000000	0.000000	6.362900	-0.024397	NaN	0.000000	0.001612	0.001628	28.0812	0.057438	0.002140	26.837	-44.0473	-167.555	0.048998	0.361373	-0.720003	-0.721272	-0.024397	26.837	-0.719321	-3.591003E+9	6.793823E-12	NaN
392	1.000000	0.370605	7.3689e+06	-57489.1	1005.82	-29737	0.000000	0.000000	6.370863	-0.014657	NaN	0.000000	0.001589	0.001599	28.0817	0.076897	0.002047	37.5576	-177.372	-164.732	-0.099264	0.369298	-0.712040	-0.713347	-0.014657	37.5576	-0.711747	-2.830704E+9	5.178007E-12	NaN
392	1.000000	0.378625	7.3689e+06	-57489.1	1005.82	-29737	0.000000	0.000000	6.378882	-0.044101	NaN	0.000000	0.001575	0.001666	28.0813	0.099519	0.001953	50.9525	170.541	-170.02	-0.028275	0.377304	-0.704020	-0.705341	-0.044101	50.9525	-0.703371	-2.175513E+9	2.027153E-11	NaN
392	1.000000	0.386636	7.3689e+06	-57489.1	1005.82	-29737	0.000000	0.000000	6.386894	-0.015157	NaN	0.000000	0.001599	0.001683	28.0815	0.040832	0.002104	19.406	-123.687	-166.33	0.025027	0.385362	-0.696009	-0.697283	-0.015157	19.406	-0.695424	-1.694433E+9	8.945457E-12	NaN
392	1.000000	0.394652	7.3689e+06	-57489.1	1005.82	-29737	0.000000	0.000000	6.394910	-0.019859	NaN	0.000000	0.001597	0.001681	28.0814	0.086414	0.001958	44.1416	124.598	-165.594	0.021197	0.393325	-0.687993	-0.689321	-0.019859	44.1416	-0.687656	-1.327017E+9	1.496485E-11	NaN
392	1.000000	0.402656	7.3689e+06	-57489.1	1005.82	-29737	0.000000	0.000000	6.402913	-0.047734	NaN	0.000000	0.001584	0.001679	28.0814	0.051340	0.002001	25.6536	-2.096442	-168.312	0.039008	0.401354	-0.679989	-0.681292	-0.047734	25.6536	-0.678594	-9.976383E+8	4.784696E-11	NaN
392	1.000000	0.410628	7.3689e+06	-57489.1	1005.82	-29737	0.000000	0.000000	6.410887	0.003740	NaN	0.000000	0.001588	0.001680	28.0818	0.091582	0.002004	45.7031	-178.24	-163.038	-0.004233	0.409310	-0.672017	-0.673335	0.003740	45.7031	-0.672078	-8.125218E+8	-4.603563E-12	NaN
392	1.000000	0.418632	7.3689e+06	-57489.1	1005.82	-29737	0.000000	0.000000	6.418891	0.004873	NaN	0.000000	0.001574	0.001644	28.0806	0.026455	0.002018	13.1117	36.24	-165.095	-0.003623	0.417319	-0.664013	-0.665326	0.004873	13.1117	-0.664292	-6.356965E+8	-7.666263E-12	NaN
392	1.000000	0.426635	7.3689e+06	-57489.1	1005.82	-29737	0.000000	0.000000	6.426895	0.019212	NaN	0.000000	0.001625	0.001654	28.0803	0.046105	0.001945	23.7024	39.0091	-164.59	0.023295	0.425439	-0.656010	-0.657206	0.019212	23.7024	-0.656618	-4.990435E+8	-3.849734E-11	NaN
392	1.000000	0.434661	7.3689e+06	-57489.1	1005.82	-29737	0.000000	0.000000	6.434922	0.066087	NaN	0.000000	0.001587	0.001672	28.08	0.070730	0.001953	36.2249	22.6058	-166.07	0.052331	0.433328	-0.647984	-0.649317	0.066087	36.2249	-0.649353	-3.967920E+8	-1.665529E-10	NaN
392	1.000000	0.442642	7.3689e+06	-57489.1	1005.82	-29737	0.000000	0.000000	6.442901	-0.002791	NaN	0.000000	0.001603	0.001646	28.08	0.125230	0.002045	61.2478	-170.791	-166.724	-0.023349	0.441344	-0.640003	-0.641301	-0.002791	61.2478	-0.639969	-2.950294E+8	9.459499E-12	NaN
392	1.000000	0.450655	7.3689e+06	-57489.1	1005.82	-29737	0.000000	0.000000	6.450909	-0.113868	NaN	0.000000	0.001603	0.001661	28.0806	0.090933	0.001910	47.5982	-38.8401	-165.044	-0.068429	0.449331	-0.631990	-0.633315	-0.113868	47.5982	-0.630196	-2.166294E+8	5.256340E-10	NaN
392	1.000000	0.458676	7.3689e+06	-57489.1	1005.82	-29737	0.000000	0.000000	6.458933	-0.049237	NaN	0.000000	0.001619	0.001657	28.0799	0.072502	0.002016	35.9549	139.952	-168.019	-0.091239	0.457335	-0.623970	-0.625310	-0.049237	35.9549	-0.622942	-1.722158E+8	2.859034E-10	NaN
392	1.000000	0.466680	7.3689e+06	-57489.1	1005.82	-29737	0.000000	0.000000	6.466939	0.005535	NaN	0.000000	0.001635	0.001614	28.0802	0.089521	0.002046	43.7586	164.948	-166.474	-0.027010	0.465373	-0.615965	-0.617273	0.005535	43.7586	-0.616060	-1.385070E+8	-3.996401E-11	NaN
392	1.000000	0.474664	7.3689e+06	-57489.1	1005.82	-29737	0.000000	0.000000	6.474922	-0.031390	NaN	0.000000	0.001580	0.001625	28.0801	0.100410	0.001906	52.6737	152.672	-168.832	0.039094	0.473361	-0.607981	-0.609284	-0.031390	52.6737	-0.607534	-1.057256E+8	2.969044E-10	NaN
392	1.000000	0.482660	7.3689e+06	-57489.1	1005.82	-29737	0.000000	0.000000	6.482918	-0.025956	NaN	0.000000	0.001573	0.001635	28.0801	0.090432	0.002067	43.7462	-26.9346	-165.298	-0.012692	0.481360	-0.599986	-0.601286	-0.025956	43.7462	-0.599541	-8.206020E+7	3.163026E-10	NaN
392	1.000000	0.490695	7.3689e+06	-57489.1	1005.82	-29737	0.000000	0.000000	6.490955	0.026189	NaN	0.000000	0.001589	0.001647	28.0803	0.111816	0.002013	55.5536	-174.038	-166.649	-0.028674	0.489347	-0.591950	-0.593298	0.026189	55.5536	-0.592304	-6.522687E+7	-4.015114E-10	NaN
392	1.000000	0.498681	7.3689e+06	-57489.1	1005.82	-29737	0.000000	0.000000	6.498938	-0.040416	NaN	0.000000	0.001570	0.001656	28.0801	0.086981	0.002000	43.4848	-132	-167.76	-0.028586	0.497370	-0.583964	-0.585275	-0.040416	43.4848	-0.583267	-4.895630E+7	8.255563E-10	NaN
392	1.000000	0.506671	7.3689e+06	-57489.1	1005.82	-29737	0.000000	0.000000	6.506931	0.026144	NaN	0.000000	0.001571	0.001637	28.0805	0.127897	0.002046	62.5207	-169.735	-165.308	0.038853	0.505368	-0.575975	-0.577278	0.026144	62.5207	-0.576288	-3.921814E+7	-6.666279E-10	NaN
392	1.000000	0.514703	7.3689e+06	-57489.1	1005.82	-29737	0.000000	0.000000	6.514962	0.003621	NaN	0.000000	0.001569	0.001642	28.08	0.071346	0.001996	35.7389	-71.2769	-165.144	-0.057749	0.513373	-0.567942	-0.569272	0.003621	35.7389	-0.568018	-3.014704E+7	-1.201068E-10	NaN
392	1.000000	0.522692	7.3689e+06	-57489.1	1005.82	-29737	0.000000	0.000000	6.522951	0.017868	NaN	0.000000	0.001587	0.001620	28.0801	0.081749	0.001949	41.9356	53.2123	-167.391	-0.076977	0.521403	-0.559954	-0.561242	0.017868	41.9356	-0.560273	-2.355906E+7	-7.584423E-10	NaN
392	1.000000	0.530678	7.3689e+06	-57489.1	1005.82	-29737	0.000000	0.000000	6.530935	-0.046163	NaN	0.000000	0.001592	0.001628	28.0804	0.082940	0.002021	41.0376	-113.193	-163.55	-0.018452	0.529375	-0.551967	-0.553270	-0.046163	41.0376	-0.551124	-1.760030E+7	2.622846E-9	NaN
392	1.000000	0.538718	7.3689e+06	-57489.1	1005.82	-29737	0.000000	0.000000	6.538978	0.016857	NaN	0.000000	0.001546	0.001617	28.0802	0.046669	0.001918	24.3314	170.343	-163.542	0.001245	0.537429	-0.543927	-0.545216	0.016857	24.3314	-0.544447	-1.422361E+7	-1.185121E-9	NaN
392	1.000000	0.546679	7.3689e+06	-57489.1	1005.82	-29737	0.000000	0.000000	6.546936	-0.056106	NaN	0.000000	0.001587	0.001613	28.0805	0.099801	0.001976	50.4967	-144.535	-166.569	-0.044152	0.545389	-0.535966	-0.537256	-0.056106	50.4967	-0.535133	-1.056417E+7	5.310928E-9	NaN
392	1.000000	0.554725	7.3689e+06	-57489.1	1005.82	-29737	0.000000	0.000000	6.554982	-0.059973	NaN	0.000000	0.001611	0.001605	28.0807	0.082885	0.001982	41.8257	-114.435	-167.424	-0.040598	0.553391	-0.527920	-0.529254	-0.059973	41.8257	-0.526845	-8.1048e+06	7.399635E-9	NaN
392	1.000000	0.562726	7.3689e+06	-57489.1	1005.82	-29737	0.000000	0.000000	6.562983	-0.059497	NaN	0.000000	0.001594	0.001579	28.0816	0.035697	0.001949	18.3187	36.7711	-164.003	-0.083691	0.561397	-0.519919	-0.521248	-0.059497	18.3187	-0.517483	-6.00605e+06	9.906120E-9	NaN
392	1.000000	0.570728	7.3689e+06	-57489.1	1005.82	-29737	0.000000	0.000000	6.570985	-0.040297	NaN	0.000000	0.001575	0.001607	28.0817	0.060712	0.002030	29.9018	142.783	-166.346	-0.075005	0.569408	-0.511918	-0.513237	-0.040297	29.9018	-0.510907	-4.86461e+06	8.283712E-9	NaN
392	1.000000	0.578709	7.3689e+06	-57489.1	1005.82	-29737	0.000000	0.000000	6.578969	0.028892	NaN	0.000000	0.001540	0.001653	28.0816	0.099913	0.001963	50.9105	-71.4719	-167.817	0.048237	0.577507	-0.503936	-0.505139	0.028892	50.9105	-0.504362	-3.94317e+06	-7.327075E-9	NaN
392	1.000000	0.586720	7.3689e+06	-57489.1	1005.82	-29737	0.000000	0.000000	6.586978	-0.020214	NaN	0.000000	0.001567	0.001628	28.0816	0.062530	0.002010	31.117	-156.582	-167.347	0.038118	0.585394	-0.495926	-0.497251	-0.020214	31.117	-0.495439	-2.96045e+06	6.827919E-9	NaN
392	1.000000	0.594674	7.3689e+06	-57489.1	1005.82	-29737	0.000000	0.000000	6.594935	0.033570	NaN	0.000000	0.001587	0.001640	28.0816	0.062845	0.002050	30.6573	72.2725	-167.187	-0.006828	0.593412	-0.487971	-0.489233	0.033570	30.6573	-0.488792	-2.39062e+06	-1.404244E-8	NaN
392	1.000000	0.602730	7.3689e+06	-57489.1	1005.82	-29737	0.000000	0.000000	6.602992	0.064774	NaN	0.000000	0.001619	0.001634	28.0815	0.033495	0.002166	15.4663	-90.9024	-165.766	0.081929	0.601419	-0.479915	-0.481226	0.064774	15.4663	-0.483056	-1.98744e+06	-3.259167E-8	NaN
392	1.000000	0.610735	7.3689e+06	-57489.1	1005.82	-29737	0.000000	0.000000	6.610993	-0.023651	NaN	0.000000	0.001589	0.001634	28.0813	0.016774	0.002028	8.269794	28.9225	-167.522	-0.028578	0.609478	-0.471911	-0.473167	-0.023651	8.269794	-0.469766	-1.29455e+06	1.826969E-8	NaN
392	1.000000	0.618732	7.3689e+06	-57489.1	1005.82	-29737	0.000000	0.000000	6.618987	-0.085112	NaN	0.000000	0.001596	0.001610	28.0814	0.062740	0.002091	30.0109	1.823864	-169.141	-0.109223	0.617478	-0.463914	-0.465167	-0.085112	30.0109	-0.461787	-1.00028e+06	8.508854E-8	NaN
392	1.000000	0.626741	7.3689e+06	-57489.1	1005.82	-29737	0.000000	0.000000	6.627000	-0.000363	NaN	0.000000	0.001611	0.001636	28.0814	0.097482	0.002037	47.8475	89.6251	-168.31	0.030128	0.625392	-0.455905	-0.457254	-0.000363	47.8475	-0.455899	-826728	4.394269E-10	NaN
392	1.000000	0.634759	7.3689e+06	-57489.1	1005.82	-29737	0.000000	0.000000	6.635016	-0.028261	NaN	0.000000	0.001612	0.001650	28.0815	0.033282	0.002041	16.3046	-115.144	-165.095	-0.040849	0.633433	-0.447887	-0.449213	-0.028261	16.3046	-0.446587	-611302	4.623039E-8	NaN
392	1.000000	0.642756	7.3689e+06	-57489.1	1005.82	-29737	0.000000	0.000000	6.643015	-0.001053	NaN	0.000000	0.001597	0.001642	28.0818	0.043376	0.001944	22.315	147.389	-169.524	0.018309	0.641440	-0.439889	-0.441206	-0.001053	22.315	-0.439854	-491251	2.144215E-9	NaN
392	1.000000	0.650762	7.3689e+06	-57489.1	1005.82	-29737	0.000000	0.000000	6.651018	-0.066842	NaN	0.000000	0.001598	0.001644	28.0814	0.069666	0.001865	37.3526	-143.396	-166.636	-0.052125	0.649437	-0.431883	-0.433208	-0.066842	37.3526	-0.430541	-362843	1.842180E-7	NaN
392	1.000000	0.658743	7.3689e+06	-57489.1	1005.82	-29737	0.000000	0.000000	6.659000	-0.046141	NaN	0.000000	0.001588	0.001655	28.0815	0.033176	0.002121	15.6382	118.619	-165.676	-0.042536	0.657462	-0.423903	-0.425183	-0.046141	15.6382	-0.421690	-271877	1.697143E-7	NaN
392	1.000000	0.666768	7.3689e+06	-57489.1	1005.82	-29737	0.000000	0.000000	6.667022	-0.127437	NaN	0.000000	0.001619	0.001619	28.0814	0.056405	0.002043	27.6037	77.6836	-167.777	-0.061431	0.665456	-0.415877	-0.417189	-0.127437	27.6037	-0.412415	-200784	6.346979E-7	NaN
392	1.000000	0.674771	7.3689e+06	-57489.1	1005.82	-29737	0.000000	0.000000	6.675030	0.012488	NaN	0.000000	0.001632	0.001689	28.0815	0.104528	0.002066	50.6008	84.2974	-167.915	-0.013644	0.673451	-0.407875	-0.409194	0.012488	50.6008	-0.408060	-174101	-7.173101E-8	NaN
392	1.000000	0.682751	7.3689e+06	-57489.1	1005.82	-29737	0.000000	0.000000	6.683008	-0.043303	NaN	0.000000	0.001588	0.001666	28.0816	0.039398	0.001995	19.7534	125.389	-168.039	-0.053798	0.681466	-0.399895	-0.401180	-0.043303	19.7534	-0.398251	-126194	3.431449E-7	NaN
392	1.000000	0.690759	7.3689e+06	-57489.1	1005.82	-29737	0.000000	0.000000	6.691016	-0.036513	NaN	0.000000	0.001592	0.001638	28.0814	0.049207	0.002031	24.2285	-148.593	-163.159	0.021479	0.689490	-0.391886	-0.393155	-0.036513	24.2285	-0.390756	-98623.7	3.702296E-7	NaN
392	1.000000	0.698750	7.3689e+06	-57489.1	1005.82	-29737	0.000000	0.000000	6.699009	0.009213	NaN	0.000000	0.001612	0.001655	28.0806	0.071931	0.001928	37.3171	-68.784	-166.15	-0.033600	0.697456	-0.383896	-0.385189	0.009213	37.3171	-0.384081	-79143.3	-1.164143E-7	NaN
392	1.000000	0.706760	7.3689e+06	-57489.1	1005.82	-29737	0.000000	0.000000	6.707016	-0.073624	NaN	0.000000	0.001600	0.001672	28.0801	0.043561	0.001924	22.6437	78.6084	-168.677	-0.028072	0.705461	-0.375885	-0.377185	-0.073624	22.6437	-0.373447	-55684.5	1.322171E-6	NaN
392	1.000000	0.714760	7.3689e+06	-57489.1	1005.82	-29737	0.000000	0.000000	6.715015	-0.095521	NaN	0.000000	0.001581	0.001713	28.0801	0.014055	0.002025	6.939420	-113.108	-165.612	-0.046698	0.713475	-0.367885	-0.369170	-0.095521	6.939420	-0.357561	-32853.1	2.907534E-6	NaN
392	1.000000	0.722802	7.3689e+06	-57489.1	1005.82	-29737	0.000000	0.000000	6.723059	-0.056845	NaN	0.000000	0.001641	0.001702	28.0801	0.095518	0.002058	46.4104	105.305	-162.199	-0.055674	0.721461	-0.359843	-0.361185	-0.056845	46.4104	-0.358924	-34379	1.653471E-6	NaN
392	1.000000	0.730782	7.3689e+06	-57489.1	1005.82	-29737	0.000000	0.000000	6.731042	0.018192	NaN	0.000000	0.001644	0.001678	28.08	0.113556	0.002073	54.7901	-139.793	-166.922	0.026071	0.729464	-0.351863	-0.353181	0.018192	54.7901	-0.352112	-27393.5	-6.641159E-7	NaN
392	1.000000	0.738809	7.3689e+06	-57489.1	1005.82	-29737	0.000000	0.000000	6.739068	-0.000202	NaN	0.000000	0.001647	0.001672	28.0804	0.053387	0.002027	26.3394	144.325	-168.907	0.002841	0.737492	-0.343836	-0.345153	-0.000202	26.3394	-0.343830	-20765.4	9.743651E-9	NaN
392	1.000000	0.746765	7.3689e+06	-57489.1	1005.82	-29737	0.000000	0.000000	6.747022	-0.036266	NaN	0.000000	0.001630	0.001632	28.0801	0.040574	0.002131	19.0428	176.645	-166.751	0.002625	0.745486	-0.335880	-0.337160	-0.036266	19.0428	-0.334452	-15155.8	2.392889E-6	NaN
392	1.000000	0.754805	7.3689e+06	-57489.1	1005.82	-29737	0.000000	0.000000	6.755063	-0.005317	NaN	0.000000	0.001626	0.001653	28.0805	0.015311	0.002104	7.276629	133.068	-166.964	-0.054039	0.753447	-0.327841	-0.329198	-0.005317	7.276629	-0.327293	-11906.2	4.466013E-7	NaN
392	1.000000	0.762783	7.3689e+06	-57489.1	1005.82	-29737	0.000000	0.000000	6.763044	0.032531	NaN	0.000000	0.001638	0.001644	28.0802	0.113426	0.002017	56.2377	55.8151	-163.396	0.053553	0.761482	-0.319862	-0.321163	0.032531	56.2377	-0.320296	-9397.04	-3.461836E-6	NaN
392	1.000000	0.770809	7.3689e+06	-57489.1	1005.82	-29737	0.000000	0.000000	6.771066	-0.062359	NaN	0.000000	0.001637	0.001638	28.0802	0.026354	0.001926	13.6849	-38.7349	-163.824	-0.036944	0.769512	-0.311836	-0.313133	-0.062359	13.6849	-0.308419	-6275.41	9.937016E-6	NaN
392	1.000000	0.778799	7.3689e+06	-57489.1	1005.82	-29737	0.000000	0.000000	6.779058	-0.000270	NaN	0.000000	0.001631	0.001663	28.0805	0.069065	0.002018	34.2291	-168.75	-167.883	-0.061522	0.777519	-0.303846	-0.305126	-0.000270	34.2291	-0.303840	-5367.02	5.028165E-8	NaN
392	1.000000	0.786796	7.3689e+06	-57489.1	1005.82	-29737	0.000000	0.000000	6.787054	-0.024882	NaN	0.000000	0.001631	0.001674	28.08	0.056518	0.001933	29.2364	-171.269	-166.098	0.018326	0.785453	-0.295849	-0.297192	-0.024882	29.2364	-0.295211	-3992.38	6.232432E-6	NaN
392	1.000000	0.794823	7.3689e+06	-57489.1	1005.82	-29737	0.000000	0.000000	6.795077	-0.098516	NaN	0.000000	0.001601	0.001666	28.0802	0.081528	0.002071	39.3579	132.552	-165.335	-0.031118	0.793486	-0.287823	-0.289159	-0.098516	39.3579	-0.285945	-2900.51	3.396502E-5	NaN
392	1.000000	0.802809	7.3689e+06	-57489.1	1005.82	-29737	0.000000	0.000000	6.803066	-0.047618	NaN	0.000000	0.001565	0.001679	28.0801	0.090608	0.001969	46.007	152.482	-167.802	-0.025012	0.801506	-0.279837	-0.281140	-0.047618	46.007	-0.279060	-2284.48	2.084395E-5	NaN
392	1.000000	0.810829	7.3689e+06	-57489.1	1005.82	-29737	0.000000	0.000000	6.811086	-0.043510	NaN	0.000000	0.001642	0.001664	28.0802	0.063869	0.002017	31.6602	-147.26	-164.964	0.066454	0.809499	-0.271817	-0.273146	-0.043510	31.6602	-0.270786	-1711.93	2.541597E-5	NaN
392	1.000000	0.818831	7.3689e+06	-57489.1	1005.82	-29737	0.000000	0.000000	6.819086	-0.100454	NaN	0.000000	0.001613	0.001629	28.0805	0.116806	0.001959	59.6343	165.369	-166.286	-0.121896	0.817558	-0.263814	-0.265088	-0.100454	59.6343	-0.262551	-1282.24	7.834271E-5	NaN
392	1.000000	0.826838	7.3689e+06	-57489.1	1005.82	-29737	0.000000	0.000000	6.827096	-0.001881	NaN	0.000000	0.001648	0.001670	28.0803	0.039479	0.001979	19.9487	-64.3505	-163.361	0.054105	0.825479	-0.255808	-0.257167	-0.001881	19.9487	-0.255737	-1007.99	1.866558E-6	NaN
392	1.000000	0.834824	7.3689e+06	-57489.1	1005.82	-29737	0.000000	0.000000	6.835083	0.003824	NaN	0.000000	0.001606	0.001645	28.0817	0.013725	0.002010	6.826911	-149.921	-166.702	-0.016892	0.833511	-0.247821	-0.249134	0.003824	6.826911	-0.248242	-772.231	-4.952178E-6	NaN
392	1.000000	0.842811	7.3689e+06	-57489.1	1005.82	-29737	0.000000	0.000000	6.843071	0.046926	NaN	0.000000	0.001632	0.001669	28.082	0.081156	0.001990	40.7785	85.3706	-167.595	0.028912	0.841478	-0.239835	-0.241167	0.046926	40.7785	-0.240698	-589.451	-7.961044E-5	NaN
392	1.000000	0.850831	7.3689e+06	-57489.1	1005.82	-29737	0.000000	0.000000	6.851090	0.011860	NaN	0.000000	0.001642	0.001646	28.0818	0.079891	0.002031	39.3432	-131.531	-165.883	0.010441	0.849527	-0.231814	-0.233118	0.011860	39.3432	-0.232041	-431.222	-2.750210E-5	NaN
392	1.000000	0.858827	7.3689e+06	-57489.1	1005.82	-29737	0.000000	0.000000	6.859088	0.032770	NaN	0.000000	0.001630	0.001639	28.0817	0.073954	0.002038	36.293	-140.527	-164.86	0.003482	0.857548	-0.223818	-0.225097	0.032770	36.293	-0.224495	-327.577	-0.000100	NaN
392	1.000000	0.866842	7.3689e+06	-57489.1	1005.82	-29737	0.000000	0.000000	6.867097	-0.084448	NaN	0.000000	0.001543	0.001681	28.0816	0.039048	0.002034	19.1987	-14.1742	-165.723	-0.061571	0.865481	-0.215803	-0.217164	-0.084448	19.1987	-0.212504	-210.526	0.000401	NaN
392	1.000000	0.874861	7.3689e+06	-57489.1	1005.82	-29737	0.000000	0.000000	6.875119	-0.027878	NaN	0.000000	0.001563	0.001637	28.0819	0.087622	0.002053	42.6721	-0.000453	-168.911	-0.059948	0.873537	-0.207784	-0.209108	-0.027878	42.6721	-0.207294	-173.348	0.000161	NaN
392	1.000000	0.882869	7.3689e+06	-57489.1	1005.82	-29737	0.000000	0.000000	6.883128	-0.000201	NaN	0.000000	0.001573	0.001642	28.0816	0.062016	0.002045	30.3306	-65.9071	-166.647	-0.013547	0.881551	-0.199777	-0.201094	-0.000201	30.3306	-0.199772	-130.601	1.536963E-6	NaN
392	1.000000	0.890843	7.3689e+06	-57489.1	1005.82	-29737	0.000000	0.000000	6.891102	-0.001867	NaN	0.000000	0.001563	0.001648	28.0815	0.086435	0.001958	44.1371	-50.6752	-168.064	-0.086274	0.889543	-0.191802	-0.193103	-0.001867	44.1371	-0.191770	-96.2843	1.939144E-5	NaN
392	1.000000	0.898832	7.3689e+06	-57489.1	1005.82	-29737	0.000000	0.000000	6.899094	0.077620	NaN	0.000000	0.001572	0.001653	28.0816	0.028561	0.001987	14.3729	-86.6124	-166.718	-0.003579	0.897550	-0.183814	-0.185096	0.077620	14.3729	-0.187864	-82.8469	-0.000937	NaN
392	1.000000	0.906871	7.3689e+06	-57489.1	1005.82	-29737	0.000000	0.000000	6.907128	-0.051075	NaN	0.000000	0.001554	0.001652	28.0816	0.091398	0.001973	46.3185	27.7055	-166.03	-0.109804	0.905537	-0.175774	-0.177109	-0.051075	46.3185	-0.174947	-50.0122	0.001021	NaN
392	1.000000	0.914837	7.3689e+06	-57489.1	1005.82	-29737	0.000000	0.000000	6.915096	0.018828	NaN	0.000000	0.001572	0.001638	28.0815	0.090260	0.002049	44.0536	171.947	-162.881	-0.066874	0.913530	-0.167809	-0.169116	0.018828	44.0536	-0.168129	-38.112	-0.000494	NaN
392	1.000000	0.922866	7.3689e+06	-57489.1	1005.82	-29737	0.000000	0.000000	6.923124	-0.019554	NaN	0.000000	0.001560	0.001626	28.0816	0.124229	0.001880	66.0779	-43.2066	-166.485	-0.051218	0.921515	-0.159780	-0.161130	-0.019554	66.0779	-0.159558	-26.9229	0.000726	NaN
392	1.000000	0.930834	7.3689e+06	-57489.1	1005.82	-29737	0.000000	0.000000	6.931090	-0.064028	NaN	0.000000	0.001588	0.001644	28.0814	0.090651	0.001963	46.176	-48.0104	-166.143	-0.067465	0.929541	-0.151811	-0.153104	-0.064028	46.176	-0.150771	-18.7093	0.003422	NaN
392	1.000000	0.938861	7.3689e+06	-57489.1	1005.82	-29737	0.000000	0.000000	6.939117	-0.076949	NaN	0.000000	0.001607	0.001656	28.0814	0.226039	0.001911	118.298	118.178	-164.614	-0.004721	0.937542	-0.143784	-0.145103	-0.076949	118.298	-0.143296	-13.6322	0.005645	NaN
392	1.000000	0.946900	7.3689e+06	-57489.1	1005.82	-29737	0.000000	0.000000	6.947156	-0.067376	NaN	0.000000	0.001625	0.001652	28.0817	0.059107	0.001946	30.3693	177.146	-166.11	-0.114660	0.945553	-0.135745	-0.137092	-0.067376	30.3693	-0.134081	-9.135368	0.007375	NaN
392	1.000000	0.954858	7.3689e+06	-57489.1	1005.82	-29737	0.000000	0.000000	6.955114	-0.061061	NaN	0.000000	0.001610	0.001645	28.0816	0.008819	0.001864	4.730708	110.97	-168.003	-0.049433	0.953511	-0.127788	-0.129135	-0.061061	4.730708	-0.118107	-4.423160	0.013805	NaN
392	1.000000	0.962873	7.3689e+06	-57489.1	1005.82	-29737	0.000000	0.000000	6.963131	-0.015937	NaN	0.000000	0.001624	0.001636	28.0816	0.040482	0.002038	19.8626	158.216	-164.328	0.016035	0.961588	-0.119773	-0.121057	-0.015937	19.8626	-0.119171	-4.648571	0.003428	NaN
392	1.000000	0.970893	7.3689e+06	-57489.1	1005.82	-29737	0.000000	0.000000	6.971150	-0.040807	NaN	0.000000	0.001692	0.001643	28.0806	0.079587	0.001994	39.9195	72.538	-164.995	-0.039530	0.969592	-0.111753	-0.113053	-0.040807	39.9195	-0.110986	-3.152218	0.012945	NaN
392	1.000000	0.978864	7.3689e+06	-57489.1	1005.82	-29737	0.000000	0.000000	6.979119	-0.084994	NaN	0.000000	0.001660	0.001669	28.0801	0.097785	0.002041	47.9168	-160.908	-164.776	-0.102169	0.977570	-0.103782	-0.105075	-0.084994	47.9168	-0.102451	-2.068992	0.041080	NaN
392	1.000000	0.986876	7.3689e+06	-57489.1	1005.82	-29737	0.000000	0.000000	6.987133	-0.038503	NaN	0.000000	0.001718	0.001707	28.0804	0.070061	0.002062	33.9774	90.8273	-166.943	-0.087780	0.985557	-0.095770	-0.097088	-0.038503	33.9774	-0.094920	-1.404712	0.027410	NaN
392	1.000000	0.994884	7.3689e+06	-57489.1	1005.82	-29737	0.000000	0.000000	6.995143	-0.009692	NaN	0.000000	0.001702	0.001712	28.0801	0.074983	0.002072	36.1836	166.851	-163.752	-0.033785	0.993579	-0.087761	-0.089067	-0.009692	36.1836	-0.087560	-0.946542	0.010239	NaN
392	1.000000	1.002874	7.3689e+06	-57489.1	1005.82	-29737	0.000000	0.000000	7.003136	0.063565	NaN	0.000000	0.001705	0.001650	28.0804	0.042617	0.002047	20.8208	36.9689	-167.405	0.022972	1.001634	-0.079771	-0.081011	0.063565	20.8208	-0.082061	-0.696419	-0.091274	NaN
392	1.000000	1.010875	7.3689e+06	-57489.1	1005.82	-29737	0.000000	0.000000	7.011132	-0.048774	NaN	0.000000	0.001760	0.001668	28.0805	0.064207	0.002054	31.2659	-26.6033	-165.741	-0.051948	1.009599	-0.071770	-0.073046	-0.048774	31.2659	-0.070600	-0.353942	0.137801	NaN
392	1.000000	1.018894	7.3689e+06	-57489.1	1005.82	-29737	0.000000	0.000000	7.019154	0.010430	NaN	0.000000	0.001695	0.001679	28.08	0.074216	0.002049	36.2145	76.6222	-164.174	-0.014310	1.017593	-0.063751	-0.065052	0.010430	36.2145	-0.063967	-0.233247	-0.044717	NaN
392	1.000000	1.026905	7.3689e+06	-57489.1	1005.82	-29737	0.000000	0.000000	7.027165	0.025335	NaN	0.000000	0.001683	0.001705	28.0804	0.043280	0.001998	21.6625	-155.977	-166.903	-0.097966	1.025572	-0.055740	-0.057073	0.025335	21.6625	-0.056617	-0.143690	-0.176315	NaN
392	1.000000	1.034892	7.3689e+06	-57489.1	1005.82	-29737	0.000000	0.000000	7.035152	0.031995	NaN	0.000000	0.001684	0.001703	28.08	0.150810	0.001962	76.8503	-92.836	-161.705	0.045462	1.033546	-0.047753	-0.049099	0.031995	76.8503	-0.048066	-0.079717	-0.401359	NaN
392	1.000000	1.042893	7.3689e+06	-57489.1	1005.82	-29737	0.000000	0.000000	7.043150	-0.048979	NaN	0.000000	0.001689	0.001656	28.0802	0.154210	0.001932	79.8182	-42.9784	-167.299	-0.050933	1.041577	-0.039752	-0.041069	-0.048979	79.8182	-0.039292	-0.043040	1.137986	NaN
392	1.000000	1.050885	7.3689e+06	-57489.1	1005.82	-29737	0.000000	0.000000	7.051142	-0.053548	NaN	0.000000	0.001698	0.001677	28.0801	0.063015	0.002066	30.5013	-0.150176	-166.432	-0.072394	1.049614	-0.031760	-0.033031	-0.053548	30.5013	-0.030443	-0.023679	2.261414	NaN
392	1.000000	1.058883	7.3689e+06	-57489.1	1005.82	-29737	0.000000	0.000000	7.059141	-0.011099	NaN	0.000000	0.001722	0.001678	28.0799	0.140476	0.002030	69.2155	-118.621	-166.501	0.042955	1.057646	-0.023762	-0.024999	-0.011099	69.2155	-0.023642	-0.015556	0.713442	NaN
392	1.000000	1.066889	7.3689e+06	-57489.1	1005.82	-29737	0.000000	0.000000	7.067154	0.148387	NaN	0.000000	0.001679	0.001621	28.0802	0.258331	0.001828	141.344	22.0185	-162.152	0.021406	1.065574	-0.015756	-0.017071	0.148387	141.344	-0.016544	-0.010221	-14.5173	NaN
392	1.000000	1.074930	7.3689e+06	-57489.1	1005.82	-29737	0.000000	0.000000	7.075222	0.797762	NaN	0.000000	0.001697	0.001622	28.08	0.687545	0.002048	335.74	1.815176	-165.199	0.609038	1.073671	-0.007715	-0.008974	0.797762	335.74	-0.009498	-0.006099	-130.793	NaN
392	1.000000	1.082934	7.3689e+06	-57489.1	1005.82	-29737	0.000000	0.000000	7.083222	0.714566	NaN	0.000000	0.001703	0.001660	28.08	0.847864	0.001991	425.887	9.743741	-164.578	0.907439	1.081579	0.000289	-0.001067	0.714566	425.887	-0.000970	-0.000711	-1004.57	NaN
392	1.000000	1.090773	7.3689e+06	-57489.1	1005.82	-29737	0.000000	0.000000	7.091327	7.151977	NaN	0.000000	0.001697	0.001656	28.0799	7.224014	0.001822	3964.28	11.5522	-172.393	5.104423	1.089565	0.008128	0.006919	7.151977	3964.28	0.006775	0.005812	1230.45	47507
392	2.000000	1.093517	7.3689e+06	-57489.1	1005.82	-29737	0.000000	0.000000	7.094204	10.4107	NaN	0.000000	0.001711	0.001665	28.0799	10.6854	0.001640	6514.41	7.176420	-175.846	9.942137	1.093278	0.010872	0.010633	10.4107	6514.41	0.009673	0.008820	1180.3	63373
392	2.000000	1.095570	7.3689e+06	-57489.1	1005.82	-29737	0.000000	0.000000	7.096421	14.3762	NaN	0.000000	0.001697	0.001647	28.0813	13.0142	0.001719	7572.7	5.454371	-172.807	13.9409	1.095238	0.012925	0.012593	14.3762	7572.7	0.011501	0.010898	1319.14	66274.7
392	2.000000	1.097502	7.3689e+06	-57489.1	1005.82	-29737	0.000000	0.000000	7.098469	17.2003	NaN	0.000000	0.001612	0.001660	28.0813	15.1614	0.001759	8619.63	9.930985	-178.648	16.8049	1.097221	0.014857	0.014575	17.2003	8619.63	0.013360	0.013160	1306.97	68647.7
392	2.000000	1.099487	7.3689e+06	-57489.1	1005.82	-29737	0.000000	0.000000	7.100652	22.0183	NaN	0.000000	0.001623	0.001658	28.0813	17.4738	0.001723	10142.6	5.364881	-176.765	21.594	1.099194	0.016842	0.016549	22.0183	10142.6	0.015214	0.015572	1413.98	74259.7
392	2.000000	1.101473	7.3689e+06	-57489.1	1005.82	-29737	0.000000	0.000000	7.102858	27.3574	NaN	0.000000	0.001663	0.001670	28.0813	19.2296	0.001750	10989.9	8.956737	178.67	25.9644	1.101171	0.018828	0.018526	27.3574	10989.9	0.016961	0.017990	1520.7	74860.3
392	2.000000	1.103478	7.3689e+06	-57489.1	1005.82	-29737	0.000000	0.000000	7.104902	28.3075	NaN	0.000000	0.001705	0.001650	28.0814	21.4321	0.001840	11645.3	3.921931	-176.153	27.0995	1.103168	0.020833	0.020522	28.3075	11645.3	0.019010	0.021010	1347.34	73402.5
392	2.000000	1.105467	7.3689e+06	-57489.1	1005.82	-29737	0.000000	0.000000	7.107065	32.5314	NaN	0.000000	0.001716	0.001641	28.0813	23.4136	0.001824	12839.9	9.924475	177.968	32.0296	1.105095	0.022822	0.022450	32.5314	12839.9	0.020922	0.024012	1354.81	75704.5
392	2.000000	1.107457	7.3689e+06	-57489.1	1005.82	-29737	0.000000	0.000000	7.109328	39.1802	NaN	0.000000	0.001657	0.001670	28.0812	25.1494	0.001768	14226.3	6.907424	177.814	37.1497	1.107087	0.024811	0.024442	39.1802	14226.3	0.022746	0.027042	1448.86	79039.7
392	2.000000	1.109460	7.3689e+06	-57489.1	1005.82	-29737	0.000000	0.000000	7.111428	41.5404	NaN	0.000000	0.001691	0.001697	28.0815	26.9044	0.001814	14832.8	4.233808	-177.964	41.0931	1.109160	0.026815	0.026515	41.5404	14832.8	0.024714	0.030498	1362.09	77600.3
392	2.000000	1.111460	7.3689e+06	-57489.1	1005.82	-29737	0.000000	0.000000	7.113643	46.7604	NaN	0.000000	0.001702	0.001632	28.0816	28.4231	0.001743	16303	7.816579	176.892	46.0375	1.111084	0.028815	0.028439	46.7604	16303	0.026664	0.034112	1370.8	80647.2
392	2.000000	1.113415	7.3689e+06	-57489.1	1005.82	-29737	0.000000	0.000000	7.115905	54.224	NaN	0.000000	0.001675	0.001641	28.0816	31.4647	0.001806	17426.8	4.515434	179.608	52.9795	1.113154	0.030769	0.030508	54.224	17426.8	0.028436	0.037564	1443.51	82149.7
392	2.000000	1.115575	7.3689e+06	-57489.1	1005.82	-29737	0.000000	0.000000	7.118286	59.5947	NaN	0.000000	0.001716	0.001616	28.0816	33.8003	0.001700	19883.7	7.564757	175.231	63.1238	1.115125	0.032930	0.032479	59.5947	19883.7	0.030682	0.042170	1413.21	88464.7
392	2.000000	1.117437	7.3689e+06	-57489.1	1005.82	-29737	0.000000	0.000000	7.120469	67.4109	NaN	0.000000	0.001693	0.001638	28.0814	34.7986	0.001753	19852.9	3.115679	179.357	66.2478	1.117135	0.034792	0.034489	67.4109	19852.9	0.032245	0.045525	1480.74	85010.3
392	2.000000	1.119382	7.3689e+06	-57489.1	1005.82	-29737	0.000000	0.000000	7.122967	80.8474	NaN	0.000000	0.001674	0.001621	28.0824	37.3696	0.001842	20292.6	4.568515	178.642	77.0665	1.119083	0.036736	0.036438	80.8474	20292.6	0.033748	0.048872	1654.29	83865.6
392	2.000000	1.121436	7.3689e+06	-57489.1	1005.82	-29737	0.000000	0.000000	7.125308	87.8069	NaN	0.000000	0.001681	0.001629	28.0816	38.9091	0.001813	21467	5.765789	176.947	87.2336	1.121120	0.038791	0.038474	87.8069	21467	0.035723	0.053443	1643.01	84839.9
392	2.000000	1.123382	7.3689e+06	-57489.1	1005.82	-29737	0.000000	0.000000	7.127718	99.0822	NaN	0.000000	0.001679	0.001679	28.0813	41.9401	0.001866	22479.7	3.101441	178.425	95.4123	1.123092	0.040737	0.040447	99.0822	22479.7	0.037431	0.057559	1721.41	85606.8
392	2.000000	1.125417	7.3689e+06	-57489.1	1005.82	-29737	0.000000	0.000000	7.130019	105.557	NaN	0.000000	0.001667	0.001689	28.0814	43.4623	0.001802	24117.6	1.282341	179.409	102.858	1.125083	0.042772	0.042438	105.557	24117.6	0.039490	0.062716	1683.09	87987
392	2.000000	1.127413	7.3689e+06	-57489.1	1005.82	-29737	0.000000	0.000000	7.132307	112.656	NaN	0.000000	0.001718	0.001682	28.0815	45.3521	0.001848	24543.7	4.321260	176.5	112.355	1.127203	0.044767	0.044557	112.656	24543.7	0.041325	0.067497	1669.05	86312.1
392	2.000000	1.129354	7.3689e+06	-57489.1	1005.82	-29737	0.000000	0.000000	7.134940	129.478	NaN	0.000000	0.001710	0.001654	28.0807	48.1015	0.001867	25764.7	6.609349	173.593	126.001	1.129087	0.046708	0.046441	129.478	25764.7	0.042939	0.071845	1802.19	87821.3
392	2.000000	1.131436	7.3689e+06	-57489.1	1005.82	-29737	0.000000	0.000000	7.137660	144.986	NaN	0.000000	0.001681	0.001662	28.0803	48.8698	0.001829	26715.1	8.690122	171.541	145.877	1.131130	0.048790	0.048485	144.986	26715.1	0.044720	0.076795	1887.97	88077.2
392	2.000000	1.133426	7.3689e+06	-57489.1	1005.82	-29737	0.000000	0.000000	7.139819	149.087	NaN	0.000000	0.001694	0.001630	28.0803	50.6532	0.001771	28598.3	4.109444	175.705	147.712	1.133104	0.050780	0.050459	149.087	28598.3	0.046870	0.082986	1796.53	90700.8
392	2.000000	1.135465	7.3689e+06	-57489.1	1005.82	-29737	0.000000	0.000000	7.142467	163.899	NaN	0.000000	0.001710	0.001654	28.0802	52.6001	0.001753	29998.3	5.328334	174.34	162.397	1.135108	0.052820	0.052462	163.899	29998.3	0.048722	0.088503	1851.9	92127.5
392	2.000000	1.137326	7.3689e+06	-57489.1	1005.82	-29737	0.000000	0.000000	7.144974	179.57	NaN	0.000000	0.001705	0.001675	28.0803	53.3026	0.001745	30553.7	1.173224	177.847	173.189	1.137027	0.054681	0.054382	179.57	30553.7	0.050273	0.093259	1925.48	91409.3
392	2.000000	1.139448	7.3689e+06	-57489.1	1005.82	-29737	0.000000	0.000000	7.147651	193.081	NaN	0.000000	0.001699	0.001619	28.0805	57.262	0.001843	31070.8	2.758205	176.449	193.555	1.139088	0.056803	0.056442	193.081	31070.8	0.052142	0.099149	1947.39	90153.2
392	2.000000	1.141334	7.3689e+06	-57489.1	1005.82	-29737	0.000000	0.000000	7.150229	209.899	NaN	0.000000	0.001712	0.001666	28.0802	58.0474	0.001747	33233.2	6.216743	172.166	206.393	1.141068	0.058689	0.058423	209.899	33233.2	0.053952	0.105017	1998.71	93694.5
392	2.000000	1.143287	7.3689e+06	-57489.1	1005.82	-29737	0.000000	0.000000	7.152314	213.101	NaN	0.000000	0.001691	0.001653	28.0804	61.3529	0.001824	33638.7	5.968957	172.025	205.333	1.142967	0.060641	0.060321	213.101	33638.7	0.055890	0.111485	1911.48	92046
392	2.000000	1.145312	7.3689e+06	-57489.1	1005.82	-29737	0.000000	0.000000	7.155115	231.971	NaN	0.000000	0.001645	0.001657	28.0801	62.4411	0.001682	37122.6	3.557636	174.04	224.358	1.145040	0.062667	0.062395	231.971	37122.6	0.057980	0.118665	1954.85	98458.1
392	2.000000	1.147361	7.3689e+06	-57489.1	1005.82	-29737	0.000000	0.000000	7.157511	240.416	NaN	0.000000	0.001643	0.001647	28.0803	64.2169	0.001779	36090.4	6.095271	171.933	238.186	1.147037	0.064715	0.064391	240.416	36090.4	0.059719	0.124803	1926.36	93336.5
392	2.000000	1.149401	7.3689e+06	-57489.1	1005.82	-29737	0.000000	0.000000	7.160392	260.854	NaN	0.000000	0.001621	0.001662	28.0803	67.3771	0.001886	35719.5	4.396193	173.467	259.638	1.149153	0.066755	0.066508	260.854	35719.5	0.061278	0.130431	1999.93	90362.4
392	2.000000	1.151365	7.3689e+06	-57489.1	1005.82	-29737	0.000000	0.000000	7.162794	271.458	NaN	0.000000	0.001625	0.001661	28.0801	67.2668	0.001773	37948.6	3.917462	173.21	266.973	1.151102	0.068720	0.068457	271.458	37948.6	0.063355	0.138114	1965.47	93293.2
392	2.000000	1.153402	7.3689e+06	-57489.1	1005.82	-29737	0.000000	0.000000	7.165388	285.003	NaN	0.000000	0.001629	0.001644	28.0806	70.4658	0.001762	40001.9	3.390274	173.617	284.847	1.153070	0.070757	0.070425	285.003	40001.9	0.065414	0.145933	1952.96	95670.1
392	2.000000	1.155381	7.3689e+06	-57489.1	1005.82	-29737	0.000000	0.000000	7.167905	298.077	NaN	0.000000	0.001607	0.001669	28.0801	72.0233	0.001749	41178.2	1.228073	176.199	294.479	1.155137	0.072736	0.072492	298.077	41178.2	0.067307	0.153306	1944.32	96085.9
392	2.000000	1.157387	7.3689e+06	-57489.1	1005.82	-29737	0.000000	0.000000	7.170621	315.33	NaN	0.000000	0.001593	0.001675	28.0803	74.7801	0.001811	41299.1	7.981720	168.999	313.999	1.157021	0.074742	0.074375	315.33	41299.1	0.069016	0.160107	1969.49	94299.2
392	2.000000	1.159380	7.3689e+06	-57489.1	1005.82	-29737	0.000000	0.000000	7.173037	325.626	NaN	0.000000	0.001651	0.001661	28.0801	76.0921	0.001775	42860.5	2.317307	174.119	323.807	1.159073	0.076735	0.076427	325.626	42860.5	0.071037	0.168332	1934.42	95443.5
392	2.000000	1.161275	7.3689e+06	-57489.1	1005.82	-29737	0.000000	0.000000	7.175429	337.707	NaN	0.000000	0.001637	0.001647	28.08	76.6883	0.001769	43356.7	1.242352	175.604	331.673	1.161086	0.078630	0.078441	337.707	43356.7	0.072788	0.175613	1923.02	94526
392	2.000000	1.163458	7.3689e+06	-57489.1	1005.82	-29737	0.000000	0.000000	7.178245	353.113	NaN	0.000000	0.001626	0.001676	28.0819	79.7228	0.001709	46658.7	5.910744	170.515	355.405	1.163088	0.080812	0.080443	353.113	46658.7	0.075136	0.185607	1902.48	98948.4
392	2.000000	1.165271	7.3689e+06	-57489.1	1005.82	-29737	0.000000	0.000000	7.180711	368.953	NaN	0.000000	0.001612	0.001673	28.0812	81.4834	0.001674	48672.3	5.252161	170.29	361.738	1.165050	0.082626	0.082405	368.953	48672.3	0.076941	0.193463	1907.1	101101
392	2.000000	1.167294	7.3689e+06	-57489.1	1005.82	-29737	0.000000	0.000000	7.183574	389.363	NaN	0.000000	0.001644	0.001690	28.0814	82.6312	0.001810	45651.4	2.559106	173.719	383.32	1.166960	0.084649	0.084315	389.363	45651.4	0.078252	0.199268	1953.97	93434.7
392	2.000000	1.169335	7.3689e+06	-57489.1	1005.82	-29737	0.000000	0.000000	7.186131	401.931	NaN	0.000000	0.001639	0.001677	28.0813	85.4919	0.001755	48700.3	1.676892	173.744	398.667	1.169124	0.086690	0.086479	401.931	48700.3	0.080500	0.209402	1919.42	97233.1
392	2.000000	1.171362	7.3689e+06	-57489.1	1005.82	-29737	0.000000	0.000000	7.188967	421.574	NaN	0.000000	0.001640	0.001663	28.0816	88.3029	0.001867	47309	9.986533	166.548	420.543	1.171008	0.088717	0.088363	421.574	47309	0.082034	0.216454	1947.64	92903.8
392	2.000000	1.173378	7.3689e+06	-57489.1	1005.82	-29737	0.000000	0.000000	7.191425	432.323	NaN	0.000000	0.001619	0.001657	28.082	89.7066	0.001812	49505.3	4.080552	171.391	430.027	1.172954	0.090733	0.090309	432.323	49505.3	0.084183	0.226520	1908.54	95032.5
392	2.000000	1.175441	7.3689e+06	-57489.1	1005.82	-29737	0.000000	0.000000	7.193818	440.358	NaN	0.000000	0.001612	0.001729	28.0814	91.7007	0.001985	46204.7	0.752107	175.796	438.997	1.175146	0.092796	0.092501	440.358	46204.7	0.085648	0.233501	1885.89	87360.5
392	2.000000	1.177455	7.3689e+06	-57489.1	1005.82	-29737	0.000000	0.000000	7.196325	452.337	NaN	0.000000	0.001616	0.001625	28.0818	92.808	0.001819	51031.5	2.711585	172.703	455.924	1.177279	0.094809	0.094633	452.337	51031.5	0.088161	0.245713	1840.91	94058.2
392	2.000000	1.179435	7.3689e+06	-57489.1	1005.82	-29737	0.000000	0.000000	7.199341	477.517	NaN	0.000000	0.001636	0.001669	28.0814	95.4605	0.001854	51502.6	5.297476	170.187	479.643	1.179073	0.096790	0.096428	477.517	51502.6	0.089836	0.254010	1879.91	93363.4
392	2.000000	1.181266	7.3689e+06	-57489.1	1005.82	-29737	0.000000	0.000000	7.201919	495.652	NaN	0.000000	0.001625	0.001689	28.0814	94.084	0.001731	54366.8	-0.953252	176.003	490.82	1.181032	0.098621	0.098387	495.652	54366.8	0.091783	0.263819	1878.76	96706.2
392	2.000000	1.183449	7.3689e+06	-57489.1	1005.82	-29737	0.000000	0.000000	7.204933	515.861	NaN	0.000000	0.001655	0.001671	28.0817	97.6026	0.001675	58274.2	6.267300	169.18	519.223	1.183031	0.100804	0.100386	515.861	58274.2	0.094165	0.276051	1868.72	101334
392	2.000000	1.185357	7.3689e+06	-57489.1	1005.82	-29737	0.000000	0.000000	7.207341	528.026	NaN	0.000000	0.001616	0.001703	28.0814	100.342	0.001819	55152.6	3.236589	172.487	526.096	1.184915	0.102712	0.102269	528.026	55152.6	0.095531	0.283187	1864.58	94689.5
392	2.000000	1.187320	7.3689e+06	-57489.1	1005.82	-29737	0.000000	0.000000	7.209663	536.747	NaN	0.000000	0.001624	0.001696	28.0819	101.801	0.001818	56000	2.081360	172.811	534.447	1.187023	0.104674	0.104378	536.747	56000	0.097486	0.293544	1828.51	94433.2
392	2.000000	1.189476	7.3689e+06	-57489.1	1005.82	-29737	0.000000	0.000000	7.212586	555.362	NaN	0.000000	0.001604	0.001641	28.0814	105.039	0.001780	59000	11.776	163.731	560.438	1.189033	0.106831	0.106388	555.362	59000	0.099771	0.305872	1815.67	97466.5
392	2.000000	1.190261	7.3689e+06	-57489.1	1005.82	-29737	0.000000	0.000000	7.213190	550.975	NaN	0.000000	0.001638	0.001627	28.0817	103.556	0.001635	63317.7	2.180993	171.589	542.989	1.190059	0.107616	0.107413	550.975	63317.7	0.101090	0.313092	1759.78	103386