File: remote_trans/data/nanoindenter/0828-1/data/Data_2025-08-06,11h17m57s/2025-07-22_16-23-58_1_412.txt
2025-07-22, 16:23:58, 1
Index	Phase	Displacement	Time	Pos X	Pos Y	Pos Z	Rot A	Rot B	Piezo Z	Force A	Force B	Gripper	Voltage A	Voltage B	Temperature	Amplitude force	Amplitude pos	Stiffness	Phase shift	Phase excitation	Force A raw	Displacement raw	HMax	HMax raw	Real Force	Real Stiffness	Contact Depth	Area	Hardness	Reduced Mod.
[#]	[#]	[um]	[s]	[um]	[um]	[um]	[m°]	[m°]	[um]	[uN]	[uN]	[V]	[V]	[V]	[°C]	[uN]	[um]	[N/m]	[°]	[°]	[uN]	[um]	[um]	[um]	[uN]	[N/m]	[um]	[um^2]	[MPa]	[MPa]
412	1.000000	0.002876	7.36909e+06	-56489.1	1005.82	-29739	0.000000	0.000000	6.002788	-0.041932	NaN	0.000000	0.001708	0.001763	28.0815	0.069012	0.000978	70.5812	-159.674	-171.017	-0.057488	0.001619	-1.025654	-1.026911	-0.041932	70.5812	-1.025209	-4.954842E+13	8.462912E-16	NaN
412	1.000000	0.010853	7.36909e+06	-56489.1	1005.82	-29739	0.000000	0.000000	6.010767	0.017838	NaN	0.000000	0.001715	0.001761	28.0814	0.030264	0.001000	30.2624	55.6694	-165.463	-0.036424	0.009511	-1.017678	-1.019020	0.017838	30.2624	-1.018120	-3.977914E+13	-4.484339E-16	NaN
412	1.000000	0.018842	7.36909e+06	-56489.1	1005.82	-29739	0.000000	0.000000	6.018755	-0.007013	NaN	0.000000	0.001738	0.001740	28.0817	0.116600	0.001780	65.5092	-153.947	-164.65	0.005787	0.017544	-1.009688	-1.010987	-0.007013	65.5092	-1.009608	-3.055669E+13	2.294926E-16	NaN
412	1.000000	0.026853	7.36909e+06	-56489.1	1005.82	-29739	0.000000	0.000000	6.026767	0.015814	NaN	0.000000	0.001746	0.001771	28.0814	0.038965	0.001814	21.4849	-137.809	-162.615	-0.028999	0.025545	-1.001678	-1.002986	0.015814	21.4849	-1.002230	-2.431033E+13	-6.504974E-16	NaN
412	1.000000	0.034829	7.36909e+06	-56489.1	1005.82	-29739	0.000000	0.000000	6.034744	0.056422	NaN	0.000000	0.001759	0.001730	28.0814	0.078105	0.001893	41.2654	97.2523	-164.185	0.051702	0.033485	-0.993702	-0.995045	0.056422	41.2654	-0.994727	-1.926515E+13	-2.928708E-15	NaN
412	1.000000	0.042843	7.36909e+06	-56489.1	1005.82	-29739	0.000000	0.000000	6.042757	0.015725	NaN	0.000000	0.001732	0.001738	28.082	0.120268	0.001989	60.4539	-153.475	-167.576	0.041345	0.041472	-0.985688	-0.987059	0.015725	60.4539	-0.985883	-1.464396E+13	-1.073789E-15	NaN
412	1.000000	0.050852	7.36909e+06	-56489.1	1005.82	-29739	0.000000	0.000000	6.050763	-0.044745	NaN	0.000000	0.001729	0.001739	28.0816	0.046466	0.001947	23.8664	-144.988	-166.449	-0.115760	0.049510	-0.977679	-0.979021	-0.044745	23.8664	-0.976273	-1.086905E+13	4.116763E-15	NaN
412	1.000000	0.058843	7.36909e+06	-56489.1	1005.82	-29739	0.000000	0.000000	6.058756	-0.004586	NaN	0.000000	0.001731	0.001726	28.0816	0.098081	0.001941	50.5254	153.542	-166.211	-0.079637	0.057564	-0.969688	-0.970967	-0.004586	50.5254	-0.969620	-8.841809E+12	5.186743E-16	NaN
412	1.000000	0.066846	7.36909e+06	-56489.1	1005.82	-29739	0.000000	0.000000	6.066761	0.050071	NaN	0.000000	0.001797	0.001719	28.0815	0.111310	0.002077	53.5802	-86.2088	-166.913	0.042221	0.065597	-0.961685	-0.962934	0.050071	53.5802	-0.962386	-7.063699E+12	-7.088518E-15	NaN
412	1.000000	0.074851	7.36909e+06	-56489.1	1005.82	-29739	0.000000	0.000000	6.074765	0.016679	NaN	0.000000	0.001809	0.001733	28.0812	0.024662	0.001997	12.3478	147.671	-162.667	-0.010730	0.073523	-0.953679	-0.955008	0.016679	12.3478	-0.954692	-5.562947E+12	-2.998308E-15	NaN
412	1.000000	0.082845	7.36909e+06	-56489.1	1005.82	-29739	0.000000	0.000000	6.082758	-0.010914	NaN	0.000000	0.001745	0.001750	28.0807	0.047334	0.001969	24.0355	-168.328	-167.709	-0.081311	0.081620	-0.945685	-0.946911	-0.010914	24.0355	-0.945345	-4.161398E+12	2.622644E-15	NaN
412	1.000000	0.090865	7.36909e+06	-56489.1	1005.82	-29739	0.000000	0.000000	6.090778	-0.000374	NaN	0.000000	0.001751	0.001735	28.0805	0.005407	0.002098	2.577466	-136.899	-165.823	-0.004535	0.089527	-0.937666	-0.939004	-0.000374	2.577466	-0.937557	-3.267188E+12	1.145840E-16	NaN
412	1.000000	0.098836	7.36909e+06	-56489.1	1005.82	-29739	0.000000	0.000000	6.098748	-0.036154	NaN	0.000000	0.001738	0.001718	28.0809	0.007548	0.002096	3.601433	1.516776	-164.199	-0.095372	0.097564	-0.929694	-0.930966	-0.036154	3.601433	-0.922165	-2.025060E+12	1.785351E-14	NaN
412	1.000000	0.106853	7.36909e+06	-56489.1	1005.82	-29739	0.000000	0.000000	6.106765	-0.024524	NaN	0.000000	0.001746	0.001740	28.0806	0.132969	0.002019	65.8444	-154.693	-170.33	0.047265	0.105565	-0.921678	-0.922966	-0.024524	65.8444	-0.921399	-1.977376E+12	1.240232E-14	NaN
412	1.000000	0.114877	7.36909e+06	-56489.1	1005.82	-29739	0.000000	0.000000	6.114792	0.050125	NaN	0.000000	0.001729	0.001764	28.0804	0.027232	0.002025	13.4498	98.2952	-165.696	-0.013830	0.113534	-0.913654	-0.914997	0.050125	13.4498	-0.916449	-1.695359E+12	-2.956623E-14	NaN
412	1.000000	0.122865	7.36909e+06	-56489.1	1005.82	-29739	0.000000	0.000000	6.122776	-0.052482	NaN	0.000000	0.001735	0.001768	28.0805	0.072678	0.001981	36.6848	-35.4235	-167.319	-0.011923	0.121570	-0.905665	-0.906960	-0.052482	36.6848	-0.904593	-1.172509E+12	4.476008E-14	NaN
412	1.000000	0.130886	7.36909e+06	-56489.1	1005.82	-29739	0.000000	0.000000	6.130797	-0.060734	NaN	0.000000	0.001765	0.001732	28.0804	0.034257	0.001886	18.1654	142.224	-169.607	-0.024595	0.129587	-0.897644	-0.898943	-0.060734	18.1654	-0.895137	-8.736648E+11	6.951687E-14	NaN
412	1.000000	0.138889	7.36909e+06	-56489.1	1005.82	-29739	0.000000	0.000000	6.138800	-0.035271	NaN	0.000000	0.001761	0.001731	28.0806	0.039719	0.001909	20.8099	77.8324	-163.816	0.053180	0.137535	-0.889642	-0.890995	-0.035271	20.8099	-0.888371	-7.077690E+11	4.983350E-14	NaN
412	1.000000	0.146883	7.36909e+06	-56489.1	1005.82	-29739	0.000000	0.000000	6.146798	0.030467	NaN	0.000000	0.001742	0.001735	28.0805	0.129747	0.001872	69.3097	165.436	-163.613	-0.105004	0.145556	-0.881647	-0.882975	0.030467	69.3097	-0.881977	-5.800226E+11	-5.252805E-14	NaN
412	1.000000	0.154875	7.36909e+06	-56489.1	1005.82	-29739	0.000000	0.000000	6.154788	-0.001324	NaN	0.000000	0.001735	0.001708	28.0805	0.034957	0.001985	17.6114	41.3004	-167.595	-0.039657	0.153582	-0.873656	-0.874949	-0.001324	17.6114	-0.873599	-4.468221E+11	2.963970E-15	NaN
412	1.000000	0.162881	7.36909e+06	-56489.1	1005.82	-29739	0.000000	0.000000	6.162795	0.003742	NaN	0.000000	0.001741	0.001715	28.0805	0.087161	0.001914	45.5479	26.0802	-168.856	-0.096572	0.161568	-0.865649	-0.866963	0.003742	45.5479	-0.865711	-3.494692E+11	-1.070676E-14	NaN
412	1.000000	0.170897	7.36909e+06	-56489.1	1005.82	-29739	0.000000	0.000000	6.170813	0.054873	NaN	0.000000	0.001717	0.001699	28.0801	0.165008	0.002051	80.456	-3.018277	-164.868	0.043479	0.169589	-0.857633	-0.858942	0.054873	80.456	-0.858145	-2.760631E+11	-1.987706E-13	NaN
412	1.000000	0.178876	7.36909e+06	-56489.1	1005.82	-29739	0.000000	0.000000	6.178790	0.024079	NaN	0.000000	0.001750	0.001754	28.0804	0.009425	0.002009	4.691001	-10.0293	-164.634	0.067822	0.177592	-0.849655	-0.850939	0.024079	4.691001	-0.853505	-2.388873E+11	-1.007966E-13	NaN
412	1.000000	0.186879	7.36909e+06	-56489.1	1005.82	-29739	0.000000	0.000000	6.186793	0.005710	NaN	0.000000	0.001808	0.001696	28.08	0.168299	0.001881	89.4524	-108.167	-163.783	0.047431	0.185547	-0.841651	-0.842984	0.005710	89.4524	-0.841699	-1.653143E+11	-3.453776E-14	NaN
412	1.000000	0.194914	7.36909e+06	-56489.1	1005.82	-29739	0.000000	0.000000	6.194828	0.030579	NaN	0.000000	0.001733	0.001706	28.0806	0.083090	0.002014	41.2542	-137.711	-164.107	-0.044677	0.193580	-0.833617	-0.834951	0.030579	41.2542	-0.834173	-1.307175E+11	-2.339312E-13	NaN
412	1.000000	0.202888	7.36909e+06	-56489.1	1005.82	-29739	0.000000	0.000000	6.202801	0.003322	NaN	0.000000	0.001765	0.001742	28.0799	0.111301	0.001883	59.1015	18.8321	-168.672	0.047918	0.201565	-0.825643	-0.826965	0.003322	59.1015	-0.825685	-1.002978E+11	-3.312235E-14	NaN
412	1.000000	0.210878	7.36909e+06	-56489.1	1005.82	-29739	0.000000	0.000000	6.210793	0.041430	NaN	0.000000	0.001729	0.001711	28.0804	0.066581	0.001932	34.4569	127.692	-167.095	0.001746	0.209608	-0.817653	-0.818923	0.041430	34.4569	-0.818555	-8.028056E+10	-5.160621E-13	NaN
412	1.000000	0.218906	7.36909e+06	-56489.1	1005.82	-29739	0.000000	0.000000	6.218824	0.114704	NaN	0.000000	0.001773	0.001686	28.0818	0.094621	0.002031	46.5963	131.858	-165.607	0.006902	0.217602	-0.809624	-0.810928	0.114704	46.5963	-0.811470	-6.434581E+10	-1.782621E-12	NaN
412	1.000000	0.226895	7.36909e+06	-56489.1	1005.82	-29739	0.000000	0.000000	6.226809	0.026236	NaN	0.000000	0.001767	0.001710	28.0813	0.054982	0.001904	28.8836	-98.9463	-166.548	0.092515	0.225585	-0.801636	-0.802946	0.026236	28.8836	-0.802317	-4.834077E+10	-5.427353E-13	NaN
412	1.000000	0.234908	7.36909e+06	-56489.1	1005.82	-29739	0.000000	0.000000	6.234822	0.016767	NaN	0.000000	0.001716	0.001729	28.0814	0.075615	0.002052	36.8521	-155.301	-165.175	-0.009625	0.233606	-0.793622	-0.794925	0.016767	36.8521	-0.793964	-3.723148E+10	-4.503443E-13	NaN
412	1.000000	0.242923	7.36909e+06	-56489.1	1005.82	-29739	0.000000	0.000000	6.242834	-0.040099	NaN	0.000000	0.001708	0.001707	28.0814	0.073702	0.001926	38.2733	79.6095	-164.082	-0.058463	0.241598	-0.785608	-0.786932	-0.040099	38.2733	-0.784822	-2.797365E+10	1.433460E-12	NaN
412	1.000000	0.250934	7.36909e+06	-56489.1	1005.82	-29739	0.000000	0.000000	6.250849	0.051389	NaN	0.000000	0.001770	0.001729	28.0817	0.102201	0.001924	53.1183	-140.431	-166.401	0.082943	0.249595	-0.777597	-0.778936	0.051389	53.1183	-0.778322	-2.282612E+10	-2.251331E-12	NaN
412	1.000000	0.258918	7.36909e+06	-56489.1	1005.82	-29739	0.000000	0.000000	6.258831	-0.004318	NaN	0.000000	0.001761	0.001707	28.0816	0.124865	0.002062	60.5441	-142.739	-165.293	0.035151	0.257612	-0.769613	-0.770919	-0.004318	60.5441	-0.769559	-1.735053E+10	2.488629E-13	NaN
412	1.000000	0.266932	7.36909e+06	-56489.1	1005.82	-29739	0.000000	0.000000	6.266845	-0.005339	NaN	0.000000	0.001745	0.001675	28.0817	0.075475	0.001922	39.2632	119.469	-167.663	-0.003643	0.265617	-0.761599	-0.762913	-0.005339	39.2632	-0.761497	-1.347922E+10	3.961251E-13	NaN
412	1.000000	0.274912	7.36909e+06	-56489.1	1005.82	-29739	0.000000	0.000000	6.274826	0.012251	NaN	0.000000	0.001767	0.001699	28.0818	0.109063	0.001842	59.1949	-61.6923	-166.97	0.042954	0.273601	-0.753619	-0.754929	0.012251	59.1949	-0.753774	-1.058238E+10	-1.157660E-12	NaN
412	1.000000	0.282932	7.36909e+06	-56489.1	1005.82	-29739	0.000000	0.000000	6.282847	0.043586	NaN	0.000000	0.001774	0.001680	28.0816	0.096282	0.001987	48.4534	42.1264	-167.257	-0.036472	0.281638	-0.745599	-0.746892	0.043586	48.4534	-0.746273	-8.365372E+9	-5.210240E-12	NaN
412	1.000000	0.290930	7.36909e+06	-56489.1	1005.82	-29739	0.000000	0.000000	6.290845	0.037816	NaN	0.000000	0.001797	0.001714	28.0818	0.040010	0.001954	20.471	-161.484	-165.992	0.009866	0.289610	-0.737601	-0.738921	0.037816	20.471	-0.738986	-6.656501E+9	-5.681031E-12	NaN
412	1.000000	0.298944	7.36909e+06	-56489.1	1005.82	-29739	0.000000	0.000000	6.298857	-0.010334	NaN	0.000000	0.001798	0.001734	28.0816	0.039416	0.001999	19.7196	-118.303	-165.648	0.027256	0.297670	-0.729587	-0.730861	-0.010334	19.7196	-0.729194	-4.895745E+9	2.110758E-12	NaN
412	1.000000	0.306941	7.36909e+06	-56489.1	1005.82	-29739	0.000000	0.000000	6.306855	0.008338	NaN	0.000000	0.001784	0.001727	28.0817	0.065414	0.002014	32.4783	165.682	-168.632	-0.026764	0.305676	-0.721590	-0.722854	0.008338	32.4783	-0.721782	-3.879510E+9	-2.149297E-12	NaN
412	1.000000	0.314944	7.36909e+06	-56489.1	1005.82	-29739	0.000000	0.000000	6.314858	0.011178	NaN	0.000000	0.001766	0.001698	28.0817	0.049937	0.002071	24.107	130.02	-170.648	-0.028630	0.313680	-0.713587	-0.714851	0.011178	24.107	-0.713934	-3.032036E+9	-3.686679E-12	NaN
412	1.000000	0.322971	7.36909e+06	-56489.1	1005.82	-29739	0.000000	0.000000	6.322883	-0.017899	NaN	0.000000	0.001743	0.001724	28.0817	0.083584	0.001993	41.9472	-85.9135	-165.713	-0.029541	0.321678	-0.705560	-0.706853	-0.017899	41.9472	-0.705240	-2.307169E+9	7.758169E-12	NaN
412	1.000000	0.330950	7.36909e+06	-56489.1	1005.82	-29739	0.000000	0.000000	6.330865	0.047418	NaN	0.000000	0.001784	0.001737	28.0818	0.030786	0.002030	15.1622	-177.597	-165.544	0.038959	0.329655	-0.697580	-0.698876	0.047418	15.1622	-0.699926	-1.952179E+9	-2.428998E-11	NaN
412	1.000000	0.338974	7.36909e+06	-56489.1	1005.82	-29739	0.000000	0.000000	6.338888	0.010401	NaN	0.000000	0.001767	0.001755	28.0815	0.075723	0.002045	37.0323	32.6142	-166.272	0.060812	0.337642	-0.689557	-0.690889	0.010401	37.0323	-0.689767	-1.418196E+9	-7.334193E-12	NaN
412	1.000000	0.346965	7.36909e+06	-56489.1	1005.82	-29739	0.000000	0.000000	6.346878	-0.001533	NaN	0.000000	0.001800	0.001712	28.0813	0.125775	0.001939	64.8664	52.2542	-164.043	0.019958	0.345602	-0.681566	-0.682929	-0.001533	64.8664	-0.681548	-1.094909E+9	1.400347E-12	NaN
412	1.000000	0.354972	7.36909e+06	-56489.1	1005.82	-29739	0.000000	0.000000	6.354886	0.016190	NaN	0.000000	0.001761	0.001740	28.0803	0.094362	0.002012	46.9093	86.2822	-167.392	-0.020166	0.353687	-0.673559	-0.674843	0.016190	46.9093	-0.673817	-8.582831E+8	-1.886287E-11	NaN
412	1.000000	0.362967	7.36909e+06	-56489.1	1005.82	-29739	0.000000	0.000000	6.362879	-0.036213	NaN	0.000000	0.001795	0.001716	28.0802	0.078096	0.001989	39.2714	83.1047	-167.141	0.010343	0.361618	-0.665563	-0.666912	-0.036213	39.2714	-0.664872	-6.474182E+8	5.593374E-11	NaN
412	1.000000	0.370976	7.36909e+06	-56489.1	1005.82	-29739	0.000000	0.000000	6.370890	0.014326	NaN	0.000000	0.001785	0.001734	28.0806	0.049394	0.001966	25.1261	-8.266671	-165.467	0.058085	0.369627	-0.657554	-0.658903	0.014326	25.1261	-0.657982	-5.209864E+8	-2.749848E-11	NaN
412	1.000000	0.378989	7.36909e+06	-56489.1	1005.82	-29739	0.000000	0.000000	6.378905	0.053913	NaN	0.000000	0.001797	0.001647	28.0802	0.118076	0.002004	58.9301	-104.076	-169.003	0.055527	0.377695	-0.649541	-0.650836	0.053913	58.9301	-0.650227	-4.079015E+8	-1.321704E-10	NaN
412	1.000000	0.386986	7.36909e+06	-56489.1	1005.82	-29739	0.000000	0.000000	6.386900	0.038372	NaN	0.000000	0.001788	0.001652	28.0806	0.035911	0.002067	17.3729	-82.7003	-166.507	0.113413	0.385635	-0.641545	-0.642895	0.038372	17.3729	-0.643202	-3.267474E+8	-1.174363E-10	NaN
412	1.000000	0.394986	7.36909e+06	-56489.1	1005.82	-29739	0.000000	0.000000	6.394905	0.139162	NaN	0.000000	0.001758	0.001631	28.0804	0.079124	0.002023	39.1069	-66.7954	-166.558	0.108913	0.393645	-0.633545	-0.634885	0.139162	39.1069	-0.636214	-2.620173E+8	-5.311167E-10	NaN
412	1.000000	0.402959	7.36909e+06	-56489.1	1005.82	-29739	0.000000	0.000000	6.402870	-0.046155	NaN	0.000000	0.001797	0.001663	28.0804	0.042941	0.002060	20.8404	29.304	-164.966	0.027676	0.401683	-0.625572	-0.626848	-0.046155	20.8404	-0.623911	-1.775755E+8	2.599200E-10	NaN
412	1.000000	0.410982	7.36909e+06	-56489.1	1005.82	-29739	0.000000	0.000000	6.410896	0.012658	NaN	0.000000	0.001815	0.001647	28.0808	0.061730	0.002068	29.8543	-119.09	-168.06	0.016470	0.409770	-0.617549	-0.618761	0.012658	29.8543	-0.617867	-1.466581E+8	-8.630813E-11	NaN
412	1.000000	0.418979	7.36909e+06	-56489.1	1005.82	-29739	0.000000	0.000000	6.418889	-0.097121	NaN	0.000000	0.001785	0.001675	28.0806	0.049609	0.002018	24.5799	-61.6053	-165.71	-0.016749	0.417676	-0.609551	-0.610854	-0.097121	24.5799	-0.606588	-1.026029E+8	9.465732E-10	NaN
412	1.000000	0.427007	7.36909e+06	-56489.1	1005.82	-29739	0.000000	0.000000	6.426923	0.064581	NaN	0.000000	0.001782	0.001670	28.0804	0.101540	0.002084	48.7129	-95.9645	-166.83	0.095674	0.425666	-0.601524	-0.602865	0.064581	48.7129	-0.602518	-9.018529E+7	-7.160899E-10	NaN
412	1.000000	0.435020	7.36909e+06	-56489.1	1005.82	-29739	0.000000	0.000000	6.434933	-0.013309	NaN	0.000000	0.001774	0.001699	28.0802	0.081388	0.002071	39.2956	-110.202	-164.433	0.036868	0.433651	-0.593510	-0.594880	-0.013309	39.2956	-0.593256	-6.722810E+7	1.979632E-10	NaN
412	1.000000	0.442998	7.36909e+06	-56489.1	1005.82	-29739	0.000000	0.000000	6.442913	0.030212	NaN	0.000000	0.001791	0.001690	28.0804	0.115552	0.001925	60.0324	-124.695	-165.719	0.045890	0.441672	-0.585533	-0.586859	0.030212	60.0324	-0.585910	-5.324345E+7	-5.674234E-10	NaN
412	1.000000	0.450975	7.36909e+06	-56489.1	1005.82	-29739	0.000000	0.000000	6.450889	0.020746	NaN	0.000000	0.001803	0.001685	28.0805	0.051611	0.001888	27.3344	168.641	-165.468	-0.047710	0.449658	-0.577556	-0.578873	0.020746	27.3344	-0.578125	-4.157668E+7	-4.989896E-10	NaN
412	1.000000	0.459019	7.36909e+06	-56489.1	1005.82	-29739	0.000000	0.000000	6.458930	-0.045806	NaN	0.000000	0.001807	0.001669	28.0802	0.094691	0.002011	47.0825	53.4319	-167.039	-0.046454	0.457697	-0.569512	-0.570834	-0.045806	47.0825	-0.568782	-3.088900E+7	1.482929E-9	NaN
412	1.000000	0.467021	7.36909e+06	-56489.1	1005.82	-29739	0.000000	0.000000	6.466934	-0.003673	NaN	0.000000	0.001781	0.001653	28.0805	0.064744	0.001984	32.6312	69.5383	-164.348	0.046119	0.465725	-0.561509	-0.562805	-0.003673	32.6312	-0.561425	-2.443936E+7	1.503065E-10	NaN
412	1.000000	0.475016	7.36909e+06	-56489.1	1005.82	-29739	0.000000	0.000000	6.474927	-0.055723	NaN	0.000000	0.001724	0.001687	28.0805	0.098727	0.001956	50.4655	152.957	-163.954	0.009666	0.473745	-0.553515	-0.554786	-0.055723	50.4655	-0.552686	-1.849943E+7	3.012149E-9	NaN
412	1.000000	0.483004	7.36909e+06	-56489.1	1005.82	-29739	0.000000	0.000000	6.482918	0.016762	NaN	0.000000	0.001680	0.001682	28.0807	0.057848	0.001972	29.3362	127.535	-167.572	0.042414	0.481661	-0.545526	-0.546869	0.016762	29.3362	-0.545955	-1.492501E+7	-1.123070E-9	NaN
412	1.000000	0.491010	7.36909e+06	-56489.1	1005.82	-29739	0.000000	0.000000	6.490924	0.004116	NaN	0.000000	0.001707	0.001695	28.0816	0.073216	0.002000	36.603	-79.879	-170.03	0.032051	0.489710	-0.537520	-0.538820	0.004116	36.603	-0.537605	-1.143224E+7	-3.600079E-10	NaN
412	1.000000	0.499042	7.36909e+06	-56489.1	1005.82	-29739	0.000000	0.000000	6.498954	-0.024659	NaN	0.000000	0.001673	0.001734	28.0815	0.156652	0.001974	79.3496	-23.0471	-165.75	-0.029977	0.497718	-0.529489	-0.530813	-0.024659	79.3496	-0.529256	-8.75461e+06	2.816665E-9	NaN
412	1.000000	0.507009	7.36909e+06	-56489.1	1005.82	-29739	0.000000	0.000000	6.506922	0.008046	NaN	0.000000	0.001684	0.001680	28.082	0.089509	0.001997	44.8244	-177.877	-164.234	0.037256	0.505690	-0.521522	-0.522840	0.008046	44.8244	-0.521657	-6.86492e+06	-1.172052E-9	NaN
412	1.000000	0.515013	7.36909e+06	-56489.1	1005.82	-29739	0.000000	0.000000	6.514926	-0.022890	NaN	0.000000	0.001686	0.001676	28.0815	0.044126	0.002050	21.5289	-107.995	-167.343	-0.024944	0.513760	-0.513517	-0.514771	-0.022890	21.5289	-0.512720	-5.15576e+06	4.439780E-9	NaN
412	1.000000	0.523046	7.36909e+06	-56489.1	1005.82	-29739	0.000000	0.000000	6.522958	-0.028814	NaN	0.000000	0.001691	0.001701	28.0818	0.057849	0.001994	29.0116	91.7523	-161.827	-0.089930	0.521728	-0.505484	-0.506803	-0.028814	29.0116	-0.504739	-3.99127e+06	7.219154E-9	NaN
412	1.000000	0.531057	7.36909e+06	-56489.1	1005.82	-29739	0.000000	0.000000	6.530973	0.079352	NaN	0.000000	0.001680	0.001701	28.0816	0.114304	0.001861	61.4284	-151.627	-168.146	0.038433	0.529734	-0.497474	-0.498796	0.079352	61.4284	-0.498443	-3.26057e+06	-2.433694E-8	NaN
412	1.000000	0.539060	7.36909e+06	-56489.1	1005.82	-29739	0.000000	0.000000	6.538972	-0.018006	NaN	0.000000	0.001683	0.001673	28.0815	0.035451	0.002047	17.3158	75.4115	-165.41	-0.080109	0.537712	-0.489471	-0.490819	-0.018006	17.3158	-0.488691	-2.38286e+06	7.556502E-9	NaN
412	1.000000	0.547054	7.36909e+06	-56489.1	1005.82	-29739	0.000000	0.000000	6.546968	0.026150	NaN	0.000000	0.001674	0.001661	28.0816	0.068202	0.002031	33.5721	97.4504	-163.672	-0.017815	0.545762	-0.481477	-0.482768	0.026150	33.5721	-0.482061	-1.92475e+06	-1.358620E-8	NaN
412	1.000000	0.555067	7.36909e+06	-56489.1	1005.82	-29739	0.000000	0.000000	6.554980	-0.006219	NaN	0.000000	0.001673	0.001648	28.0815	0.105218	0.001981	53.122	138.525	-166.529	-0.041931	0.553719	-0.473464	-0.474812	-0.006219	53.122	-0.473376	-1.45458e+06	4.275430E-9	NaN
412	1.000000	0.563059	7.36909e+06	-56489.1	1005.82	-29739	0.000000	0.000000	6.562971	-0.028337	NaN	0.000000	0.001663	0.001666	28.0817	0.096783	0.001972	49.0745	94.2898	-166.732	-0.054766	0.561710	-0.465471	-0.466821	-0.028337	49.0745	-0.465038	-1.11119e+06	2.550191E-8	NaN
412	1.000000	0.571042	7.36909e+06	-56489.1	1005.82	-29739	0.000000	0.000000	6.570952	-0.073456	NaN	0.000000	0.001674	0.001676	28.0815	0.062109	0.002057	30.1977	-148.453	-167.228	0.010679	0.569732	-0.457489	-0.458799	-0.073456	30.1977	-0.455665	-820474	8.952891E-8	NaN
412	1.000000	0.579065	7.36909e+06	-56489.1	1005.82	-29739	0.000000	0.000000	6.578979	0.023078	NaN	0.000000	0.001680	0.001643	28.0816	0.104225	0.001923	54.1902	102.325	-168.479	-0.102339	0.577747	-0.449466	-0.450783	0.023078	54.1902	-0.449785	-678136	-3.403130E-8	NaN
412	1.000000	0.587060	7.36909e+06	-56489.1	1005.82	-29739	0.000000	0.000000	6.586976	0.068517	NaN	0.000000	0.001686	0.001711	28.0813	0.097610	0.001936	50.4186	-10.591	-166.557	0.069792	0.585744	-0.441471	-0.442786	0.068517	50.4186	-0.442490	-535176	-1.280271E-7	NaN
412	1.000000	0.595036	7.36909e+06	-56489.1	1005.82	-29739	0.000000	0.000000	6.594949	0.005836	NaN	0.000000	0.001685	0.001673	28.0814	0.065154	0.001961	33.227	-55.764	-165.344	0.005431	0.593772	-0.433495	-0.434758	0.005836	33.227	-0.433626	-401182	-1.454657E-8	NaN
412	1.000000	0.603051	7.36909e+06	-56489.1	1005.82	-29739	0.000000	0.000000	6.602965	0.024790	NaN	0.000000	0.001660	0.001697	28.0823	0.143126	0.001967	72.7697	123.905	-165.836	0.071156	0.601794	-0.425480	-0.426737	0.024790	72.7697	-0.425735	-310239	-7.990495E-8	NaN
412	1.000000	0.611090	7.36909e+06	-56489.1	1005.82	-29739	0.000000	0.000000	6.611001	-0.039602	NaN	0.000000	0.001692	0.001656	28.0814	0.078398	0.002034	38.5405	-168.046	-166.296	0.024986	0.609748	-0.417441	-0.418783	-0.039602	38.5405	-0.416670	-230766	1.716116E-7	NaN
412	1.000000	0.619058	7.36909e+06	-56489.1	1005.82	-29739	0.000000	0.000000	6.618971	-0.003679	NaN	0.000000	0.001701	0.001686	28.0818	0.085756	0.001972	43.48	-154.975	-169.457	-0.015629	0.617765	-0.409473	-0.410766	-0.003679	43.48	-0.409410	-181972	2.021796E-8	NaN
412	1.000000	0.627055	7.36909e+06	-56489.1	1005.82	-29739	0.000000	0.000000	6.626967	-0.031837	NaN	0.000000	0.001701	0.001704	28.0803	0.013856	0.002064	6.712248	-155.018	-169.078	-0.049178	0.625777	-0.401475	-0.402754	-0.031837	6.712248	-0.397918	-124823	2.550603E-7	NaN
412	1.000000	0.635087	7.36909e+06	-56489.1	1005.82	-29739	0.000000	0.000000	6.635001	0.015288	NaN	0.000000	0.001686	0.001675	28.0804	0.104728	0.002070	50.5913	-139.74	-166.666	0.041880	0.633790	-0.393444	-0.394741	0.015288	50.5913	-0.393671	-108553	-1.408354E-7	NaN
412	1.000000	0.643114	7.36909e+06	-56489.1	1005.82	-29739	0.000000	0.000000	6.643027	-0.005055	NaN	0.000000	0.001668	0.001653	28.0802	0.080060	0.001901	42.1062	-146.081	-165.937	-0.040865	0.641856	-0.385416	-0.386674	-0.005055	42.1062	-0.385326	-82463.1	6.129444E-8	NaN
412	1.000000	0.651085	7.36909e+06	-56489.1	1005.82	-29739	0.000000	0.000000	6.650999	0.027712	NaN	0.000000	0.001687	0.001701	28.0801	0.070969	0.001903	37.2842	114.113	-165.695	-0.020628	0.649790	-0.377446	-0.378741	0.027712	37.2842	-0.378003	-64747.8	-4.280051E-7	NaN
412	1.000000	0.659092	7.36909e+06	-56489.1	1005.82	-29739	0.000000	0.000000	6.659006	0.033886	NaN	0.000000	0.001675	0.001645	28.0803	0.066985	0.002116	31.6574	-121.101	-166.62	0.020524	0.657800	-0.369439	-0.370731	0.033886	31.6574	-0.370242	-50073.8	-6.767116E-7	NaN
412	1.000000	0.667098	7.36909e+06	-56489.1	1005.82	-29739	0.000000	0.000000	6.667014	0.069380	NaN	0.000000	0.001739	0.001649	28.0804	0.028143	0.002050	13.7292	34.6351	-166.051	0.043687	0.665716	-0.361433	-0.362814	0.069380	13.7292	-0.365223	-42390.7	-1.636690E-6	NaN
412	1.000000	0.675080	7.36909e+06	-56489.1	1005.82	-29739	0.000000	0.000000	6.674996	0.065548	NaN	0.000000	0.001686	0.001687	28.0806	0.078440	0.001931	40.6156	-136.455	-165.441	-0.025433	0.673802	-0.353451	-0.354728	0.065548	40.6156	-0.354661	-29825.5	-2.197730E-6	NaN
412	1.000000	0.683081	7.36909e+06	-56489.1	1005.82	-29739	0.000000	0.000000	6.682997	0.067903	NaN	0.000000	0.001675	0.001666	28.0804	0.053308	0.001868	28.535	-144.452	-165.78	0.031757	0.681766	-0.345449	-0.346765	0.067903	28.535	-0.347234	-23272.1	-2.917791E-6	NaN
412	1.000000	0.691108	7.36909e+06	-56489.1	1005.82	-29739	0.000000	0.000000	6.691022	0.000417	NaN	0.000000	0.001711	0.001664	28.0803	0.160914	0.002079	77.3963	-157.23	-168.242	0.034517	0.689828	-0.337422	-0.338702	0.000417	77.3963	-0.337426	-16750.1	-2.491309E-8	NaN
412	1.000000	0.699110	7.36909e+06	-56489.1	1005.82	-29739	0.000000	0.000000	6.699022	-0.024563	NaN	0.000000	0.001716	0.001686	28.0805	0.077368	0.001922	40.2444	-42.4066	-168.714	-0.011062	0.697778	-0.329421	-0.330752	-0.024563	40.2444	-0.328963	-12596.9	1.949943E-6	NaN
412	1.000000	0.707125	7.36909e+06	-56489.1	1005.82	-29739	0.000000	0.000000	6.707041	0.063622	NaN	0.000000	0.001733	0.001648	28.0802	0.019601	0.001989	9.855988	-165.416	-164.963	-0.022472	0.705799	-0.321405	-0.322732	0.063622	9.855988	-0.326247	-11493.1	-5.535692E-6	NaN
412	1.000000	0.715110	7.36909e+06	-56489.1	1005.82	-29739	0.000000	0.000000	6.715023	-0.001691	NaN	0.000000	0.001712	0.001732	28.0804	0.009340	0.001919	4.866708	123.046	-167.03	0.012675	0.713829	-0.313421	-0.314701	-0.001691	4.866708	-0.313160	-7375.36	2.293018E-7	NaN
412	1.000000	0.723127	7.36909e+06	-56489.1	1005.82	-29739	0.000000	0.000000	6.723041	0.018023	NaN	0.000000	0.001702	0.001683	28.0803	0.061384	0.002053	29.904	31.1579	-164.929	0.008199	0.721820	-0.305404	-0.306710	0.018023	29.904	-0.305856	-5749.78	-3.134500E-6	NaN
412	1.000000	0.731111	7.36909e+06	-56489.1	1005.82	-29739	0.000000	0.000000	6.731026	0.053440	NaN	0.000000	0.001708	0.001653	28.0805	0.139580	0.002004	69.6451	-62.9847	-163.678	0.040137	0.729793	-0.297420	-0.298738	0.053440	69.6451	-0.297995	-4393.16	-1.216429E-5	NaN
412	1.000000	0.739136	7.36909e+06	-56489.1	1005.82	-29739	0.000000	0.000000	6.739048	-0.010166	NaN	0.000000	0.001696	0.001696	28.0804	0.057087	0.002066	27.6305	-90.223	-166.172	0.064592	0.737827	-0.289395	-0.290703	-0.010166	27.6305	-0.289119	-3236.69	3.140714E-6	NaN
412	1.000000	0.747150	7.36909e+06	-56489.1	1005.82	-29739	0.000000	0.000000	6.747062	-0.019904	NaN	0.000000	0.001704	0.001721	28.0802	0.067469	0.001934	34.8915	-86.4164	-166.028	-0.083084	0.745842	-0.281381	-0.282689	-0.019904	34.8915	-0.280953	-2439.74	8.158422E-6	NaN
412	1.000000	0.755135	7.36909e+06	-56489.1	1005.82	-29739	0.000000	0.000000	6.755050	0.038990	NaN	0.000000	0.001704	0.001706	28.0802	0.090411	0.002051	44.0896	-154.083	-166.241	0.001632	0.753807	-0.273396	-0.274723	0.038990	44.0896	-0.274059	-1919.32	-2.031457E-5	NaN
412	1.000000	0.763136	7.36909e+06	-56489.1	1005.82	-29739	0.000000	0.000000	6.763049	-0.014732	NaN	0.000000	0.001661	0.001717	28.0815	0.093844	0.001967	47.6995	-150.247	-164.76	0.000201	0.761787	-0.265395	-0.266743	-0.014732	47.6995	-0.265163	-1405.64	1.048037E-5	NaN
412	1.000000	0.771163	7.36909e+06	-56489.1	1005.82	-29739	0.000000	0.000000	6.771078	0.056041	NaN	0.000000	0.001671	0.001671	28.0816	0.099988	0.002001	49.9672	98.3573	-169.344	0.089645	0.769852	-0.257368	-0.258679	0.056041	49.9672	-0.258209	-1100.13	-5.094051E-5	NaN
412	1.000000	0.779127	7.36909e+06	-56489.1	1005.82	-29739	0.000000	0.000000	6.779043	0.060951	NaN	0.000000	0.001698	0.001717	28.0816	0.117194	0.001869	62.6893	130.095	-164.48	-0.067125	0.777768	-0.249403	-0.250763	0.060951	62.6893	-0.250132	-826.067	-7.378503E-5	NaN
412	1.000000	0.787125	7.36909e+06	-56489.1	1005.82	-29739	0.000000	0.000000	6.787039	0.010384	NaN	0.000000	0.001718	0.001701	28.0815	0.076031	0.002006	37.9077	-144.382	-162.648	0.056927	0.785867	-0.241406	-0.242664	0.010384	37.9077	-0.241611	-609.112	-1.704777E-5	NaN
412	1.000000	0.795161	7.36909e+06	-56489.1	1005.82	-29739	0.000000	0.000000	6.795073	-0.039675	NaN	0.000000	0.001716	0.001695	28.0816	0.046064	0.002055	22.4112	168.739	-165.611	0.017761	0.793880	-0.233369	-0.234651	-0.039675	22.4112	-0.232042	-431.24	9.200240E-5	NaN
412	1.000000	0.803160	7.36909e+06	-56489.1	1005.82	-29739	0.000000	0.000000	6.803071	-0.068604	NaN	0.000000	0.001727	0.001705	28.0815	0.018178	0.002050	8.866132	86.3021	-164.246	-0.094856	0.801805	-0.225371	-0.226726	-0.068604	8.866132	-0.219567	-273.375	0.000251	NaN
412	1.000000	0.811164	7.36909e+06	-56489.1	1005.82	-29739	0.000000	0.000000	6.811076	-0.023230	NaN	0.000000	0.001721	0.001710	28.0814	0.096098	0.001997	48.1131	-68.3282	-166.665	-0.005540	0.809886	-0.217367	-0.218644	-0.023230	48.1131	-0.217005	-248.726	9.339651E-5	NaN
412	1.000000	0.819162	7.36909e+06	-56489.1	1005.82	-29739	0.000000	0.000000	6.819076	0.005655	NaN	0.000000	0.001691	0.001691	28.0817	0.034609	0.001996	17.3396	-72.8487	-164.338	-0.051173	0.817863	-0.209368	-0.210668	0.005655	17.3396	-0.209613	-189.037	-2.991514E-5	NaN
412	1.000000	0.827181	7.36909e+06	-56489.1	1005.82	-29739	0.000000	0.000000	6.827096	0.029991	NaN	0.000000	0.001723	0.001681	28.0817	0.097932	0.001952	50.162	23.3738	-166.841	0.046055	0.825810	-0.201349	-0.202721	0.029991	50.162	-0.201798	-140.995	-0.000213	NaN
412	1.000000	0.835175	7.36909e+06	-56489.1	1005.82	-29739	0.000000	0.000000	6.835091	0.061384	NaN	0.000000	0.001722	0.001708	28.0813	0.030109	0.002071	14.5352	121.504	-167.663	0.132818	0.833838	-0.193355	-0.194693	0.061384	14.5352	-0.196523	-115.45	-0.000532	NaN
412	1.000000	0.843159	7.36909e+06	-56489.1	1005.82	-29739	0.000000	0.000000	6.843073	0.018715	NaN	0.000000	0.001713	0.001686	28.0816	0.043630	0.002033	21.4581	35.4068	-167.388	-0.007724	0.841858	-0.185371	-0.186672	0.018715	21.4581	-0.186025	-77.1613	-0.000243	NaN
412	1.000000	0.851193	7.36909e+06	-56489.1	1005.82	-29739	0.000000	0.000000	6.851109	0.051443	NaN	0.000000	0.001711	0.001699	28.0814	0.033232	0.002029	16.3768	67.5462	-165.722	0.042522	0.849874	-0.177337	-0.178656	0.051443	16.3768	-0.179693	-60.29	-0.000853	NaN
412	1.000000	0.859176	7.36909e+06	-56489.1	1005.82	-29739	0.000000	0.000000	6.859093	0.081182	NaN	0.000000	0.001705	0.001713	28.0812	0.058944	0.001910	30.8572	-1.590241	-164.23	0.092552	0.857881	-0.169354	-0.170650	0.081182	30.8572	-0.171327	-43.3144	-0.001874	NaN
412	1.000000	0.867197	7.36909e+06	-56489.1	1005.82	-29739	0.000000	0.000000	6.867111	0.014479	NaN	0.000000	0.001700	0.001695	28.0815	0.058295	0.002079	28.0339	-172.891	-167.326	0.008115	0.865870	-0.161333	-0.162660	0.014479	28.0339	-0.161721	-29.4104	-0.000492	NaN
412	1.000000	0.875195	7.36909e+06	-56489.1	1005.82	-29739	0.000000	0.000000	6.875111	0.066146	NaN	0.000000	0.001637	0.001688	28.0812	0.052220	0.001996	26.1679	74.3398	-164.981	0.073964	0.873893	-0.153335	-0.154638	0.066146	26.1679	-0.155231	-22.5288	-0.002936	NaN
412	1.000000	0.883192	7.36909e+06	-56489.1	1005.82	-29739	0.000000	0.000000	6.883107	0.037836	NaN	0.000000	0.001654	0.001694	28.0814	0.069685	0.001905	36.5767	104.207	-166.46	-0.005907	0.881845	-0.145338	-0.146686	0.037836	36.5767	-0.146114	-15.3725	-0.002461	NaN
412	1.000000	0.891198	7.36909e+06	-56489.1	1005.82	-29739	0.000000	0.000000	6.891115	0.075517	NaN	0.000000	0.001670	0.001711	28.0812	0.015622	0.001933	8.081515	-23.2275	-167.378	-0.116545	0.889861	-0.137332	-0.138670	0.075517	8.081515	-0.144340	-14.2546	-0.005298	NaN
412	1.000000	0.899208	7.36909e+06	-56489.1	1005.82	-29739	0.000000	0.000000	6.899122	0.009889	NaN	0.000000	0.001659	0.001708	28.0801	0.100577	0.002058	48.8735	128.147	-167.901	0.021929	0.897888	-0.129322	-0.130643	0.009889	48.8735	-0.129474	-7.443627	-0.001329	NaN
412	1.000000	0.907165	7.36909e+06	-56489.1	1005.82	-29739	0.000000	0.000000	6.907079	0.010174	NaN	0.000000	0.001666	0.001677	28.0803	0.105999	0.002046	51.7982	136.879	-165.937	-0.010761	0.905921	-0.121366	-0.122610	0.010174	51.7982	-0.121513	-5.182300	-0.001963	NaN
412	1.000000	0.915187	7.36909e+06	-56489.1	1005.82	-29739	0.000000	0.000000	6.915099	-0.010175	NaN	0.000000	0.001656	0.001692	28.0801	0.025950	0.002033	12.7651	-121.491	-168.275	-0.076855	0.913862	-0.113344	-0.114669	-0.010175	12.7651	-0.112746	-3.430957	0.002966	NaN
412	1.000000	0.923207	7.36909e+06	-56489.1	1005.82	-29739	0.000000	0.000000	6.923122	0.058228	NaN	0.000000	0.001642	0.001683	28.0802	0.055269	0.002045	27.0243	77.6216	-164.046	0.027860	0.921916	-0.105324	-0.106615	0.058228	27.0243	-0.106940	-2.587482	-0.022504	NaN
412	1.000000	0.931175	7.36909e+06	-56489.1	1005.82	-29739	0.000000	0.000000	6.931087	-0.025853	NaN	0.000000	0.001682	0.001683	28.08	0.139524	0.001983	70.371	-0.592025	-164.381	0.027678	0.929905	-0.097356	-0.098626	-0.025853	70.371	-0.097080	-1.572323	0.016443	NaN
412	1.000000	0.939191	7.36909e+06	-56489.1	1005.82	-29739	0.000000	0.000000	6.939103	-0.024670	NaN	0.000000	0.001686	0.001680	28.0801	0.024862	0.001958	12.6949	-151.222	-166.854	-0.019355	0.937901	-0.089340	-0.090630	-0.024670	12.6949	-0.087882	-0.963401	0.025607	NaN
412	1.000000	0.947206	7.36909e+06	-56489.1	1005.82	-29739	0.000000	0.000000	6.947119	0.008169	NaN	0.000000	0.001656	0.001724	28.08	0.078179	0.002086	37.4735	152.024	-166.882	-0.049327	0.945896	-0.081325	-0.082635	0.008169	37.4735	-0.081488	-0.674091	-0.012118	NaN
412	1.000000	0.955232	7.36909e+06	-56489.1	1005.82	-29739	0.000000	0.000000	6.955145	0.004056	NaN	0.000000	0.001677	0.001686	28.08	0.031708	0.002129	14.8966	104.015	-163.917	0.027007	0.953884	-0.073299	-0.074646	0.004056	14.8966	-0.073503	-0.422267	-0.009606	NaN
412	1.000000	0.963203	7.36909e+06	-56489.1	1005.82	-29739	0.000000	0.000000	6.963117	0.024834	NaN	0.000000	0.001682	0.001725	28.0801	0.122370	0.002061	59.3716	134.076	-165.333	-0.013250	0.961883	-0.065328	-0.066648	0.024834	59.3716	-0.065641	-0.259614	-0.095656	NaN
412	1.000000	0.971219	7.36909e+06	-56489.1	1005.82	-29739	0.000000	0.000000	6.971134	0.040647	NaN	0.000000	0.001672	0.001694	28.0801	0.100092	0.001943	51.5183	-72.0205	-169.245	0.029212	0.969865	-0.057312	-0.058666	0.040647	51.5183	-0.057904	-0.156661	-0.259458	NaN
412	1.000000	0.979215	7.36909e+06	-56489.1	1005.82	-29739	0.000000	0.000000	6.979131	0.082875	NaN	0.000000	0.001677	0.001683	28.0803	0.128882	0.001947	66.2051	-179.341	-166.232	-0.003709	0.977912	-0.049316	-0.050618	0.082875	66.2051	-0.050255	-0.092884	-0.892247	NaN
412	1.000000	0.987215	7.36909e+06	-56489.1	1005.82	-29739	0.000000	0.000000	6.987128	-0.007664	NaN	0.000000	0.001681	0.001687	28.0804	0.051485	0.001887	27.2772	-106.098	-166.115	-0.017795	0.985895	-0.041315	-0.042635	-0.007664	27.2772	-0.041105	-0.048860	0.156846	NaN
412	1.000000	0.995242	7.36909e+06	-56489.1	1005.82	-29739	0.000000	0.000000	6.995156	0.019273	NaN	0.000000	0.001689	0.001678	28.08	0.054773	0.001945	28.164	86.2929	-167.283	-0.016162	0.993917	-0.033289	-0.034613	0.019273	28.164	-0.033802	-0.029539	-0.652468	NaN
412	1.000000	1.003238	7.3691e+06	-56489.1	1005.82	-29739	0.000000	0.000000	7.003152	0.013922	NaN	0.000000	0.001684	0.001708	28.08	0.104407	0.001980	52.7388	34.4896	-166.643	0.031413	1.001893	-0.025293	-0.026637	0.013922	52.7388	-0.025491	-0.017377	-0.801156	NaN
412	1.000000	1.011216	7.3691e+06	-56489.1	1005.82	-29739	0.000000	0.000000	7.011128	-0.031293	NaN	0.000000	0.001677	0.001724	28.0801	0.088982	0.001964	45.3156	126.643	-164.352	-0.002896	1.009876	-0.017315	-0.018654	-0.031293	45.3156	-0.016797	-0.010381	3.014463	NaN
412	1.000000	1.019241	7.3691e+06	-56489.1	1005.82	-29739	0.000000	0.000000	7.019156	0.038469	NaN	0.000000	0.001688	0.001715	28.0802	0.089429	0.002004	44.6324	-166.364	-165.719	0.037928	1.017961	-0.009290	-0.010569	0.038469	44.6324	-0.009936	-0.006351	-6.057271	NaN
412	1.000000	1.027201	7.3691e+06	-56489.1	1005.82	-29739	0.000000	0.000000	7.027114	-0.015696	NaN	0.000000	0.001699	0.001680	28.0802	0.062855	0.001966	31.9673	128.481	-168.25	-0.041283	1.025956	-0.001330	-0.002575	-0.015696	31.9673	-0.000961	-0.000705	22.2528	NaN
412	1.000000	1.035228	7.3691e+06	-56489.1	1005.82	-29739	0.000000	0.000000	7.035346	4.978683	NaN	0.000000	0.001672	0.001674	28.0814	5.770365	0.001796	3213.75	11.2323	-169.3	3.711738	1.033963	0.006698	0.005432	4.978683	3213.75	0.005536	0.004628	1075.84	43162
412	2.000000	1.039792	7.3691e+06	-56489.1	1005.82	-29739	0.000000	0.000000	7.040090	9.359838	NaN	0.000000	0.001679	0.001732	28.0813	10.2205	0.001738	5879.03	8.090441	-173.421	8.825719	1.039473	0.011261	0.010943	9.359838	5879.03	0.010067	0.009256	1011.19	55829
412	2.000000	1.041761	7.3691e+06	-56489.1	1005.82	-29739	0.000000	0.000000	7.042149	11.5545	NaN	0.000000	0.001681	0.001692	28.0815	12.0722	0.001638	7370.09	9.460930	-177.533	11.2816	1.041482	0.013230	0.012951	11.5545	7370.09	0.012054	0.011555	999.961	62641.3
412	2.000000	1.043771	7.3691e+06	-56489.1	1005.82	-29739	0.000000	0.000000	7.044249	13.7285	NaN	0.000000	0.001694	0.001705	28.0811	14.5484	0.001893	7685.19	11.0053	-177.027	14.6084	1.043427	0.015240	0.014896	13.7285	7685.19	0.013900	0.013847	991.472	59670.1
412	2.000000	1.045767	7.3691e+06	-56489.1	1005.82	-29739	0.000000	0.000000	7.046371	16.7806	NaN	0.000000	0.001678	0.001702	28.0815	16.5069	0.001755	9404.18	7.543049	-175.958	16.613	1.045399	0.017236	0.016868	16.7806	9404.18	0.015898	0.016502	1016.89	66885
412	2.000000	1.047719	7.3691e+06	-56489.1	1005.82	-29739	0.000000	0.000000	7.048493	20.9394	NaN	0.000000	0.001653	0.001724	28.0814	18.4852	0.001771	10437.3	10.4129	-178.739	21.3434	1.047366	0.019188	0.018835	20.9394	10437.3	0.017683	0.019032	1100.22	69122.8
412	2.000000	1.049711	7.3691e+06	-56489.1	1005.82	-29739	0.000000	0.000000	7.050499	21.2743	NaN	0.000000	0.001677	0.001702	28.0814	19.827	0.001835	10807.7	5.680534	-175.442	20.2866	1.049438	0.021180	0.020907	21.2743	10807.7	0.019704	0.022079	963.549	66453.4
412	2.000000	1.051737	7.3691e+06	-56489.1	1005.82	-29739	0.000000	0.000000	7.052771	27.2303	NaN	0.000000	0.001678	0.001715	28.0815	21.6214	0.001755	12321.4	9.950323	-178.754	28.4341	1.051279	0.023207	0.022748	27.2303	12321.4	0.021549	0.025036	1087.67	71146.6
412	2.000000	1.053692	7.3691e+06	-56489.1	1005.82	-29739	0.000000	0.000000	7.054758	28.017	NaN	0.000000	0.001714	0.001701	28.0814	24.0234	0.001732	13866.4	7.684184	179.285	26.8299	1.053418	0.025161	0.024887	28.017	13866.4	0.023646	0.028598	979.676	74914.7
412	2.000000	1.055722	7.3691e+06	-56489.1	1005.82	-29739	0.000000	0.000000	7.057083	35.1923	NaN	0.000000	0.001709	0.001720	28.0815	26.4219	0.001719	15371.7	4.878353	-178.961	34.4801	1.055410	0.027192	0.026880	35.1923	15371.7	0.025474	0.031884	1103.74	78651.5
412	2.000000	1.057670	7.3691e+06	-56489.1	1005.82	-29739	0.000000	0.000000	7.059228	39.9885	NaN	0.000000	0.001707	0.001725	28.0816	27.9705	0.001823	15340	3.229088	-176.815	39.2222	1.057383	0.029139	0.028852	39.9885	15340	0.027184	0.035110	1138.96	74797.3
412	2.000000	1.059632	7.3691e+06	-56489.1	1005.82	-29739	0.000000	0.000000	7.061474	46.8656	NaN	0.000000	0.001767	0.001723	28.0813	30.7977	0.001772	17380.8	7.003491	177.622	45.4819	1.059351	0.031102	0.030820	46.8656	17380.8	0.029079	0.038857	1206.1	80557.8
412	2.000000	1.061699	7.3691e+06	-56489.1	1005.82	-29739	0.000000	0.000000	7.063844	54.2481	NaN	0.000000	0.001727	0.001698	28.0815	31.9257	0.001783	17904	4.245232	-179.45	54.1737	1.061367	0.033169	0.032837	54.2481	17904	0.030896	0.042622	1272.77	79233.1
412	2.000000	1.063698	7.3691e+06	-56489.1	1005.82	-29739	0.000000	0.000000	7.065911	55.9015	NaN	0.000000	0.001750	0.001713	28.0815	34.2264	0.001788	19143.7	10.4873	174.457	56.6745	1.063321	0.035167	0.034791	55.9015	19143.7	0.032977	0.047141	1185.84	80556.3
412	2.000000	1.065645	7.3691e+06	-56489.1	1005.82	-29739	0.000000	0.000000	7.068193	64.0409	NaN	0.000000	0.001699	0.001675	28.0824	36.624	0.001828	20036.7	8.792153	175.284	61.2128	1.065318	0.037115	0.036788	64.0409	20036.7	0.034717	0.051090	1253.49	80989.7
412	2.000000	1.067678	7.3691e+06	-56489.1	1005.82	-29739	0.000000	0.000000	7.070423	68.8433	NaN	0.000000	0.001697	0.001639	28.0816	38.039	0.001814	20972.3	7.653278	175.32	68.0352	1.067423	0.039147	0.038892	68.8433	20972.3	0.036685	0.055743	1235.01	81156.6
412	2.000000	1.069746	7.3691e+06	-56489.1	1005.82	-29739	0.000000	0.000000	7.072589	71.2235	NaN	0.000000	0.001705	0.001677	28.0815	41.4732	0.001984	20906.4	8.782065	174.214	73.1236	1.069436	0.041215	0.040905	71.2235	20906.4	0.038660	0.060612	1175.07	77584.1
412	2.000000	1.071666	7.3691e+06	-56489.1	1005.82	-29739	0.000000	0.000000	7.074948	81.8695	NaN	0.000000	0.001736	0.001678	28.0804	42.2659	0.001807	23391.8	5.579054	176.62	82.3475	1.071307	0.043136	0.042777	81.8695	23391.8	0.040511	0.065355	1252.69	83598.4
412	2.000000	1.073647	7.3691e+06	-56489.1	1005.82	-29739	0.000000	0.000000	7.077317	91.3261	NaN	0.000000	0.001720	0.001645	28.0804	43.8202	0.001779	24629.1	4.489411	177.87	90.5338	1.073304	0.045116	0.044773	91.3261	24629.1	0.042335	0.070202	1300.9	84927
412	2.000000	1.075617	7.3691e+06	-56489.1	1005.82	-29739	0.000000	0.000000	7.079703	101.432	NaN	0.000000	0.001727	0.001700	28.0814	46.592	0.001761	26459.5	6.870553	174.17	98.4271	1.075334	0.047086	0.046803	101.432	26459.5	0.044211	0.075363	1345.91	88059.5
412	2.000000	1.077648	7.3691e+06	-56489.1	1005.82	-29739	0.000000	0.000000	7.081889	105.18	NaN	0.000000	0.001711	0.001698	28.0807	47.8971	0.001739	27548.8	6.400148	175.122	103.851	1.077238	0.049118	0.048708	105.18	27548.8	0.046254	0.081188	1295.53	88334.6
412	2.000000	1.079644	7.3691e+06	-56489.1	1005.82	-29739	0.000000	0.000000	7.084180	112.366	NaN	0.000000	0.001691	0.001677	28.0802	50.6744	0.001711	29608.9	6.917086	173.352	111.393	1.079333	0.051113	0.050803	112.366	29608.9	0.048267	0.087131	1289.62	91645.1
412	2.000000	1.081653	7.3691e+06	-56489.1	1005.82	-29739	0.000000	0.000000	7.086535	120.774	NaN	0.000000	0.001713	0.001742	28.0805	51.6142	0.001710	30175.7	5.824503	174.889	118.91	1.081261	0.053122	0.052731	120.774	30175.7	0.050121	0.092786	1301.64	90508.4
412	2.000000	1.083579	7.3691e+06	-56489.1	1005.82	-29739	0.000000	0.000000	7.088910	131.691	NaN	0.000000	0.001711	0.001712	28.0804	54.0418	0.001789	30200.5	6.006331	174.02	128.159	1.083246	0.055049	0.054716	131.691	30200.5	0.051778	0.097989	1343.94	88145.3
412	2.000000	1.085710	7.3691e+06	-56489.1	1005.82	-29739	0.000000	0.000000	7.091304	138.07	NaN	0.000000	0.001749	0.001712	28.0808	56.5438	0.001783	31717.9	8.146666	171.911	139.615	1.085335	0.057179	0.056805	138.07	31717.9	0.053915	0.104896	1316.26	89474.4
412	2.000000	1.087632	7.3691e+06	-56489.1	1005.82	-29739	0.000000	0.000000	7.093475	144.14	NaN	0.000000	0.001766	0.001686	28.0801	58.7045	0.001808	32464.5	7.159068	172.194	146.362	1.087318	0.059101	0.058788	144.14	32464.5	0.055771	0.111082	1297.6	88993.7
412	2.000000	1.089630	7.3691e+06	-56489.1	1005.82	-29739	0.000000	0.000000	7.095908	154.688	NaN	0.000000	0.001732	0.001668	28.0804	60.5746	0.001782	33988.1	4.656226	174.805	154.134	1.089329	0.061100	0.060798	154.688	33988.1	0.057686	0.117642	1314.91	90535.5
412	2.000000	1.091704	7.3691e+06	-56489.1	1005.82	-29739	0.000000	0.000000	7.098708	172.354	NaN	0.000000	0.001700	0.001700	28.0809	61.6829	0.001717	35922	4.826508	174.551	173.951	1.091276	0.063173	0.062745	172.354	35922	0.059574	0.124286	1386.75	93094
412	2.000000	1.093577	7.3691e+06	-56489.1	1005.82	-29739	0.000000	0.000000	7.100872	179.41	NaN	0.000000	0.001733	0.001713	28.0801	65.0596	0.001866	34857.4	3.628449	175.252	174.703	1.093349	0.065047	0.064818	179.41	34857.4	0.061187	0.130097	1379.04	88294.4
412	2.000000	1.095584	7.3691e+06	-56489.1	1005.82	-29739	0.000000	0.000000	7.103357	191.032	NaN	0.000000	0.001749	0.001696	28.0804	66.345	0.001897	34979.6	6.110478	173.392	188.054	1.095206	0.067054	0.066676	191.032	34979.6	0.062958	0.136627	1398.2	86461
412	2.000000	1.097634	7.3691e+06	-56489.1	1005.82	-29739	0.000000	0.000000	7.105658	197.142	NaN	0.000000	0.001732	0.001675	28.0801	67.3335	0.001671	40306.3	4.502306	173.051	197.065	1.097412	0.069104	0.068881	197.142	40306.3	0.065435	0.146017	1350.13	96370.4
412	2.000000	1.099523	7.3691e+06	-56489.1	1005.82	-29739	0.000000	0.000000	7.108107	210.754	NaN	0.000000	0.001721	0.001666	28.0804	69.309	0.001755	39488.5	1.265703	176.519	205.136	1.099313	0.070992	0.070782	210.754	39488.5	0.066989	0.152056	1386.02	92521.2
412	2.000000	1.101590	7.3691e+06	-56489.1	1005.82	-29739	0.000000	0.000000	7.110909	228.613	NaN	0.000000	0.001763	0.001674	28.0805	70.1853	0.001823	38501.2	-0.481317	178.265	226.879	1.101210	0.073060	0.072679	228.613	38501.2	0.068606	0.158465	1442.68	88365.1
412	2.000000	1.103582	7.3691e+06	-56489.1	1005.82	-29739	0.000000	0.000000	7.113384	240.353	NaN	0.000000	0.001745	0.001679	28.0801	73.9098	0.001883	39253	5.480770	172.451	238.272	1.103243	0.075052	0.074712	240.353	39253	0.070459	0.165961	1448.25	88032.6
412	2.000000	1.105650	7.3691e+06	-56489.1	1005.82	-29739	0.000000	0.000000	7.116097	256.047	NaN	0.000000	0.001732	0.001713	28.0817	75.7071	0.001865	40595.8	8.637313	170.191	256.183	1.105225	0.077119	0.076695	256.047	40595.8	0.072389	0.173940	1472.04	88931.4
412	2.000000	1.107538	7.3691e+06	-56489.1	1005.82	-29739	0.000000	0.000000	7.118672	272.744	NaN	0.000000	0.001761	0.001706	28.0816	76.4252	0.001833	41695.3	5.119293	172.707	267.162	1.107224	0.079007	0.078694	272.744	41695.3	0.074101	0.181171	1505.45	89498.5
412	2.000000	1.109554	7.3691e+06	-56489.1	1005.82	-29739	0.000000	0.000000	7.121118	283.185	NaN	0.000000	0.001746	0.001693	28.0817	79.4879	0.001827	43505.1	6.382212	171.033	279.713	1.109247	0.081024	0.080717	283.185	43505.1	0.076142	0.189966	1490.72	91196
412	2.000000	1.111712	7.3691e+06	-56489.1	1005.82	-29739	0.000000	0.000000	7.123713	293.828	NaN	0.000000	0.001710	0.001704	28.0818	79.6673	0.001715	46450.8	1.757944	175.137	297.668	1.111383	0.083181	0.082853	293.828	46450.8	0.078437	0.200091	1468.47	94875.1
412	2.000000	1.113571	7.3691e+06	-56489.1	1005.82	-29739	0.000000	0.000000	7.126193	308.919	NaN	0.000000	0.001755	0.001724	28.0816	83.4539	0.001782	46827.8	6.506728	170.084	305.523	1.113265	0.085040	0.084734	308.919	46827.8	0.080093	0.207549	1488.41	93910.9
412	2.000000	1.115721	7.3691e+06	-56489.1	1005.82	-29739	0.000000	0.000000	7.129030	325.605	NaN	0.000000	0.001732	0.001681	28.0815	85.9766	0.001746	49228.8	10.1078	166.585	331.411	1.115260	0.087190	0.086729	325.605	49228.8	0.082230	0.217364	1497.97	96471.4
412	2.000000	1.117609	7.3691e+06	-56489.1	1005.82	-29739	0.000000	0.000000	7.131407	337.48	NaN	0.000000	0.001682	0.001721	28.0816	86.8074	0.001667	52084.5	6.460866	169.156	337.901	1.117370	0.089079	0.088839	337.48	52084.5	0.084219	0.226690	1488.72	99945.9
412	2.000000	1.119607	7.3691e+06	-56489.1	1005.82	-29739	0.000000	0.000000	7.134316	359.646	NaN	0.000000	0.001736	0.001724	28.0818	88.826	0.001779	49919.3	2.966934	173.337	360.437	1.119239	0.091076	0.090708	359.646	49919.3	0.085673	0.233621	1539.44	94359.6
412	2.000000	1.121583	7.3691e+06	-56489.1	1005.82	-29739	0.000000	0.000000	7.136696	369.441	NaN	0.000000	0.001741	0.001700	28.0813	89.9216	0.001831	49098.2	3.683101	172.303	366.748	1.121379	0.093053	0.092848	369.441	49098.2	0.087409	0.242029	1526.43	91181.1
412	2.000000	1.123448	7.3691e+06	-56489.1	1005.82	-29739	0.000000	0.000000	7.139392	389.66	NaN	0.000000	0.001713	0.001697	28.0816	92.6686	0.001733	53458.2	6.709121	168.925	380.969	1.123281	0.094917	0.094750	389.66	53458.2	0.089450	0.252087	1545.74	97277.4
412	2.000000	1.125634	7.3691e+06	-56489.1	1005.82	-29739	0.000000	0.000000	7.142306	407.352	NaN	0.000000	0.001700	0.001659	28.0824	96.0033	0.001926	49837.2	8.376239	168.674	408.194	1.125170	0.097103	0.096640	407.352	49837.2	0.090973	0.259717	1568.44	89346.2
412	2.000000	1.127608	7.3691e+06	-56489.1	1005.82	-29739	0.000000	0.000000	7.144719	418.029	NaN	0.000000	0.001748	0.001650	28.0816	96.6066	0.001685	57317.1	8.822653	166.107	418.412	1.127376	0.099077	0.098845	418.029	57317.1	0.093607	0.273166	1530.31	100195
412	2.000000	1.129512	7.3691e+06	-56489.1	1005.82	-29739	0.000000	0.000000	7.147549	440.529	NaN	0.000000	0.001755	0.001687	28.0818	99.5338	0.001768	56304.7	6.207181	169.273	435.462	1.129219	0.100981	0.100688	440.529	56304.7	0.095113	0.280995	1567.75	97044.1
412	2.000000	1.131703	7.3691e+06	-56489.1	1005.82	-29739	0.000000	0.000000	7.150299	454.103	NaN	0.000000	0.001741	0.001665	28.0817	100.808	0.001834	54953.4	5.080900	170.441	459.898	1.131372	0.103172	0.102842	454.103	54953.4	0.096975	0.290820	1561.46	93101.3
412	2.000000	1.133440	7.3691e+06	-56489.1	1005.82	-29739	0.000000	0.000000	7.152874	474.495	NaN	0.000000	0.001734	0.001694	28.0818	103.189	0.001753	58862.7	4.437472	170.763	466.93	1.133251	0.104909	0.104721	474.495	58862.7	0.098863	0.300946	1576.68	98032.3
412	2.000000	1.135591	7.3691e+06	-56489.1	1005.82	-29739	0.000000	0.000000	7.155743	491.927	NaN	0.000000	0.001735	0.001658	28.0821	106.223	0.001844	57596.9	8.738588	167.582	488.805	1.135118	0.107061	0.106588	491.927	57596.9	0.100655	0.310704	1583.27	94406
412	2.000000	1.136875	7.3691e+06	-56489.1	1005.82	-29739	0.000000	0.000000	7.157592	505.665	NaN	0.000000	0.001705	0.001641	28.0818	106.98	0.001835	58290.1	2.929151	-7.751629	493.687	1.136585	0.108344	0.108054	505.665	58290.1	0.101838	0.317226	1594.02	94554.8