File: remote_trans/data/nanoindenter/0828-1/data/Data_2025-08-06,11h17m57s/2025-07-22_16-23-58_1_156.txt
2025-07-22, 16:23:58, 1
Index	Phase	Displacement	Time	Pos X	Pos Y	Pos Z	Rot A	Rot B	Piezo Z	Force A	Force B	Gripper	Voltage A	Voltage B	Temperature	Amplitude force	Amplitude pos	Stiffness	Phase shift	Phase excitation	Force A raw	Displacement raw	HMax	HMax raw	Real Force	Real Stiffness	Contact Depth	Area	Hardness	Reduced Mod.
[#]	[#]	[um]	[s]	[um]	[um]	[um]	[m°]	[m°]	[um]	[uN]	[uN]	[V]	[V]	[V]	[°C]	[uN]	[um]	[N/m]	[°]	[°]	[uN]	[um]	[um]	[um]	[uN]	[N/m]	[um]	[um^2]	[MPa]	[MPa]
156	1.000000	0.002634	7.36657e+06	-46439.1	955.818	-29769.6	0.000000	0.000000	6.002805	0.036221	NaN	0.000000	0.001637	0.001657	28.109	0.060117	0.000883	68.0664	-122.173	-171.105	0.011375	0.001377	-1.094217	-1.095474	0.036221	68.0664	-1.094616	-4.244193E+14	-8.534191E-17	NaN
156	1.000000	0.012692	7.36657e+06	-46439.1	955.818	-29769.6	0.000000	0.000000	6.012864	0.056504	NaN	0.000000	0.001608	0.001627	28.1311	0.051209	0.001273	40.2203	-94.2062	16.8859	-0.003146	0.011239	-1.084159	-1.085613	0.056504	40.2203	-1.085212	-3.173378E+14	-1.780555E-16	NaN
156	1.000000	0.022589	7.36657e+06	-46439.1	955.818	-29769.6	0.000000	0.000000	6.022758	-0.011263	NaN	0.000000	0.001648	0.001647	28.0913	0.058498	0.001727	33.8649	-14.7111	-166.726	0.038980	0.021284	-1.074262	-1.075567	-0.011263	33.8649	-1.074013	-2.244392E+14	5.018352E-17	NaN
156	1.000000	0.032595	7.36657e+06	-46439.1	955.817	-29769.6	0.000000	0.000000	6.032765	0.007018	NaN	0.000000	0.001627	0.001630	28.0829	0.052653	0.001930	27.2856	148.78	11.2255	0.041031	0.031183	-1.064256	-1.065669	0.007018	27.2856	-1.064449	-1.669579E+14	-4.203386E-17	NaN
156	1.000000	0.042589	7.36657e+06	-46439.1	955.819	-29769.6	0.000000	0.000000	6.042757	-0.051867	NaN	0.000000	0.001656	0.001630	28.1075	0.098864	0.001984	49.8386	-110.312	-165.464	-0.059611	0.041230	-1.054262	-1.055622	-0.051867	49.8386	-1.053481	-1.189075E+14	4.361954E-16	NaN
156	1.000000	0.052588	7.36657e+06	-46439.1	955.818	-29769.6	0.000000	0.000000	6.052759	0.041482	NaN	0.000000	0.001718	0.001679	28.1303	0.041652	0.001987	20.9626	50.2713	13.9035	0.001980	0.051276	-1.044263	-1.045575	0.041482	20.9626	-1.045747	-9.359273E+13	-4.432205E-16	NaN
156	1.000000	0.062612	7.36657e+06	-46439.1	955.818	-29769.6	0.000000	0.000000	6.062780	-0.046629	NaN	0.000000	0.001669	0.001670	28.089	0.038086	0.001922	19.8198	90.2557	-164.627	-0.013440	0.061280	-1.034239	-1.035571	-0.046629	19.8198	-1.032475	-6.205315E+13	7.514291E-16	NaN
156	1.000000	0.072586	7.36657e+06	-46439.1	955.818	-29769.6	0.000000	0.000000	6.072752	-0.076886	NaN	0.000000	0.001634	0.001657	28.0802	0.044562	0.001977	22.5433	101.082	13.8026	-0.020931	0.071259	-1.024265	-1.025592	-0.076886	22.5433	-1.021707	-4.445529E+13	1.729515E-15	NaN
156	1.000000	0.082616	7.36657e+06	-46439.1	955.818	-29769.6	0.000000	0.000000	6.082784	-0.034530	NaN	0.000000	0.001687	0.001667	28.1073	0.032139	0.002133	15.0681	68.1055	-164.79	-0.066012	0.081281	-1.014235	-1.015570	-0.034530	15.0681	-1.012516	-3.343875E+13	1.032645E-15	NaN
156	1.000000	0.092569	7.36657e+06	-46439.1	955.819	-29769.6	0.000000	0.000000	6.092736	-0.064062	NaN	0.000000	0.001696	0.001630	28.13	0.034148	0.001982	17.2266	-7.723356	15.7399	-0.036858	0.091213	-1.004282	-1.005638	-0.064062	17.2266	-1.001493	-2.376149E+13	2.696039E-15	NaN
156	1.000000	0.102601	7.36657e+06	-46439.1	955.818	-29769.6	0.000000	0.000000	6.102768	-0.053219	NaN	0.000000	0.001679	0.001637	28.0891	0.062942	0.002048	30.7409	85.5825	-166.008	-0.132325	0.101283	-0.994250	-0.995568	-0.053219	30.7409	-0.992952	-1.823329E+13	2.918793E-15	NaN
156	1.000000	0.112605	7.36657e+06	-46439.1	955.818	-29769.6	0.000000	0.000000	6.112775	0.004797	NaN	0.000000	0.001708	0.001660	28.0816	0.049022	0.001890	25.9373	-143.03	12.7717	-0.019431	0.111255	-0.984246	-0.985596	0.004797	25.9373	-0.984384	-1.397898E+13	-3.431615E-16	NaN
156	1.000000	0.122602	7.36657e+06	-46439.1	955.818	-29769.6	0.000000	0.000000	6.122770	-0.041777	NaN	0.000000	0.001678	0.001638	28.1058	0.087685	0.002055	42.6727	-138.034	-162.023	-0.012690	0.121306	-0.974249	-0.975545	-0.041777	42.6727	-0.973515	-9.977590E+12	4.187065E-15	NaN
156	1.000000	0.132620	7.36657e+06	-46439.1	955.818	-29769.6	0.000000	0.000000	6.132791	0.029072	NaN	0.000000	0.001677	0.001617	28.1285	0.065797	0.001943	33.8718	91.3205	13.7363	0.034416	0.131241	-0.964231	-0.965611	0.029072	33.8718	-0.964875	-7.631095E+12	-3.809665E-15	NaN
156	1.000000	0.142634	7.36657e+06	-46439.1	955.818	-29769.6	0.000000	0.000000	6.142802	-0.042498	NaN	0.000000	0.001689	0.001640	28.0892	0.071635	0.001920	37.3048	179.266	-165.789	-0.024655	0.141318	-0.954217	-0.955533	-0.042498	37.3048	-0.953363	-5.337984E+12	7.961414E-15	NaN
156	1.000000	0.152621	7.36657e+06	-46439.1	955.818	-29769.6	0.000000	0.000000	6.152788	-0.051447	NaN	0.000000	0.001630	0.001654	28.0805	0.111804	0.002031	55.0511	-34.4683	10.8256	0.026446	0.151238	-0.944230	-0.945613	-0.051447	55.0511	-0.943529	-3.933247E+12	1.308014E-14	NaN
156	1.000000	0.162641	7.36657e+06	-46439.1	955.818	-29769.6	0.000000	0.000000	6.162812	0.030855	NaN	0.000000	0.001667	0.001636	28.1069	0.039549	0.002067	19.1297	-131.64	-163.689	0.053425	0.161319	-0.934210	-0.935532	0.030855	19.1297	-0.935420	-3.057326E+12	-1.009215E-14	NaN
156	1.000000	0.172648	7.36657e+06	-46439.1	955.818	-29769.6	0.000000	0.000000	6.172818	0.014738	NaN	0.000000	0.001648	0.001654	28.1307	0.010609	0.002038	5.205843	1.568693	14.9226	-0.011137	0.171315	-0.924203	-0.925536	0.014738	5.205843	-0.926326	-2.304694E+12	-6.394828E-15	NaN
156	1.000000	0.182639	7.36657e+06	-46439.1	955.819	-29769.6	0.000000	0.000000	6.182805	-0.078256	NaN	0.000000	0.001666	0.001667	28.0904	0.068014	0.001962	34.6674	-151.565	-163.859	-0.111175	0.181345	-0.914212	-0.915506	-0.078256	34.6674	-0.912519	-1.500331E+12	5.215901E-14	NaN
156	1.000000	0.192647	7.36657e+06	-46439.1	955.818	-29769.6	0.000000	0.000000	6.192817	0.012592	NaN	0.000000	0.001681	0.001655	28.0815	0.085808	0.001975	43.4515	156.876	15.8892	-0.064536	0.191296	-0.904204	-0.905555	0.012592	43.4515	-0.904422	-1.166292E+12	-1.079623E-14	NaN
156	1.000000	0.202619	7.36657e+06	-46439.1	955.819	-29769.6	0.000000	0.000000	6.202790	0.013907	NaN	0.000000	0.001679	0.001678	28.1066	0.065883	0.001920	34.3132	110.65	-166.904	0.036005	0.201256	-0.894232	-0.895595	0.013907	34.3132	-0.894536	-8.574822E+11	-1.621899E-14	NaN
156	1.000000	0.212632	7.36657e+06	-46439.1	955.818	-29769.6	0.000000	0.000000	6.212799	-0.057256	NaN	0.000000	0.001739	0.001679	28.1305	0.088098	0.001909	46.1533	-156.085	15.8036	-0.102350	0.211273	-0.884219	-0.885578	-0.057256	46.1533	-0.883289	-6.042050E+11	9.476307E-14	NaN
156	1.000000	0.222675	7.36657e+06	-46439.1	955.818	-29769.6	0.000000	0.000000	6.222845	0.005528	NaN	0.000000	0.001744	0.001638	28.092	0.049679	0.002042	24.3309	-80.1615	-167.136	-0.006688	0.221294	-0.874176	-0.875557	0.005528	24.3309	-0.874347	-4.573468E+11	-1.208629E-14	NaN
156	1.000000	0.232666	7.36657e+06	-46439.1	955.818	-29769.6	0.000000	0.000000	6.232833	-0.058137	NaN	0.000000	0.001726	0.001654	28.0806	0.055738	0.001954	28.5299	-146.072	17.8265	-0.022688	0.231347	-0.864185	-0.865504	-0.058137	28.5299	-0.862657	-3.177463E+11	1.829677E-13	NaN
156	1.000000	0.242675	7.36657e+06	-46439.1	955.818	-29769.6	0.000000	0.000000	6.242843	-0.048889	NaN	0.000000	0.001729	0.001629	28.1081	0.064260	0.002041	31.4832	-96.7763	-164.141	-0.071784	0.241385	-0.854176	-0.855466	-0.048889	31.4832	-0.853011	-2.352415E+11	2.078257E-13	NaN
156	1.000000	0.252657	7.36657e+06	-46439.1	955.818	-29769.6	0.000000	0.000000	6.252827	0.026856	NaN	0.000000	0.001756	0.001604	28.1314	0.037845	0.002043	18.5219	-163.599	14.907	0.033765	0.251296	-0.844195	-0.845555	0.026856	18.5219	-0.845282	-1.848599E+11	-1.452752E-13	NaN
156	1.000000	0.262686	7.36657e+06	-46439.1	955.818	-29769.6	0.000000	0.000000	6.262855	-0.024360	NaN	0.000000	0.001746	0.001595	28.0921	0.096737	0.001913	50.5814	-57.6352	-168.44	0.049694	0.261339	-0.834165	-0.835512	-0.024360	50.5814	-0.833804	-1.292232E+11	1.885086E-13	NaN
156	1.000000	0.272680	7.36657e+06	-46439.1	955.819	-29769.6	0.000000	0.000000	6.272849	-0.024202	NaN	0.000000	0.001738	0.001606	28.0836	0.128913	0.002094	61.5623	46.492	17.8291	-0.063646	0.271327	-0.824171	-0.825524	-0.024202	61.5623	-0.823876	-9.479197E+10	2.553185E-13	NaN
156	1.000000	0.282677	7.36657e+06	-46439.1	955.818	-29769.6	0.000000	0.000000	6.282849	0.053107	NaN	0.000000	0.001716	0.001634	28.1062	0.009837	0.001958	5.023538	122.893	-161.706	0.024543	0.281367	-0.814174	-0.815484	0.053107	5.023538	-0.822102	-8.968504E+10	-5.921478E-13	NaN
156	1.000000	0.292664	7.36657e+06	-46439.1	955.818	-29769.6	0.000000	0.000000	6.292833	-0.000527	NaN	0.000000	0.001726	0.001657	28.1305	0.024952	0.001975	12.6364	52.7806	13.9736	-0.013155	0.291360	-0.804187	-0.805491	-0.000527	12.6364	-0.804156	-5.120046E+10	1.028530E-14	NaN
156	1.000000	0.302697	7.36657e+06	-46439.1	955.818	-29769.6	0.000000	0.000000	6.302863	-0.098957	NaN	0.000000	0.001695	0.001660	28.0918	0.036088	0.001841	19.6001	37.0529	-163.927	0.048125	0.301363	-0.794154	-0.795488	-0.098957	19.6001	-0.790367	-3.327149E+10	2.974241E-12	NaN
156	1.000000	0.312699	7.36657e+06	-46439.1	955.819	-29769.6	0.000000	0.000000	6.312868	-0.009891	NaN	0.000000	0.001723	0.001626	28.0824	0.039360	0.001980	19.8831	178.907	17.0747	0.039248	0.311310	-0.784152	-0.785542	-0.009891	19.8831	-0.783779	-2.707598E+10	3.653072E-13	NaN
156	1.000000	0.322673	7.36657e+06	-46439.1	955.818	-29769.6	0.000000	0.000000	6.322842	-0.017748	NaN	0.000000	0.001698	0.001648	28.1074	0.114119	0.001997	57.1358	-99.0743	-165.012	-0.032046	0.321374	-0.774178	-0.775478	-0.017748	57.1358	-0.773945	-1.990389E+10	8.916952E-13	NaN
156	1.000000	0.332696	7.36657e+06	-46439.1	955.818	-29769.6	0.000000	0.000000	6.332866	0.004635	NaN	0.000000	0.001748	0.001608	28.1315	0.055823	0.002015	27.7068	28.1474	11.7972	0.055389	0.331341	-0.764155	-0.765510	0.004635	27.7068	-0.764281	-1.470718E+10	-3.151778E-13	NaN
156	1.000000	0.342704	7.36657e+06	-46439.1	955.818	-29769.6	0.000000	0.000000	6.342873	-0.018147	NaN	0.000000	0.001699	0.001660	28.0904	0.070490	0.001864	37.8075	-148.083	-162.711	-0.031401	0.341380	-0.754147	-0.755471	-0.018147	37.8075	-0.753787	-1.058668E+10	1.714117E-12	NaN
156	1.000000	0.352728	7.36657e+06	-46439.1	955.818	-29769.6	0.000000	0.000000	6.352896	-0.055970	NaN	0.000000	0.001733	0.001662	28.0817	0.063181	0.002076	30.4352	63.9925	15.2852	0.020168	0.351326	-0.744123	-0.745525	-0.055970	30.4352	-0.742744	-7.488996E+9	7.473645E-12	NaN
156	1.000000	0.362700	7.36657e+06	-46439.1	955.818	-29769.6	0.000000	0.000000	6.362871	0.009708	NaN	0.000000	0.001723	0.001662	28.1055	0.054393	0.001881	28.9247	144.767	-164.645	-0.017402	0.361403	-0.734151	-0.735448	0.009708	28.9247	-0.734402	-5.765004E+9	-1.683881E-12	NaN
156	1.000000	0.372739	7.36657e+06	-46439.1	955.819	-29769.6	0.000000	0.000000	6.372907	-0.063011	NaN	0.000000	0.001741	0.001665	28.1303	0.021517	0.001883	11.4238	8.302901	13.5961	0.015991	0.371370	-0.724112	-0.725481	-0.063011	11.4238	-0.719975	-3.665485E+9	1.719032E-11	NaN
156	1.000000	0.382712	7.36657e+06	-46439.1	955.817	-29769.6	0.000000	0.000000	6.382880	-0.044011	NaN	0.000000	0.001708	0.001653	28.091	0.067261	0.001808	37.2075	-142.371	-166.3	-0.049565	0.381420	-0.714139	-0.715431	-0.044011	37.2075	-0.713252	-2.967690E+9	1.482994E-11	NaN
156	1.000000	0.392711	7.36657e+06	-46439.1	955.819	-29769.6	0.000000	0.000000	6.392879	-0.031692	NaN	0.000000	0.001735	0.001636	28.0802	0.013197	0.002050	6.438408	-4.634885	15.9528	-0.026988	0.391405	-0.704140	-0.705446	-0.031692	6.438408	-0.700448	-1.984513E+9	1.596969E-11	NaN
156	1.000000	0.402718	7.36657e+06	-46439.1	955.819	-29769.6	0.000000	0.000000	6.402886	-0.028029	NaN	0.000000	0.001649	0.001615	28.1059	0.029510	0.001919	15.376	-57.3634	-164.599	-0.000182	0.401447	-0.694133	-0.695404	-0.028029	15.376	-0.692766	-1.558542E+9	1.798401E-11	NaN
156	1.000000	0.412714	7.36657e+06	-46439.1	955.819	-29769.6	0.000000	0.000000	6.412884	-0.003621	NaN	0.000000	0.001649	0.001624	28.1304	0.097515	0.001882	51.8114	-3.171559	15.8015	0.019289	0.411357	-0.684137	-0.685494	-0.003621	51.8114	-0.684084	-1.185926E+9	3.053012E-12	NaN
156	1.000000	0.422759	7.36657e+06	-46439.1	955.819	-29769.6	0.000000	0.000000	6.422930	0.034970	NaN	0.000000	0.001666	0.001615	28.0927	0.078524	0.001988	39.5082	-110.093	-166.607	0.042755	0.421442	-0.674092	-0.675409	0.034970	39.5082	-0.674756	-8.840317E+8	-3.955738E-11	NaN
156	1.000000	0.432739	7.36657e+06	-46439.1	955.819	-29769.6	0.000000	0.000000	6.432909	-0.006598	NaN	0.000000	0.001637	0.001616	28.0809	0.036534	0.001993	18.3322	167.954	13.9304	-0.050959	0.431370	-0.664112	-0.665481	-0.006598	18.3322	-0.663842	-6.267354E+8	1.052819E-11	NaN
156	1.000000	0.442750	7.36657e+06	-46439.1	955.818	-29769.6	0.000000	0.000000	6.442919	-0.015520	NaN	0.000000	0.001662	0.001591	28.1046	0.026838	0.002039	13.1632	60.1471	-168.705	-0.051798	0.441390	-0.654101	-0.655461	-0.015520	13.1632	-0.653217	-4.482631E+8	3.462220E-11	NaN
156	1.000000	0.452750	7.36657e+06	-46439.1	955.818	-29769.6	0.000000	0.000000	6.452918	-0.056114	NaN	0.000000	0.001667	0.001624	28.1294	0.073419	0.002102	34.9241	-86.4219	16.4933	0.003278	0.451385	-0.644101	-0.645466	-0.056114	34.9241	-0.642896	-3.236052E+8	1.734023E-10	NaN
156	1.000000	0.462750	7.36657e+06	-46439.1	955.819	-29769.6	0.000000	0.000000	6.462918	-0.027824	NaN	0.000000	0.001739	0.001654	28.0902	0.087217	0.002042	42.7158	-57.3955	-167.828	-0.025192	0.461462	-0.634101	-0.635389	-0.027824	42.7158	-0.633613	-2.413398E+8	1.152880E-10	NaN
156	1.000000	0.472747	7.36657e+06	-46439.1	955.818	-29769.6	0.000000	0.000000	6.472918	0.033707	NaN	0.000000	0.001678	0.001648	28.0808	0.021839	0.001944	11.2365	-20.4287	15.472	0.037606	0.471416	-0.624104	-0.625435	0.033707	11.2365	-0.626354	-1.918417E+8	-1.757025E-10	NaN
156	1.000000	0.482794	7.36657e+06	-46439.1	955.818	-29769.6	0.000000	0.000000	6.482961	-0.061065	NaN	0.000000	0.001684	0.001626	28.1065	0.030407	0.002179	13.9544	132.724	-165.416	-0.027769	0.481465	-0.614057	-0.615386	-0.061065	13.9544	-0.610775	-1.171604E+8	5.212054E-10	NaN
156	1.000000	0.492771	7.36657e+06	-46439.1	955.818	-29769.6	0.000000	0.000000	6.492939	-0.023585	NaN	0.000000	0.001629	0.001642	28.1315	0.102331	0.002004	51.0644	-85.3099	15.5905	-0.047256	0.491426	-0.604080	-0.605425	-0.023585	51.0644	-0.603734	-9.372956E+7	2.516255E-10	NaN
156	1.000000	0.502764	7.36657e+06	-46439.1	955.818	-29769.6	0.000000	0.000000	6.502932	-0.042148	NaN	0.000000	0.001635	0.001634	28.0927	0.083528	0.001832	45.5845	-114.112	-164.722	-0.062901	0.501490	-0.594087	-0.595361	-0.042148	45.5845	-0.593394	-6.752241E+7	6.242043E-10	NaN
156	1.000000	0.512773	7.36657e+06	-46439.1	955.818	-29769.6	0.000000	0.000000	6.512944	0.027330	NaN	0.000000	0.001644	0.001636	28.0831	0.020150	0.001993	10.1125	-102.611	12.3809	-0.008756	0.511405	-0.584078	-0.585446	0.027330	10.1125	-0.586105	-5.357409E+7	-5.101325E-10	NaN
156	1.000000	0.522742	7.36657e+06	-46439.1	955.818	-29769.6	0.000000	0.000000	6.522909	-0.062947	NaN	0.000000	0.001618	0.001664	28.1052	0.049574	0.001971	25.1508	-117.385	-163.952	-0.041921	0.521485	-0.574109	-0.575367	-0.062947	25.1508	-0.572232	-3.447230E+7	1.826029E-9	NaN
156	1.000000	0.532783	7.36657e+06	-46439.1	955.819	-29769.6	0.000000	0.000000	6.532950	-0.051681	NaN	0.000000	0.001613	0.001655	28.1306	0.046766	0.002063	22.6653	145.956	14.7741	0.052643	0.531419	-0.564068	-0.565432	-0.051681	22.6653	-0.562358	-2.517658E+7	2.052723E-9	NaN
156	1.000000	0.542743	7.36657e+06	-46439.1	955.819	-29769.6	0.000000	0.000000	6.542912	-0.006709	NaN	0.000000	0.001647	0.001648	28.0913	0.045831	0.002024	22.6484	170.686	-167.994	0.002235	0.541477	-0.554109	-0.555374	-0.006709	22.6484	-0.553886	-1.922088E+7	3.490634E-10	NaN
156	1.000000	0.552758	7.36657e+06	-46439.1	955.818	-29769.6	0.000000	0.000000	6.552924	-0.092393	NaN	0.000000	0.001626	0.001619	28.0811	0.060589	0.001978	30.6355	25.3972	15.7507	-0.062540	0.551430	-0.544093	-0.545422	-0.092393	30.6355	-0.541831	-1.308422E+7	7.061427E-9	NaN
156	1.000000	0.562791	7.36657e+06	-46439.1	955.818	-29769.6	0.000000	0.000000	6.562961	0.012241	NaN	0.000000	0.001629	0.001630	28.1057	0.072198	0.002128	33.9298	-98.1994	-167.337	0.014824	0.561514	-0.534060	-0.535337	0.012241	33.9298	-0.534331	-1.029677E+7	-1.188856E-9	NaN
156	1.000000	0.572807	7.36657e+06	-46439.1	955.819	-29769.6	0.000000	0.000000	6.572976	-0.016305	NaN	0.000000	0.001644	0.001616	28.1318	0.050175	0.001902	26.3864	129.488	16.4793	-0.024756	0.571437	-0.524044	-0.525414	-0.016305	26.3864	-0.523581	-7.30099e+06	2.233277E-9	NaN
156	1.000000	0.582821	7.36657e+06	-46439.1	955.819	-29769.6	0.000000	0.000000	6.582991	0.013155	NaN	0.000000	0.001654	0.001609	28.094	0.063797	0.001939	32.8986	-6.293933	-164.816	0.039841	0.581489	-0.514030	-0.515362	0.013155	32.8986	-0.514330	-5.4289e+06	-2.423114E-9	NaN
156	1.000000	0.592770	7.36657e+06	-46439.1	955.819	-29769.6	0.000000	0.000000	6.592939	-0.010142	NaN	0.000000	0.001635	0.001620	28.0815	0.039867	0.001865	21.3724	-167.716	11.0422	0.072934	0.591459	-0.504081	-0.505392	-0.010142	21.3724	-0.503725	-3.86341e+06	2.625136E-9	NaN
156	1.000000	0.602797	7.36657e+06	-46439.1	955.817	-29769.6	0.000000	0.000000	6.602966	-0.007348	NaN	0.000000	0.001662	0.001626	28.1055	0.050691	0.001978	25.6271	-39.488	-167.65	-0.063377	0.601488	-0.494054	-0.495363	-0.007348	25.6271	-0.493839	-2.81207e+06	2.613028E-9	NaN
156	1.000000	0.612818	7.36657e+06	-46439.1	955.819	-29769.6	0.000000	0.000000	6.612987	-0.023247	NaN	0.000000	0.001738	0.001645	28.1295	0.109921	0.001973	55.7188	173.108	14.0733	-0.038590	0.611464	-0.484033	-0.485388	-0.023247	55.7188	-0.483720	-2.03041e+06	1.144916E-8	NaN
156	1.000000	0.622829	7.36657e+06	-46439.1	955.819	-29769.6	0.000000	0.000000	6.622996	-0.050216	NaN	0.000000	0.001721	0.001666	28.0917	0.025635	0.001920	13.3513	-19.9948	-165.203	-0.002576	0.621468	-0.474022	-0.475383	-0.050216	13.3513	-0.471202	-1.35599e+06	3.703286E-8	NaN
156	1.000000	0.632869	7.36657e+06	-46439.1	955.818	-29769.6	0.000000	0.000000	6.633039	0.022078	NaN	0.000000	0.001703	0.001695	28.0802	0.031934	0.002068	15.4389	-171.52	13.3761	0.005903	0.631399	-0.463983	-0.465452	0.022078	15.4389	-0.465055	-1.11179e+06	-1.985794E-8	NaN
156	1.000000	0.642814	7.36657e+06	-46439.1	955.818	-29769.6	0.000000	0.000000	6.642984	0.014960	NaN	0.000000	0.001683	0.001719	28.1043	0.179101	0.001957	91.5129	-26.5332	-158.742	0.059697	0.641500	-0.454038	-0.455351	0.014960	91.5129	-0.454160	-781450	-1.914356E-8	NaN
156	1.000000	0.652814	7.36657e+06	-46439.1	955.818	-29769.6	0.000000	0.000000	6.652984	0.008746	NaN	0.000000	0.001669	0.001732	28.1305	0.082676	0.001867	44.281	131.251	14.6796	-0.005013	0.651472	-0.444037	-0.445379	0.008746	44.281	-0.444186	-565469	-1.546672E-8	NaN
156	1.000000	0.662868	7.36657e+06	-46439.1	955.818	-29769.6	0.000000	0.000000	6.663038	0.010633	NaN	0.000000	0.001631	0.001685	28.0924	0.028719	0.001978	14.5194	117.571	-164.915	-0.009016	0.661588	-0.433984	-0.435263	0.010633	14.5194	-0.434533	-413192	-2.573451E-8	NaN
156	1.000000	0.672830	7.36657e+06	-46439.1	955.819	-29769.6	0.000000	0.000000	6.673002	0.053233	NaN	0.000000	0.001604	0.001690	28.081	0.082301	0.001995	41.2583	87.9109	14.7408	0.056034	0.671471	-0.424021	-0.425380	0.053233	41.2583	-0.424989	-302781	-1.758130E-7	NaN
156	1.000000	0.682815	7.36657e+06	-46439.1	955.818	-29769.6	0.000000	0.000000	6.682983	-0.045005	NaN	0.000000	0.001593	0.001704	28.1039	0.063200	0.002037	31.0258	-102.633	-165.281	0.041598	0.681605	-0.414036	-0.415246	-0.045005	31.0258	-0.412948	-204317	2.202683E-7	NaN
156	1.000000	0.692883	7.36657e+06	-46439.1	955.819	-29769.6	0.000000	0.000000	6.693050	-0.061496	NaN	0.000000	0.001619	0.001716	28.1296	0.067680	0.001924	35.1824	-72.4507	15.4957	-0.026618	0.691491	-0.403968	-0.405360	-0.061496	35.1824	-0.402658	-145841	4.216651E-7	NaN
156	1.000000	0.702861	7.36657e+06	-46439.1	955.818	-29769.6	0.000000	0.000000	6.703032	0.032156	NaN	0.000000	0.001625	0.001655	28.0918	0.032052	0.001982	16.1676	-108.739	-162.116	0.038565	0.701585	-0.393990	-0.395266	0.032156	16.1676	-0.395481	-115216	-2.790924E-7	NaN
156	1.000000	0.712862	7.36657e+06	-46439.1	955.818	-29769.6	0.000000	0.000000	6.713029	-0.070137	NaN	0.000000	0.001637	0.001737	28.0809	0.022792	0.001945	11.7172	-50.1898	14.4966	0.021181	0.711539	-0.383989	-0.385312	-0.070137	11.7172	-0.379500	-68031.7	1.030951E-6	NaN
156	1.000000	0.722877	7.36657e+06	-46439.1	955.818	-29769.6	0.000000	0.000000	6.723043	-0.087498	NaN	0.000000	0.001646	0.001707	28.1046	0.088759	0.002135	41.565	-143.281	-163.213	-0.111083	0.721584	-0.373974	-0.375267	-0.087498	41.565	-0.372395	-53778.5	1.627007E-6	NaN
156	1.000000	0.732913	7.36657e+06	-46439.1	955.819	-29769.6	0.000000	0.000000	6.733082	-0.023041	NaN	0.000000	0.001640	0.001715	28.1309	0.074039	0.002079	35.6131	-26.8585	15.0314	0.007866	0.731534	-0.363938	-0.365317	-0.023041	35.6131	-0.363453	-39969.3	5.764791E-7	NaN
156	1.000000	0.742898	7.36657e+06	-46439.1	955.819	-29769.6	0.000000	0.000000	6.743068	0.026950	NaN	0.000000	0.001676	0.001671	28.0932	0.062650	0.002100	29.8398	-34.217	-165.405	-0.006364	0.741589	-0.353953	-0.355262	0.026950	29.8398	-0.354631	-29795.4	-9.044895E-7	NaN
156	1.000000	0.752907	7.36657e+06	-46439.1	955.817	-29769.6	0.000000	0.000000	6.753078	0.027856	NaN	0.000000	0.001620	0.001684	28.0812	0.069859	0.002122	32.9244	-42.8966	15.6304	-0.009730	0.751541	-0.343944	-0.345310	0.027856	32.9244	-0.344579	-21292.6	-1.308263E-6	NaN
156	1.000000	0.762863	7.36657e+06	-46439.1	955.819	-29769.6	0.000000	0.000000	6.763032	-0.014023	NaN	0.000000	0.001634	0.001653	28.1037	0.070775	0.001901	37.226	111.933	-169.236	-0.019586	0.761545	-0.333988	-0.335306	-0.014023	37.226	-0.333706	-14780	9.487859E-7	NaN
156	1.000000	0.772887	7.36657e+06	-46439.1	955.818	-29769.6	0.000000	0.000000	6.773057	0.022490	NaN	0.000000	0.001625	0.001716	28.1313	0.017531	0.001891	9.268789	64.2429	17.43	0.000757	0.771517	-0.323965	-0.325334	0.022490	9.268789	-0.325784	-11314.9	-1.987661E-6	NaN
156	1.000000	0.782879	7.36657e+06	-46439.1	955.818	-29769.6	0.000000	0.000000	6.783049	0.009750	NaN	0.000000	0.001597	0.001676	28.0936	0.083746	0.001923	43.555	8.590883	-165.577	0.013065	0.781592	-0.313972	-0.315260	0.009750	43.555	-0.314140	-7625.21	-1.278612E-6	NaN
156	1.000000	0.792895	7.36657e+06	-46439.1	955.817	-29769.6	0.000000	0.000000	6.793063	-0.043037	NaN	0.000000	0.001576	0.001701	28.08	0.018166	0.002015	9.017038	-69.3695	12.4249	-0.055093	0.791559	-0.303956	-0.305292	-0.043037	9.017038	-0.300377	-4766.98	9.028141E-6	NaN
156	1.000000	0.802897	7.36657e+06	-46439.1	955.818	-29769.6	0.000000	0.000000	6.803065	-0.047946	NaN	0.000000	0.001651	0.001693	28.1044	0.033316	0.002077	16.0397	128.758	-168.177	0.026576	0.801575	-0.293954	-0.295276	-0.047946	16.0397	-0.291712	-3539.49	1.354589E-5	NaN
156	1.000000	0.812906	7.36657e+06	-46439.1	955.818	-29769.6	0.000000	0.000000	6.813076	0.004880	NaN	0.000000	0.001621	0.001685	28.1322	0.078986	0.002097	37.6687	169.321	13.6328	-0.053616	0.811551	-0.283945	-0.285300	0.004880	37.6687	-0.284043	-2715.61	-1.796869E-6	NaN
156	1.000000	0.822904	7.36657e+06	-46439.1	955.818	-29769.6	0.000000	0.000000	6.823073	-0.023088	NaN	0.000000	0.001624	0.001672	28.0946	0.025236	0.002004	12.5899	35.41	-166.347	0.053639	0.821598	-0.273947	-0.275253	-0.023088	12.5899	-0.272572	-1822.22	1.267012E-5	NaN
156	1.000000	0.832905	7.36657e+06	-46439.1	955.818	-29769.6	0.000000	0.000000	6.833074	-0.029144	NaN	0.000000	0.001627	0.001657	28.0821	0.071226	0.001968	36.185	138.588	14.3223	-0.038381	0.831603	-0.263946	-0.265248	-0.029144	36.185	-0.263342	-1318.44	2.210510E-5	NaN
156	1.000000	0.842909	7.36657e+06	-46439.1	955.819	-29769.6	0.000000	0.000000	6.843079	-0.004404	NaN	0.000000	0.001610	0.001664	28.1035	0.116522	0.001963	59.3554	-80.4847	-166.709	-0.044375	0.841634	-0.253942	-0.255217	-0.004404	59.3554	-0.253886	-943.977	4.665766E-6	NaN
156	1.000000	0.852917	7.36657e+06	-46439.1	955.818	-29769.6	0.000000	0.000000	6.853086	-0.010271	NaN	0.000000	0.001645	0.001673	28.1316	0.070161	0.001913	36.6755	-64.4202	14.2822	-0.026881	0.851534	-0.243934	-0.245317	-0.010271	36.6755	-0.243724	-657.065	1.563221E-5	NaN
156	1.000000	0.862915	7.36657e+06	-46439.1	955.819	-29769.6	0.000000	0.000000	6.863082	-0.076550	NaN	0.000000	0.001616	0.001666	28.0932	0.072778	0.002065	35.2493	-174.621	-162.963	-0.093679	0.861638	-0.233936	-0.235213	-0.076550	35.2493	-0.232307	-435.409	0.000176	NaN
156	1.000000	0.872940	7.36657e+06	-46439.1	955.819	-29769.6	0.000000	0.000000	6.873110	0.008904	NaN	0.000000	0.001654	0.001662	28.0812	0.044964	0.001897	23.7067	-74.3828	14.7012	-0.065472	0.871585	-0.223911	-0.225266	0.008904	23.7067	-0.224193	-323.971	-2.748471E-5	NaN
156	1.000000	0.882939	7.36657e+06	-46439.1	955.818	-29769.6	0.000000	0.000000	6.883107	-0.040111	NaN	0.000000	0.001617	0.001641	28.1038	0.047490	0.002022	23.485	-16.6446	-164.042	-0.040968	0.881623	-0.213912	-0.215228	-0.040111	23.485	-0.212631	-211.518	0.000190	NaN
156	1.000000	0.892936	7.36657e+06	-46439.1	955.818	-29769.6	0.000000	0.000000	6.893104	-0.035669	NaN	0.000000	0.001675	0.001677	28.1316	0.033631	0.002080	16.1691	95.244	12.6573	-0.081348	0.891580	-0.203915	-0.205271	-0.035669	16.1691	-0.202261	-143.478	0.000249	NaN
156	1.000000	0.902934	7.36657e+06	-46439.1	955.818	-29769.6	0.000000	0.000000	6.903101	-0.055742	NaN	0.000000	0.001638	0.001680	28.0935	0.030940	0.002013	15.3736	-143.989	-166.986	-0.042839	0.901671	-0.193917	-0.195180	-0.055742	15.3736	-0.191198	-94.1927	0.000592	NaN
156	1.000000	0.912937	7.36657e+06	-46439.1	955.817	-29769.6	0.000000	0.000000	6.913105	-0.036545	NaN	0.000000	0.001634	0.001689	28.0791	0.036923	0.001937	19.0589	85.2832	12.1768	-0.046510	0.911605	-0.183914	-0.185246	-0.036545	19.0589	-0.182476	-67.2197	0.000544	NaN
156	1.000000	0.922946	7.36657e+06	-46439.1	955.818	-29769.6	0.000000	0.000000	6.923116	0.010163	NaN	0.000000	0.001672	0.001713	28.1019	0.072707	0.002025	35.9103	-55.012	-162.548	-0.000714	0.921608	-0.173906	-0.175243	0.010163	35.9103	-0.174118	-48.3959	-0.000210	NaN
156	1.000000	0.932951	7.36657e+06	-46439.1	955.819	-29769.6	0.000000	0.000000	6.933120	-0.032125	NaN	0.000000	0.001675	0.001668	28.1305	0.064967	0.002075	31.3018	103.684	14.6219	-0.035117	0.931580	-0.163900	-0.165271	-0.032125	31.3018	-0.163130	-31.1456	0.001031	NaN
156	1.000000	0.942983	7.36657e+06	-46439.1	955.818	-29769.6	0.000000	0.000000	6.943151	-0.028680	NaN	0.000000	0.001656	0.001699	28.0932	0.098933	0.001931	51.2427	50.6204	-162.782	0.026712	0.941620	-0.153868	-0.155232	-0.028680	51.2427	-0.153448	-20.922	0.001371	NaN
156	1.000000	0.952928	7.36657e+06	-46439.1	955.82	-29769.6	0.000000	0.000000	6.953093	-0.113761	NaN	0.000000	0.001654	0.001681	28.0801	0.040657	0.002040	19.9346	70.1562	15.1567	-0.024605	0.951602	-0.143923	-0.145249	-0.113761	19.9346	-0.139643	-11.6481	0.009766	NaN
156	1.000000	0.962994	7.36657e+06	-46439.1	955.819	-29769.6	0.000000	0.000000	6.963163	-0.016076	NaN	0.000000	0.001657	0.001684	28.1028	0.111524	0.001917	58.1847	-5.369519	-165.227	-0.039829	0.961616	-0.133857	-0.135235	-0.016076	58.1847	-0.133649	-8.962881	0.001794	NaN
156	1.000000	0.972974	7.36657e+06	-46439.1	955.819	-29769.6	0.000000	0.000000	6.973145	0.030953	NaN	0.000000	0.001623	0.001724	28.1314	0.067292	0.002080	32.3471	130.528	15.5493	-0.084665	0.971589	-0.123877	-0.125262	0.030953	32.3471	-0.124595	-5.969946	-0.005185	NaN
156	1.000000	0.982974	7.36657e+06	-46439.1	955.818	-29769.6	0.000000	0.000000	6.983144	0.006567	NaN	0.000000	0.001641	0.001719	28.093	0.120202	0.001935	62.1338	-10.6392	-164.968	0.079553	0.981618	-0.113877	-0.115233	0.006567	62.1338	-0.113957	-3.635359	-0.001806	NaN
156	1.000000	0.992994	7.36657e+06	-46439.1	955.819	-29769.6	0.000000	0.000000	6.993160	-0.095106	NaN	0.000000	0.001628	0.001725	28.0803	0.041706	0.002143	19.4637	49.6993	14.9308	-0.094971	0.991627	-0.103857	-0.105224	-0.095106	19.4637	-0.100192	-1.845144	0.051544	NaN
156	1.000000	1.002973	7.36657e+06	-46439.1	955.819	-29769.6	0.000000	0.000000	7.003143	0.014484	NaN	0.000000	0.001606	0.001721	28.1016	0.078380	0.001985	39.4766	-1.827484	-164.35	-0.025367	1.001695	-0.093879	-0.095156	0.014484	39.4766	-0.094154	-1.349232	-0.010735	NaN
156	1.000000	1.013030	7.36657e+06	-46439.1	955.819	-29769.6	0.000000	0.000000	7.013199	-0.016882	NaN	0.000000	0.001633	0.001730	28.1301	0.088639	0.002040	43.4584	-132.107	13.7021	0.005553	1.011606	-0.083821	-0.085246	-0.016882	43.4584	-0.083530	-0.756713	0.022310	NaN
156	1.000000	1.022993	7.36657e+06	-46439.1	955.818	-29769.6	0.000000	0.000000	7.023161	-0.031607	NaN	0.000000	0.001596	0.001683	28.0939	0.046343	0.001930	24.0114	-6.439089	-164.639	-0.057127	1.021658	-0.073858	-0.075193	-0.031607	24.0114	-0.072871	-0.406476	0.077759	NaN
156	1.000000	1.032992	7.36657e+06	-46439.1	955.817	-29769.6	0.000000	0.000000	7.033162	0.007043	NaN	0.000000	0.001584	0.001663	28.0805	0.039802	0.001910	20.8441	-119.979	17.3053	0.007069	1.031652	-0.063859	-0.065199	0.007043	20.8441	-0.064112	-0.235437	-0.029916	NaN
156	1.000000	1.042981	7.36657e+06	-46439.1	955.819	-29769.6	0.000000	0.000000	7.043151	0.004629	NaN	0.000000	0.001597	0.001640	28.1029	0.076251	0.001887	40.4177	125.633	-163.58	-0.006613	1.041671	-0.053870	-0.055181	0.004629	40.4177	-0.053956	-0.119922	-0.038599	NaN
156	1.000000	1.052985	7.36657e+06	-46439.1	955.819	-29769.6	0.000000	0.000000	7.053151	-0.095616	NaN	0.000000	0.001591	0.001690	28.1324	0.080818	0.002127	37.9937	71.9986	10.6079	-0.091102	1.051627	-0.043866	-0.045224	-0.095616	37.9937	-0.041979	-0.051955	1.840361	NaN
156	1.000000	1.063003	7.36657e+06	-46439.1	955.819	-29769.6	0.000000	0.000000	7.063172	-0.009840	NaN	0.000000	0.001622	0.001669	28.0953	0.084525	0.001949	43.3766	-150.109	-164.033	-0.010698	1.061713	-0.033848	-0.035138	-0.009840	43.3766	-0.033678	-0.029294	0.335892	NaN
156	1.000000	1.073000	7.36657e+06	-46439.1	955.818	-29769.6	0.000000	0.000000	7.073169	-0.006329	NaN	0.000000	0.001624	0.001675	28.0805	0.065427	0.002027	32.2772	5.098923	16.0246	0.029001	1.071686	-0.023852	-0.025165	-0.006329	32.2772	-0.023705	-0.015614	0.405325	NaN
156	1.000000	1.083025	7.36657e+06	-46439.1	955.819	-29769.6	0.000000	0.000000	7.083191	-0.077750	NaN	0.000000	0.001600	0.001671	28.1028	0.120782	0.002124	56.8713	-17.7122	-166.264	-0.041465	1.081725	-0.013826	-0.015126	-0.077750	56.8713	-0.012801	-0.007988	9.733704	NaN
156	1.000000	1.092995	7.36657e+06	-46439.1	955.818	-29769.6	0.000000	0.000000	7.093166	0.020191	NaN	0.000000	0.001590	0.001647	28.1316	0.042347	0.001986	21.3209	-146.382	14.8641	-0.004050	1.091630	-0.003856	-0.005222	0.020191	21.3209	-0.004566	-0.003142	-6.425919	NaN
156	1.000000	1.102997	7.36657e+06	-46439.1	955.819	-29769.6	0.000000	0.000000	7.103358	4.647563	NaN	0.000000	0.001613	0.001649	28.0948	5.395594	0.001824	2958.33	15.6118	-169.258	3.537710	1.101667	0.006146	0.004816	4.647563	2958.33	0.004968	0.004104	1132.38	42189.4
156	2.000000	1.108089	7.36657e+06	-46439.1	955.819	-29769.6	0.000000	0.000000	7.108668	9.945075	NaN	0.000000	0.001609	0.001681	28.0809	10.1096	0.001785	5665.19	6.806808	9.943435	9.627146	1.107801	0.011238	0.010950	9.945075	5665.19	0.009921	0.009094	1093.57	54275.9
156	2.000000	1.110586	7.36657e+06	-46439.1	955.819	-29769.6	0.000000	0.000000	7.111350	14.4519	NaN	0.000000	0.001567	0.001661	28.1022	12.5479	0.001737	7225.69	6.796334	-173.233	14.2356	1.110194	0.013735	0.013343	14.4519	7225.69	0.012235	0.011773	1227.55	60842.8
156	2.000000	1.113088	7.36657e+06	-46439.1	955.818	-29769.6	0.000000	0.000000	7.113972	17.3874	NaN	0.000000	0.001577	0.001639	28.1322	14.4072	0.001711	8420.12	3.963993	8.376223	16.3399	1.112719	0.016237	0.015868	17.3874	8420.12	0.014688	0.014872	1169.16	63082.7
156	2.000000	1.115596	7.36657e+06	-46439.1	955.819	-29769.6	0.000000	0.000000	7.116609	20.5097	NaN	0.000000	0.001566	0.001656	28.0956	16.8491	0.001789	9418.64	8.992864	-176.965	22.0058	1.115194	0.018745	0.018343	20.5097	9418.64	0.017111	0.018205	1126.6	63777.4
156	2.000000	1.118044	7.36657e+06	-46439.1	955.819	-29769.6	0.000000	0.000000	7.119216	24.3899	NaN	0.000000	0.001609	0.001635	28.0811	18.9287	0.001765	10722.3	7.603589	2.039825	24.2089	1.117662	0.021192	0.020811	24.3899	10722.3	0.019486	0.021742	1121.8	66437.9
156	2.000000	1.120543	7.36657e+06	-46439.1	955.818	-29769.6	0.000000	0.000000	7.121981	30.851	NaN	0.000000	0.001549	0.001651	28.1	21.7274	0.001807	12024.1	6.274038	-177.415	30.8971	1.120221	0.023692	0.023370	30.851	12024.1	0.021768	0.025397	1214.76	68934.7
156	2.000000	1.123061	7.36657e+06	-46439.1	955.819	-29769.6	0.000000	0.000000	7.124678	35.2209	NaN	0.000000	0.001580	0.001659	28.1308	23.3045	0.001820	12802.6	8.140334	2.010460	35.686	1.122648	0.026209	0.025797	35.2209	12802.6	0.024146	0.029480	1194.72	68124.6
156	2.000000	1.125486	7.36657e+06	-46439.1	955.818	-29769.6	0.000000	0.000000	7.127356	41.3596	NaN	0.000000	0.001571	0.001676	28.0939	25.6782	0.001769	14514.6	7.330627	179.672	41.0278	1.125246	0.028635	0.028395	41.3596	14514.6	0.026497	0.033796	1223.8	72134.6
156	2.000000	1.128006	7.36657e+06	-46439.1	955.818	-29769.6	0.000000	0.000000	7.130125	47.4209	NaN	0.000000	0.001550	0.001659	28.0807	28.6657	0.001716	16704.7	5.302843	0.344687	47.0014	1.127645	0.031155	0.030793	47.4209	16704.7	0.029026	0.038749	1223.81	77532.6
156	2.000000	1.130481	7.36657e+06	-46439.1	955.819	-29769.6	0.000000	0.000000	7.132932	55.5006	NaN	0.000000	0.001592	0.001636	28.101	32.0706	0.001812	17699	4.335050	-179.452	53.7274	1.130185	0.033630	0.033334	55.5006	17699	0.031278	0.043434	1277.82	77590.2
156	2.000000	1.132995	7.36657e+06	-46439.1	955.82	-29769.6	0.000000	0.000000	7.135767	63.2998	NaN	0.000000	0.001555	0.001690	28.1322	33.7578	0.001820	18550	5.466089	0.540371	61.8306	1.132671	0.036144	0.035820	63.2998	18550	0.033585	0.048502	1305.1	76955.2
156	2.000000	1.135465	7.36657e+06	-46439.1	955.818	-29769.6	0.000000	0.000000	7.138509	69.9375	NaN	0.000000	0.001546	0.001701	28.0955	35.6098	0.001768	20142.3	2.576690	-178.256	67.7426	1.135166	0.038613	0.038315	69.9375	20142.3	0.036009	0.054122	1292.21	79103.2
156	2.000000	1.137936	7.36657e+06	-46439.1	955.819	-29769.6	0.000000	0.000000	7.141251	76.4947	NaN	0.000000	0.001569	0.001696	28.081	38.8082	0.001817	21361.7	6.691685	-2.770064	72.6378	1.137652	0.041085	0.040801	76.4947	21361.7	0.038399	0.059957	1275.82	79705.7
156	2.000000	1.140472	7.36657e+06	-46439.1	955.819	-29769.6	0.000000	0.000000	7.144175	85.9503	NaN	0.000000	0.001592	0.001710	28.0995	41.036	0.001813	22631	3.794351	179.195	83.7212	1.140153	0.043621	0.043302	85.9503	22631	0.040772	0.066040	1301.5	80459
156	2.000000	1.142986	7.36657e+06	-46439.1	955.819	-29769.6	0.000000	0.000000	7.147145	97.0393	NaN	0.000000	0.001567	0.001734	28.1312	42.8581	0.001779	24085.6	4.435603	-1.681241	93.8565	1.142648	0.046135	0.045797	97.0393	24085.6	0.043113	0.072321	1341.79	81827.6
156	2.000000	1.145466	7.36657e+06	-46439.1	955.819	-29769.6	0.000000	0.000000	7.149957	105.12	NaN	0.000000	0.001617	0.001728	28.0941	45.1494	0.001742	25912.1	5.601844	176.939	104.815	1.145172	0.048615	0.048321	105.12	25912.1	0.045573	0.079221	1326.92	84111.7
156	2.000000	1.147915	7.36657e+06	-46439.1	955.819	-29769.6	0.000000	0.000000	7.152676	111.671	NaN	0.000000	0.001607	0.001702	28.0785	48.0792	0.001885	25512.7	3.320557	-1.389441	106.682	1.147622	0.051064	0.050771	111.671	25512.7	0.047781	0.085679	1303.38	79633.2
156	2.000000	1.150439	7.36657e+06	-46439.1	955.82	-29769.6	0.000000	0.000000	7.155693	123.679	NaN	0.000000	0.001599	0.001700	28.1015	49.7938	0.001861	26759.2	2.528058	-179.932	122.517	1.150170	0.053588	0.053319	123.679	26759.2	0.050121	0.092788	1332.92	80260.3
156	2.000000	1.152956	7.36657e+06	-46439.1	955.819	-29769.6	0.000000	0.000000	7.158717	136.022	NaN	0.000000	0.001627	0.001707	28.1328	51.7052	0.001682	30738.6	3.353697	-2.412636	133.113	1.152642	0.056104	0.055791	136.022	30738.6	0.052786	0.101217	1343.86	88273.4
156	2.000000	1.155469	7.36657e+06	-46439.1	955.819	-29769.6	0.000000	0.000000	7.161622	145.554	NaN	0.000000	0.001624	0.001718	28.0969	55.3778	0.001875	29538.8	9.440475	173.026	146.211	1.155069	0.058618	0.058218	145.554	29538.8	0.054922	0.108232	1344.83	82032.9
156	2.000000	1.157940	7.36657e+06	-46439.1	955.819	-29769.6	0.000000	0.000000	7.164726	160.936	NaN	0.000000	0.001621	0.001712	28.0814	56.9733	0.001775	32105.1	3.768789	-2.352642	156.818	1.157490	0.061089	0.060639	160.936	32105.1	0.057330	0.116407	1382.53	85972.2
156	2.000000	1.160456	7.36657e+06	-46439.1	955.82	-29769.6	0.000000	0.000000	7.167546	168.329	NaN	0.000000	0.001579	0.001700	28.1013	60.2854	0.001870	32234.2	5.185307	175.263	166.427	1.160211	0.063605	0.063360	168.329	32234.2	0.059688	0.124693	1349.94	83400.5
156	2.000000	1.162902	7.36657e+06	-46439.1	955.82	-29769.6	0.000000	0.000000	7.170712	185.842	NaN	0.000000	0.001594	0.001700	28.1318	61.5321	0.001852	33232.9	4.996715	-3.846991	183.032	1.162523	0.066051	0.065672	185.842	33232.9	0.061857	0.132551	1402.04	83396.9
156	2.000000	1.165417	7.36657e+06	-46439.1	955.82	-29769.6	0.000000	0.000000	7.173738	198.277	NaN	0.000000	0.001617	0.001687	28.0953	63.4895	0.001928	32935.3	5.858713	175.254	196.078	1.165151	0.068566	0.068300	198.277	32935.3	0.064051	0.140732	1408.9	80211.6
156	2.000000	1.167910	7.36657e+06	-46439.1	955.819	-29769.6	0.000000	0.000000	7.176719	210.156	NaN	0.000000	0.001637	0.001716	28.0807	65.5856	0.001780	36836.9	3.879208	-4.733640	207.162	1.167663	0.071059	0.070812	210.156	36836.9	0.066780	0.151236	1389.59	86542.2
156	2.000000	1.170436	7.36657e+06	-46439.1	955.819	-29769.6	0.000000	0.000000	7.179771	222.969	NaN	0.000000	0.001651	0.001728	28.1017	68.4522	0.001739	39354.8	5.648195	172.928	222.444	1.170234	0.073584	0.073383	222.969	39354.8	0.069335	0.161394	1381.52	89500.8
156	2.000000	1.172921	7.36657e+06	-46439.1	955.818	-29769.6	0.000000	0.000000	7.182853	237.468	NaN	0.000000	0.001697	0.001706	28.1328	69.9301	0.001783	39217.5	4.793613	-5.417293	234.322	1.172657	0.076070	0.075806	237.468	39217.5	0.071529	0.170362	1393.9	86809.3
156	2.000000	1.175436	7.36657e+06	-46439.1	955.819	-29769.6	0.000000	0.000000	7.185975	252.229	NaN	0.000000	0.001716	0.001676	28.0973	71.1815	0.001733	41082	1.610685	177.271	251.8	1.175161	0.078585	0.078310	252.229	41082	0.073981	0.180657	1396.18	88307.5
156	2.000000	1.177928	7.36657e+06	-46439.1	955.819	-29769.6	0.000000	0.000000	7.188948	263.937	NaN	0.000000	0.001705	0.001710	28.0815	74.7424	0.001787	41819.2	2.885185	-4.176728	260.883	1.177562	0.081077	0.080710	263.937	41819.2	0.076343	0.190843	1383	87460.1
156	2.000000	1.180389	7.36657e+06	-46439.1	955.818	-29769.6	0.000000	0.000000	7.192258	284.587	NaN	0.000000	0.001701	0.001696	28.1002	76.6523	0.001792	42771.4	1.096058	177.698	281.118	1.180099	0.083538	0.083248	284.587	42771.4	0.078547	0.200586	1418.78	87252.2
156	2.000000	1.182862	7.36657e+06	-46439.1	955.819	-29769.6	0.000000	0.000000	7.195098	293.529	NaN	0.000000	0.001703	0.001771	28.1313	78.253	0.001700	46019	1.973632	-4.375260	287.79	1.182678	0.086011	0.085827	293.529	46019	0.081227	0.212731	1379.81	91158.1
156	2.000000	1.185400	7.36657e+06	-46439.1	955.819	-29769.6	0.000000	0.000000	7.198954	325.574	NaN	0.000000	0.001753	0.001707	28.0955	80.9045	0.001676	48266.6	8.462260	169.011	323.493	1.184967	0.088549	0.088116	325.574	48266.6	0.083490	0.223252	1458.33	93330.1
156	2.000000	1.187862	7.36657e+06	-46439.1	955.819	-29769.6	0.000000	0.000000	7.201843	335.971	NaN	0.000000	0.001726	0.001675	28.079	83.6758	0.001762	47498.5	4.658490	-6.697492	331.847	1.187464	0.091011	0.090613	335.971	47498.5	0.085706	0.233780	1437.12	89753
156	2.000000	1.190421	7.36657e+06	-46439.1	955.818	-29769.6	0.000000	0.000000	7.205199	355.357	NaN	0.000000	0.001672	0.001699	28.1009	87.9087	0.001918	45834	10.4688	168.524	355.764	1.190062	0.093570	0.093211	355.357	45834	0.087755	0.243720	1458.06	84823.4
156	2.000000	1.192865	7.36657e+06	-46439.1	955.82	-29769.6	0.000000	0.000000	7.208352	372.613	NaN	0.000000	0.001681	0.001684	28.1312	87.991	0.001758	50049.7	6.819164	-9.413295	366.979	1.192539	0.096013	0.095688	372.613	50049.7	0.090430	0.256983	1449.95	90203.4
156	2.000000	1.195306	7.36657e+06	-46439.1	955.82	-29769.6	0.000000	0.000000	7.211369	386.598	NaN	0.000000	0.001670	0.001708	28.0958	89.101	0.001801	49484.2	2.596622	175.032	381.693	1.195052	0.098455	0.098201	386.598	49484.2	0.092596	0.267962	1442.73	87337.9
156	2.000000	1.197866	7.36657e+06	-46439.1	955.82	-29769.6	0.000000	0.000000	7.214721	405.873	NaN	0.000000	0.001679	0.001692	28.0812	91.9019	0.001849	49702.9	7.782737	-9.997457	399.571	1.197433	0.101015	0.100582	405.873	49702.9	0.094890	0.279831	1450.42	85843.4
156	2.000000	1.200431	7.36657e+06	-46439.1	955.819	-29769.6	0.000000	0.000000	7.218081	425.214	NaN	0.000000	0.001671	0.001657	28.0995	94.586	0.001756	53878.9	4.819037	172.44	425.343	1.200037	0.103580	0.103186	425.214	53878.9	0.097661	0.294480	1443.95	90711.9
156	2.000000	1.202951	7.36657e+06	-46439.1	955.818	-29769.6	0.000000	0.000000	7.221455	445.963	NaN	0.000000	0.001656	0.001723	28.1306	95.9818	0.001777	54014	4.401116	-7.262913	445.582	1.202724	0.106100	0.105872	445.963	54014	0.099908	0.306617	1454.47	89121.4
156	2.000000	1.204877	7.36657e+06	-46439.1	955.819	-29769.6	0.000000	0.000000	7.224008	461.226	NaN	0.000000	0.001646	0.001698	28.1305	99.8145	0.001799	55475.3	7.574440	-11.3401	456.7	1.204446	0.108026	0.107595	461.226	55475.3	0.101791	0.316964	1455.14	90026