File: remote_trans/data/nanoindenter/0828-1/data/Data_2025-08-06,11h17m57s/2025-07-22_16-23-58_1_1178.txt
2025-07-22, 16:23:58, 1
Index	Phase	Displacement	Time	Pos X	Pos Y	Pos Z	Rot A	Rot B	Piezo Z	Force A	Force B	Gripper	Voltage A	Voltage B	Temperature	Amplitude force	Amplitude pos	Stiffness	Phase shift	Phase excitation	Force A raw	Displacement raw	HMax	HMax raw	Real Force	Real Stiffness	Contact Depth	Area	Hardness	Reduced Mod.
[#]	[#]	[um]	[s]	[um]	[um]	[um]	[m°]	[m°]	[um]	[uN]	[uN]	[V]	[V]	[V]	[°C]	[uN]	[um]	[N/m]	[°]	[°]	[uN]	[um]	[um]	[um]	[uN]	[N/m]	[um]	[um^2]	[MPa]	[MPa]
1178	1.000000	0.002563	7.37657e+06	-56689.1	1105.82	-29738.3	0.000000	0.000000	6.002797	-0.081643	NaN	0.000000	0.001570	0.001644	28.0824	0.059261	0.001008	58.7961	112.661	-158.669	-0.095075	0.001346	-0.955269	-0.956487	-0.081643	58.7961	-0.954228	-5.483334E+12	1.488931E-14	NaN
1178	1.000000	0.010551	7.37657e+06	-56689.1	1105.82	-29738.3	0.000000	0.000000	6.010788	-0.000653	NaN	0.000000	0.001568	0.001670	28.0823	0.075815	0.001031	73.5094	-87.711	-167.107	0.028477	0.009214	-0.947282	-0.948619	-0.000653	73.5094	-0.947275	-4.418535E+12	1.476838E-16	NaN
1178	1.000000	0.018514	7.37657e+06	-56689.1	1105.82	-29738.3	0.000000	0.000000	6.018750	-0.012427	NaN	0.000000	0.001544	0.001670	28.082	0.039494	0.001708	23.1255	25.5007	-161.154	-0.008167	0.017212	-0.939319	-0.940621	-0.012427	23.1255	-0.938916	-3.408121E+12	3.646377E-15	NaN
1178	1.000000	0.026556	7.37657e+06	-56689.1	1105.82	-29738.3	0.000000	0.000000	6.026794	0.053008	NaN	0.000000	0.001544	0.001646	28.0821	0.030391	0.001904	15.9604	6.878416	-164.491	0.085465	0.025197	-0.931277	-0.932636	0.053008	15.9604	-0.933768	-2.904362E+12	-1.825106E-14	NaN
1178	1.000000	0.034517	7.37657e+06	-56689.1	1105.82	-29738.3	0.000000	0.000000	6.034753	-0.016659	NaN	0.000000	0.001556	0.001638	28.0836	0.081341	0.001863	43.6675	37.6376	-166.548	-0.071973	0.033205	-0.923316	-0.924628	-0.016659	43.6675	-0.923030	-2.080214E+12	8.008145E-15	NaN
1178	1.000000	0.042488	7.37657e+06	-56689.1	1105.82	-29738.3	0.000000	0.000000	6.042724	-0.014013	NaN	0.000000	0.001577	0.001638	28.0838	0.130804	0.001938	67.4884	-162.824	-168.439	0.014379	0.041213	-0.915345	-0.916619	-0.014013	67.4884	-0.915189	-1.630205E+12	8.596124E-15	NaN
1178	1.000000	0.050514	7.37657e+06	-56689.1	1105.82	-29738.3	0.000000	0.000000	6.050750	-0.013318	NaN	0.000000	0.001569	0.001663	28.0837	0.103857	0.001977	52.5375	23.7275	-166.77	-0.001869	0.049189	-0.907319	-0.908644	-0.013318	52.5375	-0.907129	-1.268750E+12	1.049697E-14	NaN
1178	1.000000	0.058490	7.37657e+06	-56689.1	1105.82	-29738.3	0.000000	0.000000	6.058726	-0.016032	NaN	0.000000	0.001534	0.001665	28.0833	0.017077	0.001982	8.618060	55.8102	-166.349	-0.018325	0.057193	-0.899343	-0.900640	-0.016032	8.618060	-0.897948	-9.535272E+11	1.681365E-14	NaN
1178	1.000000	0.066561	7.37657e+06	-56689.1	1105.82	-29738.3	0.000000	0.000000	6.066799	0.024400	NaN	0.000000	0.001592	0.001643	28.0835	0.064056	0.001993	32.1332	-58.0681	-163.049	0.046572	0.065221	-0.891272	-0.892612	0.024400	32.1332	-0.891841	-7.884987E+11	-3.094446E-14	NaN
1178	1.000000	0.074497	7.37657e+06	-56689.1	1105.82	-29738.3	0.000000	0.000000	6.074732	-0.032602	NaN	0.000000	0.001540	0.001611	28.0837	0.054841	0.002043	26.8394	-41.0179	-164.178	-0.016911	0.073248	-0.883336	-0.884585	-0.032602	26.8394	-0.882425	-5.881655E+11	5.543043E-14	NaN
1178	1.000000	0.082542	7.37657e+06	-56689.1	1105.82	-29738.3	0.000000	0.000000	6.082779	0.010357	NaN	0.000000	0.001520	0.001634	28.0836	0.112244	0.002021	55.5373	-76.7009	-162.603	0.040538	0.081178	-0.875291	-0.876655	0.010357	55.5373	-0.875431	-4.730505E+11	-2.189405E-14	NaN
1178	1.000000	0.090539	7.37657e+06	-56689.1	1105.82	-29738.3	0.000000	0.000000	6.090775	-0.011384	NaN	0.000000	0.001536	0.001633	28.0833	0.118333	0.001993	59.3642	-18.4786	-163.323	0.004027	0.089236	-0.867294	-0.868597	-0.011384	59.3642	-0.867150	-3.654940E+11	3.114604E-14	NaN
1178	1.000000	0.098529	7.37657e+06	-56689.1	1105.82	-29738.3	0.000000	0.000000	6.098767	0.033650	NaN	0.000000	0.001532	0.001653	28.0835	0.027728	0.001965	14.1132	-44.2281	-163.901	-0.005544	0.097243	-0.859304	-0.860589	0.033650	14.1132	-0.861092	-3.026200E+11	-1.111941E-13	NaN
1178	1.000000	0.106530	7.37657e+06	-56689.1	1105.82	-29738.3	0.000000	0.000000	6.106763	-0.073247	NaN	0.000000	0.001541	0.001634	28.0834	0.093746	0.001966	47.6882	62.5882	-165.404	-0.047664	0.105204	-0.851303	-0.852629	-0.073247	47.6882	-0.850151	-2.151714E+11	3.404108E-13	NaN
1178	1.000000	0.114520	7.37657e+06	-56689.1	1105.82	-29738.3	0.000000	0.000000	6.114754	-0.052692	NaN	0.000000	0.001559	0.001637	28.0835	0.113575	0.001899	59.8005	-154.019	-167.583	-0.013933	0.113255	-0.843313	-0.844578	-0.052692	59.8005	-0.842652	-1.703026E+11	3.094047E-13	NaN
1178	1.000000	0.122523	7.37657e+06	-56689.1	1105.82	-29738.3	0.000000	0.000000	6.122761	0.028868	NaN	0.000000	0.001497	0.001637	28.0839	0.080138	0.001960	40.8802	-133.55	-164.233	-0.018140	0.121243	-0.835310	-0.836590	0.028868	40.8802	-0.835840	-1.376965E+11	-2.096494E-13	NaN
1178	1.000000	0.130521	7.37657e+06	-56689.1	1105.82	-29738.3	0.000000	0.000000	6.130759	0.017550	NaN	0.000000	0.001529	0.001672	28.0837	0.030330	0.001897	15.9852	84.9954	-164.274	-0.006376	0.129196	-0.827311	-0.828637	0.017550	15.9852	-0.828135	-1.082689E+11	-1.620946E-13	NaN
1178	1.000000	0.138542	7.37657e+06	-56689.1	1105.82	-29738.3	0.000000	0.000000	6.138775	-0.077915	NaN	0.000000	0.001554	0.001685	28.0836	0.094185	0.002008	46.9088	-173.752	-165.955	-0.069334	0.137188	-0.819291	-0.820645	-0.077915	46.9088	-0.818045	-7.901311E+10	9.861026E-13	NaN
1178	1.000000	0.146548	7.37657e+06	-56689.1	1105.82	-29738.3	0.000000	0.000000	6.146783	-0.049152	NaN	0.000000	0.001551	0.001684	28.0835	0.071664	0.002134	33.5841	-129.009	-167.462	0.041224	0.145286	-0.811284	-0.812547	-0.049152	33.5841	-0.810187	-6.181644E+10	7.951321E-13	NaN
1178	1.000000	0.154575	7.37657e+06	-56689.1	1105.82	-29738.3	0.000000	0.000000	6.154810	-0.041694	NaN	0.000000	0.001542	0.001662	28.084	0.187557	0.001981	94.6572	-91.9992	-165.222	0.003866	0.153293	-0.803258	-0.804540	-0.041694	94.6572	-0.802927	-4.927179E+10	8.462016E-13	NaN
1178	1.000000	0.162549	7.37657e+06	-56689.1	1105.82	-29738.3	0.000000	0.000000	6.162785	-0.000172	NaN	0.000000	0.001526	0.001675	28.0835	0.003850	0.002037	1.890277	-77.484	-167.647	-0.003035	0.161237	-0.795284	-0.796596	-0.000172	1.890277	-0.795216	-3.871760E+10	4.454394E-15	NaN
1178	1.000000	0.170554	7.37657e+06	-56689.1	1105.82	-29738.3	0.000000	0.000000	6.170792	0.035511	NaN	0.000000	0.001497	0.001617	28.0826	0.100793	0.001961	51.3963	-39.7329	-164.495	-0.031385	0.169284	-0.787279	-0.788549	0.035511	51.3963	-0.787797	-3.070179E+10	-1.156646E-12	NaN
1178	1.000000	0.178556	7.37657e+06	-56689.1	1105.82	-29738.3	0.000000	0.000000	6.178790	-0.052299	NaN	0.000000	0.001541	0.001658	28.0826	0.074273	0.001922	38.6383	127.828	-160.089	0.036045	0.177221	-0.779277	-0.780612	-0.052299	38.6383	-0.778262	-2.278310E+10	2.295524E-12	NaN
1178	1.000000	0.186596	7.37657e+06	-56689.1	1105.82	-29738.3	0.000000	0.000000	6.186830	-0.067735	NaN	0.000000	0.001506	0.001621	28.0823	0.059100	0.002065	28.6197	-108.27	-167.13	0.027156	0.185265	-0.771237	-0.772568	-0.067735	28.6197	-0.769462	-1.729784E+10	3.915789E-12	NaN
1178	1.000000	0.194592	7.37657e+06	-56689.1	1105.82	-29738.3	0.000000	0.000000	6.194828	-0.020065	NaN	0.000000	0.001474	0.001609	28.0825	0.062432	0.001976	31.5925	171.838	-162.872	-0.013810	0.193274	-0.763241	-0.764559	-0.020065	31.5925	-0.762765	-1.402528E+10	1.430660E-12	NaN
1178	1.000000	0.202596	7.37657e+06	-56689.1	1105.82	-29738.3	0.000000	0.000000	6.202832	-0.023302	NaN	0.000000	0.001470	0.001602	28.0823	0.115979	0.002096	55.3405	-130.084	-162.281	0.008510	0.201242	-0.755236	-0.756591	-0.023302	55.3405	-0.754921	-1.096960E+10	2.124275E-12	NaN
1178	1.000000	0.210574	7.37657e+06	-56689.1	1105.82	-29738.3	0.000000	0.000000	6.210810	-0.029034	NaN	0.000000	0.001504	0.001639	28.0823	0.033150	0.001995	16.6185	117.834	-161.194	-0.002826	0.209250	-0.747259	-0.748582	-0.029034	16.6185	-0.745948	-8.280583E+9	3.506254E-12	NaN
1178	1.000000	0.218568	7.37657e+06	-56689.1	1105.82	-29738.3	0.000000	0.000000	6.218807	0.066883	NaN	0.000000	0.001505	0.001639	28.0821	0.106224	0.002025	52.4541	83.9088	-166.611	-0.019709	0.217271	-0.739265	-0.740562	0.066883	52.4541	-0.740222	-6.919491E+9	-9.665842E-12	NaN
1178	1.000000	0.226554	7.37657e+06	-56689.1	1105.82	-29738.3	0.000000	0.000000	6.226788	-0.052859	NaN	0.000000	0.001546	0.001624	28.0821	0.091844	0.001985	46.2736	75.1634	-166.813	-0.062138	0.225278	-0.731279	-0.732555	-0.052859	46.2736	-0.730422	-5.088171E+9	1.038870E-11	NaN
1178	1.000000	0.234603	7.37657e+06	-56689.1	1105.82	-29738.3	0.000000	0.000000	6.234839	-0.014994	NaN	0.000000	0.001488	0.001644	28.0823	0.020886	0.002117	9.866624	51.2943	-166.791	-0.064688	0.233300	-0.723230	-0.724533	-0.014994	9.866624	-0.722091	-3.917254E+9	3.827612E-12	NaN
1178	1.000000	0.242588	7.37657e+06	-56689.1	1105.82	-29738.3	0.000000	0.000000	6.242822	-0.064659	NaN	0.000000	0.001536	0.001625	28.0823	0.101354	0.001839	55.1058	-6.417503	-164.255	-0.074970	0.241270	-0.715245	-0.716563	-0.064659	55.1058	-0.714365	-3.073333E+9	2.103883E-11	NaN
1178	1.000000	0.250604	7.37657e+06	-56689.1	1105.82	-29738.3	0.000000	0.000000	6.250841	0.012095	NaN	0.000000	0.001524	0.001606	28.0824	0.061367	0.001839	33.3646	165.657	-164.991	0.017994	0.249313	-0.707228	-0.708520	0.012095	33.3646	-0.707500	-2.477038E+9	-4.882718E-12	NaN
1178	1.000000	0.258596	7.37657e+06	-56689.1	1105.82	-29738.3	0.000000	0.000000	6.258833	-0.000582	NaN	0.000000	0.001554	0.001638	28.0822	0.074790	0.001907	39.2227	165.817	-164.821	-0.040080	0.257261	-0.699237	-0.700572	-0.000582	39.2227	-0.699225	-1.909648E+9	3.049241E-13	NaN
1178	1.000000	0.266634	7.37657e+06	-56689.1	1105.82	-29738.3	0.000000	0.000000	6.266867	-0.074592	NaN	0.000000	0.001519	0.001661	28.0822	0.038613	0.001992	19.3856	-22.0836	-166.444	-0.022553	0.265287	-0.691199	-0.692546	-0.074592	19.3856	-0.688313	-1.354778E+9	5.505845E-11	NaN
1178	1.000000	0.274611	7.37657e+06	-56689.1	1105.82	-29738.3	0.000000	0.000000	6.274848	0.018372	NaN	0.000000	0.001513	0.001650	28.0825	0.052571	0.002032	25.8777	29.5032	-165.508	-0.041186	0.273276	-0.683222	-0.684556	0.018372	25.8777	-0.683754	-1.173664E+9	-1.565355E-11	NaN
1178	1.000000	0.282610	7.37657e+06	-56689.1	1105.82	-29738.3	0.000000	0.000000	6.282848	0.049405	NaN	0.000000	0.001548	0.001658	28.0821	0.049658	0.002103	23.6171	-119.824	-167.12	0.037755	0.281325	-0.675223	-0.676508	0.049405	23.6171	-0.676792	-9.426047E+8	-5.241283E-11	NaN
1178	1.000000	0.290614	7.37657e+06	-56689.1	1105.82	-29738.3	0.000000	0.000000	6.290851	0.009836	NaN	0.000000	0.001505	0.001627	28.0822	0.098833	0.002094	47.1941	141.799	-168.032	-0.053123	0.289302	-0.667219	-0.668531	0.009836	47.1941	-0.667375	-7.005796E+8	-1.403987E-11	NaN
1178	1.000000	0.298616	7.37657e+06	-56689.1	1105.82	-29738.3	0.000000	0.000000	6.298851	-0.040819	NaN	0.000000	0.001498	0.001621	28.0823	0.048907	0.001898	25.7632	-129.216	-166.944	-0.088772	0.297314	-0.659217	-0.660519	-0.040819	25.7632	-0.658029	-5.217515E+8	7.823392E-11	NaN
1178	1.000000	0.306632	7.37657e+06	-56689.1	1105.82	-29738.3	0.000000	0.000000	6.306869	0.023875	NaN	0.000000	0.001537	0.001659	28.0829	0.064244	0.002031	31.6395	-67.3161	-162.798	0.085123	0.305352	-0.651201	-0.652481	0.023875	31.6395	-0.651767	-4.282104E+8	-5.575603E-11	NaN
1178	1.000000	0.314622	7.37657e+06	-56689.1	1105.82	-29738.3	0.000000	0.000000	6.314858	-0.019873	NaN	0.000000	0.001520	0.001653	28.0832	0.142874	0.002179	65.5676	-148.043	-164.83	-0.032922	0.313334	-0.643211	-0.644499	-0.019873	65.5676	-0.642984	-3.245045E+8	6.124130E-11	NaN
1178	1.000000	0.322629	7.37657e+06	-56689.1	1105.82	-29738.3	0.000000	0.000000	6.322866	0.011664	NaN	0.000000	0.001538	0.001631	28.0833	0.031876	0.001958	16.2789	-90.6113	-165.751	-0.038574	0.321307	-0.635204	-0.636526	0.011664	16.2789	-0.635741	-2.581351E+8	-4.518648E-11	NaN
1178	1.000000	0.330626	7.37657e+06	-56689.1	1105.82	-29738.3	0.000000	0.000000	6.330861	-0.018670	NaN	0.000000	0.001546	0.001604	28.0836	0.085519	0.001915	44.647	-42.9606	-166.517	-0.002073	0.329373	-0.627207	-0.628460	-0.018670	44.647	-0.626894	-1.951453E+8	9.567398E-11	NaN
1178	1.000000	0.338613	7.37657e+06	-56689.1	1105.82	-29738.3	0.000000	0.000000	6.338847	-0.061347	NaN	0.000000	0.001558	0.001618	28.0835	0.094747	0.001982	47.7986	-129.432	-164	-0.214979	0.337333	-0.619219	-0.620500	-0.061347	47.7986	-0.618257	-1.484814E+8	4.131613E-10	NaN
1178	1.000000	0.346612	7.37657e+06	-56689.1	1105.82	-29738.3	0.000000	0.000000	6.346845	-0.108193	NaN	0.000000	0.001547	0.001609	28.0835	0.074105	0.001918	38.6423	-75.8643	-165.87	-0.050336	0.345358	-0.611220	-0.612475	-0.108193	38.6423	-0.609121	-1.111768E+8	9.731621E-10	NaN
1178	1.000000	0.354632	7.37657e+06	-56689.1	1105.82	-29738.3	0.000000	0.000000	6.354867	-0.030896	NaN	0.000000	0.001506	0.001632	28.0835	0.022564	0.001926	11.7132	95.7156	-165.336	-0.053460	0.353363	-0.603201	-0.604470	-0.030896	11.7132	-0.601223	-8.655636E+7	3.569523E-10	NaN
1178	1.000000	0.362585	7.37657e+06	-56689.1	1105.82	-29738.3	0.000000	0.000000	6.362822	-0.002732	NaN	0.000000	0.001549	0.001648	28.0833	0.041631	0.002011	20.6978	15.6526	-162.053	0.022117	0.361336	-0.595248	-0.596497	-0.002732	20.6978	-0.595149	-7.138907E+7	3.827177E-11	NaN
1178	1.000000	0.370656	7.37657e+06	-56689.1	1105.82	-29738.3	0.000000	0.000000	6.370893	0.003387	NaN	0.000000	0.001576	0.001636	28.0833	0.073778	0.002032	36.2992	-125.876	-165.498	-0.017597	0.369365	-0.587177	-0.588468	0.003387	36.2992	-0.587247	-5.555289E+7	-6.096808E-11	NaN
1178	1.000000	0.378656	7.37657e+06	-56689.1	1105.82	-29738.3	0.000000	0.000000	6.378890	-0.051031	NaN	0.000000	0.001541	0.001634	28.0833	0.077827	0.001929	40.3469	73.4494	-167.706	-0.011952	0.377354	-0.579177	-0.580479	-0.051031	40.3469	-0.578228	-4.171301E+7	1.223377E-9	NaN
1178	1.000000	0.386645	7.37657e+06	-56689.1	1105.82	-29738.3	0.000000	0.000000	6.386879	-0.055753	NaN	0.000000	0.001568	0.001644	28.0837	0.093191	0.001981	47.0323	103.732	-163.947	-0.056780	0.385311	-0.571188	-0.572522	-0.055753	47.0323	-0.570299	-3.241634E+7	1.719919E-9	NaN
1178	1.000000	0.394654	7.37657e+06	-56689.1	1105.82	-29738.3	0.000000	0.000000	6.394889	-0.028939	NaN	0.000000	0.001550	0.001604	28.0831	0.063051	0.002107	29.9287	-44.971	-165.223	-0.017635	0.393385	-0.563179	-0.564448	-0.028939	29.9287	-0.562454	-2.525329E+7	1.145965E-9	NaN
1178	1.000000	0.402673	7.37657e+06	-56689.1	1105.82	-29738.3	0.000000	0.000000	6.402908	-0.042347	NaN	0.000000	0.001507	0.001595	28.0833	0.042600	0.002053	20.7478	-78.4196	-165.374	-0.023361	0.401341	-0.555160	-0.556492	-0.042347	20.7478	-0.553629	-1.906379E+7	2.221313E-9	NaN
1178	1.000000	0.410670	7.37657e+06	-56689.1	1105.82	-29738.3	0.000000	0.000000	6.410905	-0.021893	NaN	0.000000	0.001537	0.001627	28.0831	0.113939	0.002019	56.4198	18.4047	-164.702	-0.004365	0.409302	-0.547163	-0.548531	-0.021893	56.4198	-0.546872	-1.536819E+7	1.424597E-9	NaN
1178	1.000000	0.418661	7.37657e+06	-56689.1	1105.82	-29738.3	0.000000	0.000000	6.418896	-0.035580	NaN	0.000000	0.001561	0.001631	28.0833	0.005221	0.001913	2.728419	96.6973	-165.265	-0.057975	0.417335	-0.539172	-0.540498	-0.035580	2.728419	-0.529391	-8.79265e+06	4.046596E-9	NaN
1178	1.000000	0.426724	7.37657e+06	-56689.1	1105.82	-29738.3	0.000000	0.000000	6.426960	-0.021653	NaN	0.000000	0.001527	0.001618	28.0834	0.057002	0.001973	28.8978	17.0881	-165.203	-0.047711	0.425355	-0.531109	-0.532478	-0.021653	28.8978	-0.530547	-9.1237e+06	2.373314E-9	NaN
1178	1.000000	0.434682	7.37657e+06	-56689.1	1105.82	-29738.3	0.000000	0.000000	6.434918	0.004994	NaN	0.000000	0.001519	0.001637	28.0832	0.079389	0.001985	39.9983	154.228	-163.176	-0.061994	0.433421	-0.523151	-0.524412	0.004994	39.9983	-0.523245	-7.22298e+06	-6.913441E-10	NaN
1178	1.000000	0.442662	7.37657e+06	-56689.1	1105.82	-29738.3	0.000000	0.000000	6.442897	-0.025808	NaN	0.000000	0.001519	0.001619	28.0836	0.071402	0.001896	37.665	-116.083	-162.614	-0.061411	0.441359	-0.515171	-0.516474	-0.025808	37.665	-0.514657	-5.48611e+06	4.704261E-9	NaN
1178	1.000000	0.450654	7.37657e+06	-56689.1	1105.82	-29738.3	0.000000	0.000000	6.450887	-0.080368	NaN	0.000000	0.001519	0.001651	28.0821	0.051735	0.001875	27.5877	-16.9164	-166.054	-0.083270	0.449348	-0.507179	-0.508485	-0.080368	27.5877	-0.504994	-4.02404e+06	1.997190E-8	NaN
1178	1.000000	0.458676	7.37657e+06	-56689.1	1105.82	-29738.3	0.000000	0.000000	6.458913	-0.008945	NaN	0.000000	0.001493	0.001697	28.0822	0.087559	0.002172	40.3219	-74.6408	-165.102	-0.005437	0.457343	-0.499157	-0.500490	-0.008945	40.3219	-0.498990	-3.3184e+06	2.695495E-9	NaN
1178	1.000000	0.466671	7.37657e+06	-56689.1	1105.82	-29738.3	0.000000	0.000000	6.466905	-0.077402	NaN	0.000000	0.001532	0.001690	28.0821	0.043445	0.002091	20.7733	44.6987	-165.367	-0.053951	0.465341	-0.491161	-0.492492	-0.077402	20.7733	-0.488367	-2.35814e+06	3.282318E-8	NaN
1178	1.000000	0.474705	7.37657e+06	-56689.1	1105.82	-29738.3	0.000000	0.000000	6.474939	-0.050253	NaN	0.000000	0.001546	0.001689	28.0821	0.175590	0.002032	86.4071	36.1386	-163.999	-0.047790	0.473413	-0.483128	-0.484420	-0.050253	86.4071	-0.482692	-1.96427e+06	2.558364E-8	NaN
1178	1.000000	0.482667	7.37657e+06	-56689.1	1105.82	-29738.3	0.000000	0.000000	6.482903	-0.015975	NaN	0.000000	0.001562	0.001673	28.0823	0.071530	0.002062	34.6945	60.6446	-164.323	-0.006243	0.481370	-0.475166	-0.476463	-0.015975	34.6945	-0.474821	-1.52401e+06	1.048228E-8	NaN
1178	1.000000	0.490673	7.37657e+06	-56689.1	1105.82	-29738.3	0.000000	0.000000	6.490908	-0.037711	NaN	0.000000	0.001531	0.001664	28.082	0.043216	0.002065	20.9228	-125.042	-166.194	-0.035173	0.489416	-0.467160	-0.468416	-0.037711	20.9228	-0.465808	-1.13917e+06	3.310392E-8	NaN
1178	1.000000	0.498690	7.37657e+06	-56689.1	1105.82	-29738.3	0.000000	0.000000	6.498924	-0.066772	NaN	0.000000	0.001529	0.001684	28.0824	0.022883	0.001923	11.8999	54.713	-163.273	-0.058136	0.497361	-0.459143	-0.460471	-0.066772	11.8999	-0.454934	-801299	8.333030E-8	NaN
1178	1.000000	0.506703	7.37657e+06	-56689.1	1105.82	-29738.3	0.000000	0.000000	6.506938	-0.021370	NaN	0.000000	0.001487	0.001699	28.0823	0.140248	0.002084	67.2986	-156.094	-165.171	0.022133	0.505387	-0.451130	-0.452446	-0.021370	67.2986	-0.450892	-702919	3.040122E-8	NaN
1178	1.000000	0.514713	7.37657e+06	-56689.1	1105.82	-29738.3	0.000000	0.000000	6.514948	-0.041407	NaN	0.000000	0.001503	0.001689	28.0822	0.042203	0.002108	20.0244	73.6319	-164.738	-0.029882	0.513376	-0.443120	-0.444457	-0.041407	20.0244	-0.441569	-519398	7.972052E-8	NaN
1178	1.000000	0.522717	7.37657e+06	-56689.1	1105.82	-29738.3	0.000000	0.000000	6.522951	-0.069680	NaN	0.000000	0.001504	0.001683	28.0822	0.100171	0.002051	48.8288	42.5735	-164.769	-0.018803	0.521381	-0.435116	-0.436452	-0.069680	48.8288	-0.434046	-406693	1.713337E-7	NaN
1178	1.000000	0.530703	7.37657e+06	-56689.1	1105.82	-29738.3	0.000000	0.000000	6.530939	-0.009294	NaN	0.000000	0.001489	0.001644	28.0821	0.025732	0.001865	13.7968	-157.001	-166.567	-0.009600	0.529404	-0.427130	-0.428429	-0.009294	13.7968	-0.426625	-319367	2.910146E-8	NaN
1178	1.000000	0.538703	7.37657e+06	-56689.1	1105.82	-29738.3	0.000000	0.000000	6.538938	-0.026198	NaN	0.000000	0.001531	0.001626	28.0825	0.066167	0.001956	33.8311	-155.979	-160.552	0.005360	0.537421	-0.419130	-0.420412	-0.026198	33.8311	-0.418549	-245379	1.067659E-7	NaN
1178	1.000000	0.546736	7.37657e+06	-56689.1	1105.82	-29738.3	0.000000	0.000000	6.546970	-0.061332	NaN	0.000000	0.001562	0.001629	28.0827	0.089263	0.001991	44.8245	103.136	-163.115	-0.100347	0.545378	-0.411097	-0.412455	-0.061332	44.8245	-0.410071	-185955	3.298227E-7	NaN
1178	1.000000	0.554698	7.37657e+06	-56689.1	1105.82	-29738.3	0.000000	0.000000	6.554937	0.047827	NaN	0.000000	0.001540	0.001616	28.0823	0.046791	0.001926	24.2921	147.419	-162.845	-0.031191	0.553415	-0.403135	-0.404418	0.047827	24.2921	-0.404611	-155494	-3.075802E-7	NaN
1178	1.000000	0.562726	7.37657e+06	-56689.1	1105.82	-29738.3	0.000000	0.000000	6.562962	0.002929	NaN	0.000000	0.001510	0.001610	28.0821	0.058719	0.002004	29.3012	136.932	-165.469	0.022731	0.561446	-0.395107	-0.396387	0.002929	29.3012	-0.395182	-114087	-2.567496E-8	NaN
1178	1.000000	0.570723	7.37657e+06	-56689.1	1105.82	-29738.3	0.000000	0.000000	6.570959	-0.014217	NaN	0.000000	0.001558	0.001576	28.0821	0.042169	0.002076	20.3105	-70.1676	-167.133	0.000854	0.569382	-0.387109	-0.388451	-0.014217	20.3105	-0.386584	-85957.2	1.654019E-7	NaN
1178	1.000000	0.578770	7.37657e+06	-56689.1	1105.82	-29738.3	0.000000	0.000000	6.579004	-0.073275	NaN	0.000000	0.001519	0.001602	28.0826	0.018043	0.002004	9.002956	-65.3908	-166.392	-0.033285	0.577456	-0.379063	-0.380377	-0.073275	9.002956	-0.372959	-54791.4	1.337350E-6	NaN
1178	1.000000	0.586739	7.37657e+06	-56689.1	1105.82	-29738.3	0.000000	0.000000	6.586976	0.007622	NaN	0.000000	0.001530	0.001586	28.0835	0.008334	0.001972	4.226750	42.5662	-169.392	0.036083	0.585414	-0.371093	-0.372419	0.007622	4.226750	-0.372446	-53868.7	-1.414885E-7	NaN
1178	1.000000	0.594744	7.37657e+06	-56689.1	1105.82	-29738.3	0.000000	0.000000	6.594977	-0.080430	NaN	0.000000	0.001501	0.001616	28.0835	0.074605	0.002042	36.5305	63.4841	-165.43	-0.050952	0.593444	-0.363089	-0.364388	-0.080430	36.5305	-0.361438	-37378.7	2.151750E-6	NaN
1178	1.000000	0.602774	7.37657e+06	-56689.1	1105.82	-29738.3	0.000000	0.000000	6.603010	-0.015489	NaN	0.000000	0.001540	0.001609	28.0834	0.064005	0.002107	30.3734	-61.0867	-164.049	-0.006508	0.601416	-0.355059	-0.356417	-0.015489	30.3734	-0.354677	-29841	5.190389E-7	NaN
1178	1.000000	0.610751	7.37657e+06	-56689.1	1105.82	-29738.3	0.000000	0.000000	6.610984	-0.068174	NaN	0.000000	0.001544	0.001593	28.0834	0.091211	0.002033	44.8659	-168.665	-166.672	-0.180715	0.609439	-0.347082	-0.348393	-0.068174	44.8659	-0.345943	-22287.7	3.058820E-6	NaN
1178	1.000000	0.618761	7.37657e+06	-56689.1	1105.82	-29738.3	0.000000	0.000000	6.618998	0.028004	NaN	0.000000	0.001525	0.001617	28.0832	0.141940	0.001923	73.7986	-16.0967	-166.009	-0.013102	0.617464	-0.339072	-0.340369	0.028004	73.7986	-0.339357	-17872.1	-1.566909E-6	NaN
1178	1.000000	0.626743	7.37657e+06	-56689.1	1105.82	-29738.3	0.000000	0.000000	6.626980	0.027881	NaN	0.000000	0.001568	0.001627	28.0833	0.035648	0.002024	17.6143	176.81	-164.62	-0.012732	0.625480	-0.331090	-0.332353	0.027881	17.6143	-0.332277	-14085.9	-1.979330E-6	NaN
1178	1.000000	0.634766	7.37657e+06	-56689.1	1105.82	-29738.3	0.000000	0.000000	6.635002	-0.027731	NaN	0.000000	0.001615	0.001610	28.0834	0.070289	0.002043	34.4092	-132.157	-162.792	0.029810	0.633438	-0.323067	-0.324395	-0.027731	34.4092	-0.322462	-10112.5	2.742284E-6	NaN
1178	1.000000	0.642745	7.37657e+06	-56689.1	1105.82	-29738.3	0.000000	0.000000	6.642979	-0.063446	NaN	0.000000	0.001598	0.001632	28.0834	0.065249	0.002099	31.0804	-29.4918	-165.306	-0.037831	0.641428	-0.315087	-0.316405	-0.063446	31.0804	-0.313556	-7475.41	8.487277E-6	NaN
1178	1.000000	0.650735	7.37657e+06	-56689.1	1105.82	-29738.3	0.000000	0.000000	6.650970	-0.038712	NaN	0.000000	0.001584	0.001605	28.0837	0.127001	0.001941	65.4145	149.457	-161.208	-0.076584	0.649461	-0.307097	-0.308372	-0.038712	65.4145	-0.306654	-5908.62	6.551749E-6	NaN
1178	1.000000	0.658749	7.37657e+06	-56689.1	1105.82	-29738.3	0.000000	0.000000	6.658982	-0.084670	NaN	0.000000	0.001615	0.001602	28.0833	0.051438	0.001984	25.9297	161.126	-164.609	-0.051708	0.657422	-0.299084	-0.300410	-0.084670	25.9297	-0.296635	-4192.63	2.019504E-5	NaN
1178	1.000000	0.666779	7.37657e+06	-56689.1	1105.82	-29738.3	0.000000	0.000000	6.667016	-0.010266	NaN	0.000000	0.001619	0.001611	28.0835	0.096112	0.001893	50.7814	86.5147	-163.746	-0.027615	0.665447	-0.291053	-0.292386	-0.010266	50.7814	-0.290902	-3441.99	2.982521E-6	NaN
1178	1.000000	0.674795	7.37657e+06	-56689.1	1105.82	-29738.3	0.000000	0.000000	6.675031	-0.027512	NaN	0.000000	0.001582	0.001627	28.0835	0.058428	0.002084	28.0379	-170.046	-166.028	-0.017670	0.673498	-0.283038	-0.284335	-0.027512	28.0379	-0.282302	-2556.62	1.076089E-5	NaN
1178	1.000000	0.682787	7.37657e+06	-56689.1	1105.82	-29738.3	0.000000	0.000000	6.683022	-0.022608	NaN	0.000000	0.001603	0.001601	28.0834	0.029379	0.002029	14.4819	-38.5358	-164.572	-0.050994	0.681460	-0.275046	-0.276373	-0.022608	14.4819	-0.273875	-1907.06	1.185469E-5	NaN
1178	1.000000	0.690775	7.37657e+06	-56689.1	1105.82	-29738.3	0.000000	0.000000	6.691011	-0.021965	NaN	0.000000	0.001580	0.001630	28.0841	0.036787	0.001884	19.5256	60.0707	-165.627	-0.050947	0.689489	-0.267058	-0.268344	-0.021965	19.5256	-0.266214	-1458.5	1.506007E-5	NaN
1178	1.000000	0.698780	7.37657e+06	-56689.1	1105.82	-29738.3	0.000000	0.000000	6.699011	-0.126015	NaN	0.000000	0.001601	0.001581	28.0835	0.054729	0.001766	30.9939	41.9361	-168.089	0.003109	0.697433	-0.259053	-0.260400	-0.126015	30.9939	-0.256004	-1017.57	0.000124	NaN
1178	1.000000	0.706814	7.37657e+06	-56689.1	1105.82	-29738.3	0.000000	0.000000	6.707050	-0.024403	NaN	0.000000	0.001602	0.001612	28.0835	0.135216	0.001972	68.5609	91.2098	-164.676	-0.020882	0.705498	-0.251019	-0.252335	-0.024403	68.5609	-0.250752	-844.485	2.889696E-5	NaN
1178	1.000000	0.714771	7.37657e+06	-56689.1	1105.82	-29738.3	0.000000	0.000000	6.715005	-0.064232	NaN	0.000000	0.001608	0.001622	28.0833	0.110433	0.002095	52.7241	-62.844	-162.32	-0.118018	0.713552	-0.243062	-0.244281	-0.064232	52.7241	-0.242148	-620.968	0.000103	NaN
1178	1.000000	0.722783	7.37657e+06	-56689.1	1105.82	-29738.3	0.000000	0.000000	6.723017	-0.042445	NaN	0.000000	0.001566	0.001606	28.0823	0.102571	0.001897	54.0637	68.8079	-164.214	-0.057048	0.721494	-0.235050	-0.236339	-0.042445	54.0637	-0.234461	-470.749	9.016581E-5	NaN
1178	1.000000	0.730802	7.37657e+06	-56689.1	1105.82	-29738.3	0.000000	0.000000	6.731039	-0.002531	NaN	0.000000	0.001572	0.001647	28.0824	0.070540	0.002038	34.6096	117.52	-163.518	-0.001638	0.729464	-0.227030	-0.228369	-0.002531	34.6096	-0.226975	-358.654	7.058052E-6	NaN
1178	1.000000	0.738788	7.37657e+06	-56689.1	1105.82	-29738.3	0.000000	0.000000	6.739021	-0.106917	NaN	0.000000	0.001565	0.001567	28.0823	0.049523	0.001943	25.4895	-78.4995	-164.124	-0.117095	0.737474	-0.219045	-0.220359	-0.106917	25.4895	-0.215899	-238.759	0.000448	NaN
1178	1.000000	0.746855	7.37657e+06	-56689.1	1105.82	-29738.3	0.000000	0.000000	6.747091	-0.008369	NaN	0.000000	0.001500	0.001575	28.0824	0.061110	0.002092	29.2143	-138.11	-166.232	-0.010175	0.745550	-0.210978	-0.212282	-0.008369	29.2143	-0.210763	-197.321	4.241178E-5	NaN
1178	1.000000	0.754804	7.37657e+06	-56689.1	1105.82	-29738.3	0.000000	0.000000	6.755038	-0.044935	NaN	0.000000	0.001554	0.001551	28.0824	0.108025	0.002042	52.9071	33.9291	-166.448	-0.052159	0.753516	-0.203029	-0.204317	-0.044935	52.9071	-0.202392	-144.192	0.000312	NaN
1178	1.000000	0.762838	7.37657e+06	-56689.1	1105.82	-29738.3	0.000000	0.000000	6.763074	-0.003738	NaN	0.000000	0.001537	0.001604	28.0823	0.068462	0.002048	33.4365	-42.1032	-163.696	-0.078896	0.761474	-0.194995	-0.196359	-0.003738	33.4365	-0.194911	-108.576	3.443163E-5	NaN
1178	1.000000	0.770791	7.37657e+06	-56689.1	1105.82	-29738.3	0.000000	0.000000	6.771029	0.019151	NaN	0.000000	0.001546	0.001626	28.0822	0.093998	0.002033	46.2388	172.939	-166.495	-0.077119	0.769533	-0.187041	-0.188300	0.019151	46.2388	-0.187352	-81.2254	-0.000236	NaN
1178	1.000000	0.778819	7.37657e+06	-56689.1	1105.82	-29738.3	0.000000	0.000000	6.779054	-0.056267	NaN	0.000000	0.001578	0.001641	28.0824	0.044263	0.001972	22.4451	-164.227	-167.187	-0.066910	0.777447	-0.179013	-0.180385	-0.056267	22.4451	-0.177133	-54.5202	0.001032	NaN
1178	1.000000	0.786792	7.37657e+06	-56689.1	1105.82	-29738.3	0.000000	0.000000	6.787026	-0.062557	NaN	0.000000	0.001540	0.001632	28.0825	0.019068	0.002069	9.215557	-98.0546	-165.478	-0.086779	0.785467	-0.171041	-0.172366	-0.062557	9.215557	-0.165950	-34.9113	0.001792	NaN
1178	1.000000	0.794840	7.37657e+06	-56689.1	1105.82	-29738.3	0.000000	0.000000	6.795075	-0.034089	NaN	0.000000	0.001548	0.001615	28.0825	0.087414	0.002078	42.0615	-154.584	-164.827	-0.033130	0.793585	-0.162993	-0.164248	-0.034089	42.0615	-0.162385	-30.2168	0.001128	NaN
1178	1.000000	0.802834	7.37657e+06	-56689.1	1105.82	-29738.3	0.000000	0.000000	6.803071	-0.009451	NaN	0.000000	0.001555	0.001596	28.0824	0.052886	0.001894	27.9299	91.6423	-166.925	0.002494	0.801510	-0.154998	-0.156323	-0.009451	27.9299	-0.154745	-22.0792	0.000428	NaN
1178	1.000000	0.810823	7.37657e+06	-56689.1	1105.82	-29738.3	0.000000	0.000000	6.811058	-0.024918	NaN	0.000000	0.001567	0.001588	28.0823	0.127246	0.001987	64.0354	-107.866	-166.959	0.013987	0.809502	-0.147010	-0.148331	-0.024918	64.0354	-0.146718	-15.7717	0.001580	NaN
1178	1.000000	0.818817	7.37657e+06	-56689.1	1105.82	-29738.3	0.000000	0.000000	6.819053	-0.016533	NaN	0.000000	0.001552	0.001578	28.0822	0.052414	0.001945	26.9512	-27.6233	-163.887	-0.066825	0.817551	-0.139015	-0.140281	-0.016533	26.9512	-0.138555	-11.1114	0.001488	NaN
1178	1.000000	0.826833	7.37657e+06	-56689.1	1105.82	-29738.3	0.000000	0.000000	6.827071	0.054806	NaN	0.000000	0.001541	0.001600	28.0823	0.098934	0.002045	48.3894	108.502	-164.814	0.092279	0.825566	-0.131000	-0.132267	0.054806	48.3894	-0.131850	-8.276087	-0.006622	NaN
1178	1.000000	0.834841	7.37657e+06	-56689.1	1105.82	-29738.3	0.000000	0.000000	6.835077	-0.029558	NaN	0.000000	0.001551	0.001603	28.0823	0.054462	0.002055	26.5027	-32.4055	-166.94	-0.049183	0.833560	-0.122992	-0.124273	-0.029558	26.5027	-0.122155	-5.338124	0.005537	NaN
1178	1.000000	0.842832	7.37657e+06	-56689.1	1105.82	-29738.3	0.000000	0.000000	6.843066	-0.067148	NaN	0.000000	0.001523	0.001595	28.0823	0.067271	0.002124	31.676	-152.376	-165.693	-0.109224	0.841558	-0.115001	-0.116275	-0.067148	31.676	-0.113411	-3.541873	0.018958	NaN
1178	1.000000	0.850858	7.37657e+06	-56689.1	1105.82	-29738.3	0.000000	0.000000	6.851092	-0.075640	NaN	0.000000	0.001579	0.001608	28.0822	0.081303	0.001914	42.4757	-56.2946	-167.101	-0.001371	0.849522	-0.106974	-0.108311	-0.075640	42.4757	-0.105639	-2.426331	0.031175	NaN
1178	1.000000	0.858836	7.37657e+06	-56689.1	1105.82	-29738.3	0.000000	0.000000	6.859072	-0.022486	NaN	0.000000	0.001573	0.001616	28.0836	0.101184	0.001917	52.7811	77.5334	-162.511	-0.046523	0.857586	-0.098996	-0.100247	-0.022486	52.7811	-0.098677	-1.707420	0.013169	NaN
1178	1.000000	0.866851	7.37657e+06	-56689.1	1105.82	-29738.3	0.000000	0.000000	6.867088	0.003551	NaN	0.000000	0.001532	0.001596	28.0834	0.049009	0.002090	23.4442	-142.151	-165.986	-0.060663	0.865528	-0.090982	-0.092305	0.003551	23.4442	-0.091095	-1.146645	-0.003096	NaN
1178	1.000000	0.874829	7.37657e+06	-56689.1	1105.82	-29738.3	0.000000	0.000000	6.875066	0.002290	NaN	0.000000	0.001524	0.001622	28.0831	0.087907	0.002101	41.8339	115.4	-169.142	-0.113804	0.873600	-0.083004	-0.084233	0.002290	41.8339	-0.083045	-0.736301	-0.003110	NaN
1178	1.000000	0.882881	7.37657e+06	-56689.1	1105.82	-29738.3	0.000000	0.000000	6.883118	0.010837	NaN	0.000000	0.001551	0.001621	28.0835	0.101422	0.001995	50.8292	-89.0907	-162.123	-0.008373	0.881530	-0.074952	-0.076303	0.010837	50.8292	-0.075112	-0.464950	-0.023307	NaN
1178	1.000000	0.890861	7.37657e+06	-56689.1	1105.82	-29738.3	0.000000	0.000000	6.891095	-0.059041	NaN	0.000000	0.001542	0.001620	28.0833	0.050092	0.002111	23.7236	-19.9397	-167.726	-0.016615	0.889540	-0.066972	-0.068293	-0.059041	23.7236	-0.065106	-0.250902	0.235316	NaN
1178	1.000000	0.898836	7.37657e+06	-56689.1	1105.82	-29738.3	0.000000	0.000000	6.899071	-0.051242	NaN	0.000000	0.001537	0.001643	28.0837	0.020395	0.002055	9.925937	157.542	-165.608	0.017740	0.897523	-0.058996	-0.060310	-0.051242	9.925937	-0.055125	-0.129874	0.394553	NaN
1178	1.000000	0.906865	7.37657e+06	-56689.1	1105.82	-29738.3	0.000000	0.000000	6.907099	-0.066888	NaN	0.000000	0.001531	0.001635	28.0833	0.028262	0.002007	14.0798	-109.642	-166.74	-0.023169	0.905561	-0.050968	-0.052271	-0.066888	14.0798	-0.047405	-0.076108	0.878862	NaN
1178	1.000000	0.914860	7.37657e+06	-56689.1	1105.82	-29738.3	0.000000	0.000000	6.915098	0.038814	NaN	0.000000	0.001530	0.001656	28.0834	0.082524	0.002103	39.2379	62.9695	-166.396	0.033691	0.913538	-0.042973	-0.044295	0.038814	39.2379	-0.043715	-0.058706	-0.661162	NaN
1178	1.000000	0.922875	7.37657e+06	-56689.1	1105.82	-29738.3	0.000000	0.000000	6.923109	-0.051421	NaN	0.000000	0.001547	0.001657	28.0834	0.077142	0.001990	38.7649	-73.5093	-165.08	0.020085	0.921565	-0.034958	-0.036268	-0.051421	38.7649	-0.033963	-0.029860	1.722104	NaN
1178	1.000000	0.930871	7.37657e+06	-56689.1	1105.82	-29738.3	0.000000	0.000000	6.931102	-0.128636	NaN	0.000000	0.001558	0.001673	28.0833	0.020402	0.001854	11.0025	120.425	-169.238	-0.071284	0.929588	-0.026962	-0.028245	-0.128636	11.0025	-0.018194	-0.011292	11.3917	NaN
1178	1.000000	0.938891	7.37657e+06	-56689.1	1105.82	-29738.3	0.000000	0.000000	6.939128	0.004354	NaN	0.000000	0.001574	0.001674	28.0837	0.104241	0.002015	51.7264	35.6407	-164.245	-0.022813	0.937572	-0.018942	-0.020261	0.004354	51.7264	-0.019005	-0.011848	-0.367490	NaN
1178	1.000000	0.946881	7.37657e+06	-56689.1	1105.82	-29738.3	0.000000	0.000000	6.947135	0.430318	NaN	0.000000	0.001543	0.001640	28.0833	0.674661	0.002047	329.625	24.181	-167.109	0.361946	0.945608	-0.010952	-0.012225	0.430318	329.625	-0.011931	-0.007489	-57.458	NaN
1178	1.000000	0.954852	7.37657e+06	-56689.1	1105.82	-29738.3	0.000000	0.000000	6.955137	1.188945	NaN	0.000000	0.001569	0.001652	28.0837	1.686359	0.001916	879.997	24.1118	-162.559	0.899832	0.953586	-0.002981	-0.004247	1.188945	879.997	-0.003994	-0.002775	-428.411	NaN
1178	1.000000	0.962749	7.37658e+06	-56689.1	1105.82	-29738.3	0.000000	0.000000	6.963345	8.742704	NaN	0.000000	0.001569	0.001623	28.0838	8.621077	0.001558	5534.41	2.229213	-171.777	6.838298	0.961545	0.004916	0.003712	8.742704	5534.41	0.003731	0.003005	2909.81	92247.3
1178	2.000000	0.965418	7.37658e+06	-56689.1	1105.82	-29738.3	0.000000	0.000000	6.966226	13.906	NaN	0.000000	0.001521	0.001678	28.0836	11.7099	0.001519	7710.22	6.724250	-174.004	12.9491	0.965116	0.007585	0.007283	13.906	7710.22	0.006232	0.005286	2630.61	96887.3
1178	2.000000	0.967389	7.37658e+06	-56689.1	1105.82	-29738.3	0.000000	0.000000	6.968358	17.7961	NaN	0.000000	0.001546	0.001682	28.0849	13.9188	0.001732	8036.31	9.753961	-176.519	16.7201	0.967096	0.009556	0.009263	17.7961	8036.31	0.007895	0.006935	2566.21	88168.6
1178	2.000000	0.969418	7.37658e+06	-56689.1	1105.82	-29738.3	0.000000	0.000000	6.970639	23.9204	NaN	0.000000	0.001558	0.001674	28.0835	16.3335	0.001767	9243.1	5.948799	-174.319	23.7564	0.969098	0.011585	0.011265	23.9204	9243.1	0.009644	0.008789	2721.61	90078.2
1178	2.000000	0.971332	7.37658e+06	-56689.1	1105.82	-29738.3	0.000000	0.000000	6.972798	29.8951	NaN	0.000000	0.001565	0.001667	28.0823	18.9295	0.001716	11028.7	10.9329	176.256	28.2922	0.971033	0.013499	0.013200	29.8951	11028.7	0.011466	0.010857	2753.65	96706
1178	2.000000	0.973410	7.37658e+06	-56689.1	1105.82	-29738.3	0.000000	0.000000	6.975090	35.0672	NaN	0.000000	0.001540	0.001730	28.0824	21.3086	0.001723	12364.6	7.235866	179.665	35.3671	0.973040	0.015577	0.015207	35.0672	12364.6	0.013450	0.013274	2641.79	98050.8
1178	2.000000	0.975335	7.37658e+06	-56689.1	1105.82	-29738.3	0.000000	0.000000	6.977439	45.387	NaN	0.000000	0.001566	0.001689	28.0824	22.4226	0.001740	12885.4	5.216894	-177.853	43.2992	0.975023	0.017502	0.017190	45.387	12885.4	0.014860	0.015100	3005.85	95804.9
1178	2.000000	0.977363	7.37658e+06	-56689.1	1105.82	-29738.3	0.000000	0.000000	6.979760	52.5291	NaN	0.000000	0.001568	0.001770	28.0829	24.9371	0.001833	13604.8	8.987688	177.977	51.9458	0.977036	0.019530	0.019203	52.5291	13604.8	0.016634	0.017526	2997.16	93890.2
1178	2.000000	0.979347	7.37658e+06	-56689.1	1105.82	-29738.3	0.000000	0.000000	6.982081	60.7027	NaN	0.000000	0.001560	0.001740	28.082	26.3685	0.001812	14549.2	5.475868	-178.875	58.4228	0.979076	0.021514	0.021243	60.7027	14549.2	0.018385	0.020068	3024.84	93834.1
1178	2.000000	0.981344	7.37658e+06	-56689.1	1105.82	-29738.3	0.000000	0.000000	6.984359	67.5326	NaN	0.000000	0.001533	0.001737	28.0824	28.8776	0.001717	16821.8	9.498207	175.147	67.2875	0.981080	0.023511	0.023247	67.5326	16821.8	0.020500	0.023335	2894.08	100610
1178	2.000000	0.983379	7.37658e+06	-56689.1	1105.82	-29738.3	0.000000	0.000000	6.986702	75.0135	NaN	0.000000	0.001576	0.001701	28.0825	30.5478	0.001811	16872.5	3.307507	-178.164	76.6211	0.983071	0.025546	0.025238	75.0135	16872.5	0.022212	0.026138	2869.89	95348.7
1178	2.000000	0.985342	7.37658e+06	-56689.1	1105.82	-29738.3	0.000000	0.000000	6.989144	86.6549	NaN	0.000000	0.001580	0.001679	28.0823	32.4115	0.001833	17677.8	7.831075	175.812	85.4066	0.985014	0.027510	0.027181	86.6549	17677.8	0.023833	0.028927	2995.64	94961.8
1178	2.000000	0.987318	7.37658e+06	-56689.1	1105.82	-29738.3	0.000000	0.000000	6.991395	93.3496	NaN	0.000000	0.001587	0.001663	28.0826	34.8992	0.001807	19317.8	3.972438	178.765	91.2053	0.987064	0.029485	0.029231	93.3496	19317.8	0.025861	0.032600	2863.47	97751.1
1178	2.000000	0.989328	7.37658e+06	-56689.1	1105.82	-29738.3	0.000000	0.000000	6.993825	103.54	NaN	0.000000	0.001588	0.001700	28.0823	36.6252	0.001845	19845.9	4.321962	179.688	103.334	0.988953	0.031495	0.031120	103.54	19845.9	0.027583	0.035882	2885.57	95720.6
1178	2.000000	0.991324	7.37658e+06	-56689.1	1105.82	-29738.3	0.000000	0.000000	6.996190	112.512	NaN	0.000000	0.001548	0.001683	28.0824	37.4835	0.001726	21722.4	1.808901	-179.912	112.214	0.990931	0.033492	0.033098	112.512	21722.4	0.029607	0.039933	2817.53	99314.9
1178	2.000000	0.993285	7.37658e+06	-56689.1	1105.82	-29738.3	0.000000	0.000000	6.998467	120.2	NaN	0.000000	0.001593	0.001730	28.0824	40.7813	0.001835	22224.3	3.857802	178.577	119.2	0.993077	0.035452	0.035244	120.2	22224.3	0.031396	0.043686	2751.45	97147
1178	2.000000	0.995351	7.37658e+06	-56689.1	1105.82	-29738.3	0.000000	0.000000	7.000952	130.39	NaN	0.000000	0.001566	0.001722	28.0821	41.1184	0.001737	23674.8	4.657555	175.79	130.122	0.994873	0.037518	0.037040	130.39	23674.8	0.033387	0.048058	2713.2	98668
1178	2.000000	0.997295	7.37658e+06	-56689.1	1105.82	-29738.3	0.000000	0.000000	7.002967	132.106	NaN	0.000000	0.001579	0.001724	28.0829	43.8061	0.001897	23087.5	4.159563	176.862	129.695	0.996949	0.039462	0.039116	132.106	23087.5	0.035171	0.052144	2533.49	92373.7
1178	2.000000	0.999406	7.37658e+06	-56689.1	1105.82	-29738.3	0.000000	0.000000	7.005346	138.623	NaN	0.000000	0.001577	0.001693	28.082	45.4319	0.001913	23749.6	7.186022	174.809	142.882	0.999004	0.041573	0.041171	138.623	23749.6	0.037196	0.056982	2432.74	90899.3
1178	2.000000	1.001280	7.37658e+06	-56689.1	1105.82	-29738.3	0.000000	0.000000	7.007644	148.928	NaN	0.000000	0.001553	0.001692	28.0822	45.4249	0.001794	25316.2	4.115615	177.212	146.36	1.000859	0.043448	0.043027	148.928	25316.2	0.039036	0.061560	2419.26	93223.1
1178	2.000000	1.003246	7.37658e+06	-56689.1	1105.82	-29738.3	0.000000	0.000000	7.009989	158.143	NaN	0.000000	0.001550	0.001676	28.0822	48.179	0.001808	26643.3	4.196954	175.453	155.192	1.003016	0.045414	0.045183	158.143	26643.3	0.040962	0.066538	2376.73	94368.3
1178	2.000000	1.005311	7.37658e+06	-56689.1	1105.82	-29738.3	0.000000	0.000000	7.012227	162.35	NaN	0.000000	0.001586	0.001681	28.0834	49.5882	0.001911	25942.4	7.077846	174.189	162.077	1.004883	0.047478	0.047051	162.35	25942.4	0.042785	0.071423	2273.07	88687.9
1178	2.000000	1.007266	7.37658e+06	-56689.1	1105.82	-29738.3	0.000000	0.000000	7.014440	168.633	NaN	0.000000	0.001567	0.001686	28.0836	51.3123	0.001839	27909.8	4.478815	175.238	167.018	1.007027	0.049433	0.049194	168.633	27909.8	0.044901	0.077307	2181.35	91710.8
1178	2.000000	1.009314	7.37658e+06	-56689.1	1105.82	-29738.3	0.000000	0.000000	7.016768	175.407	NaN	0.000000	0.001574	0.001696	28.0835	53.4065	0.001923	27769.1	7.386502	172.94	174.618	1.008937	0.051481	0.051104	175.407	27769.1	0.046744	0.082615	2123.18	88268.2
1178	2.000000	1.011256	7.37658e+06	-56689.1	1105.82	-29738.3	0.000000	0.000000	7.019036	183.351	NaN	0.000000	0.001577	0.001711	28.0837	53.3449	0.001935	27572.4	4.740200	176.083	182.562	1.011037	0.053424	0.053204	183.351	27572.4	0.048436	0.087641	2092.07	85093.1
1178	2.000000	1.013201	7.37658e+06	-56689.1	1105.82	-29738.3	0.000000	0.000000	7.021317	191.523	NaN	0.000000	0.001552	0.001700	28.0834	55.0484	0.001932	28486.4	1.516593	178.402	187.205	1.012983	0.055368	0.055151	191.523	28486.4	0.050326	0.093422	2050.08	85150.2
1178	2.000000	1.015239	7.37658e+06	-56689.1	1105.82	-29738.3	0.000000	0.000000	7.023526	195.66	NaN	0.000000	0.001569	0.001707	28.0836	55.3663	0.001762	31419.9	3.127847	175.644	192.613	1.014896	0.057406	0.057063	195.66	31419.9	0.052736	0.101057	1936.14	90301.4
1178	2.000000	1.017280	7.37658e+06	-56689.1	1105.82	-29738.3	0.000000	0.000000	7.025811	201.613	NaN	0.000000	0.001557	0.001680	28.0834	57.3614	0.001863	30794.5	3.196771	175.63	201.414	1.016970	0.059447	0.059137	201.613	30794.5	0.054536	0.106949	1885.13	86031.6
1178	2.000000	1.019294	7.37658e+06	-56689.1	1105.82	-29738.3	0.000000	0.000000	7.028331	213.904	NaN	0.000000	0.001550	0.001695	28.0833	58.3125	0.001894	30788.7	3.859302	176.213	212.838	1.018890	0.061462	0.061057	213.904	30788.7	0.056251	0.112709	1897.85	83788.7
1178	2.000000	1.021323	7.37658e+06	-56689.1	1105.82	-29738.3	0.000000	0.000000	7.030234	210.833	NaN	0.000000	0.001632	0.001688	28.0833	60.6745	0.001945	31193.1	8.035606	170.669	214.301	1.021035	0.063491	0.063202	210.833	31193.1	0.058421	0.120208	1753.9	82198.6
1178	2.000000	1.023317	7.37658e+06	-56689.1	1105.82	-29738.3	0.000000	0.000000	7.032677	221.736	NaN	0.000000	0.001595	0.001663	28.0832	62.3524	0.001823	34198	12.5501	166.483	224.237	1.022897	0.065485	0.065064	221.736	34198	0.060622	0.128047	1731.68	87314.9
1178	2.000000	1.025237	7.37658e+06	-56689.1	1105.82	-29738.3	0.000000	0.000000	7.034943	230.166	NaN	0.000000	0.001559	0.001668	28.0835	62.549	0.001882	33233.4	6.277855	171.442	228.013	1.025041	0.067404	0.067208	230.166	33233.4	0.062209	0.133850	1719.58	82992.5
1178	2.000000	1.027285	7.37658e+06	-56689.1	1105.82	-29738.3	0.000000	0.000000	7.037324	238.277	NaN	0.000000	0.001588	0.001681	28.0833	63.5401	0.001812	35064.4	2.688203	175.229	239.149	1.026941	0.069452	0.069108	238.277	35064.4	0.064355	0.141887	1679.34	85048.7
1178	2.000000	1.029344	7.37658e+06	-56689.1	1105.82	-29738.3	0.000000	0.000000	7.039572	242.846	NaN	0.000000	0.001596	0.001715	28.0837	65.4407	0.001862	35148.9	7.410162	171.163	244.073	1.029013	0.071511	0.071180	242.846	35148.9	0.066329	0.149477	1624.64	83061.1
1178	2.000000	1.031236	7.37658e+06	-56689.1	1105.82	-29738.3	0.000000	0.000000	7.041739	249.534	NaN	0.000000	0.001545	0.001703	28.0835	65.1899	0.001747	37319.9	2.380501	175.249	244.924	1.030969	0.073403	0.073136	249.534	37319.9	0.068388	0.157594	1583.4	85890.4
1178	2.000000	1.033197	7.37658e+06	-56689.1	1105.82	-29738.3	0.000000	0.000000	7.043990	256.568	NaN	0.000000	0.001608	0.001693	28.0831	68.8085	0.001952	35249.8	6.743162	171.777	252.933	1.032908	0.075365	0.075076	256.568	35249.8	0.069906	0.163704	1567.27	79597.5
1178	2.000000	1.035246	7.37658e+06	-56689.1	1105.82	-29738.3	0.000000	0.000000	7.046539	268.722	NaN	0.000000	0.001547	0.001705	28.0834	69.649	0.001891	36836.2	8.457046	169.747	267.403	1.034924	0.077413	0.077091	268.722	36836.2	0.071942	0.172078	1561.63	81130.7
1178	2.000000	1.037244	7.37658e+06	-56689.1	1105.82	-29738.3	0.000000	0.000000	7.048750	273.921	NaN	0.000000	0.001578	0.001712	28.0831	70.2886	0.001727	40688.9	0.138995	176.758	272.598	1.036885	0.079411	0.079053	273.921	40688.9	0.074362	0.182283	1502.73	87071.5
1178	2.000000	1.039169	7.37658e+06	-56689.1	1105.82	-29738.3	0.000000	0.000000	7.050967	281.022	NaN	0.000000	0.001560	0.001680	28.0822	73.4378	0.001840	39913.1	3.605219	173.67	276.047	1.038914	0.081336	0.081081	281.022	39913.1	0.076056	0.189590	1482.26	83749.1
1178	2.000000	1.041179	7.37658e+06	-56689.1	1105.82	-29738.3	0.000000	0.000000	7.053297	288.786	NaN	0.000000	0.001534	0.001676	28.082	74.4667	0.001961	37978.6	1.547946	176.192	283.898	1.040849	0.083346	0.083016	288.786	37978.6	0.077643	0.196561	1469.19	78264.3
1178	2.000000	1.043206	7.37658e+06	-56689.1	1105.82	-29738.3	0.000000	0.000000	7.055711	298.196	NaN	0.000000	0.001525	0.001695	28.082	77.0053	0.001779	43297.6	5.841058	170.833	294.653	1.042845	0.085373	0.085012	298.196	43297.6	0.080208	0.208072	1433.14	86722.1
1178	2.000000	1.045181	7.37658e+06	-56689.1	1105.82	-29738.3	0.000000	0.000000	7.058397	315.49	NaN	0.000000	0.001568	0.001709	28.082	77.1411	0.001963	39305.7	2.801211	174.639	310.871	1.044880	0.087348	0.087047	315.49	39305.7	0.081328	0.213196	1479.81	77774.9
1178	2.000000	1.047253	7.37658e+06	-56689.1	1105.82	-29738.3	0.000000	0.000000	7.060706	321.247	NaN	0.000000	0.001562	0.001700	28.082	79.4678	0.001864	42632	5.521125	171.813	320.616	1.046879	0.089420	0.089046	321.247	42632	0.083769	0.224563	1430.55	82194.1
1178	2.000000	1.049242	7.37658e+06	-56689.1	1105.82	-29738.3	0.000000	0.000000	7.063031	329.415	NaN	0.000000	0.001499	0.001715	28.0823	80.5728	0.001708	47168.5	2.887407	172.921	326.752	1.048997	0.091409	0.091164	329.415	47168.5	0.086171	0.236021	1395.7	88705.3
1178	2.000000	1.051260	7.37658e+06	-56689.1	1105.82	-29738.3	0.000000	0.000000	7.065483	339.961	NaN	0.000000	0.001530	0.001687	28.0821	82.6412	0.001824	45310.9	3.976193	172.76	338.422	1.050947	0.093427	0.093114	339.961	45310.9	0.087800	0.243938	1393.63	83817.8
1178	2.000000	1.053231	7.37658e+06	-56689.1	1105.82	-29738.3	0.000000	0.000000	7.067973	352.553	NaN	0.000000	0.001521	0.001704	28.0821	85.154	0.001843	46215.1	5.693430	170.585	351.484	1.052980	0.095398	0.095147	352.553	46215.1	0.089677	0.253217	1392.3	83909.5
1178	2.000000	1.055155	7.37658e+06	-56689.1	1105.82	-29738.3	0.000000	0.000000	7.070469	366.465	NaN	0.000000	0.001533	0.001708	28.082	86.2484	0.001949	44260.8	6.401408	171.163	361.271	1.054737	0.097322	0.096905	366.465	44260.8	0.091112	0.260420	1407.2	79241.9
1178	2.000000	1.057314	7.37658e+06	-56689.1	1105.82	-29738.3	0.000000	0.000000	7.073035	376.347	NaN	0.000000	0.001548	0.001699	28.0819	87.1253	0.001779	48983.1	1.265456	174.578	379.951	1.056975	0.099482	0.099142	376.347	48983.1	0.093719	0.273744	1374.81	85535.7
1178	2.000000	1.059239	7.37658e+06	-56689.1	1105.82	-29738.3	0.000000	0.000000	7.075295	384.5	NaN	0.000000	0.001540	0.001662	28.082	90.1749	0.001735	51983.5	5.487366	169.505	384.151	1.059014	0.101407	0.101181	384.5	51983.5	0.095859	0.284913	1349.53	88978
1178	2.000000	1.061265	7.37658e+06	-56689.1	1105.82	-29738.3	0.000000	0.000000	7.078003	401.096	NaN	0.000000	0.001542	0.001641	28.0822	90.3046	0.001795	50308.1	2.537250	173.384	402.519	1.060961	0.103432	0.103128	401.096	50308.1	0.097452	0.293364	1367.23	84860.9
1178	2.000000	1.062120	7.37658e+06	-56689.1	1105.82	-29738.3	0.000000	0.000000	7.079316	412.231	NaN	0.000000	0.001543	0.001630	28.0821	91.4862	0.001827	50062.9	5.742097	170.465	404.963	1.061838	0.104287	0.104005	412.231	50062.9	0.098111	0.296892	1388.49	83944