File: remote_trans/data/nanoindenter/0828-1/data/Data_2025-08-06,11h17m57s/2025-07-22_16-23-58_1_785.txt
2025-07-22, 16:23:58, 1
Index	Phase	Displacement	Time	Pos X	Pos Y	Pos Z	Rot A	Rot B	Piezo Z	Force A	Force B	Gripper	Voltage A	Voltage B	Temperature	Amplitude force	Amplitude pos	Stiffness	Phase shift	Phase excitation	Force A raw	Displacement raw	HMax	HMax raw	Real Force	Real Stiffness	Contact Depth	Area	Hardness	Reduced Mod.
[#]	[#]	[um]	[s]	[um]	[um]	[um]	[m°]	[m°]	[um]	[uN]	[uN]	[V]	[V]	[V]	[°C]	[uN]	[um]	[N/m]	[°]	[°]	[uN]	[um]	[um]	[um]	[uN]	[N/m]	[um]	[um^2]	[MPa]	[MPa]
785	1.000000	0.002414	7.37273e+06	-39389.1	1055.82	-29794	0.000000	0.000000	6.002748	-0.084427	NaN	0.000000	0.001688	0.001720	28.0805	0.087826	0.000894	98.2845	-19.1284	-168.72	-0.064490	0.001191	-1.087896	-1.089119	-0.084427	98.2845	-1.087252	-3.379958E+14	2.497872E-16	NaN
785	1.000000	0.010412	7.37273e+06	-39389.1	1055.82	-29794	0.000000	0.000000	6.010748	-0.029359	NaN	0.000000	0.001636	0.001763	28.0802	0.078612	0.001031	76.2653	-156.565	-168.536	-0.040383	0.009130	-1.079898	-1.081180	-0.029359	76.2653	-1.079610	-2.668557E+14	1.100186E-16	NaN
785	1.000000	0.018416	7.37273e+06	-39389.1	1055.82	-29794	0.000000	0.000000	6.018752	-0.011913	NaN	0.000000	0.001703	0.001730	28.0802	0.139536	0.001694	82.3618	105.271	-165.724	-0.032299	0.017078	-1.071894	-1.073232	-0.011913	82.3618	-1.071786	-2.094993E+14	5.686615E-17	NaN
785	1.000000	0.026447	7.37273e+06	-39389.1	1055.82	-29794	0.000000	0.000000	6.026783	-0.021799	NaN	0.000000	0.001662	0.001739	28.0801	0.100224	0.001878	53.3719	100.708	-166.142	-0.055671	0.025055	-1.063863	-1.065255	-0.021799	53.3719	-1.063557	-1.624122E+14	1.342214E-16	NaN
785	1.000000	0.034397	7.37273e+06	-39389.1	1055.82	-29794	0.000000	0.000000	6.034732	-0.048132	NaN	0.000000	0.001674	0.001751	28.08	0.044888	0.002015	22.2719	149.714	-167.371	-0.125359	0.033143	-1.055913	-1.057167	-0.048132	22.2719	-1.054292	-1.219296E+14	3.947564E-16	NaN
785	1.000000	0.042396	7.37273e+06	-39389.1	1055.82	-29794	0.000000	0.000000	6.042729	-0.111823	NaN	0.000000	0.001671	0.001734	28.0801	0.045966	0.001928	23.8365	-162.21	-165.313	-0.093194	0.041130	-1.047914	-1.049180	-0.111823	23.8365	-1.044395	-8.975698E+13	1.245843E-15	NaN
785	1.000000	0.050398	7.37273e+06	-39389.1	1055.82	-29794	0.000000	0.000000	6.050731	-0.088017	NaN	0.000000	0.001670	0.001701	28.0803	0.079168	0.002010	39.3841	70.5712	-169.107	-0.162033	0.049119	-1.039913	-1.041191	-0.088017	39.3841	-1.038236	-7.417421E+13	1.186619E-15	NaN
785	1.000000	0.058407	7.37273e+06	-39389.1	1055.82	-29794	0.000000	0.000000	6.058743	-0.031359	NaN	0.000000	0.001650	0.001699	28.0804	0.034082	0.002114	16.1244	147.511	-165.886	0.005555	0.057131	-1.031903	-1.033179	-0.031359	16.1244	-1.030444	-5.827176E+13	5.381510E-16	NaN
785	1.000000	0.066413	7.37273e+06	-39389.1	1055.82	-29794	0.000000	0.000000	6.066744	-0.128184	NaN	0.000000	0.001674	0.001711	28.0804	0.145125	0.002065	70.2823	-129.129	-166.069	-0.122312	0.065041	-1.023898	-1.025269	-0.128184	70.2823	-1.022530	-4.560239E+13	2.810910E-15	NaN
785	1.000000	0.074427	7.37273e+06	-39389.1	1055.82	-29794	0.000000	0.000000	6.074761	-0.071526	NaN	0.000000	0.001660	0.001700	28.0803	0.084509	0.001945	43.4429	-74.7523	-162.542	-0.074722	0.073107	-1.015883	-1.017203	-0.071526	43.4429	-1.014648	-3.572195E+13	2.002305E-15	NaN
785	1.000000	0.082426	7.37273e+06	-39389.1	1055.82	-29794	0.000000	0.000000	6.082761	-0.046380	NaN	0.000000	0.001654	0.001706	28.0806	0.049334	0.002051	24.0587	-134.821	-166.799	-0.064029	0.081119	-1.007884	-1.009192	-0.046380	24.0587	-1.006438	-2.769749E+13	1.674504E-15	NaN
785	1.000000	0.090446	7.37273e+06	-39389.1	1055.82	-29794	0.000000	0.000000	6.090781	-0.036614	NaN	0.000000	0.001674	0.001672	28.0804	0.075603	0.002058	36.743	-151.235	-165.351	-0.027461	0.089131	-0.999865	-1.001179	-0.036614	36.743	-0.999117	-2.207412E+13	1.658682E-15	NaN
785	1.000000	0.098414	7.37273e+06	-39389.1	1055.82	-29794	0.000000	0.000000	6.098751	-0.006086	NaN	0.000000	0.001680	0.001718	28.0807	0.039915	0.001921	20.7785	-79.9113	-166.048	-0.109295	0.097102	-0.991896	-0.993209	-0.006086	20.7785	-0.991677	-1.752634E+13	3.472368E-16	NaN
785	1.000000	0.106447	7.37273e+06	-39389.1	1055.82	-29794	0.000000	0.000000	6.106779	-0.106119	NaN	0.000000	0.001696	0.001710	28.0816	0.032527	0.001991	16.3365	-101.951	-165.093	-0.075594	0.105122	-0.983864	-0.985188	-0.106119	16.3365	-0.978992	-1.182571E+13	8.973581E-15	NaN
785	1.000000	0.114447	7.37273e+06	-39389.1	1055.82	-29794	0.000000	0.000000	6.114782	-0.061112	NaN	0.000000	0.001695	0.001691	28.0814	0.071426	0.002037	35.0631	67.165	-165.053	-0.076626	0.113071	-0.975863	-0.977239	-0.061112	35.0631	-0.974556	-1.030524E+13	5.930176E-15	NaN
785	1.000000	0.122408	7.37273e+06	-39389.1	1055.82	-29794	0.000000	0.000000	6.122745	-0.013444	NaN	0.000000	0.001663	0.001719	28.0819	0.016077	0.002073	7.753964	25.283	-164.111	-0.013956	0.121111	-0.967902	-0.969200	-0.013444	7.753964	-0.966602	-8.051168E+12	1.669851E-15	NaN
785	1.000000	0.130433	7.37273e+06	-39389.1	1055.82	-29794	0.000000	0.000000	6.130765	-0.116541	NaN	0.000000	0.001644	0.001728	28.0816	0.053553	0.002103	25.4616	144.738	-165.439	-0.193170	0.129070	-0.959878	-0.961241	-0.116541	25.4616	-0.956445	-5.874019E+12	1.984013E-14	NaN
785	1.000000	0.138452	7.37273e+06	-39389.1	1055.82	-29794	0.000000	0.000000	6.138786	-0.072535	NaN	0.000000	0.001630	0.001681	28.0822	0.007669	0.001950	3.933385	0.291695	-167.526	-0.057674	0.137177	-0.951858	-0.953133	-0.072535	3.933385	-0.938027	-3.315294E+12	2.187895E-14	NaN
785	1.000000	0.146466	7.37273e+06	-39389.1	1055.82	-29794	0.000000	0.000000	6.146799	-0.089920	NaN	0.000000	0.001632	0.001713	28.0817	0.108210	0.002017	53.6528	161.62	-163.605	-0.040983	0.145160	-0.943844	-0.945150	-0.089920	53.6528	-0.942587	-3.819796E+12	2.354055E-14	NaN
785	1.000000	0.154448	7.37273e+06	-39389.1	1055.82	-29794	0.000000	0.000000	6.154786	0.008344	NaN	0.000000	0.001638	0.001708	28.0819	0.063077	0.002063	30.5717	144.012	-163.24	0.053929	0.153213	-0.935862	-0.937097	0.008344	30.5717	-0.936067	-3.119354E+12	-2.674791E-15	NaN
785	1.000000	0.162452	7.37273e+06	-39389.1	1055.82	-29794	0.000000	0.000000	6.162787	-0.040291	NaN	0.000000	0.001654	0.001679	28.0821	0.031838	0.002066	15.4136	0.134686	-167.373	-0.095550	0.161188	-0.927858	-0.929122	-0.040291	15.4136	-0.925898	-2.274200E+12	1.771678E-14	NaN
785	1.000000	0.170445	7.37273e+06	-39389.1	1055.82	-29794	0.000000	0.000000	6.170778	-0.101161	NaN	0.000000	0.001642	0.001722	28.0816	0.125368	0.001977	63.4185	-57.0875	-165.281	0.015043	0.169169	-0.919865	-0.921141	-0.101161	63.4185	-0.918669	-1.816474E+12	5.569104E-14	NaN
785	1.000000	0.178458	7.37273e+06	-39389.1	1055.82	-29794	0.000000	0.000000	6.178793	-0.054636	NaN	0.000000	0.001659	0.001726	28.0816	0.048127	0.002041	23.5832	175.655	-162.75	-0.086946	0.177187	-0.911852	-0.913123	-0.054636	23.5832	-0.910114	-1.392210E+12	3.924404E-14	NaN
785	1.000000	0.186478	7.37273e+06	-39389.1	1055.82	-29794	0.000000	0.000000	6.186810	-0.122958	NaN	0.000000	0.001645	0.001718	28.0816	0.083654	0.001968	42.5096	-124.511	-164.862	-0.135092	0.185198	-0.903832	-0.905112	-0.122958	42.5096	-0.901663	-1.070376E+12	1.148741E-13	NaN
785	1.000000	0.194463	7.37273e+06	-39389.1	1055.82	-29794	0.000000	0.000000	6.194798	-0.059745	NaN	0.000000	0.001620	0.001716	28.0814	0.080384	0.001913	42.0297	-90.835	-165.947	-0.101427	0.193105	-0.895847	-0.897205	-0.059745	42.0297	-0.894781	-8.640419E+11	6.914642E-14	NaN
785	1.000000	0.202483	7.37273e+06	-39389.1	1055.82	-29794	0.000000	0.000000	6.202822	0.036803	NaN	0.000000	0.001603	0.001706	28.0816	0.018928	0.001978	9.568857	2.614378	-165.806	-0.019039	0.201129	-0.887827	-0.889182	0.036803	9.568857	-0.890711	-7.612569E+11	-4.834562E-14	NaN
785	1.000000	0.210486	7.37273e+06	-39389.1	1055.82	-29794	0.000000	0.000000	6.210821	-0.065841	NaN	0.000000	0.001592	0.001703	28.0821	0.077962	0.002027	38.4702	94.0636	-162.469	0.007199	0.209128	-0.879824	-0.881182	-0.065841	38.4702	-0.878540	-5.211523E+11	1.263371E-13	NaN
785	1.000000	0.218495	7.37273e+06	-39389.1	1055.82	-29794	0.000000	0.000000	6.218830	-0.047545	NaN	0.000000	0.001601	0.001702	28.0817	0.076124	0.001996	38.1351	106.902	-165.425	-0.075589	0.217156	-0.871815	-0.873155	-0.047545	38.1351	-0.870880	-4.105342E+11	1.158114E-13	NaN
785	1.000000	0.226490	7.37273e+06	-39389.1	1055.82	-29794	0.000000	0.000000	6.226824	-0.073432	NaN	0.000000	0.001670	0.001679	28.0815	0.060152	0.002026	29.6946	63.4045	-165.598	-0.127693	0.225148	-0.863821	-0.865163	-0.073432	29.6946	-0.861966	-3.109770E+11	2.361334E-13	NaN
785	1.000000	0.234480	7.37273e+06	-39389.1	1055.82	-29794	0.000000	0.000000	6.234812	-0.118051	NaN	0.000000	0.001641	0.001711	28.0815	0.065033	0.001989	32.7009	31.5163	-164.209	0.034984	0.233172	-0.855831	-0.857138	-0.118051	32.7009	-0.853123	-2.360616E+11	5.000849E-13	NaN
785	1.000000	0.242495	7.37273e+06	-39389.1	1055.82	-29794	0.000000	0.000000	6.242826	-0.136222	NaN	0.000000	0.001623	0.001696	28.0805	0.033695	0.001890	17.8262	94.0148	-165.781	-0.184774	0.241180	-0.847815	-0.849130	-0.136222	17.8262	-0.842084	-1.673120E+11	8.141806E-13	NaN
785	1.000000	0.250524	7.37273e+06	-39389.1	1055.82	-29794	0.000000	0.000000	6.250859	-0.054123	NaN	0.000000	0.001617	0.001694	28.0804	0.106898	0.001909	55.9899	163.237	-163.336	-0.056922	0.249202	-0.839786	-0.841108	-0.054123	55.9899	-0.839061	-1.522559E+11	3.554750E-13	NaN
785	1.000000	0.258483	7.37273e+06	-39389.1	1055.82	-29794	0.000000	0.000000	6.258819	-0.023674	NaN	0.000000	0.001595	0.001678	28.0806	0.125426	0.001942	64.5945	-125.063	-165.86	-0.096499	0.257200	-0.831828	-0.833110	-0.023674	64.5945	-0.831553	-1.204563E+11	1.965362E-13	NaN
785	1.000000	0.266481	7.37273e+06	-39389.1	1055.82	-29794	0.000000	0.000000	6.266815	-0.090069	NaN	0.000000	0.001588	0.001692	28.0805	0.186106	0.002022	92.0608	160.204	-163.431	-0.194486	0.265205	-0.823829	-0.825105	-0.090069	92.0608	-0.823095	-9.250761E+10	9.736397E-13	NaN
785	1.000000	0.274510	7.37273e+06	-39389.1	1055.82	-29794	0.000000	0.000000	6.274840	-0.158267	NaN	0.000000	0.001646	0.001689	28.0806	0.015084	0.001892	7.972353	109.07	-165.543	-0.125912	0.273203	-0.815800	-0.817107	-0.158267	7.972353	-0.800911	-4.626306E+10	3.421029E-12	NaN
785	1.000000	0.282552	7.37273e+06	-39389.1	1055.82	-29794	0.000000	0.000000	6.282888	-0.029343	NaN	0.000000	0.001640	0.001704	28.0805	0.119371	0.002050	58.2201	112.958	-165.928	0.008048	0.281212	-0.807758	-0.809098	-0.029343	58.2201	-0.807380	-5.662729E+10	5.181738E-13	NaN
785	1.000000	0.290531	7.37273e+06	-39389.1	1055.82	-29794	0.000000	0.000000	6.290867	-0.025152	NaN	0.000000	0.001671	0.001688	28.0803	0.018974	0.002064	9.193509	-42.3485	-165.366	-0.081841	0.289211	-0.799779	-0.801099	-0.025152	9.193509	-0.797727	-4.188045E+10	6.005669E-13	NaN
785	1.000000	0.298508	7.37273e+06	-39389.1	1055.82	-29794	0.000000	0.000000	6.298839	-0.138435	NaN	0.000000	0.001642	0.001682	28.0805	0.067392	0.001981	34.0264	-115.356	-165.076	-0.063287	0.297148	-0.791803	-0.793163	-0.138435	34.0264	-0.788751	-3.163171E+10	4.376475E-12	NaN
785	1.000000	0.306533	7.37273e+06	-39389.1	1055.82	-29794	0.000000	0.000000	6.306869	-0.017244	NaN	0.000000	0.001620	0.001711	28.0805	0.067188	0.002097	32.0413	-38.0914	-166.534	-0.018420	0.305204	-0.783778	-0.785106	-0.017244	32.0413	-0.783374	-2.673479E+10	6.450054E-13	NaN
785	1.000000	0.314511	7.37273e+06	-39389.1	1055.82	-29794	0.000000	0.000000	6.314847	-0.027184	NaN	0.000000	0.001640	0.001693	28.0805	0.102889	0.002098	49.0441	-128.856	-166.166	-0.075037	0.313252	-0.775799	-0.777058	-0.027184	49.0441	-0.775383	-2.082023E+10	1.305654E-12	NaN
785	1.000000	0.322543	7.37273e+06	-39389.1	1055.82	-29794	0.000000	0.000000	6.322876	-0.092863	NaN	0.000000	0.001619	0.001699	28.0802	0.050451	0.001835	27.4899	152.086	-166.579	-0.013048	0.321244	-0.767768	-0.769066	-0.092863	27.4899	-0.765234	-1.515293E+10	6.128373E-12	NaN
785	1.000000	0.330537	7.37273e+06	-39389.1	1055.82	-29794	0.000000	0.000000	6.330871	-0.093123	NaN	0.000000	0.001682	0.001710	28.0805	0.073128	0.002029	36.0366	26.2068	-164.686	-0.116395	0.329173	-0.759773	-0.761137	-0.093123	36.0366	-0.757835	-1.201832E+10	7.748452E-12	NaN
785	1.000000	0.338553	7.37273e+06	-39389.1	1055.82	-29794	0.000000	0.000000	6.338887	-0.058771	NaN	0.000000	0.001666	0.001703	28.0803	0.090643	0.002181	41.5603	-38.437	-162.582	-0.024001	0.337214	-0.751757	-0.753096	-0.058771	41.5603	-0.750697	-9.609577E+9	6.115929E-12	NaN
785	1.000000	0.346514	7.37273e+06	-39389.1	1055.82	-29794	0.000000	0.000000	6.346849	-0.044766	NaN	0.000000	0.001657	0.001712	28.0804	0.063271	0.001976	32.0168	35.517	-165.305	-0.100431	0.345241	-0.743796	-0.745069	-0.044766	32.0168	-0.742748	-7.489917E+9	5.976840E-12	NaN
785	1.000000	0.354522	7.37273e+06	-39389.1	1055.82	-29794	0.000000	0.000000	6.354858	-0.034637	NaN	0.000000	0.001605	0.001689	28.0808	0.062860	0.002002	31.3964	8.825271	-161.852	-0.117667	0.353240	-0.735788	-0.737071	-0.034637	31.3964	-0.734961	-5.866870E+9	5.903825E-12	NaN
785	1.000000	0.362562	7.37273e+06	-39389.1	1055.82	-29794	0.000000	0.000000	6.362896	-0.076855	NaN	0.000000	0.001665	0.001722	28.0801	0.052161	0.001954	26.6931	-56.3956	-163.213	-0.041711	0.361226	-0.727748	-0.729084	-0.076855	26.6931	-0.725589	-4.372012E+9	1.757891E-11	NaN
785	1.000000	0.370527	7.37273e+06	-39389.1	1055.82	-29794	0.000000	0.000000	6.370862	-0.044006	NaN	0.000000	0.001732	0.001695	28.0804	0.094694	0.002012	47.0687	150.169	-167.21	-0.089095	0.369268	-0.719783	-0.721042	-0.044006	47.0687	-0.719082	-3.564149E+9	1.234678E-11	NaN
785	1.000000	0.378540	7.37273e+06	-39389.1	1055.82	-29794	0.000000	0.000000	6.378873	-0.086240	NaN	0.000000	0.001734	0.001681	28.0817	0.083094	0.001947	42.6806	95.9584	-163.93	-0.116334	0.377249	-0.711770	-0.713061	-0.086240	42.6806	-0.710255	-2.701026E+9	3.192857E-11	NaN
785	1.000000	0.386519	7.37273e+06	-39389.1	1055.82	-29794	0.000000	0.000000	6.386853	-0.069718	NaN	0.000000	0.001733	0.001725	28.0816	0.039728	0.002118	18.7551	-63.3851	-163.567	-0.073361	0.385262	-0.703791	-0.705048	-0.069718	18.7551	-0.701003	-2.019433E+9	3.452377E-11	NaN
785	1.000000	0.394563	7.37273e+06	-39389.1	1055.82	-29794	0.000000	0.000000	6.394896	-0.104886	NaN	0.000000	0.001670	0.001721	28.0818	0.161112	0.002059	78.2563	164.953	-162.842	-0.067829	0.393227	-0.695747	-0.697083	-0.104886	78.2563	-0.694742	-1.658465E+9	6.324306E-11	NaN
785	1.000000	0.402544	7.37273e+06	-39389.1	1055.82	-29794	0.000000	0.000000	6.402877	-0.095064	NaN	0.000000	0.001635	0.001682	28.0814	0.055562	0.001862	29.8338	19.8325	-162.738	-0.049307	0.401225	-0.687766	-0.689085	-0.095064	29.8338	-0.685377	-1.235160E+9	7.696463E-11	NaN
785	1.000000	0.410553	7.37273e+06	-39389.1	1055.82	-29794	0.000000	0.000000	6.410887	-0.067406	NaN	0.000000	0.001623	0.001684	28.0819	0.049667	0.001906	26.0637	112.758	-163.712	-0.047931	0.409271	-0.679757	-0.681039	-0.067406	26.0637	-0.677818	-9.735488E+8	6.923750E-11	NaN
785	1.000000	0.418591	7.37273e+06	-39389.1	1055.82	-29794	0.000000	0.000000	6.418923	-0.124384	NaN	0.000000	0.001634	0.001737	28.0814	0.035539	0.001936	18.3561	-82.9637	-163.558	-0.019457	0.417245	-0.671719	-0.673065	-0.124384	18.3561	-0.666637	-6.844698E+8	1.817236E-10	NaN
785	1.000000	0.426558	7.37273e+06	-39389.1	1055.82	-29794	0.000000	0.000000	6.426892	-0.069120	NaN	0.000000	0.001660	0.001722	28.0814	0.045021	0.002013	22.3634	-96.6595	-159.864	-0.106190	0.425263	-0.663752	-0.665047	-0.069120	22.3634	-0.661434	-5.809137E+8	1.189854E-10	NaN
785	1.000000	0.434537	7.37273e+06	-39389.1	1055.82	-29794	0.000000	0.000000	6.434872	-0.036946	NaN	0.000000	0.001635	0.001696	28.0815	0.083107	0.002007	41.4163	14.3118	-166.323	0.029930	0.433298	-0.655774	-0.657012	-0.036946	41.4163	-0.655104	-4.757714E+8	7.765475E-11	NaN
785	1.000000	0.442585	7.37273e+06	-39389.1	1055.82	-29794	0.000000	0.000000	6.442921	-0.042408	NaN	0.000000	0.001620	0.001723	28.0815	0.111001	0.002010	55.2114	-156.171	-165.218	-0.077653	0.441262	-0.647725	-0.649048	-0.042408	55.2114	-0.647149	-3.701207E+8	1.145786E-10	NaN
785	1.000000	0.450601	7.37273e+06	-39389.1	1055.82	-29794	0.000000	0.000000	6.450936	-0.044040	NaN	0.000000	0.001659	0.001703	28.0815	0.071586	0.002113	33.8859	60.3709	-163.574	0.017757	0.449247	-0.639710	-0.641063	-0.044040	33.8859	-0.638735	-2.837457E+8	1.552104E-10	NaN
785	1.000000	0.458607	7.37273e+06	-39389.1	1055.82	-29794	0.000000	0.000000	6.458943	-0.040833	NaN	0.000000	0.001627	0.001701	28.0815	0.086141	0.002093	41.1531	141.089	-168.279	-0.078289	0.457269	-0.631703	-0.633041	-0.040833	41.1531	-0.630959	-2.219165E+8	1.840035E-10	NaN
785	1.000000	0.466605	7.37273e+06	-39389.1	1055.82	-29794	0.000000	0.000000	6.466939	-0.068206	NaN	0.000000	0.001660	0.001707	28.0815	0.016537	0.001986	8.325408	178.963	-161.992	-0.023349	0.465252	-0.623705	-0.625059	-0.068206	8.325408	-0.617561	-1.452439E+8	4.695942E-10	NaN
785	1.000000	0.474616	7.37273e+06	-39389.1	1055.82	-29794	0.000000	0.000000	6.474947	-0.157938	NaN	0.000000	0.001666	0.001715	28.0815	0.120589	0.001935	62.3213	-7.374701	-166.099	-0.202788	0.473310	-0.615694	-0.617000	-0.157938	62.3213	-0.613793	-1.289132E+8	1.225150E-9	NaN
785	1.000000	0.482605	7.37273e+06	-39389.1	1055.82	-29794	0.000000	0.000000	6.482939	-0.080547	NaN	0.000000	0.001679	0.001723	28.0814	0.095583	0.001929	49.5466	-83.8228	-165.255	-0.062845	0.481250	-0.607705	-0.609060	-0.080547	49.5466	-0.606486	-1.022708E+8	7.875883E-10	NaN
785	1.000000	0.490608	7.37273e+06	-39389.1	1055.82	-29794	0.000000	0.000000	6.490944	-0.019811	NaN	0.000000	0.001640	0.001730	28.0813	0.032444	0.001973	16.4462	2.788907	-165.859	-0.079499	0.489267	-0.599702	-0.601043	-0.019811	16.4462	-0.598799	-8.015172E+7	2.471739E-10	NaN
785	1.000000	0.498603	7.37273e+06	-39389.1	1055.82	-29794	0.000000	0.000000	6.498937	-0.049703	NaN	0.000000	0.001641	0.001723	28.0812	0.072707	0.002074	35.0641	-111.203	-162.255	-0.165425	0.497274	-0.591708	-0.593037	-0.049703	35.0641	-0.590645	-6.188024E+7	8.032133E-10	NaN
785	1.000000	0.506590	7.37273e+06	-39389.1	1055.82	-29794	0.000000	0.000000	6.506923	-0.090438	NaN	0.000000	0.001652	0.001687	28.0813	0.095765	0.001989	48.1506	148.471	-164.447	-0.096728	0.505338	-0.583720	-0.584972	-0.090438	48.1506	-0.582312	-4.749262E+7	1.904262E-9	NaN
785	1.000000	0.514601	7.37273e+06	-39389.1	1055.82	-29794	0.000000	0.000000	6.514936	-0.042586	NaN	0.000000	0.001697	0.001701	28.08	0.034401	0.001913	17.9786	-130.946	-164.548	-0.119364	0.513310	-0.575709	-0.577001	-0.042586	17.9786	-0.573933	-3.638832E+7	1.170331E-9	NaN
785	1.000000	0.522609	7.37273e+06	-39389.1	1055.82	-29794	0.000000	0.000000	6.522943	-0.091880	NaN	0.000000	0.001659	0.001694	28.0802	0.111460	0.001965	56.7321	93.0565	-164.343	-0.078657	0.521270	-0.567701	-0.569041	-0.091880	56.7321	-0.566486	-2.871250E+7	3.200004E-9	NaN
785	1.000000	0.530627	7.37273e+06	-39389.1	1055.82	-29794	0.000000	0.000000	6.530962	-0.058778	NaN	0.000000	0.001677	0.001724	28.0803	0.114699	0.002052	55.8883	105.683	-164.702	-0.089506	0.529307	-0.559683	-0.561003	-0.058778	55.8883	-0.558894	-2.254652E+7	2.606963E-9	NaN
785	1.000000	0.538621	7.37273e+06	-39389.1	1055.82	-29794	0.000000	0.000000	6.538959	0.005786	NaN	0.000000	0.001643	0.001659	28.0802	0.037992	0.001973	19.2554	-87.4104	-169.832	0.000490	0.537288	-0.551689	-0.553022	0.005786	19.2554	-0.551914	-1.804951E+7	-3.205638E-10	NaN
785	1.000000	0.546627	7.37273e+06	-39389.1	1055.82	-29794	0.000000	0.000000	6.546962	-0.053867	NaN	0.000000	0.001652	0.001724	28.0802	0.123352	0.002070	59.5892	111.631	-165.9	-0.067089	0.545319	-0.543683	-0.544991	-0.053867	59.5892	-0.543005	-1.358415E+7	3.965418E-9	NaN
785	1.000000	0.554631	7.37273e+06	-39389.1	1055.82	-29794	0.000000	0.000000	6.554965	-0.065443	NaN	0.000000	0.001643	0.001689	28.0804	0.063178	0.001916	32.982	168.453	-166.422	-0.083452	0.553321	-0.535679	-0.536989	-0.065443	32.982	-0.534191	-1.025095E+7	6.384054E-9	NaN
785	1.000000	0.562633	7.37273e+06	-39389.1	1055.82	-29794	0.000000	0.000000	6.562969	-0.035513	NaN	0.000000	0.001667	0.001699	28.0802	0.086014	0.001994	43.1282	-122.371	-162.648	-0.051730	0.561308	-0.527677	-0.529002	-0.035513	43.1282	-0.527059	-8.16063e+06	4.351752E-9	NaN
785	1.000000	0.570641	7.37273e+06	-39389.1	1055.82	-29794	0.000000	0.000000	6.570975	-0.063114	NaN	0.000000	0.001644	0.001713	28.08	0.097241	0.002020	48.1408	-47.8516	-171.862	-0.132106	0.569340	-0.519669	-0.520970	-0.063114	48.1408	-0.518686	-6.24199e+06	1.011113E-8	NaN
785	1.000000	0.578640	7.37273e+06	-39389.1	1055.82	-29794	0.000000	0.000000	6.578974	-0.052545	NaN	0.000000	0.001661	0.001745	28.0802	0.020153	0.002078	9.700668	172.983	-165.025	-0.058296	0.577326	-0.511671	-0.512985	-0.052545	9.700668	-0.507608	-4.37617e+06	1.200702E-8	NaN
785	1.000000	0.586632	7.37273e+06	-39389.1	1055.82	-29794	0.000000	0.000000	6.586971	0.057398	NaN	0.000000	0.001666	0.001707	28.0801	0.048987	0.001934	25.3238	-73.1053	-166.102	0.012849	0.585331	-0.503679	-0.504979	0.057398	25.3238	-0.505379	-4.074e+06	-1.408887E-8	NaN
785	1.000000	0.594643	7.37273e+06	-39389.1	1055.82	-29794	0.000000	0.000000	6.594975	-0.127327	NaN	0.000000	0.001674	0.001704	28.0803	0.075883	0.001897	40.0075	105.487	-166.176	-0.127310	0.593367	-0.495667	-0.496943	-0.127327	40.0075	-0.493280	-2.76194e+06	4.610051E-8	NaN
785	1.000000	0.602656	7.37273e+06	-39389.1	1055.82	-29794	0.000000	0.000000	6.602990	-0.070971	NaN	0.000000	0.001662	0.001718	28.0806	0.061835	0.001943	31.8165	122.369	-162.037	-0.026796	0.601311	-0.487654	-0.488999	-0.070971	31.8165	-0.485981	-2.18381e+06	3.249855E-8	NaN
785	1.000000	0.610642	7.37273e+06	-39389.1	1055.82	-29794	0.000000	0.000000	6.610974	-0.125662	NaN	0.000000	0.001629	0.001722	28.0802	0.071480	0.002060	34.7025	-36.9456	-161.965	-0.118069	0.609305	-0.479668	-0.481005	-0.125662	34.7025	-0.476952	-1.63249e+06	7.697587E-8	NaN
785	1.000000	0.618643	7.37273e+06	-39389.1	1055.82	-29794	0.000000	0.000000	6.618975	-0.120378	NaN	0.000000	0.001657	0.001695	28.0807	0.164074	0.001929	85.0547	-136.069	-165.959	-0.069841	0.617353	-0.471668	-0.472957	-0.120378	85.0547	-0.470606	-1.33018e+06	9.049749E-8	NaN
785	1.000000	0.626675	7.37273e+06	-39389.1	1055.82	-29794	0.000000	0.000000	6.627009	-0.080071	NaN	0.000000	0.001651	0.001746	28.0805	0.060250	0.002053	29.3418	87.6749	-161.736	-0.054080	0.625369	-0.463635	-0.464941	-0.080071	29.3418	-0.461589	-993889	8.056330E-8	NaN
785	1.000000	0.634702	7.37273e+06	-39389.1	1055.82	-29794	0.000000	0.000000	6.635036	-0.089962	NaN	0.000000	0.001692	0.001748	28.0802	0.085332	0.002106	40.5202	170.446	-166.192	-0.103917	0.633332	-0.455608	-0.456978	-0.089962	40.5202	-0.453943	-775965	1.159362E-7	NaN
785	1.000000	0.642687	7.37273e+06	-39389.1	1055.82	-29794	0.000000	0.000000	6.643021	-0.068631	NaN	0.000000	0.001638	0.001740	28.0801	0.078343	0.001976	39.6543	-174.468	-166.236	-0.153831	0.641349	-0.447623	-0.448961	-0.068631	39.6543	-0.446325	-606135	1.132272E-7	NaN
785	1.000000	0.650651	7.37273e+06	-39389.1	1055.82	-29794	0.000000	0.000000	6.650985	-0.080146	NaN	0.000000	0.001658	0.001740	28.0815	0.059899	0.002073	28.8898	-75.1675	-162.585	-0.100330	0.649314	-0.439659	-0.440997	-0.080146	28.8898	-0.437578	-456222	1.756741E-7	NaN
785	1.000000	0.658661	7.37273e+06	-39389.1	1055.82	-29794	0.000000	0.000000	6.658998	-0.022037	NaN	0.000000	0.001638	0.001740	28.0817	0.022316	0.001940	11.5012	-36.9904	-165.669	-0.131175	0.657412	-0.431649	-0.432898	-0.022037	11.5012	-0.430212	-358968	6.139100E-8	NaN
785	1.000000	0.666679	7.37273e+06	-39389.1	1055.82	-29794	0.000000	0.000000	6.667009	-0.148564	NaN	0.000000	0.001636	0.001743	28.0816	0.130374	0.002005	65.0156	-167.599	-164.513	-0.170937	0.665435	-0.423632	-0.424875	-0.148564	65.0156	-0.421918	-273911	5.423806E-7	NaN
785	1.000000	0.674685	7.37273e+06	-39389.1	1055.82	-29794	0.000000	0.000000	6.675022	0.013791	NaN	0.000000	0.001613	0.001766	28.0818	0.121395	0.001985	61.1668	38.3235	-165.594	-0.027760	0.673319	-0.415625	-0.416991	0.013791	61.1668	-0.415794	-224252	-6.149588E-8	NaN
785	1.000000	0.682658	7.37273e+06	-39389.1	1055.82	-29794	0.000000	0.000000	6.682992	-0.075420	NaN	0.000000	0.001619	0.001711	28.0821	0.091738	0.001962	46.7504	74.0234	-165.839	-0.117800	0.681415	-0.407652	-0.408895	-0.075420	46.7504	-0.406442	-165114	4.567727E-7	NaN
785	1.000000	0.690658	7.37273e+06	-39389.1	1055.82	-29794	0.000000	0.000000	6.690992	-0.061684	NaN	0.000000	0.001620	0.001736	28.0816	0.110043	0.001882	58.4837	127.188	-164.623	-0.106559	0.689373	-0.399653	-0.400937	-0.061684	58.4837	-0.398861	-128752	4.790876E-7	NaN
785	1.000000	0.698670	7.37273e+06	-39389.1	1055.82	-29794	0.000000	0.000000	6.699006	-0.028480	NaN	0.000000	0.001627	0.001667	28.0818	0.050457	0.001955	25.8065	33.322	-165.624	0.006674	0.697362	-0.391640	-0.392948	-0.028480	25.8065	-0.390813	-98807.1	2.882358E-7	NaN
785	1.000000	0.706705	7.37273e+06	-39389.1	1055.82	-29794	0.000000	0.000000	6.707041	-0.010634	NaN	0.000000	0.001674	0.001696	28.0815	0.152403	0.002034	74.9274	-153.781	-162.874	0.050287	0.705377	-0.383606	-0.384933	-0.010634	74.9274	-0.383499	-77638.4	1.369686E-7	NaN
785	1.000000	0.714660	7.37273e+06	-39389.1	1055.82	-29794	0.000000	0.000000	6.714993	-0.089112	NaN	0.000000	0.001667	0.001700	28.0816	0.024244	0.002126	11.4042	5.202919	-163.051	-0.100193	0.713402	-0.375651	-0.376908	-0.089112	11.4042	-0.369790	-49329.4	1.806469E-6	NaN
785	1.000000	0.722688	7.37273e+06	-39389.1	1055.82	-29794	0.000000	0.000000	6.723023	-0.044326	NaN	0.000000	0.001684	0.001737	28.0818	0.066752	0.002070	32.2549	-3.066667	-162.493	-0.051038	0.721394	-0.367623	-0.368916	-0.044326	32.2549	-0.366592	-44362.4	9.991774E-7	NaN
785	1.000000	0.730716	7.37273e+06	-39389.1	1055.82	-29794	0.000000	0.000000	6.731051	-0.068074	NaN	0.000000	0.001725	0.001698	28.0815	0.039624	0.001982	19.9931	-77.1952	-164.63	-0.111155	0.729391	-0.359594	-0.360919	-0.068074	19.9931	-0.357040	-32287.4	2.108374E-6	NaN
785	1.000000	0.738718	7.37273e+06	-39389.1	1055.82	-29794	0.000000	0.000000	6.739054	-0.042801	NaN	0.000000	0.001684	0.001728	28.0814	0.049207	0.002067	23.8034	159.59	-167.546	-0.143495	0.737406	-0.351592	-0.352904	-0.042801	23.8034	-0.350243	-25735.4	1.663118E-6	NaN
785	1.000000	0.746718	7.37273e+06	-39389.1	1055.82	-29794	0.000000	0.000000	6.747051	-0.096417	NaN	0.000000	0.001666	0.001750	28.0813	0.068270	0.001960	34.8396	127.904	-164.699	-0.084271	0.745354	-0.343592	-0.344956	-0.096417	34.8396	-0.341516	-19215.4	5.017664E-6	NaN
785	1.000000	0.754737	7.37273e+06	-39389.1	1055.82	-29794	0.000000	0.000000	6.755069	-0.126352	NaN	0.000000	0.001678	0.001713	28.0814	0.019462	0.002056	9.466394	109.257	-159.666	-0.191437	0.753416	-0.335573	-0.336894	-0.126352	9.466394	-0.325563	-11230.4	1.125087E-5	NaN
785	1.000000	0.762697	7.37273e+06	-39389.1	1055.82	-29794	0.000000	0.000000	6.763031	-0.079780	NaN	0.000000	0.001680	0.001733	28.0816	0.009714	0.001886	5.149371	-11.3209	-165.024	-0.046178	0.761403	-0.327613	-0.328907	-0.079780	5.149371	-0.315993	-8120.73	9.824277E-6	NaN
785	1.000000	0.770715	7.37273e+06	-39389.1	1055.82	-29794	0.000000	0.000000	6.771048	-0.105836	NaN	0.000000	0.001661	0.001698	28.0815	0.139768	0.001839	76.0067	3.155495	-166.542	-0.101626	0.769384	-0.319595	-0.320926	-0.105836	76.0067	-0.318551	-8857.18	1.194913E-5	NaN
785	1.000000	0.778716	7.37273e+06	-39389.1	1055.82	-29794	0.000000	0.000000	6.779051	-0.055932	NaN	0.000000	0.001702	0.001709	28.0813	0.015207	0.001866	8.150647	-36.102	-165.828	-0.103001	0.777439	-0.311594	-0.312871	-0.055932	8.150647	-0.306447	-5867.14	9.533071E-6	NaN
785	1.000000	0.786736	7.37273e+06	-39389.1	1055.82	-29794	0.000000	0.000000	6.787069	-0.105266	NaN	0.000000	0.001590	0.001707	28.0802	0.077106	0.001943	39.6839	171.467	-164.631	-0.064333	0.785394	-0.303574	-0.304916	-0.105266	39.6839	-0.301584	-4968.31	2.118749E-5	NaN
785	1.000000	0.794741	7.37273e+06	-39389.1	1055.82	-29794	0.000000	0.000000	6.795076	-0.054326	NaN	0.000000	0.001629	0.001704	28.0802	0.044149	0.002015	21.9089	97.3388	-167.819	-0.097416	0.793433	-0.295569	-0.296877	-0.054326	21.9089	-0.293709	-3791.48	1.432845E-5	NaN
785	1.000000	0.802707	7.37273e+06	-39389.1	1055.82	-29794	0.000000	0.000000	6.803041	-0.070285	NaN	0.000000	0.001630	0.001729	28.0802	0.031373	0.002005	15.6461	-63.0877	-166.097	-0.099908	0.801442	-0.287603	-0.288868	-0.070285	15.6461	-0.284234	-2733.69	2.571066E-5	NaN
785	1.000000	0.810701	7.37273e+06	-39389.1	1055.82	-29794	0.000000	0.000000	6.811036	-0.038432	NaN	0.000000	0.001631	0.001714	28.0803	0.098297	0.002040	48.179	-122.515	-163.666	-0.088675	0.809418	-0.279609	-0.280892	-0.038432	48.179	-0.279011	-2280.58	1.685166E-5	NaN
785	1.000000	0.818744	7.37273e+06	-39389.1	1055.82	-29794	0.000000	0.000000	6.819078	-0.089725	NaN	0.000000	0.001629	0.001678	28.0803	0.164153	0.002182	75.2269	4.715550	-166.512	-0.104327	0.817442	-0.271566	-0.272869	-0.089725	75.2269	-0.270671	-1705.08	5.262206E-5	NaN
785	1.000000	0.826723	7.37273e+06	-39389.1	1055.82	-29794	0.000000	0.000000	6.827058	-0.030587	NaN	0.000000	0.001594	0.001739	28.0802	0.004489	0.001961	2.288571	132.995	-164.959	-0.008722	0.825431	-0.263587	-0.264879	-0.030587	2.288571	-0.253564	-933.232	3.277522E-5	NaN
785	1.000000	0.834735	7.37273e+06	-39389.1	1055.82	-29794	0.000000	0.000000	6.835069	-0.083142	NaN	0.000000	0.001622	0.001759	28.08	0.074815	0.001982	37.7398	-42.684	-167.425	-0.131898	0.833430	-0.255575	-0.256880	-0.083142	37.7398	-0.253923	-945.205	8.796197E-5	NaN
785	1.000000	0.842764	7.37273e+06	-39389.1	1055.82	-29794	0.000000	0.000000	6.843096	-0.135151	NaN	0.000000	0.001660	0.001758	28.0803	0.029145	0.002046	14.2419	134.072	-163.77	-0.109751	0.841457	-0.247546	-0.248853	-0.135151	14.2419	-0.240429	-583.776	0.000232	NaN
785	1.000000	0.850753	7.37273e+06	-39389.1	1055.82	-29794	0.000000	0.000000	6.851087	-0.072204	NaN	0.000000	0.001662	0.001760	28.0804	0.004545	0.002158	2.105748	101.475	-163.817	-0.135802	0.849445	-0.239557	-0.240865	-0.072204	2.105748	-0.213840	-221.229	0.000326	NaN
785	1.000000	0.858740	7.37273e+06	-39389.1	1055.82	-29794	0.000000	0.000000	6.859074	-0.074490	NaN	0.000000	0.001631	0.001763	28.0804	0.061603	0.002039	30.2117	110.003	-167.506	-0.078767	0.857495	-0.231571	-0.232815	-0.074490	30.2117	-0.229721	-396.384	0.000188	NaN
785	1.000000	0.866749	7.37273e+06	-39389.1	1055.82	-29794	0.000000	0.000000	6.867083	-0.057047	NaN	0.000000	0.001598	0.001764	28.0806	0.054016	0.002054	26.3041	160.968	-168.211	-0.092472	0.865470	-0.223562	-0.224841	-0.057047	26.3041	-0.221935	-298.238	0.000191	NaN
785	1.000000	0.874759	7.37273e+06	-39389.1	1055.82	-29794	0.000000	0.000000	6.875095	-0.012231	NaN	0.000000	0.001597	0.001774	28.0801	0.080606	0.002025	39.8118	22.9399	-165.688	-0.130373	0.873421	-0.215551	-0.216889	-0.012231	39.8118	-0.215321	-233.71	5.233552E-5	NaN
785	1.000000	0.882755	7.37273e+06	-39389.1	1055.82	-29794	0.000000	0.000000	6.883088	-0.084902	NaN	0.000000	0.001657	0.001785	28.0805	0.115756	0.002063	56.1053	56.2098	-166.357	-0.079754	0.881481	-0.207555	-0.208829	-0.084902	56.1053	-0.206420	-167.766	0.000506	NaN
785	1.000000	0.890767	7.37274e+06	-39389.1	1055.82	-29794	0.000000	0.000000	6.891099	-0.107790	NaN	0.000000	0.001679	0.001748	28.0804	0.107853	0.001894	56.9475	-87.8544	-168.404	-0.022069	0.889489	-0.199544	-0.200821	-0.107790	56.9475	-0.198124	-122.694	0.000879	NaN
785	1.000000	0.898745	7.37274e+06	-39389.1	1055.82	-29794	0.000000	0.000000	6.899076	-0.131552	NaN	0.000000	0.001626	0.001741	28.0803	0.064458	0.001970	32.7186	100.856	-164.649	-0.137640	0.897419	-0.191565	-0.192891	-0.131552	32.7186	-0.188550	-85.0695	0.001546	NaN
785	1.000000	0.906788	7.37274e+06	-39389.1	1055.82	-29794	0.000000	0.000000	6.907123	-0.039384	NaN	0.000000	0.001715	0.001779	28.0807	0.151974	0.002065	73.5988	9.603816	-163.484	-0.078767	0.905458	-0.183522	-0.184852	-0.039384	73.5988	-0.183121	-68.9296	0.000571	NaN
785	1.000000	0.914812	7.37274e+06	-39389.1	1055.82	-29794	0.000000	0.000000	6.915146	-0.074621	NaN	0.000000	0.001674	0.001768	28.0803	0.085258	0.001968	43.3256	-32.0098	-163.409	0.032625	0.913485	-0.175498	-0.176825	-0.074621	43.3256	-0.174206	-48.5657	0.001536	NaN
785	1.000000	0.922775	7.37274e+06	-39389.1	1055.82	-29794	0.000000	0.000000	6.923108	-0.111227	NaN	0.000000	0.001666	0.001743	28.0816	0.072470	0.001905	38.0397	-45.3482	-161.139	0.030007	0.921473	-0.167535	-0.168837	-0.111227	38.0397	-0.165342	-34.065	0.003265	NaN
785	1.000000	0.930786	7.37274e+06	-39389.1	1055.82	-29794	0.000000	0.000000	6.931120	-0.071995	NaN	0.000000	0.001665	0.001763	28.0814	0.058662	0.001966	29.8407	10.4628	-165.341	-0.022118	0.929486	-0.159524	-0.160824	-0.071995	29.8407	-0.157715	-24.9609	0.002884	NaN
785	1.000000	0.938784	7.37274e+06	-39389.1	1055.82	-29794	0.000000	0.000000	6.939117	-0.092845	NaN	0.000000	0.001695	0.001762	28.0814	0.054336	0.002121	25.6188	-87.0733	-167.107	-0.087431	0.937503	-0.151526	-0.152808	-0.092845	25.6188	-0.148808	-17.2277	0.005389	NaN
785	1.000000	0.946772	7.37274e+06	-39389.1	1055.82	-29794	0.000000	0.000000	6.947104	-0.124071	NaN	0.000000	0.001702	0.001743	28.0816	0.134793	0.002040	66.0877	103.939	-163.422	-0.094742	0.945542	-0.143538	-0.144768	-0.124071	66.0877	-0.142130	-12.9672	0.009568	NaN
785	1.000000	0.954799	7.37274e+06	-39389.1	1055.82	-29794	0.000000	0.000000	6.955134	-0.038293	NaN	0.000000	0.001711	0.001780	28.0819	0.097366	0.001929	50.4641	153.379	-163.376	-0.135185	0.953452	-0.135511	-0.136859	-0.038293	50.4641	-0.134942	-9.488321	0.004036	NaN
785	1.000000	0.962773	7.37274e+06	-39389.1	1055.82	-29794	0.000000	0.000000	6.963105	-0.114681	NaN	0.000000	0.001702	0.001786	28.0816	0.033828	0.002006	16.8647	166.23	-167.525	0.000423	0.961503	-0.127538	-0.128807	-0.114681	16.8647	-0.122438	-5.408016	0.021206	NaN
785	1.000000	0.970811	7.37274e+06	-39389.1	1055.82	-29794	0.000000	0.000000	6.971145	-0.063539	NaN	0.000000	0.001671	0.001755	28.0815	0.077567	0.002058	37.6845	43.2732	-163.352	-0.063534	0.969492	-0.119499	-0.120818	-0.063539	37.6845	-0.118235	-4.449642	0.014279	NaN
785	1.000000	0.978813	7.37274e+06	-39389.1	1055.82	-29794	0.000000	0.000000	6.979145	-0.119018	NaN	0.000000	0.001671	0.001787	28.0817	0.088144	0.001851	47.6327	-138.887	-164.157	-0.134696	0.977469	-0.111498	-0.112842	-0.119018	47.6327	-0.109624	-2.950737	0.040335	NaN
785	1.000000	0.986824	7.37274e+06	-39389.1	1055.82	-29794	0.000000	0.000000	6.987157	-0.091200	NaN	0.000000	0.001670	0.001761	28.0816	0.049986	0.002036	24.5531	-136.745	-162.153	-0.069324	0.985485	-0.103487	-0.104825	-0.091200	24.5531	-0.100701	-1.893563	0.048163	NaN
785	1.000000	0.994801	7.37274e+06	-39389.1	1055.82	-29794	0.000000	0.000000	6.995135	-0.087312	NaN	0.000000	0.001658	0.001845	28.0817	0.083177	0.002042	40.7291	-14.3893	-165.106	-0.078658	0.993522	-0.095509	-0.096788	-0.087312	40.7291	-0.093901	-1.331365	0.065581	NaN
785	1.000000	1.002841	7.37274e+06	-39389.1	1055.82	-29794	0.000000	0.000000	7.003175	-0.069426	NaN	0.000000	0.001647	0.001795	28.0816	0.119719	0.002104	56.8972	135.872	-166.673	-0.042533	1.001506	-0.087469	-0.088805	-0.069426	56.8972	-0.086554	-0.895575	0.077521	NaN
785	1.000000	1.010818	7.37274e+06	-39389.1	1055.82	-29794	0.000000	0.000000	7.011152	-0.062383	NaN	0.000000	0.001657	0.001754	28.0816	0.056673	0.002032	27.8884	-68.528	-164.713	-0.136073	1.009529	-0.079493	-0.080781	-0.062383	27.8884	-0.077815	-0.545309	0.114400	NaN
785	1.000000	1.018817	7.37274e+06	-39389.1	1055.82	-29794	0.000000	0.000000	7.019151	-0.060309	NaN	0.000000	0.001662	0.001772	28.0818	0.030162	0.001839	16.4054	-159.083	-164.065	-0.023344	1.017463	-0.071493	-0.072847	-0.060309	16.4054	-0.068736	-0.315417	0.191205	NaN
785	1.000000	1.026805	7.37274e+06	-39389.1	1055.82	-29794	0.000000	0.000000	7.027136	-0.145214	NaN	0.000000	0.001679	0.001781	28.0813	0.104119	0.001918	54.2728	-56.3545	-162.596	-0.144874	1.025521	-0.063505	-0.064789	-0.145214	54.2728	-0.061499	-0.198736	0.730690	NaN
785	1.000000	1.034851	7.37274e+06	-39389.1	1055.82	-29794	0.000000	0.000000	7.035184	-0.080579	NaN	0.000000	0.001685	0.001727	28.081	0.082892	0.002097	39.5314	59.3089	-164.631	-0.080938	1.033582	-0.055460	-0.056728	-0.080579	39.5314	-0.053931	-0.119716	0.673089	NaN
785	1.000000	1.042836	7.37274e+06	-39389.1	1055.82	-29794	0.000000	0.000000	7.043167	-0.145133	NaN	0.000000	0.001652	0.001729	28.0812	0.046631	0.002020	23.084	66.8989	-165.812	-0.181015	1.041498	-0.047474	-0.048813	-0.145133	23.084	-0.042759	-0.054885	2.644324	NaN
785	1.000000	1.050837	7.37274e+06	-39389.1	1055.82	-29794	0.000000	0.000000	7.051172	-0.048258	NaN	0.000000	0.001683	0.001761	28.0815	0.067444	0.002010	33.5486	27.0186	-163.478	-0.033538	1.049482	-0.039474	-0.040828	-0.048258	33.5486	-0.038395	-0.040435	1.193474	NaN
785	1.000000	1.058842	7.37274e+06	-39389.1	1055.82	-29794	0.000000	0.000000	7.059177	-0.035320	NaN	0.000000	0.001701	0.001759	28.0801	0.090056	0.002055	43.8135	-170.356	-164.983	-0.061923	1.057536	-0.031469	-0.032774	-0.035320	43.8135	-0.030864	-0.024332	1.451595	NaN
785	1.000000	1.066814	7.37274e+06	-39389.1	1055.82	-29794	0.000000	0.000000	7.067149	-0.052768	NaN	0.000000	0.001682	0.001765	28.08	0.114421	0.002013	56.8539	-75.5729	-169.693	-0.054707	1.065557	-0.023496	-0.024753	-0.052768	56.8539	-0.022800	-0.014801	3.565166	NaN
785	1.000000	1.074838	7.37274e+06	-39389.1	1055.82	-29794	0.000000	0.000000	7.075172	-0.074935	NaN	0.000000	0.001664	0.001793	28.08	0.052860	0.001943	27.1983	-97.0729	-162.13	-0.109810	1.073536	-0.015472	-0.016774	-0.074935	27.1983	-0.013406	-0.008337	8.988142	NaN
785	1.000000	1.082857	7.37274e+06	-39389.1	1055.82	-29794	0.000000	0.000000	7.083191	-0.085164	NaN	0.000000	0.001679	0.001797	28.0799	0.117480	0.002017	58.2438	-142.269	-163.707	-0.057845	1.081565	-0.007453	-0.008745	-0.085164	58.2438	-0.006356	-0.004253	20.0235	NaN
785	1.000000	1.090835	7.37274e+06	-39389.1	1055.82	-29794	0.000000	0.000000	7.091220	1.185623	NaN	0.000000	0.001702	0.001777	28.0803	1.842195	0.001902	968.654	11.1157	-167.211	0.292948	1.089482	0.000525	-0.000829	1.185623	968.654	-0.000393	-0.000292	-4063.31	NaN
785	2.000000	1.098249	7.37274e+06	-39389.1	1055.82	-29794	0.000000	0.000000	7.098968	9.302610	NaN	0.000000	0.001677	0.001776	28.0802	8.272438	0.001709	4840.86	12.2797	-172.36	9.129957	1.097437	0.007939	0.007127	9.302610	4840.86	0.006498	0.005542	1678.53	59409.7
785	2.000000	1.100392	7.37274e+06	-39389.1	1055.82	-29794	0.000000	0.000000	7.101197	11.3785	NaN	0.000000	0.001648	0.001758	28.0799	10.5042	0.001646	6382.26	5.733132	-172.342	10.4335	1.100048	0.010082	0.009738	11.3785	6382.26	0.008745	0.007820	1455.12	65940.9
785	2.000000	1.102290	7.37274e+06	-39389.1	1055.82	-29794	0.000000	0.000000	7.103260	15.3916	NaN	0.000000	0.001695	0.001768	28.0801	12.5311	0.001617	7750.79	2.288539	-171.088	13.7428	1.102015	0.011980	0.011705	15.3916	7750.79	0.010491	0.009732	1581.52	71782
785	2.000000	1.104327	7.37274e+06	-39389.1	1055.82	-29794	0.000000	0.000000	7.105463	19.4523	NaN	0.000000	0.001724	0.001766	28.0799	15.1366	0.001825	8293.72	6.251749	-174.383	18.4252	1.104102	0.014016	0.013792	19.4523	8293.72	0.012257	0.011800	1648.53	69756.6
785	2.000000	1.106373	7.37274e+06	-39389.1	1055.82	-29794	0.000000	0.000000	7.107668	23.3088	NaN	0.000000	0.001725	0.001770	28.0806	16.6243	0.001706	9744.05	4.901455	-173.579	24.1437	1.106015	0.016063	0.015705	23.3088	9744.05	0.014269	0.014322	1627.44	74388.4
785	2.000000	1.108323	7.37274e+06	-39389.1	1055.82	-29794	0.000000	0.000000	7.109753	26.5985	NaN	0.000000	0.001716	0.001805	28.0803	18.1975	0.001795	10136.5	3.956941	-173.234	25.8641	1.107920	0.018013	0.017610	26.5985	10136.5	0.016045	0.016704	1592.3	71655.1
785	2.000000	1.110326	7.37274e+06	-39389.1	1055.82	-29794	0.000000	0.000000	7.111932	30.8854	NaN	0.000000	0.001675	0.001758	28.0799	20.7927	0.001705	12194.8	7.030553	-178.808	29.9606	1.110011	0.020016	0.019700	30.8854	12194.8	0.018117	0.019669	1570.28	79443.7
785	2.000000	1.112280	7.37274e+06	-39389.1	1055.82	-29794	0.000000	0.000000	7.114089	35.8157	NaN	0.000000	0.001700	0.001758	28.0804	22.2851	0.001715	12997.9	6.531779	-179.09	33.8678	1.111939	0.021970	0.021629	35.8157	12997.9	0.019903	0.022391	1599.57	79361.8
785	2.000000	1.114282	7.37274e+06	-39389.1	1055.82	-29794	0.000000	0.000000	7.116226	39.1117	NaN	0.000000	0.001585	0.001765	28.0799	25.0041	0.001876	13327.8	7.747696	-178.96	37.9442	1.113989	0.023972	0.023679	39.1117	13327.8	0.021771	0.025402	1539.72	76401
785	2.000000	1.116350	7.37274e+06	-39389.1	1055.82	-29794	0.000000	0.000000	7.118509	44.3512	NaN	0.000000	0.001641	0.001762	28.0807	25.7546	0.001779	14479.5	5.148359	-176.223	46.2198	1.116004	0.026039	0.025693	44.3512	14479.5	0.023742	0.028767	1541.74	77997.4
785	2.000000	1.118243	7.37274e+06	-39389.1	1055.82	-29794	0.000000	0.000000	7.120633	49.9613	NaN	0.000000	0.001621	0.001793	28.0802	28.177	0.001802	15633.2	3.145491	-177.264	48.2204	1.117972	0.027933	0.027662	49.9613	15633.2	0.025536	0.031998	1561.39	79847.3
785	2.000000	1.120332	7.37274e+06	-39389.1	1055.82	-29794	0.000000	0.000000	7.122970	55.9781	NaN	0.000000	0.001613	0.001774	28.0798	30.1508	0.001907	15812.8	3.285551	-175.755	56.0138	1.119974	0.030022	0.029663	55.9781	15812.8	0.027367	0.035463	1578.48	76717
785	2.000000	1.122338	7.37274e+06	-39389.1	1055.82	-29794	0.000000	0.000000	7.125109	59.2368	NaN	0.000000	0.001631	0.001767	28.0818	31.7935	0.001795	17710	4.319883	-178.603	60.299	1.122017	0.032028	0.031707	59.2368	17710	0.029519	0.039753	1490.14	81154.1
785	2.000000	1.124284	7.37274e+06	-39389.1	1055.82	-29794	0.000000	0.000000	7.127440	68.5807	NaN	0.000000	0.001597	0.001779	28.0811	34.2461	0.001946	17600.5	9.080953	178.056	68.2383	1.123873	0.033974	0.033563	68.5807	17600.5	0.031052	0.042952	1596.68	77590.2
785	2.000000	1.126296	7.37274e+06	-39389.1	1055.82	-29794	0.000000	0.000000	7.129580	71.7032	NaN	0.000000	0.001599	0.001768	28.0814	35.8069	0.001857	19285.9	7.412486	178.931	73.3593	1.125933	0.035986	0.035623	71.7032	19285.9	0.033198	0.047633	1505.33	80734.7
785	2.000000	1.128234	7.37274e+06	-39389.1	1055.82	-29794	0.000000	0.000000	7.131802	78.6199	NaN	0.000000	0.001583	0.001788	28.0813	37.2028	0.001729	21518.8	5.343209	178.547	76.1067	1.127961	0.037924	0.037651	78.6199	21518.8	0.035183	0.052174	1506.88	86072.4
785	2.000000	1.130233	7.37274e+06	-39389.1	1055.82	-29794	0.000000	0.000000	7.134009	83.689	NaN	0.000000	0.001544	0.001784	28.0812	40.2061	0.001900	21161.5	6.995230	177.806	81.5683	1.129994	0.039922	0.039684	83.689	21161.5	0.036956	0.056399	1483.87	81410.9
785	2.000000	1.132244	7.37274e+06	-39389.1	1055.82	-29794	0.000000	0.000000	7.136259	89.4954	NaN	0.000000	0.001547	0.001784	28.0822	40.8413	0.001847	22114.6	1.836035	-177.735	87.5425	1.131945	0.041934	0.041634	89.4954	22114.6	0.038899	0.061213	1462.03	81663.9
785	2.000000	1.134249	7.37274e+06	-39389.1	1055.82	-29794	0.000000	0.000000	7.138683	99.7179	NaN	0.000000	0.001561	0.001797	28.0813	43.4857	0.001865	23316	5.082026	178.966	98.9689	1.133924	0.043939	0.043614	99.7179	23316	0.040731	0.065931	1512.45	82962.6
785	2.000000	1.136263	7.37274e+06	-39389.1	1055.82	-29794	0.000000	0.000000	7.140859	103.63	NaN	0.000000	0.001555	0.001790	28.0814	44.8345	0.001863	24069.9	4.705978	178.81	102.752	1.136013	0.045953	0.045703	103.63	24069.9	0.042724	0.071258	1454.29	82381.7
785	2.000000	1.138216	7.37274e+06	-39389.1	1055.82	-29794	0.000000	0.000000	7.143168	112.311	NaN	0.000000	0.001540	0.001798	28.0817	46.3469	0.001877	24697.4	0.813652	-177.573	109.716	1.137880	0.047906	0.047569	112.311	24697.4	0.044495	0.076161	1474.66	81763.4
785	2.000000	1.140263	7.37274e+06	-39389.1	1055.82	-29794	0.000000	0.000000	7.145730	124.843	NaN	0.000000	0.001569	0.001757	28.0813	47.8578	0.001733	27621.9	1.647434	-178.755	123.91	1.139829	0.049953	0.049519	124.843	27621.9	0.046563	0.082086	1520.88	88083
785	2.000000	1.142184	7.37274e+06	-39389.1	1055.82	-29794	0.000000	0.000000	7.147650	124.81	NaN	0.000000	0.001560	0.001760	28.0818	50.2507	0.001843	27269.6	6.588826	175.067	120.831	1.141919	0.051874	0.051609	124.81	27269.6	0.048441	0.087656	1423.87	84151.7
785	2.000000	1.144208	7.37274e+06	-39389.1	1055.82	-29794	0.000000	0.000000	7.150025	133.346	NaN	0.000000	0.001556	0.001776	28.0813	51.7405	0.001845	28038.7	0.843134	-178.871	130.726	1.143973	0.053898	0.053663	133.346	28038.7	0.050331	0.093439	1427.09	83804.1
785	2.000000	1.146238	7.37274e+06	-39389.1	1055.82	-29794	0.000000	0.000000	7.152441	142.742	NaN	0.000000	0.001554	0.001766	28.0816	54.0268	0.001889	28607.4	6.889552	175.37	140.401	1.145892	0.055928	0.055581	142.742	28607.4	0.052185	0.099287	1437.66	82947.7
785	2.000000	1.148258	7.37274e+06	-39389.1	1055.82	-29794	0.000000	0.000000	7.154765	150.147	NaN	0.000000	0.001509	0.001773	28.0814	55.7538	0.001834	30393.2	3.144217	178.285	149.707	1.147937	0.057948	0.057626	150.147	30393.2	0.054243	0.105977	1416.79	85299
785	2.000000	1.150261	7.37274e+06	-39389.1	1055.82	-29794	0.000000	0.000000	7.157102	158.276	NaN	0.000000	0.001517	0.001788	28.0814	57.392	0.001813	31663.7	4.282964	176.809	157.118	1.150008	0.059951	0.059697	158.276	31663.7	0.056202	0.112543	1406.36	86233.4
785	2.000000	1.152235	7.37274e+06	-39389.1	1055.82	-29794	0.000000	0.000000	7.159548	169.778	NaN	0.000000	0.001541	0.001758	28.0817	58.9685	0.001908	30902.1	4.811762	177.681	170.224	1.151930	0.061924	0.061619	169.778	30902.1	0.057804	0.118051	1438.18	82172.4
785	2.000000	1.154182	7.37274e+06	-39389.1	1055.82	-29794	0.000000	0.000000	7.162147	185.634	NaN	0.000000	0.001555	0.001810	28.0812	60.7464	0.001734	35031.7	4.084382	176.553	182.781	1.153814	0.063871	0.063504	185.634	35031.7	0.059897	0.125440	1479.86	90368.3
785	2.000000	1.156205	7.37274e+06	-39389.1	1055.82	-29794	0.000000	0.000000	7.164366	190.4	NaN	0.000000	0.001526	0.001773	28.0804	62.425	0.001889	33046.7	2.826004	178.154	188.578	1.155901	0.065895	0.065591	190.4	33046.7	0.061574	0.131511	1447.78	83256.8
785	2.000000	1.158226	7.37274e+06	-39389.1	1055.82	-29794	0.000000	0.000000	7.166733	198.807	NaN	0.000000	0.001542	0.001760	28.0801	65.3358	0.001833	35648.2	3.677215	176.281	197.103	1.157899	0.067916	0.067589	198.807	35648.2	0.063734	0.139536	1424.77	87190.3
785	2.000000	1.160276	7.37274e+06	-39389.1	1055.82	-29794	0.000000	0.000000	7.169458	215.235	NaN	0.000000	0.001588	0.001762	28.0801	68.0789	0.001908	35679.1	8.754451	171.982	215.262	1.159862	0.069966	0.069552	215.235	35679.1	0.065442	0.146041	1473.8	85300
785	2.000000	1.162203	7.37274e+06	-39389.1	1055.82	-29794	0.000000	0.000000	7.171765	224.495	NaN	0.000000	0.001550	0.001768	28.0803	68.28	0.001743	39183.1	3.488551	176.022	223.799	1.161890	0.071893	0.071580	224.495	39183.1	0.067596	0.154445	1453.56	91093
785	2.000000	1.164214	7.37274e+06	-39389.1	1055.82	-29794	0.000000	0.000000	7.174233	235.617	NaN	0.000000	0.001568	0.001784	28.0803	71.7246	0.001877	38207.3	3.664499	176.413	233.313	1.163940	0.073904	0.073629	235.617	38207.3	0.069279	0.161167	1461.95	86952.4
785	2.000000	1.166153	7.37274e+06	-39389.1	1055.82	-29794	0.000000	0.000000	7.176602	246.067	NaN	0.000000	0.001563	0.001758	28.0807	72.2215	0.001721	41969.5	5.906394	172.331	241.421	1.165920	0.075843	0.075610	246.067	41969.5	0.071445	0.170018	1447.3	92995.1
785	2.000000	1.168122	7.37274e+06	-39389.1	1055.82	-29794	0.000000	0.000000	7.179255	262.71	NaN	0.000000	0.001560	0.001762	28.0803	73.9941	0.001720	43028.5	2.549315	176.263	257.817	1.167905	0.077812	0.077595	262.71	43028.5	0.073233	0.177487	1480.17	93314
785	2.000000	1.170194	7.37274e+06	-39389.1	1055.82	-29794	0.000000	0.000000	7.181680	271.325	NaN	0.000000	0.001554	0.001811	28.0802	76.6276	0.001822	42066.1	2.095437	176.77	270.293	1.169886	0.079884	0.079576	271.325	42066.1	0.075046	0.185218	1464.89	89302.5
785	2.000000	1.172202	7.37274e+06	-39389.1	1055.82	-29794	0.000000	0.000000	7.184247	284.927	NaN	0.000000	0.001581	0.001798	28.0803	78.3963	0.001850	42366.8	3.779492	175.069	283.942	1.171876	0.081892	0.081566	284.927	42366.8	0.076848	0.193054	1475.9	88096.6
785	2.000000	1.174240	7.37274e+06	-39389.1	1055.82	-29794	0.000000	0.000000	7.186873	299.209	NaN	0.000000	0.001570	0.001771	28.0802	82.2274	0.001704	48265.4	9.778458	168.537	300.372	1.173808	0.083930	0.083498	299.209	48265.4	0.079280	0.203875	1467.61	97662.3
785	2.000000	1.176164	7.37274e+06	-39389.1	1055.82	-29794	0.000000	0.000000	7.189475	315.728	NaN	0.000000	0.001593	0.001792	28.0806	82.7101	0.001869	44243.6	7.171271	171.806	312.412	1.175638	0.085854	0.085328	315.728	44243.6	0.080502	0.209411	1507.7	88333.2
785	2.000000	1.178188	7.37274e+06	-39389.1	1055.82	-29794	0.000000	0.000000	7.191860	324.484	NaN	0.000000	0.001563	0.001785	28.0802	83.9724	0.001736	48380.3	2.399248	175.313	323.328	1.177965	0.087878	0.087655	324.484	48380.3	0.082848	0.220243	1473.3	94187
785	2.000000	1.180287	7.37274e+06	-39389.1	1055.82	-29794	0.000000	0.000000	7.194475	337.051	NaN	0.000000	0.001558	0.001829	28.08	87.4115	0.001828	47820.3	5.663486	172.649	338.36	1.179913	0.089977	0.089603	337.051	47820.3	0.084691	0.228929	1472.29	91313.5
785	2.000000	1.182181	7.37274e+06	-39389.1	1055.82	-29794	0.000000	0.000000	7.197115	355.219	NaN	0.000000	0.001531	0.001793	28.0799	88.9426	0.001733	51336.8	8.115267	168.994	354.008	1.181957	0.091871	0.091647	355.219	51336.8	0.086682	0.238489	1489.45	96043.4
785	2.000000	1.184202	7.37274e+06	-39389.1	1055.82	-29794	0.000000	0.000000	7.199498	364.022	NaN	0.000000	0.001570	0.001817	28.08	92.7344	0.001920	48303.1	9.085886	168.937	363.667	1.183917	0.093892	0.093606	364.022	48303.1	0.088240	0.246098	1479.18	88959.9
785	2.000000	1.186205	7.37274e+06	-39389.1	1055.82	-29794	0.000000	0.000000	7.202021	376.692	NaN	0.000000	0.001583	0.001800	28.0804	91.3886	0.001707	53523.1	3.026890	173.872	374.833	1.186009	0.095894	0.095699	376.692	53523.1	0.090616	0.257918	1460.51	96288.3
785	2.000000	1.188251	7.37274e+06	-39389.1	1055.82	-29794	0.000000	0.000000	7.204491	387.007	NaN	0.000000	0.001574	0.001800	28.0801	95.7116	0.001824	52463.7	5.957218	171.179	389.011	1.188009	0.097941	0.097699	387.007	52463.7	0.092408	0.267005	1449.43	92762.4
785	2.000000	1.190248	7.37274e+06	-39389.1	1055.82	-29794	0.000000	0.000000	7.207572	413.376	NaN	0.000000	0.001556	0.001810	28.0816	96.4478	0.001859	51874	2.343019	175.508	414.503	1.189920	0.099938	0.099610	413.376	51874	0.093961	0.274997	1503.2	90377.1
785	2.000000	1.192140	7.37274e+06	-39389.1	1055.82	-29794	0.000000	0.000000	7.210126	429.478	NaN	0.000000	0.001581	0.001789	28.0811	97.6089	0.001809	53965.2	3.447408	173.89	427.354	1.191890	0.101830	0.101579	429.478	53965.2	0.095861	0.284924	1507.34	92368.2
785	2.000000	1.194178	7.37274e+06	-39389.1	1055.82	-29794	0.000000	0.000000	7.212833	445.78	NaN	0.000000	0.001572	0.001809	28.0814	101.57	0.001906	53299.6	9.705724	167.628	442.575	1.193769	0.103867	0.103459	445.78	53299.6	0.097595	0.294125	1515.61	89790.7
785	2.000000	1.196084	7.37274e+06	-39389.1	1055.82	-29794	0.000000	0.000000	7.215051	453.36	NaN	0.000000	0.001548	0.001760	28.0812	100.492	0.001883	53376.8	1.395577	175.821	446.833	1.195754	0.105774	0.105443	453.36	53376.8	0.099404	0.303873	1491.94	88466.7
785	2.000000	1.196621	7.37274e+06	-39389.1	1055.82	-29794	0.000000	0.000000	7.216027	464.058	NaN	0.000000	0.001556	0.001806	28.0813	101.55	0.001862	54523.8	3.710511	-6.187828	456.445	1.196192	0.106311	0.105882	464.058	54523.8	0.099927	0.306723	1512.95	89946.9