File: remote_trans/data/nanoindenter/0828-1/data/Data_2025-08-06,11h17m57s/2025-07-22_16-23-58_1_766.txt
2025-07-22, 16:23:58, 1
Index	Phase	Displacement	Time	Pos X	Pos Y	Pos Z	Rot A	Rot B	Piezo Z	Force A	Force B	Gripper	Voltage A	Voltage B	Temperature	Amplitude force	Amplitude pos	Stiffness	Phase shift	Phase excitation	Force A raw	Displacement raw	HMax	HMax raw	Real Force	Real Stiffness	Contact Depth	Area	Hardness	Reduced Mod.
[#]	[#]	[um]	[s]	[um]	[um]	[um]	[m°]	[m°]	[um]	[uN]	[uN]	[V]	[V]	[V]	[°C]	[uN]	[um]	[N/m]	[°]	[°]	[uN]	[um]	[um]	[um]	[uN]	[N/m]	[um]	[um^2]	[MPa]	[MPa]
766	1.000000	0.002497	7.37255e+06	-38789.1	1005.82	-29796.1	0.000000	0.000000	6.002793	0.091743	NaN	0.000000	0.001613	0.001710	28.0818	0.100907	0.001000	100.946	17.4743	-169.339	0.109024	0.001268	-1.163788	-1.165017	0.091743	100.946	-1.164470	-3.670927E+15	-2.499171E-17	NaN
766	1.000000	0.012563	7.37255e+06	-38789.1	1005.82	-29796.1	0.000000	0.000000	6.012859	0.090272	NaN	0.000000	0.001666	0.001720	28.0819	0.121232	0.001316	92.1093	-135.539	12.8672	0.042905	0.011142	-1.153722	-1.155143	0.090272	92.1093	-1.154457	-2.695039E+15	-3.349576E-17	NaN
766	1.000000	0.022472	7.37255e+06	-38789.1	1005.82	-29796.1	0.000000	0.000000	6.022766	0.024435	NaN	0.000000	0.001673	0.001710	28.0816	0.059972	0.001725	34.7608	-130.67	-166.42	-0.032581	0.021108	-1.143813	-1.145177	0.024435	34.7608	-1.144340	-1.972122E+15	-1.239030E-17	NaN
766	1.000000	0.032465	7.37255e+06	-38789.1	1005.82	-29796.1	0.000000	0.000000	6.032758	0.015929	NaN	0.000000	0.001666	0.001727	28.0818	0.030625	0.001950	15.7014	57.3955	13.9846	0.063501	0.031105	-1.133820	-1.135180	0.015929	15.7014	-1.134580	-1.459008E+15	-1.091751E-17	NaN
766	1.000000	0.042462	7.37255e+06	-38789.1	1005.82	-29796.1	0.000000	0.000000	6.042753	-0.032272	NaN	0.000000	0.001654	0.001694	28.0817	0.070115	0.002074	33.8067	6.086656	-164.322	0.000710	0.041169	-1.123823	-1.125115	-0.032272	33.8067	-1.123107	-1.023670E+15	3.152621E-17	NaN
766	1.000000	0.052484	7.37255e+06	-38789.1	1005.82	-29796.1	0.000000	0.000000	6.052774	-0.050455	NaN	0.000000	0.001667	0.001657	28.0817	0.002939	0.002003	1.466942	125.978	13.0441	-0.027098	0.051100	-1.113801	-1.115185	-0.050455	1.466942	-1.088005	-3.459591E+14	1.458400E-16	NaN
766	1.000000	0.062477	7.37255e+06	-38789.1	1005.82	-29796.1	0.000000	0.000000	6.062769	0.005250	NaN	0.000000	0.001686	0.001711	28.0816	0.054909	0.002088	26.2998	-140.964	-167.675	-0.000725	0.061160	-1.103808	-1.105125	0.005250	26.2998	-1.103958	-5.664946E+14	-9.266997E-18	NaN
766	1.000000	0.072457	7.37255e+06	-38789.1	1005.82	-29796.1	0.000000	0.000000	6.072748	-0.027745	NaN	0.000000	0.001684	0.001699	28.0817	0.132257	0.002063	64.1222	30.2282	12.1752	-0.012070	0.071052	-1.093828	-1.095233	-0.027745	64.1222	-1.093504	-4.100650E+14	6.766028E-17	NaN
766	1.000000	0.082467	7.37255e+06	-38789.1	1005.82	-29796.1	0.000000	0.000000	6.082758	-0.051082	NaN	0.000000	0.001651	0.001727	28.0817	0.043583	0.001964	22.1893	-139.212	-167.58	-0.007491	0.081163	-1.083817	-1.085122	-0.051082	22.1893	-1.082091	-2.881387E+14	1.772830E-16	NaN
766	1.000000	0.092490	7.37255e+06	-38789.1	1005.82	-29796.1	0.000000	0.000000	6.092782	-0.013181	NaN	0.000000	0.001666	0.001721	28.082	0.037773	0.002102	17.9669	-81.3423	13.9472	0.079804	0.091088	-1.073795	-1.075197	-0.013181	17.9669	-1.073245	-2.191685E+14	6.014278E-17	NaN
766	1.000000	0.102490	7.37255e+06	-38789.1	1005.82	-29796.1	0.000000	0.000000	6.102781	-0.020918	NaN	0.000000	0.001642	0.001681	28.0829	0.113521	0.001935	58.6702	-128.759	-168.31	0.047033	0.101196	-1.063795	-1.065089	-0.020918	58.6702	-1.063528	-1.622657E+14	1.289105E-16	NaN
766	1.000000	0.112479	7.37255e+06	-38789.1	1005.82	-29796.1	0.000000	0.000000	6.112771	-0.004382	NaN	0.000000	0.001612	0.001729	28.0828	0.021281	0.002030	10.4815	11.5498	9.786840	-0.036226	0.111118	-1.053806	-1.055167	-0.004382	10.4815	-1.053493	-1.189499E+14	3.684047E-17	NaN
766	1.000000	0.122478	7.37255e+06	-38789.1	1005.82	-29796.1	0.000000	0.000000	6.122771	-0.001711	NaN	0.000000	0.001647	0.001727	28.0829	0.080447	0.002061	39.0417	39.6612	-166.443	0.082560	0.121143	-1.043807	-1.045142	-0.001711	39.0417	-1.043774	-8.804607E+13	1.943089E-17	NaN
766	1.000000	0.132483	7.37255e+06	-38789.1	1005.82	-29796.1	0.000000	0.000000	6.132775	-0.010417	NaN	0.000000	0.001703	0.001746	28.0831	0.066220	0.001986	33.3371	-165.192	15.1213	-0.003706	0.131105	-1.033802	-1.035180	-0.010417	33.3371	-1.033567	-6.418894E+13	1.622812E-16	NaN
766	1.000000	0.142512	7.37255e+06	-38789.1	1005.82	-29796.1	0.000000	0.000000	6.142803	-0.046827	NaN	0.000000	0.001628	0.001772	28.0829	0.101397	0.001866	54.3438	132.512	-163.035	-0.076968	0.141197	-1.023773	-1.025088	-0.046827	54.3438	-1.023127	-4.645357E+13	1.008044E-15	NaN
766	1.000000	0.152503	7.37255e+06	-38789.1	1005.82	-29796.1	0.000000	0.000000	6.152794	-0.038179	NaN	0.000000	0.001661	0.001719	28.083	0.144543	0.002013	71.8142	-62.6536	14.9856	-0.057971	0.151096	-1.013782	-1.015189	-0.038179	71.8142	-1.013383	-3.434927E+13	1.111503E-15	NaN
766	1.000000	0.162504	7.37255e+06	-38789.1	1005.82	-29796.1	0.000000	0.000000	6.162797	0.016075	NaN	0.000000	0.001620	0.001719	28.0828	0.073571	0.001997	36.8399	-75.9486	-169.406	0.010281	0.161170	-1.003781	-1.005115	0.016075	36.8399	-1.004108	-2.576752E+13	-6.238516E-16	NaN
766	1.000000	0.172524	7.37255e+06	-38789.1	1005.82	-29796.1	0.000000	0.000000	6.172818	0.026935	NaN	0.000000	0.001635	0.001700	28.0832	0.158089	0.001968	80.3359	85.8188	13.3792	0.049762	0.171153	-0.993761	-0.995132	0.026935	80.3359	-0.994012	-1.884282E+13	-1.429441E-15	NaN
766	1.000000	0.182519	7.37255e+06	-38789.1	1005.82	-29796.1	0.000000	0.000000	6.182812	-0.002441	NaN	0.000000	0.001668	0.001714	28.083	0.029059	0.002067	14.0566	3.087080	-167.989	0.080708	0.181233	-0.983766	-0.985052	-0.002441	14.0566	-0.983635	-1.365796E+13	1.786984E-16	NaN
766	1.000000	0.192514	7.37255e+06	-38789.1	1005.82	-29796.1	0.000000	0.000000	6.192803	-0.086372	NaN	0.000000	0.001654	0.001692	28.083	0.003277	0.001964	1.668565	-43.882	13.3008	-0.078647	0.191138	-0.973771	-0.975147	-0.086372	1.668565	-0.934948	-3.012796E+12	2.866836E-14	NaN
766	1.000000	0.202526	7.37255e+06	-38789.1	1005.82	-29796.1	0.000000	0.000000	6.202817	-0.021519	NaN	0.000000	0.001695	0.001705	28.0828	0.037645	0.002022	18.6162	-125.395	-164.025	-0.052826	0.201231	-0.963759	-0.965054	-0.021519	18.6162	-0.962892	-7.175578E+12	2.998899E-15	NaN
766	1.000000	0.212543	7.37255e+06	-38789.1	1005.82	-29796.1	0.000000	0.000000	6.212836	0.018635	NaN	0.000000	0.001641	0.001695	28.0835	0.095797	0.002066	46.3646	-138.177	15.1248	0.006313	0.211145	-0.953742	-0.955140	0.018635	46.3646	-0.954043	-5.451955E+12	-3.418130E-15	NaN
766	1.000000	0.222538	7.37255e+06	-38789.1	1005.82	-29796.1	0.000000	0.000000	6.222833	0.079624	NaN	0.000000	0.001661	0.001713	28.0831	0.159735	0.001948	82.0012	-44.3125	-166.909	0.040180	0.221187	-0.943747	-0.945098	0.079624	82.0012	-0.944476	-4.050568E+12	-1.965742E-14	NaN
766	1.000000	0.232541	7.37255e+06	-38789.1	1005.82	-29796.1	0.000000	0.000000	6.232833	-0.018306	NaN	0.000000	0.001652	0.001718	28.0819	0.070102	0.001997	35.1041	-71.9139	17.016	0.004825	0.231180	-0.933744	-0.935104	-0.018306	35.1041	-0.933353	-2.867094E+12	6.384704E-15	NaN
766	1.000000	0.242526	7.37255e+06	-38789.1	1005.82	-29796.1	0.000000	0.000000	6.242815	-0.070521	NaN	0.000000	0.001663	0.001725	28.0817	0.090464	0.001990	45.4606	39.71	-165.211	-0.086484	0.241251	-0.923759	-0.925034	-0.070521	45.4606	-0.922596	-2.052346E+12	3.436107E-14	NaN
766	1.000000	0.252545	7.37255e+06	-38789.1	1005.82	-29796.1	0.000000	0.000000	6.252836	-0.016292	NaN	0.000000	0.001631	0.001712	28.0819	0.034960	0.002023	17.2838	-40.4557	16.904	-0.012638	0.251126	-0.913740	-0.915159	-0.016292	17.2838	-0.913033	-1.524510E+12	1.068669E-14	NaN
766	1.000000	0.262537	7.37255e+06	-38789.1	1005.82	-29796.1	0.000000	0.000000	6.262830	0.011238	NaN	0.000000	0.001636	0.001711	28.0818	0.092358	0.002064	44.753	0.292796	-166.648	-0.008662	0.261236	-0.903748	-0.905049	0.011238	44.753	-0.903937	-1.148828E+12	-9.782336E-15	NaN
766	1.000000	0.272540	7.37255e+06	-38789.1	1005.82	-29796.1	0.000000	0.000000	6.272832	-0.001197	NaN	0.000000	0.001646	0.001719	28.082	0.069924	0.002089	33.4671	-114.821	12.3673	0.059035	0.271204	-0.893745	-0.895081	-0.001197	33.4671	-0.893719	-8.359458E+11	1.431400E-15	NaN
766	1.000000	0.282521	7.37255e+06	-38789.1	1005.82	-29796.1	0.000000	0.000000	6.282813	-0.005107	NaN	0.000000	0.001645	0.001724	28.0817	0.067764	0.002021	33.5373	96.2927	-169.155	-0.003097	0.281241	-0.883764	-0.885044	-0.005107	33.5373	-0.883650	-6.110317E+11	8.358335E-15	NaN
766	1.000000	0.292568	7.37255e+06	-38789.1	1005.82	-29796.1	0.000000	0.000000	6.292863	0.048035	NaN	0.000000	0.001658	0.001728	28.0821	0.143088	0.002042	70.0668	-74.8613	11.8707	0.056328	0.291183	-0.873717	-0.875102	0.048035	70.0668	-0.874231	-4.556986E+11	-1.054094E-13	NaN
766	1.000000	0.302573	7.37255e+06	-38789.1	1005.82	-29796.1	0.000000	0.000000	6.302866	0.019334	NaN	0.000000	0.001665	0.001723	28.0822	0.029125	0.002032	14.3303	30.2877	-168.052	-0.023950	0.301260	-0.863712	-0.865025	0.019334	14.3303	-0.864724	-3.388870E+11	-5.705052E-14	NaN
766	1.000000	0.312565	7.37255e+06	-38789.1	1005.82	-29796.1	0.000000	0.000000	6.312859	0.046325	NaN	0.000000	0.001597	0.001729	28.0819	0.084955	0.001923	44.172	10.0212	14.8268	0.030606	0.311210	-0.853720	-0.855075	0.046325	44.172	-0.854506	-2.464645E+11	-1.879564E-13	NaN
766	1.000000	0.322579	7.37255e+06	-38789.1	1005.82	-29796.1	0.000000	0.000000	6.322872	0.009759	NaN	0.000000	0.001653	0.001747	28.0819	0.014564	0.001958	7.439383	-38.7642	-166.282	0.049830	0.321242	-0.843706	-0.845043	0.009759	7.439383	-0.844689	-1.814748E+11	-5.377460E-14	NaN
766	1.000000	0.332562	7.37255e+06	-38789.1	1005.82	-29796.1	0.000000	0.000000	6.332857	0.061903	NaN	0.000000	0.001677	0.001743	28.0819	0.035001	0.002028	17.2623	23.5237	13.8445	0.086251	0.331192	-0.833723	-0.835093	0.061903	17.2623	-0.836412	-1.401784E+11	-4.415982E-13	NaN
766	1.000000	0.342600	7.37255e+06	-38789.1	1005.82	-29796.1	0.000000	0.000000	6.342889	-0.063182	NaN	0.000000	0.001647	0.001793	28.0818	0.151992	0.001850	82.169	-91.0087	-162.912	-0.052688	0.341283	-0.823685	-0.825002	-0.063182	82.169	-0.823109	-9.254740E+10	6.826939E-13	NaN
766	1.000000	0.352584	7.37255e+06	-38789.1	1005.82	-29796.1	0.000000	0.000000	6.352878	0.041300	NaN	0.000000	0.001635	0.001781	28.0817	0.101046	0.002052	49.2498	136.456	12.9944	0.015897	0.351279	-0.813701	-0.815006	0.041300	49.2498	-0.814330	-7.035824E+10	-5.869917E-13	NaN
766	1.000000	0.362588	7.37255e+06	-38789.1	1005.82	-29796.1	0.000000	0.000000	6.362881	0.017600	NaN	0.000000	0.001644	0.001697	28.0821	0.066224	0.001941	34.1102	37.582	-168.98	0.015536	0.361303	-0.803697	-0.804982	0.017600	34.1102	-0.804084	-5.108557E+10	-3.445261E-13	NaN
766	1.000000	0.372588	7.37255e+06	-38789.1	1005.82	-29796.1	0.000000	0.000000	6.372880	-0.002034	NaN	0.000000	0.001641	0.001704	28.0831	0.086554	0.001992	43.4455	158.19	13.9489	0.071969	0.371204	-0.793697	-0.795081	-0.002034	43.4455	-0.793662	-3.688156E+10	5.515958E-14	NaN
766	1.000000	0.382610	7.37255e+06	-38789.1	1005.82	-29796.1	0.000000	0.000000	6.382900	-0.045729	NaN	0.000000	0.001637	0.001722	28.0831	0.067618	0.002067	32.712	25.7008	-165.798	-0.064538	0.381319	-0.783675	-0.784966	-0.045729	32.712	-0.782627	-2.611696E+10	1.750924E-12	NaN
766	1.000000	0.392585	7.37255e+06	-38789.1	1005.82	-29796.1	0.000000	0.000000	6.392876	-0.031356	NaN	0.000000	0.001664	0.001722	28.0831	0.052607	0.002019	26.0509	84.0052	13.4893	0.030048	0.391177	-0.773700	-0.775108	-0.031356	26.0509	-0.772797	-1.920145E+10	1.633025E-12	NaN
766	1.000000	0.402643	7.37255e+06	-38789.1	1005.82	-29796.1	0.000000	0.000000	6.402933	-0.050077	NaN	0.000000	0.001650	0.001724	28.0831	0.110831	0.001914	57.9177	-133.91	-164.858	-0.093359	0.401291	-0.763642	-0.764994	-0.050077	57.9177	-0.762994	-1.412616E+10	3.544967E-12	NaN
766	1.000000	0.412624	7.37255e+06	-38789.1	1005.82	-29796.1	0.000000	0.000000	6.412918	0.024142	NaN	0.000000	0.001636	0.001724	28.0831	0.084709	0.002010	42.136	52.8027	15.5384	-0.059476	0.411259	-0.753661	-0.755026	0.024142	42.136	-0.754090	-1.068793E+10	-2.258774E-12	NaN
766	1.000000	0.422611	7.37255e+06	-38789.1	1005.82	-29796.1	0.000000	0.000000	6.422901	-0.060398	NaN	0.000000	0.001659	0.001711	28.0829	0.014729	0.002042	7.213821	103.523	-166.673	-0.039850	0.421286	-0.743674	-0.744999	-0.060398	7.213821	-0.737394	-6.332276E+9	9.538130E-12	NaN
766	1.000000	0.432638	7.37255e+06	-38789.1	1005.82	-29796.1	0.000000	0.000000	6.432929	-0.023053	NaN	0.000000	0.001709	0.001712	28.0828	0.076248	0.002022	37.7053	39.246	15.1197	-0.040728	0.431222	-0.733647	-0.735063	-0.023053	37.7053	-0.733189	-5.549605E+9	4.154004E-12	NaN
766	1.000000	0.442651	7.37255e+06	-38789.1	1005.82	-29796.1	0.000000	0.000000	6.442943	-0.007162	NaN	0.000000	0.001690	0.001722	28.083	0.055533	0.001897	29.2778	-119.619	-171.008	0.030668	0.441340	-0.723634	-0.724945	-0.007162	29.2778	-0.723451	-4.088193E+9	1.751881E-12	NaN
766	1.000000	0.452619	7.37255e+06	-38789.1	1005.82	-29796.1	0.000000	0.000000	6.452915	0.077201	NaN	0.000000	0.001664	0.001702	28.083	0.092229	0.001995	46.2266	-138.145	15.3032	0.082645	0.451229	-0.713666	-0.715056	0.077201	46.2266	-0.714918	-3.127197E+9	-2.468697E-11	NaN
766	1.000000	0.462623	7.37255e+06	-38789.1	1005.82	-29796.1	0.000000	0.000000	6.462913	-0.075495	NaN	0.000000	0.001673	0.001716	28.083	0.106146	0.002074	51.1717	-174.813	-165.155	-0.073855	0.461323	-0.703662	-0.704962	-0.075495	51.1717	-0.702555	-2.120425E+9	3.560380E-11	NaN
766	1.000000	0.472620	7.37255e+06	-38789.1	1005.82	-29796.1	0.000000	0.000000	6.472913	0.007517	NaN	0.000000	0.001626	0.001749	28.0832	0.078708	0.002100	37.4846	-113.04	13.792	-0.020890	0.471263	-0.693665	-0.695022	0.007517	37.4846	-0.693815	-1.610828E+9	-4.666479E-12	NaN
766	1.000000	0.482649	7.37255e+06	-38789.1	1005.82	-29796.1	0.000000	0.000000	6.482942	0.020049	NaN	0.000000	0.001653	0.001739	28.0832	0.019270	0.002013	9.572095	-41.2623	-166.74	0.072168	0.481352	-0.683636	-0.684933	0.020049	9.572095	-0.685207	-1.228587E+9	-1.631843E-11	NaN
766	1.000000	0.492631	7.37255e+06	-38789.1	1005.82	-29796.1	0.000000	0.000000	6.492926	0.042776	NaN	0.000000	0.001646	0.001726	28.0828	0.073651	0.001938	38.0058	99.4664	8.718266	0.021620	0.491274	-0.673654	-0.675011	0.042776	38.0058	-0.674498	-8.768766E+8	-4.878206E-11	NaN
766	1.000000	0.502638	7.37255e+06	-38789.1	1005.82	-29796.1	0.000000	0.000000	6.502931	0.009178	NaN	0.000000	0.001638	0.001724	28.0827	0.127703	0.002027	63.0001	96.5446	-165.209	-0.051156	0.501401	-0.663647	-0.664884	0.009178	63.0001	-0.663756	-6.250483E+8	-1.468408E-11	NaN
766	1.000000	0.512642	7.37255e+06	-38789.1	1005.82	-29796.1	0.000000	0.000000	6.512935	0.010017	NaN	0.000000	0.001635	0.001723	28.0818	0.038039	0.002093	18.1716	9.715255	14.2247	0.060400	0.511311	-0.653643	-0.654974	0.010017	18.1716	-0.654056	-4.602939E+8	-2.176211E-11	NaN
766	1.000000	0.522670	7.37255e+06	-38789.1	1005.82	-29796.1	0.000000	0.000000	6.522960	-0.045887	NaN	0.000000	0.001669	0.001749	28.0818	0.035482	0.002013	17.63	60.2496	-167.389	-0.071582	0.521384	-0.643615	-0.644901	-0.045887	17.63	-0.641663	-3.112490E+8	1.474274E-10	NaN
766	1.000000	0.532683	7.37255e+06	-38789.1	1005.82	-29796.1	0.000000	0.000000	6.532974	-0.045443	NaN	0.000000	0.001655	0.001694	28.0815	0.057591	0.002059	27.9647	-32.1907	13.3955	-0.056070	0.531294	-0.633601	-0.634990	-0.045443	27.9647	-0.632383	-2.321352E+8	1.957615E-10	NaN
766	1.000000	0.542665	7.37255e+06	-38789.1	1005.82	-29796.1	0.000000	0.000000	6.542958	0.013084	NaN	0.000000	0.001611	0.001734	28.0818	0.072063	0.002076	34.7156	-150.774	-169.932	0.059711	0.541321	-0.623620	-0.624964	0.013084	34.7156	-0.623903	-1.775286E+8	-7.369876E-11	NaN
766	1.000000	0.552653	7.37255e+06	-38789.1	1005.82	-29796.1	0.000000	0.000000	6.552945	-0.018712	NaN	0.000000	0.001653	0.001764	28.0818	0.047743	0.001998	23.8911	95.7105	13.962	-0.040712	0.551325	-0.613632	-0.614960	-0.018712	23.8911	-0.613044	-1.258897E+8	1.486406E-10	NaN
766	1.000000	0.562665	7.37255e+06	-38789.1	1005.82	-29796.1	0.000000	0.000000	6.562959	0.039285	NaN	0.000000	0.001664	0.001722	28.0816	0.020644	0.002061	10.0157	70.476	-168.953	0.099761	0.561410	-0.603619	-0.604875	0.039285	10.0157	-0.606561	-1.025166E+8	-3.832083E-10	NaN
766	1.000000	0.572687	7.37255e+06	-38789.1	1005.82	-29796.1	0.000000	0.000000	6.572980	0.011639	NaN	0.000000	0.001659	0.001750	28.0816	0.063682	0.002114	30.1209	-15.5918	14.9463	0.045895	0.571284	-0.593598	-0.595001	0.011639	30.1209	-0.593887	-6.858835E+7	-1.696962E-10	NaN
766	1.000000	0.582679	7.37255e+06	-38789.1	1005.82	-29796.1	0.000000	0.000000	6.582972	0.004545	NaN	0.000000	0.001680	0.001715	28.0821	0.056497	0.002085	27.0915	173.636	-166.757	0.007324	0.581357	-0.583606	-0.584928	0.004545	27.0915	-0.583731	-4.968368E+7	-9.147642E-11	NaN
766	1.000000	0.592702	7.37255e+06	-38789.1	1005.82	-29796.1	0.000000	0.000000	6.592994	-0.007437	NaN	0.000000	0.001678	0.001718	28.0817	0.053297	0.002058	25.8923	145.052	11.6464	-0.014846	0.591314	-0.573583	-0.574971	-0.007437	25.8923	-0.573367	-3.573971E+7	2.080809E-10	NaN
766	1.000000	0.602676	7.37255e+06	-38789.1	1005.82	-29796.1	0.000000	0.000000	6.602964	-0.095223	NaN	0.000000	0.001698	0.001726	28.0818	0.044136	0.001959	22.5308	149.423	-165.8	-0.120795	0.601380	-0.563609	-0.564905	-0.095223	22.5308	-0.560439	-2.368396E+7	4.020549E-9	NaN
766	1.000000	0.612673	7.37255e+06	-38789.1	1005.82	-29796.1	0.000000	0.000000	6.612965	0.000135	NaN	0.000000	0.001653	0.001697	28.082	0.143218	0.002015	71.07	-114.724	13.2458	-0.053816	0.611357	-0.553612	-0.554928	0.000135	71.07	-0.553614	-1.905452E+7	-7.104829E-12	NaN
766	1.000000	0.622703	7.37255e+06	-38789.1	1005.82	-29796.1	0.000000	0.000000	6.622995	0.008488	NaN	0.000000	0.001667	0.001752	28.0817	0.117688	0.001933	60.8965	-172.213	-166.592	-0.040922	0.621374	-0.543582	-0.544910	0.008488	60.8965	-0.543687	-1.388287E+7	-6.114344E-10	NaN
766	1.000000	0.632703	7.37255e+06	-38789.1	1005.82	-29796.1	0.000000	0.000000	6.632994	-0.038600	NaN	0.000000	0.001678	0.001753	28.0815	0.058442	0.001972	29.6433	68.6919	14.883	-0.051078	0.631373	-0.533582	-0.534912	-0.038600	29.6433	-0.532606	-9.74438e+06	3.961303E-9	NaN
766	1.000000	0.642728	7.37255e+06	-38789.1	1005.82	-29796.1	0.000000	0.000000	6.643022	0.041261	NaN	0.000000	0.001670	0.001708	28.0829	0.085284	0.001943	43.888	155.619	-168.248	0.096234	0.641379	-0.523557	-0.524906	0.041261	43.888	-0.524262	-7.46197e+06	-5.529444E-9	NaN
766	1.000000	0.652681	7.37255e+06	-38789.1	1005.82	-29796.1	0.000000	0.000000	6.652973	-0.006124	NaN	0.000000	0.001622	0.001726	28.0833	0.036748	0.002027	18.1296	-84.9192	15.9172	-0.015729	0.651387	-0.513604	-0.514898	-0.006124	18.1296	-0.513351	-5.26111e+06	1.163965E-9	NaN
766	1.000000	0.662714	7.37255e+06	-38789.1	1005.82	-29796.1	0.000000	0.000000	6.663006	-0.023863	NaN	0.000000	0.001687	0.001749	28.0827	0.128349	0.001904	67.4004	-99.5378	-166.694	-0.045940	0.661387	-0.503571	-0.504898	-0.023863	67.4004	-0.503305	-3.81167e+06	6.260422E-9	NaN
766	1.000000	0.672715	7.37255e+06	-38789.1	1005.82	-29796.1	0.000000	0.000000	6.673005	-0.062599	NaN	0.000000	0.001638	0.001743	28.083	0.119857	0.002096	57.1726	-95.0126	14.0552	-0.030673	0.671375	-0.493569	-0.494910	-0.062599	57.1726	-0.492748	-2.71512e+06	2.305550E-8	NaN
766	1.000000	0.682683	7.37255e+06	-38789.1	1005.82	-29796.1	0.000000	0.000000	6.682974	-0.033704	NaN	0.000000	0.001663	0.001738	28.0829	0.084890	0.001991	42.6407	-64.9263	-169.845	0.011032	0.681436	-0.483602	-0.484849	-0.033704	42.6407	-0.483009	-1.98446e+06	1.698395E-8	NaN
766	1.000000	0.692715	7.37255e+06	-38789.1	1005.82	-29796.1	0.000000	0.000000	6.693005	-0.042872	NaN	0.000000	0.001648	0.001735	28.083	0.021643	0.001907	11.3492	-45.6714	15.3778	0.029948	0.691353	-0.473570	-0.474932	-0.042872	11.3492	-0.470737	-1.33582e+06	3.209396E-8	NaN
766	1.000000	0.702704	7.37255e+06	-38789.1	1005.82	-29796.1	0.000000	0.000000	6.702995	-0.020097	NaN	0.000000	0.001670	0.001719	28.0829	0.043946	0.001948	22.5592	-29.1024	-167.131	-0.054455	0.701434	-0.463581	-0.464851	-0.020097	22.5592	-0.462913	-1.03739e+06	1.937225E-8	NaN
766	1.000000	0.712735	7.37255e+06	-38789.1	1005.82	-29796.1	0.000000	0.000000	6.713025	-0.060402	NaN	0.000000	0.001660	0.001766	28.0829	0.069051	0.002136	32.3302	58.7125	10.7524	0.048053	0.711362	-0.453550	-0.454923	-0.060402	32.3302	-0.452149	-732146	8.250049E-8	NaN
766	1.000000	0.722731	7.37255e+06	-38789.1	1005.82	-29796.1	0.000000	0.000000	6.723024	0.017196	NaN	0.000000	0.001618	0.001707	28.0832	0.024897	0.001979	12.5811	-99.8016	-167.924	0.043933	0.721420	-0.443554	-0.444865	0.017196	12.5811	-0.444579	-572746	-3.002388E-8	NaN
766	1.000000	0.732743	7.37255e+06	-38789.1	1005.82	-29796.1	0.000000	0.000000	6.733037	0.018651	NaN	0.000000	0.001643	0.001691	28.0831	0.102724	0.001930	53.2217	-168.841	13.0294	-0.003065	0.731386	-0.433541	-0.434899	0.018651	53.2217	-0.433804	-403512	-4.622178E-8	NaN
766	1.000000	0.742737	7.37255e+06	-38789.1	1005.82	-29796.1	0.000000	0.000000	6.743032	0.063696	NaN	0.000000	0.001651	0.001726	28.0829	0.054519	0.001931	28.2322	-109.729	-164.398	0.066751	0.741420	-0.423548	-0.424864	0.063696	28.2322	-0.425240	-305269	-2.086566E-7	NaN
766	1.000000	0.752785	7.37255e+06	-38789.1	1005.82	-29796.1	0.000000	0.000000	6.753076	-0.037648	NaN	0.000000	0.001643	0.001705	28.0829	0.118296	0.002038	58.0479	-135.074	15.5642	-0.021911	0.751330	-0.413500	-0.414955	-0.037648	58.0479	-0.413014	-204757	1.838645E-7	NaN
766	1.000000	0.762749	7.37255e+06	-38789.1	1005.82	-29796.1	0.000000	0.000000	6.763042	0.007600	NaN	0.000000	0.001666	0.001706	28.0832	0.065776	0.002104	31.2638	51.146	-164.66	0.060714	0.761428	-0.403536	-0.404857	0.007600	31.2638	-0.403718	-151004	-5.032804E-8	NaN
766	1.000000	0.772760	7.37255e+06	-38789.1	1005.82	-29796.1	0.000000	0.000000	6.773050	-0.066709	NaN	0.000000	0.001645	0.001691	28.0832	0.081550	0.002027	40.2225	-124.427	10.9919	0.027717	0.771356	-0.393525	-0.394929	-0.066709	40.2225	-0.392281	-103701	6.432799E-7	NaN
766	1.000000	0.782769	7.37255e+06	-38789.1	1005.82	-29796.1	0.000000	0.000000	6.783059	-0.070724	NaN	0.000000	0.001651	0.001689	28.0817	0.050150	0.001985	25.2604	67.8899	-164.816	-0.142594	0.781512	-0.383516	-0.384773	-0.070724	25.2604	-0.381416	-72477.1	9.758170E-7	NaN
766	1.000000	0.792758	7.37255e+06	-38789.1	1005.82	-29796.1	0.000000	0.000000	6.793051	0.005735	NaN	0.000000	0.001658	0.001695	28.0818	0.105577	0.001932	54.6326	15.6631	14.72	0.006025	0.791397	-0.373527	-0.374888	0.005735	54.6326	-0.373606	-55978.4	-1.024482E-7	NaN
766	1.000000	0.802752	7.37255e+06	-38789.1	1005.82	-29796.1	0.000000	0.000000	6.803044	-0.000597	NaN	0.000000	0.001615	0.001700	28.0819	0.025362	0.002116	11.9873	-25.2211	-166.813	0.016832	0.801495	-0.363533	-0.364790	-0.000597	11.9873	-0.363496	-40026.4	1.492009E-8	NaN
766	1.000000	0.812747	7.37255e+06	-38789.1	1005.82	-29796.1	0.000000	0.000000	6.813040	0.020970	NaN	0.000000	0.001631	0.001697	28.082	0.117725	0.001966	59.8728	-69.6853	13.8568	0.007680	0.811398	-0.353538	-0.354887	0.020970	59.8728	-0.353801	-28981.8	-7.235661E-7	NaN
766	1.000000	0.822759	7.37255e+06	-38789.1	1005.82	-29796.1	0.000000	0.000000	6.823054	0.053686	NaN	0.000000	0.001638	0.001716	28.0818	0.110017	0.002007	54.8247	-53.2223	-167.579	0.029186	0.821485	-0.343526	-0.344800	0.053686	54.8247	-0.344260	-21066.7	-2.548362E-6	NaN
766	1.000000	0.832781	7.37255e+06	-38789.1	1005.82	-29796.1	0.000000	0.000000	6.833073	0.004616	NaN	0.000000	0.001628	0.001741	28.0823	0.056233	0.002060	27.2958	59.6778	13.9057	0.003447	0.831471	-0.333504	-0.334814	0.004616	27.2958	-0.333631	-14742.8	-3.130883E-7	NaN
766	1.000000	0.842764	7.37255e+06	-38789.1	1005.82	-29796.1	0.000000	0.000000	6.843055	-0.039829	NaN	0.000000	0.001628	0.001691	28.082	0.071144	0.002045	34.7898	-22.2858	-165.499	-0.029042	0.841475	-0.323521	-0.324810	-0.039829	34.7898	-0.322662	-10181.1	3.912056E-6	NaN
766	1.000000	0.852797	7.37255e+06	-38789.1	1005.82	-29796.1	0.000000	0.000000	6.853091	0.032583	NaN	0.000000	0.001617	0.001724	28.082	0.079538	0.002043	38.9309	122.897	12.7517	-0.000547	0.851441	-0.313488	-0.314844	0.032583	38.9309	-0.314115	-7618.85	-4.276641E-6	NaN
766	1.000000	0.862796	7.37255e+06	-38789.1	1005.82	-29796.1	0.000000	0.000000	6.863088	-0.023330	NaN	0.000000	0.001628	0.001722	28.0817	0.076365	0.001971	38.741	-86.6055	-166.295	-0.043187	0.861441	-0.303489	-0.304844	-0.023330	38.741	-0.303037	-5221.58	4.468055E-6	NaN
766	1.000000	0.872791	7.37255e+06	-38789.1	1005.82	-29796.1	0.000000	0.000000	6.873083	-0.010074	NaN	0.000000	0.001602	0.001683	28.0819	0.032745	0.002025	16.173	-19.6658	10.9121	0.061396	0.871421	-0.293494	-0.294864	-0.010074	16.173	-0.293027	-3703.43	2.720165E-6	NaN
766	1.000000	0.882773	7.37255e+06	-38789.1	1005.82	-29796.1	0.000000	0.000000	6.883063	-0.053671	NaN	0.000000	0.001604	0.001722	28.0819	0.073991	0.001955	37.8389	-141.576	-165.74	0.011566	0.881505	-0.283512	-0.284780	-0.053671	37.8389	-0.282448	-2569.64	2.088677E-5	NaN
766	1.000000	0.892814	7.37255e+06	-38789.1	1005.82	-29796.1	0.000000	0.000000	6.893107	-0.002275	NaN	0.000000	0.001638	0.001699	28.082	0.045450	0.002065	22.0135	-86.8409	18.1821	-0.050668	0.891450	-0.273471	-0.274834	-0.002275	22.0135	-0.273393	-1875.23	1.212933E-6	NaN
766	1.000000	0.902790	7.37255e+06	-38789.1	1005.82	-29796.1	0.000000	0.000000	6.903083	0.021091	NaN	0.000000	0.001635	0.001699	28.0823	0.014807	0.002052	7.214546	134.575	-165.47	-0.005532	0.901554	-0.263495	-0.264731	0.021091	7.214546	-0.265687	-1431.77	-1.473052E-5	NaN
766	1.000000	0.912818	7.37255e+06	-38789.1	1005.82	-29796.1	0.000000	0.000000	6.913106	-0.101791	NaN	0.000000	0.001622	0.001721	28.0828	0.022659	0.001993	11.3687	-5.475410	15.054	-0.015203	0.911415	-0.253467	-0.254870	-0.101791	11.3687	-0.246752	-732.232	0.000139	NaN
766	1.000000	0.922809	7.37255e+06	-38789.1	1005.82	-29796.1	0.000000	0.000000	6.923101	-0.021720	NaN	0.000000	0.001607	0.001708	28.0834	0.109662	0.001781	61.5689	40.9619	-164.674	-0.087010	0.921479	-0.243476	-0.244806	-0.021720	61.5689	-0.243211	-645.105	3.366829E-5	NaN
766	1.000000	0.932826	7.37255e+06	-38789.1	1005.82	-29796.1	0.000000	0.000000	6.933116	-0.059265	NaN	0.000000	0.001660	0.001725	28.0831	0.072256	0.002070	34.9065	-70.2479	13.9029	0.003165	0.931451	-0.233459	-0.234834	-0.059265	34.9065	-0.232185	-433.491	0.000137	NaN
766	1.000000	0.942829	7.37255e+06	-38789.1	1005.82	-29796.1	0.000000	0.000000	6.943119	-0.057035	NaN	0.000000	0.001685	0.001730	28.0832	0.092528	0.002000	46.2614	-160.289	-165.854	-0.108921	0.941544	-0.223456	-0.224741	-0.057035	46.2614	-0.222531	-304.832	0.000187	NaN
766	1.000000	0.952829	7.37255e+06	-38789.1	1005.82	-29796.1	0.000000	0.000000	6.953121	-0.013789	NaN	0.000000	0.001673	0.001731	28.0827	0.116476	0.001879	61.9951	89.475	14.5253	-0.032742	0.951474	-0.213455	-0.214811	-0.013789	61.9951	-0.213289	-216.749	6.361802E-5	NaN
766	1.000000	0.962833	7.37255e+06	-38789.1	1005.82	-29796.1	0.000000	0.000000	6.963127	0.051217	NaN	0.000000	0.001658	0.001719	28.0832	0.041453	0.002069	20.0341	-83.7816	-166.01	0.095779	0.961538	-0.203452	-0.204747	0.051217	20.0341	-0.205370	-161.282	-0.000318	NaN
766	1.000000	0.972810	7.37255e+06	-38789.1	1005.82	-29796.1	0.000000	0.000000	6.973102	-0.003361	NaN	0.000000	0.001669	0.001739	28.0828	0.122145	0.002021	60.4419	-75.9396	11.1938	-0.026593	0.971484	-0.193475	-0.194801	-0.003361	60.4419	-0.193433	-102.617	3.275206E-5	NaN
766	1.000000	0.982826	7.37255e+06	-38789.1	1005.82	-29796.1	0.000000	0.000000	6.983121	0.066451	NaN	0.000000	0.001656	0.001738	28.0833	0.126742	0.002081	60.9047	4.441201	-167.104	0.056213	0.981573	-0.183459	-0.184712	0.066451	60.9047	-0.184277	-72.1018	-0.000922	NaN
766	1.000000	0.992842	7.37255e+06	-38789.1	1005.82	-29796.1	0.000000	0.000000	6.993137	0.062613	NaN	0.000000	0.001639	0.001700	28.0829	0.049695	0.002012	24.6968	162.256	15.2257	0.110805	0.991485	-0.173443	-0.174800	0.062613	24.6968	-0.175344	-50.803	-0.001232	NaN
766	1.000000	1.002861	7.37255e+06	-38789.1	1005.82	-29796.1	0.000000	0.000000	7.003153	-0.009587	NaN	0.000000	0.001677	0.001711	28.0831	0.020564	0.002033	10.1126	-147.07	-165.51	-0.073747	1.001510	-0.163424	-0.164775	-0.009587	10.1126	-0.162713	-30.6228	0.000313	NaN
766	1.000000	1.012862	7.37255e+06	-38789.1	1005.82	-29796.1	0.000000	0.000000	7.013154	-0.024056	NaN	0.000000	0.001671	0.001733	28.0834	0.054789	0.002013	27.2164	-22.8696	14.5013	-0.090653	1.011482	-0.153423	-0.154803	-0.024056	27.2164	-0.152760	-20.3306	0.001183	NaN
766	1.000000	1.022845	7.37255e+06	-38789.1	1005.82	-29796.1	0.000000	0.000000	7.023139	0.028109	NaN	0.000000	0.001692	0.001729	28.0832	0.168393	0.001962	85.8273	155.36	-167.196	0.042857	1.021523	-0.143440	-0.144762	0.028109	85.8273	-0.143685	-13.8611	-0.002028	NaN
766	1.000000	1.032879	7.37255e+06	-38789.1	1005.82	-29796.1	0.000000	0.000000	7.033174	0.052196	NaN	0.000000	0.001688	0.001722	28.083	0.011622	0.001937	5.999618	95.4604	13.1698	-0.022155	1.031456	-0.133406	-0.134829	0.052196	5.999618	-0.139931	-11.7942	-0.004426	NaN
766	1.000000	1.042899	7.37255e+06	-38789.1	1005.82	-29796.1	0.000000	0.000000	7.043189	-0.057566	NaN	0.000000	0.001692	0.001704	28.0832	0.058521	0.002001	29.2427	27.5065	-164.346	-0.057265	1.041567	-0.123386	-0.124718	-0.057566	29.2427	-0.121909	-5.277940	0.010907	NaN
766	1.000000	1.052882	7.37255e+06	-38789.1	1005.82	-29796.1	0.000000	0.000000	7.053176	0.032041	NaN	0.000000	0.001654	0.001708	28.0821	0.023107	0.002049	11.2781	69.5085	15.6582	0.027367	1.051544	-0.113403	-0.114740	0.032041	11.2781	-0.115533	-3.918195	-0.008177	NaN
766	1.000000	1.062867	7.37255e+06	-38789.1	1005.82	-29796.1	0.000000	0.000000	7.063160	-0.005849	NaN	0.000000	0.001637	0.001707	28.0819	0.102330	0.002063	49.5922	154.701	-167.996	0.031423	1.061513	-0.103418	-0.104772	-0.005849	49.5922	-0.103329	-2.162357	0.002705	NaN
766	1.000000	1.072888	7.37255e+06	-38789.1	1005.82	-29796.1	0.000000	0.000000	7.073178	-0.053088	NaN	0.000000	0.001635	0.001737	28.0818	0.074007	0.002029	36.4728	-165.641	9.957854	-0.083787	1.071487	-0.093397	-0.094798	-0.053088	36.4728	-0.092305	-1.223315	0.043397	NaN
766	1.000000	1.082871	7.37255e+06	-38789.1	1005.82	-29796.1	0.000000	0.000000	7.083166	0.067010	NaN	0.000000	0.001614	0.001815	28.082	0.070710	0.002120	33.3575	140.536	-167.883	-0.026166	1.081552	-0.083414	-0.084733	0.067010	33.3575	-0.084920	-0.817999	-0.081919	NaN
766	1.000000	1.092899	7.37255e+06	-38789.1	1005.82	-29796.1	0.000000	0.000000	7.093192	-0.003825	NaN	0.000000	0.001649	0.001779	28.082	0.119054	0.002000	59.541	7.425071	14.2242	-0.069211	1.091533	-0.073386	-0.074752	-0.003825	59.541	-0.073337	-0.418080	0.009149	NaN
766	1.000000	1.102839	7.37255e+06	-38789.1	1005.82	-29796.1	0.000000	0.000000	7.103129	-0.057737	NaN	0.000000	0.001665	0.001753	28.0819	0.076053	0.001956	38.8915	-114.633	-169.207	-0.078465	1.101554	-0.063445	-0.064731	-0.057737	38.8915	-0.062332	-0.209840	0.275146	NaN
766	1.000000	1.112901	7.37255e+06	-38789.1	1005.82	-29796.1	0.000000	0.000000	7.113194	0.006459	NaN	0.000000	0.001645	0.001768	28.0819	0.038123	0.002003	19.0315	-3.002459	11.6393	-0.063446	1.111526	-0.053384	-0.054759	0.006459	19.0315	-0.053638	-0.117340	-0.055042	NaN
766	1.000000	1.122864	7.37255e+06	-38789.1	1005.82	-29796.1	0.000000	0.000000	7.123155	-0.022687	NaN	0.000000	0.001639	0.001744	28.0822	0.106849	0.001930	55.3485	60.7124	-167.109	-0.002553	1.121601	-0.043421	-0.044684	-0.022687	55.3485	-0.043114	-0.056274	0.403159	NaN
766	1.000000	1.132870	7.37255e+06	-38789.1	1005.82	-29796.1	0.000000	0.000000	7.133163	-0.001576	NaN	0.000000	0.001613	0.001695	28.082	0.099859	0.002042	48.9055	-170.195	15.1879	-0.006536	1.131542	-0.033415	-0.034743	-0.001576	48.9055	-0.033390	-0.028736	0.054858	NaN
766	1.000000	1.142893	7.37255e+06	-38789.1	1005.82	-29796.1	0.000000	0.000000	7.143184	-0.023166	NaN	0.000000	0.001611	0.001735	28.0821	0.013473	0.002040	6.602749	27.5709	-165.475	0.034584	1.141604	-0.023392	-0.024681	-0.023166	6.602749	-0.020761	-0.013133	1.763994	NaN
766	1.000000	1.152931	7.37255e+06	-38789.1	1005.82	-29796.1	0.000000	0.000000	7.153224	-0.003171	NaN	0.000000	0.001620	0.001721	28.082	0.026988	0.002175	12.4105	-150.035	12.0578	-0.038645	1.151562	-0.013354	-0.014723	-0.003171	12.4105	-0.013162	-0.008196	0.386898	NaN
766	1.000000	1.162875	7.37255e+06	-38789.1	1005.82	-29796.1	0.000000	0.000000	7.163253	2.081625	NaN	0.000000	0.001636	0.001714	28.0826	2.864748	0.002006	1427.91	11.7996	-172.731	0.805201	1.161628	-0.003410	-0.004657	2.081625	1427.91	-0.004504	-0.003102	-670.954	NaN
766	2.000000	1.170105	7.37255e+06	-38789.1	1005.82	-29796.1	0.000000	0.000000	7.170755	8.696545	NaN	0.000000	0.001601	0.001722	28.0821	8.816838	0.001679	5249.92	11.4223	4.806066	8.963735	1.169691	0.003820	0.003406	8.696545	5249.92	0.002578	0.002027	4289.71	106529
766	2.000000	1.172514	7.37255e+06	-38789.1	1005.82	-29796.1	0.000000	0.000000	7.173356	13.371	NaN	0.000000	0.001626	0.001720	28.0822	11.6665	0.001600	7290.42	3.191106	-174.03	12.0559	1.172200	0.006229	0.005915	13.371	7290.42	0.004854	0.004000	3342.44	105311
766	2.000000	1.175013	7.37255e+06	-38789.1	1005.82	-29796.1	0.000000	0.000000	7.175929	15.1606	NaN	0.000000	0.001670	0.001728	28.0832	14.5747	0.001927	7564.22	5.447527	7.554789	15.2484	1.174644	0.008728	0.008360	15.1606	7564.22	0.007225	0.006258	2422.75	87364.2
766	2.000000	1.177504	7.37255e+06	-38789.1	1005.82	-29796.1	0.000000	0.000000	7.178657	20.9384	NaN	0.000000	0.001694	0.001706	28.0835	17.1898	0.001844	9322.75	8.326588	-179.329	19.4372	1.177199	0.011219	0.010914	20.9384	9322.75	0.009535	0.008669	2415.3	91481
766	2.000000	1.180021	7.37255e+06	-38789.1	1005.82	-29796.2	0.000000	0.000000	7.181318	24.4659	NaN	0.000000	0.001616	0.001729	28.0833	19.6988	0.001892	10413.7	11.4973	-1.034701	23.5025	1.179575	0.013736	0.013290	24.4659	10413.7	0.011974	0.011458	2135.19	88882.5
766	2.000000	1.182502	7.37255e+06	-38789.1	1005.82	-29796.1	0.000000	0.000000	7.184027	30.0077	NaN	0.000000	0.001631	0.001693	28.0832	22.5009	0.001748	12872.1	9.084437	177.249	29.9354	1.182140	0.016217	0.015855	30.0077	12872.1	0.014469	0.014583	2057.67	97385.1
766	2.000000	1.184989	7.37255e+06	-38789.1	1005.82	-29796.2	0.000000	0.000000	7.186744	35.5893	NaN	0.000000	0.001607	0.001774	28.0831	24.5611	0.001803	13621.4	5.088543	1.669959	35.7842	1.184725	0.018704	0.018440	35.5893	13621.4	0.016744	0.017682	2012.73	93589.7
766	2.000000	1.187450	7.37255e+06	-38789.1	1005.82	-29796.1	0.000000	0.000000	7.189567	44.4001	NaN	0.000000	0.001610	0.001711	28.0832	26.5909	0.001748	15211.7	4.255090	-179.387	43.7542	1.187125	0.021165	0.020840	44.4001	15211.7	0.018976	0.020959	2118.41	95998.4
766	2.000000	1.189969	7.37255e+06	-38789.1	1005.82	-29796.2	0.000000	0.000000	7.192412	52.3526	NaN	0.000000	0.001600	0.001710	28.083	28.5043	0.001947	14640.9	4.820784	2.759708	52.4168	1.189553	0.023684	0.023268	52.3526	14640.9	0.021002	0.024141	2168.61	86092
766	2.000000	1.192414	7.37255e+06	-38789.1	1005.82	-29796.1	0.000000	0.000000	7.195281	62.65	NaN	0.000000	0.001611	0.001724	28.0832	30.5743	0.001823	16770.7	2.238153	-178.13	60.8334	1.192148	0.026129	0.025864	62.65	16770.7	0.023327	0.028042	2234.12	91499.1
766	2.000000	1.194945	7.37255e+06	-38789.1	1005.82	-29796.2	0.000000	0.000000	7.198198	72.0556	NaN	0.000000	0.001609	0.001748	28.0831	33.8284	0.001807	18715.9	6.989557	-3.471498	71.1598	1.194542	0.028660	0.028258	72.0556	18715.9	0.025773	0.032436	2221.46	94944.2
766	2.000000	1.197473	7.37255e+06	-38789.1	1005.82	-29796.2	0.000000	0.000000	7.200889	76.0146	NaN	0.000000	0.001572	0.001728	28.0831	35.5593	0.001788	19893.1	1.300735	-178.624	74.5578	1.197094	0.031188	0.030809	76.0146	19893.1	0.028322	0.037338	2035.85	94058.9
766	2.000000	1.199941	7.37255e+06	-38789.1	1005.82	-29796.2	0.000000	0.000000	7.203781	86.3354	NaN	0.000000	0.001628	0.001683	28.0832	37.1154	0.001718	21607.7	2.606119	-0.532157	83.4087	1.199610	0.033656	0.033325	86.3354	21607.7	0.030660	0.042122	2049.65	96189.5
766	2.000000	1.202452	7.37255e+06	-38789.1	1005.82	-29796.2	0.000000	0.000000	7.206605	93.9449	NaN	0.000000	0.001601	0.001758	28.0835	39.4528	0.001677	23521.3	2.642777	178.625	95.7626	1.202169	0.036167	0.035884	93.9449	23521.3	0.033172	0.047575	1974.69	98525.3
766	2.000000	1.204951	7.37255e+06	-38789.1	1005.82	-29796.2	0.000000	0.000000	7.209741	109.474	NaN	0.000000	0.001619	0.001716	28.0833	42.8034	0.001839	23274	3.505200	-1.119558	110.177	1.204542	0.038666	0.038257	109.474	23274	0.035138	0.052067	2102.55	93188.4
766	2.000000	1.207329	7.37255e+06	-38789.1	1005.82	-29796.2	0.000000	0.000000	7.212452	117.55	NaN	0.000000	0.001614	0.001723	28.0823	44.9482	0.001772	25370.4	2.029625	178.513	114.522	1.207124	0.041044	0.040839	117.55	25370.4	0.037569	0.057897	2030.32	96332.3
766	2.000000	1.209874	7.37255e+06	-38789.1	1005.82	-29796.2	0.000000	0.000000	7.215853	138.368	NaN	0.000000	0.001610	0.001710	28.082	47.5244	0.001744	27256.5	3.364502	-3.062190	133.444	1.209531	0.043589	0.043246	138.368	27256.5	0.039782	0.063466	2180.17	98848.9
766	2.000000	1.212362	7.37255e+06	-38789.1	1005.82	-29796.2	0.000000	0.000000	7.218872	151.306	NaN	0.000000	0.001632	0.001722	28.082	49.7691	0.001791	27793.4	2.423459	177.764	148.081	1.212071	0.046077	0.045786	151.306	27793.4	0.041994	0.069283	2183.88	96472
766	2.000000	1.214866	7.37255e+06	-38789.1	1005.82	-29796.2	0.000000	0.000000	7.222246	172.48	NaN	0.000000	0.001580	0.001704	28.082	51.8554	0.001663	31185.4	2.268845	-2.780267	169.455	1.214499	0.048581	0.048214	172.48	31185.4	0.044433	0.075986	2269.89	103361
766	2.000000	1.217407	7.37255e+06	-38789.1	1005.82	-29796.2	0.000000	0.000000	7.225391	187.179	NaN	0.000000	0.001633	0.001706	28.0817	56.4094	0.001745	32318.3	4.725467	174.038	187.866	1.217218	0.051122	0.050933	187.179	32318.3	0.046778	0.082714	2262.96	102667
766	2.000000	1.219904	7.37255e+06	-38789.1	1005.82	-29796.2	0.000000	0.000000	7.228773	208.733	NaN	0.000000	0.001577	0.001686	28.0818	58.3634	0.001905	30638.8	4.550135	-4.752669	205.314	1.219537	0.053619	0.053252	208.733	30638.8	0.048509	0.087861	2375.72	94438
766	2.000000	1.222391	7.37255e+06	-38789.1	1005.82	-29796.2	0.000000	0.000000	7.231805	221.99	NaN	0.000000	0.001641	0.001684	28.0821	60.7443	0.001751	34685.1	4.835390	173.118	220.022	1.221993	0.056106	0.055708	221.99	34685.1	0.051306	0.096492	2300.6	102017
766	2.000000	1.224874	7.37255e+06	-38789.1	1005.82	-29796.2	0.000000	0.000000	7.235237	245.075	NaN	0.000000	0.001616	0.001714	28.0819	63.6651	0.001838	34639.3	6.763333	-8.681586	242.148	1.224516	0.058589	0.058231	245.075	34639.3	0.053283	0.102830	2383.31	98692.1
766	2.000000	1.227434	7.37255e+06	-38789.1	1005.82	-29796.2	0.000000	0.000000	7.238723	267.609	NaN	0.000000	0.001605	0.001654	28.0818	65.2361	0.001682	38774.4	1.194617	176.587	267.924	1.227107	0.061149	0.060822	267.609	38774.4	0.055973	0.111766	2394.37	105965
766	2.000000	1.229915	7.37255e+06	-38789.1	1005.82	-29796.2	0.000000	0.000000	7.241930	285.274	NaN	0.000000	0.001581	0.001715	28.0823	67.2187	0.001698	39579.4	3.151528	-6.167580	282.157	1.229575	0.063630	0.063290	285.274	39579.4	0.058225	0.119519	2386.85	104598
766	2.000000	1.232434	7.37255e+06	-38789.1	1005.82	-29796.2	0.000000	0.000000	7.245275	305.393	NaN	0.000000	0.001597	0.001675	28.0818	70.469	0.001862	37852.7	5.613066	171.89	308.311	1.232101	0.066149	0.065816	305.393	37852.7	0.060098	0.126159	2420.71	97366.8
766	2.000000	1.234822	7.37255e+06	-38789.1	1005.82	-29796.2	0.000000	0.000000	7.248759	332.04	NaN	0.000000	0.001590	0.001716	28.0823	73.3025	0.001815	40397	4.175481	-6.937209	325.965	1.234437	0.068537	0.068152	332.04	40397	0.062373	0.134453	2469.56	100655
766	2.000000	1.237298	7.37255e+06	-38789.1	1005.82	-29796.2	0.000000	0.000000	7.251963	349.763	NaN	0.000000	0.001590	0.001672	28.0818	76.3154	0.001897	40223.5	4.107623	172.893	344.858	1.237102	0.071013	0.070817	349.763	40223.5	0.064491	0.142405	2456.12	97384.6
766	2.000000	1.239877	7.37255e+06	-38789.1	1005.82	-29796.2	0.000000	0.000000	7.255551	374.328	NaN	0.000000	0.001616	0.001648	28.0823	78.087	0.001878	41589.5	5.620954	-9.062355	369.965	1.239608	0.073592	0.073323	374.328	41589.5	0.066842	0.151478	2471.18	97629.8
766	2.000000	1.242313	7.37255e+06	-38789.1	1005.82	-29796.2	0.000000	0.000000	7.259091	401.188	NaN	0.000000	0.001603	0.001679	28.0831	79.6936	0.001848	43133.5	2.912686	173.532	397.057	1.241958	0.076028	0.075673	401.188	43133.5	0.069052	0.160253	2503.46	98442.9
766	2.000000	1.244887	7.37255e+06	-38789.1	1005.82	-29796.2	0.000000	0.000000	7.262908	431.459	NaN	0.000000	0.001593	0.001676	28.0834	83.607	0.001773	47146.2	5.404196	-9.455988	429.49	1.244515	0.078602	0.078230	431.459	47146.2	0.071738	0.171229	2519.77	104095
766	2.000000	1.247397	7.37255e+06	-38789.1	1005.82	-29796.2	0.000000	0.000000	7.266312	453.205	NaN	0.000000	0.001591	0.001711	28.0831	87.2509	0.001842	47365.8	5.155269	170.397	452.536	1.247142	0.081112	0.080857	453.205	47365.8	0.073936	0.180466	2511.31	101869
766	2.000000	1.249935	7.37255e+06	-38789.1	1005.82	-29796.2	0.000000	0.000000	7.270196	485.934	NaN	0.000000	0.001582	0.001694	28.0836	88.3319	0.001836	48122.2	6.102963	-9.886817	484.392	1.249503	0.083650	0.083218	485.934	48122.2	0.076077	0.189682	2561.83	100950
766	2.000000	1.252269	7.37255e+06	-38789.1	1005.82	-29796.2	0.000000	0.000000	7.273737	515.338	NaN	0.000000	0.001561	0.001688	28.0828	89.4616	0.001692	52873.2	2.279043	172.769	508.1	1.252023	0.085984	0.085738	515.338	52873.2	0.078674	0.201149	2561.96	107708
766	2.000000	1.254784	7.37255e+06	-38789.1	1005.82	-29796.2	0.000000	0.000000	7.277375	542.652	NaN	0.000000	0.001568	0.001677	28.0832	93.7466	0.001815	51645.5	5.100938	-9.806698	534.361	1.254522	0.088499	0.088237	542.652	51645.5	0.080619	0.209946	2584.72	102980
766	2.000000	1.257490	7.37255e+06	-38789.1	1005.82	-29796.2	0.000000	0.000000	7.281528	577.876	NaN	0.000000	0.001603	0.001689	28.083	96.6017	0.001811	53339.3	3.676123	171.685	581.849	1.257043	0.091205	0.090758	577.876	53339.3	0.083079	0.221324	2611	103587
766	2.000000	1.259861	7.37255e+06	-38789.1	1005.82	-29796.2	0.000000	0.000000	7.284901	602.262	NaN	0.000000	0.001572	0.001777	28.0834	98.5724	0.001792	54996.4	7.885738	-12.5714	598.701	1.259551	0.093576	0.093266	602.262	54996.4	0.085363	0.232135	2594.45	104289
766	2.000000	1.262306	7.37255e+06	-38789.1	1005.82	-29796.2	0.000000	0.000000	7.288846	638.753	NaN	0.000000	0.001560	0.001789	28.0828	101.869	0.001881	54168.9	7.796825	167.25	634.477	1.261952	0.096021	0.095667	638.753	54168.9	0.087177	0.240894	2651.59	100835
766	2.000000	1.264792	7.37255e+06	-38789.1	1005.82	-29796.2	0.000000	0.000000	7.291857	651.523	NaN	0.000000	0.001542	0.001768	28.0831	103.1	0.001765	58397.5	2.593653	-8.192190	645.869	1.264650	0.098507	0.098365	651.523	58397.5	0.090139	0.255526	2549.73	105548
766	2.000000	1.267476	7.37255e+06	-38789.1	1005.82	-29796.2	0.000000	0.000000	7.296061	688.495	NaN	0.000000	0.001629	0.001715	28.0828	106.502	0.001684	63253	7.095407	166.51	694.56	1.267255	0.101192	0.100970	688.495	63253	0.093028	0.270180	2548.28	111180
766	2.000000	1.267787	7.37255e+06	-38789.1	1005.82	-29796.2	0.000000	0.000000	7.296599	694.048	NaN	0.000000	0.001653	0.001683	28.0829	105.991	0.001756	60347.1	3.156874	-9.075512	686.659	1.267536	0.101502	0.101251	694.048	60347.1	0.092876	0.269401	2576.27	106226