File: remote_trans/data/nanoindenter/0828-1/data/Data_2025-08-06,11h17m57s/2025-07-22_16-23-58_1_671.txt
2025-07-22, 16:23:58, 1
Index	Phase	Displacement	Time	Pos X	Pos Y	Pos Z	Rot A	Rot B	Piezo Z	Force A	Force B	Gripper	Voltage A	Voltage B	Temperature	Amplitude force	Amplitude pos	Stiffness	Phase shift	Phase excitation	Force A raw	Displacement raw	HMax	HMax raw	Real Force	Real Stiffness	Contact Depth	Area	Hardness	Reduced Mod.
[#]	[#]	[um]	[s]	[um]	[um]	[um]	[m°]	[m°]	[um]	[uN]	[uN]	[V]	[V]	[V]	[°C]	[uN]	[um]	[N/m]	[°]	[°]	[uN]	[um]	[um]	[um]	[uN]	[N/m]	[um]	[um^2]	[MPa]	[MPa]
671	1.000000	0.002372	7.37161e+06	-43539.1	1005.82	-29778.7	0.000000	0.000000	6.002786	-0.031826	NaN	0.000000	0.001644	0.001677	28.0812	0.035867	0.001041	34.4614	-54.4292	-174.501	-0.084518	0.001126	-1.155230	-1.156476	-0.031826	34.4614	-1.154537	-2.701728E+15	1.177993E-17	NaN
671	1.000000	0.012448	7.37161e+06	-43539.1	1005.82	-29778.7	0.000000	0.000000	6.012861	-0.052476	NaN	0.000000	0.001675	0.001684	28.0813	0.055608	0.001206	46.1047	56.2152	15.4104	-0.089672	0.011007	-1.145154	-1.146594	-0.052476	46.1047	-1.144300	-1.969688E+15	2.664160E-17	NaN
671	1.000000	0.022340	7.37161e+06	-43539.1	1005.82	-29778.7	0.000000	0.000000	6.022753	-0.042946	NaN	0.000000	0.001649	0.001708	28.0809	0.047762	0.001773	26.9457	-5.763809	-168.352	-0.045781	0.021009	-1.135262	-1.136592	-0.042946	26.9457	-1.134067	-1.436037E+15	2.990586E-17	NaN
671	1.000000	0.032347	7.37161e+06	-43539.1	1005.82	-29778.7	0.000000	0.000000	6.032762	-0.004821	NaN	0.000000	0.001704	0.001699	28.0811	0.049068	0.001908	25.7186	-143.501	12.0805	-0.003696	0.031013	-1.125254	-1.126588	-0.004821	25.7186	-1.125114	-1.089117E+15	4.426721E-18	NaN
671	1.000000	0.042351	7.37161e+06	-43539.1	1005.82	-29778.7	0.000000	0.000000	6.042764	-0.043354	NaN	0.000000	0.001683	0.001690	28.0811	0.072463	0.001987	36.4662	111.607	-166.082	-0.048233	0.041026	-1.115251	-1.116576	-0.043354	36.4662	-1.114359	-7.812436E+14	5.549329E-17	NaN
671	1.000000	0.052342	7.37161e+06	-43539.1	1005.82	-29778.7	0.000000	0.000000	6.052755	-0.045246	NaN	0.000000	0.001698	0.001676	28.0814	0.027668	0.002004	13.8069	-86.168	12.778	-0.012935	0.050959	-1.105260	-1.106642	-0.045246	13.8069	-1.102802	-5.466115E+14	8.277521E-17	NaN
671	1.000000	0.062327	7.37161e+06	-43539.1	1005.82	-29778.7	0.000000	0.000000	6.062743	0.021449	NaN	0.000000	0.001708	0.001698	28.0814	0.126056	0.002027	62.184	150.622	-167.069	-0.037593	0.061031	-1.095274	-1.096570	0.021449	62.184	-1.095533	-4.366189E+14	-4.912435E-17	NaN
671	1.000000	0.072344	7.37161e+06	-43539.1	1005.82	-29778.7	0.000000	0.000000	6.072761	0.036107	NaN	0.000000	0.001670	0.001653	28.0812	0.027602	0.002021	13.657	3.821020	14.6012	0.007814	0.070995	-1.085257	-1.086607	0.036107	13.657	-1.087240	-3.378713E+14	-1.068655E-16	NaN
671	1.000000	0.082350	7.37161e+06	-43539.1	1005.82	-29778.7	0.000000	0.000000	6.082762	-0.052298	NaN	0.000000	0.001636	0.001640	28.0811	0.024518	0.001987	12.3399	-22.0595	-163.914	0.009188	0.080990	-1.075252	-1.076612	-0.052298	12.3399	-1.072073	-2.113701E+14	2.474254E-16	NaN
671	1.000000	0.092364	7.37161e+06	-43539.1	1005.82	-29778.7	0.000000	0.000000	6.092776	-0.061875	NaN	0.000000	0.001687	0.001678	28.0813	0.011191	0.002049	5.461504	-3.850641	13.6361	-0.023899	0.090988	-1.065238	-1.066613	-0.061875	5.461504	-1.056741	-1.315278E+14	4.704348E-16	NaN
671	1.000000	0.102359	7.37161e+06	-43539.1	1005.82	-29778.7	0.000000	0.000000	6.102774	-0.007013	NaN	0.000000	0.001638	0.001670	28.0825	0.107342	0.002151	49.8948	-171.783	-165.432	0.013642	0.101009	-1.055243	-1.056592	-0.007013	49.8948	-1.055137	-1.251608E+14	5.602877E-17	NaN
671	1.000000	0.112375	7.37161e+06	-43539.1	1005.82	-29778.7	0.000000	0.000000	6.112792	0.048402	NaN	0.000000	0.001675	0.001703	28.0825	0.038334	0.001799	21.3078	98.0086	16.5351	0.073941	0.110999	-1.045226	-1.046602	0.048402	21.3078	-1.046930	-9.708292E+13	-4.985621E-16	NaN
671	1.000000	0.122350	7.37161e+06	-43539.1	1005.82	-29778.7	0.000000	0.000000	6.122762	-0.072432	NaN	0.000000	0.001662	0.001720	28.0821	0.089461	0.002004	44.6458	79.9387	-165.135	-0.103615	0.121046	-1.035252	-1.036556	-0.072432	44.6458	-1.034035	-6.512531E+13	1.112188E-15	NaN
671	1.000000	0.132348	7.37161e+06	-43539.1	1005.82	-29778.7	0.000000	0.000000	6.132763	0.018464	NaN	0.000000	0.001598	0.001743	28.0822	0.041309	0.001988	20.7823	94.7192	11.8914	0.014704	0.130965	-1.025254	-1.026636	0.018464	20.7823	-1.025920	-5.065258E+13	-3.645307E-16	NaN
671	1.000000	0.142354	7.37161e+06	-43539.1	1005.82	-29778.7	0.000000	0.000000	6.142765	-0.080914	NaN	0.000000	0.001607	0.001740	28.0821	0.018747	0.002006	9.346209	-154.176	-169.583	-0.115429	0.141013	-1.015248	-1.016589	-0.080914	9.346209	-1.008755	-2.975939E+13	2.718938E-15	NaN
671	1.000000	0.152346	7.37161e+06	-43539.1	1005.82	-29778.7	0.000000	0.000000	6.152761	-0.014639	NaN	0.000000	0.001618	0.001728	28.0825	0.038752	0.002061	18.8033	-140.681	13.7453	-0.045111	0.151017	-1.005255	-1.006585	-0.014639	18.8033	-1.004671	-2.622149E+13	5.582757E-16	NaN
671	1.000000	0.162376	7.37161e+06	-43539.1	1005.82	-29778.7	0.000000	0.000000	6.162789	-0.033849	NaN	0.000000	0.001612	0.001719	28.0823	0.033222	0.001938	17.144	120.468	-170.941	0.003303	0.161058	-0.995226	-0.996543	-0.033849	17.144	-0.993745	-1.868726E+13	1.811343E-15	NaN
671	1.000000	0.172397	7.37161e+06	-43539.1	1005.82	-29778.7	0.000000	0.000000	6.172815	0.063545	NaN	0.000000	0.001599	0.001742	28.0825	0.062835	0.001969	31.9134	93.4608	18.0796	0.029617	0.171027	-0.985204	-0.986575	0.063545	31.9134	-0.986698	-1.501873E+13	-4.231053E-15	NaN
671	1.000000	0.182367	7.37161e+06	-43539.1	1005.82	-29778.7	0.000000	0.000000	6.182783	0.022766	NaN	0.000000	0.001600	0.001701	28.0825	0.035422	0.002023	17.5127	72.2111	-166.568	-0.017257	0.181062	-0.975235	-0.976540	0.022766	17.5127	-0.976210	-1.084781E+13	-2.098628E-15	NaN
671	1.000000	0.192402	7.37161e+06	-43539.1	1005.82	-29778.7	0.000000	0.000000	6.192815	-0.051228	NaN	0.000000	0.001567	0.001738	28.0827	0.094807	0.002065	45.9032	-153.375	15.2252	-0.026464	0.191066	-0.965200	-0.966536	-0.051228	45.9032	-0.964363	-7.510748E+12	6.820570E-15	NaN
671	1.000000	0.202384	7.37161e+06	-43539.1	1005.82	-29778.7	0.000000	0.000000	6.202798	-0.017555	NaN	0.000000	0.001613	0.001752	28.0824	0.061047	0.002003	30.4739	-44.3716	-167.028	-0.043888	0.201069	-0.955217	-0.956532	-0.017555	30.4739	-0.954785	-5.579058E+12	3.146596E-15	NaN
671	1.000000	0.212401	7.37161e+06	-43539.1	1005.82	-29778.7	0.000000	0.000000	6.212815	-0.021400	NaN	0.000000	0.001587	0.001724	28.0828	0.022167	0.001934	11.4614	-5.010754	14.2238	-0.017498	0.211037	-0.945201	-0.946564	-0.021400	11.4614	-0.943800	-3.966502E+12	5.395231E-15	NaN
671	1.000000	0.222406	7.37161e+06	-43539.1	1005.82	-29778.7	0.000000	0.000000	6.222819	-0.040295	NaN	0.000000	0.001578	0.001721	28.0828	0.038948	0.001917	20.3139	-64.1611	-165.114	-0.039456	0.221064	-0.935196	-0.936537	-0.040295	20.3139	-0.933708	-2.898959E+12	1.389975E-14	NaN
671	1.000000	0.232412	7.37161e+06	-43539.1	1005.82	-29778.7	0.000000	0.000000	6.232822	-0.098881	NaN	0.000000	0.001618	0.001695	28.0819	0.098765	0.002111	46.7946	11.3375	12.1815	-0.068163	0.231049	-0.925190	-0.926552	-0.098881	46.7946	-0.923605	-2.117769E+12	4.669114E-14	NaN
671	1.000000	0.242423	7.37161e+06	-43539.1	1005.82	-29778.7	0.000000	0.000000	6.242839	0.007722	NaN	0.000000	0.001574	0.001734	28.0813	0.004537	0.001860	2.438904	43.1656	-167.201	0.045452	0.241129	-0.915178	-0.916473	0.007722	2.438904	-0.917553	-1.754540E+12	-4.401114E-15	NaN
671	1.000000	0.252406	7.37161e+06	-43539.1	1005.82	-29778.7	0.000000	0.000000	6.252820	-0.018512	NaN	0.000000	0.001550	0.001695	28.0811	0.031820	0.002040	15.5996	-168.638	14.0687	0.010105	0.251116	-0.905196	-0.906485	-0.018512	15.5996	-0.904306	-1.162103E+12	1.592985E-14	NaN
671	1.000000	0.262433	7.37162e+06	-43539.1	1005.82	-29778.7	0.000000	0.000000	6.262847	-0.012163	NaN	0.000000	0.001567	0.001691	28.0816	0.004161	0.002048	2.032075	74.0368	-169.68	-0.052944	0.261099	-0.895169	-0.896502	-0.012163	2.032075	-0.890679	-7.604985E+11	1.599397E-14	NaN
671	1.000000	0.272422	7.37162e+06	-43539.1	1005.82	-29778.7	0.000000	0.000000	6.272834	-0.068092	NaN	0.000000	0.001553	0.001717	28.0812	0.048655	0.001990	24.4511	-59.1211	11.8564	-0.063757	0.271042	-0.885179	-0.886559	-0.068092	24.4511	-0.883091	-6.004854E+11	1.133952E-13	NaN
671	1.000000	0.282454	7.37162e+06	-43539.1	1005.82	-29778.7	0.000000	0.000000	6.282870	0.005179	NaN	0.000000	0.001543	0.001723	28.0815	0.092783	0.001957	47.4159	-76.7896	-164.531	0.056739	0.281125	-0.875147	-0.876477	0.005179	47.4159	-0.875229	-4.700924E+11	-1.101725E-14	NaN
671	1.000000	0.292449	7.37162e+06	-43539.1	1005.82	-29778.7	0.000000	0.000000	6.292860	-0.104368	NaN	0.000000	0.001558	0.001713	28.0813	0.044393	0.001920	23.1222	-4.552346	13.0077	-0.044927	0.291109	-0.865152	-0.866493	-0.104368	23.1222	-0.861767	-3.090540E+11	3.377027E-13	NaN
671	1.000000	0.302421	7.37162e+06	-43539.1	1005.82	-29778.7	0.000000	0.000000	6.302836	-0.013429	NaN	0.000000	0.001636	0.001701	28.0818	0.118118	0.001951	60.5401	31.8301	-165.1	-0.031785	0.301095	-0.855180	-0.856506	-0.013429	60.5401	-0.855014	-2.503951E+11	5.362985E-14	NaN
671	1.000000	0.312446	7.37162e+06	-43539.1	1005.82	-29778.7	0.000000	0.000000	6.312860	-0.021141	NaN	0.000000	0.001656	0.001730	28.0813	0.075396	0.002006	37.5831	20.5249	17.7725	-0.003549	0.311102	-0.845156	-0.846500	-0.021141	37.5831	-0.844734	-1.817262E+11	1.163343E-13	NaN
671	1.000000	0.322449	7.37162e+06	-43539.1	1005.82	-29778.7	0.000000	0.000000	6.322865	0.005872	NaN	0.000000	0.001646	0.001722	28.0815	0.079858	0.001964	40.6552	-96.9302	-169.586	0.013222	0.321132	-0.835152	-0.836470	0.005872	40.6552	-0.835260	-1.352305E+11	-4.342337E-14	NaN
671	1.000000	0.332432	7.37162e+06	-43539.1	1005.82	-29778.7	0.000000	0.000000	6.332845	-0.041673	NaN	0.000000	0.001628	0.001701	28.0814	0.004623	0.001994	2.318708	34.8242	13.9444	0.010560	0.331103	-0.825170	-0.826499	-0.041673	2.318708	-0.811691	-6.478978E+10	6.432054E-13	NaN
671	1.000000	0.342448	7.37162e+06	-43539.1	1005.82	-29778.7	0.000000	0.000000	6.342863	-0.010501	NaN	0.000000	0.001643	0.001718	28.0813	0.097243	0.001959	49.631	-115.85	-166.541	-0.053914	0.341136	-0.815153	-0.816466	-0.010501	49.631	-0.814995	-7.183338E+10	1.461788E-13	NaN
671	1.000000	0.352458	7.37162e+06	-43539.1	1005.82	-29778.7	0.000000	0.000000	6.352873	-0.009319	NaN	0.000000	0.001658	0.001731	28.0811	0.044533	0.001990	22.3739	94.8821	16.3387	-0.022663	0.351118	-0.805143	-0.806483	-0.009319	22.3739	-0.804831	-5.229169E+10	1.782037E-13	NaN
671	1.000000	0.362451	7.37162e+06	-43539.1	1005.82	-29778.7	0.000000	0.000000	6.362861	-0.113944	NaN	0.000000	0.001634	0.001702	28.0814	0.142462	0.002066	68.9483	-114.84	-167.678	-0.079888	0.361175	-0.795150	-0.796427	-0.113944	68.9483	-0.793911	-3.717016E+10	3.065473E-12	NaN
671	1.000000	0.372450	7.37162e+06	-43539.1	1005.82	-29778.7	0.000000	0.000000	6.372865	0.019270	NaN	0.000000	0.001587	0.001686	28.0824	0.081114	0.002068	39.2194	74.5784	13.4554	0.014191	0.371122	-0.785152	-0.786479	0.019270	39.2194	-0.785520	-2.859144E+10	-6.739940E-13	NaN
671	1.000000	0.382493	7.37162e+06	-43539.1	1005.82	-29778.7	0.000000	0.000000	6.382905	-0.075878	NaN	0.000000	0.001604	0.001692	28.0827	0.088742	0.002097	42.3121	-15.4995	-165.784	-0.039020	0.381194	-0.775109	-0.776407	-0.075878	42.3121	-0.773764	-1.979122E+10	3.833929E-12	NaN
671	1.000000	0.392497	7.37162e+06	-43539.1	1005.82	-29778.7	0.000000	0.000000	6.392907	-0.110117	NaN	0.000000	0.001612	0.001730	28.0826	0.156037	0.002048	76.1936	-79.121	12.4187	-0.092086	0.391195	-0.765105	-0.766406	-0.110117	76.1936	-0.764021	-1.458795E+10	7.548476E-12	NaN
671	1.000000	0.402472	7.37162e+06	-43539.1	1005.82	-29778.7	0.000000	0.000000	6.402890	0.059072	NaN	0.000000	0.001597	0.001706	28.0827	0.065003	0.002035	31.9478	-65.2986	-162.91	-0.010491	0.401169	-0.755129	-0.756433	0.059072	31.9478	-0.756516	-1.153189E+10	-5.122472E-12	NaN
671	1.000000	0.412472	7.37162e+06	-43539.1	1005.82	-29778.7	0.000000	0.000000	6.412888	0.009218	NaN	0.000000	0.001580	0.001751	28.0826	0.086400	0.001999	43.2181	139.297	13.4831	0.117667	0.411120	-0.745129	-0.746482	0.009218	43.2181	-0.745289	-8.111193E+9	-1.136482E-12	NaN
671	1.000000	0.422477	7.37162e+06	-43539.1	1005.82	-29778.7	0.000000	0.000000	6.422892	0.005542	NaN	0.000000	0.001607	0.001694	28.0825	0.054681	0.001812	30.1847	-130.658	-165.661	-0.005311	0.421191	-0.735125	-0.736411	0.005542	30.1847	-0.735262	-5.922691E+9	-9.357288E-13	NaN
671	1.000000	0.432477	7.37162e+06	-43539.1	1005.82	-29778.7	0.000000	0.000000	6.432892	0.003760	NaN	0.000000	0.001614	0.001704	28.0825	0.089228	0.001972	45.2427	51.9005	12.7547	0.022869	0.431101	-0.725124	-0.726501	0.003760	45.2427	-0.725187	-4.317132E+9	-8.708366E-13	NaN
671	1.000000	0.442500	7.37162e+06	-43539.1	1005.82	-29778.7	0.000000	0.000000	6.442914	-0.019793	NaN	0.000000	0.001619	0.001698	28.0827	0.048869	0.002045	23.8942	178.837	-164.778	0.010560	0.441195	-0.715101	-0.716406	-0.019793	23.8942	-0.714480	-3.084453E+9	6.417112E-12	NaN
671	1.000000	0.452500	7.37162e+06	-43539.1	1005.82	-29778.7	0.000000	0.000000	6.452916	0.041412	NaN	0.000000	0.001625	0.001736	28.0826	0.101733	0.001968	51.6884	82.2058	14.5955	0.062259	0.451165	-0.705102	-0.706437	0.041412	51.6884	-0.705703	-2.340972E+9	-1.769003E-11	NaN
671	1.000000	0.462480	7.37162e+06	-43539.1	1005.82	-29778.7	0.000000	0.000000	6.462893	-0.037454	NaN	0.000000	0.001595	0.001722	28.0825	0.066855	0.002069	32.3052	-29.9579	-168.199	-0.043563	0.461124	-0.695122	-0.696478	-0.037454	32.3052	-0.694252	-1.633138E+9	2.293389E-11	NaN
671	1.000000	0.472537	7.37162e+06	-43539.1	1005.82	-29778.7	0.000000	0.000000	6.472950	-0.049673	NaN	0.000000	0.001594	0.001716	28.0823	0.083545	0.001977	42.2622	-29.7898	13.7722	-0.013677	0.471148	-0.685065	-0.686454	-0.049673	42.2622	-0.684183	-1.189613E+9	4.175529E-11	NaN
671	1.000000	0.482494	7.37162e+06	-43539.1	1005.82	-29778.7	0.000000	0.000000	6.482910	0.006084	NaN	0.000000	0.001591	0.001732	28.0824	0.126253	0.001947	64.8601	-124.997	-169.425	-0.097797	0.481208	-0.675107	-0.676394	0.006084	64.8601	-0.675178	-8.958615E+8	-6.791666E-12	NaN
671	1.000000	0.492528	7.37162e+06	-43539.1	1005.82	-29778.7	0.000000	0.000000	6.492941	-0.048751	NaN	0.000000	0.001602	0.001713	28.0824	0.062155	0.001923	32.3213	130.225	12.4	-0.072071	0.491206	-0.665073	-0.666395	-0.048751	32.3213	-0.663942	-6.287207E+8	7.753994E-11	NaN
671	1.000000	0.502543	7.37162e+06	-43539.1	1005.82	-29778.7	0.000000	0.000000	6.502956	-0.040826	NaN	0.000000	0.001580	0.001718	28.0829	0.075391	0.002140	35.2365	-22.0815	-169.336	0.035104	0.501212	-0.655059	-0.656389	-0.040826	35.2365	-0.654190	-4.622344E+8	8.832272E-11	NaN
671	1.000000	0.512512	7.37162e+06	-43539.1	1005.82	-29778.7	0.000000	0.000000	6.512928	0.001236	NaN	0.000000	0.001577	0.001685	28.0815	0.076932	0.001929	39.8902	165.648	13.2426	-0.028966	0.511184	-0.645089	-0.646417	0.001236	39.8902	-0.645112	-3.470700E+8	-3.559847E-12	NaN
671	1.000000	0.522520	7.37162e+06	-43539.1	1005.82	-29778.7	0.000000	0.000000	6.522932	-0.079740	NaN	0.000000	0.001591	0.001702	28.0812	0.039199	0.002015	19.4546	-134.333	-168.993	-0.087562	0.521183	-0.635082	-0.636419	-0.079740	19.4546	-0.632008	-2.293993E+8	3.476030E-10	NaN
671	1.000000	0.532538	7.37162e+06	-43539.1	1005.82	-29778.7	0.000000	0.000000	6.532953	-0.014313	NaN	0.000000	0.001612	0.001697	28.0813	0.119174	0.002019	59.0334	-166.958	11.8958	0.004429	0.531209	-0.625063	-0.626393	-0.014313	59.0334	-0.624881	-1.831108E+8	7.816414E-11	NaN
671	1.000000	0.542555	7.37162e+06	-43539.1	1005.82	-29778.7	0.000000	0.000000	6.542969	-0.013299	NaN	0.000000	0.001617	0.001723	28.0812	0.153555	0.002064	74.4121	-133.938	-163.782	0.017271	0.541252	-0.615047	-0.616349	-0.013299	74.4121	-0.614913	-1.335640E+8	9.956808E-11	NaN
671	1.000000	0.552551	7.37162e+06	-43539.1	1005.82	-29778.7	0.000000	0.000000	6.552965	-0.027304	NaN	0.000000	0.001562	0.001704	28.0813	0.060877	0.002019	30.1516	156.984	13.5907	-0.010800	0.551225	-0.605050	-0.606377	-0.027304	30.1516	-0.604371	-9.564104E+7	2.854881E-10	NaN
671	1.000000	0.562531	7.37162e+06	-43539.1	1005.82	-29778.7	0.000000	0.000000	6.562946	-0.009266	NaN	0.000000	0.001584	0.001678	28.0809	0.048513	0.002002	24.2297	38.2078	-165.608	0.014224	0.561249	-0.595071	-0.596352	-0.009266	24.2297	-0.594784	-7.056707E+7	1.313061E-10	NaN
671	1.000000	0.572544	7.37162e+06	-43539.1	1005.82	-29778.7	0.000000	0.000000	6.572958	-0.027042	NaN	0.000000	0.001617	0.001750	28.0812	0.066349	0.002144	30.9491	-90.1064	16.8137	-0.030450	0.571199	-0.585057	-0.586402	-0.027042	30.9491	-0.584402	-5.075304E+7	5.328070E-10	NaN
671	1.000000	0.582563	7.37162e+06	-43539.1	1005.82	-29778.7	0.000000	0.000000	6.582976	-0.063875	NaN	0.000000	0.001591	0.001763	28.0812	0.032592	0.002029	16.0667	-168.561	-164.969	-0.137646	0.581261	-0.575038	-0.576341	-0.063875	16.0667	-0.572056	-3.428019E+7	1.863334E-9	NaN
671	1.000000	0.592545	7.37162e+06	-43539.1	1005.82	-29778.7	0.000000	0.000000	6.592959	-0.030941	NaN	0.000000	0.001626	0.001755	28.0812	0.054099	0.001902	28.4454	94.9732	11.3655	-0.062308	0.591180	-0.565057	-0.566421	-0.030941	28.4454	-0.564241	-2.673191E+7	1.157443E-9	NaN
671	1.000000	0.602566	7.37162e+06	-43539.1	1005.82	-29778.7	0.000000	0.000000	6.602979	-0.049387	NaN	0.000000	0.001566	0.001763	28.0812	0.101854	0.002063	49.3633	144.93	-166.169	-0.031866	0.601253	-0.555035	-0.556348	-0.049387	49.3633	-0.554285	-1.946664E+7	2.537003E-9	NaN
671	1.000000	0.612514	7.37162e+06	-43539.1	1005.82	-29778.7	0.000000	0.000000	6.612925	-0.098562	NaN	0.000000	0.001593	0.001729	28.0813	0.076466	0.001992	38.3952	51.7833	13.3451	-0.092405	0.611238	-0.545087	-0.546363	-0.098562	38.3952	-0.543162	-1.365227E+7	7.219453E-9	NaN
671	1.000000	0.622571	7.37162e+06	-43539.1	1005.82	-29778.7	0.000000	0.000000	6.622987	0.018295	NaN	0.000000	0.001628	0.001743	28.0812	0.031204	0.001992	15.6656	77.5445	-168.156	0.057799	0.621301	-0.535030	-0.536300	0.018295	15.6656	-0.535906	-1.082833E+7	-1.689517E-9	NaN
671	1.000000	0.632585	7.37162e+06	-43539.1	1005.82	-29778.7	0.000000	0.000000	6.632998	-0.040139	NaN	0.000000	0.001661	0.001721	28.0813	0.043904	0.001896	23.1618	-58.7266	15.5742	-0.045486	0.631235	-0.525017	-0.526366	-0.040139	23.1618	-0.523717	-7.33293e+06	5.473741E-9	NaN
671	1.000000	0.642576	7.37162e+06	-43539.1	1005.82	-29778.7	0.000000	0.000000	6.642992	0.031814	NaN	0.000000	0.001649	0.001699	28.081	0.076074	0.002009	37.8688	-165.366	-169.283	-0.015696	0.641278	-0.515026	-0.516323	0.031814	37.8688	-0.515656	-5.66444e+06	-5.616440E-9	NaN
671	1.000000	0.652607	7.37162e+06	-43539.1	1005.82	-29778.7	0.000000	0.000000	6.653020	-0.035426	NaN	0.000000	0.001625	0.001707	28.0827	0.014649	0.002122	6.904159	-170.376	10.5989	-0.103753	0.651173	-0.504995	-0.506428	-0.035426	6.904159	-0.501146	-3.5564e+06	9.961052E-9	NaN
671	1.000000	0.662583	7.37162e+06	-43539.1	1005.82	-29778.7	0.000000	0.000000	6.662997	-0.042238	NaN	0.000000	0.001606	0.001700	28.0821	0.027395	0.002068	13.245	3.472079	-164.815	-0.002713	0.661274	-0.495018	-0.496328	-0.042238	13.245	-0.492626	-2.70449e+06	1.561760E-8	NaN
671	1.000000	0.672617	7.37162e+06	-43539.1	1005.82	-29778.7	0.000000	0.000000	6.673030	-0.043834	NaN	0.000000	0.001648	0.001723	28.0823	0.072319	0.002019	35.8108	-130.795	16.092	0.072858	0.671247	-0.484985	-0.486355	-0.043834	35.8108	-0.484067	-2.05321e+06	2.134901E-8	NaN
671	1.000000	0.682590	7.37162e+06	-43539.1	1005.82	-29778.7	0.000000	0.000000	6.683005	0.003592	NaN	0.000000	0.001595	0.001683	28.0823	0.056803	0.001909	29.751	-61.522	-167.273	0.022621	0.681294	-0.475011	-0.476308	0.003592	29.751	-0.475102	-1.5379e+06	-2.335818E-9	NaN
671	1.000000	0.692632	7.37162e+06	-43539.1	1005.82	-29778.7	0.000000	0.000000	6.693047	-0.021428	NaN	0.000000	0.001596	0.001702	28.0826	0.048379	0.001994	24.2607	-37.9385	11.4261	0.033769	0.691223	-0.464969	-0.466379	-0.021428	24.2607	-0.464307	-1.08521e+06	1.974592E-8	NaN
671	1.000000	0.702580	7.37162e+06	-43539.1	1005.82	-29778.7	0.000000	0.000000	6.702996	0.033822	NaN	0.000000	0.001631	0.001727	28.0821	0.007781	0.002001	3.888498	-118.894	-167.175	0.031287	0.701307	-0.455022	-0.456295	0.033822	3.888498	-0.461545	-992502	-3.407782E-8	NaN
671	1.000000	0.712646	7.37162e+06	-43539.1	1005.82	-29778.7	0.000000	0.000000	6.713059	-0.049134	NaN	0.000000	0.001627	0.001695	28.0822	0.083432	0.001968	42.3913	163.219	11.0929	0.038591	0.711238	-0.444955	-0.446363	-0.049134	42.3913	-0.444086	-563648	8.717090E-8	NaN
671	1.000000	0.722609	7.37162e+06	-43539.1	1005.82	-29778.7	0.000000	0.000000	6.723022	-0.051694	NaN	0.000000	0.001636	0.001673	28.0824	0.087569	0.002007	43.6283	-159.964	-168.126	-0.033232	0.721306	-0.434992	-0.436295	-0.051694	43.6283	-0.434103	-407460	1.268676E-7	NaN
671	1.000000	0.732636	7.37162e+06	-43539.1	1005.82	-29778.7	0.000000	0.000000	6.733051	-0.010160	NaN	0.000000	0.001624	0.001721	28.0822	0.102856	0.002135	48.1848	73.8206	13.1148	-0.044405	0.731288	-0.424965	-0.426314	-0.010160	48.1848	-0.424807	-300989	3.375629E-8	NaN
671	1.000000	0.742630	7.37162e+06	-43539.1	1005.82	-29778.7	0.000000	0.000000	6.743044	-0.016753	NaN	0.000000	0.001655	0.001679	28.0821	0.081280	0.002060	39.4583	-79.7652	-169.045	-0.042987	0.741343	-0.414972	-0.416258	-0.016753	39.4583	-0.414653	-216039	7.754459E-8	NaN
671	1.000000	0.752600	7.37162e+06	-43539.1	1005.82	-29778.7	0.000000	0.000000	6.753015	-0.004978	NaN	0.000000	0.001606	0.001696	28.0821	0.120181	0.001876	64.0542	-70.5033	11.0081	0.011685	0.751286	-0.405002	-0.406315	-0.004978	64.0542	-0.404943	-157196	3.166957E-8	NaN
671	1.000000	0.762646	7.37162e+06	-43539.1	1005.82	-29778.7	0.000000	0.000000	6.763060	-0.031392	NaN	0.000000	0.001618	0.001660	28.0824	0.111530	0.002018	55.261	145.84	-164.41	-0.037329	0.761314	-0.394955	-0.396288	-0.031392	55.261	-0.394529	-111664	2.811325E-7	NaN
671	1.000000	0.772638	7.37162e+06	-43539.1	1005.82	-29778.7	0.000000	0.000000	6.773047	-0.139364	NaN	0.000000	0.001598	0.001733	28.0823	0.021969	0.002017	10.8927	-23.8859	11.9879	-0.063544	0.771325	-0.384964	-0.386277	-0.139364	10.8927	-0.375368	-59342.4	2.348477E-6	NaN
671	1.000000	0.782653	7.37162e+06	-43539.1	1005.82	-29778.7	0.000000	0.000000	6.783068	-0.002322	NaN	0.000000	0.001602	0.001650	28.0813	0.162752	0.002093	77.7484	-142.285	-166.077	0.005294	0.781340	-0.374948	-0.376262	-0.002322	77.7484	-0.374926	-58479.5	3.970085E-8	NaN
671	1.000000	0.792644	7.37162e+06	-43539.1	1005.82	-29778.7	0.000000	0.000000	6.793057	-0.043556	NaN	0.000000	0.001603	0.001668	28.0811	0.091848	0.002161	42.4998	1.896101	14.3429	-0.049068	0.791285	-0.364958	-0.366317	-0.043556	42.4998	-0.364189	-40959.5	1.063404E-6	NaN
671	1.000000	0.802636	7.37162e+06	-43539.1	1005.82	-29778.7	0.000000	0.000000	6.803051	-0.007836	NaN	0.000000	0.001600	0.001684	28.0812	0.088116	0.001977	44.5598	-17.8842	-165.667	-0.048061	0.801321	-0.354965	-0.356280	-0.007836	44.5598	-0.354833	-29997.3	2.612250E-7	NaN
671	1.000000	0.812645	7.37162e+06	-43539.1	1005.82	-29778.7	0.000000	0.000000	6.813061	0.016808	NaN	0.000000	0.001626	0.001699	28.081	0.012430	0.001981	6.273638	175.97	11.5609	0.098664	0.811245	-0.344956	-0.346357	0.016808	6.273638	-0.346966	-23064.1	-7.287720E-7	NaN
671	1.000000	0.822633	7.37162e+06	-43539.1	1005.82	-29778.7	0.000000	0.000000	6.823047	-0.009430	NaN	0.000000	0.001592	0.001686	28.081	0.066998	0.001935	34.623	164.461	-167.75	0.052001	0.821334	-0.334969	-0.336267	-0.009430	34.623	-0.334764	-15316	6.156960E-7	NaN
671	1.000000	0.832649	7.37162e+06	-43539.1	1005.82	-29778.7	0.000000	0.000000	6.833061	-0.071260	NaN	0.000000	0.001642	0.001728	28.0812	0.081242	0.001943	41.8188	136.607	13.9211	-0.001426	0.831274	-0.324952	-0.326327	-0.071260	41.8188	-0.323674	-10535.8	6.763621E-6	NaN
671	1.000000	0.842665	7.37162e+06	-43539.1	1005.82	-29778.7	0.000000	0.000000	6.843078	-0.044370	NaN	0.000000	0.001625	0.001685	28.0809	0.064845	0.001959	33.0939	24.3526	-163.305	0.013705	0.841332	-0.314936	-0.316269	-0.044370	33.0939	-0.313931	-7571.17	5.860363E-6	NaN
671	1.000000	0.852674	7.37162e+06	-43539.1	1005.82	-29778.7	0.000000	0.000000	6.853090	0.007840	NaN	0.000000	0.001624	0.001706	28.0809	0.098725	0.002080	47.4688	52.3708	15.5403	-0.040518	0.851302	-0.304927	-0.306299	0.007840	47.4688	-0.305051	-5593.89	-1.401458E-6	NaN
671	1.000000	0.862645	7.37162e+06	-43539.1	1005.82	-29778.7	0.000000	0.000000	6.863059	-0.033668	NaN	0.000000	0.001621	0.001697	28.081	0.111730	0.002004	55.7607	-70.0411	-164.422	-0.076999	0.861380	-0.294956	-0.296222	-0.033668	55.7607	-0.294503	-3896.48	8.640679E-6	NaN
671	1.000000	0.872675	7.37162e+06	-43539.1	1005.82	-29778.7	0.000000	0.000000	6.873091	0.006382	NaN	0.000000	0.001637	0.001721	28.0812	0.009995	0.001931	5.176164	-119.622	13.9527	0.000332	0.871305	-0.284926	-0.286296	0.006382	5.176164	-0.285851	-2891.04	-2.207376E-6	NaN
671	1.000000	0.882688	7.37162e+06	-43539.1	1005.82	-29778.7	0.000000	0.000000	6.883099	-0.095467	NaN	0.000000	0.001635	0.001673	28.0809	0.081891	0.002129	38.4635	-23.1223	-166.734	-0.039963	0.881317	-0.274914	-0.276284	-0.095467	38.4635	-0.273052	-1853.04	5.151913E-5	NaN
671	1.000000	0.892695	7.37162e+06	-43539.1	1005.82	-29778.7	0.000000	0.000000	6.893109	-0.042205	NaN	0.000000	0.001628	0.001675	28.0808	0.066194	0.001900	34.8325	24.0161	15.8026	0.017185	0.891337	-0.264906	-0.266264	-0.042205	34.8325	-0.263998	-1349.22	3.128124E-5	NaN
671	1.000000	0.902660	7.37162e+06	-43539.1	1005.82	-29778.7	0.000000	0.000000	6.903074	-0.012110	NaN	0.000000	0.001635	0.001716	28.0813	0.083891	0.002094	40.0712	-134.525	-167.844	-0.001780	0.901326	-0.254942	-0.256276	-0.012110	40.0712	-0.254715	-972.134	1.245762E-5	NaN
671	1.000000	0.912694	7.37162e+06	-43539.1	1005.82	-29778.7	0.000000	0.000000	6.913108	-0.034013	NaN	0.000000	0.001631	0.001694	28.0811	0.047032	0.002099	22.4018	-56.4044	15.7816	-0.024995	0.911347	-0.244907	-0.246255	-0.034013	22.4018	-0.243769	-658.116	5.168190E-5	NaN
671	1.000000	0.922712	7.37162e+06	-43539.1	1005.82	-29778.7	0.000000	0.000000	6.923126	-0.024789	NaN	0.000000	0.001616	0.001700	28.0824	0.063702	0.002011	31.675	153.047	-167.095	0.029479	0.921381	-0.234889	-0.236220	-0.024789	31.675	-0.234302	-468.043	5.296382E-5	NaN
671	1.000000	0.932704	7.37162e+06	-43539.1	1005.82	-29778.7	0.000000	0.000000	6.933119	0.020202	NaN	0.000000	0.001641	0.001685	28.0823	0.087177	0.001861	46.8553	49.0756	10.8699	0.008159	0.931312	-0.224898	-0.226289	0.020202	46.8553	-0.225221	-336.395	-6.005578E-5	NaN
671	1.000000	0.942713	7.37162e+06	-43539.1	1005.82	-29778.7	0.000000	0.000000	6.943129	0.027649	NaN	0.000000	0.001631	0.001704	28.0825	0.076698	0.001917	40.0184	131.646	-167.153	0.032187	0.941384	-0.214888	-0.216218	0.027649	40.0184	-0.215406	-234.45	-0.000118	NaN
671	1.000000	0.952690	7.37162e+06	-43539.1	1005.82	-29778.7	0.000000	0.000000	6.953104	-0.016682	NaN	0.000000	0.001618	0.001695	28.0822	0.103165	0.002039	50.5864	-87.7509	11.105	0.009880	0.951271	-0.204912	-0.206331	-0.016682	50.5864	-0.204665	-157.068	0.000106	NaN
671	1.000000	0.962722	7.37162e+06	-43539.1	1005.82	-29778.7	0.000000	0.000000	6.963136	-0.046119	NaN	0.000000	0.001617	0.001691	28.0823	0.074824	0.001988	37.6386	105.766	-164.443	-0.073522	0.961436	-0.194879	-0.196166	-0.046119	37.6386	-0.193960	-104.704	0.000440	NaN
671	1.000000	0.972741	7.37162e+06	-43539.1	1005.82	-29778.7	0.000000	0.000000	6.973157	0.029385	NaN	0.000000	0.001585	0.001749	28.0824	0.028720	0.002012	14.2744	-41.1004	10.6678	-0.008596	0.971400	-0.184860	-0.186201	0.029385	14.2744	-0.186404	-78.302	-0.000375	NaN
671	1.000000	0.982723	7.37162e+06	-43539.1	1005.82	-29778.7	0.000000	0.000000	6.983139	0.026405	NaN	0.000000	0.001610	0.001734	28.0822	0.114923	0.001932	59.4932	-115.994	-162.96	0.001601	0.981431	-0.174879	-0.176171	0.026405	59.4932	-0.175212	-50.5379	-0.000522	NaN
671	1.000000	0.992735	7.37162e+06	-43539.1	1005.82	-29778.7	0.000000	0.000000	6.993147	-0.081993	NaN	0.000000	0.001634	0.001743	28.0822	0.059522	0.002025	29.3916	70.3369	13.7258	-0.064495	0.991332	-0.164866	-0.166270	-0.081993	29.3916	-0.162774	-30.6986	0.002671	NaN
671	1.000000	1.002742	7.37162e+06	-43539.1	1005.82	-29778.7	0.000000	0.000000	7.003155	-0.048203	NaN	0.000000	0.001609	0.001703	28.0821	0.063023	0.001924	32.7595	-3.715883	-169.556	-0.012950	1.001367	-0.154860	-0.156235	-0.048203	32.7595	-0.153756	-21.1916	0.002275	NaN
671	1.000000	1.012758	7.37162e+06	-43539.1	1005.82	-29778.7	0.000000	0.000000	7.013171	-0.052811	NaN	0.000000	0.001648	0.001680	28.0825	0.069861	0.001984	35.2152	128.487	12.7547	-0.159448	1.011375	-0.144843	-0.146227	-0.052811	35.2152	-0.143719	-13.8809	0.003805	NaN
671	1.000000	1.022728	7.37162e+06	-43539.1	1005.82	-29778.7	0.000000	0.000000	7.023140	-0.073341	NaN	0.000000	0.001637	0.001681	28.0823	0.058423	0.001959	29.8178	-29.5862	-166.519	0.015259	1.021369	-0.134873	-0.136232	-0.073341	29.8178	-0.133028	-8.720169	0.008410	NaN
671	1.000000	1.032725	7.37162e+06	-43539.1	1005.82	-29778.7	0.000000	0.000000	7.033139	-0.023777	NaN	0.000000	0.001613	0.001687	28.0822	0.034679	0.002042	16.9838	77.6946	11.2082	-0.113368	1.031413	-0.124877	-0.126189	-0.023777	16.9838	-0.123827	-5.764054	0.004125	NaN
671	1.000000	1.042755	7.37162e+06	-43539.1	1005.82	-29778.7	0.000000	0.000000	7.043168	-0.063793	NaN	0.000000	0.001580	0.001705	28.0823	0.102793	0.001985	51.7796	-145.745	-168.836	-0.071143	1.041451	-0.114846	-0.116150	-0.063793	51.7796	-0.113922	-3.629391	0.017577	NaN
671	1.000000	1.052752	7.37162e+06	-43539.1	1005.82	-29778.7	0.000000	0.000000	7.053166	-0.016617	NaN	0.000000	0.001575	0.001687	28.0825	0.155824	0.002000	77.8955	68.2752	12.3593	0.009581	1.051381	-0.104850	-0.106221	-0.016617	77.8955	-0.104690	-2.314543	0.007179	NaN
671	1.000000	1.062744	7.37162e+06	-43539.1	1005.82	-29778.7	0.000000	0.000000	7.063158	-0.030657	NaN	0.000000	0.001623	0.001681	28.0811	0.047736	0.001902	25.099	-90.7969	-169.975	-0.026033	1.061462	-0.094857	-0.096140	-0.030657	25.099	-0.093941	-1.334165	0.022978	NaN
671	1.000000	1.072748	7.37162e+06	-43539.1	1005.82	-29778.7	0.000000	0.000000	7.073163	0.002895	NaN	0.000000	0.001621	0.001687	28.081	0.104917	0.002118	49.5405	146.069	14.9273	0.010812	1.071411	-0.084854	-0.086190	0.002895	49.5405	-0.084898	-0.816957	-0.003543	NaN
671	1.000000	1.082761	7.37162e+06	-43539.1	1005.82	-29778.7	0.000000	0.000000	7.083174	-0.048876	NaN	0.000000	0.001628	0.001728	28.0811	0.097361	0.002028	47.9978	0.714661	-166.371	-0.025017	1.081457	-0.074841	-0.076145	-0.048876	47.9978	-0.074077	-0.437084	0.111822	NaN
671	1.000000	1.092762	7.37162e+06	-43539.1	1005.82	-29778.7	0.000000	0.000000	7.093176	-0.020541	NaN	0.000000	0.001659	0.001682	28.0811	0.012358	0.001956	6.318706	43.8712	14.8871	0.033210	1.091418	-0.064840	-0.066183	-0.020541	6.318706	-0.062402	-0.210792	0.097449	NaN
671	1.000000	1.102779	7.37162e+06	-43539.1	1005.82	-29778.7	0.000000	0.000000	7.103192	-0.032436	NaN	0.000000	0.001617	0.001721	28.0811	0.057252	0.002027	28.2433	164.328	-168.413	-0.056719	1.101494	-0.054823	-0.056108	-0.032436	28.2433	-0.053961	-0.119967	0.270375	NaN
671	1.000000	1.112763	7.37162e+06	-43539.1	1005.82	-29778.7	0.000000	0.000000	7.113175	-0.080674	NaN	0.000000	0.001630	0.001685	28.0814	0.140626	0.001833	76.7083	15.8205	10.6858	-0.066119	1.111422	-0.044838	-0.046179	-0.080674	76.7083	-0.044049	-0.060107	1.342189	NaN
671	1.000000	1.122781	7.37162e+06	-43539.1	1005.82	-29778.7	0.000000	0.000000	7.123193	-0.059666	NaN	0.000000	0.001672	0.001686	28.0813	0.087145	0.002012	43.3178	33.591	-168.758	-0.021435	1.121475	-0.034821	-0.036126	-0.059666	43.3178	-0.033788	-0.029511	2.021829	NaN
671	1.000000	1.132748	7.37162e+06	-43539.1	1005.82	-29778.7	0.000000	0.000000	7.133162	-0.023799	NaN	0.000000	0.001656	0.001720	28.0813	0.067158	0.002032	33.0424	133.695	13.907	-0.038436	1.131476	-0.024853	-0.026125	-0.023799	33.0424	-0.024313	-0.016190	1.469986	NaN
671	1.000000	1.142737	7.37162e+06	-43539.1	1005.82	-29778.7	0.000000	0.000000	7.143150	-0.048924	NaN	0.000000	0.001671	0.001702	28.0813	0.065988	0.002054	32.1243	-166.606	-166.851	-0.057657	1.141412	-0.014864	-0.016190	-0.048924	32.1243	-0.013722	-0.008521	5.741605	NaN
671	1.000000	1.152780	7.37162e+06	-43539.1	1005.82	-29778.7	0.000000	0.000000	7.153215	0.488042	NaN	0.000000	0.001659	0.001700	28.0817	0.874454	0.002015	433.903	10.769	11.0189	0.072579	1.151402	-0.004821	-0.006199	0.488042	433.903	-0.005665	-0.003831	-127.408	NaN
671	2.000000	1.161360	7.37162e+06	-43539.1	1005.82	-29778.7	0.000000	0.000000	7.162105	8.044037	NaN	0.000000	0.001651	0.001683	28.0812	8.862451	0.001683	5265.36	8.909920	-172.815	8.955738	1.160909	0.003758	0.003307	8.044037	5265.36	0.002612	0.002056	3912.26	106091
671	2.000000	1.163835	7.37162e+06	-43539.1	1005.82	-29778.7	0.000000	0.000000	7.164749	12.1474	NaN	0.000000	0.001575	0.001656	28.0816	11.5665	0.001584	7304.15	7.440640	6.404780	11.6401	1.163498	0.006233	0.005896	12.1474	7304.15	0.004986	0.004121	2947.98	103959
671	2.000000	1.166278	7.37162e+06	-43539.1	1005.82	-29778.7	0.000000	0.000000	7.167406	17.3513	NaN	0.000000	0.001592	0.001689	28.0811	14.7251	0.001752	8403.3	4.177751	-173.176	16.8179	1.165985	0.008677	0.008383	17.3513	8403.3	0.007128	0.006161	2816.38	97814.4
671	2.000000	1.168788	7.37162e+06	-43539.1	1005.82	-29778.7	0.000000	0.000000	7.170062	20.9071	NaN	0.000000	0.001591	0.001726	28.0827	17.0624	0.001667	10234.7	8.713472	1.969998	22.3899	1.168424	0.011186	0.010822	20.9071	10234.7	0.009654	0.008800	2375.88	99681.6
671	2.000000	1.171271	7.37162e+06	-43539.1	1005.82	-29778.7	0.000000	0.000000	7.172662	23.7308	NaN	0.000000	0.001595	0.001677	28.0823	20.4039	0.001752	11644.2	7.300618	-178.987	24.21	1.170997	0.013670	0.013395	23.7308	11644.2	0.012141	0.011659	2035.32	98524.5
671	2.000000	1.173782	7.37162e+06	-43539.1	1005.82	-29778.7	0.000000	0.000000	7.175574	33.5054	NaN	0.000000	0.001597	0.001645	28.0825	22.3871	0.001669	13411.9	5.989896	1.400422	32.1274	1.173374	0.016181	0.015772	33.5054	13411.9	0.014307	0.014372	2331.26	102212
671	2.000000	1.176255	7.37162e+06	-43539.1	1005.82	-29778.7	0.000000	0.000000	7.178127	35.4288	NaN	0.000000	0.001636	0.001639	28.0824	25.966	0.001952	13299.9	8.858242	178.358	35.0038	1.175897	0.018654	0.018296	35.4288	13299.9	0.016656	0.017557	2017.87	91704.3
671	2.000000	1.178764	7.37162e+06	-43539.1	1005.82	-29778.7	0.000000	0.000000	7.181094	46.5962	NaN	0.000000	0.001640	0.001675	28.0823	27.9749	0.001812	15439.4	9.581380	-3.892500	45.5095	1.178320	0.021162	0.020718	46.5962	15439.4	0.018899	0.020841	2235.81	97711.2
671	2.000000	1.181226	7.37162e+06	-43539.1	1005.82	-29778.7	0.000000	0.000000	7.183632	48.4582	NaN	0.000000	0.001633	0.001701	28.0823	29.9268	0.001877	15941.2	3.979986	-178.543	47.6215	1.180941	0.023624	0.023340	48.4582	15941.2	0.021344	0.024699	1961.97	92673.8
671	2.000000	1.183687	7.37162e+06	-43539.1	1005.82	-29778.7	0.000000	0.000000	7.186603	60.8526	NaN	0.000000	0.001616	0.001721	28.0825	31.8021	0.001637	19429.3	0.649255	2.663772	56.9722	1.183339	0.026085	0.025737	60.8526	19429.3	0.023736	0.028756	2116.14	104680
671	2.000000	1.186192	7.37162e+06	-43539.1	1005.82	-29778.7	0.000000	0.000000	7.189261	64.5815	NaN	0.000000	0.001603	0.001724	28.0826	34.5061	0.001742	19811	4.650117	177.903	62.9623	1.185904	0.028590	0.028302	64.5815	19811	0.026145	0.033132	1949.2	99438.2
671	2.000000	1.188740	7.37162e+06	-43539.1	1005.82	-29778.7	0.000000	0.000000	7.192129	72.3593	NaN	0.000000	0.001589	0.001693	28.0824	37.5319	0.001746	21500.2	6.862746	-3.738449	73.6799	1.188361	0.031139	0.030759	72.3593	21500.2	0.028615	0.037921	1908.14	100873
671	2.000000	1.191246	7.37162e+06	-43539.1	1005.82	-29778.7	0.000000	0.000000	7.194930	79.5415	NaN	0.000000	0.001618	0.001701	28.0823	40.1492	0.001813	22150.8	5.997755	175.73	79.8627	1.191022	0.033645	0.033420	79.5415	22150.8	0.030951	0.042739	1861.11	97893
671	2.000000	1.193752	7.37162e+06	-43539.1	1005.82	-29778.7	0.000000	0.000000	7.197953	92.0968	NaN	0.000000	0.001623	0.001700	28.0823	41.578	0.001756	23671.2	4.990237	-2.708950	92.5473	1.193342	0.036151	0.035740	92.0968	23671.2	0.033233	0.047712	1930.28	99010.6
671	2.000000	1.196163	7.37162e+06	-43539.1	1005.82	-29778.7	0.000000	0.000000	7.200780	102.234	NaN	0.000000	0.001577	0.001693	28.0833	44.1476	0.001728	25543.6	3.876757	176.798	99.4073	1.195837	0.038561	0.038235	102.234	25543.6	0.035559	0.053056	1926.89	101318
671	2.000000	1.198667	7.37162e+06	-43539.1	1005.82	-29778.7	0.000000	0.000000	7.203718	112.798	NaN	0.000000	0.001621	0.001717	28.0825	47.4808	0.001850	25671.7	5.304050	-4.297115	110.084	1.198325	0.041065	0.040724	112.798	25671.7	0.037770	0.058393	1931.73	97062.1
671	2.000000	1.201157	7.37162e+06	-43539.1	1005.82	-29778.7	0.000000	0.000000	7.206449	118.672	NaN	0.000000	0.001641	0.001753	28.0824	49.9056	0.001832	27238.3	7.073929	172.694	115.769	1.200985	0.043555	0.043384	118.672	27238.3	0.040288	0.064774	1832.1	97780.9
671	2.000000	1.203687	7.37162e+06	-43539.1	1005.82	-29778.7	0.000000	0.000000	7.209727	136.845	NaN	0.000000	0.001630	0.001721	28.0815	50.9483	0.001751	29095	5.813610	-5.922713	134.549	1.203363	0.046085	0.045762	136.845	29095	0.042558	0.070806	1932.67	99898
671	2.000000	1.206231	7.37162e+06	-43539.1	1005.82	-29778.7	0.000000	0.000000	7.212572	144.183	NaN	0.000000	0.001586	0.001756	28.0814	53.0702	0.001723	30803.9	5.544016	173.436	147.282	1.205984	0.048629	0.048383	144.183	30803.9	0.045119	0.077925	1850.28	100819
671	2.000000	1.208690	7.37162e+06	-43539.1	1005.82	-29778.7	0.000000	0.000000	7.215596	157.926	NaN	0.000000	0.001586	0.001736	28.0812	55.9225	0.001781	31404.2	2.083508	-3.442414	155.807	1.208395	0.051088	0.050793	157.926	31404.2	0.047317	0.084300	1873.39	98820.8
671	2.000000	1.211200	7.37162e+06	-43539.1	1005.82	-29778.7	0.000000	0.000000	7.218401	165.101	NaN	0.000000	0.001577	0.001724	28.0812	58.5565	0.001775	32988.7	0.461952	177.791	163.834	1.211031	0.053599	0.053430	165.101	32988.7	0.049845	0.091936	1795.83	99402.2
671	2.000000	1.213737	7.37162e+06	-43539.1	1005.82	-29778.7	0.000000	0.000000	7.221724	184.233	NaN	0.000000	0.001601	0.001750	28.0812	60.5199	0.001857	32595	5.691308	-5.106731	185.33	1.213275	0.056135	0.055673	184.233	32595	0.051896	0.098363	1872.99	94952.8
671	2.000000	1.216165	7.37162e+06	-43539.1	1005.82	-29778.7	0.000000	0.000000	7.224900	202.434	NaN	0.000000	0.001583	0.001732	28.0812	62.5146	0.001797	34782	3.163672	174.857	200.957	1.215790	0.058563	0.058189	202.434	34782	0.054198	0.105830	1912.83	97684
671	2.000000	1.218618	7.37162e+06	-43539.1	1005.82	-29778.7	0.000000	0.000000	7.227938	216.659	NaN	0.000000	0.001559	0.001721	28.081	65.4735	0.001734	37763.8	4.192833	-6.560975	211.624	1.218264	0.061017	0.060663	216.659	37763.8	0.056714	0.114289	1895.71	102058
671	2.000000	1.221170	7.37162e+06	-43539.1	1005.82	-29778.7	0.000000	0.000000	7.230590	219.077	NaN	0.000000	0.001563	0.001745	28.0809	68.9808	0.001815	37998.4	2.659097	174.666	219.223	1.220996	0.063569	0.063394	219.077	37998.4	0.059245	0.123114	1779.46	98942.8
671	2.000000	1.223605	7.37162e+06	-43539.1	1005.82	-29778.7	0.000000	0.000000	7.234026	243.429	NaN	0.000000	0.001603	0.001707	28.0808	69.1765	0.001713	40389.4	1.961677	-4.726415	238.346	1.223358	0.066004	0.065756	243.429	40389.4	0.061484	0.131182	1855.66	101883
671	2.000000	1.226103	7.37162e+06	-43539.1	1005.82	-29778.7	0.000000	0.000000	7.237000	255.03	NaN	0.000000	0.001660	0.001784	28.0811	72.0877	0.001776	40579.1	1.024539	175.952	251.051	1.225866	0.068501	0.068264	255.03	40579.1	0.063788	0.139740	1825.03	99177.9
671	2.000000	1.228626	7.37162e+06	-43539.1	1005.82	-29778.7	0.000000	0.000000	7.240185	271.136	NaN	0.000000	0.001682	0.001754	28.081	75.6359	0.001782	42447.5	3.818732	-7.375240	266.077	1.228278	0.071024	0.070677	271.136	42447.5	0.066234	0.149105	1818.42	100433
671	2.000000	1.231107	7.37162e+06	-43539.1	1005.82	-29778.7	0.000000	0.000000	7.243391	288.765	NaN	0.000000	0.001696	0.001760	28.0809	78.6504	0.001844	42654.9	5.833837	170.808	285.115	1.230782	0.073506	0.073181	288.765	42654.9	0.068429	0.157754	1830.47	98118.8
671	2.000000	1.233675	7.37162e+06	-43539.1	1005.82	-29778.7	0.000000	0.000000	7.246596	304.278	NaN	0.000000	0.001693	0.001785	28.081	79.915	0.001702	46944.9	4.771219	-8.598447	302.475	1.233385	0.076073	0.075783	304.278	46944.9	0.071212	0.169053	1799.9	104316
671	2.000000	1.236173	7.37162e+06	-43539.1	1005.82	-29778.7	0.000000	0.000000	7.249796	321.358	NaN	0.000000	0.001711	0.001739	28.081	81.6695	0.001763	46330.9	3.271845	172.595	321.146	1.235810	0.078571	0.078209	321.358	46330.9	0.073369	0.178062	1804.76	100313
671	2.000000	1.238611	7.37162e+06	-43539.1	1005.82	-29778.7	0.000000	0.000000	7.252813	335.426	NaN	0.000000	0.001720	0.001766	28.0822	85.1031	0.001734	49068.2	6.035237	-10.5248	331.54	1.238256	0.081010	0.080655	335.426	49068.2	0.075883	0.188839	1776.25	103164
671	2.000000	1.241128	7.37162e+06	-43539.1	1005.82	-29778.7	0.000000	0.000000	7.255904	349.391	NaN	0.000000	0.001699	0.001741	28.0822	88.3956	0.001845	47901.3	4.743218	170.523	347.227	1.240886	0.083527	0.083285	349.391	47901.3	0.078056	0.198396	1761.08	98255
671	2.000000	1.243676	7.37162e+06	-43539.1	1005.82	-29778.7	0.000000	0.000000	7.259481	374.431	NaN	0.000000	0.001688	0.001771	28.0823	88.5725	0.001709	51836.8	5.891255	-10.5426	372.072	1.243325	0.086075	0.085723	374.431	51836.8	0.080657	0.210123	1781.97	103318
671	2.000000	1.246057	7.37162e+06	-43539.1	1005.82	-29778.7	0.000000	0.000000	7.262626	393.03	NaN	0.000000	0.001695	0.001746	28.0821	90.1376	0.001769	50959.5	1.867880	173.564	387.936	1.245798	0.088455	0.088196	393.03	50959.5	0.082671	0.219416	1791.26	99395
671	2.000000	1.248555	7.37162e+06	-43539.1	1005.82	-29778.7	0.000000	0.000000	7.265943	412.954	NaN	0.000000	0.001673	0.001689	28.0823	93.278	0.001796	51938.4	2.635261	-7.057027	407.549	1.248236	0.090953	0.090635	412.954	51938.4	0.084990	0.230355	1792.68	98869.5
671	2.000000	1.251349	7.37162e+06	-43539.1	1005.82	-29778.7	0.000000	0.000000	7.268820	414.942	NaN	0.000000	0.001660	0.001715	28.0822	97.9469	0.001744	56172.8	6.922788	168.102	428.552	1.250886	0.093748	0.093285	414.942	56172.8	0.088208	0.245941	1687.16	103486
671	2.000000	1.253603	7.37162e+06	-43539.1	1005.82	-29778.7	0.000000	0.000000	7.272440	448.205	NaN	0.000000	0.001662	0.001759	28.0823	99.0756	0.001825	54273.5	5.654321	-10.3572	443.06	1.253350	0.096001	0.095748	448.205	54273.5	0.089807	0.253867	1765.51	98414.2
671	2.000000	1.256105	7.37162e+06	-43539.1	1005.82	-29778.7	0.000000	0.000000	7.275653	465.489	NaN	0.000000	0.001672	0.001798	28.0822	101.637	0.001724	58963.8	6.722326	167.697	462.485	1.255760	0.098503	0.098158	465.489	58963.8	0.092582	0.267895	1737.58	104082
671	2.000000	1.258668	7.37162e+06	-43539.1	1005.82	-29778.7	0.000000	0.000000	7.279257	490.82	NaN	0.000000	0.001658	0.001772	28.0822	105.498	0.001823	57860.5	6.185671	-11.0938	489.922	1.258102	0.101067	0.100501	490.82	57860.5	0.094705	0.278862	1760.08	100106
671	2.000000	1.259180	7.37162e+06	-43539.1	1005.82	-29778.7	0.000000	0.000000	7.279689	488.867	NaN	0.000000	0.001692	0.001780	28.0821	104.636	0.001726	60628.9	2.562909	171.573	489.881	1.258953	0.101578	0.101351	488.867	60628.9	0.095531	0.283187	1726.31	104092