File: remote_trans/data/nanoindenter/0828-1/data/Data_2025-08-06,11h17m57s/2025-07-22_16-23-58_1_1201.txt
2025-07-22, 16:23:58, 1
Index	Phase	Displacement	Time	Pos X	Pos Y	Pos Z	Rot A	Rot B	Piezo Z	Force A	Force B	Gripper	Voltage A	Voltage B	Temperature	Amplitude force	Amplitude pos	Stiffness	Phase shift	Phase excitation	Force A raw	Displacement raw	HMax	HMax raw	Real Force	Real Stiffness	Contact Depth	Area	Hardness	Reduced Mod.
[#]	[#]	[um]	[s]	[um]	[um]	[um]	[m°]	[m°]	[um]	[uN]	[uN]	[V]	[V]	[V]	[°C]	[uN]	[um]	[N/m]	[°]	[°]	[uN]	[um]	[um]	[um]	[uN]	[N/m]	[um]	[um^2]	[MPa]	[MPa]
1201	1.000000	0.002989	7.37679e+06	-55539.1	1105.82	-29741.2	0.000000	0.000000	6.002826	0.049100	NaN	0.000000	0.001525	0.001674	28.0829	0.057127	0.000935	61.1076	-152.67	-173.614	0.043194	0.001728	-1.103645	-1.104907	0.049100	61.1076	-1.104248	-5.715947E+14	-8.589968E-17	NaN
1201	1.000000	0.013041	7.37679e+06	-55539.1	1105.82	-29741.2	0.000000	0.000000	6.012875	-0.032091	NaN	0.000000	0.001548	0.001702	28.083	0.031161	0.001238	25.167	142.87	20.3156	-0.002365	0.011575	-1.093593	-1.095059	-0.032091	25.167	-1.092637	-3.992272E+14	8.038206E-17	NaN
1201	1.000000	0.022900	7.37679e+06	-55539.1	1105.82	-29741.2	0.000000	0.000000	6.022735	-0.015409	NaN	0.000000	0.001514	0.001663	28.0827	0.033405	0.001705	19.5925	-12.8893	-166.277	-0.069327	0.021608	-1.083735	-1.085027	-0.015409	19.5925	-1.083145	-2.976827E+14	5.176478E-17	NaN
1201	1.000000	0.032928	7.37679e+06	-55539.1	1105.82	-29741.2	0.000000	0.000000	6.032766	0.056061	NaN	0.000000	0.001525	0.001677	28.0826	0.087707	0.001866	46.992	-78.1138	20.1082	0.046603	0.031532	-1.073706	-1.075102	0.056061	46.992	-1.074601	-2.285589E+14	-2.452803E-16	NaN
1201	1.000000	0.042910	7.37679e+06	-55539.1	1105.82	-29741.2	0.000000	0.000000	6.042746	0.014947	NaN	0.000000	0.001532	0.001688	28.0828	0.105542	0.001979	53.3419	-2.247372	-167.868	-0.082508	0.041611	-1.063725	-1.065023	0.014947	53.3419	-1.063935	-1.643232E+14	-9.096313E-17	NaN
1201	1.000000	0.052941	7.37679e+06	-55539.1	1105.82	-29741.2	0.000000	0.000000	6.052777	0.018082	NaN	0.000000	0.001547	0.001682	28.0828	0.049896	0.002077	24.0276	19.5935	19.4102	0.076530	0.051606	-1.053694	-1.055029	0.018082	24.0276	-1.054258	-1.218018E+14	-1.484544E-16	NaN
1201	1.000000	0.062920	7.37679e+06	-55539.1	1105.82	-29741.2	0.000000	0.000000	6.062754	-0.008626	NaN	0.000000	0.001500	0.001675	28.0827	0.037911	0.001925	19.6944	-174.616	-165.169	-0.031259	0.061574	-1.043715	-1.045061	-0.008626	19.6944	-1.043386	-8.699658E+13	9.915292E-17	NaN
1201	1.000000	0.072899	7.37679e+06	-55539.1	1105.82	-29741.2	0.000000	0.000000	6.072735	0.034657	NaN	0.000000	0.001523	0.001674	28.0828	0.051007	0.001979	25.773	127.768	13.7927	0.015550	0.071539	-1.033736	-1.035096	0.034657	25.773	-1.034745	-6.657249E+13	-5.205858E-16	NaN
1201	1.000000	0.082924	7.37679e+06	-55539.1	1105.82	-29741.2	0.000000	0.000000	6.082760	0.021882	NaN	0.000000	0.001535	0.001714	28.0829	0.099582	0.002010	49.5356	-73.6028	-162.418	-0.027553	0.081580	-1.023711	-1.025055	0.021882	49.5356	-1.024042	-4.779028E+13	-4.578804E-16	NaN
1201	1.000000	0.092903	7.37679e+06	-55539.1	1105.82	-29741.2	0.000000	0.000000	6.092738	0.003749	NaN	0.000000	0.001497	0.001676	28.0828	0.089730	0.001971	45.5253	-21.4622	16.1121	0.039313	0.091610	-1.013732	-1.015024	0.003749	45.5253	-1.013794	-3.478857E+13	-1.077736E-16	NaN
1201	1.000000	0.102943	7.37679e+06	-55539.1	1105.82	-29741.2	0.000000	0.000000	6.102783	0.127494	NaN	0.000000	0.001482	0.001659	28.0827	0.032895	0.001920	17.1342	-44.7562	-167.427	0.067399	0.101628	-1.003692	-1.005007	0.127494	17.1342	-1.009273	-3.024070E+13	-4.215983E-15	NaN
1201	1.000000	0.112936	7.37679e+06	-55539.1	1105.82	-29741.2	0.000000	0.000000	6.112768	-0.074299	NaN	0.000000	0.001478	0.001679	28.0826	0.137198	0.002131	64.3686	1.808958	16.4212	-0.146065	0.111612	-0.993698	-0.995023	-0.074299	64.3686	-0.992833	-1.816600E+13	4.089977E-15	NaN
1201	1.000000	0.122944	7.37679e+06	-55539.1	1105.82	-29741.2	0.000000	0.000000	6.122780	0.034542	NaN	0.000000	0.001514	0.001648	28.083	0.087101	0.002084	41.7862	133.181	-164.552	0.001466	0.121613	-0.983691	-0.985021	0.034542	41.7862	-0.984311	-1.394719E+13	-2.476655E-15	NaN
1201	1.000000	0.132944	7.37679e+06	-55539.1	1105.82	-29741.2	0.000000	0.000000	6.132779	-0.015785	NaN	0.000000	0.001513	0.001689	28.0827	0.040542	0.001967	20.6103	112.963	14.4975	-0.075912	0.131591	-0.973691	-0.975044	-0.015785	20.6103	-0.973116	-9.854999E+12	1.601774E-15	NaN
1201	1.000000	0.142941	7.37679e+06	-55539.1	1105.82	-29741.2	0.000000	0.000000	6.142777	0.028827	NaN	0.000000	0.001556	0.001683	28.0816	0.038374	0.001917	20.0138	-116.139	-165.232	0.086349	0.141663	-0.963694	-0.964972	0.028827	20.0138	-0.964774	-7.607256E+12	-3.789395E-15	NaN
1201	1.000000	0.152983	7.37679e+06	-55539.1	1105.82	-29741.2	0.000000	0.000000	6.152819	0.027502	NaN	0.000000	0.001494	0.001701	28.0817	0.019668	0.002011	9.781140	38.1033	12.5354	0.006574	0.151546	-0.953652	-0.955089	0.027502	9.781140	-0.955760	-5.750543E+12	-4.782478E-15	NaN
1201	1.000000	0.162965	7.37679e+06	-55539.1	1105.82	-29741.2	0.000000	0.000000	6.162796	-0.086234	NaN	0.000000	0.001481	0.001694	28.0817	0.065743	0.001889	34.8068	-130.067	-165.132	-0.058899	0.161631	-0.943670	-0.945004	-0.086234	34.8068	-0.941812	-3.728898E+12	2.312593E-14	NaN
1201	1.000000	0.172959	7.37679e+06	-55539.1	1105.82	-29741.2	0.000000	0.000000	6.172795	0.010958	NaN	0.000000	0.001499	0.001687	28.0814	0.068452	0.002114	32.3732	-92.0589	14.3925	-0.034326	0.171620	-0.933675	-0.935015	0.010958	32.3732	-0.933929	-2.918940E+12	-3.754257E-15	NaN
1201	1.000000	0.182951	7.37679e+06	-55539.1	1105.82	-29741.2	0.000000	0.000000	6.182787	0.001099	NaN	0.000000	0.001515	0.001699	28.0815	0.093403	0.002087	44.7475	135.539	-168.035	-0.045647	0.181642	-0.923683	-0.924992	0.001099	44.7475	-0.923702	-2.124133E+12	-5.172232E-16	NaN
1201	1.000000	0.192965	7.37679e+06	-55539.1	1105.82	-29741.2	0.000000	0.000000	6.192802	0.039379	NaN	0.000000	0.001511	0.001677	28.0819	0.069180	0.001985	34.8511	-1.205043	14.3638	0.051687	0.191605	-0.913669	-0.915029	0.039379	34.8511	-0.914517	-1.596493E+12	-2.466604E-14	NaN
1201	1.000000	0.202991	7.37679e+06	-55539.1	1105.82	-29741.2	0.000000	0.000000	6.202823	-0.087560	NaN	0.000000	0.001496	0.001680	28.0815	0.050580	0.002011	25.156	-46.0435	-165.706	-0.080231	0.201698	-0.903643	-0.904937	-0.087560	25.156	-0.901033	-1.049601E+12	8.342213E-14	NaN
1201	1.000000	0.212978	7.37679e+06	-55539.1	1105.82	-29741.2	0.000000	0.000000	6.212812	-0.034412	NaN	0.000000	0.001548	0.001676	28.0815	0.085460	0.002112	40.4586	34.8428	15.5739	-0.011526	0.211616	-0.893657	-0.895018	-0.034412	40.4586	-0.893019	-8.179387E+11	4.207113E-14	NaN
1201	1.000000	0.223001	7.37679e+06	-55539.1	1105.82	-29741.2	0.000000	0.000000	6.222833	-0.080493	NaN	0.000000	0.001504	0.001714	28.0818	0.014453	0.002021	7.152969	-26.3374	-161.149	-0.037702	0.221685	-0.883633	-0.884949	-0.080493	7.152969	-0.875194	-4.695721E+11	1.714173E-13	NaN
1201	1.000000	0.232978	7.37679e+06	-55539.1	1105.82	-29741.2	0.000000	0.000000	6.232816	0.079719	NaN	0.000000	0.001529	0.001677	28.0817	0.060004	0.001982	30.2751	19.875	12.526	-0.016660	0.231612	-0.873657	-0.875023	0.079719	30.2751	-0.875632	-4.760227E+11	-1.674686E-13	NaN
1201	1.000000	0.242981	7.37679e+06	-55539.1	1105.82	-29741.2	0.000000	0.000000	6.242815	-0.007467	NaN	0.000000	0.001451	0.001671	28.0815	0.034331	0.002078	16.5194	-139.738	-161.727	-0.003752	0.241670	-0.863654	-0.864965	-0.007467	16.5194	-0.863315	-3.243302E+11	2.302405E-14	NaN
1201	1.000000	0.252979	7.37679e+06	-55539.1	1105.82	-29741.2	0.000000	0.000000	6.252814	0.003250	NaN	0.000000	0.001473	0.001676	28.0814	0.033011	0.001940	17.0143	-36.5569	12.6402	0.076621	0.251556	-0.853656	-0.855079	0.003250	17.0143	-0.853799	-2.410887E+11	-1.347992E-14	NaN
1201	1.000000	0.263009	7.37679e+06	-55539.1	1105.82	-29741.2	0.000000	0.000000	6.262844	-0.004235	NaN	0.000000	0.001487	0.001693	28.0818	0.007505	0.001951	3.846683	-175.594	-161.342	0.055167	0.261654	-0.843625	-0.844980	-0.004235	3.846683	-0.842799	-1.710867E+11	2.475386E-14	NaN
1201	1.000000	0.273001	7.37679e+06	-55539.1	1105.82	-29741.2	0.000000	0.000000	6.272837	0.022396	NaN	0.000000	0.001523	0.001711	28.0816	0.096487	0.001892	50.9873	142.23	10.8901	0.033244	0.271596	-0.833634	-0.835038	0.022396	50.9873	-0.833963	-1.298656E+11	-1.724559E-13	NaN
1201	1.000000	0.283009	7.37679e+06	-55539.1	1105.82	-29741.2	0.000000	0.000000	6.282844	0.004409	NaN	0.000000	0.001530	0.001712	28.0829	0.022793	0.002086	10.9256	157.244	-165.703	0.030854	0.281679	-0.823626	-0.824956	0.004409	10.9256	-0.823929	-9.494700E+10	-4.643459E-14	NaN
1201	1.000000	0.292988	7.37679e+06	-55539.1	1105.82	-29741.2	0.000000	0.000000	6.292823	-0.003709	NaN	0.000000	0.001522	0.001698	28.0831	0.018743	0.001986	9.438671	69.2054	17.0204	0.009578	0.291637	-0.813647	-0.814998	-0.003709	9.438671	-0.813352	-6.824141E+10	5.434800E-14	NaN
1201	1.000000	0.303013	7.37679e+06	-55539.1	1105.82	-29741.2	0.000000	0.000000	6.302850	0.035623	NaN	0.000000	0.001517	0.001714	28.083	0.033294	0.002087	15.9567	-45.1936	-167.553	-0.029099	0.301742	-0.803621	-0.804892	0.035623	15.9567	-0.805296	-5.305627E+10	-6.714202E-13	NaN
1201	1.000000	0.313011	7.37679e+06	-55539.1	1105.82	-29741.2	0.000000	0.000000	6.312844	-0.056306	NaN	0.000000	0.001530	0.001660	28.0832	0.101008	0.002072	48.7571	-101.691	17.5738	-0.035308	0.311687	-0.793624	-0.794948	-0.056306	48.7571	-0.792758	-3.585378E+10	1.570438E-12	NaN
1201	1.000000	0.323000	7.37679e+06	-55539.1	1105.82	-29741.2	0.000000	0.000000	6.322837	0.038072	NaN	0.000000	0.001566	0.001696	28.083	0.028217	0.002062	13.6859	70.0417	-165.261	0.036539	0.321790	-0.783634	-0.784845	0.038072	13.6859	-0.785721	-2.877110E+10	-1.323269E-12	NaN
1201	1.000000	0.333045	7.37679e+06	-55539.1	1105.82	-29741.2	0.000000	0.000000	6.332881	0.013511	NaN	0.000000	0.001519	0.001732	28.0831	0.075056	0.001937	38.75	-75.8033	15.9411	0.020521	0.331627	-0.773590	-0.775008	0.013511	38.75	-0.773851	-1.984556E+10	-6.807982E-13	NaN
1201	1.000000	0.343057	7.37679e+06	-55539.1	1105.82	-29741.2	0.000000	0.000000	6.342892	-0.012570	NaN	0.000000	0.001509	0.001724	28.0829	0.077715	0.001985	39.1519	157.427	-166.291	0.038816	0.341718	-0.763577	-0.764917	-0.012570	39.1519	-0.763337	-1.427877E+10	8.803530E-13	NaN
1201	1.000000	0.352991	7.37679e+06	-55539.1	1105.82	-29741.2	0.000000	0.000000	6.352827	0.018019	NaN	0.000000	0.001519	0.001717	28.0829	0.118201	0.001961	60.2737	-80.7181	12.2497	-0.087701	0.351652	-0.753643	-0.754983	0.018019	60.2737	-0.753868	-1.061356E+10	-1.697763E-12	NaN
1201	1.000000	0.363057	7.37679e+06	-55539.1	1105.82	-29741.2	0.000000	0.000000	6.362889	-0.075160	NaN	0.000000	0.001523	0.001750	28.083	0.081663	0.001967	41.5166	139.599	-164.955	-0.061816	0.361699	-0.743578	-0.744936	-0.075160	41.5166	-0.742220	-7.367021E+9	1.020228E-11	NaN
1201	1.000000	0.373050	7.37679e+06	-55539.1	1105.82	-29741.2	0.000000	0.000000	6.372883	-0.050617	NaN	0.000000	0.001480	0.001719	28.0832	0.050970	0.001964	25.9547	63.2923	11.6507	-0.048558	0.371715	-0.733584	-0.734920	-0.050617	25.9547	-0.732122	-5.366889E+9	9.431349E-12	NaN
1201	1.000000	0.383078	7.37679e+06	-55539.1	1105.82	-29741.2	0.000000	0.000000	6.382914	0.011654	NaN	0.000000	0.001510	0.001720	28.083	0.029122	0.002085	13.9663	-174.306	-165.591	0.043655	0.381712	-0.723556	-0.724922	0.011654	13.9663	-0.724182	-4.183134E+9	-2.786050E-12	NaN
1201	1.000000	0.393060	7.37679e+06	-55539.1	1105.82	-29741.2	0.000000	0.000000	6.392893	-0.043091	NaN	0.000000	0.001491	0.001681	28.0829	0.133019	0.001942	68.4806	-144.69	14.1201	-0.024371	0.391703	-0.713575	-0.714932	-0.043091	68.4806	-0.713103	-2.953857E+9	1.458807E-11	NaN
1201	1.000000	0.403056	7.37679e+06	-55539.1	1105.82	-29741.2	0.000000	0.000000	6.402890	-0.028263	NaN	0.000000	0.001516	0.001685	28.083	0.067084	0.001968	34.0895	173.451	-164.03	-0.030235	0.401733	-0.703579	-0.704901	-0.028263	34.0895	-0.702957	-2.147364E+9	1.316161E-11	NaN
1201	1.000000	0.413069	7.37679e+06	-55539.1	1105.82	-29741.2	0.000000	0.000000	6.412903	-0.023461	NaN	0.000000	0.001492	0.001693	28.0818	0.021834	0.001987	10.9883	103.139	13.6687	0.021005	0.411708	-0.693566	-0.694927	-0.023461	10.9883	-0.691965	-1.519724E+9	1.543787E-11	NaN
1201	1.000000	0.423077	7.37679e+06	-55539.1	1105.82	-29741.2	0.000000	0.000000	6.422912	-0.003184	NaN	0.000000	0.001552	0.001710	28.0818	0.098978	0.001955	50.6381	-93.3469	-163.092	-0.062722	0.421786	-0.683557	-0.684849	-0.003184	50.6381	-0.683510	-1.164679E+9	2.733971E-12	NaN
1201	1.000000	0.433072	7.37679e+06	-55539.1	1105.82	-29741.2	0.000000	0.000000	6.432906	-0.019391	NaN	0.000000	0.001552	0.001719	28.0818	0.032257	0.002129	15.148	65.2032	12.0496	-0.093838	0.431728	-0.673563	-0.674906	-0.019391	15.148	-0.672603	-8.260547E+8	2.347367E-11	NaN
1201	1.000000	0.443094	7.37679e+06	-55539.1	1105.82	-29741.2	0.000000	0.000000	6.442931	0.044703	NaN	0.000000	0.001534	0.001705	28.0819	0.065468	0.001953	33.518	83.7624	-166.072	0.001856	0.441755	-0.663541	-0.664880	0.044703	33.518	-0.664541	-6.407039E+8	-6.977144E-11	NaN
1201	1.000000	0.453098	7.37679e+06	-55539.1	1105.82	-29741.2	0.000000	0.000000	6.452935	0.052935	NaN	0.000000	0.001550	0.001671	28.0818	0.114506	0.002009	56.9857	8.174297	12.0804	-0.015936	0.451711	-0.653537	-0.654923	0.052935	56.9857	-0.654234	-4.628766E+8	-1.143617E-10	NaN
1201	1.000000	0.463068	7.37679e+06	-55539.1	1105.82	-29741.2	0.000000	0.000000	6.462903	0.000961	NaN	0.000000	0.001549	0.001711	28.0817	0.024215	0.002015	12.0161	-92.4111	-167.948	0.081826	0.461790	-0.643566	-0.644845	0.000961	12.0161	-0.643626	-3.311595E+8	-2.900907E-12	NaN
1201	1.000000	0.473081	7.37679e+06	-55539.1	1105.82	-29741.2	0.000000	0.000000	6.472914	-0.055690	NaN	0.000000	0.001544	0.001693	28.0816	0.119299	0.002031	58.7522	-70.4371	18.2254	-0.126049	0.471792	-0.633554	-0.634843	-0.055690	58.7522	-0.632843	-2.355367E+8	2.364371E-10	NaN
1201	1.000000	0.483098	7.37679e+06	-55539.1	1105.82	-29741.2	0.000000	0.000000	6.482934	0.003692	NaN	0.000000	0.001571	0.001700	28.0814	0.089288	0.002011	44.4091	118.525	-169.643	0.031063	0.481805	-0.623536	-0.624829	0.003692	44.4091	-0.623599	-1.758294E+8	-2.099836E-11	NaN
1201	1.000000	0.493104	7.37679e+06	-55539.1	1105.82	-29741.2	0.000000	0.000000	6.492942	0.047415	NaN	0.000000	0.001561	0.001720	28.0816	0.057255	0.001940	29.5113	-71.5695	13.8511	-0.013431	0.491764	-0.613530	-0.614870	0.047415	29.5113	-0.614735	-1.328156E+8	-3.569958E-10	NaN
1201	1.000000	0.503093	7.37679e+06	-55539.1	1105.82	-29741.2	0.000000	0.000000	6.502928	0.005549	NaN	0.000000	0.001566	0.001705	28.0815	0.064396	0.002013	31.9949	43.2441	-163.89	0.005544	0.501855	-0.603542	-0.604779	0.005549	31.9949	-0.603672	-9.354450E+7	-5.931466E-11	NaN
1201	1.000000	0.513102	7.37679e+06	-55539.1	1105.82	-29741.2	0.000000	0.000000	6.512938	0.015332	NaN	0.000000	0.001558	0.001696	28.0821	0.130087	0.002037	63.8498	-90.141	19.8011	0.035862	0.511722	-0.593532	-0.594912	0.015332	63.8498	-0.593712	-6.820818E+7	-2.247762E-10	NaN
1201	1.000000	0.523098	7.37679e+06	-55539.1	1105.82	-29741.2	0.000000	0.000000	6.522935	0.041377	NaN	0.000000	0.001555	0.001702	28.0817	0.031000	0.001992	15.5647	-73.2908	-164.123	-0.069070	0.521787	-0.583536	-0.584848	0.041377	15.5647	-0.585530	-5.260499E+7	-7.865514E-10	NaN
1201	1.000000	0.533114	7.37679e+06	-55539.1	1105.82	-29741.2	0.000000	0.000000	6.532947	-0.046900	NaN	0.000000	0.001524	0.001699	28.0816	0.074056	0.002082	35.5698	-179.438	15.6456	-0.005752	0.531763	-0.573520	-0.574871	-0.046900	35.5698	-0.572531	-3.480205E+7	1.347633E-9	NaN
1201	1.000000	0.543126	7.37679e+06	-55539.1	1105.82	-29741.2	0.000000	0.000000	6.542960	-0.016470	NaN	0.000000	0.001514	0.001717	28.0814	0.128989	0.002007	64.2623	-149.802	-166.843	-0.006078	0.541776	-0.563509	-0.564859	-0.016470	64.2623	-0.563317	-2.595671E+7	6.345070E-10	NaN
1201	1.000000	0.553124	7.37679e+06	-55539.1	1105.82	-29741.2	0.000000	0.000000	6.552957	-0.060674	NaN	0.000000	0.001480	0.001675	28.0831	0.015276	0.001840	8.301174	-155.812	14.5674	0.037941	0.551761	-0.553511	-0.554874	-0.060674	8.301174	-0.548029	-1.594602E+7	3.804955E-9	NaN
1201	1.000000	0.563113	7.37679e+06	-55539.1	1105.82	-29741.2	0.000000	0.000000	6.562947	-0.032210	NaN	0.000000	0.001496	0.001682	28.0827	0.003292	0.001999	1.646944	-86.9632	-165.31	-0.085508	0.561767	-0.543522	-0.544867	-0.032210	1.646944	-0.528854	-8.64282e+06	3.726809E-9	NaN
1201	1.000000	0.573131	7.37679e+06	-55539.1	1105.82	-29741.2	0.000000	0.000000	6.572965	-0.010665	NaN	0.000000	0.001505	0.001681	28.0827	0.132008	0.002010	65.684	22.918	15.3733	-0.036834	0.571760	-0.533504	-0.534874	-0.010665	65.684	-0.533382	-9.98934e+06	1.067676E-9	NaN
1201	1.000000	0.583159	7.37679e+06	-55539.1	1105.82	-29741.2	0.000000	0.000000	6.582996	0.033820	NaN	0.000000	0.001509	0.001678	28.0827	0.206272	0.001993	103.478	28.7191	-164.798	0.061596	0.581784	-0.523476	-0.524850	0.033820	103.478	-0.523721	-7.3338e+06	-4.611459E-9	NaN
1201	1.000000	0.593115	7.37679e+06	-55539.1	1105.82	-29741.2	0.000000	0.000000	6.592950	0.011448	NaN	0.000000	0.001562	0.001696	28.0827	0.037119	0.002025	18.3325	-9.674382	13.2323	-0.015263	0.591748	-0.513520	-0.514887	0.011448	18.3325	-0.513988	-5.36973e+06	-2.131934E-9	NaN
1201	1.000000	0.603111	7.37679e+06	-55539.1	1105.82	-29741.2	0.000000	0.000000	6.602945	-0.045916	NaN	0.000000	0.001557	0.001683	28.0827	0.051395	0.001902	27.0208	-128.838	-163.938	-0.036639	0.601834	-0.503523	-0.504801	-0.045916	27.0208	-0.502249	-3.68456e+06	1.246176E-8	NaN
1201	1.000000	0.613137	7.37679e+06	-55539.1	1105.82	-29741.2	0.000000	0.000000	6.612971	-0.034559	NaN	0.000000	0.001538	0.001713	28.0828	0.105955	0.001967	53.8769	106.986	15.2	-0.005013	0.611777	-0.493497	-0.494858	-0.034559	53.8769	-0.493016	-2.73861e+06	1.261927E-8	NaN
1201	1.000000	0.623159	7.37679e+06	-55539.1	1105.82	-29741.2	0.000000	0.000000	6.622997	0.058076	NaN	0.000000	0.001492	0.001725	28.0829	0.044123	0.002098	21.0281	44.242	-166.798	0.007413	0.621807	-0.483475	-0.484827	0.058076	21.0281	-0.485547	-2.15346e+06	-2.696893E-8	NaN
1201	1.000000	0.633159	7.37679e+06	-55539.1	1105.82	-29741.2	0.000000	0.000000	6.632992	-0.040952	NaN	0.000000	0.001537	0.001716	28.0824	0.104486	0.001982	52.7053	105.872	16.0486	-0.023506	0.631779	-0.473476	-0.474856	-0.040952	52.7053	-0.472893	-1.43209e+06	2.859600E-8	NaN
1201	1.000000	0.643131	7.37679e+06	-55539.1	1105.82	-29741.2	0.000000	0.000000	6.642967	0.017749	NaN	0.000000	0.001566	0.001681	28.0826	0.030341	0.001997	15.1956	-87.7176	-163.153	-0.009443	0.641851	-0.463503	-0.464784	0.017749	15.1956	-0.464379	-1.08776e+06	-1.631704E-8	NaN
1201	1.000000	0.653180	7.37679e+06	-55539.1	1105.82	-29741.2	0.000000	0.000000	6.653015	-0.000694	NaN	0.000000	0.001585	0.001681	28.0828	0.102149	0.002028	50.3621	-144.838	11.9584	0.047136	0.651834	-0.453455	-0.454800	-0.000694	50.3621	-0.453445	-763544	9.094434E-10	NaN
1201	1.000000	0.663171	7.37679e+06	-55539.1	1105.82	-29741.2	0.000000	0.000000	6.663007	0.020328	NaN	0.000000	0.001609	0.001679	28.0829	0.107115	0.002011	53.2758	105.417	-161.297	0.034002	0.661885	-0.443464	-0.444750	0.020328	53.2758	-0.443750	-557524	-3.646065E-8	NaN
1201	1.000000	0.673174	7.37679e+06	-55539.1	1105.82	-29741.2	0.000000	0.000000	6.673008	-0.025803	NaN	0.000000	0.001576	0.001669	28.0827	0.106599	0.002000	53.3049	-145.684	18.5069	0.055158	0.671767	-0.433461	-0.434867	-0.025803	53.3049	-0.433098	-394337	6.543451E-8	NaN
1201	1.000000	0.683175	7.37679e+06	-55539.1	1105.82	-29741.2	0.000000	0.000000	6.683010	-0.010152	NaN	0.000000	0.001569	0.001699	28.0826	0.098763	0.001981	49.846	32.3115	-165.643	0.026297	0.681886	-0.423459	-0.424749	-0.010152	49.846	-0.423307	-286610	3.541944E-8	NaN
1201	1.000000	0.693185	7.37679e+06	-55539.1	1105.82	-29741.2	0.000000	0.000000	6.693022	0.033882	NaN	0.000000	0.001619	0.001713	28.0827	0.007070	0.002015	3.508624	-25.3228	18.0949	-0.004867	0.691864	-0.413449	-0.414771	0.033882	3.508624	-0.420692	-263164	-1.287475E-7	NaN
1201	1.000000	0.703155	7.37679e+06	-55539.1	1105.82	-29741.2	0.000000	0.000000	6.702990	-0.023452	NaN	0.000000	0.001615	0.001666	28.0817	0.006655	0.001910	3.483717	138.4	-168.45	0.105489	0.701855	-0.403479	-0.404780	-0.023452	3.483717	-0.398430	-126941	1.847496E-7	NaN
1201	1.000000	0.713210	7.37679e+06	-55539.1	1105.82	-29741.2	0.000000	0.000000	6.713045	0.010903	NaN	0.000000	0.001598	0.001665	28.0816	0.078763	0.002030	38.7996	-150.965	14.0456	-0.040026	0.711815	-0.393425	-0.394820	0.010903	38.7996	-0.393636	-108429	-1.005566E-7	NaN
1201	1.000000	0.723200	7.37679e+06	-55539.1	1105.82	-29741.2	0.000000	0.000000	6.723037	0.034329	NaN	0.000000	0.001584	0.001647	28.0817	0.070280	0.002009	34.9854	-118.849	-165.702	0.021893	0.721879	-0.383435	-0.384756	0.034329	34.9854	-0.384171	-79378.2	-4.324733E-7	NaN
1201	1.000000	0.733201	7.37679e+06	-55539.1	1105.82	-29741.2	0.000000	0.000000	6.733036	-0.007977	NaN	0.000000	0.001567	0.001654	28.082	0.141667	0.001985	71.3558	110.002	13.143	-0.044680	0.731833	-0.373434	-0.374802	-0.007977	71.3558	-0.373350	-55506.5	1.437083E-7	NaN
1201	1.000000	0.743187	7.37679e+06	-55539.1	1105.82	-29741.2	0.000000	0.000000	6.743022	-0.011908	NaN	0.000000	0.001570	0.001745	28.0817	0.020132	0.002027	9.930389	-168.211	-166.797	-0.052322	0.741895	-0.363448	-0.364740	-0.011908	9.930389	-0.362548	-38785.2	3.070275E-7	NaN
1201	1.000000	0.753201	7.37679e+06	-55539.1	1105.82	-29741.2	0.000000	0.000000	6.753039	0.075547	NaN	0.000000	0.001595	0.001745	28.0817	0.089945	0.001854	48.5258	15.0145	15.6761	0.094003	0.751822	-0.353433	-0.354813	0.075547	48.5258	-0.354601	-29765.8	-2.538058E-6	NaN
1201	1.000000	0.763208	7.37679e+06	-55539.1	1105.82	-29741.2	0.000000	0.000000	6.763043	-0.002311	NaN	0.000000	0.001590	0.001728	28.0818	0.018579	0.002103	8.834068	-132.265	-167.379	0.011565	0.761893	-0.343427	-0.344742	-0.002311	8.834068	-0.343231	-20352.3	1.135475E-7	NaN
1201	1.000000	0.773177	7.37679e+06	-55539.1	1105.82	-29741.2	0.000000	0.000000	6.773011	-0.024856	NaN	0.000000	0.001583	0.001749	28.0816	0.087708	0.002059	42.5915	-125.859	15.0924	-0.003936	0.771885	-0.333458	-0.334749	-0.024856	42.5915	-0.333020	-14442.7	1.721011E-6	NaN
1201	1.000000	0.783193	7.37679e+06	-55539.1	1105.82	-29741.2	0.000000	0.000000	6.783031	0.068067	NaN	0.000000	0.001583	0.001828	28.0816	0.038195	0.002040	18.7264	57.3135	-166.218	0.089286	0.781965	-0.323442	-0.324670	0.068067	18.7264	-0.326168	-11462.5	-5.938253E-6	NaN
1201	1.000000	0.793209	7.37679e+06	-55539.1	1105.82	-29741.2	0.000000	0.000000	6.793045	0.038083	NaN	0.000000	0.001607	0.001737	28.0815	0.099773	0.001849	53.9582	-128.209	15.9683	0.012997	0.791865	-0.313426	-0.314769	0.038083	53.9582	-0.313955	-7577.49	-5.025820E-6	NaN
1201	1.000000	0.803229	7.37679e+06	-55539.1	1105.82	-29741.2	0.000000	0.000000	6.803063	-0.009658	NaN	0.000000	0.001604	0.001731	28.0817	0.014030	0.001999	7.018319	71.424	-164.914	0.045169	0.801983	-0.303406	-0.304652	-0.009658	7.018319	-0.302374	-5104.48	1.891980E-6	NaN
1201	1.000000	0.813203	7.37679e+06	-55539.1	1105.82	-29741.2	0.000000	0.000000	6.813039	0.031495	NaN	0.000000	0.001604	0.001756	28.0815	0.092463	0.002112	43.7785	112.919	14.3623	0.015715	0.811862	-0.293432	-0.294773	0.031495	43.7785	-0.293972	-3825.84	-8.232216E-6	NaN
1201	1.000000	0.823248	7.37679e+06	-55539.1	1105.82	-29741.2	0.000000	0.000000	6.823081	-0.036072	NaN	0.000000	0.001531	0.001749	28.0829	0.082024	0.002016	40.6809	-33.6935	-165.946	0.077564	0.821939	-0.283387	-0.284696	-0.036072	40.6809	-0.282722	-2594.15	1.390526E-5	NaN
1201	1.000000	0.833236	7.37679e+06	-55539.1	1105.82	-29741.2	0.000000	0.000000	6.833071	-0.003652	NaN	0.000000	0.001545	0.001734	28.083	0.046577	0.002163	21.5334	17.2103	16.6237	-0.043340	0.831914	-0.273398	-0.274720	-0.003652	21.5334	-0.273271	-1867.27	1.955757E-6	NaN
1201	1.000000	0.843257	7.37679e+06	-55539.1	1105.82	-29741.2	0.000000	0.000000	6.843091	-0.028367	NaN	0.000000	0.001536	0.001754	28.0829	0.039485	0.001934	20.4134	-18.821	-164.905	-0.007409	0.842005	-0.263377	-0.264630	-0.028367	20.4134	-0.262335	-1272.53	2.229201E-5	NaN
1201	1.000000	0.853271	7.37679e+06	-55539.1	1105.82	-29741.2	0.000000	0.000000	6.853108	0.032298	NaN	0.000000	0.001557	0.001794	28.0828	0.085986	0.002019	42.5892	-122.616	14.7565	0.058300	0.851934	-0.253363	-0.254700	0.032298	42.5892	-0.253932	-945.517	-3.415868E-5	NaN
1201	1.000000	0.863267	7.37679e+06	-55539.1	1105.82	-29741.2	0.000000	0.000000	6.863103	0.019000	NaN	0.000000	0.001540	0.001747	28.0827	0.140642	0.001937	72.5932	74.7634	-168.486	0.001945	0.861948	-0.243367	-0.244687	0.019000	72.5932	-0.243564	-653.304	-2.908228E-5	NaN
1201	1.000000	0.873218	7.37679e+06	-55539.1	1105.82	-29741.2	0.000000	0.000000	6.873056	0.072384	NaN	0.000000	0.001528	0.001749	28.0832	0.083172	0.002017	41.2284	-54.2614	12.4102	-0.015712	0.871885	-0.233417	-0.234750	0.072384	41.2284	-0.234734	-475.407	-0.000152	NaN
1201	1.000000	0.883239	7.37679e+06	-55539.1	1105.82	-29741.2	0.000000	0.000000	6.883072	-0.053486	NaN	0.000000	0.001515	0.001754	28.083	0.082145	0.002015	40.7736	-12.4401	-166.673	-0.123903	0.881956	-0.223395	-0.224679	-0.053486	40.7736	-0.222411	-303.497	0.000176	NaN
1201	1.000000	0.893241	7.37679e+06	-55539.1	1105.82	-29741.2	0.000000	0.000000	6.893077	0.030920	NaN	0.000000	0.001552	0.001725	28.0827	0.051573	0.001856	27.783	-49.8944	15.6207	0.082933	0.891937	-0.213394	-0.214698	0.030920	27.783	-0.214229	-224.441	-0.000138	NaN
1201	1.000000	0.903282	7.37679e+06	-55539.1	1105.82	-29741.2	0.000000	0.000000	6.903116	-0.018779	NaN	0.000000	0.001546	0.001734	28.0831	0.032369	0.001893	17.0988	-108.005	-162.807	0.009812	0.901990	-0.203353	-0.204645	-0.018779	17.0988	-0.202529	-144.938	0.000130	NaN
1201	1.000000	0.913267	7.37679e+06	-55539.1	1105.82	-29741.2	0.000000	0.000000	6.913101	-0.027082	NaN	0.000000	0.001544	0.001729	28.083	0.058562	0.002150	27.2381	-27.662	14.3251	-0.029978	0.911918	-0.193368	-0.194717	-0.027082	27.2381	-0.192622	-99.4789	0.000272	NaN
1201	1.000000	0.923277	7.37679e+06	-55539.1	1105.82	-29741.2	0.000000	0.000000	6.923112	0.001961	NaN	0.000000	0.001553	0.001745	28.0828	0.064760	0.001850	35.002	98.7634	-164.416	0.007385	0.921997	-0.183358	-0.184638	0.001961	35.002	-0.183400	-69.6817	-2.813774E-5	NaN
1201	1.000000	0.933296	7.37679e+06	-55539.1	1105.82	-29741.2	0.000000	0.000000	6.933132	0.019480	NaN	0.000000	0.001547	0.001709	28.0831	0.092177	0.002061	44.7314	138.956	13.8016	-0.008224	0.931918	-0.173338	-0.174717	0.019480	44.7314	-0.173665	-47.5342	-0.000410	NaN
1201	1.000000	0.943294	7.37679e+06	-55539.1	1105.82	-29741.2	0.000000	0.000000	6.943127	-0.042161	NaN	0.000000	0.001548	0.001724	28.0831	0.132765	0.002080	63.8299	109.135	-165.318	-0.040766	0.941976	-0.163341	-0.164659	-0.042161	63.8299	-0.162845	-30.7874	0.001369	NaN
1201	1.000000	0.953301	7.37679e+06	-55539.1	1105.82	-29741.2	0.000000	0.000000	6.953136	0.004374	NaN	0.000000	0.001529	0.001733	28.0831	0.097854	0.001992	49.1154	170.5	11.0925	-0.073185	0.951944	-0.153334	-0.154691	0.004374	49.1154	-0.153400	-20.8803	-0.000209	NaN
1201	1.000000	0.963300	7.37679e+06	-55539.1	1105.82	-29741.2	0.000000	0.000000	6.963132	-0.067101	NaN	0.000000	0.001579	0.001733	28.0818	0.024112	0.002056	11.7286	-21.5598	-166.083	-0.082025	0.961976	-0.143335	-0.144659	-0.067101	11.7286	-0.139044	-11.3498	0.005912	NaN
1201	1.000000	0.973278	7.37679e+06	-55539.1	1105.82	-29741.2	0.000000	0.000000	6.973112	-0.019387	NaN	0.000000	0.001543	0.001713	28.0819	0.039144	0.001963	19.9417	115.828	13.9324	-0.005454	0.971890	-0.133357	-0.134744	-0.019387	19.9417	-0.132628	-8.566772	0.002263	NaN
1201	1.000000	0.983322	7.37679e+06	-55539.1	1105.82	-29741.2	0.000000	0.000000	6.983155	-0.041102	NaN	0.000000	0.001500	0.001738	28.0823	0.036878	0.001979	18.6368	-109.245	-163.773	-0.049708	0.981977	-0.123313	-0.124658	-0.041102	18.6368	-0.121659	-5.217363	0.007878	NaN
1201	1.000000	0.993313	7.37679e+06	-55539.1	1105.82	-29741.2	0.000000	0.000000	6.993147	-0.029571	NaN	0.000000	0.001541	0.001751	28.082	0.083862	0.002011	41.7099	37.7708	15.7511	0.032403	0.991973	-0.113321	-0.114662	-0.029571	41.7099	-0.112790	-3.438078	0.008601	NaN
1201	1.000000	1.003311	7.37679e+06	-55539.1	1105.82	-29741.2	0.000000	0.000000	7.003148	0.037638	NaN	0.000000	0.001581	0.001749	28.0819	0.011174	0.001846	6.053381	-92.1628	-164.523	-0.028171	1.002026	-0.103324	-0.104608	0.037638	6.053381	-0.107987	-2.724124	-0.013817	NaN
1201	1.000000	1.013341	7.37679e+06	-55539.1	1105.82	-29741.2	0.000000	0.000000	7.013176	-0.014793	NaN	0.000000	0.001551	0.001652	28.0819	0.027266	0.002087	13.0618	13.9562	15.9434	0.028548	1.011956	-0.093293	-0.094679	-0.014793	13.0618	-0.092444	-1.232377	0.012004	NaN
1201	1.000000	1.023298	7.37679e+06	-55539.1	1105.82	-29741.2	0.000000	0.000000	7.023135	0.037944	NaN	0.000000	0.001570	0.001671	28.082	0.016978	0.001991	8.527441	-42.4544	-165.463	0.005896	1.022034	-0.083336	-0.084601	0.037944	8.527441	-0.086674	-0.901512	-0.042089	NaN
1201	1.000000	1.033315	7.37679e+06	-55539.1	1105.82	-29741.2	0.000000	0.000000	7.033151	0.023537	NaN	0.000000	0.001567	0.001650	28.0819	0.108981	0.002074	52.5396	169.809	14.408	-0.007550	1.031961	-0.073319	-0.074673	0.023537	52.5396	-0.073655	-0.426159	-0.055230	NaN
1201	1.000000	1.043317	7.37679e+06	-55539.1	1105.82	-29741.2	0.000000	0.000000	7.043155	0.062531	NaN	0.000000	0.001546	0.001669	28.0818	0.085585	0.001919	44.5933	-113.007	-163.949	-0.003454	1.042077	-0.063318	-0.064558	0.062531	44.5933	-0.064369	-0.239354	-0.261251	NaN
1201	1.000000	1.053353	7.37679e+06	-55539.1	1105.82	-29741.2	0.000000	0.000000	7.053187	-0.031343	NaN	0.000000	0.001553	0.001644	28.0821	0.056743	0.001993	28.4672	134.458	14.9792	-0.062293	1.051973	-0.053282	-0.054662	-0.031343	28.4672	-0.052456	-0.108181	0.289731	NaN
1201	1.000000	1.063330	7.37679e+06	-55539.1	1105.82	-29741.2	0.000000	0.000000	7.063162	-0.081613	NaN	0.000000	0.001595	0.001659	28.0818	0.122875	0.001983	61.959	143.304	-163.427	-0.073311	1.062000	-0.043305	-0.044635	-0.081613	61.959	-0.042317	-0.053204	1.533969	NaN
1201	1.000000	1.073354	7.37679e+06	-55539.1	1105.82	-29741.2	0.000000	0.000000	7.073190	0.026908	NaN	0.000000	0.001589	0.001668	28.0817	0.041112	0.001952	21.0598	-149.121	15.9318	0.053105	1.072000	-0.033281	-0.034635	0.026908	21.0598	-0.034239	-0.030420	-0.884559	NaN
1201	1.000000	1.083360	7.37679e+06	-55539.1	1105.82	-29741.2	0.000000	0.000000	7.083194	-0.018135	NaN	0.000000	0.001588	0.001685	28.0818	0.064352	0.001914	33.6289	92.3438	-165.022	-0.032593	1.082024	-0.023275	-0.024611	-0.018135	33.6289	-0.022871	-0.014863	1.220178	NaN
1201	1.000000	1.093339	7.37679e+06	-55539.1	1105.82	-29741.2	0.000000	0.000000	7.093174	0.013953	NaN	0.000000	0.001568	0.001631	28.0822	0.100400	0.002086	48.1289	9.036588	17.2618	0.052270	1.091939	-0.013296	-0.014695	0.013953	48.1289	-0.013514	-0.008400	-1.661107	NaN
1201	1.000000	1.103343	7.37679e+06	-55539.1	1105.82	-29741.2	0.000000	0.000000	7.103176	-0.053634	NaN	0.000000	0.001579	0.001643	28.0828	0.039240	0.001949	20.1352	177.848	-163.839	-0.007121	1.102060	-0.003291	-0.004575	-0.053634	20.1352	-0.001294	-0.000943	56.8671	NaN
1201	2.000000	1.113037	7.37679e+06	-55539.1	1105.82	-29741.2	0.000000	0.000000	7.113235	8.813082	NaN	0.000000	0.001598	0.001672	28.083	8.347016	0.001695	4925.69	8.835048	8.332288	7.263027	1.111938	0.006403	0.005303	8.813082	4925.69	0.005061	0.004189	2103.89	69532.5
1201	2.000000	1.115903	7.37679e+06	-55539.1	1105.82	-29741.2	0.000000	0.000000	7.116226	11.8468	NaN	0.000000	0.001564	0.001649	28.0831	11.8247	0.001629	7257.92	9.583851	-175.585	12.3401	1.115570	0.009269	0.008935	11.8468	7257.92	0.008044	0.007088	1671.37	78762.8
1201	2.000000	1.118387	7.37679e+06	-55539.1	1105.82	-29741.2	0.000000	0.000000	7.118834	14.8741	NaN	0.000000	0.001553	0.001671	28.083	13.7886	0.001684	8188	2.426187	10.823	13.9375	1.118038	0.011753	0.011403	14.8741	8188	0.010390	0.009618	1546.43	76278.2
1201	2.000000	1.120826	7.37679e+06	-55539.1	1105.82	-29741.2	0.000000	0.000000	7.121395	17.8407	NaN	0.000000	0.001593	0.001660	28.0828	16.2276	0.001698	9557.96	6.310557	-174.039	17.6327	1.120577	0.014191	0.013943	17.8407	9557.96	0.012791	0.012451	1432.83	78258.2
1201	2.000000	1.123319	7.37679e+06	-55539.1	1105.82	-29741.2	0.000000	0.000000	7.124096	22.9062	NaN	0.000000	0.001603	0.001654	28.0829	19.6143	0.001692	11594.2	4.106400	4.095369	21.5175	1.122944	0.016684	0.016310	22.9062	11594.2	0.015202	0.015556	1472.47	84929.7
1201	2.000000	1.125813	7.37679e+06	-55539.1	1105.82	-29741.2	0.000000	0.000000	7.126792	27.7966	NaN	0.000000	0.001597	0.001669	28.0832	22.9587	0.001763	13021.8	6.593927	-178.874	27.5332	1.125498	0.019179	0.018864	27.7966	13021.8	0.017578	0.018878	1472.45	86590.3
1201	2.000000	1.128295	7.37679e+06	-55539.1	1105.82	-29741.2	0.000000	0.000000	7.129535	34.1495	NaN	0.000000	0.001612	0.001716	28.083	24.2053	0.001828	13241.3	4.971741	4.198160	31.1801	1.127916	0.021660	0.021281	34.1495	13241.3	0.019726	0.022113	1544.29	81353.5
1201	2.000000	1.130842	7.37679e+06	-55539.1	1105.82	-29741.2	0.000000	0.000000	7.132273	38.7869	NaN	0.000000	0.001617	0.001670	28.0829	26.8729	0.001748	15372.7	5.465522	-179.198	38.7842	1.130472	0.024208	0.023837	38.7869	15372.7	0.022315	0.026312	1474.12	86585.8
1201	2.000000	1.133284	7.37679e+06	-55539.1	1105.82	-29741.2	0.000000	0.000000	7.134902	43.3553	NaN	0.000000	0.001585	0.001702	28.0832	29.6713	0.001841	16116	5.129711	2.376479	42.776	1.132888	0.026649	0.026253	43.3553	16116	0.024631	0.030348	1428.59	84520.6
1201	2.000000	1.135840	7.37679e+06	-55539.1	1105.82	-29741.2	0.000000	0.000000	7.137787	51.338	NaN	0.000000	0.001588	0.001716	28.083	32.2178	0.001884	17100.1	3.694153	-176.977	51.5434	1.135469	0.029205	0.028834	51.338	17100.1	0.026954	0.034666	1480.93	83911.2
1201	2.000000	1.138279	7.37679e+06	-55539.1	1105.82	-29741.2	0.000000	0.000000	7.140519	58.4518	NaN	0.000000	0.001652	0.001713	28.0834	34.2315	0.001766	19379.6	2.591366	2.956724	56.4528	1.137933	0.031644	0.031298	58.4518	19379.6	0.029382	0.039473	1480.8	89118.3
1201	2.000000	1.140733	7.37679e+06	-55539.1	1105.82	-29741.2	0.000000	0.000000	7.143381	68.3771	NaN	0.000000	0.001574	0.001695	28.083	36.6209	0.001693	21628.4	4.736316	179.334	66.1015	1.140463	0.034098	0.033828	68.3771	21628.4	0.031727	0.044399	1540.05	93779.9
1201	2.000000	1.143249	7.37679e+06	-55539.1	1105.82	-29741.2	0.000000	0.000000	7.146157	74.6907	NaN	0.000000	0.001582	0.001685	28.082	39.3251	0.001857	21177	5.909454	-1.728177	72.4481	1.142944	0.036614	0.036309	74.6907	21177	0.033969	0.049372	1512.8	87075.5
1201	2.000000	1.145804	7.37679e+06	-55539.1	1105.82	-29741.2	0.000000	0.000000	7.149190	86.3195	NaN	0.000000	0.001582	0.001716	28.0818	40.7323	0.001818	22409.6	2.982187	-178.518	86.4721	1.145431	0.039170	0.038797	86.3195	22409.6	0.036281	0.054770	1576.04	87485.5
1201	2.000000	1.148286	7.37679e+06	-55539.1	1105.82	-29741.2	0.000000	0.000000	7.152036	95.1566	NaN	0.000000	0.001569	0.001680	28.0818	42.8092	0.001755	24397.7	7.280438	-3.381360	93.8998	1.147858	0.041652	0.041224	95.1566	24397.7	0.038726	0.060778	1565.63	90416.5
1201	2.000000	1.150722	7.37679e+06	-55539.1	1105.82	-29741.2	0.000000	0.000000	7.154816	103.54	NaN	0.000000	0.001556	0.001635	28.0817	44.4621	0.001701	26144	0.784184	-178.693	99.3591	1.150412	0.044087	0.043778	103.54	26144	0.041117	0.066946	1546.61	92317.1
1201	2.000000	1.153304	7.37679e+06	-55539.1	1105.82	-29741.2	0.000000	0.000000	7.157667	110.067	NaN	0.000000	0.001602	0.001667	28.0828	50.2405	0.001854	27094.1	7.539017	-5.770534	110.325	1.153069	0.046669	0.046434	110.067	27094.1	0.043623	0.073725	1492.94	91167.7
1201	2.000000	1.155801	7.37679e+06	-55539.1	1105.82	-29741.2	0.000000	0.000000	7.160609	120.888	NaN	0.000000	0.001572	0.001689	28.0817	51.9146	0.001808	28719.7	4.226776	177.471	121.487	1.155459	0.049166	0.048824	120.888	28719.7	0.046009	0.080478	1502.13	92494.3
1201	2.000000	1.158266	7.37679e+06	-55539.1	1105.82	-29741.2	0.000000	0.000000	7.163772	137.84	NaN	0.000000	0.001580	0.001666	28.0825	53.3118	0.001792	29752.8	5.168936	-2.525578	136.515	1.157833	0.051632	0.051198	137.84	29752.8	0.048157	0.086801	1588	92265
1201	2.000000	1.160775	7.37679e+06	-55539.1	1105.82	-29741.2	0.000000	0.000000	7.166666	147.213	NaN	0.000000	0.001611	0.001683	28.0818	56.0232	0.001777	31534.9	4.579328	177.129	147.937	1.160431	0.054140	0.053796	147.213	31534.9	0.050639	0.094398	1559.5	93774.4
1201	2.000000	1.163205	7.37679e+06	-55539.1	1105.82	-29741.2	0.000000	0.000000	7.169674	161.254	NaN	0.000000	0.001643	0.001653	28.0823	58.1599	0.001830	31775	4.708019	-3.114732	157.061	1.162806	0.056571	0.056171	161.254	31775	0.052764	0.101149	1594.23	91280.6
1201	2.000000	1.165723	7.37679e+06	-55539.1	1105.82	-29741.2	0.000000	0.000000	7.172629	171.881	NaN	0.000000	0.001657	0.001677	28.0818	61.2065	0.001776	34460.9	3.709714	176.288	169.278	1.165435	0.059088	0.058800	171.881	34460.9	0.055348	0.109656	1567.45	95078.6
1201	2.000000	1.168246	7.37679e+06	-55539.1	1105.82	-29741.2	0.000000	0.000000	7.175700	185.213	NaN	0.000000	0.001596	0.001674	28.0823	62.5363	0.001742	35892.9	2.923671	-3.054096	182.622	1.167959	0.061611	0.061325	185.213	35892.9	0.057741	0.117833	1571.82	95531.9
1201	2.000000	1.170682	7.37679e+06	-55539.1	1105.82	-29741.2	0.000000	0.000000	7.178809	201.555	NaN	0.000000	0.001598	0.001648	28.0818	65.0596	0.001770	36760.9	8.756369	170.73	198.277	1.170438	0.064048	0.063803	201.555	36760.9	0.059936	0.125578	1605.02	94777.1
1201	2.000000	1.173206	7.37679e+06	-55539.1	1105.82	-29741.2	0.000000	0.000000	7.181775	212.307	NaN	0.000000	0.001568	0.001667	28.0823	67.6565	0.001833	36904.6	1.383616	-1.682438	208.941	1.172949	0.066572	0.066314	212.307	36904.6	0.062257	0.134026	1584.07	92099.9
1201	2.000000	1.175754	7.37679e+06	-55539.1	1105.82	-29741.2	0.000000	0.000000	7.185095	231.075	NaN	0.000000	0.001572	0.001673	28.0818	71.4982	0.001758	40659.4	8.720763	170.05	232.932	1.175466	0.069119	0.068831	231.075	40659.4	0.064857	0.143797	1606.95	97962.4
1201	2.000000	1.178235	7.37679e+06	-55539.1	1105.82	-29741.2	0.000000	0.000000	7.188193	246.08	NaN	0.000000	0.001611	0.001686	28.0833	73.0139	0.001802	40529	7.430323	-7.893841	242.754	1.177836	0.071600	0.071201	246.08	40529	0.067046	0.152280	1615.97	94889.3
1201	2.000000	1.180627	7.37679e+06	-55539.1	1105.82	-29741.2	0.000000	0.000000	7.191221	261.523	NaN	0.000000	0.001575	0.001697	28.0831	75.9061	0.001851	41016.1	5.591534	173.85	257.154	1.180257	0.073992	0.073623	261.523	41016.1	0.069210	0.160890	1625.48	93425.2
1201	2.000000	1.183229	7.37679e+06	-55539.1	1105.82	-29741.2	0.000000	0.000000	7.194439	276.509	NaN	0.000000	0.001606	0.001682	28.0831	78.7266	0.001829	43035.2	5.078546	-6.489430	275.062	1.182882	0.076594	0.076247	276.509	43035.2	0.071775	0.171385	1613.38	94975.3
1201	2.000000	1.185751	7.37679e+06	-55539.1	1105.82	-29741.2	0.000000	0.000000	7.197626	292.663	NaN	0.000000	0.001568	0.001698	28.083	80.9091	0.001860	43499.3	2.512500	176.521	292.481	1.185352	0.079117	0.078717	292.663	43499.3	0.074071	0.181040	1616.57	93404.7
1201	2.000000	1.188214	7.37679e+06	-55539.1	1105.82	-29741.2	0.000000	0.000000	7.200538	303.587	NaN	0.000000	0.001569	0.001689	28.0831	83.8905	0.001921	43675	7.563350	-9.137353	300.133	1.187964	0.081579	0.081330	303.587	43675	0.076366	0.190944	1589.93	91317.3
1201	2.000000	1.190753	7.37679e+06	-55539.1	1105.82	-29741.2	0.000000	0.000000	7.203587	315.97	NaN	0.000000	0.001567	0.001690	28.0832	84.0241	0.001746	48132.5	2.528456	175.005	316.448	1.190521	0.084118	0.083887	315.97	48132.5	0.079195	0.203490	1552.76	97485.4
1201	2.000000	1.193233	7.37679e+06	-55539.1	1105.82	-29741.2	0.000000	0.000000	7.206894	336.092	NaN	0.000000	0.001548	0.001663	28.0831	87.8293	0.001806	48625.3	1.973126	-3.777673	335.357	1.192761	0.086598	0.086126	336.092	48625.3	0.081414	0.213592	1573.52	96126.3
1201	2.000000	1.195664	7.37679e+06	-55539.1	1105.82	-29741.2	0.000000	0.000000	7.210043	353.528	NaN	0.000000	0.001576	0.001656	28.0828	90.6811	0.001777	51017.3	4.601328	173.169	349.646	1.195315	0.089030	0.088681	353.528	51017.3	0.083833	0.224864	1572.18	98294.7
1201	2.000000	1.198206	7.37679e+06	-55539.1	1105.82	-29741.2	0.000000	0.000000	7.213377	372.773	NaN	0.000000	0.001583	0.001656	28.0833	92.7919	0.001794	51736	5.734857	-8.629042	369.252	1.197884	0.091572	0.091249	372.773	51736	0.086168	0.236004	1579.52	97298.5
1201	2.000000	1.200630	7.37679e+06	-55539.1	1105.82	-29741.2	0.000000	0.000000	7.216573	391.557	NaN	0.000000	0.001528	0.001673	28.0832	94.4394	0.001840	51331.3	4.822224	172.19	384.364	1.200314	0.093996	0.093679	391.557	51331.3	0.088275	0.246270	1589.95	94504
1201	2.000000	1.203139	7.37679e+06	-55539.1	1105.82	-29741.2	0.000000	0.000000	7.219634	404.97	NaN	0.000000	0.001538	0.001654	28.083	96.606	0.001749	55232.7	2.642822	-5.911088	398.449	1.202904	0.096504	0.096269	404.97	55232.7	0.091005	0.259880	1558.3	98988.1
1201	2.000000	1.205535	7.37679e+06	-55539.1	1105.82	-29741.2	0.000000	0.000000	7.222629	419.542	NaN	0.000000	0.001552	0.001693	28.083	99.5201	0.001754	56735.8	1.216717	175.245	411.145	1.205415	0.098900	0.098781	419.542	56735.8	0.093354	0.271861	1543.22	99416.2
1201	2.000000	1.208232	7.37679e+06	-55539.1	1105.82	-29741.2	0.000000	0.000000	7.226196	440.69	NaN	0.000000	0.001570	0.001721	28.0834	102.226	0.001828	55913.3	5.635137	-9.212354	439.148	1.207936	0.101597	0.101301	440.69	55913.3	0.095686	0.284003	1551.71	95857.7
1201	2.000000	1.210533	7.37679e+06	-55539.1	1105.82	-29741.2	0.000000	0.000000	7.229044	453.984	NaN	0.000000	0.001549	0.001721	28.0827	103.108	0.001804	57146.1	1.051770	175.424	445.125	1.210283	0.103899	0.103648	453.984	57146.1	0.097940	0.295977	1533.85	95969
1201	2.000000	1.211641	7.37679e+06	-55539.1	1105.82	-29741.2	0.000000	0.000000	7.231263	480.975	NaN	0.000000	0.001557	0.001716	28.0822	105.507	0.001773	59515.8	4.354009	172.774	475.837	1.211185	0.105006	0.104550	480.975	59515.8	0.098945	0.301389	1595.86	99047