File: remote_trans/data/nanoindenter/0828-1/data/Data_2025-08-06,11h17m57s/2025-07-22_16-23-58_1_605.txt
2025-07-22, 16:23:58, 1
Index	Phase	Displacement	Time	Pos X	Pos Y	Pos Z	Rot A	Rot B	Piezo Z	Force A	Force B	Gripper	Voltage A	Voltage B	Temperature	Amplitude force	Amplitude pos	Stiffness	Phase shift	Phase excitation	Force A raw	Displacement raw	HMax	HMax raw	Real Force	Real Stiffness	Contact Depth	Area	Hardness	Reduced Mod.
[#]	[#]	[um]	[s]	[um]	[um]	[um]	[m°]	[m°]	[um]	[uN]	[uN]	[V]	[V]	[V]	[°C]	[uN]	[um]	[N/m]	[°]	[°]	[uN]	[um]	[um]	[um]	[uN]	[N/m]	[um]	[um^2]	[MPa]	[MPa]
605	1.000000	0.002901	7.37097e+06	-46839.1	1005.82	-29768	0.000000	0.000000	6.002825	0.006919	NaN	0.000000	0.001665	0.001805	28.0819	0.031139	0.000970	32.0989	-132.363	-170.661	-0.014403	0.001598	-1.055824	-1.057126	0.006919	32.0989	-1.055986	-1.284904E+14	-5.384761E-17	NaN
605	1.000000	0.010826	7.37097e+06	-46839.1	1005.82	-29768	0.000000	0.000000	6.010751	0.019024	NaN	0.000000	0.001618	0.001792	28.082	0.104892	0.000882	118.941	86.5561	-171.583	-0.012171	0.009523	-1.047899	-1.049201	0.019024	118.941	-1.048019	-1.004104E+14	-1.894669E-16	NaN
605	1.000000	0.018842	7.37097e+06	-46839.1	1005.82	-29768	0.000000	0.000000	6.018767	0.018062	NaN	0.000000	0.001602	0.001840	28.082	0.129676	0.001682	77.0857	55.6874	-159.574	-0.047126	0.017589	-1.039883	-1.041136	0.018062	77.0857	-1.040059	-7.847965E+13	-2.301458E-16	NaN
605	1.000000	0.026865	7.37097e+06	-46839.1	1005.82	-29768	0.000000	0.000000	6.026789	0.007788	NaN	0.000000	0.001568	0.001842	28.0814	0.042701	0.001761	24.2545	-117.277	-165.855	0.024937	0.025522	-1.031860	-1.033202	0.007788	24.2545	-1.032101	-6.133905E+13	-1.269592E-16	NaN
605	1.000000	0.034840	7.37097e+06	-46839.1	1005.82	-29768	0.000000	0.000000	6.034762	-0.052096	NaN	0.000000	0.001592	0.001812	28.0818	0.059159	0.001939	30.5159	-42.902	-165.207	-0.069929	0.033541	-1.023885	-1.025184	-0.052096	30.5159	-1.022605	-4.570855E+13	1.139743E-15	NaN
605	1.000000	0.042839	7.37097e+06	-46839.1	1005.82	-29768	0.000000	0.000000	6.042762	-0.025948	NaN	0.000000	0.001593	0.001886	28.0816	0.095471	0.001864	51.2269	-28.6587	-161.817	0.003591	0.041535	-1.015886	-1.017190	-0.025948	51.2269	-1.015506	-3.668433E+13	7.073221E-16	NaN
605	1.000000	0.050854	7.37097e+06	-46839.1	1005.82	-29768	0.000000	0.000000	6.050775	-0.073274	NaN	0.000000	0.001605	0.001855	28.0822	0.047140	0.002063	22.8506	-50.2488	-166.12	-0.022276	0.049513	-1.007871	-1.009211	-0.073274	22.8506	-1.005466	-2.687516E+13	2.726441E-15	NaN
605	1.000000	0.058816	7.37097e+06	-46839.1	1005.82	-29768	0.000000	0.000000	6.058739	-0.032827	NaN	0.000000	0.001601	0.001817	28.0822	0.075704	0.001950	38.8264	-126.51	-165.096	-0.011310	0.057509	-0.999908	-1.001215	-0.032827	38.8264	-0.999274	-2.218193E+13	1.479899E-15	NaN
605	1.000000	0.066837	7.37097e+06	-46839.1	1005.82	-29768	0.000000	0.000000	6.066760	-0.052059	NaN	0.000000	0.001588	0.001849	28.0822	0.030082	0.001994	15.0851	126.213	-167.039	-0.023254	0.065490	-0.991887	-0.993234	-0.052059	15.0851	-0.989299	-1.628066E+13	3.197627E-15	NaN
605	1.000000	0.074826	7.37097e+06	-46839.1	1005.82	-29768	0.000000	0.000000	6.074752	0.020323	NaN	0.000000	0.001609	0.001858	28.0819	0.080223	0.002075	38.6702	105.471	-163.708	0.056596	0.073484	-0.983898	-0.985241	0.020323	38.6702	-0.984292	-1.393916E+13	-1.457994E-15	NaN
605	1.000000	0.082862	7.37097e+06	-46839.1	1005.82	-29768	0.000000	0.000000	6.082784	-0.035605	NaN	0.000000	0.001598	0.001826	28.0809	0.161404	0.002074	77.8321	119.853	-162.594	-0.077276	0.081481	-0.975863	-0.977243	-0.035605	77.8321	-0.975520	-1.061818E+13	3.353257E-15	NaN
605	1.000000	0.090837	7.37097e+06	-46839.1	1005.82	-29768	0.000000	0.000000	6.090763	0.030489	NaN	0.000000	0.001618	0.001805	28.081	0.037048	0.002034	18.2178	-9.928750	-163.117	0.037683	0.089550	-0.967887	-0.969175	0.030489	18.2178	-0.969143	-8.711811E+12	-3.499717E-15	NaN
605	1.000000	0.098861	7.37097e+06	-46839.1	1005.82	-29768	0.000000	0.000000	6.098786	0.025141	NaN	0.000000	0.001621	0.001835	28.0807	0.104881	0.001981	52.9501	-162.103	-167.776	0.018219	0.097576	-0.959864	-0.961149	0.025141	52.9501	-0.960220	-6.604376E+12	-3.806750E-15	NaN
605	1.000000	0.106840	7.37097e+06	-46839.1	1005.82	-29768	0.000000	0.000000	6.106764	0.000345	NaN	0.000000	0.001623	0.001833	28.081	0.112193	0.002033	55.1796	-93.0277	-168.284	0.052985	0.105575	-0.951885	-0.953149	0.000345	55.1796	-0.951890	-5.099336E+12	-6.771755E-17	NaN
605	1.000000	0.114840	7.37097e+06	-46839.1	1005.82	-29768	0.000000	0.000000	6.114764	0.003661	NaN	0.000000	0.001609	0.001845	28.0807	0.063995	0.001969	32.5057	-26.3871	-165.153	-0.005312	0.113540	-0.943885	-0.945185	0.003661	32.5057	-0.943969	-3.987373E+12	-9.182603E-16	NaN
605	1.000000	0.122842	7.37097e+06	-46839.1	1005.82	-29768	0.000000	0.000000	6.122770	0.075318	NaN	0.000000	0.001620	0.001834	28.0809	0.081392	0.001967	41.3698	25.5491	-165.174	0.016061	0.121538	-0.935882	-0.937186	0.075318	41.3698	-0.937248	-3.235954E+12	-2.327534E-14	NaN
605	1.000000	0.130855	7.37097e+06	-46839.1	1005.82	-29768	0.000000	0.000000	6.130780	0.008209	NaN	0.000000	0.001598	0.001816	28.0807	0.061880	0.001849	33.4687	53.3365	-168.25	0.007248	0.129586	-0.927869	-0.929138	0.008209	33.4687	-0.928053	-2.431768E+12	-3.375559E-15	NaN
605	1.000000	0.138856	7.37097e+06	-46839.1	1005.82	-29768	0.000000	0.000000	6.138786	0.131779	NaN	0.000000	0.001599	0.001784	28.0807	0.176501	0.001939	91.0332	41.3014	-166.448	0.046588	0.137567	-0.919869	-0.921157	0.131779	91.0332	-0.920954	-1.950252E+12	-6.757022E-14	NaN
605	1.000000	0.146843	7.37097e+06	-46839.1	1005.82	-29768	0.000000	0.000000	6.146769	0.035944	NaN	0.000000	0.001613	0.001823	28.0807	0.018205	0.001906	9.553381	29.2988	-165.415	0.041206	0.145592	-0.911882	-0.913133	0.035944	9.553381	-0.914704	-1.605799E+12	-2.238391E-14	NaN
605	1.000000	0.154872	7.37097e+06	-46839.1	1005.82	-29768	0.000000	0.000000	6.154800	0.091653	NaN	0.000000	0.001574	0.001805	28.0807	0.036478	0.001945	18.7561	-36.7407	-163.168	0.075363	0.153547	-0.903853	-0.905178	0.091653	18.7561	-0.907518	-1.284206E+12	-7.136961E-14	NaN
605	1.000000	0.162872	7.37097e+06	-46839.1	1005.82	-29768	0.000000	0.000000	6.162797	0.021211	NaN	0.000000	0.001593	0.001827	28.0807	0.100795	0.001931	52.1939	179.288	-164.971	0.050592	0.161588	-0.895852	-0.897137	0.021211	52.1939	-0.896157	-9.018573E+11	-2.351952E-14	NaN
605	1.000000	0.170842	7.37097e+06	-46839.1	1005.82	-29768	0.000000	0.000000	6.170768	0.038080	NaN	0.000000	0.001551	0.001828	28.0805	0.048103	0.002080	23.123	-21.3489	-165.498	-0.026761	0.169564	-0.887882	-0.889160	0.038080	23.123	-0.889117	-7.244106E+11	-5.256622E-14	NaN
605	1.000000	0.178871	7.37097e+06	-46839.1	1005.82	-29768	0.000000	0.000000	6.178799	0.096622	NaN	0.000000	0.001601	0.001814	28.0806	0.011811	0.002039	5.791760	-138.431	-163.268	0.078500	0.177560	-0.879854	-0.881164	0.096622	5.791760	-0.892366	-8.014810E+11	-1.205546E-13	NaN
605	1.000000	0.186868	7.37097e+06	-46839.1	1005.82	-29768	0.000000	0.000000	6.186795	0.058335	NaN	0.000000	0.001518	0.001859	28.081	0.037765	0.002061	18.3214	-60.487	-163.727	0.087179	0.185590	-0.871856	-0.873135	0.058335	18.3214	-0.874244	-4.558934E+11	-1.279565E-13	NaN
605	1.000000	0.194856	7.37097e+06	-46839.1	1005.82	-29768	0.000000	0.000000	6.194781	0.009360	NaN	0.000000	0.001488	0.001843	28.0809	0.034026	0.002052	16.5809	-107.639	-169.137	-0.002840	0.193584	-0.863869	-0.865141	0.009360	16.5809	-0.864292	-3.343572E+11	-2.799376E-14	NaN
605	1.000000	0.202895	7.37097e+06	-46839.1	1005.82	-29768	0.000000	0.000000	6.202819	-0.019643	NaN	0.000000	0.001478	0.001840	28.0809	0.108182	0.001976	54.7517	-164.585	-167.621	-0.024840	0.201567	-0.855829	-0.857158	-0.019643	54.7517	-0.855560	-2.546965E+11	7.712336E-14	NaN
605	1.000000	0.210875	7.37097e+06	-46839.1	1005.82	-29768	0.000000	0.000000	6.210799	-0.003335	NaN	0.000000	0.001476	0.001805	28.0808	0.114932	0.002046	56.1759	157.976	-164.195	-0.063975	0.209581	-0.847850	-0.849143	-0.003335	56.1759	-0.847805	-1.999948E+11	1.667695E-14	NaN
605	1.000000	0.218895	7.37097e+06	-46839.1	1005.82	-29768	0.000000	0.000000	6.218820	0.016565	NaN	0.000000	0.001468	0.001807	28.0818	0.031370	0.001972	15.9065	97.6352	-166.996	0.066719	0.217623	-0.839830	-0.841102	0.016565	15.9065	-0.840611	-1.597975E+11	-1.036653E-13	NaN
605	1.000000	0.226937	7.37097e+06	-46839.1	1005.82	-29768	0.000000	0.000000	6.226862	0.012113	NaN	0.000000	0.001485	0.001834	28.0821	0.146511	0.002162	67.7732	-172.146	-163.977	0.016381	0.225532	-0.831788	-0.833193	0.012113	67.7732	-0.831922	-1.218512E+11	-9.941131E-14	NaN
605	1.000000	0.234887	7.37097e+06	-46839.1	1005.82	-29768	0.000000	0.000000	6.234808	-0.077564	NaN	0.000000	0.001494	0.001801	28.0819	0.105087	0.002141	49.0722	177.069	-161.787	-0.067425	0.233610	-0.823838	-0.825115	-0.077564	49.0722	-0.822652	-9.123798E+10	8.501294E-13	NaN
605	1.000000	0.242906	7.37097e+06	-46839.1	1005.82	-29768	0.000000	0.000000	6.242831	0.023159	NaN	0.000000	0.001526	0.001827	28.082	0.004115	0.001958	2.101104	-119.845	-165.404	-0.013707	0.241617	-0.815819	-0.817107	0.023159	2.101104	-0.824086	-9.541320E+10	-2.427227E-13	NaN
605	1.000000	0.250930	7.37097e+06	-46839.1	1005.82	-29768	0.000000	0.000000	6.250855	0.010285	NaN	0.000000	0.001510	0.001815	28.0818	0.069128	0.002021	34.2076	-99.2664	-162.983	-0.057600	0.249583	-0.807794	-0.809142	0.010285	34.2076	-0.808020	-5.777042E+10	-1.780247E-13	NaN
605	1.000000	0.258905	7.37097e+06	-46839.1	1005.82	-29768	0.000000	0.000000	6.258830	0.016660	NaN	0.000000	0.001495	0.001841	28.0819	0.028097	0.001876	14.9738	-5.621920	-164.389	-0.013221	0.257623	-0.799819	-0.801102	0.016660	14.9738	-0.800654	-4.589190E+10	-3.630197E-13	NaN
605	1.000000	0.266944	7.37097e+06	-46839.1	1005.82	-29768	0.000000	0.000000	6.266866	-0.040192	NaN	0.000000	0.001490	0.001825	28.082	0.006461	0.002085	3.098563	-131.996	-164.479	-0.014677	0.265575	-0.791781	-0.793150	-0.040192	3.098563	-0.782053	-2.565219E+10	1.566788E-12	NaN
605	1.000000	0.274918	7.37097e+06	-46839.1	1005.82	-29768	0.000000	0.000000	6.274842	-0.010623	NaN	0.000000	0.001492	0.001819	28.082	0.070035	0.002035	34.4181	-137.247	-169.9	-0.031959	0.273564	-0.783807	-0.785160	-0.010623	34.4181	-0.783575	-2.690367E+10	3.948459E-13	NaN
605	1.000000	0.282920	7.37097e+06	-46839.1	1005.82	-29768	0.000000	0.000000	6.282846	0.037381	NaN	0.000000	0.001520	0.001839	28.0821	0.196483	0.002159	91.0093	94.1441	-165.199	0.014088	0.281615	-0.775804	-0.777110	0.037381	91.0093	-0.776112	-2.130090E+10	-1.754881E-12	NaN
605	1.000000	0.290934	7.37097e+06	-46839.1	1005.82	-29768	0.000000	0.000000	6.290860	0.055837	NaN	0.000000	0.001540	0.001841	28.0819	0.062998	0.002064	30.5173	-166.482	-162.615	0.027046	0.289640	-0.767791	-0.769085	0.055837	30.5173	-0.769163	-1.713673E+10	-3.258340E-12	NaN
605	1.000000	0.298924	7.37097e+06	-46839.1	1005.82	-29768	0.000000	0.000000	6.298849	-0.000132	NaN	0.000000	0.001530	0.001832	28.0822	0.100511	0.002036	49.3773	-29.2933	-164.494	-0.049888	0.297646	-0.759800	-0.761079	-0.000132	49.3773	-0.759798	-1.278081E+10	1.031217E-14	NaN
605	1.000000	0.306925	7.37097e+06	-46839.1	1005.82	-29768	0.000000	0.000000	6.306851	0.043546	NaN	0.000000	0.001518	0.001787	28.0819	0.053733	0.001984	27.0798	92.0413	-165.632	-0.003007	0.305620	-0.751800	-0.753105	0.043546	27.0798	-0.753006	-1.033077E+10	-4.215139E-12	NaN
605	1.000000	0.314948	7.37097e+06	-46839.1	1005.82	-29768	0.000000	0.000000	6.314873	0.005842	NaN	0.000000	0.001493	0.001793	28.0818	0.084505	0.001824	46.3367	94.6437	-169.63	-0.014092	0.313615	-0.743777	-0.745110	0.005842	46.3367	-0.743871	-7.758520E+9	-7.529304E-13	NaN
605	1.000000	0.322946	7.37097e+06	-46839.1	1005.82	-29768	0.000000	0.000000	6.322873	0.068505	NaN	0.000000	0.001489	0.001784	28.0821	0.015322	0.002064	7.424635	-140.069	-163.94	0.069268	0.321599	-0.735779	-0.737126	0.068505	7.424635	-0.742699	-7.478484E+9	-9.160240E-12	NaN
605	1.000000	0.330959	7.37097e+06	-46839.1	1005.82	-29768	0.000000	0.000000	6.330883	-0.014390	NaN	0.000000	0.001478	0.001825	28.0822	0.080172	0.001997	40.1486	130.292	-165.799	0.014342	0.329689	-0.727765	-0.729036	-0.014390	40.1486	-0.727497	-4.641798E+9	3.100075E-12	NaN
605	1.000000	0.338930	7.37097e+06	-46839.1	1005.82	-29768	0.000000	0.000000	6.338856	0.030670	NaN	0.000000	0.001506	0.001837	28.0821	0.031404	0.001937	16.2147	58.4011	-165.412	0.033368	0.337664	-0.719794	-0.721061	0.030670	16.2147	-0.721213	-3.810771E+9	-8.048224E-12	NaN
605	1.000000	0.346945	7.37097e+06	-46839.1	1005.82	-29768	0.000000	0.000000	6.346867	-0.052769	NaN	0.000000	0.001513	0.001812	28.0818	0.145697	0.002153	67.6806	-6.943426	-169.778	0.023316	0.345632	-0.711779	-0.713092	-0.052769	67.6806	-0.711195	-2.781967E+9	1.896820E-11	NaN
605	1.000000	0.354948	7.37097e+06	-46839.1	1005.82	-29768	0.000000	0.000000	6.354872	-0.028164	NaN	0.000000	0.001503	0.001813	28.081	0.028168	0.002062	13.66	178.171	-169.538	0.037301	0.353674	-0.703776	-0.705051	-0.028164	13.66	-0.702230	-2.098853E+9	1.341891E-11	NaN
605	1.000000	0.362969	7.37097e+06	-46839.1	1005.82	-29768	0.000000	0.000000	6.362894	0.014008	NaN	0.000000	0.001514	0.001825	28.0806	0.080393	0.002031	39.5871	151.337	-166.207	0.103997	0.361668	-0.695756	-0.697056	0.014008	39.5871	-0.696021	-1.726586E+9	-8.112971E-12	NaN
605	1.000000	0.370976	7.37097e+06	-46839.1	1005.82	-29768	0.000000	0.000000	6.370902	0.024906	NaN	0.000000	0.001535	0.001801	28.0805	0.075848	0.002017	37.6006	66.2409	-167.751	-0.006859	0.369662	-0.687748	-0.689063	0.024906	37.6006	-0.688245	-1.351865E+9	-1.842323E-11	NaN
605	1.000000	0.378945	7.37097e+06	-46839.1	1005.82	-29768	0.000000	0.000000	6.378870	0.009202	NaN	0.000000	0.001507	0.001852	28.0808	0.067270	0.001842	36.5216	-151.295	-160.672	0.000236	0.377684	-0.679780	-0.681041	0.009202	36.5216	-0.679969	-1.041779E+9	-8.833199E-12	NaN
605	1.000000	0.386951	7.37097e+06	-46839.1	1005.82	-29768	0.000000	0.000000	6.386876	0.018863	NaN	0.000000	0.001512	0.001853	28.0805	0.084978	0.001995	42.5952	-78.6542	-161.935	0.067634	0.385715	-0.671774	-0.673009	0.018863	42.5952	-0.672106	-8.132261E+8	-2.319558E-11	NaN
605	1.000000	0.394976	7.37097e+06	-46839.1	1005.82	-29768	0.000000	0.000000	6.394901	0.015475	NaN	0.000000	0.001511	0.001845	28.0811	0.040190	0.002063	19.4814	25.7282	-164.048	0.030606	0.393659	-0.663749	-0.665065	0.015475	19.4814	-0.664345	-6.367527E+8	-2.430264E-11	NaN
605	1.000000	0.402984	7.37097e+06	-46839.1	1005.82	-29768	0.000000	0.000000	6.402907	-0.016352	NaN	0.000000	0.001487	0.001799	28.0806	0.030876	0.002032	15.192	35.6967	-164.003	-0.009545	0.401673	-0.655741	-0.657052	-0.016352	15.192	-0.654934	-4.732146E+8	3.455547E-11	NaN
605	1.000000	0.410961	7.37097e+06	-46839.1	1005.82	-29768	0.000000	0.000000	6.410888	0.051641	NaN	0.000000	0.001532	0.001793	28.0806	0.042302	0.002044	20.7007	-84.1379	-162.483	0.013329	0.409676	-0.647764	-0.649049	0.051641	20.7007	-0.649635	-4.003376E+8	-1.289933E-10	NaN
605	1.000000	0.418973	7.37097e+06	-46839.1	1005.82	-29768	0.000000	0.000000	6.418895	-0.059574	NaN	0.000000	0.001522	0.001835	28.0807	0.126113	0.001937	65.1211	-20.3366	-161.304	-0.127241	0.417627	-0.639752	-0.641098	-0.059574	65.1211	-0.639065	-2.867259E+8	2.077730E-10	NaN
605	1.000000	0.426976	7.37097e+06	-46839.1	1005.82	-29768	0.000000	0.000000	6.426902	0.021665	NaN	0.000000	0.001519	0.001827	28.0807	0.042959	0.002108	20.3787	-90.3014	-166.925	-0.073466	0.425687	-0.631748	-0.633038	0.021665	20.3787	-0.632546	-2.333343E+8	-9.284776E-11	NaN
605	1.000000	0.434999	7.37097e+06	-46839.1	1005.82	-29768	0.000000	0.000000	6.434922	-0.037023	NaN	0.000000	0.001537	0.001803	28.0808	0.100819	0.001979	50.9323	79.3617	-167.936	-0.015708	0.433657	-0.623726	-0.625068	-0.037023	50.9323	-0.623180	-1.735169E+8	2.133694E-10	NaN
605	1.000000	0.443015	7.37097e+06	-46839.1	1005.82	-29768	0.000000	0.000000	6.442938	-0.017921	NaN	0.000000	0.001536	0.001792	28.0805	0.070701	0.002023	34.9431	-161.286	-162.338	-0.035244	0.441736	-0.615710	-0.616988	-0.017921	34.9431	-0.615325	-1.353203E+8	1.324346E-10	NaN
605	1.000000	0.451007	7.37097e+06	-46839.1	1005.82	-29768	0.000000	0.000000	6.450930	-0.020097	NaN	0.000000	0.001524	0.001845	28.0804	0.057392	0.002097	27.3653	43.0228	-164.267	0.005092	0.449659	-0.607718	-0.609065	-0.020097	27.3653	-0.607167	-1.045042E+8	1.923119E-10	NaN
605	1.000000	0.458962	7.37097e+06	-46839.1	1005.82	-29768	0.000000	0.000000	6.458887	0.018049	NaN	0.000000	0.001552	0.001815	28.0805	0.020235	0.001932	10.4748	-55.1295	-166.289	-0.004112	0.457693	-0.599762	-0.601031	0.018049	10.4748	-0.601055	-8.609629E+7	-2.096398E-10	NaN
605	1.000000	0.466985	7.37097e+06	-46839.1	1005.82	-29768	0.000000	0.000000	6.466908	-0.044562	NaN	0.000000	0.001529	0.001822	28.0805	0.041377	0.002000	20.6858	51.7845	-165.635	-0.024492	0.465689	-0.591740	-0.593035	-0.044562	20.6858	-0.590124	-6.086610E+7	7.321306E-10	NaN
605	1.000000	0.474996	7.37097e+06	-46839.1	1005.82	-29768	0.000000	0.000000	6.474920	-0.018472	NaN	0.000000	0.001518	0.001798	28.0805	0.085086	0.002031	41.8903	122.242	-167.601	-0.035742	0.473670	-0.583728	-0.585055	-0.018472	41.8903	-0.583398	-4.915996E+7	3.757506E-10	NaN
605	1.000000	0.483022	7.37097e+06	-46839.1	1005.82	-29768	0.000000	0.000000	6.482947	0.018034	NaN	0.000000	0.001516	0.001816	28.0804	0.090588	0.001919	47.1975	31.0432	-164.179	0.029956	0.481626	-0.575703	-0.577099	0.018034	47.1975	-0.575989	-3.884690E+7	-4.642408E-10	NaN
605	1.000000	0.491001	7.37097e+06	-46839.1	1005.82	-29768	0.000000	0.000000	6.490923	-0.058426	NaN	0.000000	0.001509	0.001827	28.0815	0.086397	0.001777	48.6311	9.616554	-165.267	-0.096178	0.489654	-0.567723	-0.569071	-0.058426	48.6311	-0.566822	-2.902137E+7	2.013210E-9	NaN
605	1.000000	0.499008	7.37097e+06	-46839.1	1005.82	-29768	0.000000	0.000000	6.498934	0.044757	NaN	0.000000	0.001489	0.001863	28.0819	0.062360	0.002012	30.9983	-82.7993	-165.344	0.016154	0.497728	-0.559717	-0.560997	0.044757	30.9983	-0.560800	-2.395759E+7	-1.868169E-9	NaN
605	1.000000	0.507041	7.37097e+06	-46839.1	1005.82	-29768	0.000000	0.000000	6.506964	-0.020982	NaN	0.000000	0.001543	0.001868	28.0816	0.082941	0.001968	42.1432	145.983	-168.211	-0.023471	0.505687	-0.551684	-0.553038	-0.020982	42.1432	-0.551311	-1.770552E+7	1.185081E-9	NaN
605	1.000000	0.515011	7.37097e+06	-46839.1	1005.82	-29768	0.000000	0.000000	6.514934	-0.030003	NaN	0.000000	0.001536	0.001844	28.0817	0.079724	0.001995	39.9562	39.8903	-163.729	0.037126	0.513677	-0.543713	-0.545048	-0.030003	39.9562	-0.543150	-1.364703E+7	2.198476E-9	NaN
605	1.000000	0.523021	7.37097e+06	-46839.1	1005.82	-29768	0.000000	0.000000	6.522946	0.022939	NaN	0.000000	0.001507	0.001854	28.0816	0.037891	0.002090	18.1254	-124.904	-167.019	0.093987	0.521760	-0.535704	-0.536964	0.022939	18.1254	-0.536653	-1.109002E+7	-2.068453E-9	NaN
605	1.000000	0.531032	7.37097e+06	-46839.1	1005.82	-29768	0.000000	0.000000	6.530957	0.012608	NaN	0.000000	0.001512	0.001837	28.0818	0.145096	0.001980	73.2926	-167.361	-169.568	-0.040198	0.529706	-0.527693	-0.529018	0.012608	73.2926	-0.527822	-8.36222e+06	-1.507688E-9	NaN
605	1.000000	0.539023	7.37097e+06	-46839.1	1005.82	-29768	0.000000	0.000000	6.538944	-0.095278	NaN	0.000000	0.001459	0.001863	28.0818	0.060149	0.001894	31.7591	163.704	-164.61	-0.028075	0.537731	-0.519701	-0.520994	-0.095278	31.7591	-0.517451	-5.9999e+06	1.587986E-8	NaN
605	1.000000	0.547060	7.37097e+06	-46839.1	1005.82	-29768	0.000000	0.000000	6.546985	0.020915	NaN	0.000000	0.001502	0.001834	28.0818	0.009520	0.001952	4.875700	-127.981	-164.861	-0.071384	0.545794	-0.511665	-0.512931	0.020915	4.875700	-0.514882	-5.52576e+06	-3.785078E-9	NaN
605	1.000000	0.555045	7.37097e+06	-46839.1	1005.82	-29768	0.000000	0.000000	6.554970	0.005906	NaN	0.000000	0.001480	0.001819	28.0816	0.069078	0.002106	32.7987	-157.049	-166.099	0.052398	0.553771	-0.503680	-0.504953	0.005906	32.7987	-0.503815	-3.87454e+06	-1.524436E-9	NaN
605	1.000000	0.563022	7.37097e+06	-46839.1	1005.82	-29768	0.000000	0.000000	6.562945	-0.024239	NaN	0.000000	0.001472	0.001831	28.0818	0.073231	0.001884	38.8697	-163.392	-161.629	0.050651	0.561689	-0.495703	-0.497036	-0.024239	38.8697	-0.495235	-2.94113e+06	8.241336E-9	NaN
605	1.000000	0.571036	7.37097e+06	-46839.1	1005.82	-29768	0.000000	0.000000	6.570960	0.005459	NaN	0.000000	0.001482	0.001816	28.0817	0.106396	0.001972	53.9496	-93.7278	-164.601	-0.014523	0.569750	-0.487689	-0.488975	0.005459	53.9496	-0.487765	-2.31288e+06	-2.360083E-9	NaN
605	1.000000	0.579059	7.37097e+06	-46839.1	1005.82	-29768	0.000000	0.000000	6.578985	0.047412	NaN	0.000000	0.001461	0.001808	28.0818	0.116386	0.002107	55.2423	129.994	-164.164	0.069033	0.577680	-0.479666	-0.481044	0.047412	55.2423	-0.480310	-1.81914e+06	-2.606315E-8	NaN
605	1.000000	0.587056	7.37097e+06	-46839.1	1005.82	-29768	0.000000	0.000000	6.586981	0.025704	NaN	0.000000	0.001460	0.001823	28.0818	0.057020	0.001873	30.4477	6.530533	-167.679	0.055741	0.585757	-0.471669	-0.472968	0.025704	30.4477	-0.472302	-1.40503e+06	-1.829436E-8	NaN
605	1.000000	0.595063	7.37097e+06	-46839.1	1005.82	-29768	0.000000	0.000000	6.594986	-0.040445	NaN	0.000000	0.001469	0.001815	28.0816	0.143037	0.001958	73.0443	-110.11	-162.91	-0.015906	0.593695	-0.463662	-0.465030	-0.040445	73.0443	-0.463246	-1.04863e+06	3.856938E-8	NaN
605	1.000000	0.603066	7.37097e+06	-46839.1	1005.82	-29768	0.000000	0.000000	6.602991	0.022821	NaN	0.000000	0.001473	0.001806	28.0819	0.159898	0.002052	77.9352	117.319	-164.591	-0.006086	0.601791	-0.455659	-0.456934	0.022821	77.9352	-0.455879	-826181	-2.762229E-8	NaN
605	1.000000	0.611063	7.37097e+06	-46839.1	1005.82	-29768	0.000000	0.000000	6.610986	-0.026443	NaN	0.000000	0.001467	0.001840	28.0816	0.082872	0.002069	40.0511	-86.6542	-165.192	-0.003459	0.609722	-0.447662	-0.449003	-0.026443	40.0511	-0.447167	-622915	4.245058E-8	NaN
605	1.000000	0.619082	7.37097e+06	-46839.1	1005.82	-29768	0.000000	0.000000	6.619005	-0.021162	NaN	0.000000	0.001491	0.001786	28.0817	0.022397	0.001823	12.2852	55.4152	-163.608	0.010336	0.617772	-0.439643	-0.440953	-0.021162	12.2852	-0.438351	-467828	4.523438E-8	NaN
605	1.000000	0.627088	7.37097e+06	-46839.1	1005.82	-29768	0.000000	0.000000	6.627012	-0.023702	NaN	0.000000	0.001494	0.001795	28.0811	0.039814	0.002015	19.7609	88.0318	-167.135	-0.030934	0.625816	-0.431636	-0.432909	-0.023702	19.7609	-0.430737	-365162	6.490684E-8	NaN
605	1.000000	0.635074	7.37097e+06	-46839.1	1005.82	-29768	0.000000	0.000000	6.634998	-0.007468	NaN	0.000000	0.001485	0.001800	28.0803	0.079751	0.002151	37.0712	158.757	-166.718	-0.043695	0.633746	-0.423651	-0.424978	-0.007468	37.0712	-0.423500	-288423	2.589206E-8	NaN
605	1.000000	0.643084	7.37097e+06	-46839.1	1005.82	-29768	0.000000	0.000000	6.643007	-0.019108	NaN	0.000000	0.001491	0.001818	28.0809	0.066149	0.002053	32.2199	165.714	-162.797	-0.025029	0.641748	-0.415641	-0.416977	-0.019108	32.2199	-0.415196	-219908	8.689226E-8	NaN
605	1.000000	0.651084	7.37097e+06	-46839.1	1005.82	-29768	0.000000	0.000000	6.651007	-0.038277	NaN	0.000000	0.001486	0.001823	28.0805	0.054139	0.002043	26.4964	137.884	-164.616	-0.077124	0.649754	-0.407641	-0.408971	-0.038277	26.4964	-0.406557	-165737	2.309475E-7	NaN
605	1.000000	0.659081	7.37097e+06	-46839.1	1005.82	-29768	0.000000	0.000000	6.659006	0.011648	NaN	0.000000	0.001514	0.001837	28.0806	0.016954	0.002019	8.396837	83.1084	-163.734	0.055029	0.657746	-0.399644	-0.400979	0.011648	8.396837	-0.400684	-136694	-8.521117E-8	NaN
605	1.000000	0.667084	7.37097e+06	-46839.1	1005.82	-29768	0.000000	0.000000	6.667009	-0.004195	NaN	0.000000	0.001515	0.001859	28.0805	0.126949	0.001926	65.9214	9.687457	-165.674	-0.007114	0.665818	-0.391640	-0.392906	-0.004195	65.9214	-0.391593	-101378	4.137515E-8	NaN
605	1.000000	0.675087	7.37097e+06	-46839.1	1005.82	-29768	0.000000	0.000000	6.675012	0.013828	NaN	0.000000	0.001506	0.001821	28.0804	0.027229	0.002049	13.2923	-84.9045	-165.788	-0.009029	0.673771	-0.383638	-0.384954	0.013828	13.2923	-0.384418	-80028.9	-1.727930E-7	NaN
605	1.000000	0.683074	7.37097e+06	-46839.1	1005.82	-29768	0.000000	0.000000	6.682995	-0.068654	NaN	0.000000	0.001500	0.001846	28.0805	0.019731	0.001903	10.3667	-133.003	-167.089	-0.127422	0.681757	-0.375651	-0.376967	-0.068654	10.3667	-0.370684	-50813.3	1.351102E-6	NaN
605	1.000000	0.691087	7.37097e+06	-46839.1	1005.82	-29768	0.000000	0.000000	6.691012	0.010826	NaN	0.000000	0.001493	0.001831	28.0805	0.049764	0.001958	25.4113	-154.233	-166.668	0.116470	0.689800	-0.367638	-0.368925	0.010826	25.4113	-0.367957	-46419.1	-2.332174E-7	NaN
605	1.000000	0.699138	7.37097e+06	-46839.1	1005.82	-29768	0.000000	0.000000	6.699063	0.032297	NaN	0.000000	0.001463	0.001844	28.0805	0.135621	0.001966	68.9889	78.7746	-165.004	0.066848	0.697808	-0.359587	-0.360917	0.032297	68.9889	-0.359938	-35559.1	-9.082763E-7	NaN
605	1.000000	0.707082	7.37097e+06	-46839.1	1005.82	-29768	0.000000	0.000000	6.707007	0.028863	NaN	0.000000	0.001506	0.001846	28.0806	0.037740	0.002022	18.6629	50.3308	-162.76	0.005414	0.705779	-0.351643	-0.352946	0.028863	18.6629	-0.352803	-28032.3	-1.029639E-6	NaN
605	1.000000	0.715106	7.37097e+06	-46839.1	1005.82	-29768	0.000000	0.000000	6.715030	-0.011726	NaN	0.000000	0.001522	0.001796	28.0805	0.038697	0.002188	17.6826	53.094	-165.358	-0.074049	0.713822	-0.343618	-0.344903	-0.011726	17.6826	-0.343121	-20277.5	5.782608E-7	NaN
605	1.000000	0.723101	7.37097e+06	-46839.1	1005.82	-29768	0.000000	0.000000	6.723026	0.013555	NaN	0.000000	0.001533	0.001823	28.0805	0.072072	0.001992	36.1893	110.239	-166.465	-0.005254	0.721802	-0.335624	-0.336922	0.013555	36.1893	-0.335904	-15914.7	-8.517242E-7	NaN
605	1.000000	0.731100	7.37097e+06	-46839.1	1005.82	-29768	0.000000	0.000000	6.731024	0.002774	NaN	0.000000	0.001497	0.001821	28.0804	0.072062	0.002036	35.3881	-1.380706	-164.448	-0.064286	0.729784	-0.327625	-0.328940	0.002774	35.3881	-0.327684	-12064.6	-2.299427E-7	NaN
605	1.000000	0.739106	7.37097e+06	-46839.1	1005.82	-29768	0.000000	0.000000	6.739029	-0.041234	NaN	0.000000	0.001492	0.001812	28.0805	0.037625	0.002106	17.8688	39.3413	-163.302	-0.038849	0.737852	-0.319619	-0.320873	-0.041234	17.8688	-0.317888	-8660.35	4.761254E-6	NaN
605	1.000000	0.747125	7.37097e+06	-46839.1	1005.82	-29768	0.000000	0.000000	6.747050	0.025463	NaN	0.000000	0.001519	0.001807	28.0805	0.152020	0.001999	76.0409	-162.977	-167.429	-0.081536	0.745786	-0.311600	-0.312939	0.025463	76.0409	-0.311851	-7054.01	-3.609700E-6	NaN
605	1.000000	0.755125	7.37097e+06	-46839.1	1005.82	-29768	0.000000	0.000000	6.755047	-0.056435	NaN	0.000000	0.001566	0.001812	28.0808	0.013728	0.002065	6.648725	-173.595	-166.391	-0.016086	0.753874	-0.303600	-0.304850	-0.056435	6.648725	-0.297233	-4279.74	1.318663E-5	NaN
605	1.000000	0.763121	7.37097e+06	-46839.1	1005.82	-29768	0.000000	0.000000	6.763046	0.013201	NaN	0.000000	0.001602	0.001828	28.0811	0.095133	0.001964	48.428	113.693	-165.021	0.038005	0.761826	-0.295604	-0.296898	0.013201	48.428	-0.295808	-4075.27	-3.239261E-6	NaN
605	1.000000	0.771091	7.37097e+06	-46839.1	1005.82	-29768	0.000000	0.000000	6.771013	-0.046321	NaN	0.000000	0.001617	0.001804	28.0819	0.024486	0.001908	12.8339	-37.2469	-165.82	-0.032962	0.769833	-0.287634	-0.288891	-0.046321	12.8339	-0.284927	-2800.05	1.654303E-5	NaN
605	1.000000	0.779133	7.37097e+06	-46839.1	1005.82	-29768	0.000000	0.000000	6.779054	-0.083812	NaN	0.000000	0.001618	0.001830	28.0817	0.052668	0.002037	25.8558	-53.5185	-165.812	-0.051923	0.777804	-0.279591	-0.280921	-0.083812	25.8558	-0.277160	-2138.38	3.919397E-5	NaN
605	1.000000	0.787113	7.37097e+06	-46839.1	1005.82	-29768	0.000000	0.000000	6.787034	-0.070502	NaN	0.000000	0.001600	0.001830	28.0815	0.029171	0.002045	14.2624	-96.961	-164.138	-0.102127	0.785896	-0.271612	-0.272829	-0.070502	14.2624	-0.267904	-1547.61	4.555506E-5	NaN
605	1.000000	0.795126	7.37097e+06	-46839.1	1005.82	-29768	0.000000	0.000000	6.795048	-0.059191	NaN	0.000000	0.001581	0.001778	28.0816	0.086556	0.001995	43.3895	28.108	-163.333	-0.021795	0.793827	-0.263599	-0.264898	-0.059191	43.3895	-0.262575	-1283.35	4.612196E-5	NaN
605	1.000000	0.803135	7.37097e+06	-46839.1	1005.82	-29768	0.000000	0.000000	6.803059	0.006336	NaN	0.000000	0.001583	0.001778	28.0818	0.035129	0.002009	17.4878	93.1659	-166.333	-0.030778	0.801865	-0.255590	-0.256860	0.006336	17.4878	-0.255862	-1012.46	-6.258318E-6	NaN
605	1.000000	0.811141	7.37097e+06	-46839.1	1005.82	-29768	0.000000	0.000000	6.811065	-0.009170	NaN	0.000000	0.001608	0.001773	28.082	0.063941	0.002005	31.8969	-147.881	-164.967	-0.067296	0.809845	-0.247583	-0.248880	-0.009170	31.8969	-0.247368	-748.521	1.225138E-5	NaN
605	1.000000	0.819135	7.37097e+06	-46839.1	1005.82	-29768	0.000000	0.000000	6.819060	0.005422	NaN	0.000000	0.001562	0.001792	28.0816	0.057594	0.001943	29.6363	143.01	-166.891	0.017052	0.817823	-0.239589	-0.240901	0.005422	29.6363	-0.239726	-569.218	-9.524839E-6	NaN
605	1.000000	0.827151	7.37097e+06	-46839.1	1005.82	-29768	0.000000	0.000000	6.827073	-0.057481	NaN	0.000000	0.001561	0.001735	28.0817	0.066728	0.002098	31.8127	167.525	-165.745	-0.067420	0.825836	-0.231574	-0.232888	-0.057481	31.8127	-0.230219	-403.618	0.000142	NaN
605	1.000000	0.835122	7.37097e+06	-46839.1	1005.82	-29768	0.000000	0.000000	6.835044	-0.068214	NaN	0.000000	0.001520	0.001743	28.0817	0.095602	0.002066	46.2837	-70.6858	-164.802	-0.078983	0.833881	-0.223603	-0.224843	-0.068214	46.2837	-0.222497	-304.456	0.000224	NaN
605	1.000000	0.843132	7.37097e+06	-46839.1	1005.82	-29768	0.000000	0.000000	6.843056	-0.008081	NaN	0.000000	0.001537	0.001781	28.0819	0.098027	0.002122	46.2055	-126.354	-166.031	-0.059298	0.841873	-0.215592	-0.216852	-0.008081	46.2055	-0.215461	-234.926	3.439942E-5	NaN
605	1.000000	0.851154	7.37097e+06	-46839.1	1005.82	-29768	0.000000	0.000000	6.851078	0.002459	NaN	0.000000	0.001556	0.001720	28.0821	0.082863	0.002004	41.3528	46.0891	-164.316	0.040867	0.849786	-0.207571	-0.208939	0.002459	41.3528	-0.207615	-175.444	-1.401640E-5	NaN
605	1.000000	0.859191	7.37097e+06	-46839.1	1005.82	-29768	0.000000	0.000000	6.859117	0.025338	NaN	0.000000	0.001554	0.001767	28.0818	0.079124	0.002001	39.533	144.409	-162.964	0.002199	0.857839	-0.199533	-0.200885	0.025338	39.533	-0.200014	-131.804	-0.000192	NaN
605	1.000000	0.867190	7.37097e+06	-46839.1	1005.82	-29768	0.000000	0.000000	6.867116	0.051866	NaN	0.000000	0.001523	0.001779	28.0818	0.110006	0.002012	54.6837	104.428	-163.637	0.091340	0.865841	-0.191535	-0.192883	0.051866	54.6837	-0.192246	-98.0581	-0.000529	NaN
605	1.000000	0.875173	7.37097e+06	-46839.1	1005.82	-29768	0.000000	0.000000	6.875097	0.000570	NaN	0.000000	0.001556	0.001757	28.0816	0.087234	0.002034	42.8821	-93.0951	-162.588	-0.027786	0.873847	-0.183552	-0.184878	0.000570	42.8821	-0.183562	-70.1224	-8.126563E-6	NaN
605	1.000000	0.883170	7.37097e+06	-46839.1	1005.82	-29768	0.000000	0.000000	6.883093	-0.018957	NaN	0.000000	0.001535	0.001735	28.0817	0.041824	0.001984	21.0826	163.391	-162.424	-0.036022	0.881899	-0.175555	-0.176825	-0.018957	21.0826	-0.174881	-49.8803	0.000380	NaN
605	1.000000	0.891186	7.37097e+06	-46839.1	1005.82	-29768	0.000000	0.000000	6.891107	-0.077882	NaN	0.000000	0.001551	0.001749	28.0817	0.009390	0.001924	4.881488	-73.7458	-165.941	-0.143917	0.889872	-0.167538	-0.168853	-0.077882	4.881488	-0.155573	-22.8495	0.003408	NaN
605	1.000000	0.899204	7.37097e+06	-46839.1	1005.82	-29768	0.000000	0.000000	6.899129	0.022342	NaN	0.000000	0.001596	0.001727	28.0817	0.057952	0.002047	28.3063	-149.543	-161.319	-0.002090	0.897800	-0.159521	-0.160925	0.022342	28.3063	-0.160113	-27.5417	-0.000811	NaN
605	1.000000	0.907166	7.37097e+06	-46839.1	1005.82	-29768	0.000000	0.000000	6.907088	-0.056201	NaN	0.000000	0.001559	0.001769	28.0807	0.103695	0.001974	52.5398	154.344	-161.869	-0.020158	0.905877	-0.151559	-0.152847	-0.056201	52.5398	-0.150757	-18.6977	0.003006	NaN
605	1.000000	0.915206	7.37097e+06	-46839.1	1005.82	-29768	0.000000	0.000000	6.915130	-0.013130	NaN	0.000000	0.001558	0.001748	28.0804	0.033572	0.001822	18.4246	21.0086	-164.073	-0.011814	0.913876	-0.143518	-0.144849	-0.013130	18.4246	-0.142984	-13.451	0.000976	NaN
605	1.000000	0.923235	7.37097e+06	-46839.1	1005.82	-29768	0.000000	0.000000	6.923160	0.026029	NaN	0.000000	0.001565	0.001799	28.0808	0.029464	0.002045	14.4049	177.547	-165.587	-0.012989	0.921858	-0.135490	-0.136867	0.026029	14.4049	-0.136845	-10.3136	-0.002524	NaN
605	1.000000	0.931180	7.37097e+06	-46839.1	1005.82	-29768	0.000000	0.000000	6.931104	-0.026457	NaN	0.000000	0.001573	0.001802	28.0804	0.153556	0.002067	74.2996	-159.63	-165.891	-0.029486	0.929897	-0.127544	-0.128827	-0.026457	74.2996	-0.127277	-6.743115	0.003924	NaN
605	1.000000	0.939172	7.37097e+06	-46839.1	1005.82	-29768	0.000000	0.000000	6.939093	-0.080223	NaN	0.000000	0.001539	0.001797	28.0805	0.080757	0.002083	38.7609	19.9899	-164.192	-0.082104	0.937909	-0.119552	-0.120815	-0.080223	38.7609	-0.118000	-4.401031	0.018228	NaN
605	1.000000	0.947201	7.37097e+06	-46839.1	1005.82	-29768	0.000000	0.000000	6.947129	0.091597	NaN	0.000000	0.001594	0.001747	28.0804	0.022073	0.002035	10.8483	-44.8477	-164.314	-0.003356	0.945855	-0.111524	-0.112870	0.091597	10.8483	-0.117856	-4.371409	-0.020954	NaN
605	1.000000	0.955192	7.37097e+06	-46839.1	1005.82	-29768	0.000000	0.000000	6.955115	-0.025556	NaN	0.000000	0.001606	0.001786	28.0807	0.074423	0.002095	35.5242	-133.488	-163.966	-0.033207	0.953922	-0.103533	-0.104803	-0.025556	35.5242	-0.102993	-2.126187	0.012020	NaN
605	1.000000	0.963220	7.37097e+06	-46839.1	1005.82	-29768	0.000000	0.000000	6.963144	-0.012929	NaN	0.000000	0.001566	0.001772	28.0807	0.048313	0.001976	24.4512	-103.021	-165.484	-0.043826	0.961917	-0.095504	-0.096808	-0.012929	24.4512	-0.095108	-1.418629	0.009114	NaN
605	1.000000	0.971207	7.37097e+06	-46839.1	1005.82	-29768	0.000000	0.000000	6.971129	-0.063911	NaN	0.000000	0.001569	0.001775	28.0811	0.134517	0.001866	72.0724	-2.316008	-165.911	-0.064623	0.969912	-0.087518	-0.088813	-0.063911	72.0724	-0.086853	-0.910457	0.070197	NaN
605	1.000000	0.979207	7.37097e+06	-46839.1	1005.82	-29768	0.000000	0.000000	6.979133	0.035923	NaN	0.000000	0.001573	0.001711	28.0807	0.025317	0.001943	13.0311	82.3616	-161.156	-0.089710	0.977855	-0.079518	-0.080869	0.035923	13.0311	-0.081585	-0.677825	-0.052998	NaN
605	1.000000	0.987253	7.37097e+06	-46839.1	1005.82	-29768	0.000000	0.000000	6.987177	-0.001752	NaN	0.000000	0.001532	0.001763	28.0806	0.065947	0.001946	33.8906	-106.175	-164.728	-0.014554	0.985935	-0.071472	-0.072790	-0.001752	33.8906	-0.071433	-0.372475	0.004705	NaN
605	1.000000	0.995212	7.37097e+06	-46839.1	1005.82	-29768	0.000000	0.000000	6.995134	-0.050036	NaN	0.000000	0.001549	0.001769	28.0807	0.035971	0.002036	17.6714	97.6732	-168.082	-0.111672	0.993879	-0.063513	-0.064845	-0.050036	17.6714	-0.061389	-0.197316	0.253584	NaN
605	1.000000	1.003218	7.37097e+06	-46839.1	1005.82	-29768	0.000000	0.000000	7.003141	-0.034563	NaN	0.000000	0.001566	0.001788	28.0806	0.074731	0.001932	38.6769	-103.337	-165.131	-0.066137	1.001937	-0.055507	-0.056787	-0.034563	38.6769	-0.054837	-0.127353	0.271394	NaN
605	1.000000	1.011201	7.37097e+06	-46839.1	1005.82	-29768	0.000000	0.000000	7.011124	-0.042162	NaN	0.000000	0.001543	0.001793	28.0806	0.011661	0.001941	6.007144	167.239	-165.163	-0.066684	1.009911	-0.047524	-0.048814	-0.042162	6.007144	-0.042260	-0.052991	0.795646	NaN
605	1.000000	1.019233	7.37097e+06	-46839.1	1005.82	-29768	0.000000	0.000000	7.019159	0.021134	NaN	0.000000	0.001542	0.001735	28.0807	0.058052	0.002031	28.5788	1.251591	-164.806	0.005205	1.017881	-0.039491	-0.040843	0.021134	28.5788	-0.040046	-0.045367	-0.465834	NaN
605	1.000000	1.027216	7.37097e+06	-46839.1	1005.82	-29768	0.000000	0.000000	7.027137	-0.096195	NaN	0.000000	0.001545	0.001772	28.0805	0.030527	0.002125	14.3647	-60.0596	-167.089	-0.084233	1.025938	-0.031509	-0.032786	-0.096195	14.3647	-0.026486	-0.018463	5.210293	NaN
605	1.000000	1.035217	7.37097e+06	-46839.1	1005.82	-29768	0.000000	0.000000	7.035140	-0.018019	NaN	0.000000	0.001507	0.001782	28.0806	0.037009	0.001956	18.9225	-136.981	-165.03	-0.052546	1.033952	-0.023508	-0.024773	-0.018019	18.9225	-0.022794	-0.014796	1.217842	NaN
605	1.000000	1.043219	7.37097e+06	-46839.1	1005.82	-29768	0.000000	0.000000	7.043142	-0.046614	NaN	0.000000	0.001525	0.001773	28.0816	0.058324	0.001914	30.4645	-12.7385	-165.13	-0.120627	1.041937	-0.015505	-0.016787	-0.046614	30.4645	-0.014358	-0.008894	5.241207	NaN
605	1.000000	1.051215	7.37097e+06	-46839.1	1005.82	-29768	0.000000	0.000000	7.051138	-0.053187	NaN	0.000000	0.001551	0.001752	28.082	0.054615	0.002094	26.0786	154.954	-166.905	-0.048517	1.049909	-0.007509	-0.008816	-0.053187	26.0786	-0.005980	-0.004024	13.2178	NaN
605	1.000000	1.059195	7.37097e+06	-46839.1	1005.82	-29768	0.000000	0.000000	7.059290	4.144591	NaN	0.000000	0.001540	0.001766	28.0816	5.022624	0.001885	2664.98	12.2844	-170.782	2.815569	1.057886	0.000471	-0.000838	4.144591	2664.98	-0.000696	-0.000513	-8079.3	NaN
605	2.000000	1.063928	7.37097e+06	-46839.1	1005.82	-29768	0.000000	0.000000	7.064221	8.973804	NaN	0.000000	0.001552	0.001755	28.0816	9.553458	0.001588	6016.29	5.579069	-170.83	8.859120	1.063548	0.005203	0.004823	8.973804	6016.29	0.004085	0.003313	2708.37	95492.2
605	2.000000	1.065857	7.37097e+06	-46839.1	1005.82	-29768	0.000000	0.000000	7.066255	11.517	NaN	0.000000	0.001542	0.001784	28.0819	11.4646	0.001675	6844.45	8.658413	-174.897	11.0395	1.065600	0.007133	0.006875	11.517	6844.45	0.005871	0.004942	2330.4	88952.3
605	2.000000	1.067830	7.37097e+06	-46839.1	1005.82	-29768	0.000000	0.000000	7.068357	14.6702	NaN	0.000000	0.001550	0.001776	28.0815	13.6649	0.001697	8051.12	7.747798	-175.026	13.9262	1.067549	0.009105	0.008824	14.6702	8051.12	0.007739	0.006775	2165.38	89367.3
605	2.000000	1.069819	7.37097e+06	-46839.1	1005.82	-29768	0.000000	0.000000	7.070499	18.3587	NaN	0.000000	0.001546	0.001792	28.0828	15.1529	0.001629	9300.09	6.095292	-175.016	17.9462	1.069535	0.011095	0.010810	18.3587	9300.09	0.009614	0.008756	2096.71	90804.8
605	2.000000	1.071851	7.37097e+06	-46839.1	1005.82	-29768	0.000000	0.000000	7.072640	21.0266	NaN	0.000000	0.001521	0.001784	28.0815	17.2836	0.001766	9789.07	4.625471	-173.294	20.8709	1.071529	0.013127	0.012805	21.0266	9789.07	0.011516	0.010915	1926.37	85605.1
605	2.000000	1.073859	7.37097e+06	-46839.1	1005.82	-29768	0.000000	0.000000	7.074878	26.6459	NaN	0.000000	0.001542	0.001749	28.0817	19.8686	0.001910	10402.9	9.184392	-176.95	26.6495	1.073449	0.015134	0.014725	26.6459	10402.9	0.013213	0.012976	2053.53	83437.9
605	2.000000	1.075823	7.37097e+06	-46839.1	1005.82	-29768	0.000000	0.000000	7.076937	28.9406	NaN	0.000000	0.001528	0.001773	28.0818	21.6272	0.001795	12047	8.928534	-179.255	29.1867	1.075531	0.017098	0.016807	28.9406	12047	0.015297	0.015683	1845.33	87889.4
605	2.000000	1.077783	7.37097e+06	-46839.1	1005.82	-29768	0.000000	0.000000	7.079111	34.1267	NaN	0.000000	0.001549	0.001813	28.0818	24.5679	0.001870	13136	7.722141	179.706	32.8036	1.077520	0.019059	0.018796	34.1267	13136	0.017110	0.018203	1874.79	88953.9
605	2.000000	1.079819	7.37097e+06	-46839.1	1005.82	-29768	0.000000	0.000000	7.081316	38.265	NaN	0.000000	0.001536	0.001755	28.0821	25.5283	0.001832	13932.6	7.416904	-179.448	38.6972	1.079454	0.021094	0.020729	38.265	13932.6	0.019034	0.021047	1818.05	87742
605	2.000000	1.081812	7.37097e+06	-46839.1	1005.82	-29768	0.000000	0.000000	7.083555	44.2368	NaN	0.000000	0.001506	0.001768	28.0818	26.8193	0.001711	15673.1	5.698416	-178.608	43.687	1.081426	0.023087	0.022701	44.2368	15673.1	0.020970	0.024090	1836.31	92258.8
605	2.000000	1.083795	7.37097e+06	-46839.1	1005.82	-29768	0.000000	0.000000	7.085656	47.0998	NaN	0.000000	0.001540	0.001749	28.0818	29.0974	0.001862	15628.7	7.740332	-178.976	46.1332	1.083463	0.025071	0.024739	47.0998	15628.7	0.022810	0.027152	1734.65	86654.5
605	2.000000	1.085774	7.37097e+06	-46839.1	1005.82	-29768	0.000000	0.000000	7.087878	53.0191	NaN	0.000000	0.001518	0.001778	28.0818	30.2594	0.001791	16892.4	4.511430	-178.928	52.4012	1.085510	0.027050	0.026786	53.0191	16892.4	0.024696	0.030465	1740.35	88423.5
605	2.000000	1.087793	7.37097e+06	-46839.1	1005.82	-29768	0.000000	0.000000	7.090021	56.0329	NaN	0.000000	0.001503	0.001764	28.0819	33.2305	0.001884	17640.1	3.522024	-177.296	56.6062	1.087464	0.029068	0.028739	56.0329	17640.1	0.026686	0.034154	1640.6	87207.7
605	2.000000	1.089800	7.37097e+06	-46839.1	1005.82	-29768	0.000000	0.000000	7.092399	65.0423	NaN	0.000000	0.001519	0.001779	28.082	34.5321	0.001793	19257.1	7.202292	177.625	65.8358	1.089465	0.031076	0.030740	65.0423	19257.1	0.028542	0.037777	1721.76	90521.7
605	2.000000	1.091820	7.37097e+06	-46839.1	1005.82	-29768	0.000000	0.000000	7.094596	69.3537	NaN	0.000000	0.001549	0.001792	28.0804	36.3511	0.001817	20004.3	3.406997	-178.555	71.4896	1.091511	0.033095	0.032786	69.3537	20004.3	0.030495	0.041777	1660.11	89419.3
605	2.000000	1.093725	7.37097e+06	-46839.1	1005.82	-29768	0.000000	0.000000	7.096987	81.1938	NaN	0.000000	0.001521	0.001760	28.0807	37.9654	0.001764	21520.1	2.973335	-178.099	78.7809	1.093430	0.035000	0.034705	81.1938	21520.1	0.032171	0.045363	1789.87	92314
605	2.000000	1.095765	7.37097e+06	-46839.1	1005.82	-29768	0.000000	0.000000	7.099352	89.1073	NaN	0.000000	0.001541	0.001807	28.0806	40.2492	0.001843	21841.2	5.055723	178.7	88.7473	1.095493	0.037040	0.036768	89.1073	21841.2	0.033980	0.049398	1803.87	89783.1
605	2.000000	1.097699	7.37097e+06	-46839.1	1005.82	-29768	0.000000	0.000000	7.101491	94.0773	NaN	0.000000	0.001534	0.001835	28.0805	42.7853	0.001845	23191.3	5.296877	177.899	91.5723	1.097429	0.038974	0.038705	94.0773	23191.3	0.035932	0.053938	1744.18	91232.8
605	2.000000	1.099808	7.37097e+06	-46839.1	1005.82	-29768	0.000000	0.000000	7.103881	100.906	NaN	0.000000	0.001598	0.001832	28.0814	43.9647	0.001847	23804.6	4.012365	178.756	103.25	1.099460	0.041084	0.040735	100.906	23804.6	0.037904	0.058725	1718.28	89747.6
605	2.000000	1.101751	7.37097e+06	-46839.1	1005.82	-29768	0.000000	0.000000	7.106266	111.657	NaN	0.000000	0.001580	0.001825	28.0804	46.2217	0.001784	25910.8	4.327279	177.374	109.976	1.101466	0.043027	0.042741	111.657	25910.8	0.039795	0.063499	1758.41	93944.2
605	2.000000	1.103837	7.37097e+06	-46839.1	1005.82	-29768	0.000000	0.000000	7.108734	120.951	NaN	0.000000	0.001649	0.001788	28.0809	48.2967	0.001822	26512.7	7.605892	176.044	123.54	1.103433	0.045112	0.044709	120.951	26512.7	0.041691	0.068471	1766.47	92571
605	2.000000	1.105764	7.37097e+06	-46839.1	1005.82	-29768	0.000000	0.000000	7.111003	129.276	NaN	0.000000	0.001640	0.001800	28.0806	49.1281	0.001657	29652.9	4.772293	176.238	130.619	1.105438	0.047039	0.046713	129.276	29652.9	0.043770	0.074133	1743.84	99502.6
605	2.000000	1.107718	7.37097e+06	-46839.1	1005.82	-29768	0.000000	0.000000	7.113202	135.241	NaN	0.000000	0.001577	0.001787	28.0807	51.998	0.001758	29583.7	3.890815	177.331	133.007	1.107480	0.048993	0.048756	135.241	29583.7	0.045564	0.079198	1707.65	96044.1
605	2.000000	1.109768	7.37097e+06	-46839.1	1005.82	-29768	0.000000	0.000000	7.115732	146.929	NaN	0.000000	0.001591	0.001777	28.0807	53.1905	0.001772	30016.1	3.825936	176.668	145.883	1.109344	0.051043	0.050619	146.929	30016.1	0.047372	0.084462	1739.58	94361.6
605	2.000000	1.111718	7.37097e+06	-46839.1	1005.82	-29768	0.000000	0.000000	7.117935	153.043	NaN	0.000000	0.001592	0.001792	28.0806	55.7084	0.001827	30493.8	2.219971	178.347	151.2	1.111469	0.052994	0.052745	153.043	30493.8	0.049230	0.090047	1699.58	92843.2
605	2.000000	1.113805	7.37098e+06	-46839.1	1005.82	-29768	0.000000	0.000000	7.120564	166.25	NaN	0.000000	0.001592	0.001807	28.0806	58.3083	0.001836	31756.1	5.717438	175.081	167.634	1.113452	0.055080	0.054727	166.25	31756.1	0.051154	0.096012	1731.55	93634.8
605	2.000000	1.115742	7.37098e+06	-46839.1	1005.82	-29768	0.000000	0.000000	7.122716	171.487	NaN	0.000000	0.001596	0.001787	28.0807	59.6105	0.001759	33883.8	5.431302	173.534	170.302	1.115526	0.057017	0.056801	171.487	33883.8	0.053221	0.102630	1670.93	96633.7
605	2.000000	1.117700	7.37098e+06	-46839.1	1005.82	-29768	0.000000	0.000000	7.125479	191.063	NaN	0.000000	0.001612	0.001800	28.0809	61.9932	0.001757	35279.9	6.607021	172.708	189.433	1.117429	0.058975	0.058704	191.063	35279.9	0.054914	0.108203	1765.77	97989.6
605	2.000000	1.119722	7.37098e+06	-46839.1	1005.82	-29768	0.000000	0.000000	7.128028	203.858	NaN	0.000000	0.001576	0.001804	28.0806	62.2693	0.001775	35074	5.048368	174.893	201.093	1.119369	0.060998	0.060644	203.858	35074	0.056639	0.114031	1787.73	94895.7
605	2.000000	1.121671	7.37098e+06	-46839.1	1005.82	-29768	0.000000	0.000000	7.130205	209.419	NaN	0.000000	0.001536	0.001770	28.0804	64.3943	0.001679	38362.2	5.620919	173.415	207.228	1.121400	0.062946	0.062675	209.419	38362.2	0.058852	0.121723	1720.45	100459
605	2.000000	1.123721	7.37098e+06	-46839.1	1005.82	-29768	0.000000	0.000000	7.132792	222.486	NaN	0.000000	0.001559	0.001804	28.0807	66.691	0.001701	39214.7	8.900536	170.373	218.856	1.123309	0.064996	0.064585	222.486	39214.7	0.060741	0.128479	1731.68	99955.3
605	2.000000	1.125633	7.37098e+06	-46839.1	1005.82	-29768	0.000000	0.000000	7.135243	235.609	NaN	0.000000	0.001584	0.001812	28.082	68.4901	0.001691	40511.6	6.188405	171.628	229.935	1.125319	0.066908	0.066595	235.609	40511.6	0.062546	0.135096	1744.01	100700
605	2.000000	1.127667	7.37098e+06	-46839.1	1005.82	-29768	0.000000	0.000000	7.137774	247.685	NaN	0.000000	0.001535	0.001791	28.0821	70.3515	0.001685	41758.5	2.557635	175.483	244.137	1.127443	0.068942	0.068719	247.685	41758.5	0.064493	0.142413	1739.21	101098
605	2.000000	1.129697	7.37098e+06	-46839.1	1005.82	-29768	0.000000	0.000000	7.140469	263.881	NaN	0.000000	0.001560	0.001784	28.0818	71.1725	0.001747	40742.9	1.575531	177.082	261.419	1.129428	0.070972	0.070703	263.881	40742.9	0.066115	0.148642	1775.27	96550.4
605	2.000000	1.131748	7.37098e+06	-46839.1	1005.82	-29768	0.000000	0.000000	7.142986	275.186	NaN	0.000000	0.001558	0.001783	28.082	74.3681	0.001672	44488.3	3.000318	174.927	277.076	1.131467	0.073024	0.072742	275.186	44488.3	0.068384	0.157578	1746.35	102393
605	2.000000	1.133668	7.37098e+06	-46839.1	1005.82	-29768	0.000000	0.000000	7.145534	290.461	NaN	0.000000	0.001531	0.001778	28.0821	76.9903	0.001780	43258.7	6.047217	173.002	284.534	1.133280	0.074944	0.074556	290.461	43258.7	0.069908	0.163712	1774.21	97680
605	2.000000	1.135658	7.37098e+06	-46839.1	1005.82	-29768	0.000000	0.000000	7.148076	303.91	NaN	0.000000	0.001550	0.001784	28.082	77.6675	0.001725	45028.5	1.242499	176.588	301.594	1.135349	0.076933	0.076624	303.91	45028.5	0.071871	0.171784	1769.14	99258.9
605	2.000000	1.137655	7.37098e+06	-46839.1	1005.82	-29768	0.000000	0.000000	7.150520	314.769	NaN	0.000000	0.001619	0.001780	28.0817	82.2862	0.001935	42518.7	7.709445	169.93	310.252	1.137422	0.078930	0.078698	314.769	42518.7	0.073378	0.178099	1767.38	92049.7
605	2.000000	1.139692	7.37098e+06	-46839.1	1005.82	-29768	0.000000	0.000000	7.153411	335.561	NaN	0.000000	0.001602	0.001784	28.0818	81.5908	0.001692	48219.8	4.100331	173.378	335.374	1.139298	0.080967	0.080573	335.561	48219.8	0.075748	0.188253	1782.5	101538
605	2.000000	1.141731	7.37098e+06	-46839.1	1005.82	-29768	0.000000	0.000000	7.156006	349.064	NaN	0.000000	0.001609	0.001778	28.0819	83.4933	0.001821	45848	2.429800	175.332	348.904	1.141397	0.083006	0.082673	349.064	45848	0.077296	0.195028	1789.81	94851.7
605	2.000000	1.143608	7.37098e+06	-46839.1	1005.82	-29768	0.000000	0.000000	7.158546	365.208	NaN	0.000000	0.001600	0.001793	28.0822	84.1352	0.001875	44879.9	1.499159	177.047	357.871	1.143374	0.084883	0.084650	365.208	44879.9	0.078780	0.201626	1811.31	91317
605	2.000000	1.145666	7.37098e+06	-46839.1	1005.82	-29768	0.000000	0.000000	7.161307	382.313	NaN	0.000000	0.001642	0.001782	28.0818	85.6686	0.001766	48501.1	4.460636	173.126	380.408	1.145328	0.086941	0.086603	382.313	48501.1	0.081029	0.211823	1804.87	96280.3
605	2.000000	1.147661	7.37098e+06	-46839.1	1005.82	-29768	0.000000	0.000000	7.163789	394.126	NaN	0.000000	0.001627	0.001772	28.0819	88.6555	0.001740	50947.5	4.372031	172.977	391.206	1.147360	0.088937	0.088635	394.126	50947.5	0.083135	0.221585	1778.67	98884
605	2.000000	1.149715	7.37098e+06	-46839.1	1005.82	-29768	0.000000	0.000000	7.166196	402.739	NaN	0.000000	0.001633	0.001744	28.0818	90.2761	0.001811	49857.3	4.819967	172.227	405.713	1.149470	0.090990	0.090745	402.739	49857.3	0.084932	0.230076	1750.46	94965.6
605	2.000000	1.151568	7.37098e+06	-46839.1	1005.82	-29768	0.000000	0.000000	7.168808	421.187	NaN	0.000000	0.001645	0.001774	28.0819	92.3253	0.001691	54597.4	1.256184	175.072	413.607	1.151318	0.092844	0.092593	421.187	54597.4	0.087058	0.240316	1752.64	101755
605	2.000000	1.153686	7.37098e+06	-46839.1	1005.82	-29768	0.000000	0.000000	7.171694	439.879	NaN	0.000000	0.001667	0.001760	28.0818	95.4763	0.001749	54599.6	2.616535	174.223	439.2	1.153319	0.094962	0.094594	439.879	54599.6	0.088919	0.249452	1763.38	99877.9
605	2.000000	1.155631	7.37098e+06	-46839.1	1005.82	-29768	0.000000	0.000000	7.174204	453.62	NaN	0.000000	0.001544	0.001743	28.082	96.8319	0.001716	56435.7	3.600842	172.722	449.599	1.155350	0.096906	0.096626	453.62	56435.7	0.090878	0.259238	1749.82	101269
605	2.000000	1.157708	7.37098e+06	-46839.1	1005.82	-29768	0.000000	0.000000	7.176946	469.804	NaN	0.000000	0.001575	0.001762	28.0819	101.366	0.001845	54936.3	8.997112	167.633	469.667	1.157257	0.098983	0.098533	469.804	54936.3	0.092569	0.267827	1754.14	96985.2
605	2.000000	1.159740	7.37098e+06	-46839.1	1005.82	-29768	0.000000	0.000000	7.179677	486.79	NaN	0.000000	0.001591	0.001752	28.0806	100.982	0.001767	57143.7	4.813625	172.126	489.053	1.159284	0.101016	0.100559	486.79	57143.7	0.094627	0.278455	1748.18	98938.3
605	2.000000	1.161143	7.37098e+06	-46839.1	1005.82	-29768	0.000000	0.000000	7.181474	496.39	NaN	0.000000	0.001557	0.001771	28.0805	102.639	0.001744	58855.6	5.158912	-8.709613	493.199	1.160832	0.102418	0.102107	496.39	58855.6	0.096093	0.286144	1734.75	100524