File: remote_trans/data/nanoindenter/0828-1/data/Data_2025-08-06,11h17m57s/2025-07-22_16-23-58_1_702.txt
2025-07-22, 16:23:58, 1
Index	Phase	Displacement	Time	Pos X	Pos Y	Pos Z	Rot A	Rot B	Piezo Z	Force A	Force B	Gripper	Voltage A	Voltage B	Temperature	Amplitude force	Amplitude pos	Stiffness	Phase shift	Phase excitation	Force A raw	Displacement raw	HMax	HMax raw	Real Force	Real Stiffness	Contact Depth	Area	Hardness	Reduced Mod.
[#]	[#]	[um]	[s]	[um]	[um]	[um]	[m°]	[m°]	[um]	[uN]	[uN]	[V]	[V]	[V]	[°C]	[uN]	[um]	[N/m]	[°]	[°]	[uN]	[um]	[um]	[um]	[uN]	[N/m]	[um]	[um^2]	[MPa]	[MPa]
702	1.000000	0.002503	7.37192e+06	-41989.1	1005.82	-29784.2	0.000000	0.000000	6.002806	-0.006317	NaN	0.000000	0.001647	0.001732	28.0828	0.060952	0.000944	64.5375	24.7748	-175.711	-0.015830	0.001243	-1.125897	-1.127157	-0.006317	64.5375	-1.125823	-1.113260E+15	5.674667E-18	NaN
702	1.000000	0.012543	7.37192e+06	-41989.1	1005.82	-29784.2	0.000000	0.000000	6.012846	-0.003109	NaN	0.000000	0.001687	0.001725	28.0827	0.072768	0.001148	63.3866	133.666	14.4453	0.031874	0.011155	-1.115857	-1.117245	-0.003109	63.3866	-1.115820	-8.173097E+14	3.803578E-18	NaN
702	1.000000	0.022479	7.37192e+06	-41989.1	1005.82	-29784.2	0.000000	0.000000	6.022783	0.001368	NaN	0.000000	0.001677	0.001708	28.0825	0.082657	0.001571	52.6068	68.6887	-167.047	-0.016815	0.021155	-1.105920	-1.107245	0.001368	52.6068	-1.105940	-6.022749E+14	-2.270866E-18	NaN
702	1.000000	0.032461	7.37192e+06	-41989.1	1005.82	-29784.2	0.000000	0.000000	6.032765	0.013043	NaN	0.000000	0.001654	0.001713	28.0825	0.066522	0.001805	36.8608	54.1781	11.5385	0.006043	0.031093	-1.095939	-1.097307	0.013043	36.8608	-1.096204	-4.457743E+14	-2.925900E-17	NaN
702	1.000000	0.042478	7.37192e+06	-41989.1	1005.82	-29784.2	0.000000	0.000000	6.042780	-0.027342	NaN	0.000000	0.001644	0.001750	28.084	0.097615	0.001989	49.0747	151.994	-167.493	-0.037646	0.041168	-1.085922	-1.087232	-0.027342	49.0747	-1.085504	-3.202146E+14	8.538671E-17	NaN
702	1.000000	0.052433	7.37192e+06	-41989.1	1005.82	-29784.2	0.000000	0.000000	6.052734	-0.059688	NaN	0.000000	0.001665	0.001753	28.0839	0.102852	0.001979	51.9804	-105.747	10.8032	-0.067804	0.051100	-1.075967	-1.077300	-0.059688	51.9804	-1.075106	-2.321560E+14	2.571027E-16	NaN
702	1.000000	0.062448	7.37192e+06	-41989.1	1005.82	-29784.2	0.000000	0.000000	6.062749	-0.056820	NaN	0.000000	0.001674	0.001764	28.0838	0.057430	0.002003	28.6748	70.0391	-167.488	-0.091878	0.061125	-1.065952	-1.067275	-0.056820	28.6748	-1.064466	-1.670451E+14	3.401488E-16	NaN
702	1.000000	0.072456	7.37192e+06	-41989.1	1005.82	-29784.2	0.000000	0.000000	6.072762	0.064497	NaN	0.000000	0.001671	0.001736	28.084	0.025785	0.002022	12.7521	2.736674	13.5547	0.068459	0.071075	-1.055944	-1.057325	0.064497	12.7521	-1.059737	-1.443062E+14	-4.469488E-16	NaN
702	1.000000	0.082464	7.37192e+06	-41989.1	1005.82	-29784.2	0.000000	0.000000	6.082767	-0.000598	NaN	0.000000	0.001745	0.001742	28.0839	0.078438	0.002067	37.9557	-6.459188	-164.04	0.047132	0.081116	-1.045936	-1.047283	-0.000598	37.9557	-1.045924	-9.410582E+13	6.356014E-18	NaN
702	1.000000	0.092459	7.37192e+06	-41989.1	1005.82	-29784.2	0.000000	0.000000	6.092764	0.042657	NaN	0.000000	0.001683	0.001726	28.084	0.051872	0.002036	25.4793	-142.742	10.2454	-0.002749	0.091142	-1.035941	-1.037258	0.042657	25.4793	-1.037196	-7.182368E+13	-5.939133E-16	NaN
702	1.000000	0.102455	7.37192e+06	-41989.1	1005.82	-29784.2	0.000000	0.000000	6.102759	0.007890	NaN	0.000000	0.001672	0.001796	28.0838	0.166513	0.002020	82.4424	72.3614	-165.795	0.024930	0.101167	-1.025944	-1.027233	0.007890	82.4424	-1.026016	-5.080339E+13	-1.552981E-16	NaN
702	1.000000	0.112451	7.37192e+06	-41989.1	1005.82	-29784.2	0.000000	0.000000	6.112755	0.003756	NaN	0.000000	0.001701	0.001760	28.0842	0.075128	0.001977	38.0026	94.3081	12.7406	-0.012455	0.111125	-1.015949	-1.017275	0.003756	38.0026	-1.016023	-3.727640E+13	-1.007558E-16	NaN
702	1.000000	0.122489	7.37192e+06	-41989.1	1005.82	-29784.2	0.000000	0.000000	6.122791	-0.022252	NaN	0.000000	0.001668	0.001797	28.0836	0.017946	0.001886	9.516679	-109.186	-165.021	-0.032273	0.121133	-1.005911	-1.007267	-0.022252	9.516679	-1.004157	-2.580688E+13	8.622419E-16	NaN
702	1.000000	0.132491	7.37192e+06	-41989.1	1005.82	-29784.2	0.000000	0.000000	6.132795	0.014672	NaN	0.000000	0.001646	0.001776	28.0839	0.122193	0.001981	61.679	129.489	12.3921	0.130338	0.131123	-0.995909	-0.997277	0.014672	61.679	-0.996088	-2.009511E+13	-7.301194E-16	NaN
702	1.000000	0.142505	7.37192e+06	-41989.1	1005.82	-29784.2	0.000000	0.000000	6.142807	-0.017907	NaN	0.000000	0.001683	0.001767	28.0839	0.068146	0.002109	32.31	-115.352	-166.264	-0.011550	0.141169	-0.985895	-0.987231	-0.017907	32.31	-0.985479	-1.446191E+13	1.238189E-15	NaN
702	1.000000	0.152482	7.37192e+06	-41989.1	1005.82	-29784.2	0.000000	0.000000	6.152787	0.034033	NaN	0.000000	0.001681	0.001759	28.084	0.030369	0.002027	14.9808	-109.607	12.0038	0.024361	0.151167	-0.975917	-0.977233	0.034033	14.9808	-0.977621	-1.133342E+13	-3.002889E-15	NaN
702	1.000000	0.162493	7.37192e+06	-41989.1	1005.82	-29784.2	0.000000	0.000000	6.162794	-0.047766	NaN	0.000000	0.001691	0.001762	28.0837	0.085742	0.002103	40.7641	88.7591	-163.579	-0.037220	0.161168	-0.965907	-0.967232	-0.047766	40.7641	-0.965028	-7.667433E+12	6.229682E-15	NaN
702	1.000000	0.172497	7.37192e+06	-41989.1	1005.82	-29784.2	0.000000	0.000000	6.172801	0.010607	NaN	0.000000	0.001676	0.001764	28.084	0.010170	0.001997	5.093473	-77.1496	11.8458	0.018355	0.171152	-0.955903	-0.957248	0.010607	5.093473	-0.957465	-6.062971E+12	-1.749485E-15	NaN
702	1.000000	0.182496	7.37192e+06	-41989.1	1005.82	-29784.2	0.000000	0.000000	6.182801	0.032689	NaN	0.000000	0.001668	0.001765	28.0829	0.036902	0.002068	17.845	-50.3662	-168.026	0.069163	0.181243	-0.945904	-0.947157	0.032689	17.845	-0.947278	-4.418889E+12	-7.397519E-15	NaN
702	1.000000	0.192524	7.37192e+06	-41989.1	1005.82	-29784.2	0.000000	0.000000	6.192826	-0.026241	NaN	0.000000	0.001712	0.001738	28.0828	0.013191	0.002169	6.082720	73.1467	14.4057	0.023052	0.191096	-0.935876	-0.937304	-0.026241	6.082720	-0.932640	-2.804324E+12	9.357320E-15	NaN
702	1.000000	0.202528	7.37192e+06	-41989.1	1005.82	-29784.2	0.000000	0.000000	6.202829	-0.054904	NaN	0.000000	0.001697	0.001748	28.0828	0.012844	0.002028	6.332205	163.11	-165.442	-0.056827	0.201210	-0.925872	-0.927190	-0.054904	6.332205	-0.919369	-1.856446E+12	2.957473E-14	NaN
702	1.000000	0.212513	7.37192e+06	-41989.1	1005.82	-29784.2	0.000000	0.000000	6.212817	0.014048	NaN	0.000000	0.001696	0.001788	28.0827	0.029941	0.001890	15.8408	-81.3426	12.7991	-0.022938	0.211156	-0.915887	-0.917243	0.014048	15.8408	-0.916552	-1.700780E+12	-8.259554E-15	NaN
702	1.000000	0.222496	7.37192e+06	-41989.1	1005.82	-29784.2	0.000000	0.000000	6.222801	0.050659	NaN	0.000000	0.001704	0.001759	28.0825	0.103737	0.002081	49.854	127.917	-164.078	-0.001219	0.221225	-0.905904	-0.907175	0.050659	49.854	-0.906666	-1.250627E+12	-4.050690E-14	NaN
702	1.000000	0.232506	7.37192e+06	-41989.1	1005.82	-29784.2	0.000000	0.000000	6.232807	-0.048154	NaN	0.000000	0.001679	0.001788	28.0826	0.075575	0.002052	36.8224	-98.6223	12.7192	-0.089718	0.231200	-0.895894	-0.897199	-0.048154	36.8224	-0.894913	-8.676037E+11	5.550286E-14	NaN
702	1.000000	0.242527	7.37192e+06	-41989.1	1005.82	-29784.2	0.000000	0.000000	6.242829	-0.024367	NaN	0.000000	0.001706	0.001741	28.0824	0.049524	0.001974	25.0843	121.845	-163.765	-0.001575	0.241262	-0.885873	-0.887138	-0.024367	25.0843	-0.885144	-6.401323E+11	3.806582E-14	NaN
702	1.000000	0.252551	7.37192e+06	-41989.1	1005.82	-29784.2	0.000000	0.000000	6.252856	0.029163	NaN	0.000000	0.001716	0.001768	28.0824	0.193861	0.002127	91.1225	86.2442	12.5961	0.038039	0.251193	-0.875848	-0.877207	0.029163	91.1225	-0.876088	-4.828394E+11	-6.039863E-14	NaN
702	1.000000	0.262528	7.37192e+06	-41989.1	1005.82	-29784.2	0.000000	0.000000	6.262836	0.088498	NaN	0.000000	0.001653	0.001767	28.0823	0.062347	0.001960	31.8081	-104.792	-165.844	0.062151	0.261254	-0.865871	-0.867146	0.088498	31.8081	-0.867958	-3.748129E+11	-2.361132E-13	NaN
702	1.000000	0.272524	7.37192e+06	-41989.1	1005.82	-29784.2	0.000000	0.000000	6.272826	-0.022770	NaN	0.000000	0.001685	0.001739	28.0822	0.115198	0.002138	53.8768	88.3685	14.3049	0.017838	0.271254	-0.855876	-0.857145	-0.022770	53.8768	-0.855559	-2.546841E+11	8.940650E-14	NaN
702	1.000000	0.282552	7.37192e+06	-41989.1	1005.82	-29784.2	0.000000	0.000000	6.282858	0.042026	NaN	0.000000	0.001672	0.001754	28.0824	0.044395	0.001999	22.2039	57.1038	-165.299	0.068248	0.281235	-0.845847	-0.847164	0.042026	22.2039	-0.847267	-1.966640E+11	-2.136927E-13	NaN
702	1.000000	0.292581	7.37192e+06	-41989.1	1005.82	-29784.2	0.000000	0.000000	6.292885	0.006716	NaN	0.000000	0.001698	0.001769	28.0821	0.078608	0.001998	39.3434	139.326	14.8273	0.042651	0.291168	-0.835819	-0.837232	0.006716	39.3434	-0.835947	-1.381577E+11	-4.861198E-14	NaN
702	1.000000	0.302546	7.37192e+06	-41989.1	1005.82	-29784.2	0.000000	0.000000	6.302848	-0.030359	NaN	0.000000	0.001689	0.001783	28.0824	0.057176	0.002146	26.6411	88.2507	-165.205	-0.017549	0.301244	-0.825854	-0.827156	-0.030359	26.6411	-0.824999	-9.817352E+10	3.092401E-13	NaN
702	1.000000	0.312549	7.37192e+06	-41989.1	1005.82	-29784.2	0.000000	0.000000	6.312853	-0.003004	NaN	0.000000	0.001675	0.001774	28.083	0.034521	0.002056	16.7909	-90.5642	13.9524	-6.042863E-5	0.311182	-0.815850	-0.817218	-0.003004	16.7909	-0.815716	-7.347031E+10	4.088153E-14	NaN
702	1.000000	0.322555	7.37192e+06	-41989.1	1005.82	-29784.2	0.000000	0.000000	6.322858	-0.000543	NaN	0.000000	0.001673	0.001734	28.0839	0.042716	0.001958	21.8129	79.6202	-169.571	-0.019895	0.321229	-0.805845	-0.807171	-0.000543	21.8129	-0.805826	-5.394337E+10	1.007356E-14	NaN
702	1.000000	0.332589	7.37192e+06	-41989.1	1005.82	-29784.2	0.000000	0.000000	6.332891	-0.031124	NaN	0.000000	0.001722	0.001730	28.0837	0.031069	0.001941	16.0075	26.098	15.2479	-0.040063	0.331195	-0.795811	-0.797204	-0.031124	16.0075	-0.794352	-3.768676E+10	8.258637E-13	NaN
702	1.000000	0.342541	7.37192e+06	-41989.1	1005.82	-29784.2	0.000000	0.000000	6.342846	0.033632	NaN	0.000000	0.001670	0.001735	28.084	0.073450	0.001947	37.7232	131.048	-164.669	0.066767	0.341263	-0.785859	-0.787137	0.033632	37.7232	-0.786527	-2.950638E+10	-1.139825E-12	NaN
702	1.000000	0.352560	7.37192e+06	-41989.1	1005.82	-29784.2	0.000000	0.000000	6.352866	0.061591	NaN	0.000000	0.001695	0.001742	28.084	0.012473	0.001987	6.276623	95.1066	10.7397	0.053272	0.351228	-0.775840	-0.777171	0.061591	6.276623	-0.783199	-2.658903E+10	-2.316407E-12	NaN
702	1.000000	0.362592	7.37192e+06	-41989.1	1005.82	-29784.2	0.000000	0.000000	6.362895	-0.020561	NaN	0.000000	0.001658	0.001744	28.0838	0.031511	0.002088	15.0897	-26.9499	-166.287	-0.114825	0.361254	-0.765808	-0.767145	-0.020561	15.0897	-0.764786	-1.494164E+10	1.376073E-12	NaN
702	1.000000	0.372590	7.37192e+06	-41989.1	1005.82	-29784.2	0.000000	0.000000	6.372896	0.059492	NaN	0.000000	0.001695	0.001778	28.0834	0.045317	0.002003	22.6214	-42.3018	16.0398	0.102623	0.371261	-0.755809	-0.757139	0.059492	22.6214	-0.757782	-1.199837E+10	-4.958342E-12	NaN
702	1.000000	0.382606	7.37192e+06	-41989.1	1005.82	-29784.2	0.000000	0.000000	6.382911	0.023458	NaN	0.000000	0.001684	0.001730	28.0843	0.088118	0.002128	41.4045	-21.4462	-164.837	0.013798	0.381285	-0.745793	-0.747114	0.023458	41.4045	-0.746218	-8.350956E+9	-2.808980E-12	NaN
702	1.000000	0.392565	7.37192e+06	-41989.1	1005.82	-29784.2	0.000000	0.000000	6.392870	0.039094	NaN	0.000000	0.001673	0.001784	28.0836	0.053455	0.001904	28.082	-21.9693	14.3897	-0.027240	0.391234	-0.735835	-0.737165	0.039094	28.082	-0.736879	-6.230751E+9	-6.274325E-12	NaN
702	1.000000	0.402591	7.37192e+06	-41989.1	1005.82	-29784.2	0.000000	0.000000	6.402893	-0.028082	NaN	0.000000	0.001654	0.001811	28.0839	0.142923	0.001978	72.2393	100.62	-164.584	0.003529	0.401267	-0.725809	-0.727133	-0.028082	72.2393	-0.725517	-4.362158E+9	6.437699E-12	NaN
702	1.000000	0.412627	7.37192e+06	-41989.1	1005.82	-29784.2	0.000000	0.000000	6.412931	0.008865	NaN	0.000000	0.001714	0.001720	28.0834	0.127182	0.001993	63.7995	-37.6435	11.6008	-0.042328	0.411234	-0.715773	-0.717166	0.008865	63.7995	-0.715877	-3.222838E+9	-2.750573E-12	NaN
702	1.000000	0.422583	7.37192e+06	-41989.1	1005.82	-29784.2	0.000000	0.000000	6.422888	0.037878	NaN	0.000000	0.001637	0.001791	28.084	0.023805	0.001973	12.0624	153.15	-166.449	0.028379	0.421298	-0.705817	-0.707102	0.037878	12.0624	-0.708172	-2.529882E+9	-1.497211E-11	NaN
702	1.000000	0.432594	7.37192e+06	-41989.1	1005.82	-29784.2	0.000000	0.000000	6.432897	0.004598	NaN	0.000000	0.001686	0.001783	28.0836	0.066656	0.001907	34.9451	-124.182	10.935	0.004605	0.431256	-0.695806	-0.697144	0.004598	34.9451	-0.695905	-1.720268E+9	-2.672625E-12	NaN
702	1.000000	0.442635	7.37192e+06	-41989.1	1005.82	-29784.2	0.000000	0.000000	6.442941	0.045671	NaN	0.000000	0.001644	0.001764	28.0837	0.069678	0.001880	37.0682	-143.503	-165.423	-0.015978	0.441337	-0.685764	-0.687062	0.045671	37.0682	-0.686689	-1.287234E+9	-3.548015E-11	NaN
702	1.000000	0.452626	7.37192e+06	-41989.1	1005.82	-29784.2	0.000000	0.000000	6.452930	0.019822	NaN	0.000000	0.001675	0.001730	28.0825	0.065974	0.002092	31.5397	-127.393	15.0967	-0.010404	0.451221	-0.675774	-0.677178	0.019822	31.5397	-0.676245	-9.265032E+8	-2.139449E-11	NaN
702	1.000000	0.462633	7.37192e+06	-41989.1	1005.82	-29784.2	0.000000	0.000000	6.462935	-0.034704	NaN	0.000000	0.001670	0.001770	28.0822	0.065380	0.002085	31.3572	-76.6658	-167.441	0.007232	0.461308	-0.665766	-0.667092	-0.034704	31.3572	-0.664936	-6.487397E+8	5.349458E-11	NaN
702	1.000000	0.472678	7.37192e+06	-41989.1	1005.82	-29784.2	0.000000	0.000000	6.472984	0.048412	NaN	0.000000	0.001669	0.001760	28.0821	0.052546	0.002041	25.7417	29.2128	15.4079	-0.030023	0.471281	-0.655721	-0.657119	0.048412	25.7417	-0.657132	-5.071987E+8	-9.544906E-11	NaN
702	1.000000	0.482593	7.37192e+06	-41989.1	1005.82	-29784.2	0.000000	0.000000	6.482898	0.027430	NaN	0.000000	0.001658	0.001735	28.0822	0.072159	0.001973	36.5794	38.2982	-168.046	0.003666	0.481293	-0.645807	-0.647106	0.027430	36.5794	-0.646369	-3.611199E+8	-7.595809E-11	NaN
702	1.000000	0.492642	7.37192e+06	-41989.1	1005.82	-29784.2	0.000000	0.000000	6.492945	-0.015305	NaN	0.000000	0.001685	0.001724	28.0824	0.060943	0.001954	31.1826	132.31	12.6482	0.037506	0.491255	-0.635757	-0.637145	-0.015305	31.1826	-0.635389	-2.552796E+8	5.995342E-11	NaN
702	1.000000	0.502642	7.37192e+06	-41989.1	1005.82	-29784.2	0.000000	0.000000	6.502946	0.011128	NaN	0.000000	0.001648	0.001752	28.0823	0.091804	0.002055	44.6646	-110.209	-162.776	-0.040709	0.501336	-0.625757	-0.627064	0.011128	44.6646	-0.625944	-1.893715E+8	-5.876175E-11	NaN
702	1.000000	0.512654	7.37192e+06	-41989.1	1005.82	-29784.2	0.000000	0.000000	6.512957	-0.005187	NaN	0.000000	0.001671	0.001792	28.0827	0.048573	0.001938	25.0571	175.648	11.9873	0.034989	0.511276	-0.615746	-0.617124	-0.005187	25.0571	-0.615591	-1.364620E+8	3.801069E-11	NaN
702	1.000000	0.522657	7.37192e+06	-41989.1	1005.82	-29784.2	0.000000	0.000000	6.522961	0.006725	NaN	0.000000	0.001718	0.001727	28.0824	0.025238	0.001978	12.7612	26.9951	-169.284	0.045673	0.521341	-0.605743	-0.607059	0.006725	12.7612	-0.606138	-1.011512E+8	-6.648913E-11	NaN
702	1.000000	0.532620	7.37192e+06	-41989.1	1005.82	-29784.2	0.000000	0.000000	6.532924	-9.501818E-5	NaN	0.000000	0.001701	0.001758	28.0824	0.027693	0.001998	13.857	142.633	11.4232	0.069081	0.531314	-0.595779	-0.597085	-9.501818E-5	13.857	-0.595774	-7.281977E+7	1.304840E-12	NaN
702	1.000000	0.542647	7.37192e+06	-41989.1	1005.82	-29784.2	0.000000	0.000000	6.542949	-0.024773	NaN	0.000000	0.001688	0.001754	28.0823	0.095913	0.002052	46.7325	-110.753	-164.626	-0.022883	0.541330	-0.585753	-0.587070	-0.024773	46.7325	-0.585355	-5.231379E+7	4.735428E-10	NaN
702	1.000000	0.552631	7.37192e+06	-41989.1	1005.82	-29784.2	0.000000	0.000000	6.552933	-0.042338	NaN	0.000000	0.001652	0.001734	28.0824	0.060960	0.001976	30.8531	-115.002	11.2519	0.008957	0.551326	-0.575768	-0.577074	-0.042338	30.8531	-0.574739	-3.733314E+7	1.134051E-9	NaN
702	1.000000	0.562641	7.37192e+06	-41989.1	1005.82	-29784.2	0.000000	0.000000	6.562944	-0.015372	NaN	0.000000	0.001669	0.001743	28.0826	0.052709	0.002026	26.0159	-126.877	-165.793	-0.036702	0.561358	-0.565758	-0.567042	-0.015372	26.0159	-0.565315	-2.766195E+7	5.557200E-10	NaN
702	1.000000	0.572677	7.37192e+06	-41989.1	1005.82	-29784.2	0.000000	0.000000	6.572979	-0.039335	NaN	0.000000	0.001656	0.001711	28.0824	0.043001	0.002015	21.3434	-26.5295	12.338	0.023423	0.571302	-0.555722	-0.557098	-0.039335	21.3434	-0.554340	-1.950087E+7	2.017069E-9	NaN
702	1.000000	0.582678	7.37192e+06	-41989.1	1005.82	-29784.2	0.000000	0.000000	6.582983	0.035773	NaN	0.000000	0.001694	0.001742	28.0824	0.055760	0.002005	27.8135	90.5929	-164.738	0.011283	0.581378	-0.545722	-0.547022	0.035773	27.8135	-0.546687	-1.527751E+7	-2.341543E-9	NaN
702	1.000000	0.592650	7.37192e+06	-41989.1	1005.82	-29784.2	0.000000	0.000000	6.592956	0.050546	NaN	0.000000	0.001683	0.001763	28.0839	0.025445	0.001898	13.4053	-169.677	12.5769	0.109061	0.591291	-0.535750	-0.537109	0.050546	13.4053	-0.538577	-1.179307E+7	-4.286080E-9	NaN
702	1.000000	0.602677	7.37192e+06	-41989.1	1005.82	-29784.2	0.000000	0.000000	6.602981	0.021591	NaN	0.000000	0.001678	0.001783	28.0838	0.020747	0.001975	10.5036	89.7894	-169.144	-0.012401	0.601296	-0.525723	-0.527104	0.021591	10.5036	-0.527265	-8.21451e+06	-2.628385E-9	NaN
702	1.000000	0.612703	7.37192e+06	-41989.1	1005.82	-29784.2	0.000000	0.000000	6.613005	-0.032603	NaN	0.000000	0.001676	0.001731	28.0841	0.045278	0.002095	21.6087	113.727	13.1541	-0.044002	0.611319	-0.515697	-0.517081	-0.032603	21.6087	-0.514565	-5.46992e+06	5.960408E-9	NaN
702	1.000000	0.622715	7.37192e+06	-41989.1	1005.82	-29784.2	0.000000	0.000000	6.623019	0.023528	NaN	0.000000	0.001641	0.001768	28.0838	0.018426	0.002037	9.045563	177.776	-169.187	-0.008052	0.621407	-0.505685	-0.506993	0.023528	9.045563	-0.507636	-4.38001e+06	-5.371615E-9	NaN
702	1.000000	0.632682	7.37192e+06	-41989.1	1005.82	-29784.2	0.000000	0.000000	6.632986	0.029041	NaN	0.000000	0.001631	0.001775	28.0846	0.095923	0.001895	50.6187	66.2847	15.5748	0.046904	0.631283	-0.495718	-0.497117	0.029041	50.6187	-0.496148	-3.02877e+06	-9.588384E-9	NaN
702	1.000000	0.642688	7.37192e+06	-41989.1	1005.82	-29784.2	0.000000	0.000000	6.642990	-0.034492	NaN	0.000000	0.001715	0.001732	28.0838	0.086361	0.002021	42.7314	-86.6135	-168.157	0.005364	0.641439	-0.485711	-0.486961	-0.034492	42.7314	-0.485106	-2.12312e+06	1.624575E-8	NaN
702	1.000000	0.652705	7.37192e+06	-41989.1	1005.82	-29784.2	0.000000	0.000000	6.653008	-0.006193	NaN	0.000000	0.001712	0.001780	28.0845	0.084073	0.002015	41.7248	66.1652	13.414	-0.008722	0.651285	-0.475695	-0.477115	-0.006193	41.7248	-0.475583	-1.56198e+06	3.964881E-9	NaN
702	1.000000	0.662703	7.37192e+06	-41989.1	1005.82	-29784.2	0.000000	0.000000	6.663005	-0.032133	NaN	0.000000	0.001674	0.001744	28.0838	0.116822	0.002069	56.4544	-160.712	-169.303	-0.032520	0.661430	-0.465697	-0.466969	-0.032133	56.4544	-0.465270	-1.11953e+06	2.870174E-8	NaN
702	1.000000	0.672720	7.37192e+06	-41989.1	1005.82	-29784.2	0.000000	0.000000	6.673021	-0.056289	NaN	0.000000	0.001696	0.001814	28.0843	0.103212	0.001929	53.5088	-21.9242	10.0731	-0.029352	0.671362	-0.455679	-0.457038	-0.056289	53.5088	-0.454890	-800160	7.034708E-8	NaN
702	1.000000	0.682709	7.37192e+06	-41989.1	1005.82	-29784.2	0.000000	0.000000	6.683015	0.053051	NaN	0.000000	0.001701	0.001807	28.0838	0.036570	0.002025	18.0577	-143.976	-165.482	-0.033141	0.681428	-0.445690	-0.446971	0.053051	18.0577	-0.447894	-637787	-8.318018E-8	NaN
702	1.000000	0.692700	7.37192e+06	-41989.1	1005.82	-29784.2	0.000000	0.000000	6.693003	-0.022608	NaN	0.000000	0.001672	0.001784	28.0841	0.104072	0.002029	51.2884	-32.8515	12.8092	-0.111609	0.691340	-0.435699	-0.437060	-0.022608	51.2884	-0.435369	-424586	5.324707E-8	NaN
702	1.000000	0.702707	7.37192e+06	-41989.1	1005.82	-29784.2	0.000000	0.000000	6.703009	-0.024899	NaN	0.000000	0.001694	0.001759	28.0838	0.017504	0.001931	9.065374	165.904	-167.924	0.069025	0.701464	-0.425693	-0.426936	-0.024899	9.065374	-0.423633	-289680	8.595201E-8	NaN
702	1.000000	0.712715	7.37192e+06	-41989.1	1005.82	-29784.2	0.000000	0.000000	6.713021	0.057429	NaN	0.000000	0.001703	0.001772	28.0843	0.127834	0.001983	64.4749	-147.361	17.0748	0.013378	0.711411	-0.415685	-0.416988	0.057429	64.4749	-0.416353	-228381	-2.514589E-7	NaN
702	1.000000	0.722739	7.37192e+06	-41989.1	1005.82	-29784.2	0.000000	0.000000	6.723043	0.030268	NaN	0.000000	0.001699	0.001777	28.0836	0.029620	0.002117	13.9933	-85.6406	-164.911	0.021284	0.721437	-0.405661	-0.406963	0.030268	13.9933	-0.407283	-169728	-1.783338E-7	NaN
702	1.000000	0.732715	7.37192e+06	-41989.1	1005.82	-29784.2	0.000000	0.000000	6.733017	-0.022791	NaN	0.000000	0.001660	0.001759	28.0828	0.100992	0.002070	48.7773	16.3303	11.7342	-0.112166	0.731354	-0.395685	-0.397045	-0.022791	48.7773	-0.395334	-114660	1.987733E-7	NaN
702	1.000000	0.742747	7.37192e+06	-41989.1	1005.82	-29784.2	0.000000	0.000000	6.743051	0.016507	NaN	0.000000	0.001682	0.001778	28.0828	0.061720	0.002052	30.0734	176.659	-167.496	0.043634	0.741438	-0.385653	-0.386962	0.016507	30.0734	-0.386064	-84495	-1.953558E-7	NaN
702	1.000000	0.752762	7.37192e+06	-41989.1	1005.82	-29784.2	0.000000	0.000000	6.753068	0.056269	NaN	0.000000	0.001656	0.001734	28.0828	0.062259	0.002058	30.2465	-127.034	12.198	0.089295	0.751350	-0.375638	-0.377049	0.056269	30.2465	-0.377033	-62703.1	-8.973906E-7	NaN
702	1.000000	0.762723	7.37192e+06	-41989.1	1005.82	-29784.2	0.000000	0.000000	6.763025	-0.038938	NaN	0.000000	0.001668	0.001764	28.0829	0.139582	0.002129	65.5646	-102.926	-165.403	0.013479	0.761444	-0.365676	-0.366955	-0.038938	65.5646	-0.365231	-42402.1	9.183048E-7	NaN
702	1.000000	0.772749	7.37192e+06	-41989.1	1005.82	-29784.2	0.000000	0.000000	6.773051	-0.020573	NaN	0.000000	0.001685	0.001760	28.0829	0.068000	0.001992	34.1444	-87.3955	10.8548	0.009828	0.771447	-0.355651	-0.356953	-0.020573	34.1444	-0.355199	-30365.6	6.774977E-7	NaN
702	1.000000	0.782721	7.37192e+06	-41989.1	1005.82	-29784.2	0.000000	0.000000	6.783028	0.068902	NaN	0.000000	0.001721	0.001758	28.0831	0.012133	0.001842	6.586463	-135.888	-167.423	-0.007621	0.781481	-0.345678	-0.346919	0.068902	6.586463	-0.353524	-28715.5	-2.399483E-6	NaN
702	1.000000	0.792765	7.37192e+06	-41989.1	1005.82	-29784.2	0.000000	0.000000	6.793071	0.051610	NaN	0.000000	0.001680	0.001775	28.0829	0.062674	0.001985	31.5811	-150.589	12.0585	-0.036001	0.791414	-0.335634	-0.336985	0.051610	31.5811	-0.336860	-16434.3	-3.140389E-6	NaN
702	1.000000	0.802750	7.37192e+06	-41989.1	1005.82	-29784.2	0.000000	0.000000	6.803055	0.044489	NaN	0.000000	0.001694	0.001728	28.0827	0.072036	0.002030	35.4878	174.589	-167.811	0.072489	0.801448	-0.325650	-0.326952	0.044489	35.4878	-0.326590	-11627.1	-3.826330E-6	NaN
702	1.000000	0.812782	7.37192e+06	-41989.1	1005.82	-29784.2	0.000000	0.000000	6.813085	-0.009713	NaN	0.000000	0.001682	0.001733	28.0828	0.041070	0.001933	21.2482	54.3789	15.3468	-0.051179	0.811346	-0.315618	-0.317053	-0.009713	21.2482	-0.315275	-7925.06	1.225619E-6	NaN
702	1.000000	0.822755	7.37192e+06	-41989.1	1005.82	-29784.2	0.000000	0.000000	6.823060	0.046715	NaN	0.000000	0.001708	0.001762	28.0829	0.027821	0.001997	13.9347	-138.116	-168.123	0.069040	0.821517	-0.305645	-0.306883	0.046715	13.9347	-0.308159	-6220.1	-7.510277E-6	NaN
702	1.000000	0.832774	7.37192e+06	-41989.1	1005.82	-29784.2	0.000000	0.000000	6.833080	0.061646	NaN	0.000000	0.001719	0.001751	28.0829	0.055709	0.001987	28.0392	167.585	13.5087	0.011835	0.831394	-0.295626	-0.297006	0.061646	28.0392	-0.297275	-4285.81	-1.438387E-5	NaN
702	1.000000	0.842764	7.37192e+06	-41989.1	1005.82	-29784.2	0.000000	0.000000	6.843071	0.079105	NaN	0.000000	0.001678	0.001741	28.0831	0.045849	0.001858	24.6706	-0.814268	-165.506	0.063229	0.841468	-0.285635	-0.286932	0.079105	24.6706	-0.288040	-3118.33	-2.536768E-5	NaN
702	1.000000	0.852771	7.37192e+06	-41989.1	1005.82	-29784.2	0.000000	0.000000	6.853074	-0.014868	NaN	0.000000	0.001671	0.001753	28.0834	0.036340	0.002031	17.8911	-9.046336	11.9613	-0.019902	0.851443	-0.275629	-0.276956	-0.014868	17.8911	-0.275005	-1983.73	7.495145E-6	NaN
702	1.000000	0.862788	7.37192e+06	-41989.1	1005.82	-29784.2	0.000000	0.000000	6.863093	0.034216	NaN	0.000000	0.001769	0.001745	28.0844	0.084024	0.001988	42.2691	102.162	-164.421	0.027154	0.861486	-0.265611	-0.266914	0.034216	42.2691	-0.266219	-1458.74	-2.345570E-5	NaN
702	1.000000	0.872751	7.37192e+06	-41989.1	1005.82	-29784.2	0.000000	0.000000	6.873054	-0.012849	NaN	0.000000	0.001800	0.001759	28.0842	0.083745	0.002132	39.2815	-141.95	15.6782	0.025352	0.871493	-0.255648	-0.256906	-0.012849	39.2815	-0.255403	-996.137	1.289835E-5	NaN
702	1.000000	0.882799	7.37192e+06	-41989.1	1005.82	-29784.2	0.000000	0.000000	6.883104	0.035347	NaN	0.000000	0.001786	0.001750	28.0845	0.109972	0.001930	56.9702	140.509	-164.58	0.007535	0.881481	-0.245601	-0.246919	0.035347	56.9702	-0.246066	-714.51	-4.947013E-5	NaN
702	1.000000	0.892800	7.37192e+06	-41989.1	1005.82	-29784.2	0.000000	0.000000	6.893105	0.019849	NaN	0.000000	0.001756	0.001726	28.0843	0.147166	0.001884	78.1336	57.951	10.2082	0.001461	0.891468	-0.235599	-0.236932	0.019849	78.1336	-0.235790	-493.908	-4.018686E-5	NaN
702	1.000000	0.902820	7.37192e+06	-41989.1	1005.82	-29784.2	0.000000	0.000000	6.903123	0.003053	NaN	0.000000	0.001753	0.001766	28.0842	0.099402	0.002003	49.6363	-155.662	-166.673	0.010228	0.901487	-0.225580	-0.226913	0.003053	49.6363	-0.225626	-341.409	-8.943671E-6	NaN
702	1.000000	0.912793	7.37192e+06	-41989.1	1005.82	-29784.2	0.000000	0.000000	6.913097	0.011560	NaN	0.000000	0.001773	0.001763	28.0842	0.033404	0.002063	16.1938	-112.884	11.4692	0.029227	0.911481	-0.215607	-0.216918	0.011560	16.1938	-0.216142	-240.922	-4.798419E-5	NaN
702	1.000000	0.922821	7.37192e+06	-41989.1	1005.82	-29784.2	0.000000	0.000000	6.923125	-0.005286	NaN	0.000000	0.001797	0.001750	28.0845	0.076693	0.002001	38.3332	69.7916	-167.77	-0.008542	0.921478	-0.205578	-0.206922	-0.005286	38.3332	-0.205475	-161.92	3.264500E-5	NaN
702	1.000000	0.932813	7.37192e+06	-41989.1	1005.82	-29784.2	0.000000	0.000000	6.933115	-0.027839	NaN	0.000000	0.001780	0.001767	28.0842	0.077266	0.001984	38.9408	124.623	14.9629	0.010574	0.931450	-0.195587	-0.196949	-0.027839	38.9408	-0.195051	-109.156	0.000255	NaN
702	1.000000	0.942824	7.37192e+06	-41989.1	1005.82	-29784.2	0.000000	0.000000	6.943127	-0.011382	NaN	0.000000	0.001761	0.001747	28.0842	0.045416	0.001924	23.6058	30.4949	-165.971	-0.021238	0.941551	-0.185576	-0.186848	-0.011382	23.6058	-0.185214	-74.7718	0.000152	NaN
702	1.000000	0.952847	7.37192e+06	-41989.1	1005.82	-29784.2	0.000000	0.000000	6.953152	0.016020	NaN	0.000000	0.001718	0.001722	28.0842	0.023504	0.002056	11.4305	-50.5155	12.992	0.030403	0.951483	-0.175552	-0.176917	0.016020	11.4305	-0.176603	-53.3935	-0.000300	NaN
702	1.000000	0.962792	7.37192e+06	-41989.1	1005.82	-29784.2	0.000000	0.000000	6.963097	0.033715	NaN	0.000000	0.001759	0.001709	28.0842	0.074645	0.001961	38.0635	146.658	-166.364	0.010126	0.961566	-0.165608	-0.166834	0.033715	38.0635	-0.166272	-35.3683	-0.000953	NaN
702	1.000000	0.972818	7.37192e+06	-41989.1	1005.82	-29784.2	0.000000	0.000000	6.973121	-0.017958	NaN	0.000000	0.001754	0.001748	28.0841	0.103327	0.002018	51.2055	23.3978	15.6732	-0.032116	0.971457	-0.155581	-0.156943	-0.017958	51.2055	-0.155318	-22.6102	0.000794	NaN
702	1.000000	0.982816	7.37192e+06	-41989.1	1005.82	-29784.2	0.000000	0.000000	6.983117	-0.046681	NaN	0.000000	0.001648	0.001764	28.0844	0.004081	0.001901	2.147053	-149.986	-164.584	-0.109116	0.981527	-0.145584	-0.146873	-0.046681	2.147053	-0.129278	-7.378349	0.006327	NaN
702	1.000000	0.992825	7.37192e+06	-41989.1	1005.82	-29784.2	0.000000	0.000000	6.993127	-0.031765	NaN	0.000000	0.001700	0.001723	28.084	0.072544	0.001942	37.3533	-71.5155	14.0828	0.005960	0.991496	-0.135575	-0.136904	-0.031765	37.3533	-0.134937	-9.486164	0.003349	NaN
702	1.000000	1.002831	7.37192e+06	-41989.1	1005.82	-29784.2	0.000000	0.000000	7.003137	0.049724	NaN	0.000000	0.001673	0.001745	28.0831	0.095310	0.001914	49.8027	119.898	-167.12	-0.003972	1.001535	-0.125568	-0.126864	0.049724	49.8027	-0.126317	-6.456436	-0.007701	NaN
702	1.000000	1.012837	7.37192e+06	-41989.1	1005.82	-29784.2	0.000000	0.000000	7.013140	-0.025298	NaN	0.000000	0.001682	0.001763	28.0827	0.092248	0.002083	44.2875	161.214	11.7757	0.089930	1.011443	-0.115563	-0.116956	-0.025298	44.2875	-0.115134	-3.844772	0.006580	NaN
702	1.000000	1.022841	7.37192e+06	-41989.1	1005.82	-29784.2	0.000000	0.000000	7.023146	0.036412	NaN	0.000000	0.001667	0.001726	28.0829	0.133130	0.002100	63.397	-78.5681	-165.949	0.052485	1.021517	-0.105559	-0.106882	0.036412	63.397	-0.105990	-2.468890	-0.014748	NaN
702	1.000000	1.032870	7.37192e+06	-41989.1	1005.82	-29784.2	0.000000	0.000000	7.033175	0.033053	NaN	0.000000	0.001691	0.001748	28.0828	0.069179	0.002081	33.236	32.1142	14.2256	0.050801	1.031475	-0.095529	-0.096924	0.033053	33.236	-0.096275	-1.507873	-0.021920	NaN
702	1.000000	1.042840	7.37192e+06	-41989.1	1005.82	-29784.2	0.000000	0.000000	7.043144	-0.001153	NaN	0.000000	0.001636	0.001735	28.083	0.066502	0.002053	32.3896	-62.1709	-164.876	-0.007441	1.041522	-0.085559	-0.086877	-0.001153	32.3896	-0.085533	-0.846353	0.001363	NaN
702	1.000000	1.052839	7.37192e+06	-41989.1	1005.82	-29784.2	0.000000	0.000000	7.053142	-0.013981	NaN	0.000000	0.001683	0.001720	28.0826	0.059640	0.002037	29.279	-71.6446	13.9818	-0.055652	1.051486	-0.075561	-0.076914	-0.013981	29.279	-0.075202	-0.467468	0.029908	NaN
702	1.000000	1.062847	7.37192e+06	-41989.1	1005.82	-29784.2	0.000000	0.000000	7.063153	0.039393	NaN	0.000000	0.001662	0.001728	28.0832	0.103852	0.002043	50.8392	-37.6265	-167.088	0.097823	1.061532	-0.065552	-0.066868	0.039393	50.8392	-0.066133	-0.267851	-0.147069	NaN
702	1.000000	1.072908	7.37192e+06	-41989.1	1005.82	-29784.2	0.000000	0.000000	7.073212	0.030888	NaN	0.000000	0.001676	0.001731	28.0829	0.042246	0.002070	20.4115	-171.575	17.1216	0.026027	1.071499	-0.055492	-0.056901	0.030888	20.4115	-0.056627	-0.143785	-0.214819	NaN
702	1.000000	1.082885	7.37192e+06	-41989.1	1005.82	-29784.2	0.000000	0.000000	7.083191	0.044173	NaN	0.000000	0.001696	0.001721	28.0827	0.128407	0.002070	62.044	31.1128	-168.91	0.024351	1.081553	-0.045514	-0.046846	0.044173	62.044	-0.046048	-0.069190	-0.638429	NaN
702	1.000000	1.092879	7.37192e+06	-41989.1	1005.82	-29784.2	0.000000	0.000000	7.093193	0.236850	NaN	0.000000	0.001676	0.001678	28.0825	0.226836	0.002035	111.493	28.6942	12.7749	0.236987	1.091538	-0.035520	-0.036861	0.236850	111.493	-0.037113	-0.037005	-6.400536	NaN
702	1.000000	1.102862	7.37192e+06	-41989.1	1005.82	-29784.2	0.000000	0.000000	7.103198	0.791133	NaN	0.000000	0.001707	0.001704	28.0827	0.714746	0.002016	354.535	25.1804	-165.955	0.707113	1.101592	-0.025538	-0.026808	0.791133	354.535	-0.027211	-0.019305	-40.9804	NaN
702	1.000000	1.112859	7.37192e+06	-41989.1	1005.82	-29784.2	0.000000	0.000000	7.113219	1.384176	NaN	0.000000	0.001696	0.001741	28.0829	1.438501	0.001988	723.56	31.723	8.523610	1.300898	1.111498	-0.015541	-0.016902	1.384176	723.56	-0.016976	-0.010495	-131.89	NaN
702	1.000000	1.122895	7.37192e+06	-41989.1	1005.82	-29784.2	0.000000	0.000000	7.123274	1.850945	NaN	0.000000	0.001696	0.001753	28.0824	2.347307	0.002005	1170.51	30.8467	-169.779	1.776463	1.121578	-0.005505	-0.006821	1.850945	1170.51	-0.006691	-0.004455	-415.447	NaN
702	1.000000	1.132877	7.37192e+06	-41989.1	1005.82	-29784.2	0.000000	0.000000	7.133487	7.443649	NaN	0.000000	0.001686	0.001718	28.083	8.252755	0.001724	4785.67	19.0319	4.147985	6.147640	1.131496	0.004478	0.003096	7.443649	4785.67	0.003311	0.002643	2815.98	85042.9
702	2.000000	1.136428	7.37192e+06	-41989.1	1005.82	-29784.2	0.000000	0.000000	7.137144	10.0226	NaN	0.000000	0.001689	0.001725	28.0839	11.7084	0.001629	7185.6	13.9836	-179.978	10.1533	1.136092	0.008029	0.007692	10.0226	7185.6	0.006983	0.006017	1665.84	84637.4
702	2.000000	1.138922	7.37192e+06	-41989.1	1005.82	-29784.2	0.000000	0.000000	7.139789	13.7079	NaN	0.000000	0.001671	0.001705	28.0838	14.4294	0.001662	8680.2	5.359768	6.012480	13.208	1.138578	0.010522	0.010178	13.7079	8680.2	0.009338	0.008455	1621.27	86247.2
702	2.000000	1.141400	7.37192e+06	-41989.1	1005.82	-29784.2	0.000000	0.000000	7.142456	18.3249	NaN	0.000000	0.001688	0.001723	28.0837	18.2418	0.001700	10731.5	10.2645	179.998	18.9974	1.141114	0.013000	0.012715	18.3249	10731.5	0.011719	0.011156	1642.67	92830.1
702	2.000000	1.143906	7.37192e+06	-41989.1	1005.82	-29784.2	0.000000	0.000000	7.145287	26.1998	NaN	0.000000	0.001691	0.001708	28.0839	21.5081	0.001779	12089.9	9.196581	-0.191308	24.6541	1.143494	0.015507	0.015095	26.1998	12089.9	0.013881	0.013823	1895.43	93951.1
702	2.000000	1.146352	7.37192e+06	-41989.1	1005.82	-29784.2	0.000000	0.000000	7.148109	35.3513	NaN	0.000000	0.001690	0.001722	28.0839	24.1723	0.001619	14934	6.836017	-179.965	34.9951	1.145957	0.017953	0.017557	35.3513	14934	0.016177	0.016887	2093.35	104995
702	2.000000	1.148865	7.37192e+06	-41989.1	1005.82	-29784.2	0.000000	0.000000	7.150808	39.8816	NaN	0.000000	0.001653	0.001778	28.0838	27.9764	0.001719	16277.6	7.994859	-2.421289	38.4794	1.148486	0.020466	0.020086	39.8816	16277.6	0.018628	0.020432	1951.89	104041
702	2.000000	1.151365	7.37192e+06	-41989.1	1005.82	-29784.2	0.000000	0.000000	7.153571	46.2964	NaN	0.000000	0.001738	0.001773	28.0837	30.9158	0.001756	17602.4	4.243859	-179.058	45.1728	1.151056	0.022965	0.022656	46.2964	17602.4	0.020993	0.024127	1918.9	103537
702	2.000000	1.153819	7.37192e+06	-41989.1	1005.82	-29784.2	0.000000	0.000000	7.156493	57.6641	NaN	0.000000	0.001685	0.001747	28.0838	34.0068	0.001851	18370.7	7.656878	-2.137715	54.8212	1.153443	0.025420	0.025043	57.6641	18370.7	0.023065	0.027590	2090.03	101047
702	2.000000	1.156319	7.37192e+06	-41989.1	1005.82	-29784.2	0.000000	0.000000	7.159358	66.5664	NaN	0.000000	0.001695	0.001763	28.0839	36.0095	0.001793	20078.4	3.948805	-179.664	65.952	1.156029	0.027919	0.027629	66.5664	20078.4	0.025432	0.031807	2092.82	102859
702	2.000000	1.158812	7.37192e+06	-41989.1	1005.82	-29784.2	0.000000	0.000000	7.162365	79.0682	NaN	0.000000	0.001714	0.001791	28.0841	39.8035	0.001762	22585.1	7.817410	-5.723025	77.3475	1.158423	0.030413	0.030023	79.0682	22585.1	0.027787	0.036282	2179.29	108331
702	2.000000	1.161325	7.37192e+06	-41989.1	1005.82	-29784.2	0.000000	0.000000	7.165497	94.1435	NaN	0.000000	0.001722	0.001772	28.0839	43.6689	0.001769	24684.1	4.979955	176.402	93.2156	1.161033	0.032925	0.032633	94.1435	24684.1	0.030065	0.040878	2303.05	111544
702	2.000000	1.163772	7.37192e+06	-41989.1	1005.82	-29784.2	0.000000	0.000000	7.168511	107.923	NaN	0.000000	0.001703	0.001727	28.084	45.1299	0.001722	26201.6	4.518614	-3.250270	102.964	1.163381	0.035373	0.034981	107.923	26201.6	0.032283	0.045610	2366.24	112091
702	2.000000	1.166285	7.37192e+06	-41989.1	1005.82	-29784.2	0.000000	0.000000	7.171464	118.621	NaN	0.000000	0.001693	0.001773	28.0841	48.3143	0.001878	25730.4	4.735577	176.676	117.631	1.165969	0.037886	0.037569	118.621	25730.4	0.034428	0.050422	2352.54	104691
702	2.000000	1.168752	7.37192e+06	-41989.1	1005.82	-29784.2	0.000000	0.000000	7.174463	131.549	NaN	0.000000	0.001681	0.001779	28.0826	51.2784	0.001673	30643.8	4.666255	-5.470131	127.952	1.168435	0.040353	0.040035	131.549	30643.8	0.037133	0.056830	2314.8	117443
702	2.000000	1.171326	7.37192e+06	-41989.1	1005.82	-29784.2	0.000000	0.000000	7.177751	148.954	NaN	0.000000	0.001693	0.001729	28.083	54.8731	0.001893	28991.2	4.975982	175.458	148.477	1.171030	0.042926	0.042630	148.954	28991.2	0.039073	0.061654	2415.97	106674
702	2.000000	1.173853	7.37192e+06	-41989.1	1005.82	-29784.2	0.000000	0.000000	7.180854	162.956	NaN	0.000000	0.001709	0.001735	28.0832	56.7471	0.001802	31490.5	5.438566	-6.160880	162.273	1.173525	0.045453	0.045126	162.956	31490.5	0.041572	0.068155	2390.98	110206
702	2.000000	1.176289	7.37192e+06	-41989.1	1005.82	-29784.2	0.000000	0.000000	7.183825	175.995	NaN	0.000000	0.001707	0.001721	28.0828	59.1557	0.001728	34242	7.317416	170.559	176.367	1.175998	0.047889	0.047599	175.995	34242	0.044034	0.074869	2350.7	114335
702	2.000000	1.178765	7.37192e+06	-41989.1	1005.82	-29784.2	0.000000	0.000000	7.187140	196.371	NaN	0.000000	0.001677	0.001749	28.0831	61.821	0.001874	32996.4	5.823271	-6.918462	194.069	1.178419	0.050366	0.050019	196.371	32996.4	0.045902	0.080169	2449.46	106472
702	2.000000	1.181354	7.37192e+06	-41989.1	1005.82	-29784.2	0.000000	0.000000	7.190374	212.092	NaN	0.000000	0.001686	0.001727	28.0828	64.0331	0.001853	34557.4	5.390182	173.205	214.28	1.180918	0.052955	0.052518	212.092	34557.4	0.048352	0.087386	2427.07	106806
702	2.000000	1.183780	7.37192e+06	-41989.1	1005.82	-29784.2	0.000000	0.000000	7.193640	232.512	NaN	0.000000	0.001668	0.001748	28.0832	65.6393	0.001869	35124	4.287096	-5.573077	229.669	1.183448	0.055381	0.055048	232.512	35124	0.050416	0.093703	2481.37	104834
702	2.000000	1.186270	7.37192e+06	-41989.1	1005.82	-29784.2	0.000000	0.000000	7.196461	240.57	NaN	0.000000	0.001706	0.001773	28.0828	66.1791	0.001858	35617	2.740297	175.315	238.21	1.186068	0.057870	0.057668	240.57	35617	0.052805	0.101279	2375.31	102252
702	2.000000	1.188723	7.37192e+06	-41989.1	1005.82	-29784.2	0.000000	0.000000	7.199734	260.538	NaN	0.000000	0.001684	0.001819	28.0829	69.2084	0.001804	38356.8	1.017488	-3.583997	255.999	1.188424	0.060323	0.060024	260.538	38356.8	0.055229	0.109259	2384.6	106020
702	2.000000	1.191332	7.37192e+06	-41989.1	1005.82	-29784.2	0.000000	0.000000	7.202824	272.254	NaN	0.000000	0.001678	0.001775	28.0826	71.735	0.001661	43194.6	4.107713	172.483	273.773	1.191009	0.062932	0.062609	272.254	43194.6	0.058205	0.119450	2279.23	114185
702	2.000000	1.193737	7.37192e+06	-41989.1	1005.82	-29784.2	0.000000	0.000000	7.206104	293.53	NaN	0.000000	0.001681	0.001780	28.0834	74.3073	0.001890	39318.2	6.116842	-7.998072	288.27	1.193366	0.065337	0.064966	293.53	39318.2	0.059738	0.124871	2350.67	101657
702	2.000000	1.196150	7.37192e+06	-41989.1	1005.82	-29784.2	0.000000	0.000000	7.209271	311.851	NaN	0.000000	0.001723	0.001766	28.0827	75.7167	0.001741	43478.4	6.183913	170.779	306.033	1.195901	0.067751	0.067501	311.851	43478.4	0.062371	0.134449	2319.48	108335
702	2.000000	1.198763	7.37192e+06	-41989.1	1005.82	-29784.2	0.000000	0.000000	7.212904	336.69	NaN	0.000000	0.001712	0.001776	28.0832	77.9717	0.001784	43700.7	2.422069	-5.661818	332.243	1.198456	0.070364	0.070056	336.69	43700.7	0.064585	0.142762	2358.39	105671
702	2.000000	1.201167	7.37192e+06	-41989.1	1005.82	-29784.2	0.000000	0.000000	7.216238	359.324	NaN	0.000000	0.001722	0.001775	28.0827	80.7039	0.001721	46900.2	4.669239	171.398	353.794	1.200893	0.072767	0.072493	359.324	46900.2	0.067021	0.152182	2361.15	109841
702	2.000000	1.203792	7.37192e+06	-41989.1	1005.82	-29784.2	0.000000	0.000000	7.219771	381.402	NaN	0.000000	0.001700	0.001764	28.0844	83.2149	0.001834	45381.2	7.278191	-10.5554	379.792	1.203355	0.075392	0.074955	381.402	45381.2	0.069089	0.160402	2377.79	103525
702	2.000000	1.206254	7.37192e+06	-41989.1	1005.82	-29784.2	0.000000	0.000000	7.222911	397.91	NaN	0.000000	0.001709	0.001793	28.0843	84.6468	0.001729	48962.8	7.019878	169.261	397.963	1.205794	0.077854	0.077394	397.91	48962.8	0.071759	0.171316	2322.66	108079
702	2.000000	1.208741	7.37192e+06	-41989.1	1005.82	-29784.2	0.000000	0.000000	7.226232	418.191	NaN	0.000000	0.001709	0.001762	28.0852	87.494	0.001824	47978.5	3.970993	-7.793866	416.071	1.208398	0.080342	0.079998	418.191	47978.5	0.073804	0.179907	2324.48	103346
702	2.000000	1.211189	7.37192e+06	-41989.1	1005.82	-29784.2	0.000000	0.000000	7.229688	442.725	NaN	0.000000	0.001748	0.001735	28.0841	89.7957	0.001840	48810.5	3.228898	173.098	439.901	1.210831	0.082789	0.082431	442.725	48810.5	0.075987	0.189289	2338.88	102500
702	2.000000	1.213734	7.37192e+06	-41989.1	1005.82	-29784.2	0.000000	0.000000	7.233241	467.246	NaN	0.000000	0.001754	0.001713	28.0847	91.7818	0.001770	51845.9	6.489928	-10.4026	464.153	1.213326	0.085335	0.084927	467.246	51845.9	0.078576	0.200712	2327.95	105731
702	2.000000	1.216184	7.37192e+06	-41989.1	1005.82	-29784.2	0.000000	0.000000	7.236504	487.03	NaN	0.000000	0.001726	0.001700	28.084	94.6797	0.001932	49018.3	6.434853	169.339	482.955	1.215784	0.087785	0.087384	487.03	49018.3	0.080333	0.208642	2334.29	98046.3
702	2.000000	1.218749	7.37192e+06	-41989.1	1005.82	-29784.2	0.000000	0.000000	7.239825	505.44	NaN	0.000000	0.001714	0.001725	28.0845	96.2681	0.001773	54293.8	4.909580	-9.830070	503.187	1.218405	0.090349	0.090006	505.44	54293.8	0.083367	0.222675	2269.86	105121
702	2.000000	1.221257	7.37192e+06	-41989.1	1005.82	-29784.2	0.000000	0.000000	7.243165	525.674	NaN	0.000000	0.001711	0.001707	28.0844	98.3647	0.001792	54877.7	4.239656	171.103	528.563	1.220931	0.092857	0.092531	525.674	54877.7	0.085673	0.233621	2250.11	103732
702	2.000000	1.223758	7.37192e+06	-41989.1	1005.82	-29784.2	0.000000	0.000000	7.246511	546.243	NaN	0.000000	0.001667	0.001760	28.0845	100.337	0.001760	57008.5	6.794567	-11.9321	542.205	1.223370	0.095358	0.094970	546.243	57008.5	0.088172	0.245765	2222.63	105064
702	2.000000	1.226206	7.37192e+06	-41989.1	1005.82	-29784.2	0.000000	0.000000	7.249873	568.489	NaN	0.000000	0.001706	0.001711	28.0841	101.327	0.001872	54140.9	4.852536	170.363	566.054	1.225931	0.097806	0.097532	568.489	54140.9	0.089931	0.254484	2233.89	98054.7
702	2.000000	1.228694	7.37192e+06	-41989.1	1005.82	-29784.2	0.000000	0.000000	7.253424	594.333	NaN	0.000000	0.001709	0.001702	28.0848	104.31	0.001918	54375.5	4.939946	-9.605043	589.205	1.228271	0.100294	0.099871	594.333	54375.5	0.092097	0.265414	2239.27	96430.4
702	2.000000	1.231152	7.37192e+06	-41989.1	1005.82	-29784.2	0.000000	0.000000	7.256899	619.085	NaN	0.000000	0.001723	0.001727	28.0846	105.582	0.001912	55207.2	6.702123	168.414	613.737	1.230868	0.102752	0.102468	619.085	55207.2	0.094342	0.276971	2235.2	95841.1
702	2.000000	1.232707	7.37192e+06	-41989.1	1005.82	-29784.2	0.000000	0.000000	7.258458	619.157	NaN	0.000000	0.001694	0.001745	28.0846	105.2	0.001732	60752.1	5.446696	-11.4257	614.523	1.232387	0.104308	0.103988	619.157	60752.1	0.096664	0.289169	2141.16	103219