File: remote_trans/data/nanoindenter/0828-1/data/Data_2025-08-06,11h17m57s/2025-07-22_16-23-58_1_596.txt
2025-07-22, 16:23:58, 1
Index	Phase	Displacement	Time	Pos X	Pos Y	Pos Z	Rot A	Rot B	Piezo Z	Force A	Force B	Gripper	Voltage A	Voltage B	Temperature	Amplitude force	Amplitude pos	Stiffness	Phase shift	Phase excitation	Force A raw	Displacement raw	HMax	HMax raw	Real Force	Real Stiffness	Contact Depth	Area	Hardness	Reduced Mod.
[#]	[#]	[um]	[s]	[um]	[um]	[um]	[m°]	[m°]	[um]	[uN]	[uN]	[V]	[V]	[V]	[°C]	[uN]	[um]	[N/m]	[°]	[°]	[uN]	[um]	[um]	[um]	[uN]	[N/m]	[um]	[um^2]	[MPa]	[MPa]
596	1.000000	0.002778	7.37088e+06	-47289.1	1005.82	-29766.5	0.000000	0.000000	6.002794	0.049173	NaN	0.000000	0.001557	0.001672	28.0821	0.031540	0.000989	31.8834	-116.84	-164.548	0.017923	0.001524	-1.075779	-1.077033	0.049173	31.8834	-1.076936	-2.456768E+14	-2.001536E-16	NaN
596	1.000000	0.010757	7.37088e+06	-47289.1	1005.82	-29766.5	0.000000	0.000000	6.010769	-0.028529	NaN	0.000000	0.001560	0.001681	28.082	0.106182	0.000921	115.246	-123.904	-159.007	-0.000812	0.009479	-1.067801	-1.069079	-0.028529	115.246	-1.067615	-1.841388E+14	1.549301E-16	NaN
596	1.000000	0.018756	7.37088e+06	-47289.1	1005.82	-29766.5	0.000000	0.000000	6.018767	-0.080201	NaN	0.000000	0.001523	0.001672	28.0812	0.036657	0.001800	20.367	50.8805	-168.283	0.003579	0.017442	-1.059801	-1.061116	-0.080201	20.367	-1.056848	-1.319647E+14	6.077473E-16	NaN
596	1.000000	0.026763	7.37088e+06	-47289.1	1005.82	-29766.5	0.000000	0.000000	6.026776	-0.010503	NaN	0.000000	0.001544	0.001681	28.0809	0.048763	0.001869	26.0837	103.363	-167.407	0.056434	0.025401	-1.051795	-1.053157	-0.010503	26.0837	-1.051493	-1.118093E+14	9.393605E-17	NaN
596	1.000000	0.034743	7.37088e+06	-47289.1	1005.82	-29766.5	0.000000	0.000000	6.034757	0.011700	NaN	0.000000	0.001533	0.001689	28.0807	0.022823	0.002079	10.9801	145.389	-170.423	0.031662	0.033434	-1.043815	-1.045123	0.011700	10.9801	-1.044614	-9.036643E+13	-1.294724E-16	NaN
596	1.000000	0.042763	7.37088e+06	-47289.1	1005.82	-29766.5	0.000000	0.000000	6.042775	-0.054436	NaN	0.000000	0.001520	0.001699	28.0808	0.134269	0.001844	72.8214	159.414	-167.049	-0.036167	0.041438	-1.035794	-1.037119	-0.054436	72.8214	-1.035234	-6.758805E+13	8.054059E-16	NaN
596	1.000000	0.050755	7.37088e+06	-47289.1	1005.82	-29766.5	0.000000	0.000000	6.050768	-0.002485	NaN	0.000000	0.001533	0.001751	28.0808	0.129164	0.001915	67.4498	46.5987	-163.289	-0.043441	0.049395	-1.027803	-1.029163	-0.002485	67.4498	-1.027775	-5.364775E+13	4.631671E-17	NaN
596	1.000000	0.058725	7.37088e+06	-47289.1	1005.82	-29766.5	0.000000	0.000000	6.058738	0.001454	NaN	0.000000	0.001522	0.001728	28.0807	0.106301	0.002009	52.922	-87.0692	-168.577	-0.093565	0.057441	-1.019833	-1.021117	0.001454	52.922	-1.019853	-4.197376E+13	-3.464708E-17	NaN
596	1.000000	0.066737	7.37088e+06	-47289.1	1005.82	-29766.5	0.000000	0.000000	6.066751	0.014886	NaN	0.000000	0.001503	0.001733	28.0806	0.063477	0.002000	31.7378	111.501	-165.126	0.000735	0.065468	-1.011821	-1.013089	0.014886	31.7378	-1.012173	-3.308434E+13	-4.499556E-16	NaN
596	1.000000	0.074773	7.37088e+06	-47289.1	1005.82	-29766.5	0.000000	0.000000	6.074785	-0.056831	NaN	0.000000	0.001522	0.001720	28.0806	0.050852	0.002002	25.4062	150.946	-164.886	-0.048361	0.073445	-1.003784	-1.005113	-0.056831	25.4062	-1.002106	-2.421742E+13	2.346718E-15	NaN
596	1.000000	0.082764	7.37088e+06	-47289.1	1005.82	-29766.5	0.000000	0.000000	6.082776	-0.036722	NaN	0.000000	0.001549	0.001730	28.0804	0.019279	0.001959	9.840727	-61.2999	-166.068	-0.084098	0.081482	-0.995793	-0.997076	-0.036722	9.840727	-0.992994	-1.825736E+13	2.011329E-15	NaN
596	1.000000	0.090752	7.37088e+06	-47289.1	1005.82	-29766.5	0.000000	0.000000	6.090765	-0.007669	NaN	0.000000	0.001557	0.001742	28.0809	0.048054	0.001953	24.605	-84.1859	-172.184	-0.022586	0.089467	-0.987806	-0.989090	-0.007669	24.605	-0.987572	-1.543161E+13	4.969682E-16	NaN
596	1.000000	0.098773	7.37088e+06	-47289.1	1005.82	-29766.5	0.000000	0.000000	6.098784	-0.057863	NaN	0.000000	0.001564	0.001777	28.0803	0.095422	0.001963	48.6157	69.2462	-163.809	-0.043062	0.097473	-0.979784	-0.981084	-0.057863	48.6157	-0.978892	-1.178904E+13	4.908174E-15	NaN
596	1.000000	0.106759	7.37088e+06	-47289.1	1005.82	-29766.5	0.000000	0.000000	6.106770	-0.053210	NaN	0.000000	0.001597	0.001755	28.0805	0.031376	0.002170	14.4615	-147.801	-167.301	0.036076	0.105471	-0.971798	-0.973086	-0.053210	14.4615	-0.969039	-8.683770E+12	6.127505E-15	NaN
596	1.000000	0.114750	7.37088e+06	-47289.1	1005.82	-29766.5	0.000000	0.000000	6.114764	0.019392	NaN	0.000000	0.001554	0.001775	28.0806	0.119891	0.001838	65.2446	-76.2613	-164.752	-0.003266	0.113455	-0.963808	-0.965102	0.019392	65.2446	-0.964031	-7.433737E+12	-2.608712E-15	NaN
596	1.000000	0.122773	7.37088e+06	-47289.1	1005.82	-29766.5	0.000000	0.000000	6.122783	-0.089808	NaN	0.000000	0.001563	0.001745	28.0807	0.069822	0.001978	35.2943	160.998	-167.115	-0.053718	0.121455	-0.955784	-0.957102	-0.089808	35.2943	-0.953876	-5.423703E+12	1.655840E-14	NaN
596	1.000000	0.130801	7.37088e+06	-47289.1	1005.82	-29766.5	0.000000	0.000000	6.130815	0.018206	NaN	0.000000	0.001570	0.001751	28.081	0.051006	0.002036	25.0462	130.041	-166.981	0.022089	0.129480	-0.947757	-0.949077	0.018206	25.0462	-0.948302	-4.561697E+12	-3.991041E-15	NaN
596	1.000000	0.138776	7.37088e+06	-47289.1	1005.82	-29766.5	0.000000	0.000000	6.138785	-0.095749	NaN	0.000000	0.001566	0.001746	28.0807	0.107656	0.002072	51.9547	-117.674	-167.774	-0.064981	0.137507	-0.939782	-0.941051	-0.095749	51.9547	-0.938400	-3.353855E+12	2.854883E-14	NaN
596	1.000000	0.146741	7.37088e+06	-47289.1	1005.82	-29766.5	0.000000	0.000000	6.146752	-0.051282	NaN	0.000000	0.001530	0.001764	28.081	0.129904	0.002007	64.738	-118.906	-167.805	0.010566	0.145511	-0.931817	-0.933046	-0.051282	64.738	-0.931223	-2.683482E+12	1.911026E-14	NaN
596	1.000000	0.154821	7.37088e+06	-47289.1	1005.82	-29766.5	0.000000	0.000000	6.154834	-0.017939	NaN	0.000000	0.001549	0.001766	28.082	0.049124	0.002015	24.3733	102.26	-164.866	-0.048106	0.153488	-0.923736	-0.925069	-0.017939	24.3733	-0.923184	-2.090233E+12	8.582154E-15	NaN
596	1.000000	0.162784	7.37088e+06	-47289.1	1005.82	-29766.5	0.000000	0.000000	6.162796	-0.028832	NaN	0.000000	0.001535	0.001700	28.0823	0.123480	0.001945	63.48	-47.4186	-165.143	-0.007608	0.161450	-0.915773	-0.917108	-0.028832	63.48	-0.915433	-1.642608E+12	1.755259E-14	NaN
596	1.000000	0.170770	7.37088e+06	-47289.1	1005.82	-29766.5	0.000000	0.000000	6.170782	-0.021769	NaN	0.000000	0.001581	0.001731	28.0822	0.062465	0.001807	34.5721	9.063034	-168.125	0.037220	0.169485	-0.907788	-0.909073	-0.021769	34.5721	-0.907316	-1.276155E+12	1.705836E-14	NaN
596	1.000000	0.178777	7.37088e+06	-47289.1	1005.82	-29766.5	0.000000	0.000000	6.178790	-0.036539	NaN	0.000000	0.001556	0.001673	28.0824	0.179397	0.002127	84.3234	-143.06	-162.664	0.046858	0.177479	-0.899780	-0.901078	-0.036539	84.3234	-0.899455	-9.993119E+11	3.656415E-14	NaN
596	1.000000	0.186771	7.37088e+06	-47289.1	1005.82	-29766.5	0.000000	0.000000	6.186786	0.023859	NaN	0.000000	0.001573	0.001711	28.0826	0.089430	0.002049	43.6404	121.023	-168.558	0.049665	0.185510	-0.891786	-0.893047	0.023859	43.6404	-0.892196	-7.972579E+11	-2.992690E-14	NaN
596	1.000000	0.194796	7.37088e+06	-47289.1	1005.82	-29766.5	0.000000	0.000000	6.194805	-0.118859	NaN	0.000000	0.001554	0.001721	28.0823	0.088869	0.001987	44.735	-138.201	-166.528	-0.061883	0.193504	-0.883761	-0.885053	-0.118859	44.735	-0.881769	-5.762674E+11	2.062575E-13	NaN
596	1.000000	0.202820	7.37088e+06	-47289.1	1005.82	-29766.5	0.000000	0.000000	6.202835	0.035062	NaN	0.000000	0.001522	0.001702	28.0822	0.045478	0.002151	21.1439	-9.962634	-167.463	-0.015772	0.201515	-0.875737	-0.877042	0.035062	21.1439	-0.876981	-4.964530E+11	-7.062529E-14	NaN
596	1.000000	0.210819	7.37088e+06	-47289.1	1005.82	-29766.5	0.000000	0.000000	6.210828	-0.120879	NaN	0.000000	0.001542	0.001731	28.082	0.050576	0.002131	23.7302	-166.536	-168.318	-0.026168	0.209511	-0.867738	-0.869046	-0.120879	23.7302	-0.863918	-3.304797E+11	3.657677E-13	NaN
596	1.000000	0.218795	7.37088e+06	-47289.1	1005.82	-29766.5	0.000000	0.000000	6.218807	-0.033444	NaN	0.000000	0.001533	0.001719	28.0821	0.029502	0.001978	14.9124	173.442	-168.655	-0.049099	0.217490	-0.859762	-0.861067	-0.033444	14.9124	-0.858080	-2.755093E+11	1.213900E-13	NaN
596	1.000000	0.226805	7.37088e+06	-47289.1	1005.82	-29766.5	0.000000	0.000000	6.226815	-0.073491	NaN	0.000000	0.001533	0.001757	28.0822	0.017249	0.001958	8.811621	33.8808	-166.396	-0.114938	0.225491	-0.851753	-0.853066	-0.073491	8.811621	-0.845497	-1.861064E+11	3.948895E-13	NaN
596	1.000000	0.234797	7.37088e+06	-47289.1	1005.82	-29766.5	0.000000	0.000000	6.234806	-0.111166	NaN	0.000000	0.001516	0.001717	28.0821	0.084259	0.001982	42.5131	86.6445	-164.484	-0.065308	0.233440	-0.843761	-0.845117	-0.111166	42.5131	-0.841800	-1.658334E+11	6.703501E-13	NaN
596	1.000000	0.242817	7.37088e+06	-47289.1	1005.82	-29766.5	0.000000	0.000000	6.242828	-0.050315	NaN	0.000000	0.001523	0.001715	28.0822	0.084598	0.001926	43.9143	-125.316	-165.237	-0.089787	0.241529	-0.835741	-0.837028	-0.050315	43.9143	-0.834881	-1.336406E+11	3.764985E-13	NaN
596	1.000000	0.250809	7.37088e+06	-47289.1	1005.82	-29766.5	0.000000	0.000000	6.250822	-0.022423	NaN	0.000000	0.001554	0.001730	28.082	0.061686	0.002057	29.9849	-59.8922	-164.009	-0.005105	0.249501	-0.827748	-0.829057	-0.022423	29.9849	-0.827187	-1.051135E+11	2.133241E-13	NaN
596	1.000000	0.258833	7.37088e+06	-47289.1	1005.82	-29766.5	0.000000	0.000000	6.258846	-0.016145	NaN	0.000000	0.001548	0.001703	28.0822	0.055056	0.001874	29.3848	-96.2193	-168.419	0.021339	0.257578	-0.819724	-0.820980	-0.016145	29.3848	-0.819312	-8.220204E+10	1.964122E-13	NaN
596	1.000000	0.266836	7.37088e+06	-47289.1	1005.82	-29766.5	0.000000	0.000000	6.266849	-0.008388	NaN	0.000000	0.001509	0.001729	28.082	0.055426	0.002147	25.8173	-32.6497	-168.528	-0.034854	0.265544	-0.811722	-0.813013	-0.008388	25.8173	-0.811478	-6.436144E+10	1.303267E-13	NaN
596	1.000000	0.274820	7.37088e+06	-47289.1	1005.82	-29766.5	0.000000	0.000000	6.274833	-0.010478	NaN	0.000000	0.001489	0.001720	28.0821	0.106475	0.001990	53.4945	74.1684	-164.606	-0.021618	0.273535	-0.803738	-0.805023	-0.010478	53.4945	-0.803591	-5.030380E+10	2.082926E-13	NaN
596	1.000000	0.282820	7.37088e+06	-47289.1	1005.82	-29766.5	0.000000	0.000000	6.282831	-0.053896	NaN	0.000000	0.001520	0.001756	28.0822	0.077989	0.001992	39.1513	14.6526	-164.951	-0.067069	0.281516	-0.795738	-0.797041	-0.053896	39.1513	-0.794705	-3.810463E+10	1.414418E-12	NaN
596	1.000000	0.290824	7.37088e+06	-47289.1	1005.82	-29766.5	0.000000	0.000000	6.290834	-0.079461	NaN	0.000000	0.001499	0.001733	28.0807	0.011711	0.002014	5.815632	67.1434	-169.393	-0.014574	0.289593	-0.787734	-0.788965	-0.079461	5.815632	-0.777486	-2.223667E+10	3.573416E-12	NaN
596	1.000000	0.298861	7.37088e+06	-47289.1	1005.82	-29766.5	0.000000	0.000000	6.298871	-0.072114	NaN	0.000000	0.001511	0.001726	28.081	0.072760	0.002025	35.9296	100.566	-165.519	0.004632	0.297513	-0.779697	-0.781045	-0.072114	35.9296	-0.778192	-2.273294E+10	3.172224E-12	NaN
596	1.000000	0.306858	7.37088e+06	-47289.1	1005.82	-29766.5	0.000000	0.000000	6.306872	0.008371	NaN	0.000000	0.001516	0.001778	28.0807	0.124242	0.002019	61.5346	104.58	-165.738	0.049119	0.305474	-0.771699	-0.773084	0.008371	61.5346	-0.771801	-1.861210E+10	-4.497647E-13	NaN
596	1.000000	0.314838	7.37088e+06	-47289.1	1005.82	-29766.5	0.000000	0.000000	6.314854	0.044994	NaN	0.000000	0.001480	0.001686	28.0809	0.093870	0.002065	45.4677	-139.3	-169.061	-0.022700	0.313553	-0.763719	-0.765004	0.044994	45.4677	-0.764461	-1.479065E+10	-3.042041E-12	NaN
596	1.000000	0.322869	7.37088e+06	-47289.1	1005.82	-29766.5	0.000000	0.000000	6.322881	-0.047068	NaN	0.000000	0.001496	0.001714	28.0809	0.042546	0.001986	21.4248	33.7631	-163.789	-0.025280	0.321538	-0.755688	-0.757019	-0.047068	21.4248	-0.754041	-1.067131E+10	4.410694E-12	NaN
596	1.000000	0.330831	7.37088e+06	-47289.1	1005.82	-29766.5	0.000000	0.000000	6.330843	-0.040425	NaN	0.000000	0.001521	0.001708	28.0807	0.103847	0.001999	51.9473	33.1465	-164.759	0.033940	0.329545	-0.747726	-0.749013	-0.040425	51.9473	-0.747143	-8.596523E+9	4.702532E-12	NaN
596	1.000000	0.338861	7.37088e+06	-47289.1	1005.82	-29766.5	0.000000	0.000000	6.338875	0.007621	NaN	0.000000	0.001508	0.001708	28.0811	0.064581	0.002131	30.3044	-90.6941	-169.231	-0.065856	0.337599	-0.739696	-0.740959	0.007621	30.3044	-0.739885	-6.846852E+9	-1.113029E-12	NaN
596	1.000000	0.346846	7.37088e+06	-47289.1	1005.82	-29766.5	0.000000	0.000000	6.346858	-0.048920	NaN	0.000000	0.001554	0.001706	28.0806	0.064073	0.001905	33.6354	-4.490772	-166.675	0.021932	0.345560	-0.731711	-0.732997	-0.048920	33.6354	-0.730621	-5.119952E+9	9.554802E-12	NaN
596	1.000000	0.354889	7.37088e+06	-47289.1	1005.82	-29766.5	0.000000	0.000000	6.354899	-0.090072	NaN	0.000000	0.001532	0.001697	28.0806	0.028573	0.001995	14.3195	34.5138	-165.8	-0.110548	0.353606	-0.723668	-0.724952	-0.090072	14.3195	-0.718951	-3.549468E+9	2.537630E-11	NaN
596	1.000000	0.362848	7.37088e+06	-47289.1	1005.82	-29766.5	0.000000	0.000000	6.362861	-0.014037	NaN	0.000000	0.001547	0.001698	28.0806	0.098383	0.001964	50.086	-10.6213	-166.109	0.062130	0.361589	-0.715710	-0.716968	-0.014037	50.086	-0.715499	-3.184831E+9	4.407411E-12	NaN
596	1.000000	0.370881	7.37088e+06	-47289.1	1005.82	-29766.5	0.000000	0.000000	6.370893	-0.035110	NaN	0.000000	0.001562	0.001794	28.0807	0.053048	0.001996	26.5816	130.453	-168.289	-0.018553	0.369596	-0.707677	-0.708961	-0.035110	26.5816	-0.706686	-2.414462E+9	1.454167E-11	NaN
596	1.000000	0.378879	7.37088e+06	-47289.1	1005.82	-29766.5	0.000000	0.000000	6.378894	0.045844	NaN	0.000000	0.001553	0.001773	28.0812	0.083828	0.002022	41.4564	62.1048	-166.579	-0.009620	0.377611	-0.699679	-0.700947	0.045844	41.4564	-0.700508	-1.988249E+9	-2.305755E-11	NaN
596	1.000000	0.386881	7.37088e+06	-47289.1	1005.82	-29766.5	0.000000	0.000000	6.386896	0.022195	NaN	0.000000	0.001531	0.001738	28.0808	0.079669	0.002093	38.0714	10.7886	-170.105	-0.017218	0.385634	-0.691676	-0.692924	0.022195	38.0714	-0.692113	-1.526845E+9	-1.453673E-11	NaN
596	1.000000	0.394921	7.37088e+06	-47289.1	1005.82	-29766.5	0.000000	0.000000	6.394932	-0.072465	NaN	0.000000	0.001507	0.001778	28.0808	0.013512	0.002040	6.624035	153.173	-168.565	-0.017499	0.393548	-0.683636	-0.685009	-0.072465	6.624035	-0.675431	-9.030468E+8	8.024501E-11	NaN
596	1.000000	0.402909	7.37088e+06	-47289.1	1005.82	-29766.5	0.000000	0.000000	6.402922	-0.013989	NaN	0.000000	0.001566	0.001774	28.0808	0.102463	0.002104	48.7036	-65.3188	-161.807	-0.026472	0.401598	-0.675648	-0.676959	-0.013989	48.7036	-0.675433	-9.030884E+8	1.549071E-11	NaN
596	1.000000	0.410892	7.37088e+06	-47289.1	1005.82	-29766.5	0.000000	0.000000	6.410902	-0.096119	NaN	0.000000	0.001584	0.001765	28.0808	0.089200	0.002126	41.956	73.933	-166.206	-0.048170	0.409553	-0.667665	-0.669005	-0.096119	41.956	-0.665947	-6.697422E+8	1.435171E-10	NaN
596	1.000000	0.418908	7.37088e+06	-47289.1	1005.82	-29766.5	0.000000	0.000000	6.418921	-0.011997	NaN	0.000000	0.001574	0.001791	28.081	0.061825	0.001935	31.9464	-150.027	-166.4	0.031641	0.417626	-0.659649	-0.660931	-0.011997	31.9464	-0.659368	-5.442640E+8	2.204204E-11	NaN
596	1.000000	0.426905	7.37088e+06	-47289.1	1005.82	-29766.5	0.000000	0.000000	6.426917	-0.020943	NaN	0.000000	0.001567	0.001755	28.0821	0.054718	0.002006	27.2753	53.4352	-164.908	-0.017840	0.425602	-0.651653	-0.652956	-0.020943	27.2753	-0.651077	-4.189854E+8	4.998478E-11	NaN
596	1.000000	0.434909	7.37088e+06	-47289.1	1005.82	-29766.5	0.000000	0.000000	6.434919	-0.096300	NaN	0.000000	0.001543	0.001779	28.082	0.082071	0.002110	38.8999	164.524	-165.427	0.005944	0.433596	-0.643648	-0.644962	-0.096300	38.8999	-0.641791	-3.125123E+8	3.081472E-10	NaN
596	1.000000	0.442882	7.37088e+06	-47289.1	1005.82	-29766.5	0.000000	0.000000	6.442893	-0.055291	NaN	0.000000	0.001550	0.001754	28.0821	0.020876	0.001799	11.6069	-97.1512	-168.106	-0.087803	0.441643	-0.635675	-0.636914	-0.055291	11.6069	-0.632102	-2.300878E+8	2.403039E-10	NaN
596	1.000000	0.450900	7.37088e+06	-47289.1	1005.82	-29766.5	0.000000	0.000000	6.450913	-0.018139	NaN	0.000000	0.001543	0.001792	28.0821	0.085659	0.001889	45.3358	11.0562	-164.25	-0.107999	0.449605	-0.627657	-0.628953	-0.018139	45.3358	-0.627357	-1.980273E+8	9.159679E-11	NaN
596	1.000000	0.458916	7.37088e+06	-47289.1	1005.82	-29766.5	0.000000	0.000000	6.458929	0.000468	NaN	0.000000	0.001624	0.001777	28.082	0.081912	0.001978	41.4165	-147.098	-164.702	0.096187	0.457625	-0.619642	-0.620933	0.000468	41.4165	-0.619650	-1.551769E+8	-3.016453E-12	NaN
596	1.000000	0.466903	7.37088e+06	-47289.1	1005.82	-29766.5	0.000000	0.000000	6.466915	-0.053914	NaN	0.000000	0.001558	0.001788	28.082	0.095994	0.001952	49.1687	-170.856	-165.78	-0.089014	0.465657	-0.611654	-0.612901	-0.053914	49.1687	-0.610832	-1.173696E+8	4.593555E-10	NaN
596	1.000000	0.474948	7.37088e+06	-47289.1	1005.82	-29766.5	0.000000	0.000000	6.474956	-0.125564	NaN	0.000000	0.001593	0.001796	28.082	0.069006	0.001990	34.6801	-121.134	-165.294	-0.079334	0.473592	-0.603609	-0.604965	-0.125564	34.6801	-0.600894	-8.565851E+7	1.465869E-9	NaN
596	1.000000	0.482928	7.37088e+06	-47289.1	1005.82	-29766.5	0.000000	0.000000	6.482940	-0.025810	NaN	0.000000	0.001618	0.001787	28.0821	0.078961	0.001836	43.0009	-48.5697	-168.398	-0.052798	0.481612	-0.595630	-0.596946	-0.025810	43.0009	-0.595179	-7.145860E+7	3.611878E-10	NaN
596	1.000000	0.490918	7.37088e+06	-47289.1	1005.82	-29766.5	0.000000	0.000000	6.490927	-0.098645	NaN	0.000000	0.001611	0.001765	28.0821	0.099339	0.001999	49.6886	-157.883	-172.118	-0.041584	0.489665	-0.587640	-0.588892	-0.098645	49.6886	-0.586151	-5.365195E+7	1.838606E-9	NaN
596	1.000000	0.498947	7.37088e+06	-47289.1	1005.82	-29766.5	0.000000	0.000000	6.498959	-0.042492	NaN	0.000000	0.001536	0.001799	28.0819	0.123399	0.002032	60.7149	158.947	-167.097	-0.078655	0.497568	-0.579610	-0.580989	-0.042492	60.7149	-0.579085	-4.286465E+7	9.913082E-10	NaN
596	1.000000	0.506953	7.37088e+06	-47289.1	1005.82	-29766.5	0.000000	0.000000	6.506964	-0.069536	NaN	0.000000	0.001513	0.001753	28.0825	0.107122	0.001994	53.7278	-60.5297	-165.865	-0.081453	0.505565	-0.571604	-0.572992	-0.069536	53.7278	-0.570633	-3.276285E+7	2.122394E-9	NaN
596	1.000000	0.514922	7.37088e+06	-47289.1	1005.82	-29766.5	0.000000	0.000000	6.514933	-0.057201	NaN	0.000000	0.001493	0.001789	28.082	0.107696	0.001953	55.1575	101.375	-165.991	-0.028992	0.513613	-0.563636	-0.564945	-0.057201	55.1575	-0.562858	-2.558029E+7	2.236134E-9	NaN
596	1.000000	0.522904	7.37088e+06	-47289.1	1005.82	-29766.5	0.000000	0.000000	6.522918	0.010745	NaN	0.000000	0.001522	0.001791	28.0819	0.012455	0.002028	6.141386	127.488	-165.664	-0.017907	0.521653	-0.555654	-0.556905	0.010745	6.141386	-0.556966	-2.120314E+7	-5.067786E-10	NaN
596	1.000000	0.530937	7.37088e+06	-47289.1	1005.82	-29766.5	0.000000	0.000000	6.530948	-0.052863	NaN	0.000000	0.001544	0.001789	28.082	0.032965	0.001995	16.5246	-166.731	-161.686	-0.002366	0.529630	-0.547621	-0.548927	-0.052863	16.5246	-0.545221	-1.457965E+7	3.625798E-9	NaN
596	1.000000	0.538966	7.37088e+06	-47289.1	1005.82	-29766.5	0.000000	0.000000	6.538976	-0.100008	NaN	0.000000	0.001527	0.001793	28.0819	0.013230	0.001861	7.109811	-173.3	-165.579	-0.070229	0.537642	-0.539591	-0.540915	-0.100008	7.109811	-0.529042	-8.69492e+06	1.150186E-8	NaN
596	1.000000	0.546952	7.37088e+06	-47289.1	1005.82	-29766.5	0.000000	0.000000	6.546962	-0.075770	NaN	0.000000	0.001535	0.001800	28.082	0.114036	0.002025	56.32	130.311	-169.274	-0.071350	0.545709	-0.531605	-0.532848	-0.075770	56.32	-0.530596	-9.13812e+06	8.291592E-9	NaN
596	1.000000	0.554958	7.37088e+06	-47289.1	1005.82	-29766.5	0.000000	0.000000	6.554969	-0.074604	NaN	0.000000	0.001545	0.001774	28.0816	0.118168	0.001931	61.1989	-84.8542	-166.197	-0.055757	0.553625	-0.523599	-0.524932	-0.074604	61.1989	-0.522685	-7.09464e+06	1.051557E-8	NaN
596	1.000000	0.562929	7.37088e+06	-47289.1	1005.82	-29766.5	0.000000	0.000000	6.562944	0.018995	NaN	0.000000	0.001518	0.001777	28.0809	0.059053	0.002155	27.4036	-172.87	-167.335	-0.021637	0.561646	-0.515628	-0.516911	0.018995	27.4036	-0.516148	-5.75454e+06	-3.300883E-9	NaN
596	1.000000	0.570971	7.37088e+06	-47289.1	1005.82	-29766.5	0.000000	0.000000	6.570985	0.020122	NaN	0.000000	0.001543	0.001762	28.0809	0.026815	0.001978	13.5553	-115.692	-167.076	-0.071795	0.569732	-0.507587	-0.508825	0.020122	13.5553	-0.508700	-4.53217e+06	-4.439889E-9	NaN
596	1.000000	0.578978	7.37088e+06	-47289.1	1005.82	-29766.5	0.000000	0.000000	6.578989	-0.052056	NaN	0.000000	0.001531	0.001742	28.0806	0.111787	0.001967	56.8342	-17.3048	-163.526	0.014281	0.577619	-0.499580	-0.500939	-0.052056	56.8342	-0.498893	-3.30803e+06	1.573623E-8	NaN
596	1.000000	0.586977	7.37088e+06	-47289.1	1005.82	-29766.5	0.000000	0.000000	6.586989	-0.054778	NaN	0.000000	0.001544	0.001778	28.081	0.125801	0.002021	62.2456	-68.983	-166.092	0.053379	0.585654	-0.491580	-0.492904	-0.054778	62.2456	-0.490920	-2.56006e+06	2.139727E-8	NaN
596	1.000000	0.594975	7.37088e+06	-47289.1	1005.82	-29766.5	0.000000	0.000000	6.594986	-0.066497	NaN	0.000000	0.001549	0.001776	28.0806	0.069051	0.002107	32.7733	-82.8288	-166.703	-0.048430	0.593653	-0.483582	-0.484905	-0.066497	32.7733	-0.482060	-1.9247e+06	3.454946E-8	NaN
596	1.000000	0.602974	7.37088e+06	-47289.1	1005.82	-29766.5	0.000000	0.000000	6.602987	-0.014571	NaN	0.000000	0.001542	0.001802	28.0808	0.027988	0.001964	14.2491	13.5212	-165.299	0.023190	0.601637	-0.475583	-0.476920	-0.014571	14.2491	-0.474816	-1.5238e+06	9.562259E-9	NaN
596	1.000000	0.610973	7.37088e+06	-47289.1	1005.82	-29766.5	0.000000	0.000000	6.610984	-0.074245	NaN	0.000000	0.001560	0.001778	28.0808	0.074403	0.001813	41.0284	-100.172	-169.716	-0.100470	0.609635	-0.467584	-0.468922	-0.074245	41.0284	-0.466227	-1.1547e+06	6.429822E-8	NaN
596	1.000000	0.618980	7.37088e+06	-47289.1	1005.82	-29766.5	0.000000	0.000000	6.618991	-0.057824	NaN	0.000000	0.001545	0.001789	28.0808	0.072975	0.001881	38.8011	-60.075	-162.865	-0.046542	0.617640	-0.459577	-0.460918	-0.057824	38.8011	-0.458460	-898190	6.437881E-8	NaN
596	1.000000	0.626986	7.37088e+06	-47289.1	1005.82	-29766.5	0.000000	0.000000	6.626996	-0.082149	NaN	0.000000	0.001543	0.001771	28.0809	0.123331	0.002027	60.8546	162.931	-165.385	-0.011953	0.625635	-0.451571	-0.452922	-0.082149	60.8546	-0.450559	-695362	1.181384E-7	NaN
596	1.000000	0.634978	7.37088e+06	-47289.1	1005.82	-29766.5	0.000000	0.000000	6.634993	0.026712	NaN	0.000000	0.001579	0.001759	28.0807	0.030787	0.002228	13.819	108.006	-163.57	-0.013291	0.633694	-0.443579	-0.444863	0.026712	13.819	-0.445029	-581171	-4.596171E-8	NaN
596	1.000000	0.642966	7.37088e+06	-47289.1	1005.82	-29766.5	0.000000	0.000000	6.642978	-0.034822	NaN	0.000000	0.001554	0.001798	28.0809	0.092306	0.001971	46.8354	26.7528	-168.336	-0.031659	0.641733	-0.435592	-0.436824	-0.034822	46.8354	-0.435034	-419988	8.291180E-8	NaN
596	1.000000	0.651005	7.37088e+06	-47289.1	1005.82	-29766.5	0.000000	0.000000	6.651019	0.028091	NaN	0.000000	0.001523	0.001768	28.0808	0.070190	0.001947	36.0415	29.512	-167.082	-0.023539	0.649659	-0.427553	-0.428898	0.028091	36.0415	-0.428137	-335510	-8.372748E-8	NaN
596	1.000000	0.658990	7.37088e+06	-47289.1	1005.82	-29766.5	0.000000	0.000000	6.659004	-0.011859	NaN	0.000000	0.001533	0.001772	28.081	0.026025	0.001999	13.021	20.227	-166.953	0.005184	0.657684	-0.419567	-0.420873	-0.011859	13.021	-0.418884	-248075	4.780461E-8	NaN
596	1.000000	0.667014	7.37088e+06	-47289.1	1005.82	-29766.5	0.000000	0.000000	6.667026	-0.025673	NaN	0.000000	0.001557	0.001829	28.0811	0.047317	0.001927	24.5591	172.865	-170.385	-0.027067	0.665723	-0.411544	-0.412834	-0.025673	24.5591	-0.410760	-190196	1.349802E-7	NaN
596	1.000000	0.675002	7.37088e+06	-47289.1	1005.82	-29766.5	0.000000	0.000000	6.675015	-0.018999	NaN	0.000000	0.001571	0.001722	28.0807	0.098088	0.002021	48.544	89.7744	-166.299	-0.068647	0.673656	-0.403555	-0.404901	-0.018999	48.544	-0.403261	-148759	1.277187E-7	NaN
596	1.000000	0.682989	7.37088e+06	-47289.1	1005.82	-29766.5	0.000000	0.000000	6.683000	-0.050604	NaN	0.000000	0.001544	0.001723	28.0807	0.038418	0.001938	19.8215	-54.6041	-166.708	-0.114814	0.681719	-0.395569	-0.396839	-0.050604	19.8215	-0.393654	-108495	4.664163E-7	NaN
596	1.000000	0.691010	7.37088e+06	-47289.1	1005.82	-29766.5	0.000000	0.000000	6.691019	-0.101813	NaN	0.000000	0.001522	0.001801	28.0809	0.072178	0.001966	36.7063	65.1363	-165.504	-0.097830	0.689703	-0.387547	-0.388854	-0.101813	36.7063	-0.385467	-82847.4	1.228917E-6	NaN
596	1.000000	0.699044	7.37088e+06	-47289.1	1005.82	-29766.5	0.000000	0.000000	6.699056	-0.051662	NaN	0.000000	0.001546	0.001771	28.0819	0.076070	0.002045	37.2054	156.814	-164.101	-0.020642	0.697743	-0.379513	-0.380814	-0.051662	37.2054	-0.378472	-65758	7.856346E-7	NaN
596	1.000000	0.707023	7.37088e+06	-47289.1	1005.82	-29766.5	0.000000	0.000000	6.707034	-0.054892	NaN	0.000000	0.001520	0.001785	28.082	0.042652	0.001948	21.8983	57.3711	-165.612	-0.083213	0.705717	-0.371534	-0.372841	-0.054892	21.8983	-0.369654	-49107.8	1.117776E-6	NaN
596	1.000000	0.715009	7.37088e+06	-47289.1	1005.82	-29766.5	0.000000	0.000000	6.715018	-0.092397	NaN	0.000000	0.001569	0.001740	28.082	0.130264	0.002011	64.7895	165.633	-166.209	-0.141323	0.713722	-0.363549	-0.364836	-0.092397	64.7895	-0.362479	-38696.1	2.387755E-6	NaN
596	1.000000	0.723037	7.37088e+06	-47289.1	1005.82	-29766.5	0.000000	0.000000	6.723050	-0.016616	NaN	0.000000	0.001533	0.001764	28.0822	0.028108	0.001930	14.5673	-15.0864	-166.544	-0.048200	0.721717	-0.355521	-0.356841	-0.016616	14.5673	-0.354665	-29829.5	5.570422E-7	NaN
596	1.000000	0.731035	7.37088e+06	-47289.1	1005.82	-29766.5	0.000000	0.000000	6.731044	-0.092946	NaN	0.000000	0.001552	0.001768	28.0821	0.083438	0.002046	40.7869	-5.208517	-167.042	-0.069093	0.729713	-0.347523	-0.348844	-0.092946	40.7869	-0.345814	-22191.6	4.188362E-6	NaN
596	1.000000	0.739008	7.37088e+06	-47289.1	1005.82	-29766.5	0.000000	0.000000	6.739019	-0.075973	NaN	0.000000	0.001541	0.001741	28.0821	0.031837	0.002072	15.3644	-21.9128	-165.682	-0.128289	0.737704	-0.339549	-0.340853	-0.075973	15.3644	-0.335840	-15880.5	4.784065E-6	NaN
596	1.000000	0.747015	7.37088e+06	-47289.1	1005.82	-29766.5	0.000000	0.000000	6.747027	-0.036755	NaN	0.000000	0.001541	0.001789	28.0821	0.076948	0.002050	37.5288	-179.633	-167.375	-0.060225	0.745713	-0.331542	-0.332845	-0.036755	37.5288	-0.330808	-13405.4	2.741816E-6	NaN
596	1.000000	0.755032	7.37088e+06	-47289.1	1005.82	-29766.5	0.000000	0.000000	6.755044	-0.054604	NaN	0.000000	0.001523	0.001750	28.0823	0.141424	0.002000	70.7259	-85.9373	-165.494	0.020251	0.753730	-0.323525	-0.324827	-0.054604	70.7259	-0.322946	-10279.3	5.312028E-6	NaN
596	1.000000	0.763045	7.37088e+06	-47289.1	1005.82	-29766.5	0.000000	0.000000	6.763059	0.015671	NaN	0.000000	0.001555	0.001812	28.0822	0.114015	0.002079	54.8535	141.275	-167.174	0.044765	0.761766	-0.315512	-0.316792	0.015671	54.8535	-0.315726	-8047.59	-1.947259E-6	NaN
596	1.000000	0.771018	7.37088e+06	-47289.1	1005.82	-29766.5	0.000000	0.000000	6.771032	0.006426	NaN	0.000000	0.001502	0.001772	28.082	0.029638	0.001999	14.8257	-49.9905	-166.761	-0.045301	0.769705	-0.307539	-0.308853	0.006426	14.8257	-0.307864	-6157.84	-1.043617E-6	NaN
596	1.000000	0.779009	7.37088e+06	-47289.1	1005.82	-29766.5	0.000000	0.000000	6.779018	-0.129080	NaN	0.000000	0.001527	0.001807	28.0822	0.028570	0.001952	14.6372	166.039	-166.357	-0.132084	0.777773	-0.299548	-0.300784	-0.129080	14.6372	-0.292934	-3691.64	3.496541E-5	NaN
596	1.000000	0.787016	7.37088e+06	-47289.1	1005.82	-29766.5	0.000000	0.000000	6.787029	-0.017303	NaN	0.000000	0.001542	0.001796	28.082	0.033244	0.001950	17.0504	-67.8674	-163.316	-0.056402	0.785744	-0.291542	-0.292814	-0.017303	17.0504	-0.290781	-3427.63	5.048237E-6	NaN
596	1.000000	0.795086	7.37088e+06	-47289.1	1005.82	-29766.5	0.000000	0.000000	6.795096	-0.081185	NaN	0.000000	0.001507	0.001793	28.0821	0.071156	0.002031	35.0367	13.5451	-167.505	-0.108771	0.793784	-0.283472	-0.284774	-0.081185	35.0367	-0.281734	-2506.76	3.238628E-5	NaN
596	1.000000	0.803080	7.37088e+06	-47289.1	1005.82	-29766.5	0.000000	0.000000	6.803091	-0.061158	NaN	0.000000	0.001539	0.001796	28.0819	0.063088	0.001951	32.3364	136.393	-164.408	-0.041271	0.801759	-0.275478	-0.276798	-0.061158	32.3364	-0.274059	-1919.34	3.186404E-5	NaN
596	1.000000	0.811049	7.37088e+06	-47289.1	1005.82	-29766.5	0.000000	0.000000	6.811061	-0.045144	NaN	0.000000	0.001541	0.001814	28.0821	0.087240	0.001996	43.7139	14.4459	-164.857	0.012973	0.809730	-0.267508	-0.268827	-0.045144	43.7139	-0.266734	-1485.35	3.039271E-5	NaN
596	1.000000	0.819067	7.37088e+06	-47289.1	1005.82	-29766.5	0.000000	0.000000	6.819078	-0.055037	NaN	0.000000	0.001516	0.001788	28.0823	0.023249	0.002047	11.3588	61.4881	-167.062	-0.086500	0.817746	-0.259491	-0.260811	-0.055037	11.3588	-0.255857	-1012.27	5.436997E-5	NaN
596	1.000000	0.827074	7.37088e+06	-47289.1	1005.82	-29766.5	0.000000	0.000000	6.827086	-0.031164	NaN	0.000000	0.001568	0.001779	28.082	0.010547	0.002056	5.128495	86.9818	-162.793	0.049375	0.825769	-0.251484	-0.252789	-0.031164	5.128495	-0.246926	-736.816	4.229611E-5	NaN
596	1.000000	0.835078	7.37088e+06	-47289.1	1005.82	-29766.5	0.000000	0.000000	6.835089	-0.046758	NaN	0.000000	0.001567	0.001783	28.0816	0.080471	0.001936	41.5753	-157.372	-163.846	-0.117879	0.833791	-0.243480	-0.244767	-0.046758	41.5753	-0.242636	-631.934	7.399166E-5	NaN
596	1.000000	0.843034	7.37088e+06	-47289.1	1005.82	-29766.5	0.000000	0.000000	6.843046	-0.029574	NaN	0.000000	0.001524	0.001809	28.0806	0.066952	0.001935	34.5955	-166.883	-169.263	-0.017497	0.841800	-0.235524	-0.236757	-0.029574	34.5955	-0.234883	-477.977	6.187237E-5	NaN
596	1.000000	0.851117	7.37088e+06	-47289.1	1005.82	-29766.5	0.000000	0.000000	6.851128	-0.051906	NaN	0.000000	0.001506	0.001806	28.0809	0.085806	0.002084	41.178	174.918	-166.409	-0.081241	0.849749	-0.227441	-0.228809	-0.051906	41.178	-0.226495	-352.424	0.000147	NaN
596	1.000000	0.859061	7.37088e+06	-47289.1	1005.82	-29766.5	0.000000	0.000000	6.859073	-0.023431	NaN	0.000000	0.001528	0.001789	28.0807	0.053233	0.002070	25.7194	-76.9013	-165.877	-0.053341	0.857720	-0.219497	-0.220837	-0.023431	25.7194	-0.218813	-265.889	8.812396E-5	NaN
596	1.000000	0.867083	7.37088e+06	-47289.1	1005.82	-29766.5	0.000000	0.000000	6.867093	-0.078154	NaN	0.000000	0.001553	0.001805	28.0806	0.069958	0.002030	34.4549	-18.5442	-164.405	-0.101943	0.865778	-0.211475	-0.212780	-0.078154	34.4549	-0.209773	-190.172	0.000411	NaN
596	1.000000	0.875093	7.37088e+06	-47289.1	1005.82	-29766.5	0.000000	0.000000	6.875106	-0.014867	NaN	0.000000	0.001526	0.001823	28.0811	0.017349	0.001896	9.150651	74.7334	-169.678	-0.066922	0.873735	-0.203464	-0.204822	-0.014867	9.150651	-0.202246	-143.398	0.000104	NaN
596	1.000000	0.883093	7.37088e+06	-47289.1	1005.82	-29766.5	0.000000	0.000000	6.883105	-0.040290	NaN	0.000000	0.001571	0.001791	28.0807	0.005824	0.001944	2.995310	-28.2651	-167.226	-0.056858	0.881741	-0.195464	-0.196816	-0.040290	2.995310	-0.185376	-75.2432	0.000535	NaN
596	1.000000	0.891085	7.37088e+06	-47289.1	1005.82	-29766.5	0.000000	0.000000	6.891098	-0.025620	NaN	0.000000	0.001560	0.001794	28.081	0.084636	0.001997	42.3738	13.0984	-165.186	0.011066	0.889717	-0.187472	-0.188841	-0.025620	42.3738	-0.187019	-80.1851	0.000320	NaN
596	1.000000	0.899074	7.37088e+06	-47289.1	1005.82	-29766.5	0.000000	0.000000	6.899085	-0.073608	NaN	0.000000	0.001577	0.001782	28.0807	0.080344	0.001957	41.0568	1.483194	-163.574	-0.135901	0.897767	-0.179483	-0.180790	-0.073608	41.0568	-0.178139	-56.7206	0.001298	NaN
596	1.000000	0.907115	7.37088e+06	-47289.1	1005.82	-29766.5	0.000000	0.000000	6.907126	-0.060581	NaN	0.000000	0.001538	0.001783	28.0808	0.130091	0.002215	58.7433	-155.015	-165.34	-0.107420	0.905746	-0.171443	-0.172812	-0.060581	58.7433	-0.170669	-42.1919	0.001436	NaN
596	1.000000	0.915141	7.37088e+06	-47289.1	1005.82	-29766.5	0.000000	0.000000	6.915152	-0.072416	NaN	0.000000	0.001579	0.001793	28.0811	0.045916	0.002012	22.821	-19.7736	-171.49	-0.028687	0.913753	-0.163416	-0.164805	-0.072416	22.821	-0.161036	-28.6007	0.002532	NaN
596	1.000000	0.923133	7.37088e+06	-47289.1	1005.82	-29766.5	0.000000	0.000000	6.923146	-0.008772	NaN	0.000000	0.001588	0.001769	28.081	0.115515	0.001912	60.4281	-165.676	-167.937	0.000653	0.921776	-0.155424	-0.156781	-0.008772	60.4281	-0.155315	-22.6076	0.000388	NaN
596	1.000000	0.931126	7.37088e+06	-47289.1	1005.82	-29766.5	0.000000	0.000000	6.931136	-0.090254	NaN	0.000000	0.001623	0.001818	28.0812	0.022675	0.001968	11.5189	53.3428	-169.308	-0.071173	0.929782	-0.147432	-0.148775	-0.090254	11.5189	-0.141555	-12.6505	0.007134	NaN
596	1.000000	0.939117	7.37088e+06	-47289.1	1005.82	-29766.5	0.000000	0.000000	6.939129	-0.057822	NaN	0.000000	0.001635	0.001766	28.0811	0.152131	0.001957	77.7563	167.437	-168.942	-0.045197	0.937822	-0.139440	-0.140735	-0.057822	77.7563	-0.138882	-11.2703	0.005130	NaN
596	1.000000	0.947130	7.37088e+06	-47289.1	1005.82	-29766.5	0.000000	0.000000	6.947142	-0.040940	NaN	0.000000	0.001655	0.001797	28.081	0.058356	0.002104	27.7314	139.491	-166.411	-0.009262	0.945797	-0.131427	-0.132760	-0.040940	27.7314	-0.130320	-7.730729	0.005296	NaN
596	1.000000	0.955122	7.37089e+06	-47289.1	1005.82	-29766.5	0.000000	0.000000	6.955135	-0.018501	NaN	0.000000	0.001577	0.001773	28.0809	0.042976	0.001981	21.6967	-50.0707	-163.337	-0.045355	0.953781	-0.123435	-0.124777	-0.018501	21.6967	-0.122795	-5.497738	0.003365	NaN
596	1.000000	0.963140	7.37089e+06	-47289.1	1005.82	-29766.5	0.000000	0.000000	6.963151	-0.059316	NaN	0.000000	0.001598	0.001743	28.0808	0.079639	0.002024	39.3514	-56.2044	-164.777	-0.049555	0.961830	-0.115418	-0.116727	-0.059316	39.3514	-0.114287	-3.693110	0.016061	NaN
596	1.000000	0.971105	7.37089e+06	-47289.1	1005.82	-29766.5	0.000000	0.000000	6.971117	-0.022202	NaN	0.000000	0.001597	0.001790	28.0815	0.049262	0.001984	24.8335	28.1342	-164.066	-0.114279	0.969820	-0.107453	-0.108737	-0.022202	24.8335	-0.106782	-2.567452	0.008647	NaN
596	1.000000	0.979134	7.37089e+06	-47289.1	1005.82	-29766.5	0.000000	0.000000	6.979146	-0.047455	NaN	0.000000	0.001586	0.001784	28.0823	0.052582	0.001934	27.1816	-22.884	-166.451	-0.026536	0.977837	-0.099423	-0.100720	-0.047455	27.1816	-0.098114	-1.658635	0.028611	NaN
596	1.000000	0.987103	7.37089e+06	-47289.1	1005.82	-29766.5	0.000000	0.000000	6.987113	-0.087464	NaN	0.000000	0.001600	0.001780	28.0822	0.013706	0.002077	6.600675	62.0924	-164.416	-0.174372	0.985843	-0.091454	-0.092714	-0.087464	6.600675	-0.081516	-0.675166	0.129544	NaN
596	1.000000	0.995112	7.37089e+06	-47289.1	1005.82	-29766.5	0.000000	0.000000	6.995121	-0.125206	NaN	0.000000	0.001586	0.001764	28.0822	0.052683	0.002077	25.3642	149.425	-165.083	-0.107547	0.993843	-0.083445	-0.084714	-0.125206	25.3642	-0.079743	-0.609882	0.205295	NaN
596	1.000000	1.003109	7.37089e+06	-47289.1	1005.82	-29766.5	0.000000	0.000000	7.003121	-0.039953	NaN	0.000000	0.001592	0.001777	28.0821	0.079185	0.001942	40.7683	-47.7094	-164.091	-0.077295	1.001847	-0.075449	-0.076711	-0.039953	40.7683	-0.074714	-0.454049	0.087993	NaN
596	1.000000	1.011134	7.37089e+06	-47289.1	1005.82	-29766.5	0.000000	0.000000	7.011144	-0.080806	NaN	0.000000	0.001605	0.001771	28.0823	0.110397	0.001940	56.8989	35.7026	-163.347	-0.011950	1.009917	-0.067424	-0.068641	-0.080806	56.8989	-0.066359	-0.271698	0.297409	NaN
596	1.000000	1.019127	7.37089e+06	-47289.1	1005.82	-29766.5	0.000000	0.000000	7.019137	-0.084821	NaN	0.000000	0.001600	0.001745	28.0822	0.070474	0.001992	35.3824	65.9768	-166.367	-0.063499	1.017851	-0.059430	-0.060707	-0.084821	35.3824	-0.057632	-0.153840	0.551363	NaN
596	1.000000	1.027164	7.37089e+06	-47289.1	1005.82	-29766.5	0.000000	0.000000	7.027176	-0.050477	NaN	0.000000	0.001559	0.001790	28.0826	0.033828	0.002016	16.7762	-62.4372	-163.465	-0.000384	1.025853	-0.051393	-0.052704	-0.050477	16.7762	-0.049136	-0.085918	0.587506	NaN
596	1.000000	1.035177	7.37089e+06	-47289.1	1005.82	-29766.5	0.000000	0.000000	7.035191	0.016390	NaN	0.000000	0.001568	0.001756	28.0821	0.014448	0.002059	7.016470	98.1075	-162.206	-0.045930	1.033802	-0.043380	-0.044756	0.016390	7.016470	-0.045132	-0.064869	-0.252657	NaN
596	1.000000	1.043178	7.37089e+06	-47289.1	1005.82	-29766.5	0.000000	0.000000	7.043191	-0.035207	NaN	0.000000	0.001563	0.001763	28.0821	0.163490	0.002027	80.6739	-173.896	-164.703	-0.043544	1.041833	-0.035379	-0.036725	-0.035207	80.6739	-0.035052	-0.032137	1.095546	NaN
596	1.000000	1.051142	7.37089e+06	-47289.1	1005.82	-29766.5	0.000000	0.000000	7.051154	-0.050415	NaN	0.000000	0.001597	0.001736	28.0822	0.010574	0.002009	5.262803	35.7209	-162.173	-0.056786	1.049855	-0.027415	-0.028703	-0.050415	5.262803	-0.020231	-0.012732	3.959795	NaN
596	1.000000	1.059149	7.37089e+06	-47289.1	1005.82	-29766.5	0.000000	0.000000	7.059158	-0.108652	NaN	0.000000	0.001599	0.001758	28.0822	0.055229	0.002115	26.1172	-98.935	-166.707	-0.070452	1.057894	-0.019408	-0.020663	-0.108652	26.1172	-0.016288	-0.010062	10.7988	NaN
596	1.000000	1.067150	7.37089e+06	-47289.1	1005.82	-29766.5	0.000000	0.000000	7.067164	0.012901	NaN	0.000000	0.001551	0.001762	28.0824	0.154768	0.001970	78.5593	111.892	-167.344	-0.006382	1.065847	-0.011407	-0.012711	0.012901	78.5593	-0.011530	-0.007260	-1.776953	NaN
596	1.000000	1.075162	7.37089e+06	-47289.1	1005.82	-29766.5	0.000000	0.000000	7.075200	0.610309	NaN	0.000000	0.001553	0.001788	28.0821	1.069004	0.001866	572.745	12.249	-167.821	0.126715	1.073845	-0.003396	-0.004712	0.610309	572.745	-0.004195	-0.002905	-210.113	NaN
596	1.000000	1.083029	7.37089e+06	-47289.1	1005.82	-29766.5	0.000000	0.000000	7.083392	8.508103	NaN	0.000000	0.001532	0.001784	28.0823	8.329999	0.001541	5404.7	10.0192	-172.074	6.910918	1.081840	0.004472	0.003283	8.508103	5404.7	0.003291	0.002626	3239.46	96352.8
596	2.000000	1.085680	7.37089e+06	-47289.1	1005.82	-29766.5	0.000000	0.000000	7.086156	11.2494	NaN	0.000000	0.001532	0.001766	28.0819	10.7865	0.001587	6797.38	7.328211	-172.716	10.6185	1.085385	0.007122	0.006827	11.2494	6797.38	0.005881	0.004952	2271.75	88253.1
596	2.000000	1.087642	7.37089e+06	-47289.1	1005.82	-29766.5	0.000000	0.000000	7.088266	14.8343	NaN	0.000000	0.001509	0.001813	28.0821	13.9099	0.001698	8191.31	5.481304	-174.609	14.2086	1.087356	0.009085	0.008798	14.8343	8191.31	0.007727	0.006763	2193.54	91005.3
596	2.000000	1.089677	7.37089e+06	-47289.1	1005.82	-29766.5	0.000000	0.000000	7.090440	18.2422	NaN	0.000000	0.001511	0.001825	28.082	16.1485	0.001741	9275.47	9.165001	-175.006	18.1728	1.089314	0.011119	0.010757	18.2422	9275.47	0.009644	0.008789	2075.66	90396
596	2.000000	1.091650	7.37089e+06	-47289.1	1005.82	-29766.5	0.000000	0.000000	7.092518	20.7716	NaN	0.000000	0.001517	0.001832	28.0807	18.3017	0.001685	10862.5	5.923051	-176.25	21.0495	1.091345	0.013093	0.012788	20.7716	10862.5	0.011658	0.011083	1874.1	94268
596	2.000000	1.093640	7.37089e+06	-47289.1	1005.82	-29766.5	0.000000	0.000000	7.094692	25.2556	NaN	0.000000	0.001545	0.001810	28.0815	20.4609	0.001756	11653.2	7.193819	-177.608	24.9536	1.093287	0.015083	0.014730	25.2556	11653.2	0.013457	0.013283	1901.4	92379.5
596	2.000000	1.095632	7.37089e+06	-47289.1	1005.82	-29766.5	0.000000	0.000000	7.096917	30.9388	NaN	0.000000	0.001551	0.001805	28.081	22.4176	0.001657	13532.7	8.957181	177.972	30.2134	1.095256	0.017075	0.016699	30.9388	13532.7	0.015360	0.015768	1962.09	98461.3
596	2.000000	1.097606	7.37089e+06	-47289.1	1005.82	-29766.5	0.000000	0.000000	7.099051	34.8106	NaN	0.000000	0.001520	0.001804	28.081	24.8756	0.001798	13832.6	4.836611	-176.641	34.621	1.097263	0.019049	0.018706	34.8106	13832.6	0.017161	0.018276	1904.69	93483.4
596	2.000000	1.099671	7.37089e+06	-47289.1	1005.82	-29766.5	0.000000	0.000000	7.101286	38.9718	NaN	0.000000	0.001531	0.001785	28.0811	26.8249	0.001810	14818.8	7.948307	179.791	39.3533	1.099292	0.021113	0.020734	38.9718	14818.8	0.019141	0.021210	1837.42	92964.3
596	2.000000	1.101573	7.37089e+06	-47289.1	1005.82	-29766.5	0.000000	0.000000	7.103424	44.6992	NaN	0.000000	0.001543	0.001793	28.081	27.822	0.001680	16559.6	0.443303	-174.638	41.9239	1.101293	0.023016	0.022736	44.6992	16559.6	0.020991	0.024124	1852.93	97409.8
596	2.000000	1.103615	7.37089e+06	-47289.1	1005.82	-29766.5	0.000000	0.000000	7.105745	51.4794	NaN	0.000000	0.001526	0.001781	28.0816	31.4697	0.001681	18720.6	4.763058	179.812	51.6826	1.103310	0.025058	0.024752	51.4794	18720.6	0.022995	0.027469	1874.08	103198
596	2.000000	1.105625	7.37089e+06	-47289.1	1005.82	-29766.5	0.000000	0.000000	7.108048	58.6004	NaN	0.000000	0.001515	0.001783	28.081	32.7853	0.001777	18445.2	9.014755	175.916	58.044	1.105307	0.027068	0.026750	58.6004	18445.2	0.024685	0.030445	1924.81	96582.9
596	2.000000	1.107601	7.37089e+06	-47289.1	1005.82	-29766.5	0.000000	0.000000	7.110184	62.5092	NaN	0.000000	0.001552	0.001772	28.0813	35.9373	0.001928	18639.1	6.349108	178.993	61.9633	1.107248	0.029044	0.028690	62.5092	18639.1	0.026528	0.033855	1846.38	92552.4
596	2.000000	1.109647	7.37089e+06	-47289.1	1005.82	-29766.5	0.000000	0.000000	7.112495	68.9577	NaN	0.000000	0.001518	0.001769	28.0815	37.105	0.001709	21712.2	4.025709	179.376	67.8285	1.109359	0.031089	0.030802	68.9577	21712.2	0.028707	0.038107	1809.57	101619
596	2.000000	1.111618	7.37089e+06	-47289.1	1005.82	-29766.5	0.000000	0.000000	7.114737	75.5287	NaN	0.000000	0.001521	0.001773	28.081	38.0246	0.001668	22796.2	3.017382	-179.582	76.1272	1.111257	0.033061	0.032699	75.5287	22796.2	0.030576	0.041946	1800.6	101692
596	2.000000	1.113610	7.37089e+06	-47289.1	1005.82	-29766.5	0.000000	0.000000	7.116960	81.1522	NaN	0.000000	0.001563	0.001755	28.0817	41.6385	0.001867	22306.7	3.675433	179.356	80.4316	1.113321	0.035053	0.034763	81.1522	22306.7	0.032324	0.045699	1775.79	95335.3
596	2.000000	1.115588	7.37089e+06	-47289.1	1005.82	-29766.5	0.000000	0.000000	7.119353	91.2653	NaN	0.000000	0.001517	0.001799	28.0811	43.1476	0.001693	25478.6	7.754061	174.998	91.0852	1.115196	0.037030	0.036639	91.2653	25478.6	0.034344	0.050229	1816.98	103865
596	2.000000	1.117517	7.37089e+06	-47289.1	1005.82	-29766.5	0.000000	0.000000	7.121426	94.7473	NaN	0.000000	0.001527	0.001807	28.0813	46.2409	0.001823	25371.9	4.686930	176.629	91.3685	1.117302	0.038960	0.038744	94.7473	25371.9	0.036159	0.054479	1739.16	99314.7
596	2.000000	1.119605	7.37089e+06	-47289.1	1005.82	-29766.5	0.000000	0.000000	7.123846	102.824	NaN	0.000000	0.001541	0.001790	28.0813	47.5561	0.001738	27364.6	4.103899	177.452	103.527	1.119296	0.041047	0.040738	102.824	27364.6	0.038229	0.059532	1727.19	102467
596	2.000000	1.121537	7.37089e+06	-47289.1	1005.82	-29766.5	0.000000	0.000000	7.126254	114.418	NaN	0.000000	0.001532	0.001758	28.0812	49.0958	0.001723	28501.1	4.107957	177.26	112.247	1.121192	0.042979	0.042634	114.418	28501.1	0.039968	0.063947	1789.28	102973
596	2.000000	1.123569	7.37089e+06	-47289.1	1005.82	-29766.5	0.000000	0.000000	7.128506	119.764	NaN	0.000000	0.001559	0.001786	28.0818	52.7466	0.001908	27649.9	5.712389	176.317	119.175	1.123255	0.045012	0.044698	119.764	27649.9	0.041763	0.068664	1744.2	96405.3
596	2.000000	1.125528	7.37089e+06	-47289.1	1005.82	-29766.5	0.000000	0.000000	7.131089	134.94	NaN	0.000000	0.001539	0.001808	28.0824	53.2873	0.001825	29204.6	4.053874	177.382	132.25	1.125253	0.046970	0.046696	134.94	29204.6	0.043505	0.073400	1838.41	98486.3
596	2.000000	1.127532	7.37089e+06	-47289.1	1005.82	-29766.5	0.000000	0.000000	7.133398	142.352	NaN	0.000000	0.001550	0.001800	28.0827	55.5624	0.001775	31299.8	2.808068	178.2	138.615	1.127151	0.048974	0.048594	142.352	31299.8	0.045563	0.079195	1797.49	101617
596	2.000000	1.129606	7.37089e+06	-47289.1	1005.82	-29766.5	0.000000	0.000000	7.135752	149.155	NaN	0.000000	0.001523	0.001818	28.0826	57.6691	0.001743	33082.2	2.843728	177.23	150.226	1.129226	0.051049	0.050669	149.155	33082.2	0.047668	0.085340	1747.77	103464
596	2.000000	1.131548	7.37089e+06	-47289.1	1005.82	-29766.5	0.000000	0.000000	7.138111	159.306	NaN	0.000000	0.001522	0.001796	28.0826	59.4476	0.001821	32653.8	6.622526	173.763	158.494	1.131190	0.052990	0.052633	159.306	32653.8	0.049331	0.090358	1763.06	99248.8
596	2.000000	1.133596	7.37089e+06	-47289.1	1005.82	-29766.5	0.000000	0.000000	7.140668	171.687	NaN	0.000000	0.001531	0.001794	28.0827	61.3714	0.001831	33512.1	2.732738	177.531	171.75	1.133296	0.055039	0.054738	171.687	33512.1	0.051196	0.096146	1785.68	98743.3
596	2.000000	1.135541	7.37089e+06	-47289.1	1005.82	-29766.5	0.000000	0.000000	7.143199	185.929	NaN	0.000000	0.001502	0.001758	28.0825	62.8921	0.001846	34069.4	7.126286	173.106	185.062	1.135258	0.056984	0.056701	185.929	34069.4	0.052891	0.101557	1830.78	97674.6
596	2.000000	1.137501	7.37089e+06	-47289.1	1005.82	-29766.5	0.000000	0.000000	7.145421	192.305	NaN	0.000000	0.001526	0.001823	28.0826	64.1862	0.001732	37051.8	3.832042	174.749	188.533	1.137358	0.058943	0.058800	192.305	37051.8	0.055051	0.108662	1769.76	102694
596	2.000000	1.139543	7.37089e+06	-47289.1	1005.82	-29766.5	0.000000	0.000000	7.148100	207.798	NaN	0.000000	0.001509	0.001794	28.0827	66.7423	0.001891	35291.9	4.396771	175.535	207.169	1.139220	0.060986	0.060662	207.798	35291.9	0.056570	0.113797	1826.04	95583.4
596	2.000000	1.141495	7.37089e+06	-47289.1	1005.82	-29766.5	0.000000	0.000000	7.150556	220.073	NaN	0.000000	0.001525	0.001824	28.0828	67.6538	0.001770	38220.4	3.154370	175.383	215.364	1.141155	0.062938	0.062598	220.073	38220.4	0.058619	0.120903	1820.25	100427
596	2.000000	1.143605	7.37089e+06	-47289.1	1005.82	-29766.5	0.000000	0.000000	7.153242	234.079	NaN	0.000000	0.001527	0.001805	28.0827	71.198	0.001868	38111.5	6.067544	172.848	235.475	1.143294	0.065048	0.064737	234.079	38111.5	0.060442	0.127396	1837.41	97555.3
596	2.000000	1.145470	7.37089e+06	-47289.1	1005.82	-29766.5	0.000000	0.000000	7.155788	250.659	NaN	0.000000	0.001539	0.001812	28.0824	70.4463	0.001790	39347.2	0.915896	177.65	246.393	1.145232	0.066912	0.066674	250.659	39347.2	0.062134	0.133573	1876.57	98362.2
596	2.000000	1.147506	7.37089e+06	-47289.1	1005.82	-29766.5	0.000000	0.000000	7.158251	261.042	NaN	0.000000	0.001559	0.001810	28.0824	72.9332	0.001731	42140.5	2.995641	175.954	257.636	1.147099	0.068948	0.068542	261.042	42140.5	0.064302	0.141686	1842.39	102284
596	2.000000	1.149623	7.37089e+06	-47289.1	1005.82	-29766.5	0.000000	0.000000	7.161014	276.722	NaN	0.000000	0.001534	0.001772	28.0824	75.4336	0.001708	44159.8	5.752014	171.869	277.501	1.149226	0.071066	0.070668	276.722	44159.8	0.066366	0.149621	1849.48	104305
596	2.000000	1.151486	7.37089e+06	-47289.1	1005.82	-29766.5	0.000000	0.000000	7.163146	283.3	NaN	0.000000	0.001553	0.001839	28.0824	77.2298	0.001767	43704.1	4.411681	172.622	279.418	1.151249	0.072928	0.072691	283.3	43704.1	0.068067	0.156312	1812.4	100995
596	2.000000	1.153523	7.37089e+06	-47289.1	1005.82	-29766.5	0.000000	0.000000	7.165800	298.28	NaN	0.000000	0.001557	0.001826	28.0824	79.1901	0.001776	44583.4	1.636655	175.834	296.295	1.153316	0.074966	0.074758	298.28	44583.4	0.069948	0.163876	1820.16	100621
596	2.000000	1.155552	7.37089e+06	-47289.1	1005.82	-29766.5	0.000000	0.000000	7.168878	323.804	NaN	0.000000	0.001576	0.001806	28.0824	80.6821	0.001775	45465.1	6.721180	171.159	325.689	1.155192	0.076995	0.076635	323.804	45465.1	0.071654	0.170879	1894.93	100486
596	2.000000	1.157500	7.37089e+06	-47289.1	1005.82	-29766.5	0.000000	0.000000	7.171168	332.141	NaN	0.000000	0.001570	0.001810	28.0824	84.176	0.001771	47527.3	6.304215	171.173	329.924	1.157210	0.078942	0.078652	332.141	47527.3	0.073701	0.179467	1850.7	102500
596	2.000000	1.159531	7.37089e+06	-47289.1	1005.82	-29766.5	0.000000	0.000000	7.173794	346.596	NaN	0.000000	0.001585	0.001848	28.0811	84.7029	0.001745	48535.6	0.173839	177.213	343.918	1.159230	0.080974	0.080672	346.596	48535.6	0.075618	0.187688	1846.66	102356
596	2.000000	1.161487	7.37089e+06	-47289.1	1005.82	-29766.5	0.000000	0.000000	7.176476	364.257	NaN	0.000000	0.001569	0.001845	28.0812	88.1061	0.001828	48196.9	4.147565	173.145	360.966	1.161176	0.082930	0.082619	364.257	48196.9	0.077262	0.194875	1869.18	99750.4
596	2.000000	1.163469	7.37089e+06	-47289.1	1005.82	-29766.5	0.000000	0.000000	7.178889	374.747	NaN	0.000000	0.001589	0.001842	28.0813	90.278	0.001810	49864.5	4.322886	172.784	371.181	1.163210	0.084911	0.084653	374.747	49864.5	0.079275	0.203850	1838.35	100904
596	2.000000	1.165502	7.37089e+06	-47289.1	1005.82	-29766.5	0.000000	0.000000	7.181697	393.607	NaN	0.000000	0.001581	0.001814	28.0814	90.3629	0.001817	49734.7	0.966493	176.113	389.932	1.165132	0.086944	0.086575	393.607	49734.7	0.081009	0.211730	1859	98750.9
596	2.000000	1.167465	7.37089e+06	-47289.1	1005.82	-29766.5	0.000000	0.000000	7.184603	416.533	NaN	0.000000	0.001583	0.001840	28.0812	92.3073	0.001720	53676.2	1.605112	175.921	411.904	1.167050	0.088908	0.088493	416.533	53676.2	0.083088	0.221364	1881.67	104232
596	2.000000	1.169511	7.37089e+06	-47289.1	1005.82	-29766.5	0.000000	0.000000	7.187219	430.388	NaN	0.000000	0.001586	0.001833	28.0813	95.6018	0.001670	57233	6.338815	170.618	427.502	1.169079	0.090954	0.090521	430.388	57233	0.085314	0.231901	1855.91	108585
596	2.000000	1.171474	7.37089e+06	-47289.1	1005.82	-29766.5	0.000000	0.000000	7.189770	444.712	NaN	0.000000	0.001595	0.001788	28.0811	97.6644	0.001835	53213	7.165682	170.114	441.349	1.171147	0.092916	0.092590	444.712	53213	0.086648	0.238327	1865.97	99587.3
596	2.000000	1.173466	7.37089e+06	-47289.1	1005.82	-29766.5	0.000000	0.000000	7.192326	458.413	NaN	0.000000	0.001565	0.001794	28.0814	101.11	0.001848	54702.3	7.382680	169.574	455.102	1.173139	0.094909	0.094581	458.413	54702.3	0.088624	0.247991	1848.5	100360
596	2.000000	1.175406	7.37089e+06	-47289.1	1005.82	-29766.5	0.000000	0.000000	7.195108	478.897	NaN	0.000000	0.001582	0.001794	28.0812	100.967	0.001711	59020.3	5.172583	170.825	474.711	1.175185	0.096848	0.096628	478.897	59020.3	0.090763	0.258657	1851.47	106026
596	2.000000	1.177557	7.37089e+06	-47289.1	1005.82	-29766.5	0.000000	0.000000	7.197899	494.474	NaN	0.000000	0.001512	0.001802	28.0815	102.676	0.001810	56718.9	2.548947	174.37	496.813	1.177030	0.098999	0.098472	494.474	56718.9	0.092461	0.267273	1850.07	100236
596	2.000000	1.179494	7.37089e+06	-47289.1	1005.82	-29766.5	0.000000	0.000000	7.200327	506.393	NaN	0.000000	0.001536	0.001774	28.0815	104.373	0.001744	59845.4	4.704073	171.428	503.325	1.179283	0.100937	0.100725	506.393	59845.4	0.094591	0.278266	1819.81	103651
596	2.000000	1.181453	7.37089e+06	-47289.1	1005.82	-29766.5	0.000000	0.000000	7.203196	528.56	NaN	0.000000	0.001538	0.001808	28.0812	107.269	0.001799	59634.2	9.008693	167.965	525.421	1.181055	0.102895	0.102498	528.56	59634.2	0.096248	0.286964	1841.91	101708
596	2.000000	1.182471	7.37089e+06	-47289.1	1005.82	-29766.5	0.000000	0.000000	7.204118	526.204	NaN	0.000000	0.001482	0.001795	28.0816	105.732	0.001747	60526.5	2.166042	173.7	524.008	1.182280	0.103913	0.103722	526.204	60526.5	0.097393	0.293048	1795.62	102153