File: remote_trans/data/nanoindenter/0828-1/data/Data_2025-08-06,11h17m57s/2025-07-22_16-23-58_1_1037.txt
2025-07-22, 16:23:58, 1
Index	Phase	Displacement	Time	Pos X	Pos Y	Pos Z	Rot A	Rot B	Piezo Z	Force A	Force B	Gripper	Voltage A	Voltage B	Temperature	Amplitude force	Amplitude pos	Stiffness	Phase shift	Phase excitation	Force A raw	Displacement raw	HMax	HMax raw	Real Force	Real Stiffness	Contact Depth	Area	Hardness	Reduced Mod.
[#]	[#]	[um]	[s]	[um]	[um]	[um]	[m°]	[m°]	[um]	[uN]	[uN]	[V]	[V]	[V]	[°C]	[uN]	[um]	[N/m]	[°]	[°]	[uN]	[um]	[um]	[um]	[uN]	[N/m]	[um]	[um^2]	[MPa]	[MPa]
1037	1.000000	0.002756	7.37519e+06	-51989.1	1055.82	-29750.4	0.000000	0.000000	6.002791	-0.011321	NaN	0.000000	0.001552	0.001757	28.0852	0.111785	0.000995	112.305	-45.1852	-166.468	0.026590	0.001527	-1.081483	-1.082712	-0.011321	112.305	-1.081407	-2.821105E+14	4.012825E-17	NaN
1037	1.000000	0.010720	7.37519e+06	-51989.1	1055.82	-29750.4	0.000000	0.000000	6.010753	-0.087903	NaN	0.000000	0.001568	0.001752	28.0846	0.084132	0.000957	87.8844	-124.433	-164.676	-0.076013	0.009398	-1.073518	-1.074840	-0.087903	87.8844	-1.072768	-2.159598E+14	4.070319E-16	NaN
1037	1.000000	0.018718	7.37519e+06	-51989.1	1055.82	-29750.4	0.000000	0.000000	6.018754	0.005119	NaN	0.000000	0.001547	0.001738	28.0854	0.095335	0.001704	55.95	164.405	-164.067	-0.015195	0.017374	-1.065520	-1.066864	0.005119	55.95	-1.065589	-1.729512E+14	-2.960026E-17	NaN
1037	1.000000	0.026736	7.37519e+06	-51989.1	1055.82	-29750.4	0.000000	0.000000	6.026772	0.011920	NaN	0.000000	0.001576	0.001739	28.087	0.078677	0.001739	45.2494	-0.943927	-167.776	-0.009034	0.025417	-1.057502	-1.058821	0.011920	45.2494	-1.057700	-1.354910E+14	-8.797301E-17	NaN
1037	1.000000	0.034709	7.37519e+06	-51989.1	1055.82	-29750.4	0.000000	0.000000	6.034747	0.048840	NaN	0.000000	0.001534	0.001729	28.0846	0.074678	0.001930	38.687	16.0758	-165.86	0.045981	0.033417	-1.049529	-1.050821	0.048840	38.687	-1.050476	-1.083457E+14	-4.507782E-16	NaN
1037	1.000000	0.042692	7.37519e+06	-51989.1	1055.82	-29750.4	0.000000	0.000000	6.042729	0.010298	NaN	0.000000	0.001592	0.001783	28.0845	0.128327	0.002097	61.203	-132.162	-168.208	0.014244	0.041408	-1.041546	-1.042830	0.010298	61.203	-1.041672	-8.250020E+13	-1.248292E-16	NaN
1037	1.000000	0.050703	7.37519e+06	-51989.1	1055.82	-29750.4	0.000000	0.000000	6.050741	0.037284	NaN	0.000000	0.001641	0.001794	28.0837	0.084848	0.001911	44.4024	-128.006	-165.825	-0.011983	0.049368	-1.033535	-1.034871	0.037284	44.4024	-1.034165	-6.538796E+13	-5.701899E-16	NaN
1037	1.000000	0.058731	7.37519e+06	-51989.1	1055.82	-29750.4	0.000000	0.000000	6.058770	0.060735	NaN	0.000000	0.001625	0.001754	28.0834	0.027866	0.002021	13.7916	-31.7672	-167.078	0.077438	0.057386	-1.025507	-1.026852	0.060735	13.7916	-1.028810	-5.539552E+13	-1.096381E-15	NaN
1037	1.000000	0.066718	7.37519e+06	-51989.1	1055.82	-29750.4	0.000000	0.000000	6.066753	-0.009914	NaN	0.000000	0.001564	0.001762	28.0835	0.063703	0.002089	30.497	48.6823	-164.653	-0.000958	0.065450	-1.017520	-1.018788	-0.009914	30.497	-1.017277	-3.875327E+13	2.558201E-16	NaN
1037	1.000000	0.074700	7.37519e+06	-51989.1	1055.82	-29750.4	0.000000	0.000000	6.074736	-0.012156	NaN	0.000000	0.001588	0.001720	28.0833	0.037334	0.001979	18.8605	160.378	-165.653	0.044464	0.073468	-1.009538	-1.010770	-0.012156	18.8605	-1.009055	-3.003708E+13	4.046969E-16	NaN
1037	1.000000	0.082736	7.37519e+06	-51989.1	1055.82	-29750.4	0.000000	0.000000	6.082773	0.022036	NaN	0.000000	0.001601	0.001704	28.083	0.028601	0.001996	14.3286	113.092	-167.669	0.035568	0.081416	-1.001502	-1.002822	0.022036	14.3286	-1.002656	-2.463335E+13	-8.945605E-16	NaN
1037	1.000000	0.090729	7.37519e+06	-51989.1	1055.82	-29750.4	0.000000	0.000000	6.090765	0.010839	NaN	0.000000	0.001593	0.001742	28.0833	0.013173	0.002052	6.419223	-93.6705	-165.912	0.012906	0.089394	-0.993510	-0.994844	0.010839	6.419223	-0.994776	-1.929429E+13	-5.617627E-16	NaN
1037	1.000000	0.098767	7.37519e+06	-51989.1	1055.82	-29750.4	0.000000	0.000000	6.098805	0.051267	NaN	0.000000	0.001596	0.001755	28.0832	0.122013	0.001994	61.1782	47.3309	-165.515	0.066566	0.097407	-0.985471	-0.986831	0.051267	61.1782	-0.986100	-1.474280E+13	-3.477400E-15	NaN
1037	1.000000	0.106716	7.37519e+06	-51989.1	1055.82	-29750.4	0.000000	0.000000	6.106752	0.006279	NaN	0.000000	0.001581	0.001776	28.0836	0.078121	0.001914	40.8196	44.7862	-165.98	0.016017	0.105401	-0.977522	-0.978837	0.006279	40.8196	-0.977638	-1.133926E+13	-5.537276E-16	NaN
1037	1.000000	0.114733	7.37519e+06	-51989.1	1055.82	-29750.4	0.000000	0.000000	6.114772	0.083671	NaN	0.000000	0.001561	0.001729	28.0832	0.163811	0.001917	85.4693	-151.618	-168.512	0.086100	0.113386	-0.969505	-0.970852	0.083671	85.4693	-0.970239	-9.013427E+12	-9.282938E-15	NaN
1037	1.000000	0.122760	7.37519e+06	-51989.1	1055.82	-29750.4	0.000000	0.000000	6.122796	0.011829	NaN	0.000000	0.001610	0.001711	28.0834	0.065983	0.002063	31.9885	2.159970	-166.005	0.034821	0.121410	-0.961479	-0.962828	0.011829	31.9885	-0.961756	-6.926967E+12	-1.707700E-15	NaN
1037	1.000000	0.130773	7.37519e+06	-51989.1	1055.82	-29750.4	0.000000	0.000000	6.130811	0.035699	NaN	0.000000	0.001603	0.001767	28.0832	0.052156	0.002030	25.6952	49.4787	-169.805	0.030460	0.129474	-0.953465	-0.954764	0.035699	25.6952	-0.954507	-5.531068E+12	-6.454219E-15	NaN
1037	1.000000	0.138765	7.37519e+06	-51989.1	1055.82	-29750.4	0.000000	0.000000	6.138801	0.015759	NaN	0.000000	0.001576	0.001741	28.0832	0.137685	0.001853	74.3063	-107.567	-165.738	-0.012809	0.137370	-0.945474	-0.946869	0.015759	74.3063	-0.945633	-4.198809E+12	-3.753312E-15	NaN
1037	1.000000	0.146769	7.37519e+06	-51989.1	1055.82	-29750.4	0.000000	0.000000	6.146807	0.063329	NaN	0.000000	0.001570	0.001748	28.0835	0.082662	0.002021	40.9113	40.8485	-167.459	0.088026	0.145392	-0.937469	-0.938847	0.063329	40.9113	-0.938630	-3.377990E+12	-1.874751E-14	NaN
1037	1.000000	0.154765	7.37519e+06	-51989.1	1055.82	-29750.4	0.000000	0.000000	6.154800	-0.030332	NaN	0.000000	0.001587	0.001736	28.0832	0.025350	0.001857	13.6492	-32.317	-166.558	-0.048284	0.153453	-0.929473	-0.930786	-0.030332	13.6492	-0.927807	-2.413196E+12	1.256920E-14	NaN
1037	1.000000	0.162750	7.37519e+06	-51989.1	1055.82	-29750.4	0.000000	0.000000	6.162786	-9.951578E-5	NaN	0.000000	0.001589	0.001760	28.0832	0.067565	0.002106	32.0839	80.9304	-165.965	0.078097	0.161452	-0.921488	-0.922786	-9.951578E-5	32.0839	-0.921486	-1.982745E+12	5.019091E-17	NaN
1037	1.000000	0.170773	7.37519e+06	-51989.1	1055.82	-29750.4	0.000000	0.000000	6.170811	0.040129	NaN	0.000000	0.001575	0.001783	28.0833	0.058182	0.002213	26.2864	-69.5517	-168.189	-0.009665	0.169477	-0.913465	-0.914762	0.040129	26.2864	-0.914610	-1.601131E+12	-2.506306E-14	NaN
1037	1.000000	0.178783	7.37519e+06	-51989.1	1055.82	-29750.4	0.000000	0.000000	6.178819	0.015157	NaN	0.000000	0.001580	0.001758	28.0832	0.025600	0.001955	13.0966	-29.8858	-166.561	0.046198	0.177481	-0.905456	-0.906758	0.015157	13.0966	-0.906324	-1.237381E+12	-1.224893E-14	NaN
1037	1.000000	0.186769	7.37519e+06	-51989.1	1055.82	-29750.4	0.000000	0.000000	6.186802	-0.051608	NaN	0.000000	0.001582	0.001792	28.0847	0.058585	0.002125	27.5732	-174.198	-165.973	-0.040653	0.185461	-0.897470	-0.898777	-0.051608	27.5732	-0.896066	-8.993026E+11	5.738618E-14	NaN
1037	1.000000	0.194806	7.37519e+06	-51989.1	1055.82	-29750.4	0.000000	0.000000	6.194842	0.010508	NaN	0.000000	0.001563	0.001805	28.0847	0.055837	0.002089	26.7338	28.7631	-166.04	0.065463	0.193482	-0.889433	-0.890757	0.010508	26.7338	-0.889727	-7.382957E+11	-1.423293E-14	NaN
1037	1.000000	0.202766	7.37519e+06	-51989.1	1055.82	-29750.4	0.000000	0.000000	6.202803	0.033982	NaN	0.000000	0.001586	0.001798	28.0849	0.090494	0.002191	41.297	134.373	-168.333	0.060436	0.201472	-0.881472	-0.882767	0.033982	41.297	-0.882089	-5.820552E+11	-5.838269E-14	NaN
1037	1.000000	0.210780	7.37519e+06	-51989.1	1055.82	-29750.4	0.000000	0.000000	6.210817	0.025812	NaN	0.000000	0.001558	0.001768	28.0848	0.062863	0.002017	31.1725	121.398	-168.189	0.009040	0.209540	-0.873459	-0.874699	0.025812	31.1725	-0.874080	-4.535620E+11	-5.690891E-14	NaN
1037	1.000000	0.218777	7.37519e+06	-51989.1	1055.82	-29750.4	0.000000	0.000000	6.218813	-0.004471	NaN	0.000000	0.001571	0.001757	28.0848	0.075524	0.002049	36.8508	76.779	-166.994	-0.005712	0.217431	-0.865461	-0.866807	-0.004471	36.8508	-0.865370	-3.457819E+11	1.293082E-14	NaN
1037	1.000000	0.226788	7.37519e+06	-51989.1	1055.82	-29750.4	0.000000	0.000000	6.226823	-0.037619	NaN	0.000000	0.001554	0.001732	28.0846	0.075722	0.002075	36.4906	-112.287	-166.112	-0.119162	0.225439	-0.857450	-0.858800	-0.037619	36.4906	-0.856677	-2.637177E+11	1.426472E-13	NaN
1037	1.000000	0.234809	7.37519e+06	-51989.1	1055.82	-29750.4	0.000000	0.000000	6.234846	0.016362	NaN	0.000000	0.001582	0.001761	28.0848	0.018605	0.002049	9.081250	-59.4114	-168.496	0.041629	0.233496	-0.849429	-0.850742	0.016362	9.081250	-0.850781	-2.194362E+11	-7.456285E-14	NaN
1037	1.000000	0.242811	7.37519e+06	-51989.1	1055.82	-29750.4	0.000000	0.000000	6.242847	0.005443	NaN	0.000000	0.001569	0.001778	28.0847	0.116635	0.002068	56.4099	178.463	-166.839	0.054828	0.241508	-0.841428	-0.842730	0.005443	56.4099	-0.841500	-1.642907E+11	-3.312751E-14	NaN
1037	1.000000	0.250781	7.37519e+06	-51989.1	1055.82	-29750.4	0.000000	0.000000	6.250818	0.034684	NaN	0.000000	0.001577	0.001755	28.085	0.035127	0.002007	17.5001	96.9261	-168.962	-0.002122	0.249498	-0.833457	-0.834740	0.034684	17.5001	-0.834944	-1.339017E+11	-2.590280E-13	NaN
1037	1.000000	0.258794	7.37519e+06	-51989.1	1055.82	-29750.4	0.000000	0.000000	6.258829	-0.017564	NaN	0.000000	0.001574	0.001739	28.0851	0.060238	0.001895	31.7943	163.637	-169.18	-0.082545	0.257461	-0.825444	-0.826778	-0.017564	31.7943	-0.825030	-9.826771E+10	1.787336E-13	NaN
1037	1.000000	0.266828	7.37519e+06	-51989.1	1055.82	-29750.4	0.000000	0.000000	6.266865	0.020773	NaN	0.000000	0.001556	0.001756	28.085	0.099001	0.002066	47.9206	99.7501	-168.965	-0.006435	0.265500	-0.817410	-0.818738	0.020773	47.9206	-0.817735	-7.825307E+10	-2.654530E-13	NaN
1037	1.000000	0.274794	7.37519e+06	-51989.1	1055.82	-29750.4	0.000000	0.000000	6.274832	0.051191	NaN	0.000000	0.001562	0.001740	28.0851	0.059487	0.001997	29.784	57.7344	-166.794	0.050413	0.273473	-0.809445	-0.810765	0.051191	29.784	-0.810734	-6.288211E+10	-8.140798E-13	NaN
1037	1.000000	0.282829	7.37519e+06	-51989.1	1055.82	-29750.4	0.000000	0.000000	6.282866	0.029936	NaN	0.000000	0.001603	0.001760	28.0848	0.077537	0.002036	38.0866	41.7153	-167.411	-0.004899	0.281465	-0.801409	-0.802774	0.029936	38.0866	-0.801999	-4.786205E+10	-6.254707E-13	NaN
1037	1.000000	0.290832	7.37519e+06	-51989.1	1055.82	-29750.4	0.000000	0.000000	6.290869	0.020890	NaN	0.000000	0.001583	0.001730	28.0848	0.038863	0.002070	18.7711	158.431	-168.114	0.024841	0.289488	-0.793406	-0.794751	0.020890	18.7711	-0.794241	-3.755539E+10	-5.562350E-13	NaN
1037	1.000000	0.298806	7.37519e+06	-51989.1	1055.82	-29750.4	0.000000	0.000000	6.298842	-0.000722	NaN	0.000000	0.001603	0.001750	28.0847	0.057290	0.001994	28.7332	-17.2973	-169.082	0.038802	0.297477	-0.785432	-0.786761	-0.000722	28.7332	-0.785413	-2.849568E+10	2.534716E-14	NaN
1037	1.000000	0.306813	7.37519e+06	-51989.1	1055.82	-29750.4	0.000000	0.000000	6.306849	0.016199	NaN	0.000000	0.001549	0.001781	28.0846	0.064881	0.001944	33.3806	68.0833	-169.515	0.037220	0.305504	-0.777426	-0.778734	0.016199	33.3806	-0.777790	-2.244896E+10	-7.215918E-13	NaN
1037	1.000000	0.314838	7.37519e+06	-51989.1	1055.82	-29750.4	0.000000	0.000000	6.314875	0.017877	NaN	0.000000	0.001595	0.001777	28.0847	0.010559	0.001954	5.403171	24.418	-164.17	0.036354	0.313425	-0.769400	-0.770813	0.017877	5.403171	-0.771882	-1.865905E+10	-9.580944E-13	NaN
1037	1.000000	0.322822	7.37519e+06	-51989.1	1055.82	-29750.4	0.000000	0.000000	6.322863	0.119149	NaN	0.000000	0.001615	0.001775	28.0835	0.078227	0.002010	38.9175	-120.736	-167.371	0.078022	0.321516	-0.761416	-0.762723	0.119149	38.9175	-0.763712	-1.444768E+10	-8.246906E-12	NaN
1037	1.000000	0.330846	7.37519e+06	-51989.1	1055.82	-29750.4	0.000000	0.000000	6.330880	-0.044546	NaN	0.000000	0.001597	0.001777	28.0832	0.020495	0.001991	10.2939	-4.310085	-165.713	-0.090577	0.329514	-0.753392	-0.754724	-0.044546	10.2939	-0.750147	-9.445367E+9	4.716125E-12	NaN
1037	1.000000	0.338857	7.37519e+06	-51989.1	1055.82	-29750.4	0.000000	0.000000	6.338894	0.020981	NaN	0.000000	0.001562	0.001777	28.0833	0.060726	0.002021	30.0444	-55.4216	-164.98	0.022186	0.337482	-0.745382	-0.746756	0.020981	30.0444	-0.745905	-8.269417E+9	-2.537132E-12	NaN
1037	1.000000	0.346834	7.37519e+06	-51989.1	1055.82	-29750.4	0.000000	0.000000	6.346873	0.061911	NaN	0.000000	0.001579	0.001797	28.0834	0.088074	0.002017	43.674	-178.914	-163.225	0.044550	0.345533	-0.737404	-0.738705	0.061911	43.674	-0.738467	-6.549077E+9	-9.453403E-12	NaN
1037	1.000000	0.354829	7.37519e+06	-51989.1	1055.82	-29750.4	0.000000	0.000000	6.354866	0.029092	NaN	0.000000	0.001561	0.001788	28.0835	0.045945	0.002155	21.3239	17.9723	-167.151	0.008090	0.353569	-0.729409	-0.730670	0.029092	21.3239	-0.730433	-5.089839E+9	-5.715763E-12	NaN
1037	1.000000	0.362823	7.37519e+06	-51989.1	1055.82	-29750.4	0.000000	0.000000	6.362860	0.035506	NaN	0.000000	0.001564	0.001806	28.0837	0.034048	0.002017	16.877	32.7874	-167.686	-0.061074	0.361553	-0.721416	-0.722685	0.035506	16.877	-0.722994	-4.029926E+9	-8.810639E-12	NaN
1037	1.000000	0.370829	7.37519e+06	-51989.1	1055.82	-29750.4	0.000000	0.000000	6.370866	0.029776	NaN	0.000000	0.001582	0.001772	28.0837	0.109512	0.001970	55.576	-76.2074	-164.655	0.017020	0.369493	-0.713410	-0.714746	0.029776	55.576	-0.713812	-3.020369E+9	-9.858434E-12	NaN
1037	1.000000	0.378848	7.37519e+06	-51989.1	1055.82	-29750.4	0.000000	0.000000	6.378886	0.061481	NaN	0.000000	0.001580	0.001739	28.0838	0.008792	0.002128	4.132210	13.9228	-167.439	0.022024	0.377546	-0.705391	-0.706692	0.061481	4.132210	-0.716550	-3.291631E+9	-1.867809E-11	NaN
1037	1.000000	0.386856	7.37519e+06	-51989.1	1055.82	-29750.4	0.000000	0.000000	6.386891	-0.027775	NaN	0.000000	0.001568	0.001755	28.0835	0.179841	0.002016	89.2175	169.91	-166.521	-0.065889	0.385480	-0.697383	-0.698758	-0.027775	89.2175	-0.697149	-1.788935E+9	1.552610E-11	NaN
1037	1.000000	0.394882	7.37519e+06	-51989.1	1055.82	-29750.4	0.000000	0.000000	6.394918	0.019269	NaN	0.000000	0.001584	0.001800	28.0833	0.012653	0.001988	6.363327	64.1818	-168.13	-0.022453	0.393567	-0.689357	-0.690672	0.019269	6.363327	-0.691628	-1.503714E+9	-1.281439E-11	NaN
1037	1.000000	0.402858	7.37519e+06	-51989.1	1055.82	-29750.4	0.000000	0.000000	6.402895	0.027863	NaN	0.000000	0.001578	0.001743	28.0836	0.140896	0.001906	73.904	73.4358	-166.308	-0.015364	0.401592	-0.681381	-0.682646	0.027863	73.904	-0.681664	-1.098896E+9	-2.535501E-11	NaN
1037	1.000000	0.410848	7.37519e+06	-51989.1	1055.82	-29750.4	0.000000	0.000000	6.410884	0.004551	NaN	0.000000	0.001580	0.001743	28.0837	0.094349	0.001921	49.1203	-135.471	-166.212	0.054873	0.409524	-0.673390	-0.674715	0.004551	49.1203	-0.673459	-8.486586E+8	-5.362648E-12	NaN
1037	1.000000	0.418874	7.37519e+06	-51989.1	1055.82	-29750.4	0.000000	0.000000	6.418913	0.074013	NaN	0.000000	0.001600	0.001798	28.0837	0.052836	0.002056	25.6992	-176.896	-165.129	0.047978	0.417515	-0.665364	-0.666723	0.074013	25.6992	-0.667524	-7.038862E+8	-1.051492E-10	NaN
1037	1.000000	0.426835	7.37519e+06	-51989.1	1055.82	-29750.4	0.000000	0.000000	6.426872	0.038443	NaN	0.000000	0.001584	0.001756	28.0836	0.074906	0.002126	35.2272	-137.999	-167.366	0.024639	0.425599	-0.657404	-0.658639	0.038443	35.2272	-0.658222	-5.249482E+8	-7.323203E-11	NaN
1037	1.000000	0.434883	7.37519e+06	-51989.1	1055.82	-29750.4	0.000000	0.000000	6.434920	0.018850	NaN	0.000000	0.001602	0.001779	28.0833	0.143725	0.002012	71.4427	-111.309	-163.549	0.044941	0.433574	-0.649355	-0.650664	0.018850	71.4427	-0.649553	-3.993060E+8	-4.720569E-11	NaN
1037	1.000000	0.442870	7.37519e+06	-51989.1	1055.82	-29750.4	0.000000	0.000000	6.442908	0.039821	NaN	0.000000	0.001602	0.001741	28.0832	0.101492	0.001894	53.5824	-69.1222	-165.712	0.041417	0.441594	-0.641368	-0.642644	0.039821	53.5824	-0.641925	-3.138373E+8	-1.268828E-10	NaN
1037	1.000000	0.450893	7.37519e+06	-51989.1	1055.82	-29750.4	0.000000	0.000000	6.450932	0.091276	NaN	0.000000	0.001586	0.001760	28.0834	0.071379	0.002089	34.1701	-133.559	-166.02	0.093470	0.449547	-0.633346	-0.634691	0.091276	34.1701	-0.635349	-2.549548E+8	-3.580087E-10	NaN
1037	1.000000	0.458873	7.37519e+06	-51989.1	1055.82	-29750.4	0.000000	0.000000	6.458906	-0.077868	NaN	0.000000	0.001570	0.001746	28.0841	0.027161	0.002136	12.7172	-11.1898	-167.231	-0.011021	0.457570	-0.625365	-0.626668	-0.077868	12.7172	-0.620773	-1.607892E+8	4.842859E-10	NaN
1037	1.000000	0.466881	7.37519e+06	-51989.1	1055.82	-29750.4	0.000000	0.000000	6.466918	0.032503	NaN	0.000000	0.001551	0.001802	28.0847	0.072566	0.001973	36.7727	-139.874	-163.088	0.005396	0.465590	-0.617357	-0.618649	0.032503	36.7727	-0.618020	-1.473736E+8	-2.205515E-10	NaN
1037	1.000000	0.474899	7.37519e+06	-51989.1	1055.82	-29750.4	0.000000	0.000000	6.474934	-0.007655	NaN	0.000000	0.001519	0.001765	28.0846	0.079842	0.002050	38.9446	-15.3206	-168.072	0.072457	0.473562	-0.609340	-0.610677	-0.007655	38.9446	-0.609192	-1.114303E+8	6.869410E-11	NaN
1037	1.000000	0.482898	7.37519e+06	-51989.1	1055.82	-29750.4	0.000000	0.000000	6.482939	0.119752	NaN	0.000000	0.001500	0.001773	28.0846	0.072645	0.002031	35.7739	136.2	-165.699	0.093673	0.481613	-0.601340	-0.602625	0.119752	35.7739	-0.603851	-9.407704E+7	-1.272913E-9	NaN
1037	1.000000	0.490891	7.37519e+06	-51989.1	1055.82	-29750.4	0.000000	0.000000	6.490929	0.056469	NaN	0.000000	0.001512	0.001787	28.0845	0.051988	0.002037	25.5219	155.888	-166.419	0.062220	0.489597	-0.593348	-0.594642	0.056469	25.5219	-0.595007	-7.106933E+7	-7.945622E-10	NaN
1037	1.000000	0.498918	7.37519e+06	-51989.1	1055.82	-29750.4	0.000000	0.000000	6.498954	0.010632	NaN	0.000000	0.001581	0.001783	28.0848	0.139108	0.001993	69.7842	-87.6467	-164.254	0.000298	0.497572	-0.585320	-0.586666	0.010632	69.7842	-0.585435	-5.244563E+7	-2.027283E-10	NaN
1037	1.000000	0.506929	7.37519e+06	-51989.1	1055.82	-29750.4	0.000000	0.000000	6.506966	0.028575	NaN	0.000000	0.001570	0.001816	28.0846	0.109132	0.002043	53.4245	-68.2305	-169.916	0.049203	0.505623	-0.577309	-0.578615	0.028575	53.4245	-0.577710	-4.103151E+7	-6.964186E-10	NaN
1037	1.000000	0.514915	7.37519e+06	-51989.1	1055.82	-29750.4	0.000000	0.000000	6.514952	0.018551	NaN	0.000000	0.001574	0.001762	28.0846	0.094491	0.001980	47.7164	64.2882	-164.025	0.012018	0.513611	-0.569323	-0.570627	0.018551	47.7164	-0.569615	-3.171821E+7	-5.848820E-10	NaN
1037	1.000000	0.522933	7.37519e+06	-51989.1	1055.82	-29750.4	0.000000	0.000000	6.522971	0.068430	NaN	0.000000	0.001534	0.001743	28.0847	0.054757	0.001949	28.095	-151.609	-169.399	0.084454	0.521640	-0.561306	-0.562598	0.068430	28.095	-0.563133	-2.580509E+7	-2.651816E-9	NaN
1037	1.000000	0.530930	7.37519e+06	-51989.1	1055.82	-29750.4	0.000000	0.000000	6.530965	-0.015160	NaN	0.000000	0.001597	0.001735	28.0846	0.034637	0.002035	17.0186	-37.3758	-162.781	-0.024743	0.529590	-0.553308	-0.554648	-0.015160	17.0186	-0.552640	-1.847219E+7	8.206705E-10	NaN
1037	1.000000	0.538919	7.37519e+06	-51989.1	1055.82	-29750.4	0.000000	0.000000	6.538956	0.023099	NaN	0.000000	0.001576	0.001751	28.0848	0.129315	0.002029	63.7244	-88.6918	-166.533	0.080750	0.537615	-0.545319	-0.546624	0.023099	63.7244	-0.545591	-1.475271E+7	-1.565775E-9	NaN
1037	1.000000	0.546925	7.37519e+06	-51989.1	1055.82	-29750.4	0.000000	0.000000	6.546962	0.028700	NaN	0.000000	0.001562	0.001746	28.0845	0.153826	0.002077	74.0747	-171.875	-164.643	0.076434	0.545641	-0.537313	-0.538598	0.028700	74.0747	-0.537604	-1.143200E+7	-2.510533E-9	NaN
1037	1.000000	0.554935	7.37519e+06	-51989.1	1055.82	-29750.4	0.000000	0.000000	6.554972	0.026668	NaN	0.000000	0.001597	0.001732	28.0846	0.046212	0.002070	22.3259	135.823	-166.399	0.053508	0.553602	-0.529304	-0.530637	0.026668	22.3259	-0.530200	-9.02295e+06	-2.955596E-9	NaN
1037	1.000000	0.562931	7.37519e+06	-51989.1	1055.82	-29750.4	0.000000	0.000000	6.562963	-0.075657	NaN	0.000000	0.001601	0.001760	28.0846	0.120071	0.001908	62.9367	-45.8766	-169.74	-0.009518	0.561599	-0.521308	-0.522639	-0.075657	62.9367	-0.520406	-6.59547e+06	1.147109E-8	NaN
1037	1.000000	0.570958	7.37519e+06	-51989.1	1055.82	-29750.4	0.000000	0.000000	6.570993	-0.019273	NaN	0.000000	0.001597	0.001744	28.0847	0.102253	0.002026	50.4582	-63.9245	-166.001	0.017848	0.569650	-0.513280	-0.514588	-0.019273	50.4582	-0.512994	-5.20119e+06	3.705499E-9	NaN
1037	1.000000	0.578928	7.37519e+06	-51989.1	1055.82	-29750.4	0.000000	0.000000	6.578963	-0.029058	NaN	0.000000	0.001565	0.001798	28.0853	0.082409	0.001796	45.872	-3.920755	-167.883	-0.050872	0.577647	-0.505311	-0.506591	-0.029058	45.872	-0.504835	-4.0036e+06	7.257845E-9	NaN
1037	1.000000	0.586941	7.37519e+06	-51989.1	1055.82	-29750.4	0.000000	0.000000	6.586977	0.004465	NaN	0.000000	0.001603	0.001761	28.0847	0.045742	0.002006	22.808	-45.4255	-170.144	0.013521	0.585608	-0.497297	-0.498630	0.004465	22.808	-0.497444	-3.15758e+06	-1.414184E-9	NaN
1037	1.000000	0.594953	7.37519e+06	-51989.1	1055.82	-29750.4	0.000000	0.000000	6.594988	-0.021423	NaN	0.000000	0.001594	0.001749	28.0842	0.085863	0.002223	38.6198	-78.6698	-165.885	-0.009553	0.593656	-0.489285	-0.490582	-0.021423	38.6198	-0.488869	-2.39658e+06	8.939017E-9	NaN
1037	1.000000	0.602954	7.37519e+06	-51989.1	1055.82	-29750.4	0.000000	0.000000	6.602990	0.014867	NaN	0.000000	0.001574	0.001753	28.0833	0.080145	0.001992	40.2326	-81.9959	-164.616	0.010591	0.601617	-0.481285	-0.482621	0.014867	40.2326	-0.481562	-1.89403e+06	-7.849526E-9	NaN
1037	1.000000	0.610964	7.37519e+06	-51989.1	1055.82	-29750.4	0.000000	0.000000	6.611000	0.007837	NaN	0.000000	0.001650	0.001739	28.0836	0.062036	0.002001	31.0029	-61.329	-167.654	-0.030526	0.609671	-0.473275	-0.474567	0.007837	31.0029	-0.473464	-1.45874e+06	-5.372340E-9	NaN
1037	1.000000	0.618974	7.37519e+06	-51989.1	1055.82	-29750.4	0.000000	0.000000	6.619010	-0.014151	NaN	0.000000	0.001638	0.001743	28.0849	0.069875	0.001966	35.544	-97.1957	-167.504	0.117145	0.617667	-0.465264	-0.466571	-0.014151	35.544	-0.464965	-1.10857e+06	1.276470E-8	NaN
1037	1.000000	0.626940	7.37519e+06	-51989.1	1055.82	-29750.4	0.000000	0.000000	6.626977	0.021972	NaN	0.000000	0.001638	0.001745	28.0833	0.080348	0.001947	41.27	-104.132	-164.545	0.045438	0.625626	-0.457298	-0.458612	0.021972	41.27	-0.457697	-876300	-2.507335E-8	NaN
1037	1.000000	0.634971	7.37519e+06	-51989.1	1055.82	-29750.4	0.000000	0.000000	6.635007	0.014864	NaN	0.000000	0.001594	0.001780	28.0833	0.061431	0.001892	32.4774	-66.0167	-166.285	0.007038	0.633669	-0.449267	-0.450570	0.014864	32.4774	-0.449611	-674310	-2.204279E-8	NaN
1037	1.000000	0.642937	7.37519e+06	-51989.1	1055.82	-29750.4	0.000000	0.000000	6.642975	0.057523	NaN	0.000000	0.001597	0.001772	28.0831	0.074181	0.001943	38.1823	-44.6737	-165.48	-0.035868	0.641656	-0.441302	-0.442582	0.057523	38.1823	-0.442432	-534161	-1.076880E-7	NaN
1037	1.000000	0.650978	7.37519e+06	-51989.1	1055.82	-29750.4	0.000000	0.000000	6.651017	0.077247	NaN	0.000000	0.001588	0.001772	28.0831	0.035141	0.002029	17.322	-38.0719	-168.967	-0.029977	0.649642	-0.433260	-0.434597	0.077247	17.322	-0.436605	-442006	-1.747648E-7	NaN
1037	1.000000	0.658936	7.37519e+06	-51989.1	1055.82	-29750.4	0.000000	0.000000	6.658975	0.075303	NaN	0.000000	0.001569	0.001784	28.0832	0.091947	0.002032	45.2399	145.068	-165.922	0.043794	0.657697	-0.425302	-0.426541	0.075303	45.2399	-0.426551	-318599	-2.363580E-7	NaN
1037	1.000000	0.666976	7.37519e+06	-51989.1	1055.82	-29750.4	0.000000	0.000000	6.667014	0.039072	NaN	0.000000	0.001590	0.001739	28.0833	0.097974	0.002047	47.8557	176.38	-164.162	-0.026700	0.665704	-0.417262	-0.418534	0.039072	47.8557	-0.417875	-240028	-1.627795E-7	NaN
1037	1.000000	0.674976	7.37519e+06	-51989.1	1055.82	-29750.4	0.000000	0.000000	6.675013	0.021990	NaN	0.000000	0.001587	0.001779	28.0835	0.029392	0.001992	14.7549	-51.4104	-165.799	0.049757	0.673655	-0.409262	-0.410584	0.021990	14.7549	-0.410380	-187847	-1.170611E-7	NaN
1037	1.000000	0.682987	7.37519e+06	-51989.1	1055.82	-29750.4	0.000000	0.000000	6.683024	0.039798	NaN	0.000000	0.001584	0.001752	28.0833	0.145355	0.001991	73.0136	-22.7046	-168.84	0.012276	0.681663	-0.401252	-0.402575	0.039798	73.0136	-0.401661	-141146	-2.819617E-7	NaN
1037	1.000000	0.690994	7.37519e+06	-51989.1	1055.82	-29750.4	0.000000	0.000000	6.691031	0.029964	NaN	0.000000	0.001597	0.001771	28.0834	0.072522	0.001950	37.1846	113.863	-164.778	0.009854	0.689688	-0.393245	-0.394550	0.029964	37.1846	-0.393849	-109192	-2.744152E-7	NaN
1037	1.000000	0.698968	7.37519e+06	-51989.1	1055.82	-29750.4	0.000000	0.000000	6.699004	0.015234	NaN	0.000000	0.001603	0.001757	28.0833	0.080257	0.001935	41.4742	10.501	-168.11	0.077000	0.697668	-0.385270	-0.386570	0.015234	41.4742	-0.385546	-83062.9	-1.834030E-7	NaN
1037	1.000000	0.707028	7.37519e+06	-51989.1	1055.82	-29750.4	0.000000	0.000000	6.707066	0.068961	NaN	0.000000	0.001593	0.001760	28.0835	0.104393	0.002062	50.638	161.797	-165.753	0.106326	0.705708	-0.377211	-0.378530	0.068961	50.638	-0.378232	-65239.7	-1.057040E-6	NaN
1037	1.000000	0.715000	7.37519e+06	-51989.1	1055.82	-29750.4	0.000000	0.000000	6.715037	0.028632	NaN	0.000000	0.001600	0.001759	28.0832	0.066329	0.001982	33.4689	-160.642	-167.641	0.096050	0.713713	-0.369238	-0.370525	0.028632	33.4689	-0.369880	-49475.9	-5.786968E-7	NaN
1037	1.000000	0.722978	7.37519e+06	-51989.1	1055.82	-29750.4	0.000000	0.000000	6.723016	0.057350	NaN	0.000000	0.001592	0.001754	28.0833	0.070738	0.002015	35.1121	-115.084	-167.616	0.067432	0.721692	-0.361261	-0.362546	0.057350	35.1121	-0.362486	-38704.4	-1.481736E-6	NaN
1037	1.000000	0.730990	7.37519e+06	-51989.1	1055.82	-29750.4	0.000000	0.000000	6.731026	-0.008570	NaN	0.000000	0.001560	0.001784	28.0837	0.069290	0.001962	35.3171	-160.908	-167.909	-0.065173	0.729706	-0.353248	-0.354533	-0.008570	35.3171	-0.353066	-28279.6	3.030542E-7	NaN
1037	1.000000	0.738998	7.37519e+06	-51989.1	1055.82	-29750.4	0.000000	0.000000	6.739034	0.004060	NaN	0.000000	0.001618	0.001729	28.0844	0.061160	0.002002	30.5459	137.359	-168.444	0.002790	0.737672	-0.345241	-0.346566	0.004060	30.5459	-0.345340	-21842.8	-1.858802E-7	NaN
1037	1.000000	0.747014	7.37519e+06	-51989.1	1055.82	-29750.4	0.000000	0.000000	6.747050	0.004448	NaN	0.000000	0.001549	0.001712	28.0846	0.054314	0.001935	28.0723	8.784704	-166.264	0.005226	0.745697	-0.337224	-0.338541	0.004448	28.0723	-0.337343	-16703.3	-2.662750E-7	NaN
1037	1.000000	0.754978	7.37519e+06	-51989.1	1055.82	-29750.4	0.000000	0.000000	6.755018	0.103698	NaN	0.000000	0.001559	0.001753	28.0846	0.028034	0.002104	13.3233	27.6006	-167.118	0.062595	0.753690	-0.329260	-0.330549	0.103698	13.3233	-0.335098	-15488.6	-6.695132E-6	NaN
1037	1.000000	0.763026	7.37519e+06	-51989.1	1055.82	-29750.4	0.000000	0.000000	6.763062	0.003692	NaN	0.000000	0.001634	0.001743	28.0844	0.041850	0.002000	20.929	85.0651	-166.483	-0.018362	0.761727	-0.321212	-0.322511	0.003692	20.929	-0.321345	-9736.95	-3.791458E-7	NaN
1037	1.000000	0.771024	7.37519e+06	-51989.1	1055.82	-29750.4	0.000000	0.000000	6.771060	0.012452	NaN	0.000000	0.001583	0.001754	28.0846	0.070649	0.001967	35.9103	-138.673	-165.46	0.013756	0.769701	-0.313214	-0.314537	0.012452	35.9103	-0.313474	-7454.58	-1.670369E-6	NaN
1037	1.000000	0.779038	7.37519e+06	-51989.1	1055.82	-29750.4	0.000000	0.000000	6.779077	0.076930	NaN	0.000000	0.001552	0.001773	28.0844	0.104042	0.001949	53.3939	-45.7332	-165.839	-0.089199	0.777709	-0.305200	-0.306530	0.076930	53.3939	-0.306281	-5833.85	-1.318675E-5	NaN
1037	1.000000	0.787021	7.37519e+06	-51989.1	1055.82	-29750.4	0.000000	0.000000	6.787057	0.009861	NaN	0.000000	0.001576	0.001787	28.0847	0.088743	0.001968	45.103	-124.62	-162.663	-0.004845	0.785725	-0.297218	-0.298513	0.009861	45.103	-0.297382	-4301.55	-2.292469E-6	NaN
1037	1.000000	0.795009	7.37519e+06	-51989.1	1055.82	-29750.4	0.000000	0.000000	6.795047	0.052170	NaN	0.000000	0.001572	0.001725	28.0845	0.054257	0.002004	27.072	30.3395	-168.089	0.046701	0.793679	-0.289229	-0.290559	0.052170	27.072	-0.290675	-3415.12	-1.527625E-5	NaN
1037	1.000000	0.803014	7.37519e+06	-51989.1	1055.82	-29750.4	0.000000	0.000000	6.803051	0.018268	NaN	0.000000	0.001573	0.001744	28.0848	0.085330	0.002095	40.7377	102.736	-166.699	0.027954	0.801726	-0.281224	-0.282512	0.018268	40.7377	-0.281561	-2491.73	-7.331498E-6	NaN
1037	1.000000	0.811020	7.37519e+06	-51989.1	1055.82	-29750.4	0.000000	0.000000	6.811058	0.050523	NaN	0.000000	0.001579	0.001739	28.0848	0.020670	0.001970	10.4904	23.7724	-165.519	0.009029	0.809736	-0.273219	-0.274502	0.050523	10.4904	-0.276831	-2113.98	-2.389931E-5	NaN
1037	1.000000	0.819072	7.37519e+06	-51989.1	1055.82	-29750.4	0.000000	0.000000	6.819110	0.038824	NaN	0.000000	0.001595	0.001737	28.0848	0.084299	0.001971	42.7793	95.1515	-164.905	0.093827	0.817745	-0.265166	-0.266493	0.038824	42.7793	-0.265847	-1439.82	-2.696460E-5	NaN
1037	1.000000	0.827051	7.37519e+06	-51989.1	1055.82	-29750.4	0.000000	0.000000	6.827086	-0.030900	NaN	0.000000	0.001598	0.001739	28.0852	0.064206	0.002069	31.0308	111.012	-165.75	0.061800	0.825679	-0.257187	-0.258559	-0.030900	31.0308	-0.256440	-1033.42	2.990040E-5	NaN
1037	1.000000	0.835052	7.37519e+06	-51989.1	1055.82	-29750.4	0.000000	0.000000	6.835090	0.053060	NaN	0.000000	0.001589	0.001751	28.0847	0.081701	0.002065	39.5626	79.4741	-165.306	-0.004249	0.833741	-0.249186	-0.250497	0.053060	39.5626	-0.250192	-827.821	-6.409612E-5	NaN
1037	1.000000	0.843025	7.37519e+06	-51989.1	1055.82	-29750.4	0.000000	0.000000	6.843062	0.024665	NaN	0.000000	0.001596	0.001773	28.085	0.019932	0.001922	10.3691	-2.085315	-166.591	-0.025955	0.841700	-0.241214	-0.242538	0.024665	10.3691	-0.242998	-640.183	-3.852824E-5	NaN
1037	1.000000	0.851047	7.37519e+06	-51989.1	1055.82	-29750.4	0.000000	0.000000	6.851088	0.117271	NaN	0.000000	0.001607	0.001763	28.0845	0.088581	0.002028	43.6768	-143.263	-162.481	0.002575	0.849781	-0.233191	-0.234458	0.117271	43.6768	-0.235205	-483.582	-0.000243	NaN
1037	1.000000	0.859025	7.37519e+06	-51989.1	1055.82	-29750.4	0.000000	0.000000	6.859061	0.008371	NaN	0.000000	0.001560	0.001760	28.0846	0.151301	0.001962	77.1339	-117.225	-167.935	-0.026101	0.857753	-0.225213	-0.226486	0.008371	77.1339	-0.225295	-337.297	-2.481679E-5	NaN
1037	1.000000	0.867078	7.37519e+06	-51989.1	1055.82	-29750.4	0.000000	0.000000	6.867114	0.016966	NaN	0.000000	0.001570	0.001755	28.0846	0.047365	0.002035	23.2795	-117.708	-165.773	0.064906	0.865801	-0.217161	-0.218437	0.016966	23.2795	-0.217707	-255.262	-6.646479E-5	NaN
1037	1.000000	0.875090	7.37519e+06	-51989.1	1055.82	-29750.4	0.000000	0.000000	6.875128	0.040153	NaN	0.000000	0.001587	0.001740	28.0833	0.029695	0.002076	14.3048	-70.3758	-168.557	-0.006002	0.873726	-0.209148	-0.210512	0.040153	14.3048	-0.211253	-200.954	-0.000200	NaN
1037	1.000000	0.883073	7.37519e+06	-51989.1	1055.82	-29750.4	0.000000	0.000000	6.883110	0.027288	NaN	0.000000	0.001569	0.001766	28.0837	0.055915	0.001997	27.9944	122.239	-162.887	-0.060679	0.881759	-0.201165	-0.202479	0.027288	27.9944	-0.201896	-141.521	-0.000193	NaN
1037	1.000000	0.891056	7.37519e+06	-51989.1	1055.82	-29750.4	0.000000	0.000000	6.891089	-0.073890	NaN	0.000000	0.001548	0.001782	28.0833	0.077846	0.001930	40.3452	-91.9477	-167.237	0.026218	0.889733	-0.193183	-0.194505	-0.073890	40.3452	-0.191809	-96.4278	0.000766	NaN
1037	1.000000	0.899064	7.37519e+06	-51989.1	1055.82	-29750.4	0.000000	0.000000	6.899100	-0.008318	NaN	0.000000	0.001537	0.001768	28.0836	0.046852	0.002171	21.5848	145.327	-166.69	0.017462	0.897716	-0.185174	-0.186523	-0.008318	21.5848	-0.184885	-73.8238	0.000113	NaN
1037	1.000000	0.907052	7.37519e+06	-51989.1	1055.82	-29750.4	0.000000	0.000000	6.907091	0.075400	NaN	0.000000	0.001568	0.001752	28.0833	0.054110	0.001932	28.006	-26.6195	-170.465	0.006613	0.905794	-0.177186	-0.178444	0.075400	28.006	-0.179205	-59.1478	-0.001275	NaN
1037	1.000000	0.915077	7.3752e+06	-51989.1	1055.82	-29750.4	0.000000	0.000000	6.915113	0.010109	NaN	0.000000	0.001609	0.001751	28.0837	0.098275	0.001887	52.0728	-18.3404	-165.71	0.051881	0.913738	-0.169162	-0.170501	0.010109	52.0728	-0.169307	-39.9551	-0.000253	NaN
1037	1.000000	0.923052	7.3752e+06	-51989.1	1055.82	-29750.4	0.000000	0.000000	6.923086	-0.053887	NaN	0.000000	0.001636	0.001766	28.0835	0.038017	0.001935	19.6459	171.884	-164.133	0.022235	0.921740	-0.161186	-0.162498	-0.053887	19.6459	-0.159129	-26.4539	0.002037	NaN
1037	1.000000	0.931075	7.3752e+06	-51989.1	1055.82	-29750.4	0.000000	0.000000	6.931114	0.084991	NaN	0.000000	0.001661	0.001740	28.0836	0.049473	0.001896	26.0872	-57.0742	-167.034	0.076713	0.929771	-0.153164	-0.154467	0.084991	26.0872	-0.155607	-22.8824	-0.003714	NaN
1037	1.000000	0.939085	7.3752e+06	-51989.1	1055.82	-29750.4	0.000000	0.000000	6.939122	0.034930	NaN	0.000000	0.001667	0.001785	28.0843	0.048866	0.002096	23.3137	-6.614956	-165.465	-0.006263	0.937780	-0.145154	-0.146459	0.034930	23.3137	-0.146277	-15.4794	-0.002257	NaN
1037	1.000000	0.947049	7.3752e+06	-51989.1	1055.82	-29750.4	0.000000	0.000000	6.947084	-0.001489	NaN	0.000000	0.001671	0.001749	28.0833	0.069502	0.002079	33.4352	-152.857	-165.767	0.038607	0.945794	-0.137190	-0.138445	-0.001489	33.4352	-0.137156	-10.4547	0.000142	NaN
1037	1.000000	0.955129	7.3752e+06	-51989.1	1055.82	-29750.4	0.000000	0.000000	6.955167	0.051919	NaN	0.000000	0.001675	0.001784	28.0837	0.150876	0.002055	73.4163	99.4379	-168.025	0.003634	0.953763	-0.129109	-0.130475	0.051919	73.4163	-0.129639	-7.499013	-0.006923	NaN
1037	1.000000	0.963033	7.3752e+06	-51989.1	1055.82	-29750.4	0.000000	0.000000	6.963068	-0.032229	NaN	0.000000	0.001710	0.001818	28.0837	0.068698	0.001944	35.344	165.77	-166.769	-0.039935	0.961821	-0.121205	-0.122418	-0.032229	35.344	-0.120521	-4.949822	0.006511	NaN
1037	1.000000	0.971108	7.3752e+06	-51989.1	1055.82	-29750.4	0.000000	0.000000	6.971143	-0.022119	NaN	0.000000	0.001719	0.001745	28.0838	0.039674	0.001850	21.4431	20.094	-167.594	0.025023	0.969789	-0.113130	-0.114450	-0.022119	21.4431	-0.112357	-3.367426	0.006569	NaN
1037	1.000000	0.979095	7.3752e+06	-51989.1	1055.82	-29750.4	0.000000	0.000000	6.979131	-0.013836	NaN	0.000000	0.001697	0.001771	28.084	0.110023	0.002123	51.8326	114.618	-168.697	-0.023689	0.977843	-0.105143	-0.106396	-0.013836	51.8326	-0.104943	-2.343894	0.005903	NaN
1037	1.000000	0.987048	7.3752e+06	-51989.1	1055.82	-29750.4	0.000000	0.000000	6.987084	-0.001144	NaN	0.000000	0.001668	0.001768	28.0839	0.098115	0.001947	50.3831	146.259	-169.029	0.019443	0.985800	-0.097191	-0.098439	-0.001144	50.3831	-0.097174	-1.579938	0.000724	NaN
1037	1.000000	0.995084	7.3752e+06	-51989.1	1055.82	-29750.4	0.000000	0.000000	6.995122	0.055538	NaN	0.000000	0.001611	0.001769	28.0841	0.115681	0.001862	62.1249	110.645	-168.723	0.096723	0.993809	-0.089155	-0.090430	0.055538	62.1249	-0.089825	-1.070811	-0.051866	NaN
1037	1.000000	1.003111	7.3752e+06	-51989.1	1055.82	-29750.4	0.000000	0.000000	7.003145	-0.032441	NaN	0.000000	0.001563	0.001754	28.0837	0.032437	0.002051	15.8162	-173.165	-166.412	-0.017001	1.001773	-0.081128	-0.082465	-0.032441	15.8162	-0.079589	-0.604509	0.053666	NaN
1037	1.000000	1.011135	7.3752e+06	-51989.1	1055.82	-29750.4	0.000000	0.000000	7.011170	-0.009542	NaN	0.000000	0.001570	0.001742	28.0848	0.034483	0.001898	18.165	-127.38	-169.161	-0.009253	1.009788	-0.073104	-0.074450	-0.009542	18.165	-0.072710	-0.402527	0.023706	NaN
1037	1.000000	1.019109	7.3752e+06	-51989.1	1055.82	-29750.4	0.000000	0.000000	7.019144	-0.013128	NaN	0.000000	0.001575	0.001785	28.0848	0.049000	0.001923	25.4802	-144.02	-164.444	0.061689	1.017782	-0.065130	-0.066456	-0.013128	25.4802	-0.064743	-0.245157	0.053550	NaN
1037	1.000000	1.027116	7.3752e+06	-51989.1	1055.82	-29750.4	0.000000	0.000000	7.027151	-0.023586	NaN	0.000000	0.001551	0.001771	28.0846	0.054044	0.002031	26.6069	65.1646	-165.591	-0.021012	1.025764	-0.057122	-0.058474	-0.023586	26.6069	-0.056457	-0.142149	0.165925	NaN
1037	1.000000	1.035127	7.3752e+06	-51989.1	1055.82	-29750.4	0.000000	0.000000	7.035160	-0.072586	NaN	0.000000	0.001549	0.001788	28.085	0.066808	0.001992	33.533	99.503	-168.205	-0.049520	1.033864	-0.049112	-0.050375	-0.072586	33.533	-0.047488	-0.076555	0.948160	NaN
1037	1.000000	1.043116	7.3752e+06	-51989.1	1055.82	-29750.4	0.000000	0.000000	7.043153	0.023271	NaN	0.000000	0.001572	0.001754	28.0847	0.077186	0.001905	40.5119	112.443	-165.919	0.024832	1.041761	-0.041122	-0.042478	0.023271	40.5119	-0.041553	-0.050424	-0.461496	NaN
1037	1.000000	1.051142	7.3752e+06	-51989.1	1055.82	-29750.4	0.000000	0.000000	7.051181	0.064098	NaN	0.000000	0.001552	0.001763	28.0849	0.034347	0.002109	16.2831	134.957	-162.862	0.084113	1.049871	-0.033096	-0.034367	0.064098	16.2831	-0.036049	-0.034396	-1.863552	NaN
1037	1.000000	1.059130	7.3752e+06	-51989.1	1055.82	-29750.4	0.000000	0.000000	7.059169	0.058189	NaN	0.000000	0.001544	0.001764	28.0849	0.104530	0.002090	50.0205	-125.554	-168.239	0.060424	1.057828	-0.025108	-0.026410	0.058189	50.0205	-0.025981	-0.017901	-3.250528	NaN
1037	1.000000	1.067116	7.3752e+06	-51989.1	1055.82	-29750.4	0.000000	0.000000	7.067151	-0.026475	NaN	0.000000	0.001553	0.001783	28.0847	0.085814	0.001842	46.578	-150.909	-167.709	0.013264	1.065795	-0.017122	-0.018443	-0.026475	46.578	-0.016696	-0.010317	2.566086	NaN
1037	1.000000	1.075146	7.3752e+06	-51989.1	1055.82	-29750.4	0.000000	0.000000	7.075184	0.033298	NaN	0.000000	0.001529	0.001764	28.085	0.092356	0.001838	50.2373	41.1342	-168.091	0.033793	1.073848	-0.009092	-0.010390	0.033298	50.2373	-0.009589	-0.006152	-5.412519	NaN
1037	1.000000	1.083118	7.3752e+06	-51989.1	1055.82	-29750.4	0.000000	0.000000	7.083192	0.908316	NaN	0.000000	0.001593	0.001721	28.0848	1.447868	0.002010	720.169	9.493800	-166.015	0.131369	1.081831	-0.001120	-0.002407	0.908316	720.169	-0.002066	-0.001485	-611.658	NaN
1037	2.000000	1.090523	7.3752e+06	-51989.1	1055.82	-29750.4	0.000000	0.000000	7.090969	9.971178	NaN	0.000000	0.001581	0.001765	28.0847	9.551685	0.001599	5975.34	8.206655	-173.834	9.186108	1.089755	0.006285	0.005517	9.971178	5975.34	0.005033	0.004164	2394.64	84602.4
1037	2.000000	1.092677	7.3752e+06	-51989.1	1055.82	-29750.4	0.000000	0.000000	7.093232	12.6341	NaN	0.000000	0.001543	0.001805	28.0846	11.7102	0.001574	7442.01	3.767541	-172.902	12.361	1.092406	0.008438	0.008168	12.6341	7442.01	0.007165	0.006198	2038.52	86367.3
1037	2.000000	1.094686	7.3752e+06	-51989.1	1055.82	-29750.4	0.000000	0.000000	7.095389	16.2128	NaN	0.000000	0.001563	0.001763	28.0846	14.299	0.001770	8079.02	8.326101	-174.471	15.7648	1.094256	0.010448	0.010018	16.2128	8079.02	0.008943	0.008030	2019.03	82371
1037	2.000000	1.096618	7.3752e+06	-51989.1	1055.82	-29750.4	0.000000	0.000000	7.097503	20.6471	NaN	0.000000	0.001535	0.001792	28.0851	16.234	0.001729	9388.21	5.966993	-175.114	19.5484	1.096274	0.012380	0.012036	20.6471	9388.21	0.010730	0.010004	2063.84	85756
1037	2.000000	1.098624	7.3752e+06	-51989.1	1055.82	-29750.4	0.000000	0.000000	7.099580	22.3604	NaN	0.000000	0.001609	0.001782	28.0847	19.4554	0.001901	10234.6	6.166226	-176.765	21.3842	1.098349	0.014386	0.014110	22.3604	10234.6	0.012747	0.012398	1803.6	83979.4
1037	2.000000	1.100617	7.3752e+06	-51989.1	1055.82	-29750.4	0.000000	0.000000	7.101786	27.5317	NaN	0.000000	0.001613	0.001805	28.0848	20.3257	0.001726	11772.9	7.527359	-179.458	26.3227	1.100262	0.016379	0.016024	27.5317	11772.9	0.014625	0.014789	1861.65	88448
1037	2.000000	1.102604	7.3752e+06	-51989.1	1055.82	-29750.4	0.000000	0.000000	7.103938	31.5668	NaN	0.000000	0.001600	0.001786	28.0847	22.8018	0.001758	12969.5	6.573679	-178.735	31.5856	1.102221	0.018366	0.017983	31.5668	12969.5	0.016540	0.017394	1814.77	89844.6
1037	2.000000	1.104600	7.3752e+06	-51989.1	1055.82	-29750.4	0.000000	0.000000	7.106143	36.6257	NaN	0.000000	0.001611	0.001767	28.0836	24.4372	0.001671	14628.3	3.584646	-177.798	34.3815	1.104329	0.020362	0.020091	36.6257	14628.3	0.018484	0.020216	1811.71	93997.7
1037	2.000000	1.106618	7.3752e+06	-51989.1	1055.82	-29750.4	0.000000	0.000000	7.108274	39.3853	NaN	0.000000	0.001588	0.001765	28.0838	26.8479	0.001807	14855.8	6.981945	179.469	40.6869	1.106275	0.022380	0.022036	39.3853	14855.8	0.020392	0.023161	1700.47	89184.3
1037	2.000000	1.108574	7.3752e+06	-51989.1	1055.82	-29750.4	0.000000	0.000000	7.110539	46.9149	NaN	0.000000	0.001607	0.001712	28.0837	28.9621	0.001804	16057.1	5.647475	179.995	45.215	1.108235	0.024335	0.023997	46.9149	16057.1	0.022144	0.026024	1802.75	90939.2
1037	2.000000	1.110540	7.3752e+06	-51989.1	1055.82	-29750.4	0.000000	0.000000	7.112753	52.938	NaN	0.000000	0.001548	0.001745	28.0838	30.6759	0.001769	17343.1	4.866677	179.019	50.3716	1.110299	0.026301	0.026060	52.938	17343.1	0.024012	0.029243	1810.28	92659.5
1037	2.000000	1.112516	7.3752e+06	-51989.1	1055.82	-29750.4	0.000000	0.000000	7.114904	57.2044	NaN	0.000000	0.001592	0.001739	28.0838	33.3986	0.001884	17730.8	6.932103	177.434	54.0374	1.112207	0.028278	0.027968	57.2044	17730.8	0.025858	0.032595	1755.02	89727.9
1037	2.000000	1.114606	7.3752e+06	-51989.1	1055.82	-29750.4	0.000000	0.000000	7.117229	62.904	NaN	0.000000	0.001586	0.001719	28.0838	36.0479	0.001864	19339.3	9.356312	174.63	64.5556	1.114253	0.030368	0.030015	62.904	19339.3	0.027928	0.036559	1720.6	92409.1
1037	2.000000	1.116566	7.3752e+06	-51989.1	1055.82	-29750.4	0.000000	0.000000	7.119559	71.9146	NaN	0.000000	0.001592	0.001692	28.0837	36.8901	0.001677	22003.5	7.087288	174.946	71.1711	1.116248	0.032327	0.032010	71.9146	22003.5	0.029876	0.040487	1776.24	99909.4
1037	2.000000	1.118582	7.3752e+06	-51989.1	1055.82	-29750.4	0.000000	0.000000	7.121696	74.8438	NaN	0.000000	0.001612	0.001767	28.0837	40.2056	0.001823	22054.8	7.659227	174.265	75.1604	1.118282	0.034344	0.034043	74.8438	22054.8	0.031798	0.044554	1679.86	95462.9
1037	2.000000	1.120548	7.3752e+06	-51989.1	1055.82	-29750.4	0.000000	0.000000	7.123960	82.0993	NaN	0.000000	0.001626	0.001757	28.0833	40.6858	0.001688	24104.6	7.245364	173.935	81.1876	1.120279	0.036309	0.036040	82.0993	24104.6	0.033755	0.048887	1679.39	99604.5
1037	2.000000	1.122528	7.3752e+06	-51989.1	1055.82	-29750.4	0.000000	0.000000	7.126363	92.3871	NaN	0.000000	0.001614	0.001734	28.0842	43.3084	0.001780	24328.3	9.720654	172.385	89.7902	1.122154	0.038289	0.037915	92.3871	24328.3	0.035441	0.052778	1750.49	96751.6
1037	2.000000	1.124596	7.3752e+06	-51989.1	1055.82	-29750.4	0.000000	0.000000	7.128574	95.8571	NaN	0.000000	0.001588	0.001740	28.0837	45.4365	0.001867	24337.6	5.268591	177.054	95.5505	1.124226	0.040357	0.039988	95.8571	24337.6	0.037403	0.057490	1667.37	92737.3
1037	2.000000	1.126479	7.3752e+06	-51989.1	1055.82	-29750.4	0.000000	0.000000	7.130845	105.294	NaN	0.000000	0.001585	0.001757	28.0839	46.3262	0.001799	25753.8	5.053896	176.541	102.945	1.126224	0.042240	0.041985	105.294	25753.8	0.039174	0.061911	1700.75	94565.5
1037	2.000000	1.128560	7.3752e+06	-51989.1	1055.82	-29750.4	0.000000	0.000000	7.133183	111.534	NaN	0.000000	0.001565	0.001741	28.0841	49.203	0.001776	27703.8	3.893972	175.789	109.305	1.128277	0.044322	0.044039	111.534	27703.8	0.041302	0.067437	1653.9	97468.4
1037	2.000000	1.130474	7.3752e+06	-51989.1	1055.82	-29750.4	0.000000	0.000000	7.135675	125.604	NaN	0.000000	0.001578	0.001755	28.0838	48.7986	0.001681	29030.4	2.128227	177.877	120.175	1.130154	0.046235	0.045916	125.604	29030.4	0.042991	0.071985	1744.86	98856.3
1037	2.000000	1.132538	7.3752e+06	-51989.1	1055.82	-29750.4	0.000000	0.000000	7.137941	130.516	NaN	0.000000	0.001608	0.001732	28.0839	51.6372	0.001658	31140.4	7.806725	171.108	131.773	1.132246	0.048299	0.048008	130.516	31140.4	0.045156	0.078031	1672.62	101851
1037	2.000000	1.134587	7.3752e+06	-51989.1	1055.82	-29750.4	0.000000	0.000000	7.140221	136.136	NaN	0.000000	0.001641	0.001706	28.0839	53.5216	0.001798	29767.9	4.267690	176.414	135.759	1.134271	0.050348	0.050033	136.136	29767.9	0.046918	0.083126	1637.7	94330.5
1037	2.000000	1.136543	7.3752e+06	-51989.1	1055.82	-29750.4	0.000000	0.000000	7.142578	145.87	NaN	0.000000	0.001610	0.001710	28.0838	55.7908	0.001685	33106	5.892020	173.47	147.007	1.136258	0.052305	0.052019	145.87	33106	0.049000	0.089347	1632.62	101191
1037	2.000000	1.138529	7.3752e+06	-51989.1	1055.82	-29750.4	0.000000	0.000000	7.144889	153.789	NaN	0.000000	0.001636	0.001709	28.0852	58.9755	0.001859	31715.9	4.171054	175.063	151.847	1.138265	0.054290	0.054027	153.789	31715.9	0.050654	0.094444	1628.36	94289.5
1037	2.000000	1.140524	7.3752e+06	-51989.1	1055.82	-29750.4	0.000000	0.000000	7.147223	162.027	NaN	0.000000	0.001637	0.001723	28.0848	59.9706	0.001751	34259.1	5.869306	172.962	161.924	1.140230	0.056285	0.055992	162.027	34259.1	0.052738	0.101064	1603.2	98457.8
1037	2.000000	1.142517	7.3752e+06	-51989.1	1055.82	-29750.4	0.000000	0.000000	7.149853	177.518	NaN	0.000000	0.001653	0.001722	28.085	62.615	0.001862	33624.3	6.321524	173.085	175.654	1.142182	0.058278	0.057944	177.518	33624.3	0.054319	0.106229	1671.09	94255.4
1037	2.000000	1.144667	7.3752e+06	-51989.1	1055.82	-29750.4	0.000000	0.000000	7.152260	183.753	NaN	0.000000	0.001625	0.001750	28.0847	64.6778	0.001899	34067.4	7.984141	172.335	188.77	1.144182	0.060429	0.059943	183.753	34067.4	0.056383	0.113159	1623.84	92526.7
1037	2.000000	1.146512	7.3752e+06	-51989.1	1055.82	-29750.4	0.000000	0.000000	7.154607	195.958	NaN	0.000000	0.001629	0.001713	28.085	65.6837	0.001797	36560	4.034725	175.157	194.844	1.146155	0.062274	0.061917	195.958	36560	0.058254	0.119622	1638.15	96577.1
1037	2.000000	1.148533	7.3752e+06	-51989.1	1055.82	-29750.4	0.000000	0.000000	7.156979	204.484	NaN	0.000000	0.001631	0.001724	28.085	68.0792	0.001885	36113.7	5.310549	174.211	203.601	1.148168	0.064295	0.063930	204.484	36113.7	0.060048	0.125981	1623.13	92959
1037	2.000000	1.150501	7.3752e+06	-51989.1	1055.82	-29750.4	0.000000	0.000000	7.159253	211.947	NaN	0.000000	0.001640	0.001720	28.0848	68.6518	0.001743	39384	5.370501	172.564	211.731	1.150218	0.066262	0.065979	211.947	39384	0.062226	0.133912	1582.74	98329.4
1037	2.000000	1.152439	7.3752e+06	-51989.1	1055.82	-29750.4	0.000000	0.000000	7.161693	224.143	NaN	0.000000	0.001687	0.001725	28.085	71.4693	0.001769	40390.8	5.734401	172.008	219.146	1.152109	0.068201	0.067871	224.143	40390.8	0.064039	0.140687	1593.21	98385.1
1037	2.000000	1.154566	7.3752e+06	-51989.1	1055.82	-29750.4	0.000000	0.000000	7.164286	235.46	NaN	0.000000	0.001684	0.001705	28.085	72.8951	0.001727	42212.5	1.143174	176.474	235.99	1.154248	0.070328	0.070010	235.46	42212.5	0.066144	0.148758	1582.84	99994
1037	2.000000	1.156552	7.3752e+06	-51989.1	1055.82	-29750.4	0.000000	0.000000	7.166661	244.918	NaN	0.000000	0.001657	0.001732	28.0849	76.1708	0.001768	43091.5	5.573471	171.463	246.018	1.156214	0.072314	0.071976	244.918	43091.5	0.068051	0.156251	1567.47	99598.7
1037	2.000000	1.158544	7.3752e+06	-51989.1	1055.82	-29750.4	0.000000	0.000000	7.169234	259.044	NaN	0.000000	0.001640	0.001720	28.085	78.3232	0.001715	45674	5.178619	172.316	258.288	1.158160	0.074306	0.073922	259.044	45674	0.070052	0.164301	1576.65	102949
1037	2.000000	1.160560	7.3752e+06	-51989.1	1055.82	-29750.4	0.000000	0.000000	7.171632	268.348	NaN	0.000000	0.001647	0.001734	28.0847	78.562	0.001711	45918.6	2.412482	174.883	273.424	1.160160	0.076321	0.075921	268.348	45918.6	0.071938	0.172062	1559.61	101139
1037	2.000000	1.162358	7.3752e+06	-51989.1	1055.82	-29750.4	0.000000	0.000000	7.174092	284.446	NaN	0.000000	0.001613	0.001744	28.0851	81.6411	0.001761	46363.9	4.931137	171.791	276.607	1.162118	0.078120	0.077880	284.446	46363.9	0.073519	0.178695	1591.79	100207
1037	2.000000	1.164593	7.3752e+06	-51989.1	1055.82	-29750.4	0.000000	0.000000	7.176750	294.73	NaN	0.000000	0.001637	0.001731	28.085	83.8701	0.001733	48393.1	3.836617	173.046	299.284	1.164181	0.080355	0.079942	294.73	48393.1	0.075787	0.188422	1564.2	101857
1037	2.000000	1.166405	7.3752e+06	-51989.1	1055.82	-29750.4	0.000000	0.000000	7.179067	307.024	NaN	0.000000	0.001616	0.001734	28.085	85.8759	0.001754	48967.9	7.158904	168.808	300.162	1.166215	0.082166	0.081977	307.024	48967.9	0.077464	0.195768	1568.31	101115
1037	2.000000	1.168516	7.3752e+06	-51989.1	1055.82	-29750.4	0.000000	0.000000	7.181551	316.072	NaN	0.000000	0.001625	0.001765	28.0849	88.18	0.001733	50889.7	4.422182	171.382	317.286	1.168362	0.084278	0.084123	316.072	50889.7	0.079619	0.205404	1538.78	102588
1037	2.000000	1.170464	7.3752e+06	-51989.1	1055.82	-29750.4	0.000000	0.000000	7.184239	334.072	NaN	0.000000	0.001617	0.001722	28.085	89.2556	0.001809	49344.7	4.606933	171.253	329.912	1.170211	0.086225	0.085972	334.072	49344.7	0.081148	0.212368	1573.08	97829.3
1037	2.000000	1.172521	7.3752e+06	-51989.1	1055.82	-29750.4	0.000000	0.000000	7.186958	350.169	NaN	0.000000	0.001576	0.001720	28.0839	92.2321	0.001748	52775	8.035313	167.866	349.297	1.172048	0.088283	0.087810	350.169	52775	0.083307	0.222389	1574.57	102246
1037	2.000000	1.174450	7.3752e+06	-51989.1	1055.82	-29750.4	0.000000	0.000000	7.189702	369.988	NaN	0.000000	0.001581	0.001703	28.0838	93.1639	0.001706	54610.7	3.156914	172.991	367.093	1.174145	0.090211	0.089907	369.988	54610.7	0.085130	0.231023	1601.52	103806
1037	2.000000	1.176407	7.3752e+06	-51989.1	1055.82	-29750.4	0.000000	0.000000	7.192307	385.731	NaN	0.000000	0.001583	0.001741	28.084	94.8901	0.001726	54969.7	4.356492	172.076	382.533	1.176136	0.092169	0.091898	385.731	54969.7	0.086906	0.239577	1610.05	102606
1037	2.000000	1.178478	7.3752e+06	-51989.1	1055.82	-29750.4	0.000000	0.000000	7.194930	399.146	NaN	0.000000	0.001576	0.001714	28.0837	98.8867	0.001855	53308.2	4.242414	171.621	397.379	1.178183	0.094240	0.093945	399.146	53308.2	0.088624	0.247993	1609.5	97801.8
1037	2.000000	1.180409	7.3752e+06	-51989.1	1055.82	-29750.4	0.000000	0.000000	7.197572	416.456	NaN	0.000000	0.001592	0.001720	28.084	100.251	0.001820	55073.6	6.584479	168.872	412.172	1.180119	0.096171	0.095880	416.456	55073.6	0.090499	0.257332	1618.36	99190.3
1037	2.000000	1.182470	7.3752e+06	-51989.1	1055.82	-29750.4	0.000000	0.000000	7.199696	417.98	NaN	0.000000	0.001567	0.001751	28.0838	102.191	0.001829	55868	4.509141	171.093	417.016	1.182050	0.098232	0.097811	417.98	55868	0.092621	0.268092	1559.09	98581.3
1037	2.000000	1.184633	7.3752e+06	-51989.1	1055.82	-29750.4	0.000000	0.000000	7.202673	437.763	NaN	0.000000	0.001607	0.001741	28.0837	104.013	0.001826	56952.5	2.679251	173.292	445.273	1.184247	0.100395	0.100009	437.763	56952.5	0.094630	0.278472	1572.02	98604.1
1037	2.000000	1.186439	7.3752e+06	-51989.1	1055.82	-29750.4	0.000000	0.000000	7.205258	456.74	NaN	0.000000	0.001587	0.001744	28.0838	105.826	0.001805	58634.3	6.815548	168.657	456.13	1.186103	0.102200	0.101865	456.74	58634.3	0.096358	0.287547	1588.4	99901.2
1037	2.000000	1.188526	7.3752e+06	-51989.1	1055.82	-29750.4	0.000000	0.000000	7.207647	464.061	NaN	0.000000	0.001598	0.001693	28.0837	107.296	0.001727	62143.5	2.836539	171.66	465.528	1.188423	0.104287	0.104185	464.061	62143.5	0.098687	0.299992	1546.91	103661
1037	2.000000	1.188885	7.3752e+06	-51989.1	1055.82	-29750.4	0.000000	0.000000	7.208382	473.218	NaN	0.000000	0.001561	0.001713	28.0838	107.414	0.001784	60217.2	2.573442	-7.875163	464.471	1.188596	0.104647	0.104357	473.218	60217.2	0.098753	0.300348	1575.57	100388