File: remote_trans/data/nanoindenter/0828-1/data/Data_2025-08-06,11h17m57s/2025-07-22_16-23-58_1_650.txt
2025-07-22, 16:23:58, 1
Index	Phase	Displacement	Time	Pos X	Pos Y	Pos Z	Rot A	Rot B	Piezo Z	Force A	Force B	Gripper	Voltage A	Voltage B	Temperature	Amplitude force	Amplitude pos	Stiffness	Phase shift	Phase excitation	Force A raw	Displacement raw	HMax	HMax raw	Real Force	Real Stiffness	Contact Depth	Area	Hardness	Reduced Mod.
[#]	[#]	[um]	[s]	[um]	[um]	[um]	[m°]	[m°]	[um]	[uN]	[uN]	[V]	[V]	[V]	[°C]	[uN]	[um]	[N/m]	[°]	[°]	[uN]	[um]	[um]	[um]	[uN]	[N/m]	[um]	[um^2]	[MPa]	[MPa]
650	1.000000	0.002576	7.37141e+06	-44589.1	1005.82	-29775.2	0.000000	0.000000	6.002822	-0.056144	NaN	0.000000	0.001639	0.001727	28.0846	0.092955	0.000983	94.5979	-82.9682	-168.623	0.045739	0.001274	-1.131818	-1.133120	-0.056144	94.5979	-1.131373	-1.321427E+15	4.248779E-17	NaN
650	1.000000	0.012595	7.37141e+06	-44589.1	1005.82	-29775.2	0.000000	0.000000	6.012845	0.055979	NaN	0.000000	0.001634	0.001720	28.0842	0.103399	0.001148	90.0634	116.7	18.6617	0.029133	0.011173	-1.121799	-1.123221	0.055979	90.0634	-1.122266	-9.973971E+14	-5.612481E-17	NaN
650	1.000000	0.022509	7.37141e+06	-44589.1	1005.82	-29775.2	0.000000	0.000000	6.022755	-0.042225	NaN	0.000000	0.001619	0.001709	28.0843	0.069683	0.001602	43.487	-50.8319	-164.94	-0.006391	0.021242	-1.111886	-1.113152	-0.042225	43.487	-1.111157	-7.076514E+14	5.966962E-17	NaN
650	1.000000	0.032517	7.37141e+06	-44589.1	1005.82	-29775.3	0.000000	0.000000	6.032763	-0.045417	NaN	0.000000	0.001612	0.001724	28.0839	0.101471	0.001814	55.9377	-79.8677	14.457	-0.105734	0.031115	-1.101878	-1.103280	-0.045417	55.9377	-1.101269	-5.213201E+14	8.711900E-17	NaN
650	1.000000	0.042503	7.37141e+06	-44589.1	1005.82	-29775.3	0.000000	0.000000	6.042751	-0.001618	NaN	0.000000	0.001659	0.001702	28.084	0.048366	0.002115	22.8709	27.0345	-166.844	0.024023	0.041231	-1.091892	-1.093164	-0.001618	22.8709	-1.091839	-3.894953E+14	4.153421E-18	NaN
650	1.000000	0.052496	7.37141e+06	-44589.1	1005.82	-29775.3	0.000000	0.000000	6.052742	-0.043707	NaN	0.000000	0.001669	0.001704	28.0836	0.085216	0.001995	42.7152	169.409	14.181	-0.035061	0.051179	-1.081899	-1.083215	-0.043707	42.7152	-1.081131	-2.797129E+14	1.562557E-16	NaN
650	1.000000	0.062507	7.37141e+06	-44589.1	1005.82	-29775.3	0.000000	0.000000	6.062755	0.000419	NaN	0.000000	0.001729	0.001697	28.0837	0.037815	0.002017	18.7448	158.15	-168.229	0.121527	0.061188	-1.071888	-1.073207	0.000419	18.7448	-1.071905	-2.102709E+14	-1.991525E-18	NaN
650	1.000000	0.072516	7.37141e+06	-44589.1	1005.82	-29775.3	0.000000	0.000000	6.072764	-0.010228	NaN	0.000000	0.001703	0.001699	28.0837	0.055243	0.001942	28.4439	71.7533	14.5031	-0.025799	0.071166	-1.061878	-1.063229	-0.010228	28.4439	-1.061609	-1.529116E+14	6.689092E-17	NaN
650	1.000000	0.082548	7.37141e+06	-44589.1	1005.82	-29775.3	0.000000	0.000000	6.082795	-0.018021	NaN	0.000000	0.001687	0.001733	28.084	0.169059	0.002032	83.1876	-65.4197	-164.852	0.057710	0.081204	-1.051847	-1.053191	-0.018021	83.1876	-1.051684	-1.124746E+14	1.602212E-16	NaN
650	1.000000	0.092534	7.37141e+06	-44589.1	1005.82	-29775.3	0.000000	0.000000	6.092780	-0.041657	NaN	0.000000	0.001666	0.001721	28.0838	0.121103	0.002093	57.8639	-51.4225	12.9262	-0.039132	0.091153	-1.041861	-1.043242	-0.041657	57.8639	-1.041321	-8.160719E+13	5.104519E-16	NaN
650	1.000000	0.102521	7.37141e+06	-44589.1	1005.82	-29775.3	0.000000	0.000000	6.102770	0.036448	NaN	0.000000	0.001649	0.001699	28.0838	0.067793	0.002093	32.3963	-78.2559	-163.121	0.055980	0.101294	-1.031874	-1.033100	0.036448	32.3963	-1.032717	-6.252167E+13	-5.829662E-16	NaN
650	1.000000	0.112519	7.37141e+06	-44589.1	1005.82	-29775.3	0.000000	0.000000	6.112767	0.009777	NaN	0.000000	0.001589	0.001737	28.0839	0.075610	0.002024	37.3548	-171.642	15.0591	0.035362	0.111139	-1.021876	-1.023256	0.009777	37.3548	-1.022072	-4.496039E+13	-2.174661E-16	NaN
650	1.000000	0.122533	7.37141e+06	-44589.1	1005.82	-29775.3	0.000000	0.000000	6.122783	0.044552	NaN	0.000000	0.001599	0.001693	28.0848	0.076168	0.001937	39.3235	-153.054	-164.798	0.025292	0.121211	-1.011861	-1.013184	0.044552	39.3235	-1.012711	-3.364118E+13	-1.324324E-15	NaN
650	1.000000	0.132547	7.37141e+06	-44589.1	1005.82	-29775.3	0.000000	0.000000	6.132795	0.004507	NaN	0.000000	0.001594	0.001713	28.0852	0.036433	0.001939	18.7852	60.0232	13.6009	-0.114831	0.131209	-1.001848	-1.003186	0.004507	18.7852	-1.002028	-2.415835E+13	-1.865532E-16	NaN
650	1.000000	0.142555	7.37141e+06	-44589.1	1005.82	-29775.3	0.000000	0.000000	6.142805	0.039439	NaN	0.000000	0.001625	0.001673	28.0851	0.099547	0.001990	50.0314	-59.7654	-163.595	-0.028870	0.141265	-0.991839	-0.993130	0.039439	50.0314	-0.992431	-1.794095E+13	-2.198290E-15	NaN
650	1.000000	0.152542	7.37141e+06	-44589.1	1005.82	-29775.3	0.000000	0.000000	6.152791	0.035752	NaN	0.000000	0.001598	0.001706	28.0854	0.106553	0.002054	51.8821	-103.586	12.7796	0.005204	0.151195	-0.981853	-0.983200	0.035752	51.8821	-0.982370	-1.313216E+13	-2.722507E-15	NaN
650	1.000000	0.162548	7.37141e+06	-44589.1	1005.82	-29775.3	0.000000	0.000000	6.162799	0.055989	NaN	0.000000	0.001633	0.001749	28.0851	0.071963	0.002026	35.513	-65.8958	-169.932	0.028355	0.161256	-0.971846	-0.973138	0.055989	35.513	-0.973029	-9.828332E+12	-5.696683E-15	NaN
650	1.000000	0.172575	7.37141e+06	-44589.1	1005.82	-29775.3	0.000000	0.000000	6.172822	-0.003813	NaN	0.000000	0.001621	0.001748	28.0853	0.099232	0.002011	49.3518	-81.2219	15.2174	0.062774	0.171184	-0.961820	-0.963211	-0.003813	49.3518	-0.961762	-6.928248E+12	5.503081E-16	NaN
650	1.000000	0.182560	7.37141e+06	-44589.1	1005.82	-29775.3	0.000000	0.000000	6.182811	0.076210	NaN	0.000000	0.001585	0.001740	28.0853	0.042967	0.001907	22.5341	-78.2805	-164.356	-0.048484	0.181231	-0.951835	-0.953164	0.076210	22.5341	-0.954372	-5.507832E+12	-1.383665E-14	NaN
650	1.000000	0.192581	7.37141e+06	-44589.1	1005.82	-29775.3	0.000000	0.000000	6.192829	0.007673	NaN	0.000000	0.001584	0.001694	28.0848	0.108986	0.002015	54.0804	96.7293	15.8312	0.009249	0.191257	-0.941813	-0.943138	0.007673	54.0804	-0.941920	-3.741427E+12	-2.050808E-15	NaN
650	1.000000	0.202569	7.37141e+06	-44589.1	1005.82	-29775.3	0.000000	0.000000	6.202816	-0.021416	NaN	0.000000	0.001603	0.001749	28.0849	0.109370	0.002053	53.2681	-121.757	-167.035	-0.045669	0.201307	-0.931826	-0.933087	-0.021416	53.2681	-0.931525	-2.708778E+12	7.906126E-15	NaN
650	1.000000	0.212557	7.37141e+06	-44589.1	1005.82	-29775.3	0.000000	0.000000	6.212804	-0.011047	NaN	0.000000	0.001587	0.001695	28.0847	0.040814	0.002059	19.8201	-56.4683	14.4794	0.064269	0.211210	-0.921838	-0.923185	-0.011047	19.8201	-0.921420	-1.978697E+12	5.582794E-15	NaN
650	1.000000	0.222550	7.37141e+06	-44589.1	1005.82	-29775.3	0.000000	0.000000	6.222798	0.007024	NaN	0.000000	0.001631	0.001729	28.0851	0.083650	0.001951	42.8691	-154.684	-167.557	-0.016333	0.221198	-0.911845	-0.913196	0.007024	42.8691	-0.911968	-1.474833E+12	-4.762481E-15	NaN
650	1.000000	0.232583	7.37141e+06	-44589.1	1005.82	-29775.3	0.000000	0.000000	6.232830	-0.023221	NaN	0.000000	0.001558	0.001759	28.0849	0.020947	0.001963	10.6733	-154.344	13.8721	-0.006656	0.231141	-0.901812	-0.903253	-0.023221	10.6733	-0.900180	-1.022111E+12	2.271820E-14	NaN
650	1.000000	0.242561	7.37141e+06	-44589.1	1005.82	-29775.3	0.000000	0.000000	6.242807	-0.042740	NaN	0.000000	0.001630	0.001721	28.085	0.142680	0.002073	68.8187	109.312	-168.968	-0.031641	0.241298	-0.891834	-0.893097	-0.042740	68.8187	-0.891368	-7.769708E+11	5.500831E-14	NaN
650	1.000000	0.252587	7.37141e+06	-44589.1	1005.82	-29775.3	0.000000	0.000000	6.252830	-0.104641	NaN	0.000000	0.001575	0.001756	28.085	0.020350	0.002104	9.669954	-131.939	12.4433	-0.020222	0.251230	-0.881808	-0.883165	-0.104641	9.669954	-0.873692	-4.481135E+11	2.335146E-13	NaN
650	1.000000	0.262609	7.37141e+06	-44589.1	1005.82	-29775.3	0.000000	0.000000	6.262855	-0.042281	NaN	0.000000	0.001585	0.001717	28.0839	0.047015	0.001963	23.9556	91.3012	-163.464	-0.000405	0.261221	-0.871785	-0.873174	-0.042281	23.9556	-0.870462	-4.052200E+11	1.043401E-13	NaN
650	1.000000	0.272584	7.37141e+06	-44589.1	1005.82	-29775.3	0.000000	0.000000	6.272835	0.069318	NaN	0.000000	0.001586	0.001732	28.0836	0.043405	0.001890	22.9699	-64.2679	13.2061	0.082013	0.271184	-0.861811	-0.863211	0.069318	22.9699	-0.864074	-3.320931E+11	-2.087298E-13	NaN
650	1.000000	0.282612	7.37141e+06	-44589.1	1005.82	-29775.3	0.000000	0.000000	6.282861	0.027642	NaN	0.000000	0.001609	0.001754	28.084	0.057569	0.002213	26.013	-97.6616	-165.094	0.041670	0.281287	-0.851783	-0.853108	0.027642	26.013	-0.852580	-2.320982E+11	-1.190953E-13	NaN
650	1.000000	0.292585	7.37141e+06	-44589.1	1005.82	-29775.3	0.000000	0.000000	6.292831	-0.046682	NaN	0.000000	0.001621	0.001782	28.0842	0.047304	0.002088	22.6599	63.2739	13.8562	-0.111260	0.291205	-0.841810	-0.843190	-0.046682	22.6599	-0.840264	-1.580797E+11	2.953064E-13	NaN
650	1.000000	0.302594	7.37141e+06	-44589.1	1005.82	-29775.3	0.000000	0.000000	6.302842	0.013112	NaN	0.000000	0.001588	0.001737	28.0837	0.111234	0.001960	56.7526	-151.354	-166.997	0.027215	0.301330	-0.831801	-0.833065	0.013112	56.7526	-0.831974	-1.220507E+11	-1.074347E-13	NaN
650	1.000000	0.312642	7.37141e+06	-44589.1	1005.82	-29775.3	0.000000	0.000000	6.312889	-0.005147	NaN	0.000000	0.001595	0.001734	28.0838	0.065599	0.001891	34.6971	83.1163	12.9728	-0.032909	0.311210	-0.821753	-0.823184	-0.005147	34.6971	-0.821642	-8.840458E+10	5.822153E-14	NaN
650	1.000000	0.322645	7.37141e+06	-44589.1	1005.82	-29775.3	0.000000	0.000000	6.322890	-0.063821	NaN	0.000000	0.001579	0.001761	28.0838	0.054334	0.002100	25.8774	57.8806	-163.168	-0.070213	0.321281	-0.811750	-0.813113	-0.063821	25.8774	-0.809900	-6.126563E+10	1.041702E-12	NaN
650	1.000000	0.332602	7.37141e+06	-44589.1	1005.82	-29775.3	0.000000	0.000000	6.332849	-0.008416	NaN	0.000000	0.001569	0.001748	28.0837	0.053129	0.002155	24.653	88.8433	13.1604	0.008885	0.331288	-0.801793	-0.803106	-0.008416	24.653	-0.801537	-4.717682E+10	1.783822E-13	NaN
650	1.000000	0.342603	7.37141e+06	-44589.1	1005.82	-29775.3	0.000000	0.000000	6.342852	0.028388	NaN	0.000000	0.001669	0.001780	28.0837	0.078180	0.001930	40.5169	178.732	-165.013	-0.001323	0.341299	-0.791791	-0.793096	0.028388	40.5169	-0.792317	-3.536291E+10	-8.027539E-13	NaN
650	1.000000	0.352633	7.37141e+06	-44589.1	1005.82	-29775.3	0.000000	0.000000	6.352881	0.003328	NaN	0.000000	0.001667	0.001740	28.0836	0.058137	0.002081	27.9408	177.274	16.3806	-0.008828	0.351340	-0.781762	-0.783055	0.003328	27.9408	-0.781851	-2.549113E+10	-1.305396E-13	NaN
650	1.000000	0.362596	7.37141e+06	-44589.1	1005.82	-29775.3	0.000000	0.000000	6.362843	-0.015733	NaN	0.000000	0.001671	0.001754	28.0836	0.077097	0.002006	38.4345	162.133	-166.794	-0.001786	0.361301	-0.771799	-0.773094	-0.015733	38.4345	-0.771492	-1.843267E+10	8.535303E-13	NaN
650	1.000000	0.372659	7.37141e+06	-44589.1	1005.82	-29775.3	0.000000	0.000000	6.372907	0.020645	NaN	0.000000	0.001633	0.001774	28.0834	0.142816	0.002016	70.8294	12.2902	14.9915	0.012591	0.371307	-0.761736	-0.763087	0.020645	70.8294	-0.761955	-1.367386E+10	-1.509810E-12	NaN
650	1.000000	0.382661	7.37141e+06	-44589.1	1005.82	-29775.3	0.000000	0.000000	6.382910	0.018971	NaN	0.000000	0.001671	0.001730	28.0834	0.061640	0.001991	30.9609	153.537	-165.269	0.052590	0.381323	-0.751733	-0.753072	0.018971	30.9609	-0.752193	-1.007090E+10	-1.883738E-12	NaN
650	1.000000	0.392630	7.37141e+06	-44589.1	1005.82	-29775.3	0.000000	0.000000	6.392878	0.009359	NaN	0.000000	0.001617	0.001729	28.0836	0.036905	0.002166	17.0382	35.5448	14.113	0.055476	0.391350	-0.741765	-0.743045	0.009359	17.0382	-0.742177	-7.356985E+9	-1.272170E-12	NaN
650	1.000000	0.402639	7.37141e+06	-44589.1	1005.82	-29775.3	0.000000	0.000000	6.402887	0.014939	NaN	0.000000	0.001630	0.001747	28.0847	0.110840	0.002037	54.4205	5.801277	-169.084	0.055438	0.401326	-0.731756	-0.733069	0.014939	54.4205	-0.731962	-5.340007E+9	-2.797619E-12	NaN
650	1.000000	0.412649	7.37141e+06	-44589.1	1005.82	-29775.3	0.000000	0.000000	6.412895	-0.052525	NaN	0.000000	0.001642	0.001767	28.0845	0.029532	0.001926	15.3313	61.6729	16.1794	-0.040449	0.411291	-0.721746	-0.723104	-0.052525	15.3313	-0.719176	-3.574693E+9	1.469358E-11	NaN
650	1.000000	0.422668	7.37141e+06	-44589.1	1005.82	-29775.3	0.000000	0.000000	6.422916	0.023523	NaN	0.000000	0.001619	0.001770	28.0846	0.032015	0.001808	17.7063	-115.748	-167.286	0.098503	0.421323	-0.711727	-0.713071	0.023523	17.7063	-0.712724	-2.918866E+9	-8.058950E-12	NaN
650	1.000000	0.432672	7.37141e+06	-44589.1	1005.82	-29775.3	0.000000	0.000000	6.432921	0.028830	NaN	0.000000	0.001635	0.001759	28.0849	0.038087	0.001794	21.236	162.811	8.947208	-0.008862	0.431293	-0.701723	-0.703102	0.028830	21.236	-0.702741	-2.132875E+9	-1.351694E-11	NaN
650	1.000000	0.442650	7.37141e+06	-44589.1	1005.82	-29775.3	0.000000	0.000000	6.442900	0.065889	NaN	0.000000	0.001651	0.001722	28.0849	0.035475	0.002111	16.8012	-31.0008	-166.848	0.047109	0.441395	-0.691745	-0.693000	0.065889	16.8012	-0.694686	-1.655576E+9	-3.979854E-11	NaN
650	1.000000	0.452682	7.37141e+06	-44589.1	1005.82	-29775.3	0.000000	0.000000	6.452927	-0.062826	NaN	0.000000	0.001672	0.001722	28.0848	0.037000	0.002145	17.2512	-103.334	14.9695	0.021089	0.451327	-0.681713	-0.683068	-0.062826	17.2512	-0.678982	-1.009906E+9	6.220947E-11	NaN
650	1.000000	0.462694	7.37141e+06	-44589.1	1005.82	-29775.3	0.000000	0.000000	6.462939	-0.062777	NaN	0.000000	0.001673	0.001719	28.0852	0.054798	0.002020	27.123	146.333	-165.5	0.017339	0.461359	-0.671701	-0.673036	-0.062777	27.123	-0.669965	-7.601638E+8	8.258295E-11	NaN
650	1.000000	0.472689	7.37141e+06	-44589.1	1005.82	-29775.3	0.000000	0.000000	6.472940	0.080471	NaN	0.000000	0.001654	0.001733	28.085	0.108151	0.002071	52.2168	-97.839	14.7598	0.017436	0.471338	-0.661706	-0.663057	0.080471	52.2168	-0.662862	-6.076628E+8	-1.324263E-10	NaN
650	1.000000	0.482677	7.37141e+06	-44589.1	1005.82	-29775.3	0.000000	0.000000	6.482924	-0.023187	NaN	0.000000	0.001658	0.001753	28.0849	0.125913	0.001901	66.2459	-129.69	-165.655	-0.000983	0.481375	-0.651717	-0.653019	-0.023187	66.2459	-0.651455	-4.240133E+8	5.468449E-11	NaN
650	1.000000	0.492715	7.37141e+06	-44589.1	1005.82	-29775.3	0.000000	0.000000	6.492961	-0.030820	NaN	0.000000	0.001638	0.001765	28.0851	0.073422	0.001930	38.0357	121.992	13.5775	-0.093830	0.491305	-0.641680	-0.643090	-0.030820	38.0357	-0.641072	-3.054948E+8	1.008871E-10	NaN
650	1.000000	0.502680	7.37141e+06	-44589.1	1005.82	-29775.3	0.000000	0.000000	6.502929	0.030894	NaN	0.000000	0.001572	0.001767	28.0854	0.085350	0.002098	40.674	72.2528	-163.903	0.027514	0.501364	-0.631714	-0.633031	0.030894	40.674	-0.632284	-2.314126E+8	-1.335030E-10	NaN
650	1.000000	0.512696	7.37141e+06	-44589.1	1005.82	-29775.3	0.000000	0.000000	6.512943	-0.011398	NaN	0.000000	0.001592	0.001734	28.0852	0.057799	0.001989	29.0594	-147.687	13.2505	-0.011275	0.511327	-0.621699	-0.623068	-0.011398	29.0594	-0.621405	-1.640378E+8	6.948151E-11	NaN
650	1.000000	0.522716	7.37141e+06	-44589.1	1005.82	-29775.3	0.000000	0.000000	6.522963	-0.036901	NaN	0.000000	0.001594	0.001722	28.085	0.092037	0.002025	45.4419	-98.1434	-164.466	0.068726	0.521414	-0.611678	-0.612981	-0.036901	45.4419	-0.611069	-1.182567E+8	3.120455E-10	NaN
650	1.000000	0.532702	7.37141e+06	-44589.1	1005.82	-29775.3	0.000000	0.000000	6.532952	0.067939	NaN	0.000000	0.001591	0.001757	28.0838	0.048282	0.002094	23.0585	-123.896	15.3117	0.105414	0.531312	-0.601693	-0.603083	0.067939	23.0585	-0.603903	-9.423298E+7	-7.209675E-10	NaN
650	1.000000	0.542701	7.37141e+06	-44589.1	1005.82	-29775.3	0.000000	0.000000	6.542950	0.038384	NaN	0.000000	0.001562	0.001763	28.0839	0.103935	0.002005	51.8306	85.7684	-168.849	0.078384	0.541444	-0.591694	-0.592951	0.038384	51.8306	-0.592250	-6.511433E+7	-5.894822E-10	NaN
650	1.000000	0.552699	7.37141e+06	-44589.1	1005.82	-29775.3	0.000000	0.000000	6.552946	-0.038616	NaN	0.000000	0.001559	0.001770	28.0836	0.012610	0.002097	6.013437	-49.5095	12.8114	-0.041218	0.551369	-0.581695	-0.583026	-0.038616	6.013437	-0.576879	-3.996177E+7	9.663347E-10	NaN
650	1.000000	0.562689	7.37141e+06	-44589.1	1005.82	-29775.3	0.000000	0.000000	6.562938	0.028483	NaN	0.000000	0.001586	0.001772	28.0837	0.025373	0.002086	12.1618	-108.204	-166.039	0.041869	0.561398	-0.571705	-0.572997	0.028483	12.1618	-0.573462	-3.584725E+7	-7.945787E-10	NaN
650	1.000000	0.572725	7.37141e+06	-44589.1	1005.82	-29775.3	0.000000	0.000000	6.572974	0.029030	NaN	0.000000	0.001602	0.001730	28.0839	0.119004	0.001988	59.8617	105.614	15.3405	0.052087	0.571383	-0.561669	-0.563012	0.029030	59.8617	-0.562033	-2.491732E+7	-1.165070E-9	NaN
650	1.000000	0.582724	7.37141e+06	-44589.1	1005.82	-29775.3	0.000000	0.000000	6.582971	-0.030829	NaN	0.000000	0.001572	0.001712	28.0839	0.032121	0.002098	15.3122	-125.68	-164.912	-0.023598	0.581406	-0.551670	-0.552988	-0.030829	15.3122	-0.550160	-1.706777E+7	1.806243E-9	NaN
650	1.000000	0.592746	7.37141e+06	-44589.1	1005.82	-29775.3	0.000000	0.000000	6.592994	-0.002723	NaN	0.000000	0.001550	0.001700	28.0838	0.057040	0.002023	28.1983	-168.067	15.0438	-0.028625	0.591388	-0.541649	-0.543006	-0.002723	28.1983	-0.541576	-1.297821E+7	2.097792E-10	NaN
650	1.000000	0.602725	7.37141e+06	-44589.1	1005.82	-29775.3	0.000000	0.000000	6.602974	0.032078	NaN	0.000000	0.001555	0.001708	28.084	0.150486	0.002027	74.2341	-160.851	-163.929	-0.001556	0.601365	-0.531670	-0.533030	0.032078	74.2341	-0.531994	-9.5556e+06	-3.356984E-9	NaN
650	1.000000	0.612753	7.37141e+06	-44589.1	1005.82	-29775.3	0.000000	0.000000	6.612998	-0.065476	NaN	0.000000	0.001581	0.001732	28.0839	0.084006	0.001906	44.0826	179.149	9.501599	0.013783	0.611328	-0.521642	-0.523067	-0.065476	44.0826	-0.520528	-6.62127e+06	9.888663E-9	NaN
650	1.000000	0.622747	7.37141e+06	-44589.1	1005.82	-29775.3	0.000000	0.000000	6.622994	-0.020847	NaN	0.000000	0.001597	0.001739	28.0838	0.114901	0.002107	54.5412	-115.215	-168.208	0.030050	0.621454	-0.511648	-0.512941	-0.020847	54.5412	-0.511361	-4.93597e+06	4.223509E-9	NaN
650	1.000000	0.632765	7.37141e+06	-44589.1	1005.82	-29775.3	0.000000	0.000000	6.633011	-0.066270	NaN	0.000000	0.001599	0.001746	28.0837	0.036050	0.002054	17.551	-161.504	14.1677	-0.013679	0.631443	-0.501629	-0.502951	-0.066270	17.551	-0.498797	-3.29791e+06	2.009445E-8	NaN
650	1.000000	0.642750	7.37141e+06	-44589.1	1005.82	-29775.3	0.000000	0.000000	6.642995	-0.047817	NaN	0.000000	0.001558	0.001743	28.084	0.106702	0.002052	51.9971	7.950136	-167.762	-0.046251	0.641450	-0.491645	-0.492945	-0.047817	51.9971	-0.490955	-2.56297e+06	1.865704E-8	NaN
650	1.000000	0.652778	7.37141e+06	-44589.1	1005.82	-29775.3	0.000000	0.000000	6.653027	0.044466	NaN	0.000000	0.001594	0.001726	28.0837	0.083950	0.001927	43.5658	-140.202	15.7428	0.055408	0.651406	-0.481617	-0.482989	0.044466	43.5658	-0.482383	-1.9448e+06	-2.286412E-8	NaN
650	1.000000	0.662799	7.37141e+06	-44589.1	1005.82	-29775.3	0.000000	0.000000	6.663046	-0.022832	NaN	0.000000	0.001664	0.001735	28.0839	0.097681	0.001966	49.6848	99.8363	-169.219	0.038576	0.661454	-0.471596	-0.472941	-0.022832	49.6848	-0.471251	-1.35817e+06	1.681092E-8	NaN
650	1.000000	0.672804	7.37141e+06	-44589.1	1005.82	-29775.3	0.000000	0.000000	6.673052	0.020775	NaN	0.000000	0.001667	0.001727	28.085	0.056712	0.002086	27.1834	-74.373	13.6168	-0.052462	0.671402	-0.461591	-0.462993	0.020775	27.1834	-0.462164	-1.01258e+06	-2.051677E-8	NaN
650	1.000000	0.682792	7.37141e+06	-44589.1	1005.82	-29775.3	0.000000	0.000000	6.683038	-0.063349	NaN	0.000000	0.001688	0.001720	28.0853	0.041076	0.001992	20.6235	169.047	-166.636	-0.056064	0.681487	-0.451602	-0.452908	-0.063349	20.6235	-0.449299	-667519	9.490272E-8	NaN
650	1.000000	0.692755	7.37141e+06	-44589.1	1005.82	-29775.3	0.000000	0.000000	6.693003	0.016323	NaN	0.000000	0.001692	0.001740	28.0849	0.075146	0.001857	40.464	-142.554	16.595	-0.006624	0.691424	-0.441640	-0.442971	0.016323	40.464	-0.441942	-525743	-3.104836E-8	NaN
650	1.000000	0.702748	7.37141e+06	-44589.1	1005.82	-29775.3	0.000000	0.000000	6.702996	0.015553	NaN	0.000000	0.001719	0.001732	28.0851	0.104457	0.001938	53.897	-35.7748	-163.949	-0.098838	0.701422	-0.431647	-0.432973	0.015553	53.897	-0.431863	-378803	-4.105897E-8	NaN
650	1.000000	0.712786	7.37141e+06	-44589.1	1005.82	-29775.3	0.000000	0.000000	6.713035	0.030365	NaN	0.000000	0.001715	0.001712	28.085	0.076652	0.001968	38.9471	159.368	15.1205	0.016526	0.711466	-0.421609	-0.422929	0.030365	38.9471	-0.422194	-276390	-1.098622E-7	NaN
650	1.000000	0.722760	7.37141e+06	-44589.1	1005.82	-29775.3	0.000000	0.000000	6.723009	0.020844	NaN	0.000000	0.001705	0.001714	28.0855	0.096742	0.001990	48.6169	16.5688	-168.477	0.000672	0.721520	-0.411635	-0.412874	0.020844	48.6169	-0.411956	-197794	-1.053808E-7	NaN
650	1.000000	0.732773	7.37141e+06	-44589.1	1005.82	-29775.3	0.000000	0.000000	6.733022	0.019925	NaN	0.000000	0.001689	0.001770	28.085	0.026270	0.001907	13.772	-153.654	13.5975	-0.030470	0.731432	-0.401622	-0.402963	0.019925	13.772	-0.402707	-146077	-1.364022E-7	NaN
650	1.000000	0.742815	7.37141e+06	-44589.1	1005.82	-29775.3	0.000000	0.000000	6.743062	-0.010819	NaN	0.000000	0.001712	0.001788	28.0854	0.059529	0.002089	28.4965	100.547	-166.077	0.040741	0.741507	-0.391580	-0.392888	-0.010819	28.4965	-0.391295	-100389	1.077744E-7	NaN
650	1.000000	0.752787	7.37141e+06	-44589.1	1005.82	-29775.3	0.000000	0.000000	6.753034	-0.009223	NaN	0.000000	0.001730	0.001761	28.0855	0.014762	0.001943	7.598559	-3.552252	16.7309	-0.005567	0.751512	-0.381608	-0.382883	-0.009223	7.598559	-0.380698	-70778.7	1.303043E-7	NaN
650	1.000000	0.762816	7.37141e+06	-44589.1	1005.82	-29775.3	0.000000	0.000000	6.763062	-0.044886	NaN	0.000000	0.001594	0.001795	28.0855	0.061499	0.001962	31.3376	-147.849	-163.728	-0.003535	0.761546	-0.371579	-0.372848	-0.044886	31.3376	-0.370505	-50512.3	8.886225E-7	NaN
650	1.000000	0.772788	7.37141e+06	-44589.1	1005.82	-29775.3	0.000000	0.000000	6.773037	0.032724	NaN	0.000000	0.001602	0.001748	28.0852	0.090116	0.002044	44.087	-125.897	17.2028	0.021939	0.771456	-0.361607	-0.362939	0.032724	44.087	-0.362163	-38291.8	-8.546009E-7	NaN
650	1.000000	0.782817	7.37141e+06	-44589.1	1005.82	-29775.3	0.000000	0.000000	6.783064	-0.033076	NaN	0.000000	0.001578	0.001749	28.0854	0.021398	0.001990	10.7507	-44.6993	-166.653	-0.024766	0.781510	-0.351577	-0.352884	-0.033076	10.7507	-0.349270	-24911.6	1.327744E-6	NaN
650	1.000000	0.792815	7.37141e+06	-44589.1	1005.82	-29775.3	0.000000	0.000000	6.793061	-0.051021	NaN	0.000000	0.001574	0.001755	28.0854	0.045718	0.002014	22.6971	-66.3248	15.5512	-0.029779	0.791446	-0.341579	-0.342948	-0.051021	22.6971	-0.339894	-18197.1	2.803813E-6	NaN
650	1.000000	0.802815	7.37141e+06	-44589.1	1005.82	-29775.3	0.000000	0.000000	6.803062	-0.027458	NaN	0.000000	0.001617	0.001759	28.0853	0.022564	0.002022	11.1605	174.824	-161.117	-0.086438	0.801487	-0.331579	-0.332908	-0.027458	11.1605	-0.329734	-12928.7	2.123831E-6	NaN
650	1.000000	0.812805	7.37141e+06	-44589.1	1005.82	-29775.3	0.000000	0.000000	6.813056	0.080412	NaN	0.000000	0.001584	0.001720	28.084	0.008368	0.002026	4.131497	-160.733	13.4256	0.142724	0.811448	-0.321590	-0.322947	0.080412	4.131497	-0.336187	-16066.7	-5.004886E-6	NaN
650	1.000000	0.822831	7.37141e+06	-44589.1	1005.82	-29775.3	0.000000	0.000000	6.823078	-0.033307	NaN	0.000000	0.001596	0.001734	28.084	0.102302	0.001999	51.1689	-67.0375	-165.862	0.041546	0.821519	-0.311564	-0.312876	-0.033307	51.1689	-0.311075	-6870.12	4.848117E-6	NaN
650	1.000000	0.832815	7.37141e+06	-44589.1	1005.82	-29775.3	0.000000	0.000000	6.833059	-0.090880	NaN	0.000000	0.001571	0.001737	28.0842	0.065023	0.002132	30.5027	147.385	16.018	-0.136089	0.831438	-0.301580	-0.302956	-0.090880	30.5027	-0.299345	-4601.37	1.975068E-5	NaN
650	1.000000	0.842814	7.37141e+06	-44589.1	1005.82	-29775.3	0.000000	0.000000	6.843062	0.019247	NaN	0.000000	0.001612	0.001751	28.0839	0.087504	0.001997	43.8086	81.2154	-166.916	-0.075574	0.841491	-0.291581	-0.292904	0.019247	43.8086	-0.291911	-3563.78	-5.400774E-6	NaN
650	1.000000	0.852859	7.37141e+06	-44589.1	1005.82	-29775.3	0.000000	0.000000	6.853106	-0.028195	NaN	0.000000	0.001609	0.001745	28.084	0.054488	0.001969	27.6768	79.6339	14.6737	-0.043715	0.851450	-0.281536	-0.282945	-0.028195	27.6768	-0.280772	-2424.42	1.162955E-5	NaN
650	1.000000	0.862852	7.37141e+06	-44589.1	1005.82	-29775.3	0.000000	0.000000	6.863100	0.007500	NaN	0.000000	0.001646	0.001758	28.0841	0.041560	0.002102	19.7699	10.195	-165.118	-0.045925	0.861525	-0.271543	-0.272869	0.007500	19.7699	-0.271828	-1775.44	-4.224212E-6	NaN
650	1.000000	0.872845	7.37141e+06	-44589.1	1005.82	-29775.3	0.000000	0.000000	6.873092	-0.023787	NaN	0.000000	0.001669	0.001705	28.0841	0.065596	0.001960	33.4749	-99.225	14.0986	0.005062	0.871519	-0.261549	-0.262876	-0.023787	33.4749	-0.261017	-1214.76	1.958146E-5	NaN
650	1.000000	0.882843	7.37141e+06	-44589.1	1005.82	-29775.3	0.000000	0.000000	6.883091	-0.007835	NaN	0.000000	0.001622	0.001734	28.0839	0.053955	0.001898	28.4225	111.613	-165.83	-0.007026	0.881495	-0.251551	-0.252899	-0.007835	28.4225	-0.251345	-862.478	9.084133E-6	NaN
650	1.000000	0.892848	7.37141e+06	-44589.1	1005.82	-29775.3	0.000000	0.000000	6.893095	-0.038212	NaN	0.000000	0.001625	0.001743	28.084	0.073036	0.002089	34.961	-132.214	16.8739	-0.040392	0.891416	-0.241546	-0.242978	-0.038212	34.961	-0.240727	-590.063	6.475946E-5	NaN
650	1.000000	0.902860	7.37141e+06	-44589.1	1005.82	-29775.3	0.000000	0.000000	6.903106	-0.039721	NaN	0.000000	0.001616	0.001740	28.0841	0.075521	0.002059	36.681	-152.073	-167.624	-0.033599	0.901629	-0.231535	-0.232766	-0.039721	36.681	-0.230722	-411.075	9.662738E-5	NaN
650	1.000000	0.912845	7.37141e+06	-44589.1	1005.82	-29775.3	0.000000	0.000000	6.913087	-0.128959	NaN	0.000000	0.001605	0.001721	28.0839	0.123501	0.002087	59.1744	-170.286	15.6312	-0.102863	0.911480	-0.221550	-0.222915	-0.128959	59.1744	-0.219916	-276.902	0.000466	NaN
650	1.000000	0.922878	7.37141e+06	-44589.1	1005.82	-29775.3	0.000000	0.000000	6.923125	-0.014606	NaN	0.000000	0.001563	0.001752	28.0838	0.074553	0.001930	38.6194	171.279	-164.148	0.040971	0.921542	-0.211517	-0.212853	-0.014606	38.6194	-0.211233	-200.805	7.273662E-5	NaN
650	1.000000	0.932839	7.37141e+06	-44589.1	1005.82	-29775.3	0.000000	0.000000	6.933085	-0.032153	NaN	0.000000	0.001603	0.001727	28.0838	0.112768	0.002008	56.1467	61.4222	15.2752	-0.002615	0.931503	-0.201556	-0.202892	-0.032153	56.1467	-0.201127	-137.467	0.000234	NaN
650	1.000000	0.942869	7.37141e+06	-44589.1	1005.82	-29775.3	0.000000	0.000000	6.943117	0.005986	NaN	0.000000	0.001603	0.001741	28.0851	0.101826	0.002000	50.9134	-54.9897	-169.232	0.018904	0.941615	-0.191526	-0.192780	0.005986	50.9134	-0.191614	-95.7081	-6.253935E-5	NaN
650	1.000000	0.952842	7.37141e+06	-44589.1	1005.82	-29775.3	0.000000	0.000000	6.953088	-0.039630	NaN	0.000000	0.001560	0.001764	28.0849	0.074579	0.001965	37.955	121.972	14.148	-0.089119	0.951516	-0.181553	-0.182879	-0.039630	37.955	-0.180770	-62.8855	0.000630	NaN
650	1.000000	0.962899	7.37141e+06	-44589.1	1005.82	-29775.3	0.000000	0.000000	6.963142	-0.102657	NaN	0.000000	0.001565	0.001758	28.085	0.039460	0.002028	19.4586	23.3274	-165.789	-0.020144	0.961570	-0.171496	-0.172824	-0.102657	19.4586	-0.167539	-37.2195	0.002758	NaN
650	1.000000	0.972880	7.37141e+06	-44589.1	1005.82	-29775.3	0.000000	0.000000	6.973127	-0.016811	NaN	0.000000	0.001553	0.001770	28.0854	0.044558	0.002111	21.1041	-69.3303	12.3591	0.050483	0.971518	-0.161514	-0.162877	-0.016811	21.1041	-0.160917	-28.4618	0.000591	NaN
650	1.000000	0.982865	7.37141e+06	-44589.1	1005.82	-29775.3	0.000000	0.000000	6.983113	0.015255	NaN	0.000000	0.001672	0.001766	28.0849	0.071949	0.001983	36.2787	82.6846	-164.753	-0.013083	0.981560	-0.151530	-0.152835	0.015255	36.2787	-0.151845	-19.5693	-0.000780	NaN
650	1.000000	0.992877	7.37141e+06	-44589.1	1005.82	-29775.3	0.000000	0.000000	6.993125	0.011205	NaN	0.000000	0.001601	0.001752	28.0853	0.088835	0.002094	42.4221	144.953	16.0976	0.028302	0.991527	-0.141518	-0.142868	0.011205	42.4221	-0.141716	-12.7382	-0.000880	NaN
650	1.000000	1.002873	7.37141e+06	-44589.1	1005.82	-29775.3	0.000000	0.000000	7.003120	-0.012560	NaN	0.000000	0.001599	0.001737	28.0851	0.025931	0.001935	13.4042	75.7334	-163.865	-0.073206	1.001566	-0.131522	-0.132829	-0.012560	13.4042	-0.130819	-7.905091	0.001589	NaN
650	1.000000	1.012886	7.37141e+06	-44589.1	1005.82	-29775.3	0.000000	0.000000	7.013136	0.033990	NaN	0.000000	0.001615	0.001740	28.0855	0.076755	0.002019	38.0152	-167.652	13.311	0.042405	1.011545	-0.121508	-0.122850	0.033990	38.0152	-0.122179	-5.344005	-0.006360	NaN
650	1.000000	1.022869	7.37141e+06	-44589.1	1005.82	-29775.3	0.000000	0.000000	7.023119	0.054247	NaN	0.000000	0.001598	0.001730	28.085	0.039532	0.001937	20.4051	82.1652	-164.776	0.051487	1.021579	-0.111526	-0.112816	0.054247	20.4051	-0.113519	-3.560286	-0.015237	NaN
650	1.000000	1.032928	7.37141e+06	-44589.1	1005.82	-29775.3	0.000000	0.000000	7.033175	-0.007034	NaN	0.000000	0.001569	0.001763	28.0853	0.009353	0.002022	4.624678	175.333	13.4591	0.006290	1.031531	-0.101467	-0.102864	-0.007034	4.624678	-0.100326	-1.857812	0.003786	NaN
650	1.000000	1.042907	7.37141e+06	-44589.1	1005.82	-29775.3	0.000000	0.000000	7.043154	-0.025181	NaN	0.000000	0.001589	0.001719	28.085	0.058440	0.001958	29.8465	55.4599	-163.423	0.024503	1.041599	-0.091488	-0.092796	-0.025181	29.8465	-0.090855	-1.131947	0.022246	NaN
650	1.000000	1.052861	7.37141e+06	-44589.1	1005.82	-29775.3	0.000000	0.000000	7.053107	-0.056244	NaN	0.000000	0.001603	0.001718	28.0853	0.116598	0.002086	55.8942	150.149	13.0577	-0.058014	1.051559	-0.081534	-0.082836	-0.056244	55.8942	-0.080779	-0.647312	0.086888	NaN
650	1.000000	1.062951	7.37141e+06	-44589.1	1005.82	-29775.3	0.000000	0.000000	7.063199	-0.004338	NaN	0.000000	0.001600	0.001727	28.0848	0.093224	0.001933	48.218	-2.683355	-161.399	0.001044	1.061624	-0.071444	-0.072771	-0.004338	48.218	-0.071376	-0.371179	0.011687	NaN
650	1.000000	1.072952	7.37141e+06	-44589.1	1005.82	-29775.3	0.000000	0.000000	7.073199	-0.009830	NaN	0.000000	0.001596	0.001721	28.085	0.112753	0.002103	53.6278	128.653	12.8472	-0.011422	1.071541	-0.061443	-0.062854	-0.009830	53.6278	-0.061306	-0.196242	0.050092	NaN
650	1.000000	1.082946	7.37141e+06	-44589.1	1005.82	-29775.3	0.000000	0.000000	7.083195	0.030145	NaN	0.000000	0.001610	0.001714	28.0837	0.116366	0.002047	56.8501	-44.4399	-168.837	0.123189	1.081681	-0.051448	-0.052713	0.030145	56.8501	-0.051846	-0.103720	-0.290641	NaN
650	1.000000	1.092910	7.37141e+06	-44589.1	1005.82	-29775.3	0.000000	0.000000	7.093156	-0.041038	NaN	0.000000	0.001590	0.001741	28.0838	0.078149	0.002030	38.4976	166.229	13.9064	0.001097	1.091574	-0.041485	-0.042821	-0.041038	38.4976	-0.040685	-0.047444	0.864986	NaN
650	1.000000	1.102920	7.37141e+06	-44589.1	1005.82	-29775.3	0.000000	0.000000	7.103167	-0.018880	NaN	0.000000	0.001600	0.001764	28.0838	0.055578	0.002085	26.6565	65.5339	-165.425	-0.012672	1.101581	-0.031475	-0.032814	-0.018880	26.6565	-0.030944	-0.024458	0.771925	NaN
650	1.000000	1.112958	7.37141e+06	-44589.1	1005.82	-29775.3	0.000000	0.000000	7.113205	-0.033301	NaN	0.000000	0.001561	0.001749	28.0837	0.045422	0.002051	22.144	19.5636	12.3721	0.031478	1.111620	-0.021436	-0.022774	-0.033301	22.144	-0.020308	-0.012790	2.603674	NaN
650	1.000000	1.122944	7.37141e+06	-44589.1	1005.82	-29775.3	0.000000	0.000000	7.123191	-0.015803	NaN	0.000000	0.001613	0.001712	28.0837	0.042036	0.001989	21.139	-132.55	-164.541	-0.053613	1.121578	-0.011451	-0.012817	-0.015803	21.139	-0.010890	-0.006895	2.291918	NaN
650	1.000000	1.132964	7.37141e+06	-44589.1	1005.82	-29775.3	0.000000	0.000000	7.133217	0.132679	NaN	0.000000	0.001540	0.001727	28.0837	0.305969	0.001949	156.997	21.65	19.7227	-0.073402	1.131604	-0.001431	-0.002791	0.132679	156.997	-0.002065	-0.001484	-89.3984	NaN
650	2.000000	1.141548	7.37141e+06	-44589.1	1005.82	-29775.3	0.000000	0.000000	7.142216	10.2293	NaN	0.000000	0.001602	0.001749	28.0837	8.730246	0.001593	5479.21	12.2161	-173.92	11.2516	1.141138	0.007153	0.006743	10.2293	5479.21	0.005753	0.004831	2117.36	72022.3
650	2.000000	1.144051	7.37141e+06	-44589.1	1005.82	-29775.3	0.000000	0.000000	7.144884	14.233	NaN	0.000000	0.001560	0.001720	28.0838	11.3639	0.001489	7631.3	6.974276	4.000683	13.6855	1.143602	0.009656	0.009208	14.233	7631.3	0.008258	0.007309	1947.42	81555.4
650	2.000000	1.146499	7.37141e+06	-44589.1	1005.82	-29775.3	0.000000	0.000000	7.147433	16.6944	NaN	0.000000	0.001636	0.001753	28.0839	14.2907	0.001869	7647.3	6.004285	-173.612	16.6147	1.146217	0.012104	0.011822	16.6944	7647.3	0.010466	0.009704	1720.27	70924.2
650	2.000000	1.149031	7.37141e+06	-44589.1	1005.82	-29775.3	0.000000	0.000000	7.150185	22.0473	NaN	0.000000	0.001683	0.001752	28.084	16.839	0.001834	9179.45	9.603691	0.846589	22.646	1.148673	0.014636	0.014279	22.0473	9179.45	0.012835	0.012505	1763.03	74996.7
650	2.000000	1.151495	7.37141e+06	-44589.1	1005.82	-29775.3	0.000000	0.000000	7.152884	27.7638	NaN	0.000000	0.001625	0.001739	28.0841	18.9538	0.001718	11031	6.601996	-176.76	28.1378	1.151175	0.017100	0.016780	27.7638	11031	0.015212	0.015570	1783.2	80769.8
650	2.000000	1.153989	7.37141e+06	-44589.1	1005.82	-29775.3	0.000000	0.000000	7.155535	31.5855	NaN	0.000000	0.001590	0.001718	28.0839	21.8859	0.001848	11845.1	5.710156	3.463112	32.0073	1.153605	0.019594	0.019210	31.5855	11845.1	0.017594	0.018902	1671.05	78715.8
650	2.000000	1.156480	7.37141e+06	-44589.1	1005.82	-29775.3	0.000000	0.000000	7.158245	36.8981	NaN	0.000000	0.001614	0.001712	28.0839	24.9132	0.001821	13681.8	6.464223	-179.441	36.1363	1.156181	0.022086	0.021786	36.8981	13681.8	0.020063	0.022641	1629.69	83074.1
650	2.000000	1.158966	7.37141e+06	-44589.1	1005.82	-29775.3	0.000000	0.000000	7.161175	47.7295	NaN	0.000000	0.001597	0.001717	28.0839	25.8797	0.001722	15031.6	1.126410	5.650427	45.8069	1.158583	0.024571	0.024189	47.7295	15031.6	0.022189	0.026100	1828.71	85007.8
650	2.000000	1.161432	7.37141e+06	-44589.1	1005.82	-29775.3	0.000000	0.000000	7.163897	53.9358	NaN	0.000000	0.001622	0.001742	28.0852	29.2569	0.001707	17142.4	5.488834	179.462	52.8799	1.161130	0.027038	0.026735	53.9358	17142.4	0.024678	0.030432	1772.32	89779.6
650	2.000000	1.163958	7.37141e+06	-44589.1	1005.82	-29775.3	0.000000	0.000000	7.166794	62.9829	NaN	0.000000	0.001649	0.001736	28.0855	31.3981	0.001817	17279.9	9.395152	-3.274169	62.7258	1.163521	0.029563	0.029126	62.9829	17279.9	0.026829	0.034428	1829.42	85086.6
650	2.000000	1.166420	7.37141e+06	-44589.1	1005.82	-29775.3	0.000000	0.000000	7.169359	65.4626	NaN	0.000000	0.001598	0.001755	28.0852	33.0172	0.001665	19834.4	0.126406	-176.927	63.693	1.166103	0.032026	0.031708	65.4626	19834.4	0.029550	0.039817	1644.1	90815.5
650	2.000000	1.168955	7.37141e+06	-44589.1	1005.82	-29775.3	0.000000	0.000000	7.172307	75.5332	NaN	0.000000	0.001605	0.001741	28.0852	35.2094	0.001642	21445.2	2.523399	0.427211	75.0525	1.168592	0.034560	0.034197	75.5332	21445.2	0.031918	0.044814	1685.49	92554.7
650	2.000000	1.171443	7.37141e+06	-44589.1	1005.82	-29775.3	0.000000	0.000000	7.175018	80.942	NaN	0.000000	0.001662	0.001738	28.0851	37.6372	0.001710	22015.5	6.127083	176.803	82.5783	1.171163	0.037048	0.036768	80.942	22015.5	0.034290	0.050107	1615.4	89857.6
650	2.000000	1.173871	7.37141e+06	-44589.1	1005.82	-29775.3	0.000000	0.000000	7.177948	93.151	NaN	0.000000	0.001620	0.001703	28.0851	40.4984	0.001847	21932.5	6.052154	-3.520676	89.6055	1.173568	0.039477	0.039173	93.151	21932.5	0.036291	0.054795	1699.99	85603.5
650	2.000000	1.176436	7.37141e+06	-44589.1	1005.82	-29775.3	0.000000	0.000000	7.180866	101.748	NaN	0.000000	0.001573	0.001761	28.0852	43.3885	0.001977	21945.7	7.406660	177.325	102.181	1.176053	0.042042	0.041658	101.748	21945.7	0.038564	0.060371	1685.38	81603.6
650	2.000000	1.178898	7.37141e+06	-44589.1	1005.82	-29775.3	0.000000	0.000000	7.183719	111.267	NaN	0.000000	0.001617	0.001724	28.0853	43.6836	0.001705	25619.8	2.647109	0.202092	109.124	1.178519	0.044503	0.044124	111.267	25619.8	0.041246	0.067288	1653.59	90236.2
650	2.000000	1.181434	7.37141e+06	-44589.1	1005.82	-29775.3	0.000000	0.000000	7.186716	122.469	NaN	0.000000	0.001599	0.001692	28.0856	46.1431	0.001879	24563.6	6.770342	176.273	122.859	1.181086	0.047039	0.046691	122.469	24563.6	0.043300	0.072834	1681.5	83157
650	2.000000	1.183888	7.37141e+06	-44589.1	1005.82	-29775.3	0.000000	0.000000	7.189561	131.97	NaN	0.000000	0.001580	0.001711	28.0853	49.1055	0.001771	27733.9	1.922937	-1.030937	128.446	1.183546	0.049494	0.049152	131.97	27733.9	0.045925	0.080234	1644.81	89454.9
650	2.000000	1.186399	7.37141e+06	-44589.1	1005.82	-29775.3	0.000000	0.000000	7.192574	144.188	NaN	0.000000	0.001522	0.001673	28.0856	52.006	0.001824	28505.5	2.527831	178.007	142.161	1.186111	0.052005	0.051716	144.188	28505.5	0.048211	0.086963	1658.04	88315
650	2.000000	1.188919	7.37141e+06	-44589.1	1005.82	-29775.3	0.000000	0.000000	7.195695	158.822	NaN	0.000000	0.001519	0.001698	28.0854	54.7295	0.001840	29740.9	7.283063	-5.779365	157.295	1.188565	0.054524	0.054171	158.822	29740.9	0.050519	0.094023	1689.18	88615.7
650	2.000000	1.191404	7.37141e+06	-44589.1	1005.82	-29775.3	0.000000	0.000000	7.198748	172.629	NaN	0.000000	0.001544	0.001698	28.0857	55.9227	0.001796	31144.4	4.708650	176.08	172.222	1.191107	0.057009	0.056712	172.629	31144.4	0.052852	0.101433	1701.91	89343.8
650	2.000000	1.193872	7.37141e+06	-44589.1	1005.82	-29775.3	0.000000	0.000000	7.201552	180.812	NaN	0.000000	0.001546	0.001689	28.084	58.554	0.001722	33997.8	3.770146	-4.538855	179.184	1.193558	0.059477	0.059163	180.812	33997.8	0.055488	0.110128	1641.84	93599.9
650	2.000000	1.196452	7.37141e+06	-44589.1	1005.82	-29775.3	0.000000	0.000000	7.204580	191.701	NaN	0.000000	0.001569	0.001730	28.0843	62.5013	0.001780	35104.4	5.630641	174.175	196.031	1.196129	0.062057	0.061734	191.701	35104.4	0.057962	0.118600	1616.37	93130.5
650	2.000000	1.198888	7.37141e+06	-44589.1	1005.82	-29775.3	0.000000	0.000000	7.207904	213.308	NaN	0.000000	0.001553	0.001714	28.0843	64.0722	0.001853	34573.6	6.452795	-5.865338	209.017	1.198350	0.064493	0.063956	213.308	34573.6	0.059866	0.125328	1701.99	89226.4
650	2.000000	1.201292	7.37141e+06	-44589.1	1005.82	-29775.3	0.000000	0.000000	7.210880	227.219	NaN	0.000000	0.001519	0.001724	28.0842	65.7898	0.001763	37308	2.129589	176.637	222.32	1.201107	0.066897	0.066712	227.219	37308	0.062330	0.134295	1691.94	93013.6
650	2.000000	1.203894	7.37141e+06	-44589.1	1005.82	-29775.3	0.000000	0.000000	7.213855	236.296	NaN	0.000000	0.001546	0.001720	28.0839	69.6007	0.001891	36810.4	1.616498	-2.559740	235.245	1.203573	0.069499	0.069179	236.296	36810.4	0.064685	0.143142	1650.78	88891.7
650	2.000000	1.206341	7.37141e+06	-44589.1	1005.82	-29775.3	0.000000	0.000000	7.216988	252.981	NaN	0.000000	0.001555	0.001758	28.0841	72.2272	0.001764	40943.4	8.033891	169.771	249.867	1.206078	0.071947	0.071683	252.981	40943.4	0.067313	0.153328	1649.94	95531.6
650	2.000000	1.208893	7.37141e+06	-44589.1	1005.82	-29775.3	0.000000	0.000000	7.220291	271.279	NaN	0.000000	0.001569	0.001731	28.0842	73.0547	0.001761	41484.8	6.558534	-7.466991	269.021	1.208488	0.074498	0.074093	271.279	41484.8	0.069594	0.162438	1670.04	94041.3
650	2.000000	1.211332	7.37141e+06	-44589.1	1005.82	-29775.3	0.000000	0.000000	7.223157	281.645	NaN	0.000000	0.001564	0.001784	28.0843	76.3257	0.001815	42061.1	7.922891	170.109	278.342	1.211058	0.076937	0.076664	281.645	42061.1	0.071915	0.171965	1637.81	92668.9
650	2.000000	1.213954	7.37141e+06	-44589.1	1005.82	-29775.3	0.000000	0.000000	7.226260	293.338	NaN	0.000000	0.001539	0.001711	28.084	79.2553	0.001879	42170.3	7.746058	-9.031037	297.575	1.213456	0.079560	0.079061	293.338	42170.3	0.074343	0.182200	1609.98	90262
650	2.000000	1.216500	7.37141e+06	-44589.1	1005.82	-29775.3	0.000000	0.000000	7.229521	310.744	NaN	0.000000	0.001603	0.001792	28.0843	80.96	0.001708	47405.3	4.365785	172.851	317.626	1.215974	0.082105	0.081579	310.744	47405.3	0.077189	0.194556	1597.19	98192.3
650	2.000000	1.218785	7.37141e+06	-44589.1	1005.82	-29775.3	0.000000	0.000000	7.232828	335.617	NaN	0.000000	0.001587	0.001776	28.0844	83.4518	0.001817	45928.2	8.215135	-10.8495	327.796	1.218426	0.084390	0.084031	335.617	45928.2	0.078909	0.202206	1659.78	93315.8
650	2.000000	1.221261	7.37141e+06	-44589.1	1005.82	-29775.3	0.000000	0.000000	7.236101	354.978	NaN	0.000000	0.001584	0.001753	28.0843	84.5564	0.001804	46871.1	6.186679	170.989	350.591	1.221059	0.086867	0.086664	354.978	46871.1	0.081187	0.212546	1670.12	92886.2
650	2.000000	1.223766	7.37141e+06	-44589.1	1005.82	-29775.3	0.000000	0.000000	7.239353	373.17	NaN	0.000000	0.001599	0.001775	28.0842	87.821	0.001805	48650.4	2.813320	-6.047789	367.008	1.223540	0.089371	0.089145	373.17	48650.4	0.083619	0.223856	1667.01	93945.5
650	2.000000	1.226398	7.37141e+06	-44589.1	1005.82	-29775.3	0.000000	0.000000	7.242548	386.876	NaN	0.000000	0.001633	0.001757	28.0845	91.8263	0.001840	49901.6	7.109614	170.518	389.617	1.226016	0.092003	0.091621	386.876	49901.6	0.086189	0.236105	1638.57	93828.5
650	2.000000	1.228823	7.37141e+06	-44589.1	1005.82	-29775.3	0.000000	0.000000	7.245835	407.843	NaN	0.000000	0.001622	0.001754	28.0855	93.0132	0.001873	49670.3	6.072718	-8.234257	403.188	1.228475	0.094428	0.094081	407.843	49670.3	0.088270	0.246248	1656.23	91450
650	2.000000	1.231363	7.37141e+06	-44589.1	1005.82	-29775.3	0.000000	0.000000	7.249063	424.587	NaN	0.000000	0.001571	0.001737	28.0855	95.2428	0.001714	55565.4	3.755851	172.962	426.38	1.231023	0.096968	0.096629	424.587	55565.4	0.091237	0.261049	1626.46	99361.2
650	2.000000	1.233807	7.37141e+06	-44589.1	1005.82	-29775.3	0.000000	0.000000	7.252328	444.572	NaN	0.000000	0.001583	0.001758	28.0853	97.7092	0.001833	53317.8	3.913891	-6.956647	441.036	1.233483	0.099412	0.099088	444.572	53317.8	0.093158	0.270850	1641.39	93601.1
650	2.000000	1.236318	7.37142e+06	-44589.1	1005.82	-29775.3	0.000000	0.000000	7.255902	470.416	NaN	0.000000	0.001626	0.001746	28.0856	99.4005	0.001623	61255.6	4.075534	172.191	468.21	1.235919	0.101923	0.101524	470.416	61255.6	0.096164	0.286520	1641.83	104554
650	2.000000	1.238826	7.37142e+06	-44589.1	1005.82	-29775.3	0.000000	0.000000	7.259090	486.971	NaN	0.000000	0.001603	0.001743	28.0852	101.804	0.001781	57150.4	6.395139	-9.599640	482.178	1.238460	0.104431	0.104065	486.971	57150.4	0.098040	0.296512	1642.33	95889.6
650	2.000000	1.239396	7.37142e+06	-44589.1	1005.82	-29775.3	0.000000	0.000000	7.259685	487.553	NaN	0.000000	0.001608	0.001783	28.0852	103.425	0.001827	56612.2	4.701663	171.546	489.923	1.239021	0.105002	0.104627	487.553	56612.2	0.098543	0.299215	1629.44	94556.7