File: remote_trans/data/nanoindenter/0828-1/data/Data_2025-08-06,11h17m57s/2025-07-22_16-23-58_1_576.txt
2025-07-22, 16:23:58, 1
Index	Phase	Displacement	Time	Pos X	Pos Y	Pos Z	Rot A	Rot B	Piezo Z	Force A	Force B	Gripper	Voltage A	Voltage B	Temperature	Amplitude force	Amplitude pos	Stiffness	Phase shift	Phase excitation	Force A raw	Displacement raw	HMax	HMax raw	Real Force	Real Stiffness	Contact Depth	Area	Hardness	Reduced Mod.
[#]	[#]	[um]	[s]	[um]	[um]	[um]	[m°]	[m°]	[um]	[uN]	[uN]	[V]	[V]	[V]	[°C]	[uN]	[um]	[N/m]	[°]	[°]	[uN]	[um]	[um]	[um]	[uN]	[N/m]	[um]	[um^2]	[MPa]	[MPa]
576	1.000000	0.002055	7.37068e+06	-48289.1	1005.82	-29762.9	0.000000	0.000000	6.002829	0.049136	NaN	0.000000	0.001558	0.001633	28.0816	0.031835	0.000912	34.8895	16.2945	-162.347	-0.012810	0.000797	-1.123980	-1.125238	0.049136	34.8895	-1.125037	-1.086536E+15	-4.522224E-17	NaN
576	1.000000	0.012116	7.37068e+06	-48289.1	1005.82	-29762.9	0.000000	0.000000	6.012888	0.013798	NaN	0.000000	0.001591	0.001648	28.0815	0.008991	0.001229	7.314539	-143.042	17.1334	-0.017951	0.010678	-1.113920	-1.115358	0.013798	7.314539	-1.115335	-8.051429E+14	-1.713691E-17	NaN
576	1.000000	0.021982	7.37068e+06	-48289.1	1005.82	-29762.9	0.000000	0.000000	6.022758	0.093831	NaN	0.000000	0.001539	0.001655	28.0814	0.106332	0.001649	64.4769	143.966	-165.187	0.082342	0.020637	-1.104053	-1.105398	0.093831	64.4769	-1.105145	-5.876565E+14	-1.596693E-16	NaN
576	1.000000	0.031992	7.37068e+06	-48289.1	1005.82	-29762.9	0.000000	0.000000	6.032765	0.022783	NaN	0.000000	0.001543	0.001630	28.0816	0.043248	0.001788	24.183	-64.4093	12.6645	-0.013079	0.030675	-1.094044	-1.095361	0.022783	24.183	-1.094750	-4.261767E+14	-5.345894E-17	NaN
576	1.000000	0.041981	7.37068e+06	-48289.1	1005.82	-29762.9	0.000000	0.000000	6.042754	0.030124	NaN	0.000000	0.001519	0.001640	28.0815	0.042525	0.001977	21.514	165.665	-163.876	0.013779	0.040659	-1.084055	-1.085377	0.030124	21.514	-1.085105	-3.162848E+14	-9.524321E-17	NaN
576	1.000000	0.051967	7.37068e+06	-48289.1	1005.82	-29762.9	0.000000	0.000000	6.052739	0.018335	NaN	0.000000	0.001544	0.001679	28.0826	0.086152	0.001930	44.6408	-23.8432	17.0604	-0.014607	0.050658	-1.074069	-1.075377	0.018335	44.6408	-1.074377	-2.269804E+14	-8.077715E-17	NaN
576	1.000000	0.061962	7.37068e+06	-48289.1	1005.82	-29762.9	0.000000	0.000000	6.062733	-0.015802	NaN	0.000000	0.001567	0.001605	28.0827	0.056720	0.002016	28.1401	76.294	-164.274	0.050965	0.060695	-1.064074	-1.065341	-0.015802	28.1401	-1.063653	-1.628948E+14	9.700878E-17	NaN
576	1.000000	0.071999	7.37068e+06	-48289.1	1005.82	-29762.9	0.000000	0.000000	6.072771	-0.003092	NaN	0.000000	0.001538	0.001627	28.0824	0.040884	0.002157	18.9506	-159.407	14.9723	-0.055250	0.070644	-1.054037	-1.055392	-0.003092	18.9506	-1.053914	-1.205118E+14	2.565385E-17	NaN
576	1.000000	0.082001	7.37068e+06	-48289.1	1005.82	-29762.9	0.000000	0.000000	6.082774	0.026984	NaN	0.000000	0.001561	0.001619	28.0824	0.026785	0.002007	13.3442	-143.885	-164.996	-0.000126	0.080675	-1.044034	-1.045360	0.026984	13.3442	-1.045551	-9.302530E+13	-2.900719E-16	NaN
576	1.000000	0.092022	7.37068e+06	-48289.1	1005.82	-29762.9	0.000000	0.000000	6.092793	-0.030188	NaN	0.000000	0.001564	0.001625	28.0825	0.114372	0.001900	60.1806	18.9104	12.4853	-0.066349	0.090642	-1.034013	-1.035393	-0.030188	60.1806	-1.033637	-6.432777E+13	4.692805E-16	NaN
576	1.000000	0.101984	7.37068e+06	-48289.1	1005.82	-29762.9	0.000000	0.000000	6.102756	0.016693	NaN	0.000000	0.001551	0.001686	28.0829	0.012933	0.002112	6.122542	92.4147	-163.787	-0.063127	0.100661	-1.024052	-1.025375	0.016693	6.122542	-1.026097	-5.093001E+13	-3.277545E-16	NaN
576	1.000000	0.112018	7.37068e+06	-48289.1	1005.82	-29762.9	0.000000	0.000000	6.112790	0.017883	NaN	0.000000	0.001575	0.001658	28.0824	0.087610	0.001947	44.9909	69.468	14.2454	0.000194	0.110690	-1.014018	-1.015346	0.017883	44.9909	-1.014316	-3.535653E+13	-5.057929E-16	NaN
576	1.000000	0.121982	7.37068e+06	-48289.1	1005.82	-29762.9	0.000000	0.000000	6.122753	-0.011806	NaN	0.000000	0.001587	0.001632	28.0826	0.082646	0.001996	41.4136	66.1466	-166.347	-0.020690	0.120684	-1.004054	-1.005352	-0.011806	41.4136	-1.003840	-2.555431E+13	4.619783E-16	NaN
576	1.000000	0.132026	7.37068e+06	-48289.1	1005.82	-29762.9	0.000000	0.000000	6.132801	0.069869	NaN	0.000000	0.001543	0.001616	28.0824	0.048361	0.001971	24.5313	-46.0902	12.7496	-0.024822	0.130631	-0.994009	-0.995404	0.069869	24.5313	-0.996145	-2.013118E+13	-3.470670E-15	NaN
576	1.000000	0.142028	7.37068e+06	-48289.1	1005.82	-29762.9	0.000000	0.000000	6.142797	-0.083328	NaN	0.000000	0.001575	0.001631	28.0829	0.065954	0.001848	35.6839	20.173	-169.096	-0.043002	0.140720	-0.984007	-0.985315	-0.083328	35.6839	-0.982256	-1.308581E+13	6.367836E-15	NaN
576	1.000000	0.152017	7.37068e+06	-48289.1	1005.82	-29762.9	0.000000	0.000000	6.152789	0.019060	NaN	0.000000	0.001518	0.001633	28.0824	0.102799	0.002064	49.8077	73.3157	13.2813	0.093893	0.150768	-0.974019	-0.975268	0.019060	49.8077	-0.974306	-1.022562E+13	-1.863942E-15	NaN
576	1.000000	0.162048	7.37068e+06	-48289.1	1005.82	-29762.9	0.000000	0.000000	6.162818	-0.041210	NaN	0.000000	0.001557	0.001612	28.0844	0.011500	0.001926	5.971022	81.1756	-164.934	0.034734	0.160775	-0.963987	-0.965261	-0.041210	5.971022	-0.958811	-6.321795E+12	6.518779E-15	NaN
576	1.000000	0.172038	7.37068e+06	-48289.1	1005.82	-29762.9	0.000000	0.000000	6.172810	0.005266	NaN	0.000000	0.001598	0.001623	28.0862	0.087255	0.001963	44.4398	146.681	14.7987	-0.019768	0.170668	-0.953998	-0.955368	0.005266	44.4398	-0.954087	-5.459295E+12	-9.645730E-16	NaN
576	1.000000	0.182044	7.37068e+06	-48289.1	1005.82	-29762.9	0.000000	0.000000	6.182816	-0.005211	NaN	0.000000	0.001573	0.001646	28.0831	0.034208	0.002065	16.5628	161.875	-162.988	0.054206	0.180761	-0.943992	-0.945274	-0.005211	16.5628	-0.943756	-3.960992E+12	1.315645E-15	NaN
576	1.000000	0.192053	7.37068e+06	-48289.1	1005.82	-29762.9	0.000000	0.000000	6.192823	-0.043433	NaN	0.000000	0.001569	0.001642	28.0813	0.068374	0.002006	34.0851	2.261633	12.1451	-0.002739	0.190664	-0.933982	-0.935371	-0.043433	34.0851	-0.933027	-2.838206E+12	1.530284E-14	NaN
576	1.000000	0.202053	7.37068e+06	-48289.1	1005.82	-29762.9	0.000000	0.000000	6.202827	0.058238	NaN	0.000000	0.001577	0.001676	28.0813	0.053094	0.002022	26.2569	75.1862	-165.818	0.076148	0.200730	-0.923983	-0.925306	0.058238	26.2569	-0.925647	-2.256500E+12	-2.580913E-14	NaN
576	1.000000	0.212038	7.37068e+06	-48289.1	1005.82	-29762.9	0.000000	0.000000	6.212811	0.010065	NaN	0.000000	0.001578	0.001636	28.0814	0.060780	0.001991	30.5323	-175.418	14.471	0.009350	0.210625	-0.913997	-0.915411	0.010065	30.5323	-0.914245	-1.583034E+12	-6.357877E-15	NaN
576	1.000000	0.222029	7.37068e+06	-48289.1	1005.82	-29762.9	0.000000	0.000000	6.222799	-0.052907	NaN	0.000000	0.001583	0.001643	28.0815	0.023144	0.001931	11.9887	-156.794	-165.327	-0.016831	0.220714	-0.904006	-0.905322	-0.052907	11.9887	-0.900697	-1.038671E+12	5.093768E-14	NaN
576	1.000000	0.232056	7.37068e+06	-48289.1	1005.82	-29762.9	0.000000	0.000000	6.232828	0.006360	NaN	0.000000	0.001583	0.001628	28.0809	0.013929	0.001973	7.060766	-33.2867	11.9806	-0.024351	0.230672	-0.893980	-0.895364	0.006360	7.060766	-0.894656	-8.606833E+11	-7.389819E-15	NaN
576	1.000000	0.242053	7.37068e+06	-48289.1	1005.82	-29762.9	0.000000	0.000000	6.242825	-0.005958	NaN	0.000000	0.001576	0.001644	28.0813	0.144366	0.001943	74.3175	-123.103	-168.536	-0.082591	0.240769	-0.883983	-0.885267	-0.005958	74.3175	-0.883922	-6.162391E+11	9.668513E-15	NaN
576	1.000000	0.252089	7.37068e+06	-48289.1	1005.82	-29762.9	0.000000	0.000000	6.252858	-0.054293	NaN	0.000000	0.001591	0.001645	28.0813	0.018306	0.002034	8.998482	-138.817	13.4751	0.027569	0.250689	-0.873947	-0.875347	-0.054293	8.998482	-0.869422	-3.923028E+11	1.383947E-13	NaN
576	1.000000	0.262077	7.37068e+06	-48289.1	1005.82	-29762.9	0.000000	0.000000	6.262848	-0.014376	NaN	0.000000	0.001594	0.001679	28.0814	0.036045	0.002098	17.1813	124.213	-167.511	0.026991	0.260784	-0.863959	-0.865251	-0.014376	17.1813	-0.863331	-3.244919E+11	4.430175E-14	NaN
576	1.000000	0.272056	7.37068e+06	-48289.1	1005.82	-29762.9	0.000000	0.000000	6.272826	-0.028097	NaN	0.000000	0.001608	0.001689	28.081	0.027175	0.001998	13.6011	115.302	13.8006	-0.019373	0.270710	-0.853980	-0.855326	-0.028097	13.6011	-0.852431	-2.310201E+11	1.216219E-13	NaN
576	1.000000	0.282042	7.37068e+06	-48289.1	1005.82	-29762.9	0.000000	0.000000	6.282812	-0.032514	NaN	0.000000	0.001586	0.001688	28.0814	0.086103	0.002030	42.4116	-57.2136	-164.537	-0.002995	0.280787	-0.843994	-0.845249	-0.032514	42.4116	-0.843419	-1.744253E+11	1.864044E-13	NaN
576	1.000000	0.292040	7.37068e+06	-48289.1	1005.82	-29762.9	0.000000	0.000000	6.292813	0.017910	NaN	0.000000	0.001561	0.001711	28.0815	0.039289	0.002037	19.2923	-97.4724	17.5608	-0.024277	0.290695	-0.833995	-0.835341	0.017910	19.2923	-0.834692	-1.328520E+11	-1.348081E-13	NaN
576	1.000000	0.302076	7.37068e+06	-48289.1	1005.82	-29762.9	0.000000	0.000000	6.302848	-0.016949	NaN	0.000000	0.001601	0.001708	28.0814	0.138842	0.002074	66.9547	-87.0265	-166.792	0.043181	0.300756	-0.823959	-0.825280	-0.016949	66.9547	-0.823769	-9.447574E+10	1.794025E-13	NaN
576	1.000000	0.312115	7.37068e+06	-48289.1	1005.82	-29762.9	0.000000	0.000000	6.312886	-0.013420	NaN	0.000000	0.001585	0.001737	28.0813	0.086116	0.001968	43.7534	97.8741	15.5654	-0.010679	0.310710	-0.813921	-0.815325	-0.013420	43.7534	-0.813691	-6.896666E+10	1.945843E-13	NaN
576	1.000000	0.322088	7.37068e+06	-48289.1	1005.82	-29762.9	0.000000	0.000000	6.322859	-0.034176	NaN	0.000000	0.001583	0.001697	28.0827	0.057881	0.002013	28.7549	61.4509	-165.241	-0.026343	0.320797	-0.803947	-0.805239	-0.034176	28.7549	-0.803056	-4.947013E+10	6.908409E-13	NaN
576	1.000000	0.332092	7.37068e+06	-48289.1	1005.82	-29762.9	0.000000	0.000000	6.332865	0.017857	NaN	0.000000	0.001623	0.001703	28.0829	0.025867	0.001895	13.6515	-67.2601	13.4365	-0.015197	0.330738	-0.793943	-0.795298	0.017857	13.6515	-0.794924	-3.836675E+10	-4.654347E-13	NaN
576	1.000000	0.342105	7.37068e+06	-48289.1	1005.82	-29762.9	0.000000	0.000000	6.342878	0.039147	NaN	0.000000	0.001637	0.001702	28.0825	0.030228	0.002020	14.9616	9.450878	-162.678	0.051857	0.340807	-0.783931	-0.785228	0.039147	14.9616	-0.785893	-2.892699E+10	-1.353297E-12	NaN
576	1.000000	0.352071	7.37068e+06	-48289.1	1005.82	-29762.9	0.000000	0.000000	6.352846	0.073479	NaN	0.000000	0.001601	0.001695	28.0826	0.044426	0.001911	23.2466	109.043	14.1673	0.077520	0.350822	-0.773964	-0.775214	0.073479	23.2466	-0.776335	-2.144970E+10	-3.425623E-12	NaN
576	1.000000	0.362095	7.37068e+06	-48289.1	1005.82	-29762.9	0.000000	0.000000	6.362867	-0.015684	NaN	0.000000	0.001572	0.001729	28.0826	0.075968	0.002032	37.3767	17.3178	-167.381	-0.032451	0.360765	-0.763940	-0.765271	-0.015684	37.3767	-0.763626	-1.440859E+10	1.088535E-12	NaN
576	1.000000	0.372107	7.37068e+06	-48289.1	1005.82	-29762.9	0.000000	0.000000	6.372879	-0.006364	NaN	0.000000	0.001554	0.001705	28.0826	0.122637	0.001996	61.4543	-92.1885	12.7905	0.019363	0.370807	-0.753929	-0.755229	-0.006364	61.4543	-0.753851	-1.060800E+10	5.999229E-13	NaN
576	1.000000	0.382101	7.37068e+06	-48289.1	1005.82	-29762.9	0.000000	0.000000	6.382873	0.015742	NaN	0.000000	0.001560	0.001706	28.0827	0.059938	0.001840	32.5832	97.9724	-165.584	-0.030325	0.380824	-0.743935	-0.745212	0.015742	32.5832	-0.744297	-7.862863E+9	-2.002062E-12	NaN
576	1.000000	0.392135	7.37068e+06	-48289.1	1005.82	-29762.9	0.000000	0.000000	6.392906	0.000185	NaN	0.000000	0.001587	0.001709	28.0826	0.020073	0.002085	9.628315	20.0952	12.403	-0.010752	0.390741	-0.733901	-0.735295	0.000185	9.628315	-0.733915	-5.677618E+9	-3.260508E-14	NaN
576	1.000000	0.402133	7.37068e+06	-48289.1	1005.82	-29762.9	0.000000	0.000000	6.402903	-0.035415	NaN	0.000000	0.001548	0.001678	28.0829	0.028121	0.002071	13.5767	-23.3072	-163.746	-0.092516	0.400780	-0.723903	-0.725256	-0.035415	13.5767	-0.721946	-3.899570E+9	9.081719E-12	NaN
576	1.000000	0.412131	7.37068e+06	-48289.1	1005.82	-29762.9	0.000000	0.000000	6.412902	-0.024018	NaN	0.000000	0.001561	0.001697	28.0828	0.098393	0.002092	47.0298	-60.2576	14.509	0.079673	0.410752	-0.713904	-0.715283	-0.024018	47.0298	-0.713521	-2.992941E+9	8.024805E-12	NaN
576	1.000000	0.422129	7.37068e+06	-48289.1	1005.82	-29762.9	0.000000	0.000000	6.422899	-0.037364	NaN	0.000000	0.001570	0.001738	28.0826	0.051586	0.001984	26.0024	-36.6006	-166.728	-0.089202	0.420849	-0.703907	-0.705186	-0.037364	26.0024	-0.702829	-2.138754E+9	1.746989E-11	NaN
576	1.000000	0.432149	7.37068e+06	-48289.1	1005.82	-29762.9	0.000000	0.000000	6.432921	-0.017440	NaN	0.000000	0.001576	0.001719	28.0826	0.106543	0.001930	55.1921	-174.661	12.8199	-0.048880	0.430748	-0.693886	-0.695287	-0.017440	55.1921	-0.693649	-1.602447E+9	1.088365E-11	NaN
576	1.000000	0.442128	7.37068e+06	-48289.1	1005.82	-29762.9	0.000000	0.000000	6.442899	-0.010640	NaN	0.000000	0.001546	0.001733	28.0829	0.077108	0.002129	36.2175	163.202	-166.285	0.050359	0.440858	-0.683908	-0.685177	-0.010640	36.2175	-0.683688	-1.171204E+9	9.084846E-12	NaN
576	1.000000	0.452185	7.37068e+06	-48289.1	1005.82	-29762.9	0.000000	0.000000	6.452954	-0.060354	NaN	0.000000	0.001578	0.001743	28.0825	0.040614	0.002049	19.8201	-134.383	10.6212	-0.097788	0.450759	-0.673851	-0.675277	-0.060354	19.8201	-0.671567	-7.995284E+8	7.548650E-11	NaN
576	1.000000	0.462139	7.37068e+06	-48289.1	1005.82	-29762.9	0.000000	0.000000	6.462910	-0.024152	NaN	0.000000	0.001516	0.001749	28.0815	0.047774	0.001985	24.0726	3.700644	-160.59	-0.010984	0.460821	-0.663897	-0.665214	-0.024152	24.0726	-0.663144	-6.130972E+8	3.939411E-11	NaN
576	1.000000	0.472168	7.37068e+06	-48289.1	1005.82	-29762.9	0.000000	0.000000	6.472943	0.069040	NaN	0.000000	0.001520	0.001718	28.0814	0.042905	0.001892	22.6819	176.936	14.905	0.068821	0.470767	-0.653867	-0.655269	0.069040	22.6819	-0.656150	-4.917284E+8	-1.404023E-10	NaN
576	1.000000	0.482154	7.37068e+06	-48289.1	1005.82	-29762.9	0.000000	0.000000	6.482920	-0.126301	NaN	0.000000	0.001617	0.001731	28.0817	0.037729	0.002041	18.488	62.2407	-167.306	-0.082041	0.480866	-0.643882	-0.645170	-0.126301	18.488	-0.638758	-2.839583E+8	4.447872E-10	NaN
576	1.000000	0.492150	7.37068e+06	-48289.1	1005.82	-29762.9	0.000000	0.000000	6.492922	0.003925	NaN	0.000000	0.001650	0.001743	28.0813	0.096902	0.002043	47.4242	153.738	11.8121	0.050890	0.490803	-0.633885	-0.635232	0.003925	47.4242	-0.633948	-2.439073E+8	-1.609362E-11	NaN
576	1.000000	0.502182	7.37068e+06	-48289.1	1005.82	-29762.9	0.000000	0.000000	6.502955	0.025880	NaN	0.000000	0.001632	0.001722	28.0816	0.058082	0.002008	28.9218	105.01	-167.212	0.042481	0.500864	-0.623854	-0.625172	0.025880	28.9218	-0.624525	-1.810568E+8	-1.429359E-10	NaN
576	1.000000	0.512152	7.37068e+06	-48289.1	1005.82	-29762.9	0.000000	0.000000	6.512921	-0.081823	NaN	0.000000	0.001618	0.001710	28.0813	0.056952	0.001908	29.8474	-67.0365	10.5847	0.006108	0.510807	-0.613884	-0.615229	-0.081823	29.8474	-0.611828	-1.211315E+8	6.754879E-10	NaN
576	1.000000	0.522146	7.37068e+06	-48289.1	1005.82	-29762.9	0.000000	0.000000	6.522917	-0.031537	NaN	0.000000	0.001650	0.001681	28.0817	0.047678	0.002075	22.9799	151.619	-167.59	-0.048718	0.520903	-0.603889	-0.605133	-0.031537	22.9799	-0.602860	-9.116875E+7	3.459173E-10	NaN
576	1.000000	0.532177	7.37068e+06	-48289.1	1005.82	-29762.9	0.000000	0.000000	6.532947	-0.064772	NaN	0.000000	0.001583	0.001698	28.0813	0.035019	0.001962	17.8469	-10.3503	15.3922	-0.136790	0.530856	-0.593858	-0.595180	-0.064772	17.8469	-0.591136	-6.285386E+7	1.030521E-9	NaN
576	1.000000	0.542187	7.37068e+06	-48289.1	1005.82	-29762.9	0.000000	0.000000	6.542959	-0.011471	NaN	0.000000	0.001640	0.001755	28.0815	0.087403	0.002005	43.5857	70.6653	-167.92	-0.012465	0.540892	-0.583848	-0.585144	-0.011471	43.5857	-0.583651	-4.955715E+7	2.314681E-10	NaN
576	1.000000	0.552171	7.37068e+06	-48289.1	1005.82	-29762.9	0.000000	0.000000	6.552942	-0.025613	NaN	0.000000	0.001674	0.001730	28.082	0.071308	0.002084	34.2111	-157.007	12.5265	-0.051561	0.550813	-0.573864	-0.575223	-0.025613	34.2111	-0.573303	-3.566640E+7	7.181256E-10	NaN
576	1.000000	0.562206	7.37068e+06	-48289.1	1005.82	-29762.9	0.000000	0.000000	6.562978	-0.003813	NaN	0.000000	0.001593	0.001720	28.0816	0.041360	0.001952	21.1853	172.844	-166.528	0.032049	0.560854	-0.563830	-0.565182	-0.003813	21.1853	-0.563695	-2.627100E+7	1.451280E-10	NaN
576	1.000000	0.572222	7.37068e+06	-48289.1	1005.82	-29762.9	0.000000	0.000000	6.572994	0.016846	NaN	0.000000	0.001572	0.001733	28.0816	0.011865	0.002046	5.799098	170.026	17.6626	0.027326	0.570818	-0.553814	-0.555218	0.016846	5.799098	-0.555993	-2.055564E+7	-8.195487E-10	NaN
576	1.000000	0.582189	7.37068e+06	-48289.1	1005.82	-29762.9	0.000000	0.000000	6.582962	0.029434	NaN	0.000000	0.001621	0.001739	28.0814	0.068950	0.002069	33.3234	-170.773	-163.729	0.000761	0.580925	-0.543847	-0.545110	0.029434	33.3234	-0.544509	-1.425207E+7	-2.065228E-9	NaN
576	1.000000	0.592232	7.37068e+06	-48289.1	1005.82	-29762.9	0.000000	0.000000	6.593003	-0.024236	NaN	0.000000	0.001657	0.001741	28.0824	0.061904	0.001866	33.1702	96.6304	13.3614	-0.085368	0.590777	-0.533803	-0.535259	-0.024236	33.1702	-0.533255	-9.94882e+06	2.436035E-9	NaN
576	1.000000	0.602225	7.37068e+06	-48289.1	1005.82	-29762.9	0.000000	0.000000	6.602996	-0.007270	NaN	0.000000	0.001640	0.001735	28.0826	0.004545	0.002039	2.229171	-175.033	-163.896	-0.021483	0.600915	-0.523811	-0.525121	-0.007270	2.229171	-0.521365	-6.80107e+06	1.068961E-9	NaN
576	1.000000	0.612186	7.37068e+06	-48289.1	1005.82	-29762.9	0.000000	0.000000	6.612957	-0.025499	NaN	0.000000	0.001607	0.001775	28.0825	0.108016	0.002032	53.1556	73.5864	12.7131	-0.022465	0.610866	-0.513849	-0.515170	-0.025499	53.1556	-0.513489	-5.28452e+06	4.825250E-9	NaN
576	1.000000	0.622190	7.37068e+06	-48289.1	1005.82	-29762.9	0.000000	0.000000	6.622964	0.046410	NaN	0.000000	0.001661	0.001735	28.0826	0.084002	0.002027	41.442	71.823	-167.97	0.031824	0.620940	-0.503846	-0.505096	0.046410	41.442	-0.504686	-3.98442e+06	-1.164792E-8	NaN
576	1.000000	0.632173	7.37068e+06	-48289.1	1005.82	-29762.9	0.000000	0.000000	6.632944	-0.013791	NaN	0.000000	0.001655	0.001727	28.0825	0.038325	0.002005	19.1136	69.6448	18.0389	-0.007268	0.630875	-0.493863	-0.495160	-0.013791	19.1136	-0.493322	-2.76568e+06	4.986520E-9	NaN
576	1.000000	0.642220	7.37068e+06	-48289.1	1005.82	-29762.9	0.000000	0.000000	6.642995	0.062017	NaN	0.000000	0.001589	0.001683	28.0822	0.097198	0.002018	48.1603	-127.193	-170.233	0.057512	0.640952	-0.483815	-0.485084	0.062017	48.1603	-0.484781	-2.10101e+06	-2.951757E-8	NaN
576	1.000000	0.652240	7.37068e+06	-48289.1	1005.82	-29762.9	0.000000	0.000000	6.653011	-0.008839	NaN	0.000000	0.001631	0.001731	28.0824	0.067383	0.002072	32.5236	-3.814322	13.1261	0.046952	0.650847	-0.473796	-0.475189	-0.008839	32.5236	-0.473592	-1.46478e+06	6.034575E-9	NaN
576	1.000000	0.662229	7.37068e+06	-48289.1	1005.82	-29762.9	0.000000	0.000000	6.662999	-0.046811	NaN	0.000000	0.001629	0.001755	28.0828	0.072185	0.001988	36.3069	-5.746190	-163.843	-0.061065	0.660931	-0.463806	-0.465104	-0.046811	36.3069	-0.462839	-1.03492e+06	4.523132E-8	NaN
576	1.000000	0.672240	7.37068e+06	-48289.1	1005.82	-29762.9	0.000000	0.000000	6.673011	-0.023703	NaN	0.000000	0.001582	0.001710	28.0823	0.097560	0.002055	47.4758	-137.505	9.988896	-0.031099	0.670908	-0.453795	-0.455128	-0.023703	47.4758	-0.453421	-762956	3.106745E-8	NaN
576	1.000000	0.682266	7.37068e+06	-48289.1	1005.82	-29762.9	0.000000	0.000000	6.683039	0.022814	NaN	0.000000	0.001586	0.001727	28.0822	0.018481	0.002079	8.889549	68.6789	-168.187	0.021914	0.680953	-0.443770	-0.445082	0.022814	8.889549	-0.445695	-593863	-3.841651E-8	NaN
576	1.000000	0.692258	7.37068e+06	-48289.1	1005.82	-29762.9	0.000000	0.000000	6.693028	-0.042439	NaN	0.000000	0.001581	0.001711	28.0823	0.087906	0.002017	43.5761	27.7297	12.3234	-0.031272	0.690903	-0.433778	-0.435133	-0.042439	43.5761	-0.433048	-393695	1.077963E-7	NaN
576	1.000000	0.702258	7.37068e+06	-48289.1	1005.82	-29762.9	0.000000	0.000000	6.703025	-0.135970	NaN	0.000000	0.001558	0.001727	28.0823	0.061634	0.002127	28.9782	176.269	-165.904	0.004922	0.700941	-0.423777	-0.425094	-0.135970	28.9782	-0.420258	-259465	5.240422E-7	NaN
576	1.000000	0.712252	7.37069e+06	-48289.1	1005.82	-29762.9	0.000000	0.000000	6.713024	0.017251	NaN	0.000000	0.001537	0.001717	28.0822	0.023065	0.001938	11.9036	-169.351	15.0505	0.006272	0.710945	-0.413784	-0.415090	0.017251	11.9036	-0.414871	-217582	-7.928587E-8	NaN
576	1.000000	0.722251	7.37069e+06	-48289.1	1005.82	-29762.9	0.000000	0.000000	6.723026	0.090282	NaN	0.000000	0.001559	0.001754	28.0824	0.067138	0.002032	33.0427	-12.0635	-167.104	0.136020	0.720931	-0.403785	-0.405104	0.090282	33.0427	-0.405834	-161855	-5.577994E-7	NaN
576	1.000000	0.732238	7.37069e+06	-48289.1	1005.82	-29762.9	0.000000	0.000000	6.733011	0.028174	NaN	0.000000	0.001591	0.001740	28.0813	0.131782	0.002113	62.3542	83.1925	16.5137	0.062533	0.730876	-0.393797	-0.395159	0.028174	62.3542	-0.394136	-110229	-2.555990E-7	NaN
576	1.000000	0.742244	7.37069e+06	-48289.1	1005.82	-29762.9	0.000000	0.000000	6.743017	0.011608	NaN	0.000000	0.001597	0.001734	28.0812	0.051485	0.001986	25.9207	156.147	-168.451	0.041715	0.740959	-0.383792	-0.385076	0.011608	25.9207	-0.384127	-79265.1	-1.464482E-7	NaN
576	1.000000	0.752265	7.37069e+06	-48289.1	1005.82	-29762.9	0.000000	0.000000	6.753036	-0.026785	NaN	0.000000	0.001541	0.001750	28.0813	0.035753	0.001953	18.3067	-14.7619	15.5232	0.002123	0.750906	-0.373770	-0.375130	-0.026785	18.3067	-0.372673	-54275.3	4.935001E-7	NaN
576	1.000000	0.762289	7.37069e+06	-48289.1	1005.82	-29762.9	0.000000	0.000000	6.763058	-0.050186	NaN	0.000000	0.001584	0.001725	28.0811	0.080702	0.002144	37.6442	170.883	-169.587	0.044392	0.760956	-0.363747	-0.365079	-0.050186	37.6442	-0.362747	-39042.3	1.285421E-6	NaN
576	1.000000	0.772290	7.37069e+06	-48289.1	1005.82	-29762.9	0.000000	0.000000	6.773061	-0.010112	NaN	0.000000	0.001564	0.001729	28.0815	0.099070	0.002017	49.11	-131.425	14.7075	0.050042	0.770926	-0.353746	-0.355109	-0.010112	49.11	-0.353591	-28779.7	3.513417E-7	NaN
576	1.000000	0.782292	7.37069e+06	-48289.1	1005.82	-29762.9	0.000000	0.000000	6.783066	0.033267	NaN	0.000000	0.001553	0.001723	28.0813	0.080503	0.002069	38.9159	69.5258	-162.639	0.024087	0.780994	-0.343743	-0.345041	0.033267	38.9159	-0.344385	-21154.5	-1.572587E-6	NaN
576	1.000000	0.792279	7.37069e+06	-48289.1	1005.82	-29762.9	0.000000	0.000000	6.793051	-0.007732	NaN	0.000000	0.001568	0.001743	28.0813	0.077163	0.001990	38.7709	-98.8689	17.3868	-0.049490	0.790951	-0.333756	-0.335085	-0.007732	38.7709	-0.333607	-14730.8	5.248597E-7	NaN
576	1.000000	0.802287	7.37069e+06	-48289.1	1005.82	-29762.9	0.000000	0.000000	6.803058	-0.028153	NaN	0.000000	0.001562	0.001696	28.0812	0.112718	0.002038	55.2988	101.962	-164.299	-0.055658	0.800987	-0.323748	-0.325048	-0.028153	55.2988	-0.323367	-10426.7	2.700069E-6	NaN
576	1.000000	0.812298	7.37069e+06	-48289.1	1005.82	-29762.9	0.000000	0.000000	6.813070	-0.005973	NaN	0.000000	0.001561	0.001717	28.0813	0.082767	0.001947	42.5156	-88.9033	13.7318	-0.040667	0.810958	-0.313737	-0.315078	-0.005973	42.5156	-0.313632	-7494.62	7.969523E-7	NaN
576	1.000000	0.822309	7.37069e+06	-48289.1	1005.82	-29762.9	0.000000	0.000000	6.823077	-0.075366	NaN	0.000000	0.001556	0.001734	28.0813	0.046180	0.001980	23.3245	53.5896	-164.177	0.007027	0.821019	-0.303727	-0.305017	-0.075366	23.3245	-0.301304	-4920.77	1.531593E-5	NaN
576	1.000000	0.832335	7.37069e+06	-48289.1	1005.82	-29762.9	0.000000	0.000000	6.833104	-0.071752	NaN	0.000000	0.001539	0.001739	28.0813	0.049241	0.002011	24.4813	-21.8401	15.7609	-0.066456	0.830920	-0.293701	-0.295116	-0.071752	24.4813	-0.291502	-3513.97	2.041915E-5	NaN
576	1.000000	0.842320	7.37069e+06	-48289.1	1005.82	-29762.9	0.000000	0.000000	6.843090	-0.058013	NaN	0.000000	0.001598	0.001735	28.0813	0.033510	0.002101	15.9497	-80.7795	-165.724	-0.018364	0.840949	-0.283715	-0.285087	-0.058013	15.9497	-0.280987	-2442.65	2.375018E-5	NaN
576	1.000000	0.852304	7.37069e+06	-48289.1	1005.82	-29762.9	0.000000	0.000000	6.853074	-0.035522	NaN	0.000000	0.001606	0.001708	28.0812	0.034064	0.002176	15.6554	-96.5717	17.5203	0.017219	0.850957	-0.273732	-0.275079	-0.035522	15.6554	-0.272030	-1788.03	1.986659E-5	NaN
576	1.000000	0.862305	7.37069e+06	-48289.1	1005.82	-29762.9	0.000000	0.000000	6.863078	0.038962	NaN	0.000000	0.001549	0.001708	28.0812	0.155593	0.001862	83.5542	105.931	-165.869	-0.019167	0.861008	-0.263731	-0.265028	0.038962	83.5542	-0.264081	-1353.18	-2.879273E-5	NaN
576	1.000000	0.872342	7.37069e+06	-48289.1	1005.82	-29762.9	0.000000	0.000000	6.873114	-0.009745	NaN	0.000000	0.001538	0.001729	28.0824	0.058926	0.001944	30.3112	171.24	13.6421	0.039578	0.870937	-0.253693	-0.255099	-0.009745	30.3112	-0.253452	-929.545	1.048326E-5	NaN
576	1.000000	0.882331	7.37069e+06	-48289.1	1005.82	-29762.9	0.000000	0.000000	6.883102	-0.007254	NaN	0.000000	0.001546	0.001751	28.0828	0.093984	0.001939	48.4777	106.524	-167.203	0.004693	0.881019	-0.243705	-0.245016	-0.007254	48.4777	-0.243593	-653.982	1.109140E-5	NaN
576	1.000000	0.892337	7.37069e+06	-48289.1	1005.82	-29762.9	0.000000	0.000000	6.893109	-0.000941	NaN	0.000000	0.001568	0.001756	28.0825	0.063176	0.001962	32.2038	-146.823	15.2397	0.113185	0.890981	-0.233698	-0.235055	-0.000941	32.2038	-0.233676	-457.561	2.057233E-6	NaN
576	1.000000	0.902325	7.37069e+06	-48289.1	1005.82	-29762.9	0.000000	0.000000	6.903097	-0.018211	NaN	0.000000	0.001591	0.001716	28.0827	0.053449	0.001863	28.6956	118.237	-164.708	-0.039019	0.900963	-0.223710	-0.225072	-0.018211	28.6956	-0.223234	-312.795	5.822118E-5	NaN
576	1.000000	0.912340	7.37069e+06	-48289.1	1005.82	-29762.9	0.000000	0.000000	6.913110	-0.030354	NaN	0.000000	0.001542	0.001707	28.0828	0.085484	0.002143	39.8885	105.368	14.7302	-0.012836	0.911019	-0.213696	-0.215017	-0.030354	39.8885	-0.213125	-215.439	0.000141	NaN
576	1.000000	0.922336	7.37069e+06	-48289.1	1005.82	-29762.9	0.000000	0.000000	6.923106	-0.044802	NaN	0.000000	0.001571	0.001723	28.0828	0.063543	0.001880	33.7938	-27.7112	-164.822	0.072564	0.920982	-0.203699	-0.205053	-0.044802	33.7938	-0.202705	-145.902	0.000307	NaN
576	1.000000	0.932351	7.37069e+06	-48289.1	1005.82	-29762.9	0.000000	0.000000	6.933124	0.018788	NaN	0.000000	0.001577	0.001687	28.0827	0.072598	0.001895	38.3159	-136.394	16.5323	0.082502	0.930940	-0.193685	-0.195096	0.018788	38.3159	-0.194053	-105.074	-0.000179	NaN
576	1.000000	0.942359	7.37069e+06	-48289.1	1005.82	-29762.9	0.000000	0.000000	6.943131	0.011061	NaN	0.000000	0.001572	0.001717	28.0828	0.073247	0.002097	34.9315	-30.7681	-168.605	0.028458	0.941031	-0.183677	-0.185005	0.011061	34.9315	-0.183914	-71.0906	-0.000156	NaN
576	1.000000	0.952305	7.37069e+06	-48289.1	1005.82	-29762.9	0.000000	0.000000	6.953077	-0.009979	NaN	0.000000	0.001575	0.001709	28.0831	0.070601	0.001990	35.4816	82.7723	16.6976	-0.041352	0.950998	-0.173730	-0.175037	-0.009979	35.4816	-0.173519	-47.2606	0.000211	NaN
576	1.000000	0.962347	7.37069e+06	-48289.1	1005.82	-29762.9	0.000000	0.000000	6.963118	-0.012319	NaN	0.000000	0.001592	0.001650	28.0828	0.059560	0.002067	28.815	-102.637	-166.194	0.056353	0.961074	-0.163689	-0.164962	-0.012319	28.815	-0.163368	-31.4483	0.000392	NaN
576	1.000000	0.972367	7.37069e+06	-48289.1	1005.82	-29762.9	0.000000	0.000000	6.973137	-0.028927	NaN	0.000000	0.001606	0.001690	28.083	0.062145	0.001987	31.2788	-129.673	17.9223	-0.109862	0.971005	-0.153669	-0.155030	-0.028927	31.2788	-0.152975	-20.514	0.001410	NaN
576	1.000000	0.982351	7.37069e+06	-48289.1	1005.82	-29762.9	0.000000	0.000000	6.983120	-0.072289	NaN	0.000000	0.001597	0.001707	28.0829	0.032547	0.002007	16.2153	108.552	-163.794	-0.024270	0.981041	-0.143684	-0.144994	-0.072289	16.2153	-0.140341	-12.005	0.006022	NaN
576	1.000000	0.992358	7.37069e+06	-48289.1	1005.82	-29762.9	0.000000	0.000000	6.993130	0.021673	NaN	0.000000	0.001563	0.001729	28.0827	0.072572	0.001988	36.5081	21.2718	12.6896	-0.082128	0.991075	-0.133678	-0.134960	0.021673	36.5081	-0.134123	-9.152267	-0.002368	NaN
576	1.000000	1.002332	7.37069e+06	-48289.1	1005.82	-29762.9	0.000000	0.000000	7.003100	-0.105641	NaN	0.000000	0.001562	0.001739	28.0818	0.064125	0.002010	31.9032	163.768	-164.527	-0.053167	1.001090	-0.123704	-0.124945	-0.105641	31.9032	-0.121220	-5.112654	0.020663	NaN
576	1.000000	1.012372	7.37069e+06	-48289.1	1005.82	-29762.9	0.000000	0.000000	7.013143	-0.008075	NaN	0.000000	0.001571	0.001709	28.0814	0.097138	0.002009	48.3595	-142.356	14.4171	-0.002155	1.011018	-0.113664	-0.115018	-0.008075	48.3595	-0.113539	-3.563598	0.002266	NaN
576	1.000000	1.022366	7.37069e+06	-48289.1	1005.82	-29762.9	0.000000	0.000000	7.023139	0.014572	NaN	0.000000	0.001559	0.001684	28.0816	0.039044	0.001971	19.8108	-59.5261	-162.117	-0.036386	1.021058	-0.103670	-0.104977	0.014572	19.8108	-0.104221	-2.261092	-0.006445	NaN
576	1.000000	1.032387	7.37069e+06	-48289.1	1005.82	-29762.9	0.000000	0.000000	7.033160	0.008002	NaN	0.000000	0.001540	0.001711	28.0814	0.030102	0.001918	15.6978	43.6258	14.0019	0.040837	1.031029	-0.093648	-0.095007	0.008002	15.6978	-0.094031	-1.340491	-0.005969	NaN
576	1.000000	1.042406	7.37069e+06	-48289.1	1005.82	-29762.9	0.000000	0.000000	7.043176	-0.054701	NaN	0.000000	0.001561	0.001735	28.0817	0.023663	0.002112	11.2056	-75.4176	-167.438	0.041753	1.041149	-0.083629	-0.084887	-0.054701	11.2056	-0.079968	-0.617864	0.088532	NaN
576	1.000000	1.052371	7.37069e+06	-48289.1	1005.82	-29762.9	0.000000	0.000000	7.053143	-0.004461	NaN	0.000000	0.001524	0.001744	28.0814	0.084270	0.001980	42.5562	1.161770	12.5788	-0.006481	1.051055	-0.073664	-0.074981	-0.004461	42.5562	-0.073586	-0.424380	0.010512	NaN
576	1.000000	1.062398	7.37069e+06	-48289.1	1005.82	-29762.9	0.000000	0.000000	7.063168	-0.040889	NaN	0.000000	0.001561	0.001708	28.0817	0.098867	0.001973	50.1034	106.256	-164.959	-0.097044	1.061051	-0.063638	-0.064985	-0.040889	50.1034	-0.063026	-0.219499	0.186281	NaN
576	1.000000	1.072412	7.37069e+06	-48289.1	1005.82	-29762.9	0.000000	0.000000	7.073183	-0.034927	NaN	0.000000	0.001563	0.001717	28.0814	0.022691	0.002051	11.0623	159.585	14.6433	-0.010675	1.071018	-0.053623	-0.055017	-0.034927	11.0623	-0.051255	-0.099566	0.350798	NaN
576	1.000000	1.082378	7.37069e+06	-48289.1	1005.82	-29762.9	0.000000	0.000000	7.083152	0.032003	NaN	0.000000	0.001561	0.001701	28.0816	0.054443	0.001904	28.5884	46.4838	-166.838	-0.003550	1.081094	-0.043657	-0.044942	0.032003	28.5884	-0.044497	-0.062030	-0.515926	NaN
576	1.000000	1.092444	7.37069e+06	-48289.1	1005.82	-29762.9	0.000000	0.000000	7.093215	-0.016374	NaN	0.000000	0.001575	0.001709	28.0814	0.110043	0.001891	58.198	-92.6923	15.896	0.013438	1.091034	-0.033592	-0.035001	-0.016374	58.198	-0.033381	-0.028718	0.570186	NaN
576	1.000000	1.102412	7.37069e+06	-48289.1	1005.82	-29762.9	0.000000	0.000000	7.103185	0.017657	NaN	0.000000	0.001547	0.001722	28.0815	0.070405	0.002032	34.6526	39.1772	-167.733	-0.022429	1.101170	-0.023623	-0.024865	0.017657	34.6526	-0.024005	-0.015896	-1.110801	NaN
576	1.000000	1.112405	7.37069e+06	-48289.1	1005.82	-29762.9	0.000000	0.000000	7.113176	-0.035433	NaN	0.000000	0.001567	0.001694	28.0812	0.075231	0.001971	38.1685	30.5584	13.3613	-0.038821	1.111037	-0.013630	-0.014998	-0.035433	38.1685	-0.012934	-0.008064	4.393805	NaN
576	1.000000	1.122381	7.37069e+06	-48289.1	1005.82	-29762.9	0.000000	0.000000	7.123152	-0.015635	NaN	0.000000	0.001566	0.001733	28.0815	0.038552	0.001983	19.4451	171.434	-166.825	-0.046925	1.121161	-0.003655	-0.004874	-0.015635	19.4451	-0.003051	-0.002155	7.255257	NaN
576	1.000000	1.132398	7.37069e+06	-48289.1	1005.82	-29762.9	0.000000	0.000000	7.133284	2.766322	NaN	0.000000	0.001575	0.001760	28.0812	3.534938	0.001960	1803.34	8.693698	14.4705	1.392233	1.131070	0.006363	0.005035	2.766322	1803.34	0.005212	0.004328	639.203	25044.9
576	2.000000	1.139050	7.37069e+06	-48289.1	1005.82	-29762.9	0.000000	0.000000	7.140124	7.347167	NaN	0.000000	0.001554	0.001725	28.0826	8.999285	0.001658	5428.8	5.671069	-171.59	6.949231	1.138752	0.013014	0.012717	7.347167	5428.8	0.011999	0.011489	639.505	46274.2
576	2.000000	1.141564	7.37069e+06	-48289.1	1005.82	-29762.9	0.000000	0.000000	7.142767	10.5017	NaN	0.000000	0.001582	0.001692	28.0822	11.5317	0.001761	6547.17	8.243286	7.662453	11.0115	1.141165	0.015528	0.015129	10.5017	6547.17	0.014325	0.014396	729.506	49855.2
576	2.000000	1.144082	7.37069e+06	-48289.1	1005.82	-29762.9	0.000000	0.000000	7.145444	14.3517	NaN	0.000000	0.001566	0.001758	28.0827	14.4023	0.001881	7655.11	12.9063	-176.566	15.9046	1.143709	0.018046	0.017673	14.3517	7655.11	0.016640	0.017535	818.471	52817.1
576	2.000000	1.146541	7.37069e+06	-48289.1	1005.82	-29762.9	0.000000	0.000000	7.148039	17.6632	NaN	0.000000	0.001547	0.001735	28.0826	16.4972	0.001835	8990.27	13.3744	0.394621	17.2397	1.146159	0.020505	0.020123	17.6632	8990.27	0.019031	0.021043	839.385	56622.9
576	2.000000	1.148952	7.37069e+06	-48289.1	1005.82	-29762.9	0.000000	0.000000	7.150604	21.3957	NaN	0.000000	0.001549	0.001769	28.0827	18.8107	0.001666	11290.4	2.771634	-175.587	19.0561	1.148649	0.022917	0.022613	21.3957	11290.4	0.021496	0.024947	857.642	65309
576	2.000000	1.151499	7.37069e+06	-48289.1	1005.82	-29762.9	0.000000	0.000000	7.153246	23.6976	NaN	0.000000	0.001527	0.001695	28.0826	21.2725	0.001767	12041.6	6.570146	2.559000	22.1373	1.151170	0.025464	0.025134	23.6976	12041.6	0.023988	0.029200	811.559	64382.2
576	2.000000	1.154001	7.37069e+06	-48289.1	1005.82	-29762.9	0.000000	0.000000	7.155982	29.4119	NaN	0.000000	0.001563	0.001694	28.0828	24.5337	0.001887	13002.7	12.1562	177.224	30.5076	1.153682	0.027965	0.027646	29.4119	13002.7	0.026268	0.033364	881.555	65038.3
576	2.000000	1.156441	7.37069e+06	-48289.1	1005.82	-29762.9	0.000000	0.000000	7.158671	35.4643	NaN	0.000000	0.001555	0.001744	28.0827	26.5463	0.001633	16260.5	6.545781	-1.836029	32.5381	1.156147	0.030406	0.030111	35.4643	16260.5	0.028770	0.038233	927.582	75978.1
576	2.000000	1.158929	7.37069e+06	-48289.1	1005.82	-29762.9	0.000000	0.000000	7.161502	43.8172	NaN	0.000000	0.001554	0.001723	28.0827	29.0926	0.001751	16613.8	4.840427	-179.56	40.7965	1.158598	0.032893	0.032563	43.8172	16613.8	0.030915	0.042661	1027.09	73489.4
576	2.000000	1.161431	7.37069e+06	-48289.1	1005.82	-29762.9	0.000000	0.000000	7.164087	45.837	NaN	0.000000	0.001580	0.001723	28.0826	31.7891	0.001743	18233.8	2.308625	1.676903	42.4351	1.161195	0.035395	0.035160	45.837	18233.8	0.033510	0.048332	948.369	75775.7
576	2.000000	1.164005	7.37069e+06	-48289.1	1005.82	-29762.9	0.000000	0.000000	7.166824	49.8024	NaN	0.000000	0.001588	0.001731	28.0832	34.2524	0.001785	19188.2	3.366396	-178.544	51.466	1.163670	0.037969	0.037635	49.8024	19188.2	0.036022	0.054153	919.657	75334.9
576	2.000000	1.166421	7.37069e+06	-48289.1	1005.82	-29762.9	0.000000	0.000000	7.169981	67.8101	NaN	0.000000	0.001585	0.001705	28.0825	36.7607	0.001862	19738	7.434419	-2.342039	65.5004	1.166167	0.040385	0.040132	67.8101	19738	0.037809	0.058488	1159.39	74566.5
576	2.000000	1.168892	7.37069e+06	-48289.1	1005.82	-29762.9	0.000000	0.000000	7.172653	72.7078	NaN	0.000000	0.001595	0.001737	28.0827	39.1751	0.001733	22608.8	7.314636	175.815	69.3552	1.168556	0.042857	0.042521	72.7078	22608.8	0.040445	0.065182	1115.45	80907
576	2.000000	1.171342	7.37069e+06	-48289.1	1005.82	-29762.9	0.000000	0.000000	7.175563	83.8966	NaN	0.000000	0.001585	0.001750	28.0825	41.8426	0.001730	24192.6	4.869084	-1.906476	77.3309	1.170942	0.045306	0.044906	83.8966	24192.6	0.042705	0.071207	1178.21	82831.4
576	2.000000	1.173993	7.37069e+06	-48289.1	1005.82	-29762.9	0.000000	0.000000	7.178456	89.7741	NaN	0.000000	0.001577	0.001714	28.082	46.2586	0.001773	26086.5	9.726582	172.336	92.686	1.173698	0.047957	0.047662	89.7741	26086.5	0.045376	0.078658	1141.32	84979.9
576	2.000000	1.176372	7.37069e+06	-48289.1	1005.82	-29762.9	0.000000	0.000000	7.181514	106.294	NaN	0.000000	0.001570	0.001732	28.0813	47.6699	0.001824	26134.9	3.394542	-1.448753	100.446	1.176000	0.050337	0.049964	106.294	26134.9	0.047286	0.084210	1262.25	82283.4
576	2.000000	1.178909	7.37069e+06	-48289.1	1005.82	-29762.9	0.000000	0.000000	7.184636	120.514	NaN	0.000000	0.001622	0.001710	28.0814	50.4119	0.001796	28071.3	5.106209	176.084	118.719	1.178641	0.052873	0.052605	120.514	28071.3	0.049653	0.091345	1319.33	84858.3
576	2.000000	1.181448	7.37069e+06	-48289.1	1005.82	-29762.9	0.000000	0.000000	7.187815	136.073	NaN	0.000000	0.001591	0.001743	28.0814	52.2316	0.001725	30276.3	2.547275	-1.462007	135.055	1.181063	0.055412	0.055028	136.073	30276.3	0.052042	0.098828	1376.87	87990.6
576	2.000000	1.183888	7.37069e+06	-48289.1	1005.82	-29762.9	0.000000	0.000000	7.190822	149.888	NaN	0.000000	0.001599	0.001702	28.0816	55.9042	0.001897	29467.9	1.861003	179.023	146.691	1.183560	0.057852	0.057524	149.888	29467.9	0.054037	0.105300	1423.44	82967.6
576	2.000000	1.186364	7.37069e+06	-48289.1	1005.82	-29762.9	0.000000	0.000000	7.194218	172.25	NaN	0.000000	0.001585	0.001747	28.0814	58.9193	0.001719	34281.6	6.665142	-7.081516	166.304	1.185980	0.060328	0.059945	172.25	34281.6	0.056560	0.113762	1514.13	92861.7
576	2.000000	1.188836	7.37069e+06	-48289.1	1005.82	-29762.9	0.000000	0.000000	7.197166	183.842	NaN	0.000000	0.001609	0.001730	28.0816	60.4957	0.001683	35935.4	1.926596	177.086	179.329	1.188601	0.062800	0.062566	183.842	35935.4	0.058963	0.122117	1505.46	93952.5
576	2.000000	1.191353	7.37069e+06	-48289.1	1005.82	-29762.9	0.000000	0.000000	7.200293	198.662	NaN	0.000000	0.001610	0.001753	28.0824	64.5869	0.001897	34039.2	2.294515	-2.589111	192.98	1.191008	0.065317	0.064972	198.662	34039.2	0.060940	0.129202	1537.61	86520.5
576	2.000000	1.193922	7.37069e+06	-48289.1	1005.82	-29762.9	0.000000	0.000000	7.203617	217.011	NaN	0.000000	0.001612	0.001811	28.0815	66.3894	0.001718	38641.5	2.441679	175.888	216.068	1.193743	0.067887	0.067707	217.011	38641.5	0.063675	0.139314	1557.71	94586.7
576	2.000000	1.196395	7.37069e+06	-48289.1	1005.82	-29762.9	0.000000	0.000000	7.207141	242.594	NaN	0.000000	0.001572	0.001792	28.0812	68.5282	0.001759	38963.9	3.965285	-5.692031	238.114	1.196045	0.070359	0.070010	242.594	38963.9	0.065690	0.146997	1650.33	92849.9
576	2.000000	1.198831	7.37069e+06	-48289.1	1005.82	-29762.9	0.000000	0.000000	7.210600	267.474	NaN	0.000000	0.001603	0.001754	28.0816	71.1446	0.001784	39877.3	3.831721	174.559	263.399	1.198528	0.072796	0.072493	267.474	39877.3	0.067765	0.155116	1724.35	92506.2
576	2.000000	1.201414	7.37069e+06	-48289.1	1005.82	-29762.9	0.000000	0.000000	7.213795	282.351	NaN	0.000000	0.001578	0.001786	28.0817	73.9013	0.001697	43544.2	5.121867	-7.320277	279.257	1.200904	0.075379	0.074869	282.351	43544.2	0.070515	0.166191	1698.96	97588.8
576	2.000000	1.203849	7.37069e+06	-48289.1	1005.82	-29762.9	0.000000	0.000000	7.217574	315.03	NaN	0.000000	0.001609	0.001748	28.0813	77.8425	0.001767	44062.1	6.550110	170.75	312.278	1.203633	0.077814	0.077597	315.03	44062.1	0.072452	0.174203	1808.41	96451.8
576	2.000000	1.206440	7.37069e+06	-48289.1	1005.82	-29762.9	0.000000	0.000000	7.221285	342.285	NaN	0.000000	0.001573	0.001752	28.0824	80.2439	0.001760	45584.3	5.970748	-8.193708	339.236	1.206063	0.080404	0.080027	342.285	45584.3	0.074772	0.184041	1859.83	97080.3
576	2.000000	1.208906	7.37069e+06	-48289.1	1005.82	-29762.9	0.000000	0.000000	7.224698	365.321	NaN	0.000000	0.001599	0.001739	28.0827	82.3843	0.001772	46501.7	3.087187	173.987	364.481	1.208599	0.082870	0.082563	365.321	46501.7	0.076978	0.193627	1886.72	96551.3
576	2.000000	1.211311	7.37069e+06	-48289.1	1005.82	-29762.9	0.000000	0.000000	7.228319	394.895	NaN	0.000000	0.001613	0.001731	28.0827	85.7247	0.001895	45226.7	2.280491	-4.917610	389.397	1.211100	0.085275	0.085065	394.895	45226.7	0.078727	0.201387	1960.88	92077.2
576	2.000000	1.213808	7.37069e+06	-48289.1	1005.82	-29762.9	0.000000	0.000000	7.232004	423.783	NaN	0.000000	0.001558	0.001729	28.0826	87.31	0.001701	51330	1.828957	174.681	418.501	1.213592	0.087773	0.087556	423.783	51330	0.081581	0.214360	1976.97	101291
576	2.000000	1.216356	7.37069e+06	-48289.1	1005.82	-29762.9	0.000000	0.000000	7.236167	463.07	NaN	0.000000	0.001615	0.001761	28.0826	89.7434	0.001804	49753	4.383783	-7.232374	456.664	1.215910	0.090320	0.089874	463.07	49753	0.083340	0.222546	2080.78	96356.8
576	2.000000	1.218822	7.37069e+06	-48289.1	1005.82	-29762.9	0.000000	0.000000	7.239713	489.341	NaN	0.000000	0.001597	0.001749	28.0828	92.3971	0.001702	54292.4	4.224130	172.186	485.215	1.218495	0.092786	0.092460	489.341	54292.4	0.086027	0.235323	2079.44	102254
576	2.000000	1.221185	7.37069e+06	-48289.1	1005.82	-29762.9	0.000000	0.000000	7.242978	511.258	NaN	0.000000	0.001578	0.001709	28.0828	96.0331	0.001652	58137.7	7.930031	-12.7134	498.687	1.220918	0.095150	0.094883	511.258	58137.7	0.088554	0.247648	2064.46	106737
576	2.000000	1.223865	7.37069e+06	-48289.1	1005.82	-29762.9	0.000000	0.000000	7.247197	548.72	NaN	0.000000	0.001618	0.001765	28.0827	99.3282	0.001849	53732.4	6.161807	170.61	546.622	1.223565	0.097829	0.097529	548.72	53732.4	0.090170	0.255680	2146.12	97087
576	2.000000	1.226289	7.37069e+06	-48289.1	1005.82	-29762.9	0.000000	0.000000	7.251229	587.811	NaN	0.000000	0.001636	0.001758	28.0828	101.011	0.001770	57060.1	5.801240	-9.863330	578.362	1.225980	0.100253	0.099945	587.811	57060.1	0.092527	0.267612	2196.5	100775
576	2.000000	1.228858	7.37069e+06	-48289.1	1005.82	-29762.9	0.000000	0.000000	7.255069	618.736	NaN	0.000000	0.001634	0.001750	28.0826	103.535	0.001824	56757.3	6.251077	170.293	617.62	1.228479	0.102822	0.102444	618.736	56757.3	0.094646	0.278557	2221.22	98251.2
576	2.000000	1.231202	7.37069e+06	-48289.1	1005.82	-29762.9	0.000000	0.000000	7.258121	635.965	NaN	0.000000	0.001686	0.001722	28.0827	106.459	0.001816	58620.2	6.853619	-11.2058	624.735	1.230787	0.105166	0.104751	635.965	58620.2	0.097029	0.291110	2184.62	99264
576	2.000000	1.233803	7.37069e+06	-48289.1	1005.82	-29762.9	0.000000	0.000000	7.262476	678.6	NaN	0.000000	0.001659	0.001743	28.0825	108.056	0.001818	59420.7	7.238952	169.31	673.96	1.233410	0.107767	0.107374	678.6	59420.7	0.099202	0.302780	2241.23	98661.5
576	2.000000	1.236320	7.37069e+06	-48289.1	1005.82	-29762.9	0.000000	0.000000	7.266390	712.602	NaN	0.000000	0.001626	0.001707	28.0827	110.803	0.001782	62177.7	8.911991	-12.9292	708.279	1.235888	0.110284	0.109852	712.602	62177.7	0.101688	0.316397	2252.24	100993