File: remote_trans/data/nanoindenter/0828-1/data/Data_2025-08-06,11h17m57s/2025-07-22_16-23-58_1_242.txt
2025-07-22, 16:23:58, 1
Index	Phase	Displacement	Time	Pos X	Pos Y	Pos Z	Rot A	Rot B	Piezo Z	Force A	Force B	Gripper	Voltage A	Voltage B	Temperature	Amplitude force	Amplitude pos	Stiffness	Phase shift	Phase excitation	Force A raw	Displacement raw	HMax	HMax raw	Real Force	Real Stiffness	Contact Depth	Area	Hardness	Reduced Mod.
[#]	[#]	[um]	[s]	[um]	[um]	[um]	[m°]	[m°]	[um]	[uN]	[uN]	[V]	[V]	[V]	[°C]	[uN]	[um]	[N/m]	[°]	[°]	[uN]	[um]	[um]	[um]	[uN]	[N/m]	[um]	[um^2]	[MPa]	[MPa]
242	1.000000	0.002119	7.36741e+06	-50739.1	955.818	-29755	0.000000	0.000000	6.002801	-0.018019	NaN	0.000000	0.001582	0.001721	28.0779	0.193222	0.000879	219.929	-56.9856	-160.079	0.012557	0.000830	-1.100938	-1.102227	-0.018019	219.929	-1.100877	-5.150366E+14	3.498619E-17	NaN
242	1.000000	0.012186	7.36741e+06	-50739.1	955.819	-29755	0.000000	0.000000	6.012867	-0.035289	NaN	0.000000	0.001600	0.001701	28.0778	0.083630	0.001261	66.3067	14.5597	23.1759	-0.042704	0.010788	-1.090872	-1.092269	-0.035289	66.3067	-1.090473	-3.733865E+14	9.451051E-17	NaN
242	1.000000	0.022056	7.36741e+06	-50739.1	955.818	-29755	0.000000	0.000000	6.022736	-0.058916	NaN	0.000000	0.001597	0.001712	28.0777	0.020335	0.001783	11.4029	159.266	-164.126	0.012780	0.020763	-1.081002	-1.082295	-0.058916	11.4029	-1.077127	-2.471319E+14	2.383985E-16	NaN
242	1.000000	0.032035	7.36741e+06	-50739.1	955.818	-29755	0.000000	0.000000	6.032715	-0.058354	NaN	0.000000	0.001601	0.001735	28.0778	0.046604	0.001891	24.6389	-159.008	10.0644	-0.073585	0.030739	-1.071023	-1.072318	-0.058354	24.6389	-1.069247	-1.936741E+14	3.013019E-16	NaN
242	1.000000	0.042042	7.36741e+06	-50739.1	955.818	-29755	0.000000	0.000000	6.042727	0.056877	NaN	0.000000	0.001570	0.001769	28.0786	0.082768	0.001939	42.6892	88.3838	-164.443	0.070586	0.040745	-1.061016	-1.062312	0.056877	42.6892	-1.062015	-1.548465E+14	-3.673099E-16	NaN
242	1.000000	0.052075	7.36741e+06	-50739.1	955.819	-29755	0.000000	0.000000	6.052754	-0.077698	NaN	0.000000	0.001582	0.001747	28.0788	0.119439	0.001974	60.509	-63.2175	16.9443	-0.064951	0.050758	-1.050983	-1.052299	-0.077698	60.509	-1.050020	-1.068278E+14	7.273236E-16	NaN
242	1.000000	0.062045	7.36741e+06	-50739.1	955.818	-29755	0.000000	0.000000	6.062725	-0.068218	NaN	0.000000	0.001591	0.001743	28.0792	0.014256	0.001991	7.158891	-169.352	-161.763	-0.041411	0.060795	-1.041013	-1.042263	-0.068218	7.158891	-1.033866	-6.478489E+13	1.052995E-15	NaN
242	1.000000	0.072065	7.36741e+06	-50739.1	955.819	-29755	0.000000	0.000000	6.072748	0.017786	NaN	0.000000	0.001607	0.001723	28.0789	0.022050	0.002157	10.2248	32.9735	14.8197	-0.041253	0.070756	-1.030993	-1.032301	0.017786	10.2248	-1.032298	-6.171444E+13	-2.881962E-16	NaN
242	1.000000	0.082087	7.36741e+06	-50739.1	955.819	-29755	0.000000	0.000000	6.082767	-0.068599	NaN	0.000000	0.001602	0.001737	28.0788	0.026348	0.001958	13.4555	-51.0857	-164.653	-0.105211	0.080777	-1.020971	-1.022281	-0.068599	13.4555	-1.017147	-3.859786E+13	1.777269E-15	NaN
242	1.000000	0.092074	7.36741e+06	-50739.1	955.818	-29755	0.000000	0.000000	6.092753	-0.069886	NaN	0.000000	0.001649	0.001718	28.0789	0.050125	0.001887	26.5664	-130.077	13.5958	-0.052306	0.090729	-1.010984	-1.012328	-0.069886	26.5664	-1.009011	-2.999662E+13	2.329786E-15	NaN
242	1.000000	0.102091	7.36741e+06	-50739.1	955.818	-29755	0.000000	0.000000	6.102773	-0.027438	NaN	0.000000	0.001646	0.001728	28.0791	0.070277	0.001937	36.2887	-131.692	-161.894	0.000351	0.100749	-1.000966	-1.002308	-0.027438	36.2887	-1.000399	-2.296905E+13	1.194578E-15	NaN
242	1.000000	0.112089	7.36741e+06	-50739.1	955.818	-29755	0.000000	0.000000	6.112772	-0.006921	NaN	0.000000	0.001567	0.001772	28.0792	0.064090	0.002087	30.7122	97.0634	14.2452	0.006540	0.110771	-0.990968	-0.992287	-0.006921	30.7122	-0.990799	-1.705605E+13	4.057733E-16	NaN
242	1.000000	0.122084	7.36741e+06	-50739.1	955.819	-29755	0.000000	0.000000	6.122769	0.063322	NaN	0.000000	0.001544	0.001714	28.0792	0.067398	0.002157	31.2394	-176.41	-163.138	0.002708	0.120807	-0.980974	-0.982250	0.063322	31.2394	-0.982494	-1.318286E+13	-4.803328E-15	NaN
242	1.000000	0.132108	7.36741e+06	-50739.1	955.819	-29755	0.000000	0.000000	6.132792	0.030119	NaN	0.000000	0.001617	0.001734	28.079	0.098965	0.001954	50.6477	-148.955	18.8589	0.040404	0.130741	-0.970950	-0.972317	0.030119	50.6477	-0.971396	-9.342755E+12	-3.223810E-15	NaN
242	1.000000	0.142072	7.36741e+06	-50739.1	955.819	-29755	0.000000	0.000000	6.142753	-0.038096	NaN	0.000000	0.001678	0.001718	28.0789	0.081945	0.002069	39.5998	-147.625	-164.842	-0.083173	0.140793	-0.960985	-0.962265	-0.038096	39.5998	-0.960264	-6.613427E+12	5.760445E-15	NaN
242	1.000000	0.152105	7.36741e+06	-50739.1	955.818	-29755	0.000000	0.000000	6.152788	-0.009113	NaN	0.000000	0.001621	0.001703	28.0791	0.047897	0.001937	24.728	139.416	13.9096	-0.010366	0.150769	-0.950952	-0.952289	-0.009113	24.728	-0.950676	-4.910713E+12	1.855673E-15	NaN
242	1.000000	0.162146	7.36741e+06	-50739.1	955.818	-29755	0.000000	0.000000	6.162828	-0.025877	NaN	0.000000	0.001606	0.001715	28.0789	0.055229	0.002052	26.9105	3.276276	-164.481	0.018541	0.160802	-0.940911	-0.942256	-0.025877	26.9105	-0.940190	-3.545694E+12	7.298253E-15	NaN
242	1.000000	0.172127	7.36741e+06	-50739.1	955.818	-29755	0.000000	0.000000	6.172806	-0.097465	NaN	0.000000	0.001599	0.001741	28.0789	0.090410	0.002044	44.239	171.403	14.8668	-0.006262	0.170786	-0.930930	-0.932272	-0.097465	44.239	-0.929278	-2.526113E+12	3.858297E-14	NaN
242	1.000000	0.182104	7.36741e+06	-50739.1	955.818	-29755	0.000000	0.000000	6.182786	-0.023896	NaN	0.000000	0.001593	0.001710	28.0778	0.071320	0.001894	37.6581	83.9965	-164.011	-0.002169	0.180756	-0.920954	-0.922302	-0.023896	37.6581	-0.920478	-1.921581E+12	1.243585E-14	NaN
242	1.000000	0.192108	7.36741e+06	-50739.1	955.818	-29755	0.000000	0.000000	6.192791	0.005161	NaN	0.000000	0.001602	0.001702	28.0781	0.101479	0.001888	53.7401	-62.1441	16.1483	-0.047912	0.190771	-0.910950	-0.912287	0.005161	53.7401	-0.911022	-1.432072E+12	-3.603580E-15	NaN
242	1.000000	0.202117	7.36741e+06	-50739.1	955.818	-29755	0.000000	0.000000	6.202795	-0.095351	NaN	0.000000	0.001607	0.001725	28.078	0.057220	0.002087	27.4224	-96.8458	-165.463	-0.096490	0.200871	-0.900941	-0.902187	-0.095351	27.4224	-0.898333	-9.650382E+11	9.880569E-14	NaN
242	1.000000	0.212154	7.36741e+06	-50739.1	955.819	-29755	0.000000	0.000000	6.212837	0.006451	NaN	0.000000	0.001561	0.001711	28.0777	0.133056	0.002000	66.5321	152.19	17.4699	0.016860	0.210794	-0.890903	-0.892264	0.006451	66.5321	-0.890976	-7.675519E+11	-8.404179E-15	NaN
242	1.000000	0.222116	7.36741e+06	-50739.1	955.818	-29755	0.000000	0.000000	6.222797	-0.030300	NaN	0.000000	0.001595	0.001750	28.0778	0.061923	0.001935	32.0039	113.443	-164.708	0.046122	0.220841	-0.880942	-0.882217	-0.030300	32.0039	-0.880232	-5.493392E+11	5.515721E-14	NaN
242	1.000000	0.232133	7.36741e+06	-50739.1	955.817	-29755	0.000000	0.000000	6.232813	-0.072015	NaN	0.000000	0.001591	0.001727	28.0777	0.123466	0.002056	60.0424	118.088	16.8564	-0.067521	0.230766	-0.870924	-0.872292	-0.072015	60.0424	-0.870025	-3.997402E+11	1.801537E-13	NaN
242	1.000000	0.242133	7.36741e+06	-50739.1	955.818	-29755	0.000000	0.000000	6.242814	-0.039032	NaN	0.000000	0.001600	0.001740	28.0779	0.078127	0.001971	39.6316	-137.745	-163.922	-0.073529	0.240838	-0.860924	-0.862220	-0.039032	39.6316	-0.860186	-2.941946E+11	1.326747E-13	NaN
242	1.000000	0.252133	7.36741e+06	-50739.1	955.818	-29755	0.000000	0.000000	6.252814	-0.053090	NaN	0.000000	0.001564	0.001721	28.0774	0.086117	0.002082	41.3621	46.786	14.4958	-0.041722	0.250790	-0.850924	-0.852267	-0.053090	41.3621	-0.849962	-2.139043E+11	2.481931E-13	NaN
242	1.000000	0.262172	7.36741e+06	-50739.1	955.818	-29755	0.000000	0.000000	6.262854	-0.003995	NaN	0.000000	0.001579	0.001720	28.078	0.017532	0.002055	8.532028	-147.891	-167.385	0.028773	0.260887	-0.840886	-0.842171	-0.003995	8.532028	-0.840535	-1.594181E+11	2.506246E-14	NaN
242	1.000000	0.272176	7.36741e+06	-50739.1	955.819	-29755	0.000000	0.000000	6.272854	-0.094829	NaN	0.000000	0.001590	0.001740	28.0776	0.050973	0.001941	26.2603	27.2556	16.3889	-0.007636	0.270828	-0.830882	-0.832230	-0.094829	26.2603	-0.828174	-1.084001E+11	8.748044E-13	NaN
242	1.000000	0.282157	7.36741e+06	-50739.1	955.818	-29755	0.000000	0.000000	6.282841	0.022602	NaN	0.000000	0.001590	0.001717	28.0779	0.108575	0.002002	54.2298	-104.715	-163.491	0.011375	0.280872	-0.820901	-0.822185	0.022602	54.2298	-0.821213	-8.722948E+10	-2.591073E-13	NaN
242	1.000000	0.292197	7.36741e+06	-50739.1	955.818	-29755	0.000000	0.000000	6.292876	-0.090674	NaN	0.000000	0.001543	0.001741	28.0777	0.090488	0.002099	43.1162	94.735	15.1397	-0.059477	0.290777	-0.810861	-0.812281	-0.090674	43.1162	-0.809284	-6.009729E+10	1.508786E-12	NaN
242	1.000000	0.302184	7.36741e+06	-50739.1	955.817	-29755	0.000000	0.000000	6.302864	-0.077732	NaN	0.000000	0.001566	0.001747	28.0781	0.064572	0.001990	32.4557	-131.86	-164.052	-0.058092	0.300863	-0.800874	-0.802195	-0.077732	32.4557	-0.799077	-4.368551E+10	1.779351E-12	NaN
242	1.000000	0.312168	7.36741e+06	-50739.1	955.818	-29755	0.000000	0.000000	6.312849	-0.041170	NaN	0.000000	0.001551	0.001718	28.0779	0.057315	0.001821	31.4671	-165.859	14.457	-0.019311	0.310812	-0.790890	-0.792246	-0.041170	31.4671	-0.789909	-3.279784E+10	1.255261E-12	NaN
242	1.000000	0.322168	7.36741e+06	-50739.1	955.818	-29755	0.000000	0.000000	6.322852	0.026667	NaN	0.000000	0.001527	0.001724	28.0792	0.053196	0.002056	25.8716	128.04	-166.102	0.024144	0.320862	-0.780889	-0.782196	0.026667	25.8716	-0.781662	-2.534076E+10	-1.052334E-12	NaN
242	1.000000	0.332192	7.36741e+06	-50739.1	955.819	-29755	0.000000	0.000000	6.332872	-0.064615	NaN	0.000000	0.001543	0.001739	28.0792	0.142369	0.002026	70.2597	64.411	14.9122	-0.069795	0.330848	-0.770865	-0.772210	-0.064615	70.2597	-0.770176	-1.768866E+10	3.652887E-12	NaN
242	1.000000	0.342158	7.36741e+06	-50739.1	955.818	-29755	0.000000	0.000000	6.342842	0.028256	NaN	0.000000	0.001572	0.001738	28.0794	0.044349	0.002040	21.7375	-99.3452	-164.516	0.002080	0.340879	-0.760900	-0.762179	0.028256	21.7375	-0.761875	-1.363963E+10	-2.071586E-12	NaN
242	1.000000	0.352198	7.36741e+06	-50739.1	955.819	-29755	0.000000	0.000000	6.352879	-0.029229	NaN	0.000000	0.001579	0.001748	28.0792	0.028712	0.001839	15.6146	61.3796	14.9823	-0.014354	0.350900	-0.750860	-0.752158	-0.029229	15.6146	-0.749456	-9.242986E+9	3.162333E-12	NaN
242	1.000000	0.362217	7.36741e+06	-50739.1	955.819	-29755	0.000000	0.000000	6.362897	-0.063831	NaN	0.000000	0.001602	0.001757	28.079	0.060780	0.002077	29.2583	-122.836	-167.801	-0.055682	0.360907	-0.740840	-0.742150	-0.063831	29.2583	-0.739204	-6.702178E+9	9.523920E-12	NaN
242	1.000000	0.372208	7.36741e+06	-50739.1	955.818	-29755	0.000000	0.000000	6.372890	-0.013365	NaN	0.000000	0.001559	0.001723	28.0791	0.089671	0.002107	42.5638	-76.1424	16.907	-0.088483	0.370841	-0.730850	-0.732216	-0.013365	42.5638	-0.730614	-5.118943E+9	2.610921E-12	NaN
242	1.000000	0.382219	7.36741e+06	-50739.1	955.819	-29755	0.000000	0.000000	6.382901	-0.033151	NaN	0.000000	0.001578	0.001761	28.079	0.048664	0.001936	25.1357	72.707	-162.454	-0.007471	0.380875	-0.720838	-0.722183	-0.033151	25.1357	-0.719849	-3.651024E+9	9.079989E-12	NaN
242	1.000000	0.392213	7.36741e+06	-50739.1	955.818	-29755	0.000000	0.000000	6.392894	-0.059978	NaN	0.000000	0.001546	0.001725	28.0788	0.101470	0.002115	47.9763	154.038	16.9012	-0.055913	0.390806	-0.710844	-0.712252	-0.059978	47.9763	-0.709907	-2.671633E+9	2.244999E-11	NaN
242	1.000000	0.402208	7.36741e+06	-50739.1	955.818	-29755	0.000000	0.000000	6.402889	-0.028245	NaN	0.000000	0.001652	0.001720	28.0789	0.060183	0.001861	32.3435	96.6626	-163.635	-0.081210	0.400852	-0.700850	-0.702205	-0.028245	32.3435	-0.700195	-1.968757E+9	1.434681E-11	NaN
242	1.000000	0.412217	7.36741e+06	-50739.1	955.818	-29755	0.000000	0.000000	6.412898	-0.047811	NaN	0.000000	0.001626	0.001692	28.0792	0.086976	0.001969	44.1824	115.512	15.8522	-0.000347	0.410872	-0.690840	-0.692185	-0.047811	44.1824	-0.690029	-1.429917E+9	3.343599E-11	NaN
242	1.000000	0.422213	7.36741e+06	-50739.1	955.817	-29755	0.000000	0.000000	6.422897	0.028614	NaN	0.000000	0.001651	0.001744	28.0789	0.021918	0.001916	11.4366	43.2379	-165.483	-0.043516	0.420914	-0.680844	-0.682143	0.028614	11.4366	-0.682721	-1.136093E+9	-2.518607E-11	NaN
242	1.000000	0.432231	7.36742e+06	-50739.1	955.818	-29755	0.000000	0.000000	6.432909	-0.092239	NaN	0.000000	0.001630	0.001721	28.0788	0.030229	0.002160	13.9938	-30.9469	12.3205	-0.110627	0.430900	-0.670827	-0.672158	-0.092239	13.9938	-0.665884	-6.684083E+8	1.379974E-10	NaN
242	1.000000	0.442208	7.36742e+06	-50739.1	955.819	-29755	0.000000	0.000000	6.442891	0.003416	NaN	0.000000	0.001634	0.001722	28.0788	0.021890	0.002019	10.8436	105.006	-163.734	0.026484	0.440899	-0.660849	-0.662158	0.003416	10.8436	-0.661085	-5.745614E+8	-5.944828E-12	NaN
242	1.000000	0.452207	7.36742e+06	-50739.1	955.819	-29755	0.000000	0.000000	6.452887	-0.074564	NaN	0.000000	0.001650	0.001694	28.0781	0.078081	0.001935	40.3579	74.8414	15.4712	-0.105308	0.450826	-0.650851	-0.652231	-0.074564	40.3579	-0.649465	-3.982014E+8	1.872516E-10	NaN
242	1.000000	0.462252	7.36742e+06	-50739.1	955.819	-29755	0.000000	0.000000	6.462936	0.038428	NaN	0.000000	0.001667	0.001732	28.0774	0.091197	0.001858	49.0788	25.5328	-164.015	0.011470	0.460943	-0.640806	-0.642114	0.038428	49.0788	-0.641393	-3.086069E+8	-1.245223E-10	NaN
242	1.000000	0.472224	7.36742e+06	-50739.1	955.819	-29755	0.000000	0.000000	6.472906	-0.022466	NaN	0.000000	0.001607	0.001720	28.0776	0.040771	0.002018	20.2045	-32.0582	17.7706	-0.172733	0.470938	-0.630834	-0.632119	-0.022466	20.2045	-0.630000	-2.152881E+8	1.043525E-10	NaN
242	1.000000	0.482249	7.36742e+06	-50739.1	955.819	-29755	0.000000	0.000000	6.482932	-0.013649	NaN	0.000000	0.001633	0.001703	28.0778	0.122645	0.002026	60.527	147.741	-163.889	-0.094695	0.480948	-0.620808	-0.622110	-0.013649	60.527	-0.620639	-1.601097E+8	8.524603E-11	NaN
242	1.000000	0.492279	7.36742e+06	-50739.1	955.818	-29755	0.000000	0.000000	6.492962	0.007989	NaN	0.000000	0.001581	0.001765	28.0777	0.072603	0.002072	35.0365	153.532	13.241	-0.047447	0.490872	-0.610778	-0.612186	0.007989	35.0365	-0.610949	-1.178083E+8	-6.781246E-11	NaN
242	1.000000	0.502249	7.36742e+06	-50739.1	955.818	-29755	0.000000	0.000000	6.502930	-0.049690	NaN	0.000000	0.001570	0.001735	28.0777	0.067214	0.001973	34.0686	19.6274	-166.78	-0.081565	0.500973	-0.600809	-0.602085	-0.049690	34.0686	-0.599715	-8.251530E+7	6.021912E-10	NaN
242	1.000000	0.512253	7.36742e+06	-50739.1	955.819	-29755	0.000000	0.000000	6.512936	0.013284	NaN	0.000000	0.001529	0.001682	28.0776	0.089660	0.001960	45.7482	6.497721	13.6304	-0.036987	0.510949	-0.590805	-0.592109	0.013284	45.7482	-0.591023	-6.262771E+7	-2.121036E-10	NaN
242	1.000000	0.522261	7.36742e+06	-50739.1	955.818	-29755	0.000000	0.000000	6.522941	-0.048408	NaN	0.000000	0.001554	0.001719	28.0779	0.059934	0.001992	30.0945	167.269	-162.67	-0.069977	0.520954	-0.580797	-0.582103	-0.048408	30.0945	-0.579591	-4.355890E+7	1.111328E-9	NaN
242	1.000000	0.532260	7.36742e+06	-50739.1	955.818	-29755	0.000000	0.000000	6.532943	5.455194E-5	NaN	0.000000	0.001561	0.001697	28.0778	0.041796	0.002036	20.5271	170.324	14.5526	-0.031669	0.530924	-0.570798	-0.572133	5.455194E-5	20.5271	-0.570800	-3.293683E+7	-1.656260E-12	NaN
242	1.000000	0.542286	7.36742e+06	-50739.1	955.818	-29755	0.000000	0.000000	6.542968	-0.030408	NaN	0.000000	0.001643	0.001693	28.0776	0.036625	0.001934	18.9331	154.877	-165.553	-0.028221	0.541023	-0.560771	-0.562034	-0.030408	18.9331	-0.559567	-2.303489E+7	1.320098E-9	NaN
242	1.000000	0.552279	7.36742e+06	-50739.1	955.82	-29755	0.000000	0.000000	6.552956	-0.129187	NaN	0.000000	0.001597	0.001735	28.0777	0.048132	0.002007	23.9807	-92.036	13.8883	-0.113335	0.550917	-0.550779	-0.552140	-0.129187	23.9807	-0.546739	-1.530289E+7	8.442021E-9	NaN
242	1.000000	0.562252	7.36742e+06	-50739.1	955.818	-29755	0.000000	0.000000	6.562934	-0.018336	NaN	0.000000	0.001555	0.001710	28.0779	0.105793	0.001988	53.226	-52.5503	-167.071	-0.021081	0.560962	-0.540806	-0.542096	-0.018336	53.226	-0.540547	-1.255880E+7	1.459974E-9	NaN
242	1.000000	0.572309	7.36742e+06	-50739.1	955.817	-29755	0.000000	0.000000	6.572991	0.004453	NaN	0.000000	0.001560	0.001706	28.0778	0.049470	0.001959	25.2524	5.609340	15.2362	0.003620	0.570904	-0.530749	-0.532153	0.004453	25.2524	-0.530881	-9.2218e+06	-4.828484E-10	NaN
242	1.000000	0.582280	7.36742e+06	-50739.1	955.818	-29755	0.000000	0.000000	6.582963	0.001955	NaN	0.000000	0.001571	0.001687	28.0779	0.057904	0.001939	29.8609	91.8944	-166.959	0.019632	0.580996	-0.520778	-0.522062	0.001955	29.8609	-0.520827	-6.68493e+06	-2.924211E-10	NaN
242	1.000000	0.592327	7.36742e+06	-50739.1	955.818	-29755	0.000000	0.000000	6.593007	-0.048996	NaN	0.000000	0.001566	0.001716	28.0793	0.097277	0.001981	49.1169	93.3539	15.1559	-0.109278	0.590988	-0.510731	-0.512070	-0.048996	49.1169	-0.509983	-4.72255e+06	1.037497E-8	NaN
242	1.000000	0.602326	7.36742e+06	-50739.1	955.819	-29755	0.000000	0.000000	6.603007	-0.037973	NaN	0.000000	0.001578	0.001713	28.0791	0.048287	0.001909	25.2928	130.546	-162.13	-0.053808	0.600938	-0.500732	-0.502119	-0.037973	25.2928	-0.499606	-3.38471e+06	1.121895E-8	NaN
242	1.000000	0.612295	7.36742e+06	-50739.1	955.819	-29755	0.000000	0.000000	6.612976	-0.038937	NaN	0.000000	0.001518	0.001687	28.0789	0.102728	0.002049	50.1348	179.567	15.6766	-0.045814	0.610945	-0.490762	-0.492113	-0.038937	50.1348	-0.490180	-2.49982e+06	1.557582E-8	NaN
242	1.000000	0.622279	7.36742e+06	-50739.1	955.819	-29755	0.000000	0.000000	6.622964	0.043159	NaN	0.000000	0.001549	0.001707	28.079	0.078906	0.002015	39.1656	-167.492	-163.428	-0.043617	0.620946	-0.480778	-0.482112	0.043159	39.1656	-0.481605	-1.89666e+06	-2.275517E-8	NaN
242	1.000000	0.632318	7.36742e+06	-50739.1	955.818	-29755	0.000000	0.000000	6.633000	-0.020629	NaN	0.000000	0.001593	0.001688	28.0794	0.112020	0.001948	57.4943	-45.7706	15.2968	-0.003781	0.631012	-0.470740	-0.472046	-0.020629	57.4943	-0.470470	-1.32436e+06	1.557698E-8	NaN
242	1.000000	0.642314	7.36742e+06	-50739.1	955.819	-29755	0.000000	0.000000	6.642997	0.014474	NaN	0.000000	0.001581	0.001693	28.079	0.022496	0.001986	11.3299	115.6	-167.54	0.014147	0.641001	-0.460744	-0.462057	0.014474	11.3299	-0.461702	-997537	-1.450986E-8	NaN
242	1.000000	0.652316	7.36742e+06	-50739.1	955.819	-29755	0.000000	0.000000	6.652998	-0.022560	NaN	0.000000	0.001570	0.001698	28.0791	0.098046	0.002039	48.0747	-138.816	13.2298	-0.049860	0.650991	-0.450741	-0.452067	-0.022560	48.0747	-0.450389	-691555	3.262251E-8	NaN
242	1.000000	0.662345	7.36742e+06	-50739.1	955.818	-29755	0.000000	0.000000	6.663026	-0.039736	NaN	0.000000	0.001587	0.001690	28.079	0.099573	0.001923	51.7793	101.417	-169.024	-0.086589	0.661020	-0.440713	-0.442037	-0.039736	51.7793	-0.440137	-495789	8.014714E-8	NaN
242	1.000000	0.672336	7.36742e+06	-50739.1	955.818	-29755	0.000000	0.000000	6.673012	-0.153581	NaN	0.000000	0.001612	0.001694	28.0791	0.125827	0.002030	61.9822	14.486	15.3745	-0.092070	0.670959	-0.430722	-0.432098	-0.153581	61.9822	-0.428864	-343547	4.470449E-7	NaN
242	1.000000	0.682335	7.36742e+06	-50739.1	955.819	-29755	0.000000	0.000000	6.683014	-0.085291	NaN	0.000000	0.001632	0.001699	28.079	0.044930	0.002016	22.2855	-89.5135	-166.121	-0.037229	0.681017	-0.420723	-0.422041	-0.085291	22.2855	-0.417853	-239856	3.555948E-7	NaN
242	1.000000	0.692338	7.36742e+06	-50739.1	955.818	-29755	0.000000	0.000000	6.693019	-0.054146	NaN	0.000000	0.001600	0.001699	28.0789	0.066003	0.001979	33.3521	107.364	14.9667	-0.070781	0.690968	-0.410720	-0.412090	-0.054146	33.3521	-0.409502	-182523	2.966545E-7	NaN
242	1.000000	0.702321	7.36742e+06	-50739.1	955.819	-29755	0.000000	0.000000	6.703003	-0.018942	NaN	0.000000	0.001589	0.001696	28.0792	0.079274	0.002057	38.5341	-157.95	-163.785	0.022416	0.701026	-0.400736	-0.402031	-0.018942	38.5341	-0.400368	-135281	1.400206E-7	NaN
242	1.000000	0.712326	7.36742e+06	-50739.1	955.818	-29755	0.000000	0.000000	6.713007	-0.030101	NaN	0.000000	0.001578	0.001708	28.0789	0.055014	0.002103	26.1603	92.0665	20.2681	0.050743	0.711027	-0.390732	-0.392030	-0.030101	26.1603	-0.389869	-95784.2	3.142553E-7	NaN
242	1.000000	0.722356	7.36742e+06	-50739.1	955.818	-29755	0.000000	0.000000	6.723039	0.019724	NaN	0.000000	0.001591	0.001678	28.0788	0.057318	0.002063	27.7797	120.722	-163.801	0.016716	0.721032	-0.380702	-0.382025	0.019724	27.7797	-0.381234	-72044.4	-2.737795E-7	NaN
242	1.000000	0.732358	7.36742e+06	-50739.1	955.819	-29755	0.000000	0.000000	6.733038	-0.088258	NaN	0.000000	0.001573	0.001680	28.0777	0.052864	0.001972	26.8096	-26.3648	15.8747	-0.069260	0.731057	-0.370699	-0.372001	-0.088258	26.8096	-0.368230	-46841.6	1.884171E-6	NaN
242	1.000000	0.742350	7.36742e+06	-50739.1	955.818	-29755	0.000000	0.000000	6.743030	-0.052672	NaN	0.000000	0.001617	0.001661	28.0776	0.066035	0.002019	32.713	-178.785	-163.536	-0.037656	0.741029	-0.360708	-0.362028	-0.052672	32.713	-0.359501	-35044.9	1.503001E-6	NaN
242	1.000000	0.752361	7.36742e+06	-50739.1	955.818	-29755	0.000000	0.000000	6.753043	-0.016932	NaN	0.000000	0.001630	0.001702	28.0777	0.052069	0.002057	25.3127	97.585	12.5904	-0.022828	0.751005	-0.350697	-0.352053	-0.016932	25.3127	-0.350195	-25694.3	6.589607E-7	NaN
242	1.000000	0.762350	7.36742e+06	-50739.1	955.819	-29755	0.000000	0.000000	6.763032	-0.036331	NaN	0.000000	0.001640	0.001716	28.0779	0.071643	0.001944	36.8619	-94.5813	-164.765	-0.115316	0.761040	-0.340707	-0.342018	-0.036331	36.8619	-0.339968	-18242.7	1.991548E-6	NaN
242	1.000000	0.772373	7.36742e+06	-50739.1	955.819	-29755	0.000000	0.000000	6.773053	-0.051473	NaN	0.000000	0.001630	0.001699	28.0784	0.062514	0.002017	30.9995	163.375	17.8028	-0.026633	0.771004	-0.330685	-0.332054	-0.051473	30.9995	-0.329439	-12800.9	4.021040E-6	NaN
242	1.000000	0.782367	7.36742e+06	-50739.1	955.818	-29755	0.000000	0.000000	6.783046	-0.089628	NaN	0.000000	0.001663	0.001679	28.0778	0.072503	0.001951	37.1665	-74.1689	-164.469	-0.081987	0.781066	-0.320691	-0.321991	-0.089628	37.1665	-0.318882	-8957.44	1.000596E-5	NaN
242	1.000000	0.792391	7.36742e+06	-50739.1	955.819	-29755	0.000000	0.000000	6.793072	-0.036826	NaN	0.000000	0.001676	0.001693	28.0779	0.017209	0.001984	8.675193	167.18	14.413	-0.016752	0.791022	-0.310667	-0.312036	-0.036826	8.675193	-0.307483	-6078.28	6.058661E-6	NaN
242	1.000000	0.802380	7.36742e+06	-50739.1	955.819	-29755	0.000000	0.000000	6.803061	-0.045580	NaN	0.000000	0.001628	0.001716	28.0778	0.103777	0.001949	53.2567	-178.256	-165.215	-0.078585	0.801064	-0.300678	-0.301994	-0.045580	53.2567	-0.300036	-4711.61	9.674073E-6	NaN
242	1.000000	0.812409	7.36742e+06	-50739.1	955.819	-29755	0.000000	0.000000	6.813092	0.011666	NaN	0.000000	0.001623	0.001717	28.0781	0.120628	0.001991	60.5907	-92.8613	14.1056	-0.120237	0.811045	-0.290649	-0.292013	0.011666	60.5907	-0.290793	-3429.13	-3.401900E-6	NaN
242	1.000000	0.822386	7.36742e+06	-50739.1	955.819	-29755	0.000000	0.000000	6.823067	-0.045214	NaN	0.000000	0.001651	0.001794	28.0778	0.062547	0.001992	31.4034	41.5123	-164.415	-0.087023	0.821119	-0.280672	-0.281939	-0.045214	31.4034	-0.279592	-2327.1	1.942948E-5	NaN
242	1.000000	0.832408	7.36742e+06	-50739.1	955.818	-29755	0.000000	0.000000	6.833089	-0.063105	NaN	0.000000	0.001603	0.001738	28.078	0.071076	0.001981	35.8782	104.557	14.4769	-0.118881	0.831055	-0.270649	-0.272002	-0.063105	35.8782	-0.269330	-1626.89	3.878863E-5	NaN
242	1.000000	0.842433	7.36742e+06	-50739.1	955.819	-29755	0.000000	0.000000	6.843112	-0.090669	NaN	0.000000	0.001669	0.001683	28.078	0.082014	0.001974	41.555	33.6855	-166.621	-0.105051	0.841091	-0.260624	-0.261967	-0.090669	41.555	-0.258988	-1130.83	8.017879E-5	NaN
242	1.000000	0.852420	7.36742e+06	-50739.1	955.819	-29755	0.000000	0.000000	6.853100	-0.050129	NaN	0.000000	0.001605	0.001712	28.078	0.141046	0.002027	69.5808	34.0886	13.6163	-0.060542	0.851026	-0.250638	-0.252032	-0.050129	69.5808	-0.250098	-825.039	6.075910E-5	NaN
242	1.000000	0.862362	7.36742e+06	-50739.1	955.819	-29755	0.000000	0.000000	6.863043	-0.051768	NaN	0.000000	0.001646	0.001732	28.0789	0.116902	0.002052	56.9602	-96.2154	-168.343	-0.058520	0.861073	-0.240696	-0.241985	-0.051768	56.9602	-0.240014	-575.136	9.000931E-5	NaN
242	1.000000	0.872400	7.36742e+06	-50739.1	955.818	-29755	0.000000	0.000000	6.873079	-0.067950	NaN	0.000000	0.001615	0.001688	28.0791	0.121025	0.002041	59.306	113.472	12.2067	0.009948	0.871026	-0.230658	-0.232031	-0.067950	59.306	-0.229799	-397.503	0.000171	NaN
242	1.000000	0.882405	7.36742e+06	-50739.1	955.818	-29755	0.000000	0.000000	6.883084	-0.091418	NaN	0.000000	0.001594	0.001692	28.0793	0.113912	0.001947	58.5208	72.7961	-167.232	-0.045033	0.881117	-0.220652	-0.221941	-0.091418	58.5208	-0.219481	-272.505	0.000335	NaN
242	1.000000	0.892426	7.36742e+06	-50739.1	955.819	-29755	0.000000	0.000000	6.893104	-0.106405	NaN	0.000000	0.001636	0.001686	28.0789	0.061042	0.001936	31.5358	-179.301	14.7555	-0.107816	0.891052	-0.210632	-0.212006	-0.106405	31.5358	-0.208101	-178.662	0.000596	NaN
242	1.000000	0.902428	7.36742e+06	-50739.1	955.819	-29755	0.000000	0.000000	6.903110	-0.007819	NaN	0.000000	0.001603	0.001698	28.079	0.053125	0.001987	26.7377	2.805982	-166.478	0.006565	0.901113	-0.200630	-0.201945	-0.007819	26.7377	-0.200411	-133.797	5.844132E-5	NaN
242	1.000000	0.912411	7.36742e+06	-50739.1	955.818	-29755	0.000000	0.000000	6.913091	-0.057738	NaN	0.000000	0.001561	0.001727	28.0791	0.074579	0.001986	37.5463	131.553	16.3953	-0.053790	0.911092	-0.190647	-0.191966	-0.057738	37.5463	-0.189494	-88.2195	0.000654	NaN
242	1.000000	0.922453	7.36742e+06	-50739.1	955.818	-29755	0.000000	0.000000	6.923134	-0.052256	NaN	0.000000	0.001541	0.001722	28.0792	0.079738	0.002053	38.8432	47.6531	-166.632	0.005014	0.921109	-0.180605	-0.181949	-0.052256	38.8432	-0.179596	-60.0601	0.000870	NaN
242	1.000000	0.932424	7.36742e+06	-50739.1	955.818	-29755	0.000000	0.000000	6.933105	-0.044143	NaN	0.000000	0.001582	0.001732	28.0792	0.100142	0.001992	50.2816	-3.067617	16.5808	-0.015921	0.931056	-0.170633	-0.172002	-0.044143	50.2816	-0.169975	-41.0375	0.001076	NaN
242	1.000000	0.942422	7.36742e+06	-50739.1	955.818	-29755	0.000000	0.000000	6.943103	-0.035204	NaN	0.000000	0.001600	0.001714	28.0792	0.118433	0.002098	56.4499	-110.304	-163.056	-0.049664	0.941172	-0.160636	-0.161886	-0.035204	56.4499	-0.160168	-27.6039	0.001275	NaN
242	1.000000	0.952417	7.36742e+06	-50739.1	955.818	-29755	0.000000	0.000000	6.953097	-0.060449	NaN	0.000000	0.001590	0.001705	28.0792	0.032726	0.001979	16.5334	121.298	12.3658	-0.061237	0.951062	-0.150641	-0.151996	-0.060449	16.5334	-0.147899	-16.5793	0.003646	NaN
242	1.000000	0.962434	7.36742e+06	-50739.1	955.818	-29755	0.000000	0.000000	6.963112	-0.104963	NaN	0.000000	0.001574	0.001713	28.0792	0.026143	0.001929	13.5549	-107.198	-164.997	-0.089599	0.961121	-0.140624	-0.141937	-0.104963	13.5549	-0.134817	-9.435954	0.011124	NaN
242	1.000000	0.972473	7.36742e+06	-50739.1	955.819	-29755	0.000000	0.000000	6.973155	-0.019881	NaN	0.000000	0.001553	0.001723	28.079	0.080748	0.002008	40.2116	-112.157	14.5192	-0.003215	0.971093	-0.130584	-0.131965	-0.019881	40.2116	-0.130214	-7.694122	0.002584	NaN
242	1.000000	0.982461	7.36742e+06	-50739.1	955.82	-29755	0.000000	0.000000	6.983139	-0.104301	NaN	0.000000	0.001604	0.001748	28.0792	0.042984	0.002000	21.4874	34.3008	-166.558	-0.147956	0.981163	-0.120597	-0.121894	-0.104301	21.4874	-0.116956	-4.190499	0.024890	NaN
242	1.000000	0.992468	7.36742e+06	-50739.1	955.82	-29755	0.000000	0.000000	6.993149	-0.045952	NaN	0.000000	0.001596	0.001738	28.0792	0.088739	0.002047	43.3509	-165.002	16.0023	0.034247	0.991151	-0.110590	-0.111907	-0.045952	43.3509	-0.109795	-2.975371	0.015444	NaN
242	1.000000	1.002449	7.36742e+06	-50739.1	955.82	-29755	0.000000	0.000000	7.003131	-0.012549	NaN	0.000000	0.001555	0.001714	28.0778	0.059658	0.002058	28.9891	-23.1156	-163.677	-0.073152	1.001203	-0.100609	-0.101855	-0.012549	28.9891	-0.100284	-1.853796	0.006769	NaN
242	1.000000	1.012470	7.36742e+06	-50739.1	955.819	-29755	0.000000	0.000000	7.013151	-0.039574	NaN	0.000000	0.001578	0.001710	28.078	0.048726	0.002081	23.4159	-30.145	16.4684	-0.074039	1.011138	-0.090588	-0.091920	-0.039574	23.4159	-0.089320	-1.041912	0.037982	NaN
242	1.000000	1.022466	7.36742e+06	-50739.1	955.819	-29755	0.000000	0.000000	7.023148	-0.011538	NaN	0.000000	0.001588	0.001715	28.0778	0.060804	0.001996	30.4599	-110.518	-167.48	0.028873	1.021177	-0.080592	-0.081881	-0.011538	30.4599	-0.080307	-0.630035	0.018313	NaN
242	1.000000	1.032485	7.36742e+06	-50739.1	955.82	-29755	0.000000	0.000000	7.033168	0.008983	NaN	0.000000	0.001574	0.001717	28.0781	0.078585	0.002125	36.9813	-137.844	14.2603	0.013686	1.031147	-0.070573	-0.071910	0.008983	36.9813	-0.070755	-0.357319	-0.025141	NaN
242	1.000000	1.042488	7.36742e+06	-50739.1	955.82	-29755	0.000000	0.000000	7.043166	-0.116532	NaN	0.000000	0.001596	0.001713	28.0778	0.147261	0.001967	74.8816	-73.221	-166.208	-0.142151	1.041159	-0.060569	-0.061899	-0.116532	74.8816	-0.059402	-0.173106	0.673181	NaN
242	1.000000	1.052503	7.36742e+06	-50739.1	955.82	-29755	0.000000	0.000000	7.053184	-0.042293	NaN	0.000000	0.001580	0.001717	28.0779	0.125039	0.001963	63.684	-171.04	16.3061	0.003180	1.051132	-0.050555	-0.051925	-0.042293	63.684	-0.050057	-0.091614	0.461648	NaN
242	1.000000	1.062454	7.36742e+06	-50739.1	955.819	-29755	0.000000	0.000000	7.063135	-0.053668	NaN	0.000000	0.001588	0.001699	28.0781	0.071724	0.001961	36.5843	38.3008	-165.006	0.050438	1.061184	-0.040604	-0.041874	-0.053668	36.5843	-0.039503	-0.043680	1.228662	NaN
242	1.000000	1.072477	7.36742e+06	-50739.1	955.82	-29755	0.000000	0.000000	7.073158	-0.041776	NaN	0.000000	0.001600	0.001715	28.0781	0.128580	0.001960	65.602	-65.6884	14.3686	0.018105	1.071172	-0.030581	-0.031886	-0.041776	65.602	-0.030104	-0.023166	1.803328	NaN
242	1.000000	1.082490	7.36742e+06	-50739.1	955.82	-29755	0.000000	0.000000	7.083173	0.000619	NaN	0.000000	0.001582	0.001726	28.0781	0.072305	0.001966	36.7722	13.4782	-166.149	0.021139	1.081229	-0.020567	-0.021829	0.000619	36.7722	-0.020580	-0.012995	-0.047670	NaN
242	1.000000	1.092505	7.36742e+06	-50739.1	955.821	-29755	0.000000	0.000000	7.093184	-0.076532	NaN	0.000000	0.001637	0.001723	28.0779	0.180307	0.001901	94.8407	129.301	13.2475	-0.021353	1.091153	-0.010553	-0.011905	-0.076532	94.8407	-0.009948	-0.006357	12.0383	NaN
242	1.000000	1.102520	7.36742e+06	-50739.1	955.82	-29755	0.000000	0.000000	7.103200	-0.069884	NaN	0.000000	0.001672	0.001728	28.0784	0.203600	0.002009	101.319	35.8965	-164.599	-0.140224	1.101198	-0.000538	-0.001860	-0.069884	101.319	-2.047578E-5	-1.529569E-5	4568.84	NaN
242	1.000000	1.112417	7.36742e+06	-50739.1	955.82	-29755	0.000000	0.000000	7.113398	7.246630	NaN	0.000000	0.001620	0.001729	28.0782	7.361740	0.001769	4162.12	12.549	8.853838	5.785853	1.111150	0.009360	0.008092	7.246630	4162.12	0.008054	0.007098	1020.98	45136.6
242	2.000000	1.116056	7.36742e+06	-50739.1	955.82	-29755	0.000000	0.000000	7.117219	11.6829	NaN	0.000000	0.001661	0.001753	28.0785	11.5767	0.001779	6507.53	6.810917	-173.286	10.5832	1.115802	0.012999	0.012744	11.6829	6507.53	0.011652	0.011076	1054.8	56493.6
242	2.000000	1.118610	7.36742e+06	-50739.1	955.82	-29755	0.000000	0.000000	7.119929	15.4733	NaN	0.000000	0.001646	0.001744	28.0782	13.8886	0.001734	8008.5	8.341641	4.228966	14.8788	1.118176	0.015552	0.015119	15.4733	8008.5	0.014103	0.014108	1096.77	61601.5
242	2.000000	1.120999	7.36742e+06	-50739.1	955.821	-29755	0.000000	0.000000	7.122619	22.8084	NaN	0.000000	0.001646	0.001737	28.08	16.7507	0.001759	9521.8	4.672726	-175.531	20.4985	1.120701	0.017941	0.017643	22.8084	9521.8	0.016145	0.016842	1354.26	67034
242	2.000000	1.123494	7.36742e+06	-50739.1	955.82	-29755	0.000000	0.000000	7.125204	24.9849	NaN	0.000000	0.001639	0.001700	28.0794	19.4632	0.001792	10861.1	7.112685	0.820679	23.5061	1.123186	0.020436	0.020128	24.9849	10861.1	0.018711	0.020557	1215.37	69209.4
242	2.000000	1.125998	7.36742e+06	-50739.1	955.82	-29755	0.000000	0.000000	7.127871	28.9533	NaN	0.000000	0.001642	0.001702	28.0803	22.1493	0.001861	11898.8	5.285862	-176.985	26.6957	1.125649	0.022940	0.022591	28.9533	11898.8	0.021115	0.024325	1190.25	69701.8
242	2.000000	1.128510	7.36742e+06	-50739.1	955.82	-29755	0.000000	0.000000	7.130863	40.6199	NaN	0.000000	0.001645	0.001731	28.0793	23.9954	0.001772	13538.1	5.274627	2.103101	39.0449	1.128144	0.025453	0.025086	40.6199	13538.1	0.023202	0.027826	1459.78	74148.9
242	2.000000	1.130968	7.36742e+06	-50739.1	955.821	-29755	0.000000	0.000000	7.133536	45.8605	NaN	0.000000	0.001620	0.001726	28.0802	26.6447	0.001767	15081.7	1.517286	-175.319	44.1629	1.130633	0.027910	0.027575	45.8605	15081.7	0.025629	0.032171	1425.53	76823.2
242	2.000000	1.133494	7.36742e+06	-50739.1	955.82	-29755	0.000000	0.000000	7.136256	50.5687	NaN	0.000000	0.001658	0.001696	28.0794	30.2367	0.001745	17324.4	6.780822	-2.118894	49.1792	1.133154	0.030436	0.030096	50.5687	17324.4	0.028247	0.037188	1359.81	82078.4
242	2.000000	1.136020	7.36742e+06	-50739.1	955.82	-29755	0.000000	0.000000	7.139150	59.5112	NaN	0.000000	0.001651	0.001740	28.0802	33.559	0.001943	17274.4	11.4613	174.964	60.5945	1.135657	0.032962	0.032600	59.5112	17274.4	0.030378	0.041532	1432.91	77443.6
242	2.000000	1.138482	7.36742e+06	-50739.1	955.82	-29755	0.000000	0.000000	7.141878	65.9816	NaN	0.000000	0.001637	0.001723	28.0792	34.693	0.001747	19853	3.967983	-0.180525	63.6824	1.138056	0.035424	0.034999	65.9816	19853	0.032932	0.047040	1402.67	83630.5
242	2.000000	1.140938	7.36742e+06	-50739.1	955.82	-29755	0.000000	0.000000	7.144777	76.7712	NaN	0.000000	0.001586	0.001745	28.0797	36.6697	0.001861	19707.6	5.786089	177.78	73.6838	1.140676	0.037880	0.037619	76.7712	19707.6	0.034958	0.051649	1486.4	79227.5
242	2.000000	1.143462	7.36742e+06	-50739.1	955.821	-29755	0.000000	0.000000	7.147451	80.3812	NaN	0.000000	0.001567	0.001738	28.0792	39.3714	0.001692	23274.7	6.520896	-5.569005	78.4412	1.143221	0.040405	0.040163	80.3812	23274.7	0.037815	0.058502	1373.98	87916.6
242	2.000000	1.145971	7.36742e+06	-50739.1	955.821	-29755	0.000000	0.000000	7.150413	91.4227	NaN	0.000000	0.001554	0.001710	28.0796	43.0985	0.001845	23355	4.938326	177.223	90.1287	1.145663	0.042913	0.042605	91.4227	23355	0.039977	0.063970	1429.15	84365.5
242	2.000000	1.148462	7.36742e+06	-50739.1	955.821	-29755	0.000000	0.000000	7.153405	103.582	NaN	0.000000	0.001585	0.001719	28.0793	43.8349	0.001813	24176.9	3.196169	-0.402450	100.371	1.148051	0.045405	0.044993	103.582	24176.9	0.042191	0.069814	1483.68	83599.1
242	2.000000	1.150947	7.36742e+06	-50739.1	955.821	-29755	0.000000	0.000000	7.156187	110.83	NaN	0.000000	0.001579	0.001732	28.0797	46.0896	0.001752	26307.2	2.969050	178.018	108.606	1.150649	0.047889	0.047592	110.83	26307.2	0.044729	0.076820	1442.72	86718.2
242	2.000000	1.153442	7.36742e+06	-50739.1	955.821	-29755	0.000000	0.000000	7.159320	126.36	NaN	0.000000	0.001559	0.001716	28.078	50.0019	0.001699	29434	5.064719	-5.948232	121.896	1.153002	0.050384	0.049944	126.36	29434	0.047164	0.083849	1506.99	92869.4
242	2.000000	1.155892	7.36742e+06	-50739.1	955.821	-29755	0.000000	0.000000	7.162195	136.668	NaN	0.000000	0.001585	0.001741	28.0783	53.1904	0.001887	28183.5	5.246945	174.691	132.821	1.155680	0.052834	0.052622	136.668	28183.5	0.049197	0.089948	1519.42	85856.4
242	2.000000	1.158543	7.36742e+06	-50739.1	955.821	-29755	0.000000	0.000000	7.165352	148.999	NaN	0.000000	0.001582	0.001739	28.0778	55.5816	0.001878	29597.1	6.675267	-5.297000	153.369	1.158095	0.055485	0.055038	148.999	29597.1	0.051709	0.097769	1523.98	86481.2
242	2.000000	1.160893	7.36742e+06	-50739.1	955.822	-29755	0.000000	0.000000	7.168188	160.812	NaN	0.000000	0.001579	0.001747	28.0781	57.0484	0.001765	32318.8	3.044486	175.598	156.465	1.160552	0.057835	0.057495	160.812	32318.8	0.054103	0.105516	1524.06	90901.3
242	2.000000	1.163397	7.36742e+06	-50739.1	955.82	-29755	0.000000	0.000000	7.171481	179.99	NaN	0.000000	0.001590	0.001772	28.0779	59.5467	0.001867	31894.5	3.201058	-3.328890	174.581	1.163000	0.060339	0.059942	179.99	31894.5	0.056106	0.112218	1603.93	86987.8
242	2.000000	1.165943	7.36742e+06	-50739.1	955.821	-29755	0.000000	0.000000	7.174242	185.223	NaN	0.000000	0.001587	0.001735	28.0781	62.9614	0.001910	32958	4.229643	174.94	184.394	1.165750	0.062885	0.062692	185.223	32958	0.058670	0.121082	1529.73	86535.4
242	2.000000	1.168545	7.36742e+06	-50739.1	955.82	-29755	0.000000	0.000000	7.177388	198.418	NaN	0.000000	0.001563	0.001718	28.0779	64.3796	0.001827	35238.9	5.314258	-6.382998	200.127	1.168176	0.065488	0.065118	198.418	35238.9	0.061265	0.130382	1521.82	89163.1
242	2.000000	1.171051	7.36742e+06	-50739.1	955.821	-29755	0.000000	0.000000	7.180485	212.809	NaN	0.000000	0.001541	0.001681	28.0781	66.6576	0.001830	36432.9	5.372772	172.976	219.748	1.170631	0.067993	0.067573	212.809	36432.9	0.063612	0.139079	1530.12	89255.6
242	2.000000	1.173372	7.36742e+06	-50739.1	955.821	-29755	0.000000	0.000000	7.183600	232.121	NaN	0.000000	0.001550	0.001714	28.0779	68.6068	0.001799	38144.1	2.859218	-5.145060	226.887	1.173093	0.070314	0.070035	232.121	38144.1	0.065750	0.147231	1576.58	90824.2
242	2.000000	1.175930	7.36742e+06	-50739.1	955.821	-29755	0.000000	0.000000	7.186818	248.177	NaN	0.000000	0.001588	0.001683	28.0782	71.4836	0.001743	41011.7	4.121549	173.949	248.051	1.175643	0.072872	0.072585	248.177	41011.7	0.068334	0.157375	1576.98	94452.4
242	2.000000	1.178426	7.36742e+06	-50739.1	955.82	-29755	0.000000	0.000000	7.190131	268.048	NaN	0.000000	0.001578	0.001714	28.0781	73.1571	0.001784	41005.4	6.370447	-8.759683	266.951	1.178047	0.075368	0.074989	268.048	41005.4	0.070466	0.165987	1614.88	91955.4
242	2.000000	1.180872	7.36742e+06	-50739.1	955.821	-29755	0.000000	0.000000	7.193378	287.529	NaN	0.000000	0.001582	0.001734	28.0781	74.7441	0.001794	41658.9	3.840244	174.193	283.838	1.180518	0.077814	0.077460	287.529	41658.9	0.072637	0.174982	1643.19	90988.1
242	2.000000	1.183392	7.36742e+06	-50739.1	955.821	-29755	0.000000	0.000000	7.196467	301.354	NaN	0.000000	0.001587	0.001719	28.0778	77.6996	0.001877	41394.2	11.4307	-13.7305	295.588	1.183051	0.080334	0.079994	301.354	41394.2	0.074874	0.184477	1633.56	88052.4
242	2.000000	1.185871	7.36742e+06	-50739.1	955.822	-29755	0.000000	0.000000	7.199613	317.584	NaN	0.000000	0.001585	0.001740	28.0781	79.83	0.001742	45829.7	6.007021	170.842	314.184	1.185603	0.082813	0.082546	317.584	45829.7	0.077616	0.196439	1616.7	94472.5
242	2.000000	1.188477	7.36742e+06	-50739.1	955.821	-29755	0.000000	0.000000	7.203033	337.362	NaN	0.000000	0.001574	0.001674	28.0792	81.2872	0.001794	45322.3	3.495690	-6.573620	336.12	1.188115	0.085419	0.085058	337.362	45322.3	0.079836	0.206387	1634.61	91147.4
242	2.000000	1.190930	7.36742e+06	-50739.1	955.822	-29755	0.000000	0.000000	7.206144	353.38	NaN	0.000000	0.001600	0.001733	28.0792	83.7603	0.001750	47864	6.590792	169.683	353.498	1.190536	0.087872	0.087479	353.38	47864	0.082335	0.217852	1622.11	93691.7
242	2.000000	1.193440	7.36742e+06	-50739.1	955.822	-29755	0.000000	0.000000	7.209422	372.031	NaN	0.000000	0.001586	0.001674	28.079	86.8075	0.001766	49166.6	2.297946	-6.384489	368.261	1.192963	0.090383	0.089906	372.031	49166.6	0.084708	0.229009	1624.52	93867.9
242	2.000000	1.195832	7.36742e+06	-50739.1	955.823	-29755	0.000000	0.000000	7.212515	389.09	NaN	0.000000	0.001560	0.001704	28.0791	90.9998	0.001900	47901.6	3.723849	172.425	383.958	1.195599	0.092774	0.092541	389.09	47901.6	0.086682	0.238492	1631.46	89616.3
242	2.000000	1.198408	7.36742e+06	-50739.1	955.823	-29755	0.000000	0.000000	7.215963	410.316	NaN	0.000000	0.001605	0.001696	28.079	91.8902	0.001843	49851.7	3.668818	-6.541587	406.312	1.198012	0.095350	0.094955	410.316	49851.7	0.089177	0.250728	1636.5	90960.1
242	2.000000	1.200936	7.36742e+06	-50739.1	955.823	-29755	0.000000	0.000000	7.219108	425.281	NaN	0.000000	0.001555	0.001730	28.0791	94.4476	0.001696	55702	3.774585	171.348	424.867	1.200629	0.097879	0.097572	425.281	55702	0.092153	0.265699	1600.61	98729.9
242	2.000000	1.203537	7.36742e+06	-50739.1	955.823	-29755	0.000000	0.000000	7.222323	440.222	NaN	0.000000	0.001553	0.001675	28.0789	96.9813	0.001765	54956	4.030064	-8.433789	444.769	1.203227	0.100479	0.100169	440.222	54956	0.094472	0.277647	1585.55	95288.7
242	2.000000	1.205876	7.36742e+06	-50739.1	955.824	-29755	0.000000	0.000000	7.225699	465.46	NaN	0.000000	0.001545	0.001699	28.0792	101.1	0.001869	54080.9	6.252962	169.954	463.484	1.205528	0.102818	0.102470	465.46	54080.9	0.096363	0.287574	1618.57	92138.7
242	2.000000	1.208389	7.36742e+06	-50739.1	955.822	-29755	0.000000	0.000000	7.229431	495.082	NaN	0.000000	0.001584	0.001727	28.079	101.747	0.001735	58652.3	6.555066	-11.4807	489.782	1.207974	0.105332	0.104916	495.082	58652.3	0.099001	0.301690	1641.03	97561.4
242	2.000000	1.210874	7.36742e+06	-50739.1	955.822	-29755	0.000000	0.000000	7.232658	513.133	NaN	0.000000	0.001571	0.001714	28.0791	102.821	0.001680	61203.2	3.976153	170.505	511.752	1.210639	0.107816	0.107581	513.133	61203.2	0.101528	0.315511	1626.36	99549.8
242	2.000000	1.212372	7.36742e+06	-50739.1	955.822	-29755	0.000000	0.000000	7.234692	526.153	NaN	0.000000	0.001552	0.001720	28.0793	105.954	0.001779	59548.2	3.207267	-8.212223	522.928	1.212156	0.109315	0.109099	526.153	59548.2	0.102688	0.321949	1634.27	95884.4