File: remote_trans/data/nanoindenter/0828-1/data/Data_2025-08-06,11h17m57s/2025-07-22_16-23-58_1_1122.txt
2025-07-22, 16:23:58, 1
Index	Phase	Displacement	Time	Pos X	Pos Y	Pos Z	Rot A	Rot B	Piezo Z	Force A	Force B	Gripper	Voltage A	Voltage B	Temperature	Amplitude force	Amplitude pos	Stiffness	Phase shift	Phase excitation	Force A raw	Displacement raw	HMax	HMax raw	Real Force	Real Stiffness	Contact Depth	Area	Hardness	Reduced Mod.
[#]	[#]	[um]	[s]	[um]	[um]	[um]	[m°]	[m°]	[um]	[uN]	[uN]	[V]	[V]	[V]	[°C]	[uN]	[um]	[N/m]	[°]	[°]	[uN]	[um]	[um]	[um]	[uN]	[N/m]	[um]	[um^2]	[MPa]	[MPa]
1122	1.000000	0.002884	7.37603e+06	-56239.1	1055.82	-29739.5	0.000000	0.000000	6.002777	0.057463	NaN	0.000000	0.001550	0.001753	28.0824	0.011047	0.000959	11.5189	-31.3102	-163.96	0.050090	0.001644	-1.000442	-1.001682	0.057463	11.5189	-1.004184	-2.582801E+13	-2.224846E-15	NaN
1122	1.000000	0.010864	7.37603e+06	-56239.1	1055.82	-29739.5	0.000000	0.000000	6.010755	-0.014361	NaN	0.000000	0.001565	0.001731	28.0821	0.073850	0.000884	83.545	30.7359	-162.504	-0.002736	0.009523	-0.992462	-0.993803	-0.014361	83.545	-0.992333	-1.788671E+13	8.028595E-16	NaN
1122	1.000000	0.018874	7.37603e+06	-56239.1	1055.82	-29739.5	0.000000	0.000000	6.018765	-0.008405	NaN	0.000000	0.001542	0.001770	28.0819	0.058449	0.001761	33.1998	49.1338	-165.546	-0.005106	0.017578	-0.984452	-0.985748	-0.008405	33.1998	-0.984262	-1.392594E+13	6.035163E-16	NaN
1122	1.000000	0.026908	7.37603e+06	-56239.1	1055.82	-29739.5	0.000000	0.000000	6.026798	-0.010694	NaN	0.000000	0.001546	0.001799	28.082	0.036596	0.001777	20.5905	-127.33	-163.41	-0.059628	0.025531	-0.976418	-0.977795	-0.010694	20.5905	-0.976029	-1.078717E+13	9.913616E-16	NaN
1122	1.000000	0.034858	7.37603e+06	-56239.1	1055.82	-29739.5	0.000000	0.000000	6.034750	0.019928	NaN	0.000000	0.001531	0.001741	28.0821	0.109404	0.001946	56.2295	-2.576671	-166.225	0.043459	0.033576	-0.968468	-0.969750	0.019928	56.2295	-0.968734	-8.601898E+12	-2.316735E-15	NaN
1122	1.000000	0.042858	7.37603e+06	-56239.1	1055.82	-29739.5	0.000000	0.000000	6.042750	0.029431	NaN	0.000000	0.001511	0.001711	28.0824	0.074887	0.001932	38.7557	174.023	-165.355	0.065197	0.041530	-0.960468	-0.961796	0.029431	38.7557	-0.961038	-6.774281E+12	-4.344493E-15	NaN
1122	1.000000	0.050834	7.37603e+06	-56239.1	1055.82	-29739.5	0.000000	0.000000	6.050724	-0.000978	NaN	0.000000	0.001575	0.001720	28.0823	0.058651	0.001909	30.726	41.6749	-164.553	0.007123	0.049560	-0.952492	-0.953766	-0.000978	30.726	-0.952469	-5.191811E+12	1.884193E-16	NaN
1122	1.000000	0.058861	7.37603e+06	-56239.1	1055.82	-29739.5	0.000000	0.000000	6.058751	-0.006708	NaN	0.000000	0.001571	0.001736	28.0826	0.061575	0.001950	31.5727	89.1321	-163.709	-0.029894	0.057554	-0.944465	-0.945772	-0.006708	31.5727	-0.944306	-4.029261E+12	1.664910E-15	NaN
1122	1.000000	0.066858	7.37603e+06	-56239.1	1055.82	-29739.5	0.000000	0.000000	6.066747	-0.029317	NaN	0.000000	0.001554	0.001753	28.0822	0.042321	0.002050	20.6419	60.4833	-165.901	0.005332	0.065519	-0.936468	-0.937807	-0.029317	20.6419	-0.935403	-3.055716E+12	9.594295E-15	NaN
1122	1.000000	0.074874	7.37603e+06	-56239.1	1055.82	-29739.5	0.000000	0.000000	6.074762	-0.067422	NaN	0.000000	0.001530	0.001725	28.0821	0.065793	0.002105	31.2611	-158.491	-164.095	0.035476	0.073547	-0.928452	-0.929779	-0.067422	31.2611	-0.926834	-2.341371E+12	2.879596E-14	NaN
1122	1.000000	0.082864	7.37603e+06	-56239.1	1055.82	-29739.5	0.000000	0.000000	6.082757	0.064809	NaN	0.000000	0.001594	0.001727	28.0825	0.117055	0.001981	59.0741	-48.763	-165.82	0.138291	0.081594	-0.920462	-0.921732	0.064809	59.0741	-0.921285	-1.970401E+12	-3.289121E-14	NaN
1122	1.000000	0.090908	7.37603e+06	-56239.1	1055.82	-29739.5	0.000000	0.000000	6.090800	0.031903	NaN	0.000000	0.001549	0.001744	28.0823	0.063224	0.002025	31.2195	23.4919	-163.442	0.037494	0.089570	-0.912418	-0.913756	0.031903	31.2195	-0.913185	-1.531716E+12	-2.082800E-14	NaN
1122	1.000000	0.098887	7.37603e+06	-56239.1	1055.82	-29739.5	0.000000	0.000000	6.098778	0.015178	NaN	0.000000	0.001555	0.001730	28.0821	0.026258	0.002035	12.9046	134.72	-163.361	0.069687	0.097495	-0.904439	-0.905832	0.015178	12.9046	-0.905322	-1.199404E+12	-1.265429E-14	NaN
1122	1.000000	0.106851	7.37603e+06	-56239.1	1055.82	-29739.5	0.000000	0.000000	6.106743	0.028490	NaN	0.000000	0.001567	0.001709	28.0821	0.115538	0.002057	56.1808	103.117	-165.891	0.034864	0.105581	-0.896475	-0.897745	0.028490	56.1808	-0.896855	-9.216652E+11	-3.091178E-14	NaN
1122	1.000000	0.114879	7.37603e+06	-56239.1	1055.82	-29739.5	0.000000	0.000000	6.114770	-0.002233	NaN	0.000000	0.001566	0.001757	28.0823	0.085382	0.001918	44.514	-125.933	-167.305	-0.048143	0.113617	-0.888447	-0.889709	-0.002233	44.514	-0.888409	-7.086143E+11	3.151578E-15	NaN
1122	1.000000	0.122892	7.37603e+06	-56239.1	1055.82	-29739.5	0.000000	0.000000	6.122784	0.009245	NaN	0.000000	0.001589	0.001773	28.0823	0.102275	0.001982	51.6045	153.489	-165.468	0.035139	0.121539	-0.880434	-0.881787	0.009245	51.6045	-0.880568	-5.551260E+11	-1.665339E-14	NaN
1122	1.000000	0.130880	7.37603e+06	-56239.1	1055.82	-29739.5	0.000000	0.000000	6.130771	0.003486	NaN	0.000000	0.001585	0.001751	28.0821	0.061612	0.001962	31.4036	-72.5475	-166.056	0.025157	0.129594	-0.872446	-0.873732	0.003486	31.4036	-0.872530	-4.321822E+11	-8.065280E-15	NaN
1122	1.000000	0.138866	7.37603e+06	-56239.1	1055.82	-29739.5	0.000000	0.000000	6.138756	-0.019685	NaN	0.000000	0.001671	0.001730	28.0812	0.046782	0.002005	23.3362	-119.635	-166.143	0.016958	0.137538	-0.864460	-0.865788	-0.019685	23.3362	-0.863827	-3.295482E+11	5.973301E-14	NaN
1122	1.000000	0.146868	7.37603e+06	-56239.1	1055.82	-29739.5	0.000000	0.000000	6.146758	-0.016501	NaN	0.000000	0.001640	0.001762	28.0809	0.050757	0.001967	25.8058	-135.309	-165.136	-0.016996	0.145568	-0.856458	-0.857758	-0.016501	25.8058	-0.855979	-2.580413E+11	6.394608E-14	NaN
1122	1.000000	0.154903	7.37603e+06	-56239.1	1055.82	-29739.5	0.000000	0.000000	6.154796	0.046577	NaN	0.000000	0.001644	0.001761	28.081	0.063162	0.001963	32.183	146.339	-164.896	0.058560	0.153570	-0.848423	-0.849756	0.046577	32.183	-0.849508	-2.108999E+11	-2.208479E-13	NaN
1122	1.000000	0.162908	7.37603e+06	-56239.1	1055.82	-29739.5	0.000000	0.000000	6.162796	-0.057155	NaN	0.000000	0.001644	0.001771	28.0805	0.049609	0.001813	27.3595	-115.509	-166.988	0.022664	0.161607	-0.840418	-0.841719	-0.057155	27.3595	-0.838851	-1.512628E+11	3.778493E-13	NaN
1122	1.000000	0.170906	7.37603e+06	-56239.1	1055.82	-29739.5	0.000000	0.000000	6.170798	0.034513	NaN	0.000000	0.001662	0.001791	28.0804	0.026661	0.001994	13.3717	-134.46	-164.91	0.029929	0.169604	-0.832420	-0.833722	0.034513	13.3717	-0.834356	-1.314667E+11	-2.625205E-13	NaN
1122	1.000000	0.178910	7.37603e+06	-56239.1	1055.82	-29739.5	0.000000	0.000000	6.178803	0.052329	NaN	0.000000	0.001665	0.001730	28.0809	0.014235	0.002075	6.859864	-33.2471	-165.434	0.050015	0.177554	-0.824416	-0.825772	0.052329	6.859864	-0.830138	-1.152525E+11	-4.540397E-13	NaN
1122	1.000000	0.186903	7.37603e+06	-56239.1	1055.82	-29739.5	0.000000	0.000000	6.186793	-0.019821	NaN	0.000000	0.001679	0.001736	28.0805	0.124923	0.002102	59.43	126.811	-166.666	-0.021397	0.185600	-0.816423	-0.817726	-0.019821	59.43	-0.816173	-7.452600E+10	2.659666E-13	NaN
1122	1.000000	0.194922	7.37603e+06	-56239.1	1055.82	-29739.5	0.000000	0.000000	6.194814	0.040511	NaN	0.000000	0.001632	0.001741	28.0809	0.088657	0.001949	45.4906	73.354	-163.826	0.090935	0.193610	-0.808404	-0.809716	0.040511	45.4906	-0.809072	-5.970138E+10	-6.785524E-13	NaN
1122	1.000000	0.202899	7.37603e+06	-56239.1	1055.82	-29739.5	0.000000	0.000000	6.202789	-0.003716	NaN	0.000000	0.001585	0.001756	28.0809	0.063024	0.002040	30.8989	92.9361	-163.294	-0.015436	0.201663	-0.800428	-0.801663	-0.003716	30.8989	-0.800337	-4.544032E+10	8.177337E-14	NaN
1122	1.000000	0.210901	7.37603e+06	-56239.1	1055.82	-29739.5	0.000000	0.000000	6.210793	0.038448	NaN	0.000000	0.001627	0.001758	28.0805	0.019356	0.001904	10.1639	6.173331	-163.645	0.049339	0.209601	-0.792425	-0.793725	0.038448	10.1639	-0.795262	-3.877416E+10	-9.915868E-13	NaN
1122	1.000000	0.218925	7.37603e+06	-56239.1	1055.82	-29739.5	0.000000	0.000000	6.218816	0.003512	NaN	0.000000	0.001620	0.001734	28.0808	0.056069	0.002035	27.5534	102.068	-166.614	-0.028346	0.217628	-0.784401	-0.785698	0.003512	27.5534	-0.784496	-2.769015E+10	-1.268470E-13	NaN
1122	1.000000	0.226882	7.37603e+06	-56239.1	1055.82	-29739.5	0.000000	0.000000	6.226773	-0.001575	NaN	0.000000	0.001611	0.001759	28.0805	0.082416	0.001946	42.3561	-39.5644	-164.828	-0.048043	0.225648	-0.776444	-0.777678	-0.001575	42.3561	-0.776416	-2.150432E+10	7.325307E-14	NaN
1122	1.000000	0.234943	7.37603e+06	-56239.1	1055.82	-29739.5	0.000000	0.000000	6.234836	0.047559	NaN	0.000000	0.001611	0.001765	28.0811	0.082496	0.002075	39.7491	-25.2708	-166.149	-0.008364	0.233625	-0.768383	-0.769701	0.047559	39.7491	-0.769281	-1.719989E+10	-2.765098E-12	NaN
1122	1.000000	0.242947	7.37603e+06	-56239.1	1055.82	-29739.5	0.000000	0.000000	6.242837	-0.023806	NaN	0.000000	0.001586	0.001748	28.0807	0.062640	0.001961	31.9487	-130.265	-164.351	0.022485	0.241636	-0.760379	-0.761690	-0.023806	31.9487	-0.759820	-1.278956E+10	1.861362E-12	NaN
1122	1.000000	0.250952	7.37603e+06	-56239.1	1055.82	-29739.5	0.000000	0.000000	6.250842	-0.032324	NaN	0.000000	0.001657	0.001759	28.0808	0.052295	0.001946	26.8728	161.422	-167.201	-0.066246	0.249629	-0.752374	-0.753697	-0.032324	26.8728	-0.751472	-9.845873E+9	3.283016E-12	NaN
1122	1.000000	0.258948	7.37603e+06	-56239.1	1055.82	-29739.5	0.000000	0.000000	6.258840	0.030166	NaN	0.000000	0.001648	0.001756	28.0808	0.104942	0.001897	55.3241	123.149	-164.377	0.072585	0.257604	-0.744378	-0.745722	0.030166	55.3241	-0.744787	-7.984546E+9	-3.778096E-12	NaN
1122	1.000000	0.266938	7.37603e+06	-56239.1	1055.82	-29739.5	0.000000	0.000000	6.266828	-0.002509	NaN	0.000000	0.001636	0.001749	28.0805	0.098507	0.001969	50.0193	-156.476	-164.01	0.021473	0.265653	-0.736389	-0.737673	-0.002509	50.0193	-0.736351	-6.128412E+9	4.093784E-13	NaN
1122	1.000000	0.274935	7.37603e+06	-56239.1	1055.82	-29739.5	0.000000	0.000000	6.274824	-0.044267	NaN	0.000000	0.001583	0.001767	28.0817	0.124610	0.002042	61.0366	61.957	-161.564	-0.087347	0.273735	-0.728391	-0.729591	-0.044267	61.0366	-0.727847	-4.693098E+9	9.432354E-12	NaN
1122	1.000000	0.282965	7.37603e+06	-56239.1	1055.82	-29739.5	0.000000	0.000000	6.282854	-0.055553	NaN	0.000000	0.001647	0.001760	28.0818	0.110202	0.001914	57.5733	-139.347	-164.172	-0.025148	0.281614	-0.720361	-0.721712	-0.055553	57.5733	-0.719637	-3.626838E+9	1.531724E-11	NaN
1122	1.000000	0.290944	7.37603e+06	-56239.1	1055.82	-29739.5	0.000000	0.000000	6.290834	-0.002368	NaN	0.000000	0.001646	0.001714	28.082	0.031952	0.001963	16.275	96.8974	-166.959	-0.001100	0.289636	-0.712382	-0.713690	-0.002368	16.275	-0.712273	-2.877859E+9	8.229896E-13	NaN
1122	1.000000	0.298984	7.37603e+06	-56239.1	1055.82	-29739.5	0.000000	0.000000	6.298876	0.017415	NaN	0.000000	0.001595	0.001730	28.0816	0.045443	0.002023	22.466	78.2325	-169.019	0.009425	0.297646	-0.704342	-0.705680	0.017415	22.466	-0.704923	-2.284317E+9	-7.623894E-12	NaN
1122	1.000000	0.306972	7.37603e+06	-56239.1	1055.82	-29739.5	0.000000	0.000000	6.306862	-0.040565	NaN	0.000000	0.001595	0.001745	28.0818	0.084818	0.002012	42.1582	-137.809	-164.378	0.028144	0.305679	-0.696354	-0.697647	-0.040565	42.1582	-0.695632	-1.705576E+9	2.378363E-11	NaN
1122	1.000000	0.314959	7.37603e+06	-56239.1	1055.82	-29739.5	0.000000	0.000000	6.314850	0.007949	NaN	0.000000	0.001551	0.001770	28.0822	0.035389	0.002116	16.7254	-164.711	-166.194	0.017029	0.313694	-0.688367	-0.689632	0.007949	16.7254	-0.688723	-1.372364E+9	-5.792335E-12	NaN
1122	1.000000	0.322955	7.37603e+06	-56239.1	1055.82	-29739.5	0.000000	0.000000	6.322846	-0.001264	NaN	0.000000	0.001558	0.001752	28.082	0.065832	0.002019	32.6014	103.369	-164.883	0.017879	0.321657	-0.680371	-0.681669	-0.001264	32.6014	-0.680342	-1.054089E+9	1.198774E-12	NaN
1122	1.000000	0.330992	7.37603e+06	-56239.1	1055.82	-29739.5	0.000000	0.000000	6.330883	0.003187	NaN	0.000000	0.001561	0.001803	28.082	0.092277	0.001976	46.6956	100.107	-163.911	0.041548	0.329715	-0.672334	-0.673611	0.003187	46.6956	-0.672385	-8.204143E+8	-3.884530E-12	NaN
1122	1.000000	0.338955	7.37603e+06	-56239.1	1055.82	-29739.5	0.000000	0.000000	6.338845	-0.031056	NaN	0.000000	0.001584	0.001764	28.0817	0.103795	0.002042	50.8217	-52.5457	-165.49	-0.061225	0.337706	-0.664371	-0.665620	-0.031056	50.8217	-0.663913	-6.281393E+8	4.944078E-11	NaN
1122	1.000000	0.346967	7.37603e+06	-56239.1	1055.82	-29739.5	0.000000	0.000000	6.346861	0.082782	NaN	0.000000	0.001548	0.001747	28.0817	0.013084	0.001941	6.741057	-12.7882	-162.139	0.100164	0.345613	-0.656359	-0.657713	0.082782	6.741057	-0.665569	-6.618145E+8	-1.250832E-10	NaN
1122	1.000000	0.354977	7.37603e+06	-56239.1	1055.82	-29739.5	0.000000	0.000000	6.354870	0.050124	NaN	0.000000	0.001552	0.001768	28.0817	0.033013	0.001904	17.3381	-96.1339	-164.155	0.054867	0.353629	-0.648349	-0.649697	0.050124	17.3381	-0.650518	-4.116550E+8	-1.217612E-10	NaN
1122	1.000000	0.362993	7.37603e+06	-56239.1	1055.82	-29739.5	0.000000	0.000000	6.362887	0.091572	NaN	0.000000	0.001572	0.001776	28.0817	0.044508	0.002075	21.4539	113.031	-167.785	0.036588	0.361743	-0.640333	-0.641583	0.091572	21.4539	-0.643535	-3.302017E+8	-2.773224E-10	NaN
1122	1.000000	0.370982	7.37603e+06	-56239.1	1055.82	-29739.5	0.000000	0.000000	6.370874	0.014550	NaN	0.000000	0.001570	0.001791	28.0819	0.080309	0.002014	39.8785	178.792	-163.296	0.093121	0.369646	-0.632344	-0.633680	0.014550	39.8785	-0.632617	-2.338626E+8	-6.221592E-11	NaN
1122	1.000000	0.379016	7.37603e+06	-56239.1	1055.82	-29739.5	0.000000	0.000000	6.378908	0.017946	NaN	0.000000	0.001594	0.001764	28.0819	0.100179	0.002023	49.5135	-53.302	-166.697	-0.006265	0.377656	-0.624310	-0.625670	0.017946	49.5135	-0.624582	-1.813839E+8	-9.894080E-11	NaN
1122	1.000000	0.387002	7.37603e+06	-56239.1	1055.82	-29739.5	0.000000	0.000000	6.386896	0.064924	NaN	0.000000	0.001605	0.001758	28.0818	0.023358	0.001981	11.7919	157.25	-161.825	0.059944	0.385702	-0.616324	-0.617624	0.064924	11.7919	-0.620453	-1.591702E+8	-4.078909E-10	NaN
1122	1.000000	0.395010	7.37603e+06	-56239.1	1055.82	-29739.5	0.000000	0.000000	6.394901	-0.005315	NaN	0.000000	0.001568	0.001764	28.0818	0.032894	0.002019	16.291	-48.6299	-165.243	0.044692	0.393703	-0.608316	-0.609623	-0.005315	16.291	-0.608071	-1.075412E+8	4.942332E-11	NaN
1122	1.000000	0.402998	7.37603e+06	-56239.1	1055.82	-29739.5	0.000000	0.000000	6.402889	0.005158	NaN	0.000000	0.001595	0.001785	28.0816	0.012038	0.002027	5.939367	-147.995	-165.559	0.030573	0.401676	-0.600329	-0.601650	0.005158	5.939367	-0.600980	-8.589237E+7	-6.004866E-11	NaN
1122	1.000000	0.410995	7.37603e+06	-56239.1	1055.82	-29739.5	0.000000	0.000000	6.410889	0.062103	NaN	0.000000	0.001569	0.001762	28.0813	0.037123	0.002012	18.4491	-90.6469	-164.131	-0.033536	0.409688	-0.592331	-0.593638	0.062103	18.4491	-0.594855	-7.072767E+7	-8.780592E-10	NaN
1122	1.000000	0.418985	7.37603e+06	-56239.1	1055.82	-29739.5	0.000000	0.000000	6.418875	-0.020542	NaN	0.000000	0.001601	0.001800	28.0806	0.083069	0.002006	41.3999	56.6748	-164.92	0.035700	0.417732	-0.584341	-0.585594	-0.020542	41.3999	-0.583969	-5.006009E+7	4.103564E-10	NaN
1122	1.000000	0.427011	7.37603e+06	-56239.1	1055.82	-29739.5	0.000000	0.000000	6.426902	-0.019841	NaN	0.000000	0.001627	0.001742	28.0809	0.057974	0.002067	28.0528	137.335	-166.767	-0.000625	0.425704	-0.576315	-0.577622	-0.019841	28.0528	-0.575784	-3.859459E+7	5.140773E-10	NaN
1122	1.000000	0.435011	7.37603e+06	-56239.1	1055.82	-29739.5	0.000000	0.000000	6.434903	0.013000	NaN	0.000000	0.001640	0.001742	28.0805	0.078509	0.001965	39.9586	-40.406	-166.296	0.093227	0.433722	-0.568315	-0.569604	0.013000	39.9586	-0.568559	-3.067037E+7	-4.238705E-10	NaN
1122	1.000000	0.443017	7.37603e+06	-56239.1	1055.82	-29739.5	0.000000	0.000000	6.442907	-0.008017	NaN	0.000000	0.001646	0.001756	28.0805	0.071268	0.001916	37.1892	-91.749	-165.713	-0.069063	0.441749	-0.560309	-0.561577	-0.008017	37.1892	-0.560148	-2.346495E+7	3.416644E-10	NaN
1122	1.000000	0.451018	7.37603e+06	-56239.1	1055.82	-29739.5	0.000000	0.000000	6.450910	0.032773	NaN	0.000000	0.001671	0.001763	28.0805	0.008065	0.001959	4.116811	100.634	-160.528	-0.029017	0.449654	-0.552308	-0.553672	0.032773	4.116811	-0.558278	-2.210855E+7	-1.482357E-9	NaN
1122	1.000000	0.459022	7.37603e+06	-56239.1	1055.82	-29739.5	0.000000	0.000000	6.458912	-0.001256	NaN	0.000000	0.001710	0.001741	28.0805	0.033723	0.002039	16.5353	178.89	-166.857	0.024179	0.457733	-0.544304	-0.545593	-0.001256	16.5353	-0.544248	-1.413350E+7	8.883343E-11	NaN
1122	1.000000	0.467036	7.37603e+06	-56239.1	1055.82	-29739.5	0.000000	0.000000	6.466930	0.059820	NaN	0.000000	0.001656	0.001741	28.0811	0.019115	0.001999	9.562933	52.6273	-165.467	0.061643	0.465768	-0.536290	-0.537558	0.059820	9.562933	-0.540981	-1.273401E+7	-4.697681E-9	NaN
1122	1.000000	0.475034	7.37603e+06	-56239.1	1055.82	-29739.5	0.000000	0.000000	6.474926	0.016223	NaN	0.000000	0.001623	0.001743	28.0803	0.063630	0.002056	30.9459	12.4299	-166.426	0.030019	0.473712	-0.528292	-0.529614	0.016223	30.9459	-0.528685	-8.59636e+06	-1.887249E-9	NaN
1122	1.000000	0.483033	7.37603e+06	-56239.1	1055.82	-29739.5	0.000000	0.000000	6.482925	0.031802	NaN	0.000000	0.001617	0.001764	28.0807	0.076361	0.001982	38.5239	-88.4508	-163.544	0.029517	0.481701	-0.520293	-0.521625	0.031802	38.5239	-0.520913	-6.70329e+06	-4.744220E-9	NaN
1122	1.000000	0.491030	7.37603e+06	-56239.1	1055.82	-29739.5	0.000000	0.000000	6.490920	-0.026310	NaN	0.000000	0.001643	0.001749	28.0804	0.151022	0.002021	74.7314	162.953	-162.77	-0.087567	0.489687	-0.512296	-0.513639	-0.026310	74.7314	-0.512032	-5.04327e+06	5.216868E-9	NaN
1122	1.000000	0.499016	7.37603e+06	-56239.1	1055.82	-29739.5	0.000000	0.000000	6.498909	0.053438	NaN	0.000000	0.001566	0.001748	28.0805	0.097625	0.001942	50.265	111.839	-165.366	0.099613	0.497733	-0.504310	-0.505593	0.053438	50.265	-0.505107	-4.03867e+06	-1.323160E-8	NaN
1122	1.000000	0.507076	7.37603e+06	-56239.1	1055.82	-29739.5	0.000000	0.000000	6.506966	-0.024996	NaN	0.000000	0.001611	0.001759	28.0807	0.074168	0.002110	35.1525	57.0908	-162.37	-0.070783	0.505764	-0.496250	-0.497562	-0.024996	35.1525	-0.495717	-2.98703e+06	8.368178E-9	NaN
1122	1.000000	0.515019	7.37603e+06	-56239.1	1055.82	-29739.5	0.000000	0.000000	6.514911	0.026638	NaN	0.000000	0.001631	0.001760	28.0806	0.011892	0.001991	5.972703	-106.621	-165.361	-0.049808	0.513760	-0.488307	-0.489566	0.026638	5.972703	-0.491652	-2.62108e+06	-1.016307E-8	NaN
1122	1.000000	0.523059	7.37603e+06	-56239.1	1055.82	-29739.5	0.000000	0.000000	6.522951	0.024251	NaN	0.000000	0.001620	0.001799	28.081	0.042045	0.002028	20.7296	11.9757	-164.003	0.027976	0.521794	-0.480267	-0.481532	0.024251	20.7296	-0.481144	-1.86873e+06	-1.297748E-8	NaN
1122	1.000000	0.531079	7.37603e+06	-56239.1	1055.82	-29739.5	0.000000	0.000000	6.530969	-0.027913	NaN	0.000000	0.001631	0.001775	28.0802	0.053434	0.001987	26.8923	-43.2111	-164.32	-0.090203	0.529743	-0.472247	-0.473583	-0.027913	26.8923	-0.471468	-1.36773e+06	2.040809E-8	NaN
1122	1.000000	0.539056	7.37603e+06	-56239.1	1055.82	-29739.5	0.000000	0.000000	6.538948	0.005645	NaN	0.000000	0.001599	0.001794	28.0805	0.032281	0.002011	16.051	24.585	-165.984	0.008532	0.537757	-0.464270	-0.465569	0.005645	16.051	-0.464533	-1.09319e+06	-5.163408E-9	NaN
1122	1.000000	0.547071	7.37603e+06	-56239.1	1055.82	-29739.5	0.000000	0.000000	6.546963	0.019035	NaN	0.000000	0.001600	0.001774	28.081	0.081635	0.001971	41.4137	-149.249	-164.705	0.065554	0.545734	-0.456255	-0.457592	0.019035	41.4137	-0.456600	-845707	-2.250800E-8	NaN
1122	1.000000	0.555091	7.37603e+06	-56239.1	1055.82	-29739.5	0.000000	0.000000	6.554982	0.009361	NaN	0.000000	0.001549	0.001801	28.0818	0.083357	0.002015	41.3739	133.82	-165.931	0.015884	0.553764	-0.448235	-0.449562	0.009361	41.3739	-0.448405	-648451	-1.443581E-8	NaN
1122	1.000000	0.563059	7.37603e+06	-56239.1	1055.82	-29739.5	0.000000	0.000000	6.562951	0.014950	NaN	0.000000	0.001631	0.001769	28.082	0.109399	0.002083	52.5285	138.601	-164.65	0.055480	0.561790	-0.440267	-0.441536	0.014950	52.5285	-0.440480	-501348	-2.981939E-8	NaN
1122	1.000000	0.571085	7.37603e+06	-56239.1	1055.82	-29739.5	0.000000	0.000000	6.570974	-0.062646	NaN	0.000000	0.001604	0.001811	28.082	0.019050	0.002085	9.137202	179.737	-162.903	-0.023318	0.569748	-0.432241	-0.433578	-0.062646	9.137202	-0.427098	-324339	1.931493E-7	NaN
1122	1.000000	0.579065	7.37603e+06	-56239.1	1055.82	-29739.5	0.000000	0.000000	6.578958	0.051065	NaN	0.000000	0.001621	0.001804	28.0821	0.122315	0.001908	64.1115	-103.768	-164.827	0.037714	0.577785	-0.424261	-0.425542	0.051065	64.1115	-0.424859	-301496	-1.693716E-7	NaN
1122	1.000000	0.587095	7.37603e+06	-56239.1	1055.82	-29739.5	0.000000	0.000000	6.586987	0.020345	NaN	0.000000	0.001626	0.001738	28.0818	0.046683	0.001991	23.4503	-111.21	-165.484	0.038398	0.585767	-0.416231	-0.417559	0.020345	23.4503	-0.416882	-232366	-8.755754E-8	NaN
1122	1.000000	0.595111	7.37603e+06	-56239.1	1055.82	-29739.5	0.000000	0.000000	6.595003	0.033783	NaN	0.000000	0.001595	0.001764	28.0818	0.053513	0.001890	28.3183	27.6502	-164.327	0.015996	0.593748	-0.408215	-0.409578	0.033783	28.3183	-0.409110	-180196	-1.874779E-7	NaN
1122	1.000000	0.603101	7.37603e+06	-56239.1	1055.82	-29739.5	0.000000	0.000000	6.602993	0.044055	NaN	0.000000	0.001563	0.001763	28.0819	0.071192	0.002003	35.5459	-14.0935	-166.512	0.067582	0.601776	-0.400225	-0.401550	0.044055	35.5459	-0.401155	-138824	-3.173481E-7	NaN
1122	1.000000	0.611073	7.37603e+06	-56239.1	1055.82	-29739.5	0.000000	0.000000	6.610962	-0.049407	NaN	0.000000	0.001546	0.001761	28.0819	0.008035	0.002045	3.929345	-148.994	-164.643	0.002309	0.609771	-0.392253	-0.393555	-0.049407	3.929345	-0.382823	-75923.8	6.507490E-7	NaN
1122	1.000000	0.619098	7.37603e+06	-56239.1	1055.82	-29739.5	0.000000	0.000000	6.618990	0.030484	NaN	0.000000	0.001542	0.001777	28.0821	0.111165	0.001827	60.8334	-27.9217	-165.818	0.005815	0.617788	-0.384228	-0.385538	0.030484	60.8334	-0.384604	-80520.5	-3.785860E-7	NaN
1122	1.000000	0.627154	7.37603e+06	-56239.1	1055.82	-29739.5	0.000000	0.000000	6.627046	0.010890	NaN	0.000000	0.001583	0.001805	28.0819	0.089365	0.002002	44.6311	-147.595	-161.075	0.038704	0.625797	-0.376172	-0.377529	0.010890	44.6311	-0.376355	-61311.2	-1.776206E-7	NaN
1122	1.000000	0.635108	7.37603e+06	-56239.1	1055.82	-29739.5	0.000000	0.000000	6.635000	0.032385	NaN	0.000000	0.001581	0.001756	28.082	0.016151	0.002197	7.352461	132.803	-164.434	0.054075	0.633804	-0.368218	-0.369522	0.032385	7.352461	-0.371522	-52243.7	-6.198779E-7	NaN
1122	1.000000	0.643117	7.37603e+06	-56239.1	1055.82	-29739.5	0.000000	0.000000	6.643006	-0.041875	NaN	0.000000	0.001633	0.001755	28.0818	0.069699	0.002045	34.0742	-29.4288	-166.979	-0.060150	0.641797	-0.360209	-0.361529	-0.041875	34.0742	-0.359288	-34797.3	1.203410E-6	NaN
1122	1.000000	0.651100	7.37603e+06	-56239.1	1055.82	-29739.5	0.000000	0.000000	6.650990	-0.025846	NaN	0.000000	0.001605	0.001776	28.0819	0.028205	0.002041	13.8169	-139.103	-162.343	-0.046898	0.649846	-0.352226	-0.353480	-0.025846	13.8169	-0.350823	-26239.2	9.850019E-7	NaN
1122	1.000000	0.659100	7.37603e+06	-56239.1	1055.82	-29739.5	0.000000	0.000000	6.658989	-0.041107	NaN	0.000000	0.001611	0.001780	28.082	0.023171	0.002052	11.2911	76.516	-160.268	0.057875	0.657797	-0.344226	-0.345529	-0.041107	11.2911	-0.341495	-19201.9	2.140788E-6	NaN
1122	1.000000	0.667110	7.37603e+06	-56239.1	1055.82	-29739.5	0.000000	0.000000	6.666998	-0.067411	NaN	0.000000	0.001593	0.001778	28.082	0.119070	0.002012	59.1704	-27.1328	-162.21	-0.082511	0.665785	-0.336216	-0.337541	-0.067411	59.1704	-0.335362	-15627	4.313734E-6	NaN
1122	1.000000	0.675117	7.37603e+06	-56239.1	1055.82	-29739.5	0.000000	0.000000	6.675009	0.033850	NaN	0.000000	0.001609	0.001774	28.082	0.072013	0.002019	35.6662	159.383	-164.016	0.074852	0.673810	-0.328209	-0.329516	0.033850	35.6662	-0.328921	-12579	-2.690951E-6	NaN
1122	1.000000	0.683098	7.37603e+06	-56239.1	1055.82	-29739.5	0.000000	0.000000	6.682990	0.029103	NaN	0.000000	0.001604	0.001771	28.0818	0.101604	0.001952	52.0594	145.866	-166.537	-0.037480	0.681807	-0.320228	-0.321519	0.029103	52.0594	-0.320648	-9509.76	-3.060362E-6	NaN
1122	1.000000	0.691137	7.37603e+06	-56239.1	1055.82	-29739.5	0.000000	0.000000	6.691026	-0.039029	NaN	0.000000	0.001629	0.001776	28.0808	0.087986	0.001983	44.3619	100.956	-163.311	-0.090101	0.689820	-0.312189	-0.313506	-0.039029	44.3619	-0.311529	-6977.17	5.593804E-6	NaN
1122	1.000000	0.699136	7.37603e+06	-56239.1	1055.82	-29739.5	0.000000	0.000000	6.699029	0.056892	NaN	0.000000	0.001635	0.001807	28.0806	0.027666	0.002077	13.322	140.985	-163.283	-0.050111	0.697853	-0.304190	-0.305473	0.056892	13.322	-0.307393	-6059.62	-9.388668E-6	NaN
1122	1.000000	0.707135	7.37603e+06	-56239.1	1055.82	-29739.5	0.000000	0.000000	6.707025	-0.019258	NaN	0.000000	0.001637	0.001807	28.0808	0.072973	0.002090	34.923	-82.2808	-166.16	0.106663	0.705855	-0.296191	-0.297471	-0.019258	34.923	-0.295778	-4070.96	4.730672E-6	NaN
1122	1.000000	0.715149	7.37603e+06	-56239.1	1055.82	-29739.5	0.000000	0.000000	6.715040	0.007906	NaN	0.000000	0.001653	0.001803	28.081	0.059620	0.001986	30.0186	-103.424	-165.364	-0.121192	0.713821	-0.288177	-0.289506	0.007906	30.0186	-0.288374	-3154.53	-2.506107E-6	NaN
1122	1.000000	0.723130	7.37603e+06	-56239.1	1055.82	-29739.5	0.000000	0.000000	6.723018	-0.056887	NaN	0.000000	0.001634	0.001795	28.0808	0.110508	0.002003	55.1713	16.2155	-164.181	-0.023087	0.721863	-0.280197	-0.281463	-0.056887	55.1713	-0.279423	-2313.49	2.458937E-5	NaN
1122	1.000000	0.731126	7.37603e+06	-56239.1	1055.82	-29739.5	0.000000	0.000000	6.731016	-0.034568	NaN	0.000000	0.001623	0.001755	28.0807	0.013075	0.002017	6.483914	178.04	-164.921	0.014603	0.729774	-0.272200	-0.273552	-0.034568	6.483914	-0.268201	-1563.81	2.210494E-5	NaN
1122	1.000000	0.739123	7.37603e+06	-56239.1	1055.82	-29739.5	0.000000	0.000000	6.739013	-0.028158	NaN	0.000000	0.001632	0.001784	28.0805	0.101473	0.001862	54.4934	113.093	-165.656	-0.060509	0.737815	-0.264203	-0.265511	-0.028158	54.4934	-0.263815	-1340.59	2.100387E-5	NaN
1122	1.000000	0.747184	7.37603e+06	-56239.1	1055.82	-29739.5	0.000000	0.000000	6.747077	0.034058	NaN	0.000000	0.001614	0.001776	28.0806	0.037838	0.001966	19.2476	-17.1572	-164.383	-0.025195	0.745816	-0.256142	-0.257510	0.034058	19.2476	-0.257469	-1071.72	-3.177850E-5	NaN
1122	1.000000	0.755140	7.37603e+06	-56239.1	1055.82	-29739.5	0.000000	0.000000	6.755030	-0.016716	NaN	0.000000	0.001607	0.001798	28.0805	0.090912	0.002046	44.4251	-101.172	-164.524	0.004468	0.753883	-0.248186	-0.249443	-0.016716	44.4251	-0.247904	-762.979	2.190844E-5	NaN
1122	1.000000	0.763149	7.37603e+06	-56239.1	1055.82	-29739.5	0.000000	0.000000	6.763040	0.003252	NaN	0.000000	0.001574	0.001761	28.0807	0.117243	0.002014	58.224	-27.265	-163.554	0.085683	0.761830	-0.240177	-0.241497	0.003252	58.224	-0.240219	-579.389	-5.612536E-6	NaN
1122	1.000000	0.771156	7.37603e+06	-56239.1	1055.82	-29739.5	0.000000	0.000000	6.771043	-0.096353	NaN	0.000000	0.001603	0.001743	28.0809	0.085188	0.002078	40.9961	134.22	-163.924	-0.072030	0.769874	-0.232170	-0.233452	-0.096353	40.9961	-0.230408	-406.397	0.000237	NaN
1122	1.000000	0.779154	7.37603e+06	-56239.1	1055.82	-29739.5	0.000000	0.000000	6.779044	-0.014878	NaN	0.000000	0.001636	0.001754	28.0807	0.033719	0.001937	17.4111	-33.9744	-165.031	-0.002678	0.777865	-0.224172	-0.225461	-0.014878	17.4111	-0.223532	-316.221	4.705002E-5	NaN
1122	1.000000	0.787147	7.37603e+06	-56239.1	1055.82	-29739.5	0.000000	0.000000	6.787040	0.039045	NaN	0.000000	0.001665	0.001724	28.081	0.068335	0.002046	33.4069	-125.399	-163.741	-0.004613	0.785841	-0.216179	-0.217485	0.039045	33.4069	-0.217056	-249.191	-0.000157	NaN
1122	1.000000	0.795149	7.37603e+06	-56239.1	1055.82	-29739.5	0.000000	0.000000	6.795042	0.033837	NaN	0.000000	0.001636	0.001758	28.0806	0.070422	0.002139	32.9259	-112.274	-165.211	-0.099432	0.793840	-0.208177	-0.209486	0.033837	32.9259	-0.208947	-184.399	-0.000183	NaN
1122	1.000000	0.803187	7.37603e+06	-56239.1	1055.82	-29739.5	0.000000	0.000000	6.803080	0.057263	NaN	0.000000	0.001628	0.001763	28.0805	0.073576	0.001998	36.8217	25.9223	-160.999	0.102881	0.801874	-0.200139	-0.201452	0.057263	36.8217	-0.201306	-138.4	-0.000414	NaN
1122	1.000000	0.811190	7.37603e+06	-56239.1	1055.82	-29739.5	0.000000	0.000000	6.811082	0.025998	NaN	0.000000	0.001623	0.001762	28.0809	0.069223	0.001972	35.101	-37.4361	-168.577	0.039609	0.809840	-0.192136	-0.193486	0.025998	35.101	-0.192692	-99.7455	-0.000261	NaN
1122	1.000000	0.819181	7.37603e+06	-56239.1	1055.82	-29739.5	0.000000	0.000000	6.819073	0.030172	NaN	0.000000	0.001677	0.001744	28.0808	0.071973	0.001875	38.3847	-90.2767	-163.508	-0.016037	0.817869	-0.184145	-0.185457	0.030172	38.3847	-0.184735	-73.3934	-0.000411	NaN
1122	1.000000	0.827203	7.37603e+06	-56239.1	1055.82	-29739.5	0.000000	0.000000	6.827095	0.023272	NaN	0.000000	0.001618	0.001772	28.0822	0.013000	0.002216	5.867874	149.058	-160.872	0.023392	0.825858	-0.176123	-0.177468	0.023272	5.867874	-0.179097	-58.8972	-0.000395	NaN
1122	1.000000	0.835157	7.37603e+06	-56239.1	1055.82	-29739.5	0.000000	0.000000	6.835048	0.006388	NaN	0.000000	0.001644	0.001761	28.0822	0.057931	0.002009	28.8394	-80.8662	-166.573	0.099521	0.833915	-0.168169	-0.169411	0.006388	28.8394	-0.168335	-38.4285	-0.000166	NaN
1122	1.000000	0.843172	7.37603e+06	-56239.1	1055.82	-29739.5	0.000000	0.000000	6.843061	-0.055318	NaN	0.000000	0.001652	0.001784	28.082	0.053900	0.002021	26.6685	-80.5586	-164.351	0.022120	0.841900	-0.160154	-0.161426	-0.055318	26.6685	-0.158598	-25.8844	0.002137	NaN
1122	1.000000	0.851219	7.37603e+06	-56239.1	1055.82	-29739.5	0.000000	0.000000	6.851110	0.019356	NaN	0.000000	0.001639	0.001733	28.082	0.111262	0.002105	52.8566	-145.471	-162.526	0.013894	0.849896	-0.152108	-0.153430	0.019356	52.8566	-0.152382	-20.0129	-0.000967	NaN
1122	1.000000	0.859170	7.37603e+06	-56239.1	1055.82	-29739.5	0.000000	0.000000	6.859060	-0.024732	NaN	0.000000	0.001623	0.001719	28.0822	0.083548	0.002070	40.3651	59.5295	-165.652	0.046514	0.857845	-0.144156	-0.145481	-0.024732	40.3651	-0.143696	-13.8675	0.001783	NaN
1122	1.000000	0.867214	7.37603e+06	-56239.1	1055.82	-29739.5	0.000000	0.000000	6.867106	0.028570	NaN	0.000000	0.001608	0.001730	28.0825	0.016956	0.002074	8.173912	34.0545	-163.283	-0.024401	0.865859	-0.136112	-0.137467	0.028570	8.173912	-0.138733	-11.1976	-0.002551	NaN
1122	1.000000	0.875201	7.37603e+06	-56239.1	1055.82	-29739.5	0.000000	0.000000	6.875094	0.059256	NaN	0.000000	0.001605	0.001717	28.0822	0.112995	0.001878	60.1662	-35.2022	-164.629	0.147234	0.873877	-0.128125	-0.129449	0.059256	60.1662	-0.128864	-7.242726	-0.008181	NaN
1122	1.000000	0.883216	7.37603e+06	-56239.1	1055.82	-29739.5	0.000000	0.000000	6.883110	0.065117	NaN	0.000000	0.001594	0.001752	28.0822	0.072741	0.002177	33.4151	-123.992	-163.124	-0.013936	0.881910	-0.120110	-0.121416	0.065117	33.4151	-0.121571	-5.196304	-0.012531	NaN
1122	1.000000	0.891224	7.37603e+06	-56239.1	1055.82	-29739.5	0.000000	0.000000	6.891115	0.013340	NaN	0.000000	0.001626	0.001758	28.0821	0.066710	0.002099	31.7868	134.998	-165.579	0.064141	0.889878	-0.112102	-0.113448	0.013340	31.7868	-0.112417	-3.377174	-0.003950	NaN
1122	1.000000	0.899224	7.37603e+06	-56239.1	1055.82	-29739.5	0.000000	0.000000	6.899114	-0.022848	NaN	0.000000	0.001617	0.001766	28.0821	0.122377	0.002018	60.6293	27.4576	-165.973	0.007536	0.897897	-0.104102	-0.105429	-0.022848	60.6293	-0.103819	-2.216083	0.010310	NaN
1122	1.000000	0.907206	7.37603e+06	-56239.1	1055.82	-29739.5	0.000000	0.000000	6.907096	-0.026900	NaN	0.000000	0.001589	0.001766	28.0822	0.083188	0.002059	40.3995	-34.1296	-161.739	-0.034931	0.905879	-0.096120	-0.097447	-0.026900	40.3995	-0.095620	-1.457209	0.018460	NaN
1122	1.000000	0.915220	7.37603e+06	-56239.1	1055.82	-29739.5	0.000000	0.000000	6.915109	-0.036101	NaN	0.000000	0.001566	0.001728	28.0821	0.140272	0.001968	71.2744	37.644	-166.238	-0.078461	0.913873	-0.088106	-0.089453	-0.036101	71.2744	-0.087726	-0.955210	0.037794	NaN
1122	1.000000	0.923206	7.37603e+06	-56239.1	1055.82	-29739.5	0.000000	0.000000	6.923098	0.024613	NaN	0.000000	0.001643	0.001750	28.0823	0.061881	0.001930	32.0652	95.24	-166.153	0.030331	0.921890	-0.080120	-0.081436	0.024613	32.0652	-0.080696	-0.644246	-0.038204	NaN
1122	1.000000	0.931241	7.37603e+06	-56239.1	1055.82	-29739.5	0.000000	0.000000	6.931130	-0.026789	NaN	0.000000	0.001620	0.001749	28.082	0.110849	0.002037	54.4178	-134.006	-163.606	-0.074200	0.929921	-0.072086	-0.073405	-0.026789	54.4178	-0.071716	-0.378960	0.070692	NaN
1122	1.000000	0.939240	7.37603e+06	-56239.1	1055.82	-29739.5	0.000000	0.000000	6.939133	0.041386	NaN	0.000000	0.001637	0.001727	28.0822	0.176428	0.001961	89.9661	-132.841	-164.463	0.005128	0.937923	-0.064086	-0.065403	0.041386	89.9661	-0.064431	-0.240302	-0.172224	NaN
1122	1.000000	0.947253	7.37603e+06	-56239.1	1055.82	-29739.5	0.000000	0.000000	6.947142	-0.042999	NaN	0.000000	0.001595	0.001761	28.082	0.085298	0.002043	41.7558	141.571	-166.922	-0.021526	0.945894	-0.056073	-0.057432	-0.042999	41.7558	-0.055300	-0.131435	0.327150	NaN
1122	1.000000	0.955230	7.37603e+06	-56239.1	1055.82	-29739.5	0.000000	0.000000	6.955121	0.010152	NaN	0.000000	0.001563	0.001761	28.0821	0.107825	0.002028	53.1676	-25.206	-165.069	0.018834	0.953936	-0.048096	-0.049390	0.010152	53.1676	-0.048240	-0.080694	-0.125802	NaN
1122	1.000000	0.963204	7.37603e+06	-56239.1	1055.82	-29739.5	0.000000	0.000000	6.963094	-0.016321	NaN	0.000000	0.001611	0.001734	28.0812	0.063339	0.002075	30.5189	120.881	-163.328	0.004041	0.961954	-0.040122	-0.041372	-0.016321	30.5189	-0.039721	-0.044348	0.368014	NaN
1122	1.000000	0.971259	7.37603e+06	-56239.1	1055.82	-29739.5	0.000000	0.000000	6.971152	0.049383	NaN	0.000000	0.001614	0.001738	28.0808	0.068287	0.002057	33.1993	66.4699	-164.443	0.033638	0.969911	-0.032067	-0.033415	0.049383	33.1993	-0.033183	-0.028341	-1.742445	NaN
1122	1.000000	0.979262	7.37603e+06	-56239.1	1055.82	-29739.5	0.000000	0.000000	6.979151	-0.061432	NaN	0.000000	0.001620	0.001759	28.0811	0.060365	0.002073	29.1238	-157.306	-161.768	-0.002690	0.977934	-0.024064	-0.025392	-0.061432	29.1238	-0.022482	-0.014526	4.229097	NaN
1122	1.000000	0.987247	7.37603e+06	-56239.1	1055.82	-29739.5	0.000000	0.000000	6.987138	-0.004465	NaN	0.000000	0.001572	0.001804	28.0811	0.150828	0.001979	76.2146	148.181	-164.016	0.029286	0.985901	-0.016079	-0.017425	-0.004465	76.2146	-0.016035	-0.009905	0.450763	NaN
1122	1.000000	0.995242	7.37603e+06	-56239.1	1055.82	-29739.5	0.000000	0.000000	6.995132	-0.019319	NaN	0.000000	0.001595	0.001788	28.0811	0.158526	0.001994	79.4817	59.697	-166.965	-0.004277	0.993966	-0.008084	-0.009360	-0.019319	79.4817	-0.007902	-0.005174	3.733901	NaN
1122	1.000000	1.003271	7.37603e+06	-56239.1	1055.82	-29739.5	0.000000	0.000000	7.003335	4.210842	NaN	0.000000	0.001584	0.001736	28.0814	5.120254	0.001710	2994.91	11.1499	-169.059	3.299408	1.001910	-5.517355E-5	-0.001416	4.210842	2994.91	-0.001110	-0.000812	-5186.44	NaN
1122	2.000000	1.008806	7.37603e+06	-56239.1	1055.82	-29739.5	0.000000	0.000000	7.009099	9.768889	NaN	0.000000	0.001578	0.001760	28.0813	9.579358	0.001587	6034.31	3.887330	-168.879	9.318349	1.008458	0.005480	0.005132	9.768889	6034.31	0.004266	0.003474	2812.38	93543.8
1122	2.000000	1.010741	7.37603e+06	-56239.1	1055.82	-29739.5	0.000000	0.000000	7.011115	11.7451	NaN	0.000000	0.001581	0.001767	28.0813	11.4111	0.001627	7013.72	3.952089	-169.339	10.8524	1.010468	0.007415	0.007142	11.7451	7013.72	0.006159	0.005216	2251.85	88728.5
1122	2.000000	1.012813	7.37603e+06	-56239.1	1055.82	-29739.5	0.000000	0.000000	7.013290	14.2465	NaN	0.000000	0.001626	0.001763	28.0809	14.4538	0.001694	8530.66	8.251635	-174.031	14.158	1.012384	0.009487	0.009058	14.2465	8530.66	0.008234	0.007284	1955.81	91319.7
1122	2.000000	1.014760	7.37603e+06	-56239.1	1055.82	-29739.5	0.000000	0.000000	7.015453	19.5155	NaN	0.000000	0.001587	0.001752	28.0809	16.6881	0.001756	9504.41	8.899220	-178.573	19.1886	1.014418	0.011434	0.011092	19.5155	9504.41	0.009894	0.009063	2153.2	91211.8
1122	2.000000	1.016751	7.37603e+06	-56239.1	1055.82	-29739.5	0.000000	0.000000	7.017535	21.7082	NaN	0.000000	0.001609	0.001782	28.0822	18.8892	0.001698	11123	8.093641	-177.845	21.6317	1.016435	0.013425	0.013109	21.7082	11123	0.011961	0.011443	1897.04	94999.3
1122	2.000000	1.018745	7.37603e+06	-56239.1	1055.82	-29739.5	0.000000	0.000000	7.019756	27.2434	NaN	0.000000	0.001641	0.001746	28.0808	20.364	0.001598	12741	4.909392	-176.074	27.8055	1.018410	0.015419	0.015084	27.2434	12741	0.013815	0.013738	1983.13	99316.9
1122	2.000000	1.020702	7.37603e+06	-56239.1	1055.82	-29739.5	0.000000	0.000000	7.021874	31.1285	NaN	0.000000	0.001611	0.001774	28.0808	22.954	0.001866	12304.2	5.080782	-175.723	29.5542	1.020395	0.017376	0.017069	31.1285	12304.2	0.015479	0.015929	1954.17	89069.3
1122	2.000000	1.022724	7.37603e+06	-56239.1	1055.82	-29739.5	0.000000	0.000000	7.024119	36.5663	NaN	0.000000	0.001569	0.001725	28.081	25.2486	0.001790	14107.3	6.122642	-178.451	35.2261	1.022421	0.019398	0.019095	36.5663	14107.3	0.017454	0.018698	1955.63	94258.6
1122	2.000000	1.024689	7.37603e+06	-56239.1	1055.82	-29739.5	0.000000	0.000000	7.026279	41.2956	NaN	0.000000	0.001618	0.001720	28.081	26.7349	0.001784	14983.9	4.028533	-177.066	40.7733	1.024424	0.021363	0.021098	41.2956	14983.9	0.019296	0.021449	1925.32	93475.2
1122	2.000000	1.026701	7.37603e+06	-56239.1	1055.82	-29739.5	0.000000	0.000000	7.028534	47.189	NaN	0.000000	0.001624	0.001720	28.0825	29.7646	0.001936	15371.8	5.320194	-177.536	47.3675	1.026443	0.023375	0.023117	47.189	15371.8	0.021073	0.024256	1945.44	90175.4
1122	2.000000	1.028676	7.37603e+06	-56239.1	1055.82	-29739.5	0.000000	0.000000	7.030795	54.1619	NaN	0.000000	0.001606	0.001733	28.0809	30.5029	0.001697	17977	4.408542	-179.841	52.3512	1.028391	0.025350	0.025065	54.1619	17977	0.023090	0.027632	1960.1	98806.1
1122	2.000000	1.030680	7.37603e+06	-56239.1	1055.82	-29739.5	0.000000	0.000000	7.032973	58.3795	NaN	0.000000	0.001616	0.001740	28.0822	33.6484	0.001620	20765.9	7.123482	175.818	57.3391	1.030359	0.027354	0.027033	58.3795	20765.9	0.025246	0.031464	1855.43	106959
1122	2.000000	1.032751	7.37603e+06	-56239.1	1055.82	-29739.5	0.000000	0.000000	7.035330	65.3549	NaN	0.000000	0.001617	0.001743	28.0824	35.745	0.001772	20177.3	6.585186	178.024	64.8931	1.032252	0.029425	0.028926	65.3549	20177.3	0.026995	0.034746	1880.93	98897.1
1122	2.000000	1.034719	7.37603e+06	-56239.1	1055.82	-29739.5	0.000000	0.000000	7.037492	70.0705	NaN	0.000000	0.001615	0.001738	28.0822	37.5645	0.001686	22281	6.289518	177.338	71.8562	1.034297	0.031392	0.030971	70.0705	22281	0.029034	0.038765	1807.57	103392
1122	2.000000	1.036663	7.37603e+06	-56239.1	1055.82	-29739.5	0.000000	0.000000	7.039697	76.4	NaN	0.000000	0.001645	0.001780	28.0826	39.3541	0.001840	21393.6	1.621551	-178.302	74.4068	1.036366	0.033337	0.033040	76.4	21393.6	0.030659	0.042120	1813.84	95237.8
1122	2.000000	1.038633	7.37603e+06	-56239.1	1055.82	-29739.5	0.000000	0.000000	7.041962	83.5823	NaN	0.000000	0.001617	0.001765	28.0823	40.2954	0.001826	22072.4	3.333200	-179.186	81.0095	1.038316	0.035306	0.034990	83.5823	22072.4	0.032466	0.046011	1816.57	94013.9
1122	2.000000	1.040666	7.37603e+06	-56239.1	1055.82	-29739.5	0.000000	0.000000	7.044320	91.4636	NaN	0.000000	0.001611	0.001770	28.0823	43.175	0.001869	23099.1	5.979168	177.143	90.761	1.040269	0.037340	0.036943	91.4636	23099.1	0.034370	0.050290	1818.74	94108.5
1122	2.000000	1.042716	7.37603e+06	-56239.1	1055.82	-29739.5	0.000000	0.000000	7.046740	100.464	NaN	0.000000	0.001629	0.001746	28.0828	44.6908	0.001918	23301.2	7.059474	177.825	102.293	1.042350	0.039390	0.039024	100.464	23301.2	0.036156	0.054473	1844.3	91213.7
1122	2.000000	1.044695	7.37603e+06	-56239.1	1055.82	-29739.5	0.000000	0.000000	7.048991	107.073	NaN	0.000000	0.001596	0.001743	28.0821	46.2499	0.001786	25890.4	4.771362	177.362	108.453	1.044337	0.041369	0.041011	107.073	25890.4	0.038267	0.059626	1795.73	96871
1122	2.000000	1.046649	7.37603e+06	-56239.1	1055.82	-29739.5	0.000000	0.000000	7.051147	111.982	NaN	0.000000	0.001625	0.001741	28.0822	48.2794	0.001809	26688.3	2.084671	179.99	109.663	1.046370	0.043323	0.043044	111.982	26688.3	0.040176	0.064485	1736.56	96020.8
1122	2.000000	1.048613	7.37603e+06	-56239.1	1055.82	-29739.5	0.000000	0.000000	7.053454	120.332	NaN	0.000000	0.001615	0.001729	28.0822	49.2421	0.001767	27875	4.026260	177.199	116.639	1.048376	0.045286	0.045050	120.332	27875	0.042049	0.069431	1733.13	96652.4
1122	2.000000	1.050612	7.37603e+06	-56239.1	1055.82	-29739.5	0.000000	0.000000	7.055934	131.995	NaN	0.000000	0.001620	0.001731	28.0824	52.6752	0.001784	29520.4	6.679939	174.14	129.452	1.050323	0.047286	0.046997	131.995	29520.4	0.043933	0.074587	1769.68	98756.2
1122	2.000000	1.052671	7.37603e+06	-56239.1	1055.82	-29739.5	0.000000	0.000000	7.058183	136.632	NaN	0.000000	0.001603	0.001763	28.0825	54.6638	0.001822	30001.2	5.821911	173.911	134.762	1.052429	0.049345	0.049103	136.632	30001.2	0.045929	0.080246	1702.66	96760.9
1122	2.000000	1.054657	7.37603e+06	-56239.1	1055.82	-29739.5	0.000000	0.000000	7.060663	148.642	NaN	0.000000	0.001658	0.001748	28.0821	55.2759	0.001767	31282	2.344017	178.464	147.87	1.054371	0.051331	0.051045	148.642	31282	0.047767	0.085636	1735.74	97665
1122	2.000000	1.056655	7.37603e+06	-56239.1	1055.82	-29739.5	0.000000	0.000000	7.063026	157.524	NaN	0.000000	0.001598	0.001764	28.0827	58.2337	0.001714	33971.4	3.448509	175.565	157.617	1.056402	0.053329	0.053076	157.524	33971.4	0.049851	0.091953	1713.1	102354
1122	2.000000	1.058630	7.37603e+06	-56239.1	1055.82	-29739.5	0.000000	0.000000	7.065341	165.756	NaN	0.000000	0.001628	0.001740	28.0821	58.3147	0.001662	35091.7	4.892960	174.179	162.876	1.058386	0.055304	0.055060	165.756	35091.7	0.051762	0.097936	1692.49	102448
1122	2.000000	1.060595	7.37603e+06	-56239.1	1055.82	-29739.5	0.000000	0.000000	7.067781	177.319	NaN	0.000000	0.001613	0.001713	28.0823	60.244	0.001686	35734.6	2.108055	177.04	172.682	1.060246	0.057269	0.056920	177.319	35734.6	0.053548	0.103693	1710.03	101388
1122	2.000000	1.062652	7.37603e+06	-56239.1	1055.82	-29739.5	0.000000	0.000000	7.070297	188.468	NaN	0.000000	0.001608	0.001725	28.0823	64.499	0.001895	34043.6	6.910266	173.045	186.885	1.062285	0.059326	0.058959	188.468	34043.6	0.055174	0.109075	1727.88	94177.4
1122	2.000000	1.064630	7.37603e+06	-56239.1	1055.82	-29739.5	0.000000	0.000000	7.072547	195.078	NaN	0.000000	0.001589	0.001734	28.0805	65.2682	0.001804	36173.1	3.827962	175.313	194.314	1.064334	0.061304	0.061008	195.078	36173.1	0.057259	0.116165	1679.32	96966.5
1122	2.000000	1.066601	7.37603e+06	-56239.1	1055.82	-29739.5	0.000000	0.000000	7.074629	197.796	NaN	0.000000	0.001601	0.001737	28.0812	67.6765	0.001803	37527.1	4.687105	173.729	195.117	1.066505	0.063275	0.063179	197.796	37527.1	0.059322	0.123388	1603.05	97607.2
1122	2.000000	1.068686	7.37603e+06	-56239.1	1055.82	-29739.5	0.000000	0.000000	7.077378	213.926	NaN	0.000000	0.001622	0.001787	28.081	67.9908	0.001736	39173.8	3.143888	175.378	216.888	1.068332	0.065360	0.065006	213.926	39173.8	0.061264	0.130380	1640.79	99120.5
1122	2.000000	1.070668	7.37603e+06	-56239.1	1055.82	-29739.5	0.000000	0.000000	7.079828	225.326	NaN	0.000000	0.001591	0.001751	28.0809	71.5418	0.001996	35837.9	6.832290	172.723	226.331	1.070344	0.067341	0.067018	225.326	35837.9	0.062626	0.135393	1664.24	88985.4
1122	2.000000	1.072639	7.37603e+06	-56239.1	1055.82	-29739.5	0.000000	0.000000	7.082264	236.613	NaN	0.000000	0.001562	0.001759	28.081	72.7492	0.001819	40003	6.455610	172.327	235.098	1.072266	0.069313	0.068940	236.613	40003	0.064877	0.143874	1644.59	96355.1
1122	2.000000	1.074712	7.37603e+06	-56239.1	1055.82	-29739.5	0.000000	0.000000	7.084793	247.693	NaN	0.000000	0.001594	0.001728	28.0811	73.5939	0.001732	42479.5	8.945024	169.374	253.13	1.074344	0.071386	0.071018	247.693	42479.5	0.067013	0.152149	1627.96	99498.9
1122	2.000000	1.076647	7.37603e+06	-56239.1	1055.82	-29739.5	0.000000	0.000000	7.086503	242.217	NaN	0.000000	0.001586	0.001719	28.081	76.3578	0.001786	42759	2.045782	175.136	240.553	1.076472	0.073321	0.073146	242.217	42759	0.069072	0.160335	1510.69	97563.3
1122	2.000000	1.078606	7.37603e+06	-56239.1	1055.82	-29739.5	0.000000	0.000000	7.089559	268.869	NaN	0.000000	0.001607	0.001756	28.0809	76.4375	0.001788	42742	1.341339	176.495	267.085	1.078309	0.075280	0.074983	268.869	42742	0.070562	0.166383	1615.97	95735.8
1122	2.000000	1.080588	7.37603e+06	-56239.1	1055.82	-29739.5	0.000000	0.000000	7.092087	282.148	NaN	0.000000	0.001603	0.001741	28.0807	79.1194	0.001593	49654.4	4.196411	172.54	281.314	1.080255	0.077262	0.076929	282.148	49654.4	0.073001	0.176508	1598.5	107981
1122	2.000000	1.082586	7.37603e+06	-56239.1	1055.82	-29739.5	0.000000	0.000000	7.094603	294.765	NaN	0.000000	0.001616	0.001755	28.0806	83.0305	0.001858	44678.8	5.591957	171.784	290.211	1.082347	0.079260	0.079021	294.765	44678.8	0.074312	0.182068	1618.98	95665.9
1122	2.000000	1.084640	7.37603e+06	-56239.1	1055.82	-29739.5	0.000000	0.000000	7.097014	303.433	NaN	0.000000	0.001551	0.001755	28.0811	85.5682	0.001889	45293	9.521899	167.885	304.483	1.084211	0.081314	0.080885	303.433	45293	0.076289	0.190609	1591.91	94783.3
1122	2.000000	1.086627	7.37603e+06	-56239.1	1055.82	-29739.5	0.000000	0.000000	7.099634	318.827	NaN	0.000000	0.001588	0.001733	28.0807	86.8146	0.001853	46840.6	2.726364	174.597	317.79	1.086265	0.083300	0.082938	318.827	46840.6	0.078196	0.199015	1602.03	95929.6
1122	2.000000	1.088533	7.37603e+06	-56239.1	1055.82	-29739.5	0.000000	0.000000	7.102158	333.84	NaN	0.000000	0.001596	0.001751	28.0809	87.4157	0.001766	49491.6	6.538398	170.375	328.99	1.088045	0.085207	0.084719	333.84	49491.6	0.080148	0.207799	1606.55	99193.5
1122	2.000000	1.090607	7.37603e+06	-56239.1	1055.82	-29739.5	0.000000	0.000000	7.104674	344.557	NaN	0.000000	0.001611	0.001750	28.0807	90.3248	0.001899	47560.4	8.703656	168.104	343.951	1.090272	0.087281	0.086945	344.557	47560.4	0.081848	0.215595	1598.17	93583.6
1122	2.000000	1.092530	7.37603e+06	-56239.1	1055.82	-29739.5	0.000000	0.000000	7.107101	356.81	NaN	0.000000	0.001618	0.001716	28.0811	90.3873	0.001715	52690.8	1.831178	174.386	351.55	1.092266	0.089204	0.088940	356.81	52690.8	0.084126	0.226248	1577.08	101208
1122	2.000000	1.094544	7.37603e+06	-56239.1	1055.82	-29739.5	0.000000	0.000000	7.110158	382.203	NaN	0.000000	0.001618	0.001771	28.0811	93.3548	0.001771	52723.9	7.606095	168.083	377.885	1.094149	0.091217	0.090823	382.203	52723.9	0.085781	0.234140	1632.37	99550.5
1122	2.000000	1.096529	7.37603e+06	-56239.1	1055.82	-29739.5	0.000000	0.000000	7.112501	390.881	NaN	0.000000	0.001608	0.001759	28.0809	94.2667	0.001837	51316.5	4.219214	171.825	386.166	1.096214	0.093203	0.092888	390.881	51316.5	0.087490	0.242422	1612.4	95223.4
1122	2.000000	1.098653	7.37603e+06	-56239.1	1055.82	-29739.5	0.000000	0.000000	7.115099	402.407	NaN	0.000000	0.001645	0.001723	28.0824	94.9538	0.001728	54959.3	4.713825	171.657	405.667	1.098289	0.095327	0.094963	402.407	54959.3	0.089835	0.254006	1584.24	99630.4
1122	2.000000	1.100596	7.37603e+06	-56239.1	1055.82	-29739.5	0.000000	0.000000	7.117918	423.703	NaN	0.000000	0.001618	0.001739	28.0822	97.7509	0.001797	54390.5	6.065383	170.108	424.553	1.100307	0.097270	0.096980	423.703	54390.5	0.091427	0.262013	1617.11	97081.3
1122	2.000000	1.102531	7.37603e+06	-56239.1	1055.82	-29739.5	0.000000	0.000000	7.120335	435.422	NaN	0.000000	0.001625	0.001740	28.0819	99.7143	0.001783	55940.3	4.562438	171.322	428.763	1.102163	0.099205	0.098837	435.422	55940.3	0.093367	0.271925	1601.26	98010.7
1122	2.000000	1.104518	7.37603e+06	-56239.1	1055.82	-29739.5	0.000000	0.000000	7.123005	452.015	NaN	0.000000	0.001632	0.001753	28.0823	100.685	0.001775	56711.7	5.278919	169.777	446.951	1.104238	0.101192	0.100912	452.015	56711.7	0.095214	0.281523	1605.61	97653.9
1122	2.000000	1.106608	7.37603e+06	-56239.1	1055.82	-29739.5	0.000000	0.000000	7.125459	460.856	NaN	0.000000	0.001628	0.001738	28.0819	103.763	0.001755	59113	3.409963	171.156	461.496	1.106355	0.103282	0.103029	460.856	59113	0.097435	0.293270	1571.44	99729.3