File: remote_trans/data/nanoindenter/0828-1/data/Data_2025-08-06,11h17m57s/2025-07-22_16-23-58_1_198.txt
2025-07-22, 16:23:58, 1
Index	Phase	Displacement	Time	Pos X	Pos Y	Pos Z	Rot A	Rot B	Piezo Z	Force A	Force B	Gripper	Voltage A	Voltage B	Temperature	Amplitude force	Amplitude pos	Stiffness	Phase shift	Phase excitation	Force A raw	Displacement raw	HMax	HMax raw	Real Force	Real Stiffness	Contact Depth	Area	Hardness	Reduced Mod.
[#]	[#]	[um]	[s]	[um]	[um]	[um]	[m°]	[m°]	[um]	[uN]	[uN]	[V]	[V]	[V]	[°C]	[uN]	[um]	[N/m]	[°]	[°]	[uN]	[um]	[um]	[um]	[uN]	[N/m]	[um]	[um^2]	[MPa]	[MPa]
198	1.000000	0.002477	7.36698e+06	-48539.1	955.817	-29762.4	0.000000	0.000000	6.002834	-0.045592	NaN	0.000000	0.001577	0.001789	28.0784	0.098868	0.000858	115.191	-128.529	-169.666	-0.015173	0.001158	-1.115708	-1.117027	-0.045592	115.191	-1.115411	-8.070419E+14	5.649235E-17	NaN
198	1.000000	0.012503	7.36698e+06	-48539.1	955.819	-29762.4	0.000000	0.000000	6.012861	-0.047379	NaN	0.000000	0.001662	0.001782	28.0784	0.096091	0.001154	83.265	-40.0214	15.9425	-0.014797	0.011081	-1.105681	-1.107103	-0.047379	83.265	-1.105254	-5.896529E+14	8.035049E-17	NaN
198	1.000000	0.022414	7.36698e+06	-48539.1	955.819	-29762.4	0.000000	0.000000	6.022774	0.003660	NaN	0.000000	0.001686	0.001748	28.0786	0.103754	0.001711	60.6556	152.006	-163.827	-0.047945	0.021079	-1.095770	-1.097106	0.003660	60.6556	-1.095815	-4.404419E+14	-8.310933E-18	NaN
198	1.000000	0.032380	7.36698e+06	-48539.1	955.817	-29762.4	0.000000	0.000000	6.032739	-0.001775	NaN	0.000000	0.001631	0.001774	28.079	0.053570	0.001857	28.845	-134.806	14.6063	0.000589	0.031005	-1.085805	-1.087179	-0.001775	28.845	-1.085759	-3.227439E+14	5.500143E-18	NaN
198	1.000000	0.042411	7.36698e+06	-48539.1	955.819	-29762.4	0.000000	0.000000	6.042768	-0.051980	NaN	0.000000	0.001542	0.001739	28.0786	0.110022	0.001927	57.0853	-98.7697	-164.584	-0.053917	0.041097	-1.075774	-1.077088	-0.051980	57.0853	-1.075091	-2.320488E+14	2.240063E-16	NaN
198	1.000000	0.052403	7.36698e+06	-48539.1	955.819	-29762.4	0.000000	0.000000	6.052761	-0.034290	NaN	0.000000	0.001591	0.001739	28.0786	0.050384	0.001984	25.3987	-35.057	13.0719	-0.046439	0.051036	-1.065781	-1.067148	-0.034290	25.3987	-1.064769	-1.686167E+14	2.033584E-16	NaN
198	1.000000	0.062410	7.36698e+06	-48539.1	955.819	-29762.4	0.000000	0.000000	6.062770	0.028101	NaN	0.000000	0.001552	0.001753	28.0783	0.100766	0.001979	50.9117	13.5748	-161.71	0.014196	0.061066	-1.055775	-1.057118	0.028101	50.9117	-1.056189	-1.293006E+14	-2.173315E-16	NaN
198	1.000000	0.072414	7.36698e+06	-48539.1	955.819	-29762.4	0.000000	0.000000	6.072772	-0.029982	NaN	0.000000	0.001560	0.001746	28.0786	0.068715	0.002109	32.5793	-47.221	18.8587	-0.027063	0.071051	-1.045770	-1.047134	-0.029982	32.5793	-1.045080	-9.167896E+13	3.270336E-16	NaN
198	1.000000	0.082398	7.36698e+06	-48539.1	955.818	-29762.4	0.000000	0.000000	6.082757	-0.007325	NaN	0.000000	0.001581	0.001737	28.0785	0.068593	0.001995	34.3843	124.71	-165.138	-0.092536	0.081116	-1.035787	-1.037068	-0.007325	34.3843	-1.035627	-6.841624E+13	1.070617E-16	NaN
198	1.000000	0.092402	7.36698e+06	-48539.1	955.819	-29762.4	0.000000	0.000000	6.092758	-0.078006	NaN	0.000000	0.001601	0.001754	28.0784	0.030633	0.001953	15.6874	-24.8752	20.5001	-0.121252	0.091062	-1.025783	-1.027123	-0.078006	15.6874	-1.022053	-4.493413E+13	1.736010E-15	NaN
198	1.000000	0.102417	7.36698e+06	-48539.1	955.819	-29762.4	0.000000	0.000000	6.102777	0.015781	NaN	0.000000	0.001563	0.001727	28.0796	0.122032	0.001932	63.1786	124.94	-165.154	0.021286	0.101110	-1.015768	-1.017075	0.015781	63.1786	-1.015955	-3.719827E+13	-4.242532E-16	NaN
198	1.000000	0.112395	7.36698e+06	-48539.1	955.818	-29762.4	0.000000	0.000000	6.112753	-0.037294	NaN	0.000000	0.001573	0.001723	28.0796	0.150659	0.001981	76.0369	-47.8815	12.5102	-0.025503	0.111041	-1.005789	-1.007143	-0.037294	76.0369	-1.005421	-2.683794E+13	1.389599E-15	NaN
198	1.000000	0.122439	7.36698e+06	-48539.1	955.817	-29762.4	0.000000	0.000000	6.122795	-0.094759	NaN	0.000000	0.001588	0.001776	28.0798	0.060636	0.001830	33.1354	-165.6	-167.384	-0.028579	0.121065	-0.995745	-0.997120	-0.094759	33.1354	-0.993600	-1.860357E+13	5.093597E-15	NaN
198	1.000000	0.132437	7.36698e+06	-48539.1	955.818	-29762.4	0.000000	0.000000	6.132793	-0.077304	NaN	0.000000	0.001583	0.001738	28.0799	0.041114	0.002086	19.7064	29.8363	15.5109	-0.062137	0.131150	-0.985748	-0.987034	-0.077304	19.7064	-0.982806	-1.331091E+13	5.807549E-15	NaN
198	1.000000	0.142407	7.36698e+06	-48539.1	955.819	-29762.4	0.000000	0.000000	6.142762	-0.082683	NaN	0.000000	0.001591	0.001795	28.0797	0.090188	0.001920	46.9651	-93.2422	-166.837	-0.014765	0.141110	-0.975778	-0.977074	-0.082683	46.9651	-0.974457	-1.027382E+13	8.047901E-15	NaN
198	1.000000	0.152421	7.36698e+06	-48539.1	955.818	-29762.4	0.000000	0.000000	6.152780	0.002540	NaN	0.000000	0.001551	0.001791	28.0798	0.076113	0.002051	37.1158	-158.459	17.9376	-0.027410	0.151074	-0.965764	-0.967111	0.002540	37.1158	-0.965815	-7.856994E+12	-3.232470E-16	NaN
198	1.000000	0.162464	7.36698e+06	-48539.1	955.817	-29762.4	0.000000	0.000000	6.162820	-0.078325	NaN	0.000000	0.001585	0.001766	28.0798	0.079737	0.002042	39.0529	-38.0546	-165.678	-0.103903	0.161168	-0.955720	-0.957016	-0.078325	39.0529	-0.954216	-5.481283E+12	1.428951E-14	NaN
198	1.000000	0.172454	7.36698e+06	-48539.1	955.819	-29762.4	0.000000	0.000000	6.172811	-0.055504	NaN	0.000000	0.001612	0.001748	28.0799	0.039558	0.001979	19.9931	-2.447504	16.1387	-0.105690	0.171067	-0.945731	-0.947117	-0.055504	19.9931	-0.943649	-3.947832E+12	1.405937E-14	NaN
198	1.000000	0.182477	7.36698e+06	-48539.1	955.818	-29762.4	0.000000	0.000000	6.182836	-0.007761	NaN	0.000000	0.001582	0.001745	28.0801	0.016696	0.002040	8.183869	-139.605	-163.651	-0.012193	0.181167	-0.935707	-0.937017	-0.007761	8.183869	-0.934996	-3.017316E+12	2.572100E-15	NaN
198	1.000000	0.192450	7.36698e+06	-48539.1	955.817	-29762.4	0.000000	0.000000	6.192809	0.005047	NaN	0.000000	0.001627	0.001771	28.0802	0.097175	0.001972	49.2765	-174.512	14.881	0.030213	0.191095	-0.925734	-0.927089	0.005047	49.2765	-0.925811	-2.268087E+12	-2.225280E-15	NaN
198	1.000000	0.202469	7.36698e+06	-48539.1	955.818	-29762.4	0.000000	0.000000	6.202823	-0.114492	NaN	0.000000	0.001597	0.001748	28.0798	0.051718	0.001866	27.7121	159.799	-165.802	-0.137707	0.201126	-0.915716	-0.917058	-0.114492	27.7121	-0.912617	-1.504901E+12	7.607937E-14	NaN
198	1.000000	0.212465	7.36698e+06	-48539.1	955.819	-29762.4	0.000000	0.000000	6.212822	-0.064269	NaN	0.000000	0.001589	0.001755	28.0798	0.159813	0.001962	81.437	85.6704	13.5942	-0.097681	0.211076	-0.905719	-0.907108	-0.064269	81.437	-0.905127	-1.192173E+12	5.390923E-14	NaN
198	1.000000	0.222472	7.36698e+06	-48539.1	955.818	-29762.4	0.000000	0.000000	6.222830	-0.022357	NaN	0.000000	0.001593	0.001777	28.08	0.229443	0.002053	111.748	175.776	-164.892	-0.027476	0.221154	-0.895712	-0.897030	-0.022357	111.748	-0.895562	-8.853121E+11	2.525312E-14	NaN
198	1.000000	0.232464	7.36698e+06	-48539.1	955.818	-29762.4	0.000000	0.000000	6.232824	0.017639	NaN	0.000000	0.001584	0.001748	28.0788	0.110014	0.001900	57.9066	-159.505	14.1976	0.032433	0.231126	-0.885721	-0.887058	0.017639	57.9066	-0.885949	-6.563752E+11	-2.687382E-14	NaN
198	1.000000	0.242471	7.36698e+06	-48539.1	955.818	-29762.4	0.000000	0.000000	6.242826	-0.100803	NaN	0.000000	0.001581	0.001751	28.0786	0.135313	0.001988	68.0493	-26.3798	-163.163	-0.097856	0.241207	-0.875714	-0.876977	-0.100803	68.0493	-0.874603	-4.610064E+11	2.186577E-13	NaN
198	1.000000	0.252469	7.36698e+06	-48539.1	955.818	-29762.4	0.000000	0.000000	6.252828	-0.006102	NaN	0.000000	0.001578	0.001769	28.0783	0.013371	0.002092	6.390670	177.869	15.3907	-0.029899	0.251091	-0.865716	-0.867094	-0.006102	6.390670	-0.864999	-3.418081E+11	1.785287E-14	NaN
198	1.000000	0.262502	7.36698e+06	-48539.1	955.818	-29762.4	0.000000	0.000000	6.262855	-0.129399	NaN	0.000000	0.001598	0.001781	28.0789	0.077052	0.001862	41.3887	-94.2437	-166.423	-0.050547	0.261163	-0.855683	-0.857021	-0.129399	41.3887	-0.853338	-2.376488E+11	5.444989E-13	NaN
198	1.000000	0.272486	7.36698e+06	-48539.1	955.818	-29762.4	0.000000	0.000000	6.272844	-0.026751	NaN	0.000000	0.001584	0.001762	28.0784	0.059543	0.001986	29.9742	122.125	17.3772	-0.061506	0.271158	-0.845699	-0.847027	-0.026751	29.9742	-0.845029	-1.834088E+11	1.458525E-13	NaN
198	1.000000	0.282497	7.36698e+06	-48539.1	955.818	-29762.4	0.000000	0.000000	6.282852	-0.103752	NaN	0.000000	0.001569	0.001767	28.0787	0.075074	0.002094	35.852	28.9843	-164.406	-0.052088	0.281190	-0.835687	-0.836995	-0.103752	35.852	-0.833517	-1.280699E+11	8.101240E-13	NaN
198	1.000000	0.292462	7.36698e+06	-48539.1	955.818	-29762.4	0.000000	0.000000	6.292818	-0.076829	NaN	0.000000	0.001597	0.001773	28.0784	0.066362	0.001973	33.6268	90.163	13.3144	-0.111288	0.291123	-0.825722	-0.827061	-0.076829	33.6268	-0.824009	-9.518515E+10	8.071486E-13	NaN
198	1.000000	0.302477	7.36698e+06	-48539.1	955.818	-29762.4	0.000000	0.000000	6.302833	-0.088106	NaN	0.000000	0.001583	0.001755	28.0791	0.033209	0.002075	16.0083	-87.0163	-165.933	-0.111613	0.301220	-0.815707	-0.816965	-0.088106	16.0083	-0.811579	-6.456510E+10	1.364602E-12	NaN
198	1.000000	0.312486	7.36698e+06	-48539.1	955.819	-29762.4	0.000000	0.000000	6.312846	0.005793	NaN	0.000000	0.001554	0.001774	28.0785	0.034525	0.001997	17.2908	121.143	14.5647	-0.045156	0.311172	-0.805698	-0.807013	0.005793	17.2908	-0.805949	-5.415144E+10	-1.069829E-13	NaN
198	1.000000	0.322534	7.36698e+06	-48539.1	955.817	-29762.4	0.000000	0.000000	6.322890	-0.074996	NaN	0.000000	0.001589	0.001763	28.0786	0.057041	0.001989	28.6732	67.665	-165.549	-0.069539	0.321207	-0.795650	-0.796978	-0.074996	28.6732	-0.793689	-3.691273E+10	2.031698E-12	NaN
198	1.000000	0.332521	7.36698e+06	-48539.1	955.819	-29762.4	0.000000	0.000000	6.332879	-0.033041	NaN	0.000000	0.001603	0.001759	28.0785	0.131695	0.002062	63.8627	-22.9562	12.9447	-0.029391	0.331090	-0.785663	-0.787095	-0.033041	63.8627	-0.785275	-2.837318E+10	1.164512E-12	NaN
198	1.000000	0.342519	7.36698e+06	-48539.1	955.819	-29762.4	0.000000	0.000000	6.342878	-0.023182	NaN	0.000000	0.001587	0.001753	28.079	0.093645	0.002024	46.2722	168.017	-165.332	-0.139595	0.341172	-0.775665	-0.777012	-0.023182	46.2722	-0.775289	-2.075923E+10	1.116710E-12	NaN
198	1.000000	0.352490	7.36698e+06	-48539.1	955.818	-29762.4	0.000000	0.000000	6.352850	0.017483	NaN	0.000000	0.001543	0.001763	28.0786	0.073601	0.002053	35.8479	54.9132	18.4083	0.000906	0.351174	-0.765695	-0.767010	0.017483	35.8479	-0.766061	-1.555022E+10	-1.124307E-12	NaN
198	1.000000	0.362519	7.36698e+06	-48539.1	955.818	-29762.4	0.000000	0.000000	6.362876	-0.051263	NaN	0.000000	0.001588	0.001772	28.0787	0.081744	0.002045	39.9639	126.031	-164.588	-0.058998	0.361218	-0.755666	-0.756967	-0.051263	39.9639	-0.754704	-1.089532E+10	4.705011E-12	NaN
198	1.000000	0.372544	7.36698e+06	-48539.1	955.819	-29762.4	0.000000	0.000000	6.372902	-0.032251	NaN	0.000000	0.001589	0.001768	28.0798	0.113983	0.001923	59.2725	-45.8726	14.0665	-0.033889	0.371122	-0.745641	-0.747062	-0.032251	59.2725	-0.745233	-8.096844E+9	3.983172E-12	NaN
198	1.000000	0.382505	7.36698e+06	-48539.1	955.818	-29762.4	0.000000	0.000000	6.382862	-0.064952	NaN	0.000000	0.001568	0.001768	28.0802	0.102951	0.001942	53.0083	123.748	-163.943	-0.118539	0.381178	-0.735679	-0.737006	-0.064952	53.0083	-0.734760	-5.830085E+9	1.114076E-11	NaN
198	1.000000	0.392519	7.36698e+06	-48539.1	955.817	-29762.4	0.000000	0.000000	6.392873	-0.113623	NaN	0.000000	0.001583	0.001759	28.0799	0.035099	0.002045	17.1668	70.3893	18.6121	0.002345	0.391226	-0.725666	-0.726958	-0.113623	17.1668	-0.720702	-3.750076E+9	3.029874E-11	NaN
198	1.000000	0.402547	7.36698e+06	-48539.1	955.818	-29762.4	0.000000	0.000000	6.402902	-0.106230	NaN	0.000000	0.001590	0.001798	28.0799	0.041151	0.002029	20.2782	-137.4	-165.242	-0.075069	0.401285	-0.715638	-0.716899	-0.106230	20.2782	-0.711709	-2.827251E+9	3.757343E-11	NaN
198	1.000000	0.412516	7.36698e+06	-48539.1	955.818	-29762.4	0.000000	0.000000	6.412871	-0.108223	NaN	0.000000	0.001568	0.001782	28.0798	0.035012	0.001914	18.2917	-113.072	16.4792	-0.188913	0.411233	-0.705668	-0.706951	-0.108223	18.2917	-0.701231	-2.033951E+9	5.320803E-11	NaN
198	1.000000	0.422554	7.36698e+06	-48539.1	955.818	-29762.4	0.000000	0.000000	6.422913	0.005299	NaN	0.000000	0.001585	0.001812	28.08	0.127554	0.002018	63.1987	162.493	-165.818	-0.031025	0.421240	-0.695630	-0.696944	0.005299	63.1987	-0.695693	-1.708869E+9	-3.100847E-12	NaN
198	1.000000	0.432547	7.36698e+06	-48539.1	955.818	-29762.4	0.000000	0.000000	6.432905	-0.029086	NaN	0.000000	0.001597	0.001811	28.0795	0.039857	0.001997	19.9564	15.6715	16.6717	0.014175	0.431145	-0.685638	-0.687039	-0.029086	19.9564	-0.684545	-1.203226E+9	2.417372E-11	NaN
198	1.000000	0.442565	7.36698e+06	-48539.1	955.818	-29762.4	0.000000	0.000000	6.442924	-0.020802	NaN	0.000000	0.001615	0.001756	28.0797	0.078092	0.002207	35.3787	-9.408639	-164.395	0.012317	0.441223	-0.675619	-0.676961	-0.020802	35.3787	-0.675178	-8.958702E+8	2.321984E-11	NaN
198	1.000000	0.452563	7.36698e+06	-48539.1	955.819	-29762.4	0.000000	0.000000	6.452920	-0.073172	NaN	0.000000	0.001627	0.001790	28.0797	0.062256	0.002038	30.541	-5.121942	17.5233	-0.121661	0.451145	-0.665621	-0.667040	-0.073172	30.541	-0.663824	-6.263851E+8	1.168166E-10	NaN
198	1.000000	0.462541	7.36698e+06	-48539.1	955.817	-29762.5	0.000000	0.000000	6.462895	-0.110845	NaN	0.000000	0.001584	0.001748	28.0799	0.114011	0.002065	55.2027	-160.975	-164.79	-0.083724	0.461271	-0.655644	-0.656913	-0.110845	55.2027	-0.654138	-4.614789E+8	2.401959E-10	NaN
198	1.000000	0.472562	7.36698e+06	-48539.1	955.819	-29762.5	0.000000	0.000000	6.472920	-0.024395	NaN	0.000000	0.001578	0.001727	28.0795	0.082312	0.001995	41.2531	140.592	13.8579	-0.065110	0.471218	-0.645622	-0.646967	-0.024395	41.2531	-0.645179	-3.478010E+8	7.014127E-11	NaN
198	1.000000	0.482580	7.36698e+06	-48539.1	955.817	-29762.4	0.000000	0.000000	6.482939	-0.018196	NaN	0.000000	0.001580	0.001753	28.0796	0.035995	0.001919	18.7614	131.993	-164.623	-0.060373	0.481274	-0.635604	-0.636910	-0.018196	18.7614	-0.634877	-2.511763E+8	7.244148E-11	NaN
198	1.000000	0.492548	7.36698e+06	-48539.1	955.818	-29762.4	0.000000	0.000000	6.492903	-0.099408	NaN	0.000000	0.001602	0.001728	28.0796	0.057613	0.001951	29.5374	-125.693	18.5577	-0.086596	0.491255	-0.625637	-0.626929	-0.099408	29.5374	-0.623112	-1.731444E+8	5.741321E-10	NaN
198	1.000000	0.502596	7.36699e+06	-48539.1	955.819	-29762.5	0.000000	0.000000	6.502952	-0.072483	NaN	0.000000	0.001580	0.001745	28.0794	0.013782	0.001931	7.135569	153.411	-164.476	0.013377	0.501228	-0.615589	-0.616957	-0.072483	7.135569	-0.607970	-1.071969E+8	6.761703E-10	NaN
198	1.000000	0.512578	7.36699e+06	-48539.1	955.818	-29762.5	0.000000	0.000000	6.512936	-0.036559	NaN	0.000000	0.001556	0.001728	28.0783	0.018410	0.002065	8.917269	-130.394	14.4265	-0.077182	0.511256	-0.605606	-0.606929	-0.036559	8.917269	-0.602531	-9.022250E+7	4.052065E-10	NaN
198	1.000000	0.522563	7.36699e+06	-48539.1	955.819	-29762.5	0.000000	0.000000	6.522922	-0.019219	NaN	0.000000	0.001579	0.001740	28.0782	0.092474	0.001934	47.823	-168.848	-166.221	-0.127703	0.521296	-0.595621	-0.596888	-0.019219	47.823	-0.595319	-7.177667E+7	2.677547E-10	NaN
198	1.000000	0.532598	7.36699e+06	-48539.1	955.819	-29762.5	0.000000	0.000000	6.532955	-0.060726	NaN	0.000000	0.001574	0.001727	28.0787	0.040259	0.001871	21.523	157.361	15.6891	-0.049243	0.531229	-0.585586	-0.586955	-0.060726	21.523	-0.583470	-4.927342E+7	1.232422E-9	NaN
198	1.000000	0.542596	7.36699e+06	-48539.1	955.818	-29762.5	0.000000	0.000000	6.542952	-0.071939	NaN	0.000000	0.001573	0.001717	28.0783	0.053850	0.001903	28.3032	-112.713	-163.617	-0.024466	0.541289	-0.575588	-0.576895	-0.071939	28.3032	-0.573682	-3.609918E+7	1.992828E-9	NaN
198	1.000000	0.552604	7.36699e+06	-48539.1	955.818	-29762.5	0.000000	0.000000	6.552960	-0.076918	NaN	0.000000	0.001601	0.001748	28.0787	0.080295	0.001987	40.4075	-104.163	16.7746	-0.105025	0.551258	-0.565581	-0.566927	-0.076918	40.4075	-0.564153	-2.665717E+7	2.885450E-9	NaN
198	1.000000	0.562642	7.36699e+06	-48539.1	955.819	-29762.5	0.000000	0.000000	6.562998	-0.082238	NaN	0.000000	0.001608	0.001737	28.0782	0.050425	0.001998	25.2332	-7.198640	-163.848	0.006194	0.561254	-0.555542	-0.556930	-0.082238	25.2332	-0.553098	-1.874363E+7	4.387524E-9	NaN
198	1.000000	0.572614	7.36699e+06	-48539.1	955.819	-29762.5	0.000000	0.000000	6.572970	-0.082364	NaN	0.000000	0.001628	0.001758	28.0786	0.060010	0.001993	30.1129	5.791072	15.5657	-0.002403	0.571318	-0.545570	-0.546866	-0.082364	30.1129	-0.543519	-1.380861E+7	5.964662E-9	NaN
198	1.000000	0.582635	7.36699e+06	-48539.1	955.819	-29762.5	0.000000	0.000000	6.582992	-0.051460	NaN	0.000000	0.001616	0.001716	28.0784	0.092930	0.002090	44.4611	73.0864	-167.069	-0.046157	0.581284	-0.535550	-0.536900	-0.051460	44.4611	-0.534682	-1.041290E+7	4.941940E-9	NaN
198	1.000000	0.592600	7.36699e+06	-48539.1	955.818	-29762.5	0.000000	0.000000	6.592959	-0.007942	NaN	0.000000	0.001613	0.001759	28.0784	0.133040	0.002008	66.2429	85.7857	13.3759	-0.008872	0.591222	-0.525584	-0.526962	-0.007942	66.2429	-0.525494	-7.76205e+06	1.023129E-9	NaN
198	1.000000	0.602635	7.36699e+06	-48539.1	955.818	-29762.5	0.000000	0.000000	6.602994	0.000803	NaN	0.000000	0.001620	0.001798	28.0785	0.058388	0.002044	28.5677	80.6537	-162.793	-0.036308	0.601296	-0.515550	-0.516888	0.000803	28.5677	-0.515571	-5.64903e+06	-1.421469E-10	NaN
198	1.000000	0.612657	7.36699e+06	-48539.1	955.819	-29762.5	0.000000	0.000000	6.613015	-0.023967	NaN	0.000000	0.001609	0.001823	28.0784	0.034544	0.002080	16.6078	127.321	15.5101	0.042636	0.611286	-0.505528	-0.506899	-0.023967	16.6078	-0.504445	-3.95377e+06	6.061867E-9	NaN
198	1.000000	0.622661	7.36699e+06	-48539.1	955.819	-29762.5	0.000000	0.000000	6.623017	-0.074148	NaN	0.000000	0.001614	0.001801	28.0784	0.033202	0.001928	17.2221	-87.6951	-164.138	-0.036473	0.621331	-0.495523	-0.496853	-0.074148	17.2221	-0.492294	-2.67575e+06	2.771102E-8	NaN
198	1.000000	0.632622	7.36699e+06	-48539.1	955.819	-29762.5	0.000000	0.000000	6.632980	-0.030355	NaN	0.000000	0.001567	0.001775	28.0785	0.067044	0.001888	35.5124	121.865	14.7261	-0.047780	0.631272	-0.485563	-0.486913	-0.030355	35.5124	-0.484922	-2.11055e+06	1.438239E-8	NaN
198	1.000000	0.642648	7.36699e+06	-48539.1	955.818	-29762.5	0.000000	0.000000	6.643003	-0.104571	NaN	0.000000	0.001575	0.001800	28.0799	0.032116	0.002237	14.3597	-103.843	-163.053	-0.089672	0.641333	-0.475537	-0.476851	-0.104571	14.3597	-0.470075	-1.30756e+06	7.997445E-8	NaN
198	1.000000	0.652643	7.36699e+06	-48539.1	955.818	-29762.5	0.000000	0.000000	6.653000	-0.056189	NaN	0.000000	0.001594	0.001755	28.0797	0.094165	0.001996	47.1731	-151.288	13.1869	-0.061350	0.651279	-0.465542	-0.466906	-0.056189	47.1731	-0.464648	-1.09727e+06	5.120837E-8	NaN
198	1.000000	0.662631	7.36699e+06	-48539.1	955.818	-29762.5	0.000000	0.000000	6.662989	-0.033449	NaN	0.000000	0.001563	0.001737	28.0797	0.070112	0.001946	36.0296	-68.2469	-167.616	-0.015706	0.661358	-0.455553	-0.456826	-0.033449	36.0296	-0.454857	-799296	4.184790E-8	NaN
198	1.000000	0.672663	7.36699e+06	-48539.1	955.818	-29762.5	0.000000	0.000000	6.673020	-0.067855	NaN	0.000000	0.001577	0.001768	28.0798	0.064581	0.001994	32.3945	-56.2282	13.8905	-0.046151	0.671280	-0.445521	-0.446904	-0.067855	32.3945	-0.443950	-561166	1.209177E-7	NaN
198	1.000000	0.682639	7.36699e+06	-48539.1	955.819	-29762.5	0.000000	0.000000	6.682995	-0.082130	NaN	0.000000	0.001593	0.001764	28.0799	0.111846	0.002054	54.4507	-160.48	-163.262	-0.111133	0.681352	-0.435545	-0.436832	-0.082130	54.4507	-0.434414	-411598	1.995398E-7	NaN
198	1.000000	0.692662	7.36699e+06	-48539.1	955.817	-29762.5	0.000000	0.000000	6.693019	-0.064517	NaN	0.000000	0.001591	0.001732	28.0795	0.067569	0.001962	34.4318	-156.551	13.9941	-0.096216	0.691307	-0.425522	-0.426877	-0.064517	34.4318	-0.424117	-294288	2.192310E-7	NaN
198	1.000000	0.702670	7.36699e+06	-48539.1	955.818	-29762.5	0.000000	0.000000	6.703025	-0.083630	NaN	0.000000	0.001605	0.001747	28.0797	0.019578	0.002132	9.181076	-37.6003	-165.935	-0.030872	0.701338	-0.415515	-0.416847	-0.083630	9.181076	-0.408683	-177692	4.706475E-7	NaN
198	1.000000	0.712645	7.36699e+06	-48539.1	955.818	-29762.5	0.000000	0.000000	6.713000	-0.088139	NaN	0.000000	0.001584	0.001758	28.0797	0.024766	0.002082	11.8923	70.9872	13.0561	-0.104691	0.711352	-0.405540	-0.406833	-0.088139	11.8923	-0.399981	-133574	6.598525E-7	NaN
198	1.000000	0.722673	7.36699e+06	-48539.1	955.819	-29762.5	0.000000	0.000000	6.723030	-0.053642	NaN	0.000000	0.001583	0.001765	28.0797	0.100708	0.002130	47.2844	-15.399	-164.54	-0.054151	0.721365	-0.395512	-0.396820	-0.053642	47.2844	-0.394661	-112148	4.783167E-7	NaN
198	1.000000	0.732683	7.36699e+06	-48539.1	955.818	-29762.5	0.000000	0.000000	6.733042	0.008573	NaN	0.000000	0.001627	0.001747	28.0796	0.060334	0.001943	31.0479	-149.402	17.1859	0.011428	0.731333	-0.385502	-0.386852	0.008573	31.0479	-0.385709	-83510.4	-1.026615E-7	NaN
198	1.000000	0.742665	7.36699e+06	-48539.1	955.817	-29762.5	0.000000	0.000000	6.743019	-0.129777	NaN	0.000000	0.001589	0.001745	28.0799	0.053383	0.002032	26.269	103.67	-161.659	-0.205655	0.741427	-0.375519	-0.376757	-0.129777	26.269	-0.371814	-52752.4	2.460122E-6	NaN
198	1.000000	0.752681	7.36699e+06	-48539.1	955.818	-29762.5	0.000000	0.000000	6.753037	-0.086427	NaN	0.000000	0.001590	0.001748	28.0801	0.090141	0.002094	43.0489	4.823210	16.3251	-0.101798	0.751335	-0.365503	-0.366849	-0.086427	43.0489	-0.363998	-40699.6	2.123531E-6	NaN
198	1.000000	0.762681	7.36699e+06	-48539.1	955.819	-29762.5	0.000000	0.000000	6.763036	-0.096671	NaN	0.000000	0.001613	0.001746	28.08	0.053763	0.001906	28.2106	-153.012	-165.648	0.004387	0.761323	-0.355504	-0.356862	-0.096671	28.2106	-0.352933	-28154.7	3.433563E-6	NaN
198	1.000000	0.772693	7.36699e+06	-48539.1	955.819	-29762.5	0.000000	0.000000	6.773049	-0.075276	NaN	0.000000	0.001668	0.001756	28.0797	0.040616	0.002113	19.2239	25.321	15.69	-0.096042	0.771304	-0.345491	-0.346880	-0.075276	19.2239	-0.342554	-19896.1	3.783465E-6	NaN
198	1.000000	0.782704	7.36699e+06	-48539.1	955.819	-29762.5	0.000000	0.000000	6.783060	-0.082322	NaN	0.000000	0.001654	0.001754	28.0788	0.044097	0.002046	21.5523	123.311	-167.097	-0.042913	0.781392	-0.335481	-0.336792	-0.082322	21.5523	-0.332616	-14247.4	5.778037E-6	NaN
198	1.000000	0.792700	7.36699e+06	-48539.1	955.819	-29762.5	0.000000	0.000000	6.793057	-0.066061	NaN	0.000000	0.001669	0.001736	28.0787	0.160670	0.001967	81.6978	156.577	10.8255	-0.138642	0.791385	-0.325484	-0.326799	-0.066061	81.6978	-0.324878	-10973.5	6.020033E-6	NaN
198	1.000000	0.802694	7.36699e+06	-48539.1	955.818	-29762.5	0.000000	0.000000	6.803053	-0.013622	NaN	0.000000	0.001682	0.001735	28.0786	0.135872	0.001995	68.1143	138.294	-165.938	-0.081039	0.801420	-0.315491	-0.316764	-0.013622	68.1143	-0.315341	-7942.79	1.715070E-6	NaN
198	1.000000	0.812725	7.36699e+06	-48539.1	955.817	-29762.5	0.000000	0.000000	6.813082	-0.050448	NaN	0.000000	0.001672	0.001757	28.0783	0.026330	0.002092	12.5836	178.46	15.2736	0.042466	0.811346	-0.305460	-0.306839	-0.050448	12.5836	-0.302453	-5118.25	9.856425E-6	NaN
198	1.000000	0.822730	7.36699e+06	-48539.1	955.818	-29762.5	0.000000	0.000000	6.823084	-0.131718	NaN	0.000000	0.001675	0.001757	28.0787	0.079478	0.001949	40.786	-165.442	-165.017	-0.081786	0.821409	-0.295454	-0.296775	-0.131718	40.786	-0.293032	-3704.06	3.556052E-5	NaN
198	1.000000	0.832740	7.36699e+06	-48539.1	955.818	-29762.5	0.000000	0.000000	6.833098	-0.040473	NaN	0.000000	0.001629	0.001734	28.0786	0.019508	0.001999	9.757833	6.029556	15.3533	-0.007566	0.831382	-0.285444	-0.286802	-0.040473	9.757833	-0.282333	-2559.43	1.581328E-5	NaN
198	1.000000	0.842729	7.36699e+06	-48539.1	955.819	-29762.5	0.000000	0.000000	6.843086	-0.070106	NaN	0.000000	0.001645	0.001760	28.0782	0.021281	0.001936	10.9947	-79.6587	-163.654	-0.068657	0.841377	-0.275455	-0.276808	-0.070106	10.9947	-0.270673	-1705.17	4.111358E-5	NaN
198	1.000000	0.852715	7.36699e+06	-48539.1	955.819	-29762.5	0.000000	0.000000	6.853070	-0.100608	NaN	0.000000	0.001651	0.001716	28.0785	0.043384	0.002018	21.4967	29.9732	15.1163	-0.003316	0.851376	-0.265469	-0.266808	-0.100608	21.4967	-0.261959	-1255.8	8.011471E-5	NaN
198	1.000000	0.862754	7.36699e+06	-48539.1	955.819	-29762.5	0.000000	0.000000	6.863111	-0.057249	NaN	0.000000	0.001609	0.001746	28.0783	0.037505	0.001958	19.152	61.3597	-165.722	0.022892	0.861414	-0.255430	-0.256771	-0.057249	19.152	-0.253188	-920.869	6.216850E-5	NaN
198	1.000000	0.872727	7.36699e+06	-48539.1	955.818	-29762.5	0.000000	0.000000	6.873081	-0.141590	NaN	0.000000	0.001659	0.001756	28.0783	0.070216	0.001973	35.5853	131.094	14.3271	-0.116618	0.871399	-0.245457	-0.246785	-0.141590	35.5853	-0.242473	-628.251	0.000225	NaN
198	1.000000	0.882731	7.36699e+06	-48539.1	955.818	-29762.5	0.000000	0.000000	6.883087	-0.080232	NaN	0.000000	0.001638	0.001762	28.0783	0.046329	0.002059	22.4974	108.017	-168.884	-0.109931	0.881453	-0.235453	-0.236731	-0.080232	22.4974	-0.232778	-442.915	0.000181	NaN
198	1.000000	0.892729	7.36699e+06	-48539.1	955.819	-29762.5	0.000000	0.000000	6.893085	-0.072646	NaN	0.000000	0.001643	0.001755	28.0782	0.136559	0.002005	68.118	-164.848	15.4675	-0.090086	0.891356	-0.225456	-0.226829	-0.072646	68.118	-0.224656	-329.509	0.000220	NaN
198	1.000000	0.902766	7.36699e+06	-48539.1	955.819	-29762.5	0.000000	0.000000	6.903123	-0.041595	NaN	0.000000	0.001657	0.001713	28.0784	0.089294	0.002035	43.8685	93.944	-166.192	-0.066502	0.901482	-0.215419	-0.216702	-0.041595	43.8685	-0.214708	-228.459	0.000182	NaN
198	1.000000	0.912767	7.36699e+06	-48539.1	955.819	-29762.5	0.000000	0.000000	6.913125	-0.024391	NaN	0.000000	0.001652	0.001649	28.0787	0.115853	0.001943	59.6296	-91.0552	17.8302	0.012975	0.911383	-0.205418	-0.206802	-0.024391	59.6296	-0.205111	-159.724	0.000153	NaN
198	1.000000	0.922763	7.36699e+06	-48539.1	955.819	-29762.5	0.000000	0.000000	6.923118	-0.112110	NaN	0.000000	0.001698	0.001702	28.0797	0.124307	0.002117	58.7315	-99.4096	-163.422	-0.069211	0.921442	-0.195421	-0.196742	-0.112110	58.7315	-0.193989	-104.82	0.001070	NaN
198	1.000000	0.932761	7.36699e+06	-48539.1	955.819	-29762.5	0.000000	0.000000	6.933122	0.041212	NaN	0.000000	0.001659	0.001665	28.0797	0.064359	0.002040	31.5442	-80.8931	19.7907	0.053649	0.931399	-0.185423	-0.186786	0.041212	31.5442	-0.186403	-78.2971	-0.000526	NaN
198	1.000000	0.942768	7.36699e+06	-48539.1	955.818	-29762.5	0.000000	0.000000	6.943123	-0.110600	NaN	0.000000	0.001635	0.001666	28.0799	0.072330	0.002030	35.6308	37.218	-163.769	-0.046380	0.941446	-0.175417	-0.176738	-0.110600	35.6308	-0.173089	-46.459	0.002381	NaN
198	1.000000	0.952792	7.36699e+06	-48539.1	955.819	-29762.5	0.000000	0.000000	6.953148	-0.078272	NaN	0.000000	0.001634	0.001688	28.0797	0.083807	0.001966	42.6212	-64.0989	16.8826	-0.082172	0.951440	-0.165393	-0.166744	-0.078272	42.6212	-0.164015	-32.2846	0.002424	NaN
198	1.000000	0.962771	7.36699e+06	-48539.1	955.818	-29762.5	0.000000	0.000000	6.963128	-0.065806	NaN	0.000000	0.001645	0.001697	28.08	0.043074	0.001971	21.8493	-67.3345	-166.481	0.009499	0.961484	-0.155413	-0.156701	-0.065806	21.8493	-0.153154	-20.6675	0.003184	NaN
198	1.000000	0.972791	7.36699e+06	-48539.1	955.816	-29762.5	0.000000	0.000000	6.973149	-0.034627	NaN	0.000000	0.001629	0.001680	28.0792	0.118134	0.001981	59.6391	16.7843	15.6433	-0.023405	0.971380	-0.145393	-0.146805	-0.034627	59.6391	-0.144958	-14.6347	0.002366	NaN
198	1.000000	0.982797	7.36699e+06	-48539.1	955.817	-29762.5	0.000000	0.000000	6.983154	-0.033834	NaN	0.000000	0.001669	0.001684	28.0801	0.081863	0.001935	42.2958	102.115	-162.888	0.007795	0.981477	-0.135388	-0.136708	-0.033834	42.2958	-0.134788	-9.424044	0.003590	NaN
198	1.000000	0.992780	7.36699e+06	-48539.1	955.817	-29762.5	0.000000	0.000000	6.993137	-0.038682	NaN	0.000000	0.001592	0.001664	28.0796	0.047686	0.002027	23.5201	-18.0302	16.2534	0.013178	0.991413	-0.125405	-0.126771	-0.038682	23.5201	-0.124171	-5.855543	0.006606	NaN
198	1.000000	1.002787	7.36699e+06	-48539.1	955.817	-29762.5	0.000000	0.000000	7.003143	-0.072492	NaN	0.000000	0.001581	0.001673	28.0799	0.013917	0.001995	6.977323	177.493	-166.364	0.006923	1.001425	-0.115397	-0.116759	-0.072492	6.977323	-0.107605	-2.673522	0.027115	NaN
198	1.000000	1.012795	7.36699e+06	-48539.1	955.816	-29762.5	0.000000	0.000000	7.013151	-0.085248	NaN	0.000000	0.001606	0.001687	28.0798	0.055926	0.001984	28.1848	-2.106007	15.0776	-0.077837	1.011449	-0.105389	-0.106735	-0.085248	28.1848	-0.103121	-2.139850	0.039838	NaN
198	1.000000	1.022803	7.36699e+06	-48539.1	955.816	-29762.5	0.000000	0.000000	7.023158	-0.093996	NaN	0.000000	0.001591	0.001651	28.08	0.077557	0.001999	38.8045	-0.755101	-164.489	-0.106582	1.021460	-0.095381	-0.096725	-0.093996	38.8045	-0.093565	-1.307904	0.071867	NaN
198	1.000000	1.032793	7.36699e+06	-48539.1	955.816	-29762.5	0.000000	0.000000	7.033151	-0.017500	NaN	0.000000	0.001580	0.001686	28.0801	0.141583	0.001920	73.7461	-138.01	18.3694	-0.025921	1.031441	-0.085392	-0.086743	-0.017500	73.7461	-0.085214	-0.831465	0.021047	NaN
198	1.000000	1.042787	7.36699e+06	-48539.1	955.817	-29762.5	0.000000	0.000000	7.043144	-0.053690	NaN	0.000000	0.001623	0.001724	28.0798	0.028058	0.002088	13.4405	-69.4113	-167.986	-0.071553	1.041514	-0.075397	-0.076670	-0.053690	13.4405	-0.072401	-0.395076	0.135897	NaN
198	1.000000	1.052796	7.36699e+06	-48539.1	955.818	-29762.5	0.000000	0.000000	7.053154	-0.018631	NaN	0.000000	0.001582	0.001727	28.0787	0.034248	0.001892	18.1056	-84.9909	16.578	-0.071751	1.051453	-0.065389	-0.066732	-0.018631	18.1056	-0.064617	-0.243183	0.076611	NaN
198	1.000000	1.062835	7.36699e+06	-48539.1	955.818	-29762.5	0.000000	0.000000	7.063193	-0.025848	NaN	0.000000	0.001575	0.001689	28.0787	0.017289	0.002171	7.965279	-69.2058	-163.217	-0.011931	1.061513	-0.055349	-0.056671	-0.025848	7.965279	-0.052916	-0.111660	0.231488	NaN
198	1.000000	1.072822	7.36699e+06	-48539.1	955.818	-29762.5	0.000000	0.000000	7.073179	-0.063784	NaN	0.000000	0.001549	0.001687	28.0787	0.081041	0.001945	41.6593	115.007	12.9062	-0.026523	1.071472	-0.045362	-0.046713	-0.063784	41.6593	-0.044214	-0.060806	1.048969	NaN
198	1.000000	1.082843	7.36699e+06	-48539.1	955.817	-29762.5	0.000000	0.000000	7.083199	-0.080852	NaN	0.000000	0.001550	0.001680	28.0785	0.052773	0.002016	26.1798	-106.655	-168.799	-0.031649	1.081502	-0.035341	-0.036682	-0.080852	26.1798	-0.033025	-0.028045	2.882993	NaN
198	1.000000	1.092813	7.36699e+06	-48539.1	955.817	-29762.5	0.000000	0.000000	7.093170	-0.073326	NaN	0.000000	0.001555	0.001690	28.0785	0.067355	0.002013	33.4638	-122.357	11.4628	-0.026676	1.091451	-0.025371	-0.026733	-0.073326	33.4638	-0.023728	-0.015635	4.689761	NaN
198	1.000000	1.102837	7.36699e+06	-48539.1	955.817	-29762.5	0.000000	0.000000	7.103195	-0.048852	NaN	0.000000	0.001571	0.001668	28.079	0.075469	0.002053	36.7567	-152.383	-168.006	-0.025342	1.101516	-0.015347	-0.016668	-0.048852	36.7567	-0.014350	-0.008889	5.495713	NaN
198	1.000000	1.112818	7.36699e+06	-48539.1	955.818	-29762.5	0.000000	0.000000	7.113175	-0.046900	NaN	0.000000	0.001637	0.001642	28.0787	0.062318	0.001974	31.5643	24.2991	17.7805	-0.097150	1.111465	-0.005367	-0.006719	-0.046900	31.5643	-0.004252	-0.002942	15.9435	NaN
198	1.000000	1.122799	7.36699e+06	-48539.1	955.818	-29762.5	0.000000	0.000000	7.123249	2.209118	NaN	0.000000	0.001598	0.001682	28.0786	3.030618	0.001836	1650.56	9.176147	-163.747	1.350198	1.121451	0.004615	0.003266	2.209118	1650.56	0.003611	0.002900	761.648	28001
198	2.000000	1.129985	7.36699e+06	-48539.1	955.817	-29762.5	0.000000	0.000000	7.130704	8.737545	NaN	0.000000	0.001575	0.001674	28.0787	9.266040	0.001772	5227.85	11.4752	6.346235	7.683686	1.129660	0.011801	0.011475	8.737545	5227.85	0.010547	0.009796	891.96	48258.6
198	2.000000	1.132449	7.36699e+06	-48539.1	955.817	-29762.5	0.000000	0.000000	7.133331	12.7163	NaN	0.000000	0.001607	0.001697	28.0785	11.4749	0.001756	6532.83	5.628375	-171.097	11.7604	1.132158	0.014264	0.013974	12.7163	6532.83	0.012804	0.012468	1019.91	53453.4
198	2.000000	1.134961	7.36699e+06	-48539.1	955.817	-29762.5	0.000000	0.000000	7.135992	16.3413	NaN	0.000000	0.001583	0.001730	28.0789	13.9294	0.001771	7867.36	7.945309	6.653232	15.6489	1.134517	0.016776	0.016333	16.3413	7867.36	0.015219	0.015578	1048.99	57589.8
198	2.000000	1.137407	7.36699e+06	-48539.1	955.817	-29762.5	0.000000	0.000000	7.138607	20.459	NaN	0.000000	0.001631	0.001718	28.0788	16.4118	0.001751	9375.19	8.041987	-177.043	19.0578	1.137114	0.019223	0.018930	20.459	9375.19	0.017586	0.018890	1083.07	62321.8
198	2.000000	1.139911	7.36699e+06	-48539.1	955.818	-29762.5	0.000000	0.000000	7.141342	26.0532	NaN	0.000000	0.001609	0.001707	28.079	18.6078	0.001893	9830.56	6.454419	6.950619	25.6626	1.139550	0.021727	0.021366	26.0532	9830.56	0.019739	0.022134	1177.08	60370.3
198	2.000000	1.142387	7.36699e+06	-48539.1	955.819	-29762.5	0.000000	0.000000	7.144032	31.2543	NaN	0.000000	0.001587	0.001668	28.0789	20.3347	0.001745	11655.4	3.134357	-172.95	29.2123	1.142107	0.024203	0.023923	31.2543	11655.4	0.022192	0.026104	1197.29	65908.8
198	2.000000	1.144873	7.36699e+06	-48539.1	955.818	-29762.5	0.000000	0.000000	7.146765	37.2769	NaN	0.000000	0.001616	0.001691	28.0801	23.3975	0.001817	12878.1	6.594981	3.513200	36.0728	1.144498	0.026689	0.026314	37.2769	12878.1	0.024518	0.030144	1236.63	67768
198	2.000000	1.147327	7.36699e+06	-48539.1	955.818	-29762.5	0.000000	0.000000	7.149496	44.0108	NaN	0.000000	0.001585	0.001684	28.08	25.9432	0.001788	14506.6	3.360384	-176.116	40.758	1.147033	0.029143	0.028849	44.0108	14506.6	0.026868	0.034501	1275.63	71354.2
198	2.000000	1.149904	7.36699e+06	-48539.1	955.818	-29762.5	0.000000	0.000000	7.152326	50.1565	NaN	0.000000	0.001596	0.001713	28.0802	28.3911	0.001778	15967.9	11.7198	-3.535297	49.897	1.149475	0.031720	0.031290	50.1565	15967.9	0.029364	0.039436	1271.83	73463.4
198	2.000000	1.152399	7.36699e+06	-48539.1	955.819	-29762.5	0.000000	0.000000	7.154992	54.3097	NaN	0.000000	0.001573	0.001684	28.0802	29.4473	0.001740	16923.6	6.484713	-177.766	55.5626	1.152056	0.034215	0.033871	54.3097	16923.6	0.031808	0.044575	1218.4	73235.6
198	2.000000	1.154890	7.36699e+06	-48539.1	955.819	-29762.5	0.000000	0.000000	7.157749	60.8172	NaN	0.000000	0.001630	0.001681	28.08	32.1435	0.001825	17613.3	5.935045	0.789582	60.3524	1.154524	0.036705	0.036339	60.8172	17613.3	0.034116	0.049707	1223.52	72178.4
198	2.000000	1.157399	7.36699e+06	-48539.1	955.819	-29762.5	0.000000	0.000000	7.160713	71.8623	NaN	0.000000	0.001670	0.001656	28.0799	33.7061	0.001744	19325.8	1.533763	-176.15	71.6387	1.157056	0.039215	0.038871	71.8623	19325.8	0.036426	0.055119	1303.77	75207.4
198	2.000000	1.159933	7.36699e+06	-48539.1	955.818	-29762.5	0.000000	0.000000	7.163286	72.8073	NaN	0.000000	0.001636	0.001697	28.0801	36.6012	0.001759	20804.1	10.1813	-5.956667	73.4352	1.159491	0.041749	0.041306	72.8073	20804.1	0.039124	0.061785	1178.4	76468.3
198	2.000000	1.162349	7.36699e+06	-48539.1	955.819	-29762.5	0.000000	0.000000	7.166078	81.9504	NaN	0.000000	0.001694	0.001687	28.0799	38.4678	0.001782	21586.9	4.652358	-179.99	80.9468	1.162004	0.044165	0.043820	81.9504	21586.9	0.041318	0.067478	1214.48	75924.8
198	2.000000	1.164822	7.36699e+06	-48539.1	955.819	-29762.5	0.000000	0.000000	7.168890	90.1982	NaN	0.000000	0.001667	0.001759	28.08	39.7448	0.001674	23740.1	3.383716	-0.290568	87.4386	1.164516	0.046638	0.046332	90.1982	23740.1	0.043788	0.074185	1215.86	79633.9
198	2.000000	1.167405	7.36699e+06	-48539.1	955.818	-29762.5	0.000000	0.000000	7.171759	97.1784	NaN	0.000000	0.001643	0.001771	28.08	44.0738	0.001927	22869.1	10.0146	174.505	97.6241	1.167004	0.049220	0.048819	97.1784	22869.1	0.046033	0.080547	1206.47	73620
198	2.000000	1.169807	7.36699e+06	-48539.1	955.818	-29762.5	0.000000	0.000000	7.174453	104.262	NaN	0.000000	0.001657	0.001755	28.0801	45.1421	0.001869	24148.3	6.991333	-2.630953	101.056	1.169464	0.051622	0.051280	104.262	24148.3	0.048384	0.087484	1191.78	74592.5
198	2.000000	1.172340	7.36699e+06	-48539.1	955.819	-29762.5	0.000000	0.000000	7.177248	110.634	NaN	0.000000	0.001654	0.001756	28.0799	46.6636	0.001734	26910.6	3.791965	178.77	109.983	1.171993	0.054155	0.053808	110.634	26910.6	0.051072	0.095755	1155.39	79454.1
198	2.000000	1.174802	7.36699e+06	-48539.1	955.82	-29762.5	0.000000	0.000000	7.180237	123.463	NaN	0.000000	0.001618	0.001763	28.0799	50.5121	0.001836	27515.3	6.087950	-3.591850	120.204	1.174384	0.056617	0.056200	123.463	27515.3	0.053252	0.102729	1201.83	78433.2
198	2.000000	1.177282	7.36699e+06	-48539.1	955.817	-29762.5	0.000000	0.000000	7.182904	127.98	NaN	0.000000	0.001598	0.001752	28.0798	52.8893	0.001940	27261.2	5.603182	176.767	124.653	1.177126	0.059098	0.058942	127.98	27261.2	0.055577	0.110428	1158.95	74951.4
198	2.000000	1.179857	7.36699e+06	-48539.1	955.819	-29762.5	0.000000	0.000000	7.186107	143.281	NaN	0.000000	0.001621	0.001742	28.0787	54.528	0.001857	29362.2	11.0372	-8.703193	143.232	1.179488	0.061672	0.061304	143.281	29362.2	0.058012	0.118778	1206.3	77838.4
198	2.000000	1.182317	7.36699e+06	-48539.1	955.818	-29762.5	0.000000	0.000000	7.188967	153.009	NaN	0.000000	0.001613	0.001726	28.0785	56.3484	0.001827	30848.4	5.388013	175.594	152.219	1.182041	0.064132	0.063857	153.009	30848.4	0.060412	0.127291	1202.04	78996.5
198	2.000000	1.184747	7.36699e+06	-48539.1	955.819	-29762.5	0.000000	0.000000	7.191965	166.809	NaN	0.000000	0.001648	0.001750	28.0788	58.6848	0.001797	32648.2	6.681847	-5.866176	162.851	1.184454	0.066563	0.066270	166.809	32648.2	0.062731	0.135783	1228.5	80948.6
198	2.000000	1.187322	7.36699e+06	-48539.1	955.818	-29762.5	0.000000	0.000000	7.194995	177.88	NaN	0.000000	0.001611	0.001794	28.0789	62.252	0.001863	33411.8	7.236326	173.398	177.231	1.187016	0.069138	0.068831	177.88	33411.8	0.065145	0.144901	1227.6	80193.2
198	2.000000	1.189854	7.36699e+06	-48539.1	955.818	-29762.5	0.000000	0.000000	7.198174	193.609	NaN	0.000000	0.001582	0.001723	28.0787	62.8653	0.001777	35386.4	3.963488	-3.061744	192.628	1.189481	0.071670	0.071296	193.609	35386.4	0.067567	0.154330	1254.51	82297.1
198	2.000000	1.192308	7.36699e+06	-48539.1	955.818	-29762.5	0.000000	0.000000	7.201388	212.096	NaN	0.000000	0.001613	0.001730	28.0786	64.939	0.001797	36138.7	7.249620	172.952	212.144	1.192036	0.074124	0.073851	212.096	36138.7	0.069722	0.162959	1301.53	81791.3
198	2.000000	1.194793	7.36699e+06	-48539.1	955.818	-29762.5	0.000000	0.000000	7.204040	216.148	NaN	0.000000	0.001591	0.001743	28.0788	68.1617	0.001669	40827.6	8.539979	-9.120680	214.332	1.194388	0.076609	0.076203	216.148	40827.6	0.072638	0.174985	1235.24	89171.6
198	2.000000	1.197366	7.36699e+06	-48539.1	955.818	-29762.5	0.000000	0.000000	7.207410	235.549	NaN	0.000000	0.001616	0.001743	28.0788	70.5716	0.001890	37347.6	1.460934	178.37	237.579	1.197093	0.079182	0.078908	235.549	37347.6	0.074452	0.182667	1289.5	79837.3
198	2.000000	1.199815	7.36699e+06	-48539.1	955.819	-29762.5	0.000000	0.000000	7.210599	253.535	NaN	0.000000	0.001600	0.001747	28.0786	72.6881	0.001652	44007.8	5.923007	-7.003128	250.661	1.199404	0.081631	0.081220	253.535	44007.8	0.077310	0.195090	1299.58	91030.2
198	2.000000	1.202326	7.36699e+06	-48539.1	955.819	-29762.5	0.000000	0.000000	7.213698	267.845	NaN	0.000000	0.001616	0.001720	28.0786	73.8244	0.001776	41579	5.515114	174.087	267.61	1.201943	0.084141	0.083759	267.845	41579	0.079310	0.204007	1312.92	84105.5
198	2.000000	1.204747	7.36699e+06	-48539.1	955.819	-29762.5	0.000000	0.000000	7.216648	280.711	NaN	0.000000	0.001618	0.001754	28.0785	77.5844	0.001769	43864.9	5.171966	-7.038965	276.176	1.204506	0.086562	0.086322	280.711	43864.9	0.081763	0.215202	1304.41	86390.9
198	2.000000	1.207234	7.36699e+06	-48539.1	955.819	-29762.5	0.000000	0.000000	7.220100	304.172	NaN	0.000000	0.001604	0.001740	28.0786	80.9329	0.001755	46121.8	7.608768	170.378	302.575	1.207017	0.089050	0.088833	304.172	46121.8	0.084103	0.226143	1345.04	88610.9
198	2.000000	1.209741	7.36699e+06	-48539.1	955.82	-29762.5	0.000000	0.000000	7.223390	323.22	NaN	0.000000	0.001622	0.001714	28.0786	83.2459	0.001755	47437.6	10.345	-11.9599	316.756	1.209319	0.091557	0.091135	323.22	47437.6	0.086446	0.237350	1361.79	88961.4
198	2.000000	1.212320	7.36699e+06	-48539.1	955.818	-29762.5	0.000000	0.000000	7.226490	335.914	NaN	0.000000	0.001626	0.001732	28.0796	84.3819	0.001737	48577.3	2.447879	175.663	336.959	1.211914	0.094135	0.093729	335.914	48577.3	0.088949	0.249600	1345.81	88835
198	2.000000	1.214801	7.36699e+06	-48539.1	955.818	-29762.5	0.000000	0.000000	7.229597	351.128	NaN	0.000000	0.001591	0.001741	28.08	89.9778	0.001907	47188.7	9.220640	-11.6076	351.45	1.214334	0.096617	0.096150	351.128	47188.7	0.091036	0.260034	1350.32	84546.6
198	2.000000	1.217242	7.36699e+06	-48539.1	955.819	-29762.5	0.000000	0.000000	7.232903	372.145	NaN	0.000000	0.001610	0.001727	28.0798	91.2201	0.001893	48180.7	5.207506	173.009	369.675	1.216927	0.099058	0.098742	372.145	48180.7	0.093265	0.271400	1371.2	84497
198	2.000000	1.219816	7.36699e+06	-48539.1	955.819	-29762.5	0.000000	0.000000	7.236468	396.282	NaN	0.000000	0.001595	0.001736	28.0797	91.8583	0.001741	52750.1	5.822646	-9.018677	393.47	1.219574	0.101631	0.101390	396.282	52750.1	0.095997	0.285639	1387.35	90175.3
198	2.000000	1.222242	7.36699e+06	-48539.1	955.817	-29762.5	0.000000	0.000000	7.239825	418.916	NaN	0.000000	0.001605	0.001732	28.0796	92.3397	0.001710	53998.2	-0.896909	178.348	415.672	1.221954	0.104058	0.103769	418.916	53998.2	0.098239	0.297581	1407.74	90437.7
198	2.000000	1.224788	7.36699e+06	-48539.1	955.817	-29762.5	0.000000	0.000000	7.243235	439.92	NaN	0.000000	0.001583	0.001696	28.0799	97.4217	0.001679	58027.9	5.210291	-8.821155	438.501	1.224476	0.106603	0.106291	439.92	58027.9	0.100918	0.312145	1409.34	94892.5
198	2.000000	1.227341	7.36699e+06	-48539.1	955.818	-29762.5	0.000000	0.000000	7.246500	457.245	NaN	0.000000	0.001610	0.001777	28.0798	101.627	0.001832	55471.4	6.318225	170.969	459.289	1.226857	0.109157	0.108673	457.245	55471.4	0.102975	0.323552	1413.2	89098.4