File: remote_trans/data/nanoindenter/0828-1/data/Data_2025-08-06,11h17m57s/2025-07-22_16-23-58_1_778.txt
2025-07-22, 16:23:58, 1
Index	Phase	Displacement	Time	Pos X	Pos Y	Pos Z	Rot A	Rot B	Piezo Z	Force A	Force B	Gripper	Voltage A	Voltage B	Temperature	Amplitude force	Amplitude pos	Stiffness	Phase shift	Phase excitation	Force A raw	Displacement raw	HMax	HMax raw	Real Force	Real Stiffness	Contact Depth	Area	Hardness	Reduced Mod.
[#]	[#]	[um]	[s]	[um]	[um]	[um]	[m°]	[m°]	[um]	[uN]	[uN]	[V]	[V]	[V]	[°C]	[uN]	[um]	[N/m]	[°]	[°]	[uN]	[um]	[um]	[um]	[uN]	[N/m]	[um]	[um^2]	[MPa]	[MPa]
778	1.000000	0.002364	7.37266e+06	-39039.1	1055.82	-29795.4	0.000000	0.000000	6.002801	-0.005314	NaN	0.000000	0.001606	0.001737	28.0799	0.054120	0.000979	55.2636	43.0178	-167.342	-0.050386	0.001134	-1.022027	-1.023257	-0.005314	55.2636	-1.021955	-4.479782E+13	1.186299E-16	NaN
778	1.000000	0.010298	7.37266e+06	-39039.1	1055.82	-29795.4	0.000000	0.000000	6.010734	-0.028191	NaN	0.000000	0.001628	0.001736	28.08	0.065565	0.001066	61.5062	-22.4953	-162.429	-0.000329	0.008981	-1.014094	-1.015411	-0.028191	61.5062	-1.013750	-3.474152E+13	8.114492E-16	NaN
778	1.000000	0.018296	7.37266e+06	-39039.1	1055.82	-29795.4	0.000000	0.000000	6.018734	0.014217	NaN	0.000000	0.001645	0.001739	28.0799	0.062762	0.001679	37.371	96.0527	-158.934	-0.051357	0.017016	-1.006096	-1.007375	0.014217	37.371	-1.006381	-2.764839E+13	-5.142237E-16	NaN
778	1.000000	0.026358	7.37266e+06	-39039.1	1055.82	-29795.4	0.000000	0.000000	6.026797	0.053677	NaN	0.000000	0.001606	0.001726	28.0805	0.064033	0.001735	36.9089	90.2661	-163.649	0.040685	0.025009	-0.998034	-0.999382	0.053677	36.9089	-0.999124	-2.207901E+13	-2.431119E-15	NaN
778	1.000000	0.034332	7.37266e+06	-39039.1	1055.82	-29795.4	0.000000	0.000000	6.034767	-0.042702	NaN	0.000000	0.001600	0.001738	28.081	0.042943	0.001883	22.8005	-39.9928	-165.082	-0.007785	0.032957	-0.990060	-0.991435	-0.042702	22.8005	-0.988655	-1.595887E+13	2.675734E-15	NaN
778	1.000000	0.042320	7.37266e+06	-39039.1	1055.82	-29795.4	0.000000	0.000000	6.042756	-0.013037	NaN	0.000000	0.001641	0.001720	28.0811	0.059901	0.001930	31.0433	175.058	-165.889	0.018923	0.041024	-0.982072	-0.983367	-0.013037	31.0433	-0.981757	-1.288490E+13	1.011769E-15	NaN
778	1.000000	0.050309	7.37266e+06	-39039.1	1055.82	-29795.4	0.000000	0.000000	6.050749	0.059696	NaN	0.000000	0.001666	0.001722	28.081	0.045284	0.001953	23.1906	-134.938	-165.601	0.023115	0.048988	-0.974082	-0.975404	0.059696	23.1906	-0.976013	-1.078184E+13	-5.536758E-15	NaN
778	1.000000	0.058293	7.37266e+06	-39039.1	1055.82	-29795.4	0.000000	0.000000	6.058731	0.021055	NaN	0.000000	0.001630	0.001807	28.081	0.101766	0.001989	51.1539	94.082	-166.822	-0.012957	0.057033	-0.966099	-0.967359	0.021055	51.1539	-0.966407	-8.002799E+12	-2.630959E-15	NaN
778	1.000000	0.066306	7.37266e+06	-39039.1	1055.82	-29795.4	0.000000	0.000000	6.066745	0.036958	NaN	0.000000	0.001670	0.001751	28.0808	0.075064	0.002099	35.7621	36.1454	-163.37	0.042068	0.065042	-0.958086	-0.959349	0.036958	35.7621	-0.958861	-6.331535E+12	-5.837184E-15	NaN
778	1.000000	0.074299	7.37266e+06	-39039.1	1055.82	-29795.4	0.000000	0.000000	6.074741	0.119990	NaN	0.000000	0.001663	0.001732	28.0809	0.077696	0.002058	37.7475	-66.3372	-164.232	0.086787	0.072938	-0.950093	-0.951453	0.119990	37.7475	-0.952477	-5.193115E+12	-2.310550E-14	NaN
778	1.000000	0.082343	7.37266e+06	-39039.1	1055.82	-29795.4	0.000000	0.000000	6.082781	0.019384	NaN	0.000000	0.001666	0.001695	28.0806	0.041093	0.001969	20.8662	-76.8797	-167.115	0.038242	0.081001	-0.942049	-0.943391	0.019384	20.8662	-0.942746	-3.838655E+12	-5.049748E-15	NaN
778	1.000000	0.090327	7.37266e+06	-39039.1	1055.82	-29795.4	0.000000	0.000000	6.090764	-0.013173	NaN	0.000000	0.001620	0.001746	28.0815	0.034510	0.001864	18.5121	-109.468	-165.596	0.064606	0.089040	-0.934064	-0.935352	-0.013173	18.5121	-0.933531	-2.882997E+12	4.569147E-15	NaN
778	1.000000	0.098317	7.37266e+06	-39039.1	1055.82	-29795.4	0.000000	0.000000	6.098756	0.040254	NaN	0.000000	0.001621	0.001736	28.0812	0.045177	0.002030	22.259	136.923	-167.084	0.041332	0.097010	-0.926075	-0.927382	0.040254	22.259	-0.927431	-2.385184E+12	-1.687666E-14	NaN
778	1.000000	0.106323	7.37266e+06	-39039.1	1055.82	-29795.4	0.000000	0.000000	6.106762	0.056828	NaN	0.000000	0.001577	0.001776	28.0807	0.044451	0.001989	22.348	14.187	-162.037	0.083127	0.105022	-0.918069	-0.919369	0.056828	22.348	-0.919976	-1.891839E+12	-3.003857E-14	NaN
778	1.000000	0.114354	7.37266e+06	-39039.1	1055.82	-29795.4	0.000000	0.000000	6.114793	0.024758	NaN	0.000000	0.001640	0.001739	28.0808	0.065883	0.002077	31.7223	-109.748	-162.705	0.074440	0.112979	-0.910037	-0.911412	0.024758	31.7223	-0.910623	-1.414398E+12	-1.750421E-14	NaN
778	1.000000	0.122313	7.37266e+06	-39039.1	1055.82	-29795.4	0.000000	0.000000	6.122752	0.028026	NaN	0.000000	0.001572	0.001744	28.0804	0.083366	0.001932	43.161	137.243	-168.966	0.055597	0.121012	-0.902078	-0.903380	0.028026	43.161	-0.902565	-1.100841E+12	-2.545851E-14	NaN
778	1.000000	0.130349	7.37266e+06	-39039.1	1055.82	-29795.4	0.000000	0.000000	6.130788	0.054850	NaN	0.000000	0.001609	0.001786	28.0807	0.118880	0.001976	60.1737	-37.7963	-164.746	0.100383	0.129008	-0.894043	-0.895384	0.054850	60.1737	-0.894727	-8.625883E+11	-6.358814E-14	NaN
778	1.000000	0.138330	7.37266e+06	-39039.1	1055.82	-29795.4	0.000000	0.000000	6.138767	-0.014959	NaN	0.000000	0.001623	0.001764	28.0808	0.124332	0.002098	59.2719	-162.253	-167.595	-0.006958	0.137020	-0.886061	-0.887371	-0.014959	59.2719	-0.885872	-6.548042E+11	2.284546E-14	NaN
778	1.000000	0.146334	7.37266e+06	-39039.1	1055.82	-29795.4	0.000000	0.000000	6.146774	0.049668	NaN	0.000000	0.001613	0.001712	28.0808	0.004199	0.001959	2.143734	70.3209	-164.374	0.067455	0.145032	-0.878057	-0.879359	0.049668	2.143734	-0.895434	-8.817877E+11	-5.632682E-14	NaN
778	1.000000	0.154361	7.37266e+06	-39039.1	1055.82	-29795.4	0.000000	0.000000	6.154797	-0.012783	NaN	0.000000	0.001623	0.001769	28.081	0.085806	0.002031	42.2401	-156.615	-164.053	-0.018452	0.153020	-0.870031	-0.871372	-0.012783	42.2401	-0.869804	-3.970023E+11	3.219965E-14	NaN
778	1.000000	0.162335	7.37266e+06	-39039.1	1055.82	-29795.4	0.000000	0.000000	6.162772	-0.005636	NaN	0.000000	0.001627	0.001746	28.0803	0.059890	0.002047	29.2621	-41.4397	-166.901	-0.092500	0.161022	-0.862056	-0.863370	-0.005636	29.2621	-0.861912	-3.104546E+11	1.815279E-14	NaN
778	1.000000	0.170362	7.37266e+06	-39039.1	1055.82	-29795.4	0.000000	0.000000	6.170801	0.046771	NaN	0.000000	0.001593	0.001777	28.0794	0.047337	0.002045	23.1517	55.424	-163.498	0.003103	0.169055	-0.854030	-0.855336	0.046771	23.1517	-0.855545	-2.545735E+11	-1.837239E-13	NaN
778	1.000000	0.178368	7.37266e+06	-39039.1	1055.82	-29795.4	0.000000	0.000000	6.178805	-0.007968	NaN	0.000000	0.001602	0.001791	28.0793	0.037376	0.002043	18.2948	112.102	-166.889	0.002694	0.177055	-0.846024	-0.847337	-0.007968	18.2948	-0.845697	-1.872702E+11	4.254634E-14	NaN
778	1.000000	0.186337	7.37266e+06	-39039.1	1055.82	-29795.4	0.000000	0.000000	6.186775	0.025288	NaN	0.000000	0.001615	0.001826	28.0794	0.109474	0.002018	54.246	-61.1934	-164.219	0.038463	0.185107	-0.838054	-0.839285	0.025288	54.246	-0.838404	-1.491664E+11	-1.695265E-13	NaN
778	1.000000	0.194379	7.37266e+06	-39039.1	1055.82	-29795.4	0.000000	0.000000	6.194817	0.034540	NaN	0.000000	0.001637	0.001753	28.0794	0.067642	0.002103	32.1638	-147.276	-164.372	0.112322	0.193038	-0.830013	-0.831353	0.034540	32.1638	-0.830818	-1.177273E+11	-2.933938E-13	NaN
778	1.000000	0.202398	7.37267e+06	-39039.1	1055.82	-29795.4	0.000000	0.000000	6.202835	-0.003329	NaN	0.000000	0.001611	0.001771	28.0794	0.057620	0.001842	31.2775	74.6151	-163.818	0.044477	0.201072	-0.821994	-0.823319	-0.003329	31.2775	-0.821914	-8.915892E+10	3.733824E-14	NaN
778	1.000000	0.210397	7.37267e+06	-39039.1	1055.82	-29795.4	0.000000	0.000000	6.210837	0.063654	NaN	0.000000	0.001609	0.001777	28.0794	0.030995	0.001932	16.0413	-42.5611	-165.865	0.097152	0.209121	-0.813994	-0.815271	0.063654	16.0413	-0.816970	-7.640532E+10	-8.331091E-13	NaN
778	1.000000	0.218374	7.37267e+06	-39039.1	1055.82	-29795.4	0.000000	0.000000	6.218811	-0.006995	NaN	0.000000	0.001596	0.001777	28.0794	0.117842	0.002113	55.7649	-162.32	-165.501	0.033423	0.217054	-0.806018	-0.807337	-0.006995	55.7649	-0.805924	-5.410790E+10	1.292727E-13	NaN
778	1.000000	0.226389	7.37267e+06	-39039.1	1055.82	-29795.4	0.000000	0.000000	6.226829	0.061643	NaN	0.000000	0.001612	0.001802	28.0794	0.073656	0.002068	35.6214	45.7809	-169.867	0.036008	0.225065	-0.798003	-0.799327	0.061643	35.6214	-0.799300	-4.399120E+10	-1.401267E-12	NaN
778	1.000000	0.234404	7.37267e+06	-39039.1	1055.82	-29795.4	0.000000	0.000000	6.234841	-0.013769	NaN	0.000000	0.001607	0.001783	28.0794	0.041530	0.001973	21.0493	-49.1035	-164.189	-0.012562	0.233020	-0.789987	-0.791371	-0.013769	21.0493	-0.789497	-3.237773E+10	4.252472E-13	NaN
778	1.000000	0.242369	7.37267e+06	-39039.1	1055.82	-29795.4	0.000000	0.000000	6.242807	0.029215	NaN	0.000000	0.001610	0.001837	28.0792	0.029230	0.001993	14.6658	161.584	-163.409	0.013481	0.241061	-0.782023	-0.783331	0.029215	14.6658	-0.783517	-2.685453E+10	-1.087891E-12	NaN
778	1.000000	0.250381	7.37267e+06	-39039.1	1055.82	-29795.4	0.000000	0.000000	6.250818	-0.007457	NaN	0.000000	0.001616	0.001788	28.0796	0.121912	0.001967	61.9829	-82.5725	-163.443	0.025228	0.249068	-0.774011	-0.775324	-0.007457	61.9829	-0.773921	-1.988870E+10	3.749501E-13	NaN
778	1.000000	0.258404	7.37267e+06	-39039.1	1055.82	-29795.4	0.000000	0.000000	6.258842	0.015553	NaN	0.000000	0.001591	0.001809	28.0796	0.012436	0.002028	6.132711	163.405	-161.119	0.109199	0.257064	-0.765987	-0.767328	0.015553	6.132711	-0.767889	-1.646658E+10	-9.445263E-13	NaN
778	1.000000	0.266375	7.37267e+06	-39039.1	1055.82	-29795.4	0.000000	0.000000	6.266812	-0.003757	NaN	0.000000	0.001603	0.001772	28.0795	0.072217	0.002102	34.3592	80.0496	-165.934	-0.067474	0.265050	-0.758017	-0.759341	-0.003757	34.3592	-0.757935	-1.205603E+10	3.115904E-13	NaN
778	1.000000	0.274399	7.37267e+06	-39039.1	1055.82	-29795.4	0.000000	0.000000	6.274838	0.048614	NaN	0.000000	0.001606	0.001790	28.0795	0.151655	0.001930	78.5893	106.485	-165.705	0.009381	0.273121	-0.749993	-0.751270	0.048614	78.5893	-0.750457	-9.537530E+9	-5.097133E-12	NaN
778	1.000000	0.282393	7.37267e+06	-39039.1	1055.82	-29795.4	0.000000	0.000000	6.282832	0.040109	NaN	0.000000	0.001616	0.001783	28.0794	0.063879	0.002009	31.7998	92.4941	-164.185	0.050585	0.281115	-0.741999	-0.743276	0.040109	31.7998	-0.742945	-7.536370E+9	-5.322072E-12	NaN
778	1.000000	0.290402	7.37267e+06	-39039.1	1055.82	-29795.4	0.000000	0.000000	6.290840	-0.001962	NaN	0.000000	0.001621	0.001759	28.0794	0.055972	0.002019	27.7253	41.8386	-167.242	-0.011592	0.289167	-0.733989	-0.735224	-0.001962	27.7253	-0.733936	-5.681287E+9	3.453781E-13	NaN
778	1.000000	0.298398	7.37267e+06	-39039.1	1055.82	-29795.4	0.000000	0.000000	6.298836	0.034581	NaN	0.000000	0.001598	0.001794	28.0795	0.017893	0.002001	8.942346	-26.5297	-168.32	-0.000559	0.297087	-0.725994	-0.727305	0.034581	8.942346	-0.728894	-4.849936E+9	-7.130104E-12	NaN
778	1.000000	0.306448	7.37267e+06	-39039.1	1055.82	-29795.4	0.000000	0.000000	6.306885	0.000989	NaN	0.000000	0.001616	0.001795	28.0808	0.057346	0.002014	28.4714	124.719	-163.102	-0.056722	0.305121	-0.717944	-0.719270	0.000989	28.4714	-0.717970	-3.441813E+9	-2.873895E-13	NaN
778	1.000000	0.314422	7.37267e+06	-39039.1	1055.82	-29795.4	0.000000	0.000000	6.314860	-0.003496	NaN	0.000000	0.001623	0.001766	28.0804	0.093068	0.002045	45.5019	-127.048	-163.609	0.007079	0.313121	-0.709969	-0.711271	-0.003496	45.5019	-0.709911	-2.672021E+9	1.308347E-12	NaN
778	1.000000	0.322443	7.37267e+06	-39039.1	1055.82	-29795.4	0.000000	0.000000	6.322881	0.006049	NaN	0.000000	0.001589	0.001807	28.0809	0.058298	0.002016	28.9237	-111.996	-164.168	0.107932	0.321120	-0.701948	-0.703272	0.006049	28.9237	-0.702105	-2.090646E+9	-2.893521E-12	NaN
778	1.000000	0.330428	7.37267e+06	-39039.1	1055.82	-29795.4	0.000000	0.000000	6.330867	0.031871	NaN	0.000000	0.001611	0.001800	28.0807	0.114058	0.001953	58.4093	175.849	-164.003	-0.009286	0.329126	-0.693963	-0.695266	0.031871	58.4093	-0.694373	-1.639326E+9	-1.944137E-11	NaN
778	1.000000	0.338440	7.37267e+06	-39039.1	1055.82	-29795.4	0.000000	0.000000	6.338876	-0.014036	NaN	0.000000	0.001614	0.001756	28.0806	0.119971	0.001984	60.4634	102.47	-167.837	-0.102694	0.337099	-0.685952	-0.687292	-0.014036	60.4634	-0.685778	-1.250858E+9	1.122111E-11	NaN
778	1.000000	0.346430	7.37267e+06	-39039.1	1055.82	-29795.4	0.000000	0.000000	6.346869	0.043766	NaN	0.000000	0.001599	0.001784	28.0807	0.057475	0.001942	29.5969	73.3486	-161.285	0.032683	0.345133	-0.677962	-0.679258	0.043766	29.5969	-0.679071	-1.012744E+9	-4.321517E-11	NaN
778	1.000000	0.354437	7.37267e+06	-39039.1	1055.82	-29795.4	0.000000	0.000000	6.354876	0.025343	NaN	0.000000	0.001596	0.001786	28.0805	0.013139	0.001902	6.906685	175.397	-163.952	0.000888	0.353140	-0.669954	-0.671252	0.025343	6.906685	-0.672706	-8.287526E+8	-3.057935E-11	NaN
778	1.000000	0.362437	7.37267e+06	-39039.1	1055.82	-29795.4	0.000000	0.000000	6.362877	0.056870	NaN	0.000000	0.001599	0.001779	28.081	0.011250	0.002056	5.471505	-91.9754	-164.774	0.027639	0.361146	-0.661954	-0.663245	0.056870	5.471505	-0.669750	-7.550290E+8	-7.532226E-11	NaN
778	1.000000	0.370431	7.37267e+06	-39039.1	1055.82	-29795.4	0.000000	0.000000	6.370870	0.017717	NaN	0.000000	0.001620	0.001801	28.0805	0.086925	0.001943	44.7299	-167.02	-168.353	0.009564	0.369173	-0.653960	-0.655219	0.017717	44.7299	-0.654257	-4.632193E+8	-3.824650E-11	NaN
778	1.000000	0.378460	7.37267e+06	-39039.1	1055.82	-29795.4	0.000000	0.000000	6.378902	0.125024	NaN	0.000000	0.001605	0.001791	28.0805	0.031210	0.001888	16.5283	135.74	-167.034	0.078848	0.377145	-0.645932	-0.647246	0.125024	16.5283	-0.651605	-4.260242E+8	-2.934666E-10	NaN
778	1.000000	0.386455	7.37267e+06	-39039.1	1055.82	-29795.4	0.000000	0.000000	6.386893	0.015463	NaN	0.000000	0.001609	0.001766	28.0805	0.027518	0.002069	13.3004	158.893	-163.518	0.056369	0.385143	-0.637937	-0.639249	0.015463	13.3004	-0.638809	-2.844092E+8	-5.436730E-11	NaN
778	1.000000	0.394449	7.37267e+06	-39039.1	1055.82	-29795.4	0.000000	0.000000	6.394887	0.022987	NaN	0.000000	0.001599	0.001800	28.0804	0.034246	0.001941	17.6473	-126.643	-163.607	0.121624	0.393135	-0.629942	-0.631256	0.022987	17.6473	-0.630919	-2.216407E+8	-1.037143E-10	NaN
778	1.000000	0.402442	7.37267e+06	-39039.1	1055.82	-29795.4	0.000000	0.000000	6.402880	0.021579	NaN	0.000000	0.001600	0.001788	28.0807	0.022164	0.002080	10.6559	91.4147	-164.071	0.048150	0.401112	-0.621949	-0.623279	0.021579	10.6559	-0.623468	-1.751045E+8	-1.232339E-10	NaN
778	1.000000	0.410455	7.37267e+06	-39039.1	1055.82	-29795.4	0.000000	0.000000	6.410892	-0.006535	NaN	0.000000	0.001582	0.001768	28.0807	0.030825	0.002032	15.1688	154.502	-165.361	0.010080	0.409174	-0.613936	-0.615218	-0.006535	15.1688	-0.613613	-1.281791E+8	5.098472E-11	NaN
778	1.000000	0.418461	7.37267e+06	-39039.1	1055.82	-29795.4	0.000000	0.000000	6.418899	-0.001848	NaN	0.000000	0.001640	0.001743	28.0807	0.050430	0.001992	25.3172	-8.320940	-164.203	0.010347	0.417150	-0.605930	-0.607242	-0.001848	25.3172	-0.605875	-1.003126E+8	1.842048E-11	NaN
778	1.000000	0.426466	7.37267e+06	-39039.1	1055.82	-29795.4	0.000000	0.000000	6.426907	0.083128	NaN	0.000000	0.001623	0.001760	28.0805	0.092776	0.001961	47.302	137.497	-164.087	0.146810	0.425177	-0.597925	-0.599215	0.083128	47.302	-0.599243	-8.129003E+7	-1.022606E-9	NaN
778	1.000000	0.434453	7.37267e+06	-39039.1	1055.82	-29795.4	0.000000	0.000000	6.434892	0.024315	NaN	0.000000	0.001636	0.001764	28.0804	0.041226	0.001994	20.679	131.271	-165.883	0.051803	0.433202	-0.589938	-0.591189	0.024315	20.679	-0.590820	-6.222635E+7	-3.907462E-10	NaN
778	1.000000	0.442470	7.37267e+06	-39039.1	1055.82	-29795.4	0.000000	0.000000	6.442910	0.071643	NaN	0.000000	0.001621	0.001830	28.0792	0.049651	0.002127	23.3456	161.966	-164.21	-0.014389	0.441125	-0.581922	-0.583266	0.071643	23.3456	-0.584224	-5.046669E+7	-1.419613E-9	NaN
778	1.000000	0.450460	7.37267e+06	-39039.1	1055.82	-29795.4	0.000000	0.000000	6.450899	0.058708	NaN	0.000000	0.001654	0.001763	28.0792	0.062935	0.001961	32.0911	177.457	-166.14	0.129586	0.449215	-0.573932	-0.575177	0.058708	32.0911	-0.575304	-3.800979E+7	-1.544550E-9	NaN
778	1.000000	0.458475	7.37267e+06	-39039.1	1055.82	-29795.4	0.000000	0.000000	6.458915	0.058896	NaN	0.000000	0.001629	0.001807	28.0797	0.110718	0.002042	54.2299	-43.1892	-166.932	0.010714	0.457145	-0.565916	-0.567247	0.058896	54.2299	-0.566731	-2.893698E+7	-2.035303E-9	NaN
778	1.000000	0.466481	7.37267e+06	-39039.1	1055.82	-29795.4	0.000000	0.000000	6.466919	0.014853	NaN	0.000000	0.001646	0.001761	28.0795	0.031594	0.002085	15.1526	-148.723	-163.722	0.023193	0.465174	-0.557911	-0.559218	0.014853	15.1526	-0.558646	-2.236904E+7	-6.639969E-10	NaN
778	1.000000	0.474510	7.37267e+06	-39039.1	1055.82	-29795.4	0.000000	0.000000	6.474950	0.050484	NaN	0.000000	0.001602	0.001727	28.0795	0.024254	0.002024	11.9851	-142.391	-161.3	0.109435	0.473180	-0.549881	-0.551212	0.050484	11.9851	-0.553040	-1.870944E+7	-2.698312E-9	NaN
778	1.000000	0.482467	7.37267e+06	-39039.1	1055.82	-29795.4	0.000000	0.000000	6.482906	0.053413	NaN	0.000000	0.001602	0.001767	28.0793	0.067136	0.002004	33.4939	-160.274	-162.099	0.025203	0.481205	-0.541925	-0.543187	0.053413	33.4939	-0.543121	-1.363431E+7	-3.917576E-9	NaN
778	1.000000	0.490508	7.37267e+06	-39039.1	1055.82	-29795.4	0.000000	0.000000	6.490947	0.046237	NaN	0.000000	0.001618	0.001771	28.0795	0.048828	0.002020	24.1743	-163.755	-165.575	0.071981	0.489219	-0.533884	-0.535173	0.046237	24.1743	-0.535318	-1.062692E+7	-4.350971E-9	NaN
778	1.000000	0.498523	7.37267e+06	-39039.1	1055.82	-29795.4	0.000000	0.000000	6.498962	0.043807	NaN	0.000000	0.001588	0.001772	28.0792	0.038091	0.002069	18.4144	53.6992	-163.277	0.030701	0.497165	-0.525868	-0.527227	0.043807	18.4144	-0.527653	-8.31703e+06	-5.267162E-9	NaN
778	1.000000	0.506496	7.37267e+06	-39039.1	1055.82	-29795.4	0.000000	0.000000	6.506937	0.090493	NaN	0.000000	0.001535	0.001780	28.0795	0.054994	0.001994	27.5743	50.0941	-162.571	0.057949	0.505197	-0.517896	-0.519195	0.090493	27.5743	-0.520357	-6.58507e+06	-1.374214E-8	NaN
778	1.000000	0.514524	7.37267e+06	-39039.1	1055.82	-29795.4	0.000000	0.000000	6.514958	-0.079859	NaN	0.000000	0.001531	0.001747	28.0796	0.064442	0.001951	33.0241	-160.362	-165.626	-0.044349	0.513189	-0.509868	-0.511202	-0.079859	33.0241	-0.508054	-4.43925e+06	1.798933E-8	NaN
778	1.000000	0.522521	7.37267e+06	-39039.1	1055.82	-29795.4	0.000000	0.000000	6.522961	0.066272	NaN	0.000000	0.001619	0.001758	28.0793	0.090823	0.001988	45.6758	-16.8181	-164.798	0.033244	0.521227	-0.501871	-0.503165	0.066272	45.6758	-0.502959	-3.76955e+06	-1.758084E-8	NaN
778	1.000000	0.530508	7.37267e+06	-39039.1	1055.82	-29795.4	0.000000	0.000000	6.530947	0.043396	NaN	0.000000	0.001597	0.001738	28.0796	0.026312	0.001947	13.5175	-115.899	-162.69	0.035659	0.529205	-0.493883	-0.495186	0.043396	13.5175	-0.496291	-3.0427e+06	-1.426222E-8	NaN
778	1.000000	0.538498	7.37267e+06	-39039.1	1055.82	-29795.4	0.000000	0.000000	6.538935	-0.011574	NaN	0.000000	0.001599	0.001735	28.0795	0.085109	0.002014	42.2644	-165.424	-163.615	-0.057940	0.537222	-0.485893	-0.487170	-0.011574	42.2644	-0.485688	-2.16328e+06	5.350230E-9	NaN
778	1.000000	0.546502	7.37267e+06	-39039.1	1055.82	-29795.4	0.000000	0.000000	6.546942	0.064921	NaN	0.000000	0.001645	0.001743	28.0797	0.088656	0.001898	46.7196	121.869	-166.97	0.016001	0.545196	-0.477889	-0.479196	0.064921	46.7196	-0.478931	-1.74007e+06	-3.730952E-8	NaN
778	1.000000	0.554511	7.37267e+06	-39039.1	1055.82	-29795.4	0.000000	0.000000	6.554944	-0.096918	NaN	0.000000	0.001637	0.001733	28.0798	0.058029	0.001948	29.7894	45.9166	-167.294	-0.065629	0.553194	-0.469881	-0.471198	-0.096918	29.7894	-0.467441	-1.20089e+06	8.070466E-8	NaN
778	1.000000	0.562538	7.37267e+06	-39039.1	1055.82	-29795.4	0.000000	0.000000	6.562974	-0.021481	NaN	0.000000	0.001622	0.001749	28.0795	0.048281	0.001975	24.4402	-29.5872	-163.367	0.084645	0.561199	-0.461854	-0.463192	-0.021481	24.4402	-0.461195	-981306	2.189025E-8	NaN
778	1.000000	0.570491	7.37267e+06	-39039.1	1055.82	-29795.4	0.000000	0.000000	6.570930	0.057079	NaN	0.000000	0.001628	0.001720	28.0796	0.063584	0.001981	32.0976	-52.2546	-166.487	0.059383	0.569249	-0.453901	-0.455143	0.057079	32.0976	-0.455235	-809127	-7.054401E-8	NaN
778	1.000000	0.578536	7.37267e+06	-39039.1	1055.82	-29795.4	0.000000	0.000000	6.578976	0.066289	NaN	0.000000	0.001620	0.001743	28.0807	0.040479	0.002013	20.1083	-76.6116	-162.612	0.081315	0.577146	-0.445856	-0.447246	0.066289	20.1083	-0.448328	-646842	-1.024805E-7	NaN
778	1.000000	0.586503	7.37267e+06	-39039.1	1055.82	-29795.4	0.000000	0.000000	6.586943	0.056025	NaN	0.000000	0.001702	0.001702	28.0808	0.028079	0.001904	14.7458	-146.852	-164.608	-0.001778	0.585221	-0.437889	-0.439170	0.056025	14.7458	-0.440738	-505568	-1.108162E-7	NaN
778	1.000000	0.594551	7.37267e+06	-39039.1	1055.82	-29795.4	0.000000	0.000000	6.594990	0.050977	NaN	0.000000	0.001681	0.001746	28.0813	0.072694	0.001907	38.1115	-54.5569	-162.635	0.074782	0.593247	-0.429841	-0.431145	0.050977	38.1115	-0.430844	-366436	-1.391166E-7	NaN
778	1.000000	0.602525	7.37267e+06	-39039.1	1055.82	-29795.4	0.000000	0.000000	6.602964	0.034913	NaN	0.000000	0.001598	0.001741	28.0805	0.091213	0.002066	44.1401	-137.056	-163.556	-0.007610	0.601233	-0.421866	-0.423158	0.034913	44.1401	-0.422460	-278797	-1.252277E-7	NaN
778	1.000000	0.610548	7.37267e+06	-39039.1	1055.82	-29795.4	0.000000	0.000000	6.610989	0.079968	NaN	0.000000	0.001602	0.001745	28.0809	0.091246	0.001998	45.6656	63.5821	-166.064	0.009369	0.609223	-0.413843	-0.415169	0.079968	45.6656	-0.415157	-219624	-3.641146E-7	NaN
778	1.000000	0.618558	7.37267e+06	-39039.1	1055.82	-29795.4	0.000000	0.000000	6.618999	0.092560	NaN	0.000000	0.001571	0.001754	28.0807	0.065867	0.002042	32.2518	-132.426	-163.322	0.150005	0.617275	-0.405833	-0.407116	0.092560	32.2518	-0.407986	-173680	-5.329331E-7	NaN
778	1.000000	0.626545	7.37267e+06	-39039.1	1055.82	-29795.4	0.000000	0.000000	6.626986	0.101970	NaN	0.000000	0.001568	0.001713	28.081	0.122422	0.001996	61.3401	-9.869932	-168.769	0.092796	0.625218	-0.397847	-0.399173	0.101970	61.3401	-0.399093	-129737	-7.859730E-7	NaN
778	1.000000	0.634551	7.37267e+06	-39039.1	1055.82	-29795.4	0.000000	0.000000	6.634991	0.054551	NaN	0.000000	0.001574	0.001734	28.0809	0.050019	0.002045	24.4633	152.315	-166.642	0.014440	0.633234	-0.389840	-0.391157	0.054551	24.4633	-0.391513	-101112	-5.395122E-7	NaN
778	1.000000	0.642555	7.37267e+06	-39039.1	1055.82	-29795.4	0.000000	0.000000	6.642994	0.047548	NaN	0.000000	0.001578	0.001771	28.0807	0.059376	0.001970	30.1351	9.895801	-164.407	0.056418	0.641228	-0.381837	-0.383163	0.047548	30.1351	-0.383020	-76420.4	-6.221915E-7	NaN
778	1.000000	0.650557	7.37267e+06	-39039.1	1055.82	-29795.4	0.000000	0.000000	6.650996	0.056546	NaN	0.000000	0.001594	0.001712	28.0809	0.110485	0.002008	55.0291	132.013	-164.081	0.009240	0.649307	-0.373835	-0.375084	0.056546	55.0291	-0.374606	-57862.9	-9.772493E-7	NaN
778	1.000000	0.658560	7.37267e+06	-39039.1	1055.82	-29795.4	0.000000	0.000000	6.658998	0.012465	NaN	0.000000	0.001588	0.001715	28.0805	0.080328	0.002072	38.7633	162.756	-164.385	0.059647	0.657246	-0.365831	-0.367145	0.012465	38.7633	-0.366072	-43603.7	-2.858737E-7	NaN
778	1.000000	0.666559	7.37267e+06	-39039.1	1055.82	-29795.4	0.000000	0.000000	6.666999	0.060425	NaN	0.000000	0.001603	0.001747	28.0809	0.088837	0.001927	46.0989	-36.4853	-164.45	0.048101	0.665198	-0.357832	-0.359193	0.060425	46.0989	-0.358816	-34254.7	-1.763985E-6	NaN
778	1.000000	0.674574	7.37267e+06	-39039.1	1055.82	-29795.4	0.000000	0.000000	6.675014	0.068473	NaN	0.000000	0.001623	0.001726	28.0814	0.041653	0.002016	20.6621	30.8748	-166.29	0.066833	0.673256	-0.349817	-0.351135	0.068473	20.6621	-0.352303	-27568.2	-2.483762E-6	NaN
778	1.000000	0.682570	7.37267e+06	-39039.1	1055.82	-29795.4	0.000000	0.000000	6.683007	-0.015090	NaN	0.000000	0.001618	0.001746	28.0808	0.030542	0.001850	16.5067	123.877	-169.096	0.028839	0.681222	-0.341821	-0.343169	-0.015090	16.5067	-0.341136	-18971.6	7.953764E-7	NaN
778	1.000000	0.690591	7.37267e+06	-39039.1	1055.82	-29795.4	0.000000	0.000000	6.691030	0.046915	NaN	0.000000	0.001602	0.001764	28.0808	0.107510	0.001963	54.7553	-171.461	-164.555	0.104759	0.689286	-0.333801	-0.335105	0.046915	54.7553	-0.334444	-15151.6	-3.096374E-6	NaN
778	1.000000	0.698567	7.37267e+06	-39039.1	1055.82	-29795.4	0.000000	0.000000	6.699005	0.012724	NaN	0.000000	0.001600	0.001748	28.0807	0.123876	0.001895	65.3824	133.042	-167.044	0.014409	0.697298	-0.325824	-0.327094	0.012724	65.3824	-0.325970	-11386.2	-1.117497E-6	NaN
778	1.000000	0.706591	7.37267e+06	-39039.1	1055.82	-29795.4	0.000000	0.000000	6.707029	0.012597	NaN	0.000000	0.001636	0.001768	28.0809	0.085584	0.001993	42.9521	-137.062	-162.512	0.002908	0.705269	-0.317801	-0.319123	0.012597	42.9521	-0.318021	-8699.45	-1.447991E-6	NaN
778	1.000000	0.714592	7.37267e+06	-39039.1	1055.82	-29795.4	0.000000	0.000000	6.715032	0.057577	NaN	0.000000	0.001651	0.001750	28.0796	0.091081	0.001942	46.8943	149.208	-161.905	0.097795	0.713250	-0.309799	-0.311142	0.057577	46.8943	-0.310720	-6787.48	-8.482800E-6	NaN
778	1.000000	0.722584	7.37267e+06	-39039.1	1055.82	-29795.4	0.000000	0.000000	6.723021	-0.014937	NaN	0.000000	0.001679	0.001758	28.0795	0.151211	0.001962	77.0807	-111.312	-166.046	0.041569	0.721329	-0.301808	-0.303063	-0.014937	77.0807	-0.301662	-4981.6	2.998365E-6	NaN
778	1.000000	0.730591	7.37267e+06	-39039.1	1055.82	-29795.4	0.000000	0.000000	6.731029	0.001953	NaN	0.000000	0.001701	0.001706	28.0796	0.108587	0.002020	53.7501	-130.305	-167.345	0.017600	0.729287	-0.293800	-0.295104	0.001953	53.7501	-0.293828	-3806.91	-5.129627E-7	NaN
778	1.000000	0.738603	7.37267e+06	-39039.1	1055.82	-29795.4	0.000000	0.000000	6.739043	0.060753	NaN	0.000000	0.001680	0.001748	28.0796	0.142118	0.002039	69.7146	-119.176	-164.758	-0.027472	0.737311	-0.285789	-0.287080	0.060753	69.7146	-0.286442	-2950.77	-2.058870E-5	NaN
778	1.000000	0.746598	7.37267e+06	-39039.1	1055.82	-29795.4	0.000000	0.000000	6.747037	0.026416	NaN	0.000000	0.001679	0.001743	28.0794	0.099225	0.001919	51.7037	-73.8322	-167.675	0.046614	0.745290	-0.277793	-0.279102	0.026416	51.7037	-0.278177	-2215.35	-1.192392E-5	NaN
778	1.000000	0.754620	7.37267e+06	-39039.1	1055.82	-29795.4	0.000000	0.000000	6.755058	0.010462	NaN	0.000000	0.001648	0.001749	28.0796	0.067141	0.001959	34.2674	-140.696	-165.766	-0.009421	0.753308	-0.269772	-0.271083	0.010462	34.2674	-0.270001	-1665.53	-6.281457E-6	NaN
778	1.000000	0.762623	7.37267e+06	-39039.1	1055.82	-29795.4	0.000000	0.000000	6.763063	0.064571	NaN	0.000000	0.001611	0.001763	28.0798	0.093313	0.001943	48.0313	-44.3897	-163.764	0.026174	0.761303	-0.261768	-0.263089	0.064571	48.0313	-0.262776	-1292.47	-4.995913E-5	NaN
778	1.000000	0.770593	7.37267e+06	-39039.1	1055.82	-29795.4	0.000000	0.000000	6.771032	0.041366	NaN	0.000000	0.001635	0.001751	28.0796	0.018294	0.002071	8.831254	6.644770	-163.674	-0.000733	0.769293	-0.253798	-0.255099	0.041366	8.831254	-0.257311	-1065.76	-3.881387E-5	NaN
778	1.000000	0.778648	7.37267e+06	-39039.1	1055.82	-29795.4	0.000000	0.000000	6.779088	0.067302	NaN	0.000000	0.001618	0.001756	28.0796	0.101330	0.001859	54.4987	-6.304313	-166.708	0.080902	0.777311	-0.245743	-0.247081	0.067302	54.4987	-0.246670	-730.091	-9.218333E-5	NaN
778	1.000000	0.786610	7.37267e+06	-39039.1	1055.82	-29795.4	0.000000	0.000000	6.787047	0.006664	NaN	0.000000	0.001631	0.001770	28.0794	0.112268	0.002012	55.7864	-70.3927	-164.931	-0.063499	0.785313	-0.237782	-0.239078	0.006664	55.7864	-0.237871	-532.435	-1.251553E-5	NaN
778	1.000000	0.794627	7.37267e+06	-39039.1	1055.82	-29795.4	0.000000	0.000000	6.795065	0.018992	NaN	0.000000	0.001646	0.001731	28.0794	0.035049	0.002041	17.1691	165.321	-168.673	0.036231	0.793302	-0.229764	-0.231090	0.018992	17.1691	-0.230594	-409.161	-4.641708E-5	NaN
778	1.000000	0.802621	7.37267e+06	-39039.1	1055.82	-29795.4	0.000000	0.000000	6.803061	0.058847	NaN	0.000000	0.001674	0.001744	28.0794	0.045761	0.001921	23.8192	-139.444	-165.694	0.036139	0.801329	-0.221770	-0.223062	0.058847	23.8192	-0.223623	-317.283	-0.000185	NaN
778	1.000000	0.810610	7.37267e+06	-39039.1	1055.82	-29795.4	0.000000	0.000000	6.811048	0.012195	NaN	0.000000	0.001644	0.001726	28.0795	0.063941	0.002096	30.509	45.3183	-163.103	0.067088	0.809292	-0.213781	-0.215100	0.012195	30.509	-0.214081	-223.214	-5.463554E-5	NaN
778	1.000000	0.818591	7.37267e+06	-39039.1	1055.82	-29795.4	0.000000	0.000000	6.819031	0.058228	NaN	0.000000	0.001655	0.001752	28.08	0.038704	0.002044	18.9391	-93.7014	-161.76	0.058863	0.817317	-0.205800	-0.207074	0.058228	18.9391	-0.208106	-178.692	-0.000326	NaN
778	1.000000	0.826622	7.37267e+06	-39039.1	1055.82	-29795.4	0.000000	0.000000	6.827062	0.058765	NaN	0.000000	0.001658	0.001728	28.08	0.095600	0.002014	47.4671	-154.557	-165.297	-0.040305	0.825334	-0.197770	-0.199057	0.058765	47.4671	-0.198698	-125.396	-0.000469	NaN
778	1.000000	0.834641	7.37267e+06	-39039.1	1055.82	-29795.4	0.000000	0.000000	6.835082	0.087364	NaN	0.000000	0.001698	0.001752	28.0796	0.126329	0.002008	62.9186	-84.2519	-168.141	0.150959	0.833339	-0.189750	-0.191052	0.087364	62.9186	-0.190792	-92.7358	-0.000942	NaN
778	1.000000	0.842648	7.37267e+06	-39039.1	1055.82	-29795.4	0.000000	0.000000	6.843086	0.023441	NaN	0.000000	0.001586	0.001764	28.0794	0.071889	0.001981	36.2869	-8.700129	-165.16	0.044406	0.841325	-0.181744	-0.183067	0.023441	36.2869	-0.182228	-66.5729	-0.000352	NaN
778	1.000000	0.850652	7.37267e+06	-39039.1	1055.82	-29795.4	0.000000	0.000000	6.851092	0.071834	NaN	0.000000	0.001589	0.001748	28.0808	0.038703	0.001903	20.3415	42.599	-163.923	0.074275	0.849305	-0.173740	-0.175086	0.071834	20.3415	-0.176388	-52.9419	-0.001357	NaN
778	1.000000	0.858628	7.37267e+06	-39039.1	1055.82	-29795.4	0.000000	0.000000	6.859067	0.046784	NaN	0.000000	0.001614	0.001766	28.0808	0.030476	0.002135	14.2715	-118.242	-162.202	0.036367	0.857367	-0.165763	-0.167024	0.046784	14.2715	-0.168222	-38.2541	-0.001223	NaN
778	1.000000	0.866653	7.37267e+06	-39039.1	1055.82	-29795.4	0.000000	0.000000	6.867092	0.035430	NaN	0.000000	0.001664	0.001774	28.0807	0.044235	0.001967	22.4927	-120.637	-165.443	0.062887	0.865349	-0.157739	-0.159043	0.035430	22.4927	-0.158920	-26.2284	-0.001351	NaN
778	1.000000	0.874664	7.37267e+06	-39039.1	1055.82	-29795.4	0.000000	0.000000	6.875100	-0.028584	NaN	0.000000	0.001583	0.001783	28.0809	0.075051	0.002060	36.4336	-19.541	-166.018	-0.007525	0.873378	-0.149727	-0.151013	-0.028584	36.4336	-0.149139	-17.4697	0.001636	NaN
778	1.000000	0.882636	7.37267e+06	-39039.1	1055.82	-29795.4	0.000000	0.000000	6.883077	0.085928	NaN	0.000000	0.001611	0.001757	28.0808	0.070997	0.001823	38.9529	-115.278	-162.907	0.067652	0.881363	-0.141755	-0.143028	0.085928	38.9529	-0.143410	-13.6986	-0.006273	NaN
778	1.000000	0.890668	7.37267e+06	-39039.1	1055.82	-29795.4	0.000000	0.000000	6.891106	0.007641	NaN	0.000000	0.001587	0.001746	28.0808	0.067931	0.002000	33.974	131.723	-163.2	0.022844	0.889340	-0.133724	-0.135052	0.007641	33.974	-0.133892	-9.059498	-0.000843	NaN
778	1.000000	0.898688	7.37267e+06	-39039.1	1055.82	-29795.4	0.000000	0.000000	6.899129	0.096142	NaN	0.000000	0.001619	0.001755	28.0805	0.084378	0.001957	43.1078	59.4871	-169.291	0.094081	0.897391	-0.125704	-0.127000	0.096142	43.1078	-0.127377	-6.773461	-0.014194	NaN
778	1.000000	0.906660	7.37267e+06	-39039.1	1055.82	-29795.4	0.000000	0.000000	6.907099	0.019404	NaN	0.000000	0.001602	0.001746	28.0805	0.072800	0.001978	36.8019	97.6513	-164.495	0.097903	0.905339	-0.117731	-0.119052	0.019404	36.8019	-0.118127	-4.427142	-0.004383	NaN
778	1.000000	0.914670	7.37267e+06	-39039.1	1055.82	-29795.4	0.000000	0.000000	6.915112	0.116391	NaN	0.000000	0.001608	0.001733	28.0806	0.029460	0.001978	14.8972	-171.852	-167.817	0.054723	0.913363	-0.109722	-0.111029	0.116391	14.8972	-0.115581	-3.927134	-0.029638	NaN
778	1.000000	0.922665	7.37267e+06	-39039.1	1055.82	-29795.4	0.000000	0.000000	6.923104	0.042859	NaN	0.000000	0.001590	0.001709	28.0808	0.052785	0.002024	26.0816	-2.915282	-167.988	0.097554	0.921313	-0.101727	-0.103078	0.042859	26.0816	-0.102959	-2.122562	-0.020192	NaN
778	1.000000	0.930676	7.37267e+06	-39039.1	1055.82	-29795.4	0.000000	0.000000	6.931117	0.091394	NaN	0.000000	0.001585	0.001753	28.0806	0.011581	0.002040	5.677708	118.167	-162.007	0.096047	0.929391	-0.093716	-0.095001	0.091394	5.677708	-0.105788	-2.444384	-0.037389	NaN
778	1.000000	0.938699	7.37267e+06	-39039.1	1055.82	-29795.4	0.000000	0.000000	6.939139	0.052359	NaN	0.000000	0.001616	0.001721	28.08	0.097822	0.001987	49.2242	-149.156	-166.866	0.038455	0.937353	-0.085692	-0.087038	0.052359	49.2242	-0.086490	-0.892416	-0.058671	NaN
778	1.000000	0.946702	7.37267e+06	-39039.1	1055.82	-29795.4	0.000000	0.000000	6.947140	0.020012	NaN	0.000000	0.001585	0.001764	28.0806	0.092975	0.001957	47.5203	-114.783	-164.055	0.002497	0.945370	-0.077690	-0.079022	0.020012	47.5203	-0.078006	-0.551419	-0.036292	NaN
778	1.000000	0.954687	7.37267e+06	-39039.1	1055.82	-29795.4	0.000000	0.000000	6.955125	0.018501	NaN	0.000000	0.001581	0.001761	28.0805	0.143582	0.001952	73.5494	-102.233	-166.633	0.042384	0.953382	-0.069705	-0.071010	0.018501	73.5494	-0.069893	-0.338866	-0.054596	NaN
778	1.000000	0.962681	7.37267e+06	-39039.1	1055.82	-29795.4	0.000000	0.000000	6.963121	0.058546	NaN	0.000000	0.001547	0.001742	28.0807	0.037832	0.002010	18.8248	-66.5831	-162.774	0.051305	0.961414	-0.061711	-0.062977	0.058546	18.8248	-0.064043	-0.234394	-0.249776	NaN
778	1.000000	0.970675	7.37267e+06	-39039.1	1055.82	-29795.4	0.000000	0.000000	6.971116	0.085395	NaN	0.000000	0.001575	0.001724	28.0806	0.055796	0.002106	26.4929	137.848	-164.107	0.122054	0.969379	-0.053716	-0.055012	0.085395	26.4929	-0.056134	-0.139073	-0.614035	NaN
778	1.000000	0.978724	7.37267e+06	-39039.1	1055.82	-29795.4	0.000000	0.000000	6.979162	-0.006262	NaN	0.000000	0.001610	0.001716	28.0805	0.043489	0.002056	21.153	-158.699	-163.108	-0.078435	0.977414	-0.045667	-0.046978	-0.006262	21.153	-0.045445	-0.066314	0.094423	NaN
778	1.000000	0.986711	7.37267e+06	-39039.1	1055.82	-29795.4	0.000000	0.000000	6.987150	0.052949	NaN	0.000000	0.001591	0.001743	28.0795	0.068731	0.002097	32.778	171.047	-164.1	0.030283	0.985362	-0.037681	-0.039029	0.052949	32.778	-0.038892	-0.041858	-1.264954	NaN
778	1.000000	0.994705	7.37267e+06	-39039.1	1055.82	-29795.4	0.000000	0.000000	6.995142	-0.008622	NaN	0.000000	0.001541	0.001750	28.0793	0.175788	0.002039	86.1984	-129.169	-163.639	0.071663	0.993412	-0.029686	-0.030979	-0.008622	86.1984	-0.029611	-0.022447	0.384111	NaN
778	1.000000	1.002697	7.37267e+06	-39039.1	1055.82	-29795.4	0.000000	0.000000	7.003138	0.090184	NaN	0.000000	0.001607	0.001742	28.0793	0.090280	0.002011	44.9018	-158.234	-166.619	0.072888	1.001387	-0.021695	-0.023004	0.090184	44.9018	-0.023201	-0.015155	-5.950634	NaN
778	1.000000	1.010711	7.37267e+06	-39039.1	1055.82	-29795.4	0.000000	0.000000	7.011148	-1.900021E-5	NaN	0.000000	0.001607	0.001716	28.0794	0.059640	0.001950	30.5911	-114.425	-162.681	0.010691	1.009392	-0.013681	-0.015000	-1.900021E-5	30.5911	-0.013680	-0.008497	0.002236	NaN
778	1.000000	1.018721	7.37267e+06	-39039.1	1055.82	-29795.4	0.000000	0.000000	7.019196	0.928875	NaN	0.000000	0.001608	0.001717	28.0794	1.342860	0.001880	714.12	1.215333	-165.964	0.209412	1.017412	-0.005671	-0.006980	0.928875	714.12	-0.006646	-0.004428	-209.752	NaN
778	1.000000	1.026575	7.37267e+06	-39039.1	1055.82	-29795.4	0.000000	0.000000	7.027358	8.396972	NaN	0.000000	0.001633	0.001728	28.0798	7.863015	0.001729	4548.06	10.9479	-169.545	7.129507	1.025431	0.002184	0.001040	8.396972	4548.06	0.000799	0.000607	13842.1	168709
778	2.000000	1.029192	7.37267e+06	-39039.1	1055.82	-29795.4	0.000000	0.000000	7.030093	11.2732	NaN	0.000000	0.001628	0.001728	28.0794	10.4866	0.001619	6478.56	6.394401	-172.42	10.3528	1.028980	0.004800	0.004589	11.2732	6478.56	0.003495	0.002801	4024.53	111837
778	2.000000	1.031245	7.37267e+06	-39039.1	1055.82	-29795.4	0.000000	0.000000	7.032242	13.6195	NaN	0.000000	0.001628	0.001729	28.0798	13.2514	0.001715	7724.67	5.528874	-172.368	14.2716	1.030904	0.006854	0.006512	13.6195	7724.67	0.005532	0.004624	2945.59	103791
778	2.000000	1.033227	7.37267e+06	-39039.1	1055.82	-29795.4	0.000000	0.000000	7.034406	18.0344	NaN	0.000000	0.001627	0.001724	28.0793	15.2144	0.001483	10255.9	4.735748	-174.978	17.776	1.032878	0.008836	0.008487	18.0344	10255.9	0.007517	0.006550	2753.24	115776
778	2.000000	1.035184	7.37267e+06	-39039.1	1055.82	-29795.4	0.000000	0.000000	7.036555	22.7301	NaN	0.000000	0.001608	0.001739	28.0794	18.105	0.001781	10167	4.777104	-172.73	22.2278	1.034892	0.010792	0.010501	22.7301	10167	0.009116	0.008215	2766.88	102485
778	2.000000	1.037229	7.37267e+06	-39039.1	1055.82	-29795.4	0.000000	0.000000	7.038805	27.7121	NaN	0.000000	0.001590	0.001735	28.0794	20.4842	0.001865	10985.9	6.140839	-175.028	27.43	1.036830	0.012837	0.012438	27.7121	10985.9	0.010946	0.010251	2703.25	99132.9
778	2.000000	1.039165	7.37267e+06	-39039.1	1055.82	-29795.4	0.000000	0.000000	7.040927	32.2355	NaN	0.000000	0.001585	0.001698	28.0791	21.7995	0.001703	12803.3	8.311373	-179.033	32.176	1.038848	0.014773	0.014457	32.2355	12803.3	0.012885	0.012567	2565.02	104345
778	2.000000	1.041161	7.37267e+06	-39039.1	1055.82	-29795.4	0.000000	0.000000	7.043025	34.7204	NaN	0.000000	0.001595	0.001714	28.0797	24.8407	0.001882	13197.7	5.516840	-177.326	34.3309	1.040909	0.016770	0.016517	34.7204	13197.7	0.014796	0.015015	2312.39	98403.1
778	2.000000	1.043172	7.37267e+06	-39039.1	1055.82	-29795.4	0.000000	0.000000	7.045277	40.5698	NaN	0.000000	0.001590	0.001698	28.0793	25.4732	0.001722	14793.4	5.882662	-179.004	40.1034	1.042857	0.018781	0.018465	40.5698	14793.4	0.016724	0.017653	2298.18	101726
778	2.000000	1.045150	7.37267e+06	-39039.1	1055.82	-29795.4	0.000000	0.000000	7.047404	44.2283	NaN	0.000000	0.001595	0.001721	28.0795	28.6731	0.001821	15743.7	7.472677	179.19	44.4456	1.044902	0.020758	0.020510	44.2283	15743.7	0.018651	0.020467	2160.98	100544
778	2.000000	1.047153	7.37267e+06	-39039.1	1055.82	-29795.4	0.000000	0.000000	7.049673	50.6758	NaN	0.000000	0.001602	0.001678	28.0796	29.1565	0.001716	16993.6	-0.119659	-174.402	49.213	1.046935	0.022761	0.022543	50.6758	16993.6	0.020525	0.023374	2168.06	101553
778	2.000000	1.049104	7.37267e+06	-39039.1	1055.82	-29795.4	0.000000	0.000000	7.051941	58.3815	NaN	0.000000	0.001611	0.001723	28.0794	31.6419	0.001879	16839.6	6.318701	-179.529	56.757	1.048807	0.024713	0.024415	58.3815	16839.6	0.022113	0.025971	2247.91	95467.6
778	2.000000	1.051176	7.37267e+06	-39039.1	1055.82	-29795.4	0.000000	0.000000	7.054157	61.8877	NaN	0.000000	0.001645	0.001693	28.0818	33.3928	0.001724	19373.2	3.978065	-179.005	61.7639	1.050807	0.026785	0.026415	61.8877	19373.2	0.024389	0.029913	2068.92	102340
778	2.000000	1.053177	7.37267e+06	-39039.1	1055.82	-29795.4	0.000000	0.000000	7.056396	67.6918	NaN	0.000000	0.001647	0.001699	28.0808	34.5241	0.001710	20184.3	3.342424	-178.191	68.9075	1.052799	0.028786	0.028408	67.6918	20184.3	0.026270	0.033367	2028.69	100955
778	2.000000	1.055188	7.37267e+06	-39039.1	1055.82	-29795.4	0.000000	0.000000	7.058755	76.147	NaN	0.000000	0.001660	0.001711	28.0807	37.1547	0.001837	20222.7	5.387809	179.913	77.2627	1.054844	0.030797	0.030452	76.147	20222.7	0.027973	0.036646	2077.9	96515.9
778	2.000000	1.057112	7.37267e+06	-39039.1	1055.82	-29795.4	0.000000	0.000000	7.060970	83.2441	NaN	0.000000	0.001615	0.001701	28.081	38.3345	0.001738	22056.8	2.862162	-179.094	80.1535	1.056865	0.032720	0.032473	83.2441	22056.8	0.029890	0.040516	2054.61	100116
778	2.000000	1.059082	7.37267e+06	-39039.1	1055.82	-29795.4	0.000000	0.000000	7.063268	91.2122	NaN	0.000000	0.001636	0.001656	28.0808	39.2589	0.001623	24183.3	4.033969	179.197	88.1764	1.058780	0.034690	0.034388	91.2122	24183.3	0.031862	0.044691	2040.96	104515
778	2.000000	1.061100	7.37267e+06	-39039.1	1055.82	-29795.4	0.000000	0.000000	7.065516	96.8247	NaN	0.000000	0.001662	0.001706	28.0819	43.0092	0.001765	24369	3.171106	179.605	95.4182	1.060823	0.036708	0.036432	96.8247	24369	0.033728	0.048826	1983.05	100759
778	2.000000	1.063121	7.37267e+06	-39039.1	1055.82	-29795.4	0.000000	0.000000	7.067982	107.656	NaN	0.000000	0.001569	0.001761	28.0808	43.6409	0.001654	26385.9	3.542116	178.602	106.273	1.062874	0.038730	0.038483	107.656	26385.9	0.035670	0.053316	2019.19	104403
778	2.000000	1.065243	7.37267e+06	-39039.1	1055.82	-29795.4	0.000000	0.000000	7.070232	110.774	NaN	0.000000	0.001609	0.001723	28.0809	48.0283	0.001783	26943.1	6.417362	175.607	115.996	1.064902	0.040852	0.040511	110.774	26943.1	0.037768	0.058388	1897.21	101873
778	2.000000	1.067135	7.37267e+06	-39039.1	1055.82	-29795.4	0.000000	0.000000	7.072750	126	NaN	0.000000	0.001600	0.001724	28.0809	49.7974	0.001851	26904.9	10.494	173.19	125.217	1.066712	0.042744	0.042320	126	26904.9	0.039232	0.062057	2030.37	98675.2
778	2.000000	1.069095	7.37267e+06	-39039.1	1055.82	-29795.4	0.000000	0.000000	7.075091	135.273	NaN	0.000000	0.001613	0.001712	28.0808	50.9228	0.001861	27367.4	4.207404	178.456	135.331	1.068813	0.044703	0.044422	135.273	27367.4	0.040996	0.066628	2030.28	96867.7
778	2.000000	1.071142	7.37267e+06	-39039.1	1055.82	-29795.4	0.000000	0.000000	7.077345	140.301	NaN	0.000000	0.001603	0.001698	28.0813	53.2466	0.001740	30603.6	7.184246	173.704	140.783	1.070887	0.046750	0.046496	140.301	30603.6	0.043312	0.072868	1925.42	103581
778	2.000000	1.073095	7.37267e+06	-39039.1	1055.82	-29795.4	0.000000	0.000000	7.079848	153.698	NaN	0.000000	0.001620	0.001724	28.0806	54.1001	0.001726	31337	6.720956	173.746	153.392	1.072768	0.048703	0.048377	153.698	31337	0.045025	0.077657	1979.18	102740
778	2.000000	1.075074	7.37267e+06	-39039.1	1055.82	-29795.4	0.000000	0.000000	7.082160	161.801	NaN	0.000000	0.001666	0.001709	28.0806	56.6669	0.001731	32740.7	5.140913	175.421	160.56	1.074772	0.050682	0.050380	161.801	32740.7	0.046976	0.083294	1942.52	103646
778	2.000000	1.077032	7.37267e+06	-39039.1	1055.82	-29795.4	0.000000	0.000000	7.084638	174.442	NaN	0.000000	0.001644	0.001695	28.0808	59.0235	0.001860	31733.7	7.243894	173.892	170.083	1.076794	0.052641	0.052403	174.442	31733.7	0.048518	0.087887	1984.85	97798.4
778	2.000000	1.079054	7.37267e+06	-39039.1	1055.82	-29795.4	0.000000	0.000000	7.086851	179.085	NaN	0.000000	0.001635	0.001707	28.0807	59.252	0.001763	33608.9	-0.088726	-179.128	175.767	1.078769	0.054663	0.054378	179.085	33608.9	0.050666	0.094484	1895.39	99895.8
778	2.000000	1.081098	7.37267e+06	-39039.1	1055.82	-29795.4	0.000000	0.000000	7.089234	187.353	NaN	0.000000	0.001616	0.001672	28.0807	62.1771	0.001708	36412.2	3.618586	175.785	187.214	1.080760	0.056706	0.056369	187.353	36412.2	0.052847	0.101417	1847.36	104464
778	2.000000	1.083149	7.37267e+06	-39039.1	1055.82	-29795.4	0.000000	0.000000	7.091808	200.095	NaN	0.000000	0.001698	0.001716	28.0808	63.2791	0.001757	36008.1	3.759956	175.892	201.717	1.082806	0.058757	0.058415	200.095	36008.1	0.054589	0.107125	1867.87	100514
778	2.000000	1.085109	7.37267e+06	-39039.1	1055.82	-29795.4	0.000000	0.000000	7.094119	208.624	NaN	0.000000	0.001689	0.001705	28.0797	66.8362	0.001904	35103.8	6.983644	172.719	208.868	1.084650	0.060718	0.060259	208.624	35103.8	0.056260	0.112741	1850.47	95518.1
778	2.000000	1.087061	7.37267e+06	-39039.1	1055.82	-29795.4	0.000000	0.000000	7.096748	225.114	NaN	0.000000	0.001697	0.001696	28.0795	67.391	0.001899	35482.6	6.312418	174.428	222.346	1.086785	0.062669	0.062393	225.114	35482.6	0.057911	0.118423	1900.93	94204.2
778	2.000000	1.089083	7.37267e+06	-39039.1	1055.82	-29795.4	0.000000	0.000000	7.099211	235.829	NaN	0.000000	0.001676	0.001694	28.0796	68.602	0.001789	38342.6	4.232549	175.292	235.562	1.088800	0.064692	0.064409	235.829	38342.6	0.060079	0.126091	1870.31	98653.6
778	2.000000	1.091086	7.37267e+06	-39039.1	1055.82	-29795.4	0.000000	0.000000	7.101603	245.294	NaN	0.000000	0.001675	0.001692	28.0794	70.5758	0.001838	38400.9	1.604340	177.857	243.318	1.090719	0.066695	0.066328	245.294	38400.9	0.061904	0.132723	1848.16	96303.2
778	2.000000	1.093088	7.37267e+06	-39039.1	1055.82	-29795.4	0.000000	0.000000	7.104192	259.587	NaN	0.000000	0.001711	0.001675	28.0794	71.7177	0.001741	41198.1	4.052521	174.233	258.527	1.092788	0.068696	0.068396	259.587	41198.1	0.063971	0.140430	1848.51	100443
778	2.000000	1.095053	7.37267e+06	-39039.1	1055.82	-29795.4	0.000000	0.000000	7.106650	271.59	NaN	0.000000	0.001720	0.001712	28.0795	75.5034	0.001811	41681.7	9.106888	169.787	269.876	1.094711	0.070661	0.070319	271.59	41681.7	0.065774	0.147324	1843.49	99215.9
778	2.000000	1.097129	7.37267e+06	-39039.1	1055.82	-29795.4	0.000000	0.000000	7.109305	285.666	NaN	0.000000	0.001676	0.001686	28.0793	76.8728	0.001829	42037.3	3.316134	175.546	286.014	1.096772	0.072737	0.072381	285.666	42037.3	0.067640	0.154622	1847.52	97672.6
778	2.000000	1.099141	7.37267e+06	-39039.1	1055.82	-29795.4	0.000000	0.000000	7.111848	298.581	NaN	0.000000	0.001662	0.001673	28.0796	77.5145	0.001781	43533.2	2.880677	175.864	300.206	1.098694	0.074749	0.074302	298.581	43533.2	0.069605	0.162485	1837.59	98670.3
778	2.000000	1.101132	7.37267e+06	-39039.1	1055.82	-29795.4	0.000000	0.000000	7.114106	305.094	NaN	0.000000	0.001702	0.001683	28.0793	81.4139	0.001812	44930.8	4.130210	173.41	304.996	1.100928	0.076740	0.076537	305.094	44930.8	0.071647	0.170853	1785.71	99312.8
778	2.000000	1.103107	7.37267e+06	-39039.1	1055.82	-29795.4	0.000000	0.000000	7.117021	327.964	NaN	0.000000	0.001672	0.001735	28.0796	81.7183	0.001811	45115.5	1.826263	176.335	328.792	1.102878	0.078715	0.078486	327.964	45115.5	0.073263	0.177616	1846.48	97804.4
778	2.000000	1.104978	7.37267e+06	-39039.1	1055.82	-29795.4	0.000000	0.000000	7.119563	344.297	NaN	0.000000	0.001723	0.001766	28.0797	84.8096	0.001909	44416	2.542265	175.85	340.003	1.104756	0.080586	0.080365	344.297	44416	0.074773	0.184042	1870.75	94591.9
778	2.000000	1.107142	7.37267e+06	-39039.1	1055.82	-29795.4	0.000000	0.000000	7.122377	360.095	NaN	0.000000	0.001686	0.001794	28.0793	87.2752	0.001832	47639.4	8.824226	169.997	361.158	1.106643	0.082751	0.082251	360.095	47639.4	0.077082	0.194083	1855.37	98797.3
778	2.000000	1.109028	7.37267e+06	-39039.1	1055.82	-29795.4	0.000000	0.000000	7.124835	374.03	NaN	0.000000	0.001691	0.001715	28.0795	88.0425	0.001807	48722.5	5.400413	172.24	371.352	1.108700	0.084637	0.084309	374.03	48722.5	0.078879	0.202070	1850.99	99026.5
778	2.000000	1.111011	7.37267e+06	-39039.1	1055.82	-29795.4	0.000000	0.000000	7.127457	389.595	NaN	0.000000	0.001684	0.001676	28.0793	91.105	0.001758	51809.7	4.014474	173.116	386.576	1.110737	0.086619	0.086345	389.595	51809.7	0.080979	0.211595	1841.23	102904
778	2.000000	1.112993	7.37267e+06	-39039.1	1055.82	-29795.4	0.000000	0.000000	7.129883	400.372	NaN	0.000000	0.001680	0.001704	28.0794	91.1901	0.001732	52643.2	2.247816	174.411	394.583	1.112658	0.088602	0.088267	400.372	52643.2	0.082898	0.220476	1815.94	102432
778	2.000000	1.114922	7.37267e+06	-39039.1	1055.82	-29795.4	0.000000	0.000000	7.132407	414.861	NaN	0.000000	0.001701	0.001702	28.0796	95.0708	0.001791	53087.4	4.902919	171.923	406.348	1.114639	0.090530	0.090248	414.861	53087.4	0.084669	0.228826	1813	101394
778	2.000000	1.117055	7.37267e+06	-39039.1	1055.82	-29795.4	0.000000	0.000000	7.135568	439.862	NaN	0.000000	0.001696	0.001707	28.0794	97.5672	0.001829	53350.1	7.459499	170.276	437.43	1.116674	0.092664	0.092283	439.862	53350.1	0.086480	0.237514	1851.94	100015
778	2.000000	1.119029	7.37267e+06	-39039.1	1055.82	-29795.4	0.000000	0.000000	7.138210	456.131	NaN	0.000000	0.001716	0.001696	28.0809	98.7765	0.001832	53921.8	6.835170	170.146	453.398	1.118731	0.094638	0.094340	456.131	53921.8	0.088293	0.246362	1851.47	99254.6
778	2.000000	1.121042	7.37267e+06	-39039.1	1055.82	-29795.4	0.000000	0.000000	7.140982	474.583	NaN	0.000000	0.001721	0.001724	28.0807	99.3353	0.001697	58519.5	3.440244	173.026	473.972	1.120763	0.096651	0.096371	474.583	58519.5	0.090568	0.257679	1841.76	105326
778	2.000000	1.123003	7.37267e+06	-39039.1	1055.82	-29795.4	0.000000	0.000000	7.143760	494.484	NaN	0.000000	0.001685	0.001736	28.0809	100.476	0.001675	59978	7.209772	168.74	489.253	1.122651	0.098611	0.098259	494.484	59978	0.092428	0.267104	1851.28	106029
778	2.000000	1.125035	7.37267e+06	-39039.1	1055.82	-29795.4	0.000000	0.000000	7.146434	510.123	NaN	0.000000	0.001704	0.001698	28.081	103.402	0.001771	58394.1	5.656347	170.447	508.119	1.124701	0.100643	0.100310	510.123	58394.1	0.094091	0.275671	1850.48	101612
778	2.000000	1.126059	7.37267e+06	-39039.1	1055.82	-29795.4	0.000000	0.000000	7.147757	517.393	NaN	0.000000	0.001729	0.001754	28.0807	104.248	0.001789	58277.8	7.563048	168.768	516.783	1.125717	0.101667	0.101326	517.393	58277.8	0.095009	0.280450	1844.87	100542