File: remote_trans/data/nanoindenter/0828-1/data/Data_2025-08-06,11h17m57s/2025-07-22_16-23-58_1_338.txt
2025-07-22, 16:23:58, 1
Index	Phase	Displacement	Time	Pos X	Pos Y	Pos Z	Rot A	Rot B	Piezo Z	Force A	Force B	Gripper	Voltage A	Voltage B	Temperature	Amplitude force	Amplitude pos	Stiffness	Phase shift	Phase excitation	Force A raw	Displacement raw	HMax	HMax raw	Real Force	Real Stiffness	Contact Depth	Area	Hardness	Reduced Mod.
[#]	[#]	[um]	[s]	[um]	[um]	[um]	[m°]	[m°]	[um]	[uN]	[uN]	[V]	[V]	[V]	[°C]	[uN]	[um]	[N/m]	[°]	[°]	[uN]	[um]	[um]	[um]	[uN]	[N/m]	[um]	[um^2]	[MPa]	[MPa]
338	1.000000	0.002752	7.36837e+06	-55539.1	955.819	-29741.6	0.000000	0.000000	6.002801	0.053006	NaN	0.000000	0.001472	0.001663	28.0804	0.076399	0.000970	78.7627	75.5993	-165.646	0.007967	0.001546	-1.059945	-1.061151	0.053006	78.7627	-1.060449	-1.475231E+14	-3.593047E-16	NaN
338	1.000000	0.010739	7.36837e+06	-55539.1	955.819	-29741.6	0.000000	0.000000	6.010786	-0.011459	NaN	0.000000	0.001465	0.001672	28.0799	0.113214	0.001025	110.479	106.632	-167.336	-0.045530	0.009439	-1.051957	-1.053258	-0.011459	110.479	-1.051880	-1.131565E+14	1.012702E-16	NaN
338	1.000000	0.018691	7.36837e+06	-55539.1	955.818	-29741.6	0.000000	0.000000	6.018740	0.046039	NaN	0.000000	0.001482	0.001669	28.08	0.049154	0.001671	29.4136	-42.4858	-165.87	0.045900	0.017402	-1.044005	-1.045295	0.046039	29.4136	-1.045179	-9.196171E+13	-5.006360E-16	NaN
338	1.000000	0.026723	7.36837e+06	-55539.1	955.818	-29741.6	0.000000	0.000000	6.026768	-0.045823	NaN	0.000000	0.001507	0.001666	28.0799	0.043464	0.001723	25.2191	12.0426	-163.743	-0.034537	0.025371	-1.035974	-1.037326	-0.045823	25.2191	-1.034611	-6.629772E+13	6.911635E-16	NaN
338	1.000000	0.034691	7.36837e+06	-55539.1	955.818	-29741.6	0.000000	0.000000	6.034739	0.016723	NaN	0.000000	0.001500	0.001694	28.0797	0.085096	0.001828	46.5428	-134.491	-165.871	-0.001074	0.033358	-1.028006	-1.029338	0.016723	46.5428	-1.028275	-5.448526E+13	-3.069335E-16	NaN
338	1.000000	0.042689	7.36837e+06	-55539.1	955.818	-29741.6	0.000000	0.000000	6.042738	0.031065	NaN	0.000000	0.001510	0.001656	28.0797	0.094713	0.001965	48.2016	161.686	-167.428	0.016319	0.041399	-1.020007	-1.021297	0.031065	48.2016	-1.020491	-4.281092E+13	-7.256243E-16	NaN
338	1.000000	0.050712	7.36837e+06	-55539.1	955.819	-29741.6	0.000000	0.000000	6.050762	0.072687	NaN	0.000000	0.001497	0.001666	28.0801	0.110421	0.002088	52.8715	-59.8782	-164.238	0.027526	0.049356	-1.011984	-1.013341	0.072687	52.8715	-1.013015	-3.395976E+13	-2.140392E-15	NaN
338	1.000000	0.058725	7.36837e+06	-55539.1	955.819	-29741.6	0.000000	0.000000	6.058770	-0.046238	NaN	0.000000	0.001511	0.001646	28.0799	0.087724	0.001954	44.8979	-105.925	-163.915	-0.015125	0.057401	-1.003972	-1.005296	-0.046238	44.8979	-1.003199	-2.505190E+13	1.845693E-15	NaN
338	1.000000	0.066717	7.36837e+06	-55539.1	955.818	-29741.6	0.000000	0.000000	6.066764	0.018900	NaN	0.000000	0.001513	0.001667	28.0812	0.013194	0.001997	6.608321	107.691	-165.108	-0.048959	0.065412	-0.995980	-0.997285	0.018900	6.608321	-0.998125	-2.140548E+13	-8.829439E-16	NaN
338	1.000000	0.074704	7.36837e+06	-55539.1	955.818	-29741.6	0.000000	0.000000	6.074753	0.052428	NaN	0.000000	0.001513	0.001692	28.081	0.054044	0.002182	24.7626	126.978	-164.157	0.012685	0.073416	-0.987993	-0.989280	0.052428	24.7626	-0.989581	-1.642351E+13	-3.192225E-15	NaN
338	1.000000	0.082710	7.36837e+06	-55539.1	955.818	-29741.6	0.000000	0.000000	6.082757	0.006010	NaN	0.000000	0.001543	0.001667	28.0811	0.014961	0.001931	7.748364	33.1145	-163.317	0.091208	0.081374	-0.979987	-0.981323	0.006010	7.748364	-0.980568	-1.241843E+13	-4.839492E-16	NaN
338	1.000000	0.090735	7.36837e+06	-55539.1	955.819	-29741.6	0.000000	0.000000	6.090782	0.016998	NaN	0.000000	0.001528	0.001632	28.0813	0.076637	0.001946	39.3774	-164.137	-166.467	0.086169	0.089459	-0.971962	-0.973237	0.016998	39.3774	-0.972286	-9.604281E+12	-1.769821E-15	NaN
338	1.000000	0.098716	7.36837e+06	-55539.1	955.818	-29741.6	0.000000	0.000000	6.098763	-0.005739	NaN	0.000000	0.001560	0.001688	28.0813	0.031373	0.001896	16.5448	-110.014	-165.143	0.073551	0.097456	-0.963981	-0.965240	-0.005739	16.5448	-0.963720	-7.362468E+12	7.794991E-16	NaN
338	1.000000	0.106744	7.36837e+06	-55539.1	955.817	-29741.6	0.000000	0.000000	6.106789	-0.041791	NaN	0.000000	0.001599	0.001695	28.0818	0.112214	0.002001	56.0707	-54.3641	-164.565	-0.007814	0.105407	-0.955953	-0.957290	-0.041791	56.0707	-0.955394	-5.685453E+12	7.350493E-15	NaN
338	1.000000	0.114719	7.36837e+06	-55539.1	955.819	-29741.6	0.000000	0.000000	6.114767	0.037625	NaN	0.000000	0.001568	0.001713	28.0814	0.066616	0.001938	34.372	30.3995	-165.497	-0.005188	0.113437	-0.947978	-0.949260	0.037625	34.372	-0.948799	-4.632625E+12	-8.121754E-15	NaN
338	1.000000	0.122700	7.36837e+06	-55539.1	955.819	-29741.6	0.000000	0.000000	6.122748	0.017023	NaN	0.000000	0.001529	0.001718	28.0812	0.079011	0.002033	38.8664	-163.729	-163.463	0.005795	0.121393	-0.939997	-0.941304	0.017023	38.8664	-0.940325	-3.560616E+12	-4.781041E-15	NaN
338	1.000000	0.130726	7.36837e+06	-55539.1	955.819	-29741.6	0.000000	0.000000	6.130772	-0.010749	NaN	0.000000	0.001561	0.001662	28.0812	0.139063	0.002013	69.0956	-45.549	-163.313	0.027229	0.129399	-0.931971	-0.933298	-0.010749	69.0956	-0.931854	-2.736652E+12	3.927815E-15	NaN
338	1.000000	0.138696	7.36837e+06	-55539.1	955.819	-29741.6	0.000000	0.000000	6.138744	0.011071	NaN	0.000000	0.001579	0.001677	28.0812	0.048846	0.002108	23.1671	-22.0718	-163.242	0.023704	0.137468	-0.924000	-0.925228	0.011071	23.1671	-0.924359	-2.167966E+12	-5.106602E-15	NaN
338	1.000000	0.146745	7.36837e+06	-55539.1	955.819	-29741.6	0.000000	0.000000	6.146793	0.019171	NaN	0.000000	0.001604	0.001643	28.0816	0.104257	0.001871	55.7096	96.168	-164.203	0.040098	0.145416	-0.915952	-0.917281	0.019171	55.7096	-0.916210	-1.682790E+12	-1.139246E-14	NaN
338	1.000000	0.154735	7.36837e+06	-55539.1	955.818	-29741.6	0.000000	0.000000	6.154785	0.063541	NaN	0.000000	0.001577	0.001687	28.0814	0.167179	0.002034	82.1892	-92.28	-160.914	-0.041778	0.153418	-0.907961	-0.909279	0.063541	82.1892	-0.908541	-1.325742E+12	-4.792896E-14	NaN
338	1.000000	0.162731	7.36837e+06	-55539.1	955.819	-29741.6	0.000000	0.000000	6.162778	-0.005047	NaN	0.000000	0.001631	0.001712	28.0818	0.059429	0.001947	30.5297	-117.371	-162.382	0.013660	0.161405	-0.899965	-0.901292	-0.005047	30.5297	-0.899841	-1.011393E+12	4.989888E-15	NaN
338	1.000000	0.170764	7.36837e+06	-55539.1	955.819	-29741.6	0.000000	0.000000	6.170813	0.060739	NaN	0.000000	0.001577	0.001669	28.0813	0.064515	0.001949	33.1066	157.329	-166.382	0.061989	0.169457	-0.891933	-0.893240	0.060739	33.1066	-0.893309	-8.253606E+11	-7.359035E-14	NaN
338	1.000000	0.178753	7.36837e+06	-55539.1	955.819	-29741.6	0.000000	0.000000	6.178801	0.026408	NaN	0.000000	0.001569	0.001667	28.081	0.070409	0.002011	35.0074	-44.5697	-165.666	0.003266	0.177456	-0.883944	-0.885241	0.026408	35.0074	-0.884509	-6.276052E+11	-4.207686E-14	NaN
338	1.000000	0.186735	7.36837e+06	-55539.1	955.819	-29741.6	0.000000	0.000000	6.186787	0.110421	NaN	0.000000	0.001544	0.001653	28.0813	0.015966	0.002030	7.864559	-172.12	-164.766	0.171135	0.185468	-0.875961	-0.877228	0.110421	7.864559	-0.886492	-6.675524E+11	-1.654119E-13	NaN
338	1.000000	0.194743	7.36837e+06	-55539.1	955.818	-29741.6	0.000000	0.000000	6.194790	-0.006481	NaN	0.000000	0.001527	0.001679	28.0814	0.039620	0.001959	20.2213	-108.917	-163.132	-0.037682	0.193397	-0.867954	-0.869300	-0.006481	20.2213	-0.867713	-3.719668E+11	1.742398E-14	NaN
338	1.000000	0.202767	7.36837e+06	-55539.1	955.818	-29741.6	0.000000	0.000000	6.202817	0.070234	NaN	0.000000	0.001525	0.001698	28.0806	0.048281	0.001960	24.6392	140.056	-165.115	-0.014005	0.201424	-0.859930	-0.861273	0.070234	24.6392	-0.862068	-3.119645E+11	-2.251334E-13	NaN
338	1.000000	0.210754	7.36837e+06	-55539.1	955.818	-29741.6	0.000000	0.000000	6.210805	0.096759	NaN	0.000000	0.001493	0.001677	28.0802	0.055077	0.002013	27.36	-144.291	-162.538	0.029576	0.209464	-0.851942	-0.853232	0.096759	27.36	-0.854595	-2.471432E+11	-3.915090E-13	NaN
338	1.000000	0.218770	7.36837e+06	-55539.1	955.818	-29741.6	0.000000	0.000000	6.218819	0.035683	NaN	0.000000	0.001511	0.001648	28.0802	0.112456	0.002097	53.6342	-15.3744	-164.638	0.031196	0.217463	-0.843926	-0.845233	0.035683	53.6342	-0.844425	-1.799864E+11	-1.982522E-13	NaN
338	1.000000	0.226773	7.36837e+06	-55539.1	955.819	-29741.6	0.000000	0.000000	6.226819	-0.021097	NaN	0.000000	0.001571	0.001682	28.0802	0.059269	0.001978	29.9588	-25.205	-165.712	-0.040720	0.225472	-0.835923	-0.837225	-0.021097	29.9588	-0.835395	-1.358006E+11	1.553511E-13	NaN
338	1.000000	0.234766	7.36837e+06	-55539.1	955.818	-29741.6	0.000000	0.000000	6.234814	0.030553	NaN	0.000000	0.001598	0.001655	28.0803	0.105333	0.001974	53.3653	-134.948	-163.918	0.026279	0.233430	-0.827931	-0.829266	0.030553	53.3653	-0.828360	-1.090326E+11	-2.802154E-13	NaN
338	1.000000	0.242794	7.36837e+06	-55539.1	955.818	-29741.6	0.000000	0.000000	6.242843	0.056178	NaN	0.000000	0.001582	0.001641	28.0803	0.094369	0.001929	48.9194	149.245	-162.447	0.041170	0.241468	-0.819903	-0.821228	0.056178	48.9194	-0.820764	-8.601544E+10	-6.531186E-13	NaN
338	1.000000	0.250769	7.36837e+06	-55539.1	955.819	-29741.6	0.000000	0.000000	6.250817	0.024032	NaN	0.000000	0.001601	0.001670	28.0801	0.077381	0.001958	39.5189	-12.7647	-163.265	0.042244	0.249475	-0.811927	-0.813222	0.024032	39.5189	-0.812383	-6.620691E+10	-3.629866E-13	NaN
338	1.000000	0.258768	7.36837e+06	-55539.1	955.818	-29741.6	0.000000	0.000000	6.258814	-0.022038	NaN	0.000000	0.001606	0.001676	28.0804	0.100872	0.002074	48.6308	-0.990581	-164.635	0.152099	0.257478	-0.803928	-0.805218	-0.022038	48.6308	-0.803589	-5.030029E+10	4.381206E-13	NaN
338	1.000000	0.266768	7.36837e+06	-55539.1	955.818	-29741.6	0.000000	0.000000	6.266815	-0.007176	NaN	0.000000	0.001566	0.001691	28.0801	0.088404	0.002021	43.7334	171.648	-165.247	-0.007030	0.265442	-0.795928	-0.797255	-0.007176	43.7334	-0.795805	-3.943802E+10	1.819675E-13	NaN
338	1.000000	0.274807	7.36837e+06	-55539.1	955.819	-29741.6	0.000000	0.000000	6.274855	0.044233	NaN	0.000000	0.001577	0.001708	28.0801	0.024516	0.001952	12.5605	22.3789	-165.271	0.072693	0.273473	-0.787890	-0.789224	0.044233	12.5605	-0.790531	-3.344241E+10	-1.322666E-12	NaN
338	1.000000	0.282803	7.36837e+06	-55539.1	955.818	-29741.6	0.000000	0.000000	6.282851	0.034801	NaN	0.000000	0.001528	0.001684	28.0799	0.127602	0.001971	64.7268	-53.0085	-165.191	0.121853	0.281461	-0.779894	-0.781235	0.034801	64.7268	-0.780297	-2.428095E+10	-1.433268E-12	NaN
338	1.000000	0.290808	7.36837e+06	-55539.1	955.819	-29741.6	0.000000	0.000000	6.290859	0.083581	NaN	0.000000	0.001527	0.001708	28.0803	0.069189	0.001994	34.7068	27.2392	-168.178	-0.010270	0.289452	-0.771888	-0.773244	0.083581	34.7068	-0.773695	-1.974850E+10	-4.232251E-12	NaN
338	1.000000	0.298811	7.36837e+06	-55539.1	955.819	-29741.6	0.000000	0.000000	6.298859	0.039258	NaN	0.000000	0.001555	0.001709	28.0802	0.095840	0.001827	52.4576	-171.3	-166.754	-0.096110	0.297482	-0.763886	-0.765214	0.039258	52.4576	-0.764447	-1.478418E+10	-2.655419E-12	NaN
338	1.000000	0.306802	7.36837e+06	-55539.1	955.818	-29741.6	0.000000	0.000000	6.306848	-0.020723	NaN	0.000000	0.001540	0.001677	28.0801	0.042585	0.002047	20.8079	-119.348	-160.926	-0.082026	0.305491	-0.755895	-0.757205	-0.020723	20.8079	-0.755148	-1.104809E+10	1.875682E-12	NaN
338	1.000000	0.314829	7.36837e+06	-55539.1	955.819	-29741.6	0.000000	0.000000	6.314875	-0.029586	NaN	0.000000	0.001571	0.001654	28.0801	0.131857	0.002074	63.5765	-140.252	-164.947	-0.017788	0.313455	-0.747867	-0.749242	-0.029586	63.5765	-0.747518	-8.698326E+9	3.401401E-12	NaN
338	1.000000	0.322796	7.36837e+06	-55539.1	955.818	-29741.6	0.000000	0.000000	6.322847	0.078256	NaN	0.000000	0.001541	0.001631	28.0799	0.097089	0.002019	48.0935	-158.79	-163.919	0.131024	0.321468	-0.739900	-0.741228	0.078256	48.0935	-0.741121	-7.117356E+9	-1.099507E-11	NaN
338	1.000000	0.330804	7.36837e+06	-55539.1	955.82	-29741.6	0.000000	0.000000	6.330852	0.030666	NaN	0.000000	0.001559	0.001616	28.08	0.092155	0.002081	44.2862	72.4017	-164.356	0.059553	0.329496	-0.731892	-0.733200	0.030666	44.2862	-0.732412	-5.415975E+9	-5.662210E-12	NaN
338	1.000000	0.338818	7.36837e+06	-55539.1	955.819	-29741.6	0.000000	0.000000	6.338868	0.078776	NaN	0.000000	0.001547	0.001635	28.0814	0.017661	0.002005	8.808821	-146.443	-167.411	0.060225	0.337528	-0.723879	-0.725168	0.078776	8.808821	-0.730586	-5.114370E+9	-1.540278E-11	NaN
338	1.000000	0.346813	7.36837e+06	-55539.1	955.819	-29741.6	0.000000	0.000000	6.346860	0.001835	NaN	0.000000	0.001549	0.001669	28.0815	0.047337	0.002119	22.3375	-34.6898	-164.366	0.013323	0.345459	-0.715883	-0.717237	0.001835	22.3375	-0.715945	-3.229713E+9	-5.680100E-13	NaN
338	1.000000	0.354829	7.36837e+06	-55539.1	955.817	-29741.6	0.000000	0.000000	6.354876	0.017310	NaN	0.000000	0.001526	0.001673	28.0816	0.026995	0.001983	13.6164	-158.837	-165.502	0.051750	0.353562	-0.707868	-0.709134	0.017310	13.6164	-0.708821	-2.582041E+9	-6.703889E-12	NaN
338	1.000000	0.362834	7.36837e+06	-55539.1	955.818	-29741.6	0.000000	0.000000	6.362880	-0.006182	NaN	0.000000	0.001489	0.001658	28.0813	0.072239	0.002123	34.0301	-12.2147	-162.186	-0.000865	0.361521	-0.699863	-0.701176	-0.006182	34.0301	-0.699727	-1.939983E+9	3.186742E-12	NaN
338	1.000000	0.370847	7.36837e+06	-55539.1	955.818	-29741.6	0.000000	0.000000	6.370894	0.004580	NaN	0.000000	0.001486	0.001662	28.0817	0.135213	0.002075	65.1648	-87.1056	-166.981	0.038164	0.369525	-0.691849	-0.693172	0.004580	65.1648	-0.691902	-1.516738E+9	-3.019400E-12	NaN
338	1.000000	0.378831	7.36837e+06	-55539.1	955.819	-29741.6	0.000000	0.000000	6.378880	0.050147	NaN	0.000000	0.001489	0.001654	28.0814	0.080879	0.002051	39.4416	172.234	-165.502	0.039403	0.377510	-0.683866	-0.685186	0.050147	39.4416	-0.684819	-1.213684E+9	-4.131788E-11	NaN
338	1.000000	0.386858	7.36837e+06	-55539.1	955.818	-29741.6	0.000000	0.000000	6.386909	0.087685	NaN	0.000000	0.001479	0.001638	28.0816	0.021265	0.001979	10.743	78.2542	-163.649	-0.007052	0.385543	-0.675838	-0.677154	0.087685	10.743	-0.681960	-1.109190E+9	-7.905364E-11	NaN
338	1.000000	0.394863	7.36837e+06	-55539.1	955.818	-29741.6	0.000000	0.000000	6.394910	0.003041	NaN	0.000000	0.001489	0.001647	28.0817	0.058365	0.002077	28.1051	-151.128	-164.306	0.071731	0.393496	-0.667834	-0.669200	0.003041	28.1051	-0.667915	-7.126131E+8	-4.267235E-12	NaN
338	1.000000	0.402864	7.36837e+06	-55539.1	955.819	-29741.6	0.000000	0.000000	6.402913	0.045963	NaN	0.000000	0.001547	0.001672	28.0814	0.028769	0.001990	14.4556	-52.2696	-168.162	0.053502	0.401544	-0.659832	-0.661152	0.045963	14.4556	-0.662217	-5.954333E+8	-7.719253E-11	NaN
338	1.000000	0.410838	7.36837e+06	-55539.1	955.817	-29741.6	0.000000	0.000000	6.410887	0.036269	NaN	0.000000	0.001496	0.001639	28.0816	0.087954	0.001898	46.3453	-67.0985	-163.253	0.090958	0.409551	-0.651858	-0.653145	0.036269	46.3453	-0.652445	-4.374745E+8	-8.290584E-11	NaN
338	1.000000	0.418831	7.36837e+06	-55539.1	955.818	-29741.6	0.000000	0.000000	6.418879	0.040442	NaN	0.000000	0.001505	0.001640	28.0813	0.114691	0.002059	55.7125	-71.8408	-168.945	0.125751	0.417590	-0.643866	-0.645106	0.040442	55.7125	-0.644410	-3.394614E+8	-1.191361E-10	NaN
338	1.000000	0.426848	7.36837e+06	-55539.1	955.819	-29741.6	0.000000	0.000000	6.426895	0.003969	NaN	0.000000	0.001493	0.001626	28.0813	0.076618	0.001899	40.3379	153.077	-165.84	0.002970	0.425577	-0.635849	-0.637120	0.003969	40.3379	-0.635923	-2.596202E+8	-1.528815E-11	NaN
338	1.000000	0.434886	7.36837e+06	-55539.1	955.818	-29741.6	0.000000	0.000000	6.434933	-0.004563	NaN	0.000000	0.001543	0.001637	28.0812	0.144379	0.002007	71.951	96.7331	-164.321	0.066553	0.433548	-0.627811	-0.629149	-0.004563	71.951	-0.627763	-2.005870E+8	2.274630E-11	NaN
338	1.000000	0.442885	7.36837e+06	-55539.1	955.818	-29741.6	0.000000	0.000000	6.442933	0.020514	NaN	0.000000	0.001490	0.001651	28.081	0.034684	0.002016	17.2056	-121.556	-167.662	0.004711	0.441553	-0.619812	-0.621144	0.020514	17.2056	-0.620706	-1.604500E+8	-1.278531E-10	NaN
338	1.000000	0.450859	7.36837e+06	-55539.1	955.819	-29741.6	0.000000	0.000000	6.450908	0.059353	NaN	0.000000	0.001518	0.001658	28.0816	0.073318	0.001941	37.7814	35.5344	-164.128	0.090735	0.449584	-0.611838	-0.613113	0.059353	37.7814	-0.613016	-1.257775E+8	-4.718863E-10	NaN
338	1.000000	0.458875	7.36837e+06	-55539.1	955.819	-29741.6	0.000000	0.000000	6.458922	0.012360	NaN	0.000000	0.001523	0.001655	28.0812	0.109672	0.001987	55.1915	-37.6756	-161.91	-0.051604	0.457628	-0.603822	-0.605068	0.012360	55.1915	-0.603990	-9.449306E+7	-1.308057E-10	NaN
338	1.000000	0.466870	7.36837e+06	-55539.1	955.819	-29741.6	0.000000	0.000000	6.466920	0.063095	NaN	0.000000	0.001531	0.001643	28.0813	0.052308	0.001985	26.3559	-152.054	-160.961	0.104170	0.465581	-0.595826	-0.597116	0.063095	26.3559	-0.597622	-7.721483E+7	-8.171309E-10	NaN
338	1.000000	0.474859	7.36837e+06	-55539.1	955.818	-29741.6	0.000000	0.000000	6.474909	0.052971	NaN	0.000000	0.001534	0.001688	28.0801	0.117869	0.001995	59.0824	-11.7075	-162.991	0.105685	0.473529	-0.587837	-0.589167	0.052971	59.0824	-0.588510	-5.782534E+7	-9.160589E-10	NaN
338	1.000000	0.482877	7.36837e+06	-55539.1	955.819	-29741.6	0.000000	0.000000	6.482926	0.058543	NaN	0.000000	0.001540	0.001684	28.0799	0.115111	0.001989	57.8715	-112.438	-163.851	0.004328	0.481505	-0.579820	-0.581191	0.058543	57.8715	-0.580578	-4.494789E+7	-1.302473E-9	NaN
338	1.000000	0.490892	7.36837e+06	-55539.1	955.817	-29741.6	0.000000	0.000000	6.490941	0.050251	NaN	0.000000	0.001527	0.001702	28.0805	0.107164	0.001953	54.8669	-78.8103	-164.056	0.074313	0.489527	-0.571805	-0.573169	0.050251	54.8669	-0.572492	-3.475816E+7	-1.445733E-9	NaN
338	1.000000	0.498883	7.36837e+06	-55539.1	955.819	-29741.6	0.000000	0.000000	6.498930	0.003067	NaN	0.000000	0.001519	0.001709	28.0802	0.048055	0.001949	24.6563	75.3729	-163.142	0.082494	0.497631	-0.563814	-0.565066	0.003067	24.6563	-0.563907	-2.644915E+7	-1.159408E-10	NaN
338	1.000000	0.506873	7.36837e+06	-55539.1	955.819	-29741.6	0.000000	0.000000	6.506923	0.055035	NaN	0.000000	0.001504	0.001687	28.0802	0.054168	0.002041	26.5356	-27.0492	-164.37	0.061939	0.505616	-0.555823	-0.557080	0.055035	26.5356	-0.557379	-2.148374E+7	-2.561687E-9	NaN
338	1.000000	0.514878	7.36837e+06	-55539.1	955.819	-29741.6	0.000000	0.000000	6.514927	0.032855	NaN	0.000000	0.001493	0.001691	28.0801	0.069121	0.001931	35.7948	-163.91	-165.401	0.083699	0.513601	-0.547818	-0.549095	0.032855	35.7948	-0.548507	-1.619087E+7	-2.029224E-9	NaN
338	1.000000	0.522902	7.36837e+06	-55539.1	955.818	-29741.6	0.000000	0.000000	6.522951	0.045074	NaN	0.000000	0.001498	0.001711	28.0797	0.094048	0.002204	42.6645	-70.7225	-166.984	0.061307	0.521537	-0.539795	-0.541159	0.045074	42.6645	-0.540587	-1.257477E+7	-3.584500E-9	NaN
338	1.000000	0.530908	7.36837e+06	-55539.1	955.818	-29741.6	0.000000	0.000000	6.530958	0.055261	NaN	0.000000	0.001487	0.001704	28.0801	0.048503	0.002111	22.972	-175.077	-164.973	-0.033978	0.529581	-0.531788	-0.533115	0.055261	22.972	-0.533593	-1.005671E+7	-5.494985E-9	NaN
338	1.000000	0.538907	7.36837e+06	-55539.1	955.818	-29741.6	0.000000	0.000000	6.538957	0.068172	NaN	0.000000	0.001524	0.001723	28.0801	0.012887	0.002146	6.003856	-176.661	-166.372	0.111514	0.537573	-0.523789	-0.525124	0.068172	6.003856	-0.532305	-9.65124e+06	-7.063531E-9	NaN
338	1.000000	0.546900	7.36837e+06	-55539.1	955.819	-29741.6	0.000000	0.000000	6.546946	-0.019907	NaN	0.000000	0.001480	0.001770	28.0804	0.083602	0.002023	41.3252	-72.6354	-165.863	-0.060967	0.545583	-0.515797	-0.517113	-0.019907	41.3252	-0.515436	-5.62463e+06	3.539279E-9	NaN
338	1.000000	0.554906	7.36837e+06	-55539.1	955.818	-29741.6	0.000000	0.000000	6.554954	0.018592	NaN	0.000000	0.001547	0.001769	28.0801	0.059602	0.001808	32.9705	19.4085	-165.313	0.016336	0.553630	-0.507790	-0.509066	0.018592	32.9705	-0.508213	-4.46194e+06	-4.166758E-9	NaN
338	1.000000	0.562926	7.36837e+06	-55539.1	955.819	-29741.6	0.000000	0.000000	6.562975	0.050722	NaN	0.000000	0.001494	0.001724	28.0799	0.059020	0.002018	29.2438	-128.533	-163.564	0.042115	0.561575	-0.499771	-0.501121	0.050722	29.2438	-0.501072	-3.54785e+06	-1.429657E-8	NaN
338	1.000000	0.570923	7.36837e+06	-55539.1	955.818	-29741.6	0.000000	0.000000	6.570972	0.051510	NaN	0.000000	0.001499	0.001743	28.0798	0.133785	0.002083	64.2341	-71.5144	-164.368	0.037337	0.569611	-0.491773	-0.493086	0.051510	64.2341	-0.492375	-2.68271e+06	-1.920079E-8	NaN
338	1.000000	0.578920	7.36837e+06	-55539.1	955.819	-29741.6	0.000000	0.000000	6.578967	-0.005840	NaN	0.000000	0.001520	0.001765	28.08	0.065368	0.002024	32.3	-141.905	-166.673	0.055224	0.577568	-0.483776	-0.485129	-0.005840	32.3	-0.483641	-2.02523e+06	2.883527E-9	NaN
338	1.000000	0.586896	7.36837e+06	-55539.1	955.818	-29741.6	0.000000	0.000000	6.586942	-0.032617	NaN	0.000000	0.001489	0.001756	28.0801	0.073973	0.001974	37.4663	118.862	-164.004	-0.053393	0.585662	-0.475801	-0.477034	-0.032617	37.4663	-0.475148	-1.54017e+06	2.117738E-8	NaN
338	1.000000	0.594914	7.36837e+06	-55539.1	955.818	-29741.6	0.000000	0.000000	6.594959	-0.046940	NaN	0.000000	0.001506	0.001746	28.0801	0.095835	0.002000	47.9117	-134.405	-165.136	-0.004211	0.593609	-0.467782	-0.469088	-0.046940	47.9117	-0.467048	-1.18574e+06	3.958699E-8	NaN
338	1.000000	0.602924	7.36837e+06	-55539.1	955.818	-29741.6	0.000000	0.000000	6.602969	-0.049444	NaN	0.000000	0.001495	0.001754	28.0801	0.105386	0.001921	54.8473	128.884	-164.266	-0.064943	0.601657	-0.459772	-0.461040	-0.049444	54.8473	-0.459096	-916884	5.392644E-8	NaN
338	1.000000	0.610951	7.36837e+06	-55539.1	955.818	-29741.6	0.000000	0.000000	6.610999	0.009946	NaN	0.000000	0.001484	0.001764	28.081	0.093875	0.001838	51.0853	3.298174	-163.55	0.025187	0.609610	-0.451745	-0.453086	0.009946	51.0853	-0.451891	-726060	-1.369905E-8	NaN
338	1.000000	0.618953	7.36837e+06	-55539.1	955.818	-29741.6	0.000000	0.000000	6.619000	0.000118	NaN	0.000000	0.001497	0.001764	28.0813	0.017415	0.002053	8.482740	-40.708	-165.661	-0.042738	0.617628	-0.443744	-0.445069	0.000118	8.482740	-0.443754	-557604	-2.112788E-10	NaN
338	1.000000	0.626956	7.36837e+06	-55539.1	955.819	-29741.6	0.000000	0.000000	6.627005	0.047777	NaN	0.000000	0.001470	0.001735	28.0812	0.142453	0.001966	72.4635	103.645	-164.224	0.071048	0.625672	-0.435741	-0.437025	0.047777	72.4635	-0.436235	-436726	-1.093977E-7	NaN
338	1.000000	0.634951	7.36837e+06	-55539.1	955.818	-29741.6	0.000000	0.000000	6.634999	0.016536	NaN	0.000000	0.001500	0.001721	28.0813	0.052575	0.002082	25.254	5.914752	-165.849	-0.036724	0.633665	-0.427745	-0.429032	0.016536	25.254	-0.428236	-336593	-4.912773E-8	NaN
338	1.000000	0.642945	7.36837e+06	-55539.1	955.819	-29741.6	0.000000	0.000000	6.642996	0.102670	NaN	0.000000	0.001509	0.001747	28.0813	0.070894	0.002056	34.4773	-26.4011	-164.841	0.068731	0.641695	-0.419752	-0.421001	0.102670	34.4773	-0.421985	-274514	-3.740066E-7	NaN
338	1.000000	0.650957	7.36837e+06	-55539.1	955.819	-29741.6	0.000000	0.000000	6.651007	0.067108	NaN	0.000000	0.001522	0.001737	28.0813	0.131555	0.001990	66.1174	-158.255	-162.041	0.059646	0.649657	-0.411740	-0.413039	0.067108	66.1174	-0.412501	-201352	-3.332875E-7	NaN
338	1.000000	0.658944	7.36837e+06	-55539.1	955.818	-29741.6	0.000000	0.000000	6.658990	-0.020527	NaN	0.000000	0.001515	0.001737	28.0814	0.050642	0.001941	26.0958	-57.191	-163.506	-0.024244	0.657671	-0.403752	-0.405026	-0.020527	26.0958	-0.403162	-148277	1.384397E-7	NaN
338	1.000000	0.666955	7.36837e+06	-55539.1	955.819	-29741.6	0.000000	0.000000	6.667006	0.108333	NaN	0.000000	0.001482	0.001714	28.0812	0.113512	0.001947	58.3075	-95.5103	-165.352	0.059313	0.665647	-0.395742	-0.397049	0.108333	58.3075	-0.397135	-121654	-8.905054E-7	NaN
338	1.000000	0.674964	7.36837e+06	-55539.1	955.819	-29741.6	0.000000	0.000000	6.675012	0.026905	NaN	0.000000	0.001469	0.001754	28.0812	0.009614	0.001967	4.887243	-144.667	-165.914	0.008552	0.673660	-0.387733	-0.389037	0.026905	4.887243	-0.391861	-102279	-2.630578E-7	NaN
338	1.000000	0.682991	7.36837e+06	-55539.1	955.819	-29741.6	0.000000	0.000000	6.683042	0.097502	NaN	0.000000	0.001503	0.001738	28.0813	0.030526	0.001911	15.9765	105.731	-167.474	0.131909	0.681659	-0.379705	-0.381037	0.097502	15.9765	-0.384282	-79671.7	-1.223797E-6	NaN
338	1.000000	0.690973	7.36837e+06	-55539.1	955.818	-29741.6	0.000000	0.000000	6.691022	0.067107	NaN	0.000000	0.001451	0.001746	28.0811	0.035552	0.001967	18.0789	-45.3319	-162.637	0.065496	0.689656	-0.371724	-0.373041	0.067107	18.0789	-0.374508	-57676	-1.163523E-6	NaN
338	1.000000	0.698984	7.36837e+06	-55539.1	955.818	-29741.6	0.000000	0.000000	6.699032	0.031485	NaN	0.000000	0.001462	0.001716	28.0814	0.079662	0.002086	38.19	17.8436	-165.33	0.018386	0.697649	-0.363713	-0.365047	0.031485	38.19	-0.364331	-41153.3	-7.650728E-7	NaN
338	1.000000	0.706965	7.36837e+06	-55539.1	955.819	-29741.6	0.000000	0.000000	6.707009	-0.070123	NaN	0.000000	0.001500	0.001709	28.0812	0.078954	0.001910	41.328	126.106	-167.206	0.009713	0.705682	-0.355732	-0.357015	-0.070123	41.328	-0.354459	-29625.2	2.367000E-6	NaN
338	1.000000	0.714988	7.36837e+06	-55539.1	955.818	-29741.6	0.000000	0.000000	6.715036	0.022241	NaN	0.000000	0.001504	0.001697	28.0816	0.030921	0.001979	15.6264	-83.3281	-162.422	0.057955	0.713664	-0.347709	-0.349033	0.022241	15.6264	-0.348776	-24504	-9.076446E-7	NaN
338	1.000000	0.723001	7.36837e+06	-55539.1	955.818	-29741.6	0.000000	0.000000	6.723049	0.009171	NaN	0.000000	0.001527	0.001688	28.0813	0.021631	0.002064	10.4805	-0.631711	-164.994	-0.007096	0.721660	-0.339695	-0.341036	0.009171	10.4805	-0.340351	-18478.9	-4.962945E-7	NaN
338	1.000000	0.731013	7.36837e+06	-55539.1	955.819	-29741.6	0.000000	0.000000	6.731062	0.037581	NaN	0.000000	0.001508	0.001718	28.081	0.096416	0.002020	47.7231	111.99	-167.91	0.023638	0.729664	-0.331683	-0.333033	0.037581	47.7231	-0.332274	-14084.2	-2.668318E-6	NaN
338	1.000000	0.738980	7.36837e+06	-55539.1	955.818	-29741.6	0.000000	0.000000	6.739028	0.018157	NaN	0.000000	0.001525	0.001693	28.0813	0.093955	0.001982	47.4048	18.3377	-168.712	-0.021188	0.737728	-0.323716	-0.324968	0.018157	47.4048	-0.324004	-10653.8	-1.704305E-6	NaN
338	1.000000	0.747011	7.36837e+06	-55539.1	955.818	-29741.6	0.000000	0.000000	6.747055	-0.063047	NaN	0.000000	0.001516	0.001698	28.0801	0.054485	0.002091	26.0607	80.9139	-164.94	-0.007209	0.745733	-0.315686	-0.316964	-0.063047	26.0607	-0.313872	-7555.95	8.344068E-6	NaN
338	1.000000	0.754992	7.36837e+06	-55539.1	955.819	-29741.6	0.000000	0.000000	6.755037	-0.062303	NaN	0.000000	0.001557	0.001729	28.0797	0.152722	0.002021	75.5535	-114.431	-165.934	-0.004395	0.753687	-0.307704	-0.309010	-0.062303	75.5535	-0.307086	-5996.43	1.039005E-5	NaN
338	1.000000	0.762982	7.36837e+06	-55539.1	955.819	-29741.6	0.000000	0.000000	6.763031	0.064305	NaN	0.000000	0.001530	0.001707	28.08	0.067927	0.002121	32.0325	-155.344	-165.668	0.061126	0.761683	-0.299715	-0.301014	0.064305	32.0325	-0.301221	-4906.8	-1.310531E-5	NaN
338	1.000000	0.771011	7.36837e+06	-55539.1	955.817	-29741.6	0.000000	0.000000	6.771057	-0.037343	NaN	0.000000	0.001519	0.001699	28.08	0.033886	0.002178	15.5561	-140.804	-161.914	0.037661	0.769731	-0.291685	-0.292966	-0.037343	15.5561	-0.289885	-3323.37	1.123641E-5	NaN
338	1.000000	0.779016	7.36837e+06	-55539.1	955.818	-29741.6	0.000000	0.000000	6.779064	0.029817	NaN	0.000000	0.001518	0.001703	28.0802	0.011950	0.001910	6.257101	73.442	-167.869	-0.017068	0.777718	-0.283681	-0.284978	0.029817	6.257101	-0.287255	-3034.82	-9.824834E-6	NaN
338	1.000000	0.787010	7.36837e+06	-55539.1	955.818	-29741.6	0.000000	0.000000	6.787061	0.087836	NaN	0.000000	0.001512	0.001682	28.0798	0.070052	0.001960	35.7358	80.6937	-168.557	-0.002513	0.785726	-0.275687	-0.276971	0.087836	35.7358	-0.277530	-2166.08	-4.055074E-5	NaN
338	1.000000	0.794999	7.36837e+06	-55539.1	955.818	-29741.6	0.000000	0.000000	6.795047	0.021646	NaN	0.000000	0.001503	0.001696	28.0803	0.058264	0.002053	28.383	-13.5889	-160.96	0.014143	0.793751	-0.267697	-0.268946	0.021646	28.383	-0.268269	-1567.53	-1.380883E-5	NaN
338	1.000000	0.803011	7.36837e+06	-55539.1	955.819	-29741.6	0.000000	0.000000	6.803060	0.047101	NaN	0.000000	0.001532	0.001686	28.0802	0.039026	0.001966	19.8513	-138.842	-162.334	0.085738	0.801732	-0.259686	-0.260965	0.047101	19.8513	-0.261465	-1234.12	-3.816526E-5	NaN
338	1.000000	0.811031	7.36837e+06	-55539.1	955.817	-29741.6	0.000000	0.000000	6.811078	0.014888	NaN	0.000000	0.001538	0.001708	28.0803	0.023124	0.001838	12.5792	-45.7222	-164.86	-0.001339	0.809723	-0.251666	-0.252974	0.014888	12.5792	-0.252554	-900.355	-1.653553E-5	NaN
338	1.000000	0.819010	7.36837e+06	-55539.1	955.818	-29741.6	0.000000	0.000000	6.819059	0.044690	NaN	0.000000	0.001529	0.001691	28.0803	0.078250	0.002013	38.8691	131.651	-166.503	0.068700	0.817716	-0.243687	-0.244981	0.044690	38.8691	-0.244549	-676.771	-6.603484E-5	NaN
338	1.000000	0.827032	7.36837e+06	-55539.1	955.818	-29741.6	0.000000	0.000000	6.827081	0.049771	NaN	0.000000	0.001512	0.001742	28.0802	0.084152	0.001963	42.8706	167.848	-165.848	0.024218	0.825693	-0.235665	-0.237003	0.049771	42.8706	-0.236535	-507.385	-9.809271E-5	NaN
338	1.000000	0.835020	7.36837e+06	-55539.1	955.818	-29741.6	0.000000	0.000000	6.835065	-0.044912	NaN	0.000000	0.001513	0.001708	28.0802	0.074026	0.001942	38.1128	-14.4592	-163.583	-0.088143	0.833688	-0.227677	-0.229008	-0.044912	38.1128	-0.226793	-356.276	0.000126	NaN
338	1.000000	0.843038	7.36837e+06	-55539.1	955.818	-29741.6	0.000000	0.000000	6.843086	0.021988	NaN	0.000000	0.001493	0.001705	28.0803	0.027379	0.001995	13.7238	128.392	-166.75	0.022054	0.841750	-0.219658	-0.220947	0.021988	13.7238	-0.220860	-286.688	-7.669515E-5	NaN
338	1.000000	0.851012	7.36837e+06	-55539.1	955.818	-29741.6	0.000000	0.000000	6.851058	-0.042078	NaN	0.000000	0.001500	0.001709	28.0804	0.046749	0.002064	22.6499	-4.971837	-162.195	-0.015008	0.849750	-0.211684	-0.212947	-0.042078	22.6499	-0.210291	-193.878	0.000217	NaN
338	1.000000	0.859025	7.36837e+06	-55539.1	955.819	-29741.6	0.000000	0.000000	6.859074	0.032375	NaN	0.000000	0.001483	0.001722	28.0802	0.038617	0.001917	20.1493	-53.3189	-165.767	-0.020699	0.857750	-0.203671	-0.204946	0.032375	20.1493	-0.204876	-158.323	-0.000204	NaN
338	1.000000	0.867048	7.36837e+06	-55539.1	955.819	-29741.6	0.000000	0.000000	6.867096	0.021747	NaN	0.000000	0.001504	0.001687	28.0803	0.107306	0.001912	56.1361	28.8873	-165.361	-0.013824	0.865692	-0.195648	-0.197005	0.021747	56.1361	-0.195939	-112.913	-0.000193	NaN
338	1.000000	0.875012	7.36837e+06	-55539.1	955.818	-29741.6	0.000000	0.000000	6.875060	0.039478	NaN	0.000000	0.001505	0.001731	28.0803	0.060153	0.001999	30.0846	-104.591	-166.145	0.139466	0.873748	-0.187685	-0.188949	0.039478	30.0846	-0.188669	-85.4618	-0.000462	NaN
338	1.000000	0.883033	7.36837e+06	-55539.1	955.819	-29741.6	0.000000	0.000000	6.883083	0.065928	NaN	0.000000	0.001491	0.001716	28.0811	0.080055	0.001998	40.0729	-29.4891	-167.664	0.063089	0.881709	-0.179663	-0.180988	0.065928	40.0729	-0.180897	-63.2002	-0.001043	NaN
338	1.000000	0.891088	7.36837e+06	-55539.1	955.818	-29741.6	0.000000	0.000000	6.891136	0.028420	NaN	0.000000	0.001482	0.001736	28.0827	0.081473	0.001986	41.0137	-126.404	-167.078	0.044033	0.889810	-0.171609	-0.172887	0.028420	41.0137	-0.172128	-44.7186	-0.000636	NaN
338	1.000000	0.899056	7.36837e+06	-55539.1	955.818	-29741.6	0.000000	0.000000	6.899105	0.037462	NaN	0.000000	0.001543	0.001716	28.0813	0.009230	0.002064	4.472756	17.9562	-162.333	0.071418	0.897743	-0.163640	-0.164954	0.037462	4.472756	-0.169922	-40.9505	-0.000915	NaN
338	1.000000	0.907059	7.36837e+06	-55539.1	955.818	-29741.6	0.000000	0.000000	6.907105	-0.022491	NaN	0.000000	0.001501	0.001702	28.0812	0.063163	0.001983	31.8561	-121.815	-166.746	-0.002006	0.905751	-0.155637	-0.156946	-0.022491	31.8561	-0.155108	-22.4142	0.001003	NaN
338	1.000000	0.915071	7.36837e+06	-55539.1	955.818	-29741.6	0.000000	0.000000	6.915119	0.023792	NaN	0.000000	0.001501	0.001705	28.0813	0.117215	0.001860	63.0165	36.0518	-161.944	0.002810	0.913742	-0.147626	-0.148954	0.023792	63.0165	-0.147909	-16.5865	-0.001434	NaN
338	1.000000	0.923078	7.36837e+06	-55539.1	955.819	-29741.6	0.000000	0.000000	6.923123	-0.033498	NaN	0.000000	0.001534	0.001652	28.0814	0.065921	0.002084	31.6363	-101.674	-166.34	-0.016598	0.921764	-0.139619	-0.140933	-0.033498	31.6363	-0.138825	-11.2421	0.002980	NaN
338	1.000000	0.931063	7.36837e+06	-55539.1	955.82	-29741.6	0.000000	0.000000	6.931111	0.025977	NaN	0.000000	0.001542	0.001711	28.0815	0.100297	0.001986	50.5004	73.29	-166.809	-0.037015	0.929734	-0.131633	-0.132963	0.025977	50.5004	-0.132019	-8.338555	-0.003115	NaN
338	1.000000	0.939072	7.36837e+06	-55539.1	955.818	-29741.6	0.000000	0.000000	6.939120	0.040893	NaN	0.000000	0.001511	0.001741	28.0813	0.051853	0.002023	25.6262	174.645	-164.679	0.106754	0.937749	-0.123625	-0.124948	0.040893	25.6262	-0.124822	-6.032073	-0.006779	NaN
338	1.000000	0.947089	7.36837e+06	-55539.1	955.82	-29741.6	0.000000	0.000000	6.947135	-0.012260	NaN	0.000000	0.001494	0.001681	28.0814	0.058778	0.001970	29.8401	-112.602	-166.341	0.067054	0.945767	-0.115608	-0.116930	-0.012260	29.8401	-0.115300	-3.875104	0.003164	NaN
338	1.000000	0.955092	7.36837e+06	-55539.1	955.818	-29741.6	0.000000	0.000000	6.955139	-0.008984	NaN	0.000000	0.001475	0.001708	28.0815	0.058094	0.002008	28.9359	-88.6824	-168.728	0.108255	0.953741	-0.107604	-0.108955	-0.008984	28.9359	-0.107371	-2.643011	0.003399	NaN
338	1.000000	0.963082	7.36837e+06	-55539.1	955.819	-29741.6	0.000000	0.000000	6.963130	0.004566	NaN	0.000000	0.001468	0.001730	28.0813	0.098784	0.001980	49.8891	86.5949	-162.218	0.057004	0.961726	-0.099614	-0.100971	0.004566	49.8891	-0.099683	-1.797772	-0.002540	NaN
338	1.000000	0.971078	7.36837e+06	-55539.1	955.818	-29741.6	0.000000	0.000000	6.971123	-0.038010	NaN	0.000000	0.001487	0.001726	28.0812	0.107578	0.002054	52.3802	25.6533	-167.439	0.040107	0.969783	-0.091619	-0.092914	-0.038010	52.3802	-0.091075	-1.145379	0.033186	NaN
338	1.000000	0.979111	7.36837e+06	-55539.1	955.818	-29741.6	0.000000	0.000000	6.979157	-0.010475	NaN	0.000000	0.001513	0.001694	28.0816	0.063424	0.001988	31.8975	147.533	-163.286	-0.019782	0.977770	-0.083586	-0.084927	-0.010475	31.8975	-0.083339	-0.748643	0.013992	NaN
338	1.000000	0.987102	7.36837e+06	-55539.1	955.819	-29741.6	0.000000	0.000000	6.987148	-0.007839	NaN	0.000000	0.001479	0.001736	28.0815	0.043570	0.002051	21.245	-128.722	-164.69	0.001454	0.985775	-0.075595	-0.076921	-0.007839	21.245	-0.075318	-0.470702	0.016655	NaN
338	1.000000	0.995090	7.36837e+06	-55539.1	955.819	-29741.6	0.000000	0.000000	6.995138	0.025693	NaN	0.000000	0.001508	0.001707	28.0812	0.080970	0.002038	39.7262	-141.461	-163.227	-0.084032	0.993849	-0.067607	-0.068847	0.025693	39.7262	-0.068092	-0.302994	-0.084796	NaN
338	1.000000	1.003086	7.36837e+06	-55539.1	955.819	-29741.6	0.000000	0.000000	7.003131	-0.049086	NaN	0.000000	0.001490	0.001729	28.0812	0.066231	0.002013	32.9056	148.58	-166.223	-0.039399	1.001768	-0.059610	-0.060928	-0.049086	32.9056	-0.058492	-0.162938	0.301255	NaN
338	1.000000	1.011096	7.36837e+06	-55539.1	955.818	-29741.6	0.000000	0.000000	7.011142	-0.015915	NaN	0.000000	0.001518	0.001696	28.0815	0.055140	0.001908	28.9031	4.039498	-167.139	0.068259	1.009758	-0.051601	-0.052939	-0.015915	28.9031	-0.051188	-0.099100	0.160596	NaN
338	1.000000	1.019096	7.36837e+06	-55539.1	955.82	-29741.6	0.000000	0.000000	7.019142	-0.028898	NaN	0.000000	0.001516	0.001707	28.0808	0.056038	0.002059	27.2172	-158.756	-165.666	-0.053995	1.017789	-0.043600	-0.044907	-0.028898	27.2172	-0.042804	-0.055059	0.524858	NaN
338	1.000000	1.027107	7.36837e+06	-55539.1	955.819	-29741.6	0.000000	0.000000	7.027157	0.073532	NaN	0.000000	0.001492	0.001725	28.0802	0.074741	0.002063	36.231	-115.793	-164.794	0.077160	1.025785	-0.035590	-0.036911	0.073532	36.231	-0.037112	-0.037000	-1.987327	NaN
338	1.000000	1.035124	7.36837e+06	-55539.1	955.819	-29741.6	0.000000	0.000000	7.035173	0.049756	NaN	0.000000	0.001494	0.001734	28.0796	0.016666	0.001941	8.584479	157.906	-170.89	0.079428	1.033803	-0.027572	-0.028894	0.049756	8.584479	-0.031920	-0.026068	-1.908706	NaN
338	1.000000	1.043093	7.36837e+06	-55539.1	955.818	-29741.6	0.000000	0.000000	7.043142	0.043998	NaN	0.000000	0.001486	0.001674	28.0801	0.112370	0.001948	57.6711	47.5891	-165.771	0.078504	1.041784	-0.019604	-0.020912	0.043998	57.6711	-0.020176	-0.012691	-3.466860	NaN
338	1.000000	1.051096	7.36837e+06	-55539.1	955.819	-29741.6	0.000000	0.000000	7.051143	-0.015013	NaN	0.000000	0.001494	0.001706	28.0802	0.113948	0.002047	55.6605	-1.055880	-164.393	0.048863	1.049829	-0.011600	-0.012868	-0.015013	55.6605	-0.011398	-0.007185	2.089566	NaN
338	1.000000	1.059108	7.36837e+06	-55539.1	955.819	-29741.6	0.000000	0.000000	7.059155	0.004310	NaN	0.000000	0.001476	0.001739	28.08	0.108944	0.001980	55.0353	-100.059	-164.881	0.016055	1.057776	-0.003588	-0.004920	0.004310	55.0353	-0.003647	-0.002549	-1.690971	NaN
338	1.000000	1.067119	7.36837e+06	-55539.1	955.819	-29741.6	0.000000	0.000000	7.067307	3.416742	NaN	0.000000	0.001511	0.001740	28.0802	4.286398	0.001873	2288.63	9.089532	-169.722	2.069005	1.065801	0.004423	0.003105	3.416742	2288.63	0.003303	0.002636	1295.96	40722.9
338	2.000000	1.072650	7.36837e+06	-55539.1	955.819	-29741.6	0.000000	0.000000	7.073105	9.908816	NaN	0.000000	0.001505	0.001715	28.0801	9.664911	0.001638	5902.2	9.160259	-174.943	9.233597	1.072383	0.009953	0.009686	9.908816	5902.2	0.008694	0.007766	1275.89	61190.3
338	2.000000	1.074659	7.36837e+06	-55539.1	955.819	-29741.6	0.000000	0.000000	7.075211	12.2699	NaN	0.000000	0.001508	0.001767	28.0803	12.0952	0.001735	6969.53	8.643922	-174.582	12.0167	1.074350	0.011963	0.011654	12.2699	6969.53	0.010642	0.009904	1238.9	63984.4
338	2.000000	1.076629	7.36837e+06	-55539.1	955.819	-29741.6	0.000000	0.000000	7.077406	17.7571	NaN	0.000000	0.001542	0.001744	28.0802	14.5056	0.001602	9055.78	4.292940	-174.041	16.8757	1.076325	0.013932	0.013629	17.7571	9055.78	0.012462	0.012048	1473.88	75378.1
338	2.000000	1.078658	7.36837e+06	-55539.1	955.819	-29741.6	0.000000	0.000000	7.079522	19.8674	NaN	0.000000	0.001515	0.001761	28.0803	17.4069	0.001917	9079.77	6.639898	-174.243	20.3735	1.078327	0.015961	0.015631	19.8674	9079.77	0.014320	0.014389	1380.71	69155.7
338	2.000000	1.080646	7.36837e+06	-55539.1	955.819	-29741.6	0.000000	0.000000	7.081713	24.7907	NaN	0.000000	0.001500	0.001745	28.0805	18.7027	0.001746	10708.8	3.300772	-171.543	25.9778	1.080228	0.017949	0.017531	24.7907	10708.8	0.016213	0.016937	1463.71	75179
338	2.000000	1.082588	7.36837e+06	-55539.1	955.819	-29741.6	0.000000	0.000000	7.083848	29.4797	NaN	0.000000	0.001542	0.001733	28.0802	20.7763	0.001770	11741.1	8.770219	-179.334	27.6096	1.082266	0.019891	0.019570	29.4797	11741.1	0.018008	0.019508	1511.13	76801.8
338	2.000000	1.084584	7.36837e+06	-55539.1	955.818	-29741.6	0.000000	0.000000	7.086047	34.4244	NaN	0.000000	0.001523	0.001723	28.0805	23.2065	0.001781	13030.5	8.101479	179.65	32.6166	1.084284	0.021888	0.021588	34.4244	13030.5	0.019906	0.022395	1537.14	79552.9
338	2.000000	1.086589	7.36837e+06	-55539.1	955.819	-29741.6	0.000000	0.000000	7.088292	40.2625	NaN	0.000000	0.001475	0.001721	28.0805	24.1104	0.001682	14336.4	8.285620	178.847	39.596	1.086290	0.023892	0.023593	40.2625	14336.4	0.021786	0.025427	1583.47	82142.2
338	2.000000	1.088553	7.36837e+06	-55539.1	955.819	-29741.6	0.000000	0.000000	7.090495	46.084	NaN	0.000000	0.001488	0.001706	28.0804	26.4459	0.001703	15528.7	5.882291	-178.867	45.5479	1.088197	0.025856	0.025501	46.084	15528.7	0.023630	0.028571	1612.98	83935.9
338	2.000000	1.090600	7.36837e+06	-55539.1	955.819	-29741.6	0.000000	0.000000	7.092770	51.6219	NaN	0.000000	0.001483	0.001715	28.0807	28.6798	0.001713	16739.4	3.965761	-177.19	50.8022	1.090267	0.027903	0.027570	51.6219	16739.4	0.025590	0.032098	1608.27	85364.2
338	2.000000	1.092566	7.36837e+06	-55539.1	955.818	-29741.6	0.000000	0.000000	7.094923	56.1423	NaN	0.000000	0.001526	0.001681	28.0805	30.4809	0.001701	17921.7	3.935881	-178.26	55.8354	1.092276	0.029870	0.029579	56.1423	17921.7	0.027520	0.035761	1569.95	86586.5
338	2.000000	1.094540	7.36837e+06	-55539.1	955.819	-29741.6	0.000000	0.000000	7.097208	63.7133	NaN	0.000000	0.001497	0.001694	28.0818	33.29	0.001831	18183.6	4.420191	-178.481	62.0488	1.094266	0.031843	0.031570	63.7133	18183.6	0.029215	0.039133	1628.12	83981.1
338	2.000000	1.096525	7.36837e+06	-55539.1	955.819	-29741.6	0.000000	0.000000	7.099465	70.325	NaN	0.000000	0.001518	0.001699	28.0822	34.0816	0.001654	20599.5	3.094511	-179.097	69.5576	1.096272	0.033828	0.033575	70.325	20599.5	0.031268	0.043412	1619.93	90328.4
338	2.000000	1.098545	7.36837e+06	-55539.1	955.819	-29741.6	0.000000	0.000000	7.101778	77.4449	NaN	0.000000	0.001524	0.001714	28.0815	37.0541	0.001824	20319.8	3.053087	-178.047	75.6609	1.098209	0.035848	0.035513	77.4449	20319.8	0.032990	0.047169	1641.87	85480.1
338	2.000000	1.100550	7.36837e+06	-55539.1	955.819	-29741.6	0.000000	0.000000	7.104133	85.9517	NaN	0.000000	0.001530	0.001746	28.0817	39.5904	0.001862	21262	5.350109	179.597	84.6299	1.100235	0.037853	0.037538	85.9517	21262	0.034821	0.051331	1674.46	85741
338	2.000000	1.102470	7.36837e+06	-55539.1	955.818	-29741.6	0.000000	0.000000	7.106392	94.193	NaN	0.000000	0.001505	0.001714	28.0816	41.3734	0.001852	22339.9	6.920240	177.099	90.1955	1.102175	0.039774	0.039479	94.193	22339.9	0.036611	0.055565	1695.19	86587.3
338	2.000000	1.104567	7.36837e+06	-55539.1	955.818	-29741.6	0.000000	0.000000	7.108792	101.542	NaN	0.000000	0.001523	0.001707	28.0817	43.3355	0.001842	23521.2	3.678321	179.631	101.128	1.104150	0.041871	0.041454	101.542	23521.2	0.038633	0.060543	1677.18	87337.4
338	2.000000	1.106514	7.36837e+06	-55539.1	955.819	-29741.6	0.000000	0.000000	7.111027	108.558	NaN	0.000000	0.001505	0.001700	28.0821	44.0736	0.001795	24550.9	3.732702	179.581	106.904	1.106218	0.043817	0.043521	108.558	24550.9	0.040501	0.065329	1661.7	87758.1
338	2.000000	1.108552	7.36837e+06	-55539.1	955.819	-29741.6	0.000000	0.000000	7.113467	118.339	NaN	0.000000	0.001506	0.001718	28.0816	46.5454	0.001780	26149.7	2.059924	-179.619	117.128	1.108190	0.045856	0.045493	118.339	26149.7	0.042461	0.070544	1677.52	89951.7
338	2.000000	1.110599	7.36837e+06	-55539.1	955.819	-29741.6	0.000000	0.000000	7.115811	125.542	NaN	0.000000	0.001533	0.001743	28.0818	49.6973	0.001846	26926.9	5.752566	176.611	125.522	1.110193	0.047903	0.047496	125.542	26926.9	0.044406	0.075910	1653.83	89291.6
338	2.000000	1.112515	7.36837e+06	-55539.1	955.819	-29741.6	0.000000	0.000000	7.118257	138.431	NaN	0.000000	0.001520	0.001728	28.0816	49.5764	0.001749	28351	0.711828	-178.423	136.652	1.112120	0.049819	0.049424	138.431	28351	0.046157	0.080905	1711.04	91065.3
338	2.000000	1.114546	7.36837e+06	-55539.1	955.819	-29741.6	0.000000	0.000000	7.120743	149.496	NaN	0.000000	0.001515	0.001756	28.0816	53.4487	0.001683	31762.1	5.254768	175.642	148.719	1.114178	0.051850	0.051481	149.496	31762.1	0.048319	0.087290	1712.64	98220.2
338	2.000000	1.116515	7.36837e+06	-55539.1	955.819	-29741.6	0.000000	0.000000	7.123066	158.107	NaN	0.000000	0.001507	0.001743	28.0816	55.1237	0.001864	29578.1	6.623315	174.495	156.951	1.116210	0.053818	0.053514	158.107	29578.1	0.049809	0.091825	1721.84	89179.1
338	2.000000	1.118550	7.36837e+06	-55539.1	955.819	-29741.6	0.000000	0.000000	7.125362	164.453	NaN	0.000000	0.001482	0.001727	28.0815	57.4303	0.001710	33580.6	10.0431	169.844	164.896	1.118242	0.055853	0.055545	164.453	33580.6	0.052181	0.099272	1656.59	97375.3
338	2.000000	1.120478	7.36837e+06	-55539.1	955.818	-29741.6	0.000000	0.000000	7.128001	181.74	NaN	0.000000	0.001460	0.001725	28.0816	59.3397	0.001834	32351.3	8.349320	172.938	178.627	1.120150	0.057781	0.057453	181.74	32351.3	0.053568	0.103760	1751.55	91759.6
338	2.000000	1.122543	7.36837e+06	-55539.1	955.819	-29741.6	0.000000	0.000000	7.130284	187.013	NaN	0.000000	0.001463	0.001710	28.0817	60.9751	0.001977	30835.6	5.240259	176.177	189.185	1.122310	0.059847	0.059613	187.013	30835.6	0.055298	0.109490	1708.03	85140.7
338	2.000000	1.124470	7.36837e+06	-55539.1	955.818	-29741.6	0.000000	0.000000	7.132851	202.577	NaN	0.000000	0.001484	0.001711	28.0813	61.9097	0.001819	34040.3	6.772073	172.98	198.865	1.124166	0.061773	0.061470	202.577	34040.3	0.057310	0.116339	1741.25	91180.7
338	2.000000	1.126556	7.36837e+06	-55539.1	955.818	-29741.6	0.000000	0.000000	7.135373	213.202	NaN	0.000000	0.001499	0.001704	28.0816	63.0524	0.001764	35740.8	6.840548	174.077	215.176	1.126164	0.063859	0.063467	213.202	35740.8	0.059385	0.123613	1724.75	92876.3
338	2.000000	1.128464	7.36837e+06	-55539.1	955.819	-29741.6	0.000000	0.000000	7.137819	226.242	NaN	0.000000	0.001487	0.001685	28.0804	65.0975	0.001668	39017.4	3.894188	174.633	223.168	1.128138	0.065768	0.065442	226.242	39017.4	0.061419	0.130945	1727.76	98511.3
338	2.000000	1.130529	7.36838e+06	-55539.1	955.819	-29741.6	0.000000	0.000000	7.140333	237.187	NaN	0.000000	0.001512	0.001701	28.0805	68.4622	0.001823	37549.8	6.841306	173.239	235.802	1.130036	0.067832	0.067340	237.187	37549.8	0.063095	0.137139	1729.54	92640.4
338	2.000000	1.132428	7.36838e+06	-55539.1	955.819	-29741.6	0.000000	0.000000	7.142829	251.691	NaN	0.000000	0.001508	0.001723	28.0804	69.1055	0.001826	37851	1.475426	178.014	247.552	1.132170	0.069731	0.069473	251.691	37851	0.064744	0.143367	1755.57	91332.6
338	2.000000	1.134452	7.36838e+06	-55539.1	955.818	-29741.6	0.000000	0.000000	7.145333	263.348	NaN	0.000000	0.001504	0.001722	28.08	71.7915	0.001713	41913.4	5.102052	173.424	258.683	1.134200	0.071756	0.071503	263.348	41913.4	0.067043	0.152269	1729.5	98134.3
338	2.000000	1.136506	7.36838e+06	-55539.1	955.818	-29741.6	0.000000	0.000000	7.148129	281.402	NaN	0.000000	0.001468	0.001705	28.08	71.6757	0.001721	41638.4	2.718931	176.356	281.383	1.136073	0.073809	0.073377	281.402	41638.4	0.068741	0.159003	1769.79	95403.5
338	2.000000	1.138375	7.36838e+06	-55539.1	955.818	-29741.6	0.000000	0.000000	7.150364	290.273	NaN	0.000000	0.001482	0.001705	28.0801	74.8245	0.001774	42172.6	2.118404	176.631	283.531	1.138174	0.075679	0.075477	290.273	42172.6	0.070517	0.166195	1746.58	94513.5
338	2.000000	1.140483	7.36838e+06	-55539.1	955.819	-29741.6	0.000000	0.000000	7.153099	305.522	NaN	0.000000	0.001495	0.001713	28.0801	77.7609	0.001820	42714.6	4.574861	174.447	303.623	1.140135	0.077786	0.077439	305.522	42714.6	0.072422	0.174079	1755.07	93535.3
338	2.000000	1.142485	7.36838e+06	-55539.1	955.819	-29741.6	0.000000	0.000000	7.155615	318.024	NaN	0.000000	0.001591	0.001712	28.0804	79.2753	0.001827	43380.7	2.974456	175.292	315.881	1.142168	0.079789	0.079471	318.024	43380.7	0.074290	0.181978	1747.6	92909.7
338	2.000000	1.144568	7.36838e+06	-55539.1	955.818	-29741.6	0.000000	0.000000	7.157888	322.637	NaN	0.000000	0.001550	0.001739	28.0801	82.3854	0.001826	45116.1	4.408845	173.597	322.786	1.144293	0.081872	0.081596	322.637	45116.1	0.076508	0.191566	1684.21	94177
338	2.000000	1.146456	7.36838e+06	-55539.1	955.818	-29741.6	0.000000	0.000000	7.160885	349.611	NaN	0.000000	0.001510	0.001697	28.0801	82.7226	0.001866	44328.1	1.774849	176.97	347.704	1.146103	0.083759	0.083407	349.611	44328.1	0.077844	0.197452	1770.61	91142.7
338	2.000000	1.148446	7.36838e+06	-55539.1	955.819	-29741.6	0.000000	0.000000	7.163196	357.412	NaN	0.000000	0.001534	0.001713	28.08	85.1579	0.001873	45466.8	3.249876	174.397	353.496	1.148267	0.085749	0.085570	357.412	45466.8	0.079854	0.206464	1731.11	91420.8
338	2.000000	1.150454	7.36838e+06	-55539.1	955.819	-29741.6	0.000000	0.000000	7.165900	374.321	NaN	0.000000	0.001505	0.001728	28.0801	86.9018	0.001732	50163.5	4.225681	173.058	369.896	1.150042	0.087757	0.087345	374.321	50163.5	0.082161	0.217045	1724.63	98375.5
338	2.000000	1.152445	7.36838e+06	-55539.1	955.819	-29741.6	0.000000	0.000000	7.168531	389.873	NaN	0.000000	0.001516	0.001716	28.0802	88.789	0.001778	49928.6	6.395408	170.801	387.176	1.152170	0.089748	0.089473	389.873	49928.6	0.083892	0.225144	1731.66	96137.5
338	2.000000	1.154411	7.36838e+06	-55539.1	955.819	-29741.6	0.000000	0.000000	7.171318	409.855	NaN	0.000000	0.001516	0.001718	28.08	91.3767	0.001853	49324	5.644478	171.802	405.97	1.154148	0.091714	0.091452	409.855	49324	0.085482	0.232707	1761.25	93417.3
338	2.000000	1.156410	7.36838e+06	-55539.1	955.819	-29741.6	0.000000	0.000000	7.173840	422.564	NaN	0.000000	0.001507	0.001740	28.0802	91.8982	0.001713	53662	8.039320	168.267	419.181	1.156178	0.093713	0.093482	422.564	53662	0.087807	0.243976	1731.99	99258.2
338	2.000000	1.158485	7.36838e+06	-55539.1	955.819	-29741.6	0.000000	0.000000	7.176498	436.706	NaN	0.000000	0.001511	0.001730	28.0801	94.4881	0.001728	54679.3	6.657217	170.943	436.357	1.158031	0.095789	0.095335	436.706	54679.3	0.089799	0.253824	1720.51	99158.6
338	2.000000	1.160478	7.36838e+06	-55539.1	955.819	-29741.6	0.000000	0.000000	7.179417	459.24	NaN	0.000000	0.001469	0.001727	28.0801	96.9273	0.001815	53404	6.154775	171.437	457.358	1.160059	0.097781	0.097362	459.24	53404	0.091332	0.261530	1755.97	95408.3
338	2.000000	1.162413	7.36838e+06	-55539.1	955.82	-29741.6	0.000000	0.000000	7.181932	473.342	NaN	0.000000	0.001472	0.001761	28.0815	99.1194	0.001865	53146.7	8.472358	169.1	469.397	1.161978	0.099716	0.099282	473.342	53146.7	0.093036	0.270223	1751.67	93408.9
338	2.000000	1.164387	7.36838e+06	-55539.1	955.82	-29741.6	0.000000	0.000000	7.184543	488.794	NaN	0.000000	0.001504	0.001748	28.0814	100.606	0.001817	55368.7	6.093928	170.582	483.56	1.164105	0.101691	0.101409	488.794	55368.7	0.095070	0.280769	1740.91	95469.1
338	2.000000	1.166476	7.36838e+06	-55539.1	955.82	-29741.6	0.000000	0.000000	7.187409	507.697	NaN	0.000000	0.001462	0.001739	28.0813	100.501	0.001740	57766.6	3.470053	172.659	507.365	1.166160	0.103780	0.103463	507.697	57766.6	0.097188	0.291956	1738.95	97676.8
338	2.000000	1.168333	7.36838e+06	-55539.1	955.819	-29741.6	0.000000	0.000000	7.189953	524.386	NaN	0.000000	0.001478	0.001731	28.0813	103.385	0.001845	56039.5	3.593348	173.274	518.583	1.168093	0.105637	0.105396	524.386	56039.5	0.098619	0.299625	1750.14	93535.9
338	2.000000	1.170520	7.36838e+06	-55539.1	955.82	-29741.6	0.000000	0.000000	7.192919	543.343	NaN	0.000000	0.001541	0.001761	28.0812	105.311	0.001697	62065.3	6.406630	170.046	543.38	1.170066	0.107824	0.107369	543.343	62065.3	0.101258	0.314019	1730.29	101191