File: remote_trans/data/nanoindenter/0828-1/data/Data_2025-08-06,11h17m57s/2025-07-22_16-23-58_1_278.txt
2025-07-22, 16:23:58, 1
Index	Phase	Displacement	Time	Pos X	Pos Y	Pos Z	Rot A	Rot B	Piezo Z	Force A	Force B	Gripper	Voltage A	Voltage B	Temperature	Amplitude force	Amplitude pos	Stiffness	Phase shift	Phase excitation	Force A raw	Displacement raw	HMax	HMax raw	Real Force	Real Stiffness	Contact Depth	Area	Hardness	Reduced Mod.
[#]	[#]	[um]	[s]	[um]	[um]	[um]	[m°]	[m°]	[um]	[uN]	[uN]	[V]	[V]	[V]	[°C]	[uN]	[um]	[N/m]	[°]	[°]	[uN]	[um]	[um]	[um]	[uN]	[N/m]	[um]	[um^2]	[MPa]	[MPa]
278	1.000000	0.002337	7.36777e+06	-52539.1	955.818	-29749.2	0.000000	0.000000	6.002773	-0.025558	NaN	0.000000	0.001565	0.001728	28.08	0.079241	0.001044	75.9174	120.629	-167.526	-0.012609	0.001012	-1.035006	-1.036332	-0.025558	75.9174	-1.034754	-6.659174E+13	3.837990E-16	NaN
278	1.000000	0.010355	7.36777e+06	-52539.1	955.818	-29749.2	0.000000	0.000000	6.010794	0.045960	NaN	0.000000	0.001575	0.001759	28.0802	0.074315	0.001099	67.6066	37.2501	-164.227	0.093880	0.009028	-1.026988	-1.028315	0.045960	67.6066	-1.027498	-5.318967E+13	-8.640727E-16	NaN
278	1.000000	0.018323	7.36777e+06	-52539.1	955.819	-29749.2	0.000000	0.000000	6.018758	-0.041546	NaN	0.000000	0.001562	0.001771	28.0805	0.075779	0.001590	47.6461	56.8064	-165.061	-0.046366	0.017003	-1.019021	-1.020341	-0.041546	47.6461	-1.018367	-4.008461E+13	1.036466E-15	NaN
278	1.000000	0.026341	7.36777e+06	-52539.1	955.819	-29749.2	0.000000	0.000000	6.026778	-0.013197	NaN	0.000000	0.001598	0.001780	28.0804	0.080666	0.001732	46.5629	120.938	-164.047	-0.059022	0.024981	-1.011002	-1.012362	-0.013197	46.5629	-1.010789	-3.169624E+13	4.163618E-16	NaN
278	1.000000	0.034312	7.36777e+06	-52539.1	955.819	-29749.2	0.000000	0.000000	6.034750	0.007100	NaN	0.000000	0.001589	0.001738	28.0807	0.005047	0.001915	2.635361	11.0587	-167.412	-0.011465	0.032986	-1.003032	-1.004357	0.007100	2.635361	-1.005052	-2.653275E+13	-2.675882E-16	NaN
278	1.000000	0.042326	7.36777e+06	-52539.1	955.818	-29749.2	0.000000	0.000000	6.042761	-0.057491	NaN	0.000000	0.001596	0.001756	28.0811	0.069218	0.001995	34.7006	-28.2637	-165.987	-0.126361	0.040974	-0.995017	-0.996370	-0.057491	34.7006	-0.993774	-1.870432E+13	3.073667E-15	NaN
278	1.000000	0.050319	7.36777e+06	-52539.1	955.818	-29749.2	0.000000	0.000000	6.050758	0.032580	NaN	0.000000	0.001629	0.001753	28.0811	0.030560	0.001889	16.1745	-20.532	-163.799	0.015418	0.049029	-0.987024	-0.988314	0.032580	16.1745	-0.988535	-1.589936E+13	-2.049148E-15	NaN
278	1.000000	0.058315	7.36777e+06	-52539.1	955.819	-29749.2	0.000000	0.000000	6.058754	0.020325	NaN	0.000000	0.001580	0.001705	28.081	0.075065	0.001896	39.5893	134.869	-164.115	0.024178	0.057015	-0.979028	-0.980328	0.020325	39.5893	-0.979413	-1.198124E+13	-1.696360E-15	NaN
278	1.000000	0.066302	7.36777e+06	-52539.1	955.819	-29749.2	0.000000	0.000000	6.066739	0.008011	NaN	0.000000	0.001685	0.001701	28.0808	0.116386	0.001978	58.8459	-144.271	-165.244	-0.021512	0.065001	-0.971042	-0.972342	0.008011	58.8459	-0.971144	-9.269946E+12	-8.641481E-16	NaN
278	1.000000	0.074312	7.36777e+06	-52539.1	955.818	-29749.3	0.000000	0.000000	6.074749	-0.001184	NaN	0.000000	0.001606	0.001711	28.0808	0.079555	0.002012	39.5371	170.711	-170.991	-0.049445	0.073005	-0.963032	-0.964338	-0.001184	39.5371	-0.963009	-7.201696E+12	1.644113E-16	NaN
278	1.000000	0.082304	7.36777e+06	-52539.1	955.818	-29749.3	0.000000	0.000000	6.082739	-0.053257	NaN	0.000000	0.001586	0.001702	28.0811	0.035356	0.001982	17.8344	-154.364	-168.838	-0.068783	0.081054	-0.955039	-0.956290	-0.053257	17.8344	-0.952800	-5.245445E+12	1.015308E-14	NaN
278	1.000000	0.090378	7.36777e+06	-52539.1	955.818	-29749.3	0.000000	0.000000	6.090815	-0.000474	NaN	0.000000	0.001618	0.001697	28.0813	0.065693	0.001849	35.5379	-74.4442	-164.366	0.087464	0.089007	-0.946965	-0.948336	-0.000474	35.5379	-0.946955	-4.374867E+12	1.083061E-16	NaN
278	1.000000	0.098332	7.36777e+06	-52539.1	955.819	-29749.3	0.000000	0.000000	6.098768	-0.016800	NaN	0.000000	0.001582	0.001673	28.0808	0.152731	0.001948	78.4143	151.882	-167.31	-0.045515	0.096992	-0.939012	-0.940351	-0.016800	78.4143	-0.938851	-3.401218E+12	4.939516E-15	NaN
278	1.000000	0.106375	7.36777e+06	-52539.1	955.818	-29749.3	0.000000	0.000000	6.106811	-0.022764	NaN	0.000000	0.001593	0.001719	28.081	0.040356	0.002075	19.4465	-148.021	-165.346	0.008538	0.104978	-0.930969	-0.932366	-0.022764	19.4465	-0.930091	-2.590728E+12	8.786582E-15	NaN
278	1.000000	0.114312	7.36777e+06	-52539.1	955.818	-29749.3	0.000000	0.000000	6.114749	-0.018864	NaN	0.000000	0.001635	0.001705	28.0806	0.081471	0.002046	39.8226	157.006	-163.826	0.039243	0.113041	-0.923031	-0.924303	-0.018864	39.8226	-0.922676	-2.057487E+12	9.168630E-15	NaN
278	1.000000	0.122362	7.36777e+06	-52539.1	955.819	-29749.3	0.000000	0.000000	6.122800	0.020617	NaN	0.000000	0.001590	0.001754	28.0809	0.057838	0.001953	29.6096	25.7452	-166.843	-0.022631	0.121048	-0.914982	-0.916295	0.020617	29.6096	-0.915504	-1.646253E+12	-1.252353E-14	NaN
278	1.000000	0.130313	7.36777e+06	-52539.1	955.819	-29749.3	0.000000	0.000000	6.130749	-0.045478	NaN	0.000000	0.001575	0.001735	28.081	0.057310	0.001859	30.8259	36.6674	-165.554	-0.074220	0.128986	-0.907030	-0.908357	-0.045478	30.8259	-0.905924	-1.222083E+12	3.721326E-14	NaN
278	1.000000	0.138337	7.36777e+06	-52539.1	955.817	-29749.3	0.000000	0.000000	6.138774	-0.011669	NaN	0.000000	0.001585	0.001761	28.0809	0.055126	0.002000	27.5607	-146.261	-166.613	-0.067452	0.137045	-0.899006	-0.900298	-0.011669	27.5607	-0.898688	-9.757600E+11	1.195919E-14	NaN
278	1.000000	0.146354	7.36777e+06	-52539.1	955.818	-29749.3	0.000000	0.000000	6.146793	0.052537	NaN	0.000000	0.001602	0.001756	28.0803	0.090252	0.001895	47.6367	-170.454	-162.237	-0.009318	0.145057	-0.890990	-0.892286	0.052537	47.6367	-0.891817	-7.879096E+11	-6.667918E-14	NaN
278	1.000000	0.154387	7.36777e+06	-52539.1	955.819	-29749.3	0.000000	0.000000	6.154824	-0.008056	NaN	0.000000	0.001602	0.001777	28.0797	0.088977	0.002069	43.0065	95.0554	-165.328	-0.007239	0.153065	-0.882956	-0.884279	-0.008056	43.0065	-0.882816	-5.953687E+11	1.353181E-14	NaN
278	1.000000	0.162377	7.36777e+06	-52539.1	955.818	-29749.3	0.000000	0.000000	6.162812	-0.058425	NaN	0.000000	0.001580	0.001786	28.0796	0.132140	0.001972	67.0148	163.331	-164.54	-0.119923	0.161048	-0.874967	-0.876295	-0.058425	67.0148	-0.874313	-4.568649E+11	1.278832E-13	NaN
278	1.000000	0.170341	7.36777e+06	-52539.1	955.818	-29749.3	0.000000	0.000000	6.170773	-0.140805	NaN	0.000000	0.001612	0.001774	28.0796	0.093311	0.001896	49.2233	102.474	-166.638	-0.025976	0.169073	-0.867002	-0.868270	-0.140805	49.2233	-0.864857	-3.402903E+11	4.137787E-13	NaN
278	1.000000	0.178361	7.36777e+06	-52539.1	955.817	-29749.3	0.000000	0.000000	6.178798	-0.007966	NaN	0.000000	0.001587	0.001756	28.0796	0.102281	0.001939	52.737	33.0099	-163.72	0.032022	0.177011	-0.858982	-0.860332	-0.007966	52.737	-0.858869	-2.823632E+11	2.821097E-14	NaN
278	1.000000	0.186360	7.36777e+06	-52539.1	955.819	-29749.3	0.000000	0.000000	6.186794	-0.077175	NaN	0.000000	0.001568	0.001740	28.0797	0.091812	0.001975	46.4864	34.0475	-167.055	-0.054313	0.185041	-0.850984	-0.852303	-0.077175	46.4864	-0.849739	-2.124224E+11	3.633070E-13	NaN
278	1.000000	0.194383	7.36777e+06	-52539.1	955.818	-29749.3	0.000000	0.000000	6.194818	-0.062713	NaN	0.000000	0.001599	0.001730	28.0797	0.151025	0.001955	77.2493	-73.4331	-167.95	-0.083024	0.192996	-0.842960	-0.844348	-0.062713	77.2493	-0.842351	-1.687110E+11	3.717189E-13	NaN
278	1.000000	0.202362	7.36777e+06	-52539.1	955.819	-29749.3	0.000000	0.000000	6.202800	0.011828	NaN	0.000000	0.001599	0.001745	28.0797	0.078536	0.002012	39.0318	-170.492	-165.306	0.016483	0.201059	-0.834981	-0.836285	0.011828	39.0318	-0.835209	-1.350130E+11	-8.760672E-14	NaN
278	1.000000	0.210390	7.36777e+06	-52539.1	955.818	-29749.3	0.000000	0.000000	6.210828	0.001693	NaN	0.000000	0.001591	0.001767	28.0796	0.028159	0.002091	13.4639	80.0765	-163.113	-0.056192	0.209044	-0.826953	-0.828299	0.001693	13.4639	-0.827048	-1.046559E+11	-1.617360E-14	NaN
278	1.000000	0.218379	7.36777e+06	-52539.1	955.819	-29749.3	0.000000	0.000000	6.218811	-0.132606	NaN	0.000000	0.001575	0.001739	28.0797	0.074867	0.001969	38.015	-58.5476	-165.932	-0.149177	0.217132	-0.818965	-0.820212	-0.132606	38.015	-0.816348	-7.493583E+10	1.769600E-12	NaN
278	1.000000	0.226391	7.36777e+06	-52539.1	955.817	-29749.3	0.000000	0.000000	6.226827	-0.030070	NaN	0.000000	0.001613	0.001729	28.0798	0.067550	0.001952	34.6041	64.9305	-167.376	-0.016313	0.225076	-0.810953	-0.812267	-0.030070	34.6041	-0.810301	-6.203758E+10	4.847082E-13	NaN
278	1.000000	0.234371	7.36777e+06	-52539.1	955.818	-29749.3	0.000000	0.000000	6.234803	-0.143007	NaN	0.000000	0.001595	0.001706	28.0798	0.073767	0.001948	37.876	-6.516647	-169.589	-0.099300	0.233061	-0.802972	-0.804282	-0.143007	37.876	-0.800140	-4.516121E+10	3.166591E-12	NaN
278	1.000000	0.242383	7.36777e+06	-52539.1	955.819	-29749.3	0.000000	0.000000	6.242817	-0.098217	NaN	0.000000	0.001601	0.001708	28.0798	0.108945	0.002071	52.5949	-89.3174	-167.166	-0.125640	0.241084	-0.794960	-0.796260	-0.098217	52.5949	-0.793560	-3.676410E+10	2.671559E-12	NaN
278	1.000000	0.250402	7.36777e+06	-52539.1	955.818	-29749.3	0.000000	0.000000	6.250839	0.000984	NaN	0.000000	0.001564	0.001708	28.0797	0.029052	0.002021	14.3741	-138.283	-165.22	-0.014845	0.249039	-0.786942	-0.788304	0.000984	14.3741	-0.786993	-2.993916E+10	-3.286794E-14	NaN
278	1.000000	0.258398	7.36777e+06	-52539.1	955.818	-29749.3	0.000000	0.000000	6.258834	-0.023721	NaN	0.000000	0.001568	0.001735	28.0795	0.112263	0.001915	58.6221	172.358	-164.698	-0.081516	0.257101	-0.778945	-0.780243	-0.023721	58.6221	-0.778642	-2.305567E+10	1.028839E-12	NaN
278	1.000000	0.266384	7.36777e+06	-52539.1	955.818	-29749.3	0.000000	0.000000	6.266815	-0.144166	NaN	0.000000	0.001582	0.001721	28.0793	0.058933	0.002126	27.7148	-161.066	-166.644	-0.146629	0.265114	-0.770960	-0.772229	-0.144166	27.7148	-0.767059	-1.604385E+10	8.985767E-12	NaN
278	1.000000	0.274425	7.36777e+06	-52539.1	955.817	-29749.3	0.000000	0.000000	6.274861	-0.045357	NaN	0.000000	0.001608	0.001719	28.0795	0.039257	0.002071	18.9579	-1.651756	-167.25	-0.021915	0.273059	-0.762918	-0.764284	-0.045357	18.9579	-0.761124	-1.332273E+10	3.404468E-12	NaN
278	1.000000	0.282415	7.36777e+06	-52539.1	955.818	-29749.3	0.000000	0.000000	6.282851	-0.015655	NaN	0.000000	0.001572	0.001705	28.0799	0.045477	0.001861	24.4324	-3.632514	-164.314	-0.044852	0.281070	-0.754929	-0.756273	-0.015655	24.4324	-0.754448	-1.080844E+10	1.448372E-12	NaN
278	1.000000	0.290421	7.36777e+06	-52539.1	955.818	-29749.3	0.000000	0.000000	6.290857	-0.041655	NaN	0.000000	0.001582	0.001696	28.0808	0.095947	0.001932	49.6646	136.236	-167.581	0.026764	0.289145	-0.746922	-0.748199	-0.041655	49.6646	-0.746293	-8.370593E+9	4.976334E-12	NaN
278	1.000000	0.298420	7.36777e+06	-52539.1	955.817	-29749.3	0.000000	0.000000	6.298856	-0.039659	NaN	0.000000	0.001566	0.001694	28.0807	0.073826	0.002046	36.0834	-24.5795	-164.648	-0.003358	0.297089	-0.738923	-0.740255	-0.039659	36.0834	-0.738099	-6.473790E+9	6.126082E-12	NaN
278	1.000000	0.306412	7.36778e+06	-52539.1	955.817	-29749.3	0.000000	0.000000	6.306850	0.022324	NaN	0.000000	0.001574	0.001670	28.0806	0.023322	0.001989	11.7236	84.3217	-165.503	-0.018426	0.305151	-0.730931	-0.732192	0.022324	11.7236	-0.732360	-5.407106E+9	-4.128693E-12	NaN
278	1.000000	0.314414	7.36778e+06	-52539.1	955.818	-29749.3	0.000000	0.000000	6.314852	0.017500	NaN	0.000000	0.001586	0.001644	28.0809	0.023847	0.001966	12.1314	106.031	-162.536	0.003739	0.313088	-0.722930	-0.724256	0.017500	12.1314	-0.724011	-4.160772E+9	-4.205954E-12	NaN
278	1.000000	0.322419	7.36778e+06	-52539.1	955.818	-29749.3	0.000000	0.000000	6.322856	-0.015894	NaN	0.000000	0.001580	0.001697	28.0812	0.026956	0.002142	12.5849	-156.386	-165.813	-0.047343	0.321164	-0.714924	-0.716179	-0.015894	12.5849	-0.713977	-3.036072E+9	5.235190E-12	NaN
278	1.000000	0.330435	7.36778e+06	-52539.1	955.819	-29749.3	0.000000	0.000000	6.330871	-0.044738	NaN	0.000000	0.001561	0.001660	28.0808	0.037211	0.002066	18.0112	148.154	-165.579	-0.074196	0.329141	-0.706908	-0.708202	-0.044738	18.0112	-0.705045	-2.293071E+9	1.951006E-11	NaN
278	1.000000	0.338457	7.36778e+06	-52539.1	955.819	-29749.3	0.000000	0.000000	6.338893	-0.022926	NaN	0.000000	0.001556	0.001666	28.081	0.108831	0.002047	53.1707	148.006	-167.47	0.070884	0.337133	-0.698887	-0.700210	-0.022926	53.1707	-0.698563	-1.870297E+9	1.225794E-11	NaN
278	1.000000	0.346419	7.36778e+06	-52539.1	955.818	-29749.3	0.000000	0.000000	6.346858	0.035390	NaN	0.000000	0.001562	0.001692	28.0802	0.029812	0.002001	14.8977	141.166	-166.009	0.007223	0.345118	-0.690925	-0.692225	0.035390	14.8977	-0.692706	-1.555606E+9	-2.274997E-11	NaN
278	1.000000	0.354435	7.36778e+06	-52539.1	955.819	-29749.3	0.000000	0.000000	6.354872	-0.012970	NaN	0.000000	0.001557	0.001728	28.0807	0.035726	0.001922	18.5834	165.275	-164.993	0.022998	0.353209	-0.682908	-0.684135	-0.012970	18.5834	-0.682385	-1.124138E+9	1.153800E-11	NaN
278	1.000000	0.362443	7.36778e+06	-52539.1	955.819	-29749.3	0.000000	0.000000	6.362880	-0.015927	NaN	0.000000	0.001601	0.001722	28.0806	0.096199	0.002022	47.568	96.4544	-166.293	-0.013269	0.361140	-0.674901	-0.676203	-0.015927	47.568	-0.674649	-8.810804E+8	1.807694E-11	NaN
278	1.000000	0.370453	7.36778e+06	-52539.1	955.818	-29749.3	0.000000	0.000000	6.370889	-0.049248	NaN	0.000000	0.001614	0.001719	28.0807	0.082098	0.001977	41.5222	-84.869	-166.678	-0.071759	0.369120	-0.666890	-0.668224	-0.049248	41.5222	-0.666001	-6.708776E+8	7.340897E-11	NaN
278	1.000000	0.378413	7.36778e+06	-52539.1	955.818	-29749.3	0.000000	0.000000	6.378850	-0.013152	NaN	0.000000	0.001550	0.001691	28.081	0.054030	0.001965	27.4897	-127.894	-168.233	0.002500	0.377120	-0.658930	-0.660223	-0.013152	27.4897	-0.658571	-5.307616E+8	2.477922E-11	NaN
278	1.000000	0.386432	7.36778e+06	-52539.1	955.819	-29749.3	0.000000	0.000000	6.386867	-0.049566	NaN	0.000000	0.001556	0.001698	28.0806	0.067592	0.002002	33.7634	59.0346	-163.936	-0.048057	0.385141	-0.650912	-0.652202	-0.049566	33.7634	-0.649811	-4.025682E+8	1.231242E-10	NaN
278	1.000000	0.394461	7.36778e+06	-52539.1	955.818	-29749.3	0.000000	0.000000	6.394896	-0.035602	NaN	0.000000	0.001570	0.001692	28.0808	0.058392	0.001870	31.2182	-173.572	-166.844	-0.098698	0.393168	-0.642883	-0.644176	-0.035602	31.2182	-0.642028	-3.148517E+8	1.130758E-10	NaN
278	1.000000	0.402491	7.36778e+06	-52539.1	955.819	-29749.3	0.000000	0.000000	6.402925	-0.087180	NaN	0.000000	0.001551	0.001710	28.0806	0.088407	0.002107	41.9564	-137.407	-167.707	-0.144732	0.401183	-0.634853	-0.636160	-0.087180	41.9564	-0.633294	-2.389212E+8	3.648892E-10	NaN
278	1.000000	0.410474	7.36778e+06	-52539.1	955.817	-29749.3	0.000000	0.000000	6.410907	-0.105409	NaN	0.000000	0.001572	0.001663	28.0809	0.094025	0.001952	48.1655	143.269	-165.069	-0.150886	0.409148	-0.626869	-0.628196	-0.105409	48.1655	-0.625228	-1.851293E+8	5.693802E-10	NaN
278	1.000000	0.418448	7.36778e+06	-52539.1	955.817	-29749.3	0.000000	0.000000	6.418884	-0.042903	NaN	0.000000	0.001555	0.001660	28.0807	0.069948	0.001971	35.4884	111.342	-169.077	-0.032979	0.417152	-0.618895	-0.620192	-0.042903	35.4884	-0.617988	-1.472246E+8	2.914144E-10	NaN
278	1.000000	0.426469	7.36778e+06	-52539.1	955.818	-29749.3	0.000000	0.000000	6.426906	-0.007451	NaN	0.000000	0.001573	0.001630	28.0795	0.117960	0.002007	58.7698	62.0827	-165.794	-0.044660	0.425175	-0.610875	-0.612168	-0.007451	58.7698	-0.610780	-1.171763E+8	6.358944E-11	NaN
278	1.000000	0.434444	7.36778e+06	-52539.1	955.818	-29749.3	0.000000	0.000000	6.434878	-0.082932	NaN	0.000000	0.001525	0.001717	28.0798	0.107469	0.001964	54.7177	65.4141	-166.002	-0.007359	0.433136	-0.602899	-0.604207	-0.082932	54.7177	-0.601762	-8.805020E+7	9.418763E-10	NaN
278	1.000000	0.442495	7.36778e+06	-52539.1	955.818	-29749.3	0.000000	0.000000	6.442928	-0.111625	NaN	0.000000	0.001580	0.001712	28.0795	0.127206	0.001931	65.8801	-174.492	-163.174	-0.029147	0.441147	-0.594849	-0.596197	-0.111625	65.8801	-0.593578	-6.791778E+7	1.643530E-9	NaN
278	1.000000	0.450469	7.36778e+06	-52539.1	955.819	-29749.3	0.000000	0.000000	6.450908	0.025596	NaN	0.000000	0.001551	0.001705	28.0795	0.116771	0.001990	58.6844	4.647551	-166.771	-0.016894	0.449222	-0.586874	-0.588121	0.025596	58.6844	-0.587201	-5.547184E+7	-4.614256E-10	NaN
278	1.000000	0.458479	7.36778e+06	-52539.1	955.819	-29749.3	0.000000	0.000000	6.458914	-0.070502	NaN	0.000000	0.001526	0.001703	28.0796	0.018973	0.001966	9.649263	-132.559	-170.819	-0.015537	0.457167	-0.578864	-0.580177	-0.070502	9.649263	-0.573384	-3.575900E+7	1.971590E-9	NaN
278	1.000000	0.466481	7.36778e+06	-52539.1	955.818	-29749.3	0.000000	0.000000	6.466917	-0.047786	NaN	0.000000	0.001553	0.001677	28.0795	0.060536	0.002017	30.011	102.584	-166.79	-0.072223	0.465177	-0.570862	-0.572166	-0.047786	30.011	-0.569668	-3.177195E+7	1.504039E-9	NaN
278	1.000000	0.474493	7.36778e+06	-52539.1	955.818	-29749.3	0.000000	0.000000	6.474929	-0.046750	NaN	0.000000	0.001573	0.001674	28.0798	0.028563	0.002065	13.8313	-145.621	-166.582	-0.022167	0.473196	-0.562850	-0.564148	-0.046750	13.8313	-0.560315	-2.359034E+7	1.981755E-9	NaN
278	1.000000	0.482500	7.36778e+06	-52539.1	955.817	-29749.3	0.000000	0.000000	6.482939	0.036696	NaN	0.000000	0.001555	0.001689	28.0795	0.087203	0.002075	42.0192	-63.1907	-165.438	0.049173	0.481219	-0.554843	-0.556125	0.036696	42.0192	-0.555498	-2.023418E+7	-1.813546E-9	NaN
278	1.000000	0.490470	7.36778e+06	-52539.1	955.818	-29749.3	0.000000	0.000000	6.490904	-0.082671	NaN	0.000000	0.001523	0.001705	28.0793	0.087891	0.002049	42.8852	21.6985	-166.366	-0.035240	0.489179	-0.546874	-0.548165	-0.082671	42.8852	-0.545428	-1.467611E+7	5.633001E-9	NaN
278	1.000000	0.498510	7.36778e+06	-52539.1	955.818	-29749.3	0.000000	0.000000	6.498945	-0.054843	NaN	0.000000	0.001538	0.001704	28.0794	0.078260	0.001988	39.3739	-112.209	-163.678	-0.056939	0.497169	-0.538834	-0.540174	-0.054843	39.3739	-0.537789	-1.149986E+7	4.769011E-9	NaN
278	1.000000	0.506497	7.36778e+06	-52539.1	955.818	-29749.3	0.000000	0.000000	6.506931	-0.078028	NaN	0.000000	0.001561	0.001693	28.0795	0.057719	0.002008	28.7449	-112.601	-163.734	-0.122199	0.505235	-0.530846	-0.532108	-0.078028	28.7449	-0.528811	-8.63087e+06	9.040618E-9	NaN
278	1.000000	0.514481	7.36778e+06	-52539.1	955.817	-29749.3	0.000000	0.000000	6.514918	-0.009920	NaN	0.000000	0.001527	0.001674	28.0799	0.111778	0.002128	52.5164	-21.4135	-163.223	-0.040209	0.513232	-0.522862	-0.524111	-0.009920	52.5164	-0.522720	-7.10273e+06	1.396677E-9	NaN
278	1.000000	0.522542	7.36778e+06	-52539.1	955.819	-29749.3	0.000000	0.000000	6.522979	-0.004923	NaN	0.000000	0.001549	0.001664	28.0795	0.047539	0.001935	24.5637	86.2604	-163.857	-0.028993	0.521185	-0.514801	-0.516158	-0.004923	24.5637	-0.514651	-5.48498e+06	8.975733E-10	NaN
278	1.000000	0.530511	7.36778e+06	-52539.1	955.817	-29749.3	0.000000	0.000000	6.530947	-0.049228	NaN	0.000000	0.001581	0.001685	28.0796	0.076413	0.001898	40.2566	13.4432	-166.543	-0.013073	0.529229	-0.506832	-0.508114	-0.049228	40.2566	-0.505915	-4.14473e+06	1.187718E-8	NaN
278	1.000000	0.538521	7.36778e+06	-52539.1	955.818	-29749.3	0.000000	0.000000	6.538957	-0.043246	NaN	0.000000	0.001615	0.001668	28.0793	0.017537	0.002071	8.468705	-95.7537	-167.939	-0.027679	0.537186	-0.498822	-0.500157	-0.043246	8.468705	-0.494992	-2.91826e+06	1.481899E-8	NaN
278	1.000000	0.546513	7.36778e+06	-52539.1	955.818	-29749.3	0.000000	0.000000	6.546950	-0.009636	NaN	0.000000	0.001589	0.001692	28.0793	0.028242	0.002103	13.4307	-64.4924	-165.289	0.052888	0.545221	-0.490830	-0.492123	-0.009636	13.4307	-0.490292	-2.50886e+06	3.840971E-9	NaN
278	1.000000	0.554518	7.36778e+06	-52539.1	955.819	-29749.3	0.000000	0.000000	6.554953	-0.063107	NaN	0.000000	0.001569	0.001692	28.0795	0.079842	0.001949	40.9682	-99.4645	-165.011	-0.091863	0.553305	-0.482825	-0.484039	-0.063107	40.9682	-0.481670	-1.90066e+06	3.320281E-8	NaN
278	1.000000	0.562545	7.36778e+06	-52539.1	955.819	-29749.3	0.000000	0.000000	6.562984	0.030621	NaN	0.000000	0.001531	0.001716	28.0806	0.181191	0.002090	86.7089	-164.222	-166.302	0.055337	0.561220	-0.474799	-0.476123	0.030621	86.7089	-0.475063	-1.53599e+06	-1.993593E-8	NaN
278	1.000000	0.570533	7.36778e+06	-52539.1	955.818	-29749.3	0.000000	0.000000	6.570968	-0.054190	NaN	0.000000	0.001554	0.001689	28.0806	0.078372	0.001997	39.2389	-28.5755	-163.573	-0.083161	0.569258	-0.466810	-0.468085	-0.054190	39.2389	-0.465775	-1.13795e+06	4.762089E-8	NaN
278	1.000000	0.578550	7.36778e+06	-52539.1	955.818	-29749.3	0.000000	0.000000	6.578985	-0.041075	NaN	0.000000	0.001516	0.001683	28.0802	0.100657	0.001960	51.3618	-33.6728	-164.662	-0.002491	0.577193	-0.458794	-0.460151	-0.041075	51.3618	-0.458194	-890500	4.612568E-8	NaN
278	1.000000	0.586533	7.36778e+06	-52539.1	955.818	-29749.3	0.000000	0.000000	6.586970	-0.023621	NaN	0.000000	0.001527	0.001690	28.0805	0.033296	0.001983	16.7876	112.805	-162.514	0.007676	0.585234	-0.450810	-0.452109	-0.023621	16.7876	-0.449755	-677470	3.486622E-8	NaN
278	1.000000	0.594513	7.36778e+06	-52539.1	955.817	-29749.3	0.000000	0.000000	6.594951	0.002620	NaN	0.000000	0.001548	0.001695	28.0808	0.074318	0.002108	35.2561	46.3908	-161.324	-0.031114	0.593193	-0.442830	-0.444151	0.002620	35.2561	-0.442886	-542103	-4.832896E-9	NaN
278	1.000000	0.602578	7.36778e+06	-52539.1	955.819	-29749.3	0.000000	0.000000	6.603016	0.019180	NaN	0.000000	0.001564	0.001692	28.0806	0.081702	0.002061	39.6423	-117.361	-162.747	0.124985	0.601231	-0.434766	-0.436112	0.019180	39.6423	-0.435128	-421279	-4.552893E-8	NaN
278	1.000000	0.610547	7.36778e+06	-52539.1	955.817	-29749.3	0.000000	0.000000	6.610984	0.001485	NaN	0.000000	0.001551	0.001694	28.0809	0.041936	0.001971	21.272	55.3971	-166.617	-0.012914	0.609272	-0.426797	-0.428072	0.001485	21.272	-0.426849	-321712	-4.616446E-9	NaN
278	1.000000	0.618553	7.36778e+06	-52539.1	955.818	-29749.3	0.000000	0.000000	6.618987	-0.090313	NaN	0.000000	0.001544	0.001724	28.0806	0.083574	0.001875	44.563	-14.2034	-165.442	-0.107665	0.617213	-0.418790	-0.420130	-0.090313	44.563	-0.417270	-235335	3.837648E-7	NaN
278	1.000000	0.626545	7.36778e+06	-52539.1	955.819	-29749.3	0.000000	0.000000	6.626981	-0.031431	NaN	0.000000	0.001578	0.001740	28.0811	0.042632	0.001957	21.7877	25.7474	-168.208	-0.097900	0.625232	-0.410799	-0.412112	-0.031431	21.7877	-0.409717	-183812	1.709979E-7	NaN
278	1.000000	0.634560	7.36778e+06	-52539.1	955.818	-29749.3	0.000000	0.000000	6.634998	0.016578	NaN	0.000000	0.001554	0.001700	28.0811	0.134232	0.002064	65.0457	63.7145	-166.134	-0.008479	0.633237	-0.402783	-0.404106	0.016578	65.0457	-0.402975	-147366	-1.124983E-7	NaN
278	1.000000	0.642569	7.36778e+06	-52539.1	955.819	-29749.3	0.000000	0.000000	6.643005	-0.035487	NaN	0.000000	0.001517	0.001707	28.0809	0.096881	0.002039	47.5102	158.673	-165.973	0.020492	0.641279	-0.394774	-0.396064	-0.035487	47.5102	-0.394214	-110512	3.211142E-7	NaN
278	1.000000	0.650556	7.36778e+06	-52539.1	955.819	-29749.3	0.000000	0.000000	6.650991	-0.050678	NaN	0.000000	0.001611	0.001710	28.0812	0.047340	0.001939	24.4113	0.535440	-165.199	-0.074502	0.649245	-0.386788	-0.388099	-0.050678	24.4113	-0.385231	-82203.3	6.164899E-7	NaN
278	1.000000	0.658561	7.36778e+06	-52539.1	955.817	-29749.3	0.000000	0.000000	6.658995	-0.064611	NaN	0.000000	0.001571	0.001700	28.081	0.139144	0.002047	67.9896	-137.005	-161.956	-0.078439	0.657318	-0.378783	-0.380025	-0.064611	67.9896	-0.378070	-64890.9	9.956870E-7	NaN
278	1.000000	0.666571	7.36778e+06	-52539.1	955.819	-29749.3	0.000000	0.000000	6.667006	-0.047406	NaN	0.000000	0.001552	0.001709	28.0814	0.044842	0.002044	21.9362	172.843	-166.335	-0.082199	0.665254	-0.370773	-0.372090	-0.047406	21.9362	-0.369152	-48295.8	9.815676E-7	NaN
278	1.000000	0.674607	7.36778e+06	-52539.1	955.818	-29749.3	0.000000	0.000000	6.675044	-0.026757	NaN	0.000000	0.001576	0.001705	28.0812	0.086078	0.001982	43.4282	-61.8636	-165.264	0.003767	0.673299	-0.362736	-0.364044	-0.026757	43.4282	-0.362274	-38433	6.961933E-7	NaN
278	1.000000	0.682574	7.36778e+06	-52539.1	955.818	-29749.3	0.000000	0.000000	6.683009	-0.059856	NaN	0.000000	0.001614	0.001709	28.0812	0.061354	0.001983	30.9396	-97.5657	-168.646	-0.058390	0.681303	-0.354770	-0.356040	-0.059856	30.9396	-0.353319	-28519.2	2.098798E-6	NaN
278	1.000000	0.690574	7.36778e+06	-52539.1	955.818	-29749.3	0.000000	0.000000	6.691009	-0.052778	NaN	0.000000	0.001589	0.001681	28.0812	0.060289	0.001927	31.2861	133.995	-167.281	0.036948	0.689274	-0.346770	-0.348070	-0.052778	31.2861	-0.345505	-21963.1	2.403015E-6	NaN
278	1.000000	0.698564	7.36778e+06	-52539.1	955.817	-29749.3	0.000000	0.000000	6.699000	-0.016725	NaN	0.000000	0.001608	0.001703	28.0798	0.092037	0.001914	48.0781	-80.2723	-165.293	-0.025871	0.697268	-0.338780	-0.340076	-0.016725	48.0781	-0.338519	-17376.3	9.625202E-7	NaN
278	1.000000	0.706611	7.36778e+06	-52539.1	955.819	-29749.3	0.000000	0.000000	6.707048	-0.008673	NaN	0.000000	0.001631	0.001713	28.0798	0.080691	0.001962	41.125	-106.246	-167.257	-0.051096	0.705269	-0.330732	-0.332074	-0.008673	41.125	-0.330574	-13300	6.520824E-7	NaN
278	1.000000	0.714580	7.36778e+06	-52539.1	955.819	-29749.3	0.000000	0.000000	6.715019	0.018757	NaN	0.000000	0.001644	0.001728	28.0798	0.044903	0.001976	22.7281	-43.5024	-167.87	0.018319	0.713291	-0.322763	-0.324053	0.018757	22.7281	-0.323382	-10432.1	-1.798012E-6	NaN
278	1.000000	0.722591	7.36778e+06	-52539.1	955.817	-29749.3	0.000000	0.000000	6.723027	-0.032423	NaN	0.000000	0.001531	0.001726	28.08	0.036117	0.002104	17.1668	-26.3628	-167.621	-0.051566	0.721318	-0.314753	-0.316025	-0.032423	17.1668	-0.313336	-7419.64	4.369929E-6	NaN
278	1.000000	0.730590	7.36778e+06	-52539.1	955.818	-29749.3	0.000000	0.000000	6.731025	-0.058207	NaN	0.000000	0.001531	0.001760	28.0798	0.084697	0.002226	38.0573	-96.4069	-166.695	-0.013867	0.729254	-0.306754	-0.308090	-0.058207	38.0573	-0.305607	-5701.08	1.020987E-5	NaN
278	1.000000	0.738598	7.36778e+06	-52539.1	955.819	-29749.3	0.000000	0.000000	6.739032	-0.079805	NaN	0.000000	0.001561	0.001751	28.0801	0.109534	0.001889	57.9714	172.16	-167.524	-0.035366	0.737277	-0.298746	-0.300067	-0.079805	57.9714	-0.297713	-4350.82	1.834262E-5	NaN
278	1.000000	0.746612	7.36778e+06	-52539.1	955.817	-29749.3	0.000000	0.000000	6.747048	-0.026250	NaN	0.000000	0.001560	0.001716	28.0803	0.052294	0.001968	26.5702	154.396	-164.741	-0.086100	0.745242	-0.290732	-0.292102	-0.026250	26.5702	-0.289991	-3335.51	7.869889E-6	NaN
278	1.000000	0.754608	7.36778e+06	-52539.1	955.818	-29749.3	0.000000	0.000000	6.755044	-0.013871	NaN	0.000000	0.001586	0.001746	28.08	0.051698	0.001999	25.8668	-52.3055	-165.97	0.100975	0.753275	-0.282736	-0.284069	-0.013871	25.8668	-0.282334	-2559.44	5.419539E-6	NaN
278	1.000000	0.762600	7.36778e+06	-52539.1	955.818	-29749.3	0.000000	0.000000	6.763036	-0.024729	NaN	0.000000	0.001550	0.001696	28.0801	0.120253	0.002076	57.9114	-172.804	-163.59	-0.053940	0.761315	-0.274743	-0.276029	-0.024729	57.9114	-0.274423	-1943.86	1.272157E-5	NaN
278	1.000000	0.770626	7.36778e+06	-52539.1	955.818	-29749.3	0.000000	0.000000	6.771063	-0.017096	NaN	0.000000	0.001546	0.001753	28.0799	0.054629	0.001968	27.7604	4.750528	-165.347	-0.092904	0.769286	-0.266718	-0.268058	-0.017096	27.7604	-0.266256	-1460.64	1.170457E-5	NaN
278	1.000000	0.778628	7.36778e+06	-52539.1	955.818	-29749.3	0.000000	0.000000	6.779067	0.030390	NaN	0.000000	0.001562	0.001703	28.0802	0.040666	0.002131	19.0842	6.354520	-168.805	-0.010596	0.777258	-0.258715	-0.260086	0.030390	19.0842	-0.259909	-1168.22	-2.601352E-5	NaN
278	1.000000	0.786598	7.36778e+06	-52539.1	955.819	-29749.3	0.000000	0.000000	6.787033	-0.058462	NaN	0.000000	0.001561	0.001731	28.0803	0.044440	0.001907	23.307	56.0601	-164.667	-0.101521	0.785308	-0.250745	-0.252035	-0.058462	23.307	-0.248864	-789.557	7.404361E-5	NaN
278	1.000000	0.794626	7.36778e+06	-52539.1	955.818	-29749.3	0.000000	0.000000	6.795058	-0.123018	NaN	0.000000	0.001568	0.001715	28.08	0.099086	0.001951	50.7745	34.0111	-166.506	-0.056869	0.793336	-0.242718	-0.244008	-0.123018	50.7745	-0.240900	-593.759	0.000207	NaN
278	1.000000	0.802633	7.36778e+06	-52539.1	955.818	-29749.3	0.000000	0.000000	6.803069	-0.051454	NaN	0.000000	0.001571	0.001717	28.0799	0.065935	0.001829	36.0537	27.6104	-165.148	-0.090448	0.801323	-0.234710	-0.236020	-0.051454	36.0537	-0.233640	-456.953	0.000113	NaN
278	1.000000	0.810615	7.36778e+06	-52539.1	955.818	-29749.3	0.000000	0.000000	6.811049	-0.086007	NaN	0.000000	0.001535	0.001690	28.08	0.044957	0.002046	21.9764	-104.611	-165.269	-0.053099	0.809360	-0.226728	-0.227984	-0.086007	21.9764	-0.223793	-319.267	0.000269	NaN
278	1.000000	0.818635	7.36778e+06	-52539.1	955.817	-29749.3	0.000000	0.000000	6.819070	-0.040117	NaN	0.000000	0.001566	0.001723	28.0803	0.051634	0.001961	26.3295	173.39	-166.064	0.005649	0.817326	-0.218709	-0.220017	-0.040117	26.3295	-0.217566	-253.932	0.000158	NaN
278	1.000000	0.826641	7.36778e+06	-52539.1	955.819	-29749.3	0.000000	0.000000	6.827078	-0.007861	NaN	0.000000	0.001543	0.001781	28.0801	0.059688	0.001972	30.267	114.735	-164.956	0.042992	0.825350	-0.210702	-0.211993	-0.007861	30.267	-0.210507	-195.448	4.022079E-5	NaN
278	1.000000	0.834637	7.36778e+06	-52539.1	955.818	-29749.3	0.000000	0.000000	6.835071	-0.079744	NaN	0.000000	0.001544	0.001749	28.0811	0.029471	0.001998	14.751	130.249	-170.075	-0.101686	0.833363	-0.202707	-0.203980	-0.079744	14.751	-0.198652	-125.177	0.000637	NaN
278	1.000000	0.842651	7.36778e+06	-52539.1	955.818	-29749.3	0.000000	0.000000	6.843089	-0.002968	NaN	0.000000	0.001561	0.001691	28.0815	0.112438	0.001956	57.4926	102.395	-163.74	0.016788	0.841364	-0.194692	-0.195980	-0.002968	57.4926	-0.194653	-107.512	2.760922E-5	NaN
278	1.000000	0.850646	7.36778e+06	-52539.1	955.819	-29749.3	0.000000	0.000000	6.851084	0.011640	NaN	0.000000	0.001580	0.001729	28.0814	0.064478	0.001963	32.8538	88.8422	-164.558	0.026055	0.849322	-0.186698	-0.188021	0.011640	32.8538	-0.186963	-80.0142	-0.000145	NaN
278	1.000000	0.858646	7.36778e+06	-52539.1	955.819	-29749.3	0.000000	0.000000	6.859081	-0.051529	NaN	0.000000	0.001601	0.001717	28.0813	0.093391	0.001865	50.078	13.5702	-167.429	-0.152419	0.857361	-0.178698	-0.179982	-0.051529	50.078	-0.177926	-56.2487	0.000916	NaN
278	1.000000	0.866663	7.36778e+06	-52539.1	955.819	-29749.3	0.000000	0.000000	6.867097	-0.087035	NaN	0.000000	0.001556	0.001727	28.0812	0.067460	0.002069	32.5996	68.8451	-163.832	-0.058983	0.865338	-0.170680	-0.172006	-0.087035	32.5996	-0.168678	-38.9603	0.002234	NaN
278	1.000000	0.874671	7.36778e+06	-52539.1	955.818	-29749.3	0.000000	0.000000	6.875105	-0.079154	NaN	0.000000	0.001557	0.001737	28.0812	0.075169	0.002019	37.2326	-114.316	-168.488	-0.058640	0.873321	-0.162673	-0.164022	-0.079154	37.2326	-0.161078	-28.65	0.002763	NaN
278	1.000000	0.882666	7.36778e+06	-52539.1	955.817	-29749.3	0.000000	0.000000	6.883102	-0.022535	NaN	0.000000	0.001582	0.001743	28.0814	0.032469	0.002059	15.7724	-44.9451	-168.785	0.042567	0.881406	-0.154677	-0.155937	-0.022535	15.7724	-0.153606	-21.0594	0.001070	NaN
278	1.000000	0.890658	7.36778e+06	-52539.1	955.817	-29749.3	0.000000	0.000000	6.891094	-0.027880	NaN	0.000000	0.001567	0.001726	28.0812	0.082043	0.001941	42.2601	-156.744	-165.573	-0.065798	0.889414	-0.146686	-0.147930	-0.027880	42.2601	-0.146191	-15.4227	0.001808	NaN
278	1.000000	0.898658	7.36778e+06	-52539.1	955.818	-29749.3	0.000000	0.000000	6.899096	-0.002874	NaN	0.000000	0.001564	0.001697	28.0814	0.090081	0.002033	44.3162	-121.924	-168.005	-0.011575	0.897393	-0.138685	-0.139951	-0.002874	44.3162	-0.138636	-11.1506	0.000258	NaN
278	1.000000	0.906631	7.36778e+06	-52539.1	955.818	-29749.3	0.000000	0.000000	6.907070	0.054830	NaN	0.000000	0.001584	0.001711	28.0813	0.043509	0.002001	21.7413	-66.4383	-166.587	-0.041105	0.905349	-0.130713	-0.131995	0.054830	21.7413	-0.132604	-8.557789	-0.006407	NaN
278	1.000000	0.914676	7.36778e+06	-52539.1	955.818	-29749.3	0.000000	0.000000	6.915115	0.047496	NaN	0.000000	0.001538	0.001741	28.0812	0.026260	0.002033	12.9162	-71.9659	-168.604	-0.040064	0.913338	-0.122668	-0.124005	0.047496	12.9162	-0.125426	-6.200242	-0.007660	NaN
278	1.000000	0.922645	7.36778e+06	-52539.1	955.818	-29749.3	0.000000	0.000000	6.923081	-0.033720	NaN	0.000000	0.001596	0.001742	28.0816	0.081155	0.001840	44.1145	49.088	-168.158	-0.020560	0.921369	-0.114699	-0.115975	-0.033720	44.1145	-0.114125	-3.664712	0.009201	NaN
278	1.000000	0.930650	7.36778e+06	-52539.1	955.819	-29749.3	0.000000	0.000000	6.931088	0.018381	NaN	0.000000	0.001607	0.001749	28.0814	0.021310	0.001904	11.1935	-90.2117	-168.407	0.011704	0.929368	-0.106693	-0.107975	0.018381	11.1935	-0.107925	-2.715828	-0.006768	NaN
278	1.000000	0.938686	7.36778e+06	-52539.1	955.817	-29749.3	0.000000	0.000000	6.939123	0.000630	NaN	0.000000	0.001596	0.001716	28.0814	0.049688	0.002084	23.8402	-176.307	-165.563	0.017927	0.937372	-0.098658	-0.099971	0.000630	23.8402	-0.098678	-1.707477	-0.000369	NaN
278	1.000000	0.946690	7.36778e+06	-52539.1	955.818	-29749.3	0.000000	0.000000	6.947123	-0.099157	NaN	0.000000	0.001566	0.001738	28.0813	0.064139	0.002054	31.2251	-165.262	-163.977	-0.112512	0.945374	-0.090654	-0.091969	-0.099157	31.2251	-0.088272	-0.984138	0.100755	NaN
278	1.000000	0.954697	7.36778e+06	-52539.1	955.818	-29749.3	0.000000	0.000000	6.955135	0.027360	NaN	0.000000	0.001568	0.001736	28.0814	0.045937	0.002170	21.1708	134.188	-166.328	-0.001496	0.953368	-0.082646	-0.083975	0.027360	21.1708	-0.083616	-0.760376	-0.035982	NaN
278	1.000000	0.962677	7.36778e+06	-52539.1	955.818	-29749.3	0.000000	0.000000	6.963113	-0.041743	NaN	0.000000	0.001565	0.001734	28.0816	0.078126	0.001987	39.317	132.929	-165.954	0.017046	0.961435	-0.074666	-0.075909	-0.041743	39.317	-0.073870	-0.431684	0.096699	NaN
278	1.000000	0.970683	7.36778e+06	-52539.1	955.819	-29749.3	0.000000	0.000000	6.971118	-0.050627	NaN	0.000000	0.001640	0.001758	28.0802	0.094248	0.002080	45.3079	-132.96	-167.257	-0.056236	0.969362	-0.066661	-0.067981	-0.050627	45.3079	-0.065823	-0.262621	0.192777	NaN
278	1.000000	0.978700	7.36778e+06	-52539.1	955.817	-29749.3	0.000000	0.000000	6.979137	-0.002725	NaN	0.000000	0.001660	0.001748	28.0803	0.053547	0.002079	25.7608	92.1835	-165.627	-0.046859	0.977407	-0.058643	-0.059936	-0.002725	25.7608	-0.058564	-0.163726	0.016641	NaN
278	1.000000	0.986684	7.36778e+06	-52539.1	955.819	-29749.3	0.000000	0.000000	6.987120	-0.026797	NaN	0.000000	0.001641	0.001736	28.08	0.046072	0.001939	23.7641	-126.082	-168.741	0.000993	0.985434	-0.050659	-0.051909	-0.026797	23.7641	-0.049814	-0.090073	0.297500	NaN
278	1.000000	0.994722	7.36778e+06	-52539.1	955.818	-29749.3	0.000000	0.000000	6.995159	-0.006881	NaN	0.000000	0.001637	0.001739	28.0804	0.046714	0.001930	24.2009	-28.4601	-167.819	-0.081400	0.993424	-0.042622	-0.043920	-0.006881	24.2009	-0.042408	-0.053548	0.128508	NaN
278	1.000000	1.002716	7.36778e+06	-52539.1	955.818	-29749.3	0.000000	0.000000	7.003150	-0.090626	NaN	0.000000	0.001601	0.001703	28.0803	0.017492	0.001941	9.013432	-113.222	-166.482	-0.019008	1.001410	-0.034627	-0.035933	-0.090626	9.013432	-0.027086	-0.019156	4.730841	NaN
278	1.000000	1.010733	7.36778e+06	-52539.1	955.817	-29749.3	0.000000	0.000000	7.011167	-0.073505	NaN	0.000000	0.001635	0.001691	28.0803	0.035609	0.002065	17.2406	-153.962	-166.884	-0.034312	1.009450	-0.026611	-0.027894	-0.073505	17.2406	-0.023413	-0.015347	4.789592	NaN
278	1.000000	1.018722	7.36778e+06	-52539.1	955.818	-29749.3	0.000000	0.000000	7.019159	-0.020528	NaN	0.000000	0.001591	0.001708	28.0803	0.027083	0.001990	13.6107	-176.343	-162.01	-0.040812	1.017434	-0.018621	-0.019909	-0.020528	13.6107	-0.017490	-0.010827	1.896075	NaN
278	1.000000	1.026718	7.36778e+06	-52539.1	955.818	-29749.3	0.000000	0.000000	7.027155	-0.012600	NaN	0.000000	0.001622	0.001726	28.0802	0.138460	0.002151	64.3691	58.1754	-165.358	-0.086671	1.025453	-0.010625	-0.011890	-0.012600	64.3691	-0.010478	-0.006661	1.891766	NaN
278	1.000000	1.034737	7.36778e+06	-52539.1	955.818	-29749.3	0.000000	0.000000	7.035173	-0.026363	NaN	0.000000	0.001604	0.001740	28.08	0.031062	0.001933	16.0691	-48.421	-168.857	-0.018504	1.033375	-0.002607	-0.003969	-0.026363	16.0691	-0.001376	-0.001002	26.3103	NaN
278	1.000000	1.042668	7.36778e+06	-52539.1	955.817	-29749.3	0.000000	0.000000	7.043272	4.054735	NaN	0.000000	0.001600	0.001754	28.0802	4.610530	0.001860	2479.35	7.904004	-166.069	2.466409	1.041400	0.005324	0.004056	4.054735	2479.35	0.004098	0.003325	1219.55	39285.2
278	2.000000	1.047431	7.36778e+06	-52539.1	955.817	-29749.3	0.000000	0.000000	7.048206	8.212196	NaN	0.000000	0.001648	0.001700	28.0802	8.744116	0.001641	5329.76	6.217901	-170.964	8.519221	1.047162	0.010087	0.009819	8.212196	5329.76	0.008931	0.008018	1024.22	54380.9
278	2.000000	1.049378	7.36778e+06	-52539.1	955.817	-29749.3	0.000000	0.000000	7.050297	11.7178	NaN	0.000000	0.001549	0.001709	28.0806	11.3934	0.001725	6603.53	2.379646	-169.919	11.0261	1.049078	0.012035	0.011735	11.7178	6603.53	0.010704	0.009974	1174.83	60410.6
278	2.000000	1.051411	7.36778e+06	-52539.1	955.818	-29749.3	0.000000	0.000000	7.052520	16.3153	NaN	0.000000	0.001573	0.001721	28.0804	13.9449	0.001682	8292.08	6.619379	-174.844	15.6295	1.051024	0.014068	0.013680	16.3153	8292.08	0.012592	0.012207	1336.55	68569.4
278	2.000000	1.053403	7.36778e+06	-52539.1	955.817	-29749.3	0.000000	0.000000	7.054568	17.6939	NaN	0.000000	0.001557	0.001734	28.0802	16.1567	0.001747	9250.42	5.207817	-176.197	17.4649	1.053082	0.016059	0.015739	17.6939	9250.42	0.014625	0.014788	1196.48	69498.5
278	2.000000	1.055328	7.36778e+06	-52539.1	955.818	-29749.3	0.000000	0.000000	7.056569	19.553	NaN	0.000000	0.001587	0.001727	28.0801	18.8079	0.001997	9417.57	11.9517	179.917	19.4298	1.055022	0.017984	0.017678	19.553	9417.57	0.016427	0.017236	1134.44	65538.4
278	2.000000	1.057350	7.36778e+06	-52539.1	955.818	-29749.3	0.000000	0.000000	7.058714	22.5171	NaN	0.000000	0.001535	0.001744	28.0803	20.0649	0.001739	11540.6	5.681607	-177.535	21.9727	1.056961	0.020007	0.019618	22.5171	11540.6	0.018544	0.020305	1108.94	73994.6
278	2.000000	1.059337	7.36778e+06	-52539.1	955.817	-29749.3	0.000000	0.000000	7.060870	26.6518	NaN	0.000000	0.001578	0.001716	28.0802	22.829	0.001887	12100.8	7.303237	-179.251	25.2843	1.059050	0.021993	0.021707	26.6518	12100.8	0.020342	0.023082	1154.67	72769.9
278	2.000000	1.061308	7.36778e+06	-52539.1	955.817	-29749.3	0.000000	0.000000	7.063113	33.2541	NaN	0.000000	0.001580	0.001706	28.0821	24.7674	0.001746	14183.3	3.707476	-178.149	31.5803	1.061000	0.023965	0.023657	33.2541	14183.3	0.022206	0.026129	1272.71	80166.4
278	2.000000	1.063323	7.36778e+06	-52539.1	955.817	-29749.3	0.000000	0.000000	7.065248	36.1524	NaN	0.000000	0.001592	0.001756	28.0814	26.6711	0.001791	14891.6	6.368727	178.951	35.2543	1.063091	0.025980	0.025747	36.1524	14891.6	0.024159	0.029504	1225.34	79208.9
278	2.000000	1.065338	7.36778e+06	-52539.1	955.818	-29749.3	0.000000	0.000000	7.067540	42.8969	NaN	0.000000	0.001571	0.001726	28.0811	28.9131	0.001785	16195.2	5.823337	179.811	42.6729	1.064966	0.027995	0.027623	42.8969	16195.2	0.026008	0.032875	1304.84	81606.7
278	2.000000	1.067287	7.36778e+06	-52539.1	955.818	-29749.3	0.000000	0.000000	7.069712	48.322	NaN	0.000000	0.001547	0.001738	28.0814	29.7622	0.001867	15945	3.524517	-177.586	47.3102	1.066977	0.029943	0.029633	48.322	15945	0.027670	0.036054	1340.28	76722.4
278	2.000000	1.069322	7.36778e+06	-52539.1	955.818	-29749.3	0.000000	0.000000	7.071993	54.3157	NaN	0.000000	0.001587	0.001718	28.0812	32.3878	0.001778	18215	9.079035	174.838	53.6061	1.068962	0.031979	0.031618	54.3157	18215	0.029742	0.040211	1350.76	82990.6
278	2.000000	1.071305	7.36778e+06	-52539.1	955.817	-29749.3	0.000000	0.000000	7.074173	59.1192	NaN	0.000000	0.001545	0.001734	28.0824	34.0448	0.001847	18434	5.208984	-179.655	56.9113	1.070958	0.033961	0.033614	59.1192	18434	0.031556	0.044030	1342.69	80263.2
278	2.000000	1.073296	7.36778e+06	-52539.1	955.817	-29749.3	0.000000	0.000000	7.076346	63.5331	NaN	0.000000	0.001565	0.001740	28.0813	35.7216	0.001723	20735.4	2.774493	-179.696	62.8359	1.072979	0.035953	0.035635	63.5331	20735.4	0.033655	0.048660	1305.66	85881.8
278	2.000000	1.075282	7.36778e+06	-52539.1	955.817	-29749.3	0.000000	0.000000	7.078766	74.0871	NaN	0.000000	0.001591	0.001688	28.0823	38.1425	0.001711	22288.2	3.539663	178.362	72.3176	1.074999	0.037938	0.037655	74.0871	22288.2	0.035445	0.052787	1403.5	88630.3
278	2.000000	1.077278	7.36778e+06	-52539.1	955.817	-29749.3	0.000000	0.000000	7.080968	79.0847	NaN	0.000000	0.001570	0.001725	28.0813	38.6957	0.001664	23253.9	5.647721	176.132	78.0988	1.076924	0.039935	0.039581	79.0847	23253.9	0.037384	0.057443	1376.76	88644.5
278	2.000000	1.079286	7.36778e+06	-52539.1	955.817	-29749.3	0.000000	0.000000	7.083261	86.0224	NaN	0.000000	0.001575	0.001735	28.0811	41.1141	0.001699	24198.7	3.347345	178.431	85.2177	1.078963	0.041942	0.041620	86.0224	24198.7	0.039276	0.062171	1383.64	88668.9
278	2.000000	1.081366	7.36778e+06	-52539.1	955.818	-29749.3	0.000000	0.000000	7.085644	93.4036	NaN	0.000000	0.001563	0.001740	28.0822	44.049	0.001748	25198.1	7.062942	174.711	95.8545	1.081005	0.044022	0.043662	93.4036	25198.1	0.041242	0.067278	1388.33	88757.4
278	2.000000	1.083259	7.36778e+06	-52539.1	955.817	-29749.3	0.000000	0.000000	7.088084	106.698	NaN	0.000000	0.001558	0.001757	28.0814	45.107	0.001761	25608.5	1.633042	179.742	102.675	1.082921	0.045915	0.045578	106.698	25608.5	0.042790	0.071439	1493.56	87537
278	2.000000	1.085272	7.36778e+06	-52539.1	955.817	-29749.3	0.000000	0.000000	7.090485	116.107	NaN	0.000000	0.001584	0.001714	28.0812	47.8306	0.001772	26998.9	3.936392	176.828	115.392	1.084919	0.047929	0.047576	116.107	26998.9	0.044703	0.076747	1512.85	89040.6
278	2.000000	1.087215	7.36778e+06	-52539.1	955.818	-29749.3	0.000000	0.000000	7.092693	122.537	NaN	0.000000	0.001558	0.001728	28.0814	49.8657	0.001833	27207.8	7.037943	173.51	119.186	1.086924	0.049872	0.049581	122.537	27207.8	0.046494	0.081886	1496.43	86868.4
278	2.000000	1.089272	7.36778e+06	-52539.1	955.817	-29749.3	0.000000	0.000000	7.094948	127.364	NaN	0.000000	0.001507	0.001736	28.0812	52.8449	0.001840	28713	4.485843	176.096	125.808	1.088957	0.051929	0.051613	127.364	28713	0.048602	0.088140	1445.02	88361.8
278	2.000000	1.091317	7.36778e+06	-52539.1	955.817	-29749.3	0.000000	0.000000	7.097267	134.034	NaN	0.000000	0.001567	0.001734	28.0815	54.9488	0.001776	30938.8	5.941514	173.753	136.242	1.091064	0.053974	0.053721	134.034	30938.8	0.050725	0.094666	1415.86	91871.3
278	2.000000	1.093254	7.36778e+06	-52539.1	955.818	-29749.3	0.000000	0.000000	7.099792	148.324	NaN	0.000000	0.001566	0.001709	28.0815	55.1519	0.001743	31636.3	2.255221	176.822	146.269	1.092966	0.055911	0.055622	148.324	31636.3	0.052395	0.099958	1483.86	91421.9
278	2.000000	1.095199	7.36778e+06	-52539.1	955.817	-29749.3	0.000000	0.000000	7.102136	158.02	NaN	0.000000	0.001560	0.001733	28.0802	58.8277	0.001892	31088.2	2.591865	177.092	152.843	1.094923	0.057856	0.057579	158.02	31088.2	0.054044	0.105320	1500.38	87521.1
278	2.000000	1.097279	7.36778e+06	-52539.1	955.817	-29749.3	0.000000	0.000000	7.104728	170.472	NaN	0.000000	0.001543	0.001741	28.0803	60.3907	0.001876	32190	7.966006	171.444	170.161	1.096862	0.059936	0.059518	170.472	32190	0.055964	0.111735	1525.68	87983.3
278	2.000000	1.099150	7.36778e+06	-52539.1	955.818	-29749.3	0.000000	0.000000	7.107038	181.172	NaN	0.000000	0.001514	0.001709	28.08	61.9486	0.001797	34481.8	3.610732	175.012	175.398	1.098876	0.061806	0.061533	181.172	34481.8	0.057865	0.118266	1531.91	91608
278	2.000000	1.101354	7.36778e+06	-52539.1	955.818	-29749.3	0.000000	0.000000	7.109712	192.583	NaN	0.000000	0.001573	0.001738	28.0801	64.1619	0.001809	35462.3	4.872559	175.178	195.804	1.100892	0.064011	0.063548	192.583	35462.3	0.059938	0.125585	1533.48	91426.3
278	2.000000	1.103222	7.36778e+06	-52539.1	955.818	-29749.3	0.000000	0.000000	7.111946	201.47	NaN	0.000000	0.001529	0.001740	28.0802	65.1804	0.001701	38312.7	0.092602	177.84	200.355	1.102952	0.065879	0.065609	201.47	38312.7	0.061935	0.132838	1516.66	96040.8
278	2.000000	1.105276	7.36778e+06	-52539.1	955.818	-29749.3	0.000000	0.000000	7.114523	214.195	NaN	0.000000	0.001587	0.001719	28.0803	69.0234	0.001811	38115.6	6.522459	171.974	213.316	1.104918	0.067933	0.067574	214.195	38115.6	0.063718	0.139477	1535.7	93244.6
278	2.000000	1.107248	7.36778e+06	-52539.1	955.817	-29749.3	0.000000	0.000000	7.116944	225.124	NaN	0.000000	0.001591	0.001713	28.0803	69.3285	0.001704	40696.9	2.198185	174.932	222.538	1.106901	0.069905	0.069557	225.124	40696.9	0.065756	0.147253	1528.82	96895.2
278	2.000000	1.109287	7.36778e+06	-52539.1	955.818	-29749.3	0.000000	0.000000	7.119412	235.544	NaN	0.000000	0.001551	0.001642	28.08	72.6032	0.001802	40285.8	3.139175	174.516	236.744	1.108961	0.071944	0.071618	235.544	40285.8	0.067559	0.154298	1526.55	93701
278	2.000000	1.111239	7.36778e+06	-52539.1	955.817	-29749.3	0.000000	0.000000	7.121960	250.031	NaN	0.000000	0.001555	0.001718	28.0802	75.5358	0.001939	38963.5	7.704773	170.382	246.602	1.110853	0.073895	0.073509	250.031	38963.5	0.069083	0.160376	1559.03	88891.8
278	2.000000	1.113206	7.36778e+06	-52539.1	955.818	-29749.3	0.000000	0.000000	7.124331	259.876	NaN	0.000000	0.001573	0.001680	28.0802	75.9024	0.001909	39766.2	3.490303	174.592	255.927	1.112959	0.075862	0.075615	259.876	39766.2	0.070961	0.168018	1546.71	88635.7
278	2.000000	1.115179	7.36778e+06	-52539.1	955.819	-29749.3	0.000000	0.000000	7.126885	273.99	NaN	0.000000	0.001557	0.001706	28.0804	78.8752	0.001840	42856.8	5.197487	172.19	269.265	1.114887	0.077836	0.077544	273.99	42856.8	0.073041	0.176678	1550.79	93154
278	2.000000	1.117242	7.36778e+06	-52539.1	955.818	-29749.3	0.000000	0.000000	7.128878	272.291	NaN	0.000000	0.001529	0.001694	28.0801	78.8166	0.001680	46905.8	1.871388	174.242	271.158	1.117110	0.079898	0.079766	272.291	46905.8	0.075545	0.187371	1453.22	99003.1
278	2.000000	1.119239	7.36778e+06	-52539.1	955.817	-29749.3	0.000000	0.000000	7.131833	295.59	NaN	0.000000	0.001519	0.001680	28.0798	82.9601	0.001816	45685.5	5.981127	170.758	294.699	1.119001	0.081895	0.081658	295.59	45685.5	0.077043	0.193911	1524.36	94787.4
278	2.000000	1.121298	7.36778e+06	-52539.1	955.818	-29749.3	0.000000	0.000000	7.134635	313.633	NaN	0.000000	0.001550	0.001662	28.08	84.3863	0.001754	48099.5	5.760445	170.917	313.584	1.120935	0.083955	0.083591	313.633	48099.5	0.079064	0.202902	1545.74	97559.8
278	2.000000	1.123253	7.36778e+06	-52539.1	955.817	-29749.3	0.000000	0.000000	7.136914	321.5	NaN	0.000000	0.001611	0.001691	28.0798	85.2116	0.001828	46625.9	1.403663	175.409	320.481	1.122970	0.085910	0.085627	321.5	46625.9	0.080739	0.210493	1527.36	92849.8
278	2.000000	1.125355	7.36778e+06	-52539.1	955.817	-29749.3	0.000000	0.000000	7.139531	334.052	NaN	0.000000	0.001636	0.001633	28.0801	88.7717	0.001827	48587.9	7.305791	169.055	339.826	1.124930	0.088011	0.087587	334.052	48587.9	0.082855	0.220275	1516.52	94584.2
278	2.000000	1.127220	7.36778e+06	-52539.1	955.817	-29749.3	0.000000	0.000000	7.142090	350.919	NaN	0.000000	0.001606	0.001675	28.0802	88.5048	0.001794	49329.2	4.273213	172.006	347.189	1.126928	0.089877	0.089585	350.919	49329.2	0.084541	0.228219	1537.64	94341.1
278	2.000000	1.129208	7.36778e+06	-52539.1	955.818	-29749.3	0.000000	0.000000	7.144765	367.62	NaN	0.000000	0.001588	0.001676	28.0813	91.6152	0.001826	50166.3	4.145221	172.087	366.032	1.128973	0.091864	0.091629	367.62	50166.3	0.086368	0.236972	1551.32	94153.5
278	2.000000	1.131234	7.36778e+06	-52539.1	955.818	-29749.3	0.000000	0.000000	7.147646	388.408	NaN	0.000000	0.001634	0.001698	28.0814	93.5009	0.001806	51777.8	4.688900	171.753	387.329	1.130866	0.093891	0.093523	388.408	51777.8	0.088265	0.246221	1577.48	95335.5
278	2.000000	1.133250	7.36778e+06	-52539.1	955.818	-29749.3	0.000000	0.000000	7.150123	399.628	NaN	0.000000	0.001584	0.001672	28.0812	94.45	0.001667	56645.7	6.673096	168.975	401.903	1.132773	0.095906	0.095429	399.628	56645.7	0.090615	0.257914	1549.47	101907
278	2.000000	1.135145	7.36778e+06	-52539.1	955.817	-29749.3	0.000000	0.000000	7.152671	415.493	NaN	0.000000	0.001549	0.001689	28.081	97.053	0.001888	51394.4	1.437959	175.066	411.716	1.134932	0.097801	0.097589	415.493	51394.4	0.091738	0.263590	1576.28	91458.5
278	2.000000	1.137153	7.36778e+06	-52539.1	955.817	-29749.3	0.000000	0.000000	7.155439	433.986	NaN	0.000000	0.001589	0.001683	28.0811	98.1062	0.001787	54898.3	3.499937	172.346	430.757	1.136950	0.099809	0.099607	433.986	54898.3	0.093880	0.274577	1580.56	95719.3
278	2.000000	1.139240	7.36778e+06	-52539.1	955.817	-29749.3	0.000000	0.000000	7.158122	448.484	NaN	0.000000	0.001553	0.001654	28.0812	100.971	0.001791	56365.5	4.753107	170.939	449.493	1.138781	0.101896	0.101437	448.484	56365.5	0.095929	0.285281	1572.08	96416.3
278	2.000000	1.141217	7.36778e+06	-52539.1	955.818	-29749.3	0.000000	0.000000	7.160838	466.448	NaN	0.000000	0.001575	0.001729	28.0813	102.857	0.001827	56291.3	3.351907	172.25	462.146	1.140898	0.103873	0.103554	466.448	56291.3	0.097659	0.294467	1584.04	94775.4
278	2.000000	1.143089	7.36778e+06	-52539.1	955.816	-29749.3	0.000000	0.000000	7.163510	485.893	NaN	0.000000	0.001577	0.001699	28.0811	104.77	0.001768	59266.1	4.260762	170.645	479.719	1.142874	0.105746	0.105531	485.893	59266.1	0.099597	0.304923	1593.5	98058.3
278	2.000000	1.144678	7.36778e+06	-52539.1	955.818	-29749.3	0.000000	0.000000	7.165616	498.465	NaN	0.000000	0.001578	0.001689	28.0816	106.453	0.001716	62051.3	3.597586	-9.136569	491.997	1.144444	0.107335	0.107101	498.465	62051.3	0.101310	0.314305	1585.93	101123