File: remote_trans/data/nanoindenter/0828-1/data/Data_2025-08-06,11h17m57s/2025-07-22_16-23-58_1_399.txt
2025-07-22, 16:23:58, 1
Index	Phase	Displacement	Time	Pos X	Pos Y	Pos Z	Rot A	Rot B	Piezo Z	Force A	Force B	Gripper	Voltage A	Voltage B	Temperature	Amplitude force	Amplitude pos	Stiffness	Phase shift	Phase excitation	Force A raw	Displacement raw	HMax	HMax raw	Real Force	Real Stiffness	Contact Depth	Area	Hardness	Reduced Mod.
[#]	[#]	[um]	[s]	[um]	[um]	[um]	[m°]	[m°]	[um]	[uN]	[uN]	[V]	[V]	[V]	[°C]	[uN]	[um]	[N/m]	[°]	[°]	[uN]	[um]	[um]	[um]	[uN]	[N/m]	[um]	[um^2]	[MPa]	[MPa]
399	1.000000	0.002719	7.36896e+06	-57139.1	1005.82	-29737.6	0.000000	0.000000	6.002766	0.019505	NaN	0.000000	0.001617	0.001742	28.0786	0.043109	0.001062	40.5919	-118.248	-159.933	0.039495	0.001466	-0.997506	-0.998758	0.019505	40.5919	-0.997867	-2.123463E+13	-9.185632E-16	NaN
399	1.000000	0.010717	7.36896e+06	-57139.1	1005.82	-29737.6	0.000000	0.000000	6.010768	0.098629	NaN	0.000000	0.001614	0.001760	28.0787	0.120594	0.001042	115.717	54.0833	-168.25	0.064448	0.009345	-0.989507	-0.990879	0.098629	115.717	-0.990147	-1.671431E+13	-5.900893E-15	NaN
399	1.000000	0.018698	7.36896e+06	-57139.1	1005.82	-29737.6	0.000000	0.000000	6.018746	0.016685	NaN	0.000000	0.001609	0.001720	28.0785	0.019197	0.001756	10.9312	-51.9682	-164.069	0.037884	0.017390	-0.981527	-0.982835	0.016685	10.9312	-0.982671	-1.325561E+13	-1.258744E-15	NaN
399	1.000000	0.026713	7.36896e+06	-57139.1	1005.82	-29737.6	0.000000	0.000000	6.026762	0.032273	NaN	0.000000	0.001617	0.001717	28.0788	0.089097	0.001918	46.4615	-139.426	-166.018	0.076661	0.025448	-0.973511	-0.974777	0.032273	46.4615	-0.974032	-1.013919E+13	-3.182974E-15	NaN
399	1.000000	0.034715	7.36896e+06	-57139.1	1005.82	-29737.6	0.000000	0.000000	6.034763	0.033907	NaN	0.000000	0.001597	0.001736	28.0787	0.055874	0.001849	30.2218	-76.3159	-164.869	0.093210	0.033389	-0.965510	-0.966836	0.033907	30.2218	-0.966352	-7.988944E+12	-4.244298E-15	NaN
399	1.000000	0.042712	7.36896e+06	-57139.1	1005.82	-29737.6	0.000000	0.000000	6.042764	0.112306	NaN	0.000000	0.001605	0.001682	28.0794	0.035634	0.001863	19.1241	-9.715494	-163.671	0.060638	0.041369	-0.957513	-0.958855	0.112306	19.1241	-0.961917	-6.961701E+12	-1.613194E-14	NaN
399	1.000000	0.050703	7.36896e+06	-57139.1	1005.82	-29737.6	0.000000	0.000000	6.050753	0.067825	NaN	0.000000	0.001624	0.001702	28.0786	0.079852	0.001953	40.8882	-83.6957	-164.185	0.134745	0.049321	-0.949521	-0.950904	0.067825	40.8882	-0.950765	-4.924365E+12	-1.377333E-14	NaN
399	1.000000	0.058694	7.36896e+06	-57139.1	1005.82	-29737.6	0.000000	0.000000	6.058744	0.072512	NaN	0.000000	0.001633	0.001732	28.0786	0.024030	0.001854	12.9586	-33.8443	-162.811	0.105986	0.057431	-0.941531	-0.942794	0.072512	12.9586	-0.945727	-4.211157E+12	-1.721897E-14	NaN
399	1.000000	0.066712	7.36896e+06	-57139.1	1005.82	-29737.6	0.000000	0.000000	6.066762	0.082120	NaN	0.000000	0.001644	0.001693	28.0786	0.153611	0.002027	75.7761	-78.4558	-165.762	0.080776	0.065397	-0.933513	-0.934828	0.082120	75.7761	-0.934325	-2.955096E+12	-2.778930E-14	NaN
399	1.000000	0.074696	7.36896e+06	-57139.1	1005.82	-29737.6	0.000000	0.000000	6.074747	0.090034	NaN	0.000000	0.001640	0.001684	28.0787	0.024521	0.002019	12.148	-62.5344	-166.48	0.096836	0.073406	-0.925528	-0.926819	0.090034	12.148	-0.931087	-2.672173E+12	-3.369316E-14	NaN
399	1.000000	0.082711	7.36896e+06	-57139.1	1005.82	-29737.6	0.000000	0.000000	6.082762	0.080682	NaN	0.000000	0.001646	0.001662	28.0788	0.024649	0.001990	12.3844	133.721	-160.004	0.014047	0.081384	-0.917513	-0.918841	0.080682	12.3844	-0.922400	-2.039870E+12	-3.955268E-14	NaN
399	1.000000	0.090732	7.36896e+06	-57139.1	1005.82	-29737.6	0.000000	0.000000	6.090780	0.029025	NaN	0.000000	0.001634	0.001699	28.0793	0.110380	0.002098	52.6032	109.492	-162.188	0.035612	0.089394	-0.909493	-0.910830	0.029025	52.6032	-0.909906	-1.383246E+12	-2.098330E-14	NaN
399	1.000000	0.098721	7.36896e+06	-57139.1	1005.82	-29737.6	0.000000	0.000000	6.098769	0.027683	NaN	0.000000	0.001613	0.001693	28.0801	0.074327	0.001815	40.9408	-66.2278	-165.603	0.020250	0.097424	-0.901503	-0.902801	0.027683	40.9408	-0.902011	-1.082016E+12	-2.558494E-14	NaN
399	1.000000	0.106723	7.36896e+06	-57139.1	1005.82	-29737.6	0.000000	0.000000	6.106774	0.102627	NaN	0.000000	0.001626	0.001741	28.0798	0.052585	0.001867	28.1602	-90.4625	-167.818	0.141882	0.105397	-0.893501	-0.894828	0.102627	28.1602	-0.896235	-9.040361E+11	-1.135212E-13	NaN
399	1.000000	0.114743	7.36896e+06	-57139.1	1005.82	-29737.6	0.000000	0.000000	6.114794	0.098213	NaN	0.000000	0.001625	0.001682	28.0798	0.065520	0.002108	31.0774	155.635	-162.616	0.094425	0.113441	-0.885481	-0.886783	0.098213	31.0774	-0.887852	-6.964210E+11	-1.410246E-13	NaN
399	1.000000	0.122719	7.36896e+06	-57139.1	1005.82	-29737.6	0.000000	0.000000	6.122770	0.105208	NaN	0.000000	0.001645	0.001703	28.0796	0.013144	0.002104	6.247008	16.7556	-165.479	0.047628	0.121442	-0.877506	-0.878782	0.105208	6.247008	-0.890137	-7.477621E+11	-1.406970E-13	NaN
399	1.000000	0.130733	7.36896e+06	-57139.1	1005.82	-29737.6	0.000000	0.000000	6.130784	0.104769	NaN	0.000000	0.001606	0.001736	28.0796	0.069700	0.001892	36.8465	152.615	-164.147	0.074353	0.129448	-0.869492	-0.870776	0.104769	36.8465	-0.871625	-4.201685E+11	-2.493492E-13	NaN
399	1.000000	0.138764	7.36896e+06	-57139.1	1005.82	-29737.6	0.000000	0.000000	6.138812	0.041139	NaN	0.000000	0.001656	0.001692	28.08	0.040567	0.002007	20.2113	-139.698	-163.433	0.067948	0.137409	-0.861461	-0.862815	0.041139	20.2113	-0.862988	-3.210396E+11	-1.281438E-13	NaN
399	1.000000	0.146686	7.36896e+06	-57139.1	1005.82	-29737.6	0.000000	0.000000	6.146735	0.043758	NaN	0.000000	0.001645	0.001661	28.0796	0.068648	0.002035	33.7304	-27.2874	-165.958	0.040211	0.145455	-0.853539	-0.854770	0.043758	33.7304	-0.854512	-2.465051E+11	-1.775155E-13	NaN
399	1.000000	0.154750	7.36896e+06	-57139.1	1005.82	-29737.6	0.000000	0.000000	6.154799	0.050200	NaN	0.000000	0.001654	0.001660	28.0796	0.071069	0.002010	35.3503	-51.6829	-167.697	0.027716	0.153426	-0.845474	-0.846798	0.050200	35.3503	-0.846539	-1.922532E+11	-2.611132E-13	NaN
399	1.000000	0.162747	7.36896e+06	-57139.1	1005.82	-29737.6	0.000000	0.000000	6.162798	0.098818	NaN	0.000000	0.001639	0.001714	28.08	0.109427	0.001966	55.6691	61.1442	-162.487	0.083486	0.161448	-0.837477	-0.838776	0.098818	55.6691	-0.838809	-1.510615E+11	-6.541587E-13	NaN
399	1.000000	0.170731	7.36896e+06	-57139.1	1005.82	-29737.6	0.000000	0.000000	6.170780	0.046890	NaN	0.000000	0.001626	0.001702	28.0799	0.051295	0.002025	25.3302	-87.1505	-165.428	0.012715	0.169446	-0.829493	-0.830779	0.046890	25.3302	-0.830882	-1.179600E+11	-3.975115E-13	NaN
399	1.000000	0.178743	7.36896e+06	-57139.1	1005.82	-29737.6	0.000000	0.000000	6.178795	0.129681	NaN	0.000000	0.001653	0.001711	28.0802	0.077234	0.001918	40.2761	127.517	-164.039	0.167224	0.177475	-0.821482	-0.822750	0.129681	40.2761	-0.823897	-9.485322E+10	-1.367171E-12	NaN
399	1.000000	0.186748	7.36896e+06	-57139.1	1005.82	-29737.6	0.000000	0.000000	6.186797	0.045409	NaN	0.000000	0.001626	0.001692	28.0798	0.017074	0.001984	8.606697	-153.473	-164.352	0.143738	0.185464	-0.813477	-0.814761	0.045409	8.606697	-0.817434	-7.751876E+10	-5.857765E-13	NaN
399	1.000000	0.194749	7.36896e+06	-57139.1	1005.82	-29737.6	0.000000	0.000000	6.194797	0.030869	NaN	0.000000	0.001702	0.001722	28.0798	0.083533	0.002069	40.3802	-119.979	-160.889	0.038111	0.193511	-0.805476	-0.806714	0.030869	40.3802	-0.806049	-5.432073E+10	-5.682710E-13	NaN
399	1.000000	0.202765	7.36896e+06	-57139.1	1005.82	-29737.6	0.000000	0.000000	6.202814	0.064615	NaN	0.000000	0.001681	0.001680	28.0798	0.026980	0.001969	13.7052	112.569	-163.241	0.028289	0.201486	-0.797460	-0.798739	0.064615	13.7052	-0.800996	-4.638561E+10	-1.392997E-12	NaN
399	1.000000	0.210754	7.36896e+06	-57139.1	1005.82	-29737.6	0.000000	0.000000	6.210804	0.079098	NaN	0.000000	0.001671	0.001741	28.0798	0.051965	0.002061	25.2087	-41.2232	-162.47	0.001497	0.209455	-0.789471	-0.790770	0.079098	25.2087	-0.791824	-3.482262E+10	-2.271445E-12	NaN
399	1.000000	0.218764	7.36896e+06	-57139.1	1005.82	-29737.6	0.000000	0.000000	6.218816	0.119280	NaN	0.000000	0.001645	0.001709	28.08	0.030362	0.001991	15.2498	171.314	-166.074	0.106773	0.217443	-0.781461	-0.782782	0.119280	15.2498	-0.787327	-3.025384E+10	-3.942645E-12	NaN
399	1.000000	0.226767	7.36896e+06	-57139.1	1005.82	-29737.6	0.000000	0.000000	6.226815	0.041380	NaN	0.000000	0.001656	0.001689	28.0793	0.080616	0.002015	40.012	-116.229	-161.485	-0.026468	0.225487	-0.773458	-0.774738	0.041380	40.012	-0.774234	-2.008455E+10	-2.060268E-12	NaN
399	1.000000	0.234780	7.36896e+06	-57139.1	1005.82	-29737.6	0.000000	0.000000	6.234829	0.050784	NaN	0.000000	0.001671	0.001707	28.0789	0.074743	0.002038	36.6672	82.6873	-165.361	0.032403	0.233504	-0.765445	-0.766721	0.050784	36.6672	-0.766484	-1.575772E+10	-3.222792E-12	NaN
399	1.000000	0.242777	7.36896e+06	-57139.1	1005.82	-29737.6	0.000000	0.000000	6.242827	0.081804	NaN	0.000000	0.001681	0.001702	28.0785	0.040123	0.001940	20.6834	-83.9296	-161.124	0.090494	0.241483	-0.757448	-0.758741	0.081804	20.6834	-0.760414	-1.302969E+10	-6.278285E-12	NaN
399	1.000000	0.250759	7.36896e+06	-57139.1	1005.82	-29737.6	0.000000	0.000000	6.250808	0.038916	NaN	0.000000	0.001649	0.001706	28.0786	0.109421	0.002064	53.003	92.4002	-167.117	0.033404	0.249486	-0.749466	-0.750739	0.038916	53.003	-0.750016	-9.406859E+9	-4.137009E-12	NaN
399	1.000000	0.258773	7.36896e+06	-57139.1	1005.82	-29737.6	0.000000	0.000000	6.258821	0.030388	NaN	0.000000	0.001693	0.001704	28.0785	0.077742	0.001937	40.1282	130.03	-166.184	0.109788	0.257442	-0.741452	-0.742782	0.030388	40.1282	-0.742020	-7.320928E+9	-4.150842E-12	NaN
399	1.000000	0.266794	7.36896e+06	-57139.1	1005.82	-29737.6	0.000000	0.000000	6.266844	0.068662	NaN	0.000000	0.001634	0.001693	28.0784	0.083755	0.002003	41.8095	-34.9632	-163.748	0.145198	0.265505	-0.733431	-0.734720	0.068662	41.8095	-0.734662	-5.812227E+9	-1.181342E-11	NaN
399	1.000000	0.274791	7.36897e+06	-57139.1	1005.82	-29737.6	0.000000	0.000000	6.274840	0.033470	NaN	0.000000	0.001636	0.001700	28.0791	0.104192	0.002135	48.7978	-147.676	-163.276	0.003356	0.273556	-0.725433	-0.726668	0.033470	48.7978	-0.725948	-4.421512E+9	-7.569849E-12	NaN
399	1.000000	0.282798	7.36897e+06	-57139.1	1005.82	-29737.6	0.000000	0.000000	6.282846	0.005080	NaN	0.000000	0.001656	0.001711	28.0783	0.062056	0.002004	30.9627	-37.0625	-166.118	0.030194	0.281505	-0.717426	-0.718720	0.005080	30.9627	-0.717549	-3.396645E+9	-1.495599E-12	NaN
399	1.000000	0.290822	7.36897e+06	-57139.1	1005.82	-29737.6	0.000000	0.000000	6.290871	0.049825	NaN	0.000000	0.001660	0.001648	28.0785	0.075579	0.001941	38.9416	-31.3307	-166.067	0.045013	0.289536	-0.709403	-0.710688	0.049825	38.9416	-0.710362	-2.710143E+9	-1.838477E-11	NaN
399	1.000000	0.298793	7.36897e+06	-57139.1	1005.82	-29737.6	0.000000	0.000000	6.298842	0.045234	NaN	0.000000	0.001652	0.001702	28.0785	0.094696	0.002029	46.6698	-150.635	-165.237	0.059065	0.297510	-0.701432	-0.702715	0.045234	46.6698	-0.702158	-2.094141E+9	-2.160012E-11	NaN
399	1.000000	0.306789	7.36897e+06	-57139.1	1005.82	-29737.6	0.000000	0.000000	6.306836	-0.019027	NaN	0.000000	0.001653	0.001724	28.0785	0.068754	0.001906	36.0814	-37.4804	-163.17	-0.006825	0.305508	-0.693435	-0.694717	-0.019027	36.0814	-0.693040	-1.572015E+9	1.210379E-11	NaN
399	1.000000	0.314828	7.36897e+06	-57139.1	1005.82	-29737.6	0.000000	0.000000	6.314878	0.071900	NaN	0.000000	0.001625	0.001685	28.0786	0.082699	0.001924	42.9815	-156.728	-163.183	0.045139	0.313508	-0.685396	-0.686716	0.071900	42.9815	-0.686651	-1.285718E+9	-5.592207E-11	NaN
399	1.000000	0.322785	7.36897e+06	-57139.1	1005.82	-29737.6	0.000000	0.000000	6.322833	0.015227	NaN	0.000000	0.001575	0.001729	28.0787	0.134731	0.002047	65.8211	20.4045	-166.423	0.027539	0.321518	-0.677440	-0.678706	0.015227	65.8211	-0.677613	-9.672941E+8	-1.574172E-11	NaN
399	1.000000	0.330790	7.36897e+06	-57139.1	1005.82	-29737.6	0.000000	0.000000	6.330839	0.055381	NaN	0.000000	0.001572	0.001716	28.0788	0.040891	0.001952	20.9512	115.818	-164.382	0.022783	0.329509	-0.669435	-0.670716	0.055381	20.9512	-0.671417	-7.957663E+8	-6.959498E-11	NaN
399	1.000000	0.338821	7.36897e+06	-57139.1	1005.82	-29737.6	0.000000	0.000000	6.338867	-0.011399	NaN	0.000000	0.001631	0.001730	28.0787	0.073886	0.001960	37.6993	-164.279	-161.654	-0.000701	0.337555	-0.661404	-0.662670	-0.011399	37.6993	-0.661177	-5.762285E+8	1.978136E-11	NaN
399	1.000000	0.346836	7.36897e+06	-57139.1	1005.82	-29737.6	0.000000	0.000000	6.346885	0.066234	NaN	0.000000	0.001623	0.001743	28.0787	0.074177	0.002052	36.1449	-93.6278	-166.226	0.111552	0.345551	-0.653389	-0.654673	0.066234	36.1449	-0.654763	-4.706783E+8	-1.407211E-10	NaN
399	1.000000	0.354808	7.36897e+06	-57139.1	1005.82	-29737.6	0.000000	0.000000	6.354859	0.087168	NaN	0.000000	0.001614	0.001733	28.0785	0.051860	0.002129	24.3558	128.33	-162.94	0.076555	0.353467	-0.645417	-0.646757	0.087168	24.3558	-0.648101	-3.814151E+8	-2.285395E-10	NaN
399	1.000000	0.362850	7.36897e+06	-57139.1	1005.82	-29737.6	0.000000	0.000000	6.362899	0.055332	NaN	0.000000	0.001588	0.001730	28.0788	0.101551	0.001894	53.6248	-55.8097	-162.097	0.069081	0.361559	-0.637375	-0.638665	0.055332	53.6248	-0.638149	-2.785420E+8	-1.986487E-10	NaN
399	1.000000	0.370826	7.36897e+06	-57139.1	1005.82	-29737.6	0.000000	0.000000	6.370874	0.029431	NaN	0.000000	0.001585	0.001761	28.0798	0.036792	0.002017	18.2387	-65.0604	-164.93	0.044401	0.369533	-0.629399	-0.630692	0.029431	18.2387	-0.630609	-2.194777E+8	-1.340946E-10	NaN
399	1.000000	0.378825	7.36897e+06	-57139.1	1005.82	-29737.6	0.000000	0.000000	6.378874	0.042500	NaN	0.000000	0.001555	0.001742	28.0798	0.049584	0.002043	24.2705	-148.14	-161.135	-0.005204	0.377516	-0.621399	-0.622709	0.042500	24.2705	-0.622713	-1.709677E+8	-2.485856E-10	NaN
399	1.000000	0.386847	7.36897e+06	-57139.1	1005.82	-29737.6	0.000000	0.000000	6.386892	-0.040942	NaN	0.000000	0.001580	0.001740	28.08	0.044423	0.001981	22.419	60.7394	-163.012	0.048305	0.385567	-0.613378	-0.614657	-0.040942	22.419	-0.612008	-1.218260E+8	3.360660E-10	NaN
399	1.000000	0.394841	7.36897e+06	-57139.1	1005.82	-29737.6	0.000000	0.000000	6.394888	0.003258	NaN	0.000000	0.001614	0.001678	28.0798	0.069025	0.002101	32.8553	173.609	-162.311	0.035958	0.393490	-0.605384	-0.606735	0.003258	32.8553	-0.605458	-9.899442E+7	-3.290733E-11	NaN
399	1.000000	0.402816	7.36897e+06	-57139.1	1005.82	-29737.6	0.000000	0.000000	6.402867	0.093919	NaN	0.000000	0.001609	0.001721	28.0798	0.114265	0.002058	55.5278	-34.0315	-167.197	0.142964	0.401568	-0.597409	-0.598657	0.093919	55.5278	-0.598677	-7.984440E+7	-1.176271E-9	NaN
399	1.000000	0.410837	7.36897e+06	-57139.1	1005.82	-29737.6	0.000000	0.000000	6.410891	0.159273	NaN	0.000000	0.001588	0.001716	28.08	0.110374	0.001966	56.1426	-82.6179	-165.491	0.180009	0.409522	-0.589388	-0.590703	0.159273	56.1426	-0.591515	-6.361448E+7	-2.503728E-9	NaN
399	1.000000	0.418879	7.36897e+06	-57139.1	1005.82	-29737.6	0.000000	0.000000	6.418929	0.069055	NaN	0.000000	0.001586	0.001684	28.08	0.110348	0.002009	54.9195	-100.58	-161.39	0.080432	0.417558	-0.581346	-0.582667	0.069055	54.9195	-0.582289	-4.745778E+7	-1.455089E-9	NaN
399	1.000000	0.426865	7.36897e+06	-57139.1	1005.82	-29737.6	0.000000	0.000000	6.426916	0.108090	NaN	0.000000	0.001629	0.001703	28.08	0.046436	0.001990	23.3383	104.307	-164.809	0.023578	0.425563	-0.573360	-0.574662	0.108090	23.3383	-0.576833	-3.990361E+7	-2.708765E-9	NaN
399	1.000000	0.434853	7.36897e+06	-57139.1	1005.82	-29737.6	0.000000	0.000000	6.434900	0.000632	NaN	0.000000	0.001642	0.001699	28.0796	0.079479	0.002107	37.7137	154.927	-162.816	0.057656	0.433594	-0.565372	-0.566630	0.000632	37.7137	-0.565385	-2.772318E+7	-2.280914E-11	NaN
399	1.000000	0.442863	7.36897e+06	-57139.1	1005.82	-29737.6	0.000000	0.000000	6.442914	0.083940	NaN	0.000000	0.001643	0.001704	28.0799	0.095120	0.002038	46.6658	-134.616	-164.151	0.062023	0.441548	-0.557362	-0.558677	0.083940	46.6658	-0.558711	-2.241504E+7	-3.744798E-9	NaN
399	1.000000	0.450909	7.36897e+06	-57139.1	1005.82	-29737.6	0.000000	0.000000	6.450959	0.090859	NaN	0.000000	0.001606	0.001696	28.0797	0.128212	0.001934	66.2928	-68.9243	-162.894	0.109002	0.449592	-0.549316	-0.550633	0.090859	66.2928	-0.550344	-1.716806E+7	-5.292322E-9	NaN
399	1.000000	0.458867	7.36897e+06	-57139.1	1005.82	-29737.6	0.000000	0.000000	6.458917	0.051741	NaN	0.000000	0.001606	0.001693	28.0798	0.097053	0.001977	49.0879	-142.159	-165.93	0.021437	0.457559	-0.541357	-0.542666	0.051741	49.0879	-0.542148	-1.321729E+7	-3.914642E-9	NaN
399	1.000000	0.466869	7.36897e+06	-57139.1	1005.82	-29737.6	0.000000	0.000000	6.466920	0.100124	NaN	0.000000	0.001628	0.001687	28.0798	0.030066	0.001954	15.3899	-36.8297	-163.03	0.057382	0.465495	-0.533355	-0.534730	0.100124	15.3899	-0.538235	-1.166467E+7	-8.583487E-9	NaN
399	1.000000	0.474894	7.36897e+06	-57139.1	1005.82	-29737.6	0.000000	0.000000	6.474944	0.078165	NaN	0.000000	0.001638	0.001677	28.0799	0.020400	0.002151	9.484030	-30.7361	-164.055	0.014707	0.473553	-0.525331	-0.526671	0.078165	9.484030	-0.531512	-9.4096e+06	-8.306940E-9	NaN
399	1.000000	0.482878	7.36897e+06	-57139.1	1005.82	-29737.6	0.000000	0.000000	6.482927	0.051579	NaN	0.000000	0.001619	0.001689	28.0801	0.020916	0.001963	10.6545	46.6664	-162.513	0.025430	0.481565	-0.517347	-0.518660	0.051579	10.6545	-0.520978	-6.71727e+06	-7.678602E-9	NaN
399	1.000000	0.490899	7.36897e+06	-57139.1	1005.82	-29737.6	0.000000	0.000000	6.490948	0.046940	NaN	0.000000	0.001660	0.001696	28.0797	0.104844	0.001944	53.9431	128.955	-161.224	0.067289	0.489581	-0.509325	-0.510643	0.046940	53.9431	-0.509978	-4.7218e+06	-9.941155E-9	NaN
399	1.000000	0.498866	7.36897e+06	-57139.1	1005.82	-29737.6	0.000000	0.000000	6.498915	0.044965	NaN	0.000000	0.001694	0.001676	28.0797	0.039668	0.001934	20.5138	160.927	-162.534	0.091338	0.497531	-0.501359	-0.502693	0.044965	20.5138	-0.503003	-3.77485e+06	-1.191187E-8	NaN
399	1.000000	0.506908	7.36897e+06	-57139.1	1005.82	-29737.6	0.000000	0.000000	6.506957	0.053822	NaN	0.000000	0.001654	0.001710	28.0786	0.081369	0.001973	41.2474	176.828	-166.851	0.025193	0.505603	-0.493317	-0.494622	0.053822	41.2474	-0.494296	-2.85364e+06	-1.886074E-8	NaN
399	1.000000	0.514899	7.36897e+06	-57139.1	1005.82	-29737.6	0.000000	0.000000	6.514948	0.053766	NaN	0.000000	0.001706	0.001704	28.0786	0.120337	0.001936	62.1734	-97.3419	-164.334	0.122390	0.513561	-0.485326	-0.486663	0.053766	62.1734	-0.485974	-2.1833e+06	-2.462582E-8	NaN
399	1.000000	0.522934	7.36897e+06	-57139.1	1005.82	-29737.6	0.000000	0.000000	6.522983	0.048199	NaN	0.000000	0.001693	0.001700	28.0789	0.121894	0.002099	58.0726	-115.22	-164.195	0.092977	0.521599	-0.477291	-0.478626	0.048199	58.0726	-0.477913	-1.68387e+06	-2.862420E-8	NaN
399	1.000000	0.530929	7.36897e+06	-57139.1	1005.82	-29737.6	0.000000	0.000000	6.530980	0.095670	NaN	0.000000	0.001686	0.001678	28.0786	0.117327	0.002053	57.1483	-1.512954	-165.51	0.068842	0.529601	-0.469296	-0.470624	0.095670	57.1483	-0.470551	-1.32781e+06	-7.205094E-8	NaN
399	1.000000	0.538900	7.36897e+06	-57139.1	1005.82	-29737.6	0.000000	0.000000	6.538950	0.076818	NaN	0.000000	0.001673	0.001662	28.0787	0.094062	0.001915	49.115	120.071	-164.326	0.006138	0.537619	-0.461325	-0.462606	0.076818	49.115	-0.462498	-1.02356e+06	-7.504938E-8	NaN
399	1.000000	0.546913	7.36897e+06	-57139.1	1005.82	-29737.6	0.000000	0.000000	6.546961	0.022513	NaN	0.000000	0.001648	0.001687	28.0786	0.008945	0.001983	4.510438	-14.5859	-164.745	0.068864	0.545622	-0.453311	-0.454602	0.022513	4.510438	-0.457055	-858262	-2.623130E-8	NaN
399	1.000000	0.554924	7.36897e+06	-57139.1	1005.82	-29737.6	0.000000	0.000000	6.554972	0.016245	NaN	0.000000	0.001681	0.001721	28.0786	0.118109	0.002039	57.9337	177.956	-166.472	0.060868	0.553604	-0.445301	-0.446621	0.016245	57.9337	-0.445511	-590335	-2.751905E-8	NaN
399	1.000000	0.562913	7.36897e+06	-57139.1	1005.82	-29737.6	0.000000	0.000000	6.562964	0.105897	NaN	0.000000	0.001708	0.001735	28.079	0.046423	0.002003	23.1785	154.84	-162.532	0.067237	0.561609	-0.437312	-0.438615	0.105897	23.1785	-0.440739	-505577	-2.094567E-7	NaN
399	1.000000	0.570912	7.36897e+06	-57139.1	1005.82	-29737.6	0.000000	0.000000	6.570961	0.040251	NaN	0.000000	0.001685	0.001711	28.0788	0.091750	0.001900	48.2897	149.294	-167.252	-0.042088	0.569646	-0.429312	-0.430578	0.040251	48.2897	-0.429938	-355777	-1.131366E-7	NaN
399	1.000000	0.578928	7.36897e+06	-57139.1	1005.82	-29737.6	0.000000	0.000000	6.578977	0.032453	NaN	0.000000	0.001670	0.001705	28.0787	0.041925	0.002062	20.3281	-79.3624	-164.306	-0.025580	0.577598	-0.421296	-0.422627	0.032453	20.3281	-0.422494	-279106	-1.162737E-7	NaN
399	1.000000	0.586924	7.36897e+06	-57139.1	1005.82	-29737.6	0.000000	0.000000	6.586973	0.058475	NaN	0.000000	0.001699	0.001727	28.0786	0.067856	0.002112	32.1281	-81.8665	-163.87	0.053817	0.585666	-0.413301	-0.414559	0.058475	32.1281	-0.414666	-216130	-2.705537E-7	NaN
399	1.000000	0.594922	7.36897e+06	-57139.1	1005.82	-29737.6	0.000000	0.000000	6.594971	0.044964	NaN	0.000000	0.001691	0.001713	28.0781	0.085295	0.001878	45.4151	-37.0367	-164.853	0.039147	0.593609	-0.405303	-0.406616	0.044964	45.4151	-0.406045	-162980	-2.758865E-7	NaN
399	1.000000	0.602940	7.36897e+06	-57139.1	1005.82	-29737.6	0.000000	0.000000	6.602986	-0.022934	NaN	0.000000	0.001682	0.001728	28.079	0.129039	0.001961	65.7955	-3.627413	-165.87	0.100613	0.601637	-0.397285	-0.398587	-0.022934	65.7955	-0.397023	-121207	1.892177E-7	NaN
399	1.000000	0.610956	7.36897e+06	-57139.1	1005.82	-29737.6	0.000000	0.000000	6.611006	0.081316	NaN	0.000000	0.001643	0.001708	28.0785	0.072993	0.002055	35.5273	150.698	-164.771	0.065307	0.609597	-0.389269	-0.390628	0.081316	35.5273	-0.390986	-99372.2	-8.182937E-7	NaN
399	1.000000	0.618928	7.36897e+06	-57139.1	1005.82	-29737.6	0.000000	0.000000	6.618976	0.031934	NaN	0.000000	0.001637	0.001699	28.0784	0.102554	0.002081	49.2749	-19.1761	-164.45	0.001352	0.617619	-0.381297	-0.382606	0.031934	49.2749	-0.381783	-73362.1	-4.352876E-7	NaN
399	1.000000	0.626918	7.36897e+06	-57139.1	1005.82	-29737.6	0.000000	0.000000	6.626969	0.113329	NaN	0.000000	0.001657	0.001676	28.0785	0.063911	0.001961	32.5919	-40.8266	-166.627	0.133815	0.625650	-0.373307	-0.374575	0.113329	32.5919	-0.375915	-60425.6	-1.875508E-6	NaN
399	1.000000	0.634957	7.36897e+06	-57139.1	1005.82	-29737.6	0.000000	0.000000	6.635003	-0.019405	NaN	0.000000	0.001605	0.001691	28.0783	0.108012	0.001957	55.1838	-176.555	-163.462	0.037973	0.633672	-0.365268	-0.366553	-0.019405	55.1838	-0.365004	-42083.3	4.611119E-7	NaN
399	1.000000	0.642933	7.36897e+06	-57139.1	1005.82	-29737.6	0.000000	0.000000	6.642983	0.075786	NaN	0.000000	0.001626	0.001720	28.0794	0.084700	0.002140	39.583	149.601	-165.909	0.121624	0.641643	-0.357292	-0.358581	0.075786	39.583	-0.358728	-34154.7	-2.218904E-6	NaN
399	1.000000	0.650953	7.36897e+06	-57139.1	1005.82	-29737.6	0.000000	0.000000	6.651002	0.042846	NaN	0.000000	0.001605	0.001706	28.0796	0.096155	0.002054	46.8166	-166.182	-164.775	0.021152	0.649635	-0.349272	-0.350590	0.042846	46.8166	-0.349958	-25491.3	-1.680820E-6	NaN
399	1.000000	0.658936	7.36897e+06	-57139.1	1005.82	-29737.6	0.000000	0.000000	6.658983	0.005414	NaN	0.000000	0.001619	0.001714	28.0799	0.013059	0.001901	6.870112	15.0068	-164.617	0.121773	0.657675	-0.341289	-0.342550	0.005414	6.870112	-0.341880	-19451.1	-2.783442E-7	NaN
399	1.000000	0.666976	7.36897e+06	-57139.1	1005.82	-29737.6	0.000000	0.000000	6.667022	-0.017262	NaN	0.000000	0.001607	0.001720	28.0796	0.106613	0.001805	59.0583	147.802	-165.45	0.096770	0.665614	-0.333249	-0.334611	-0.017262	59.0583	-0.333030	-14447.4	1.194801E-6	NaN
399	1.000000	0.674963	7.36897e+06	-57139.1	1005.82	-29737.6	0.000000	0.000000	6.675012	0.049825	NaN	0.000000	0.001614	0.001723	28.0798	0.052885	0.002017	26.2245	-8.782532	-165.568	0.034000	0.673637	-0.325262	-0.326588	0.049825	26.2245	-0.326687	-11665.1	-4.271247E-6	NaN
399	1.000000	0.682960	7.36897e+06	-57139.1	1005.82	-29737.6	0.000000	0.000000	6.683006	-0.005163	NaN	0.000000	0.001586	0.001716	28.0796	0.030446	0.002024	15.0429	110.048	-168.1	-0.091462	0.681681	-0.317265	-0.318544	-0.005163	15.0429	-0.317008	-8405.45	6.142183E-7	NaN
399	1.000000	0.690955	7.36897e+06	-57139.1	1005.82	-29737.6	0.000000	0.000000	6.691003	0.030744	NaN	0.000000	0.001613	0.001741	28.0795	0.053917	0.002041	26.4134	62.5111	-163.32	0.012763	0.689688	-0.309270	-0.310536	0.030744	26.4134	-0.310143	-6655.27	-4.619521E-6	NaN
399	1.000000	0.698975	7.36897e+06	-57139.1	1005.82	-29737.6	0.000000	0.000000	6.699025	0.069347	NaN	0.000000	0.001611	0.001750	28.08	0.024619	0.001971	12.4919	124.144	-162.696	0.072994	0.697706	-0.301250	-0.302518	0.069347	12.4919	-0.305413	-5663.58	-1.224433E-5	NaN
399	1.000000	0.706968	7.36897e+06	-57139.1	1005.82	-29737.6	0.000000	0.000000	6.707019	0.094760	NaN	0.000000	0.001596	0.001694	28.0797	0.065834	0.002079	31.6671	-168.647	-164.896	0.087023	0.705610	-0.293257	-0.294614	0.094760	31.6671	-0.295501	-4032.46	-2.349925E-5	NaN
399	1.000000	0.714953	7.36897e+06	-57139.1	1005.82	-29737.6	0.000000	0.000000	6.714999	-0.015769	NaN	0.000000	0.001604	0.001727	28.0798	0.100284	0.002019	49.681	31.4743	-163.224	0.028590	0.713695	-0.285272	-0.286529	-0.015769	49.681	-0.285034	-2810.47	5.610853E-6	NaN
399	1.000000	0.722984	7.36897e+06	-57139.1	1005.82	-29737.6	0.000000	0.000000	6.723032	0.038936	NaN	0.000000	0.001668	0.001730	28.0799	0.061222	0.001957	31.285	10.4209	-167.202	0.060532	0.721674	-0.277241	-0.278551	0.038936	31.285	-0.278175	-2215.2	-1.757657E-5	NaN
399	1.000000	0.730946	7.36897e+06	-57139.1	1005.82	-29737.6	0.000000	0.000000	6.730994	0.009445	NaN	0.000000	0.001622	0.001712	28.0799	0.090544	0.001922	47.1194	130.283	-164.576	-0.006401	0.729688	-0.269278	-0.270537	0.009445	47.1194	-0.269429	-1632.53	-5.785453E-6	NaN
399	1.000000	0.739001	7.36897e+06	-57139.1	1005.82	-29737.6	0.000000	0.000000	6.739049	0.025497	NaN	0.000000	0.001606	0.001693	28.0801	0.074221	0.002032	36.5256	-159.256	-166.559	0.069649	0.737696	-0.261223	-0.262528	0.025497	36.5256	-0.261747	-1246.44	-2.045555E-5	NaN
399	1.000000	0.746988	7.36897e+06	-57139.1	1005.82	-29737.6	0.000000	0.000000	6.747038	0.065331	NaN	0.000000	0.001613	0.001723	28.0797	0.040682	0.001985	20.4998	118.566	-164.054	0.043441	0.745668	-0.253237	-0.254557	0.065331	20.4998	-0.255627	-1004.07	-6.506641E-5	NaN
399	1.000000	0.754985	7.36897e+06	-57139.1	1005.82	-29737.6	0.000000	0.000000	6.755035	0.062505	NaN	0.000000	0.001590	0.001738	28.0797	0.068274	0.001969	34.6695	-34.1751	-165.508	0.045411	0.753645	-0.245240	-0.246579	0.062505	34.6695	-0.246592	-728.064	-8.585124E-5	NaN
399	1.000000	0.762993	7.36897e+06	-57139.1	1005.82	-29737.6	0.000000	0.000000	6.763042	0.040355	NaN	0.000000	0.001624	0.001734	28.0797	0.088920	0.002012	44.2013	-150.03	-164.157	0.026826	0.761729	-0.237232	-0.238495	0.040355	44.2013	-0.237917	-533.303	-7.566985E-5	NaN
399	1.000000	0.771023	7.36897e+06	-57139.1	1005.82	-29737.6	0.000000	0.000000	6.771074	0.091477	NaN	0.000000	0.001603	0.001763	28.0797	0.056403	0.002020	27.9258	3.892703	-162.54	0.096798	0.769709	-0.229202	-0.230515	0.091477	27.9258	-0.231659	-425.29	-0.000215	NaN
399	1.000000	0.778999	7.36897e+06	-57139.1	1005.82	-29737.6	0.000000	0.000000	6.779047	0.045656	NaN	0.000000	0.001591	0.001733	28.0786	0.080725	0.001934	41.7428	-26.7203	-165.127	-0.012517	0.777738	-0.221226	-0.222487	0.045656	41.7428	-0.222046	-299.46	-0.000152	NaN
399	1.000000	0.787006	7.36897e+06	-57139.1	1005.82	-29737.6	0.000000	0.000000	6.787055	0.048503	NaN	0.000000	0.001592	0.001713	28.0785	0.100737	0.002044	49.2812	156.712	-166.283	0.063491	0.785738	-0.213219	-0.214486	0.048503	49.2812	-0.213957	-222.193	-0.000218	NaN
399	1.000000	0.795016	7.36897e+06	-57139.1	1005.82	-29737.6	0.000000	0.000000	6.795063	-0.008610	NaN	0.000000	0.001586	0.001769	28.0789	0.052199	0.001875	27.843	-6.166067	-161.179	0.077248	0.793734	-0.205208	-0.206490	-0.008610	27.843	-0.204976	-158.917	5.418092E-5	NaN
399	1.000000	0.803057	7.36897e+06	-57139.1	1005.82	-29737.6	0.000000	0.000000	6.803105	0.014243	NaN	0.000000	0.001584	0.001715	28.0785	0.045153	0.002071	21.8057	173.139	-165.515	0.094608	0.801712	-0.197167	-0.198512	0.014243	21.8057	-0.197657	-120.539	-0.000118	NaN
399	1.000000	0.811024	7.36897e+06	-57139.1	1005.82	-29737.6	0.000000	0.000000	6.811073	0.034288	NaN	0.000000	0.001592	0.001751	28.0788	0.032008	0.001986	16.1133	-100.216	-164.974	0.037855	0.809661	-0.189200	-0.190563	0.034288	16.1133	-0.190796	-92.7512	-0.000370	NaN
399	1.000000	0.819003	7.36897e+06	-57139.1	1005.82	-29737.6	0.000000	0.000000	6.819054	0.091304	NaN	0.000000	0.001615	0.001729	28.0788	0.034881	0.001975	17.6591	7.982779	-165.211	0.012096	0.817685	-0.181222	-0.182539	0.091304	17.6591	-0.185099	-74.4403	-0.001227	NaN
399	1.000000	0.827007	7.36897e+06	-57139.1	1005.82	-29737.6	0.000000	0.000000	6.827058	0.099648	NaN	0.000000	0.001605	0.001706	28.0788	0.077207	0.001975	39.1011	-11.5053	-163.937	0.004057	0.825668	-0.173218	-0.174557	0.099648	39.1011	-0.175129	-50.3728	-0.001978	NaN
399	1.000000	0.835025	7.36897e+06	-57139.1	1005.82	-29737.6	0.000000	0.000000	6.835077	0.115832	NaN	0.000000	0.001668	0.001727	28.0789	0.010831	0.002107	5.140169	-78.4684	-164.242	0.093285	0.833714	-0.165200	-0.166511	0.115832	5.140169	-0.182100	-66.2418	-0.001749	NaN
399	1.000000	0.843029	7.36897e+06	-57139.1	1005.82	-29737.6	0.000000	0.000000	6.843076	0.000156	NaN	0.000000	0.001675	0.001700	28.0787	0.105857	0.002011	52.6273	63.9968	-164.112	0.024269	0.841702	-0.157195	-0.158523	0.000156	52.6273	-0.157198	-24.4352	-6.387655E-6	NaN
399	1.000000	0.851041	7.36897e+06	-57139.1	1005.82	-29737.6	0.000000	0.000000	6.851088	0.004474	NaN	0.000000	0.001661	0.001748	28.0787	0.065040	0.001963	33.1351	-135.809	-165.726	0.067198	0.849756	-0.149184	-0.150469	0.004474	33.1351	-0.149285	-17.5774	-0.000255	NaN
399	1.000000	0.859045	7.36897e+06	-57139.1	1005.82	-29737.6	0.000000	0.000000	6.859095	0.056941	NaN	0.000000	0.001705	0.001720	28.0786	0.017782	0.001869	9.515020	153.009	-167.036	0.055052	0.857755	-0.141180	-0.142470	0.056941	9.515020	-0.145668	-15.0838	-0.003775	NaN
399	1.000000	0.867044	7.36897e+06	-57139.1	1005.82	-29737.6	0.000000	0.000000	6.867093	0.049289	NaN	0.000000	0.001683	0.001815	28.0782	0.084030	0.002037	41.2449	77.557	-165.099	-0.022729	0.865737	-0.133180	-0.134488	0.049289	41.2449	-0.134077	-9.133431	-0.005397	NaN
399	1.000000	0.875069	7.36897e+06	-57139.1	1005.82	-29737.6	0.000000	0.000000	6.875119	0.063161	NaN	0.000000	0.001663	0.001738	28.0786	0.046858	0.002128	22.0161	-95.0572	-166.154	-0.053574	0.873773	-0.125155	-0.126451	0.063161	22.0161	-0.127307	-6.752224	-0.009354	NaN
399	1.000000	0.883067	7.36897e+06	-57139.1	1005.82	-29737.6	0.000000	0.000000	6.883115	0.012794	NaN	0.000000	0.001685	0.001723	28.0785	0.088600	0.001929	45.9315	83.7353	-163.918	0.042143	0.881744	-0.117157	-0.118480	0.012794	45.9315	-0.117366	-4.272055	-0.002995	NaN
399	1.000000	0.891029	7.36897e+06	-57139.1	1005.82	-29737.6	0.000000	0.000000	6.891080	0.082801	NaN	0.000000	0.001678	0.001758	28.0788	0.112287	0.002007	55.9437	-93.9187	-163.672	0.095272	0.889721	-0.109195	-0.110504	0.082801	55.9437	-0.110305	-3.050055	-0.027147	NaN
399	1.000000	0.899042	7.36897e+06	-57139.1	1005.82	-29737.6	0.000000	0.000000	6.899092	0.072634	NaN	0.000000	0.001669	0.001744	28.0786	0.079147	0.002041	38.7785	123.729	-167.735	0.102268	0.897714	-0.101183	-0.102510	0.072634	38.7785	-0.102588	-2.083276	-0.034865	NaN
399	1.000000	0.907038	7.36897e+06	-57139.1	1005.82	-29737.6	0.000000	0.000000	6.907087	0.046694	NaN	0.000000	0.001664	0.001724	28.0785	0.100395	0.001787	56.1811	-179.568	-164.294	0.101594	0.905781	-0.093186	-0.094444	0.046694	56.1811	-0.093810	-1.324952	-0.035242	NaN
399	1.000000	0.915064	7.36897e+06	-57139.1	1005.82	-29737.6	0.000000	0.000000	6.915113	0.039189	NaN	0.000000	0.001663	0.001732	28.0798	0.103547	0.002025	51.1231	-163.691	-161.543	0.039027	0.913714	-0.085160	-0.086510	0.039189	51.1231	-0.085735	-0.855922	-0.045786	NaN
399	1.000000	0.923045	7.36897e+06	-57139.1	1005.82	-29737.6	0.000000	0.000000	6.923096	0.100034	NaN	0.000000	0.001646	0.001766	28.0794	0.047284	0.002064	22.9128	-166.42	-165.977	0.076828	0.921775	-0.077179	-0.078449	0.100034	22.9128	-0.080454	-0.635356	-0.157446	NaN
399	1.000000	0.931048	7.36897e+06	-57139.1	1005.82	-29737.6	0.000000	0.000000	6.931097	0.065212	NaN	0.000000	0.001643	0.001687	28.0799	0.109960	0.002074	53.0307	169.658	-165.953	-0.013324	0.929793	-0.069177	-0.070432	0.065212	53.0307	-0.070099	-0.343203	-0.190009	NaN
399	1.000000	0.939066	7.36897e+06	-57139.1	1005.82	-29737.6	0.000000	0.000000	6.939115	0.041579	NaN	0.000000	0.001698	0.001738	28.0799	0.073763	0.001877	39.2925	56.0628	-165.333	0.080207	0.937739	-0.061159	-0.062485	0.041579	39.2925	-0.061952	-0.204715	-0.203105	NaN
399	1.000000	0.947102	7.36897e+06	-57139.1	1005.82	-29737.6	0.000000	0.000000	6.947151	0.054235	NaN	0.000000	0.001662	0.001748	28.0803	0.031929	0.001994	16.0155	79.1588	-165.442	0.095285	0.945786	-0.053123	-0.054438	0.054235	16.0155	-0.055663	-0.134710	-0.402603	NaN
399	1.000000	0.955068	7.36897e+06	-57139.1	1005.82	-29737.6	0.000000	0.000000	6.955117	0.060292	NaN	0.000000	0.001657	0.001720	28.0798	0.102856	0.001970	52.2042	-61.9222	-167.781	0.018223	0.953757	-0.045157	-0.046468	0.060292	52.2042	-0.046023	-0.069068	-0.872932	NaN
399	1.000000	0.963075	7.36897e+06	-57139.1	1005.82	-29737.6	0.000000	0.000000	6.963125	0.075367	NaN	0.000000	0.001679	0.001753	28.0799	0.025058	0.001955	12.8179	9.472174	-162.874	0.057907	0.961792	-0.037150	-0.038432	0.075367	12.8179	-0.041560	-0.050446	-1.494011	NaN
399	1.000000	0.971067	7.36897e+06	-57139.1	1005.82	-29737.6	0.000000	0.000000	6.971115	0.024208	NaN	0.000000	0.001674	0.001699	28.0799	0.062294	0.002042	30.51	-167.418	-161.34	0.112106	0.969733	-0.029157	-0.030492	0.024208	30.51	-0.029753	-0.022651	-1.068764	NaN
399	1.000000	0.979088	7.36897e+06	-57139.1	1005.82	-29737.6	0.000000	0.000000	6.979139	0.097139	NaN	0.000000	0.001673	0.001702	28.0797	0.060717	0.002012	30.1803	47.7574	-165.976	0.123834	0.977764	-0.021137	-0.022461	0.097139	30.1803	-0.023550	-0.015472	-6.278378	NaN
399	1.000000	0.987087	7.36897e+06	-57139.1	1005.82	-29737.6	0.000000	0.000000	6.987136	0.046890	NaN	0.000000	0.001708	0.001706	28.08	0.042716	0.002018	21.1726	119.127	-161.969	0.022525	0.985771	-0.013138	-0.014454	0.046890	21.1726	-0.014799	-0.009155	-5.121624	NaN
399	1.000000	0.995082	7.36897e+06	-57139.1	1005.82	-29737.6	0.000000	0.000000	6.995129	0.019716	NaN	0.000000	0.001676	0.001729	28.0798	0.021774	0.001994	10.9182	74.7567	-158.187	-0.004343	0.993790	-0.005143	-0.006435	0.019716	10.9182	-0.006497	-0.004339	-4.544362	NaN
399	1.000000	1.003071	7.36897e+06	-57139.1	1005.82	-29737.6	0.000000	0.000000	7.003283	4.015402	NaN	0.000000	0.001693	0.001716	28.0798	4.775752	0.001886	2531.78	6.540434	-167.145	1.868181	1.001711	0.002846	0.001486	4.015402	2531.78	0.001657	0.001279	3139.01	64674.2
399	2.000000	1.007591	7.36897e+06	-57139.1	1005.82	-29737.6	0.000000	0.000000	7.008338	17.027	NaN	0.000000	0.001661	0.001714	28.0798	10.1673	0.001457	6977.48	1.800958	-170.065	15.8174	1.007235	0.007366	0.007010	17.027	6977.48	0.005536	0.004628	3679.38	93711
399	2.000000	1.009540	7.36897e+06	-57139.1	1005.82	-29737.6	0.000000	0.000000	7.010381	19.2955	NaN	0.000000	0.001645	0.001680	28.0799	13.0933	0.001796	7292.22	6.043867	-173.536	17.7431	1.009239	0.009316	0.009015	19.2955	7292.22	0.007331	0.006363	3032.31	83520.2
399	2.000000	1.011528	7.36897e+06	-57139.1	1005.82	-29737.6	0.000000	0.000000	7.012766	28.9556	NaN	0.000000	0.001661	0.001676	28.0801	15.3133	0.001762	8688.75	5.159672	-173.828	26.891	1.011159	0.011303	0.010935	28.9556	8688.75	0.008804	0.007882	3673.67	89415.8
399	2.000000	1.013520	7.36897e+06	-57139.1	1005.82	-29737.6	0.000000	0.000000	7.015149	38.4622	NaN	0.000000	0.001646	0.001723	28.0798	16.8233	0.001684	9990.44	2.846210	-172.798	38.1311	1.013219	0.013295	0.012994	38.4622	9990.44	0.010408	0.009638	3990.57	92973.4
399	2.000000	1.015536	7.36897e+06	-57139.1	1005.82	-29737.6	0.000000	0.000000	7.017190	39.0404	NaN	0.000000	0.001634	0.001768	28.0799	19.4647	0.001722	11305.8	1.880655	-173.746	37.5186	1.015299	0.015312	0.015074	39.0404	11305.8	0.012722	0.012366	3157.06	92888.1
399	2.000000	1.017516	7.36897e+06	-57139.1	1005.82	-29737.6	0.000000	0.000000	7.019570	48.779	NaN	0.000000	0.001668	0.001762	28.0786	20.5952	0.001738	11849.9	2.386617	-172.882	48.36	1.017178	0.017292	0.016953	48.779	11849.9	0.014204	0.014239	3425.74	90729.7
399	2.000000	1.019582	7.36897e+06	-57139.1	1005.82	-29737.6	0.000000	0.000000	7.021364	42.1739	NaN	0.000000	0.001627	0.001750	28.0786	23.957	0.001779	13464.8	4.274039	-174.159	48.4256	1.019257	0.019357	0.019032	42.1739	13464.8	0.017008	0.018057	2335.54	91547.3
399	2.000000	1.021498	7.36897e+06	-57139.1	1005.82	-29737.6	0.000000	0.000000	7.023569	49.1921	NaN	0.000000	0.001687	0.001769	28.0791	25.3128	0.001822	13891	2.472649	-174.315	45.7039	1.021161	0.021273	0.020936	49.1921	13891	0.018617	0.020416	2409.5	88822.6
399	2.000000	1.023518	7.36897e+06	-57139.1	1005.82	-29737.6	0.000000	0.000000	7.025851	55.5525	NaN	0.000000	0.001661	0.001750	28.0787	27.2708	0.001708	15963.7	4.171317	-178.268	58.1976	1.023201	0.023294	0.022976	55.5525	15963.7	0.020684	0.023628	2351.13	94884.2
399	2.000000	1.025478	7.36897e+06	-57139.1	1005.82	-29737.6	0.000000	0.000000	7.028273	66.7954	NaN	0.000000	0.001700	0.001743	28.0788	29.9211	0.001839	16270.9	4.670765	-179.473	64.5528	1.025211	0.025253	0.024986	66.7954	16270.9	0.022174	0.026074	2561.72	92061.2
399	2.000000	1.027499	7.36897e+06	-57139.1	1005.82	-29737.6	0.000000	0.000000	7.030666	75.8279	NaN	0.000000	0.001693	0.001723	28.0786	31.1168	0.001783	17449.2	5.628550	179.683	78.2548	1.027190	0.027274	0.026965	75.8279	17449.2	0.024015	0.029248	2592.58	93218
399	2.000000	1.029443	7.36897e+06	-57139.1	1005.82	-29737.6	0.000000	0.000000	7.033257	91.5582	NaN	0.000000	0.001692	0.001749	28.0787	33.2837	0.001875	17749.2	5.949623	-179.553	89.9417	1.029085	0.029218	0.028861	91.5582	17749.2	0.025349	0.031654	2892.43	91145.2
399	2.000000	1.031500	7.36897e+06	-57139.1	1005.82	-29737.6	0.000000	0.000000	7.035691	100.734	NaN	0.000000	0.001743	0.001728	28.0786	34.6597	0.001843	18803.6	5.441673	179.722	99.6644	1.031136	0.031275	0.030912	100.734	18803.6	0.027257	0.035250	2857.69	91502.5
399	2.000000	1.033400	7.36897e+06	-57139.1	1005.82	-29737.6	0.000000	0.000000	7.037702	103.422	NaN	0.000000	0.001702	0.001723	28.0785	35.3762	0.001922	18405.7	-0.657226	-174.603	99.9005	1.033118	0.033175	0.032893	103.422	18405.7	0.028961	0.038617	2678.12	85572.9
399	2.000000	1.035444	7.36897e+06	-57139.1	1005.82	-29737.6	0.000000	0.000000	7.040035	110.441	NaN	0.000000	0.001708	0.001755	28.0795	38.293	0.001850	20697.4	2.861759	-178.986	109.154	1.035146	0.035219	0.034922	110.441	20697.4	0.031217	0.043304	2550.36	90871.2
399	2.000000	1.037432	7.36897e+06	-57139.1	1005.82	-29737.6	0.000000	0.000000	7.042304	117.287	NaN	0.000000	0.001669	0.001762	28.0786	39.1065	0.001816	21535.8	5.778165	177.381	112.88	1.037108	0.037207	0.036883	117.287	21535.8	0.033122	0.047464	2471.07	90313.1
399	2.000000	1.039423	7.36897e+06	-57139.1	1005.82	-29737.6	0.000000	0.000000	7.044814	129.887	NaN	0.000000	0.001715	0.001742	28.0786	40.6483	0.001748	23257.7	1.286291	-178.009	127.622	1.039032	0.039199	0.038807	129.887	23257.7	0.035010	0.051770	2508.94	93390.2
399	2.000000	1.041413	7.36897e+06	-57139.1	1005.82	-29737.6	0.000000	0.000000	7.047295	141.802	NaN	0.000000	0.001682	0.001776	28.0786	42.7412	0.001832	23329.2	1.199554	-178.202	136.243	1.041086	0.041189	0.040861	141.802	23329.2	0.036630	0.055610	2549.96	90385.6
399	2.000000	1.043490	7.36897e+06	-57139.1	1005.82	-29737.6	0.000000	0.000000	7.049775	151.62	NaN	0.000000	0.001692	0.001768	28.0783	44.8206	0.001816	24684.8	6.597358	177.18	152.794	1.043130	0.043265	0.042906	151.62	24684.8	0.038659	0.060608	2501.64	91608.8
399	2.000000	1.045478	7.36897e+06	-57139.1	1005.82	-29737.6	0.000000	0.000000	7.052214	162.566	NaN	0.000000	0.001696	0.001777	28.0789	47.5044	0.001964	24185.5	7.885702	176.069	163.442	1.045168	0.045254	0.044943	162.566	24185.5	0.040212	0.064578	2517.34	86953.1
399	2.000000	1.047390	7.36897e+06	-57139.1	1005.82	-29737.6	0.000000	0.000000	7.054134	162.778	NaN	0.000000	0.001670	0.001729	28.0784	46.9783	0.001863	25221.7	2.712071	179.625	158.091	1.046920	0.047165	0.046695	162.778	25221.7	0.042325	0.070174	2319.64	86988.2
399	2.000000	1.049390	7.36897e+06	-57139.1	1005.82	-29737.6	0.000000	0.000000	7.056697	176.445	NaN	0.000000	0.001662	0.001773	28.0781	49.9792	0.001941	25752.2	4.827093	177.066	172.9	1.049109	0.049165	0.048884	176.445	25752.2	0.044027	0.074848	2357.38	85999.9
399	2.000000	1.051528	7.36897e+06	-57139.1	1005.82	-29737.6	0.000000	0.000000	7.058926	178.67	NaN	0.000000	0.001679	0.001726	28.0798	50.4394	0.001883	26781.1	6.380886	176.081	184.126	1.051276	0.051303	0.051051	178.67	26781.1	0.046300	0.081320	2197.11	85802.9
399	2.000000	1.053586	7.36897e+06	-57139.1	1005.82	-29737.6	0.000000	0.000000	7.061597	193.575	NaN	0.000000	0.001692	0.001760	28.0797	49.9358	0.001933	25837.5	6.151477	178.816	200.662	1.053037	0.053361	0.052812	193.575	25837.5	0.047742	0.085562	2262.39	80701.6
399	2.000000	1.055456	7.36897e+06	-57139.1	1005.82	-29737.6	0.000000	0.000000	7.063640	197.761	NaN	0.000000	0.001637	0.001719	28.0805	52.2631	0.001822	28682.3	4.589361	178.598	197.823	1.054996	0.055232	0.054772	197.761	28682.3	0.050060	0.092600	2135.65	86115.5
399	2.000000	1.057421	7.36897e+06	-57139.1	1005.82	-29737.6	0.000000	0.000000	7.066034	208.217	NaN	0.000000	0.001626	0.001726	28.0795	52.8869	0.001818	29083.2	4.762128	176.389	208.023	1.057080	0.057196	0.056855	208.217	29083.2	0.051826	0.098142	2121.59	84818
399	2.000000	1.059405	7.36897e+06	-57139.1	1005.82	-29737.6	0.000000	0.000000	7.068539	220.844	NaN	0.000000	0.001619	0.001715	28.0796	54.0672	0.001898	28482.8	4.687586	177.56	217.953	1.059027	0.059181	0.058802	220.844	28482.8	0.053366	0.103099	2142.05	81045.4
399	2.000000	1.061531	7.36897e+06	-57139.1	1005.82	-29737.6	0.000000	0.000000	7.070686	221.378	NaN	0.000000	0.001626	0.001744	28.0796	55.5335	0.001905	29157.6	5.286092	176.733	226.849	1.061153	0.061306	0.060928	221.378	29157.6	0.055612	0.110545	2002.6	80122.5
399	2.000000	1.063450	7.36897e+06	-57139.1	1005.82	-29737.6	0.000000	0.000000	7.073314	238.621	NaN	0.000000	0.001627	0.001753	28.0795	55.4275	0.001689	32821.8	5.460234	174.564	239.124	1.063177	0.063225	0.062952	238.621	32821.8	0.057772	0.117942	2023.21	87317.6
399	2.000000	1.065360	7.36897e+06	-57139.1	1005.82	-29737.6	0.000000	0.000000	7.075226	238.644	NaN	0.000000	0.001642	0.001742	28.0798	58.2472	0.001808	32209.4	2.809757	177.928	234.174	1.065096	0.065136	0.064872	238.644	32209.4	0.059579	0.124302	1919.88	83467.6
399	2.000000	1.067445	7.36897e+06	-57139.1	1005.82	-29737.6	0.000000	0.000000	7.077599	245.641	NaN	0.000000	0.001614	0.001733	28.0798	59.0894	0.001874	31529.8	0.926930	-179.773	248.059	1.067183	0.067220	0.066958	245.641	31529.8	0.061377	0.130794	1878.09	79652.8
399	2.000000	1.069284	7.36897e+06	-57139.1	1005.82	-29737.6	0.000000	0.000000	7.079939	257.827	NaN	0.000000	0.001605	0.001725	28.0799	61.2965	0.001816	33747.3	2.633861	177.285	251.071	1.069131	0.069059	0.068906	257.827	33747.3	0.063329	0.138016	1868.09	82994.1
399	2.000000	1.071632	7.36897e+06	-57139.1	1005.82	-29737.6	0.000000	0.000000	7.082164	254.839	NaN	0.000000	0.001620	0.001748	28.0799	64.0787	0.001923	33320.2	5.412694	175.565	265.866	1.071280	0.071407	0.071055	254.839	33320.2	0.065671	0.146924	1734.49	79420.8
399	2.000000	1.073463	7.36897e+06	-57139.1	1005.82	-29737.6	0.000000	0.000000	7.084534	267.953	NaN	0.000000	0.001634	0.001739	28.08	64.6591	0.001889	34226.9	2.000614	178.508	269.887	1.073175	0.073238	0.072950	267.953	34226.9	0.067367	0.153540	1745.16	79804.9
399	2.000000	1.075429	7.36897e+06	-57139.1	1005.82	-29737.6	0.000000	0.000000	7.087103	282.595	NaN	0.000000	0.001623	0.001763	28.0798	67.1779	0.001942	34591.1	6.507916	174.248	283.152	1.075168	0.075205	0.074943	282.595	34591.1	0.069078	0.160356	1762.3	78921.4
399	2.000000	1.077414	7.36897e+06	-57139.1	1005.82	-29737.6	0.000000	0.000000	7.089202	285.354	NaN	0.000000	0.001609	0.001718	28.0797	67.3195	0.001917	35126.1	1.334484	178.821	283.413	1.077094	0.077190	0.076870	285.354	35126.1	0.071097	0.168579	1692.7	78163
399	2.000000	1.079329	7.36897e+06	-57139.1	1005.82	-29737.6	0.000000	0.000000	7.092129	309.97	NaN	0.000000	0.001627	0.001764	28.08	68.5509	0.001782	38478.5	2.195236	177.341	304.005	1.079070	0.079104	0.078846	309.97	38478.5	0.073063	0.176769	1753.53	83615.7
399	2.000000	1.081542	7.36897e+06	-57139.1	1005.82	-29737.6	0.000000	0.000000	7.094461	312.851	NaN	0.000000	0.001661	0.001759	28.0797	71.2013	0.001829	38938.4	5.727564	173.919	318.318	1.081134	0.081317	0.080909	312.851	38938.4	0.075291	0.186276	1679.5	82427.5
399	2.000000	1.083381	7.36897e+06	-57139.1	1005.82	-29737.6	0.000000	0.000000	7.096845	326.104	NaN	0.000000	0.001636	0.001795	28.0798	72.7254	0.001875	38783.7	6.251983	173.859	324.586	1.083023	0.083156	0.082798	326.104	38783.7	0.076850	0.193062	1689.11	80644.4
399	2.000000	1.085374	7.36897e+06	-57139.1	1005.82	-29737.6	0.000000	0.000000	7.099400	339.763	NaN	0.000000	0.001602	0.001721	28.0784	74.794	0.001873	39922.2	5.706492	173.91	335.984	1.085019	0.085150	0.084794	339.763	39922.2	0.078767	0.201567	1685.61	81241.6
399	2.000000	1.087376	7.36897e+06	-57139.1	1005.82	-29737.6	0.000000	0.000000	7.101694	346.857	NaN	0.000000	0.001616	0.001743	28.0784	75.4607	0.001955	38607.3	4.588980	174.997	345.175	1.087001	0.087151	0.086777	346.857	38607.3	0.080413	0.209008	1659.54	77154.6
399	2.000000	1.089309	7.36897e+06	-57139.1	1005.82	-29737.6	0.000000	0.000000	7.103752	349.911	NaN	0.000000	0.001640	0.001746	28.0787	76.3657	0.001829	41744.1	1.824665	176.777	342.828	1.089046	0.089084	0.088821	349.911	41744.1	0.082797	0.220007	1590.45	81311.2
399	2.000000	1.091436	7.36897e+06	-57139.1	1005.82	-29737.6	0.000000	0.000000	7.106184	357.307	NaN	0.000000	0.001629	0.001755	28.0785	78.7299	0.001870	42101.3	4.768048	174.022	358.285	1.091191	0.091212	0.090966	357.307	42101.3	0.084846	0.229670	1555.74	80263.2
399	2.000000	1.093440	7.36897e+06	-57139.1	1005.82	-29737.6	0.000000	0.000000	7.108542	365.9	NaN	0.000000	0.001594	0.001748	28.0787	79.0609	0.001841	42938.5	3.672458	175.21	367.971	1.093145	0.093216	0.092921	365.9	42938.5	0.086825	0.239182	1529.79	80215
399	2.000000	1.095382	7.36897e+06	-57139.1	1005.82	-29737.6	0.000000	0.000000	7.111272	385.053	NaN	0.000000	0.001653	0.001768	28.0786	81.4849	0.001784	45666.3	3.954430	174.496	381.733	1.095030	0.095157	0.094805	385.053	45666.3	0.088833	0.249028	1546.23	83607.4
399	2.000000	1.097464	7.36897e+06	-57139.1	1005.82	-29737.6	0.000000	0.000000	7.113924	398.901	NaN	0.000000	0.001658	0.001721	28.0784	81.7415	0.001797	45495.8	2.244090	176.013	401.694	1.097093	0.097240	0.096868	398.901	45495.8	0.090664	0.258159	1545.18	81809.1
399	2.000000	1.099366	7.36897e+06	-57139.1	1005.82	-29737.6	0.000000	0.000000	7.116474	414.682	NaN	0.000000	0.001613	0.001741	28.0787	84.5982	0.001852	45690	3.696405	174.732	412.153	1.099158	0.099141	0.098933	414.682	45690	0.092334	0.266625	1555.3	80843.3
399	2.000000	1.101441	7.36897e+06	-57139.1	1005.82	-29737.6	0.000000	0.000000	7.118805	420.909	NaN	0.000000	0.001635	0.001717	28.0787	87.0936	0.001821	47839	8.083788	170.185	422.039	1.101025	0.101216	0.100800	420.909	47839	0.094617	0.278404	1511.86	82835.7
399	2.000000	1.103375	7.36897e+06	-57139.1	1005.82	-29737.6	0.000000	0.000000	7.121458	438.348	NaN	0.000000	0.001622	0.001732	28.0788	86.9991	0.001732	50226	3.274450	174.037	435.635	1.102990	0.103151	0.102765	438.348	50226	0.096605	0.288855	1517.53	85381
399	2.000000	1.104941	7.36897e+06	-57139.1	1005.82	-29737.6	0.000000	0.000000	7.122967	436.971	NaN	0.000000	0.001607	0.001711	28.0786	90.4934	0.001943	46564.6	5.428299	-7.018586	438.882	1.104737	0.104717	0.104512	436.971	46564.6	0.097679	0.294574	1483.4	78384.8