File: remote_trans/data/nanoindenter/0828-1/data/Data_2025-08-06,11h17m57s/2025-07-22_16-23-58_1_345.txt
2025-07-22, 16:23:58, 1
Index	Phase	Displacement	Time	Pos X	Pos Y	Pos Z	Rot A	Rot B	Piezo Z	Force A	Force B	Gripper	Voltage A	Voltage B	Temperature	Amplitude force	Amplitude pos	Stiffness	Phase shift	Phase excitation	Force A raw	Displacement raw	HMax	HMax raw	Real Force	Real Stiffness	Contact Depth	Area	Hardness	Reduced Mod.
[#]	[#]	[um]	[s]	[um]	[um]	[um]	[m°]	[m°]	[um]	[uN]	[uN]	[V]	[V]	[V]	[°C]	[uN]	[um]	[N/m]	[°]	[°]	[uN]	[um]	[um]	[um]	[uN]	[N/m]	[um]	[um^2]	[MPa]	[MPa]
345	1.000000	0.002789	7.36844e+06	-55889.1	955.818	-29740.9	0.000000	0.000000	6.002793	0.020136	NaN	0.000000	0.001542	0.001726	28.0783	0.036616	0.001036	35.3325	-149.526	-165.285	-0.034017	0.001530	-0.957881	-0.959140	0.020136	35.3325	-0.958308	-6.223896E+12	-3.235333E-15	NaN
345	1.000000	0.010746	7.36844e+06	-55889.1	955.819	-29740.9	0.000000	0.000000	6.010750	0.033163	NaN	0.000000	0.001542	0.001704	28.0783	0.119711	0.000890	134.542	133.513	-166.917	0.122279	0.009441	-0.949924	-0.951230	0.033163	134.542	-0.950109	-4.825056E+12	-6.872998E-15	NaN
345	1.000000	0.018759	7.36844e+06	-55889.1	955.818	-29740.9	0.000000	0.000000	6.018761	-0.004877	NaN	0.000000	0.001558	0.001713	28.0784	0.028661	0.001636	17.5195	89.8815	-166.401	0.033352	0.017447	-0.941911	-0.943224	-0.004877	17.5195	-0.941703	-3.716271E+12	1.312277E-15	NaN
345	1.000000	0.026803	7.36844e+06	-55889.1	955.819	-29740.9	0.000000	0.000000	6.026802	-0.069016	NaN	0.000000	0.001554	0.001716	28.0784	0.103256	0.001784	57.8945	53.6761	-167.355	-0.054857	0.025459	-0.933868	-0.935211	-0.069016	57.8945	-0.932974	-2.833530E+12	2.435682E-14	NaN
345	1.000000	0.034761	7.36844e+06	-55889.1	955.818	-29740.9	0.000000	0.000000	6.034766	0.052000	NaN	0.000000	0.001549	0.001699	28.0782	0.052054	0.001927	27.013	177.652	-168.01	-0.016402	0.033416	-0.925909	-0.927255	0.052000	27.013	-0.927353	-2.379401E+12	-2.185419E-14	NaN
345	1.000000	0.042748	7.36844e+06	-55889.1	955.818	-29740.9	0.000000	0.000000	6.042750	-0.001632	NaN	0.000000	0.001582	0.001743	28.0781	0.064656	0.001986	32.5589	-40.1936	-165.047	-0.037085	0.041501	-0.917923	-0.919170	-0.001632	32.5589	-0.917885	-1.772759E+12	9.204358E-16	NaN
345	1.000000	0.050750	7.36844e+06	-55889.1	955.818	-29740.9	0.000000	0.000000	6.050750	-0.067538	NaN	0.000000	0.001583	0.001720	28.0782	0.014434	0.001945	7.419355	70.8075	-170.936	-0.073550	0.049452	-0.909920	-0.911218	-0.067538	7.419355	-0.903093	-1.119076E+12	6.035146E-14	NaN
345	1.000000	0.058763	7.36844e+06	-55889.1	955.818	-29740.9	0.000000	0.000000	6.058764	-0.027061	NaN	0.000000	0.001547	0.001733	28.0783	0.119454	0.001869	63.9227	94.5168	-167.123	-0.048564	0.057470	-0.901907	-0.903201	-0.027061	63.9227	-0.901590	-1.067941E+12	2.533926E-14	NaN
345	1.000000	0.066782	7.36844e+06	-55889.1	955.818	-29740.9	0.000000	0.000000	6.066784	-0.010043	NaN	0.000000	0.001549	0.001699	28.0783	0.101207	0.002025	49.9758	47.9152	-165.389	-0.007241	0.065438	-0.893888	-0.895233	-0.010043	49.9758	-0.893737	-8.364348E+11	1.200653E-14	NaN
345	1.000000	0.074786	7.36844e+06	-55889.1	955.818	-29740.9	0.000000	0.000000	6.074786	-0.052630	NaN	0.000000	0.001544	0.001760	28.0782	0.029997	0.002003	14.9737	-19.3658	-167.916	-0.084852	0.073424	-0.885885	-0.887247	-0.052630	14.9737	-0.883249	-6.034459E+11	8.721499E-14	NaN
345	1.000000	0.082748	7.36844e+06	-55889.1	955.819	-29740.9	0.000000	0.000000	6.082747	-0.082549	NaN	0.000000	0.001589	0.001753	28.0796	0.095736	0.001911	50.1071	-137.297	-164.19	-0.024359	0.081463	-0.877923	-0.879207	-0.082549	50.1071	-0.876687	-4.919294E+11	1.678065E-13	NaN
345	1.000000	0.090771	7.36844e+06	-55889.1	955.819	-29740.9	0.000000	0.000000	6.090772	-0.037761	NaN	0.000000	0.001587	0.001699	28.0794	0.071136	0.002062	34.5003	97.2357	-164.784	-0.069562	0.089457	-0.869900	-0.871213	-0.037761	34.5003	-0.869079	-3.881325E+11	9.728947E-14	NaN
345	1.000000	0.098763	7.36844e+06	-55889.1	955.818	-29740.9	0.000000	0.000000	6.098762	-0.072967	NaN	0.000000	0.001586	0.001719	28.0793	0.046481	0.002093	22.2087	30.8584	-169.151	-0.104405	0.097440	-0.861908	-0.863231	-0.072967	22.2087	-0.859443	-2.874667E+11	2.538261E-13	NaN
345	1.000000	0.106759	7.36844e+06	-55889.1	955.818	-29740.9	0.000000	0.000000	6.106761	-0.007815	NaN	0.000000	0.001573	0.001711	28.0793	0.113990	0.001990	57.2945	-144.663	-164.607	-0.008413	0.105441	-0.853912	-0.855230	-0.007815	57.2945	-0.853809	-2.411659E+11	3.240322E-14	NaN
345	1.000000	0.114764	7.36844e+06	-55889.1	955.819	-29740.9	0.000000	0.000000	6.114767	0.007567	NaN	0.000000	0.001611	0.001731	28.0794	0.078464	0.002063	38.0315	125.029	-167.234	-0.029057	0.113481	-0.845906	-0.847190	0.007567	38.0315	-0.846055	-1.893718E+11	-3.996090E-14	NaN
345	1.000000	0.122813	7.36844e+06	-55889.1	955.818	-29740.9	0.000000	0.000000	6.122815	-0.007136	NaN	0.000000	0.001579	0.001665	28.0796	0.063457	0.001903	33.3527	-107.341	-166.767	0.013976	0.121467	-0.837857	-0.839203	-0.007136	33.3527	-0.837697	-1.459105E+11	4.890608E-14	NaN
345	1.000000	0.130798	7.36844e+06	-55889.1	955.818	-29740.9	0.000000	0.000000	6.130800	-0.019519	NaN	0.000000	0.001606	0.001715	28.0794	0.055324	0.002014	27.4712	-9.996516	-164.7	-0.051912	0.129449	-0.829872	-0.831221	-0.019519	27.4712	-0.829339	-1.124159E+11	1.736288E-13	NaN
345	1.000000	0.138777	7.36844e+06	-55889.1	955.818	-29740.9	0.000000	0.000000	6.138779	-0.009774	NaN	0.000000	0.001573	0.001708	28.0794	0.087573	0.001958	44.7293	92.1434	-165.422	0.051957	0.137432	-0.821894	-0.823239	-0.009774	44.7293	-0.821730	-8.864749E+10	1.102623E-13	NaN
345	1.000000	0.146749	7.36844e+06	-55889.1	955.817	-29740.9	0.000000	0.000000	6.146750	-0.032375	NaN	0.000000	0.001542	0.001697	28.0794	0.127328	0.002087	61.0038	-69.1349	-166.257	-0.068128	0.145540	-0.813921	-0.815130	-0.032375	61.0038	-0.813523	-6.860691E+10	4.718887E-13	NaN
345	1.000000	0.154817	7.36844e+06	-55889.1	955.818	-29740.9	0.000000	0.000000	6.154820	0.029936	NaN	0.000000	0.001564	0.001697	28.0794	0.026114	0.001857	14.0604	167.352	-164.483	0.036194	0.153452	-0.805854	-0.807218	0.029936	14.0604	-0.807451	-5.675188E+10	-5.274931E-13	NaN
345	1.000000	0.162801	7.36844e+06	-55889.1	955.819	-29740.9	0.000000	0.000000	6.162804	0.002796	NaN	0.000000	0.001563	0.001684	28.0796	0.123113	0.002067	59.574	0.095474	-166.38	0.017522	0.161510	-0.797869	-0.799161	0.002796	59.574	-0.797904	-4.211268E+10	-6.640405E-14	NaN
345	1.000000	0.170794	7.36844e+06	-55889.1	955.818	-29740.9	0.000000	0.000000	6.170797	0.017946	NaN	0.000000	0.001550	0.001678	28.0797	0.046607	0.002074	22.4762	-91.4862	-167.146	0.056295	0.169475	-0.789877	-0.791196	0.017946	22.4762	-0.790475	-3.338423E+10	-5.375713E-13	NaN
345	1.000000	0.178769	7.36844e+06	-55889.1	955.818	-29740.9	0.000000	0.000000	6.178770	-0.054730	NaN	0.000000	0.001557	0.001721	28.0798	0.079843	0.001991	40.1081	59.9012	-167.137	0.023291	0.177512	-0.781901	-0.783159	-0.054730	40.1081	-0.780878	-2.472613E+10	2.213447E-12	NaN
345	1.000000	0.186791	7.36844e+06	-55889.1	955.818	-29740.9	0.000000	0.000000	6.186794	0.009773	NaN	0.000000	0.001567	0.001754	28.0796	0.057443	0.002048	28.0549	-116.841	-164.171	0.044740	0.185493	-0.773880	-0.775177	0.009773	28.0549	-0.774141	-2.002637E+10	-4.880010E-13	NaN
345	1.000000	0.194804	7.36844e+06	-55889.1	955.819	-29740.9	0.000000	0.000000	6.194806	-0.030936	NaN	0.000000	0.001589	0.001729	28.0795	0.034534	0.002024	17.0608	-75.0371	-167.496	-0.045271	0.193509	-0.765866	-0.767161	-0.030936	17.0608	-0.764506	-1.481138E+10	2.088686E-12	NaN
345	1.000000	0.202797	7.36844e+06	-55889.1	955.818	-29740.9	0.000000	0.000000	6.202800	0.014053	NaN	0.000000	0.001554	0.001704	28.0795	0.093476	0.002091	44.6947	152.932	-166.523	-0.033138	0.201503	-0.757873	-0.759167	0.014053	44.6947	-0.758109	-1.212202E+10	-1.159304E-12	NaN
345	1.000000	0.210829	7.36844e+06	-55889.1	955.818	-29740.9	0.000000	0.000000	6.210830	-0.041075	NaN	0.000000	0.001536	0.001733	28.0795	0.039650	0.002109	18.8038	177.662	-166.666	-0.050954	0.209509	-0.749842	-0.751162	-0.041075	18.8038	-0.748203	-8.887118E+9	4.621862E-12	NaN
345	1.000000	0.218793	7.36844e+06	-55889.1	955.817	-29740.9	0.000000	0.000000	6.218795	-0.007462	NaN	0.000000	0.001511	0.001691	28.0783	0.052434	0.001954	26.8339	-95.1855	-166.189	0.003829	0.217541	-0.741877	-0.743130	-0.007462	26.8339	-0.741669	-7.240709E+9	1.030496E-12	NaN
345	1.000000	0.226836	7.36844e+06	-55889.1	955.818	-29740.9	0.000000	0.000000	6.226838	-0.001400	NaN	0.000000	0.001557	0.001701	28.0783	0.019274	0.002003	9.620472	142.218	-166.362	0.020443	0.225519	-0.733835	-0.735152	-0.001400	9.620472	-0.733726	-5.643922E+9	2.479729E-13	NaN
345	1.000000	0.234798	7.36844e+06	-55889.1	955.819	-29740.9	0.000000	0.000000	6.234800	0.000121	NaN	0.000000	0.001521	0.001737	28.0783	0.128209	0.001918	66.8374	91.783	-164.076	0.004150	0.233528	-0.725873	-0.727143	0.000121	66.8374	-0.725874	-4.411284E+9	-2.736730E-14	NaN
345	1.000000	0.242803	7.36844e+06	-55889.1	955.818	-29740.9	0.000000	0.000000	6.242804	-0.033367	NaN	0.000000	0.001545	0.001715	28.0781	0.074669	0.002056	36.3145	-26.7665	-164.297	0.038650	0.241519	-0.717867	-0.719152	-0.033367	36.3145	-0.717178	-3.357263E+9	9.938888E-12	NaN
345	1.000000	0.250806	7.36844e+06	-55889.1	955.818	-29740.9	0.000000	0.000000	6.250806	-0.072183	NaN	0.000000	0.001536	0.001715	28.0782	0.043146	0.002113	20.4151	46.4289	-170.362	-0.054729	0.249527	-0.709864	-0.711143	-0.072183	20.4151	-0.707212	-2.454718E+9	2.940562E-11	NaN
345	1.000000	0.258824	7.36844e+06	-55889.1	955.819	-29740.9	0.000000	0.000000	6.258827	0.027038	NaN	0.000000	0.001561	0.001707	28.0783	0.039261	0.002141	18.3374	-54.969	-165.299	0.031047	0.257539	-0.701847	-0.703132	0.027038	18.3374	-0.702953	-2.147091E+9	-1.259305E-11	NaN
345	1.000000	0.266805	7.36844e+06	-55889.1	955.819	-29740.9	0.000000	0.000000	6.266804	-0.075230	NaN	0.000000	0.001542	0.001709	28.0782	0.066096	0.002030	32.5617	-127.537	-162.884	-0.047017	0.265618	-0.693866	-0.695053	-0.075230	32.5617	-0.692133	-1.527790E+9	4.924072E-11	NaN
345	1.000000	0.274834	7.36844e+06	-55889.1	955.818	-29740.9	0.000000	0.000000	6.274836	0.003464	NaN	0.000000	0.001580	0.001722	28.0783	0.016736	0.002003	8.356374	31.9133	-166.106	0.018389	0.273513	-0.685837	-0.687158	0.003464	8.356374	-0.686148	-1.265509E+9	-2.737415E-12	NaN
345	1.000000	0.282846	7.36844e+06	-55889.1	955.82	-29740.9	0.000000	0.000000	6.282849	0.011936	NaN	0.000000	0.001544	0.001691	28.0779	0.043729	0.001842	23.7382	77.8626	-167.874	0.015699	0.281492	-0.677824	-0.679178	0.011936	23.7382	-0.678201	-9.853834E+8	-1.211355E-11	NaN
345	1.000000	0.290840	7.36844e+06	-55889.1	955.818	-29740.9	0.000000	0.000000	6.290840	-0.048709	NaN	0.000000	0.001595	0.001702	28.0782	0.014078	0.002000	7.039768	-40.4448	-163.407	-0.038762	0.289527	-0.669831	-0.671144	-0.048709	7.039768	-0.664641	-6.427321E+8	7.578489E-11	NaN
345	1.000000	0.298830	7.36844e+06	-55889.1	955.817	-29740.9	0.000000	0.000000	6.298832	-0.009308	NaN	0.000000	0.001577	0.001746	28.078	0.105883	0.001872	56.5654	96.8971	-165.063	0.034943	0.297524	-0.661841	-0.663147	-0.009308	56.5654	-0.661717	-5.861276E+8	1.588044E-11	NaN
345	1.000000	0.306875	7.36844e+06	-55889.1	955.819	-29740.9	0.000000	0.000000	6.306877	-0.026588	NaN	0.000000	0.001575	0.001722	28.0781	0.121008	0.002076	58.2762	161.099	-165.819	0.053229	0.305553	-0.653795	-0.655118	-0.026588	58.2762	-0.653453	-4.516109E+8	5.887285E-11	NaN
345	1.000000	0.314826	7.36844e+06	-55889.1	955.818	-29740.9	0.000000	0.000000	6.314828	-0.016298	NaN	0.000000	0.001539	0.001745	28.0783	0.049986	0.002095	23.8634	171.137	-164.967	0.032116	0.313559	-0.645844	-0.647111	-0.016298	23.8634	-0.645332	-3.494895E+8	4.663461E-11	NaN
345	1.000000	0.322837	7.36844e+06	-55889.1	955.819	-29740.9	0.000000	0.000000	6.322840	0.008393	NaN	0.000000	0.001581	0.001720	28.0781	0.023366	0.002112	11.0658	15.5785	-161.561	0.006033	0.321578	-0.637833	-0.639093	0.008393	11.0658	-0.638402	-2.807757E+8	-2.989081E-11	NaN
345	1.000000	0.330878	7.36844e+06	-55889.1	955.819	-29740.9	0.000000	0.000000	6.330881	0.010931	NaN	0.000000	0.001560	0.001721	28.0782	0.071201	0.002041	34.8848	161.432	-168.836	-0.043895	0.329556	-0.629793	-0.631115	0.010931	34.8848	-0.630028	-2.154787E+8	-5.072996E-11	NaN
345	1.000000	0.338858	7.36844e+06	-55889.1	955.819	-29740.9	0.000000	0.000000	6.338859	-0.039112	NaN	0.000000	0.001573	0.001760	28.0781	0.095844	0.001916	50.0204	149.678	-167.22	-0.061712	0.337585	-0.621812	-0.623085	-0.039112	50.0204	-0.621226	-1.631098E+8	2.397912E-10	NaN
345	1.000000	0.346894	7.36844e+06	-55889.1	955.819	-29740.9	0.000000	0.000000	6.346898	0.032062	NaN	0.000000	0.001568	0.001718	28.0782	0.125278	0.002103	59.5573	160.491	-164.815	0.051192	0.345534	-0.613776	-0.615136	0.032062	59.5573	-0.614180	-1.305009E+8	-2.456868E-10	NaN
345	1.000000	0.354890	7.36844e+06	-55889.1	955.818	-29740.9	0.000000	0.000000	6.354888	-0.097869	NaN	0.000000	0.001585	0.001729	28.0795	0.055714	0.001936	28.7834	-55.5269	-163.508	-0.082196	0.353539	-0.605780	-0.607131	-0.097869	28.7834	-0.603230	-9.224493E+7	1.060972E-9	NaN
345	1.000000	0.362859	7.36844e+06	-55889.1	955.818	-29740.9	0.000000	0.000000	6.362862	0.020587	NaN	0.000000	0.001606	0.001720	28.0796	0.018893	0.002022	9.343514	147.436	-165.386	0.027312	0.361582	-0.597812	-0.599088	0.020587	9.343514	-0.599464	-8.186202E+7	-2.514888E-10	NaN
345	1.000000	0.370881	7.36844e+06	-55889.1	955.818	-29740.9	0.000000	0.000000	6.370884	0.011422	NaN	0.000000	0.001544	0.001714	28.0795	0.133410	0.002218	60.1512	104.236	-164.766	0.068539	0.369587	-0.589789	-0.591084	0.011422	60.1512	-0.589931	-6.049526E+7	-1.888101E-10	NaN
345	1.000000	0.378872	7.36844e+06	-55889.1	955.819	-29740.9	0.000000	0.000000	6.378872	-0.036935	NaN	0.000000	0.001562	0.001701	28.0793	0.007227	0.001998	3.616396	44.6158	-165.047	-0.014607	0.377614	-0.581799	-0.583056	-0.036935	3.616396	-0.574139	-3.662769E+7	1.008379E-9	NaN
345	1.000000	0.386900	7.36844e+06	-55889.1	955.819	-29740.9	0.000000	0.000000	6.386900	-0.063179	NaN	0.000000	0.001559	0.001720	28.0792	0.024313	0.002012	12.0858	71.9778	-169.508	-0.030251	0.385578	-0.573770	-0.575092	-0.063179	12.0858	-0.569850	-3.195614E+7	1.977069E-9	NaN
345	1.000000	0.394870	7.36844e+06	-55889.1	955.818	-29740.9	0.000000	0.000000	6.394869	-0.067504	NaN	0.000000	0.001596	0.001727	28.0792	0.102224	0.002122	48.1803	49.4799	-163.748	-0.089443	0.393540	-0.565801	-0.567130	-0.067504	48.1803	-0.564750	-2.716872E+7	2.484630E-9	NaN
345	1.000000	0.402902	7.36844e+06	-55889.1	955.817	-29740.9	0.000000	0.000000	6.402906	0.025889	NaN	0.000000	0.001606	0.001722	28.0792	0.179809	0.002066	87.028	-80.8907	-167.147	-0.014515	0.401543	-0.557768	-0.559127	0.025889	87.028	-0.557991	-2.190722E+7	-1.181745E-9	NaN
345	1.000000	0.410898	7.36844e+06	-55889.1	955.819	-29740.9	0.000000	0.000000	6.410900	-0.015297	NaN	0.000000	0.001567	0.001730	28.0796	0.068241	0.001818	37.5399	117.721	-165.524	-0.019202	0.409583	-0.549772	-0.551087	-0.015297	37.5399	-0.549467	-1.669432E+7	9.163110E-10	NaN
345	1.000000	0.418902	7.36844e+06	-55889.1	955.818	-29740.9	0.000000	0.000000	6.418905	0.035694	NaN	0.000000	0.001576	0.001756	28.0794	0.053694	0.002145	25.03	-161.198	-167.901	0.039727	0.417625	-0.541769	-0.543045	0.035694	25.03	-0.542838	-1.351191E+7	-2.641652E-9	NaN
345	1.000000	0.426887	7.36844e+06	-55889.1	955.818	-29740.9	0.000000	0.000000	6.426887	-0.055403	NaN	0.000000	0.001568	0.001746	28.0794	0.030815	0.002188	14.0867	-47.5384	-164.259	0.045353	0.425626	-0.533783	-0.535044	-0.055403	14.0867	-0.530834	-9.20773e+06	6.017022E-9	NaN
345	1.000000	0.434930	7.36844e+06	-55889.1	955.819	-29740.9	0.000000	0.000000	6.434931	-0.047863	NaN	0.000000	0.001561	0.001759	28.0793	0.053082	0.002086	25.4435	-76.1206	-166.151	-0.016782	0.433614	-0.525740	-0.527056	-0.047863	25.4435	-0.524330	-7.47812e+06	6.400381E-9	NaN
345	1.000000	0.442873	7.36844e+06	-55889.1	955.818	-29740.9	0.000000	0.000000	6.442874	-0.020367	NaN	0.000000	0.001585	0.001736	28.0792	0.069473	0.001967	35.3276	-17.8718	-168.166	0.006457	0.441619	-0.517798	-0.519051	-0.020367	35.3276	-0.517365	-5.98341e+06	3.403900E-9	NaN
345	1.000000	0.450931	7.36844e+06	-55889.1	955.818	-29740.9	0.000000	0.000000	6.450935	0.029354	NaN	0.000000	0.001531	0.001759	28.0795	0.022827	0.001934	11.8059	103.141	-167.816	0.048707	0.449602	-0.509740	-0.511068	0.029354	11.8059	-0.511604	-4.97462e+06	-5.900851E-9	NaN
345	1.000000	0.458921	7.36844e+06	-55889.1	955.818	-29740.9	0.000000	0.000000	6.458922	-0.031707	NaN	0.000000	0.001561	0.001727	28.0796	0.102181	0.002023	50.5088	-114.464	-166.742	0.018518	0.457619	-0.501749	-0.503051	-0.031707	50.5088	-0.501279	-3.57153e+06	8.877734E-9	NaN
345	1.000000	0.466929	7.36844e+06	-55889.1	955.818	-29740.9	0.000000	0.000000	6.466931	-0.008864	NaN	0.000000	0.001550	0.001735	28.0795	0.043916	0.001963	22.3744	149.662	-164.206	0.024448	0.465607	-0.493741	-0.495063	-0.008864	22.3744	-0.493444	-2.77655e+06	3.192518E-9	NaN
345	1.000000	0.474908	7.36844e+06	-55889.1	955.819	-29740.9	0.000000	0.000000	6.474910	-0.013511	NaN	0.000000	0.001573	0.001739	28.0793	0.100097	0.001937	51.6734	96.381	-166.001	0.029611	0.473579	-0.485762	-0.487091	-0.013511	51.6734	-0.485566	-2.15479e+06	6.270093E-9	NaN
345	1.000000	0.482934	7.36844e+06	-55889.1	955.818	-29740.9	0.000000	0.000000	6.482936	-0.013702	NaN	0.000000	0.001579	0.001762	28.0793	0.077050	0.001964	39.2228	38.9462	-171.527	-0.008670	0.481600	-0.477737	-0.479070	-0.013702	39.2228	-0.477475	-1.66023e+06	8.252877E-9	NaN
345	1.000000	0.490924	7.36844e+06	-55889.1	955.82	-29740.9	0.000000	0.000000	6.490925	-0.032075	NaN	0.000000	0.001567	0.001756	28.0782	0.076475	0.002008	38.0818	149.712	-166.358	-0.075345	0.489630	-0.469747	-0.471040	-0.032075	38.0818	-0.469115	-1.26764e+06	2.530334E-8	NaN
345	1.000000	0.498921	7.36844e+06	-55889.1	955.818	-29740.9	0.000000	0.000000	6.498921	-0.052095	NaN	0.000000	0.001559	0.001771	28.0782	0.130494	0.002064	63.216	14.4404	-167.41	-0.071745	0.497608	-0.461749	-0.463063	-0.052095	63.216	-0.461131	-979298	5.319587E-8	NaN
345	1.000000	0.506941	7.36844e+06	-55889.1	955.818	-29740.9	0.000000	0.000000	6.506942	-0.030032	NaN	0.000000	0.001559	0.001748	28.0784	0.015191	0.002033	7.471556	164.638	-165.545	0.022494	0.505643	-0.453730	-0.455027	-0.030032	7.471556	-0.450715	-698895	4.297113E-8	NaN
345	1.000000	0.514920	7.36844e+06	-55889.1	955.819	-29740.9	0.000000	0.000000	6.514923	0.001369	NaN	0.000000	0.001585	0.001761	28.0782	0.101217	0.001845	54.8579	129.021	-169.259	0.068415	0.513636	-0.445750	-0.447034	0.001369	54.8579	-0.445769	-595297	-2.300153E-9	NaN
345	1.000000	0.522935	7.36844e+06	-55889.1	955.818	-29740.9	0.000000	0.000000	6.522936	-0.037106	NaN	0.000000	0.001561	0.001713	28.0781	0.068170	0.001941	35.1201	-70.7283	-165.994	-0.145532	0.521665	-0.437736	-0.439006	-0.037106	35.1201	-0.436943	-446896	8.303111E-8	NaN
345	1.000000	0.530949	7.36844e+06	-55889.1	955.819	-29740.9	0.000000	0.000000	6.530951	-0.015708	NaN	0.000000	0.001550	0.001741	28.0782	0.052670	0.001981	26.5874	-105.741	-167.367	-0.036347	0.529643	-0.429722	-0.431027	-0.015708	26.5874	-0.429279	-348221	4.510928E-8	NaN
345	1.000000	0.538949	7.36844e+06	-55889.1	955.819	-29740.9	0.000000	0.000000	6.538950	-0.036395	NaN	0.000000	0.001546	0.001706	28.0781	0.105332	0.002019	52.1721	24.8587	-167.146	-0.056373	0.537695	-0.421721	-0.422976	-0.036395	52.1721	-0.421198	-267548	1.360331E-7	NaN
345	1.000000	0.546961	7.36844e+06	-55889.1	955.818	-29740.9	0.000000	0.000000	6.546963	-0.023669	NaN	0.000000	0.001600	0.001702	28.0783	0.053522	0.002020	26.4997	86.47	-163.309	-0.062010	0.545674	-0.413709	-0.414997	-0.023669	26.4997	-0.413039	-204929	1.154996E-7	NaN
345	1.000000	0.554948	7.36844e+06	-55889.1	955.82	-29740.9	0.000000	0.000000	6.554948	-0.055787	NaN	0.000000	0.001568	0.001702	28.0783	0.091516	0.002011	45.5128	76.3273	-168.802	-0.019226	0.553644	-0.405723	-0.407026	-0.055787	45.5128	-0.404803	-156476	3.565190E-7	NaN
345	1.000000	0.562980	7.36844e+06	-55889.1	955.819	-29740.9	0.000000	0.000000	6.562980	-0.037332	NaN	0.000000	0.001581	0.001753	28.0783	0.076044	0.002062	36.8772	81.7113	-166.618	-0.006711	0.561628	-0.397691	-0.399043	-0.037332	36.8772	-0.396932	-120841	3.089360E-7	NaN
345	1.000000	0.570967	7.36844e+06	-55889.1	955.818	-29740.9	0.000000	0.000000	6.570970	0.007992	NaN	0.000000	0.001575	0.001796	28.0781	0.090643	0.001999	45.3441	0.494181	-163.939	0.075903	0.569645	-0.389703	-0.391026	0.007992	45.3441	-0.389836	-95678.4	-8.352949E-8	NaN
345	1.000000	0.578960	7.36844e+06	-55889.1	955.819	-29740.9	0.000000	0.000000	6.578964	0.022420	NaN	0.000000	0.001591	0.001729	28.0783	0.098574	0.002022	48.7416	160.834	-162.099	-0.035420	0.577672	-0.381710	-0.382998	0.022420	48.7416	-0.382055	-74024.2	-3.028726E-7	NaN
345	1.000000	0.586967	7.36844e+06	-55889.1	955.819	-29740.9	0.000000	0.000000	6.586969	-0.020293	NaN	0.000000	0.001583	0.001707	28.0782	0.049307	0.001882	26.2013	84.6277	-166.339	0.024143	0.585722	-0.373703	-0.374948	-0.020293	26.2013	-0.373122	-55089.7	3.683685E-7	NaN
345	1.000000	0.594975	7.36844e+06	-55889.1	955.818	-29740.9	0.000000	0.000000	6.594975	-0.061569	NaN	0.000000	0.001596	0.001726	28.0783	0.053288	0.002003	26.6033	-158.486	-168.379	-0.155235	0.593723	-0.365696	-0.366948	-0.061569	26.6033	-0.363960	-40648.5	1.514656E-6	NaN
345	1.000000	0.602964	7.36844e+06	-55889.1	955.818	-29740.9	0.000000	0.000000	6.602963	-0.087383	NaN	0.000000	0.001560	0.001737	28.0784	0.022255	0.001997	11.1461	-115.566	-163.466	-0.116154	0.601612	-0.357706	-0.359058	-0.087383	11.1461	-0.351827	-27133.3	3.220519E-6	NaN
345	1.000000	0.610968	7.36844e+06	-55889.1	955.819	-29740.9	0.000000	0.000000	6.610968	-0.074139	NaN	0.000000	0.001578	0.001734	28.0782	0.069083	0.002090	33.0582	-162.86	-167.768	-0.128671	0.609705	-0.349702	-0.350965	-0.074139	33.0582	-0.348020	-23892.2	3.103064E-6	NaN
345	1.000000	0.618979	7.36844e+06	-55889.1	955.818	-29740.9	0.000000	0.000000	6.618982	0.002330	NaN	0.000000	0.001549	0.001713	28.0783	0.036191	0.001972	18.357	35.9864	-166.659	0.045834	0.617673	-0.341691	-0.342997	0.002330	18.357	-0.341787	-19390.4	-1.201506E-7	NaN
345	1.000000	0.626966	7.36844e+06	-55889.1	955.818	-29740.9	0.000000	0.000000	6.626967	-0.035764	NaN	0.000000	0.001549	0.001720	28.0794	0.050348	0.002030	24.8018	-16.1122	-167.462	-0.098981	0.625689	-0.333705	-0.334982	-0.035764	24.8018	-0.332623	-14250.9	2.509587E-6	NaN
345	1.000000	0.635001	7.36844e+06	-55889.1	955.818	-29740.9	0.000000	0.000000	6.635002	-0.040193	NaN	0.000000	0.001541	0.001728	28.0795	0.056782	0.002107	26.9464	-61.012	-167.233	-0.094483	0.633720	-0.325669	-0.326951	-0.040193	26.9464	-0.324551	-10852.8	3.703454E-6	NaN
345	1.000000	0.642979	7.36844e+06	-55889.1	955.818	-29740.9	0.000000	0.000000	6.642980	-0.027285	NaN	0.000000	0.001552	0.001744	28.0798	0.060981	0.001972	30.9178	93.8462	-168.752	-0.008923	0.641623	-0.317692	-0.319047	-0.027285	30.9178	-0.317030	-8411.73	3.243627E-6	NaN
345	1.000000	0.650989	7.36844e+06	-55889.1	955.818	-29740.9	0.000000	0.000000	6.650990	-0.048884	NaN	0.000000	0.001506	0.001735	28.0798	0.017696	0.001922	9.206294	-134.945	-164.459	0.028557	0.649685	-0.309681	-0.310986	-0.048884	9.206294	-0.305699	-5719.08	8.547521E-6	NaN
345	1.000000	0.659016	7.36844e+06	-55889.1	955.818	-29740.9	0.000000	0.000000	6.659016	-0.051053	NaN	0.000000	0.001585	0.001737	28.0798	0.042864	0.001871	22.9128	-18.2122	-163.824	-0.057460	0.657653	-0.301654	-0.303017	-0.051053	22.9128	-0.299983	-4703.14	1.085518E-5	NaN
345	1.000000	0.666998	7.36844e+06	-55889.1	955.819	-29740.9	0.000000	0.000000	6.667001	0.006234	NaN	0.000000	0.001525	0.001742	28.0793	0.063757	0.001918	33.2406	47.6699	-165.586	0.048758	0.665683	-0.293672	-0.294988	0.006234	33.2406	-0.293813	-3805	-1.638277E-6	NaN
345	1.000000	0.675025	7.36844e+06	-55889.1	955.817	-29740.9	0.000000	0.000000	6.675027	-0.007933	NaN	0.000000	0.001549	0.001741	28.0793	0.166809	0.002076	80.3327	159.919	-163.788	-0.037764	0.673734	-0.285646	-0.286936	-0.007933	80.3327	-0.285572	-2863.25	2.770688E-6	NaN
345	1.000000	0.683032	7.36844e+06	-55889.1	955.818	-29740.9	0.000000	0.000000	6.683035	0.014910	NaN	0.000000	0.001538	0.001735	28.0794	0.038608	0.002085	18.5198	-123.652	-166.229	-0.083003	0.681691	-0.277639	-0.278979	0.014910	18.5198	-0.278243	-2220.46	-6.714870E-6	NaN
345	1.000000	0.690999	7.36844e+06	-55889.1	955.818	-29740.9	0.000000	0.000000	6.691000	-0.040195	NaN	0.000000	0.001546	0.001740	28.0794	0.075771	0.001983	38.2144	52.2198	-162.53	-0.056619	0.689722	-0.269671	-0.270949	-0.040195	38.2144	-0.268882	-1601.58	2.509707E-5	NaN
345	1.000000	0.699023	7.36844e+06	-55889.1	955.819	-29740.9	0.000000	0.000000	6.699027	0.024652	NaN	0.000000	0.001550	0.001713	28.0798	0.058892	0.001991	29.5865	-28.2646	-165.656	-0.015462	0.697756	-0.261647	-0.262915	0.024652	29.5865	-0.262272	-1269.72	-1.941514E-5	NaN
345	1.000000	0.707042	7.36844e+06	-55889.1	955.818	-29740.9	0.000000	0.000000	6.707043	-0.035720	NaN	0.000000	0.001550	0.001722	28.0794	0.116028	0.001948	59.5765	-140.088	-163.747	-0.104924	0.705708	-0.253628	-0.254962	-0.035720	59.5765	-0.253178	-920.553	3.880330E-5	NaN
345	1.000000	0.715032	7.36844e+06	-55889.1	955.818	-29740.9	0.000000	0.000000	6.715035	0.027418	NaN	0.000000	0.001576	0.001745	28.0794	0.031899	0.001916	16.6486	-30.0728	-171.937	0.078839	0.713710	-0.245639	-0.246961	0.027418	16.6486	-0.246874	-735.436	-3.728181E-5	NaN
345	1.000000	0.723043	7.36844e+06	-55889.1	955.818	-29740.9	0.000000	0.000000	6.723045	-0.016561	NaN	0.000000	0.001564	0.001708	28.0794	0.046859	0.001998	23.4574	99.2406	-166.53	-0.031397	0.721720	-0.237627	-0.238951	-0.016561	23.4574	-0.237098	-517.789	3.198384E-5	NaN
345	1.000000	0.731036	7.36844e+06	-55889.1	955.818	-29740.9	0.000000	0.000000	6.731035	-0.067811	NaN	0.000000	0.001585	0.001731	28.0794	0.029286	0.002067	14.1717	168.695	-170.221	-0.016360	0.729769	-0.229635	-0.230901	-0.067811	14.1717	-0.226046	-346.69	0.000196	NaN
345	1.000000	0.739010	7.36844e+06	-55889.1	955.819	-29740.9	0.000000	0.000000	6.739014	0.045158	NaN	0.000000	0.001574	0.001706	28.0794	0.081524	0.001967	41.4395	106.868	-170.776	-0.043748	0.737765	-0.221660	-0.222905	0.045158	41.4395	-0.222478	-304.235	-0.000148	NaN
345	1.000000	0.747079	7.36844e+06	-55889.1	955.818	-29740.9	0.000000	0.000000	6.747080	-0.026189	NaN	0.000000	0.001596	0.001709	28.0797	0.058625	0.002056	28.5126	-27.098	-167.112	0.028632	0.745705	-0.213591	-0.214965	-0.026189	28.5126	-0.212902	-213.663	0.000123	NaN
345	1.000000	0.755051	7.36844e+06	-55889.1	955.818	-29740.9	0.000000	0.000000	6.755053	-0.027338	NaN	0.000000	0.001612	0.001685	28.0797	0.030460	0.002052	14.8454	-34.5615	-168.227	-0.038317	0.753737	-0.205619	-0.206933	-0.027338	14.8454	-0.204238	-154.569	0.000177	NaN
345	1.000000	0.763039	7.36844e+06	-55889.1	955.818	-29740.9	0.000000	0.000000	6.763040	-0.017946	NaN	0.000000	0.001609	0.001707	28.0782	0.028934	0.001975	14.6502	8.500693	-166.284	-0.034010	0.761733	-0.197632	-0.198938	-0.017946	14.6502	-0.196713	-116.29	0.000154	NaN
345	1.000000	0.771061	7.36844e+06	-55889.1	955.819	-29740.9	0.000000	0.000000	6.771062	-0.025397	NaN	0.000000	0.001615	0.001676	28.0781	0.062790	0.001956	32.0961	85.669	-166.751	-0.059054	0.769741	-0.189609	-0.190930	-0.025397	32.0961	-0.189016	-86.6116	0.000293	NaN
345	1.000000	0.779059	7.36844e+06	-55889.1	955.818	-29740.9	0.000000	0.000000	6.779060	-0.041609	NaN	0.000000	0.001622	0.001703	28.0782	0.035191	0.002090	16.8372	26.0501	-164.483	-0.060581	0.777758	-0.181612	-0.182912	-0.041609	16.8372	-0.179758	-60.4436	0.000688	NaN
345	1.000000	0.787039	7.36844e+06	-55889.1	955.818	-29740.9	0.000000	0.000000	6.787040	-0.022745	NaN	0.000000	0.001601	0.001715	28.0784	0.161566	0.002138	75.5838	131.557	-170.184	0.019723	0.785734	-0.173632	-0.174936	-0.022745	75.5838	-0.173406	-47.0485	0.000483	NaN
345	1.000000	0.795061	7.36844e+06	-55889.1	955.818	-29740.9	0.000000	0.000000	6.795061	-0.076801	NaN	0.000000	0.001604	0.001692	28.0781	0.099300	0.001928	51.504	136.055	-168.714	-0.078363	0.793720	-0.165609	-0.166950	-0.076801	51.504	-0.164491	-32.9122	0.002334	NaN
345	1.000000	0.803077	7.36844e+06	-55889.1	955.818	-29740.9	0.000000	0.000000	6.803077	-0.040946	NaN	0.000000	0.001596	0.001729	28.0782	0.096474	0.001998	48.2905	12.5417	-167.355	-0.085380	0.801774	-0.157594	-0.158896	-0.040946	48.2905	-0.156958	-24.195	0.001692	NaN
345	1.000000	0.811051	7.36844e+06	-55889.1	955.817	-29740.9	0.000000	0.000000	6.811052	-0.035533	NaN	0.000000	0.001575	0.001690	28.0784	0.066123	0.001991	33.2112	-41.6631	-169.07	-0.046131	0.809717	-0.149619	-0.150953	-0.035533	33.2112	-0.148817	-17.2343	0.002062	NaN
345	1.000000	0.819082	7.36844e+06	-55889.1	955.818	-29740.9	0.000000	0.000000	6.819083	-0.044457	NaN	0.000000	0.001623	0.001729	28.0783	0.075088	0.002003	37.4792	177.242	-168.993	0.030843	0.817820	-0.141588	-0.142850	-0.044457	37.4792	-0.140699	-12.1921	0.003646	NaN
345	1.000000	0.827082	7.36844e+06	-55889.1	955.819	-29740.9	0.000000	0.000000	6.827084	0.004850	NaN	0.000000	0.001587	0.001769	28.0782	0.079083	0.002030	38.9503	26.6675	-166.961	-0.025503	0.825739	-0.133589	-0.134931	0.004850	38.9503	-0.133682	-8.975853	-0.000540	NaN
345	1.000000	0.835079	7.36844e+06	-55889.1	955.818	-29740.9	0.000000	0.000000	6.835081	-0.015278	NaN	0.000000	0.001609	0.001744	28.0783	0.116873	0.002055	56.8807	46.4104	-167.196	0.065929	0.833752	-0.125591	-0.126919	-0.015278	56.8807	-0.125390	-6.190188	0.002468	NaN
345	1.000000	0.843098	7.36844e+06	-55889.1	955.819	-29740.9	0.000000	0.000000	6.843102	0.044512	NaN	0.000000	0.001613	0.001744	28.0786	0.033658	0.001824	18.4572	73.948	-163.974	0.089110	0.841741	-0.117572	-0.118929	0.044512	18.4572	-0.119381	-4.694323	-0.009482	NaN
345	1.000000	0.851109	7.36844e+06	-55889.1	955.819	-29740.9	0.000000	0.000000	6.851114	0.056785	NaN	0.000000	0.001599	0.001757	28.0784	0.036372	0.002001	18.181	65.4472	-166.053	0.034475	0.849691	-0.109561	-0.110979	0.056785	18.181	-0.111904	-3.294853	-0.017235	NaN
345	1.000000	0.859070	7.36844e+06	-55889.1	955.818	-29740.9	0.000000	0.000000	6.859070	-0.057461	NaN	0.000000	0.001612	0.001725	28.0783	0.124375	0.002062	60.3221	-55.5476	-167.721	-0.047102	0.857754	-0.101600	-0.102917	-0.057461	60.3221	-0.100886	-1.911448	0.030061	NaN
345	1.000000	0.867094	7.36844e+06	-55889.1	955.818	-29740.9	0.000000	0.000000	6.867095	-0.033151	NaN	0.000000	0.001564	0.001705	28.0786	0.036210	0.002101	17.2322	14.6985	-165.677	0.023790	0.865787	-0.093576	-0.094883	-0.033151	17.2322	-0.092133	-1.212150	0.027349	NaN
345	1.000000	0.875089	7.36844e+06	-55889.1	955.818	-29740.9	0.000000	0.000000	6.875091	-0.007881	NaN	0.000000	0.001597	0.001736	28.0783	0.107995	0.002011	53.6893	136.944	-164.155	0.007581	0.873754	-0.085581	-0.086917	-0.007881	53.6893	-0.085471	-0.843464	0.009344	NaN
345	1.000000	0.883094	7.36844e+06	-55889.1	955.818	-29740.9	0.000000	0.000000	6.883095	-0.023012	NaN	0.000000	0.001591	0.001748	28.0785	0.011684	0.002084	5.606076	-108.269	-168.953	-0.015867	0.881770	-0.077576	-0.078901	-0.023012	5.606076	-0.074498	-0.448236	0.051339	NaN
345	1.000000	0.891092	7.36844e+06	-55889.1	955.819	-29740.9	0.000000	0.000000	6.891090	-0.113853	NaN	0.000000	0.001590	0.001721	28.0782	0.027806	0.002022	13.7537	35.9573	-167.797	-0.078306	0.889813	-0.069578	-0.070858	-0.113853	13.7537	-0.063370	-0.224443	0.507271	NaN
345	1.000000	0.899100	7.36844e+06	-55889.1	955.818	-29740.9	0.000000	0.000000	6.899103	-0.006197	NaN	0.000000	0.001617	0.001695	28.0796	0.064665	0.002093	30.8969	120.756	-172.626	-0.009442	0.897808	-0.061570	-0.062862	-0.006197	30.8969	-0.061420	-0.197711	0.031344	NaN
345	1.000000	0.907126	7.36844e+06	-55889.1	955.818	-29740.9	0.000000	0.000000	6.907128	-0.019376	NaN	0.000000	0.001588	0.001712	28.0799	0.013724	0.002072	6.624062	107.254	-165.895	-0.028118	0.905789	-0.053544	-0.054882	-0.019376	6.624062	-0.051351	-0.100225	0.193328	NaN
345	1.000000	0.915110	7.36844e+06	-55889.1	955.818	-29740.9	0.000000	0.000000	6.915113	0.011178	NaN	0.000000	0.001612	0.001726	28.0796	0.023521	0.001973	11.9191	88.4455	-164.654	-0.025474	0.913729	-0.045560	-0.046941	0.011178	11.9191	-0.046264	-0.070246	-0.159134	NaN
345	1.000000	0.923101	7.36844e+06	-55889.1	955.818	-29740.9	0.000000	0.000000	6.923102	-0.019391	NaN	0.000000	0.001613	0.001698	28.0797	0.047716	0.002011	23.7331	-27.3728	-165.688	-0.060164	0.921818	-0.037570	-0.038852	-0.019391	23.7331	-0.036957	-0.036608	0.529706	NaN
345	1.000000	0.931093	7.36844e+06	-55889.1	955.818	-29740.9	0.000000	0.000000	6.931093	-0.071708	NaN	0.000000	0.001609	0.001703	28.0796	0.111630	0.001991	56.0639	-129.486	-166.994	0.004256	0.929797	-0.029577	-0.030874	-0.071708	56.0639	-0.028618	-0.021077	3.402269	NaN
345	1.000000	0.939096	7.36844e+06	-55889.1	955.818	-29740.9	0.000000	0.000000	6.939096	-0.050193	NaN	0.000000	0.001620	0.001761	28.0797	0.070465	0.001978	35.6217	76.1861	-167.733	-0.029827	0.937840	-0.021575	-0.022830	-0.050193	35.6217	-0.020518	-0.012948	3.876615	NaN
345	1.000000	0.947154	7.36844e+06	-55889.1	955.818	-29740.9	0.000000	0.000000	6.947154	-0.071607	NaN	0.000000	0.001634	0.001683	28.0798	0.052500	0.001918	27.3744	-131.679	-167.075	-0.094783	0.945825	-0.013516	-0.014845	-0.071607	27.3744	-0.011554	-0.007274	9.844023	NaN
345	1.000000	0.955159	7.36844e+06	-55889.1	955.818	-29740.9	0.000000	0.000000	6.955163	0.056393	NaN	0.000000	0.001687	0.001697	28.0795	0.058959	0.001861	31.6773	-6.823405	-167.282	0.022855	0.953789	-0.005512	-0.006882	0.056393	31.6773	-0.006847	-0.004549	-12.397	NaN
345	1.000000	0.963140	7.36844e+06	-55889.1	955.817	-29740.9	0.000000	0.000000	6.963156	0.332341	NaN	0.000000	0.001711	0.001727	28.0794	0.696793	0.001863	374.093	8.900575	-167.86	-0.050961	0.961841	0.002470	0.001170	0.332341	374.093	0.001803	0.001397	237.975	9145.9
345	1.000000	0.971030	7.36844e+06	-55889.1	955.818	-29740.9	0.000000	0.000000	6.971357	7.886332	NaN	0.000000	0.001683	0.001714	28.0795	7.927720	0.001573	5040.41	8.801961	-172.697	6.656034	0.969867	0.010360	0.009197	7.886332	5040.41	0.009187	0.008291	951.146	50573.8
345	2.000000	0.973729	7.36844e+06	-55889.1	955.817	-29740.9	0.000000	0.000000	6.974228	12.0694	NaN	0.000000	0.001679	0.001736	28.0797	11.6919	0.001807	6469.85	11.5641	-176.622	12.0137	0.973378	0.013059	0.012708	12.0694	6469.85	0.011660	0.011085	1088.81	56143.7
345	2.000000	0.975736	7.36844e+06	-55889.1	955.817	-29740.9	0.000000	0.000000	6.976377	15.5384	NaN	0.000000	0.001661	0.001700	28.0797	14.397	0.001733	8308.13	4.884965	-175.276	14.4718	0.975399	0.015065	0.014729	15.5384	8308.13	0.013662	0.013543	1147.35	65226
345	2.000000	0.977634	7.36844e+06	-55889.1	955.818	-29740.9	0.000000	0.000000	6.978372	17.8824	NaN	0.000000	0.001698	0.001694	28.0795	15.8116	0.001600	9882.12	6.550255	-179.002	16.5494	0.977345	0.016963	0.016675	17.8824	9882.12	0.015606	0.016102	1110.54	71150.5
345	2.000000	0.979689	7.36844e+06	-55889.1	955.817	-29740.9	0.000000	0.000000	6.980555	20.9988	NaN	0.000000	0.001679	0.001689	28.0797	19.0854	0.001795	10630.6	5.468474	-177.039	20.7252	0.979362	0.019019	0.018692	20.9988	10630.6	0.017537	0.018819	1115.84	70799.9
345	2.000000	0.981654	7.36844e+06	-55889.1	955.817	-29740.9	0.000000	0.000000	6.982726	26.0069	NaN	0.000000	0.001664	0.001688	28.0796	20.4147	0.001694	12050.2	1.729404	-175.073	24.9524	0.981313	0.020983	0.020643	26.0069	12050.2	0.019365	0.021554	1206.59	74989.9
345	2.000000	0.983633	7.36844e+06	-55889.1	955.818	-29740.9	0.000000	0.000000	6.984899	30.7067	NaN	0.000000	0.001613	0.001690	28.0799	22.6565	0.001759	12879.4	5.196870	-178.397	30.0763	0.983249	0.022963	0.022579	30.7067	12879.4	0.021175	0.024422	1257.34	75297.2
345	2.000000	0.985637	7.36844e+06	-55889.1	955.817	-29740.9	0.000000	0.000000	6.987070	34.7849	NaN	0.000000	0.001578	0.001672	28.0794	25.3523	0.001931	13131.2	4.325607	-176.945	33.6649	0.985341	0.024966	0.024671	34.7849	13131.2	0.022980	0.027442	1267.56	72421.6
345	2.000000	0.987603	7.36844e+06	-55889.1	955.818	-29740.9	0.000000	0.000000	6.989286	40.8573	NaN	0.000000	0.001599	0.001731	28.0785	26.7179	0.001718	15552.7	3.353680	-179.15	38.8874	0.987273	0.026932	0.026602	40.8573	15552.7	0.024962	0.030947	1320.24	80773.9
345	2.000000	0.989623	7.36844e+06	-55889.1	955.817	-29740.9	0.000000	0.000000	6.991375	42.5148	NaN	0.000000	0.001575	0.001678	28.0785	29.3562	0.001766	16625.5	4.080205	179.86	41.6218	0.989353	0.028953	0.028682	42.5148	16625.5	0.027035	0.034822	1220.92	81399.5
345	2.000000	0.991569	7.36844e+06	-55889.1	955.818	-29740.9	0.000000	0.000000	6.993663	50.8249	NaN	0.000000	0.001611	0.001728	28.0784	30.3871	0.001791	16966.1	1.335223	-177.145	47.604	0.991231	0.030899	0.030560	50.8249	16966.1	0.028652	0.037996	1337.63	79521.7
345	2.000000	0.993565	7.36844e+06	-55889.1	955.817	-29740.9	0.000000	0.000000	6.995933	57.4995	NaN	0.000000	0.001586	0.001740	28.0783	33.3493	0.001747	19086.5	6.382405	176.244	54.8537	0.993263	0.032894	0.032592	57.4995	19086.5	0.030635	0.042070	1366.75	85018.2
345	2.000000	0.995622	7.36844e+06	-55889.1	955.818	-29740.9	0.000000	0.000000	6.998171	61.9054	NaN	0.000000	0.001609	0.001704	28.0781	34.6815	0.001726	20089.5	3.740468	179.073	61.8317	0.995276	0.034951	0.034606	61.9054	20089.5	0.032640	0.046393	1334.36	85214.5
345	2.000000	0.997589	7.36844e+06	-55889.1	955.819	-29740.9	0.000000	0.000000	7.000260	64.8541	NaN	0.000000	0.001600	0.001733	28.0784	37.1278	0.001856	20009.4	4.972964	177.9	63.9831	0.997343	0.036919	0.036673	64.8541	20009.4	0.034488	0.050560	1282.71	81302.3
345	2.000000	0.999600	7.36844e+06	-55889.1	955.818	-29740.9	0.000000	0.000000	7.002538	71.3687	NaN	0.000000	0.001628	0.001740	28.0783	39.5167	0.001968	20084.3	3.944445	178.369	70.1933	0.999301	0.038929	0.038631	71.3687	20084.3	0.036264	0.054731	1304	78435.8
345	2.000000	1.001585	7.36844e+06	-55889.1	955.818	-29740.9	0.000000	0.000000	7.005039	83.9073	NaN	0.000000	0.001640	0.001714	28.0783	40.2181	0.001778	22613.9	3.488903	178.05	82.3504	1.001206	0.040914	0.040536	83.9073	22613.9	0.038132	0.059289	1415.23	84852
345	2.000000	1.003587	7.36844e+06	-55889.1	955.819	-29740.9	0.000000	0.000000	7.007187	87.4553	NaN	0.000000	0.001636	0.001719	28.0787	42.1681	0.001906	22124	6.782741	175.808	87.9103	1.003257	0.042916	0.042586	87.4553	22124	0.039952	0.063904	1368.55	79960.2
345	2.000000	1.005608	7.36844e+06	-55889.1	955.819	-29740.9	0.000000	0.000000	7.009476	93.9488	NaN	0.000000	0.001628	0.001728	28.0783	43.5053	0.001870	23268.1	4.201095	178.399	93.819	1.005246	0.044938	0.044575	93.9488	23268.1	0.041910	0.069057	1360.46	80896.9
345	2.000000	1.007583	7.36844e+06	-55889.1	955.819	-29740.9	0.000000	0.000000	7.011718	100.446	NaN	0.000000	0.001615	0.001731	28.0786	45.1066	0.001775	25406.5	4.784856	175.763	98.7731	1.007333	0.046912	0.046663	100.446	25406.5	0.043947	0.074627	1345.98	84971
345	2.000000	1.009598	7.36844e+06	-55889.1	955.82	-29740.9	0.000000	0.000000	7.014074	108.748	NaN	0.000000	0.001592	0.001754	28.0782	47.4965	0.001743	27253.7	4.140046	175.219	106.27	1.009289	0.048927	0.048619	108.748	27253.7	0.045935	0.080262	1354.91	87890.7
345	2.000000	1.011561	7.36844e+06	-55889.1	955.82	-29740.9	0.000000	0.000000	7.016484	119.61	NaN	0.000000	0.001590	0.001692	28.0782	48.5192	0.001786	27160.2	3.814617	175.542	117.363	1.011340	0.050891	0.050670	119.61	27160.2	0.047588	0.085104	1405.46	85061.2
345	2.000000	1.013619	7.36844e+06	-55889.1	955.819	-29740.9	0.000000	0.000000	7.018748	124.629	NaN	0.000000	0.001621	0.001734	28.0786	50.6304	0.001763	28726.2	7.972023	172.397	126.527	1.013200	0.052948	0.052530	124.629	28726.2	0.049694	0.091470	1362.51	86778.3
345	2.000000	1.015552	7.36844e+06	-55889.1	955.82	-29740.9	0.000000	0.000000	7.021144	135.875	NaN	0.000000	0.001640	0.001712	28.0783	52.0637	0.001866	27906.1	2.574207	177.913	133.077	1.015226	0.054881	0.054556	135.875	27906.1	0.051230	0.096252	1411.66	82180.4
345	2.000000	1.017578	7.36844e+06	-55889.1	955.82	-29740.9	0.000000	0.000000	7.023468	143.126	NaN	0.000000	0.001677	0.001746	28.0792	54.4461	0.001814	30011.2	5.446173	173.603	142.779	1.017192	0.056907	0.056521	143.126	30011.2	0.053331	0.102985	1389.78	85441.6
345	2.000000	1.019537	7.36844e+06	-55889.1	955.819	-29740.9	0.000000	0.000000	7.025677	149.18	NaN	0.000000	0.001680	0.001744	28.0783	56.3159	0.001687	33382.4	3.786000	174.162	145.507	1.019276	0.058867	0.058605	149.18	33382.4	0.055515	0.110219	1353.49	91867.8
345	2.000000	1.021555	7.36844e+06	-55889.1	955.82	-29740.9	0.000000	0.000000	7.028096	158.95	NaN	0.000000	0.001678	0.001681	28.0792	57.3994	0.001737	33036.7	5.351200	172.649	156.979	1.021242	0.060884	0.060571	158.95	33036.7	0.057276	0.116221	1367.65	88537.3
345	2.000000	1.023528	7.36844e+06	-55889.1	955.82	-29740.9	0.000000	0.000000	7.030421	167.48	NaN	0.000000	0.001682	0.001705	28.0797	59.5537	0.001770	33654.6	4.755933	173.103	164.065	1.023301	0.062858	0.062630	167.48	33654.6	0.059126	0.122692	1365.05	87782.9
345	2.000000	1.025534	7.36844e+06	-55889.1	955.82	-29740.9	0.000000	0.000000	7.033004	181.537	NaN	0.000000	0.001686	0.001677	28.0795	61.1684	0.001729	35384.1	3.417138	174.482	179.033	1.025280	0.064863	0.064610	181.537	35384.1	0.061015	0.129474	1402.11	89844.1
345	2.000000	1.027478	7.36844e+06	-55889.1	955.821	-29740.9	0.000000	0.000000	7.035253	188.921	NaN	0.000000	0.001675	0.001689	28.0805	63.8363	0.001950	32744.3	8.149046	170.294	184.603	1.027192	0.066808	0.066522	188.921	32744.3	0.062481	0.134854	1400.93	81466.1
345	2.000000	1.029505	7.36844e+06	-55889.1	955.819	-29740.9	0.000000	0.000000	7.037707	199.313	NaN	0.000000	0.001665	0.001702	28.0795	64.211	0.001849	34730.1	2.996331	175.096	194.214	1.029158	0.068834	0.068488	199.313	34730.1	0.064530	0.142551	1398.19	84041.5
345	2.000000	1.031585	7.36844e+06	-55889.1	955.819	-29740.9	0.000000	0.000000	7.040203	209.421	NaN	0.000000	0.001591	0.001729	28.0795	64.8534	0.001659	39097.4	5.237031	171.676	209.098	1.031265	0.070915	0.070594	209.421	39097.4	0.066898	0.151698	1380.51	91713.2
345	2.000000	1.033552	7.36844e+06	-55889.1	955.82	-29740.9	0.000000	0.000000	7.042591	219.651	NaN	0.000000	0.001603	0.001702	28.0796	67.9395	0.001958	34696.9	4.051544	174.066	218.758	1.033209	0.072882	0.072538	219.651	34696.9	0.068134	0.156581	1402.8	80111.5
345	2.000000	1.035577	7.36844e+06	-55889.1	955.82	-29740.9	0.000000	0.000000	7.045004	229.078	NaN	0.000000	0.001572	0.001712	28.0793	69.9326	0.001872	37352.7	8.935816	168.699	228.531	1.035155	0.074907	0.074485	229.078	37352.7	0.070307	0.165341	1385.49	83927.8
345	2.000000	1.037609	7.36844e+06	-55889.1	955.82	-29740.9	0.000000	0.000000	7.047570	242.047	NaN	0.000000	0.001611	0.001676	28.0797	70.27	0.001821	38588.2	10.0481	168.797	244.199	1.037207	0.076939	0.076537	242.047	38588.2	0.072235	0.173297	1396.72	84690.1
345	2.000000	1.039565	7.36844e+06	-55889.1	955.82	-29740.9	0.000000	0.000000	7.050034	254.42	NaN	0.000000	0.001587	0.001665	28.0794	72.4362	0.001859	38974.5	3.669889	175.142	254.192	1.039107	0.078895	0.078437	254.42	38974.5	0.073999	0.180734	1407.7	83759.4
345	2.000000	1.041592	7.36844e+06	-55889.1	955.819	-29740.9	0.000000	0.000000	7.052500	265.083	NaN	0.000000	0.001537	0.001676	28.0795	73.0099	0.001683	43374.3	2.925068	173.446	267.326	1.041283	0.080922	0.080613	265.083	43374.3	0.076338	0.190821	1389.17	90717.7
345	2.000000	1.043561	7.36844e+06	-55889.1	955.819	-29740.9	0.000000	0.000000	7.054861	274.619	NaN	0.000000	0.001521	0.001700	28.0796	76.275	0.001721	44309.1	5.433572	171.054	277.449	1.043240	0.082891	0.082569	274.619	44309.1	0.078242	0.199223	1378.45	90697.6
345	2.000000	1.045574	7.36844e+06	-55889.1	955.819	-29740.9	0.000000	0.000000	7.057588	291.992	NaN	0.000000	0.001554	0.001700	28.0794	77.6615	0.001723	45070.2	3.715993	172.823	290.276	1.045161	0.084903	0.084491	291.992	45070.2	0.080044	0.207329	1408.35	90434.2
345	2.000000	1.047521	7.36844e+06	-55889.1	955.821	-29740.9	0.000000	0.000000	7.060074	305.08	NaN	0.000000	0.001542	0.001699	28.0796	80.0534	0.001741	45971	7.942479	168.392	302.774	1.047140	0.086850	0.086470	305.08	45971	0.081873	0.215711	1414.3	90431.7
345	2.000000	1.049480	7.36844e+06	-55889.1	955.82	-29740.9	0.000000	0.000000	7.062152	307.971	NaN	0.000000	0.001567	0.001673	28.0795	82.8271	0.001776	46647.1	6.857641	169.079	303.847	1.049103	0.088810	0.088432	307.971	46647.1	0.083858	0.224985	1368.85	89850.6
345	2.000000	1.051529	7.36844e+06	-55889.1	955.82	-29740.9	0.000000	0.000000	7.064930	325.683	NaN	0.000000	0.001529	0.001722	28.0797	82.7837	0.001755	47169.4	4.239653	171.822	323.614	1.051134	0.090859	0.090464	325.683	47169.4	0.085681	0.233659	1393.84	89154.2
345	2.000000	1.053413	7.36844e+06	-55889.1	955.819	-29740.9	0.000000	0.000000	7.067049	331.406	NaN	0.000000	0.001529	0.001716	28.0795	85.9995	0.001853	46419.1	2.241066	174.638	324.101	1.053058	0.092742	0.092388	331.406	46419.1	0.087388	0.241924	1369.88	86224.6
345	2.000000	1.055499	7.36844e+06	-55889.1	955.819	-29740.9	0.000000	0.000000	7.069801	347.578	NaN	0.000000	0.001596	0.001768	28.0787	87.9268	0.001787	49197.9	5.013435	171.206	344.631	1.055205	0.094829	0.094535	347.578	49197.9	0.089530	0.252486	1376.63	89454.4
345	2.000000	1.057465	7.36844e+06	-55889.1	955.82	-29740.9	0.000000	0.000000	7.072084	355.316	NaN	0.000000	0.001587	0.001712	28.0783	89.948	0.001857	48445.8	8.520872	167.568	350.847	1.057083	0.096794	0.096412	355.316	48445.8	0.091293	0.261336	1359.61	86582.5
345	2.000000	1.059495	7.36844e+06	-55889.1	955.82	-29740.9	0.000000	0.000000	7.074677	368.971	NaN	0.000000	0.001600	0.001725	28.0784	92.0339	0.001765	52133.4	4.197294	171.035	367.964	1.059238	0.098825	0.098568	368.971	52133.4	0.093516	0.272697	1353.05	91211.4
345	2.000000	1.061603	7.36844e+06	-55889.1	955.82	-29740.9	0.000000	0.000000	7.077365	383.072	NaN	0.000000	0.001615	0.001718	28.0788	91.8189	0.001742	52696.9	2.118429	173.049	386.801	1.061315	0.100933	0.100645	383.072	52696.9	0.095481	0.282924	1353.98	90515.7
345	2.000000	1.063501	7.36844e+06	-55889.1	955.82	-29740.9	0.000000	0.000000	7.079953	399.845	NaN	0.000000	0.001626	0.001753	28.0784	95.3682	0.001736	54920.3	6.166806	168.969	396.799	1.063147	0.102831	0.102476	399.845	54920.3	0.097370	0.292927	1365	92709.9
345	2.000000	1.065632	7.36844e+06	-55889.1	955.82	-29740.9	0.000000	0.000000	7.082399	407.523	NaN	0.000000	0.001646	0.001725	28.0785	97.8693	0.001792	54622.4	4.332245	171.247	413.449	1.065145	0.104961	0.104475	407.523	54622.4	0.099366	0.303667	1342.01	90561.9
345	2.000000	1.067415	7.36844e+06	-55889.1	955.82	-29740.9	0.000000	0.000000	7.084975	426.787	NaN	0.000000	0.001557	0.001749	28.0783	99.303	0.001828	54338.2	4.577778	170.606	420.67	1.067151	0.106745	0.106480	426.787	54338.2	0.100854	0.311795	1368.81	88908.6
345	2.000000	1.069458	7.36844e+06	-55889.1	955.819	-29740.9	0.000000	0.000000	7.087669	442.63	NaN	0.000000	0.001598	0.001728	28.0783	102.426	0.001802	56841.2	4.832215	169.982	439.564	1.069172	0.108787	0.108502	442.63	56841.2	0.102947	0.323396	1368.69	91320.7
345	2.000000	1.070595	7.36844e+06	-55889.1	955.82	-29740.9	0.000000	0.000000	7.088974	446.7	NaN	0.000000	0.001629	0.001754	28.078	103.383	0.001713	60354.6	8.201383	166.242	451.643	1.070238	0.109925	0.109567	446.7	60354.6	0.104374	0.331420	1347.84	95784.3