File: remote_trans/data/nanoindenter/0828-1/data/Data_2025-08-06,11h17m57s/2025-07-22_16-23-58_1_1141.txt
2025-07-22, 16:23:58, 1
Index	Phase	Displacement	Time	Pos X	Pos Y	Pos Z	Rot A	Rot B	Piezo Z	Force A	Force B	Gripper	Voltage A	Voltage B	Temperature	Amplitude force	Amplitude pos	Stiffness	Phase shift	Phase excitation	Force A raw	Displacement raw	HMax	HMax raw	Real Force	Real Stiffness	Contact Depth	Area	Hardness	Reduced Mod.
[#]	[#]	[um]	[s]	[um]	[um]	[um]	[m°]	[m°]	[um]	[uN]	[uN]	[V]	[V]	[V]	[°C]	[uN]	[um]	[N/m]	[°]	[°]	[uN]	[um]	[um]	[um]	[uN]	[N/m]	[um]	[um^2]	[MPa]	[MPa]
1141	1.000000	0.002911	7.37622e+06	-57189.1	1055.82	-29737.3	0.000000	0.000000	6.002791	0.008485	NaN	0.000000	0.001678	0.001729	28.0813	0.059135	0.000946	62.4892	-63.951	-159.474	0.014463	0.001662	-1.077251	-1.078500	0.008485	62.4892	-1.077353	-2.488681E+14	-3.409303E-17	NaN
1141	1.000000	0.012980	7.37622e+06	-57189.1	1055.82	-29737.3	0.000000	0.000000	6.012856	-0.102315	NaN	0.000000	0.001674	0.001726	28.0812	0.039776	0.001252	31.7672	-70.129	17.9714	-0.032844	0.011531	-1.067182	-1.068631	-0.102315	31.7672	-1.064767	-1.686063E+14	6.068259E-16	NaN
1141	1.000000	0.022849	7.37622e+06	-57189.1	1055.82	-29737.3	0.000000	0.000000	6.022727	-0.046284	NaN	0.000000	0.001637	0.001733	28.0812	0.111595	0.001722	64.8237	1.392001	-165.713	-0.031310	0.021565	-1.057313	-1.058597	-0.046284	64.8237	-1.056777	-1.316772E+14	3.514974E-16	NaN
1141	1.000000	0.032877	7.37622e+06	-57189.1	1055.82	-29737.3	0.000000	0.000000	6.032753	-0.092575	NaN	0.000000	0.001653	0.001748	28.081	0.111244	0.001838	60.5137	135.555	13.6426	-0.028326	0.031512	-1.047286	-1.048651	-0.092575	60.5137	-1.046138	-9.473267E+13	9.772261E-16	NaN
1141	1.000000	0.042846	7.37622e+06	-57189.1	1055.82	-29737.3	0.000000	0.000000	6.042725	-0.018467	NaN	0.000000	0.001657	0.001732	28.0814	0.049767	0.002077	23.962	25.0961	-165.45	0.006622	0.041572	-1.037316	-1.038590	-0.018467	23.962	-1.036738	-7.081119E+13	2.607870E-16	NaN
1141	1.000000	0.052871	7.37622e+06	-57189.1	1055.82	-29737.3	0.000000	0.000000	6.052748	-0.070985	NaN	0.000000	0.001625	0.001737	28.0811	0.078244	0.002048	38.2122	11.2343	10.6253	-0.095960	0.051558	-1.027292	-1.028604	-0.070985	38.2122	-1.025898	-5.061807E+13	1.402372E-15	NaN
1141	1.000000	0.062858	7.37622e+06	-57189.1	1055.82	-29737.3	0.000000	0.000000	6.062738	0.001570	NaN	0.000000	0.001578	0.001722	28.0813	0.048090	0.002109	22.8066	46.3617	-164.752	-0.007272	0.061559	-1.017304	-1.018603	0.001570	22.8066	-1.017356	-3.884851E+13	-4.040353E-17	NaN
1141	1.000000	0.072868	7.37622e+06	-57189.1	1055.82	-29737.3	0.000000	0.000000	6.072745	-0.076235	NaN	0.000000	0.001609	0.001724	28.0802	0.085682	0.001977	43.3488	-73.1245	16.6784	-0.029269	0.071499	-1.007294	-1.008663	-0.076235	43.3488	-1.005975	-2.730305E+13	2.792177E-15	NaN
1141	1.000000	0.082873	7.37622e+06	-57189.1	1055.82	-29737.3	0.000000	0.000000	6.082755	0.034478	NaN	0.000000	0.001555	0.001726	28.08	0.087918	0.002042	43.0481	-39.9121	-166.056	0.113944	0.081559	-0.997289	-0.998603	0.034478	43.0481	-0.997890	-2.124977E+13	-1.622495E-15	NaN
1141	1.000000	0.092883	7.37622e+06	-57189.1	1055.82	-29737.3	0.000000	0.000000	6.092763	0.007837	NaN	0.000000	0.001551	0.001744	28.0802	0.118096	0.001963	60.1676	-112.708	15.5852	0.015286	0.091569	-0.987279	-0.988594	0.007837	60.1676	-0.987377	-1.533850E+13	-5.109217E-16	NaN
1141	1.000000	0.102874	7.37622e+06	-57189.1	1055.82	-29737.3	0.000000	0.000000	6.102752	-0.050919	NaN	0.000000	0.001573	0.001741	28.0802	0.064769	0.002019	32.0868	96.9306	-163.77	-0.063490	0.101538	-0.977288	-0.978624	-0.050919	32.0868	-0.976098	-1.081027E+13	4.710241E-15	NaN
1141	1.000000	0.112877	7.37622e+06	-57189.1	1055.82	-29737.3	0.000000	0.000000	6.112755	-0.047135	NaN	0.000000	0.001584	0.001742	28.0806	0.066355	0.001970	33.6778	124.332	15.2008	0.013641	0.111570	-0.967285	-0.968592	-0.047135	33.6778	-0.966235	-7.960145E+12	5.921354E-15	NaN
1141	1.000000	0.122903	7.37622e+06	-57189.1	1055.82	-29737.3	0.000000	0.000000	6.122780	-0.066690	NaN	0.000000	0.001559	0.001740	28.0799	0.053830	0.001807	29.7867	-45.2799	-167.577	-0.103978	0.121613	-0.957260	-0.958549	-0.066690	29.7867	-0.955581	-5.718497E+12	1.166223E-14	NaN
1141	1.000000	0.132891	7.37622e+06	-57189.1	1055.82	-29737.3	0.000000	0.000000	6.132767	-0.108761	NaN	0.000000	0.001566	0.001714	28.08	0.038567	0.001938	19.9043	39.1818	15.4059	-0.103269	0.131496	-0.947271	-0.948666	-0.108761	19.9043	-0.943173	-3.889908E+12	2.795991E-14	NaN
1141	1.000000	0.142927	7.37622e+06	-57189.1	1055.82	-29737.3	0.000000	0.000000	6.142806	-0.017289	NaN	0.000000	0.001567	0.001705	28.08	0.123023	0.002068	59.4837	143.781	-164.185	-0.034487	0.141562	-0.937235	-0.938600	-0.017289	59.4837	-0.937017	-3.212875E+12	5.381105E-15	NaN
1141	1.000000	0.152921	7.37622e+06	-57189.1	1055.82	-29737.3	0.000000	0.000000	6.152800	-0.004449	NaN	0.000000	0.001572	0.001736	28.0803	0.048338	0.002012	24.0204	-21.4625	13.294	-0.043025	0.151538	-0.927242	-0.928624	-0.004449	24.0204	-0.927103	-2.360985E+12	1.884209E-15	NaN
1141	1.000000	0.162903	7.37622e+06	-57189.1	1055.82	-29737.3	0.000000	0.000000	6.162781	-0.045253	NaN	0.000000	0.001560	0.001724	28.0798	0.032503	0.001907	17.047	-111.685	-166.446	-0.049433	0.161611	-0.917259	-0.918551	-0.045253	17.047	-0.915268	-1.634235E+12	2.769056E-14	NaN
1141	1.000000	0.172927	7.37622e+06	-57189.1	1055.82	-29737.3	0.000000	0.000000	6.172805	-0.032202	NaN	0.000000	0.001542	0.001724	28.0801	0.130667	0.002081	62.7885	-143.732	13.0001	-0.076224	0.171564	-0.907235	-0.908598	-0.032202	62.7885	-0.906851	-1.257828E+12	2.560115E-14	NaN
1141	1.000000	0.182935	7.37622e+06	-57189.1	1055.82	-29737.3	0.000000	0.000000	6.182813	-0.053240	NaN	0.000000	0.001554	0.001764	28.0801	0.052806	0.002065	25.5724	138.222	-162.139	-0.083178	0.181624	-0.897227	-0.898538	-0.053240	25.5724	-0.895665	-8.881602E+11	5.994405E-14	NaN
1141	1.000000	0.192936	7.37622e+06	-57189.1	1055.82	-29737.3	0.000000	0.000000	6.192812	-0.103138	NaN	0.000000	0.001513	0.001747	28.0798	0.012241	0.002005	6.105069	-32.7118	15.0328	-0.130447	0.191543	-0.887226	-0.888619	-0.103138	6.105069	-0.874556	-4.603324E+11	2.240502E-13	NaN
1141	1.000000	0.202922	7.37622e+06	-57189.1	1055.82	-29737.3	0.000000	0.000000	6.202803	0.015272	NaN	0.000000	0.001532	0.001727	28.0796	0.083025	0.002060	40.3111	-126.97	-163.279	0.022092	0.201645	-0.877240	-0.878517	0.015272	40.3111	-0.877524	-5.049213E+11	-3.024606E-14	NaN
1141	1.000000	0.212936	7.37622e+06	-57189.1	1055.82	-29737.3	0.000000	0.000000	6.212813	-0.068320	NaN	0.000000	0.001513	0.001699	28.081	0.021881	0.002104	10.3981	41.6636	18.7887	-0.074669	0.211553	-0.867227	-0.868609	-0.068320	10.3981	-0.862299	-3.142208E+11	2.174278E-13	NaN
1141	1.000000	0.222931	7.37622e+06	-57189.1	1055.82	-29737.3	0.000000	0.000000	6.222813	0.050663	NaN	0.000000	0.001532	0.001697	28.0812	0.006703	0.001954	3.431123	137.637	-166.888	0.056026	0.221601	-0.857231	-0.858561	0.050663	3.431123	-0.868306	-3.788967E+11	-1.337124E-13	NaN
1141	1.000000	0.232930	7.37622e+06	-57189.1	1055.82	-29737.3	0.000000	0.000000	6.232807	-0.075014	NaN	0.000000	0.001577	0.001712	28.081	0.153775	0.001998	76.9514	143.934	13.3178	-0.144528	0.231592	-0.847232	-0.848570	-0.075014	76.9514	-0.846501	-1.920218E+11	3.906540E-13	NaN
1141	1.000000	0.242945	7.37622e+06	-57189.1	1055.82	-29737.3	0.000000	0.000000	6.242826	0.034253	NaN	0.000000	0.001494	0.001730	28.0811	0.073013	0.001973	37.0011	21.1676	-164.437	0.031636	0.241597	-0.837218	-0.838565	0.034253	37.0011	-0.837912	-1.468942E+11	-2.331822E-13	NaN
1141	1.000000	0.252930	7.37622e+06	-57189.1	1055.82	-29737.3	0.000000	0.000000	6.252807	-0.061332	NaN	0.000000	0.001542	0.001760	28.0812	0.089447	0.001909	46.8597	149.245	17.1023	-0.040719	0.251546	-0.827233	-0.828617	-0.061332	46.8597	-0.826251	-1.020862E+11	6.007909E-13	NaN
1141	1.000000	0.262979	7.37622e+06	-57189.1	1055.82	-29737.3	0.000000	0.000000	6.262858	-0.006510	NaN	0.000000	0.001537	0.001735	28.0811	0.036637	0.001928	19.0009	1.892631	-164.255	-0.099380	0.261615	-0.817183	-0.818547	-0.006510	19.0009	-0.816926	-7.630053E+10	8.531621E-14	NaN
1141	1.000000	0.272931	7.37622e+06	-57189.1	1055.82	-29737.3	0.000000	0.000000	6.272812	0.021302	NaN	0.000000	0.001510	0.001729	28.081	0.117572	0.001939	60.6409	-153.217	16.2192	0.006018	0.271613	-0.807231	-0.808550	0.021302	60.6409	-0.807495	-5.683031E+10	-3.748326E-13	NaN
1141	1.000000	0.282970	7.37622e+06	-57189.1	1055.82	-29737.3	0.000000	0.000000	6.282847	-0.064506	NaN	0.000000	0.001545	0.001792	28.0814	0.075660	0.001981	38.2018	-44.8197	-163.999	0.010755	0.281691	-0.797192	-0.798472	-0.064506	38.2018	-0.795926	-3.958723E+10	1.629459E-12	NaN
1141	1.000000	0.292948	7.37622e+06	-57189.1	1055.82	-29737.3	0.000000	0.000000	6.292827	-0.006222	NaN	0.000000	0.001562	0.001813	28.0814	0.090919	0.002000	45.4672	161.961	14.7829	-0.055492	0.291612	-0.787214	-0.788550	-0.006222	45.4672	-0.787112	-3.005060E+10	2.070489E-13	NaN
1141	1.000000	0.302949	7.37622e+06	-57189.1	1055.82	-29737.3	0.000000	0.000000	6.302830	0.039443	NaN	0.000000	0.001537	0.001746	28.0809	0.109877	0.001952	56.2966	173.82	-166.117	0.008055	0.301692	-0.777213	-0.778470	0.039443	56.2966	-0.777739	-2.241304E+10	-1.759826E-12	NaN
1141	1.000000	0.312992	7.37622e+06	-57189.1	1055.82	-29737.3	0.000000	0.000000	6.312869	-0.070874	NaN	0.000000	0.001567	0.001697	28.0811	0.022413	0.002089	10.7276	153.907	15.502	-0.099759	0.311611	-0.767170	-0.768551	-0.070874	10.7276	-0.762215	-1.378597E+10	5.140991E-12	NaN
1141	1.000000	0.322965	7.37622e+06	-57189.1	1055.82	-29737.3	0.000000	0.000000	6.322846	0.018897	NaN	0.000000	0.001565	0.001682	28.0811	0.047869	0.001945	24.6168	-132.224	-166.719	0.083278	0.321724	-0.757197	-0.758438	0.018897	24.6168	-0.757773	-1.199502E+10	-1.575418E-12	NaN
1141	1.000000	0.332974	7.37622e+06	-57189.1	1055.82	-29737.3	0.000000	0.000000	6.332852	-0.040304	NaN	0.000000	0.001560	0.001660	28.081	0.028376	0.001967	14.4288	-142.584	15.9235	-0.026650	0.331662	-0.747189	-0.748500	-0.040304	14.4288	-0.745094	-8.061679E+9	4.999452E-12	NaN
1141	1.000000	0.342970	7.37622e+06	-57189.1	1055.82	-29737.3	0.000000	0.000000	6.342851	0.031575	NaN	0.000000	0.001559	0.001672	28.0806	0.086166	0.001993	43.2275	-152.91	-163.613	-0.002700	0.341696	-0.737192	-0.738466	0.031575	43.2275	-0.737740	-6.401336E+9	-4.932564E-12	NaN
1141	1.000000	0.352992	7.37622e+06	-57189.1	1055.82	-29737.3	0.000000	0.000000	6.352871	-0.026477	NaN	0.000000	0.001543	0.001707	28.0795	0.024724	0.002099	11.7786	171.067	14.196	-0.111013	0.351606	-0.727170	-0.728556	-0.026477	11.7786	-0.725484	-4.357690E+9	6.075859E-12	NaN
1141	1.000000	0.362967	7.37622e+06	-57189.1	1055.82	-29737.3	0.000000	0.000000	6.362846	-0.026641	NaN	0.000000	0.001549	0.001675	28.0798	0.084375	0.001992	42.3561	-60.1746	-166.655	-0.038058	0.361726	-0.717195	-0.718436	-0.026641	42.3561	-0.716723	-3.309656E+9	8.049577E-12	NaN
1141	1.000000	0.372995	7.37622e+06	-57189.1	1055.82	-29737.3	0.000000	0.000000	6.372873	-0.023579	NaN	0.000000	0.001563	0.001741	28.0797	0.101294	0.002085	48.5806	23.4288	16.6515	-0.003252	0.371622	-0.707168	-0.708540	-0.023579	48.5806	-0.706804	-2.423396E+9	9.729892E-12	NaN
1141	1.000000	0.382998	7.37622e+06	-57189.1	1055.82	-29737.3	0.000000	0.000000	6.382878	0.011804	NaN	0.000000	0.001576	0.001701	28.0796	0.075096	0.001979	37.9532	-18.2143	-164.494	-0.009414	0.381727	-0.697164	-0.698435	0.011804	37.9532	-0.697398	-1.802972E+9	-6.547231E-12	NaN
1141	1.000000	0.393019	7.37622e+06	-57189.1	1055.82	-29737.3	0.000000	0.000000	6.392897	-0.033716	NaN	0.000000	0.001552	0.001714	28.0796	0.121286	0.002003	60.5668	-168.852	16.1749	-0.063451	0.391657	-0.687143	-0.688505	-0.033716	60.5668	-0.686726	-1.288746E+9	2.616189E-11	NaN
1141	1.000000	0.403033	7.37622e+06	-57189.1	1055.82	-29737.3	0.000000	0.000000	6.402914	0.015098	NaN	0.000000	0.001540	0.001728	28.0797	0.094433	0.002018	46.8064	10.8594	-164.687	-0.070723	0.401680	-0.677129	-0.678483	0.015098	46.8064	-0.677371	-9.599475E+8	-1.572808E-11	NaN
1141	1.000000	0.413054	7.37622e+06	-57189.1	1055.82	-29737.3	0.000000	0.000000	6.412933	-0.028071	NaN	0.000000	0.001560	0.001711	28.0796	0.106443	0.002055	51.7902	-107.265	15.5421	-0.007400	0.411659	-0.667108	-0.668504	-0.028071	51.7902	-0.666701	-6.858641E+8	4.092860E-11	NaN
1141	1.000000	0.423021	7.37622e+06	-57189.1	1055.82	-29737.3	0.000000	0.000000	6.422903	0.057472	NaN	0.000000	0.001579	0.001748	28.0795	0.161684	0.001835	88.1019	-126.137	-166.009	0.083066	0.421660	-0.657141	-0.658502	0.057472	88.1019	-0.657630	-5.152367E+8	-1.115453E-10	NaN
1141	1.000000	0.433033	7.37622e+06	-57189.1	1055.82	-29737.3	0.000000	0.000000	6.432910	-0.057328	NaN	0.000000	0.001560	0.001746	28.0797	0.066382	0.002003	33.1362	175.426	13.6731	-0.070487	0.431663	-0.647129	-0.648500	-0.057328	33.1362	-0.645832	-3.550469E+8	1.614663E-10	NaN
1141	1.000000	0.443058	7.37622e+06	-57189.1	1055.82	-29737.3	0.000000	0.000000	6.442937	-0.011909	NaN	0.000000	0.001570	0.001706	28.0794	0.040794	0.002035	20.0413	105.104	-163.387	-0.004253	0.441742	-0.637104	-0.638420	-0.011909	20.0413	-0.636658	-2.657265E+8	4.481591E-11	NaN
1141	1.000000	0.453020	7.37622e+06	-57189.1	1055.82	-29737.3	0.000000	0.000000	6.452899	-0.010884	NaN	0.000000	0.001585	0.001742	28.0797	0.014413	0.002079	6.934288	-111.456	15.456	-0.037386	0.451671	-0.627142	-0.628491	-0.010884	6.934288	-0.625965	-1.894980E+8	5.743785E-11	NaN
1141	1.000000	0.463038	7.37622e+06	-57189.1	1055.82	-29737.3	0.000000	0.000000	6.462916	-0.041125	NaN	0.000000	0.001559	0.001735	28.0796	0.061558	0.002006	30.694	-8.982039	-165.504	-0.021132	0.461775	-0.617124	-0.618387	-0.041125	30.694	-0.616119	-1.387647E+8	2.963650E-10	NaN
1141	1.000000	0.473014	7.37622e+06	-57189.1	1055.82	-29737.3	0.000000	0.000000	6.472892	-0.046749	NaN	0.000000	0.001536	0.001704	28.0799	0.108817	0.002062	52.7791	172.503	15.6981	0.010421	0.471682	-0.607148	-0.608480	-0.046749	52.7791	-0.606484	-1.022645E+8	4.571396E-10	NaN
1141	1.000000	0.483039	7.37622e+06	-57189.1	1055.82	-29737.3	0.000000	0.000000	6.482920	0.031540	NaN	0.000000	0.001568	0.001707	28.0807	0.082021	0.002005	40.918	111.062	-163.457	0.036230	0.481751	-0.597123	-0.598411	0.031540	40.918	-0.597701	-7.741010E+7	-4.074435E-10	NaN
1141	1.000000	0.493087	7.37622e+06	-57189.1	1055.82	-29737.3	0.000000	0.000000	6.492965	-0.036253	NaN	0.000000	0.001550	0.001706	28.0808	0.065729	0.001927	34.1022	-157.769	17.5673	-0.065354	0.491656	-0.587076	-0.588507	-0.036253	34.1022	-0.586278	-5.387027E+7	6.729724E-10	NaN
1141	1.000000	0.503063	7.37622e+06	-57189.1	1055.82	-29737.3	0.000000	0.000000	6.502944	0.012068	NaN	0.000000	0.001565	0.001665	28.0811	0.067714	0.002001	33.8384	57.6104	-164.388	0.075285	0.501736	-0.577099	-0.578426	0.012068	33.8384	-0.577366	-4.058570E+7	-2.973503E-10	NaN
1141	1.000000	0.513042	7.37622e+06	-57189.1	1055.82	-29737.3	0.000000	0.000000	6.512919	-0.059803	NaN	0.000000	0.001551	0.001726	28.0809	0.014081	0.001963	7.174252	-81.6245	17.3422	-0.051192	0.511730	-0.567120	-0.568432	-0.059803	7.174252	-0.560868	-2.400981E+7	2.490766E-9	NaN
1141	1.000000	0.523049	7.37622e+06	-57189.1	1055.82	-29737.3	0.000000	0.000000	6.522927	-0.048026	NaN	0.000000	0.001579	0.001731	28.0808	0.066260	0.002129	31.1207	-23.8837	-164.002	-0.058619	0.521752	-0.557113	-0.558410	-0.048026	31.1207	-0.555956	-2.053128E+7	2.339163E-9	NaN
1141	1.000000	0.533061	7.37622e+06	-57189.1	1055.82	-29737.3	0.000000	0.000000	6.532939	-0.041461	NaN	0.000000	0.001576	0.001707	28.0808	0.120842	0.002193	55.107	171.645	16.5872	-0.061374	0.531714	-0.547101	-0.548448	-0.041461	55.107	-0.546537	-1.520464E+7	2.726847E-9	NaN
1141	1.000000	0.543091	7.37622e+06	-57189.1	1055.82	-29737.3	0.000000	0.000000	6.542968	-0.064260	NaN	0.000000	0.001570	0.001720	28.0813	0.151963	0.001952	77.842	134.832	-168.109	-0.028997	0.541767	-0.537071	-0.538395	-0.064260	77.842	-0.536452	-1.101888E+7	5.831791E-9	NaN
1141	1.000000	0.553085	7.37622e+06	-57189.1	1055.82	-29737.3	0.000000	0.000000	6.552962	-0.063707	NaN	0.000000	0.001575	0.001774	28.081	0.048392	0.002077	23.2999	91.3637	14.9563	-0.118932	0.551726	-0.527078	-0.528436	-0.063707	23.2999	-0.525027	-7.64692e+06	8.331069E-9	NaN
1141	1.000000	0.563101	7.37622e+06	-57189.1	1055.82	-29737.3	0.000000	0.000000	6.562979	-0.039427	NaN	0.000000	0.001583	0.001792	28.081	0.112874	0.001921	58.7466	-52.9091	-162.947	0.039803	0.561724	-0.517061	-0.518439	-0.039427	58.7466	-0.516558	-5.83062e+06	6.762034E-9	NaN
1141	1.000000	0.573094	7.37622e+06	-57189.1	1055.82	-29737.3	0.000000	0.000000	6.572970	-0.085389	NaN	0.000000	0.001575	0.001736	28.0812	0.103228	0.001983	52.0679	-151.471	14.3733	-0.115264	0.571754	-0.507068	-0.508409	-0.085389	52.0679	-0.505838	-4.13459e+06	2.065234E-8	NaN
1141	1.000000	0.583116	7.37622e+06	-57189.1	1055.82	-29737.3	0.000000	0.000000	6.582993	-0.068094	NaN	0.000000	0.001544	0.001719	28.081	0.046220	0.001827	25.3026	109.87	-167.468	-0.012225	0.581782	-0.497046	-0.498380	-0.068094	25.3026	-0.495028	-2.9216e+06	2.330719E-8	NaN
1141	1.000000	0.593088	7.37622e+06	-57189.1	1055.82	-29737.3	0.000000	0.000000	6.592967	-0.006950	NaN	0.000000	0.001602	0.001730	28.081	0.036813	0.002014	18.2777	77.1207	15.0547	-0.036011	0.591715	-0.487075	-0.488447	-0.006950	18.2777	-0.486789	-2.24138e+06	3.100600E-9	NaN
1141	1.000000	0.603105	7.37622e+06	-57189.1	1055.82	-29737.3	0.000000	0.000000	6.602985	0.006804	NaN	0.000000	0.001584	0.001754	28.0811	0.105727	0.002056	51.4241	-49.6107	-162.682	-0.110995	0.601780	-0.477057	-0.478383	0.006804	51.4241	-0.477156	-1.64327e+06	-4.140403E-9	NaN
1141	1.000000	0.613091	7.37622e+06	-57189.1	1055.82	-29737.3	0.000000	0.000000	6.612970	-0.014694	NaN	0.000000	0.001567	0.001702	28.0811	0.054298	0.002068	26.2519	130.699	12.6988	-0.028928	0.611776	-0.467072	-0.468386	-0.014694	26.2519	-0.466652	-1.17066e+06	1.255162E-8	NaN
1141	1.000000	0.623128	7.37622e+06	-57189.1	1055.82	-29737.3	0.000000	0.000000	6.623008	0.014501	NaN	0.000000	0.001556	0.001757	28.0799	0.056541	0.002000	28.2695	2.156459	-162.346	-0.006428	0.621761	-0.457034	-0.458401	0.014501	28.2695	-0.457419	-868439	-1.669736E-8	NaN
1141	1.000000	0.633127	7.37622e+06	-57189.1	1055.82	-29737.3	0.000000	0.000000	6.633004	-0.063972	NaN	0.000000	0.001590	0.001767	28.0798	0.046311	0.002007	23.0722	95.8147	15.8853	-0.075657	0.631758	-0.447035	-0.448404	-0.063972	23.0722	-0.444956	-579788	1.103362E-7	NaN
1141	1.000000	0.643129	7.37622e+06	-57189.1	1055.82	-29737.3	0.000000	0.000000	6.643007	-0.053021	NaN	0.000000	0.001581	0.001768	28.08	0.155011	0.001917	80.8432	136.661	-165.366	-0.069134	0.641765	-0.437033	-0.438398	-0.053021	80.8432	-0.436541	-441088	1.202048E-7	NaN
1141	1.000000	0.653104	7.37622e+06	-57189.1	1055.82	-29737.3	0.000000	0.000000	6.652987	0.060543	NaN	0.000000	0.001555	0.001760	28.0802	0.075572	0.001950	38.7499	156.206	13.0958	0.083467	0.651748	-0.427058	-0.428415	0.060543	38.7499	-0.428230	-336519	-1.799084E-7	NaN
1141	1.000000	0.663113	7.37622e+06	-57189.1	1055.82	-29737.3	0.000000	0.000000	6.662994	0.024899	NaN	0.000000	0.001594	0.001692	28.0798	0.044396	0.001989	22.3201	120.682	-166.571	-0.038174	0.661785	-0.417049	-0.418377	0.024899	22.3201	-0.417886	-240117	-1.036953E-7	NaN
1141	1.000000	0.673139	7.37622e+06	-57189.1	1055.82	-29737.3	0.000000	0.000000	6.673017	-0.053670	NaN	0.000000	0.001561	0.001711	28.08	0.058007	0.001944	29.8394	61.7413	17.1364	-0.071008	0.671772	-0.407023	-0.408390	-0.053670	29.8394	-0.405674	-161006	3.333429E-7	NaN
1141	1.000000	0.683141	7.37622e+06	-57189.1	1055.82	-29737.3	0.000000	0.000000	6.683017	-0.102481	NaN	0.000000	0.001567	0.001748	28.0799	0.075119	0.002056	36.5383	-75.3243	-164.193	-0.140100	0.681810	-0.397021	-0.398352	-0.102481	36.5383	-0.394918	-113099	9.061140E-7	NaN
1141	1.000000	0.693146	7.37622e+06	-57189.1	1055.82	-29737.3	0.000000	0.000000	6.693025	-0.009432	NaN	0.000000	0.001577	0.001774	28.0799	0.091973	0.002090	44.0003	-86.4101	12.6235	0.029795	0.691798	-0.387016	-0.388365	-0.009432	44.0003	-0.386856	-86729.3	1.087511E-7	NaN
1141	1.000000	0.703136	7.37622e+06	-57189.1	1055.82	-29737.3	0.000000	0.000000	6.703016	0.014996	NaN	0.000000	0.001526	0.001718	28.0798	0.141181	0.001959	72.0774	0.129495	-163.655	-0.047796	0.701811	-0.377027	-0.378351	0.014996	72.0774	-0.377183	-63014.3	-2.379702E-7	NaN
1141	1.000000	0.713136	7.37622e+06	-57189.1	1055.82	-29737.3	0.000000	0.000000	6.713015	-0.014811	NaN	0.000000	0.001586	0.001706	28.08	0.043578	0.001991	21.8864	60.3329	15.101	0.027427	0.711824	-0.367026	-0.368338	-0.014811	21.8864	-0.366519	-44254.9	3.346672E-7	NaN
1141	1.000000	0.723119	7.37622e+06	-57189.1	1055.82	-29737.3	0.000000	0.000000	6.723000	0.037354	NaN	0.000000	0.001555	0.001745	28.0802	0.042215	0.001874	22.5255	-14.3325	-164.213	-0.009131	0.721873	-0.357044	-0.358289	0.037354	22.5255	-0.358287	-33657.5	-1.109819E-6	NaN
1141	1.000000	0.733163	7.37622e+06	-57189.1	1055.82	-29737.3	0.000000	0.000000	6.733042	-0.001404	NaN	0.000000	0.001551	0.001751	28.0799	0.088778	0.002011	44.156	169.095	15.409	0.034306	0.731774	-0.347000	-0.348388	-0.001404	44.156	-0.346976	-23071.9	6.086341E-8	NaN
1141	1.000000	0.743154	7.37622e+06	-57189.1	1055.82	-29737.3	0.000000	0.000000	6.743032	-0.024686	NaN	0.000000	0.001552	0.001745	28.08	0.056364	0.002061	27.3425	-9.191616	-164.041	-0.063754	0.741851	-0.337009	-0.338312	-0.024686	27.3425	-0.336331	-16144.8	1.529045E-6	NaN
1141	1.000000	0.753190	7.37622e+06	-57189.1	1055.82	-29737.3	0.000000	0.000000	6.753071	0.017622	NaN	0.000000	0.001595	0.001741	28.0802	0.019908	0.002015	9.881804	-31.9278	14.1195	0.040875	0.751789	-0.326972	-0.328373	0.017622	9.881804	-0.328310	-12322.1	-1.430080E-6	NaN
1141	1.000000	0.763171	7.37622e+06	-57189.1	1055.82	-29737.3	0.000000	0.000000	6.763049	-0.046606	NaN	0.000000	0.001577	0.001734	28.0814	0.064579	0.002035	31.7371	152.03	-162.393	-0.044306	0.761834	-0.316991	-0.318328	-0.046606	31.7371	-0.315890	-8092.45	5.759234E-6	NaN
1141	1.000000	0.773159	7.37622e+06	-57189.1	1055.82	-29737.3	0.000000	0.000000	6.773038	-0.035459	NaN	0.000000	0.001577	0.001741	28.0812	0.188114	0.001953	96.3284	-172.055	12.0621	0.017170	0.771882	-0.307003	-0.308280	-0.035459	96.3284	-0.306727	-5923.4	5.986306E-6	NaN
1141	1.000000	0.783175	7.37622e+06	-57189.1	1055.82	-29737.3	0.000000	0.000000	6.783052	-0.061484	NaN	0.000000	0.001617	0.001725	28.0813	0.041960	0.001960	21.4126	-128.847	-167.664	-0.111194	0.781871	-0.296988	-0.298291	-0.061484	21.4126	-0.294834	-3941.04	1.560095E-5	NaN
1141	1.000000	0.793169	7.37622e+06	-57189.1	1055.82	-29737.3	0.000000	0.000000	6.793048	-0.005155	NaN	0.000000	0.001585	0.001732	28.0813	0.048290	0.002100	22.9912	-59.1182	15.6881	0.011217	0.791790	-0.286993	-0.288372	-0.005155	22.9912	-0.286825	-2990.12	1.724098E-6	NaN
1141	1.000000	0.803161	7.37622e+06	-57189.1	1055.82	-29737.3	0.000000	0.000000	6.803040	-0.023410	NaN	0.000000	0.001606	0.001720	28.0813	0.058321	0.001991	29.2919	58.8201	-166.9	-0.036727	0.801896	-0.277001	-0.278266	-0.023410	29.2919	-0.276402	-2082.64	1.124076E-5	NaN
1141	1.000000	0.813191	7.37622e+06	-57189.1	1055.82	-29737.3	0.000000	0.000000	6.813071	0.002834	NaN	0.000000	0.001573	0.001696	28.0812	0.088937	0.001902	46.7617	-117.252	15.4924	0.016165	0.811820	-0.266972	-0.268342	0.002834	46.7617	-0.267017	-1500.2	-1.888781E-6	NaN
1141	1.000000	0.823195	7.37622e+06	-57189.1	1055.82	-29737.3	0.000000	0.000000	6.823076	0.025554	NaN	0.000000	0.001564	0.001727	28.0813	0.054940	0.002000	27.4752	52.0846	-166.006	0.047044	0.821882	-0.256967	-0.258280	0.025554	27.4752	-0.257665	-1079.17	-2.367895E-5	NaN
1141	1.000000	0.833183	7.37622e+06	-57189.1	1055.82	-29737.3	0.000000	0.000000	6.833063	0.001651	NaN	0.000000	0.001569	0.001727	28.0815	0.125906	0.002001	62.9286	-159.009	16.6471	-0.010689	0.831820	-0.246979	-0.248342	0.001651	62.9286	-0.246999	-738.73	-2.235163E-6	NaN
1141	1.000000	0.843207	7.37622e+06	-57189.1	1055.82	-29737.3	0.000000	0.000000	6.843088	0.018982	NaN	0.000000	0.001594	0.001732	28.0812	0.114878	0.001987	57.8039	101.319	-161.694	0.007204	0.841899	-0.236955	-0.238264	0.018982	57.8039	-0.237201	-519.727	-3.652237E-5	NaN
1141	1.000000	0.853225	7.37622e+06	-57189.1	1055.82	-29737.3	0.000000	0.000000	6.853101	-0.102494	NaN	0.000000	0.001582	0.001745	28.0813	0.033094	0.001904	17.3773	13.8459	13.657	-0.088993	0.851806	-0.226937	-0.228356	-0.102494	17.3773	-0.222513	-304.634	0.000336	NaN
1141	1.000000	0.863215	7.37622e+06	-57189.1	1055.82	-29737.3	0.000000	0.000000	6.863094	-0.024688	NaN	0.000000	0.001593	0.001689	28.0813	0.039987	0.001985	20.1463	-72.4147	-166.07	0.012212	0.861944	-0.216947	-0.218219	-0.024688	20.1463	-0.216028	-239.905	0.000103	NaN
1141	1.000000	0.873209	7.37622e+06	-57189.1	1055.82	-29737.3	0.000000	0.000000	6.873086	-0.079358	NaN	0.000000	0.001585	0.001716	28.0813	0.090518	0.002011	45.014	76.2075	14.2783	-0.111239	0.871863	-0.206953	-0.208299	-0.079358	45.014	-0.205631	-162.869	0.000487	NaN
1141	1.000000	0.883237	7.37622e+06	-57189.1	1055.82	-29737.3	0.000000	0.000000	6.883116	-0.027836	NaN	0.000000	0.001524	0.001705	28.0812	0.016477	0.002127	7.747701	-177.094	-165.306	0.023165	0.881872	-0.196925	-0.198290	-0.027836	7.747701	-0.194230	-105.79	0.000263	NaN
1141	1.000000	0.893227	7.37622e+06	-57189.1	1055.82	-29737.3	0.000000	0.000000	6.893104	-0.083637	NaN	0.000000	0.001581	0.001667	28.0801	0.052370	0.002005	26.1168	9.488287	16.146	-0.014793	0.891824	-0.186935	-0.188338	-0.083637	26.1168	-0.184533	-72.8218	0.001149	NaN
1141	1.000000	0.903226	7.37622e+06	-57189.1	1055.82	-29737.3	0.000000	0.000000	6.903100	-0.135130	NaN	0.000000	0.001576	0.001726	28.0803	0.030055	0.002073	14.4985	103.918	-165.96	-0.079345	0.901912	-0.176936	-0.178250	-0.135130	14.4985	-0.169946	-40.9895	0.003297	NaN
1141	1.000000	0.913224	7.37622e+06	-57189.1	1055.82	-29737.3	0.000000	0.000000	6.913101	-0.061478	NaN	0.000000	0.001558	0.001718	28.08	0.113422	0.001881	60.3063	130.901	18.8016	-0.113740	0.911852	-0.166938	-0.168310	-0.061478	60.3063	-0.166174	-35.2279	0.001745	NaN
1141	1.000000	0.923215	7.37622e+06	-57189.1	1055.82	-29737.3	0.000000	0.000000	6.923095	0.009901	NaN	0.000000	0.001564	0.001733	28.08	0.054711	0.002112	25.9013	-39.0877	-163.313	-0.030059	0.921880	-0.156948	-0.158282	0.009901	25.9013	-0.157234	-24.4722	-0.000405	NaN
1141	1.000000	0.933212	7.37622e+06	-57189.1	1055.82	-29737.3	0.000000	0.000000	6.933091	-0.030384	NaN	0.000000	0.001559	0.001735	28.08	0.038134	0.002100	18.1584	152.066	15.2975	-0.059432	0.931920	-0.146950	-0.148242	-0.030384	18.1584	-0.145695	-15.1013	0.002012	NaN
1141	1.000000	0.943264	7.37622e+06	-57189.1	1055.82	-29737.3	0.000000	0.000000	6.943142	-0.058037	NaN	0.000000	0.001573	0.001705	28.0802	0.131167	0.002065	63.5137	106.619	-167.093	-0.004074	0.942023	-0.136898	-0.138139	-0.058037	63.5137	-0.136213	-10.0322	0.005785	NaN
1141	1.000000	0.953257	7.37622e+06	-57189.1	1055.82	-29737.3	0.000000	0.000000	6.953138	0.020145	NaN	0.000000	0.001579	0.001681	28.0801	0.079333	0.002064	38.4361	138.504	14.3608	0.042893	0.951895	-0.126905	-0.128268	0.020145	38.4361	-0.127298	-6.749492	-0.002985	NaN
1141	1.000000	0.963242	7.37622e+06	-57189.1	1055.82	-29737.3	0.000000	0.000000	6.963122	-0.005980	NaN	0.000000	0.001619	0.001723	28.08	0.047418	0.001981	23.94	35.542	-164.395	0.006335	0.962000	-0.116920	-0.118162	-0.005980	23.94	-0.116733	-4.146609	0.001442	NaN
1141	1.000000	0.973283	7.37622e+06	-57189.1	1055.82	-29737.3	0.000000	0.000000	6.973158	-0.111375	NaN	0.000000	0.001572	0.001692	28.0799	0.058949	0.002038	28.9262	127.426	19.1025	-0.149045	0.971895	-0.106879	-0.108267	-0.111375	28.9262	-0.103991	-2.235270	0.049826	NaN
1141	1.000000	0.983272	7.37622e+06	-57189.1	1055.82	-29737.3	0.000000	0.000000	6.983152	-0.007677	NaN	0.000000	0.001588	0.001709	28.0801	0.074287	0.002011	36.9364	-44.429	-161.948	-0.021713	0.981955	-0.096890	-0.098207	-0.007677	36.9364	-0.096734	-1.544328	0.004971	NaN
1141	1.000000	0.993269	7.37622e+06	-57189.1	1055.82	-29737.3	0.000000	0.000000	6.993149	0.012353	NaN	0.000000	0.001704	0.001742	28.0797	0.108422	0.001978	54.8054	6.113233	11.6916	0.034169	0.991911	-0.086894	-0.088252	0.012353	54.8054	-0.087063	-0.921040	-0.013413	NaN
1141	1.000000	1.003266	7.37622e+06	-57189.1	1055.82	-29737.3	0.000000	0.000000	7.003145	-0.014533	NaN	0.000000	0.001626	0.001710	28.08	0.050280	0.002023	24.8546	-109.37	-164.135	0.006519	1.001923	-0.076896	-0.078239	-0.014533	24.8546	-0.076458	-0.503556	0.028862	NaN
1141	1.000000	1.013249	7.37622e+06	-57189.1	1055.82	-29737.3	0.000000	0.000000	7.013125	-0.100549	NaN	0.000000	0.001624	0.001704	28.0797	0.018790	0.001862	10.0939	-66.4123	14.1349	-0.158137	1.011937	-0.066913	-0.068225	-0.100549	10.0939	-0.059442	-0.173565	0.579314	NaN
1141	1.000000	1.023278	7.37622e+06	-57189.1	1055.82	-29737.3	0.000000	0.000000	7.023153	-0.107246	NaN	0.000000	0.001603	0.001728	28.0801	0.064284	0.001889	34.0367	-63.1514	-163.083	-0.105409	1.021960	-0.056884	-0.058202	-0.107246	34.0367	-0.054521	-0.124642	0.860429	NaN
1141	1.000000	1.033274	7.37622e+06	-57189.1	1055.82	-29737.3	0.000000	0.000000	7.033154	0.022418	NaN	0.000000	0.001620	0.001719	28.0811	0.030987	0.001907	16.2483	34.6954	11.9843	0.011534	1.031922	-0.046889	-0.048240	0.022418	16.2483	-0.047923	-0.078927	-0.284031	NaN
1141	1.000000	1.043290	7.37622e+06	-57189.1	1055.82	-29737.3	0.000000	0.000000	7.043167	-0.084533	NaN	0.000000	0.001616	0.001726	28.0814	0.079961	0.002172	36.8137	52.6051	-164.889	0.010151	1.042012	-0.036872	-0.038150	-0.084533	36.8137	-0.035150	-0.032351	2.612970	NaN
1141	1.000000	1.053284	7.37622e+06	-57189.1	1055.82	-29737.3	0.000000	0.000000	7.053163	-0.024321	NaN	0.000000	0.001638	0.001716	28.0812	0.146360	0.002024	72.308	-161.79	13.0396	-0.007507	1.051877	-0.026878	-0.028285	-0.024321	72.308	-0.026626	-0.018622	1.306048	NaN
1141	1.000000	1.063318	7.37622e+06	-57189.1	1055.82	-29737.3	0.000000	0.000000	7.063197	-0.027774	NaN	0.000000	0.001648	0.001706	28.0813	0.101386	0.002061	49.2022	-100.714	-166.849	-0.095972	1.061999	-0.016844	-0.018163	-0.027774	49.2022	-0.016421	-0.010144	2.737867	NaN
1141	1.000000	1.073283	7.37622e+06	-57189.1	1055.82	-29737.3	0.000000	0.000000	7.073162	-0.037852	NaN	0.000000	0.001612	0.001724	28.0811	0.058199	0.002047	28.4279	113.058	13.9436	-0.064800	1.071941	-0.006879	-0.008221	-0.037852	28.4279	-0.005880	-0.003963	9.551320	NaN
1141	1.000000	1.083279	7.37622e+06	-57189.1	1055.82	-29737.3	0.000000	0.000000	7.083305	3.556188	NaN	0.000000	0.001590	0.001709	28.0812	4.348520	0.001926	2257.46	14.2634	-169.745	2.619079	1.081982	0.003117	0.001820	3.556188	2257.46	0.001935	0.001503	2366.73	53207.8
1141	2.000000	1.089438	7.37622e+06	-57189.1	1055.82	-29737.3	0.000000	0.000000	7.089672	8.620406	NaN	0.000000	0.001598	0.001712	28.0812	9.648555	0.001600	6029.14	4.880952	8.700783	7.933527	1.089117	0.009276	0.008955	8.620406	6029.14	0.008203	0.007252	1188.66	64683.5
1141	2.000000	1.091860	7.37622e+06	-57189.1	1055.82	-29737.3	0.000000	0.000000	7.092221	11.7066	NaN	0.000000	0.001617	0.001703	28.0824	12.2845	0.001711	7179.87	7.752259	-174.127	11.5051	1.091563	0.011697	0.011401	11.7066	7179.87	0.010474	0.009714	1205.18	66558
1141	2.000000	1.094309	7.37622e+06	-57189.1	1055.82	-29737.3	0.000000	0.000000	7.094761	13.8922	NaN	0.000000	0.001622	0.001708	28.0811	14.6174	0.001841	7940.65	12.224	1.502730	12.987	1.093984	0.014147	0.013822	13.8922	7940.65	0.012835	0.012505	1110.89	64875.4
1141	2.000000	1.096836	7.37622e+06	-57189.1	1055.82	-29737.3	0.000000	0.000000	7.097455	17.959	NaN	0.000000	0.001603	0.001727	28.0817	17.2938	0.001801	9602.6	7.044598	-175.338	17.4508	1.096567	0.016674	0.016405	17.959	9602.6	0.015271	0.015649	1147.64	70133.3
1141	2.000000	1.099341	7.37622e+06	-57189.1	1055.82	-29737.3	0.000000	0.000000	7.100163	22.8942	NaN	0.000000	0.001574	0.001685	28.0813	19.4718	0.001737	11210.3	6.773218	4.363464	22.5858	1.099044	0.019179	0.018882	22.8942	11210.3	0.017647	0.018979	1206.28	74345.2
1141	2.000000	1.101789	7.37622e+06	-57189.1	1055.82	-29737.3	0.000000	0.000000	7.102859	28.9291	NaN	0.000000	0.001562	0.001707	28.0819	22.1917	0.001751	12670.1	6.616274	-178.17	27.8567	1.101493	0.021626	0.021330	28.9291	12670.1	0.019914	0.022407	1291.05	77332
1141	2.000000	1.104337	7.37622e+06	-57189.1	1055.82	-29737.3	0.000000	0.000000	7.105506	31.3297	NaN	0.000000	0.001599	0.001681	28.0813	24.739	0.001745	14176	7.984831	0.654427	32.3567	1.103971	0.024175	0.023809	31.3297	14176	0.022517	0.026653	1175.46	79332.6
1141	2.000000	1.106811	7.37622e+06	-57189.1	1055.82	-29737.3	0.000000	0.000000	7.108236	37.5568	NaN	0.000000	0.001662	0.001724	28.0812	27.3895	0.001851	14798	7.870484	-179.626	37.2616	1.106471	0.026648	0.026309	37.5568	14798	0.024745	0.030553	1229.23	77348
1141	2.000000	1.109305	7.37622e+06	-57189.1	1055.82	-29737.3	0.000000	0.000000	7.110808	39.4525	NaN	0.000000	0.001636	0.001720	28.0803	28.3942	0.001831	15506.6	6.556508	1.533051	38.5011	1.109020	0.029143	0.028857	39.4525	15506.6	0.027235	0.035207	1120.59	75504.9
1141	2.000000	1.111842	7.37622e+06	-57189.1	1055.82	-29737.3	0.000000	0.000000	7.113696	47.9816	NaN	0.000000	0.001639	0.001688	28.0806	31.8193	0.001706	18650.9	8.445410	177.085	50.8136	1.111470	0.031680	0.031307	47.9816	18650.9	0.029751	0.040228	1192.73	84958.3
1141	2.000000	1.114291	7.37622e+06	-57189.1	1055.82	-29737.3	0.000000	0.000000	7.116549	57.8073	NaN	0.000000	0.001643	0.001698	28.08	34.8347	0.001854	18787.4	7.459340	-2.340125	56.6127	1.113938	0.034129	0.033775	57.8073	18787.4	0.031821	0.044603	1296.03	81274.9
1141	2.000000	1.116796	7.37622e+06	-57189.1	1055.82	-29737.3	0.000000	0.000000	7.119347	64.9209	NaN	0.000000	0.001667	0.001727	28.0802	36.5492	0.001704	21451.2	4.452712	179.536	63.9682	1.116509	0.036633	0.036346	64.9209	21451.2	0.034364	0.050275	1291.33	87407.8
1141	2.000000	1.119322	7.37622e+06	-57189.1	1055.82	-29737.3	0.000000	0.000000	7.122109	70.6706	NaN	0.000000	0.001607	0.001711	28.0803	38.3487	0.001648	23276.6	1.616719	1.392584	70.1638	1.118963	0.039160	0.038801	70.6706	23276.6	0.036882	0.056220	1257.03	89690.5
1141	2.000000	1.121824	7.37622e+06	-57189.1	1055.82	-29737.3	0.000000	0.000000	7.125045	81.2076	NaN	0.000000	0.001608	0.001709	28.0805	41.7708	0.001780	23469.3	10.136	175.246	83.926	1.121368	0.041662	0.041206	81.2076	23469.3	0.039067	0.061639	1317.48	86367
1141	2.000000	1.124253	7.37622e+06	-57189.1	1055.82	-29737.3	0.000000	0.000000	7.127873	90.899	NaN	0.000000	0.001593	0.001707	28.0801	44.1799	0.001794	24629.4	5.581076	-2.382635	88.2082	1.123906	0.044091	0.043743	90.899	24629.4	0.041323	0.067491	1346.82	86616.9
1141	2.000000	1.126726	7.37622e+06	-57189.1	1055.82	-29737.3	0.000000	0.000000	7.130725	100.116	NaN	0.000000	0.001594	0.001679	28.0811	46.1184	0.001771	26043.5	2.677534	-179.83	97.0068	1.126412	0.046564	0.046249	100.116	26043.5	0.043681	0.073887	1354.99	87536.5
1141	2.000000	1.129288	7.37622e+06	-57189.1	1055.82	-29737.3	0.000000	0.000000	7.133825	113.205	NaN	0.000000	0.001635	0.001696	28.0803	49.3636	0.001885	26190.2	11.237	-8.275858	111.149	1.128893	0.049125	0.048731	113.205	26190.2	0.045884	0.080116	1413.02	84538.3
1141	2.000000	1.131746	7.37622e+06	-57189.1	1055.82	-29737.3	0.000000	0.000000	7.136636	121.766	NaN	0.000000	0.001593	0.001707	28.08	51.2503	0.001829	28027.3	2.908280	178.743	121.05	1.131447	0.051584	0.051284	121.766	28027.3	0.048325	0.087307	1394.69	86662.2
1141	2.000000	1.134201	7.37622e+06	-57189.1	1055.82	-29737.3	0.000000	0.000000	7.139605	134.265	NaN	0.000000	0.001587	0.001702	28.0799	54.0019	0.001896	28481.1	7.004149	-5.647648	130.026	1.133804	0.054039	0.053641	134.265	28481.1	0.050504	0.093976	1428.72	84883.1
1141	2.000000	1.136695	7.37622e+06	-57189.1	1055.82	-29737.3	0.000000	0.000000	7.142704	148.974	NaN	0.000000	0.001565	0.001724	28.0808	55.5058	0.001861	29829.4	3.765665	177.784	146.824	1.136389	0.056533	0.056227	148.974	29829.4	0.052787	0.101222	1471.76	85660.7
1141	2.000000	1.139187	7.37622e+06	-57189.1	1055.82	-29737.3	0.000000	0.000000	7.145594	158.632	NaN	0.000000	0.001614	0.001727	28.0801	56.9289	0.001676	33962.5	0.839268	-0.931540	152.069	1.138836	0.059025	0.058673	158.632	33962.5	0.055522	0.110242	1438.95	93454.3
1141	2.000000	1.141682	7.37622e+06	-57189.1	1055.82	-29737.3	0.000000	0.000000	7.148587	170.763	NaN	0.000000	0.001611	0.001703	28.0815	59.2496	0.001681	35242.9	3.353380	176.704	166.738	1.141390	0.061519	0.061228	170.763	35242.9	0.057886	0.118335	1443.04	93602.7
1141	2.000000	1.144263	7.37622e+06	-57189.1	1055.82	-29737.3	0.000000	0.000000	7.151683	183.256	NaN	0.000000	0.001603	0.001699	28.0813	63.2099	0.001753	36048.3	9.145420	-9.991886	184.357	1.143860	0.064101	0.063698	183.256	36048.3	0.060288	0.126844	1444.74	92474.8
1141	2.000000	1.146833	7.37622e+06	-57189.1	1055.82	-29737.3	0.000000	0.000000	7.154840	197.548	NaN	0.000000	0.001600	0.001697	28.0817	65.4999	0.001681	38975.4	6.877356	174.142	201.498	1.146310	0.066670	0.066148	197.548	38975.4	0.062869	0.136297	1449.4	96454.2
1141	2.000000	1.149176	7.37622e+06	-57189.1	1055.82	-29737.3	0.000000	0.000000	7.157668	209.305	NaN	0.000000	0.001602	0.001730	28.0813	66.8649	0.001775	37669.4	1.485189	-1.908341	203.65	1.148888	0.069014	0.068725	209.305	37669.4	0.064847	0.143760	1455.93	90770.3
1141	2.000000	1.151700	7.37622e+06	-57189.1	1055.82	-29737.3	0.000000	0.000000	7.160942	227.543	NaN	0.000000	0.001596	0.001722	28.0812	69.472	0.001671	41571.4	-0.137653	178.132	225.478	1.151370	0.071538	0.071208	227.543	41571.4	0.067433	0.153801	1479.46	96847.5
1141	2.000000	1.154244	7.37622e+06	-57189.1	1055.82	-29737.3	0.000000	0.000000	7.163915	237.968	NaN	0.000000	0.001583	0.001726	28.0813	73.6679	0.001708	43124.9	4.342222	-6.415782	235.708	1.153801	0.074082	0.073639	237.968	43124.9	0.069944	0.163859	1452.27	97334.4
1141	2.000000	1.156702	7.37622e+06	-57189.1	1055.82	-29737.3	0.000000	0.000000	7.166937	251.674	NaN	0.000000	0.001580	0.001717	28.0817	76.7454	0.001908	40221.8	3.271219	176.152	248.224	1.156349	0.076540	0.076186	251.674	40221.8	0.071847	0.171683	1465.93	88689.4
1141	2.000000	1.159218	7.37622e+06	-57189.1	1055.82	-29737.3	0.000000	0.000000	7.170102	267.457	NaN	0.000000	0.001602	0.001775	28.0813	78.2056	0.001800	43454.5	5.219526	-7.250268	263.094	1.158822	0.079056	0.078660	267.457	43454.5	0.074440	0.182616	1464.59	92904.8
1141	2.000000	1.161718	7.37622e+06	-57189.1	1055.82	-29737.3	0.000000	0.000000	7.173349	285.596	NaN	0.000000	0.001575	0.001741	28.0812	79.9553	0.001841	43419.6	4.781771	173.529	286.718	1.161376	0.081556	0.081214	285.596	43419.6	0.076623	0.192067	1486.96	90517.4
1141	2.000000	1.164266	7.37622e+06	-57189.1	1055.82	-29737.3	0.000000	0.000000	7.176545	301.356	NaN	0.000000	0.001557	0.001756	28.0815	80.8616	0.001838	43994.6	2.945840	-5.184191	302.419	1.164005	0.084104	0.083842	301.356	43994.6	0.078967	0.202464	1488.44	89330.3
1141	2.000000	1.166596	7.37622e+06	-57189.1	1055.82	-29737.3	0.000000	0.000000	7.179760	322.884	NaN	0.000000	0.001559	0.001732	28.0812	84.6414	0.001793	47196.6	8.833404	168.44	317.159	1.166275	0.086434	0.086113	322.884	47196.6	0.081303	0.213081	1515.31	93413.9
1141	2.000000	1.169323	7.37622e+06	-57189.1	1055.82	-29737.3	0.000000	0.000000	7.183072	337.107	NaN	0.000000	0.001507	0.001700	28.0813	85.7079	0.001788	47934.9	7.170158	-8.699630	341.629	1.168734	0.089160	0.088572	337.107	47934.9	0.083886	0.225116	1497.48	92304.3
1141	2.000000	1.171768	7.37622e+06	-57189.1	1055.82	-29737.3	0.000000	0.000000	7.186518	361.411	NaN	0.000000	0.001529	0.001767	28.0812	87.4221	0.001782	49057.6	5.458093	172.061	362.272	1.171324	0.091606	0.091162	361.411	49057.6	0.086081	0.235585	1534.1	92343.4
1141	2.000000	1.174199	7.37622e+06	-57189.1	1055.82	-29737.3	0.000000	0.000000	7.189736	380.57	NaN	0.000000	0.001594	0.001754	28.0813	88.8833	0.001713	51878.4	-1.047454	-1.784939	377.505	1.173910	0.094036	0.093748	380.57	51878.4	0.088535	0.247551	1537.34	95263.8
1141	2.000000	1.176660	7.37622e+06	-57189.1	1055.82	-29737.3	0.000000	0.000000	7.192929	398.356	NaN	0.000000	0.001575	0.001726	28.0798	93.5539	0.001732	54007.8	6.739931	169.681	395.785	1.176338	0.096497	0.096176	398.356	54007.8	0.090966	0.259679	1534.03	96830.3
1141	2.000000	1.179158	7.37622e+06	-57189.1	1055.82	-29737.3	0.000000	0.000000	7.196348	420.738	NaN	0.000000	0.001637	0.001701	28.0799	94.4389	0.001833	51528.1	0.763045	-3.240028	415.367	1.178743	0.098996	0.098581	420.738	51528.1	0.092872	0.269378	1561.89	90705.9
1141	2.000000	1.181719	7.37622e+06	-57189.1	1055.82	-29737.3	0.000000	0.000000	7.199806	442.53	NaN	0.000000	0.001664	0.001726	28.0799	98.3465	0.001777	55347.9	6.101898	170.742	441.117	1.181289	0.101557	0.101127	442.53	55347.9	0.095560	0.283340	1561.83	94999.3
1141	2.000000	1.184186	7.37622e+06	-57189.1	1055.82	-29737.3	0.000000	0.000000	7.203288	467.214	NaN	0.000000	0.001661	0.001734	28.0802	99.7804	0.001868	53420.4	3.091391	-6.496397	463.946	1.183784	0.104023	0.103622	467.214	53420.4	0.097464	0.293426	1592.27	90101.4
1141	2.000000	1.186697	7.37622e+06	-57189.1	1055.82	-29737.3	0.000000	0.000000	7.206331	480.127	NaN	0.000000	0.001636	0.001736	28.0797	103.505	0.001757	58896.5	8.758237	166.588	479.88	1.186456	0.106535	0.106294	480.127	58896.5	0.100421	0.309420	1551.7	96736