File: remote_trans/data/nanoindenter/0828-1/data/Data_2025-08-06,11h17m57s/2025-07-22_16-23-58_1_614.txt
2025-07-22, 16:23:58, 1
Index	Phase	Displacement	Time	Pos X	Pos Y	Pos Z	Rot A	Rot B	Piezo Z	Force A	Force B	Gripper	Voltage A	Voltage B	Temperature	Amplitude force	Amplitude pos	Stiffness	Phase shift	Phase excitation	Force A raw	Displacement raw	HMax	HMax raw	Real Force	Real Stiffness	Contact Depth	Area	Hardness	Reduced Mod.
[#]	[#]	[um]	[s]	[um]	[um]	[um]	[m°]	[m°]	[um]	[uN]	[uN]	[V]	[V]	[V]	[°C]	[uN]	[um]	[N/m]	[°]	[°]	[uN]	[um]	[um]	[um]	[uN]	[N/m]	[um]	[um^2]	[MPa]	[MPa]
614	1.000000	0.002799	7.37106e+06	-46389.1	1005.82	-29769.3	0.000000	0.000000	6.002801	-0.008737	NaN	0.000000	0.001565	0.001695	28.0827	0.052930	0.000965	54.8331	-77.0591	-172.416	-0.001397	0.001548	-1.079285	-1.080537	-0.008737	54.8331	-1.079166	-2.632162E+14	3.319236E-17	NaN
614	1.000000	0.010760	7.37106e+06	-46389.1	1005.82	-29769.3	0.000000	0.000000	6.010762	-0.004540	NaN	0.000000	0.001554	0.001682	28.0836	0.067016	0.000918	72.9772	-139.264	-167.219	0.003593	0.009468	-1.071325	-1.072616	-0.004540	72.9772	-1.071278	-2.062329E+14	2.201368E-17	NaN
614	1.000000	0.018791	7.37106e+06	-46389.1	1005.82	-29769.3	0.000000	0.000000	6.018793	-0.029796	NaN	0.000000	0.001546	0.001699	28.0839	0.068217	0.001750	38.9724	38.4329	-165.732	-0.033220	0.017445	-1.063293	-1.064640	-0.029796	38.9724	-1.062720	-1.582588E+14	1.882716E-16	NaN
614	1.000000	0.026797	7.37106e+06	-46389.1	1005.82	-29769.3	0.000000	0.000000	6.026800	0.006609	NaN	0.000000	0.001621	0.001686	28.0838	0.162866	0.001690	96.3893	-20.1809	-164.294	-0.006346	0.025425	-1.055287	-1.056660	0.006609	96.3893	-1.055339	-1.259433E+14	-5.247468E-17	NaN
614	1.000000	0.034743	7.37106e+06	-46389.1	1005.82	-29769.3	0.000000	0.000000	6.034744	-0.044717	NaN	0.000000	0.001578	0.001642	28.0838	0.098683	0.001918	51.452	-107.765	-161.782	-0.036391	0.033481	-1.047341	-1.048603	-0.044717	51.452	-1.046689	-9.636287E+13	4.640473E-16	NaN
614	1.000000	0.042750	7.37106e+06	-46389.1	1005.82	-29769.3	0.000000	0.000000	6.042751	-0.039508	NaN	0.000000	0.001603	0.001656	28.0839	0.052162	0.001954	26.6888	154.974	-163.545	-0.026571	0.041459	-1.039334	-1.040626	-0.039508	26.6888	-1.038224	-7.414535E+13	5.328513E-16	NaN
614	1.000000	0.050738	7.37106e+06	-46389.1	1005.82	-29769.3	0.000000	0.000000	6.050739	-0.033812	NaN	0.000000	0.001617	0.001684	28.0836	0.107488	0.001977	54.3706	-98.2198	-161.478	0.017093	0.049457	-1.031347	-1.032628	-0.033812	54.3706	-1.030880	-5.906402E+13	5.724621E-16	NaN
614	1.000000	0.058718	7.37106e+06	-46389.1	1005.82	-29769.3	0.000000	0.000000	6.058718	-0.046409	NaN	0.000000	0.001567	0.001664	28.0836	0.067223	0.002063	32.5918	165.552	-163.291	0.020521	0.057414	-1.023367	-1.024670	-0.046409	32.5918	-1.022299	-4.527721E+13	1.025002E-15	NaN
614	1.000000	0.066752	7.37106e+06	-46389.1	1005.82	-29769.3	0.000000	0.000000	6.066753	-0.023312	NaN	0.000000	0.001590	0.001669	28.0835	0.066330	0.002109	31.4537	155.044	-163.168	-0.078319	0.065417	-1.015333	-1.016667	-0.023312	31.4537	-1.014777	-3.586480E+13	6.499864E-16	NaN
614	1.000000	0.074760	7.37106e+06	-46389.1	1005.82	-29769.3	0.000000	0.000000	6.074757	-0.108233	NaN	0.000000	0.001577	0.001676	28.0835	0.124397	0.002089	59.5562	-144.982	-166.226	0.037355	0.073436	-1.007325	-1.008649	-0.108233	59.5562	-1.005962	-2.729166E+13	3.965787E-15	NaN
614	1.000000	0.082755	7.37106e+06	-46389.1	1005.82	-29769.3	0.000000	0.000000	6.082757	-0.017219	NaN	0.000000	0.001540	0.001697	28.0834	0.096605	0.001889	51.1502	178.54	-163.344	-0.019315	0.081462	-0.999329	-1.000623	-0.017219	51.1502	-0.999077	-2.204628E+13	7.810466E-16	NaN
614	1.000000	0.090784	7.37106e+06	-46389.1	1005.82	-29769.3	0.000000	0.000000	6.090784	-0.064833	NaN	0.000000	0.001553	0.001657	28.0834	0.083013	0.002142	38.756	15.076	-163.241	-0.040897	0.089443	-0.991300	-0.992642	-0.064833	38.756	-0.990046	-1.666199E+13	3.891092E-15	NaN
614	1.000000	0.098741	7.37106e+06	-46389.1	1005.82	-29769.3	0.000000	0.000000	6.098743	-0.024547	NaN	0.000000	0.001520	0.001653	28.0835	0.072025	0.002076	34.6912	45.0792	-166.348	-0.037421	0.097435	-0.983343	-0.984650	-0.024547	34.6912	-0.982812	-1.331370E+13	1.843758E-15	NaN
614	1.000000	0.106763	7.37106e+06	-46389.1	1005.82	-29769.3	0.000000	0.000000	6.106760	-0.115524	NaN	0.000000	0.001548	0.001693	28.0833	0.132438	0.002088	63.4254	119.531	-167.237	-0.155021	0.105459	-0.975322	-0.976626	-0.115524	63.4254	-0.973956	-1.011509E+13	1.142091E-14	NaN
614	1.000000	0.114802	7.37106e+06	-46389.1	1005.82	-29769.3	0.000000	0.000000	6.114807	0.079101	NaN	0.000000	0.001512	0.001675	28.0837	0.085938	0.001896	45.3218	-92.8333	-164.561	0.014066	0.113405	-0.967283	-0.968680	0.079101	45.3218	-0.968592	-8.564171E+12	-9.236284E-15	NaN
614	1.000000	0.122801	7.37106e+06	-46389.1	1005.82	-29769.3	0.000000	0.000000	6.122802	-0.032057	NaN	0.000000	0.001519	0.001659	28.0837	0.108641	0.001948	55.766	-121.971	-161.179	-0.028946	0.121455	-0.959284	-0.960630	-0.032057	55.766	-0.958853	-6.329926E+12	5.064419E-15	NaN
614	1.000000	0.130758	7.37106e+06	-46389.1	1005.82	-29769.3	0.000000	0.000000	6.130758	-0.067888	NaN	0.000000	0.001555	0.001658	28.0837	0.077128	0.001993	38.7077	88.4001	-162.21	-0.018002	0.129455	-0.951326	-0.952629	-0.067888	38.7077	-0.950011	-4.810282E+12	1.411314E-14	NaN
614	1.000000	0.138760	7.37106e+06	-46389.1	1005.82	-29769.3	0.000000	0.000000	6.138764	0.035271	NaN	0.000000	0.001537	0.001663	28.0841	0.007679	0.002032	3.778813	0.584825	-163.934	0.000219	0.137495	-0.943324	-0.944590	0.035271	3.778813	-0.950325	-4.857402E+12	-7.261285E-15	NaN
614	1.000000	0.146755	7.37106e+06	-46389.1	1005.82	-29769.3	0.000000	0.000000	6.146758	0.002909	NaN	0.000000	0.001535	0.001696	28.0821	0.049911	0.002096	23.8097	40.7065	-166.682	-0.001834	0.145519	-0.935329	-0.936566	0.002909	23.8097	-0.935421	-3.057426E+12	-9.515984E-16	NaN
614	1.000000	0.154825	7.37106e+06	-46389.1	1005.82	-29769.3	0.000000	0.000000	6.154827	-0.008315	NaN	0.000000	0.001558	0.001656	28.0825	0.098599	0.001951	50.5408	63.4414	-166.216	-0.022080	0.153457	-0.927260	-0.928627	-0.008315	50.5408	-0.927136	-2.363444E+12	3.518014E-15	NaN
614	1.000000	0.162798	7.37106e+06	-46389.1	1005.82	-29769.3	0.000000	0.000000	6.162801	0.010413	NaN	0.000000	0.001560	0.001675	28.0822	0.061414	0.002014	30.4916	-103.719	-163.689	-0.037436	0.161496	-0.919287	-0.920589	0.010413	30.4916	-0.919543	-1.866522E+12	-5.578951E-15	NaN
614	1.000000	0.170781	7.37106e+06	-46389.1	1005.82	-29769.3	0.000000	0.000000	6.170786	0.069012	NaN	0.000000	0.001570	0.001669	28.0824	0.026501	0.001999	13.2601	-59.8376	-164.675	0.043189	0.169506	-0.911303	-0.912579	0.069012	13.2601	-0.915207	-1.631105E+12	-4.231015E-14	NaN
614	1.000000	0.178796	7.37106e+06	-46389.1	1005.82	-29769.3	0.000000	0.000000	6.178796	-0.064531	NaN	0.000000	0.001571	0.001641	28.0823	0.012844	0.001884	6.816869	-116.758	-165.793	-0.036022	0.177497	-0.903288	-0.904588	-0.064531	6.816869	-0.896189	-9.027349E+11	7.148386E-14	NaN
614	1.000000	0.186787	7.37106e+06	-46389.1	1005.82	-29769.3	0.000000	0.000000	6.186789	-0.021476	NaN	0.000000	0.001585	0.001624	28.0821	0.092187	0.001984	46.4692	167.127	-160.939	-0.042855	0.185524	-0.895297	-0.896561	-0.021476	46.4692	-0.894951	-8.686209E+11	2.472440E-14	NaN
614	1.000000	0.194793	7.37106e+06	-46389.1	1005.82	-29769.3	0.000000	0.000000	6.194795	-0.003853	NaN	0.000000	0.001566	0.001657	28.0824	0.017767	0.002072	8.573534	-40.0407	-161.923	-0.074651	0.193503	-0.887291	-0.888582	-0.003853	8.573534	-0.886954	-6.772359E+11	5.689176E-15	NaN
614	1.000000	0.202810	7.37106e+06	-46389.1	1005.82	-29769.3	0.000000	0.000000	6.202811	-0.027969	NaN	0.000000	0.001526	0.001667	28.0823	0.076876	0.002025	37.9549	-177.237	-163.434	0.053815	0.201479	-0.879275	-0.880606	-0.027969	37.9549	-0.878722	-5.241161E+11	5.336388E-14	NaN
614	1.000000	0.210822	7.37106e+06	-46389.1	1005.82	-29769.3	0.000000	0.000000	6.210822	-0.073472	NaN	0.000000	0.001558	0.001664	28.0824	0.030426	0.001939	15.6938	-42.0417	-165.23	-0.091226	0.209546	-0.871262	-0.872538	-0.073472	15.6938	-0.867751	-3.724056E+11	1.972901E-13	NaN
614	1.000000	0.218808	7.37106e+06	-46389.1	1005.82	-29769.3	0.000000	0.000000	6.218807	-0.075348	NaN	0.000000	0.001567	0.001657	28.0825	0.055190	0.002077	26.5737	5.778259	-163.042	0.011704	0.217523	-0.863277	-0.864561	-0.075348	26.5737	-0.861150	-3.031708E+11	2.485342E-13	NaN
614	1.000000	0.226842	7.37106e+06	-46389.1	1005.82	-29769.3	0.000000	0.000000	6.226844	-0.018392	NaN	0.000000	0.001524	0.001663	28.0825	0.088753	0.002034	43.633	56.4084	-163.871	-0.058290	0.225552	-0.855242	-0.856532	-0.018392	43.633	-0.854926	-2.497111E+11	7.365349E-14	NaN
614	1.000000	0.234808	7.37106e+06	-46389.1	1005.82	-29769.3	0.000000	0.000000	6.234808	-0.058677	NaN	0.000000	0.001525	0.001642	28.0828	0.052935	0.001994	26.5465	27.9625	-162.221	0.012526	0.233598	-0.847277	-0.848487	-0.058677	26.5465	-0.845619	-1.868139E+11	3.140953E-13	NaN
614	1.000000	0.242849	7.37106e+06	-46389.1	1005.82	-29769.3	0.000000	0.000000	6.242848	-0.093813	NaN	0.000000	0.001571	0.001643	28.0822	0.091688	0.001909	48.0322	9.901140	-165.502	-0.034210	0.241417	-0.839235	-0.840667	-0.093813	48.0322	-0.837770	-1.462453E+11	6.414737E-13	NaN
614	1.000000	0.250858	7.37106e+06	-46389.1	1005.82	-29769.3	0.000000	0.000000	6.250859	-0.032781	NaN	0.000000	0.001511	0.001668	28.0824	0.108688	0.001941	55.9853	104.618	-162.343	-0.025399	0.249556	-0.831227	-0.832529	-0.032781	55.9853	-0.830788	-1.176149E+11	2.787161E-13	NaN
614	1.000000	0.258820	7.37106e+06	-46389.1	1005.82	-29769.3	0.000000	0.000000	6.258821	-0.032989	NaN	0.000000	0.001528	0.001690	28.0823	0.004871	0.001952	2.495644	-144.649	-165.464	0.016871	0.257517	-0.823265	-0.824567	-0.032989	2.495644	-0.813351	-6.823812E+10	4.834429E-13	NaN
614	1.000000	0.266839	7.37106e+06	-46389.1	1005.82	-29769.3	0.000000	0.000000	6.266840	-0.027264	NaN	0.000000	0.001565	0.001681	28.0823	0.037702	0.001991	18.9346	-1.983606	-165.71	-0.047978	0.265513	-0.815245	-0.816571	-0.027264	18.9346	-0.814166	-6.999727E+10	3.894957E-13	NaN
614	1.000000	0.274808	7.37106e+06	-46389.1	1005.82	-29769.3	0.000000	0.000000	6.274809	-0.023975	NaN	0.000000	0.001567	0.001694	28.0829	0.035248	0.001970	17.8912	161.264	-164.474	-0.030418	0.273507	-0.807277	-0.808577	-0.023975	17.8912	-0.806272	-5.469985E+10	4.382957E-13	NaN
614	1.000000	0.282843	7.37106e+06	-46389.1	1005.82	-29769.3	0.000000	0.000000	6.282843	-0.067862	NaN	0.000000	0.001597	0.001666	28.0837	0.121634	0.001996	60.9278	117.498	-164.745	0.011824	0.281536	-0.799241	-0.800549	-0.067862	60.9278	-0.798406	-4.277825E+10	1.586367E-12	NaN
614	1.000000	0.290834	7.37106e+06	-46389.1	1005.82	-29769.3	0.000000	0.000000	6.290833	-0.073069	NaN	0.000000	0.001577	0.001644	28.0836	0.033669	0.002093	16.0852	178.712	-163.058	-0.116568	0.289536	-0.791251	-0.792548	-0.073069	16.0852	-0.787844	-3.074648E+10	2.376486E-12	NaN
614	1.000000	0.298851	7.37106e+06	-46389.1	1005.82	-29769.3	0.000000	0.000000	6.298853	-0.011610	NaN	0.000000	0.001579	0.001686	28.0835	0.056207	0.001921	29.2639	-131.905	-164.331	-0.065699	0.297528	-0.783234	-0.784556	-0.011610	29.2639	-0.782936	-2.637111E+10	4.402650E-13	NaN
614	1.000000	0.306844	7.37106e+06	-46389.1	1005.82	-29769.3	0.000000	0.000000	6.306843	-0.076992	NaN	0.000000	0.001576	0.001704	28.0838	0.067660	0.001939	34.8993	-156.462	-163.589	0.006658	0.305539	-0.775241	-0.776545	-0.076992	34.8993	-0.773586	-1.968148E+10	3.911888E-12	NaN
614	1.000000	0.314869	7.37106e+06	-46389.1	1005.82	-29769.3	0.000000	0.000000	6.314873	0.033347	NaN	0.000000	0.001579	0.001706	28.0837	0.013210	0.001986	6.651397	-131.879	-161.293	0.012351	0.313528	-0.767216	-0.768556	0.033347	6.651397	-0.770976	-1.813734E+10	-1.838590E-12	NaN
614	1.000000	0.322852	7.37106e+06	-46389.1	1005.82	-29769.3	0.000000	0.000000	6.322854	-0.024038	NaN	0.000000	0.001602	0.001666	28.0837	0.160655	0.001990	80.716	53.7942	-166.726	-0.071985	0.321555	-0.759232	-0.760529	-0.024038	80.716	-0.759009	-1.246853E+10	1.927858E-12	NaN
614	1.000000	0.330881	7.37106e+06	-46389.1	1005.82	-29769.3	0.000000	0.000000	6.330882	-0.020851	NaN	0.000000	0.001577	0.001741	28.084	0.061812	0.002037	30.3387	161.902	-163.105	-0.101119	0.329599	-0.751204	-0.752485	-0.020851	30.3387	-0.750688	-9.607057E+9	2.170379E-12	NaN
614	1.000000	0.338859	7.37106e+06	-46389.1	1005.82	-29769.3	0.000000	0.000000	6.338859	-0.062037	NaN	0.000000	0.001534	0.001704	28.0838	0.042589	0.001898	22.4409	-168.903	-166.264	0.008682	0.337579	-0.743226	-0.744505	-0.062037	22.4409	-0.741152	-7.124430E+9	8.707659E-12	NaN
614	1.000000	0.346880	7.37106e+06	-46389.1	1005.82	-29769.3	0.000000	0.000000	6.346883	0.001887	NaN	0.000000	0.001590	0.001664	28.0838	0.074590	0.001997	37.3446	-79.7168	-164.574	0.028621	0.345552	-0.735204	-0.736532	0.001887	37.3446	-0.735242	-5.918888E+9	-3.188803E-13	NaN
614	1.000000	0.354866	7.37106e+06	-46389.1	1005.82	-29769.3	0.000000	0.000000	6.354868	-0.010082	NaN	0.000000	0.001590	0.001672	28.0836	0.135011	0.001973	68.4131	179.175	-165.513	-0.079300	0.353558	-0.727219	-0.728526	-0.010082	68.4131	-0.727108	-4.585578E+9	2.198627E-12	NaN
614	1.000000	0.362862	7.37106e+06	-46389.1	1005.82	-29769.3	0.000000	0.000000	6.362864	-0.002717	NaN	0.000000	0.001556	0.001663	28.0837	0.079226	0.002018	39.2588	-14.7471	-162.531	0.039413	0.361569	-0.719223	-0.720515	-0.002717	39.2588	-0.719171	-3.574088E+9	7.601265E-13	NaN
614	1.000000	0.370868	7.37106e+06	-46389.1	1005.82	-29769.3	0.000000	0.000000	6.370870	-0.024260	NaN	0.000000	0.001515	0.001665	28.0837	0.093098	0.001980	47.0235	24.6561	-164.657	0.030492	0.369574	-0.711216	-0.712511	-0.024260	47.0235	-0.710829	-2.750200E+9	8.821242E-12	NaN
614	1.000000	0.378884	7.37106e+06	-46389.1	1005.82	-29769.3	0.000000	0.000000	6.378885	-0.046072	NaN	0.000000	0.001543	0.001658	28.0837	0.040490	0.001906	21.2417	-87.9832	-163.953	-0.012582	0.377527	-0.703200	-0.704557	-0.046072	21.2417	-0.701574	-2.055990E+9	2.240883E-11	NaN
614	1.000000	0.386881	7.37106e+06	-46389.1	1005.82	-29769.3	0.000000	0.000000	6.386881	-0.052989	NaN	0.000000	0.001555	0.001665	28.0838	0.077657	0.002194	35.4	-44.226	-166.763	-0.011231	0.385584	-0.695203	-0.696501	-0.052989	35.4	-0.694081	-1.624349E+9	3.262186E-11	NaN
614	1.000000	0.394906	7.37106e+06	-46389.1	1005.82	-29769.3	0.000000	0.000000	6.394910	0.034124	NaN	0.000000	0.001518	0.001700	28.0836	0.136602	0.001993	68.548	69.3962	-165.424	-0.004847	0.393562	-0.687178	-0.688522	0.034124	68.548	-0.687552	-1.322679E+9	-2.579896E-11	NaN
614	1.000000	0.402915	7.37106e+06	-46389.1	1005.82	-29769.3	0.000000	0.000000	6.402916	-0.022242	NaN	0.000000	0.001538	0.001709	28.0838	0.086172	0.002006	42.9503	-122.954	-164.65	-0.081549	0.401603	-0.679170	-0.680481	-0.022242	42.9503	-0.678781	-1.003552E+9	2.216307E-11	NaN
614	1.000000	0.410908	7.37106e+06	-46389.1	1005.82	-29769.3	0.000000	0.000000	6.410912	0.025694	NaN	0.000000	0.001576	0.001708	28.0835	0.091581	0.002108	43.4416	153.142	-164.894	0.007375	0.409572	-0.671176	-0.672513	0.025694	43.4416	-0.671620	-8.008623E+8	-3.208285E-11	NaN
614	1.000000	0.418891	7.37106e+06	-46389.1	1005.82	-29769.3	0.000000	0.000000	6.418893	-0.002335	NaN	0.000000	0.001562	0.001714	28.0825	0.050917	0.002042	24.9364	-115.648	-163.776	-0.058034	0.417581	-0.663194	-0.664503	-0.002335	24.9364	-0.663123	-6.126961E+8	3.810732E-12	NaN
614	1.000000	0.426894	7.37106e+06	-46389.1	1005.82	-29769.3	0.000000	0.000000	6.426893	-0.073801	NaN	0.000000	0.001559	0.001710	28.0824	0.068235	0.002037	33.4967	-138.916	-164.168	-0.096129	0.425634	-0.655191	-0.656450	-0.073801	33.4967	-0.653538	-4.528307E+8	1.629781E-10	NaN
614	1.000000	0.434917	7.37106e+06	-46389.1	1005.82	-29769.3	0.000000	0.000000	6.434919	-0.015154	NaN	0.000000	0.001528	0.001705	28.0824	0.120848	0.001978	61.0821	10.5536	-164.221	0.010721	0.433547	-0.647168	-0.648538	-0.015154	61.0821	-0.646982	-3.681737E+8	4.115900E-11	NaN
614	1.000000	0.442914	7.37106e+06	-46389.1	1005.82	-29769.3	0.000000	0.000000	6.442919	0.049145	NaN	0.000000	0.001534	0.001697	28.0825	0.135254	0.002098	64.4667	13.8439	-165.142	-0.009736	0.441571	-0.639170	-0.640514	0.049145	64.4667	-0.639742	-2.929212E+8	-1.677749E-10	NaN
614	1.000000	0.450938	7.37106e+06	-46389.1	1005.82	-29769.3	0.000000	0.000000	6.450939	-0.054094	NaN	0.000000	0.001531	0.001664	28.0823	0.065433	0.001920	34.0749	146.062	-164.475	-0.040869	0.449640	-0.631146	-0.632445	-0.054094	34.0749	-0.629955	-2.149866E+8	2.516178E-10	NaN
614	1.000000	0.458927	7.37106e+06	-46389.1	1005.82	-29769.3	0.000000	0.000000	6.458929	-0.010556	NaN	0.000000	0.001525	0.001674	28.0825	0.186415	0.002059	90.5514	144.906	-163.584	-0.014239	0.457580	-0.623157	-0.624504	-0.010556	90.5514	-0.623070	-1.729113E+8	6.105024E-11	NaN
614	1.000000	0.466908	7.37106e+06	-46389.1	1005.82	-29769.3	0.000000	0.000000	6.466908	-0.065506	NaN	0.000000	0.001550	0.001690	28.0825	0.087091	0.001922	45.3081	-136.909	-165.311	-0.092410	0.465560	-0.615176	-0.616525	-0.065506	45.3081	-0.614092	-1.301375E+8	5.033622E-10	NaN
614	1.000000	0.474925	7.37106e+06	-46389.1	1005.82	-29769.3	0.000000	0.000000	6.474927	-0.016714	NaN	0.000000	0.001515	0.001677	28.0825	0.094698	0.001997	47.4188	20.3084	-164.886	-0.027366	0.473623	-0.607160	-0.608462	-0.016714	47.4188	-0.606895	-1.036074E+8	1.613182E-10	NaN
614	1.000000	0.482942	7.37106e+06	-46389.1	1005.82	-29769.3	0.000000	0.000000	6.482942	-0.064073	NaN	0.000000	0.001507	0.001676	28.0827	0.053130	0.002077	25.5853	86.794	-166.992	-0.014587	0.481629	-0.599142	-0.600455	-0.064073	25.5853	-0.597264	-7.634328E+7	8.392769E-10	NaN
614	1.000000	0.490935	7.37106e+06	-46389.1	1005.82	-29769.3	0.000000	0.000000	6.490936	-0.039677	NaN	0.000000	0.001534	0.001659	28.0823	0.028889	0.001991	14.5065	70.1313	-164.507	-0.038232	0.489572	-0.591150	-0.592512	-0.039677	14.5065	-0.589098	-5.891636E+7	6.734449E-10	NaN
614	1.000000	0.498936	7.37106e+06	-46389.1	1005.82	-29769.3	0.000000	0.000000	6.498938	-0.009413	NaN	0.000000	0.001518	0.001683	28.0823	0.101232	0.001985	50.9987	-163.035	-164.65	0.011208	0.497618	-0.583149	-0.584467	-0.009413	50.9987	-0.583010	-4.855873E+7	1.938505E-10	NaN
614	1.000000	0.506953	7.37106e+06	-46389.1	1005.82	-29769.3	0.000000	0.000000	6.506957	0.042958	NaN	0.000000	0.001520	0.001677	28.0823	0.037346	0.001974	18.9206	-20.6477	-166.385	-0.077700	0.505600	-0.575131	-0.576484	0.042958	18.9206	-0.576834	-3.990492E+7	-1.076517E-9	NaN
614	1.000000	0.514928	7.37106e+06	-46389.1	1005.82	-29769.3	0.000000	0.000000	6.514929	-0.012703	NaN	0.000000	0.001568	0.001694	28.0823	0.113702	0.001953	58.2083	8.888665	-165.638	-0.040091	0.513582	-0.567157	-0.568503	-0.012703	58.2083	-0.566993	-2.917965E+7	4.353260E-10	NaN
614	1.000000	0.522939	7.37106e+06	-46389.1	1005.82	-29769.3	0.000000	0.000000	6.522943	0.033171	NaN	0.000000	0.001541	0.001666	28.0825	0.130362	0.001931	67.4984	-18.4599	-162.912	0.044925	0.521665	-0.559145	-0.560420	0.033171	67.4984	-0.559514	-2.299597E+7	-1.442448E-9	NaN
614	1.000000	0.530934	7.37106e+06	-46389.1	1005.82	-29769.3	0.000000	0.000000	6.530935	-0.044137	NaN	0.000000	0.001550	0.001671	28.0822	0.021924	0.001862	11.7754	119.802	-165.394	-0.006443	0.529680	-0.551150	-0.552404	-0.044137	11.7754	-0.548339	-1.610453E+7	2.740683E-9	NaN
614	1.000000	0.538964	7.37106e+06	-46389.1	1005.82	-29769.3	0.000000	0.000000	6.538964	-0.056069	NaN	0.000000	0.001577	0.001684	28.0821	0.020186	0.001930	10.4585	119.101	-164.598	-0.075080	0.537681	-0.543121	-0.544404	-0.056069	10.4585	-0.539100	-1.199158E+7	4.675726E-9	NaN
614	1.000000	0.546969	7.37106e+06	-46389.1	1005.82	-29769.3	0.000000	0.000000	6.546971	-0.008075	NaN	0.000000	0.001575	0.001665	28.0821	0.097716	0.002053	47.6038	179.365	-164.084	0.031781	0.545658	-0.535115	-0.536426	-0.008075	47.6038	-0.534988	-1.051543E+7	7.679609E-10	NaN
614	1.000000	0.554987	7.37106e+06	-46389.1	1005.82	-29769.3	0.000000	0.000000	6.554991	0.025448	NaN	0.000000	0.001562	0.001655	28.0835	0.032285	0.002082	15.5071	-78.6218	-165.661	0.067875	0.553653	-0.527097	-0.528431	0.025448	15.5071	-0.528328	-8.49866e+06	-2.994373E-9	NaN
614	1.000000	0.562985	7.37106e+06	-46389.1	1005.82	-29769.3	0.000000	0.000000	6.562984	-0.090827	NaN	0.000000	0.001516	0.001697	28.0836	0.028797	0.002022	14.2453	-18.0663	-161.996	-0.002951	0.561692	-0.519099	-0.520392	-0.090827	14.2453	-0.514317	-5.42661e+06	1.673739E-8	NaN
614	1.000000	0.570943	7.37106e+06	-46389.1	1005.82	-29769.3	0.000000	0.000000	6.570944	-0.033727	NaN	0.000000	0.001556	0.001683	28.0833	0.149138	0.002016	73.9837	111.387	-164.396	-0.035895	0.569669	-0.511142	-0.512416	-0.033727	73.9837	-0.510800	-4.84791e+06	6.956933E-9	NaN
614	1.000000	0.578984	7.37106e+06	-46389.1	1005.82	-29769.3	0.000000	0.000000	6.578988	0.031615	NaN	0.000000	0.001531	0.001664	28.0837	0.046086	0.002013	22.8988	179.563	-164.327	0.063945	0.577679	-0.503101	-0.504406	0.031615	22.8988	-0.504136	-3.91471e+06	-8.075836E-9	NaN
614	1.000000	0.586972	7.37106e+06	-46389.1	1005.82	-29769.3	0.000000	0.000000	6.586973	-0.019810	NaN	0.000000	0.001517	0.001687	28.0833	0.141879	0.002107	67.3218	-98.9681	-166.134	-0.041523	0.585710	-0.495113	-0.496374	-0.019810	67.3218	-0.494892	-2.9089e+06	6.810246E-9	NaN
614	1.000000	0.595013	7.37106e+06	-46389.1	1005.82	-29769.3	0.000000	0.000000	6.595015	-0.014328	NaN	0.000000	0.001536	0.001642	28.0834	0.076953	0.002132	36.0925	138.62	-167.52	0.012187	0.593688	-0.487071	-0.488396	-0.014328	36.0925	-0.486774	-2.24023e+06	6.395824E-9	NaN
614	1.000000	0.602990	7.37106e+06	-46389.1	1005.82	-29769.3	0.000000	0.000000	6.602991	-0.023534	NaN	0.000000	0.001545	0.001690	28.0836	0.071591	0.002126	33.6805	-102.396	-165.473	-0.055836	0.601677	-0.479095	-0.480407	-0.023534	33.6805	-0.478571	-1.71996e+06	1.368300E-8	NaN
614	1.000000	0.610992	7.37106e+06	-46389.1	1005.82	-29769.3	0.000000	0.000000	6.610993	-0.014497	NaN	0.000000	0.001490	0.001686	28.0834	0.014049	0.001917	7.328869	80.574	-167.916	-0.040985	0.609580	-0.471093	-0.472504	-0.014497	7.328869	-0.469609	-1.28804e+06	1.125481E-8	NaN
614	1.000000	0.619005	7.37106e+06	-46389.1	1005.82	-29769.3	0.000000	0.000000	6.619009	0.041534	NaN	0.000000	0.001509	0.001695	28.0836	0.088490	0.002062	42.9067	-99.4007	-164.683	0.045067	0.617667	-0.463080	-0.464417	0.041534	42.9067	-0.463806	-1.06777e+06	-3.889774E-8	NaN
614	1.000000	0.627003	7.37106e+06	-46389.1	1005.82	-29769.3	0.000000	0.000000	6.627006	0.013704	NaN	0.000000	0.001545	0.001659	28.0836	0.031881	0.001967	16.2091	-155.827	-160.724	0.030401	0.625641	-0.455082	-0.456444	0.013704	16.2091	-0.455716	-821833	-1.667453E-8	NaN
614	1.000000	0.635000	7.37106e+06	-46389.1	1005.82	-29769.3	0.000000	0.000000	6.635001	-0.027229	NaN	0.000000	0.001530	0.001693	28.0838	0.053407	0.002059	25.9327	26.1277	-163.11	-0.075265	0.633729	-0.447084	-0.448355	-0.027229	25.9327	-0.446297	-605581	4.496298E-8	NaN
614	1.000000	0.642976	7.37106e+06	-46389.1	1005.82	-29769.3	0.000000	0.000000	6.642978	-0.007888	NaN	0.000000	0.001529	0.001664	28.0834	0.059448	0.002040	29.144	-122.222	-167.26	-0.020312	0.641672	-0.439109	-0.440412	-0.007888	29.144	-0.438906	-476341	1.655932E-8	NaN
614	1.000000	0.650990	7.37106e+06	-46389.1	1005.82	-29769.3	0.000000	0.000000	6.650991	-0.028850	NaN	0.000000	0.001540	0.001670	28.0838	0.061027	0.002078	29.3702	97.1964	-164.265	-0.027716	0.649687	-0.431095	-0.432397	-0.028850	29.3702	-0.430358	-360681	7.998766E-8	NaN
614	1.000000	0.659027	7.37106e+06	-46389.1	1005.82	-29769.3	0.000000	0.000000	6.659029	-0.014895	NaN	0.000000	0.001516	0.001679	28.0834	0.054067	0.002027	26.6799	-109.623	-165.706	-0.068386	0.657735	-0.423058	-0.424349	-0.014895	26.6799	-0.422639	-280433	5.311557E-8	NaN
614	1.000000	0.667028	7.37106e+06	-46389.1	1005.82	-29769.3	0.000000	0.000000	6.667031	-0.009029	NaN	0.000000	0.001514	0.001711	28.0837	0.031020	0.002042	15.1898	92.1603	-165.892	-0.026193	0.665669	-0.415056	-0.416416	-0.009029	15.1898	-0.414610	-215734	4.185094E-8	NaN
614	1.000000	0.675013	7.37106e+06	-46389.1	1005.82	-29769.3	0.000000	0.000000	6.675016	-0.001903	NaN	0.000000	0.001529	0.001676	28.084	0.018750	0.002021	9.276592	-107.319	-163.883	-0.071342	0.673723	-0.407071	-0.408361	-0.001903	9.276592	-0.406917	-167703	1.134929E-8	NaN
614	1.000000	0.683003	7.37106e+06	-46389.1	1005.82	-29769.3	0.000000	0.000000	6.683004	-0.033368	NaN	0.000000	0.001521	0.001696	28.0839	0.004861	0.001981	2.453349	-103.267	-166.41	0.027467	0.681732	-0.399082	-0.400353	-0.033368	2.453349	-0.388881	-92716.4	3.598929E-7	NaN
614	1.000000	0.691023	7.37106e+06	-46389.1	1005.82	-29769.3	0.000000	0.000000	6.691022	-0.075055	NaN	0.000000	0.001531	0.001692	28.0829	0.070648	0.002054	34.3922	143.335	-164.366	-0.014868	0.689727	-0.391061	-0.392357	-0.075055	34.3922	-0.389425	-94392.4	7.951373E-7	NaN
614	1.000000	0.699037	7.37106e+06	-46389.1	1005.82	-29769.3	0.000000	0.000000	6.699041	0.054361	NaN	0.000000	0.001560	0.001701	28.0825	0.065401	0.002027	32.2605	73.5311	-162.854	0.015384	0.697724	-0.383048	-0.384361	0.054361	32.2605	-0.384312	-79748.5	-6.816596E-7	NaN
614	1.000000	0.707031	7.37106e+06	-46389.1	1005.82	-29769.3	0.000000	0.000000	6.707031	-0.044257	NaN	0.000000	0.001537	0.001677	28.0828	0.016432	0.001941	8.467861	12.8728	-164.522	-0.079961	0.705760	-0.375054	-0.376324	-0.044257	8.467861	-0.371134	-51577.1	8.580668E-7	NaN
614	1.000000	0.715030	7.37106e+06	-46389.1	1005.82	-29769.3	0.000000	0.000000	6.715031	-0.037730	NaN	0.000000	0.001550	0.001664	28.0826	0.105256	0.001895	55.5484	-49.9656	-162.414	0.036572	0.713695	-0.367054	-0.368389	-0.037730	55.5484	-0.366545	-44292.9	8.518337E-7	NaN
614	1.000000	0.723045	7.37106e+06	-46389.1	1005.82	-29769.3	0.000000	0.000000	6.723045	-0.043927	NaN	0.000000	0.001533	0.001728	28.0826	0.071409	0.002050	34.841	13.2297	-164.908	-0.063136	0.721668	-0.359040	-0.360417	-0.043927	34.841	-0.358094	-33441.6	1.313541E-6	NaN
614	1.000000	0.731046	7.37106e+06	-46389.1	1005.82	-29769.3	0.000000	0.000000	6.731048	-0.005403	NaN	0.000000	0.001529	0.001748	28.0829	0.078516	0.002020	38.8789	-135.233	-164.423	0.008577	0.729707	-0.351039	-0.352378	-0.005403	38.8789	-0.350935	-26336.8	2.051510E-7	NaN
614	1.000000	0.739031	7.37106e+06	-46389.1	1005.82	-29769.3	0.000000	0.000000	6.739032	-0.024755	NaN	0.000000	0.001510	0.001680	28.0826	0.116099	0.002030	57.1824	48.1472	-164.444	0.009861	0.737691	-0.343054	-0.344394	-0.024755	57.1824	-0.342729	-20012.9	1.236955E-6	NaN
614	1.000000	0.747039	7.37106e+06	-46389.1	1005.82	-29769.3	0.000000	0.000000	6.747038	-0.071061	NaN	0.000000	0.001541	0.001723	28.0834	0.088656	0.002032	43.6363	97.4449	-165.565	-0.091430	0.745726	-0.335046	-0.336358	-0.071061	43.6363	-0.333824	-14839	4.788792E-6	NaN
614	1.000000	0.755054	7.37106e+06	-46389.1	1005.82	-29769.3	0.000000	0.000000	6.755057	0.009497	NaN	0.000000	0.001524	0.001711	28.0826	0.045923	0.001978	23.2162	94.7271	-163.404	-0.062440	0.753701	-0.327030	-0.328384	0.009497	23.2162	-0.327337	-11924.2	-7.964508E-7	NaN
614	1.000000	0.763046	7.37106e+06	-46389.1	1005.82	-29769.3	0.000000	0.000000	6.763046	-0.050427	NaN	0.000000	0.001557	0.001682	28.0825	0.099376	0.002024	49.1036	-175.443	-164.057	-0.027975	0.761742	-0.319039	-0.320342	-0.050427	49.1036	-0.318268	-8772.86	5.748056E-6	NaN
614	1.000000	0.771056	7.37106e+06	-46389.1	1005.82	-29769.3	0.000000	0.000000	6.771053	-0.135124	NaN	0.000000	0.001573	0.001682	28.0828	0.033548	0.002140	15.6732	-167.114	-162.846	-0.149097	0.769734	-0.311028	-0.312350	-0.135124	15.6732	-0.304562	-5501.19	2.456260E-5	NaN
614	1.000000	0.779039	7.37106e+06	-46389.1	1005.82	-29769.3	0.000000	0.000000	6.779043	0.040182	NaN	0.000000	0.001566	0.001710	28.0826	0.088154	0.002033	43.3513	12.4262	-167.648	0.000525	0.777674	-0.303045	-0.304411	0.040182	43.3513	-0.303740	-5348.76	-7.512314E-6	NaN
614	1.000000	0.787041	7.37106e+06	-46389.1	1005.82	-29769.3	0.000000	0.000000	6.787041	-0.048746	NaN	0.000000	0.001578	0.001675	28.0826	0.100315	0.002090	47.9953	-165.942	-164.636	-0.123871	0.785732	-0.295044	-0.296352	-0.048746	47.9953	-0.294282	-3866.91	1.260599E-5	NaN
614	1.000000	0.795048	7.37106e+06	-46389.1	1005.82	-29769.3	0.000000	0.000000	6.795049	-0.039228	NaN	0.000000	0.001625	0.001688	28.0826	0.050114	0.002020	24.8097	123.327	-168.059	0.090640	0.793771	-0.287036	-0.288314	-0.039228	24.8097	-0.285850	-2890.99	1.356912E-5	NaN
614	1.000000	0.803060	7.37106e+06	-46389.1	1005.82	-29769.3	0.000000	0.000000	6.803060	-0.051989	NaN	0.000000	0.001618	0.001705	28.0825	0.021523	0.001926	11.1748	-89.8583	-167.776	0.070965	0.801762	-0.279025	-0.280323	-0.051989	11.1748	-0.275536	-2020.73	2.572789E-5	NaN
614	1.000000	0.811013	7.37106e+06	-46389.1	1005.82	-29769.3	0.000000	0.000000	6.811016	0.024757	NaN	0.000000	0.001625	0.001656	28.0828	0.056329	0.001957	28.7784	149.569	-166.65	0.032451	0.809761	-0.271072	-0.272323	0.024757	28.7784	-0.271717	-1768.58	-1.399807E-5	NaN
614	1.000000	0.819051	7.37106e+06	-46389.1	1005.82	-29769.3	0.000000	0.000000	6.819052	-0.048930	NaN	0.000000	0.001630	0.001688	28.0826	0.135962	0.001957	69.4903	173.713	-169.227	-0.064636	0.817742	-0.263033	-0.264342	-0.048930	69.4903	-0.262505	-1280.18	3.822138E-5	NaN
614	1.000000	0.827094	7.37106e+06	-46389.1	1005.82	-29769.3	0.000000	0.000000	6.827095	-0.036268	NaN	0.000000	0.001587	0.001687	28.0839	0.058981	0.002029	29.0728	-42.7758	-164.178	-0.014310	0.825808	-0.254990	-0.256277	-0.036268	29.0728	-0.254055	-949.634	3.819202E-5	NaN
614	1.000000	0.835107	7.37106e+06	-46389.1	1005.82	-29769.3	0.000000	0.000000	6.835107	-0.042515	NaN	0.000000	0.001653	0.001657	28.0841	0.029080	0.002072	14.0377	26.0856	-168.356	-0.015546	0.833737	-0.246978	-0.248347	-0.042515	14.0377	-0.244706	-680.595	6.246811E-5	NaN
614	1.000000	0.843092	7.37106e+06	-46389.1	1005.82	-29769.3	0.000000	0.000000	6.843093	-0.030600	NaN	0.000000	0.001632	0.001694	28.0842	0.070010	0.002001	34.9929	-106.905	-163.74	-0.090497	0.841762	-0.238992	-0.240322	-0.030600	34.9929	-0.238337	-541.439	5.651600E-5	NaN
614	1.000000	0.851093	7.37106e+06	-46389.1	1005.82	-29769.3	0.000000	0.000000	6.851095	-0.005373	NaN	0.000000	0.001633	0.001707	28.0842	0.046161	0.002016	22.893	-120.762	-169.424	-0.023092	0.849769	-0.230992	-0.232316	-0.005373	22.893	-0.230816	-412.471	1.302608E-5	NaN
614	1.000000	0.859100	7.37106e+06	-46389.1	1005.82	-29769.3	0.000000	0.000000	6.859102	-0.011050	NaN	0.000000	0.001644	0.001711	28.0839	0.022185	0.002022	10.9743	22.1965	-168.896	-0.024251	0.857810	-0.222984	-0.224274	-0.011050	10.9743	-0.222229	-301.474	3.665369E-5	NaN
614	1.000000	0.867086	7.37106e+06	-46389.1	1005.82	-29769.3	0.000000	0.000000	6.867091	0.065835	NaN	0.000000	0.001624	0.001708	28.084	0.134106	0.002039	65.7557	62.4592	-169.081	0.009736	0.865730	-0.214999	-0.216355	0.065835	65.7557	-0.215750	-237.448	-0.000277	NaN
614	1.000000	0.875078	7.37106e+06	-46389.1	1005.82	-29769.3	0.000000	0.000000	6.875080	-0.007552	NaN	0.000000	0.001632	0.001696	28.0837	0.076631	0.002001	38.3024	31.5646	-166.684	-0.043000	0.873746	-0.207006	-0.208338	-0.007552	38.3024	-0.206858	-170.542	4.428042E-5	NaN
614	1.000000	0.883106	7.37106e+06	-46389.1	1005.82	-29769.3	0.000000	0.000000	6.883109	0.027818	NaN	0.000000	0.001637	0.001684	28.0836	0.102875	0.002002	51.3979	19.9819	-166.245	0.085249	0.881813	-0.198979	-0.200272	0.027818	51.3979	-0.199385	-128.701	-0.000216	NaN
614	1.000000	0.891095	7.37106e+06	-46389.1	1005.82	-29769.3	0.000000	0.000000	6.891096	-0.028666	NaN	0.000000	0.001622	0.001675	28.0839	0.091926	0.001904	48.2756	95.5467	-167.166	-0.037922	0.889756	-0.190990	-0.192328	-0.028666	48.2756	-0.190544	-91.8581	0.000312	NaN
614	1.000000	0.899091	7.37106e+06	-46389.1	1005.82	-29769.3	0.000000	0.000000	6.899095	0.039080	NaN	0.000000	0.001612	0.001696	28.0839	0.089766	0.001902	47.1963	-24.636	-167.014	-0.011070	0.897797	-0.182993	-0.184287	0.039080	47.1963	-0.183614	-70.2667	-0.000556	NaN
614	1.000000	0.907115	7.37106e+06	-46389.1	1005.82	-29769.3	0.000000	0.000000	6.907116	-0.024530	NaN	0.000000	0.001602	0.001684	28.0839	0.077379	0.002127	36.3749	-85.2807	-166.844	-0.095194	0.905829	-0.174970	-0.176255	-0.024530	36.3749	-0.174464	-49.0641	0.000500	NaN
614	1.000000	0.915114	7.37106e+06	-46389.1	1005.82	-29769.3	0.000000	0.000000	6.915118	0.035265	NaN	0.000000	0.001565	0.001668	28.0838	0.050075	0.001909	26.2364	65.7995	-162.339	0.004639	0.913846	-0.166970	-0.168239	0.035265	26.2364	-0.167978	-37.8818	-0.000931	NaN
614	1.000000	0.923112	7.37106e+06	-46389.1	1005.82	-29769.3	0.000000	0.000000	6.923108	-0.143804	NaN	0.000000	0.001583	0.001683	28.0838	0.100853	0.002138	47.1747	-30.4047	-164.186	-0.082339	0.921776	-0.158973	-0.160308	-0.143804	47.1747	-0.156686	-23.9255	0.006010	NaN
614	1.000000	0.931108	7.37106e+06	-46389.1	1005.82	-29769.3	0.000000	0.000000	6.931111	0.006244	NaN	0.000000	0.001550	0.001686	28.0837	0.037167	0.002146	17.3188	-120.322	-165.292	0.019657	0.929813	-0.150976	-0.152271	0.006244	17.3188	-0.151247	-19.0856	-0.000327	NaN
614	1.000000	0.939113	7.37106e+06	-46389.1	1005.82	-29769.3	0.000000	0.000000	6.939116	0.024818	NaN	0.000000	0.001577	0.001713	28.0845	0.097156	0.002140	45.4093	113.633	-168.256	-0.125831	0.937770	-0.142972	-0.144314	0.024818	45.4093	-0.143381	-13.6821	-0.001814	NaN
614	1.000000	0.947101	7.37106e+06	-46389.1	1005.82	-29769.3	0.000000	0.000000	6.947103	-0.024502	NaN	0.000000	0.001602	0.001685	28.0838	0.099015	0.001909	51.864	82.1831	-164.733	0.051770	0.945830	-0.134983	-0.136255	-0.024502	51.864	-0.134629	-9.358282	0.002618	NaN
614	1.000000	0.955152	7.37106e+06	-46389.1	1005.82	-29769.3	0.000000	0.000000	6.955154	-0.004504	NaN	0.000000	0.001598	0.001688	28.0841	0.043814	0.001745	25.1071	45.2979	-167.795	-0.029830	0.953870	-0.126933	-0.128215	-0.004504	25.1071	-0.126798	-6.598575	0.000683	NaN
614	1.000000	0.963120	7.37106e+06	-46389.1	1005.82	-29769.3	0.000000	0.000000	6.963123	0.009936	NaN	0.000000	0.001576	0.001689	28.0828	0.062544	0.001912	32.7109	-23.7329	-168.824	0.057861	0.961792	-0.118964	-0.120292	0.009936	32.7109	-0.119192	-4.653215	-0.002135	NaN
614	1.000000	0.971152	7.37106e+06	-46389.1	1005.82	-29769.3	0.000000	0.000000	6.971151	-0.067556	NaN	0.000000	0.001583	0.001712	28.0826	0.067596	0.001938	34.8779	103.256	-166.785	-0.028030	0.969813	-0.110933	-0.112272	-0.067556	34.8779	-0.109480	-2.930195	0.023055	NaN
614	1.000000	0.979153	7.37106e+06	-46389.1	1005.82	-29769.3	0.000000	0.000000	6.979156	0.010706	NaN	0.000000	0.001625	0.001722	28.0828	0.004200	0.001952	2.151667	-68.5438	-166.773	0.033109	0.977877	-0.102931	-0.104208	0.010706	2.151667	-0.106663	-2.552418	-0.004194	NaN
614	1.000000	0.987127	7.37106e+06	-46389.1	1005.82	-29769.3	0.000000	0.000000	6.987124	-0.122516	NaN	0.000000	0.001533	0.001698	28.0828	0.123620	0.001913	64.6199	45.1337	-170.83	-0.122557	0.985836	-0.094957	-0.096249	-0.122516	64.6199	-0.093535	-1.305881	0.093818	NaN
614	1.000000	0.995141	7.37106e+06	-46389.1	1005.82	-29769.3	0.000000	0.000000	6.995142	-0.052246	NaN	0.000000	0.001588	0.001721	28.083	0.168947	0.001954	86.4516	-166.621	-166.149	-0.023497	0.993815	-0.086943	-0.088270	-0.052246	86.4516	-0.086490	-0.892412	0.058545	NaN
614	1.000000	1.003152	7.37106e+06	-46389.1	1005.82	-29769.3	0.000000	0.000000	7.003149	-0.118306	NaN	0.000000	0.001626	0.001690	28.0829	0.075127	0.001838	40.8749	120.279	-166.952	-0.025142	1.001852	-0.078933	-0.080232	-0.118306	40.8749	-0.076762	-0.512662	0.230768	NaN
614	1.000000	1.011151	7.37106e+06	-46389.1	1005.82	-29769.3	0.000000	0.000000	7.011152	-0.056289	NaN	0.000000	0.001655	0.001729	28.0827	0.118961	0.001888	63.0167	57.8258	-167.882	-0.061839	1.009895	-0.070933	-0.072189	-0.056289	63.0167	-0.070263	-0.346684	0.162365	NaN
614	1.000000	1.019155	7.37106e+06	-46389.1	1005.82	-29769.3	0.000000	0.000000	7.019158	-0.002191	NaN	0.000000	0.001622	0.001686	28.083	0.035739	0.002126	16.8114	141.672	-166.717	0.004463	1.017842	-0.062929	-0.064242	-0.002191	16.8114	-0.062831	-0.216756	0.010110	NaN
614	1.000000	1.027126	7.37106e+06	-46389.1	1005.82	-29769.3	0.000000	0.000000	7.027128	0.008955	NaN	0.000000	0.001585	0.001726	28.0828	0.024351	0.001900	12.8177	116.943	-160.719	-0.056295	1.025817	-0.054959	-0.056268	0.008955	12.8177	-0.055483	-0.133075	-0.067293	NaN
614	1.000000	1.035161	7.37106e+06	-46389.1	1005.82	-29769.3	0.000000	0.000000	7.035161	-0.047241	NaN	0.000000	0.001634	0.001699	28.0828	0.056059	0.002074	27.0328	-33.5176	-166.853	-0.036580	1.033825	-0.046924	-0.048259	-0.047241	27.0328	-0.045613	-0.067103	0.704002	NaN
614	1.000000	1.043175	7.37106e+06	-46389.1	1005.82	-29769.3	0.000000	0.000000	7.043176	-0.045281	NaN	0.000000	0.001606	0.001706	28.0826	0.051289	0.001901	26.9787	-169.535	-165.395	-0.044810	1.041843	-0.038909	-0.040241	-0.045281	26.9787	-0.037650	-0.038402	1.179135	NaN
614	1.000000	1.051155	7.37106e+06	-46389.1	1005.82	-29769.3	0.000000	0.000000	7.051158	0.006419	NaN	0.000000	0.001614	0.001740	28.0826	0.035579	0.002009	17.714	-117.625	-163.399	-0.021191	1.049785	-0.030929	-0.032300	0.006419	17.714	-0.031201	-0.024871	-0.258106	NaN
614	1.000000	1.059181	7.37106e+06	-46389.1	1005.82	-29769.3	0.000000	0.000000	7.059178	-0.123961	NaN	0.000000	0.001635	0.001691	28.0831	0.056541	0.002162	26.1478	-118.39	-164.902	-0.077461	1.057882	-0.022903	-0.024203	-0.123961	26.1478	-0.019348	-0.012089	10.2538	NaN
614	1.000000	1.067184	7.37106e+06	-46389.1	1005.82	-29769.3	0.000000	0.000000	7.067187	-0.008434	NaN	0.000000	0.001626	0.001678	28.0827	0.102261	0.001923	53.1912	-95.2584	-166.992	0.012624	1.065885	-0.014900	-0.016200	-0.008434	53.1912	-0.014781	-0.009145	0.922342	NaN
614	1.000000	1.075167	7.37106e+06	-46389.1	1005.82	-29769.3	0.000000	0.000000	7.075168	-0.038416	NaN	0.000000	0.001610	0.001658	28.0827	0.052167	0.001954	26.6916	-140.426	-169.248	-0.096087	1.073874	-0.006917	-0.008210	-0.038416	26.6916	-0.005838	-0.003937	9.758027	NaN
614	1.000000	1.083181	7.37106e+06	-46389.1	1005.82	-29769.3	0.000000	0.000000	7.083233	1.206844	NaN	0.000000	0.001542	0.001656	28.0827	1.858882	0.002024	918.44	8.262590	-165.662	0.430232	1.081896	0.001097	-0.000189	1.206844	918.44	0.000111	8.338709E-5	14472.8	91891.3
614	2.000000	1.089686	7.37106e+06	-46389.1	1005.82	-29769.3	0.000000	0.000000	7.090084	9.620667	NaN	0.000000	0.001565	0.001661	28.0826	8.598280	0.001589	5412	5.810527	-172.563	9.522928	1.089294	0.007601	0.007209	9.620667	5412	0.006268	0.005321	1808.13	67786.6
614	2.000000	1.091679	7.37106e+06	-46389.1	1005.82	-29769.3	0.000000	0.000000	7.092181	12.1588	NaN	0.000000	0.001540	0.001671	28.084	10.4959	0.001672	6278.26	3.872007	-172.482	10.7727	1.091390	0.009595	0.009305	12.1588	6278.26	0.008142	0.007189	1691.34	67652.3
614	2.000000	1.093714	7.37106e+06	-46389.1	1005.82	-29769.3	0.000000	0.000000	7.094290	13.9518	NaN	0.000000	0.001556	0.001723	28.0837	12.6635	0.001812	6988.14	5.169679	-172.533	13.0688	1.093347	0.011629	0.011262	13.9518	6988.14	0.010132	0.009328	1495.61	66104.3
614	2.000000	1.095643	7.37106e+06	-46389.1	1005.82	-29769.3	0.000000	0.000000	7.096360	17.38	NaN	0.000000	0.001578	0.001717	28.084	14.9317	0.001719	8685.88	9.068214	179.819	16.1572	1.095342	0.013559	0.013258	17.38	8685.88	0.012058	0.011559	1503.53	73810.6
614	2.000000	1.097693	7.37106e+06	-46389.1	1005.82	-29769.3	0.000000	0.000000	7.098592	21.794	NaN	0.000000	0.001574	0.001704	28.0837	17.2714	0.001817	9505.64	6.078569	-177.606	21.6344	1.097368	0.015609	0.015284	21.794	9505.64	0.013889	0.013833	1575.53	73841.4
614	2.000000	1.099658	7.37106e+06	-46389.1	1005.82	-29769.3	0.000000	0.000000	7.100635	23.7061	NaN	0.000000	0.001532	0.001729	28.0838	18.2973	0.001613	11342.3	5.552337	-178.053	23.4936	1.099374	0.017573	0.017289	23.7061	11342.3	0.016006	0.016650	1423.77	80308.8
614	2.000000	1.101645	7.37106e+06	-46389.1	1005.82	-29769.3	0.000000	0.000000	7.102844	29.085	NaN	0.000000	0.001567	0.001739	28.0841	20.8402	0.001838	11335.5	6.484626	-177.795	28.6051	1.101292	0.019561	0.019208	29.085	11335.5	0.017637	0.018964	1533.72	75206.2
614	2.000000	1.103666	7.37106e+06	-46389.1	1005.82	-29769.3	0.000000	0.000000	7.105042	33.433	NaN	0.000000	0.001585	0.001708	28.0838	23.2232	0.001739	13355.2	6.944849	179.622	32.9486	1.103350	0.021581	0.021265	33.433	13355.2	0.019704	0.022079	1514.27	82117.9
614	2.000000	1.105665	7.37106e+06	-46389.1	1005.82	-29769.3	0.000000	0.000000	7.107217	37.7128	NaN	0.000000	0.001575	0.001722	28.0841	25.1635	0.001818	13838.6	5.634034	179.26	39.0021	1.105398	0.023580	0.023314	37.7128	13838.6	0.021536	0.025014	1507.66	79941.6
614	2.000000	1.107629	7.37106e+06	-46389.1	1005.82	-29769.3	0.000000	0.000000	7.109395	42.8923	NaN	0.000000	0.001590	0.001722	28.0837	27.9411	0.001853	15079.6	7.099060	178.687	44.37	1.107429	0.025544	0.025345	42.8923	15079.6	0.023411	0.028188	1521.63	82059.5
614	2.000000	1.109590	7.37106e+06	-46389.1	1005.82	-29769.3	0.000000	0.000000	7.111728	51.948	NaN	0.000000	0.001565	0.001696	28.084	28.9196	0.001683	17183.4	5.859734	178.125	49.27	1.109214	0.027506	0.027129	51.948	17183.4	0.025238	0.031451	1651.72	88524.9
614	2.000000	1.111569	7.37106e+06	-46389.1	1005.82	-29769.3	0.000000	0.000000	7.113941	57.6351	NaN	0.000000	0.001555	0.001683	28.0841	31.4001	0.001853	16943.3	4.482187	179.522	55.4651	1.111319	0.029484	0.029235	57.6351	16943.3	0.026933	0.034627	1664.47	83189
614	2.000000	1.113605	7.37106e+06	-46389.1	1005.82	-29769.3	0.000000	0.000000	7.116313	65.8052	NaN	0.000000	0.001567	0.001704	28.0838	33.2942	0.001823	18262.5	6.988795	176.404	64.0508	1.113232	0.031520	0.031147	65.8052	18262.5	0.028818	0.038329	1716.84	85225.2
614	2.000000	1.115633	7.37106e+06	-46389.1	1005.82	-29769.3	0.000000	0.000000	7.118544	70.7548	NaN	0.000000	0.001538	0.001716	28.084	35.0623	0.001753	19998.6	7.534147	175.324	71.7661	1.115316	0.033549	0.033231	70.7548	19998.6	0.030895	0.042619	1660.16	88505.2
614	2.000000	1.117587	7.37106e+06	-46389.1	1005.82	-29769.3	0.000000	0.000000	7.120858	79.5027	NaN	0.000000	0.001519	0.001662	28.0838	37.4444	0.001791	20908	8.739260	174.062	80.4144	1.117255	0.035503	0.035171	79.5027	20908	0.032651	0.046418	1712.76	88663.3
614	2.000000	1.119550	7.37106e+06	-46389.1	1005.82	-29769.3	0.000000	0.000000	7.123200	88.7323	NaN	0.000000	0.001582	0.001670	28.084	37.9019	0.001804	21014.6	2.798336	-179.638	86.0673	1.119192	0.037465	0.037107	88.7323	21014.6	0.034299	0.050125	1770.21	85756.2
614	2.000000	1.121613	7.37106e+06	-46389.1	1005.82	-29769.3	0.000000	0.000000	7.125589	96.6458	NaN	0.000000	0.001563	0.001705	28.0838	40.8805	0.001773	23057.8	6.381412	175.206	96.349	1.121261	0.039529	0.039177	96.6458	23057.8	0.036385	0.055021	1756.53	89810.5
614	2.000000	1.123619	7.37106e+06	-46389.1	1005.82	-29769.3	0.000000	0.000000	7.127812	101.924	NaN	0.000000	0.001544	0.001678	28.0838	42.5362	0.001744	24393.4	4.488329	177.282	101.79	1.123269	0.041535	0.041185	101.924	24393.4	0.038401	0.059961	1699.84	91014.5
614	2.000000	1.125599	7.37106e+06	-46389.1	1005.82	-29769.3	0.000000	0.000000	7.130218	112.292	NaN	0.000000	0.001550	0.001682	28.0832	44.3754	0.001725	25727.2	5.933740	174.365	113.083	1.125250	0.043515	0.043165	112.292	25727.2	0.040241	0.064653	1736.84	92442.1
614	2.000000	1.127606	7.37106e+06	-46389.1	1005.82	-29769.3	0.000000	0.000000	7.132508	119.174	NaN	0.000000	0.001571	0.001677	28.0825	47.4818	0.001801	26363.1	6.669648	173.641	120.121	1.127356	0.045522	0.045271	119.174	26363.1	0.042132	0.069653	1710.97	91264.1
614	2.000000	1.129622	7.37106e+06	-46389.1	1005.82	-29769.3	0.000000	0.000000	7.134924	128.902	NaN	0.000000	0.001538	0.001712	28.0832	47.3932	0.001678	28237.7	0.588087	179.269	130.829	1.129248	0.047538	0.047164	128.902	28237.7	0.044114	0.075093	1716.58	94146.6
614	2.000000	1.131477	7.37106e+06	-46389.1	1005.82	-29769.3	0.000000	0.000000	7.137162	138.25	NaN	0.000000	0.001578	0.001704	28.0826	51.0632	0.001861	27434.6	4.280534	175.163	132.631	1.131253	0.049392	0.049168	138.25	27434.6	0.045613	0.079336	1742.58	88989
614	2.000000	1.133678	7.37106e+06	-46389.1	1005.82	-29769.3	0.000000	0.000000	7.139839	149.797	NaN	0.000000	0.001607	0.001686	28.0825	53.0755	0.001884	28173.2	5.524784	174.991	152.816	1.133260	0.051594	0.051176	149.797	28173.2	0.047606	0.085158	1759.04	88205.7
614	2.000000	1.135570	7.37106e+06	-46389.1	1005.82	-29769.3	0.000000	0.000000	7.142228	161.898	NaN	0.000000	0.001661	0.001681	28.0824	54.4613	0.001822	29891.2	3.731216	175.718	163.194	1.135244	0.053486	0.053160	161.898	29891.2	0.049424	0.090640	1786.17	90710.4
614	2.000000	1.137607	7.37106e+06	-46389.1	1005.82	-29769.3	0.000000	0.000000	7.144745	173.572	NaN	0.000000	0.001635	0.001693	28.0827	57.2992	0.001802	31805.6	4.887660	174.043	173.838	1.137305	0.055522	0.055221	173.572	31805.6	0.051429	0.096882	1791.58	93358.8
614	2.000000	1.139531	7.37106e+06	-46389.1	1005.82	-29769.3	0.000000	0.000000	7.147103	184.135	NaN	0.000000	0.001620	0.001689	28.0834	58.319	0.001794	32498.9	4.865476	173.68	182.396	1.139314	0.057446	0.057230	184.135	32498.9	0.053197	0.102550	1795.56	92720.2
614	2.000000	1.141403	7.37106e+06	-46389.1	1005.82	-29769.3	0.000000	0.000000	7.149675	201.159	NaN	0.000000	0.001615	0.001695	28.0827	60.2523	0.001793	33610.6	5.734145	173.026	193.447	1.141177	0.059319	0.059092	201.159	33610.6	0.054830	0.107925	1863.87	93473.4
614	2.000000	1.143551	7.37106e+06	-46389.1	1005.82	-29769.3	0.000000	0.000000	7.152340	213.733	NaN	0.000000	0.001632	0.001727	28.0828	62.4332	0.001859	33586.3	4.667295	174.006	210.616	1.143292	0.061466	0.061208	213.733	33586.3	0.056693	0.114219	1871.25	90795.7
614	2.000000	1.145569	7.37106e+06	-46389.1	1005.82	-29769.3	0.000000	0.000000	7.154924	227.512	NaN	0.000000	0.001602	0.001754	28.0825	63.0156	0.001708	36893.2	5.655178	171.626	227.512	1.145170	0.063484	0.063085	227.512	36893.2	0.058859	0.121750	1868.69	96602
614	2.000000	1.147521	7.37106e+06	-46389.1	1005.82	-29769.3	0.000000	0.000000	7.157412	240.552	NaN	0.000000	0.001618	0.001732	28.0825	66.2768	0.001739	38122.9	5.711632	170.957	236.821	1.147210	0.065436	0.065125	240.552	38122.9	0.060704	0.128344	1874.27	97223.4
614	2.000000	1.149693	7.37106e+06	-46389.1	1005.82	-29769.3	0.000000	0.000000	7.159765	244.961	NaN	0.000000	0.001632	0.001729	28.0826	67.8177	0.001798	37717.9	7.371444	170.08	252.759	1.149235	0.067608	0.067150	244.961	37717.9	0.062737	0.135806	1803.75	93510.7
614	2.000000	1.151514	7.37106e+06	-46389.1	1005.82	-29769.3	0.000000	0.000000	7.162453	266.051	NaN	0.000000	0.001601	0.001746	28.0824	69.2532	0.001718	40311.1	3.495562	173.708	263.3	1.151195	0.069429	0.069111	266.051	40311.1	0.064479	0.142359	1868.88	97612.6
614	2.000000	1.153587	7.37106e+06	-46389.1	1005.82	-29769.3	0.000000	0.000000	7.165077	279.458	NaN	0.000000	0.001639	0.001774	28.083	72.2844	0.001763	41011.7	6.703578	171.266	279.686	1.153195	0.071502	0.071110	279.458	41011.7	0.066392	0.149720	1866.54	96836.9
614	2.000000	1.155552	7.37106e+06	-46389.1	1005.82	-29769.3	0.000000	0.000000	7.167389	287.873	NaN	0.000000	0.001617	0.001768	28.0825	74.6948	0.001815	41163.1	6.140392	170.526	286.242	1.155299	0.073467	0.073215	287.873	41163.1	0.068222	0.156931	1834.39	94934.9
614	2.000000	1.157454	7.37106e+06	-46389.1	1005.82	-29769.3	0.000000	0.000000	7.169955	304.025	NaN	0.000000	0.001606	0.001715	28.0826	75.9137	0.001790	42408.8	6.210946	170.831	299.557	1.157155	0.075369	0.075071	304.025	42408.8	0.069993	0.164058	1853.16	95660.2
614	2.000000	1.159494	7.37106e+06	-46389.1	1005.82	-29769.3	0.000000	0.000000	7.172582	318.325	NaN	0.000000	0.001614	0.001706	28.0831	76.0718	0.001736	43807.7	2.467382	173.837	314.695	1.159273	0.077409	0.077189	318.325	43807.7	0.071959	0.172150	1849.11	96465.2
614	2.000000	1.161582	7.37106e+06	-46389.1	1005.82	-29769.3	0.000000	0.000000	7.175185	330.824	NaN	0.000000	0.001608	0.001722	28.0837	78.4554	0.001792	43775.9	3.443380	172.932	331.704	1.161210	0.079498	0.079126	330.824	43775.9	0.073830	0.180016	1837.75	94265.6
614	2.000000	1.163581	7.37106e+06	-46389.1	1005.82	-29769.3	0.000000	0.000000	7.177913	348.56	NaN	0.000000	0.001602	0.001708	28.0847	81.3074	0.001750	46472.6	7.168314	169.231	349.733	1.163189	0.081497	0.081104	348.56	46472.6	0.075872	0.188790	1846.28	97719.2
614	2.000000	1.165488	7.37106e+06	-46389.1	1005.82	-29769.3	0.000000	0.000000	7.180648	368.698	NaN	0.000000	0.001611	0.001700	28.0835	82.3218	0.001729	47616.7	7.860054	168.514	366.672	1.165093	0.083404	0.083009	368.698	47616.7	0.077597	0.196356	1877.71	98177.3
614	2.000000	1.167530	7.37106e+06	-46389.1	1005.82	-29769.3	0.000000	0.000000	7.183087	378.371	NaN	0.000000	0.001578	0.001694	28.0838	86.313	0.001878	45949.7	7.441187	168.668	376.34	1.167164	0.085445	0.085079	378.371	45949.7	0.079269	0.203825	1856.35	92988
614	2.000000	1.169488	7.37106e+06	-46389.1	1005.82	-29769.3	0.000000	0.000000	7.185733	395.092	NaN	0.000000	0.001581	0.001675	28.0837	86.1754	0.001755	49091	5.800632	169.96	391.674	1.169171	0.087404	0.087087	395.092	49091	0.081367	0.213378	1851.61	97095.8
614	2.000000	1.171530	7.37106e+06	-46389.1	1005.82	-29769.3	0.000000	0.000000	7.187919	398.587	NaN	0.000000	0.001570	0.001678	28.0835	88.1788	0.001804	48870.8	0.604896	174.804	397.438	1.171340	0.089446	0.089256	398.587	48870.8	0.083329	0.222494	1791.45	94659.3
614	2.000000	1.173438	7.37106e+06	-46389.1	1005.82	-29769.3	0.000000	0.000000	7.190940	425.682	NaN	0.000000	0.001599	0.001690	28.084	89.675	0.001706	52573.3	0.774890	174.961	419.597	1.173092	0.091353	0.091007	425.682	52573.3	0.085280	0.231741	1836.89	99778.6
614	2.000000	1.175544	7.37106e+06	-46389.1	1005.82	-29769.3	0.000000	0.000000	7.193639	440.12	NaN	0.000000	0.001574	0.001712	28.0837	91.8133	0.001718	53428.5	5.463544	169.568	438.859	1.175174	0.093459	0.093090	440.12	53428.5	0.087281	0.241403	1823.18	99351.6
614	2.000000	1.177564	7.37106e+06	-46389.1	1005.82	-29769.3	0.000000	0.000000	7.196128	451.522	NaN	0.000000	0.001573	0.001652	28.0839	94.2614	0.001792	52612.9	4.813065	170.726	452.82	1.177332	0.095480	0.095247	451.522	52612.9	0.089043	0.250065	1805.62	96125.5
614	2.000000	1.179593	7.37106e+06	-46389.1	1005.82	-29769.3	0.000000	0.000000	7.198626	462.926	NaN	0.000000	0.001577	0.001687	28.084	94.6418	0.001818	52054.6	1.575497	173.553	463.215	1.179296	0.097508	0.097212	462.926	52054.6	0.090839	0.259039	1787.09	93443.7
614	2.000000	1.181479	7.37106e+06	-46389.1	1005.82	-29769.3	0.000000	0.000000	7.201394	484.39	NaN	0.000000	0.001553	0.001708	28.0836	97.4376	0.001823	53449.1	3.447168	171.556	483.207	1.181315	0.099394	0.099231	484.39	53449.1	0.092597	0.267971	1807.62	94334.2
614	2.000000	1.183567	7.37106e+06	-46389.1	1005.82	-29769.3	0.000000	0.000000	7.204287	503.964	NaN	0.000000	0.001576	0.001698	28.0836	99.0651	0.001738	57004.7	4.862499	169.85	508.291	1.183238	0.101482	0.101153	503.964	57004.7	0.094852	0.279628	1802.26	98490.3
614	2.000000	1.185489	7.37106e+06	-46389.1	1005.82	-29769.3	0.000000	0.000000	7.207048	524.354	NaN	0.000000	0.001571	0.001698	28.0836	100.715	0.001850	54429.4	5.029445	170.089	523.715	1.185243	0.103405	0.103159	524.354	54429.4	0.096179	0.286602	1829.55	92889.5
614	2.000000	1.187413	7.37106e+06	-46389.1	1005.82	-29769.3	0.000000	0.000000	7.209724	542.649	NaN	0.000000	0.001573	0.001696	28.0839	102.032	0.001692	60319.9	5.695062	168.819	536.634	1.187211	0.105329	0.105126	542.649	60319.9	0.098582	0.299426	1812.3	100714