File: remote_trans/data/nanoindenter/0828-1/data/Data_2025-08-06,11h17m57s/2025-07-22_16-23-58_1_658.txt
2025-07-22, 16:23:58, 1
Index	Phase	Displacement	Time	Pos X	Pos Y	Pos Z	Rot A	Rot B	Piezo Z	Force A	Force B	Gripper	Voltage A	Voltage B	Temperature	Amplitude force	Amplitude pos	Stiffness	Phase shift	Phase excitation	Force A raw	Displacement raw	HMax	HMax raw	Real Force	Real Stiffness	Contact Depth	Area	Hardness	Reduced Mod.
[#]	[#]	[um]	[s]	[um]	[um]	[um]	[m°]	[m°]	[um]	[uN]	[uN]	[V]	[V]	[V]	[°C]	[uN]	[um]	[N/m]	[°]	[°]	[uN]	[um]	[um]	[um]	[uN]	[N/m]	[um]	[um^2]	[MPa]	[MPa]
658	1.000000	0.002356	7.37149e+06	-44189.1	1005.82	-29776.5	0.000000	0.000000	6.002827	0.004386	NaN	0.000000	0.001627	0.001708	28.0812	0.160686	0.001057	151.963	91.5413	-167.115	0.025400	0.001011	-1.097381	-1.098726	0.004386	151.963	-1.097402	-4.625922E+14	-9.480716E-18	NaN
658	1.000000	0.012386	7.37149e+06	-44189.1	1005.82	-29776.5	0.000000	0.000000	6.012855	-0.036601	NaN	0.000000	0.001645	0.001677	28.0811	0.091407	0.001170	78.1337	-119.294	16.7948	-0.115229	0.010981	-1.087350	-1.088755	-0.036601	78.1337	-1.086999	-3.353619E+14	1.091401E-16	NaN
658	1.000000	0.022290	7.37149e+06	-44189.1	1005.82	-29776.5	0.000000	0.000000	6.022757	-0.097559	NaN	0.000000	0.001631	0.001650	28.0809	0.077588	0.001689	45.9354	89.0152	-163.89	-0.129671	0.020953	-1.077446	-1.078783	-0.097559	45.9354	-1.075854	-2.375878E+14	4.106231E-16	NaN
658	1.000000	0.032272	7.37149e+06	-44189.1	1005.82	-29776.5	0.000000	0.000000	6.032744	0.017777	NaN	0.000000	0.001650	0.001713	28.0811	0.085727	0.001818	47.1656	146.819	17.3069	-0.026008	0.030901	-1.067464	-1.068835	0.017777	47.1656	-1.067747	-1.848924E+14	-9.614698E-17	NaN
658	1.000000	0.042294	7.37149e+06	-44189.1	1005.82	-29776.5	0.000000	0.000000	6.042766	0.035002	NaN	0.000000	0.001618	0.001709	28.0813	0.120655	0.001983	60.8429	22.6994	-163.567	0.062163	0.041015	-1.057443	-1.058721	0.035002	60.8429	-1.057874	-1.362236E+14	-2.569431E-16	NaN
658	1.000000	0.052268	7.37149e+06	-44189.1	1005.82	-29776.5	0.000000	0.000000	6.052739	-0.004973	NaN	0.000000	0.001681	0.001738	28.0813	0.059930	0.002026	29.5822	123.323	16.4001	0.016321	0.050922	-1.047468	-1.048814	-0.004973	29.5822	-1.047342	-9.833027E+13	5.057494E-17	NaN
658	1.000000	0.062300	7.37149e+06	-44189.1	1005.82	-29776.5	0.000000	0.000000	6.062769	-0.046739	NaN	0.000000	0.001656	0.001710	28.0809	0.109542	0.001901	57.618	-153.414	-165.448	-0.069633	0.060949	-1.037436	-1.038787	-0.046739	57.618	-1.036828	-7.100828E+13	6.582134E-16	NaN
658	1.000000	0.072307	7.37149e+06	-44189.1	1005.82	-29776.5	0.000000	0.000000	6.072778	0.019828	NaN	0.000000	0.001604	0.001721	28.0812	0.061500	0.002028	30.3191	-67.6575	15.058	-0.034337	0.070853	-1.027430	-1.028883	0.019828	30.3191	-1.027920	-5.388956E+13	-3.679323E-16	NaN
658	1.000000	0.082246	7.37149e+06	-44189.1	1005.82	-29776.5	0.000000	0.000000	6.082718	0.020747	NaN	0.000000	0.001586	0.001731	28.0809	0.082887	0.001943	42.6605	162.865	-162.072	0.039559	0.081001	-1.017491	-1.018735	0.020747	42.6605	-1.017855	-3.945429E+13	-5.258475E-16	NaN
658	1.000000	0.092289	7.37149e+06	-44189.1	1005.82	-29776.5	0.000000	0.000000	6.092758	-0.056550	NaN	0.000000	0.001590	0.001739	28.081	0.081565	0.002011	40.5571	27.5799	14.0505	-0.047146	0.090933	-1.007447	-1.008803	-0.056550	40.5571	-1.006401	-2.766568E+13	2.044067E-15	NaN
658	1.000000	0.102284	7.37149e+06	-44189.1	1005.82	-29776.5	0.000000	0.000000	6.102753	-0.034270	NaN	0.000000	0.001574	0.001694	28.0808	0.022112	0.002118	10.4418	-156.513	-163.638	-0.032290	0.101035	-0.997452	-0.998701	-0.034270	10.4418	-0.994991	-1.942330E+13	1.764352E-15	NaN
658	1.000000	0.112283	7.37149e+06	-44189.1	1005.82	-29776.5	0.000000	0.000000	6.112755	0.014479	NaN	0.000000	0.001596	0.001691	28.0824	0.132023	0.001835	71.9621	-0.671357	15.2756	0.068596	0.110944	-0.987453	-0.988793	0.014479	71.9621	-0.987604	-1.544688E+13	-9.373460E-16	NaN
658	1.000000	0.122279	7.37149e+06	-44189.1	1005.82	-29776.5	0.000000	0.000000	6.122751	0.025519	NaN	0.000000	0.001564	0.001651	28.0819	0.146088	0.002130	68.5795	153.139	-164.831	-0.009830	0.120993	-0.977457	-0.978743	0.025519	68.5795	-0.977736	-1.137397E+13	-2.243612E-15	NaN
658	1.000000	0.132307	7.37149e+06	-44189.1	1005.82	-29776.5	0.000000	0.000000	6.132777	-0.020723	NaN	0.000000	0.001603	0.001676	28.0822	0.058003	0.001956	29.6513	-40.827	13.0853	0.009708	0.130946	-0.967429	-0.968791	-0.020723	29.6513	-0.966905	-8.127337E+12	2.549783E-15	NaN
658	1.000000	0.142313	7.37149e+06	-44189.1	1005.82	-29776.5	0.000000	0.000000	6.142781	-0.062010	NaN	0.000000	0.001568	0.001670	28.0823	0.122844	0.001930	63.647	81.5631	-161.59	-0.062261	0.140958	-0.957423	-0.958779	-0.062010	63.647	-0.956693	-5.919418E+12	1.047567E-14	NaN
658	1.000000	0.152304	7.37149e+06	-44189.1	1005.82	-29776.5	0.000000	0.000000	6.152776	0.009779	NaN	0.000000	0.001566	0.001681	28.0822	0.134577	0.001901	70.7979	-95.9639	12.7263	-0.006168	0.150941	-0.947432	-0.948795	0.009779	70.7979	-0.947535	-4.454389E+12	-2.195334E-15	NaN
658	1.000000	0.162322	7.37149e+06	-44189.1	1005.82	-29776.5	0.000000	0.000000	6.162792	-0.028291	NaN	0.000000	0.001601	0.001649	28.0823	0.065964	0.002058	32.0594	139.697	-165.92	-0.001747	0.160989	-0.937414	-0.938747	-0.028291	32.0594	-0.936752	-3.186537E+12	8.878249E-15	NaN
658	1.000000	0.172339	7.37149e+06	-44189.1	1005.82	-29776.5	0.000000	0.000000	6.172812	0.040079	NaN	0.000000	0.001615	0.001704	28.0822	0.056618	0.002095	27.0199	59.0053	14.1938	-0.033096	0.170947	-0.927397	-0.928789	0.040079	27.0199	-0.928510	-2.466502E+12	-1.624953E-14	NaN
658	1.000000	0.182361	7.37149e+06	-44189.1	1005.82	-29776.5	0.000000	0.000000	6.182831	-0.032373	NaN	0.000000	0.001565	0.001652	28.0824	0.043620	0.002035	21.4376	177.655	-164.029	-0.007327	0.180977	-0.917375	-0.918759	-0.032373	21.4376	-0.916242	-1.684485E+12	1.921856E-14	NaN
658	1.000000	0.192345	7.37149e+06	-44189.1	1005.82	-29776.5	0.000000	0.000000	6.192817	0.041106	NaN	0.000000	0.001540	0.001651	28.0824	0.135974	0.002028	67.0594	95.2543	17.6043	-0.020835	0.190950	-0.907391	-0.908786	0.041106	67.0594	-0.907851	-1.297588E+12	-3.167844E-14	NaN
658	1.000000	0.202343	7.37149e+06	-44189.1	1005.82	-29776.5	0.000000	0.000000	6.202811	-0.046920	NaN	0.000000	0.001554	0.001705	28.0824	0.083741	0.002121	39.4826	-83.4786	-163.873	-0.040124	0.201022	-0.897394	-0.898715	-0.046920	39.4826	-0.896503	-9.115990E+11	5.147007E-14	NaN
658	1.000000	0.212327	7.37149e+06	-44189.1	1005.82	-29776.5	0.000000	0.000000	6.212794	-0.085835	NaN	0.000000	0.001603	0.001641	28.0824	0.064640	0.001997	32.3606	-61.0297	12.9859	-0.111840	0.210944	-0.887409	-0.888792	-0.085835	32.3606	-0.885420	-6.456507E+11	1.329434E-13	NaN
658	1.000000	0.222345	7.37149e+06	-44189.1	1005.82	-29776.5	0.000000	0.000000	6.222815	-0.023028	NaN	0.000000	0.001575	0.001665	28.0826	0.054921	0.001868	29.4025	149.229	-163.478	-0.004411	0.221017	-0.877391	-0.878720	-0.023028	29.4025	-0.876804	-4.937245E+11	4.664218E-14	NaN
658	1.000000	0.232344	7.37149e+06	-44189.1	1005.82	-29776.5	0.000000	0.000000	6.232815	-0.006104	NaN	0.000000	0.001582	0.001642	28.0822	0.082240	0.002075	39.6399	108.381	12.5678	0.012825	0.231002	-0.867392	-0.868735	-0.006104	39.6399	-0.867277	-3.669400E+11	1.663550E-14	NaN
658	1.000000	0.242326	7.37149e+06	-44189.1	1005.82	-29776.5	0.000000	0.000000	6.242799	0.049679	NaN	0.000000	0.001581	0.001624	28.082	0.126372	0.001906	66.3069	-129.745	-162.883	0.025759	0.241053	-0.857410	-0.858684	0.049679	66.3069	-0.857972	-2.745826E+11	-1.809253E-13	NaN
658	1.000000	0.252325	7.37149e+06	-44189.1	1005.82	-29776.5	0.000000	0.000000	6.252796	0.015021	NaN	0.000000	0.001571	0.001636	28.0813	0.098015	0.001977	49.5722	-74.8733	15.8519	-0.033119	0.250966	-0.847412	-0.848770	0.015021	49.5722	-0.847639	-1.989601E+11	-7.549561E-14	NaN
658	1.000000	0.262389	7.37149e+06	-44189.1	1005.82	-29776.5	0.000000	0.000000	6.262860	0.012849	NaN	0.000000	0.001579	0.001682	28.0812	0.010048	0.001862	5.396927	125.406	-166.333	0.041332	0.261048	-0.837347	-0.838688	0.012849	5.396927	-0.839133	-1.525970E+11	-8.420298E-14	NaN
658	1.000000	0.272371	7.37149e+06	-44189.1	1005.82	-29776.5	0.000000	0.000000	6.272840	-0.039351	NaN	0.000000	0.001607	0.001694	28.0809	0.012484	0.001969	6.340708	114.258	15.7645	0.000471	0.271004	-0.827365	-0.828733	-0.039351	6.340708	-0.822711	-9.140432E+10	4.305158E-13	NaN
658	1.000000	0.282415	7.37149e+06	-44189.1	1005.82	-29776.5	0.000000	0.000000	6.282882	-0.078971	NaN	0.000000	0.001635	0.001667	28.0816	0.092207	0.001995	46.2094	-137.167	-167.47	0.004639	0.281062	-0.817322	-0.818674	-0.078971	46.2094	-0.816040	-7.421758E+10	1.064042E-12	NaN
658	1.000000	0.292369	7.37149e+06	-44189.1	1005.82	-29776.5	0.000000	0.000000	6.292835	-0.129766	NaN	0.000000	0.001637	0.001657	28.0812	0.030654	0.001939	15.809	50.052	15.7382	-0.154715	0.291022	-0.807367	-0.808715	-0.129766	15.809	-0.801211	-4.669775E+10	2.778852E-12	NaN
658	1.000000	0.302374	7.37149e+06	-44189.1	1005.82	-29776.5	0.000000	0.000000	6.302844	-0.020940	NaN	0.000000	0.001636	0.001695	28.0812	0.125767	0.001936	64.9741	135.4	-164.608	0.010522	0.301100	-0.797362	-0.798636	-0.020940	64.9741	-0.797121	-4.109351E+10	5.095692E-13	NaN
658	1.000000	0.312395	7.37149e+06	-44189.1	1005.82	-29776.5	0.000000	0.000000	6.312863	-0.085754	NaN	0.000000	0.001621	0.001666	28.0811	0.052616	0.001959	26.8625	-1.458720	14.7197	-0.117199	0.311017	-0.787341	-0.788719	-0.085754	26.8625	-0.784947	-2.808290E+10	3.053604E-12	NaN
658	1.000000	0.322394	7.37149e+06	-44189.1	1005.82	-29776.5	0.000000	0.000000	6.322863	-0.040348	NaN	0.000000	0.001576	0.001669	28.0814	0.016352	0.001914	8.544334	111.492	-162.646	-0.006067	0.321120	-0.777342	-0.778616	-0.040348	8.544334	-0.773801	-1.981415E+10	2.036302E-12	NaN
658	1.000000	0.332389	7.37149e+06	-44189.1	1005.82	-29776.5	0.000000	0.000000	6.332858	-0.034188	NaN	0.000000	0.001598	0.001642	28.081	0.130920	0.002015	64.9606	-170.562	17.4443	-0.033434	0.331019	-0.767347	-0.768717	-0.034188	64.9606	-0.766953	-1.599074E+10	2.138005E-12	NaN
658	1.000000	0.342349	7.37149e+06	-44189.1	1005.82	-29776.5	0.000000	0.000000	6.342818	-0.042344	NaN	0.000000	0.001579	0.001674	28.081	0.091059	0.002050	44.4296	114.477	-166.805	0.033063	0.341083	-0.757388	-0.758653	-0.042344	44.4296	-0.756673	-1.158874E+10	3.653920E-12	NaN
658	1.000000	0.352438	7.37149e+06	-44189.1	1005.82	-29776.5	0.000000	0.000000	6.352906	-0.057944	NaN	0.000000	0.001604	0.001715	28.0809	0.138576	0.001973	70.2357	139.109	15.5685	-0.031128	0.350996	-0.747299	-0.748740	-0.057944	70.2357	-0.746680	-8.472748E+9	6.838811E-12	NaN
658	1.000000	0.362411	7.37149e+06	-44189.1	1005.82	-29776.5	0.000000	0.000000	6.362882	-0.002960	NaN	0.000000	0.001567	0.001640	28.0813	0.105806	0.002016	52.4731	57.9762	-170.986	0.026468	0.361041	-0.737325	-0.738695	-0.002960	52.4731	-0.737283	-6.310256E+9	4.691256E-13	NaN
658	1.000000	0.372392	7.37149e+06	-44189.1	1005.82	-29776.5	0.000000	0.000000	6.372861	-0.036344	NaN	0.000000	0.001599	0.001659	28.081	0.120890	0.001916	63.0965	-57.9998	14.9173	-0.030927	0.371055	-0.727344	-0.728682	-0.036344	63.0965	-0.726912	-4.557471E+9	7.974492E-12	NaN
658	1.000000	0.382396	7.37149e+06	-44189.1	1005.82	-29776.5	0.000000	0.000000	6.382865	-0.051387	NaN	0.000000	0.001606	0.001676	28.0822	0.016739	0.001892	8.845736	59.0271	-166.225	-0.025728	0.381077	-0.717340	-0.718659	-0.051387	8.845736	-0.712983	-2.942778E+9	1.746207E-11	NaN
658	1.000000	0.392428	7.37149e+06	-44189.1	1005.82	-29776.5	0.000000	0.000000	6.392900	0.018716	NaN	0.000000	0.001585	0.001718	28.0822	0.077868	0.002007	38.7966	-117.676	13.2639	-0.018842	0.391105	-0.707308	-0.708632	0.018716	38.7966	-0.707670	-2.490274E+9	-7.515818E-12	NaN
658	1.000000	0.402423	7.37149e+06	-44189.1	1005.82	-29776.5	0.000000	0.000000	6.402891	-0.063600	NaN	0.000000	0.001633	0.001658	28.0825	0.102804	0.002085	49.3147	-106.744	-164.204	-0.071728	0.401139	-0.697314	-0.698597	-0.063600	49.3147	-0.696346	-1.744336E+9	3.646105E-11	NaN
658	1.000000	0.412427	7.37149e+06	-44189.1	1005.82	-29776.5	0.000000	0.000000	6.412895	-0.051053	NaN	0.000000	0.001594	0.001678	28.0823	0.032404	0.001997	16.2267	-38.339	9.730285	-0.074532	0.411099	-0.687310	-0.688637	-0.051053	16.2267	-0.684950	-1.218686E+9	4.189209E-11	NaN
658	1.000000	0.422427	7.37149e+06	-44189.1	1005.82	-29776.5	0.000000	0.000000	6.422897	-0.007550	NaN	0.000000	0.001636	0.001692	28.0822	0.082970	0.001996	41.5746	67.9705	-166.501	0.028939	0.421134	-0.677309	-0.678602	-0.007550	41.5746	-0.677173	-9.539871E+8	7.914334E-12	NaN
658	1.000000	0.432442	7.37149e+06	-44189.1	1005.82	-29776.5	0.000000	0.000000	6.432912	-0.001767	NaN	0.000000	0.001572	0.001674	28.0824	0.023790	0.001991	11.9482	-11.9121	14.7018	0.026309	0.431087	-0.667295	-0.668649	-0.001767	11.9482	-0.667184	-6.963757E+8	2.536906E-12	NaN
658	1.000000	0.442436	7.37149e+06	-44189.1	1005.82	-29776.5	0.000000	0.000000	6.442906	-0.030741	NaN	0.000000	0.001572	0.001698	28.0824	0.083739	0.002096	39.9611	147.424	-165.738	-0.048710	0.441122	-0.657300	-0.658614	-0.030741	39.9611	-0.656723	-5.007029E+8	6.139618E-11	NaN
658	1.000000	0.452422	7.37149e+06	-44189.1	1005.82	-29776.5	0.000000	0.000000	6.452890	-0.062954	NaN	0.000000	0.001556	0.001705	28.0832	0.057979	0.002060	28.1481	-21.8104	14.693	-0.053193	0.451082	-0.647315	-0.648655	-0.062954	28.1481	-0.645637	-3.528743E+8	1.784026E-10	NaN
658	1.000000	0.462478	7.37149e+06	-44189.1	1005.82	-29776.5	0.000000	0.000000	6.462947	-0.051635	NaN	0.000000	0.001599	0.001716	28.0822	0.063861	0.002146	29.7603	-67.7044	-167.275	0.006730	0.461124	-0.637258	-0.638613	-0.051635	29.7603	-0.635957	-2.599027E+8	1.986704E-10	NaN
658	1.000000	0.472464	7.37149e+06	-44189.1	1005.82	-29776.5	0.000000	0.000000	6.472933	-0.048236	NaN	0.000000	0.001618	0.001719	28.0826	0.075438	0.002044	36.9016	124.782	13.4427	-0.054983	0.471089	-0.627272	-0.628647	-0.048236	36.9016	-0.626292	-1.914671E+8	2.519279E-10	NaN
658	1.000000	0.482442	7.37149e+06	-44189.1	1005.82	-29776.5	0.000000	0.000000	6.482914	0.018345	NaN	0.000000	0.001551	0.001768	28.0823	0.038225	0.001960	19.5042	88.0472	-166.517	0.019770	0.481146	-0.617294	-0.618590	0.018345	19.5042	-0.618000	-1.472772E+8	-1.245591E-10	NaN
658	1.000000	0.492443	7.37149e+06	-44189.1	1005.82	-29776.5	0.000000	0.000000	6.492913	-0.018508	NaN	0.000000	0.001548	0.001745	28.0822	0.046864	0.002087	22.4595	132.589	14.2303	-0.047344	0.491132	-0.607293	-0.608605	-0.018508	22.4595	-0.606675	-1.028882E+8	1.798870E-10	NaN
658	1.000000	0.502473	7.37149e+06	-44189.1	1005.82	-29776.5	0.000000	0.000000	6.502943	-0.012368	NaN	0.000000	0.001621	0.001733	28.0821	0.104849	0.002112	49.6397	38.3271	-164.965	-0.026575	0.501138	-0.597264	-0.598599	-0.012368	49.6397	-0.597077	-7.589164E+7	1.629656E-10	NaN
658	1.000000	0.512449	7.37149e+06	-44189.1	1005.82	-29776.5	0.000000	0.000000	6.512917	-0.069322	NaN	0.000000	0.001584	0.001748	28.0824	0.020775	0.002030	10.2336	-109.811	13.0764	-0.011299	0.511152	-0.587287	-0.588584	-0.069322	10.2336	-0.582207	-4.733424E+7	1.464511E-9	NaN
658	1.000000	0.522494	7.37149e+06	-44189.1	1005.82	-29776.5	0.000000	0.000000	6.522963	-0.049532	NaN	0.000000	0.001592	0.001731	28.0809	0.113287	0.002041	55.4967	92.334	-167.696	-0.100943	0.521165	-0.577242	-0.578571	-0.049532	55.4967	-0.576573	-3.957485E+7	1.251614E-9	NaN
658	1.000000	0.532447	7.37149e+06	-44189.1	1005.82	-29776.5	0.000000	0.000000	6.532915	-0.055830	NaN	0.000000	0.001593	0.001744	28.0809	0.134347	0.002075	64.7386	145.789	14.0796	0.006992	0.531105	-0.567290	-0.568632	-0.055830	64.7386	-0.566643	-2.885606E+7	1.934774E-9	NaN
658	1.000000	0.542526	7.37149e+06	-44189.1	1005.82	-29776.5	0.000000	0.000000	6.542995	-0.036876	NaN	0.000000	0.001592	0.001717	28.0808	0.073137	0.002028	36.061	169.259	-165.225	-0.039728	0.541206	-0.557211	-0.558530	-0.036876	36.061	-0.556444	-2.085310E+7	1.768364E-9	NaN
658	1.000000	0.552473	7.37149e+06	-44189.1	1005.82	-29776.5	0.000000	0.000000	6.552942	-0.021094	NaN	0.000000	0.001622	0.001706	28.0809	0.140696	0.002090	67.3192	-137.923	16.329	0.029859	0.551167	-0.547264	-0.548569	-0.021094	67.3192	-0.547029	-1.544524E+7	1.365730E-9	NaN
658	1.000000	0.562496	7.37149e+06	-44189.1	1005.82	-29776.5	0.000000	0.000000	6.562967	0.005779	NaN	0.000000	0.001565	0.001764	28.0807	0.029625	0.002024	14.639	124.41	-167.717	0.091352	0.561157	-0.537240	-0.538579	0.005779	14.639	-0.537536	-1.140732E+7	-5.066051E-10	NaN
658	1.000000	0.572539	7.37149e+06	-44189.1	1005.82	-29776.5	0.000000	0.000000	6.573008	-0.034614	NaN	0.000000	0.001562	0.001717	28.0808	0.076719	0.002078	36.9118	-159.173	12.6206	-0.098285	0.571107	-0.527198	-0.528629	-0.034614	36.9118	-0.526494	-8.01451e+06	4.318968E-9	NaN
658	1.000000	0.582517	7.37149e+06	-44189.1	1005.82	-29776.5	0.000000	0.000000	6.582987	-0.022911	NaN	0.000000	0.001587	0.001673	28.0811	0.058384	0.002095	27.8705	175.131	-165.468	-0.008242	0.581215	-0.517219	-0.518522	-0.022911	27.8705	-0.516602	-5.83894e+06	3.923908E-9	NaN
658	1.000000	0.592496	7.37149e+06	-44189.1	1005.82	-29776.5	0.000000	0.000000	6.592968	0.017709	NaN	0.000000	0.001580	0.001711	28.0809	0.052777	0.001889	27.9387	-168.926	15.209	-0.000879	0.591104	-0.507240	-0.508633	0.017709	27.9387	-0.507716	-4.3913e+06	-4.032716E-9	NaN
658	1.000000	0.602548	7.37149e+06	-44189.1	1005.82	-29776.5	0.000000	0.000000	6.603017	-0.032361	NaN	0.000000	0.001609	0.001712	28.0809	0.049459	0.002102	23.5283	-156.478	-164.305	-0.012935	0.601208	-0.497189	-0.498529	-0.032361	23.5283	-0.496157	-3.02961e+06	1.068156E-8	NaN
658	1.000000	0.612518	7.37149e+06	-44189.1	1005.82	-29776.5	0.000000	0.000000	6.612988	-0.035032	NaN	0.000000	0.001569	0.001701	28.081	0.107813	0.002039	52.8694	141.673	11.5323	-0.097033	0.611180	-0.487218	-0.488556	-0.035032	52.8694	-0.486721	-2.23644e+06	1.566403E-8	NaN
658	1.000000	0.622510	7.37149e+06	-44189.1	1005.82	-29776.5	0.000000	0.000000	6.622982	0.023002	NaN	0.000000	0.001606	0.001657	28.0813	0.069876	0.001913	36.5352	-128.237	-163.913	-0.027267	0.621215	-0.477226	-0.478522	0.023002	36.5352	-0.477698	-1.67224e+06	-1.375533E-8	NaN
658	1.000000	0.632520	7.37149e+06	-44189.1	1005.82	-29776.5	0.000000	0.000000	6.632987	-0.091529	NaN	0.000000	0.001613	0.001692	28.081	0.051139	0.002082	24.5594	66.2843	15.4952	-0.044116	0.631158	-0.467217	-0.468578	-0.091529	24.5594	-0.464422	-1.08925e+06	8.402979E-8	NaN
658	1.000000	0.642531	7.37149e+06	-44189.1	1005.82	-29776.5	0.000000	0.000000	6.643000	-0.059452	NaN	0.000000	0.001565	0.001681	28.0811	0.134480	0.001939	69.3521	51.5379	-163.976	-0.080043	0.641187	-0.457205	-0.458549	-0.059452	69.3521	-0.456562	-844678	7.038430E-8	NaN
658	1.000000	0.652528	7.37149e+06	-44189.1	1005.82	-29776.5	0.000000	0.000000	6.653000	0.016563	NaN	0.000000	0.001561	0.001659	28.082	0.125337	0.001900	65.9736	166.153	15.0336	0.008168	0.651162	-0.447208	-0.448574	0.016563	65.9736	-0.447396	-627574	-2.639160E-8	NaN
658	1.000000	0.662565	7.37149e+06	-44189.1	1005.82	-29776.5	0.000000	0.000000	6.663036	5.900605E-5	NaN	0.000000	0.001665	0.001673	28.0826	0.109218	0.002008	54.3993	-115.414	-165.447	0.021114	0.661149	-0.437171	-0.438587	5.900605E-5	54.3993	-0.437172	-450232	-1.310569E-10	NaN
658	1.000000	0.672537	7.37149e+06	-44189.1	1005.82	-29776.5	0.000000	0.000000	6.673005	-0.080406	NaN	0.000000	0.001620	0.001700	28.0823	0.062977	0.001863	33.8099	1.853520	12.7026	-0.001381	0.671216	-0.427199	-0.428520	-0.080406	33.8099	-0.425415	-307019	2.618915E-7	NaN
658	1.000000	0.682540	7.37149e+06	-44189.1	1005.82	-29776.5	0.000000	0.000000	6.683010	-0.021134	NaN	0.000000	0.001662	0.001654	28.0825	0.072500	0.001986	36.5063	52.8076	-166.968	0.049861	0.681236	-0.417196	-0.418500	-0.021134	36.5063	-0.416762	-231460	9.130901E-8	NaN
658	1.000000	0.692552	7.37149e+06	-44189.1	1005.82	-29776.5	0.000000	0.000000	6.693021	-0.043249	NaN	0.000000	0.001700	0.001665	28.0825	0.130130	0.002134	60.9745	-6.121674	14.9665	-0.035048	0.691165	-0.407184	-0.408571	-0.043249	60.9745	-0.406652	-166254	2.601360E-7	NaN
658	1.000000	0.702565	7.37149e+06	-44189.1	1005.82	-29776.5	0.000000	0.000000	6.703035	-0.014279	NaN	0.000000	0.001679	0.001667	28.0823	0.077624	0.002019	38.4455	128.003	-164.192	-0.047294	0.701283	-0.397171	-0.398454	-0.014279	38.4455	-0.396893	-120687	1.183135E-7	NaN
658	1.000000	0.712559	7.37149e+06	-44189.1	1005.82	-29776.5	0.000000	0.000000	6.713030	-0.006245	NaN	0.000000	0.001696	0.001689	28.0824	0.072395	0.002013	35.961	-172.634	11.9871	0.033790	0.711195	-0.387177	-0.388541	-0.006245	35.961	-0.387047	-87277.1	7.154917E-8	NaN
658	1.000000	0.722569	7.37149e+06	-44189.1	1005.82	-29776.5	0.000000	0.000000	6.723039	-0.026730	NaN	0.000000	0.001655	0.001708	28.0824	0.064403	0.002010	32.0352	138.581	-168.021	0.026584	0.721232	-0.377167	-0.378504	-0.026730	32.0352	-0.376541	-61691.3	4.332876E-7	NaN
658	1.000000	0.732559	7.37149e+06	-44189.1	1005.82	-29776.5	0.000000	0.000000	6.733028	-0.035861	NaN	0.000000	0.001698	0.001636	28.0825	0.090961	0.002047	44.4365	124.13	16.817	-0.029126	0.731204	-0.367177	-0.368532	-0.035861	44.4365	-0.366572	-44333	8.089005E-7	NaN
658	1.000000	0.742574	7.37149e+06	-44189.1	1005.82	-29776.5	0.000000	0.000000	6.743046	0.023874	NaN	0.000000	0.001672	0.001669	28.0826	0.079785	0.001985	40.201	-93.7369	-166.712	0.018259	0.741247	-0.357162	-0.358490	0.023874	40.201	-0.357608	-32904.1	-7.255661E-7	NaN
658	1.000000	0.752557	7.37149e+06	-44189.1	1005.82	-29776.5	0.000000	0.000000	6.753024	-0.085748	NaN	0.000000	0.001686	0.001642	28.0823	0.102077	0.002023	50.457	-77.7173	13.1979	-0.114604	0.751225	-0.347180	-0.348511	-0.085748	50.457	-0.345905	-22259.6	3.852178E-6	NaN
658	1.000000	0.762571	7.37149e+06	-44189.1	1005.82	-29776.5	0.000000	0.000000	6.763041	-0.028006	NaN	0.000000	0.001705	0.001671	28.0826	0.081564	0.002018	40.4237	178.128	-164.203	0.008988	0.761274	-0.337166	-0.338463	-0.028006	40.4237	-0.336646	-16316.4	1.716435E-6	NaN
658	1.000000	0.772569	7.37149e+06	-44189.1	1005.82	-29776.5	0.000000	0.000000	6.773038	-0.039353	NaN	0.000000	0.001645	0.001671	28.0826	0.033288	0.001929	17.2559	-105.238	13.1112	-0.157043	0.771215	-0.327168	-0.328521	-0.039353	17.2559	-0.325457	-11190.6	3.516602E-6	NaN
658	1.000000	0.782606	7.37149e+06	-44189.1	1005.82	-29776.5	0.000000	0.000000	6.783075	-0.061018	NaN	0.000000	0.001660	0.001689	28.0824	0.092680	0.002090	44.3489	90.4932	-165.467	-0.019372	0.781309	-0.317130	-0.318427	-0.061018	44.3489	-0.316098	-8149.82	7.487020E-6	NaN
658	1.000000	0.792604	7.37149e+06	-44189.1	1005.82	-29776.5	0.000000	0.000000	6.793072	-0.086134	NaN	0.000000	0.001636	0.001655	28.0812	0.035670	0.001969	18.1121	90.4113	15.7368	-0.037160	0.791220	-0.307132	-0.308516	-0.086134	18.1121	-0.303565	-5316.81	1.620025E-5	NaN
658	1.000000	0.802597	7.37149e+06	-44189.1	1005.82	-29776.5	0.000000	0.000000	6.803065	-0.076228	NaN	0.000000	0.001642	0.001707	28.0813	0.095240	0.002151	44.2704	174.414	-164.245	-0.052713	0.801277	-0.297139	-0.298459	-0.076228	44.2704	-0.295848	-4080.81	1.867950E-5	NaN
658	1.000000	0.812569	7.37149e+06	-44189.1	1005.82	-29776.5	0.000000	0.000000	6.813040	0.007028	NaN	0.000000	0.001652	0.001694	28.0812	0.047841	0.001938	24.6843	-59.5796	11.4024	-0.049634	0.811225	-0.287167	-0.288512	0.007028	24.6843	-0.287381	-3048.07	-2.305642E-6	NaN
658	1.000000	0.822605	7.37149e+06	-44189.1	1005.82	-29776.5	0.000000	0.000000	6.823071	-0.135977	NaN	0.000000	0.001626	0.001666	28.0811	0.023480	0.002002	11.729	99.3469	-164.255	-0.049728	0.821313	-0.277131	-0.278423	-0.135977	11.729	-0.268436	-1576.72	8.624059E-5	NaN
658	1.000000	0.832596	7.37149e+06	-44189.1	1005.82	-29776.5	0.000000	0.000000	6.833068	0.030751	NaN	0.000000	0.001653	0.001665	28.0812	0.074610	0.002075	35.9628	-149.448	15.8894	-0.087642	0.831290	-0.267140	-0.268446	0.030751	35.9628	-0.267781	-1540.96	-1.995584E-5	NaN
658	1.000000	0.842612	7.37149e+06	-44189.1	1005.82	-29776.5	0.000000	0.000000	6.843081	-0.047363	NaN	0.000000	0.001654	0.001663	28.081	0.061397	0.001996	30.7614	-88.095	-166.099	-0.051323	0.841248	-0.257124	-0.258488	-0.047363	30.7614	-0.255969	-1016.32	4.660244E-5	NaN
658	1.000000	0.852629	7.37149e+06	-44189.1	1005.82	-29776.5	0.000000	0.000000	6.853102	0.047948	NaN	0.000000	0.001681	0.001708	28.0811	0.081030	0.001909	42.44	70.9448	13.8413	0.012631	0.851212	-0.247107	-0.248525	0.047948	42.44	-0.247954	-764.362	-6.272900E-5	NaN
658	1.000000	0.862631	7.37149e+06	-44189.1	1005.82	-29776.5	0.000000	0.000000	6.863102	-0.001455	NaN	0.000000	0.001662	0.001642	28.0811	0.011639	0.002018	5.766790	15.8147	-165.886	-0.027980	0.861320	-0.237105	-0.238417	-0.001455	5.766790	-0.236916	-514.4	2.829428E-6	NaN
658	1.000000	0.872618	7.37149e+06	-44189.1	1005.82	-29776.5	0.000000	0.000000	6.873087	-0.051995	NaN	0.000000	0.001675	0.001720	28.0813	0.025108	0.001930	13.0069	49.4597	17.2881	-0.064082	0.871315	-0.227118	-0.228422	-0.051995	13.0069	-0.224120	-323.114	0.000161	NaN
658	1.000000	0.882646	7.37149e+06	-44189.1	1005.82	-29776.5	0.000000	0.000000	6.883115	-0.048450	NaN	0.000000	0.001660	0.001701	28.0811	0.064139	0.002020	31.7596	-107.805	-167.211	-0.049917	0.881338	-0.217091	-0.218398	-0.048450	31.7596	-0.215947	-239.183	0.000203	NaN
658	1.000000	0.892631	7.37149e+06	-44189.1	1005.82	-29776.5	0.000000	0.000000	6.893100	-0.039024	NaN	0.000000	0.001650	0.001752	28.0812	0.114159	0.002064	55.3173	-87.9052	15.7789	0.013208	0.891289	-0.207105	-0.208447	-0.039024	55.3173	-0.206576	-168.747	0.000231	NaN
658	1.000000	0.902634	7.37149e+06	-44189.1	1005.82	-29776.5	0.000000	0.000000	6.903107	0.033536	NaN	0.000000	0.001640	0.001719	28.0811	0.128714	0.001914	67.2491	129.581	-163.642	-0.044246	0.901382	-0.197102	-0.198354	0.033536	67.2491	-0.197476	-119.712	-0.000280	NaN
658	1.000000	0.912630	7.37149e+06	-44189.1	1005.82	-29776.5	0.000000	0.000000	6.913099	-0.034821	NaN	0.000000	0.001635	0.001706	28.0813	0.054403	0.002057	26.4509	136.254	15.3517	0.034710	0.911266	-0.187107	-0.188470	-0.034821	26.4509	-0.186119	-77.4424	0.000450	NaN
658	1.000000	0.922621	7.37149e+06	-44189.1	1005.82	-29776.5	0.000000	0.000000	6.923091	-0.006898	NaN	0.000000	0.001663	0.001705	28.081	0.069988	0.002080	33.6449	-63.7692	-164.685	0.048496	0.921346	-0.177115	-0.178390	-0.006898	33.6449	-0.176962	-54.1528	0.000127	NaN
658	1.000000	0.932638	7.37149e+06	-44189.1	1005.82	-29776.5	0.000000	0.000000	6.933109	0.004840	NaN	0.000000	0.001648	0.001676	28.0826	0.048254	0.001854	26.0324	131.737	15.1659	-0.033733	0.931325	-0.167099	-0.168411	0.004840	26.0324	-0.167238	-36.7713	-0.000132	NaN
658	1.000000	0.942676	7.37149e+06	-44189.1	1005.82	-29776.5	0.000000	0.000000	6.943146	-0.007182	NaN	0.000000	0.001601	0.001742	28.0824	0.065011	0.002019	32.199	-20.4552	-163.485	-0.019672	0.941349	-0.157061	-0.158387	-0.007182	32.199	-0.156893	-24.1308	0.000298	NaN
658	1.000000	0.952646	7.37149e+06	-44189.1	1005.82	-29776.5	0.000000	0.000000	6.953117	0.012711	NaN	0.000000	0.001675	0.001728	28.0829	0.074583	0.002023	36.8663	-154.78	15.1885	0.029200	0.951289	-0.147091	-0.148447	0.012711	36.8663	-0.147349	-16.1987	-0.000785	NaN
658	1.000000	0.962665	7.37149e+06	-44189.1	1005.82	-29776.5	0.000000	0.000000	6.963138	0.048982	NaN	0.000000	0.001638	0.001704	28.0823	0.098251	0.001960	50.1403	-89.041	-163.124	0.026859	0.961355	-0.137071	-0.138381	0.048982	50.1403	-0.137804	-10.754	-0.004555	NaN
658	1.000000	0.972651	7.37149e+06	-44189.1	1005.82	-29776.5	0.000000	0.000000	6.973123	0.014497	NaN	0.000000	0.001661	0.001698	28.0824	0.080380	0.002191	36.6947	173.397	18.9791	-0.049422	0.971301	-0.127085	-0.128435	0.014497	36.6947	-0.127381	-6.774873	-0.002140	NaN
658	1.000000	0.982676	7.37149e+06	-44189.1	1005.82	-29776.5	0.000000	0.000000	6.983149	0.054293	NaN	0.000000	0.001653	0.001724	28.0825	0.061985	0.002043	30.3453	81.4871	-166.174	0.004176	0.981347	-0.117061	-0.118389	0.054293	30.3453	-0.118402	-4.484695	-0.012106	NaN
658	1.000000	0.992672	7.37149e+06	-44189.1	1005.82	-29776.5	0.000000	0.000000	6.993140	-0.063420	NaN	0.000000	0.001637	0.001717	28.0825	0.014335	0.002015	7.113633	-101.776	14.41	-0.040726	0.991351	-0.107064	-0.108385	-0.063420	7.113633	-0.100378	-1.862693	0.034048	NaN
658	1.000000	1.002686	7.37149e+06	-44189.1	1005.82	-29776.5	0.000000	0.000000	7.003157	0.016537	NaN	0.000000	0.001656	0.001725	28.0823	0.099923	0.001961	50.9608	178.777	-165.07	0.026724	1.001369	-0.097051	-0.098367	0.016537	50.9608	-0.097294	-1.589841	-0.010401	NaN
658	1.000000	1.012672	7.37149e+06	-44189.1	1005.82	-29776.5	0.000000	0.000000	7.013142	-0.012896	NaN	0.000000	0.001668	0.001730	28.0824	0.025204	0.001971	12.7905	175.865	15.9342	0.022905	1.011285	-0.087065	-0.088451	-0.012896	12.7905	-0.086309	-0.883530	0.014596	NaN
658	1.000000	1.022687	7.37149e+06	-44189.1	1005.82	-29776.5	0.000000	0.000000	7.023156	-0.054611	NaN	0.000000	0.001656	0.001704	28.0826	0.123631	0.001802	68.6077	-140.028	-161.924	-0.068740	1.021337	-0.077049	-0.078399	-0.054611	68.6077	-0.076452	-0.503393	0.108487	NaN
658	1.000000	1.032671	7.37149e+06	-44189.1	1005.82	-29776.5	0.000000	0.000000	7.033143	0.011265	NaN	0.000000	0.001679	0.001683	28.0824	0.078897	0.001965	40.1551	-128.954	12.583	0.016016	1.031293	-0.067065	-0.068443	0.011265	40.1551	-0.067276	-0.287875	-0.039133	NaN
658	1.000000	1.042698	7.37149e+06	-44189.1	1005.82	-29776.5	0.000000	0.000000	7.043168	-0.027702	NaN	0.000000	0.001664	0.001699	28.0822	0.162548	0.002151	75.5571	151.919	-167.36	-0.038104	1.041332	-0.057038	-0.058404	-0.027702	75.5571	-0.056763	-0.145113	0.190903	NaN
658	1.000000	1.052681	7.37149e+06	-44189.1	1005.82	-29776.5	0.000000	0.000000	7.053152	-0.002150	NaN	0.000000	0.001653	0.001716	28.0823	0.127124	0.002021	62.8908	-89.8295	12.8873	-0.018825	1.051298	-0.047055	-0.048438	-0.002150	62.8908	-0.047029	-0.074128	0.029003	NaN
658	1.000000	1.062680	7.37149e+06	-44189.1	1005.82	-29776.5	0.000000	0.000000	7.063153	0.048610	NaN	0.000000	0.001671	0.001728	28.0815	0.057508	0.001915	30.0287	-176.923	-164.308	-0.033560	1.061394	-0.037056	-0.038342	0.048610	30.0287	-0.038271	-0.040088	-1.212598	NaN
658	1.000000	1.072675	7.37149e+06	-44189.1	1005.82	-29776.5	0.000000	0.000000	7.073148	0.056557	NaN	0.000000	0.001647	0.001669	28.0811	0.167839	0.002193	76.5442	-107.305	15.6402	0.005230	1.071298	-0.027061	-0.028438	0.056557	76.5442	-0.027615	-0.019795	-2.857142	NaN
658	1.000000	1.082698	7.37149e+06	-44189.1	1005.82	-29776.5	0.000000	0.000000	7.083169	0.001183	NaN	0.000000	0.001652	0.001682	28.081	0.100339	0.001917	52.3488	109.613	-167.414	0.010530	1.081419	-0.017038	-0.018317	0.001183	52.3488	-0.017055	-0.010546	-0.112148	NaN
658	1.000000	1.092718	7.37149e+06	-44189.1	1005.82	-29776.5	0.000000	0.000000	7.093187	-0.036917	NaN	0.000000	0.001560	0.001694	28.0812	0.025887	0.001936	13.3723	92.0832	15.9343	-0.051430	1.091371	-0.007019	-0.008365	-0.036917	13.3723	-0.004948	-0.003384	10.9092	NaN
658	1.000000	1.102628	7.37149e+06	-44189.1	1005.82	-29776.5	0.000000	0.000000	7.103406	7.492723	NaN	0.000000	0.001641	0.001673	28.0809	7.166332	0.001645	4356	11.1463	-169.545	6.895663	1.101419	0.002891	0.001683	7.492723	4356	0.001601	0.001235	6067.39	113251
658	2.000000	1.105831	7.37149e+06	-44189.1	1005.82	-29776.5	0.000000	0.000000	7.106709	9.895566	NaN	0.000000	0.001595	0.001714	28.081	10.4814	0.001587	6604.57	8.405156	5.351001	9.457928	1.105516	0.006095	0.005779	9.895566	6604.57	0.004971	0.004107	2409.3	94155
658	2.000000	1.108310	7.37149e+06	-44189.1	1005.82	-29776.5	0.000000	0.000000	7.109403	15.1329	NaN	0.000000	0.001563	0.001708	28.081	13.5898	0.001645	8261.39	5.507329	-175.272	14.8753	1.107990	0.008574	0.008253	15.1329	8261.39	0.007200	0.006233	2428	95607
658	2.000000	1.110899	7.37149e+06	-44189.1	1005.82	-29776.5	0.000000	0.000000	7.112162	19.2846	NaN	0.000000	0.001595	0.001695	28.0813	15.9395	0.001673	9529.69	8.467847	3.356269	20.4283	1.110489	0.011163	0.010753	19.2846	9529.69	0.009645	0.008789	2194.06	92868.9
658	2.000000	1.113324	7.37149e+06	-44189.1	1005.82	-29776.5	0.000000	0.000000	7.114688	21.7258	NaN	0.000000	0.001592	0.001677	28.0811	17.9343	0.001629	11006.8	8.145703	-177.821	22.4824	1.112986	0.013588	0.013249	21.7258	11006.8	0.012108	0.011619	1869.82	93292.6
658	2.000000	1.115805	7.37149e+06	-44189.1	1005.82	-29776.5	0.000000	0.000000	7.117400	27.3624	NaN	0.000000	0.001564	0.001724	28.0811	21.6552	0.001820	11899.9	4.729862	5.189372	28.1734	1.115448	0.016068	0.015711	27.3624	11899.9	0.014344	0.014420	1897.49	90537.9
658	2.000000	1.118265	7.37149e+06	-44189.1	1005.82	-29776.5	0.000000	0.000000	7.120151	34.42	NaN	0.000000	0.001554	0.001728	28.0813	24.191	0.001761	13734.3	4.273298	-177.752	32.9923	1.117969	0.018529	0.018233	34.42	13734.3	0.016649	0.017548	1961.5	94726
658	2.000000	1.120775	7.37149e+06	-44189.1	1005.82	-29776.5	0.000000	0.000000	7.122877	39.6726	NaN	0.000000	0.001579	0.001687	28.0813	25.6405	0.001744	14705.4	3.698231	3.925531	39.1387	1.120407	0.021039	0.020670	39.6726	14705.4	0.019016	0.021019	1887.46	92671.2
658	2.000000	1.123250	7.37149e+06	-44189.1	1005.82	-29776.5	0.000000	0.000000	7.125621	46.2423	NaN	0.000000	0.001609	0.001699	28.0816	28.1202	0.001733	16229.9	3.968487	-177.937	45.0691	1.122973	0.023513	0.023236	46.2423	16229.9	0.021376	0.024751	1868.29	94251.9
658	2.000000	1.125732	7.37149e+06	-44189.1	1005.82	-29776.5	0.000000	0.000000	7.128476	55.3048	NaN	0.000000	0.001575	0.001686	28.0811	30.8051	0.001775	17359.8	6.185578	-0.311099	53.3808	1.125383	0.025996	0.025646	55.3048	17359.8	0.023607	0.028529	1938.52	93901.5
658	2.000000	1.128207	7.37149e+06	-44189.1	1005.82	-29776.5	0.000000	0.000000	7.131160	60.3753	NaN	0.000000	0.001572	0.001674	28.0827	34.4126	0.001803	19083.8	8.324497	175.259	58.1528	1.128004	0.028471	0.028267	60.3753	19083.8	0.026098	0.033044	1827.13	95916.4
658	2.000000	1.130675	7.37149e+06	-44189.1	1005.82	-29776.5	0.000000	0.000000	7.134169	73.5665	NaN	0.000000	0.001585	0.001695	28.0827	35.4813	0.001628	21794.9	2.813655	0.736991	68.1545	1.130340	0.030938	0.030604	73.5665	21794.9	0.028407	0.037506	1961.45	102820
658	2.000000	1.133244	7.37149e+06	-44189.1	1005.82	-29776.5	0.000000	0.000000	7.137078	81.8275	NaN	0.000000	0.001570	0.001735	28.0825	38.9078	0.001835	21198.7	6.912710	176.349	81.7774	1.132951	0.033508	0.033215	81.8275	21198.7	0.030613	0.042023	1947.18	94479.4
658	2.000000	1.135696	7.37149e+06	-44189.1	1005.82	-29776.5	0.000000	0.000000	7.139898	90.781	NaN	0.000000	0.001602	0.001740	28.0823	41.2509	0.001758	23464.3	7.619111	-4.737469	88.7675	1.135351	0.035959	0.035615	90.781	23464.3	0.033058	0.047320	1918.44	98550.5
658	2.000000	1.138248	7.37149e+06	-44189.1	1005.82	-29776.5	0.000000	0.000000	7.142901	101.767	NaN	0.000000	0.001618	0.001714	28.0831	44.1876	0.001752	25222.1	4.536615	177.677	101.165	1.137850	0.038511	0.038113	101.767	25222.1	0.035485	0.052881	1924.45	100208
658	2.000000	1.140755	7.37149e+06	-44189.1	1005.82	-29776.5	0.000000	0.000000	7.145796	111.188	NaN	0.000000	0.001600	0.001706	28.0825	46.2889	0.001775	26073.9	6.442838	-4.321539	110.094	1.140356	0.041018	0.040619	111.188	26073.9	0.037820	0.058516	1900.12	98478.6
658	2.000000	1.143177	7.37149e+06	-44189.1	1005.82	-29776.5	0.000000	0.000000	7.148662	121.974	NaN	0.000000	0.001574	0.001708	28.0826	49.0058	0.001825	26859.5	3.491831	177.213	119.671	1.142896	0.043441	0.043159	121.974	26859.5	0.040035	0.064119	1902.31	96912.4
658	2.000000	1.145710	7.37149e+06	-44189.1	1005.82	-29776.5	0.000000	0.000000	7.151724	134.855	NaN	0.000000	0.001601	0.001744	28.0823	51.3391	0.001895	27094.6	2.988038	-2.062394	133.206	1.145418	0.045974	0.045681	134.855	27094.6	0.042241	0.069948	1927.93	93598.5
658	2.000000	1.148209	7.37149e+06	-44189.1	1005.82	-29776.5	0.000000	0.000000	7.154897	151.242	NaN	0.000000	0.001595	0.001665	28.0833	52.546	0.001790	29351.6	2.645216	178.163	148.747	1.147897	0.048473	0.048161	151.242	29351.6	0.044608	0.076479	1977.56	96969
658	2.000000	1.150712	7.37149e+06	-44189.1	1005.82	-29776.5	0.000000	0.000000	7.157952	164.669	NaN	0.000000	0.001597	0.001665	28.0825	54.8341	0.001706	32136.6	7.165337	-7.196559	162.041	1.150343	0.050976	0.050607	164.669	32136.6	0.047133	0.083758	1966.02	101452
658	2.000000	1.153168	7.37149e+06	-44189.1	1005.82	-29776.5	0.000000	0.000000	7.160975	178.465	NaN	0.000000	0.001614	0.001674	28.0827	58.1441	0.001735	33515.2	6.501138	173.223	176.342	1.152853	0.053432	0.053116	178.465	33515.2	0.049438	0.090685	1967.96	101683
658	2.000000	1.155646	7.37149e+06	-44189.1	1005.82	-29776.5	0.000000	0.000000	7.164026	192.403	NaN	0.000000	0.001579	0.001683	28.0825	60.7061	0.001893	32070.9	1.046938	-0.820951	187.589	1.155303	0.055910	0.055566	192.403	32070.9	0.051411	0.096823	1987.15	94166.1
658	2.000000	1.158209	7.37149e+06	-44189.1	1005.82	-29776.5	0.000000	0.000000	7.167134	205.657	NaN	0.000000	0.001609	0.001666	28.0829	63.4678	0.001850	34301.2	4.191301	175.039	203.828	1.157806	0.058473	0.058070	205.657	34301.2	0.053976	0.105099	1956.8	96668.2
658	2.000000	1.160650	7.37149e+06	-44189.1	1005.82	-29776.5	0.000000	0.000000	7.170313	223.637	NaN	0.000000	0.001615	0.001698	28.0825	65.4384	0.001802	36307.7	6.052396	-6.594804	218.764	1.160263	0.060913	0.060527	223.637	36307.7	0.056294	0.112855	1981.63	98744.1
658	2.000000	1.163223	7.37149e+06	-44189.1	1005.82	-29776.5	0.000000	0.000000	7.173365	235.285	NaN	0.000000	0.001563	0.001710	28.0815	67.4081	0.001831	36818.4	8.616615	169.828	236.63	1.162843	0.063487	0.063106	235.285	36818.4	0.058694	0.121166	1941.84	96637.8
658	2.000000	1.165643	7.37149e+06	-44189.1	1005.82	-29776.5	0.000000	0.000000	7.176109	243.186	NaN	0.000000	0.001588	0.001744	28.0812	69.3533	0.001688	41098.2	2.486806	-5.025733	239.159	1.165355	0.065906	0.065619	243.186	41098.2	0.061468	0.131126	1854.59	103693
658	2.000000	1.168189	7.37149e+06	-44189.1	1005.82	-29776.5	0.000000	0.000000	7.179335	259.721	NaN	0.000000	0.001576	0.001669	28.0817	73.9656	0.001910	38728.1	6.396280	171.99	261.551	1.167965	0.068453	0.068228	259.721	38728.1	0.063423	0.138368	1877.04	95122.2
658	2.000000	1.170744	7.37149e+06	-44189.1	1005.82	-29776.5	0.000000	0.000000	7.182673	278.775	NaN	0.000000	0.001581	0.001710	28.0814	73.9473	0.001806	40939.1	3.094401	-5.760698	278.413	1.170453	0.071007	0.070717	278.775	40939.1	0.065900	0.147812	1886.01	97287.6
658	2.000000	1.173093	7.37149e+06	-44189.1	1005.82	-29776.5	0.000000	0.000000	7.185722	295.797	NaN	0.000000	0.001613	0.001695	28.0817	76.1309	0.001827	41677.1	2.749917	175.3	289.95	1.172792	0.073356	0.073055	295.797	41677.1	0.068033	0.156180	1893.95	96351.5
658	2.000000	1.175675	7.37149e+06	-44189.1	1005.82	-29776.5	0.000000	0.000000	7.189131	315.908	NaN	0.000000	0.001581	0.001668	28.0814	78.6156	0.001791	43886.8	6.789472	-8.619929	314.097	1.175198	0.075938	0.075461	315.908	43886.8	0.070540	0.166291	1899.73	98327.1
658	2.000000	1.178145	7.37149e+06	-44189.1	1005.82	-29776.5	0.000000	0.000000	7.192331	333.677	NaN	0.000000	0.001552	0.001713	28.0817	81.5097	0.001783	45714.7	3.385221	173.914	332.513	1.177859	0.078409	0.078123	333.677	45714.7	0.072934	0.176229	1893.43	99492.5
658	2.000000	1.180703	7.37149e+06	-44189.1	1005.82	-29776.5	0.000000	0.000000	7.195672	352.729	NaN	0.000000	0.001571	0.001694	28.0813	82.5976	0.001670	49447.7	3.749135	-6.099925	349.977	1.180309	0.080967	0.080572	352.729	49447.7	0.075617	0.187683	1879.38	104281
658	2.000000	1.183106	7.37149e+06	-44189.1	1005.82	-29776.5	0.000000	0.000000	7.198669	367.17	NaN	0.000000	0.001587	0.001679	28.0814	85.5726	0.001872	45703.1	3.799783	173.216	362.139	1.182827	0.083369	0.083090	367.17	45703.1	0.077344	0.195238	1880.63	94501
658	2.000000	1.185714	7.37149e+06	-44189.1	1005.82	-29776.5	0.000000	0.000000	7.202130	387.92	NaN	0.000000	0.001540	0.001698	28.0813	90.6876	0.002002	45293.9	9.624302	-12.4043	388.092	1.185228	0.085977	0.085492	387.92	45293.9	0.079554	0.205109	1891.29	91373.6
658	2.000000	1.188188	7.37149e+06	-44189.1	1005.82	-29776.5	0.000000	0.000000	7.205342	405.89	NaN	0.000000	0.001565	0.001718	28.0816	91.7024	0.001852	49517.9	7.987642	168.912	407.024	1.187746	0.088451	0.088010	405.89	49517.9	0.082304	0.217708	1864.38	96961.3
658	2.000000	1.190622	7.37149e+06	-44189.1	1005.82	-29776.5	0.000000	0.000000	7.208868	432.446	NaN	0.000000	0.001577	0.001663	28.0814	92.5	0.001901	48653.6	7.213693	-9.531041	427.343	1.190281	0.090886	0.090544	432.446	48653.6	0.084220	0.226694	1907.62	93361.6
658	2.000000	1.193105	7.37149e+06	-44189.1	1005.82	-29776.5	0.000000	0.000000	7.212112	450.948	NaN	0.000000	0.001592	0.001686	28.0813	93.3633	0.001849	50484.6	-0.305990	176.809	445.887	1.192845	0.093369	0.093108	450.948	50484.6	0.086669	0.238430	1891.33	94460.8
658	2.000000	1.195553	7.37149e+06	-44189.1	1005.82	-29776.5	0.000000	0.000000	7.215453	472.669	NaN	0.000000	0.001611	0.001730	28.0824	96.7287	0.001708	56646.6	6.064716	-10.1134	464.112	1.195133	0.095817	0.095397	472.669	56646.6	0.089559	0.252627	1871.02	102969
658	2.000000	1.198162	7.37149e+06	-44189.1	1005.82	-29776.5	0.000000	0.000000	7.219044	496.575	NaN	0.000000	0.001561	0.001742	28.0826	101.226	0.001834	55196.9	9.198596	167.286	496.342	1.197752	0.098426	0.098016	496.575	55196.9	0.091679	0.263288	1886.05	98281.7
658	2.000000	1.200643	7.37149e+06	-44189.1	1005.82	-29776.5	0.000000	0.000000	7.222211	513.26	NaN	0.000000	0.001604	0.001740	28.0827	103.353	0.001853	55762.4	6.492515	-10.9141	509.918	1.200400	0.100907	0.100663	513.26	55762.4	0.094003	0.275215	1864.94	97113.2
658	2.000000	1.202064	7.37149e+06	-44189.1	1005.82	-29776.5	0.000000	0.000000	7.224109	524.871	NaN	0.000000	0.001672	0.001718	28.083	102.861	0.001717	59921.4	0.901704	174.024	520.784	1.201926	0.102328	0.102189	524.871	59921.4	0.095758	0.284383	1845.65	102660