File: remote_trans/data/nanoindenter/0828-1/data/Data_2025-08-06,11h17m57s/2025-07-22_16-23-58_1_555.txt
2025-07-22, 16:23:58, 1
Index	Phase	Displacement	Time	Pos X	Pos Y	Pos Z	Rot A	Rot B	Piezo Z	Force A	Force B	Gripper	Voltage A	Voltage B	Temperature	Amplitude force	Amplitude pos	Stiffness	Phase shift	Phase excitation	Force A raw	Displacement raw	HMax	HMax raw	Real Force	Real Stiffness	Contact Depth	Area	Hardness	Reduced Mod.
[#]	[#]	[um]	[s]	[um]	[um]	[um]	[m°]	[m°]	[um]	[uN]	[uN]	[V]	[V]	[V]	[°C]	[uN]	[um]	[N/m]	[°]	[°]	[uN]	[um]	[um]	[um]	[uN]	[N/m]	[um]	[um^2]	[MPa]	[MPa]
555	1.000000	0.002278	7.37048e+06	-49339.1	1005.82	-29759.4	0.000000	0.000000	6.002771	-0.007517	NaN	0.000000	0.001687	0.001725	28.0821	0.084652	0.000911	92.9673	53.7834	-168.094	-0.055495	0.001060	-1.018090	-1.019308	-0.007517	92.9673	-1.018029	-3.966741E+13	1.895083E-16	NaN
555	1.000000	0.010239	7.37048e+06	-49339.1	1005.82	-29759.4	0.000000	0.000000	6.010732	0.013805	NaN	0.000000	0.001659	0.001702	28.082	0.075129	0.000912	82.3409	-8.093838	-166.598	0.024562	0.008877	-1.010129	-1.011490	0.013805	82.3409	-1.010255	-3.117536E+13	-4.428142E-16	NaN
555	1.000000	0.018270	7.37048e+06	-49339.1	1005.82	-29759.4	0.000000	0.000000	6.018765	0.056573	NaN	0.000000	0.001690	0.001690	28.0823	0.021339	0.001752	12.18	124.065	-164.653	0.027057	0.016961	-1.002098	-1.003407	0.056573	12.18	-1.005582	-2.697177E+13	-2.097479E-15	NaN
555	1.000000	0.026277	7.37048e+06	-49339.1	1005.82	-29759.4	0.000000	0.000000	6.026771	0.034258	NaN	0.000000	0.001663	0.001691	28.0821	0.080414	0.001907	42.1763	139.847	-169.203	-0.004799	0.024957	-0.994091	-0.995411	0.034258	42.1763	-0.994700	-1.924893E+13	-1.779715E-15	NaN
555	1.000000	0.034233	7.37048e+06	-49339.1	1005.82	-29759.4	0.000000	0.000000	6.034724	-0.044247	NaN	0.000000	0.001662	0.001694	28.0823	0.027493	0.001830	15.0221	-76.1463	-165.577	0.075631	0.032995	-0.986135	-0.987373	-0.044247	15.0221	-0.983926	-1.378141E+13	3.210639E-15	NaN
555	1.000000	0.042259	7.37048e+06	-49339.1	1005.82	-29759.4	0.000000	0.000000	6.042751	-0.021938	NaN	0.000000	0.001690	0.001646	28.0822	0.047814	0.002144	22.3054	-40.6202	-165.163	-0.003609	0.040980	-0.978109	-0.979387	-0.021938	22.3054	-0.977371	-1.124584E+13	1.950791E-15	NaN
555	1.000000	0.050269	7.37048e+06	-49339.1	1005.82	-29759.4	0.000000	0.000000	6.050763	0.019311	NaN	0.000000	0.001619	0.001666	28.0821	0.036611	0.001978	18.5104	-42.9136	-167.375	0.024352	0.048969	-0.970099	-0.971398	0.019311	18.5104	-0.970881	-9.194792E+12	-2.100189E-15	NaN
555	1.000000	0.058273	7.37048e+06	-49339.1	1005.82	-29759.4	0.000000	0.000000	6.058768	0.036257	NaN	0.000000	0.001620	0.001688	28.0824	0.022009	0.002051	10.731	-47.3689	-167.424	0.004444	0.057003	-0.962094	-0.963365	0.036257	10.731	-0.964628	-7.572938E+12	-4.787730E-15	NaN
555	1.000000	0.066236	7.37048e+06	-49339.1	1005.82	-29759.4	0.000000	0.000000	6.066731	0.040726	NaN	0.000000	0.001641	0.001691	28.0819	0.083556	0.001911	43.72	-3.635302	-165.996	-0.025619	0.064941	-0.954132	-0.955427	0.040726	43.72	-0.954830	-5.586863E+12	-7.289553E-15	NaN
555	1.000000	0.074245	7.37048e+06	-49339.1	1005.82	-29759.4	0.000000	0.000000	6.074739	0.021700	NaN	0.000000	0.001614	0.001686	28.0822	0.109926	0.001867	58.8905	-51.0491	-167.098	-0.042602	0.072952	-0.946122	-0.947415	0.021700	58.8905	-0.946399	-4.299878E+12	-5.046745E-15	NaN
555	1.000000	0.082277	7.37048e+06	-49339.1	1005.82	-29759.4	0.000000	0.000000	6.082768	-0.048926	NaN	0.000000	0.001635	0.001657	28.0818	0.049955	0.002060	24.2536	-31.2808	-166.281	-0.036431	0.081042	-0.938091	-0.939325	-0.048926	24.2536	-0.936578	-3.169310E+12	1.543734E-14	NaN
555	1.000000	0.090267	7.37048e+06	-49339.1	1005.82	-29759.4	0.000000	0.000000	6.090760	0.006738	NaN	0.000000	0.001604	0.001650	28.082	0.036267	0.001970	18.4055	-24.6226	-167.077	-0.064167	0.088930	-0.930101	-0.931437	0.006738	18.4055	-0.930375	-2.613755E+12	-2.577865E-15	NaN
555	1.000000	0.098278	7.37048e+06	-49339.1	1005.82	-29759.4	0.000000	0.000000	6.098769	-0.047776	NaN	0.000000	0.001634	0.001659	28.0818	0.033052	0.001927	17.1476	107.338	-165.29	-0.075249	0.096955	-0.922090	-0.923412	-0.047776	17.1476	-0.920000	-1.893261E+12	2.523472E-14	NaN
555	1.000000	0.106299	7.37048e+06	-49339.1	1005.82	-29759.4	0.000000	0.000000	6.106792	-0.012689	NaN	0.000000	0.001635	0.001668	28.0806	0.029318	0.001973	14.861	136.504	-167.671	0.077991	0.104975	-0.914069	-0.915392	-0.012689	14.861	-0.913428	-1.543353E+12	8.221391E-15	NaN
555	1.000000	0.114265	7.37048e+06	-49339.1	1005.82	-29759.4	0.000000	0.000000	6.114759	0.017900	NaN	0.000000	0.001626	0.001642	28.0809	0.048486	0.002077	23.3397	-9.489033	-166.386	0.037639	0.112977	-0.906103	-0.907391	0.017900	23.3397	-0.906678	-1.251083E+12	-1.430770E-14	NaN
555	1.000000	0.122316	7.37048e+06	-49339.1	1005.82	-29759.4	0.000000	0.000000	6.122810	0.025350	NaN	0.000000	0.001602	0.001676	28.0806	0.078610	0.002042	38.5043	-177.921	-165.582	-0.003233	0.120946	-0.898052	-0.899421	0.025350	38.5043	-0.898546	-9.714342E+11	-2.609582E-14	NaN
555	1.000000	0.130294	7.37048e+06	-49339.1	1005.82	-29759.4	0.000000	0.000000	6.130787	0.007196	NaN	0.000000	0.001579	0.001731	28.0809	0.092951	0.002174	42.7585	88.944	-165.363	-0.036349	0.128953	-0.890074	-0.891415	0.007196	42.7585	-0.890200	-7.492370E+11	-9.604251E-15	NaN
555	1.000000	0.138272	7.37048e+06	-49339.1	1005.82	-29759.4	0.000000	0.000000	6.138768	0.065260	NaN	0.000000	0.001575	0.001705	28.0806	0.029705	0.002103	14.124	-104.722	-166.076	0.106963	0.136959	-0.882095	-0.883408	0.065260	14.124	-0.885561	-6.484863E+11	-1.006345E-13	NaN
555	1.000000	0.146300	7.37048e+06	-49339.1	1005.82	-29759.4	0.000000	0.000000	6.146792	-0.016343	NaN	0.000000	0.001576	0.001712	28.0805	0.025909	0.001999	12.9614	-136.733	-167.71	-0.038864	0.144964	-0.874068	-0.875404	-0.016343	12.9614	-0.873123	-4.402370E+11	3.712336E-14	NaN
555	1.000000	0.154304	7.37048e+06	-49339.1	1005.82	-29759.4	0.000000	0.000000	6.154799	0.034181	NaN	0.000000	0.001608	0.001706	28.0804	0.011398	0.001939	5.877670	-1.398902	-164.76	-0.015976	0.153007	-0.866064	-0.867360	0.034181	5.877670	-0.870425	-4.047600E+11	-8.444866E-14	NaN
555	1.000000	0.162286	7.37048e+06	-49339.1	1005.82	-29759.4	0.000000	0.000000	6.162779	-0.012810	NaN	0.000000	0.001607	0.001683	28.0806	0.050349	0.001991	25.2903	-59.909	-167.615	-0.041063	0.161031	-0.858082	-0.859336	-0.012810	25.2903	-0.857702	-2.722792E+11	4.704546E-14	NaN
555	1.000000	0.170294	7.37048e+06	-49339.1	1005.82	-29759.4	0.000000	0.000000	6.170785	-0.041868	NaN	0.000000	0.001571	0.001700	28.0807	0.111419	0.002020	55.1564	76.7297	-167.071	-0.112453	0.168999	-0.850074	-0.851368	-0.041868	55.1564	-0.849505	-2.108791E+11	1.985403E-13	NaN
555	1.000000	0.178305	7.37048e+06	-49339.1	1005.82	-29759.4	0.000000	0.000000	6.178799	0.005039	NaN	0.000000	0.001561	0.001675	28.0808	0.047707	0.001990	23.9715	-22.308	-167.501	0.015137	0.176979	-0.842062	-0.843389	0.005039	23.9715	-0.842220	-1.680227E+11	-2.998807E-14	NaN
555	1.000000	0.186299	7.37048e+06	-49339.1	1005.82	-29759.4	0.000000	0.000000	6.186794	0.031137	NaN	0.000000	0.001580	0.001659	28.0809	0.127874	0.001919	66.6288	-77.0025	-165.715	-0.005788	0.184992	-0.834068	-0.835376	0.031137	66.6288	-0.834419	-1.317261E+11	-2.363767E-13	NaN
555	1.000000	0.194338	7.37048e+06	-49339.1	1005.82	-29759.4	0.000000	0.000000	6.194831	0.013954	NaN	0.000000	0.001543	0.001686	28.0806	0.077732	0.002067	37.5982	11.3275	-167.321	-0.052657	0.192984	-0.826030	-0.827384	0.013954	37.5982	-0.826308	-1.022692E+11	-1.364407E-13	NaN
555	1.000000	0.202322	7.37048e+06	-49339.1	1005.82	-29759.4	0.000000	0.000000	6.202815	0.006048	NaN	0.000000	0.001523	0.001695	28.0807	0.097303	0.001950	49.9116	-125.283	-167.447	0.009568	0.201010	-0.818046	-0.819358	0.006048	49.9116	-0.818137	-7.924075E+10	-7.632924E-14	NaN
555	1.000000	0.210307	7.37048e+06	-49339.1	1005.82	-29759.4	0.000000	0.000000	6.210799	-0.008987	NaN	0.000000	0.001559	0.001702	28.0807	0.110772	0.001936	57.2306	42.7197	-166.115	-0.010017	0.209013	-0.810061	-0.811354	-0.008987	57.2306	-0.809943	-6.134832E+10	1.464909E-13	NaN
555	1.000000	0.218322	7.37048e+06	-49339.1	1005.82	-29759.4	0.000000	0.000000	6.218817	0.044836	NaN	0.000000	0.001567	0.001681	28.0808	0.038229	0.001938	19.7248	-139.894	-164.196	0.072661	0.216965	-0.802045	-0.803403	0.044836	19.7248	-0.803750	-5.055507E+10	-8.868710E-13	NaN
555	1.000000	0.226345	7.37048e+06	-49339.1	1005.82	-29759.4	0.000000	0.000000	6.226838	0.006335	NaN	0.000000	0.001521	0.001694	28.0808	0.026317	0.001968	13.3743	-78.8598	-165.769	0.052269	0.225028	-0.794023	-0.795339	0.006335	13.3743	-0.794378	-3.771687E+10	-1.679715E-13	NaN
555	1.000000	0.234324	7.37048e+06	-49339.1	1005.82	-29759.4	0.000000	0.000000	6.234817	-0.013294	NaN	0.000000	0.001548	0.001675	28.0805	0.112632	0.001982	56.8136	31.1135	-165.426	-0.068790	0.233017	-0.786044	-0.787350	-0.013294	56.8136	-0.785868	-2.890426E+10	4.599395E-13	NaN
555	1.000000	0.242322	7.37048e+06	-49339.1	1005.82	-29759.4	0.000000	0.000000	6.242816	0.036186	NaN	0.000000	0.001546	0.001667	28.082	0.028842	0.002079	13.8701	149.897	-166.312	-0.031453	0.241016	-0.778046	-0.779351	0.036186	13.8701	-0.780003	-2.405847E+10	-1.504085E-12	NaN
555	1.000000	0.250324	7.37048e+06	-49339.1	1005.82	-29759.4	0.000000	0.000000	6.250815	-0.042259	NaN	0.000000	0.001574	0.001699	28.0818	0.060081	0.001980	30.3366	46.43	-167.749	0.015216	0.249039	-0.770044	-0.771328	-0.042259	30.3366	-0.768999	-1.704898E+10	2.478689E-12	NaN
555	1.000000	0.258330	7.37048e+06	-49339.1	1005.82	-29759.4	0.000000	0.000000	6.258822	-0.019497	NaN	0.000000	0.001567	0.001691	28.0819	0.030304	0.002036	14.8867	-58.3267	-165.366	0.022168	0.256991	-0.762038	-0.763377	-0.019497	14.8867	-0.761056	-1.329424E+10	1.466598E-12	NaN
555	1.000000	0.266346	7.37048e+06	-49339.1	1005.82	-29759.4	0.000000	0.000000	6.266840	0.010103	NaN	0.000000	0.001568	0.001659	28.0821	0.057117	0.001995	28.6322	78.2824	-167.979	0.032611	0.265041	-0.754022	-0.755327	0.010103	28.6322	-0.754286	-1.075375E+10	-9.394708E-13	NaN
555	1.000000	0.274357	7.37048e+06	-49339.1	1005.82	-29759.4	0.000000	0.000000	6.274851	0.026571	NaN	0.000000	0.001555	0.001673	28.0817	0.079463	0.001975	40.2251	46.4711	-166.241	0.039135	0.272986	-0.746011	-0.747382	0.026571	40.2251	-0.746506	-8.426643E+9	-3.153176E-12	NaN
555	1.000000	0.282335	7.37048e+06	-49339.1	1005.82	-29759.4	0.000000	0.000000	6.282829	0.027176	NaN	0.000000	0.001566	0.001692	28.0819	0.103320	0.002132	48.4602	-21.9946	-164.251	-0.002101	0.281057	-0.738033	-0.739311	0.027176	48.4602	-0.738454	-6.546271E+9	-4.151297E-12	NaN
555	1.000000	0.290364	7.37048e+06	-49339.1	1005.82	-29759.4	0.000000	0.000000	6.290859	0.043688	NaN	0.000000	0.001587	0.001683	28.0816	0.024590	0.002090	11.7635	-62.5636	-166.175	0.148842	0.289069	-0.730003	-0.731299	0.043688	11.7635	-0.732789	-5.480424E+9	-7.971729E-12	NaN
555	1.000000	0.298345	7.37048e+06	-49339.1	1005.82	-29759.4	0.000000	0.000000	6.298834	-0.080212	NaN	0.000000	0.001585	0.001637	28.0819	0.047760	0.001941	24.6107	-94.5683	-164.769	-0.005501	0.297047	-0.722023	-0.723321	-0.080212	24.6107	-0.719579	-3.620171E+9	2.215707E-11	NaN
555	1.000000	0.306339	7.37048e+06	-49339.1	1005.82	-29759.4	0.000000	0.000000	6.306829	-0.066846	NaN	0.000000	0.001580	0.001649	28.0818	0.095540	0.002009	47.5484	-94.7958	-166.78	-0.151359	0.305069	-0.714029	-0.715299	-0.066846	47.5484	-0.712974	-2.941957E+9	2.272173E-11	NaN
555	1.000000	0.314363	7.37048e+06	-49339.1	1005.82	-29759.4	0.000000	0.000000	6.314857	0.038908	NaN	0.000000	0.001598	0.001680	28.0817	0.070043	0.002062	33.9665	89.1875	-167.168	0.005913	0.313102	-0.706005	-0.707265	0.038908	33.9665	-0.706864	-2.428001E+9	-1.602456E-11	NaN
555	1.000000	0.322395	7.37048e+06	-49339.1	1005.82	-29759.4	0.000000	0.000000	6.322886	-0.042455	NaN	0.000000	0.001607	0.001697	28.082	0.116954	0.001969	59.4012	47.6369	-166.121	-0.052341	0.321030	-0.697973	-0.699337	-0.042455	59.4012	-0.697437	-1.805200E+9	2.351831E-11	NaN
555	1.000000	0.330341	7.37048e+06	-49339.1	1005.82	-29759.4	0.000000	0.000000	6.330833	-0.025784	NaN	0.000000	0.001584	0.001646	28.0816	0.029500	0.001894	15.5748	16.3168	-166.901	-0.034876	0.329060	-0.690026	-0.691308	-0.025784	15.5748	-0.688785	-1.375021E+9	1.875163E-11	NaN
555	1.000000	0.338362	7.37048e+06	-49339.1	1005.82	-29759.4	0.000000	0.000000	6.338854	-0.015365	NaN	0.000000	0.001566	0.001641	28.0818	0.025276	0.002012	12.5611	166.693	-166.625	-0.069578	0.337079	-0.682006	-0.683289	-0.015365	12.5611	-0.681089	-1.079179E+9	1.423742E-11	NaN
555	1.000000	0.346358	7.37048e+06	-49339.1	1005.82	-29759.4	0.000000	0.000000	6.346851	-0.015737	NaN	0.000000	0.001598	0.001677	28.0816	0.019206	0.002009	9.557687	-179.457	-166.304	0.003665	0.345046	-0.674009	-0.675321	-0.015737	9.557687	-0.672774	-8.305355E+8	1.894860E-11	NaN
555	1.000000	0.354386	7.37048e+06	-49339.1	1005.82	-29759.4	0.000000	0.000000	6.354877	-0.061547	NaN	0.000000	0.001606	0.001668	28.0817	0.010489	0.002037	5.149158	-154.02	-166.958	-0.001369	0.353081	-0.665982	-0.667287	-0.061547	5.149158	-0.657017	-5.053636E+8	1.217881E-10	NaN
555	1.000000	0.362362	7.37048e+06	-49339.1	1005.82	-29759.4	0.000000	0.000000	6.362854	-0.033158	NaN	0.000000	0.001625	0.001668	28.0819	0.067547	0.001956	34.5272	131.674	-165.136	-0.056186	0.361123	-0.658006	-0.659245	-0.033158	34.5272	-0.657286	-5.096657E+8	6.505886E-11	NaN
555	1.000000	0.370395	7.37048e+06	-49339.1	1005.82	-29759.4	0.000000	0.000000	6.370887	-0.008534	NaN	0.000000	0.001627	0.001638	28.0817	0.098923	0.002011	49.1829	172.365	-166.786	-0.047890	0.369063	-0.649973	-0.651305	-0.008534	49.1829	-0.649843	-4.029818E+8	2.117820E-11	NaN
555	1.000000	0.378396	7.37048e+06	-49339.1	1005.82	-29759.4	0.000000	0.000000	6.378889	-0.000319	NaN	0.000000	0.001605	0.001667	28.0804	0.081519	0.001934	42.155	-69.5021	-168.518	0.037185	0.377101	-0.641972	-0.643266	-0.000319	42.155	-0.641966	-3.142416E+8	1.014462E-12	NaN
555	1.000000	0.386401	7.37048e+06	-49339.1	1005.82	-29759.4	0.000000	0.000000	6.386895	0.024586	NaN	0.000000	0.001613	0.001659	28.0804	0.076454	0.001903	40.1769	40.0913	-166.788	0.043784	0.385090	-0.633966	-0.635278	0.024586	40.1769	-0.634425	-2.476190E+8	-9.929110E-11	NaN
555	1.000000	0.394411	7.37048e+06	-49339.1	1005.82	-29759.4	0.000000	0.000000	6.394903	-0.025522	NaN	0.000000	0.001580	0.001703	28.0805	0.013906	0.001982	7.017541	7.643788	-165.577	-0.069744	0.393101	-0.625956	-0.627267	-0.025522	7.017541	-0.623229	-1.737833E+8	1.468596E-10	NaN
555	1.000000	0.402381	7.37048e+06	-49339.1	1005.82	-29759.4	0.000000	0.000000	6.402874	-0.012296	NaN	0.000000	0.001599	0.001701	28.0806	0.042989	0.001892	22.7232	87.1139	-168.322	-0.004353	0.401074	-0.617987	-0.619294	-0.012296	22.7232	-0.617581	-1.453381E+8	8.460517E-11	NaN
555	1.000000	0.410410	7.37048e+06	-49339.1	1005.82	-29759.4	0.000000	0.000000	6.410902	-0.015517	NaN	0.000000	0.001580	0.001726	28.0804	0.128882	0.002025	63.6393	-50.8925	-164.705	0.034771	0.409102	-0.609958	-0.611266	-0.015517	63.6393	-0.609775	-1.135060E+8	1.367098E-10	NaN
555	1.000000	0.418404	7.37048e+06	-49339.1	1005.82	-29759.4	0.000000	0.000000	6.418898	0.020507	NaN	0.000000	0.001584	0.001701	28.0806	0.039096	0.002137	18.2965	-127.491	-167.75	0.105446	0.417122	-0.601964	-0.603245	0.020507	18.2965	-0.602805	-9.100815E+7	-2.253290E-10	NaN
555	1.000000	0.426429	7.37048e+06	-49339.1	1005.82	-29759.4	0.000000	0.000000	6.426923	0.026934	NaN	0.000000	0.001654	0.001726	28.0806	0.094525	0.002041	46.3205	-100.859	-165.773	0.000241	0.425074	-0.593939	-0.595294	0.026934	46.3205	-0.594375	-6.965692E+7	-3.866607E-10	NaN
555	1.000000	0.434426	7.37048e+06	-49339.1	1005.82	-29759.4	0.000000	0.000000	6.434920	0.030459	NaN	0.000000	0.001613	0.001725	28.0812	0.031746	0.001907	16.6452	-139.905	-168.746	0.036468	0.433100	-0.585942	-0.587267	0.030459	16.6452	-0.587315	-5.567224E+7	-5.471043E-10	NaN
555	1.000000	0.442432	7.37048e+06	-49339.1	1005.82	-29759.4	0.000000	0.000000	6.442924	-0.011946	NaN	0.000000	0.001582	0.001720	28.0805	0.074034	0.001990	37.194	60.9585	-167.603	-0.043672	0.441091	-0.577936	-0.579277	-0.011946	37.194	-0.577695	-4.101202E+7	2.912889E-10	NaN
555	1.000000	0.450407	7.37048e+06	-49339.1	1005.82	-29759.4	0.000000	0.000000	6.450900	-0.007061	NaN	0.000000	0.001588	0.001731	28.0807	0.050715	0.001933	26.2379	-127.35	-165.368	-0.018059	0.449152	-0.569961	-0.571215	-0.007061	26.2379	-0.569759	-3.186417E+7	2.216039E-10	NaN
555	1.000000	0.458419	7.37048e+06	-49339.1	1005.82	-29759.4	0.000000	0.000000	6.458911	-0.029761	NaN	0.000000	0.001575	0.001703	28.0807	0.060987	0.001903	32.0435	153.098	-166.218	0.014996	0.457065	-0.561949	-0.563302	-0.029761	32.0435	-0.561252	-2.430507E+7	1.224468E-9	NaN
555	1.000000	0.466445	7.37048e+06	-49339.1	1005.82	-29759.4	0.000000	0.000000	6.466939	0.009836	NaN	0.000000	0.001576	0.001708	28.0806	0.029252	0.001989	14.704	-16.9297	-164.54	0.001122	0.465109	-0.553922	-0.555259	0.009836	14.704	-0.554424	-1.955308E+7	-5.030230E-10	NaN
555	1.000000	0.474425	7.37048e+06	-49339.1	1005.82	-29759.4	0.000000	0.000000	6.474914	-0.082464	NaN	0.000000	0.001609	0.001702	28.0805	0.138606	0.002126	65.1879	-19.2771	-165.366	0.013067	0.473118	-0.545943	-0.547250	-0.082464	65.1879	-0.544994	-1.447448E+7	5.697225E-9	NaN
555	1.000000	0.482418	7.37048e+06	-49339.1	1005.82	-29759.4	0.000000	0.000000	6.482912	0.023171	NaN	0.000000	0.001571	0.001693	28.0804	0.035309	0.001900	18.5841	-60.584	-166.725	-0.002339	0.481102	-0.537950	-0.539266	0.023171	18.5841	-0.538885	-1.190947E+7	-1.945558E-9	NaN
555	1.000000	0.490413	7.37048e+06	-49339.1	1005.82	-29759.4	0.000000	0.000000	6.490908	0.047890	NaN	0.000000	0.001547	0.001724	28.0807	0.024715	0.001957	12.6311	-94.1478	-164.801	0.027292	0.489170	-0.529955	-0.531198	0.047890	12.6311	-0.532799	-9.80474e+06	-4.884376E-9	NaN
555	1.000000	0.498460	7.37048e+06	-49339.1	1005.82	-29759.4	0.000000	0.000000	6.498953	-0.015716	NaN	0.000000	0.001582	0.001675	28.0805	0.019509	0.001921	10.156	59.729	-165.026	-0.032231	0.497137	-0.521907	-0.523230	-0.015716	10.156	-0.520747	-6.66781e+06	2.356978E-9	NaN
555	1.000000	0.506460	7.37048e+06	-49339.1	1005.82	-29759.4	0.000000	0.000000	6.506952	-0.016704	NaN	0.000000	0.001562	0.001733	28.0808	0.118961	0.001953	60.9	-175.235	-165.945	-0.061792	0.505179	-0.513908	-0.515189	-0.016704	60.9	-0.513702	-5.32073e+06	3.139473E-9	NaN
555	1.000000	0.514441	7.37048e+06	-49339.1	1005.82	-29759.4	0.000000	0.000000	6.514933	-0.027518	NaN	0.000000	0.001561	0.001745	28.0816	0.037646	0.001970	19.1125	173.713	-163.621	0.010949	0.513137	-0.505926	-0.507231	-0.027518	19.1125	-0.504847	-4.00502e+06	6.870949E-9	NaN
555	1.000000	0.522488	7.37048e+06	-49339.1	1005.82	-29759.4	0.000000	0.000000	6.522981	-0.015229	NaN	0.000000	0.001550	0.001724	28.0817	0.081218	0.001964	41.3578	-24.0699	-167.914	0.011199	0.521085	-0.497879	-0.499283	-0.015229	41.3578	-0.497603	-3.17376e+06	4.798299E-9	NaN
555	1.000000	0.530443	7.37048e+06	-49339.1	1005.82	-29759.4	0.000000	0.000000	6.530935	-0.018056	NaN	0.000000	0.001530	0.001749	28.0821	0.021610	0.002004	10.7823	-85.3224	-168.673	-0.007366	0.529156	-0.489925	-0.491212	-0.018056	10.7823	-0.488669	-2.38118e+06	7.582642E-9	NaN
555	1.000000	0.538462	7.37048e+06	-49339.1	1005.82	-29759.4	0.000000	0.000000	6.538955	0.012192	NaN	0.000000	0.001525	0.001719	28.0819	0.100019	0.001940	51.545	70.3158	-167.604	0.038276	0.537194	-0.481906	-0.483174	0.012192	51.545	-0.482083	-1.92614e+06	-6.329814E-9	NaN
555	1.000000	0.546471	7.37048e+06	-49339.1	1005.82	-29759.4	0.000000	0.000000	6.546963	-0.017331	NaN	0.000000	0.001528	0.001717	28.0835	0.127251	0.002037	62.4659	-173.648	-166.837	-0.049930	0.545173	-0.473897	-0.475195	-0.017331	62.4659	-0.473689	-1.46936e+06	1.179459E-8	NaN
555	1.000000	0.554452	7.37048e+06	-49339.1	1005.82	-29759.4	0.000000	0.000000	6.554947	0.039398	NaN	0.000000	0.001559	0.001733	28.082	0.048899	0.002013	24.2881	-38.6796	-166.853	-0.008784	0.553141	-0.465916	-0.467226	0.039398	24.2881	-0.467132	-1.18899e+06	-3.313536E-8	NaN
555	1.000000	0.562481	7.37048e+06	-49339.1	1005.82	-29759.4	0.000000	0.000000	6.562974	0.010311	NaN	0.000000	0.001564	0.001695	28.0817	0.017599	0.001964	8.959475	-63.8894	-166.454	-0.005673	0.561154	-0.457887	-0.459214	0.010311	8.959475	-0.458750	-906682	-1.137242E-8	NaN
555	1.000000	0.570481	7.37048e+06	-49339.1	1005.82	-29759.4	0.000000	0.000000	6.570971	-0.056062	NaN	0.000000	0.001556	0.001661	28.0819	0.053246	0.002048	25.9935	-129.674	-166.51	0.064455	0.569173	-0.449887	-0.451195	-0.056062	25.9935	-0.448270	-645609	8.683643E-8	NaN
555	1.000000	0.578450	7.37048e+06	-49339.1	1005.82	-29759.4	0.000000	0.000000	6.578941	-0.064456	NaN	0.000000	0.001540	0.001712	28.0817	0.094770	0.002139	44.3143	-174.704	-164.257	0.032542	0.577188	-0.441918	-0.443180	-0.064456	44.3143	-0.440827	-507027	1.271261E-7	NaN
555	1.000000	0.586483	7.37048e+06	-49339.1	1005.82	-29759.4	0.000000	0.000000	6.586974	-0.038031	NaN	0.000000	0.001580	0.001700	28.0819	0.136031	0.001933	70.3805	46.0109	-164.372	-0.020291	0.585144	-0.433885	-0.435224	-0.038031	70.3805	-0.433480	-399274	9.525060E-8	NaN
555	1.000000	0.594479	7.37048e+06	-49339.1	1005.82	-29759.4	0.000000	0.000000	6.594971	-0.026713	NaN	0.000000	0.001581	0.001695	28.0818	0.045295	0.001913	23.6756	-6.905574	-166.088	-0.036600	0.593142	-0.425889	-0.427226	-0.026713	23.6756	-0.425042	-303307	8.807200E-8	NaN
555	1.000000	0.602494	7.37048e+06	-49339.1	1005.82	-29759.4	0.000000	0.000000	6.602988	0.032539	NaN	0.000000	0.001534	0.001708	28.0819	0.089564	0.001942	46.1291	160.581	-168.404	0.008386	0.601220	-0.417874	-0.419147	0.032539	46.1291	-0.418403	-244210	-1.332422E-7	NaN
555	1.000000	0.610519	7.37048e+06	-49339.1	1005.82	-29759.4	0.000000	0.000000	6.611010	-0.046758	NaN	0.000000	0.001532	0.001694	28.0819	0.050038	0.001997	25.0572	39.961	-168.924	-0.051255	0.609207	-0.409849	-0.411161	-0.046758	25.0572	-0.408450	-176339	2.651631E-7	NaN
555	1.000000	0.618521	7.37048e+06	-49339.1	1005.82	-29759.4	0.000000	0.000000	6.619013	-0.030039	NaN	0.000000	0.001524	0.001722	28.0816	0.101222	0.002049	49.399	-134.249	-166.995	0.028787	0.617149	-0.401847	-0.403219	-0.030039	49.399	-0.401391	-139903	2.147167E-7	NaN
555	1.000000	0.626498	7.37048e+06	-49339.1	1005.82	-29759.4	0.000000	0.000000	6.626992	0.036729	NaN	0.000000	0.001543	0.001712	28.0817	0.088341	0.002115	41.7752	78.7209	-170.789	-0.017792	0.625158	-0.393870	-0.395209	0.036729	41.7752	-0.394529	-111664	-3.289216E-7	NaN
555	1.000000	0.634518	7.37048e+06	-49339.1	1005.82	-29759.4	0.000000	0.000000	6.635010	-0.016650	NaN	0.000000	0.001519	0.001676	28.0816	0.046849	0.001980	23.6634	92.8302	-168.635	0.000766	0.633202	-0.385850	-0.387165	-0.016650	23.6634	-0.385322	-82452.1	2.019367E-7	NaN
555	1.000000	0.642505	7.37048e+06	-49339.1	1005.82	-29759.4	0.000000	0.000000	6.642997	-0.005675	NaN	0.000000	0.001543	0.001678	28.0817	0.086886	0.002049	42.4103	-153.763	-169.854	0.005826	0.641235	-0.377863	-0.379132	-0.005675	42.4103	-0.377763	-64234.8	8.835366E-8	NaN
555	1.000000	0.650486	7.37048e+06	-49339.1	1005.82	-29759.4	0.000000	0.000000	6.650977	-0.048542	NaN	0.000000	0.001562	0.001684	28.0808	0.110461	0.002101	52.5707	-142.788	-167.397	-0.028528	0.649162	-0.369882	-0.371206	-0.048542	52.5707	-0.369189	-48355.6	1.003846E-6	NaN
555	1.000000	0.658529	7.37048e+06	-49339.1	1005.82	-29759.4	0.000000	0.000000	6.659022	-0.005843	NaN	0.000000	0.001582	0.001700	28.0805	0.074088	0.001884	39.3211	-159.788	-164.039	0.052513	0.657228	-0.361839	-0.363139	-0.005843	39.3211	-0.361728	-37740.6	1.548184E-7	NaN
555	1.000000	0.666488	7.37048e+06	-49339.1	1005.82	-29759.4	0.000000	0.000000	6.666981	-0.007309	NaN	0.000000	0.001557	0.001675	28.0807	0.053069	0.002160	24.5726	29.7266	-164.628	-0.023265	0.665173	-0.353880	-0.355195	-0.007309	24.5726	-0.353657	-28842.9	2.533927E-7	NaN
555	1.000000	0.674524	7.37048e+06	-49339.1	1005.82	-29759.4	0.000000	0.000000	6.675019	0.056835	NaN	0.000000	0.001582	0.001690	28.0805	0.173272	0.002050	84.5404	69.518	-167.291	0.005573	0.673223	-0.345844	-0.347145	0.056835	84.5404	-0.346348	-22592.3	-2.515697E-6	NaN
555	1.000000	0.682528	7.37048e+06	-49339.1	1005.82	-29759.4	0.000000	0.000000	6.683020	-0.029785	NaN	0.000000	0.001546	0.001706	28.0802	0.078903	0.002035	38.7737	59.3554	-169.771	-0.083699	0.681199	-0.337840	-0.339169	-0.029785	38.7737	-0.337264	-16658.9	1.787935E-6	NaN
555	1.000000	0.690526	7.37048e+06	-49339.1	1005.82	-29759.4	0.000000	0.000000	6.691018	-0.025359	NaN	0.000000	0.001693	0.001701	28.0806	0.019051	0.001959	9.724174	-38.4241	-167.632	0.013006	0.689248	-0.329842	-0.331120	-0.025359	9.724174	-0.327886	-12147.2	2.087614E-6	NaN
555	1.000000	0.698523	7.37048e+06	-49339.1	1005.82	-29759.4	0.000000	0.000000	6.699014	-0.058975	NaN	0.000000	0.001566	0.001702	28.0802	0.042594	0.001988	21.4307	170.132	-166.808	-0.104717	0.697232	-0.321845	-0.323136	-0.058975	21.4307	-0.319781	-9234.44	6.386409E-6	NaN
555	1.000000	0.706520	7.37048e+06	-49339.1	1005.82	-29759.4	0.000000	0.000000	6.707012	-0.029795	NaN	0.000000	0.001568	0.001643	28.0803	0.141476	0.002047	69.1014	80.4404	-163.758	0.011329	0.705264	-0.313848	-0.315104	-0.029795	69.1014	-0.313524	-7467.28	3.990063E-6	NaN
555	1.000000	0.714536	7.37048e+06	-49339.1	1005.82	-29759.4	0.000000	0.000000	6.715029	-0.000625	NaN	0.000000	0.001585	0.001645	28.0804	0.143894	0.001993	72.1872	-45.4321	-167.836	-0.058771	0.713200	-0.305832	-0.307168	-0.000625	72.1872	-0.305825	-5743.81	1.088603E-7	NaN
555	1.000000	0.722526	7.37048e+06	-49339.1	1005.82	-29759.4	0.000000	0.000000	6.723019	0.000299	NaN	0.000000	0.001570	0.001674	28.0804	0.053629	0.001997	26.8565	-86.4645	-166.65	0.047581	0.721261	-0.297842	-0.299107	0.000299	26.8565	-0.297851	-4371.36	-6.834889E-8	NaN
555	1.000000	0.730524	7.37048e+06	-49339.1	1005.82	-29759.4	0.000000	0.000000	6.731015	-0.063411	NaN	0.000000	0.001596	0.001665	28.0802	0.041221	0.002016	20.4509	98.3733	-168.01	-0.124786	0.729250	-0.289843	-0.291118	-0.063411	20.4509	-0.287518	-3062.57	2.070521E-5	NaN
555	1.000000	0.738530	7.37048e+06	-49339.1	1005.82	-29759.4	0.000000	0.000000	6.739022	-0.020882	NaN	0.000000	0.001584	0.001714	28.0807	0.074168	0.001882	39.4186	-47.2049	-165.313	-0.046899	0.737246	-0.281838	-0.283122	-0.020882	39.4186	-0.281440	-2481.35	8.415760E-6	NaN
555	1.000000	0.746566	7.37048e+06	-49339.1	1005.82	-29759.4	0.000000	0.000000	6.747059	-0.004070	NaN	0.000000	0.001582	0.001675	28.0807	0.027125	0.002096	12.9399	-10.0572	-163.618	-0.063294	0.745254	-0.273801	-0.275114	-0.004070	12.9399	-0.273566	-1886.55	2.157296E-6	NaN
555	1.000000	0.754546	7.37048e+06	-49339.1	1005.82	-29759.4	0.000000	0.000000	6.755039	-0.016756	NaN	0.000000	0.001565	0.001676	28.0807	0.070753	0.001952	36.2444	-129.773	-167.28	0.001892	0.753243	-0.265822	-0.267125	-0.016756	36.2444	-0.265475	-1421.13	1.179028E-5	NaN
555	1.000000	0.762549	7.37048e+06	-49339.1	1005.82	-29759.4	0.000000	0.000000	6.763043	0.032326	NaN	0.000000	0.001570	0.001666	28.0804	0.046355	0.001987	23.3306	-47.185	-170.569	0.033456	0.761250	-0.257819	-0.259118	0.032326	23.3306	-0.258858	-1125.67	-2.871724E-5	NaN
555	1.000000	0.770549	7.37048e+06	-49339.1	1005.82	-29759.4	0.000000	0.000000	6.771043	0.032659	NaN	0.000000	0.001539	0.001672	28.0805	0.032187	0.002052	15.6861	155.833	-164.765	-0.035624	0.769281	-0.249819	-0.251087	0.032659	15.6861	-0.251381	-863.588	-3.781830E-5	NaN
555	1.000000	0.778586	7.37048e+06	-49339.1	1005.82	-29759.4	0.000000	0.000000	6.779079	-0.005452	NaN	0.000000	0.001594	0.001681	28.0807	0.009343	0.002164	4.316746	125.491	-164.988	0.040505	0.777280	-0.241782	-0.243088	-0.005452	4.316746	-0.240834	-592.354	9.204281E-6	NaN
555	1.000000	0.786572	7.37048e+06	-49339.1	1005.82	-29759.4	0.000000	0.000000	6.787065	-0.004659	NaN	0.000000	0.001617	0.001672	28.0818	0.086798	0.001939	44.7718	-146.22	-167.651	-0.005964	0.785286	-0.233796	-0.235081	-0.004659	44.7718	-0.233718	-458.251	1.016678E-5	NaN
555	1.000000	0.794607	7.37048e+06	-49339.1	1005.82	-29759.4	0.000000	0.000000	6.795097	-0.078986	NaN	0.000000	0.001599	0.001664	28.0822	0.050070	0.001919	26.0928	-66.5942	-164.157	-0.096322	0.793302	-0.225761	-0.227066	-0.078986	26.0928	-0.223490	-315.745	0.000250	NaN
555	1.000000	0.802580	7.37048e+06	-49339.1	1005.82	-29759.4	0.000000	0.000000	6.803072	-0.025173	NaN	0.000000	0.001600	0.001687	28.0818	0.019763	0.002015	9.809920	-12.3881	-166.169	0.102923	0.801286	-0.217788	-0.219082	-0.025173	9.809920	-0.215864	-238.45	0.000106	NaN
555	1.000000	0.810561	7.37048e+06	-49339.1	1005.82	-29759.4	0.000000	0.000000	6.811054	-0.014211	NaN	0.000000	0.001576	0.001692	28.0819	0.050954	0.001983	25.6955	135.135	-166.034	-0.042209	0.809254	-0.209807	-0.211114	-0.014211	25.6955	-0.209392	-187.485	7.579590E-5	NaN
555	1.000000	0.818562	7.37048e+06	-49339.1	1005.82	-29759.4	0.000000	0.000000	6.819054	-0.014613	NaN	0.000000	0.001564	0.001719	28.082	0.167596	0.002093	80.0649	126.859	-168.347	-0.031223	0.817258	-0.201806	-0.203110	-0.014613	80.0649	-0.201669	-140.313	0.000104	NaN
555	1.000000	0.826544	7.37048e+06	-49339.1	1005.82	-29759.4	0.000000	0.000000	6.827034	-0.081107	NaN	0.000000	0.001536	0.001677	28.0818	0.020752	0.002053	10.1061	-179.252	-163.876	-0.051556	0.825253	-0.193824	-0.195115	-0.081107	10.1061	-0.187805	-82.6579	0.000981	NaN
555	1.000000	0.834603	7.37048e+06	-49339.1	1005.82	-29759.4	0.000000	0.000000	6.835098	0.056105	NaN	0.000000	0.001550	0.001671	28.082	0.053880	0.001894	28.4526	108.718	-169.288	0.022133	0.833291	-0.185765	-0.187077	0.056105	28.4526	-0.187244	-80.8857	-0.000694	NaN
555	1.000000	0.842575	7.37048e+06	-49339.1	1005.82	-29759.4	0.000000	0.000000	6.843069	0.018309	NaN	0.000000	0.001558	0.001686	28.0819	0.112134	0.002035	55.1023	155.121	-169.236	-0.004810	0.841300	-0.177793	-0.179067	0.018309	55.1023	-0.178042	-56.5053	-0.000324	NaN
555	1.000000	0.850616	7.37048e+06	-49339.1	1005.82	-29759.4	0.000000	0.000000	6.851108	-0.027500	NaN	0.000000	0.001549	0.001670	28.0818	0.077684	0.002078	37.3817	-117.711	-164.514	-0.010810	0.849268	-0.169752	-0.171099	-0.027500	37.3817	-0.169200	-39.7843	0.000691	NaN
555	1.000000	0.858574	7.37048e+06	-49339.1	1005.82	-29759.4	0.000000	0.000000	6.859066	-0.027645	NaN	0.000000	0.001519	0.001677	28.0819	0.058499	0.001975	29.6231	32.6974	-162.289	0.054843	0.857264	-0.161794	-0.163104	-0.027645	29.6231	-0.161094	-28.6679	0.000964	NaN
555	1.000000	0.866620	7.37048e+06	-49339.1	1005.82	-29759.4	0.000000	0.000000	6.867116	0.050077	NaN	0.000000	0.001541	0.001634	28.0818	0.077901	0.001964	39.6733	2.246792	-165.46	0.022395	0.865309	-0.153747	-0.155059	0.050077	39.6733	-0.154694	-22.033	-0.002273	NaN
555	1.000000	0.874582	7.37048e+06	-49339.1	1005.82	-29759.4	0.000000	0.000000	6.875075	0.000607	NaN	0.000000	0.001616	0.001653	28.0817	0.045897	0.002057	22.3178	-108.131	-165.679	-0.059392	0.873274	-0.145786	-0.147093	0.000607	22.3178	-0.145807	-15.173	-3.999776E-5	NaN
555	1.000000	0.882599	7.37048e+06	-49339.1	1005.82	-29759.4	0.000000	0.000000	6.883089	-0.089801	NaN	0.000000	0.001552	0.001679	28.0819	0.070549	0.002004	35.1975	-129.362	-165.633	-0.081522	0.881298	-0.137768	-0.139069	-0.089801	35.1975	-0.135855	-9.876169	0.009093	NaN
555	1.000000	0.890607	7.37048e+06	-49339.1	1005.82	-29759.4	0.000000	0.000000	6.891098	-0.068196	NaN	0.000000	0.001533	0.001660	28.082	0.045331	0.002053	22.0789	178.188	-165.94	-0.059016	0.889298	-0.129760	-0.131070	-0.068196	22.0789	-0.127444	-6.794041	0.010038	NaN
555	1.000000	0.898629	7.37048e+06	-49339.1	1005.82	-29759.4	0.000000	0.000000	6.899123	0.025922	NaN	0.000000	0.001498	0.001673	28.0817	0.049534	0.002035	24.3459	162.715	-167.418	0.014440	0.897299	-0.121739	-0.123069	0.025922	24.3459	-0.122537	-5.432925	-0.004771	NaN
555	1.000000	0.906614	7.37048e+06	-49339.1	1005.82	-29759.4	0.000000	0.000000	6.907107	-0.001516	NaN	0.000000	0.001515	0.001660	28.0816	0.035398	0.002034	17.401	-2.073448	-166.002	-0.068419	0.905343	-0.113754	-0.115025	-0.001516	17.401	-0.113688	-3.589147	0.000422	NaN
555	1.000000	0.914614	7.37048e+06	-49339.1	1005.82	-29759.4	0.000000	0.000000	6.915105	-0.046470	NaN	0.000000	0.001498	0.001657	28.0817	0.023676	0.001994	11.8722	43.1787	-166.809	-0.025977	0.913303	-0.105754	-0.107065	-0.046470	11.8722	-0.102818	-2.107537	0.022050	NaN
555	1.000000	0.922610	7.37048e+06	-49339.1	1005.82	-29759.4	0.000000	0.000000	6.923104	0.029053	NaN	0.000000	0.001503	0.001709	28.0806	0.048588	0.001924	25.2545	-36.8847	-171.318	0.024084	0.921320	-0.097758	-0.099048	0.029053	25.2545	-0.098621	-1.702487	-0.017065	NaN
555	1.000000	0.930613	7.37048e+06	-49339.1	1005.82	-29759.4	0.000000	0.000000	6.931105	-0.023684	NaN	0.000000	0.001497	0.001751	28.0802	0.085663	0.001945	44.032	25.4372	-168.075	0.063468	0.929295	-0.089755	-0.091073	-0.023684	44.032	-0.089351	-1.043670	0.022693	NaN
555	1.000000	0.938639	7.37048e+06	-49339.1	1005.82	-29759.4	0.000000	0.000000	6.939133	0.019412	NaN	0.000000	0.001587	0.001738	28.0806	0.015345	0.002015	7.613782	119.718	-169.406	0.005179	0.937305	-0.081729	-0.083063	0.019412	7.613782	-0.083641	-0.761467	-0.025493	NaN
555	1.000000	0.946627	7.37048e+06	-49339.1	1005.82	-29759.4	0.000000	0.000000	6.947119	-0.028779	NaN	0.000000	0.001588	0.001751	28.0804	0.089479	0.001972	45.3719	150.273	-167.825	-0.053886	0.945340	-0.073741	-0.075028	-0.028779	45.3719	-0.073265	-0.416263	0.069136	NaN
555	1.000000	0.954623	7.37048e+06	-49339.1	1005.82	-29759.4	0.000000	0.000000	6.955116	-0.001588	NaN	0.000000	0.001562	0.001738	28.0802	0.095102	0.001878	50.6451	-179.624	-167.131	0.083914	0.953351	-0.065744	-0.067017	-0.001588	50.6451	-0.065721	-0.260930	0.006087	NaN
555	1.000000	0.962651	7.37048e+06	-49339.1	1005.82	-29759.4	0.000000	0.000000	6.963146	0.051094	NaN	0.000000	0.001587	0.001747	28.0807	0.134368	0.002021	66.4971	5.904426	-166.047	0.031502	0.961355	-0.057717	-0.059013	0.051094	66.4971	-0.058293	-0.160792	-0.317765	NaN
555	1.000000	0.970656	7.37048e+06	-49339.1	1005.82	-29759.4	0.000000	0.000000	6.971147	-0.054893	NaN	0.000000	0.001595	0.001742	28.0802	0.053117	0.002008	26.4559	36.9669	-164.227	-0.042650	0.969382	-0.049712	-0.050985	-0.054893	26.4559	-0.048155	-0.080220	0.684282	NaN
555	1.000000	0.978611	7.37048e+06	-49339.1	1005.82	-29759.4	0.000000	0.000000	6.979102	-0.053556	NaN	0.000000	0.001604	0.001758	28.0804	0.012991	0.002130	6.100116	8.361168	-166.308	0.019489	0.977321	-0.041757	-0.043046	-0.053556	6.100116	-0.035172	-0.032401	1.652924	NaN
555	1.000000	0.986640	7.37048e+06	-49339.1	1005.82	-29759.4	0.000000	0.000000	6.987134	0.006569	NaN	0.000000	0.001594	0.001755	28.0805	0.102591	0.001849	55.4821	-21.6296	-168.516	0.006280	0.985324	-0.033727	-0.035044	0.006569	55.4821	-0.033816	-0.029567	-0.222174	NaN
555	1.000000	0.994650	7.37048e+06	-49339.1	1005.82	-29759.4	0.000000	0.000000	6.995143	-0.002379	NaN	0.000000	0.001574	0.001754	28.0802	0.126800	0.001949	65.068	27.1347	-164.32	-0.005507	0.993366	-0.025718	-0.027002	-0.002379	65.068	-0.025691	-0.017589	0.135233	NaN
555	1.000000	1.002660	7.37048e+06	-49339.1	1005.82	-29759.4	0.000000	0.000000	7.003152	-0.015048	NaN	0.000000	0.001583	0.001770	28.0805	0.070426	0.002077	33.9103	60.5142	-166.376	-0.071930	1.001330	-0.017708	-0.019037	-0.015048	33.9103	-0.017375	-0.010752	1.399489	NaN
555	1.000000	1.010632	7.37048e+06	-49339.1	1005.82	-29759.4	0.000000	0.000000	7.011127	0.034365	NaN	0.000000	0.001570	0.001762	28.0802	0.079129	0.001998	39.6032	-97.4374	-167.912	0.012354	1.009377	-0.009736	-0.010991	0.034365	39.6032	-0.010387	-0.006608	-5.200384	NaN
555	1.000000	1.018662	7.37048e+06	-49339.1	1005.82	-29759.4	0.000000	0.000000	7.019157	0.058112	NaN	0.000000	0.001540	0.001716	28.0801	0.126013	0.001966	64.0989	1.809319	-165.542	-0.000294	1.017358	-0.001706	-0.003009	0.058112	64.0989	-0.002386	-0.001705	-34.0804	NaN
555	1.000000	1.026646	7.37048e+06	-49339.1	1005.82	-29759.4	0.000000	0.000000	7.027382	5.905791	NaN	0.000000	0.001574	0.001726	28.0803	6.210928	0.001830	3394.65	8.361104	-170.853	4.269022	1.025318	0.006279	0.004950	5.905791	3394.65	0.004974	0.004109	1437.11	48381
555	2.000000	1.030290	7.37048e+06	-49339.1	1005.82	-29759.4	0.000000	0.000000	7.031113	8.038091	NaN	0.000000	0.001567	0.001705	28.0802	8.642490	0.001645	5254.69	9.001604	-175.936	7.639537	1.029941	0.009922	0.009573	8.038091	5254.69	0.008775	0.007851	1023.81	54181.7
555	2.000000	1.032258	7.37048e+06	-49339.1	1005.82	-29759.4	0.000000	0.000000	7.033199	10.9018	NaN	0.000000	0.001571	0.001720	28.0805	10.8052	0.001764	6126.04	5.180248	-171.609	11.0944	1.032014	0.011890	0.011646	10.9018	6126.04	0.010556	0.009805	1111.82	56522.4
555	2.000000	1.034228	7.37048e+06	-49339.1	1005.82	-29759.4	0.000000	0.000000	7.035326	14.703	NaN	0.000000	0.001596	0.001727	28.08	12.6817	0.001779	7127.34	12.8588	-179.315	14.6234	1.033955	0.013860	0.013587	14.703	7127.34	0.012313	0.011867	1238.97	59776.1
555	2.000000	1.036265	7.37048e+06	-49339.1	1005.82	-29759.4	0.000000	0.000000	7.037517	18.4578	NaN	0.000000	0.001570	0.001731	28.0811	14.9838	0.001801	8319.89	8.318163	-178.283	18.4108	1.035991	0.015898	0.015623	18.4578	8319.89	0.014234	0.014277	1292.83	63616.8
555	2.000000	1.038260	7.37048e+06	-49339.1	1005.82	-29759.4	0.000000	0.000000	7.039670	22.2782	NaN	0.000000	0.001569	0.001729	28.0814	16.4045	0.001775	9240.39	8.906410	-177.744	22.3051	1.037937	0.017893	0.017570	22.2782	9240.39	0.016084	0.016759	1329.34	65214.2
555	2.000000	1.040204	7.37048e+06	-49339.1	1005.82	-29759.4	0.000000	0.000000	7.041725	24.9844	NaN	0.000000	0.001577	0.001735	28.0816	18.842	0.001834	10271.1	5.615126	-176.531	23.9092	1.039854	0.019837	0.019487	24.9844	10271.1	0.018012	0.019515	1280.3	67175.5
555	2.000000	1.042194	7.37048e+06	-49339.1	1005.82	-29759.4	0.000000	0.000000	7.043964	31.0414	NaN	0.000000	0.001619	0.001761	28.0813	20.6008	0.001588	12968.9	3.935300	-177.677	30.4733	1.041928	0.021826	0.021560	31.0414	12968.9	0.020031	0.022591	1374.04	78832.6
555	2.000000	1.044227	7.37048e+06	-49339.1	1005.82	-29759.4	0.000000	0.000000	7.046243	37.0491	NaN	0.000000	0.001572	0.001759	28.0813	22.292	0.001673	13321.1	5.115137	-179.696	36.862	1.043918	0.023859	0.023550	37.0491	13321.1	0.021773	0.025405	1458.32	76357.6
555	2.000000	1.046179	7.37048e+06	-49339.1	1005.82	-29759.4	0.000000	0.000000	7.048488	44.1608	NaN	0.000000	0.001550	0.001787	28.0817	25.0582	0.001783	14052	5.333681	-179.637	42.8524	1.045879	0.025811	0.025511	44.1608	14052	0.023454	0.028263	1562.48	76366.1
555	2.000000	1.048214	7.37048e+06	-49339.1	1005.82	-29759.4	0.000000	0.000000	7.050780	50.4176	NaN	0.000000	0.001534	0.001775	28.0813	26.9048	0.001715	15689.1	3.237800	-178.462	48.9344	1.047960	0.027846	0.027592	50.4176	15689.1	0.025436	0.031813	1584.81	80365.5
555	2.000000	1.050232	7.37048e+06	-49339.1	1005.82	-29759.4	0.000000	0.000000	7.052858	51.8679	NaN	0.000000	0.001567	0.001741	28.0815	28.8624	0.001781	16206.3	2.775807	-176.768	52.1084	1.049897	0.029864	0.029529	51.8679	16206.3	0.027464	0.035651	1454.86	78418.7
555	2.000000	1.052169	7.37048e+06	-49339.1	1005.82	-29759.4	0.000000	0.000000	7.054946	55.5555	NaN	0.000000	0.001526	0.001753	28.0817	31.4253	0.001797	17485.4	2.055620	-178.19	54.2984	1.051915	0.031801	0.031547	55.5555	17485.4	0.029418	0.039546	1404.84	80334
555	2.000000	1.054182	7.37048e+06	-49339.1	1005.82	-29759.4	0.000000	0.000000	7.057348	65.01	NaN	0.000000	0.001562	0.001703	28.0813	32.9159	0.001878	17529.8	4.787812	179.919	64.3497	1.053851	0.033814	0.033483	65.01	17529.8	0.031032	0.042911	1515.01	77315.7
555	2.000000	1.056216	7.37048e+06	-49339.1	1005.82	-29759.4	0.000000	0.000000	7.059625	70.9131	NaN	0.000000	0.001566	0.001710	28.0831	34.7497	0.001705	20382.6	7.461399	175.553	72.1938	1.055882	0.035848	0.035514	70.9131	20382.6	0.033239	0.047725	1485.86	85242.9
555	2.000000	1.058189	7.37048e+06	-49339.1	1005.82	-29759.4	0.000000	0.000000	7.061894	78.1116	NaN	0.000000	0.001601	0.001702	28.0817	37.4621	0.001803	20778.4	5.458226	177.236	76.4398	1.057766	0.037821	0.037399	78.1116	20778.4	0.035002	0.051750	1509.41	83451
555	2.000000	1.060188	7.37048e+06	-49339.1	1005.82	-29759.4	0.000000	0.000000	7.064080	82.656	NaN	0.000000	0.001592	0.001725	28.0815	38.8616	0.001828	21255.5	6.066101	176.336	81.5186	1.059860	0.039820	0.039492	82.656	21255.5	0.036904	0.056272	1468.87	81865.2
555	2.000000	1.062172	7.37048e+06	-49339.1	1005.82	-29759.4	0.000000	0.000000	7.066357	89.8069	NaN	0.000000	0.001560	0.001690	28.0815	40.806	0.001824	22370.7	4.917243	177.251	88.4262	1.061915	0.041804	0.041547	89.8069	22370.7	0.038793	0.060946	1473.54	82790.1
555	2.000000	1.064146	7.37048e+06	-49339.1	1005.82	-29759.4	0.000000	0.000000	7.068759	100.207	NaN	0.000000	0.001577	0.001708	28.0815	41.7764	0.001801	23198.9	4.586176	177.239	98.1849	1.063849	0.043778	0.043481	100.207	23198.9	0.040538	0.065427	1531.57	82863.1
555	2.000000	1.066169	7.37048e+06	-49339.1	1005.82	-29759.4	0.000000	0.000000	7.070977	104.937	NaN	0.000000	0.001557	0.001735	28.0816	44.1312	0.001900	23224.7	3.449849	178.377	103.98	1.065865	0.045801	0.045497	104.937	23224.7	0.042412	0.070411	1490.35	79965.5
555	2.000000	1.068151	7.37048e+06	-49339.1	1005.82	-29759.4	0.000000	0.000000	7.073380	115.193	NaN	0.000000	0.001616	0.001736	28.0814	46.0936	0.001767	26081.8	7.457507	173.33	112.161	1.067780	0.047783	0.047412	115.193	26081.8	0.044470	0.076091	1513.88	86386.3
555	2.000000	1.070112	7.37048e+06	-49339.1	1005.82	-29759.4	0.000000	0.000000	7.075485	118.695	NaN	0.000000	0.001651	0.001726	28.0808	47.2015	0.001809	26093.9	3.048470	177.307	115.588	1.069903	0.049744	0.049535	118.695	26093.9	0.046332	0.081414	1457.92	83552.9
555	2.000000	1.072168	7.37048e+06	-49339.1	1005.82	-29759.4	0.000000	0.000000	7.077982	129.41	NaN	0.000000	0.001626	0.001706	28.0802	49.0278	0.001697	28898.8	2.862825	176.903	129.16	1.071898	0.051800	0.051530	129.41	28898.8	0.048442	0.087657	1476.32	89178.5
555	2.000000	1.074144	7.37048e+06	-49339.1	1005.82	-29759.4	0.000000	0.000000	7.080522	143.131	NaN	0.000000	0.001583	0.001761	28.0802	50.3059	0.001806	27856.7	4.368509	176.621	142.443	1.073759	0.053776	0.053391	143.131	27856.7	0.049922	0.092173	1552.86	83830.4
555	2.000000	1.076138	7.37048e+06	-49339.1	1005.82	-29759.4	0.000000	0.000000	7.082822	150.563	NaN	0.000000	0.001609	0.001711	28.0807	53.5462	0.001951	27438.5	6.922697	175.034	148.984	1.075694	0.055770	0.055327	150.563	27438.5	0.051654	0.097595	1542.73	80245.4
555	2.000000	1.078151	7.37048e+06	-49339.1	1005.82	-29759.4	0.000000	0.000000	7.085398	164.266	NaN	0.000000	0.001643	0.001771	28.0803	54.9623	0.001783	30820.9	4.621515	175.469	163.672	1.077777	0.057783	0.057409	164.266	30820.9	0.053786	0.104474	1572.32	87119.4
555	2.000000	1.080165	7.37048e+06	-49339.1	1005.82	-29759.4	0.000000	0.000000	7.087725	171.87	NaN	0.000000	0.001615	0.001730	28.0803	56.4903	0.001866	30276.3	5.954770	174.278	172.681	1.079845	0.059798	0.059478	171.87	30276.3	0.055540	0.110303	1558.17	83288
555	2.000000	1.082157	7.37048e+06	-49339.1	1005.82	-29759.4	0.000000	0.000000	7.090135	182.031	NaN	0.000000	0.001573	0.001740	28.0804	58.8506	0.001746	33709.2	9.522505	168.734	180.648	1.081834	0.061789	0.061466	182.031	33709.2	0.057739	0.117825	1544.92	89722.9
555	2.000000	1.084130	7.37048e+06	-49339.1	1005.82	-29759.4	0.000000	0.000000	7.092589	193.729	NaN	0.000000	0.001568	0.001705	28.0802	58.5825	0.001741	33652	2.379362	176.472	190.816	1.083743	0.063763	0.063376	193.729	33652	0.059445	0.123826	1564.53	87373.3
555	2.000000	1.086088	7.37048e+06	-49339.1	1005.82	-29759.4	0.000000	0.000000	7.094879	201.798	NaN	0.000000	0.001562	0.001739	28.0807	61.6921	0.001824	33814.8	4.912038	173.426	199.137	1.085843	0.065721	0.065475	201.798	33814.8	0.061245	0.130310	1548.6	85583.8
555	2.000000	1.088174	7.37048e+06	-49339.1	1005.82	-29759.4	0.000000	0.000000	7.097598	217.217	NaN	0.000000	0.001612	0.001720	28.0801	62.8928	0.001740	36141.7	1.675630	177.111	216.632	1.087826	0.067806	0.067459	217.217	36141.7	0.063298	0.137901	1575.17	88919.6
555	2.000000	1.090207	7.37048e+06	-49339.1	1005.82	-29759.4	0.000000	0.000000	7.100025	226.793	NaN	0.000000	0.001592	0.001743	28.0802	64.6977	0.001763	36699.6	6.331476	173.263	229.64	1.089775	0.069839	0.069407	226.793	36699.6	0.065204	0.145128	1562.72	88015.5
555	2.000000	1.092138	7.37048e+06	-49339.1	1005.82	-29759.4	0.000000	0.000000	7.102269	234.409	NaN	0.000000	0.001571	0.001752	28.0803	68.8108	0.001927	35711.2	9.160576	169.811	234.361	1.091823	0.071770	0.071455	234.409	35711.2	0.066847	0.151498	1547.27	83825.3
555	2.000000	1.094150	7.37048e+06	-49339.1	1005.82	-29759.4	0.000000	0.000000	7.105208	256.932	NaN	0.000000	0.001593	0.001747	28.0804	68.0636	0.001808	37635.6	2.990912	175.85	255.684	1.093737	0.073783	0.073370	256.932	37635.6	0.068663	0.158690	1619.08	86317.2
555	2.000000	1.096065	7.37048e+06	-49339.1	1005.82	-29759.4	0.000000	0.000000	7.107279	260.735	NaN	0.000000	0.001636	0.001693	28.0804	71.2735	0.001883	37857	3.382370	174.866	257.333	1.095864	0.075697	0.075496	260.735	37857	0.070532	0.166258	1568.25	84825.8
555	2.000000	1.098212	7.37048e+06	-49339.1	1005.82	-29759.4	0.000000	0.000000	7.109955	273.591	NaN	0.000000	0.001613	0.001723	28.0802	73.0413	0.001629	44827	7.048504	169.438	276.551	1.097839	0.077845	0.077471	273.591	44827	0.073267	0.177631	1540.22	97174.6
555	2.000000	1.100112	7.37048e+06	-49339.1	1005.82	-29759.4	0.000000	0.000000	7.111989	276.851	NaN	0.000000	0.001631	0.001707	28.0808	73.5456	0.001617	45483	2.941903	172.967	275.671	1.100055	0.079744	0.079687	276.851	45483	0.075179	0.185792	1490.11	96406.9
555	2.000000	1.102057	7.37048e+06	-49339.1	1005.82	-29759.4	0.000000	0.000000	7.114615	293.415	NaN	0.000000	0.001590	0.001734	28.08	76.7772	0.001737	44196.7	2.059092	174.579	289.295	1.101857	0.081689	0.081490	293.415	44196.7	0.076710	0.192450	1524.63	92045.7
555	2.000000	1.104115	7.37048e+06	-49339.1	1005.82	-29759.4	0.000000	0.000000	7.117457	312.482	NaN	0.000000	0.001567	0.001671	28.0803	77.6561	0.001770	43872.8	4.435968	172.099	309.654	1.103832	0.083748	0.083464	312.482	43872.8	0.078406	0.199953	1562.78	89640.7
555	2.000000	1.106022	7.37048e+06	-49339.1	1005.82	-29759.4	0.000000	0.000000	7.119883	325.121	NaN	0.000000	0.001614	0.001705	28.0814	79.5839	0.001751	45456.3	3.334866	172.712	317.506	1.105736	0.085654	0.085369	325.121	45456.3	0.080290	0.208446	1559.74	90964.2
555	2.000000	1.108060	7.37048e+06	-49339.1	1005.82	-29759.4	0.000000	0.000000	7.122368	335.979	NaN	0.000000	0.001575	0.001694	28.0814	81.2792	0.001726	47086.8	1.977202	174.023	330.863	1.107820	0.087692	0.087452	335.979	47086.8	0.082341	0.217880	1542.04	92164.5
555	2.000000	1.109997	7.37048e+06	-49339.1	1005.82	-29759.4	0.000000	0.000000	7.124325	336.47	NaN	0.000000	0.001623	0.001693	28.0825	83.312	0.001719	48457.6	5.765143	169.425	329.011	1.109789	0.089629	0.089421	336.47	48457.6	0.084421	0.227649	1478.02	92790.2
555	2.000000	1.112052	7.37048e+06	-49339.1	1005.82	-29759.4	0.000000	0.000000	7.127545	364.807	NaN	0.000000	0.001624	0.001701	28.0813	85.8366	0.001827	46969.8	1.237283	175.288	362.026	1.111906	0.091684	0.091538	364.807	46969.8	0.085859	0.234517	1555.57	88614.4
555	2.000000	1.114166	7.37048e+06	-49339.1	1005.82	-29759.4	0.000000	0.000000	7.130330	381.116	NaN	0.000000	0.001621	0.001696	28.0815	86.6561	0.001665	52053.9	7.178412	168.447	381.932	1.113812	0.093799	0.093444	381.116	52053.9	0.088307	0.246431	1546.54	95803
555	2.000000	1.116108	7.37048e+06	-49339.1	1005.82	-29759.4	0.000000	0.000000	7.132889	396.131	NaN	0.000000	0.001600	0.001706	28.0814	90.3443	0.001824	49525.4	7.273421	168.485	394.507	1.115840	0.095740	0.095472	396.131	49525.4	0.089741	0.253536	1562.43	89863
555	2.000000	1.118151	7.37048e+06	-49339.1	1005.82	-29759.4	0.000000	0.000000	7.135637	413.258	NaN	0.000000	0.001579	0.001678	28.0816	92.4868	0.001781	51917.9	7.775003	168.421	412.409	1.117701	0.097784	0.097334	413.258	51917.9	0.091814	0.263974	1565.52	92323
555	2.000000	1.120096	7.37048e+06	-49339.1	1005.82	-29759.4	0.000000	0.000000	7.138139	426.814	NaN	0.000000	0.001603	0.001727	28.0818	93.0866	0.001848	50365.8	2.750044	173.367	426.356	1.119750	0.099728	0.099383	426.814	50365.8	0.093372	0.271954	1569.44	88239.2
555	2.000000	1.122133	7.37048e+06	-49339.1	1005.82	-29759.4	0.000000	0.000000	7.140775	441.386	NaN	0.000000	0.001587	0.001709	28.0815	96.2326	0.001789	53804	4.225616	171.056	443.017	1.121844	0.101765	0.101477	441.386	53804	0.095612	0.283613	1556.3	92305
555	2.000000	1.124069	7.37048e+06	-49339.1	1005.82	-29759.4	0.000000	0.000000	7.143205	453.406	NaN	0.000000	0.001553	0.001746	28.0817	96.6674	0.001767	54721.9	4.995685	170.66	451.261	1.123755	0.103701	0.103387	453.406	54721.9	0.097487	0.293550	1544.56	92276.9
555	2.000000	1.126126	7.37048e+06	-49339.1	1005.82	-29759.4	0.000000	0.000000	7.146243	477.255	NaN	0.000000	0.001562	0.001736	28.0817	100.037	0.001832	54595.4	6.701629	169.661	477.992	1.125620	0.105758	0.105253	477.255	54595.4	0.099202	0.302779	1576.25	90649.7
555	2.000000	1.127044	7.37048e+06	-49339.1	1005.82	-29759.4	0.000000	0.000000	7.147037	474.232	NaN	0.000000	0.001562	0.001727	28.0819	98.9504	0.001701	58179	-0.619449	175.413	470.223	1.126857	0.106676	0.106489	474.232	58179	0.100563	0.310198	1528.81	95437.7