File: remote_trans/data/nanoindenter/0828-1/data/Data_2025-08-06,11h17m57s/2025-07-22_16-23-58_1_22.txt
2025-07-22, 16:23:58, 1
Index	Phase	Displacement	Time	Pos X	Pos Y	Pos Z	Rot A	Rot B	Piezo Z	Force A	Force B	Gripper	Voltage A	Voltage B	Temperature	Amplitude force	Amplitude pos	Stiffness	Phase shift	Phase excitation	Force A raw	Displacement raw	HMax	HMax raw	Real Force	Real Stiffness	Contact Depth	Area	Hardness	Reduced Mod.
[#]	[#]	[um]	[s]	[um]	[um]	[um]	[m°]	[m°]	[um]	[uN]	[uN]	[V]	[V]	[V]	[°C]	[uN]	[um]	[N/m]	[°]	[°]	[uN]	[um]	[um]	[um]	[uN]	[N/m]	[um]	[um^2]	[MPa]	[MPa]
22	1.000000	0.002325	7.36525e+06	-39739.1	955.819	-29793.4	0.000000	0.000000	6.002782	-0.067482	NaN	0.000000	0.001575	0.001659	28.0936	0.017160	0.000891	19.2634	51.555	-170.316	-0.054785	0.001084	-1.088782	-1.090023	-0.067482	19.2634	-1.086154	-3.267157E+14	2.065455E-16	NaN
22	1.000000	0.012399	7.36525e+06	-39739.1	955.818	-29793.4	0.000000	0.000000	6.012857	-0.044892	NaN	0.000000	0.001592	0.001680	28.0783	0.031604	0.001275	24.785	114.444	12.6654	-0.079387	0.010979	-1.078708	-1.080128	-0.044892	24.785	-1.077349	-2.488364E+14	1.804070E-16	NaN
22	1.000000	0.022261	7.36525e+06	-39739.1	955.819	-29793.4	0.000000	0.000000	6.022723	0.059513	NaN	0.000000	0.001574	0.001648	28.0987	0.076233	0.001797	42.4336	67.5956	-164.74	-0.037617	0.021004	-1.068845	-1.070102	0.059513	42.4336	-1.069897	-1.976093E+14	-3.011631E-16	NaN
22	1.000000	0.032292	7.36525e+06	-39739.1	955.818	-29793.4	0.000000	0.000000	6.032752	-0.008268	NaN	0.000000	0.001552	0.001704	28.1316	0.114861	0.002053	55.9566	-105.646	12.9321	-0.046867	0.030979	-1.058814	-1.060127	-0.008268	55.9566	-1.058703	-1.397641E+14	5.915722E-17	NaN
22	1.000000	0.042273	7.36525e+06	-39739.1	955.819	-29793.4	0.000000	0.000000	6.042734	0.042922	NaN	0.000000	0.001565	0.001705	28.0945	0.013008	0.001969	6.607432	75.2276	-164.479	0.065887	0.041011	-1.048833	-1.050096	0.042922	6.607432	-1.053706	-1.197357E+14	-3.584764E-16	NaN
22	1.000000	0.052304	7.36525e+06	-39739.1	955.819	-29793.4	0.000000	0.000000	6.052764	0.001103	NaN	0.000000	0.001525	0.001668	28.0806	0.081481	0.001962	41.5299	-120.838	14.2519	0.051088	0.050922	-1.038803	-1.040184	0.001103	41.5299	-1.038823	-7.553270E+13	-1.459806E-17	NaN
22	1.000000	0.062293	7.36525e+06	-39739.1	955.818	-29793.4	0.000000	0.000000	6.062753	0.003349	NaN	0.000000	0.001544	0.001641	28.1003	0.074330	0.002062	36.0448	-133.643	-164.989	-0.061249	0.061028	-1.028813	-1.030078	0.003349	36.0448	-1.028883	-5.552065E+13	-6.031464E-17	NaN
22	1.000000	0.072276	7.36525e+06	-39739.1	955.818	-29793.4	0.000000	0.000000	6.072740	0.101251	NaN	0.000000	0.001541	0.001663	28.1303	0.062730	0.002088	30.0391	31.2699	15.9125	0.067382	0.070953	-1.018831	-1.020154	0.101251	30.0391	-1.021359	-4.397757E+13	-2.302326E-15	NaN
22	1.000000	0.082318	7.36525e+06	-39739.1	955.819	-29793.4	0.000000	0.000000	6.082777	-0.004033	NaN	0.000000	0.001548	0.001648	28.0941	0.106228	0.002076	51.1781	-115.337	-166.924	0.043089	0.081020	-1.008789	-1.010086	-0.004033	51.1781	-1.008730	-2.973618E+13	1.356305E-16	NaN
22	1.000000	0.092298	7.36525e+06	-39739.1	955.819	-29793.4	0.000000	0.000000	6.092756	-0.047610	NaN	0.000000	0.001558	0.001690	28.078	0.041991	0.001913	21.9476	146.838	15.945	-0.020098	0.090924	-0.998808	-1.000183	-0.047610	21.9476	-0.997181	-2.078827E+13	2.290239E-15	NaN
22	1.000000	0.102326	7.36525e+06	-39739.1	955.819	-29793.4	0.000000	0.000000	6.102784	-0.036709	NaN	0.000000	0.001564	0.001687	28.0981	0.049543	0.001919	25.8203	-126.888	-168.555	-0.054786	0.101019	-0.988781	-0.990088	-0.036709	25.8203	-0.987715	-1.549995E+13	2.368349E-15	NaN
22	1.000000	0.112315	7.36525e+06	-39739.1	955.819	-29793.4	0.000000	0.000000	6.112775	-0.001939	NaN	0.000000	0.001557	0.001668	28.1312	0.066557	0.001950	34.134	43.5765	12.7578	0.049610	0.110974	-0.978791	-0.980132	-0.001939	34.134	-0.978749	-1.173686E+13	1.651882E-16	NaN
22	1.000000	0.122313	7.36525e+06	-39739.1	955.818	-29793.4	0.000000	0.000000	6.122771	-0.034663	NaN	0.000000	0.001565	0.001658	28.0951	0.022096	0.001993	11.0853	-53.5891	-168.527	0.021071	0.120985	-0.968794	-0.970121	-0.034663	11.0853	-0.966449	-8.013080E+12	4.325850E-15	NaN
22	1.000000	0.132370	7.36525e+06	-39739.1	955.817	-29793.4	0.000000	0.000000	6.132829	-0.013938	NaN	0.000000	0.001567	0.001655	28.0795	0.104994	0.002158	48.6601	-18.0518	13.0333	-0.053076	0.130955	-0.958737	-0.960151	-0.013938	48.6601	-0.958522	-6.265304E+12	2.224684E-15	NaN
22	1.000000	0.142349	7.36525e+06	-39739.1	955.82	-29793.4	0.000000	0.000000	6.142809	0.020882	NaN	0.000000	0.001562	0.001679	28.1009	0.078504	0.002017	38.9235	-136.536	-164.62	0.014881	0.141066	-0.948758	-0.950041	0.020882	38.9235	-0.949160	-4.684923E+12	-4.457216E-15	NaN
22	1.000000	0.152359	7.36525e+06	-39739.1	955.818	-29793.4	0.000000	0.000000	6.152818	-0.004507	NaN	0.000000	0.001584	0.001706	28.1317	0.180114	0.002025	88.9602	23.8371	11.5279	-0.038887	0.150921	-0.938748	-0.940185	-0.004507	88.9602	-0.938710	-3.386314E+12	1.330950E-15	NaN
22	1.000000	0.162372	7.36525e+06	-39739.1	955.819	-29793.4	0.000000	0.000000	6.162831	-0.024688	NaN	0.000000	0.001593	0.001686	28.0955	0.172590	0.001968	87.6781	-140.966	-166.45	-0.018063	0.161039	-0.928734	-0.930068	-0.024688	87.6781	-0.928523	-2.467543E+12	1.000503E-14	NaN
22	1.000000	0.172370	7.36525e+06	-39739.1	955.818	-29793.4	0.000000	0.000000	6.172828	-0.033826	NaN	0.000000	0.001554	0.001647	28.0806	0.022613	0.002057	10.9938	-117.05	15.2972	-0.003699	0.170993	-0.918737	-0.920113	-0.033826	10.9938	-0.916429	-1.694302E+12	1.996481E-14	NaN
22	1.000000	0.182330	7.36525e+06	-39739.1	955.819	-29793.4	0.000000	0.000000	6.182790	-0.007773	NaN	0.000000	0.001583	0.001647	28.0996	0.034926	0.002086	16.7471	18.9949	-169.261	-0.029033	0.181044	-0.908776	-0.910062	-0.007773	16.7471	-0.908428	-1.321085E+12	5.883647E-15	NaN
22	1.000000	0.192336	7.36525e+06	-39739.1	955.819	-29793.4	0.000000	0.000000	6.192798	0.061680	NaN	0.000000	0.001535	0.001651	28.1326	0.069883	0.002042	34.2224	97.3737	14.9577	0.003417	0.190984	-0.898771	-0.900122	0.061680	34.2224	-0.900123	-1.020290E+12	-6.045309E-14	NaN
22	1.000000	0.202349	7.36525e+06	-39739.1	955.817	-29793.4	0.000000	0.000000	6.202809	0.005732	NaN	0.000000	0.001608	0.001661	28.0968	0.109499	0.002076	52.7413	-110.763	-163.436	0.002722	0.201039	-0.888758	-0.890067	0.005732	52.7413	-0.888839	-7.181645E+11	-7.981984E-15	NaN
22	1.000000	0.212363	7.36525e+06	-39739.1	955.819	-29793.4	0.000000	0.000000	6.212821	-0.047627	NaN	0.000000	0.001604	0.001644	28.081	0.063490	0.001954	32.4982	-9.448657	13.682	-0.068489	0.210998	-0.878743	-0.880109	-0.047627	32.4982	-0.877644	-5.068089E+11	9.397377E-14	NaN
22	1.000000	0.222383	7.36525e+06	-39739.1	955.819	-29793.4	0.000000	0.000000	6.222843	0.009724	NaN	0.000000	0.001596	0.001689	28.1009	0.155071	0.002043	75.9009	-158.495	-167.217	0.012794	0.221010	-0.868724	-0.870096	0.009724	75.9009	-0.868820	-3.850122E+11	-2.525748E-14	NaN
22	1.000000	0.232362	7.36525e+06	-39739.1	955.819	-29793.4	0.000000	0.000000	6.232823	0.033647	NaN	0.000000	0.001571	0.001615	28.1318	0.062494	0.001990	31.4025	-53.505	14.3434	0.004071	0.231004	-0.858744	-0.860103	0.033647	31.4025	-0.859548	-2.884022E+11	-1.166654E-13	NaN
22	1.000000	0.242394	7.36526e+06	-39739.1	955.818	-29793.4	0.000000	0.000000	6.242851	-0.046592	NaN	0.000000	0.001572	0.001680	28.0964	0.066761	0.001943	34.3595	95.033	-164.992	-0.024302	0.241086	-0.848713	-0.850020	-0.046592	34.3595	-0.847696	-1.993128E+11	2.337631E-13	NaN
22	1.000000	0.252377	7.36526e+06	-39739.1	955.819	-29793.4	0.000000	0.000000	6.252838	0.031100	NaN	0.000000	0.001581	0.001662	28.0796	0.106426	0.002008	53.0043	86.8949	15.6152	0.076583	0.251035	-0.838729	-0.840071	0.031100	53.0043	-0.839169	-1.527706E+11	-2.035708E-13	NaN
22	1.000000	0.262401	7.36526e+06	-39739.1	955.818	-29793.4	0.000000	0.000000	6.262858	-0.049644	NaN	0.000000	0.001618	0.001650	28.0998	0.090490	0.002105	42.9793	105.702	-164.955	0.026841	0.261062	-0.828706	-0.830045	-0.049644	42.9793	-0.827839	-1.072748E+11	4.627717E-13	NaN
22	1.000000	0.272384	7.36526e+06	-39739.1	955.818	-29793.4	0.000000	0.000000	6.272842	-0.046568	NaN	0.000000	0.001589	0.001676	28.1317	0.020621	0.001863	11.0686	-92.5387	15.8228	-0.065883	0.271007	-0.818723	-0.820099	-0.046568	11.0686	-0.815567	-7.312976E+10	6.367891E-13	NaN
22	1.000000	0.282381	7.36526e+06	-39739.1	955.818	-29793.4	0.000000	0.000000	6.282840	-0.024588	NaN	0.000000	0.001563	0.001704	28.0961	0.051722	0.001925	26.8644	-60.5841	-164.788	0.014936	0.281083	-0.808726	-0.810023	-0.024588	26.8644	-0.808039	-5.780526E+10	4.253541E-13	NaN
22	1.000000	0.292390	7.36526e+06	-39739.1	955.817	-29793.4	0.000000	0.000000	6.292851	0.051213	NaN	0.000000	0.001621	0.001666	28.0812	0.029393	0.001918	15.3215	27.1661	18.4847	0.094946	0.291042	-0.798717	-0.800065	0.051213	15.3215	-0.801224	-4.671713E+10	-1.096243E-12	NaN
22	1.000000	0.302421	7.36526e+06	-39739.1	955.819	-29793.4	0.000000	0.000000	6.302885	0.119009	NaN	0.000000	0.001588	0.001672	28.0985	0.067578	0.002017	33.4978	158.204	-166.169	0.038945	0.301092	-0.788686	-0.790014	0.119009	33.4978	-0.791350	-3.431013E+10	-3.468621E-12	NaN
22	1.000000	0.312395	7.36526e+06	-39739.1	955.819	-29793.4	0.000000	0.000000	6.312854	-0.032819	NaN	0.000000	0.001608	0.001697	28.1304	0.073283	0.001969	37.2094	125.475	15.5554	-0.003176	0.311091	-0.778711	-0.780015	-0.032819	37.2094	-0.778050	-2.263215E+10	1.450110E-12	NaN
22	1.000000	0.322389	7.36526e+06	-39739.1	955.819	-29793.4	0.000000	0.000000	6.322850	0.041886	NaN	0.000000	0.001578	0.001669	28.0942	0.059985	0.002073	28.9386	-108.852	-166.133	0.046211	0.321051	-0.768718	-0.770055	0.041886	28.9386	-0.769803	-1.748358E+10	-2.395721E-12	NaN
22	1.000000	0.332401	7.36526e+06	-39739.1	955.818	-29793.4	0.000000	0.000000	6.332864	0.075227	NaN	0.000000	0.001594	0.001679	28.0784	0.067927	0.002003	33.9174	-20.1713	14.5609	0.050322	0.331044	-0.758706	-0.760063	0.075227	33.9174	-0.760369	-1.301137E+10	-5.781611E-12	NaN
22	1.000000	0.342439	7.36526e+06	-39739.1	955.819	-29793.4	0.000000	0.000000	6.342899	-0.002958	NaN	0.000000	0.001603	0.001683	28.097	0.022191	0.001918	11.5722	-145.584	-163.25	-0.018685	0.341084	-0.748667	-0.750023	-0.002958	11.5722	-0.748476	-8.963286E+9	3.299740E-13	NaN
22	1.000000	0.352448	7.36526e+06	-39739.1	955.818	-29793.4	0.000000	0.000000	6.352905	-0.075938	NaN	0.000000	0.001557	0.001689	28.1315	0.049820	0.001987	25.0692	153.588	18.0264	0.008823	0.351057	-0.738658	-0.740049	-0.075938	25.0692	-0.736387	-6.135284E+9	1.237723E-11	NaN
22	1.000000	0.362412	7.36526e+06	-39739.1	955.818	-29793.4	0.000000	0.000000	6.362873	0.033343	NaN	0.000000	0.001558	0.001676	28.0961	0.101805	0.002142	47.5353	118.829	-162.763	-0.002060	0.361108	-0.728695	-0.729999	0.033343	47.5353	-0.729221	-4.899882E+9	-6.804781E-12	NaN
22	1.000000	0.372425	7.36526e+06	-39739.1	955.818	-29793.4	0.000000	0.000000	6.372883	-0.038289	NaN	0.000000	0.001600	0.001694	28.0795	0.090052	0.002062	43.6764	62.4152	12.7656	-0.046930	0.371061	-0.718681	-0.720046	-0.038289	43.6764	-0.718024	-3.447624E+9	1.110578E-11	NaN
22	1.000000	0.382447	7.36526e+06	-39739.1	955.818	-29793.4	0.000000	0.000000	6.382905	-0.037137	NaN	0.000000	0.001565	0.001704	28.0988	0.030296	0.002091	14.4854	114.742	-164.849	0.049351	0.381091	-0.708660	-0.710015	-0.037137	14.4854	-0.706737	-2.418333E+9	1.535635E-11	NaN
22	1.000000	0.392443	7.36526e+06	-39739.1	955.818	-29793.4	0.000000	0.000000	6.392904	0.020625	NaN	0.000000	0.001565	0.001647	28.1307	0.072891	0.001988	36.657	138.409	11.852	-0.027002	0.391117	-0.698663	-0.699989	0.020625	36.657	-0.699085	-1.901236E+9	-1.084797E-11	NaN
22	1.000000	0.402439	7.36526e+06	-39739.1	955.818	-29793.4	0.000000	0.000000	6.402899	0.003435	NaN	0.000000	0.001595	0.001724	28.0948	0.115035	0.002010	57.2398	50.734	-167.413	-0.013080	0.401170	-0.688667	-0.689936	0.003435	57.2398	-0.688712	-1.371883E+9	-2.503965E-12	NaN
22	1.000000	0.412447	7.36526e+06	-39739.1	955.818	-29793.4	0.000000	0.000000	6.412906	-0.014681	NaN	0.000000	0.001600	0.001712	28.0788	0.119304	0.001907	62.5464	-157.305	11.3454	-0.025050	0.411067	-0.678660	-0.680039	-0.014681	62.5464	-0.678483	-9.941779E+8	1.476698E-11	NaN
22	1.000000	0.422431	7.36526e+06	-39739.1	955.818	-29793.4	0.000000	0.000000	6.422887	-0.086437	NaN	0.000000	0.001613	0.001697	28.0987	0.086367	0.001940	44.5128	-130.21	-164.973	-0.044303	0.421127	-0.668675	-0.669979	-0.086437	44.5128	-0.667219	-6.971433E+8	1.239877E-10	NaN
22	1.000000	0.432462	7.36526e+06	-39739.1	955.819	-29793.4	0.000000	0.000000	6.432921	-0.008994	NaN	0.000000	0.001634	0.001728	28.1334	0.084343	0.002005	42.0672	20.072	13.8649	-0.029890	0.431045	-0.658644	-0.660062	-0.008994	42.0672	-0.658484	-5.293022E+8	1.699158E-11	NaN
22	1.000000	0.442440	7.36526e+06	-39739.1	955.818	-29793.4	0.000000	0.000000	6.442903	0.076413	NaN	0.000000	0.001593	0.001691	28.098	0.081816	0.001964	41.6485	136.033	-164.728	0.079921	0.441202	-0.648667	-0.649904	0.076413	41.6485	-0.650043	-4.055285E+8	-1.884293E-10	NaN
22	1.000000	0.452496	7.36526e+06	-39739.1	955.818	-29793.4	0.000000	0.000000	6.452955	-0.024154	NaN	0.000000	0.001597	0.001688	28.0815	0.087429	0.002046	42.7314	-85.9112	13.8134	-0.116306	0.451102	-0.638610	-0.640005	-0.024154	42.7314	-0.638186	-2.788719E+8	8.661483E-11	NaN
22	1.000000	0.462444	7.36526e+06	-39739.1	955.819	-29793.4	0.000000	0.000000	6.462903	0.002263	NaN	0.000000	0.001643	0.001707	28.0995	0.093860	0.001876	50.0208	124.76	-165.84	-0.007206	0.461152	-0.628663	-0.629955	0.002263	50.0208	-0.628697	-2.065987E+8	-1.095288E-11	NaN
22	1.000000	0.472480	7.36526e+06	-39739.1	955.819	-29793.4	0.000000	0.000000	6.472939	-0.010159	NaN	0.000000	0.001622	0.001696	28.1319	0.038973	0.001997	19.5154	-155.327	17.4374	-0.034313	0.471120	-0.618627	-0.619987	-0.010159	19.5154	-0.618236	-1.483853E+8	6.846417E-11	NaN
22	1.000000	0.482497	7.36526e+06	-39739.1	955.819	-29793.4	0.000000	0.000000	6.482956	-0.019797	NaN	0.000000	0.001611	0.001680	28.0972	0.052722	0.001841	28.6347	-48.8776	-163.905	0.078267	0.481174	-0.608610	-0.609933	-0.019797	28.6347	-0.608091	-1.076087E+8	1.839693E-10	NaN
22	1.000000	0.492511	7.36526e+06	-39739.1	955.818	-29793.4	0.000000	0.000000	6.492972	0.026607	NaN	0.000000	0.001591	0.001698	28.0799	0.133148	0.001841	72.3253	32.1138	15.1365	0.039471	0.491134	-0.598596	-0.599973	0.026607	72.3253	-0.598872	-8.033778E+7	-3.311894E-10	NaN
22	1.000000	0.502463	7.36526e+06	-39739.1	955.818	-29793.4	0.000000	0.000000	6.502924	0.034502	NaN	0.000000	0.001549	0.001680	28.0973	0.067989	0.002025	33.5741	135.102	-165.994	-0.013436	0.501171	-0.588643	-0.589936	0.034502	33.5741	-0.589414	-5.950990E+7	-5.797713E-10	NaN
22	1.000000	0.512461	7.36526e+06	-39739.1	955.819	-29793.4	0.000000	0.000000	6.512919	-0.047650	NaN	0.000000	0.001493	0.001665	28.1336	0.041389	0.002074	19.9569	82.1394	10.5597	0.043201	0.511143	-0.578645	-0.579964	-0.047650	19.9569	-0.576855	-3.993069E+7	1.193315E-9	NaN
22	1.000000	0.522495	7.36526e+06	-39739.1	955.819	-29793.4	0.000000	0.000000	6.522956	0.018990	NaN	0.000000	0.001541	0.001648	28.0989	0.039376	0.001964	20.0439	-174.501	-164.767	-0.018711	0.521196	-0.568611	-0.569911	0.018990	20.0439	-0.569322	-3.142413E+7	-6.042971E-10	NaN
22	1.000000	0.532502	7.36526e+06	-39739.1	955.818	-29793.4	0.000000	0.000000	6.532961	-0.005241	NaN	0.000000	0.001543	0.001670	28.0817	0.057832	0.001972	29.3304	-137.185	15.0523	0.039411	0.531117	-0.558605	-0.559990	-0.005241	29.3304	-0.558471	-2.224453E+7	2.356071E-10	NaN
22	1.000000	0.542477	7.36526e+06	-39739.1	955.819	-29793.4	0.000000	0.000000	6.542934	-0.065097	NaN	0.000000	0.001562	0.001684	28.0989	0.056115	0.002079	26.9927	-64.9339	-166.493	-0.034595	0.541163	-0.548630	-0.549944	-0.065097	26.9927	-0.546821	-1.534314E+7	4.242757E-9	NaN
22	1.000000	0.552519	7.36526e+06	-39739.1	955.82	-29793.4	0.000000	0.000000	6.552978	-0.018611	NaN	0.000000	0.001553	0.001707	28.1309	0.139297	0.002028	68.6898	-34.5968	11.4937	0.056601	0.551156	-0.538587	-0.539950	-0.018611	68.6898	-0.538384	-1.172046E+7	1.587914E-9	NaN
22	1.000000	0.562503	7.36526e+06	-39739.1	955.818	-29793.4	0.000000	0.000000	6.562961	-0.030206	NaN	0.000000	0.001557	0.001658	28.0971	0.081591	0.001852	44.0555	-89.7472	-166.258	-0.026255	0.561212	-0.528604	-0.529894	-0.030206	44.0555	-0.528090	-8.43412e+06	3.581383E-9	NaN
22	1.000000	0.572534	7.36526e+06	-39739.1	955.819	-29793.4	0.000000	0.000000	6.572995	0.022240	NaN	0.000000	0.001548	0.001607	28.0787	0.065280	0.002066	31.5899	173.046	11.1583	-0.031648	0.571161	-0.518572	-0.519945	0.022240	31.5899	-0.519100	-6.32538e+06	-3.516025E-9	NaN
22	1.000000	0.582523	7.36526e+06	-39739.1	955.819	-29793.4	0.000000	0.000000	6.582986	0.063034	NaN	0.000000	0.001586	0.001664	28.0962	0.021996	0.002034	10.8148	77.1024	-165.332	-0.018892	0.581191	-0.508583	-0.509915	0.063034	10.8148	-0.512954	-5.19467e+06	-1.213439E-8	NaN
22	1.000000	0.592513	7.36526e+06	-39739.1	955.819	-29793.4	0.000000	0.000000	6.592972	-0.019931	NaN	0.000000	0.001580	0.001681	28.1317	0.075805	0.002011	37.7014	123.5	12.1215	-0.045828	0.591192	-0.498594	-0.499915	-0.019931	37.7014	-0.498197	-3.23493e+06	6.161215E-9	NaN
22	1.000000	0.602528	7.36526e+06	-39739.1	955.819	-29793.4	0.000000	0.000000	6.602990	0.068005	NaN	0.000000	0.001553	0.001664	28.0972	0.051807	0.001818	28.495	97.9049	-169.395	0.053845	0.601284	-0.488579	-0.489822	0.068005	28.495	-0.490369	-2.51503e+06	-2.703959E-8	NaN
22	1.000000	0.612538	7.36526e+06	-39739.1	955.819	-29793.4	0.000000	0.000000	6.612995	-0.060162	NaN	0.000000	0.001548	0.001628	28.0797	0.040304	0.002038	19.7758	81.4875	15.321	-0.051586	0.611144	-0.478569	-0.479963	-0.060162	19.7758	-0.476287	-1.59784e+06	3.765209E-8	NaN
22	1.000000	0.622544	7.36526e+06	-39739.1	955.819	-29793.4	0.000000	0.000000	6.623003	-0.017955	NaN	0.000000	0.001602	0.001642	28.097	0.066042	0.002164	30.5159	167.913	-167.972	-0.041998	0.621255	-0.468563	-0.469852	-0.017955	30.5159	-0.468121	-1.22759e+06	1.462643E-8	NaN
22	1.000000	0.632528	7.36526e+06	-39739.1	955.819	-29793.4	0.000000	0.000000	6.632988	0.029346	NaN	0.000000	0.001583	0.001679	28.1306	0.052426	0.002045	25.6346	97.4016	11.841	-0.056467	0.631144	-0.458579	-0.459963	0.029346	25.6346	-0.459438	-927074	-3.165465E-8	NaN
22	1.000000	0.642558	7.36526e+06	-39739.1	955.819	-29793.4	0.000000	0.000000	6.643016	-0.042216	NaN	0.000000	0.001548	0.001686	28.0969	0.063271	0.002049	30.8744	112.568	-165.386	0.058646	0.641236	-0.448548	-0.449870	-0.042216	30.8744	-0.447523	-630160	6.699312E-8	NaN
22	1.000000	0.652538	7.36526e+06	-39739.1	955.818	-29793.4	0.000000	0.000000	6.652997	-0.015757	NaN	0.000000	0.001543	0.001697	28.0782	0.085463	0.001962	43.564	67.4547	14.801	-0.017989	0.651206	-0.438568	-0.439900	-0.015757	43.564	-0.438297	-467009	3.373946E-8	NaN
22	1.000000	0.662579	7.36526e+06	-39739.1	955.819	-29793.4	0.000000	0.000000	6.663038	-0.015314	NaN	0.000000	0.001585	0.001671	28.0961	0.017231	0.001952	8.825367	109.925	-163.334	0.003148	0.661208	-0.428528	-0.429898	-0.015314	8.825367	-0.427226	-325692	4.702045E-8	NaN
22	1.000000	0.672553	7.36526e+06	-39739.1	955.818	-29793.4	0.000000	0.000000	6.673013	0.010098	NaN	0.000000	0.001562	0.001678	28.1322	0.020199	0.002141	9.436664	-14.8779	13.5802	-0.035122	0.671206	-0.418553	-0.419900	0.010098	9.436664	-0.419356	-251929	-4.008356E-8	NaN
22	1.000000	0.682570	7.36526e+06	-39739.1	955.819	-29793.4	0.000000	0.000000	6.683030	0.017932	NaN	0.000000	0.001507	0.001669	28.0992	0.060413	0.001864	32.4096	-56.0429	-164.384	0.154403	0.681221	-0.408536	-0.409886	0.017932	32.4096	-0.408951	-179262	-1.000303E-7	NaN
22	1.000000	0.692565	7.36526e+06	-39739.1	955.82	-29793.4	0.000000	0.000000	6.693025	0.010053	NaN	0.000000	0.001531	0.001682	28.082	0.071356	0.001881	37.9436	72.6054	12.1478	-0.090305	0.691238	-0.398541	-0.399869	0.010053	37.9436	-0.398740	-128239	-7.839120E-8	NaN
22	1.000000	0.702562	7.36526e+06	-39739.1	955.819	-29793.4	0.000000	0.000000	6.703025	0.080087	NaN	0.000000	0.001510	0.001658	28.0986	0.028038	0.001967	14.2549	-178.057	-166.228	0.017837	0.701284	-0.388545	-0.389822	0.080087	14.2549	-0.392759	-105344	-7.602423E-7	NaN
22	1.000000	0.712574	7.36526e+06	-39739.1	955.818	-29793.4	0.000000	0.000000	6.713035	0.041390	NaN	0.000000	0.001539	0.001659	28.1317	0.056191	0.002036	27.5953	106.253	12.6358	0.015954	0.711210	-0.378533	-0.379897	0.041390	27.5953	-0.379658	-68387	-6.052336E-7	NaN
22	1.000000	0.722577	7.36526e+06	-39739.1	955.818	-29793.4	0.000000	0.000000	6.723039	0.039086	NaN	0.000000	0.001519	0.001666	28.099	0.108253	0.002103	51.4677	33.8326	-168.02	0.009019	0.721253	-0.368529	-0.369854	0.039086	51.4677	-0.369099	-48211	-8.107313E-7	NaN
22	1.000000	0.732560	7.36526e+06	-39739.1	955.818	-29793.4	0.000000	0.000000	6.733019	-0.010473	NaN	0.000000	0.001488	0.001664	28.0795	0.044053	0.002043	21.5622	-62.962	12.271	-0.019903	0.731266	-0.358547	-0.359840	-0.010473	21.5622	-0.358183	-33540.2	3.122529E-7	NaN
22	1.000000	0.742590	7.36526e+06	-39739.1	955.818	-29793.4	0.000000	0.000000	6.743049	-0.010298	NaN	0.000000	0.001495	0.001700	28.0968	0.067169	0.001934	34.7385	170.359	-160.257	0.013877	0.741303	-0.348517	-0.349804	-0.010298	34.7385	-0.348294	-24112.4	4.270954E-7	NaN
22	1.000000	0.752616	7.36526e+06	-39739.1	955.818	-29793.4	0.000000	0.000000	6.753075	-0.027204	NaN	0.000000	0.001496	0.001686	28.1326	0.025952	0.001913	13.5657	-36.3579	14.7628	-0.038215	0.751228	-0.338490	-0.339879	-0.027204	13.5657	-0.336986	-16504	1.648344E-6	NaN
22	1.000000	0.762596	7.36526e+06	-39739.1	955.819	-29793.4	0.000000	0.000000	6.763059	0.064916	NaN	0.000000	0.001497	0.001689	28.0999	0.053648	0.002014	26.6371	-57.3955	-165.859	0.048760	0.761241	-0.328510	-0.329866	0.064916	26.6371	-0.330338	-13194.7	-4.919834E-6	NaN
22	1.000000	0.772586	7.36526e+06	-39739.1	955.818	-29793.4	0.000000	0.000000	6.773046	0.011631	NaN	0.000000	0.001516	0.001673	28.08	0.112811	0.002022	55.8007	123.119	12.4465	-0.010497	0.771204	-0.318521	-0.319902	0.011631	55.8007	-0.318677	-8895.35	-1.307498E-6	NaN
22	1.000000	0.782595	7.36526e+06	-39739.1	955.819	-29793.4	0.000000	0.000000	6.783054	0.002941	NaN	0.000000	0.001491	0.001686	28.0982	0.030895	0.001998	15.4598	-74.0043	-166.44	0.042550	0.781288	-0.308512	-0.309819	0.002941	15.4598	-0.308655	-6326.14	-4.648230E-7	NaN
22	1.000000	0.792603	7.36526e+06	-39739.1	955.819	-29793.4	0.000000	0.000000	6.793065	0.037175	NaN	0.000000	0.001523	0.001653	28.1317	0.090798	0.001952	46.5047	-69.8059	15.7627	-0.022760	0.791295	-0.298503	-0.299811	0.037175	46.5047	-0.299103	-4563.24	-8.146590E-6	NaN
22	1.000000	0.802597	7.36526e+06	-39739.1	955.818	-29793.4	0.000000	0.000000	6.803059	0.038654	NaN	0.000000	0.001536	0.001655	28.099	0.042820	0.001964	21.8009	-92.9402	-163.48	0.033442	0.801307	-0.288509	-0.289799	0.038654	21.8009	-0.289839	-3318.11	-1.164951E-5	NaN
22	1.000000	0.812600	7.36526e+06	-39739.1	955.819	-29793.4	0.000000	0.000000	6.813058	-0.041270	NaN	0.000000	0.001546	0.001657	28.0805	0.054679	0.001968	27.7842	99.2793	12.0631	-0.032782	0.811229	-0.278507	-0.279877	-0.041270	27.7842	-0.277393	-2155.75	1.914414E-5	NaN
22	1.000000	0.822631	7.36526e+06	-39739.1	955.818	-29793.4	0.000000	0.000000	6.823092	0.021320	NaN	0.000000	0.001537	0.001700	28.0956	0.069567	0.001997	34.833	-143.749	-170.182	0.056502	0.821305	-0.268475	-0.269802	0.021320	34.833	-0.268934	-1604.5	-1.328763E-5	NaN
22	1.000000	0.832620	7.36526e+06	-39739.1	955.819	-29793.4	0.000000	0.000000	6.833079	0.002231	NaN	0.000000	0.001529	0.001658	28.1314	0.033974	0.002104	16.1488	-114.4	15.4883	0.012168	0.831284	-0.258487	-0.259822	0.002231	16.1488	-0.258590	-1115.06	-2.000761E-6	NaN
22	1.000000	0.842605	7.36526e+06	-39739.1	955.818	-29793.4	0.000000	0.000000	6.843063	-0.047007	NaN	0.000000	0.001549	0.001627	28.0985	0.036301	0.001974	18.3858	-157.905	-163.313	-0.018659	0.841288	-0.248501	-0.249818	-0.047007	18.3858	-0.246584	-727.853	6.458320E-5	NaN
22	1.000000	0.852619	7.36526e+06	-39739.1	955.818	-29793.4	0.000000	0.000000	6.853078	-0.002961	NaN	0.000000	0.001551	0.001608	28.0806	0.045516	0.001879	24.2226	-141.707	12.063	-0.051324	0.851309	-0.238488	-0.239797	-0.002961	24.2226	-0.238396	-542.597	5.457603E-6	NaN
22	1.000000	0.862656	7.36526e+06	-39739.1	955.818	-29793.4	0.000000	0.000000	6.863112	-0.080345	NaN	0.000000	0.001539	0.001652	28.0958	0.059344	0.001914	31.0085	64.0542	-165.469	-0.091649	0.861332	-0.228451	-0.229775	-0.080345	31.0085	-0.226507	-352.579	0.000228	NaN
22	1.000000	0.872639	7.36526e+06	-39739.1	955.818	-29793.4	0.000000	0.000000	6.873097	-0.044713	NaN	0.000000	0.001525	0.001661	28.1304	0.033976	0.002042	16.6401	134.143	12.5106	-0.081657	0.871254	-0.218467	-0.219853	-0.044713	16.6401	-0.216452	-243.696	0.000183	NaN
22	1.000000	0.882635	7.36526e+06	-39739.1	955.819	-29793.4	0.000000	0.000000	6.883095	0.005008	NaN	0.000000	0.001551	0.001679	28.0977	0.054653	0.001958	27.9182	-35.0352	-165.498	0.010199	0.881341	-0.208471	-0.209766	0.005008	27.9182	-0.208606	-182.061	-2.750961E-5	NaN
22	1.000000	0.892657	7.36526e+06	-39739.1	955.818	-29793.4	0.000000	0.000000	6.893114	-0.060444	NaN	0.000000	0.001557	0.001705	28.0773	0.016650	0.001918	8.682487	112.541	13.9313	-0.049171	0.891267	-0.198449	-0.199840	-0.060444	8.682487	-0.193228	-101.815	0.000594	NaN
22	1.000000	0.902638	7.36526e+06	-39739.1	955.818	-29793.4	0.000000	0.000000	6.903100	0.056800	NaN	0.000000	0.001547	0.001655	28.0953	0.032733	0.001984	16.4943	-29.6858	-167.012	0.061009	0.901342	-0.188468	-0.189765	0.056800	16.4943	-0.191051	-93.6633	-0.000606	NaN
22	1.000000	0.912665	7.36526e+06	-39739.1	955.819	-29793.4	0.000000	0.000000	6.913123	-0.035681	NaN	0.000000	0.001560	0.001656	28.1316	0.040602	0.001920	21.146	-161.209	12.3674	0.022105	0.911272	-0.178442	-0.179835	-0.035681	21.146	-0.177176	-54.6127	0.000653	NaN
22	1.000000	0.922635	7.36526e+06	-39739.1	955.818	-29793.4	0.000000	0.000000	6.923095	-0.011627	NaN	0.000000	0.001579	0.001649	28.099	0.036807	0.002056	17.9027	-22.2501	-164.884	-0.017954	0.921348	-0.168471	-0.169759	-0.011627	17.9027	-0.167984	-37.8903	0.000307	NaN
22	1.000000	0.932662	7.36526e+06	-39739.1	955.819	-29793.4	0.000000	0.000000	6.933121	-0.007289	NaN	0.000000	0.001565	0.001625	28.0797	0.045453	0.002052	22.1456	-157.184	13.7082	-0.006676	0.931276	-0.158445	-0.159831	-0.007289	22.1456	-0.158198	-25.462	0.000286	NaN
22	1.000000	0.942662	7.36526e+06	-39739.1	955.82	-29793.4	0.000000	0.000000	6.943121	-0.003595	NaN	0.000000	0.001552	0.001643	28.0957	0.018287	0.002013	9.086419	60.5055	-166.099	0.020781	0.941379	-0.148445	-0.149727	-0.003595	9.086419	-0.148148	-16.7549	0.000215	NaN
22	1.000000	0.952692	7.36526e+06	-39739.1	955.819	-29793.4	0.000000	0.000000	6.953149	-0.056817	NaN	0.000000	0.001526	0.001612	28.1308	0.055614	0.001974	28.1698	179.027	15.0967	0.021523	0.951358	-0.138415	-0.139749	-0.056817	28.1698	-0.136902	-10.3391	0.005495	NaN
22	1.000000	0.962657	7.36526e+06	-39739.1	955.819	-29793.4	0.000000	0.000000	6.963116	-0.005952	NaN	0.000000	0.001526	0.001676	28.0986	0.019589	0.002101	9.321721	-68.5324	-167.609	-0.023999	0.961357	-0.128450	-0.129750	-0.005952	9.321721	-0.127971	-6.957486	0.000855	NaN
22	1.000000	0.972669	7.36526e+06	-39739.1	955.819	-29793.4	0.000000	0.000000	6.973127	-0.043999	NaN	0.000000	0.001565	0.001642	28.0801	0.010297	0.002014	5.113559	-129.642	14.7082	-0.031296	0.971270	-0.118437	-0.119836	-0.043999	5.113559	-0.111984	-3.307581	0.013303	NaN
22	1.000000	0.982697	7.36526e+06	-39739.1	955.818	-29793.4	0.000000	0.000000	6.983159	0.052359	NaN	0.000000	0.001581	0.001649	28.0955	0.133098	0.002058	64.6737	171.952	-166.355	0.049884	0.981342	-0.108410	-0.109765	0.052359	64.6737	-0.109017	-2.864793	-0.018277	NaN
22	1.000000	0.992709	7.36526e+06	-39739.1	955.819	-29793.4	0.000000	0.000000	6.993171	0.057089	NaN	0.000000	0.001548	0.001670	28.1327	0.017237	0.002027	8.503567	-75.3103	13.2554	-0.009789	0.991333	-0.098397	-0.099773	0.057089	8.503567	-0.103432	-2.173596	-0.026265	NaN
22	1.000000	1.002685	7.36526e+06	-39739.1	955.82	-29793.4	0.000000	0.000000	7.003144	-0.017619	NaN	0.000000	0.001590	0.001663	28.1013	0.043718	0.002044	21.3868	-21.7522	-167.842	0.013674	1.001413	-0.088421	-0.089694	-0.017619	21.3868	-0.087803	-0.959252	0.018367	NaN
22	1.000000	1.012676	7.36526e+06	-39739.1	955.82	-29793.4	0.000000	0.000000	7.013132	-0.073379	NaN	0.000000	0.001619	0.001650	28.0808	0.022650	0.001988	11.3916	-88.6183	12.4051	-0.070716	1.011349	-0.078431	-0.079757	-0.073379	11.3916	-0.073600	-0.424737	0.172763	NaN
22	1.000000	1.022680	7.36526e+06	-39739.1	955.819	-29793.4	0.000000	0.000000	7.023141	0.033642	NaN	0.000000	0.001619	0.001651	28.0961	0.073169	0.002005	36.4868	-157.642	-166.795	0.087571	1.021401	-0.068427	-0.069706	0.033642	36.4868	-0.069119	-0.323002	-0.104154	NaN
22	1.000000	1.032722	7.36526e+06	-39739.1	955.82	-29793.4	0.000000	0.000000	7.033180	-0.026827	NaN	0.000000	0.001626	0.001621	28.1315	0.066405	0.001956	33.945	-143.91	10.1799	-0.071400	1.031337	-0.058385	-0.059770	-0.026827	33.945	-0.057792	-0.155495	0.172529	NaN
22	1.000000	1.042693	7.36526e+06	-39739.1	955.818	-29793.4	0.000000	0.000000	7.043154	0.044373	NaN	0.000000	0.001621	0.001616	28.1007	0.104791	0.002055	50.9863	-106.59	-162.419	-0.043748	1.041416	-0.048414	-0.049691	0.044373	50.9863	-0.049067	-0.085500	-0.518985	NaN
22	1.000000	1.052695	7.36526e+06	-39739.1	955.817	-29793.4	0.000000	0.000000	7.053153	-0.022284	NaN	0.000000	0.001628	0.001643	28.0795	0.030114	0.001931	15.5979	-88.4438	17.2837	-0.078212	1.051347	-0.038412	-0.039759	-0.022284	15.5979	-0.037340	-0.037589	0.592844	NaN
22	1.000000	1.062710	7.36526e+06	-39739.1	955.818	-29793.4	0.000000	0.000000	7.063170	0.015632	NaN	0.000000	0.001618	0.001666	28.0947	0.114508	0.001881	60.8759	-132.476	-166.402	0.020344	1.061409	-0.028396	-0.029697	0.015632	60.8759	-0.028589	-0.021038	-0.743009	NaN
22	1.000000	1.072695	7.36526e+06	-39739.1	955.818	-29793.4	0.000000	0.000000	7.073154	-0.017437	NaN	0.000000	0.001584	0.001622	28.1323	0.079440	0.002073	38.3152	142.597	13.2279	-0.016899	1.071319	-0.018412	-0.019787	-0.017437	38.3152	-0.018071	-0.011210	1.555554	NaN
22	1.000000	1.082702	7.36526e+06	-39739.1	955.818	-29793.4	0.000000	0.000000	7.083162	0.029962	NaN	0.000000	0.001636	0.001644	28.1018	0.091799	0.001874	48.9751	-59.1603	-165.44	-0.010650	1.081344	-0.008405	-0.009762	0.029962	48.9751	-0.008864	-0.005734	-5.224982	NaN
22	1.000000	1.092719	7.36526e+06	-39739.1	955.818	-29793.4	0.000000	0.000000	7.093181	0.074630	NaN	0.000000	0.001603	0.001656	28.0795	0.190154	0.001997	95.2417	49.8193	9.318012	-0.048260	1.091368	0.001612	0.000261	0.074630	95.2417	0.001024	0.000781	95.5557	3113.66
22	1.000000	1.102565	7.36526e+06	-39739.1	955.818	-29793.4	0.000000	0.000000	7.103396	9.037760	NaN	0.000000	0.001598	0.001688	28.0955	8.693463	0.001765	4925.98	12.8335	-173.946	7.106204	1.101374	0.011458	0.010267	9.037760	4925.98	0.010082	0.009273	974.643	46736.7
22	2.000000	1.105660	7.36526e+06	-39739.1	955.819	-29793.4	0.000000	0.000000	7.106683	13.7061	NaN	0.000000	0.001601	0.001671	28.1302	12.3163	0.001649	7470.85	8.133612	1.934940	12.9329	1.105351	0.014554	0.014245	13.7061	7470.85	0.013178	0.012932	1059.89	60022.9
22	2.000000	1.108171	7.36526e+06	-39739.1	955.819	-29793.4	0.000000	0.000000	7.109459	20.1694	NaN	0.000000	0.001596	0.001685	28.0988	16.432	0.001824	9006.66	7.567367	-177.429	19.2044	1.107820	0.017064	0.016714	20.1694	9006.66	0.015385	0.015802	1276.39	65460.9
22	2.000000	1.110692	7.36526e+06	-39739.1	955.819	-29793.4	0.000000	0.000000	7.112317	28.3557	NaN	0.000000	0.001600	0.001678	28.0783	18.3064	0.001674	10934.5	6.816311	1.977063	26.3652	1.110349	0.019586	0.019242	28.3557	10934.5	0.017641	0.018970	1494.77	72533.3
22	2.000000	1.113130	7.36526e+06	-39739.1	955.818	-29793.4	0.000000	0.000000	7.115036	35.1945	NaN	0.000000	0.001621	0.001669	28.0943	21.81	0.001753	12439.3	9.556645	178.816	33.1922	1.112724	0.022023	0.021617	35.1945	12439.3	0.019901	0.022387	1572.07	75956.8
22	2.000000	1.115619	7.36526e+06	-39739.1	955.818	-29793.4	0.000000	0.000000	7.117766	41.0703	NaN	0.000000	0.001611	0.001662	28.1314	25.3016	0.001779	14219.3	5.245252	1.059346	38.8819	1.115351	0.024512	0.024245	41.0703	14219.3	0.022346	0.026364	1557.83	80010.3
22	2.000000	1.118170	7.36526e+06	-39739.1	955.819	-29793.4	0.000000	0.000000	7.120587	47.6456	NaN	0.000000	0.001609	0.001669	28.0995	28.0195	0.001843	15201.5	3.965333	-178.638	48.7438	1.117919	0.027063	0.026813	47.6456	15201.5	0.024712	0.030494	1562.44	79533.3
22	2.000000	1.120648	7.36526e+06	-39739.1	955.818	-29793.4	0.000000	0.000000	7.123420	56.2623	NaN	0.000000	0.001595	0.001676	28.0792	30.1274	0.001781	16920.6	8.403060	-3.197741	54.8155	1.120305	0.029542	0.029198	56.2623	16920.6	0.027048	0.034847	1614.54	82814.2
22	2.000000	1.123142	7.36526e+06	-39739.1	955.818	-29793.4	0.000000	0.000000	7.126057	59.746	NaN	0.000000	0.001558	0.001673	28.094	31.5454	0.001828	17258.5	4.857597	-179.941	59.984	1.122828	0.032036	0.031721	59.746	17258.5	0.029439	0.039590	1509.13	79247.6
22	2.000000	1.125566	7.36526e+06	-39739.1	955.818	-29793.4	0.000000	0.000000	7.128879	69.4355	NaN	0.000000	0.001541	0.001621	28.1302	33.5966	0.001760	19094.3	-0.822998	2.875329	65.2382	1.125216	0.034459	0.034109	69.4355	19094.3	0.031732	0.044410	1563.51	82782.4
22	2.000000	1.128112	7.36526e+06	-39739.1	955.818	-29793.4	0.000000	0.000000	7.131813	78.8579	NaN	0.000000	0.001549	0.001635	28.0994	38.129	0.001890	20172.3	6.659872	176.493	79.8906	1.127867	0.037006	0.036761	78.8579	20172.3	0.034074	0.049612	1589.51	82744.2
22	2.000000	1.130655	7.36526e+06	-39739.1	955.818	-29793.4	0.000000	0.000000	7.134908	92.3078	NaN	0.000000	0.001561	0.001636	28.0783	38.688	0.001775	21800.3	4.532362	-0.875590	91.6213	1.130288	0.039548	0.039182	92.3078	21800.3	0.036372	0.054990	1678.63	84936.6
22	2.000000	1.133138	7.36526e+06	-39739.1	955.819	-29793.4	0.000000	0.000000	7.137561	96.4474	NaN	0.000000	0.001556	0.001653	28.0938	42.0476	0.001792	23465.5	9.471071	172.137	98.3264	1.132798	0.042031	0.041692	96.4474	23465.5	0.038949	0.061339	1572.36	86563.2
22	2.000000	1.135561	7.36526e+06	-39739.1	955.819	-29793.4	0.000000	0.000000	7.140209	101.916	NaN	0.000000	0.001587	0.001680	28.1325	44.0074	0.001831	24037.3	6.993604	-5.935293	98.8299	1.135294	0.044454	0.044187	101.916	24037.3	0.041274	0.067363	1512.94	84615.2
22	2.000000	1.138078	7.36526e+06	-39739.1	955.819	-29793.4	0.000000	0.000000	7.143241	114.449	NaN	0.000000	0.001609	0.001641	28.1021	45.161	0.001815	24878.8	3.875179	177.053	111.177	1.137782	0.046972	0.046676	114.449	24878.8	0.043521	0.073445	1558.29	83872.6
22	2.000000	1.140569	7.36526e+06	-39739.1	955.819	-29793.4	0.000000	0.000000	7.146359	129.711	NaN	0.000000	0.001624	0.001636	28.0815	47.1189	0.001887	24976.2	0.817813	-0.869498	127.212	1.140105	0.049463	0.048998	129.711	24976.2	0.045568	0.079207	1637.61	81080.7
22	2.000000	1.143137	7.36526e+06	-39739.1	955.82	-29793.4	0.000000	0.000000	7.149274	138.145	NaN	0.000000	0.001599	0.001626	28.0954	50.2157	0.001760	28532.8	5.682463	175.059	140.803	1.142714	0.052031	0.051608	138.145	28532.8	0.048399	0.087530	1578.25	88112.8
22	2.000000	1.145558	7.36526e+06	-39739.1	955.82	-29793.4	0.000000	0.000000	7.152181	149.994	NaN	0.000000	0.001593	0.001671	28.1316	53.2335	0.001778	29935.1	6.528992	-6.219674	146.85	1.145230	0.054451	0.054124	149.994	29935.1	0.050693	0.094568	1586.1	88937
22	2.000000	1.148082	7.36526e+06	-39739.1	955.82	-29793.4	0.000000	0.000000	7.155306	164.617	NaN	0.000000	0.001548	0.001659	28.101	56.3122	0.001772	31784.6	4.291228	174.805	163.84	1.147771	0.056975	0.056664	164.617	31784.6	0.053091	0.102205	1610.65	90835
22	2.000000	1.150568	7.36526e+06	-39739.1	955.819	-29793.4	0.000000	0.000000	7.158152	173.365	NaN	0.000000	0.001571	0.001650	28.0811	58.3084	0.001745	33408.3	4.884037	-6.254908	169.836	1.150276	0.059462	0.059169	173.365	33408.3	0.055570	0.110403	1570.29	91862.2
22	2.000000	1.153024	7.36526e+06	-39739.1	955.82	-29793.4	0.000000	0.000000	7.161411	192.921	NaN	0.000000	0.001620	0.001655	28.0943	60.0805	0.001797	33435.8	1.556877	176.84	189.667	1.152764	0.061917	0.061657	192.921	33435.8	0.057590	0.117307	1644.58	89191.4
22	2.000000	1.155522	7.36526e+06	-39739.1	955.819	-29793.4	0.000000	0.000000	7.164502	207.347	NaN	0.000000	0.001585	0.001662	28.1332	62.7041	0.001697	36944.4	3.111514	-5.401787	201.965	1.155207	0.064415	0.064101	207.347	36944.4	0.060206	0.126549	1638.47	94884
22	2.000000	1.158039	7.36526e+06	-39739.1	955.821	-29793.4	0.000000	0.000000	7.167556	220.403	NaN	0.000000	0.001606	0.001641	28.1027	66.4066	0.001870	35511.1	2.689171	174.896	217.302	1.157773	0.066932	0.066667	220.403	35511.1	0.062277	0.134101	1643.56	88597.4
22	2.000000	1.160610	7.36526e+06	-39739.1	955.82	-29793.4	0.000000	0.000000	7.170782	236.348	NaN	0.000000	0.001611	0.001670	28.0806	67.9759	0.001771	38376.5	1.671946	-4.051043	235.34	1.160119	0.069503	0.069013	236.348	38376.5	0.064884	0.143904	1642.41	92427.9
22	2.000000	1.163089	7.36526e+06	-39739.1	955.82	-29793.4	0.000000	0.000000	7.173764	248.598	NaN	0.000000	0.001617	0.001652	28.0949	70.8651	0.001875	37796.6	2.819572	175.245	250.745	1.162757	0.071982	0.071650	248.598	37796.6	0.067049	0.152292	1632.38	88488.6
22	2.000000	1.165479	7.36526e+06	-39739.1	955.82	-29793.4	0.000000	0.000000	7.176947	267.88	NaN	0.000000	0.001617	0.001634	28.1314	71.3919	0.001802	39613	4.906263	-7.580459	261.618	1.165157	0.074372	0.074051	267.88	39613	0.069300	0.161254	1661.23	90127.2
22	2.000000	1.168002	7.36526e+06	-39739.1	955.82	-29793.4	0.000000	0.000000	7.180041	281.765	NaN	0.000000	0.001612	0.001617	28.1013	75.3995	0.001827	41275.7	2.458235	174.964	279.978	1.167787	0.076896	0.076681	281.765	41275.7	0.071776	0.171388	1644.02	91091.6
22	2.000000	1.170512	7.36526e+06	-39739.1	955.82	-29793.4	0.000000	0.000000	7.183109	295.346	NaN	0.000000	0.001616	0.001652	28.0793	79.2624	0.001857	42684.2	9.323033	-11.0105	289.738	1.169992	0.079405	0.078885	295.346	42684.2	0.074216	0.181659	1625.82	91498.1
22	2.000000	1.172952	7.36526e+06	-39739.1	955.819	-29793.4	0.000000	0.000000	7.186616	321.316	NaN	0.000000	0.001623	0.001633	28.0923	79.3256	0.001749	45361.4	2.688652	174.558	315.795	1.172674	0.081845	0.081567	321.316	45361.4	0.076533	0.191674	1676.37	94662.6
22	2.000000	1.175587	7.36526e+06	-39739.1	955.82	-29793.4	0.000000	0.000000	7.189996	339.438	NaN	0.000000	0.001547	0.001666	28.1313	83.5987	0.001850	45191.6	5.630336	-8.773199	338.81	1.175174	0.084481	0.084068	339.438	45191.6	0.078847	0.201928	1680.98	91882.4
22	2.000000	1.178057	7.36526e+06	-39739.1	955.819	-29793.4	0.000000	0.000000	7.192657	344.094	NaN	0.000000	0.001524	0.001650	28.1019	85.2634	0.001685	50595.9	2.704563	172.671	344.585	1.177919	0.086951	0.086813	344.094	50595.9	0.081850	0.215605	1595.95	99554.2
22	2.000000	1.180622	7.36526e+06	-39739.1	955.821	-29793.4	0.000000	0.000000	7.196475	374.586	NaN	0.000000	0.001518	0.001671	28.08	87.3207	0.001782	49013.6	4.747333	-8.968946	375.264	1.180254	0.089516	0.089147	374.586	49013.6	0.083784	0.224634	1667.54	94482.8
22	2.000000	1.182895	7.36526e+06	-39739.1	955.82	-29793.4	0.000000	0.000000	7.199665	396.911	NaN	0.000000	0.001511	0.001595	28.0935	88.7461	0.001728	51349	4.928569	170.221	389.236	1.182604	0.091788	0.091497	396.911	51349	0.085991	0.235150	1687.9	96745.8
22	2.000000	1.185553	7.36526e+06	-39739.1	955.82	-29793.4	0.000000	0.000000	7.203204	418.342	NaN	0.000000	0.001516	0.001613	28.1302	90.8802	0.001693	53692	5.585399	-10.2204	417.903	1.185205	0.094446	0.094098	418.342	53692	0.088603	0.247886	1687.64	98527.3
22	2.000000	1.187929	7.36526e+06	-39739.1	955.82	-29793.4	0.000000	0.000000	7.206360	437.335	NaN	0.000000	0.001514	0.001658	28.1011	93.9626	0.001737	54080.7	3.416690	171.729	433.23	1.187755	0.096822	0.096648	437.335	54080.7	0.090757	0.258629	1690.97	97157.5
22	2.000000	1.190509	7.36526e+06	-39739.1	955.819	-29793.4	0.000000	0.000000	7.209805	458.37	NaN	0.000000	0.001522	0.001617	28.0772	96.277	0.001906	50503.2	7.735031	-10.6331	451.833	1.190060	0.099403	0.098954	458.37	50503.2	0.092596	0.267963	1710.57	89136.3
22	2.000000	1.193019	7.36526e+06	-39739.1	955.82	-29793.4	0.000000	0.000000	7.213046	476.166	NaN	0.000000	0.001543	0.001635	28.0919	98.7903	0.001868	52899.6	6.181365	169.504	475.003	1.192693	0.101913	0.101586	476.166	52899.6	0.095162	0.281250	1693.04	91133.8
22	2.000000	1.195455	7.36526e+06	-39739.1	955.82	-29793.4	0.000000	0.000000	7.216251	494.872	NaN	0.000000	0.001562	0.001653	28.131	101.476	0.001742	58250.4	3.669232	-9.265245	488.799	1.195138	0.104349	0.104032	494.872	58250.4	0.097977	0.296173	1670.88	97791
22	2.000000	1.197992	7.36526e+06	-39739.1	955.82	-29793.4	0.000000	0.000000	7.220060	525.831	NaN	0.000000	0.001512	0.001648	28.1021	104.361	0.001749	59673.6	1.139192	173.585	522.875	1.197653	0.106885	0.106546	525.831	59673.6	0.100276	0.308628	1703.77	98138.2
22	2.000000	1.200408	7.36526e+06	-39739.1	955.82	-29793.4	0.000000	0.000000	7.222932	536.909	NaN	0.000000	0.001508	0.001639	28.0804	104.945	0.001742	60237.1	1.155841	-6.640640	527.001	1.200196	0.109302	0.109089	536.909	60237.1	0.102617	0.321554	1669.73	97053.3
22	2.000000	1.201829	7.36526e+06	-39739.1	955.821	-29793.4	0.000000	0.000000	7.225039	553.622	NaN	0.000000	0.001502	0.001646	28.1027	107.296	0.001866	57513.9	1.962560	173.545	543.21	1.201633	0.110722	0.110526	553.622	57513.9	0.103503	0.326512	1695.56	91959.5