File: remote_trans/data/nanoindenter/0828-1/data/Data_2025-08-06,11h17m57s/2025-07-22_16-23-58_1_379.txt
2025-07-22, 16:23:58, 1
Index	Phase	Displacement	Time	Pos X	Pos Y	Pos Z	Rot A	Rot B	Piezo Z	Force A	Force B	Gripper	Voltage A	Voltage B	Temperature	Amplitude force	Amplitude pos	Stiffness	Phase shift	Phase excitation	Force A raw	Displacement raw	HMax	HMax raw	Real Force	Real Stiffness	Contact Depth	Area	Hardness	Reduced Mod.
[#]	[#]	[um]	[s]	[um]	[um]	[um]	[m°]	[m°]	[um]	[uN]	[uN]	[V]	[V]	[V]	[°C]	[uN]	[um]	[N/m]	[°]	[°]	[uN]	[um]	[um]	[um]	[uN]	[N/m]	[um]	[um^2]	[MPa]	[MPa]
379	1.000000	0.003209	7.36877e+06	-57589.1	955.817	-29737	0.000000	0.000000	6.002788	0.027608	NaN	0.000000	0.001540	0.001753	28.0799	0.034370	0.001009	34.0768	56.0162	-162.014	0.126431	0.001961	-1.049050	-1.050297	0.027608	34.0768	-1.049657	-1.056350E+14	-2.613565E-16	NaN
379	1.000000	0.011185	7.36877e+06	-57589.1	955.82	-29737	0.000000	0.000000	6.010767	0.077771	NaN	0.000000	0.001554	0.001729	28.0801	0.083948	0.000948	88.592	-152.107	-162.32	0.011511	0.009836	-1.041073	-1.042422	0.077771	88.592	-1.041732	-8.265200E+13	-9.409490E-16	NaN
379	1.000000	0.019173	7.36877e+06	-57589.1	955.818	-29737	0.000000	0.000000	6.018754	0.055434	NaN	0.000000	0.001570	0.001717	28.08	0.047059	0.001753	26.8406	-130.746	-163.787	0.062671	0.017862	-1.033085	-1.034396	0.055434	26.8406	-1.034634	-6.634459E+13	-8.355397E-16	NaN
379	1.000000	0.027193	7.36877e+06	-57589.1	955.818	-29737	0.000000	0.000000	6.026774	0.066627	NaN	0.000000	0.001573	0.001710	28.0801	0.101439	0.001754	57.8242	-134.703	-164.973	0.005511	0.025834	-1.025065	-1.026424	0.066627	57.8242	-1.025930	-5.066735E+13	-1.314986E-15	NaN
379	1.000000	0.035208	7.36877e+06	-57589.1	955.819	-29737	0.000000	0.000000	6.034789	0.039610	NaN	0.000000	0.001547	0.001764	28.0797	0.050221	0.001894	26.5094	165.819	-168.046	0.098754	0.033876	-1.017050	-1.018383	0.039610	26.5094	-1.018170	-3.984140E+13	-9.941804E-16	NaN
379	1.000000	0.043186	7.36877e+06	-57589.1	955.818	-29737	0.000000	0.000000	6.042763	-0.049225	NaN	0.000000	0.001529	0.001761	28.0797	0.060501	0.001927	31.389	100.344	-161.127	-0.042435	0.041826	-1.009072	-1.010432	-0.049225	31.389	-1.007896	-2.897741E+13	1.698720E-15	NaN
379	1.000000	0.051156	7.36877e+06	-57589.1	955.818	-29737	0.000000	0.000000	6.050735	-0.007248	NaN	0.000000	0.001540	0.001738	28.0797	0.040609	0.001999	20.3116	166.319	-165.341	0.041571	0.049841	-1.001102	-1.002418	-0.007248	20.3116	-1.000834	-2.328095E+13	3.113411E-16	NaN
379	1.000000	0.059146	7.36877e+06	-57589.1	955.818	-29737	0.000000	0.000000	6.058726	0.024754	NaN	0.000000	0.001540	0.001735	28.0799	0.047064	0.002051	22.9434	-19.5362	-165.593	0.017672	0.057848	-0.993112	-0.994410	0.024754	22.9434	-0.993921	-1.878965E+13	-1.317451E-15	NaN
379	1.000000	0.067179	7.36877e+06	-57589.1	955.819	-29737	0.000000	0.000000	6.066756	-0.030060	NaN	0.000000	0.001608	0.001767	28.0801	0.073663	0.002015	36.5542	-4.822622	-164.225	-0.054149	0.065916	-0.985080	-0.986342	-0.030060	36.5542	-0.984463	-1.401302E+13	2.145155E-15	NaN
379	1.000000	0.075144	7.36877e+06	-57589.1	955.817	-29737	0.000000	0.000000	6.074722	-0.007683	NaN	0.000000	0.001597	0.001734	28.0797	0.038140	0.001909	19.9741	-138.968	-164.763	-0.025090	0.073890	-0.977115	-0.978368	-0.007683	19.9741	-0.976826	-1.105729E+13	6.948129E-16	NaN
379	1.000000	0.083157	7.36877e+06	-57589.1	955.818	-29737	0.000000	0.000000	6.082736	0.016448	NaN	0.000000	0.001578	0.001762	28.08	0.035500	0.001982	17.907	-150.212	-165.37	0.067652	0.081901	-0.969101	-0.970357	0.016448	17.907	-0.969790	-8.888645E+12	-1.850481E-15	NaN
379	1.000000	0.091174	7.36877e+06	-57589.1	955.817	-29737	0.000000	0.000000	6.090755	0.048396	NaN	0.000000	0.001566	0.001773	28.08	0.088128	0.001921	45.8773	158.902	-166.034	0.080576	0.089847	-0.961084	-0.962412	0.048396	45.8773	-0.961875	-6.952572E+12	-6.960886E-15	NaN
379	1.000000	0.099231	7.36877e+06	-57589.1	955.819	-29737	0.000000	0.000000	6.098809	-0.010917	NaN	0.000000	0.001630	0.001729	28.0797	0.060779	0.002037	29.8323	87.1573	-161.199	-0.033842	0.097886	-0.953028	-0.954372	-0.010917	29.8323	-0.952753	-5.237898E+12	2.084256E-15	NaN
379	1.000000	0.107196	7.36877e+06	-57589.1	955.819	-29737	0.000000	0.000000	6.106777	0.050070	NaN	0.000000	0.001620	0.001748	28.0799	0.091335	0.002003	45.5941	-79.8141	-166.519	0.006453	0.105933	-0.945062	-0.946325	0.050070	45.5941	-0.945885	-4.231862E+12	-1.183161E-14	NaN
379	1.000000	0.115199	7.36877e+06	-57589.1	955.819	-29737	0.000000	0.000000	6.114779	0.025010	NaN	0.000000	0.001618	0.001758	28.0796	0.057922	0.001965	29.4823	-134.18	-162.202	0.002108	0.113854	-0.937059	-0.938404	0.025010	29.4823	-0.937695	-3.281273E+12	-7.622097E-15	NaN
379	1.000000	0.123217	7.36877e+06	-57589.1	955.819	-29737	0.000000	0.000000	6.122797	0.050958	NaN	0.000000	0.001644	0.001757	28.0786	0.058899	0.002088	28.2055	-157.235	-166.556	0.037295	0.121924	-0.929042	-0.930334	0.050958	28.2055	-0.930397	-2.615478E+12	-1.948338E-14	NaN
379	1.000000	0.131178	7.36877e+06	-57589.1	955.819	-29737	0.000000	0.000000	6.130758	0.036477	NaN	0.000000	0.001629	0.001762	28.0783	0.031367	0.002137	14.6751	-53.9817	-164.724	0.074833	0.129904	-0.921081	-0.922354	0.036477	14.6751	-0.922945	-2.074742E+12	-1.758163E-14	NaN
379	1.000000	0.139184	7.36877e+06	-57589.1	955.818	-29737	0.000000	0.000000	6.138763	0.009759	NaN	0.000000	0.001604	0.001743	28.0783	0.081371	0.001903	42.7616	-105.48	-165.787	0.089335	0.137877	-0.913074	-0.914381	0.009759	42.7616	-0.913245	-1.534604E+12	-6.359403E-15	NaN
379	1.000000	0.147201	7.36877e+06	-57589.1	955.82	-29737	0.000000	0.000000	6.146779	-0.021363	NaN	0.000000	0.001608	0.001753	28.0783	0.081965	0.002141	38.291	-146.27	-164.374	0.072648	0.145883	-0.905057	-0.906376	-0.021363	38.291	-0.904639	-1.174197E+12	1.819409E-14	NaN
379	1.000000	0.155232	7.36877e+06	-57589.1	955.82	-29737	0.000000	0.000000	6.154811	0.015220	NaN	0.000000	0.001603	0.001744	28.0781	0.175464	0.002007	87.4167	-102.183	-166.687	-0.040239	0.153980	-0.897026	-0.898278	0.015220	87.4167	-0.897157	-9.303425E+11	-1.635943E-14	NaN
379	1.000000	0.163183	7.36877e+06	-57589.1	955.82	-29737	0.000000	0.000000	6.162764	0.058351	NaN	0.000000	0.001591	0.001766	28.0785	0.096733	0.002094	46.1949	-99.3167	-166.349	0.046504	0.161934	-0.889075	-0.890324	0.058351	46.1949	-0.890023	-7.451117E+11	-7.831213E-14	NaN
379	1.000000	0.171202	7.36877e+06	-57589.1	955.818	-29737	0.000000	0.000000	6.170781	0.025624	NaN	0.000000	0.001609	0.001737	28.0782	0.083469	0.001906	43.7891	-103.03	-167.01	0.054039	0.169874	-0.881057	-0.882384	0.025624	43.7891	-0.881496	-5.713907E+11	-4.484458E-14	NaN
379	1.000000	0.179229	7.36877e+06	-57589.1	955.818	-29737	0.000000	0.000000	6.178812	0.101675	NaN	0.000000	0.001637	0.001764	28.0783	0.054984	0.002074	26.5112	-87.816	-161.754	0.082756	0.177930	-0.873029	-0.874328	0.101675	26.5112	-0.875905	-4.800947E+11	-2.117805E-13	NaN
379	1.000000	0.187226	7.36877e+06	-57589.1	955.819	-29737	0.000000	0.000000	6.186809	0.098409	NaN	0.000000	0.001646	0.001728	28.0778	0.101500	0.001848	54.9277	58.1217	-164.748	-0.040198	0.185901	-0.865032	-0.866357	0.098409	54.9277	-0.866376	-3.567880E+11	-2.758183E-13	NaN
379	1.000000	0.195208	7.36877e+06	-57589.1	955.819	-29737	0.000000	0.000000	6.194786	0.001132	NaN	0.000000	0.001662	0.001728	28.0782	0.037740	0.001995	18.9183	138.976	-166.321	-0.062890	0.193866	-0.857051	-0.858392	0.001132	18.9183	-0.857095	-2.671803E+11	-4.235787E-15	NaN
379	1.000000	0.203233	7.36877e+06	-57589.1	955.818	-29737	0.000000	0.000000	6.202811	-0.007476	NaN	0.000000	0.001665	0.001715	28.0784	0.064117	0.002010	31.8944	-71.2693	-161.744	0.042076	0.201882	-0.849026	-0.850376	-0.007476	31.8944	-0.848850	-2.066159E+11	3.618128E-14	NaN
379	1.000000	0.211225	7.36877e+06	-57589.1	955.819	-29737	0.000000	0.000000	6.210805	0.034324	NaN	0.000000	0.001631	0.001767	28.0783	0.102990	0.002096	49.1268	88.9694	-164.096	0.012019	0.209898	-0.841034	-0.842361	0.034324	49.1268	-0.841558	-1.645860E+11	-2.085497E-13	NaN
379	1.000000	0.219254	7.36877e+06	-57589.1	955.819	-29737	0.000000	0.000000	6.218832	-0.014889	NaN	0.000000	0.001665	0.001745	28.0788	0.126105	0.002030	62.1241	49.237	-166.078	0.013927	0.217938	-0.833004	-0.834320	-0.014889	62.1241	-0.832825	-1.253331E+11	1.187960E-13	NaN
379	1.000000	0.227231	7.36877e+06	-57589.1	955.818	-29737	0.000000	0.000000	6.226812	0.044562	NaN	0.000000	0.001663	0.001736	28.0782	0.021596	0.001958	11.0271	172.504	-166.394	0.036650	0.225853	-0.825027	-0.826406	0.044562	11.0271	-0.828058	-1.080092E+11	-4.125775E-13	NaN
379	1.000000	0.235235	7.36877e+06	-57589.1	955.818	-29737	0.000000	0.000000	6.234814	0.005747	NaN	0.000000	0.001636	0.001732	28.0784	0.073045	0.001974	37.0071	-172.332	-165.283	-0.027006	0.233933	-0.817023	-0.818325	0.005747	37.0071	-0.817140	-7.681088E+10	-7.481765E-14	NaN
379	1.000000	0.243253	7.36877e+06	-57589.1	955.818	-29737	0.000000	0.000000	6.242833	0.038271	NaN	0.000000	0.001692	0.001751	28.0783	0.067197	0.001995	33.6872	-61.4084	-164.551	0.039418	0.241962	-0.809006	-0.810296	0.038271	33.6872	-0.809858	-6.118434E+10	-6.255094E-13	NaN
379	1.000000	0.251261	7.36877e+06	-57589.1	955.819	-29737	0.000000	0.000000	6.250843	0.071522	NaN	0.000000	0.001642	0.001751	28.0784	0.116180	0.002018	57.5741	-141.958	-163.094	0.043023	0.249944	-0.800997	-0.802314	0.071522	57.5741	-0.801929	-4.775775E+10	-1.497599E-12	NaN
379	1.000000	0.259257	7.36877e+06	-57589.1	955.819	-29737	0.000000	0.000000	6.258839	0.064817	NaN	0.000000	0.001650	0.001753	28.0799	0.050564	0.002037	24.8173	-56.213	-164.644	0.018760	0.257962	-0.793001	-0.794297	0.064817	24.8173	-0.794960	-3.840932E+10	-1.687527E-12	NaN
379	1.000000	0.267272	7.36877e+06	-57589.1	955.818	-29737	0.000000	0.000000	6.266852	0.027106	NaN	0.000000	0.001691	0.001725	28.0795	0.069519	0.002117	32.8405	139.528	-167.845	0.083542	0.266009	-0.784986	-0.786250	0.027106	32.8405	-0.785605	-2.866741E+10	-9.455270E-13	NaN
379	1.000000	0.275258	7.36877e+06	-57589.1	955.818	-29737	0.000000	0.000000	6.274837	0.014282	NaN	0.000000	0.001671	0.001728	28.08	0.128101	0.002037	62.8966	161.976	-165.972	-0.065117	0.273986	-0.777000	-0.778272	0.014282	62.8966	-0.777170	-2.201790E+10	-6.486717E-13	NaN
379	1.000000	0.283261	7.36877e+06	-57589.1	955.818	-29737	0.000000	0.000000	6.282842	0.054910	NaN	0.000000	0.001670	0.001748	28.0795	0.004788	0.001970	2.430017	32.7122	-166.46	0.035829	0.281975	-0.768997	-0.770283	0.054910	2.430017	-0.785945	-2.897357E+10	-1.895191E-12	NaN
379	1.000000	0.291239	7.36877e+06	-57589.1	955.818	-29737	0.000000	0.000000	6.290820	0.054644	NaN	0.000000	0.001679	0.001714	28.0795	0.045322	0.001922	23.5798	-42.8119	-166.583	-0.014509	0.289958	-0.761019	-0.762300	0.054644	23.5798	-0.762757	-1.402179E+10	-3.897108E-12	NaN
379	1.000000	0.299224	7.36877e+06	-57589.1	955.818	-29737	0.000000	0.000000	6.298803	0.013926	NaN	0.000000	0.001670	0.001734	28.0799	0.082134	0.001964	41.8111	95.7956	-162.436	0.081001	0.298006	-0.753035	-0.754253	0.013926	41.8111	-0.753284	-1.042135E+10	-1.336295E-12	NaN
379	1.000000	0.307265	7.36877e+06	-57589.1	955.819	-29737	0.000000	0.000000	6.306844	-0.009119	NaN	0.000000	0.001672	0.001736	28.0797	0.052000	0.002071	25.106	-176.968	-163.289	-0.050698	0.305953	-0.744993	-0.746305	-0.009119	25.106	-0.744721	-7.967884E+9	1.144441E-12	NaN
379	1.000000	0.315302	7.36877e+06	-57589.1	955.818	-29737	0.000000	0.000000	6.314881	-0.003739	NaN	0.000000	0.001673	0.001754	28.0803	0.080938	0.002052	39.4499	-87.1734	-167.608	0.033998	0.313989	-0.736956	-0.738269	-0.003739	39.4499	-0.736885	-6.231970E+9	6.000171E-13	NaN
379	1.000000	0.323264	7.36877e+06	-57589.1	955.818	-29737	0.000000	0.000000	6.322845	0.068256	NaN	0.000000	0.001637	0.001743	28.0796	0.052261	0.001890	27.6529	113.097	-167.121	0.015901	0.321947	-0.728994	-0.730311	0.068256	27.6529	-0.730846	-5.156227E+9	-1.323752E-11	NaN
379	1.000000	0.331286	7.36877e+06	-57589.1	955.818	-29737	0.000000	0.000000	6.330864	-0.011416	NaN	0.000000	0.001661	0.001745	28.0798	0.074761	0.001968	37.9926	104.781	-163.353	0.069530	0.329913	-0.720972	-0.722346	-0.011416	37.9926	-0.720747	-3.755436E+9	3.039884E-12	NaN
379	1.000000	0.339322	7.36877e+06	-57589.1	955.818	-29737	0.000000	0.000000	6.338902	0.045691	NaN	0.000000	0.001671	0.001738	28.0798	0.089957	0.001953	46.0601	-170.958	-163.607	0.088434	0.337945	-0.712937	-0.714313	0.045691	46.0601	-0.713681	-3.007953E+9	-1.519018E-11	NaN
379	1.000000	0.347317	7.36877e+06	-57589.1	955.818	-29737	0.000000	0.000000	6.346896	0.002672	NaN	0.000000	0.001658	0.001731	28.0797	0.110864	0.001980	56.0037	80.2322	-165.827	0.025330	0.346003	-0.704941	-0.706255	0.002672	56.0037	-0.704977	-2.288161E+9	-1.167865E-12	NaN
379	1.000000	0.355301	7.36877e+06	-57589.1	955.819	-29737	0.000000	0.000000	6.354881	0.041209	NaN	0.000000	0.001671	0.001704	28.08	0.050509	0.002026	24.9308	91.2387	-163.898	-0.104258	0.353970	-0.696958	-0.698288	0.041209	24.9308	-0.698197	-1.848891E+9	-2.228827E-11	NaN
379	1.000000	0.363309	7.36877e+06	-57589.1	955.819	-29737	0.000000	0.000000	6.362890	0.060420	NaN	0.000000	0.001665	0.001690	28.0797	0.081805	0.002097	39.0165	-156.463	-165.788	0.067202	0.361972	-0.688950	-0.690286	0.060420	39.0165	-0.690111	-1.433628E+9	-4.214504E-11	NaN
379	1.000000	0.371290	7.36877e+06	-57589.1	955.819	-29737	0.000000	0.000000	6.370870	0.026912	NaN	0.000000	0.001662	0.001687	28.0799	0.077225	0.001974	39.1153	13.1188	-162.384	-0.011400	0.369909	-0.680968	-0.682349	0.026912	39.1153	-0.681484	-1.092696E+9	-2.462919E-11	NaN
379	1.000000	0.379306	7.36877e+06	-57589.1	955.818	-29737	0.000000	0.000000	6.378888	0.064237	NaN	0.000000	0.001647	0.001674	28.0797	0.046264	0.002111	21.919	18.8524	-164.453	-0.020591	0.378023	-0.672952	-0.674235	0.064237	21.919	-0.675150	-8.950769E+8	-7.176756E-11	NaN
379	1.000000	0.387304	7.36877e+06	-57589.1	955.819	-29737	0.000000	0.000000	6.386883	0.014924	NaN	0.000000	0.001671	0.001714	28.0795	0.046664	0.001963	23.7723	179.531	-160.296	0.011113	0.385979	-0.664954	-0.666279	0.014924	23.7723	-0.665425	-6.588200E+8	-2.265286E-11	NaN
379	1.000000	0.395326	7.36877e+06	-57589.1	955.818	-29737	0.000000	0.000000	6.394907	0.064428	NaN	0.000000	0.001615	0.001700	28.0783	0.089102	0.001961	45.4485	-133.431	-167.723	0.010611	0.394060	-0.656933	-0.658198	0.064428	45.4485	-0.657996	-5.212099E+8	-1.236118E-10	NaN
379	1.000000	0.403317	7.36877e+06	-57589.1	955.819	-29737	0.000000	0.000000	6.402897	0.043572	NaN	0.000000	0.001635	0.001717	28.0783	0.091767	0.001958	46.8632	49.8509	-163.373	-0.007740	0.402036	-0.648941	-0.650222	0.043572	46.8632	-0.649639	-4.003916E+8	-1.088222E-10	NaN
379	1.000000	0.411304	7.36877e+06	-57589.1	955.818	-29737	0.000000	0.000000	6.410885	0.076611	NaN	0.000000	0.001590	0.001674	28.0789	0.057525	0.001958	29.3764	23.3277	-163.538	-0.023809	0.410059	-0.640955	-0.642200	0.076611	29.3764	-0.642911	-3.237568E+8	-2.366307E-10	NaN
379	1.000000	0.419334	7.36877e+06	-57589.1	955.819	-29737	0.000000	0.000000	6.418913	0.002020	NaN	0.000000	0.001634	0.001706	28.0785	0.055134	0.002016	27.3506	-133.358	-164.37	-0.001145	0.418006	-0.632924	-0.634252	0.002020	27.3506	-0.632979	-2.365552E+8	-8.539535E-12	NaN
379	1.000000	0.427327	7.36877e+06	-57589.1	955.818	-29737	0.000000	0.000000	6.426907	0.033386	NaN	0.000000	0.001629	0.001727	28.0784	0.062285	0.002117	29.4172	67.4822	-165.083	0.034417	0.426026	-0.624931	-0.626232	0.033386	29.4172	-0.625782	-1.884059E+8	-1.772001E-10	NaN
379	1.000000	0.435308	7.36877e+06	-57589.1	955.819	-29737	0.000000	0.000000	6.434888	0.026036	NaN	0.000000	0.001650	0.001747	28.0784	0.094693	0.001967	48.1317	-168.462	-164.604	0.026896	0.434012	-0.616950	-0.618246	0.026036	48.1317	-0.617356	-1.443047E+8	-1.804268E-10	NaN
379	1.000000	0.443333	7.36877e+06	-57589.1	955.819	-29737	0.000000	0.000000	6.442913	0.029808	NaN	0.000000	0.001623	0.001708	28.0783	0.045292	0.001908	23.7371	83.364	-164.21	0.089201	0.441967	-0.608925	-0.610291	0.029808	23.7371	-0.609867	-1.138369E+8	-2.618524E-10	NaN
379	1.000000	0.451345	7.36877e+06	-57589.1	955.819	-29737	0.000000	0.000000	6.450926	0.067144	NaN	0.000000	0.001586	0.001714	28.0786	0.120349	0.001884	63.8899	-96.0412	-164.671	0.046712	0.450012	-0.600914	-0.602246	0.067144	63.8899	-0.601702	-8.788127E+7	-7.640269E-10	NaN
379	1.000000	0.459329	7.36877e+06	-57589.1	955.818	-29737	0.000000	0.000000	6.458906	-0.038170	NaN	0.000000	0.001632	0.001689	28.0783	0.073483	0.002024	36.3138	144.954	-163.783	-0.035626	0.458023	-0.592930	-0.594235	-0.038170	36.3138	-0.592141	-6.489079E+7	5.882139E-10	NaN
379	1.000000	0.467348	7.36877e+06	-57589.1	955.818	-29737	0.000000	0.000000	6.466926	-0.012971	NaN	0.000000	0.001601	0.001710	28.0786	0.004409	0.002017	2.185459	21.8788	-162.572	0.031080	0.466045	-0.584910	-0.586213	-0.012971	2.185459	-0.580459	-4.477697E+7	2.896745E-10	NaN
379	1.000000	0.475380	7.36877e+06	-57589.1	955.819	-29737	0.000000	0.000000	6.474961	0.071725	NaN	0.000000	0.001616	0.001713	28.0785	0.074120	0.001922	38.5722	-23.0457	-163.055	0.072210	0.474011	-0.576879	-0.578248	0.071725	38.5722	-0.578273	-4.177251E+7	-1.717033E-9	NaN
379	1.000000	0.483377	7.36877e+06	-57589.1	955.819	-29737	0.000000	0.000000	6.482956	0.013266	NaN	0.000000	0.001651	0.001720	28.0784	0.097097	0.002055	47.2535	-79.7169	-164.795	-0.023105	0.482007	-0.568881	-0.570252	0.013266	47.2535	-0.569092	-3.119464E+7	-4.252546E-10	NaN
379	1.000000	0.491342	7.36877e+06	-57589.1	955.819	-29737	0.000000	0.000000	6.490921	0.015890	NaN	0.000000	0.001647	0.001740	28.0785	0.018926	0.002033	9.310890	-159.838	-162.133	0.027506	0.490032	-0.560916	-0.562226	0.015890	9.310890	-0.562196	-2.504697E+7	-6.343918E-10	NaN
379	1.000000	0.499361	7.36877e+06	-57589.1	955.819	-29737	0.000000	0.000000	6.498942	0.060699	NaN	0.000000	0.001608	0.001724	28.079	0.043089	0.001955	22.0391	173.956	-163.105	0.164567	0.498077	-0.552897	-0.554182	0.060699	22.0391	-0.554963	-1.989169E+7	-3.051489E-9	NaN
379	1.000000	0.507383	7.36877e+06	-57589.1	955.818	-29737	0.000000	0.000000	6.506961	-0.020920	NaN	0.000000	0.001638	0.001760	28.0788	0.052975	0.001998	26.5191	6.601621	-166.138	-0.081849	0.506058	-0.544875	-0.546200	-0.020920	26.5191	-0.544283	-1.414963E+7	1.478509E-9	NaN
379	1.000000	0.515374	7.36877e+06	-57589.1	955.819	-29737	0.000000	0.000000	6.514952	0.004207	NaN	0.000000	0.001601	0.001758	28.0785	0.030156	0.002008	15.0193	-162.174	-168.273	-0.065704	0.514063	-0.536885	-0.538196	0.004207	15.0193	-0.537095	-1.124751E+7	-3.739950E-10	NaN
379	1.000000	0.523393	7.36877e+06	-57589.1	955.817	-29737	0.000000	0.000000	6.522973	0.049479	NaN	0.000000	0.001641	0.001759	28.0786	0.089675	0.001989	45.0806	37.1636	-166.332	0.038573	0.522083	-0.528865	-0.530175	0.049479	45.0806	-0.529689	-8.87667e+06	-5.574071E-9	NaN
379	1.000000	0.531364	7.36877e+06	-57589.1	955.819	-29737	0.000000	0.000000	6.530944	0.039999	NaN	0.000000	0.001621	0.001764	28.0796	0.067517	0.001944	34.7298	160.287	-167.349	-0.083008	0.530052	-0.520894	-0.522206	0.039999	34.7298	-0.521758	-6.88719e+06	-5.807687E-9	NaN
379	1.000000	0.539386	7.36877e+06	-57589.1	955.819	-29737	0.000000	0.000000	6.538967	0.055518	NaN	0.000000	0.001660	0.001753	28.0799	0.127667	0.002084	61.2715	67.6106	-166.264	-0.028166	0.538072	-0.512872	-0.514186	0.055518	61.2715	-0.513552	-5.29507e+06	-1.048478E-8	NaN
379	1.000000	0.547372	7.36877e+06	-57589.1	955.818	-29737	0.000000	0.000000	6.546951	0.016157	NaN	0.000000	0.001648	0.001789	28.0799	0.069722	0.001933	36.0773	67.67	-161.71	0.015710	0.546089	-0.504887	-0.506169	0.016157	36.0773	-0.505223	-4.05366e+06	-3.985673E-9	NaN
379	1.000000	0.555363	7.36877e+06	-57589.1	955.818	-29737	0.000000	0.000000	6.554943	0.020584	NaN	0.000000	0.001650	0.001709	28.0798	0.140474	0.001974	71.1561	-164.658	-163.262	-0.011445	0.554066	-0.496895	-0.498192	0.020584	71.1561	-0.497112	-3.12407e+06	-6.588708E-9	NaN
379	1.000000	0.563376	7.36877e+06	-57589.1	955.818	-29737	0.000000	0.000000	6.562955	0.015534	NaN	0.000000	0.001648	0.001759	28.08	0.024461	0.002164	11.3052	35.9243	-164.893	-0.035112	0.562126	-0.488882	-0.490132	0.015534	11.3052	-0.489913	-2.47841e+06	-6.267863E-9	NaN
379	1.000000	0.571400	7.36877e+06	-57589.1	955.819	-29737	0.000000	0.000000	6.570981	0.055785	NaN	0.000000	0.001675	0.001744	28.0796	0.043933	0.002052	21.411	113.605	-164.133	-0.027362	0.570057	-0.480858	-0.482201	0.055785	21.411	-0.482812	-1.9719e+06	-2.828983E-8	NaN
379	1.000000	0.579410	7.36877e+06	-57589.1	955.818	-29737	0.000000	0.000000	6.578987	-0.040102	NaN	0.000000	0.001647	0.001737	28.0798	0.105747	0.002015	52.477	-89.1838	-163.994	0.031705	0.578093	-0.472848	-0.474165	-0.040102	52.477	-0.472275	-1.40381e+06	2.856613E-8	NaN
379	1.000000	0.587386	7.36877e+06	-57589.1	955.819	-29737	0.000000	0.000000	6.586967	0.036167	NaN	0.000000	0.001661	0.001742	28.0798	0.161165	0.001934	83.3427	42.0285	-165.694	0.042960	0.586104	-0.464872	-0.466154	0.036167	83.3427	-0.465197	-1.11691e+06	-3.238159E-8	NaN
379	1.000000	0.595409	7.36877e+06	-57589.1	955.819	-29737	0.000000	0.000000	6.594989	0.012055	NaN	0.000000	0.001682	0.001730	28.0797	0.074998	0.001978	37.9073	-53.1033	-165.387	0.011472	0.594092	-0.456849	-0.458166	0.012055	37.9073	-0.457087	-859160	-1.403071E-8	NaN
379	1.000000	0.603384	7.36877e+06	-57589.1	955.818	-29737	0.000000	0.000000	6.602964	0.037662	NaN	0.000000	0.001652	0.001708	28.0802	0.040253	0.001920	20.964	103.848	-165.594	0.038230	0.602101	-0.448875	-0.450157	0.037662	20.964	-0.450222	-687813	-5.475637E-8	NaN
379	1.000000	0.611392	7.36877e+06	-57589.1	955.818	-29737	0.000000	0.000000	6.610972	0.037133	NaN	0.000000	0.001653	0.001721	28.0802	0.043648	0.002025	21.556	-157.445	-161.959	0.010267	0.610057	-0.440866	-0.442201	0.037133	21.556	-0.442158	-529436	-7.013729E-8	NaN
379	1.000000	0.619401	7.36877e+06	-57589.1	955.819	-29737	0.000000	0.000000	6.618980	-0.002334	NaN	0.000000	0.001644	0.001712	28.0797	0.096599	0.001952	49.4996	-105.388	-164.278	0.060129	0.618057	-0.432857	-0.434201	-0.002334	49.4996	-0.432822	-390810	5.972547E-9	NaN
379	1.000000	0.627397	7.36877e+06	-57589.1	955.819	-29737	0.000000	0.000000	6.626978	0.059795	NaN	0.000000	0.001650	0.001682	28.0795	0.077193	0.001972	39.1357	-175.535	-166.702	-0.000628	0.626074	-0.424861	-0.426184	0.059795	39.1357	-0.426007	-313003	-1.910361E-7	NaN
379	1.000000	0.635406	7.36877e+06	-57589.1	955.819	-29737	0.000000	0.000000	6.634984	-0.013987	NaN	0.000000	0.001655	0.001731	28.0794	0.052592	0.002054	25.6064	10.6107	-163.861	-0.043003	0.634080	-0.416852	-0.418178	-0.013987	25.6064	-0.416442	-229051	6.106327E-8	NaN
379	1.000000	0.643418	7.36877e+06	-57589.1	955.819	-29737	0.000000	0.000000	6.642998	0.033163	NaN	0.000000	0.001663	0.001694	28.0798	0.077422	0.002004	38.6275	120.645	-164.107	0.020006	0.642129	-0.408840	-0.410129	0.033163	38.6275	-0.409484	-182415	-1.818008E-7	NaN
379	1.000000	0.651412	7.36877e+06	-57589.1	955.818	-29737	0.000000	0.000000	6.650994	0.072157	NaN	0.000000	0.001680	0.001706	28.0795	0.085947	0.002057	41.7733	-53.8835	-164.331	-0.012926	0.650144	-0.400846	-0.402114	0.072157	41.7733	-0.402141	-143391	-5.032152E-7	NaN
379	1.000000	0.659434	7.36877e+06	-57589.1	955.819	-29737	0.000000	0.000000	6.659013	0.019735	NaN	0.000000	0.001616	0.001713	28.0798	0.093104	0.001967	47.3398	14.926	-166.465	-0.031737	0.658132	-0.392824	-0.394127	0.019735	47.3398	-0.393137	-106664	-1.850241E-7	NaN
379	1.000000	0.667441	7.36877e+06	-57589.1	955.818	-29737	0.000000	0.000000	6.667022	0.077632	NaN	0.000000	0.001644	0.001711	28.0782	0.020419	0.002011	10.1543	155.279	-167.563	0.065096	0.666152	-0.384818	-0.386106	0.077632	10.1543	-0.390552	-97962	-7.924754E-7	NaN
379	1.000000	0.675470	7.36877e+06	-57589.1	955.819	-29737	0.000000	0.000000	6.675048	-0.028764	NaN	0.000000	0.001644	0.001705	28.0782	0.041764	0.002011	20.7685	151.71	-166.804	-0.012007	0.674157	-0.376788	-0.378101	-0.028764	20.7685	-0.375749	-60095.6	4.786348E-7	NaN
379	1.000000	0.683445	7.36877e+06	-57589.1	955.819	-29737	0.000000	0.000000	6.683023	-0.017554	NaN	0.000000	0.001644	0.001728	28.0787	0.105893	0.001875	56.4819	173.297	-163.4	-0.010280	0.682132	-0.368813	-0.370126	-0.017554	56.4819	-0.368580	-47388.3	3.704279E-7	NaN
379	1.000000	0.691471	7.36877e+06	-57589.1	955.817	-29737	0.000000	0.000000	6.691052	0.050163	NaN	0.000000	0.001653	0.001711	28.0782	0.038049	0.002118	17.9637	-162.25	-166.519	0.055947	0.690140	-0.360787	-0.362118	0.050163	17.9637	-0.362881	-39216.8	-1.279109E-6	NaN
379	1.000000	0.699443	7.36877e+06	-57589.1	955.82	-29737	0.000000	0.000000	6.699022	0.025832	NaN	0.000000	0.001652	0.001704	28.0784	0.045373	0.002214	20.4936	-4.976350	-165.863	0.091889	0.698174	-0.352816	-0.354084	0.025832	20.4936	-0.353761	-28943.1	-8.925052E-7	NaN
379	1.000000	0.707454	7.36877e+06	-57589.1	955.818	-29737	0.000000	0.000000	6.707034	0.043602	NaN	0.000000	0.001689	0.001728	28.0784	0.156834	0.002040	76.8693	91.3666	-165.508	0.088109	0.706160	-0.344804	-0.346098	0.043602	76.8693	-0.345230	-21762	-2.003572E-6	NaN
379	1.000000	0.715424	7.36877e+06	-57589.1	955.818	-29737	0.000000	0.000000	6.715004	0.027656	NaN	0.000000	0.001693	0.001704	28.0784	0.113275	0.002024	55.9588	-172.362	-164.643	0.044702	0.714160	-0.336834	-0.338098	0.027656	55.9588	-0.337205	-16625.8	-1.663454E-6	NaN
379	1.000000	0.723469	7.36877e+06	-57589.1	955.818	-29737	0.000000	0.000000	6.723046	-0.022235	NaN	0.000000	0.001672	0.001675	28.0787	0.023953	0.001896	12.6324	-80.6441	-160.788	-0.004053	0.722109	-0.328789	-0.330150	-0.022235	12.6324	-0.327469	-11977.5	1.856397E-6	NaN
379	1.000000	0.731448	7.36877e+06	-57589.1	955.818	-29737	0.000000	0.000000	6.731028	0.017732	NaN	0.000000	0.001646	0.001688	28.0784	0.065814	0.001923	34.2211	21.2672	-162.024	0.079141	0.730136	-0.320810	-0.322123	0.017732	34.2211	-0.321198	-9688.87	-1.830091E-6	NaN
379	1.000000	0.739455	7.36877e+06	-57589.1	955.819	-29737	0.000000	0.000000	6.739033	-0.010324	NaN	0.000000	0.001635	0.001714	28.0785	0.104532	0.001926	54.2871	-87.8478	-163.356	-0.071655	0.738117	-0.312803	-0.314141	-0.010324	54.2871	-0.312661	-7251.09	1.423816E-6	NaN
379	1.000000	0.747461	7.36877e+06	-57589.1	955.818	-29737	0.000000	0.000000	6.747040	0.022864	NaN	0.000000	0.001694	0.001729	28.0785	0.057746	0.001913	30.1822	112.067	-164.306	0.012228	0.746163	-0.304798	-0.306095	0.022864	30.1822	-0.305366	-5654.34	-4.043613E-6	NaN
379	1.000000	0.755487	7.36877e+06	-57589.1	955.818	-29737	0.000000	0.000000	6.755067	0.033456	NaN	0.000000	0.001670	0.001708	28.0786	0.075872	0.001968	38.5524	79.676	-165.096	0.040644	0.754163	-0.296771	-0.298095	0.033456	38.5524	-0.297422	-4307.53	-7.766866E-6	NaN
379	1.000000	0.763452	7.36877e+06	-57589.1	955.819	-29737	0.000000	0.000000	6.763031	0.012264	NaN	0.000000	0.001661	0.001673	28.0785	0.068005	0.002103	32.3443	-178.651	-165.153	-0.016532	0.762181	-0.288806	-0.290077	0.012264	32.3443	-0.289090	-3233.48	-3.792919E-6	NaN
379	1.000000	0.771458	7.36877e+06	-57589.1	955.819	-29737	0.000000	0.000000	6.771040	0.070605	NaN	0.000000	0.001703	0.001693	28.0784	0.211531	0.002041	103.64	93.4805	-163.677	0.002473	0.770107	-0.280800	-0.282151	0.070605	103.64	-0.281311	-2470.23	-2.858245E-5	NaN
379	1.000000	0.779463	7.36877e+06	-57589.1	955.819	-29737	0.000000	0.000000	6.779044	0.065622	NaN	0.000000	0.001680	0.001724	28.0786	0.060480	0.001945	31.0914	34.2487	-163.94	0.065942	0.778145	-0.272796	-0.274113	0.065622	31.0914	-0.274379	-1940.84	-3.381117E-5	NaN
379	1.000000	0.787481	7.36877e+06	-57589.1	955.819	-29737	0.000000	0.000000	6.787060	0.014729	NaN	0.000000	0.001685	0.001715	28.0785	0.051265	0.001946	26.3499	-64.5628	-164.489	0.028245	0.786170	-0.264777	-0.266088	0.014729	26.3499	-0.265196	-1407.3	-1.046601E-5	NaN
379	1.000000	0.795469	7.36877e+06	-57589.1	955.819	-29737	0.000000	0.000000	6.795049	0.055705	NaN	0.000000	0.001693	0.001720	28.0786	0.038852	0.001962	19.7976	47.695	-164.187	0.092668	0.794160	-0.256790	-0.258099	0.055705	19.7976	-0.258900	-1127.33	-4.941310E-5	NaN
379	1.000000	0.803486	7.36877e+06	-57589.1	955.818	-29737	0.000000	0.000000	6.803068	0.063889	NaN	0.000000	0.001678	0.001726	28.0799	0.099632	0.002034	48.987	-12.5267	-166.355	0.060618	0.802184	-0.248772	-0.250075	0.063889	48.987	-0.249750	-814.891	-7.840166E-5	NaN
379	1.000000	0.811491	7.36877e+06	-57589.1	955.818	-29737	0.000000	0.000000	6.811069	-0.021558	NaN	0.000000	0.001660	0.001681	28.0802	0.018846	0.001978	9.529721	-126.486	-165.248	-0.042727	0.810217	-0.240767	-0.242041	-0.021558	9.529721	-0.239070	-555.934	3.877817E-5	NaN
379	1.000000	0.819523	7.36877e+06	-57589.1	955.817	-29737	0.000000	0.000000	6.819105	0.066416	NaN	0.000000	0.001670	0.001765	28.08	0.027371	0.002057	13.3059	161.29	-168.565	0.032803	0.818233	-0.232735	-0.234025	0.066416	13.3059	-0.236479	-506.346	-0.000131	NaN
379	1.000000	0.827497	7.36877e+06	-57589.1	955.818	-29737	0.000000	0.000000	6.827074	-0.032007	NaN	0.000000	0.001667	0.001723	28.0798	0.055140	0.001891	29.1613	6.860774	-163.93	0.038543	0.826201	-0.224761	-0.226057	-0.032007	29.1613	-0.223938	-320.963	9.972123E-5	NaN
379	1.000000	0.835495	7.36877e+06	-57589.1	955.818	-29737	0.000000	0.000000	6.835077	0.079520	NaN	0.000000	0.001674	0.001753	28.0801	0.063333	0.001896	33.4101	-163.745	-163.155	0.107637	0.834215	-0.216763	-0.218043	0.079520	33.4101	-0.218548	-263.301	-0.000302	NaN
379	1.000000	0.843522	7.36877e+06	-57589.1	955.819	-29737	0.000000	0.000000	6.843101	-0.003024	NaN	0.000000	0.001639	0.001734	28.08	0.097635	0.001873	52.1252	57.6726	-164.986	0.080989	0.842253	-0.208736	-0.210006	-0.003024	52.1252	-0.208692	-182.652	1.655369E-5	NaN
379	1.000000	0.851518	7.36877e+06	-57589.1	955.819	-29737	0.000000	0.000000	6.851098	0.034044	NaN	0.000000	0.001648	0.001723	28.0803	0.119593	0.002094	57.1051	108.355	-163.457	-0.039695	0.850245	-0.200740	-0.202013	0.034044	57.1051	-0.201187	-137.783	-0.000247	NaN
379	1.000000	0.859480	7.36877e+06	-57589.1	955.819	-29737	0.000000	0.000000	6.859059	0.025171	NaN	0.000000	0.001684	0.001743	28.0799	0.032581	0.002050	15.896	96.7478	-163.937	0.115718	0.858220	-0.192778	-0.194039	0.025171	15.896	-0.193966	-104.727	-0.000240	NaN
379	1.000000	0.867498	7.36877e+06	-57589.1	955.818	-29737	0.000000	0.000000	6.867079	0.042561	NaN	0.000000	0.001675	0.001723	28.08	0.020536	0.002081	9.870461	-15.7454	-166.508	0.118742	0.866189	-0.184760	-0.186070	0.042561	9.870461	-0.187994	-83.2634	-0.000511	NaN
379	1.000000	0.875509	7.36877e+06	-57589.1	955.818	-29737	0.000000	0.000000	6.875089	0.036504	NaN	0.000000	0.001667	0.001691	28.0802	0.096607	0.002003	48.2278	45.2714	-164.425	0.028204	0.874130	-0.176749	-0.178128	0.036504	48.2278	-0.177317	-54.9157	-0.000665	NaN
379	1.000000	0.883508	7.36877e+06	-57589.1	955.818	-29737	0.000000	0.000000	6.883086	-0.002460	NaN	0.000000	0.001675	0.001708	28.08	0.017195	0.001966	8.744408	59.6609	-159.829	0.022981	0.882168	-0.168750	-0.170090	-0.002460	8.744408	-0.168539	-38.7444	6.349464E-5	NaN
379	1.000000	0.891526	7.36877e+06	-57589.1	955.818	-29737	0.000000	0.000000	6.891107	0.054237	NaN	0.000000	0.001646	0.001693	28.08	0.062601	0.002082	30.072	-132.829	-164.798	0.018743	0.890251	-0.160732	-0.162007	0.054237	30.072	-0.162085	-29.8496	-0.001817	NaN
379	1.000000	0.899519	7.36877e+06	-57589.1	955.818	-29737	0.000000	0.000000	6.899097	-0.014078	NaN	0.000000	0.001653	0.001715	28.0799	0.074043	0.002104	35.1971	-14.9292	-168.036	-0.072019	0.898254	-0.152740	-0.154005	-0.014078	35.1971	-0.152440	-20.061	0.000702	NaN
379	1.000000	0.907514	7.36877e+06	-57589.1	955.818	-29737	0.000000	0.000000	6.907095	0.049737	NaN	0.000000	0.001663	0.001731	28.0801	0.052765	0.002037	25.9065	97.0178	-166.697	0.060531	0.906227	-0.144744	-0.146031	0.049737	25.9065	-0.146184	-15.4184	-0.003226	NaN
379	1.000000	0.915539	7.36877e+06	-57589.1	955.818	-29737	0.000000	0.000000	6.915118	0.029129	NaN	0.000000	0.001694	0.001741	28.0802	0.024820	0.001864	13.3138	87.6385	-163.295	0.037043	0.914222	-0.136720	-0.138036	0.029129	13.3138	-0.138360	-11.0177	-0.002644	NaN
379	1.000000	0.923535	7.36877e+06	-57589.1	955.818	-29737	0.000000	0.000000	6.923114	0.019947	NaN	0.000000	0.001683	0.001769	28.0796	0.079926	0.002083	38.3705	-97.5861	-163.966	-0.067454	0.922231	-0.128723	-0.130027	0.019947	38.3705	-0.129113	-7.324149	-0.002723	NaN
379	1.000000	0.931518	7.36877e+06	-57589.1	955.818	-29737	0.000000	0.000000	6.931098	0.011202	NaN	0.000000	0.001685	0.001755	28.0799	0.036616	0.002027	18.0671	-92.9101	-162.86	0.049799	0.930230	-0.120740	-0.122028	0.011202	18.0671	-0.121205	-5.109045	-0.002193	NaN
379	1.000000	0.939535	7.36877e+06	-57589.1	955.818	-29737	0.000000	0.000000	6.939115	0.034245	NaN	0.000000	0.001663	0.001772	28.0787	0.079578	0.001951	40.7922	48.9596	-164.295	-0.023542	0.938214	-0.112723	-0.114045	0.034245	40.7922	-0.113353	-3.532001	-0.009696	NaN
379	1.000000	0.947563	7.36877e+06	-57589.1	955.818	-29737	0.000000	0.000000	6.947142	-0.010007	NaN	0.000000	0.001645	0.001756	28.0788	0.102957	0.002078	49.537	137.22	-162.449	0.008797	0.946223	-0.104695	-0.106036	-0.010007	49.537	-0.104543	-2.297713	0.004355	NaN
379	1.000000	0.955554	7.36877e+06	-57589.1	955.818	-29737	0.000000	0.000000	6.955133	0.004363	NaN	0.000000	0.001633	0.001720	28.0789	0.133887	0.001857	72.0837	-105.984	-165.218	0.010836	0.954276	-0.096704	-0.097982	0.004363	72.0837	-0.096749	-1.545523	-0.002823	NaN
379	1.000000	0.963537	7.36877e+06	-57589.1	955.818	-29737	0.000000	0.000000	6.963117	0.033758	NaN	0.000000	0.001658	0.001724	28.0788	0.083809	0.002025	41.3819	7.389895	-164.683	0.007222	0.962200	-0.088721	-0.090058	0.033758	41.3819	-0.089333	-1.042645	-0.032377	NaN
379	1.000000	0.971554	7.36877e+06	-57589.1	955.819	-29737	0.000000	0.000000	6.971136	0.065338	NaN	0.000000	0.001632	0.001736	28.079	0.137968	0.002269	60.8151	126.59	-165.074	0.106529	0.970247	-0.080704	-0.082011	0.065338	60.8151	-0.081510	-0.674913	-0.096809	NaN
379	1.000000	0.979561	7.36877e+06	-57589.1	955.818	-29737	0.000000	0.000000	6.979139	-0.014618	NaN	0.000000	0.001668	0.001745	28.0787	0.056944	0.002081	27.3687	-85.8548	-166.093	0.054014	0.978233	-0.072697	-0.074025	-0.014618	27.3687	-0.072296	-0.392565	0.037238	NaN
379	1.000000	0.987568	7.36877e+06	-57589.1	955.818	-29737	0.000000	0.000000	6.987147	0.025363	NaN	0.000000	0.001671	0.001722	28.0789	0.115684	0.002129	54.3428	-88.4035	-163.551	0.005184	0.986272	-0.064691	-0.065986	0.025363	54.3428	-0.065041	-0.249863	-0.101506	NaN
379	1.000000	0.995580	7.36877e+06	-57589.1	955.818	-29737	0.000000	0.000000	6.995161	0.066316	NaN	0.000000	0.001674	0.001698	28.0788	0.078703	0.001928	40.8173	88.5458	-166.294	0.051271	0.994173	-0.056678	-0.058085	0.066316	40.8173	-0.057897	-0.156591	-0.423500	NaN
379	1.000000	1.003542	7.36877e+06	-57589.1	955.819	-29737	0.000000	0.000000	7.003123	0.057024	NaN	0.000000	0.001662	0.001735	28.0789	0.070219	0.002009	34.9498	27.4013	-161.533	0.056815	1.002197	-0.048716	-0.050061	0.057024	34.9498	-0.049940	-0.090871	-0.627527	NaN
379	1.000000	1.011578	7.36877e+06	-57589.1	955.819	-29737	0.000000	0.000000	7.011159	0.061364	NaN	0.000000	0.001646	0.001663	28.0793	0.106158	0.001988	53.388	171.962	-162.694	-0.021341	1.010238	-0.040681	-0.042020	0.061364	53.388	-0.041543	-0.050386	-1.217874	NaN
379	1.000000	1.019578	7.36877e+06	-57589.1	955.82	-29737	0.000000	0.000000	7.019157	0.019214	NaN	0.000000	0.001665	0.001736	28.0788	0.035061	0.002031	17.2638	52.4901	-168.808	0.003921	1.018221	-0.032680	-0.034038	0.019214	17.2638	-0.033515	-0.028977	-0.663083	NaN
379	1.000000	1.027537	7.36877e+06	-57589.1	955.82	-29737	0.000000	0.000000	7.027116	0.008273	NaN	0.000000	0.001659	0.001722	28.0789	0.033491	0.001878	17.8291	155.799	-164.572	-0.003507	1.026274	-0.024721	-0.025984	0.008273	17.8291	-0.025069	-0.016941	-0.488354	NaN
379	1.000000	1.035595	7.36877e+06	-57589.1	955.819	-29737	0.000000	0.000000	7.035174	0.007425	NaN	0.000000	0.001661	0.001669	28.0786	0.044114	0.001868	23.6158	14.1968	-162.53	0.034408	1.034233	-0.016663	-0.018025	0.007425	23.6158	-0.016899	-0.010446	-0.710772	NaN
379	1.000000	1.043575	7.36877e+06	-57589.1	955.819	-29737	0.000000	0.000000	7.043156	0.040423	NaN	0.000000	0.001628	0.001715	28.0788	0.199442	0.001973	101.095	-71.521	-165.928	0.066083	1.042326	-0.008683	-0.009932	0.040423	101.095	-0.008983	-0.005803	-6.965953	NaN
379	1.000000	1.051584	7.36877e+06	-57589.1	955.82	-29737	0.000000	0.000000	7.051164	0.050596	NaN	0.000000	0.001661	0.001705	28.0788	0.058189	0.001878	30.9776	106.178	-165.333	0.075274	1.050269	-0.000675	-0.001989	0.050596	30.9776	-0.001900	-0.001370	-36.9421	NaN
379	1.000000	1.059599	7.36877e+06	-57589.1	955.819	-29737	0.000000	0.000000	7.059356	4.351148	NaN	0.000000	0.001636	0.001662	28.0787	5.302755	0.001812	2927.07	14.4803	-171.918	3.907025	1.058239	0.007340	0.005980	4.351148	2927.07	0.006226	0.005280	824.114	36804.3
379	2.000000	1.065208	7.36877e+06	-57589.1	955.818	-29737	0.000000	0.000000	7.065165	9.180356	NaN	0.000000	0.001639	0.001703	28.0789	10.3466	0.001738	5952.74	9.084635	-174.688	8.686584	1.064854	0.012950	0.012596	9.180356	5952.74	0.011793	0.011243	816.51	51291
379	2.000000	1.067165	7.36877e+06	-57589.1	955.818	-29737	0.000000	0.000000	7.067217	11.5098	NaN	0.000000	0.001621	0.001710	28.0801	11.8915	0.001678	7084.69	8.994933	-174.536	12.179	1.066897	0.014907	0.014639	11.5098	7084.69	0.013688	0.013576	847.81	55553.4
379	2.000000	1.069138	7.36877e+06	-57589.1	955.818	-29737	0.000000	0.000000	7.069232	12.523	NaN	0.000000	0.001685	0.001735	28.0804	14.1275	0.001857	7608.68	6.946790	-172.864	12.2122	1.068856	0.016880	0.016597	12.523	7608.68	0.015645	0.016155	775.155	54691.8
379	2.000000	1.071121	7.36877e+06	-57589.1	955.819	-29737	0.000000	0.000000	7.071425	17.6443	NaN	0.000000	0.001678	0.001710	28.0799	16.3054	0.001793	9095.41	5.696323	-174.006	16.4694	1.070830	0.018862	0.018571	17.6443	9095.41	0.017407	0.018631	947.044	60880.6
379	2.000000	1.073088	7.36877e+06	-57589.1	955.82	-29737	0.000000	0.000000	7.073344	16.4596	NaN	0.000000	0.001642	0.001703	28.0799	18.1952	0.001833	9926.65	4.273139	-173.323	15.8121	1.072759	0.020830	0.020501	16.4596	9926.65	0.019586	0.021896	751.714	61290.5
379	2.000000	1.075120	7.36877e+06	-57589.1	955.819	-29737	0.000000	0.000000	7.075673	23.6709	NaN	0.000000	0.001621	0.001705	28.0802	21.6813	0.001785	12143.8	11.1146	178.787	23.8398	1.074795	0.022862	0.022537	23.6709	12143.8	0.021400	0.024790	954.866	70467.8
379	2.000000	1.077111	7.36877e+06	-57589.1	955.82	-29737	0.000000	0.000000	7.077794	26.8539	NaN	0.000000	0.001650	0.001675	28.0803	22.9969	0.001812	12694.4	7.116104	-177.931	26.5235	1.076819	0.024852	0.024561	26.8539	12694.4	0.023266	0.027936	961.266	69390.9
379	2.000000	1.079110	7.36877e+06	-57589.1	955.819	-29737	0.000000	0.000000	7.079881	28.9593	NaN	0.000000	0.001635	0.001712	28.0809	25.3865	0.001906	13317.3	10.2072	-178.81	29.6575	1.078827	0.026852	0.026569	28.9593	13317.3	0.025221	0.031419	921.701	68641.9
379	2.000000	1.081095	7.36877e+06	-57589.1	955.82	-29737	0.000000	0.000000	7.082094	34.5394	NaN	0.000000	0.001613	0.001720	28.0799	26.5	0.001767	14996	6.013536	-179.279	33.4741	1.080801	0.028836	0.028543	34.5394	14996	0.027109	0.034965	987.841	73271.3
379	2.000000	1.083090	7.36877e+06	-57589.1	955.818	-29737	0.000000	0.000000	7.084235	38.0776	NaN	0.000000	0.001641	0.001717	28.0801	28.511	0.001697	16805.8	2.258757	-176.562	36.1768	1.082780	0.030831	0.030522	38.0776	16805.8	0.029132	0.038964	977.25	77785.6
379	2.000000	1.085205	7.36877e+06	-57589.1	955.82	-29737	0.000000	0.000000	7.086499	41.6845	NaN	0.000000	0.001655	0.001672	28.0801	30.7121	0.001678	18305.6	7.062688	179.628	44.8769	1.084768	0.032947	0.032509	41.6845	18305.6	0.031239	0.043350	961.57	80326.9
379	2.000000	1.087082	7.36877e+06	-57589.1	955.818	-29737	0.000000	0.000000	7.088614	47.466	NaN	0.000000	0.001664	0.001730	28.0801	32.4338	0.001788	18138.3	5.634813	-179.323	46.2742	1.086746	0.034824	0.034488	47.466	18138.3	0.032861	0.046884	1012.42	76534.7
379	2.000000	1.089150	7.36877e+06	-57589.1	955.819	-29737	0.000000	0.000000	7.090769	49.5889	NaN	0.000000	0.001648	0.001745	28.0805	35.275	0.001847	19097.4	5.661811	179.987	51.6543	1.088800	0.036892	0.036542	49.5889	19097.4	0.034944	0.051617	960.717	76798.5
379	2.000000	1.091092	7.36877e+06	-57589.1	955.818	-29737	0.000000	0.000000	7.092964	55.7403	NaN	0.000000	0.001636	0.001767	28.08	36.3519	0.001852	19630.8	7.488793	178.773	58.9547	1.090784	0.038834	0.038526	55.7403	19630.8	0.036704	0.055789	999.125	75934.1
379	2.000000	1.093062	7.36877e+06	-57589.1	955.819	-29737	0.000000	0.000000	7.095283	64.2372	NaN	0.000000	0.001628	0.001750	28.0801	38.8404	0.001870	20772.8	5.350689	179.15	63.3206	1.092778	0.040803	0.040519	64.2372	20772.8	0.038484	0.060170	1067.6	77371.2
379	2.000000	1.095106	7.36877e+06	-57589.1	955.819	-29737	0.000000	0.000000	7.097503	68.4798	NaN	0.000000	0.001659	0.001704	28.0799	40.089	0.001808	22172.1	4.582747	179.324	68.4219	1.094793	0.042848	0.042534	68.4798	22172.1	0.040532	0.065410	1046.93	79206.2
379	2.000000	1.096997	7.36877e+06	-57589.1	955.818	-29737	0.000000	0.000000	7.099813	78.6816	NaN	0.000000	0.001698	0.001728	28.08	41.4647	0.001699	24405.9	5.450775	177.644	75.6538	1.096686	0.044739	0.044428	78.6816	24405.9	0.042321	0.070165	1121.38	84179.8
379	2.000000	1.099047	7.36877e+06	-57589.1	955.818	-29737	0.000000	0.000000	7.102139	85.3758	NaN	0.000000	0.001672	0.001691	28.0802	44.177	0.001759	25118.3	6.513380	176.46	84.4901	1.098690	0.046789	0.046432	85.3758	25118.3	0.044240	0.075444	1131.64	83550.5
379	2.000000	1.101091	7.36878e+06	-57589.1	955.819	-29737	0.000000	0.000000	7.104488	92.8041	NaN	0.000000	0.001657	0.001737	28.079	44.455	0.001604	27715.2	0.790195	-178.394	94.7433	1.100769	0.048833	0.048511	92.8041	27715.2	0.046321	0.081383	1140.34	88761.7
379	2.000000	1.103018	7.36878e+06	-57589.1	955.818	-29737	0.000000	0.000000	7.106492	94.6809	NaN	0.000000	0.001639	0.001730	28.0799	49.7286	0.001895	26240	8.129271	174.164	92.1973	1.102734	0.050760	0.050476	94.6809	26240	0.048053	0.086491	1094.69	81517.4
379	2.000000	1.105049	7.36878e+06	-57589.1	955.821	-29737	0.000000	0.000000	7.109137	109.586	NaN	0.000000	0.001663	0.001712	28.0786	50.6086	0.001878	26941.9	3.689318	179.193	107.816	1.104723	0.052791	0.052465	109.586	26941.9	0.049741	0.091613	1196.19	81324.9
379	2.000000	1.107047	7.36878e+06	-57589.1	955.819	-29737	0.000000	0.000000	7.111443	117.081	NaN	0.000000	0.001647	0.001713	28.0785	52.5627	0.001855	28336.5	5.477989	175.625	115.923	1.106760	0.054788	0.054502	117.081	28336.5	0.051690	0.097707	1198.29	82823.9
379	2.000000	1.109030	7.36878e+06	-57589.1	955.819	-29737	0.000000	0.000000	7.113656	122.662	NaN	0.000000	0.001677	0.001716	28.0789	54.0454	0.001694	31907.7	3.674240	176.93	120.674	1.108781	0.056772	0.056523	122.662	31907.7	0.053889	0.104811	1170.32	90046.4
379	2.000000	1.111063	7.36878e+06	-57589.1	955.819	-29737	0.000000	0.000000	7.115956	129.172	NaN	0.000000	0.001676	0.001728	28.0785	56.078	0.001785	31414.9	7.068097	173.742	132.089	1.110839	0.058804	0.058581	129.172	31414.9	0.055721	0.110912	1164.64	86182.9
379	2.000000	1.112986	7.36878e+06	-57589.1	955.819	-29737	0.000000	0.000000	7.118494	144.101	NaN	0.000000	0.001631	0.001759	28.0789	58.1341	0.001786	32552.6	5.897815	174.35	139.788	1.112670	0.060728	0.060412	144.101	32552.6	0.057408	0.116677	1235.04	87069.7
379	2.000000	1.114984	7.36878e+06	-57589.1	955.818	-29737	0.000000	0.000000	7.120930	154.741	NaN	0.000000	0.001662	0.001747	28.0785	58.9169	0.001844	31947.7	2.175612	179.16	149.787	1.114647	0.062726	0.062389	154.741	31947.7	0.059093	0.122577	1262.4	83369.7
379	2.000000	1.117036	7.36878e+06	-57589.1	955.819	-29737	0.000000	0.000000	7.122968	154.435	NaN	0.000000	0.001635	0.001708	28.0787	61.0537	0.001744	35009.6	4.450519	175.557	153.684	1.116697	0.064777	0.064439	154.435	35009.6	0.061469	0.131128	1177.74	88330.9
379	2.000000	1.119121	7.36878e+06	-57589.1	955.819	-29737	0.000000	0.000000	7.124902	150.74	NaN	0.000000	0.001641	0.001730	28.0788	64.2472	0.001919	33484.6	4.051541	176.25	154.152	1.118934	0.066863	0.066676	150.74	33484.6	0.063486	0.138606	1087.54	82172.5
379	2.000000	1.120965	7.36878e+06	-57589.1	955.82	-29737	0.000000	0.000000	7.127824	176.942	NaN	0.000000	0.001620	0.001725	28.0784	64.6926	0.001791	36129.5	5.524358	174.13	173.346	1.120631	0.068707	0.068373	176.942	36129.5	0.065034	0.144474	1224.73	86844.1
379	2.000000	1.123015	7.36878e+06	-57589.1	955.819	-29737	0.000000	0.000000	7.130308	187.502	NaN	0.000000	0.001616	0.001692	28.0787	66.7038	0.001758	37952.7	5.575291	174.624	187.204	1.122649	0.070757	0.070390	187.502	37952.7	0.067051	0.152301	1231.13	88851.5
379	2.000000	1.125098	7.36878e+06	-57589.1	955.819	-29737	0.000000	0.000000	7.132824	198.008	NaN	0.000000	0.001598	0.001725	28.0784	69.1013	0.001809	38205.7	7.688415	172.817	199.357	1.124608	0.072840	0.072350	198.008	38205.7	0.068953	0.159855	1238.67	87305
379	2.000000	1.126967	7.36878e+06	-57589.1	955.819	-29737	0.000000	0.000000	7.135251	211.567	NaN	0.000000	0.001605	0.001719	28.0786	70.1543	0.001892	37086.3	6.130732	174.251	210.133	1.126599	0.074709	0.074341	211.567	37086.3	0.070431	0.165844	1275.7	83202.5
379	2.000000	1.128983	7.36878e+06	-57589.1	955.819	-29737	0.000000	0.000000	7.137583	219.263	NaN	0.000000	0.001635	0.001707	28.0787	73.0425	0.001831	39887.9	5.301402	174.325	218.012	1.128682	0.076725	0.076423	219.263	39887.9	0.072602	0.174834	1254.12	87156.8
379	2.000000	1.131080	7.36878e+06	-57589.1	955.819	-29737	0.000000	0.000000	7.140248	233.056	NaN	0.000000	0.001614	0.001728	28.0784	73.4862	0.001633	44997.5	6.934020	171.636	234.819	1.130642	0.078822	0.078384	233.056	44997.5	0.074937	0.184750	1261.47	95646.6
379	2.000000	1.132985	7.36878e+06	-57589.1	955.82	-29737	0.000000	0.000000	7.142597	243.873	NaN	0.000000	0.001642	0.001706	28.0786	76.7214	0.001758	43651.5	7.502281	170.235	242.819	1.132686	0.080726	0.080428	243.873	43651.5	0.076536	0.191688	1272.24	91090.8
379	2.000000	1.135075	7.36878e+06	-57589.1	955.82	-29737	0.000000	0.000000	7.145002	251.516	NaN	0.000000	0.001654	0.001738	28.0796	78.5714	0.001852	42416.8	6.824457	172.226	252.53	1.134748	0.082817	0.082490	251.516	42416.8	0.078370	0.199791	1258.9	86700.9
379	2.000000	1.137045	7.36878e+06	-57589.1	955.82	-29737	0.000000	0.000000	7.147556	265.7	NaN	0.000000	0.001612	0.001720	28.0798	80.6314	0.001847	43648.5	6.476782	172.161	268.439	1.136738	0.084787	0.084479	265.7	43648.5	0.080222	0.208136	1276.57	87411.5
379	2.000000	1.139016	7.36878e+06	-57589.1	955.82	-29737	0.000000	0.000000	7.149628	268.17	NaN	0.000000	0.001655	0.001714	28.08	82.2289	0.001900	43278.2	2.844408	175.726	265.863	1.138797	0.086757	0.086539	268.17	43278.2	0.082110	0.216809	1236.9	84918.8
379	2.000000	1.141062	7.36878e+06	-57589.1	955.819	-29737	0.000000	0.000000	7.152639	291.611	NaN	0.000000	0.001641	0.001726	28.0797	83.5592	0.001762	47419.3	6.922034	171.249	296.031	1.140692	0.088804	0.088434	291.611	47419.3	0.084191	0.226559	1287.13	91020.1
379	2.000000	1.143001	7.36878e+06	-57589.1	955.819	-29737	0.000000	0.000000	7.154969	301.114	NaN	0.000000	0.001644	0.001697	28.0798	85.7767	0.001787	47989	4.998798	173.074	300.894	1.142654	0.090743	0.090396	301.114	47989	0.086037	0.235373	1279.3	90372.6
379	2.000000	1.144980	7.36878e+06	-57589.1	955.817	-29737	0.000000	0.000000	7.157450	313.33	NaN	0.000000	0.001649	0.001684	28.0797	87.1667	0.001856	46973.4	4.072580	174.296	310.634	1.144599	0.092721	0.092340	313.33	46973.4	0.087719	0.243541	1286.56	86963.9
379	2.000000	1.146955	7.36878e+06	-57589.1	955.819	-29737	0.000000	0.000000	7.159932	325.642	NaN	0.000000	0.001663	0.001704	28.0798	88.3843	0.001831	48259	4.135270	173.981	322.695	1.146637	0.094697	0.094379	325.642	48259	0.089636	0.253012	1287.06	87655.7
379	2.000000	1.149057	7.36878e+06	-57589.1	955.819	-29737	0.000000	0.000000	7.162628	340.066	NaN	0.000000	0.001676	0.001735	28.08	90.6855	0.001746	51926.6	3.594144	173.789	344.225	1.148666	0.096799	0.096408	340.066	51926.6	0.091887	0.264348	1286.44	92273.2
379	2.000000	1.151076	7.36878e+06	-57589.1	955.819	-29737	0.000000	0.000000	7.165376	357.802	NaN	0.000000	0.001662	0.001738	28.08	90.8001	0.001734	52371.1	3.676587	174.147	361.863	1.150634	0.098817	0.098376	357.802	52371.1	0.093693	0.273610	1307.71	91474.3
379	2.000000	1.153067	7.36878e+06	-57589.1	955.82	-29737	0.000000	0.000000	7.167712	366.181	NaN	0.000000	0.001708	0.001748	28.0798	94.2368	0.001725	54644.7	5.503144	171.788	370.659	1.152649	0.100808	0.100391	366.181	54644.7	0.095783	0.284510	1287.06	93599.2
379	2.000000	1.154976	7.36878e+06	-57589.1	955.82	-29737	0.000000	0.000000	7.170525	388.139	NaN	0.000000	0.001683	0.001752	28.0798	96.5459	0.001757	54943.8	6.710005	170.789	384.511	1.154620	0.102718	0.102362	388.139	54943.8	0.097420	0.293189	1323.85	92708.1
379	2.000000	1.156901	7.36878e+06	-57589.1	955.82	-29737	0.000000	0.000000	7.172832	397.434	NaN	0.000000	0.001711	0.001715	28.0799	97.4208	0.001824	53417.6	2.351969	174.947	391.42	1.156674	0.104643	0.104416	397.434	53417.6	0.099063	0.302026	1315.89	88804.6
379	2.000000	1.158934	7.36878e+06	-57589.1	955.821	-29737	0.000000	0.000000	7.175711	417.992	NaN	0.000000	0.001738	0.001724	28.0799	101.159	0.001898	53300.2	4.087826	172.881	415.37	1.158627	0.106676	0.106369	417.992	53300.2	0.100794	0.311468	1342.01	87256
379	2.000000	1.160896	7.36878e+06	-57589.1	955.82	-29737	0.000000	0.000000	7.178278	432.691	NaN	0.000000	0.001687	0.001666	28.0797	101.889	0.001867	54562.3	6.431276	170.675	427.522	1.160594	0.108638	0.108336	432.691	54562.3	0.102690	0.321965	1343.91	87854
379	2.000000	1.162999	7.36878e+06	-57589.1	955.82	-29737	0.000000	0.000000	7.180907	445.479	NaN	0.000000	0.001695	0.001673	28.0799	102.858	0.001725	59613.3	2.980986	173.357	447.977	1.162747	0.110741	0.110489	445.479	59613.3	0.105136	0.335745	1326.84	93996.5