File: remote_trans/data/nanoindenter/0828-1/data/Data_2025-08-06,11h17m57s/2025-07-22_16-23-58_1_133.txt
2025-07-22, 16:23:58, 1
Index	Phase	Displacement	Time	Pos X	Pos Y	Pos Z	Rot A	Rot B	Piezo Z	Force A	Force B	Gripper	Voltage A	Voltage B	Temperature	Amplitude force	Amplitude pos	Stiffness	Phase shift	Phase excitation	Force A raw	Displacement raw	HMax	HMax raw	Real Force	Real Stiffness	Contact Depth	Area	Hardness	Reduced Mod.
[#]	[#]	[um]	[s]	[um]	[um]	[um]	[m°]	[m°]	[um]	[uN]	[uN]	[V]	[V]	[V]	[°C]	[uN]	[um]	[N/m]	[°]	[°]	[uN]	[um]	[um]	[um]	[uN]	[N/m]	[um]	[um^2]	[MPa]	[MPa]
133	1.000000	0.002649	7.36634e+06	-45289.1	955.819	-29773.4	0.000000	0.000000	6.002795	-0.046362	NaN	0.000000	0.001492	0.001688	28.1188	0.057746	0.000837	68.9821	139.321	-156.414	-0.033378	0.001384	-1.093957	-1.095223	-0.046362	68.9821	-1.093453	-4.094306E+14	1.132348E-16	NaN
133	1.000000	0.012734	7.36634e+06	-45289.1	955.818	-29773.4	0.000000	0.000000	6.012881	-0.011758	NaN	0.000000	0.001490	0.001698	28.0822	0.015520	0.001223	12.6953	138.222	16.8742	0.000749	0.011241	-1.083873	-1.085366	-0.011758	12.6953	-1.083179	-2.979961E+14	3.945523E-17	NaN
133	1.000000	0.022599	7.36634e+06	-45289.1	955.819	-29773.4	0.000000	0.000000	6.022747	0.008372	NaN	0.000000	0.001513	0.001687	28.0812	0.005690	0.001765	3.223363	133.315	-164.771	-0.000613	0.021323	-1.074007	-1.075284	0.008372	3.223363	-1.075956	-2.383389E+14	-3.512854E-17	NaN
133	1.000000	0.032587	7.36634e+06	-45289.1	955.82	-29773.4	0.000000	0.000000	6.032733	-0.038434	NaN	0.000000	0.001524	0.001675	28.1182	0.060591	0.001862	32.5443	-119.6	13.9328	-0.070412	0.031299	-1.064020	-1.065308	-0.038434	32.5443	-1.063134	-1.603027E+14	2.397609E-16	NaN
133	1.000000	0.042605	7.36634e+06	-45289.1	955.818	-29773.4	0.000000	0.000000	6.042751	-0.036957	NaN	0.000000	0.001541	0.001710	28.1178	0.064999	0.002044	31.7929	39.9387	-164.167	0.009084	0.041292	-1.054002	-1.055315	-0.036957	31.7929	-1.053130	-1.176216E+14	3.141984E-16	NaN
133	1.000000	0.052592	7.36634e+06	-45289.1	955.819	-29773.4	0.000000	0.000000	6.052738	-0.044350	NaN	0.000000	0.001595	0.001685	28.0818	0.054044	0.001938	27.8876	1.285140	15.9798	-0.032234	0.051263	-1.044014	-1.045344	-0.044350	27.8876	-1.042822	-8.548854E+13	5.187863E-16	NaN
133	1.000000	0.062626	7.36634e+06	-45289.1	955.818	-29773.4	0.000000	0.000000	6.062771	-0.058251	NaN	0.000000	0.001592	0.001656	28.0822	0.045520	0.002019	22.5454	-135.833	-161.301	-0.021632	0.061305	-1.033981	-1.035302	-0.058251	22.5454	-1.032043	-6.122967E+13	9.513533E-16	NaN
133	1.000000	0.072631	7.36634e+06	-45289.1	955.819	-29773.4	0.000000	0.000000	6.072778	-0.002474	NaN	0.000000	0.001528	0.001676	28.1193	0.056603	0.001902	29.7653	-12.2621	16.8699	-0.026752	0.071279	-1.023976	-1.025328	-0.002474	29.7653	-1.023913	-4.759961E+13	5.198287E-17	NaN
133	1.000000	0.082612	7.36634e+06	-45289.1	955.818	-29773.4	0.000000	0.000000	6.082756	-0.071500	NaN	0.000000	0.001517	0.001708	28.1189	0.099340	0.001876	52.9394	5.637659	-164.954	-0.057836	0.081344	-1.013995	-1.015263	-0.071500	52.9394	-1.012982	-3.392501E+13	2.107603E-15	NaN
133	1.000000	0.092653	7.36634e+06	-45289.1	955.819	-29773.4	0.000000	0.000000	6.092800	-0.014408	NaN	0.000000	0.001530	0.001676	28.0821	0.034346	0.001861	18.4543	115.406	14.3906	0.013687	0.091286	-1.003954	-1.005320	-0.014408	18.4543	-1.003368	-2.518357E+13	5.721289E-16	NaN
133	1.000000	0.102604	7.36634e+06	-45289.1	955.818	-29773.4	0.000000	0.000000	6.102749	-0.063410	NaN	0.000000	0.001557	0.001665	28.0797	0.066878	0.002037	32.8245	-44.969	-166.104	-0.105720	0.101316	-0.994003	-0.995291	-0.063410	32.8245	-0.992554	-1.800989E+13	3.520868E-15	NaN
133	1.000000	0.112618	7.36634e+06	-45289.1	955.818	-29773.4	0.000000	0.000000	6.112764	-0.029868	NaN	0.000000	0.001524	0.001652	28.1165	0.159475	0.002080	76.6803	146.042	13.7556	0.057451	0.111225	-0.983989	-0.985382	-0.029868	76.6803	-0.983697	-1.368397E+13	2.182724E-15	NaN
133	1.000000	0.122640	7.36634e+06	-45289.1	955.818	-29773.4	0.000000	0.000000	6.122789	0.037094	NaN	0.000000	0.001557	0.001686	28.1167	0.099212	0.002042	48.5897	150.163	-164.491	-0.003078	0.121313	-0.973967	-0.975294	0.037094	48.5897	-0.974539	-1.029994E+13	-3.601358E-15	NaN
133	1.000000	0.132629	7.36634e+06	-45289.1	955.818	-29773.4	0.000000	0.000000	6.132775	-0.034336	NaN	0.000000	0.001532	0.001684	28.0809	0.126871	0.002023	62.7179	-48.4271	15.8092	-0.018842	0.131282	-0.963978	-0.965324	-0.034336	62.7179	-0.963567	-7.327597E+12	4.685807E-15	NaN
133	1.000000	0.142646	7.36634e+06	-45289.1	955.818	-29773.5	0.000000	0.000000	6.142791	-0.057006	NaN	0.000000	0.001538	0.001697	28.0801	0.080533	0.002095	38.4362	-116.043	-162.351	-0.168492	0.141362	-0.953960	-0.955245	-0.057006	38.4362	-0.952848	-5.253360E+12	1.085133E-14	NaN
133	1.000000	0.152649	7.36634e+06	-45289.1	955.817	-29773.4	0.000000	0.000000	6.152799	0.067636	NaN	0.000000	0.001518	0.001689	28.1173	0.082459	0.002035	40.5121	104.598	13.8327	0.031341	0.151290	-0.943958	-0.945317	0.067636	40.5121	-0.945210	-4.143993E+12	-1.632147E-14	NaN
133	1.000000	0.162678	7.36634e+06	-45289.1	955.818	-29773.5	0.000000	0.000000	6.162824	-0.045158	NaN	0.000000	0.001504	0.001654	28.118	0.072882	0.002077	35.0829	-11.9081	-164.046	-0.072486	0.161412	-0.933929	-0.935195	-0.045158	35.0829	-0.932963	-2.832609E+12	1.594228E-14	NaN
133	1.000000	0.172658	7.36634e+06	-45289.1	955.817	-29773.5	0.000000	0.000000	6.172804	-0.049925	NaN	0.000000	0.001516	0.001617	28.0816	0.025555	0.002165	11.8013	-29.2982	16.9651	-0.073597	0.171339	-0.923948	-0.925268	-0.049925	11.8013	-0.920776	-1.939446E+12	2.574181E-14	NaN
133	1.000000	0.182654	7.36634e+06	-45289.1	955.818	-29773.5	0.000000	0.000000	6.182800	-0.052910	NaN	0.000000	0.001542	0.001657	28.0814	0.059310	0.002021	29.3498	94.643	-164.212	0.013281	0.181320	-0.913953	-0.915286	-0.052910	29.3498	-0.912600	-1.504130E+12	3.517629E-14	NaN
133	1.000000	0.192661	7.36634e+06	-45289.1	955.818	-29773.5	0.000000	0.000000	6.192808	-0.004716	NaN	0.000000	0.001516	0.001659	28.1163	0.105910	0.001994	53.1244	-115.948	16.0533	0.005271	0.191285	-0.903946	-0.905322	-0.004716	53.1244	-0.903879	-1.146784E+12	4.112661E-15	NaN
133	1.000000	0.202653	7.36634e+06	-45289.1	955.818	-29773.5	0.000000	0.000000	6.202799	-0.032963	NaN	0.000000	0.001503	0.001664	28.1171	0.097740	0.001985	49.2469	22.3255	-166.551	-0.057210	0.201352	-0.893954	-0.895255	-0.032963	49.2469	-0.893452	-8.290493E+11	3.976033E-14	NaN
133	1.000000	0.212670	7.36634e+06	-45289.1	955.818	-29773.5	0.000000	0.000000	6.212816	-0.030080	NaN	0.000000	0.001522	0.001640	28.0813	0.036554	0.001973	18.5227	42.245	12.9965	-0.043973	0.211332	-0.883937	-0.885275	-0.030080	18.5227	-0.882719	-5.935728E+11	5.067665E-14	NaN
133	1.000000	0.222692	7.36634e+06	-45289.1	955.818	-29773.5	0.000000	0.000000	6.222842	0.052809	NaN	0.000000	0.001543	0.001652	28.0807	0.068883	0.001980	34.797	-163.74	-163.788	0.046081	0.221395	-0.873915	-0.875212	0.052809	34.797	-0.875053	-4.675198E+11	-1.129549E-13	NaN
133	1.000000	0.232696	7.36634e+06	-45289.1	955.819	-29773.5	0.000000	0.000000	6.232846	0.043711	NaN	0.000000	0.001575	0.001650	28.1183	0.037035	0.002181	16.9788	176.994	12.6789	0.018814	0.231351	-0.863911	-0.865256	0.043711	16.9788	-0.865841	-3.508933E+11	-1.245694E-13	NaN
133	1.000000	0.242696	7.36634e+06	-45289.1	955.818	-29773.5	0.000000	0.000000	6.242841	-0.050888	NaN	0.000000	0.001556	0.001691	28.1196	0.157917	0.001825	86.537	-143.434	-160.225	-0.035288	0.241344	-0.853911	-0.855263	-0.050888	86.537	-0.853470	-2.386289E+11	2.132514E-13	NaN
133	1.000000	0.252678	7.36634e+06	-45289.1	955.818	-29773.5	0.000000	0.000000	6.252823	-0.040478	NaN	0.000000	0.001559	0.001688	28.082	0.082131	0.001976	41.5546	40.9668	16.4979	-0.035506	0.251279	-0.843929	-0.845328	-0.040478	41.5546	-0.843199	-1.732302E+11	2.336686E-13	NaN
133	1.000000	0.262709	7.36634e+06	-45289.1	955.818	-29773.5	0.000000	0.000000	6.262855	-0.017618	NaN	0.000000	0.001536	0.001718	28.0819	0.071970	0.002002	35.9448	-98.6289	-164.967	0.018631	0.261387	-0.833898	-0.835220	-0.017618	35.9448	-0.833531	-1.281250E+11	1.375047E-13	NaN
133	1.000000	0.272717	7.36634e+06	-45289.1	955.818	-29773.5	0.000000	0.000000	6.272865	0.012047	NaN	0.000000	0.001564	0.001711	28.1169	0.079594	0.002094	38.0155	-136.889	15.6708	-0.026122	0.271299	-0.823890	-0.825308	0.012047	38.0155	-0.824128	-9.553934E+10	-1.260996E-13	NaN
133	1.000000	0.282698	7.36634e+06	-45289.1	955.819	-29773.5	0.000000	0.000000	6.282847	0.037725	NaN	0.000000	0.001512	0.001729	28.1191	0.037812	0.002028	18.6469	3.779649	-160.648	0.029083	0.281395	-0.813909	-0.815212	0.037725	18.6469	-0.815426	-7.280827E+10	-5.181403E-13	NaN
133	1.000000	0.292737	7.36634e+06	-45289.1	955.818	-29773.5	0.000000	0.000000	6.292883	-0.035739	NaN	0.000000	0.001528	0.001710	28.0808	0.090260	0.002039	44.2597	-170.558	14.5703	-0.042998	0.291366	-0.803870	-0.805241	-0.035739	44.2597	-0.803264	-4.979337E+10	7.177491E-13	NaN
133	1.000000	0.302716	7.36634e+06	-45289.1	955.818	-29773.5	0.000000	0.000000	6.302863	-0.011772	NaN	0.000000	0.001510	0.001699	28.0815	0.062174	0.001996	31.1547	-103.797	-161.424	-0.014666	0.301380	-0.793890	-0.795227	-0.011772	31.1547	-0.793607	-3.681869E+10	3.197368E-13	NaN
133	1.000000	0.312711	7.36634e+06	-45289.1	955.818	-29773.5	0.000000	0.000000	6.312856	-0.068247	NaN	0.000000	0.001545	0.001711	28.1179	0.003015	0.001999	1.507786	-92.4757	14.5498	0.016031	0.311355	-0.783895	-0.785252	-0.068247	1.507786	-0.749948	-9.386657E+9	7.270685E-12	NaN
133	1.000000	0.322690	7.36634e+06	-45289.1	955.818	-29773.5	0.000000	0.000000	6.322838	-0.003876	NaN	0.000000	0.001545	0.001729	28.1199	0.080997	0.001906	42.5041	31.1653	-162.311	0.024094	0.321365	-0.773916	-0.775242	-0.003876	42.5041	-0.773848	-1.984355E+10	1.953241E-13	NaN
133	1.000000	0.332724	7.36634e+06	-45289.1	955.819	-29773.5	0.000000	0.000000	6.332870	-0.032982	NaN	0.000000	0.001526	0.001725	28.0831	0.122722	0.001886	65.0813	156.936	16.8443	-0.047869	0.331366	-0.763883	-0.765241	-0.032982	65.0813	-0.763503	-1.435331E+10	2.297850E-12	NaN
133	1.000000	0.342696	7.36634e+06	-45289.1	955.819	-29773.5	0.000000	0.000000	6.342838	-0.119259	NaN	0.000000	0.001530	0.001712	28.0833	0.032844	0.002079	15.7984	-98.1394	-161.94	-0.137893	0.341393	-0.753911	-0.755214	-0.119259	15.7984	-0.748250	-8.900062E+9	1.339977E-11	NaN
133	1.000000	0.352748	7.36634e+06	-45289.1	955.818	-29773.5	0.000000	0.000000	6.352893	-0.072052	NaN	0.000000	0.001521	0.001703	28.1166	0.054731	0.002065	26.5053	124.537	15.1422	-0.020618	0.351349	-0.743859	-0.745258	-0.072052	26.5053	-0.741820	-7.275121E+9	9.903842E-12	NaN
133	1.000000	0.362735	7.36634e+06	-45289.1	955.818	-29773.5	0.000000	0.000000	6.362879	-0.084099	NaN	0.000000	0.001532	0.001724	28.118	0.069348	0.002149	32.2653	-10.2192	-163.072	-0.092502	0.361439	-0.733872	-0.735168	-0.084099	32.2653	-0.731917	-5.332609E+9	1.577067E-11	NaN
133	1.000000	0.372736	7.36634e+06	-45289.1	955.818	-29773.5	0.000000	0.000000	6.372881	-0.047691	NaN	0.000000	0.001504	0.001685	28.0813	0.037338	0.001978	18.8746	-146.721	15.8742	-0.020041	0.371361	-0.723871	-0.725246	-0.047691	18.8746	-0.721976	-3.903222E+9	1.221831E-11	NaN
133	1.000000	0.382765	7.36634e+06	-45289.1	955.819	-29773.5	0.000000	0.000000	6.382911	-0.026442	NaN	0.000000	0.001589	0.001742	28.0804	0.005531	0.001862	2.970818	160.039	-166.776	-0.078241	0.381420	-0.713842	-0.715187	-0.026442	2.970818	-0.707167	-2.451184E+9	1.078733E-11	NaN
133	1.000000	0.392733	7.36634e+06	-45289.1	955.818	-29773.5	0.000000	0.000000	6.392881	0.024608	NaN	0.000000	0.001604	0.001709	28.1164	0.057832	0.001832	31.5733	37.2499	16.3104	0.026718	0.391415	-0.703874	-0.705192	0.024608	31.5733	-0.704459	-2.251182E+9	-1.093116E-11	NaN
133	1.000000	0.402743	7.36634e+06	-45289.1	955.819	-29773.5	0.000000	0.000000	6.402890	-0.000373	NaN	0.000000	0.001578	0.001718	28.1189	0.079257	0.002026	39.1103	34.51	-166.226	-0.080521	0.401477	-0.693864	-0.695130	-0.000373	39.1103	-0.693857	-1.612949E+9	2.310233E-13	NaN
133	1.000000	0.412768	7.36634e+06	-45289.1	955.818	-29773.5	0.000000	0.000000	6.412915	-0.007801	NaN	0.000000	0.001575	0.001703	28.0828	0.066804	0.001934	34.5346	-116.352	15.9243	-0.091888	0.411423	-0.683839	-0.685184	-0.007801	34.5346	-0.683670	-1.170539E+9	6.664112E-12	NaN
133	1.000000	0.422752	7.36634e+06	-45289.1	955.818	-29773.5	0.000000	0.000000	6.422899	-0.020666	NaN	0.000000	0.001564	0.001720	28.0805	0.070167	0.002029	34.577	-124.756	-164.616	-0.042279	0.421409	-0.673854	-0.675198	-0.020666	34.577	-0.673406	-8.472356E+8	2.439198E-11	NaN
133	1.000000	0.432761	7.36634e+06	-45289.1	955.818	-29773.5	0.000000	0.000000	6.432909	0.013767	NaN	0.000000	0.001583	0.001740	28.1152	0.067029	0.002014	33.2773	-37.1746	15.1119	-0.010948	0.431358	-0.663846	-0.665249	0.013767	33.2773	-0.664156	-6.329787E+8	-2.174983E-11	NaN
133	1.000000	0.442783	7.36634e+06	-45289.1	955.818	-29773.5	0.000000	0.000000	6.442928	-0.065030	NaN	0.000000	0.001581	0.001750	28.1183	0.104886	0.001984	52.8713	83.4379	-164.474	-0.022764	0.441448	-0.653824	-0.655159	-0.065030	52.8713	-0.652902	-4.438223E+8	1.465235E-10	NaN
133	1.000000	0.452782	7.36634e+06	-45289.1	955.818	-29773.5	0.000000	0.000000	6.452929	-0.001779	NaN	0.000000	0.001514	0.001728	28.079	0.062551	0.001953	32.0226	-142.198	16.4038	0.022827	0.451414	-0.643825	-0.645192	-0.001779	32.0226	-0.643784	-3.328078E+8	5.344129E-12	NaN
133	1.000000	0.462800	7.36634e+06	-45289.1	955.818	-29773.5	0.000000	0.000000	6.462946	-0.015967	NaN	0.000000	0.001482	0.001758	28.0794	0.088818	0.002117	41.955	132.201	-164.124	-0.066217	0.461497	-0.633807	-0.635110	-0.015967	41.955	-0.633522	-2.406463E+8	6.635046E-11	NaN
133	1.000000	0.472769	7.36634e+06	-45289.1	955.818	-29773.5	0.000000	0.000000	6.472918	0.033186	NaN	0.000000	0.001489	0.001747	28.116	0.081140	0.002040	39.7835	-76.0203	14.9609	0.000756	0.471392	-0.623837	-0.625215	0.033186	39.7835	-0.624463	-1.807041E+8	-1.836482E-10	NaN
133	1.000000	0.482793	7.36634e+06	-45289.1	955.818	-29773.5	0.000000	0.000000	6.482940	-0.029783	NaN	0.000000	0.001512	0.001698	28.1194	0.040006	0.001855	21.5615	-36.9361	-163.811	-0.057207	0.481474	-0.613813	-0.615133	-0.029783	21.5615	-0.612778	-1.248313E+8	2.385876E-10	NaN
133	1.000000	0.492820	7.36634e+06	-45289.1	955.818	-29773.5	0.000000	0.000000	6.492968	0.037888	NaN	0.000000	0.001541	0.001717	28.0813	0.057878	0.001916	30.2034	-173.172	12.5198	0.046407	0.491403	-0.603787	-0.605204	0.037888	30.2034	-0.604728	-9.673042E+7	-3.916911E-10	NaN
133	1.000000	0.502807	7.36634e+06	-45289.1	955.819	-29773.5	0.000000	0.000000	6.502954	-0.008185	NaN	0.000000	0.001496	0.001752	28.0819	0.123143	0.002076	59.3149	-113.781	-165.231	0.014251	0.501495	-0.593800	-0.595112	-0.008185	59.3149	-0.593696	-6.817340E+7	1.200645E-10	NaN
133	1.000000	0.512804	7.36634e+06	-45289.1	955.818	-29773.5	0.000000	0.000000	6.512951	-0.022890	NaN	0.000000	0.001523	0.001750	28.1152	0.037724	0.001897	19.8902	10.4548	13.4194	-0.047997	0.511425	-0.583803	-0.585182	-0.022890	19.8902	-0.582940	-4.844979E+7	4.724408E-10	NaN
133	1.000000	0.522823	7.36634e+06	-45289.1	955.818	-29773.5	0.000000	0.000000	6.522970	-0.002992	NaN	0.000000	0.001500	0.001737	28.1198	0.051161	0.002045	25.0232	-172.689	-163.866	0.045186	0.521499	-0.573784	-0.575107	-0.002992	25.0232	-0.573694	-3.611312E+7	8.284277E-11	NaN
133	1.000000	0.532815	7.36634e+06	-45289.1	955.819	-29773.5	0.000000	0.000000	6.532962	-0.004736	NaN	0.000000	0.001537	0.001728	28.0825	0.056669	0.001920	29.5111	136.191	11.1819	0.020986	0.531438	-0.563792	-0.565168	-0.004736	29.5111	-0.563671	-2.625154E+7	1.804011E-10	NaN
133	1.000000	0.542786	7.36634e+06	-45289.1	955.818	-29773.5	0.000000	0.000000	6.542932	-0.023490	NaN	0.000000	0.001535	0.001761	28.0815	0.080796	0.002133	37.885	178.651	-163.361	-0.042153	0.541454	-0.553821	-0.555153	-0.023490	37.885	-0.553356	-1.889851E+7	1.242968E-9	NaN
133	1.000000	0.552801	7.36634e+06	-45289.1	955.818	-29773.5	0.000000	0.000000	6.552948	-0.010393	NaN	0.000000	0.001500	0.001737	28.1164	0.054612	0.002131	25.6271	169.365	14.6388	0.049889	0.551473	-0.543806	-0.545134	-0.010393	25.6271	-0.543501	-1.380088E+7	7.530454E-10	NaN
133	1.000000	0.562795	7.36634e+06	-45289.1	955.818	-29773.5	0.000000	0.000000	6.562941	-0.029864	NaN	0.000000	0.001547	0.001724	28.1213	0.028524	0.002004	14.2321	169.922	-164.779	-0.115171	0.561519	-0.533812	-0.535088	-0.029864	14.2321	-0.532238	-9.63058e+06	3.100973E-9	NaN
133	1.000000	0.572818	7.36634e+06	-45289.1	955.818	-29773.5	0.000000	0.000000	6.572964	-0.038797	NaN	0.000000	0.001565	0.001752	28.0828	0.074150	0.002023	36.6501	-31.5946	18.7655	-0.043443	0.571484	-0.523788	-0.525123	-0.038797	36.6501	-0.522994	-7.16532e+06	5.414572E-9	NaN
133	1.000000	0.582823	7.36634e+06	-45289.1	955.818	-29773.5	0.000000	0.000000	6.582971	0.016804	NaN	0.000000	0.001551	0.001747	28.0815	0.036158	0.001928	18.7498	94.4528	-159.099	0.059288	0.581487	-0.513784	-0.515120	0.016804	18.7498	-0.514456	-5.45084e+06	-3.082790E-9	NaN
133	1.000000	0.592843	7.36634e+06	-45289.1	955.819	-29773.5	0.000000	0.000000	6.592991	0.009446	NaN	0.000000	0.001530	0.001740	28.1153	0.040503	0.001991	20.3429	-154.794	14.0243	-0.028292	0.591491	-0.503764	-0.505116	0.009446	20.3429	-0.504112	-3.91174e+06	-2.414768E-9	NaN
133	1.000000	0.602854	7.36634e+06	-45289.1	955.819	-29773.5	0.000000	0.000000	6.603000	-0.037856	NaN	0.000000	0.001579	0.001725	28.12	0.051780	0.001998	25.921	-121.429	-165.682	-0.107836	0.601512	-0.493753	-0.495095	-0.037856	25.921	-0.492658	-2.70721e+06	1.398335E-8	NaN
133	1.000000	0.612885	7.36634e+06	-45289.1	955.818	-29773.5	0.000000	0.000000	6.613030	-0.040291	NaN	0.000000	0.001559	0.001737	28.0817	0.103004	0.002018	51.0437	-122.748	15.3638	-0.003752	0.611461	-0.483722	-0.485146	-0.040291	51.0437	-0.483130	-1.99222e+06	2.022402E-8	NaN
133	1.000000	0.622861	7.36634e+06	-45289.1	955.818	-29773.5	0.000000	0.000000	6.623006	-0.076851	NaN	0.000000	0.001571	0.001741	28.0798	0.052666	0.002122	24.8154	171.645	-163.177	-0.004856	0.621539	-0.473746	-0.475068	-0.076851	24.8154	-0.471423	-1.36572e+06	5.627148E-8	NaN
133	1.000000	0.632843	7.36634e+06	-45289.1	955.818	-29773.5	0.000000	0.000000	6.632990	-0.006365	NaN	0.000000	0.001570	0.001727	28.115	0.037125	0.002105	17.6355	-16.2577	13.4917	-0.009104	0.631444	-0.463764	-0.465163	-0.006365	17.6355	-0.463494	-1.05705e+06	6.021321E-9	NaN
133	1.000000	0.642847	7.36634e+06	-45289.1	955.817	-29773.5	0.000000	0.000000	6.642993	-0.034091	NaN	0.000000	0.001576	0.001716	28.12	0.133661	0.001971	67.8022	-138.949	-164.32	0.018353	0.641537	-0.453760	-0.455070	-0.034091	67.8022	-0.453383	-762020	4.473735E-8	NaN
133	1.000000	0.652885	7.36634e+06	-45289.1	955.819	-29773.5	0.000000	0.000000	6.653032	-0.006536	NaN	0.000000	0.001555	0.001712	28.0802	0.089977	0.001859	48.3962	70.792	10.8636	0.024209	0.651508	-0.443722	-0.445099	-0.006536	48.3962	-0.443620	-555186	1.177295E-8	NaN
133	1.000000	0.662878	7.36634e+06	-45289.1	955.819	-29773.5	0.000000	0.000000	6.663024	-0.021057	NaN	0.000000	0.001561	0.001727	28.0796	0.003821	0.002008	1.903015	-137.649	-163.002	-0.039680	0.661540	-0.433729	-0.435067	-0.021057	1.903015	-0.425430	-307170	6.855293E-8	NaN
133	1.000000	0.672895	7.36634e+06	-45289.1	955.818	-29773.5	0.000000	0.000000	6.673042	-0.002050	NaN	0.000000	0.001558	0.001732	28.1132	0.053499	0.002155	24.8201	-146.576	16.7112	-0.009015	0.671531	-0.423712	-0.425076	-0.002050	24.8201	-0.423650	-289842	7.071561E-9	NaN
133	1.000000	0.682890	7.36634e+06	-45289.1	955.817	-29773.5	0.000000	0.000000	6.683037	-0.019731	NaN	0.000000	0.001549	0.001735	28.1193	0.059531	0.001963	30.3228	67.7106	-165.615	-0.054450	0.681494	-0.413717	-0.415113	-0.019731	30.3228	-0.413229	-206204	9.568815E-8	NaN
133	1.000000	0.692905	7.36634e+06	-45289.1	955.818	-29773.5	0.000000	0.000000	6.693051	-0.035960	NaN	0.000000	0.001565	0.001722	28.081	0.096454	0.001989	48.4864	-61.022	15.3925	0.017556	0.691554	-0.403702	-0.405053	-0.035960	48.4864	-0.403146	-148195	2.426512E-7	NaN
133	1.000000	0.702874	7.36634e+06	-45289.1	955.818	-29773.5	0.000000	0.000000	6.703019	-0.069588	NaN	0.000000	0.001591	0.001728	28.0798	0.022499	0.002130	10.5636	-177.911	-165.249	-0.088902	0.701581	-0.393733	-0.395026	-0.069588	10.5636	-0.388792	-92444.6	7.527568E-7	NaN
133	1.000000	0.712907	7.36634e+06	-45289.1	955.818	-29773.5	0.000000	0.000000	6.713055	0.032974	NaN	0.000000	0.001564	0.001736	28.1155	0.034778	0.002037	17.0708	160.786	13.0695	-0.047331	0.711556	-0.383700	-0.385051	0.032974	17.0708	-0.385149	-81982.3	-4.022142E-7	NaN
133	1.000000	0.722893	7.36634e+06	-45289.1	955.819	-29773.5	0.000000	0.000000	6.723036	-0.100705	NaN	0.000000	0.001572	0.001772	28.1208	0.081734	0.001927	42.4144	-171.681	-163.989	-0.103496	0.721582	-0.373714	-0.375024	-0.100705	42.4144	-0.371933	-52961.8	1.901464E-6	NaN
133	1.000000	0.732890	7.36634e+06	-45289.1	955.818	-29773.5	0.000000	0.000000	6.733038	0.007856	NaN	0.000000	0.001571	0.001737	28.081	0.060270	0.002021	29.8168	-122.098	18.4793	-0.069153	0.731548	-0.363717	-0.365059	0.007856	29.8168	-0.363915	-40587.5	-1.935481E-7	NaN
133	1.000000	0.742900	7.36634e+06	-45289.1	955.818	-29773.5	0.000000	0.000000	6.743045	-0.054281	NaN	0.000000	0.001522	0.001726	28.0793	0.093588	0.002065	45.3302	-60.3764	-165.578	-0.091454	0.741598	-0.353707	-0.355009	-0.054281	45.3302	-0.352809	-28037.8	1.935993E-6	NaN
133	1.000000	0.752923	7.36634e+06	-45289.1	955.819	-29773.5	0.000000	0.000000	6.753066	-0.112431	NaN	0.000000	0.001543	0.001756	28.113	0.028067	0.002063	13.6058	-123.725	14.0266	-0.046614	0.751549	-0.343683	-0.345058	-0.112431	13.6058	-0.337486	-16783.6	6.698853E-6	NaN
133	1.000000	0.762915	7.36634e+06	-45289.1	955.819	-29773.5	0.000000	0.000000	6.763061	-0.033728	NaN	0.000000	0.001567	0.001733	28.1202	0.017468	0.001951	8.954523	-55.228	-163.634	-0.023535	0.761609	-0.333692	-0.334998	-0.033728	8.954523	-0.330867	-13432.1	2.511028E-6	NaN
133	1.000000	0.772909	7.36634e+06	-45289.1	955.818	-29773.5	0.000000	0.000000	6.773059	0.055513	NaN	0.000000	0.001554	0.001738	28.0819	0.042914	0.002071	20.725	-77.1784	17.8302	0.060015	0.771538	-0.323697	-0.325069	0.055513	20.725	-0.325706	-11285.1	-4.919110E-6	NaN
133	1.000000	0.782915	7.36634e+06	-45289.1	955.818	-29773.5	0.000000	0.000000	6.783061	-0.035790	NaN	0.000000	0.001537	0.001735	28.0805	0.091014	0.001976	46.0617	-57.7919	-164.497	-0.055948	0.781584	-0.313692	-0.315023	-0.035790	46.0617	-0.313109	-7362.57	4.861068E-6	NaN
133	1.000000	0.792914	7.36634e+06	-45289.1	955.818	-29773.5	0.000000	0.000000	6.793063	0.029388	NaN	0.000000	0.001539	0.001742	28.1152	0.088790	0.001927	46.0771	56.8135	14.1668	-0.018463	0.791591	-0.303693	-0.305016	0.029388	46.0771	-0.304171	-5428.15	-5.413976E-6	NaN
133	1.000000	0.802910	7.36634e+06	-45289.1	955.818	-29773.5	0.000000	0.000000	6.803055	-0.057206	NaN	0.000000	0.001638	0.001714	28.1223	0.051497	0.002131	24.1698	9.645245	-166.278	-0.089033	0.801596	-0.293697	-0.295011	-0.057206	24.1698	-0.291922	-3565.18	1.604574E-5	NaN
133	1.000000	0.812906	7.36634e+06	-45289.1	955.819	-29773.5	0.000000	0.000000	6.813053	0.004556	NaN	0.000000	0.001584	0.001700	28.0831	0.029288	0.001930	15.1786	-84.2861	15.1966	-0.041951	0.811536	-0.283701	-0.285071	0.004556	15.1786	-0.283926	-2704.71	-1.684309E-6	NaN
133	1.000000	0.822939	7.36634e+06	-45289.1	955.819	-29773.5	0.000000	0.000000	6.823085	-0.044234	NaN	0.000000	0.001672	0.001743	28.0819	0.120284	0.002189	54.9456	175.727	-163.821	-0.009194	0.821632	-0.273668	-0.274975	-0.044234	54.9456	-0.273064	-1853.79	2.386150E-5	NaN
133	1.000000	0.832923	7.36634e+06	-45289.1	955.818	-29773.5	0.000000	0.000000	6.833070	-0.001491	NaN	0.000000	0.001658	0.001734	28.1142	0.080408	0.002004	40.1161	152.438	13.4081	0.020253	0.831539	-0.263684	-0.265068	-0.001491	40.1161	-0.263656	-1333.12	1.118719E-6	NaN
133	1.000000	0.842949	7.36634e+06	-45289.1	955.818	-29773.5	0.000000	0.000000	6.843098	0.017474	NaN	0.000000	0.001615	0.001726	28.1214	0.072188	0.001991	36.2578	-130.577	-161.904	0.050253	0.841617	-0.253657	-0.254990	0.017474	36.2578	-0.254019	-948.431	-1.842363E-5	NaN
133	1.000000	0.852951	7.36634e+06	-45289.1	955.818	-29773.5	0.000000	0.000000	6.853095	-0.066065	NaN	0.000000	0.001633	0.001772	28.0826	0.023318	0.002003	11.6397	33.994	15.532	-0.106493	0.851586	-0.243656	-0.245020	-0.066065	11.6397	-0.239399	-562.561	0.000117	NaN
133	1.000000	0.862961	7.36634e+06	-45289.1	955.818	-29773.5	0.000000	0.000000	6.863109	0.014986	NaN	0.000000	0.001642	0.001797	28.0798	0.118774	0.001947	60.9961	40.0951	-162.699	0.038945	0.861572	-0.233646	-0.235035	0.014986	60.9961	-0.233830	-460.115	-3.257092E-5	NaN
133	1.000000	0.872969	7.36634e+06	-45289.1	955.818	-29773.5	0.000000	0.000000	6.873116	-0.000769	NaN	0.000000	0.001651	0.001760	28.1147	0.103120	0.001935	53.2963	-116.983	13.1315	-0.036422	0.871614	-0.223638	-0.224993	-0.000769	53.2963	-0.223627	-317.33	2.424242E-6	NaN
133	1.000000	0.882954	7.36634e+06	-45289.1	955.818	-29773.5	0.000000	0.000000	6.883097	-0.094021	NaN	0.000000	0.001632	0.001750	28.1221	0.088928	0.002066	43.0457	134.55	-164.915	-0.058372	0.881637	-0.213653	-0.214970	-0.094021	43.0457	-0.212015	-206.731	0.000455	NaN
133	1.000000	0.892964	7.36634e+06	-45289.1	955.819	-29773.5	0.000000	0.000000	6.893110	-0.014852	NaN	0.000000	0.001628	0.001752	28.0835	0.046420	0.001905	24.3631	-76.9236	15.0091	-0.095895	0.891620	-0.203643	-0.204987	-0.014852	24.3631	-0.203186	-148.57	9.996450E-5	NaN
133	1.000000	0.902961	7.36634e+06	-45289.1	955.818	-29773.5	0.000000	0.000000	6.903110	0.033390	NaN	0.000000	0.001625	0.001734	28.0808	0.097456	0.002015	48.3671	110.094	-164.935	0.057103	0.901639	-0.193646	-0.194968	0.033390	48.3671	-0.194164	-105.52	-0.000316	NaN
133	1.000000	0.912939	7.36634e+06	-45289.1	955.818	-29773.5	0.000000	0.000000	6.913086	-0.015796	NaN	0.000000	0.001652	0.001730	28.1122	0.062880	0.002069	30.3856	-151.587	16.2365	0.055537	0.911642	-0.183668	-0.184965	-0.015796	30.3856	-0.183278	-69.3531	0.000228	NaN
133	1.000000	0.922965	7.36634e+06	-45289.1	955.818	-29773.5	0.000000	0.000000	6.923114	0.044662	NaN	0.000000	0.001632	0.001748	28.1201	0.048343	0.001949	24.8084	134.128	-164.754	0.019444	0.921673	-0.173642	-0.174934	0.044662	24.8084	-0.174992	-50.1007	-0.000891	NaN
133	1.000000	0.932962	7.36634e+06	-45289.1	955.818	-29773.5	0.000000	0.000000	6.933108	-0.010750	NaN	0.000000	0.001667	0.001727	28.0813	0.117101	0.002002	58.4788	-41.8775	13.7765	-0.063217	0.931600	-0.163645	-0.165007	-0.010750	58.4788	-0.163508	-31.6265	0.000340	NaN
133	1.000000	0.942992	7.36634e+06	-45289.1	955.818	-29773.5	0.000000	0.000000	6.943138	-0.027850	NaN	0.000000	0.001594	0.001774	28.0788	0.082322	0.002122	38.8035	-133.562	-165.046	-0.008606	0.941672	-0.153615	-0.154935	-0.027850	38.8035	-0.153077	-20.601	0.001352	NaN
133	1.000000	0.952983	7.36634e+06	-45289.1	955.818	-29773.5	0.000000	0.000000	6.953129	-0.032656	NaN	0.000000	0.001572	0.001751	28.1129	0.050812	0.001930	26.3297	-38.0533	14.5262	-0.020170	0.951603	-0.143624	-0.145003	-0.032656	26.3297	-0.142694	-13.2849	0.002458	NaN
133	1.000000	0.963007	7.36634e+06	-45289.1	955.818	-29773.5	0.000000	0.000000	6.963154	-0.010154	NaN	0.000000	0.001577	0.001744	28.1211	0.047805	0.002150	22.2362	6.290777	-160.893	0.004301	0.961706	-0.133600	-0.134901	-0.010154	22.2362	-0.133257	-8.808828	0.001153	NaN
133	1.000000	0.972972	7.36634e+06	-45289.1	955.818	-29773.5	0.000000	0.000000	6.973121	0.044796	NaN	0.000000	0.001582	0.001767	28.0822	0.028619	0.001993	14.3605	-91.1751	17.3291	0.064384	0.971649	-0.123635	-0.124958	0.044796	14.3605	-0.125975	-6.356893	-0.007047	NaN
133	1.000000	0.983019	7.36634e+06	-45289.1	955.819	-29773.5	0.000000	0.000000	6.983167	0.016782	NaN	0.000000	0.001575	0.001746	28.079	0.057049	0.001970	28.955	174.707	-164.293	0.062976	0.981713	-0.113588	-0.114894	0.016782	28.955	-0.114023	-3.646870	-0.004602	NaN
133	1.000000	0.992996	7.36634e+06	-45289.1	955.819	-29773.5	0.000000	0.000000	6.993141	-0.046814	NaN	0.000000	0.001574	0.001750	28.112	0.034904	0.001857	18.7918	43.5542	16.0867	-0.011483	0.991630	-0.103611	-0.104977	-0.046814	18.7918	-0.101743	-1.996286	0.023451	NaN
133	1.000000	1.003025	7.36634e+06	-45289.1	955.819	-29773.5	0.000000	0.000000	7.003172	0.006397	NaN	0.000000	0.001617	0.001760	28.1204	0.038309	0.002122	18.0523	52.6354	-163.346	0.046303	1.001674	-0.093582	-0.094932	0.006397	18.0523	-0.093848	-1.327634	-0.004818	NaN
133	1.000000	1.013005	7.36634e+06	-45289.1	955.819	-29773.5	0.000000	0.000000	7.013154	0.042947	NaN	0.000000	0.001579	0.001789	28.0809	0.143274	0.002067	69.3052	-99.7925	14.8251	0.020550	1.011640	-0.083602	-0.084967	0.042947	69.3052	-0.084066	-0.779861	-0.055070	NaN
133	1.000000	1.022990	7.36634e+06	-45289.1	955.818	-29773.5	0.000000	0.000000	7.023138	-0.000411	NaN	0.000000	0.001575	0.001772	28.0785	0.070729	0.002156	32.8001	-132.801	-164.761	0.024492	1.021690	-0.073617	-0.074917	-0.000411	32.8001	-0.073607	-0.424930	0.000967	NaN
133	1.000000	1.033013	7.36634e+06	-45289.1	955.818	-29773.5	0.000000	0.000000	7.033161	0.014138	NaN	0.000000	0.001581	0.001764	28.1124	0.126441	0.002098	60.2662	137.132	14.218	-0.005867	1.031664	-0.063594	-0.064942	0.014138	60.2662	-0.063770	-0.230314	-0.061387	NaN
133	1.000000	1.043020	7.36634e+06	-45289.1	955.819	-29773.5	0.000000	0.000000	7.043166	-0.021939	NaN	0.000000	0.001590	0.001748	28.1224	0.057566	0.001999	28.7982	14.0452	-165.452	-0.010371	1.041753	-0.053587	-0.054854	-0.021939	28.7982	-0.053016	-0.112432	0.195128	NaN
133	1.000000	1.053052	7.36634e+06	-45289.1	955.819	-29773.5	0.000000	0.000000	7.053197	-0.056972	NaN	0.000000	0.001575	0.001731	28.0844	0.041021	0.001926	21.3032	44.5558	13.6883	-0.072844	1.051633	-0.043555	-0.044974	-0.056972	21.3032	-0.041549	-0.050409	1.130197	NaN
133	1.000000	1.063015	7.36634e+06	-45289.1	955.818	-29773.5	0.000000	0.000000	7.063162	-0.024094	NaN	0.000000	0.001556	0.001780	28.0804	0.040227	0.002080	19.3418	-19.9379	-161.761	0.010995	1.061725	-0.033592	-0.034882	-0.024094	19.3418	-0.032658	-0.027369	0.880340	NaN
133	1.000000	1.073033	7.36634e+06	-45289.1	955.819	-29773.5	0.000000	0.000000	7.073178	-0.055072	NaN	0.000000	0.001570	0.001775	28.1123	0.115390	0.002017	57.2015	56.5524	12.2016	-0.060112	1.071597	-0.023574	-0.025009	-0.055072	57.2015	-0.022852	-0.014846	3.709522	NaN
133	1.000000	1.083037	7.36634e+06	-45289.1	955.82	-29773.5	0.000000	0.000000	7.083183	-0.057056	NaN	0.000000	0.001550	0.001749	28.1217	0.085629	0.001917	44.666	36.5606	-163.392	-0.054906	1.081728	-0.013569	-0.014879	-0.057056	44.666	-0.012611	-0.007879	7.241771	NaN
133	1.000000	1.093042	7.36634e+06	-45289.1	955.82	-29773.5	0.000000	0.000000	7.093192	0.057845	NaN	0.000000	0.001526	0.001724	28.0823	0.024160	0.001930	12.5189	-9.785418	13.8409	-0.015972	1.091635	-0.003564	-0.004972	0.057845	12.5189	-0.007030	-0.004658	-12.4177	NaN
133	1.000000	1.102976	7.36634e+06	-45289.1	955.819	-29773.5	0.000000	0.000000	7.103274	3.646177	NaN	0.000000	0.001573	0.001732	28.0802	4.653619	0.001899	2450.37	14.3372	-169.262	2.632850	1.101692	0.006369	0.005085	3.646177	2450.37	0.005253	0.004366	835.175	33882.4
133	2.000000	1.109129	7.36634e+06	-45289.1	955.821	-29773.5	0.000000	0.000000	7.109641	8.868201	NaN	0.000000	0.001595	0.001703	28.1133	8.795134	0.001592	5525.04	4.559936	12.9624	8.731808	1.108766	0.012523	0.012159	8.868201	5525.04	0.011319	0.010684	830.028	48835.7
133	2.000000	1.111625	7.36634e+06	-45289.1	955.82	-29773.5	0.000000	0.000000	7.112221	10.908	NaN	0.000000	0.001590	0.001724	28.1238	11.7854	0.001791	6579.97	8.404629	-173.833	10.5839	1.111308	0.015018	0.014701	10.908	6579.97	0.013775	0.013686	797.018	51387.7
133	2.000000	1.114116	7.36634e+06	-45289.1	955.82	-29773.5	0.000000	0.000000	7.114859	14.4708	NaN	0.000000	0.001599	0.001748	28.0847	13.7381	0.001761	7802.46	6.442192	8.392681	14.9722	1.113738	0.017509	0.017131	14.4708	7802.46	0.016119	0.016806	861.052	54988.7
133	2.000000	1.116588	7.36634e+06	-45289.1	955.82	-29773.5	0.000000	0.000000	7.117527	19.2466	NaN	0.000000	0.001575	0.001773	28.0817	16.1086	0.001773	9087.94	3.601995	-171.377	18.9511	1.116258	0.019981	0.019651	19.2466	9087.94	0.018393	0.020080	958.511	58595
133	2.000000	1.119064	7.36634e+06	-45289.1	955.82	-29773.5	0.000000	0.000000	7.120205	24.1763	NaN	0.000000	0.001584	0.001720	28.1128	18.7125	0.001661	11265.9	7.627566	3.219914	23.9901	1.118738	0.022457	0.022132	24.1763	11265.9	0.020848	0.023892	1011.91	66590.6
133	2.000000	1.121572	7.36634e+06	-45289.1	955.822	-29773.5	0.000000	0.000000	7.122937	29.6359	NaN	0.000000	0.001592	0.001761	28.1224	22.0433	0.001716	12848.7	6.244752	-177.03	30.0955	1.121248	0.024965	0.024641	29.6359	12848.7	0.023235	0.027882	1062.89	70302
133	2.000000	1.124039	7.36634e+06	-45289.1	955.821	-29773.5	0.000000	0.000000	7.125759	38.2617	NaN	0.000000	0.001577	0.001735	28.083	24.3545	0.001737	14018.6	4.446778	4.066374	36.4171	1.123709	0.027432	0.027102	38.2617	14018.6	0.025385	0.031719	1206.27	71914.4
133	2.000000	1.126533	7.36634e+06	-45289.1	955.82	-29773.5	0.000000	0.000000	7.128416	42.2041	NaN	0.000000	0.001539	0.001757	28.0784	26.9177	0.001732	15544	4.726013	-177.785	41.4866	1.126193	0.029926	0.029587	42.2041	15544	0.027890	0.036484	1156.78	74350.5
133	2.000000	1.129014	7.36634e+06	-45289.1	955.82	-29773.5	0.000000	0.000000	7.131229	50.3153	NaN	0.000000	0.001531	0.001721	28.1118	29.7478	0.001797	16555.5	7.883172	-1.082296	48.9732	1.128667	0.032407	0.032060	50.3153	16555.5	0.030127	0.041008	1226.95	74693.1
133	2.000000	1.131495	7.36634e+06	-45289.1	955.821	-29773.5	0.000000	0.000000	7.133939	55.8865	NaN	0.000000	0.001581	0.001677	28.1224	32.5997	0.001711	19057.1	5.217581	179.234	54.3705	1.131158	0.034888	0.034551	55.8865	19057.1	0.032688	0.046500	1201.85	80742.4
133	2.000000	1.134054	7.36634e+06	-45289.1	955.821	-29773.5	0.000000	0.000000	7.136774	62.5886	NaN	0.000000	0.001577	0.001700	28.0818	34.4663	0.001894	18193.3	5.195977	1.701626	63.1033	1.133675	0.037447	0.037068	62.5886	18193.3	0.034867	0.051437	1216.8	73290.3
133	2.000000	1.136506	7.36634e+06	-45289.1	955.82	-29773.5	0.000000	0.000000	7.139686	73.7861	NaN	0.000000	0.001582	0.001725	28.079	36.7706	0.001805	20367.3	4.459126	-178.961	73.0104	1.136176	0.039899	0.039569	73.7861	20367.3	0.037182	0.056948	1295.67	77977.1
133	2.000000	1.138960	7.36634e+06	-45289.1	955.82	-29773.5	0.000000	0.000000	7.142426	80.7389	NaN	0.000000	0.001580	0.001758	28.1106	39.5645	0.001716	23051.7	2.085311	1.471307	77.1112	1.138565	0.042353	0.041958	80.7389	23051.7	0.039726	0.063322	1275.04	83694.5
133	2.000000	1.141506	7.36635e+06	-45289.1	955.821	-29773.5	0.000000	0.000000	7.145175	85.6577	NaN	0.000000	0.001561	0.001773	28.1213	42.5189	0.001739	24450.3	-0.909507	-176.685	84.5107	1.141276	0.044900	0.044669	85.6577	24450.3	0.042272	0.070032	1223.12	84412.8
133	2.000000	1.144013	7.36635e+06	-45289.1	955.821	-29773.5	0.000000	0.000000	7.148160	97.3076	NaN	0.000000	0.001596	0.001776	28.0819	44.9672	0.001805	24917.5	4.005408	-1.028382	94.3088	1.143647	0.047406	0.047040	97.3076	24917.5	0.044477	0.076110	1278.52	82519.6
133	2.000000	1.146477	7.36635e+06	-45289.1	955.821	-29773.5	0.000000	0.000000	7.151079	108.377	NaN	0.000000	0.001623	0.001717	28.0782	47.7455	0.001869	25551.1	6.117700	177.49	106.298	1.146146	0.049870	0.049539	108.377	25551.1	0.046689	0.082454	1314.39	81297.3
133	2.000000	1.148960	7.36635e+06	-45289.1	955.821	-29773.5	0.000000	0.000000	7.153991	118.802	NaN	0.000000	0.001589	0.001730	28.1114	49.5283	0.001882	26314.7	7.404946	-4.014307	116.807	1.148611	0.052353	0.052004	118.802	26314.7	0.048967	0.089247	1331.16	80477.5
133	2.000000	1.151422	7.36635e+06	-45289.1	955.821	-29773.5	0.000000	0.000000	7.157055	133.434	NaN	0.000000	0.001562	0.001683	28.1225	50.3976	0.001674	30097.6	2.211281	179.945	128.859	1.151029	0.054815	0.054422	133.434	30097.6	0.051490	0.097075	1374.54	88257.2
133	2.000000	1.153972	7.36635e+06	-45289.1	955.821	-29773.5	0.000000	0.000000	7.160026	143.701	NaN	0.000000	0.001565	0.001737	28.0829	53.4192	0.001657	32241.6	5.439818	-4.341768	138.865	1.153698	0.057365	0.057091	143.701	32241.6	0.054022	0.105249	1365.35	90799
133	2.000000	1.156544	7.36635e+06	-45289.1	955.821	-29773.5	0.000000	0.000000	7.162845	149.704	NaN	0.000000	0.001564	0.001728	28.0791	56.1122	0.001742	32208.7	7.016011	174.858	153.94	1.156209	0.059937	0.059602	149.704	32208.7	0.056451	0.113391	1320.24	87388.9
133	2.000000	1.159009	7.36635e+06	-45289.1	955.82	-29773.5	0.000000	0.000000	7.165930	164.791	NaN	0.000000	0.001540	0.001733	28.1101	59.4775	0.001843	32267.2	6.541300	-4.662571	163.5	1.158518	0.062402	0.061911	164.791	32267.2	0.058572	0.120737	1364.88	84842.7
133	2.000000	1.161456	7.36635e+06	-45289.1	955.821	-29773.5	0.000000	0.000000	7.168735	173.504	NaN	0.000000	0.001561	0.001726	28.1234	62.8155	0.001866	33667.6	5.579087	175.12	173.091	1.161196	0.064849	0.064589	173.504	33667.6	0.060984	0.129359	1341.26	85523.8
133	2.000000	1.163978	7.36635e+06	-45289.1	955.821	-29773.5	0.000000	0.000000	7.171653	183.123	NaN	0.000000	0.001567	0.001732	28.0834	64.1705	0.001774	36178.6	6.398700	-6.867248	178.671	1.163632	0.067371	0.067025	183.123	36178.6	0.063575	0.138940	1318	88677.3
133	2.000000	1.166534	7.36635e+06	-45289.1	955.821	-29773.5	0.000000	0.000000	7.174851	198.743	NaN	0.000000	0.001577	0.001722	28.0795	66.2839	0.001793	36962.5	5.882787	174.51	202.579	1.166119	0.069928	0.069512	198.743	36962.5	0.065895	0.147791	1344.75	87843.6
133	2.000000	1.168954	7.36635e+06	-45289.1	955.821	-29773.5	0.000000	0.000000	7.177702	209.205	NaN	0.000000	0.001540	0.001774	28.1129	68.2191	0.001694	40260.5	5.053025	-5.667222	206.518	1.168642	0.072348	0.072035	209.205	40260.5	0.068450	0.157841	1325.42	92585.4
133	2.000000	1.171603	7.36635e+06	-45289.1	955.821	-29773.5	0.000000	0.000000	7.180662	216.789	NaN	0.000000	0.001561	0.001752	28.124	72.2511	0.001776	40676.9	6.423950	172.733	224.924	1.171256	0.074996	0.074649	216.789	40676.9	0.070999	0.168175	1289.06	90623.2
133	2.000000	1.173988	7.36635e+06	-45289.1	955.82	-29773.5	0.000000	0.000000	7.183838	236.032	NaN	0.000000	0.001551	0.001753	28.0843	73.3764	0.001786	41091.6	4.060970	-4.945132	233.538	1.173559	0.077381	0.076953	236.032	41091.6	0.073073	0.176814	1334.91	89282.8
133	2.000000	1.176496	7.36635e+06	-45289.1	955.821	-29773.5	0.000000	0.000000	7.186754	245.96	NaN	0.000000	0.001562	0.001732	28.0805	75.5839	0.001729	43704.2	5.934888	172.825	247.517	1.176182	0.079889	0.079575	245.96	43704.2	0.075668	0.187908	1308.94	92113.5
133	2.000000	1.178938	7.36635e+06	-45289.1	955.821	-29773.5	0.000000	0.000000	7.190098	267.897	NaN	0.000000	0.001544	0.001787	28.1102	77.9016	0.001756	44354.4	6.735485	-8.652761	264.485	1.178523	0.082331	0.081917	267.897	44354.4	0.077801	0.197262	1358.07	91240.7
133	2.000000	1.181419	7.36635e+06	-45289.1	955.821	-29773.5	0.000000	0.000000	7.193132	281.357	NaN	0.000000	0.001550	0.001786	28.1228	80.1572	0.001827	43878.1	2.949872	175.145	278.237	1.181150	0.084812	0.084543	281.357	43878.1	0.080003	0.207141	1358.29	88082.3
133	2.000000	1.183999	7.36635e+06	-45289.1	955.821	-29773.5	0.000000	0.000000	7.196351	296.905	NaN	0.000000	0.001539	0.001761	28.0837	82.7179	0.001801	45923.5	8.302509	-9.589741	296.149	1.183590	0.087392	0.086983	296.905	45923.5	0.082543	0.218822	1356.83	89693.7
133	2.000000	1.186448	7.36635e+06	-45289.1	955.822	-29773.5	0.000000	0.000000	7.199302	309.106	NaN	0.000000	0.001516	0.001785	28.0791	83.8397	0.001691	49576.2	6.976909	170.275	308.691	1.186239	0.089841	0.089632	309.106	49576.2	0.085165	0.231188	1337.03	94202.7
133	2.000000	1.188950	7.36635e+06	-45289.1	955.821	-29773.5	0.000000	0.000000	7.202604	328.594	NaN	0.000000	0.001550	0.001800	28.1114	86.7731	0.001730	50146.9	4.128131	-6.988447	325.147	1.188649	0.092343	0.092042	328.594	50146.9	0.087428	0.242121	1357.15	93111
133	2.000000	1.191507	7.36635e+06	-45289.1	955.821	-29773.5	0.000000	0.000000	7.205591	339.045	NaN	0.000000	0.001515	0.001797	28.1242	90.3309	0.001684	53626	3.572928	173.382	343.175	1.191132	0.094900	0.094525	339.045	53626	0.090158	0.255620	1326.36	96906
133	2.000000	1.193917	7.36635e+06	-45289.1	955.821	-29773.5	0.000000	0.000000	7.209106	365.936	NaN	0.000000	0.001534	0.001773	28.0835	90.4006	0.001751	51641.6	-0.500499	-1.295552	361.038	1.193405	0.097310	0.096799	365.936	51641.6	0.091995	0.264897	1381.43	91671.5
133	2.000000	1.196377	7.36635e+06	-45289.1	955.821	-29773.5	0.000000	0.000000	7.212385	385.841	NaN	0.000000	0.001558	0.001742	28.0778	93.6445	0.001774	52799.1	4.673362	172.683	381.715	1.196068	0.099770	0.099461	385.841	52799.1	0.094289	0.276698	1394.45	91705.8
133	2.000000	1.199014	7.36635e+06	-45289.1	955.821	-29773.5	0.000000	0.000000	7.215738	403.261	NaN	0.000000	0.001519	0.001761	28.1087	97.3182	0.001714	56780.2	7.179889	-10.2924	405.212	1.198576	0.102407	0.101969	403.261	56780.2	0.097080	0.291381	1383.96	96103.4
133	2.000000	1.201439	7.36635e+06	-45289.1	955.821	-29773.5	0.000000	0.000000	7.218578	413.37	NaN	0.000000	0.001522	0.001730	28.1219	99.2913	0.001741	57034.3	5.321939	171.163	412.561	1.201206	0.104832	0.104599	413.37	57034.3	0.099396	0.303830	1360.53	94535.2
133	2.000000	1.203917	7.36635e+06	-45289.1	955.821	-29773.5	0.000000	0.000000	7.222228	441.848	NaN	0.000000	0.001533	0.001782	28.0832	100.722	0.001735	58065.6	6.139395	-9.029402	436.776	1.203432	0.107311	0.106825	441.848	58065.6	0.101603	0.315927	1398.57	94384
133	2.000000	1.206341	7.36635e+06	-45289.1	955.82	-29773.5	0.000000	0.000000	7.225169	454.445	NaN	0.000000	0.001505	0.001740	28.0777	103.17	0.001716	60131.9	6.205698	170.081	449.622	1.206134	0.109734	0.109527	454.445	60131.9	0.104066	0.329682	1378.43	95682.1