File: remote_trans/data/nanoindenter/0828-1/data/Data_2025-08-06,11h17m57s/2025-07-22_16-23-58_1_339.txt
2025-07-22, 16:23:58, 1
Index	Phase	Displacement	Time	Pos X	Pos Y	Pos Z	Rot A	Rot B	Piezo Z	Force A	Force B	Gripper	Voltage A	Voltage B	Temperature	Amplitude force	Amplitude pos	Stiffness	Phase shift	Phase excitation	Force A raw	Displacement raw	HMax	HMax raw	Real Force	Real Stiffness	Contact Depth	Area	Hardness	Reduced Mod.
[#]	[#]	[um]	[s]	[um]	[um]	[um]	[m°]	[m°]	[um]	[uN]	[uN]	[V]	[V]	[V]	[°C]	[uN]	[um]	[N/m]	[°]	[°]	[uN]	[um]	[um]	[um]	[uN]	[N/m]	[um]	[um^2]	[MPa]	[MPa]
339	1.000000	0.002246	7.36838e+06	-55589.1	955.819	-29741.5	0.000000	0.000000	6.002806	-0.022947	NaN	0.000000	0.001542	0.001646	28.0794	0.023834	0.000981	24.2837	149.611	-164.207	-0.005302	0.000957	-1.090714	-1.092003	-0.022947	24.2837	-1.090005	-3.680250E+14	6.235044E-17	NaN
339	1.000000	0.012287	7.36838e+06	-55589.1	955.818	-29741.5	0.000000	0.000000	6.012848	0.018195	NaN	0.000000	0.001486	0.001674	28.0795	0.062977	0.001312	48.0169	111.127	22.1489	-0.049394	0.010858	-1.080673	-1.082102	0.018195	48.0169	-1.080957	-2.782130E+14	-6.540000E-17	NaN
339	1.000000	0.022217	7.36838e+06	-55589.1	955.819	-29741.5	0.000000	0.000000	6.022778	0.039060	NaN	0.000000	0.001509	0.001669	28.0793	0.068498	0.001838	37.276	2.713675	-163.033	-0.001161	0.020898	-1.070743	-1.072063	0.039060	37.276	-1.071529	-2.078413E+14	-1.879304E-16	NaN
339	1.000000	0.032206	7.36838e+06	-55589.1	955.82	-29741.5	0.000000	0.000000	6.032767	0.039638	NaN	0.000000	0.001484	0.001712	28.0789	0.103750	0.001894	54.7846	57.728	19.0467	-0.021517	0.030863	-1.060754	-1.062097	0.039638	54.7846	-1.061297	-1.514433E+14	-2.617327E-16	NaN
339	1.000000	0.042177	7.36838e+06	-55589.1	955.818	-29741.5	0.000000	0.000000	6.042737	0.009105	NaN	0.000000	0.001548	0.001713	28.0792	0.038912	0.001953	19.9203	5.400133	-163.475	-0.052134	0.040888	-1.050783	-1.052073	0.009105	19.9203	-1.051126	-1.105471E+14	-8.236061E-17	NaN
339	1.000000	0.052225	7.36838e+06	-55589.1	955.818	-29741.5	0.000000	0.000000	6.052788	0.069881	NaN	0.000000	0.001525	0.001707	28.0791	0.086297	0.002018	42.7656	-55.9708	16.6797	0.055445	0.050863	-1.040735	-1.042097	0.069881	42.7656	-1.041961	-8.324059E+13	-8.395067E-16	NaN
339	1.000000	0.062177	7.36838e+06	-55589.1	955.819	-29741.5	0.000000	0.000000	6.062736	-0.018964	NaN	0.000000	0.001502	0.001712	28.0792	0.081881	0.001958	41.8127	-130.508	-164.259	0.010716	0.060928	-1.030783	-1.032032	-0.018964	41.8127	-1.030443	-5.826917E+13	3.254589E-16	NaN
339	1.000000	0.072202	7.36838e+06	-55589.1	955.82	-29741.5	0.000000	0.000000	6.072760	-0.029209	NaN	0.000000	0.001489	0.001734	28.0789	0.058464	0.002028	28.8243	-114.362	13.4861	-0.037702	0.070849	-1.020758	-1.022111	-0.029209	28.8243	-1.019998	-4.216291E+13	6.927685E-16	NaN
339	1.000000	0.082175	7.36838e+06	-55589.1	955.82	-29741.5	0.000000	0.000000	6.082735	-0.003813	NaN	0.000000	0.001498	0.001706	28.0789	0.060109	0.001975	30.4399	74.221	-165.643	-0.098192	0.080876	-1.010785	-1.012084	-0.003813	30.4399	-1.010691	-3.159947E+13	1.206571E-16	NaN
339	1.000000	0.092199	7.36838e+06	-55589.1	955.819	-29741.5	0.000000	0.000000	6.092760	0.006059	NaN	0.000000	0.001472	0.001724	28.0802	0.019065	0.002134	8.935856	129.08	13.2881	0.035751	0.090889	-1.000761	-1.002071	0.006059	8.935856	-1.001269	-2.359710E+13	-2.567768E-16	NaN
339	1.000000	0.102214	7.36838e+06	-55589.1	955.82	-29741.5	0.000000	0.000000	6.102775	0.007332	NaN	0.000000	0.001510	0.001696	28.0804	0.085541	0.002013	42.4882	161.842	-162.497	-0.100599	0.100920	-0.990746	-0.992040	0.007332	42.4882	-0.990875	-1.709607E+13	-4.288465E-16	NaN
339	1.000000	0.112213	7.36838e+06	-55589.1	955.819	-29741.5	0.000000	0.000000	6.112772	-0.030058	NaN	0.000000	0.001513	0.001741	28.0804	0.151841	0.001993	76.1812	81.1496	16.904	-0.018692	0.110855	-0.980747	-0.982105	-0.030058	76.1812	-0.980451	-1.237327E+13	2.429261E-15	NaN
339	1.000000	0.122243	7.36838e+06	-55589.1	955.818	-29741.5	0.000000	0.000000	6.122804	0.025262	NaN	0.000000	0.001503	0.001712	28.0806	0.038582	0.002024	19.0591	140.285	-164.513	0.040647	0.120924	-0.970718	-0.972036	0.025262	19.0591	-0.971712	-9.434732E+12	-2.677502E-15	NaN
339	1.000000	0.132251	7.36838e+06	-55589.1	955.819	-29741.5	0.000000	0.000000	6.132810	-0.032975	NaN	0.000000	0.001480	0.001744	28.0802	0.110744	0.002058	53.816	34.0258	16.1049	-0.065068	0.130844	-0.960709	-0.962116	-0.032975	53.816	-0.960249	-6.610426E+12	4.988289E-15	NaN
339	1.000000	0.142229	7.36838e+06	-55589.1	955.819	-29741.5	0.000000	0.000000	6.142789	-0.008969	NaN	0.000000	0.001495	0.001688	28.0804	0.029305	0.002119	13.8326	20.3255	-162.961	-0.015144	0.140893	-0.950731	-0.952067	-0.008969	13.8326	-0.950244	-4.845344E+12	1.851050E-15	NaN
339	1.000000	0.152250	7.36838e+06	-55589.1	955.819	-29741.5	0.000000	0.000000	6.152808	-0.044562	NaN	0.000000	0.001485	0.001689	28.0806	0.043839	0.001955	22.4206	-106.674	15.3827	-0.011244	0.150829	-0.940710	-0.942131	-0.044562	22.4206	-0.939219	-3.440358E+12	1.295283E-14	NaN
339	1.000000	0.162217	7.36838e+06	-55589.1	955.818	-29741.5	0.000000	0.000000	6.162775	-0.039960	NaN	0.000000	0.001474	0.001731	28.0804	0.090842	0.002117	42.9132	103.72	-164.47	-0.093398	0.160945	-0.930743	-0.932015	-0.039960	42.9132	-0.930045	-2.587043E+12	1.544630E-14	NaN
339	1.000000	0.172246	7.36838e+06	-55589.1	955.818	-29741.5	0.000000	0.000000	6.172805	-0.025846	NaN	0.000000	0.001500	0.001706	28.0806	0.087588	0.002011	43.5465	159.765	15.7731	0.008395	0.170883	-0.920714	-0.922077	-0.025846	43.5465	-0.920268	-1.909111E+12	1.353813E-14	NaN
339	1.000000	0.182241	7.36838e+06	-55589.1	955.819	-29741.5	0.000000	0.000000	6.182803	0.044544	NaN	0.000000	0.001516	0.001713	28.0805	0.053777	0.002046	26.2808	-126.763	-168.617	0.010454	0.180891	-0.910719	-0.912069	0.044544	26.2808	-0.911990	-1.475846E+12	-3.018216E-14	NaN
339	1.000000	0.192255	7.36838e+06	-55589.1	955.819	-29741.5	0.000000	0.000000	6.192816	0.015305	NaN	0.000000	0.001483	0.001736	28.0809	0.019220	0.001969	9.761378	-154.226	16.0333	-0.034032	0.190883	-0.900705	-0.902077	0.015305	9.761378	-0.901881	-1.077649E+12	-1.420210E-14	NaN
339	1.000000	0.202245	7.36838e+06	-55589.1	955.819	-29741.5	0.000000	0.000000	6.202807	0.041467	NaN	0.000000	0.001498	0.001704	28.0807	0.014125	0.002053	6.879593	89.4906	-165.99	0.028622	0.200951	-0.890715	-0.892009	0.041467	6.879593	-0.895236	-8.763615E+11	-4.731745E-14	NaN
339	1.000000	0.212250	7.36838e+06	-55589.1	955.818	-29741.5	0.000000	0.000000	6.212808	-0.042600	NaN	0.000000	0.001505	0.001692	28.0807	0.101329	0.001892	53.5577	-90.2015	13.9211	-0.057718	0.210874	-0.880710	-0.882086	-0.042600	53.5577	-0.880114	-5.473277E+11	7.783321E-14	NaN
339	1.000000	0.222255	7.36838e+06	-55589.1	955.819	-29741.5	0.000000	0.000000	6.222818	0.074544	NaN	0.000000	0.001499	0.001689	28.0807	0.097640	0.001911	51.1006	-116.181	-165.359	0.039512	0.220960	-0.870706	-0.872000	0.074544	51.1006	-0.871800	-4.224645E+11	-1.764507E-13	NaN
339	1.000000	0.232268	7.36838e+06	-55589.1	955.819	-29741.5	0.000000	0.000000	6.232828	-0.002889	NaN	0.000000	0.001505	0.001718	28.0794	0.035314	0.002058	17.1569	21.0609	15.8097	-0.078495	0.230875	-0.860692	-0.862085	-0.002889	17.1569	-0.860566	-2.976975E+11	9.704693E-15	NaN
339	1.000000	0.242252	7.36838e+06	-55589.1	955.818	-29741.5	0.000000	0.000000	6.242812	-0.018884	NaN	0.000000	0.001501	0.001710	28.0794	0.055075	0.001905	28.9118	38.279	-163.398	0.014716	0.241008	-0.850708	-0.851952	-0.018884	28.9118	-0.850218	-2.156183E+11	8.758057E-14	NaN
339	1.000000	0.252242	7.36838e+06	-55589.1	955.818	-29741.5	0.000000	0.000000	6.252800	-0.046057	NaN	0.000000	0.001565	0.001720	28.0794	0.053603	0.002077	25.8134	-97.9521	13.9743	-0.006072	0.250930	-0.840718	-0.842030	-0.046057	25.8134	-0.839380	-1.537754E+11	2.995101E-13	NaN
339	1.000000	0.262311	7.36838e+06	-55589.1	955.819	-29741.5	0.000000	0.000000	6.262874	0.083211	NaN	0.000000	0.001559	0.001685	28.0793	0.074141	0.002093	35.4249	123.256	-165.147	0.063778	0.260949	-0.830649	-0.832011	0.083211	35.4249	-0.832411	-1.237257E+11	-6.725406E-13	NaN
339	1.000000	0.272276	7.36838e+06	-55589.1	955.818	-29741.5	0.000000	0.000000	6.272837	0.010142	NaN	0.000000	0.001529	0.001731	28.0792	0.023458	0.001945	12.0621	75.1843	14.6862	0.022212	0.270899	-0.820684	-0.822061	0.010142	12.0621	-0.821314	-8.750526E+10	-1.158984E-13	NaN
339	1.000000	0.282272	7.36838e+06	-55589.1	955.819	-29741.5	0.000000	0.000000	6.282830	-0.035148	NaN	0.000000	0.001495	0.001709	28.0798	0.074119	0.002067	35.8497	112.786	-166.375	0.016519	0.281040	-0.810688	-0.811920	-0.035148	35.8497	-0.809953	-6.136694E+10	5.727485E-13	NaN
339	1.000000	0.292275	7.36838e+06	-55589.1	955.818	-29741.5	0.000000	0.000000	6.292834	-0.028498	NaN	0.000000	0.001510	0.001673	28.081	0.048938	0.001926	25.4145	-107.673	14.3908	0.003810	0.290903	-0.800685	-0.802057	-0.028498	25.4145	-0.799844	-4.474533E+10	6.368889E-13	NaN
339	1.000000	0.302322	7.36838e+06	-55589.1	955.819	-29741.5	0.000000	0.000000	6.302880	-0.045833	NaN	0.000000	0.001530	0.001705	28.0796	0.093756	0.002022	46.3624	63.4143	-164.76	-0.082996	0.300987	-0.790638	-0.791973	-0.045833	46.3624	-0.789897	-3.278563E+10	1.397949E-12	NaN
339	1.000000	0.312293	7.36838e+06	-55589.1	955.819	-29741.5	0.000000	0.000000	6.312854	0.015213	NaN	0.000000	0.001527	0.001710	28.0794	0.029979	0.002145	13.9792	-160.355	16.581	-0.002506	0.310921	-0.780667	-0.782039	0.015213	13.9792	-0.781483	-2.519904E+10	-6.036955E-13	NaN
339	1.000000	0.322304	7.36838e+06	-55589.1	955.818	-29741.5	0.000000	0.000000	6.322867	0.069884	NaN	0.000000	0.001559	0.001663	28.0793	0.117545	0.001856	63.3232	21.8453	-166.193	0.083734	0.321023	-0.770656	-0.771937	0.069884	63.3232	-0.771484	-1.842807E+10	-3.792253E-12	NaN
339	1.000000	0.332325	7.36838e+06	-55589.1	955.819	-29741.5	0.000000	0.000000	6.332884	-0.027122	NaN	0.000000	0.001532	0.001695	28.0795	0.040059	0.001905	21.0339	140.183	16.4623	-0.029277	0.330963	-0.760635	-0.761997	-0.027122	21.0339	-0.759668	-1.272873E+10	2.130754E-12	NaN
339	1.000000	0.342328	7.36838e+06	-55589.1	955.819	-29741.5	0.000000	0.000000	6.342884	-0.089108	NaN	0.000000	0.001543	0.001681	28.0792	0.028928	0.001862	15.5336	117.133	-169.893	-0.067945	0.341053	-0.750632	-0.751907	-0.089108	15.5336	-0.746330	-8.380148E+9	1.063328E-11	NaN
339	1.000000	0.352321	7.36838e+06	-55589.1	955.818	-29741.5	0.000000	0.000000	6.352880	-0.040636	NaN	0.000000	0.001538	0.001679	28.0794	0.081611	0.001932	42.2312	-60.072	11.9964	-0.026087	0.350953	-0.740639	-0.742007	-0.040636	42.2312	-0.739917	-6.853733E+9	5.929022E-12	NaN
339	1.000000	0.362297	7.36838e+06	-55589.1	955.818	-29741.5	0.000000	0.000000	6.362858	0.025415	NaN	0.000000	0.001541	0.001696	28.0803	0.025612	0.001977	12.9529	6.982938	-165.245	0.021290	0.361013	-0.730663	-0.731947	0.025415	12.9529	-0.732134	-5.369039E+9	-4.733663E-12	NaN
339	1.000000	0.372331	7.36838e+06	-55589.1	955.819	-29741.5	0.000000	0.000000	6.372889	-0.040194	NaN	0.000000	0.001529	0.001694	28.0811	0.019368	0.002112	9.172338	76.5841	17.0388	-0.015798	0.371020	-0.720629	-0.721940	-0.040194	9.172338	-0.717343	-3.374675E+9	1.191056E-11	NaN
339	1.000000	0.382306	7.36838e+06	-55589.1	955.819	-29741.5	0.000000	0.000000	6.382867	0.035427	NaN	0.000000	0.001581	0.001706	28.0808	0.104960	0.002056	51.0483	-108.112	-164.812	-0.024247	0.381073	-0.710654	-0.711887	0.035427	51.0483	-0.711175	-2.780238E+9	-1.274235E-11	NaN
339	1.000000	0.392330	7.36838e+06	-55589.1	955.818	-29741.5	0.000000	0.000000	6.392892	0.051581	NaN	0.000000	0.001539	0.001720	28.0809	0.023554	0.002091	11.267	174.122	17.6249	0.098203	0.390979	-0.700630	-0.701981	0.051581	11.267	-0.704064	-2.223430E+9	-2.319894E-11	NaN
339	1.000000	0.402322	7.36838e+06	-55589.1	955.819	-29741.5	0.000000	0.000000	6.402880	-0.033168	NaN	0.000000	0.001579	0.001701	28.0808	0.049240	0.002028	24.2838	82.9087	-164.979	-0.004686	0.401017	-0.690638	-0.691943	-0.033168	24.2838	-0.689614	-1.411371E+9	2.350025E-11	NaN
339	1.000000	0.412351	7.36838e+06	-55589.1	955.819	-29741.5	0.000000	0.000000	6.412910	-0.016774	NaN	0.000000	0.001632	0.001710	28.0809	0.050363	0.002091	24.0841	-99.3988	11.7514	-0.009425	0.410958	-0.680609	-0.682002	-0.016774	24.0841	-0.680087	-1.045675E+9	1.604113E-11	NaN
339	1.000000	0.422357	7.36838e+06	-55589.1	955.818	-29741.5	0.000000	0.000000	6.422916	-0.011579	NaN	0.000000	0.001545	0.001707	28.0808	0.060095	0.002010	29.8979	-40.1556	-163.617	-0.035408	0.421008	-0.670603	-0.671952	-0.011579	29.8979	-0.670313	-7.685475E+8	1.506633E-11	NaN
339	1.000000	0.432330	7.36838e+06	-55589.1	955.819	-29741.5	0.000000	0.000000	6.432889	-0.015364	NaN	0.000000	0.001566	0.001722	28.0804	0.063817	0.002123	30.0634	162.146	14.439	-0.028791	0.431003	-0.660630	-0.661957	-0.015364	30.0634	-0.660247	-5.595698E+8	2.745735E-11	NaN
339	1.000000	0.442378	7.36838e+06	-55589.1	955.819	-29741.5	0.000000	0.000000	6.442938	-0.008590	NaN	0.000000	0.001513	0.001741	28.0806	0.041138	0.001910	21.5412	-151.251	-166.628	-0.017256	0.441054	-0.650582	-0.651906	-0.008590	21.5412	-0.650283	-4.086172E+8	2.102167E-11	NaN
339	1.000000	0.452359	7.36838e+06	-55589.1	955.819	-29741.5	0.000000	0.000000	6.452919	0.006933	NaN	0.000000	0.001548	0.001724	28.0807	0.052596	0.001867	28.1788	-168.057	14.545	-0.109032	0.450993	-0.640601	-0.641967	0.006933	28.1788	-0.640786	-3.027422E+8	-2.289996E-11	NaN
339	1.000000	0.462356	7.36838e+06	-55589.1	955.819	-29741.5	0.000000	0.000000	6.462914	-0.035912	NaN	0.000000	0.001487	0.001750	28.0803	0.107234	0.002089	51.3446	-87.6174	-164.199	-0.116229	0.461007	-0.630604	-0.631953	-0.035912	51.3446	-0.630080	-2.158335E+8	1.663868E-10	NaN
339	1.000000	0.472350	7.36838e+06	-55589.1	955.82	-29741.5	0.000000	0.000000	6.472910	-0.022211	NaN	0.000000	0.001512	0.001751	28.0804	0.034662	0.002069	16.7568	-91.8223	15.8748	0.043731	0.471033	-0.620610	-0.621927	-0.022211	16.7568	-0.619616	-1.550060E+8	1.432895E-10	NaN
339	1.000000	0.482343	7.36838e+06	-55589.1	955.819	-29741.5	0.000000	0.000000	6.482902	-0.028016	NaN	0.000000	0.001537	0.001756	28.0805	0.097591	0.001971	49.522	-171.537	-162.359	0.010439	0.481059	-0.610617	-0.611901	-0.028016	49.522	-0.610193	-1.150177E+8	2.435788E-10	NaN
339	1.000000	0.492393	7.36838e+06	-55589.1	955.818	-29741.5	0.000000	0.000000	6.492955	0.039877	NaN	0.000000	0.001561	0.001739	28.0804	0.080905	0.001931	41.9031	-158.705	15.674	0.024763	0.491026	-0.600567	-0.601934	0.039877	41.9031	-0.601281	-8.671559E+7	-4.598601E-10	NaN
339	1.000000	0.502393	7.36838e+06	-55589.1	955.819	-29741.5	0.000000	0.000000	6.502952	-0.042953	NaN	0.000000	0.001554	0.001747	28.079	0.092829	0.002075	44.7466	-166.93	-163.678	-0.090830	0.500997	-0.590567	-0.591963	-0.042953	44.7466	-0.589847	-6.033273E+7	7.119429E-10	NaN
339	1.000000	0.512378	7.36838e+06	-55589.1	955.818	-29741.5	0.000000	0.000000	6.512941	0.074927	NaN	0.000000	0.001500	0.001747	28.0791	0.041185	0.002082	19.7837	-64.2437	12.5071	0.039886	0.511043	-0.580582	-0.581917	0.074927	19.7837	-0.583422	-4.919853E+7	-1.522955E-9	NaN
339	1.000000	0.522369	7.36838e+06	-55589.1	955.819	-29741.5	0.000000	0.000000	6.522928	-0.021009	NaN	0.000000	0.001470	0.001748	28.0792	0.044057	0.001990	22.1344	-93.8633	-163.934	0.040379	0.521069	-0.570591	-0.571891	-0.021009	22.1344	-0.569879	-3.198635E+7	6.567978E-10	NaN
339	1.000000	0.532421	7.36838e+06	-55589.1	955.819	-29741.5	0.000000	0.000000	6.532978	-0.074871	NaN	0.000000	0.001504	0.001753	28.0791	0.017891	0.001995	8.967747	-144.019	13.4343	-0.094814	0.531053	-0.560539	-0.561907	-0.074871	8.967747	-0.554278	-1.946208E+7	3.847046E-9	NaN
339	1.000000	0.542414	7.36838e+06	-55589.1	955.818	-29741.5	0.000000	0.000000	6.542972	-0.048050	NaN	0.000000	0.001504	0.001705	28.0793	0.051109	0.002039	25.0715	40.6959	-163.98	-0.025731	0.541079	-0.550546	-0.551881	-0.048050	25.0715	-0.549108	-1.650468E+7	2.911270E-9	NaN
339	1.000000	0.552400	7.36838e+06	-55589.1	955.819	-29741.5	0.000000	0.000000	6.552962	0.040620	NaN	0.000000	0.001495	0.001749	28.0793	0.102941	0.002117	48.6312	-152.761	12.2456	-0.040753	0.551043	-0.540560	-0.541917	0.040620	48.6312	-0.541186	-1.281770E+7	-3.169071E-9	NaN
339	1.000000	0.562404	7.36838e+06	-55589.1	955.819	-29741.5	0.000000	0.000000	6.562961	-0.078935	NaN	0.000000	0.001484	0.001735	28.0794	0.066913	0.002086	32.0817	-76.3071	-165.328	-0.002893	0.561050	-0.530556	-0.531910	-0.078935	32.0817	-0.528710	-8.60324e+06	9.175021E-9	NaN
339	1.000000	0.572397	7.36838e+06	-55589.1	955.818	-29741.5	0.000000	0.000000	6.572960	0.064868	NaN	0.000000	0.001492	0.001776	28.0792	0.125078	0.001915	65.3296	-105.543	12.3788	0.028093	0.571016	-0.520563	-0.521944	0.064868	65.3296	-0.521308	-6.78866e+06	-9.555320E-9	NaN
339	1.000000	0.582441	7.36838e+06	-55589.1	955.818	-29741.5	0.000000	0.000000	6.583000	-0.016700	NaN	0.000000	0.001489	0.001760	28.0794	0.024458	0.001916	12.7622	-37.9938	-161.329	-0.025472	0.581084	-0.510519	-0.511876	-0.016700	12.7622	-0.509538	-4.65563e+06	3.586954E-9	NaN
339	1.000000	0.592426	7.36838e+06	-55589.1	955.819	-29741.5	0.000000	0.000000	6.592984	-0.049029	NaN	0.000000	0.001510	0.001775	28.0796	0.010263	0.001943	5.282244	125.384	15.6395	-0.055380	0.591097	-0.500534	-0.501863	-0.049029	5.282244	-0.493573	-2.78807e+06	1.758513E-8	NaN
339	1.000000	0.602401	7.36838e+06	-55589.1	955.819	-29741.5	0.000000	0.000000	6.602960	-0.028029	NaN	0.000000	0.001506	0.001755	28.0793	0.036162	0.002100	17.2162	-173.151	-161.664	-0.007357	0.601174	-0.490559	-0.491786	-0.028029	17.2162	-0.489338	-2.43298e+06	1.152036E-8	NaN
339	1.000000	0.612425	7.36838e+06	-55589.1	955.817	-29741.5	0.000000	0.000000	6.612982	-0.084081	NaN	0.000000	0.001479	0.001754	28.0793	0.029920	0.002036	14.6963	153.428	14.3928	-0.089805	0.611126	-0.480535	-0.481834	-0.084081	14.6963	-0.476244	-1.59561e+06	5.269547E-8	NaN
339	1.000000	0.622426	7.36838e+06	-55589.1	955.819	-29741.5	0.000000	0.000000	6.622983	-0.076204	NaN	0.000000	0.001497	0.001724	28.0793	0.125639	0.001949	64.4722	-42.5921	-164.705	0.038181	0.621132	-0.470534	-0.471828	-0.076204	64.4722	-0.469648	-1.28963e+06	5.909035E-8	NaN
339	1.000000	0.632419	7.36838e+06	-55589.1	955.819	-29741.5	0.000000	0.000000	6.632984	0.102997	NaN	0.000000	0.001572	0.001723	28.0796	0.073274	0.001905	38.4679	-63.3484	13.5223	0.147453	0.631035	-0.460541	-0.461925	0.102997	38.4679	-0.462549	-1.02524e+06	-1.004616E-7	NaN
339	1.000000	0.642431	7.36838e+06	-55589.1	955.819	-29741.5	0.000000	0.000000	6.642989	-0.045093	NaN	0.000000	0.001573	0.001697	28.0803	0.096794	0.002004	48.3056	-150.616	-163.744	-0.021869	0.641133	-0.450529	-0.451827	-0.045093	48.3056	-0.449829	-679098	6.640096E-8	NaN
339	1.000000	0.652444	7.36838e+06	-55589.1	955.818	-29741.5	0.000000	0.000000	6.653002	-0.056764	NaN	0.000000	0.001563	0.001694	28.0808	0.103910	0.002012	51.6488	-113.035	13.8586	-0.000432	0.651138	-0.440516	-0.441822	-0.056764	51.6488	-0.439692	-488663	1.161621E-7	NaN
339	1.000000	0.662430	7.36838e+06	-55589.1	955.819	-29741.5	0.000000	0.000000	6.662989	-0.030981	NaN	0.000000	0.001559	0.001710	28.0805	0.051669	0.002114	24.4363	6.742235	-162.736	-0.092345	0.661139	-0.430530	-0.431821	-0.030981	24.4363	-0.429579	-351644	8.810256E-8	NaN
339	1.000000	0.672468	7.36838e+06	-55589.1	955.818	-29741.5	0.000000	0.000000	6.673028	0.004039	NaN	0.000000	0.001562	0.001733	28.0805	0.109063	0.001995	54.6671	112.506	16.5415	0.056999	0.671149	-0.420492	-0.421811	0.004039	54.6671	-0.420548	-261927	-1.542175E-8	NaN
339	1.000000	0.682461	7.36838e+06	-55589.1	955.819	-29741.5	0.000000	0.000000	6.683020	-0.028284	NaN	0.000000	0.001564	0.001686	28.0803	0.021949	0.002046	10.7267	-145.378	-164.088	-0.076048	0.681116	-0.410499	-0.411844	-0.028284	10.7267	-0.408521	-176753	1.600201E-7	NaN
339	1.000000	0.692447	7.36838e+06	-55589.1	955.819	-29741.5	0.000000	0.000000	6.693006	-0.024299	NaN	0.000000	0.001546	0.001708	28.0806	0.108015	0.002054	52.5903	-75.3643	17.2033	-0.050184	0.691125	-0.400513	-0.401835	-0.024299	52.5903	-0.400166	-134390	1.808100E-7	NaN
339	1.000000	0.702458	7.36838e+06	-55589.1	955.818	-29741.5	0.000000	0.000000	6.703018	-0.005270	NaN	0.000000	0.001549	0.001702	28.0806	0.132623	0.002106	62.9639	-59.8623	-166.208	0.054348	0.701140	-0.390502	-0.391820	-0.005270	62.9639	-0.390440	-97601	5.399980E-8	NaN
339	1.000000	0.712434	7.36838e+06	-55589.1	955.817	-29741.5	0.000000	0.000000	6.712995	0.011202	NaN	0.000000	0.001517	0.001733	28.0806	0.198279	0.001935	102.476	13.2069	14.1024	0.054361	0.711130	-0.380526	-0.381830	0.011202	102.476	-0.380608	-70568.1	-1.587346E-7	NaN
339	1.000000	0.722444	7.36838e+06	-55589.1	955.82	-29741.5	0.000000	0.000000	6.723005	0.015597	NaN	0.000000	0.001500	0.001708	28.0804	0.059537	0.002024	29.412	-144.55	-166.293	-0.010656	0.721131	-0.370516	-0.371829	0.015597	29.412	-0.370914	-51202	-3.046261E-7	NaN
339	1.000000	0.732469	7.36838e+06	-55589.1	955.818	-29741.5	0.000000	0.000000	6.733030	0.023279	NaN	0.000000	0.001502	0.001702	28.0802	0.060556	0.002114	28.6387	115.932	17.8389	0.028676	0.731145	-0.360491	-0.361815	0.023279	28.6387	-0.361100	-36961.3	-6.298103E-7	NaN
339	1.000000	0.742467	7.36838e+06	-55589.1	955.819	-29741.5	0.000000	0.000000	6.743022	-0.130512	NaN	0.000000	0.001491	0.001684	28.0806	0.035687	0.001992	17.9174	47.5346	-168.481	-0.165795	0.741173	-0.350493	-0.351788	-0.130512	17.9174	-0.345030	-21616.8	6.037558E-6	NaN
339	1.000000	0.752500	7.36838e+06	-55589.1	955.818	-29741.5	0.000000	0.000000	6.753062	0.054294	NaN	0.000000	0.001502	0.001654	28.0803	0.023584	0.002166	10.8891	14.3281	15.0062	0.120699	0.751105	-0.340460	-0.341855	0.054294	10.8891	-0.344200	-21024.1	-2.582455E-6	NaN
339	1.000000	0.762490	7.36838e+06	-55589.1	955.819	-29741.5	0.000000	0.000000	6.763048	-0.034900	NaN	0.000000	0.001508	0.001675	28.0805	0.070756	0.002051	34.4922	68.7171	-167.668	-0.059723	0.761197	-0.330470	-0.331763	-0.034900	34.4922	-0.329711	-12918.8	2.701510E-6	NaN
339	1.000000	0.772490	7.36838e+06	-55589.1	955.818	-29741.5	0.000000	0.000000	6.773052	0.040490	NaN	0.000000	0.001492	0.001686	28.0791	0.049869	0.001909	26.1165	-44.0922	14.4529	-0.003684	0.771169	-0.320470	-0.321791	0.040490	26.1165	-0.321632	-9832.3	-4.118071E-6	NaN
339	1.000000	0.782485	7.36838e+06	-55589.1	955.819	-29741.5	0.000000	0.000000	6.783043	-0.036247	NaN	0.000000	0.001521	0.001671	28.0793	0.082088	0.001980	41.4605	134.097	-164.353	-0.002228	0.781232	-0.310475	-0.311728	-0.036247	41.4605	-0.309820	-6582.43	5.506701E-6	NaN
339	1.000000	0.792487	7.36838e+06	-55589.1	955.819	-29741.5	0.000000	0.000000	6.793046	-0.008594	NaN	0.000000	0.001496	0.001667	28.0794	0.030134	0.002025	14.8789	155.687	19.239	0.011289	0.791088	-0.300474	-0.301872	-0.008594	14.8789	-0.300040	-4712.33	1.823754E-6	NaN
339	1.000000	0.802524	7.36838e+06	-55589.1	955.818	-29741.5	0.000000	0.000000	6.803082	-0.056249	NaN	0.000000	0.001504	0.001708	28.0794	0.080536	0.001973	40.8173	70.844	-165.215	0.001283	0.801184	-0.290436	-0.291776	-0.056249	40.8173	-0.289402	-3268.46	1.720965E-5	NaN
339	1.000000	0.812523	7.36838e+06	-55589.1	955.819	-29741.5	0.000000	0.000000	6.813081	-0.046355	NaN	0.000000	0.001532	0.001702	28.0797	0.154685	0.002043	75.6993	30.4516	13.0522	-0.011124	0.811168	-0.280437	-0.281792	-0.046355	75.6993	-0.279978	-2358.48	1.965448E-5	NaN
339	1.000000	0.822524	7.36838e+06	-55589.1	955.818	-29741.5	0.000000	0.000000	6.823082	-0.054148	NaN	0.000000	0.001500	0.001671	28.0794	0.077690	0.002078	37.3944	-28.6703	-165.744	-0.034307	0.821224	-0.270436	-0.271736	-0.054148	37.3944	-0.269350	-1628	3.326022E-5	NaN
339	1.000000	0.832539	7.36838e+06	-55589.1	955.819	-29741.5	0.000000	0.000000	6.833097	-0.040180	NaN	0.000000	0.001521	0.001682	28.0794	0.059853	0.001901	31.4922	-134.634	13.6752	-0.048846	0.831139	-0.260421	-0.261821	-0.040180	31.4922	-0.259464	-1150.01	3.493922E-5	NaN
339	1.000000	0.842533	7.36838e+06	-55589.1	955.819	-29741.5	0.000000	0.000000	6.843093	-0.010227	NaN	0.000000	0.001485	0.001720	28.0795	0.016379	0.002172	7.542160	107.148	-165.264	0.023295	0.841227	-0.250427	-0.251733	-0.010227	7.542160	-0.249410	-805.084	1.270329E-5	NaN
339	1.000000	0.852515	7.36838e+06	-55589.1	955.818	-29741.5	0.000000	0.000000	6.853075	-0.015332	NaN	0.000000	0.001507	0.001684	28.0796	0.082881	0.002070	40.0327	127.679	16.3206	0.006396	0.851173	-0.240445	-0.241787	-0.015332	40.0327	-0.240158	-578.115	2.652085E-5	NaN
339	1.000000	0.862522	7.36838e+06	-55589.1	955.819	-29741.5	0.000000	0.000000	6.863082	0.001174	NaN	0.000000	0.001537	0.001685	28.0795	0.056993	0.002003	28.4579	159.007	-166.366	0.034117	0.861282	-0.230438	-0.231678	0.001174	28.4579	-0.230469	-407.303	-2.883154E-6	NaN
339	1.000000	0.872573	7.36838e+06	-55589.1	955.82	-29741.5	0.000000	0.000000	6.873133	-0.012104	NaN	0.000000	0.001500	0.001697	28.0794	0.106693	0.002019	52.8376	-155.53	16.8853	-0.037928	0.871182	-0.220387	-0.221778	-0.012104	52.8376	-0.220215	-279.971	4.323226E-5	NaN
339	1.000000	0.882552	7.36838e+06	-55589.1	955.819	-29741.5	0.000000	0.000000	6.883110	-0.034642	NaN	0.000000	0.001497	0.001678	28.0796	0.087181	0.002028	42.9898	146.73	-164.51	0.027726	0.881304	-0.210408	-0.211656	-0.034642	42.9898	-0.209804	-190.39	0.000182	NaN
339	1.000000	0.892555	7.36838e+06	-55589.1	955.819	-29741.5	0.000000	0.000000	6.893117	0.048110	NaN	0.000000	0.001510	0.001699	28.0792	0.099291	0.001962	50.6003	69.8558	18.0718	0.000603	0.891169	-0.200405	-0.201792	0.048110	50.6003	-0.201118	-137.424	-0.000350	NaN
339	1.000000	0.902548	7.36838e+06	-55589.1	955.819	-29741.5	0.000000	0.000000	6.903104	-0.116351	NaN	0.000000	0.001562	0.001689	28.0793	0.035515	0.002087	17.0203	121.346	-160.736	-0.057754	0.901247	-0.190412	-0.191713	-0.116351	17.0203	-0.185285	-74.9769	0.001552	NaN
339	1.000000	0.912529	7.36838e+06	-55589.1	955.819	-29741.5	0.000000	0.000000	6.913089	0.017592	NaN	0.000000	0.001597	0.001670	28.0804	0.076399	0.002157	35.4163	139.415	15.5712	0.058342	0.911224	-0.180431	-0.181736	0.017592	35.4163	-0.180804	-62.9698	-0.000279	NaN
339	1.000000	0.922575	7.36838e+06	-55589.1	955.818	-29741.5	0.000000	0.000000	6.923136	0.011335	NaN	0.000000	0.001529	0.001715	28.0809	0.157202	0.001998	78.6826	-110.643	-172.157	-0.010008	0.921267	-0.170385	-0.171693	0.011335	78.6826	-0.170493	-41.8951	-0.000271	NaN
339	1.000000	0.932566	7.36838e+06	-55589.1	955.819	-29741.5	0.000000	0.000000	6.933124	-0.049975	NaN	0.000000	0.001508	0.001731	28.0802	0.021566	0.001954	11.0375	128.225	14.8627	-0.033787	0.931150	-0.160394	-0.161810	-0.049975	11.0375	-0.156998	-24.235	0.002062	NaN
339	1.000000	0.942565	7.36838e+06	-55589.1	955.818	-29741.5	0.000000	0.000000	6.943121	-0.099015	NaN	0.000000	0.001475	0.001702	28.0806	0.039969	0.001940	20.605	4.136546	-167.951	-0.123903	0.941232	-0.150395	-0.151728	-0.099015	20.605	-0.146791	-15.8205	0.006259	NaN
339	1.000000	0.952586	7.36838e+06	-55589.1	955.819	-29741.5	0.000000	0.000000	6.953147	0.027880	NaN	0.000000	0.001532	0.001738	28.0804	0.031219	0.001994	15.6577	-127.117	20.2105	-0.023355	0.951224	-0.140374	-0.141736	0.027880	15.6577	-0.141709	-12.7347	-0.002189	NaN
339	1.000000	0.962532	7.36838e+06	-55589.1	955.817	-29741.5	0.000000	0.000000	6.963093	0.008507	NaN	0.000000	0.001481	0.001735	28.0808	0.027209	0.002105	12.9231	-136.934	-165.331	0.032876	0.961210	-0.130428	-0.131750	0.008507	12.9231	-0.130922	-7.941146	-0.001071	NaN
339	1.000000	0.972550	7.36838e+06	-55589.1	955.817	-29741.5	0.000000	0.000000	6.973109	-0.026313	NaN	0.000000	0.001471	0.001766	28.0804	0.034910	0.001998	17.4691	82.7115	17.6709	0.053665	0.971191	-0.120410	-0.121769	-0.026313	17.4691	-0.119280	-4.672324	0.005632	NaN
339	1.000000	0.982570	7.36838e+06	-55589.1	955.818	-29741.5	0.000000	0.000000	6.983129	-0.026858	NaN	0.000000	0.001484	0.001739	28.0803	0.057131	0.001959	29.1704	173.368	-165.977	-0.058704	0.981232	-0.110390	-0.111728	-0.026858	29.1704	-0.109699	-2.961594	0.009069	NaN
339	1.000000	0.992584	7.36838e+06	-55589.1	955.818	-29741.5	0.000000	0.000000	6.993143	-0.020016	NaN	0.000000	0.001470	0.001729	28.0807	0.105445	0.001951	54.0588	-20.1268	14.5928	0.035340	0.991195	-0.100376	-0.101765	-0.020016	54.0588	-0.100099	-1.836364	0.010900	NaN
339	1.000000	1.002623	7.36838e+06	-55589.1	955.818	-29741.5	0.000000	0.000000	7.003182	-0.015666	NaN	0.000000	0.001479	0.001713	28.0803	0.080396	0.002012	39.9618	140.016	-165.264	-0.021475	1.001272	-0.090337	-0.091688	-0.015666	39.9618	-0.090043	-1.083487	0.014459	NaN
339	1.000000	1.012599	7.36838e+06	-55589.1	955.819	-29741.5	0.000000	0.000000	7.013159	-0.009900	NaN	0.000000	0.001547	0.001736	28.0804	0.084857	0.002011	42.2053	-32.2549	11.8957	0.053131	1.011187	-0.080361	-0.081773	-0.009900	42.2053	-0.080185	-0.625607	0.015825	NaN
339	1.000000	1.022605	7.36838e+06	-55589.1	955.819	-29741.5	0.000000	0.000000	7.023166	0.018437	NaN	0.000000	0.001505	0.001733	28.0802	0.041922	0.002126	19.72	173.489	-165.736	-0.004942	1.021295	-0.070355	-0.071665	0.018437	19.72	-0.071056	-0.363983	-0.050652	NaN
339	1.000000	1.032607	7.36838e+06	-55589.1	955.819	-29741.5	0.000000	0.000000	7.033164	-0.060370	NaN	0.000000	0.001452	0.001666	28.0806	0.060226	0.002004	30.0515	2.959493	16.9699	0.060436	1.031230	-0.060353	-0.061730	-0.060370	30.0515	-0.058847	-0.166838	0.361845	NaN
339	1.000000	1.042622	7.36838e+06	-55589.1	955.818	-29741.5	0.000000	0.000000	7.043182	0.000590	NaN	0.000000	0.001481	0.001686	28.0803	0.053607	0.002026	26.4611	-176.352	-162.039	0.042414	1.041260	-0.050338	-0.051700	0.000590	26.4611	-0.050355	-0.093532	-0.006305	NaN
339	1.000000	1.052611	7.36838e+06	-55589.1	955.819	-29741.5	0.000000	0.000000	7.053169	-0.045560	NaN	0.000000	0.001485	0.001723	28.0791	0.037916	0.002029	18.6886	140.372	16.3353	-0.080269	1.051257	-0.040349	-0.041703	-0.045560	18.6886	-0.038521	-0.040791	1.116916	NaN
339	1.000000	1.062606	7.36838e+06	-55589.1	955.818	-29741.5	0.000000	0.000000	7.063169	0.066444	NaN	0.000000	0.001522	0.001729	28.079	0.018507	0.002083	8.885982	-65.8743	-163.689	0.051784	1.061323	-0.030354	-0.031637	0.066444	8.885982	-0.035962	-0.034193	-1.943219	NaN
339	1.000000	1.072618	7.36838e+06	-55589.1	955.819	-29741.5	0.000000	0.000000	7.073180	0.028818	NaN	0.000000	0.001520	0.001745	28.0794	0.097081	0.001912	50.7716	12.1446	14.7337	0.059195	1.071227	-0.020342	-0.021733	0.028818	50.7716	-0.020767	-0.013138	-2.193534	NaN
339	1.000000	1.082624	7.36838e+06	-55589.1	955.819	-29741.5	0.000000	0.000000	7.083183	-0.026897	NaN	0.000000	0.001529	0.001749	28.0792	0.040421	0.002068	19.5424	-24.3139	-162.033	0.024774	1.081282	-0.010336	-0.011678	-0.026897	19.5424	-0.009304	-0.005988	4.491801	NaN
339	1.000000	1.092650	7.36838e+06	-55589.1	955.819	-29741.5	0.000000	0.000000	7.093214	0.081939	NaN	0.000000	0.001518	0.001721	28.0795	0.258126	0.002186	118.062	3.001216	12.7161	-0.048345	1.091316	-0.000310	-0.001644	0.081939	118.062	-0.000830	-0.000611	-134.163	NaN
339	2.000000	1.101979	7.36838e+06	-55589.1	955.819	-29741.5	0.000000	0.000000	7.102950	9.984275	NaN	0.000000	0.001490	0.001735	28.0797	9.458395	0.001674	5649.77	8.482128	-172.936	9.147031	1.101251	0.009019	0.008290	9.984275	5649.77	0.007694	0.006729	1483.71	62924.5
339	2.000000	1.104655	7.36838e+06	-55589.1	955.819	-29741.5	0.000000	0.000000	7.105716	12.1865	NaN	0.000000	0.001585	0.001739	28.0794	12.1116	0.001657	7310.84	7.365643	6.673254	11.6946	1.104298	0.011695	0.011338	12.1865	7310.84	0.010445	0.009680	1258.93	67889.1
339	2.000000	1.107141	7.36838e+06	-55589.1	955.819	-29741.5	0.000000	0.000000	7.108370	16.2585	NaN	0.000000	0.001524	0.001730	28.0793	15.1122	0.001821	8297.4	5.093833	-173.258	15.4757	1.106789	0.014181	0.013829	16.2585	8297.4	0.012712	0.012354	1316.05	68204.3
339	2.000000	1.109629	7.36838e+06	-55589.1	955.818	-29741.5	0.000000	0.000000	7.111078	21.6214	NaN	0.000000	0.001479	0.001715	28.0793	17.4871	0.001832	9542.78	8.215715	4.083340	19.8574	1.109208	0.016669	0.016248	21.6214	9542.78	0.014969	0.015244	1418.31	70614.2
339	2.000000	1.112052	7.36838e+06	-55589.1	955.817	-29741.5	0.000000	0.000000	7.113684	26.0634	NaN	0.000000	0.001533	0.001702	28.0797	20.399	0.001753	11633.5	5.752748	-176.484	24.5609	1.111837	0.019092	0.018877	26.0634	11633.5	0.017412	0.018637	1398.45	77855.9
339	2.000000	1.114555	7.36838e+06	-55589.1	955.818	-29741.5	0.000000	0.000000	7.116305	28.9254	NaN	0.000000	0.001540	0.001707	28.0794	23.0188	0.001761	13071	7.387460	0.497223	26.4081	1.114214	0.021595	0.021254	28.9254	13071	0.019935	0.022440	1289	79720
339	2.000000	1.117057	7.36838e+06	-55589.1	955.819	-29741.5	0.000000	0.000000	7.119136	36.916	NaN	0.000000	0.001482	0.001713	28.0795	25.9935	0.001786	14556.7	4.811084	-178.074	34.5843	1.116755	0.024097	0.023795	36.916	14556.7	0.022195	0.026110	1413.87	82306.5
339	2.000000	1.119651	7.36838e+06	-55589.1	955.818	-29741.5	0.000000	0.000000	7.121967	42.6943	NaN	0.000000	0.001492	0.001686	28.0793	28.1735	0.001769	15929.9	10.5755	-2.857711	43.0364	1.119176	0.026691	0.026216	42.6943	15929.9	0.024681	0.030437	1402.71	83422.9
339	2.000000	1.122061	7.36838e+06	-55589.1	955.819	-29741.5	0.000000	0.000000	7.124578	47.5572	NaN	0.000000	0.001571	0.001693	28.0805	29.9531	0.001753	17087.6	1.548336	-175.665	47.1939	1.121812	0.029101	0.028852	47.5572	17087.6	0.027014	0.034781	1367.32	83710.6
339	2.000000	1.124559	7.36838e+06	-55589.1	955.819	-29741.5	0.000000	0.000000	7.127355	54.3668	NaN	0.000000	0.001519	0.001696	28.0806	33.4788	0.001855	18044.9	5.246062	0.287168	54.2971	1.124275	0.031599	0.031315	54.3668	18044.9	0.029339	0.039385	1380.4	83073.5
339	2.000000	1.127029	7.36838e+06	-55589.1	955.818	-29741.5	0.000000	0.000000	7.130127	61.6959	NaN	0.000000	0.001553	0.001682	28.0808	35.7569	0.001732	20643.2	7.303563	176.839	60.8522	1.126826	0.034069	0.033866	61.6959	20643.2	0.031828	0.044617	1382.8	89289.7
339	2.000000	1.129594	7.36838e+06	-55589.1	955.819	-29741.5	0.000000	0.000000	7.133072	70.9226	NaN	0.000000	0.001450	0.001684	28.0806	38.1175	0.001778	21432.8	9.770676	-5.077693	70.9912	1.129083	0.036634	0.036123	70.9226	21432.8	0.034152	0.049790	1424.42	87756.4
339	2.000000	1.132079	7.36838e+06	-55589.1	955.819	-29741.5	0.000000	0.000000	7.135836	77.727	NaN	0.000000	0.001413	0.001731	28.0805	39.5594	0.001806	21910.3	1.292926	-176.958	78.1774	1.131755	0.039119	0.038795	77.727	21910.3	0.036458	0.055196	1408.21	85205.8
339	2.000000	1.134548	7.36838e+06	-55589.1	955.819	-29741.5	0.000000	0.000000	7.138714	87.6697	NaN	0.000000	0.001466	0.001712	28.0805	41.7293	0.001885	22141.5	4.060999	0.234834	86.5477	1.134174	0.041588	0.041214	87.6697	22141.5	0.038618	0.060506	1448.95	82239.9
339	2.000000	1.137046	7.36838e+06	-55589.1	955.819	-29741.5	0.000000	0.000000	7.141507	94.8257	NaN	0.000000	0.001454	0.001722	28.0806	43.7122	0.001724	25356.9	3.961740	178.869	95.642	1.136761	0.044086	0.043801	94.8257	25356.9	0.041281	0.067382	1407.29	89247.9
339	2.000000	1.139629	7.36838e+06	-55589.1	955.819	-29741.5	0.000000	0.000000	7.144501	104.818	NaN	0.000000	0.001502	0.001736	28.0808	46.2069	0.001718	26895.9	8.514320	-5.436606	105.895	1.139146	0.046669	0.046186	104.818	26895.9	0.043746	0.074067	1415.17	90291.4
339	2.000000	1.142042	7.36838e+06	-55589.1	955.819	-29741.5	0.000000	0.000000	7.147295	114.077	NaN	0.000000	0.001530	0.001724	28.0805	47.578	0.001724	27597.9	3.790023	177.919	113.283	1.141719	0.049082	0.048759	114.077	27597.9	0.045981	0.080398	1418.91	88925.7
339	2.000000	1.144478	7.36838e+06	-55589.1	955.818	-29741.5	0.000000	0.000000	7.150216	125.871	NaN	0.000000	0.001554	0.001750	28.0806	50.549	0.001711	29548.2	2.824355	-2.203789	122.375	1.144184	0.051518	0.051224	125.871	29548.2	0.048323	0.087301	1441.8	91368
339	2.000000	1.146978	7.36838e+06	-55589.1	955.819	-29741.5	0.000000	0.000000	7.153124	135.785	NaN	0.000000	0.001518	0.001727	28.0807	54.0814	0.001764	30653.3	3.024040	177.935	132.18	1.146725	0.054018	0.053765	135.785	30653.3	0.050695	0.094574	1435.74	91067.5
339	2.000000	1.149534	7.36838e+06	-55589.1	955.819	-29741.5	0.000000	0.000000	7.156159	147.424	NaN	0.000000	0.001546	0.001711	28.0807	55.3681	0.001690	32768.3	3.951827	-3.161286	145.482	1.149148	0.056574	0.056188	147.424	32768.3	0.053200	0.102561	1437.43	93483.9
339	2.000000	1.152068	7.36838e+06	-55589.1	955.82	-29741.5	0.000000	0.000000	7.159014	155.213	NaN	0.000000	0.001489	0.001739	28.0807	59.7044	0.002028	29433.6	6.243966	175.573	157.836	1.151736	0.059108	0.058776	155.213	29433.6	0.055153	0.109005	1423.91	81450.4
339	2.000000	1.154455	7.36838e+06	-55589.1	955.819	-29741.5	0.000000	0.000000	7.162094	172.074	NaN	0.000000	0.001498	0.001721	28.0806	61.1505	0.001789	34182.2	7.593848	-7.327284	167.865	1.154139	0.061495	0.061179	172.074	34182.2	0.057720	0.117759	1461.25	91007.5
339	2.000000	1.156990	7.36838e+06	-55589.1	955.819	-29741.5	0.000000	0.000000	7.165065	182.683	NaN	0.000000	0.001545	0.001710	28.0794	64.0136	0.001780	35954.8	7.137907	172.087	179.914	1.156696	0.064030	0.063736	182.683	35954.8	0.060219	0.126595	1443.06	92325.8
339	2.000000	1.159518	7.36838e+06	-55589.1	955.819	-29741.5	0.000000	0.000000	7.168250	198.654	NaN	0.000000	0.001556	0.001752	28.0795	65.3451	0.001687	38741.2	3.918245	-4.044890	199.632	1.159214	0.066558	0.066254	198.654	38741.2	0.062712	0.135713	1463.78	96080.5
339	2.000000	1.162051	7.36838e+06	-55589.1	955.819	-29741.5	0.000000	0.000000	7.170912	201.79	NaN	0.000000	0.001521	0.001745	28.079	67.5791	0.001771	38156.4	1.888562	177.686	202.987	1.161793	0.069091	0.068833	201.79	38156.4	0.065124	0.144822	1393.37	91605.9
339	2.000000	1.164537	7.36838e+06	-55589.1	955.819	-29741.5	0.000000	0.000000	7.174266	222.879	NaN	0.000000	0.001530	0.001711	28.0793	70.6227	0.001752	40306	3.575009	-4.575692	221.434	1.164092	0.071577	0.071132	222.879	40306	0.067429	0.153789	1449.26	93903.2
339	2.000000	1.167070	7.36838e+06	-55589.1	955.818	-29741.5	0.000000	0.000000	7.176832	223.667	NaN	0.000000	0.001535	0.001703	28.0792	74.3339	0.001813	41009.2	5.720740	172.342	225.462	1.166892	0.074110	0.073932	223.667	41009.2	0.070020	0.164169	1362.42	92471.7
339	2.000000	1.169576	7.36838e+06	-55589.1	955.818	-29741.5	0.000000	0.000000	7.180027	240.444	NaN	0.000000	0.001534	0.001752	28.0797	75.6382	0.001775	42620.4	5.935722	-7.773747	241.336	1.169321	0.076616	0.076361	240.444	42620.4	0.072385	0.173924	1382.47	93370.8
339	2.000000	1.171951	7.36838e+06	-55589.1	955.819	-29741.5	0.000000	0.000000	7.183480	266.631	NaN	0.000000	0.001550	0.001732	28.0793	76.6748	0.001832	41844.6	2.067517	176.828	264.082	1.171603	0.078991	0.078643	266.631	41844.6	0.074212	0.181644	1467.88	89702.1
339	2.000000	1.174477	7.36838e+06	-55589.1	955.818	-29741.5	0.000000	0.000000	7.186433	277.018	NaN	0.000000	0.001537	0.001701	28.0795	79.0881	0.001761	44910.3	1.024550	-2.924840	274.725	1.174190	0.081517	0.081230	277.018	44910.3	0.076891	0.193244	1433.51	93339.5
339	2.000000	1.176936	7.36838e+06	-55589.1	955.818	-29741.5	0.000000	0.000000	7.189668	295.885	NaN	0.000000	0.001553	0.001684	28.0794	82.2678	0.001826	45064.4	4.838872	173.568	291.224	1.176533	0.083976	0.083573	295.885	45064.4	0.079051	0.202845	1458.68	91416.5
339	2.000000	1.179505	7.36838e+06	-55589.1	955.82	-29741.5	0.000000	0.000000	7.193029	315.124	NaN	0.000000	0.001506	0.001744	28.0799	83.7144	0.001708	49008	5.142435	-7.216289	313.093	1.179100	0.086545	0.086140	315.124	49008	0.081722	0.215015	1465.59	96562
339	2.000000	1.182022	7.36839e+06	-55589.1	955.818	-29741.5	0.000000	0.000000	7.196167	330.235	NaN	0.000000	0.001496	0.001704	28.0794	85.1342	0.001759	48407.8	3.582292	174.61	333.274	1.181711	0.089062	0.088751	330.235	48407.8	0.083945	0.225395	1465.14	93157.2
339	2.000000	1.184440	7.36839e+06	-55589.1	955.819	-29741.5	0.000000	0.000000	7.199385	349.662	NaN	0.000000	0.001544	0.001725	28.0793	89.043	0.001844	48278.1	5.472657	-8.336325	344.435	1.184130	0.091480	0.091170	349.662	48278.1	0.086048	0.235427	1485.22	90906.5
339	2.000000	1.186981	7.36839e+06	-55589.1	955.818	-29741.5	0.000000	0.000000	7.202738	369.415	NaN	0.000000	0.001543	0.001729	28.08	91.4325	0.001836	49803.1	2.789615	175.499	370.787	1.186659	0.094021	0.093699	369.415	49803.1	0.088458	0.247173	1494.56	91522.8
339	2.000000	1.189377	7.36839e+06	-55589.1	955.817	-29741.5	0.000000	0.000000	7.206047	391.61	NaN	0.000000	0.001481	0.001725	28.0797	92.6982	0.001771	52347.2	2.499448	-5.029271	381.889	1.188981	0.096417	0.096021	391.61	52347.2	0.090806	0.258874	1512.74	93998.8
339	2.000000	1.191972	7.36839e+06	-55589.1	955.819	-29741.5	0.000000	0.000000	7.209013	400.615	NaN	0.000000	0.001473	0.001718	28.0806	94.8584	0.001719	55175.7	2.959437	174.028	399.79	1.191611	0.099012	0.098651	400.615	55175.7	0.093566	0.272954	1467.7	96488.7
339	2.000000	1.194335	7.36839e+06	-55589.1	955.817	-29741.5	0.000000	0.000000	7.212244	421.721	NaN	0.000000	0.001465	0.001729	28.0806	98.3382	0.001810	54335.5	4.249439	-7.581923	410.776	1.193979	0.101375	0.101019	421.721	54335.5	0.095554	0.283305	1488.57	93267.2
339	2.000000	1.196921	7.36839e+06	-55589.1	955.818	-29741.5	0.000000	0.000000	7.215522	438.542	NaN	0.000000	0.001444	0.001709	28.0805	101.201	0.001795	56372.2	5.678790	170.884	435.112	1.196667	0.103961	0.103707	438.542	56372.2	0.098127	0.296977	1476.69	94509.8
339	2.000000	1.199494	7.36839e+06	-55589.1	955.819	-29741.5	0.000000	0.000000	7.218994	460.39	NaN	0.000000	0.001485	0.001746	28.0804	103.308	0.001653	62509.6	8.454253	-11.8257	459.268	1.198986	0.106534	0.106026	460.39	62509.6	0.101010	0.312656	1472.51	102138
339	2.000000	1.200337	7.36839e+06	-55589.1	955.818	-29741.5	0.000000	0.000000	7.220154	468.102	NaN	0.000000	0.001494	0.001739	28.0804	104.776	0.001677	62492.6	4.783356	-8.993210	458.984	1.200111	0.107377	0.107151	468.102	62492.6	0.101760	0.316791	1477.64	101442