File: remote_trans/data/nanoindenter/0828-1/data/Data_2025-08-06,11h17m57s/2025-07-22_16-23-58_1_1179.txt
2025-07-22, 16:23:58, 1
Index	Phase	Displacement	Time	Pos X	Pos Y	Pos Z	Rot A	Rot B	Piezo Z	Force A	Force B	Gripper	Voltage A	Voltage B	Temperature	Amplitude force	Amplitude pos	Stiffness	Phase shift	Phase excitation	Force A raw	Displacement raw	HMax	HMax raw	Real Force	Real Stiffness	Contact Depth	Area	Hardness	Reduced Mod.
[#]	[#]	[um]	[s]	[um]	[um]	[um]	[m°]	[m°]	[um]	[uN]	[uN]	[V]	[V]	[V]	[°C]	[uN]	[um]	[N/m]	[°]	[°]	[uN]	[um]	[um]	[um]	[uN]	[N/m]	[um]	[um^2]	[MPa]	[MPa]
1179	1.000000	0.002512	7.37658e+06	-56639.1	1105.82	-29738.4	0.000000	0.000000	6.002792	-0.026962	NaN	0.000000	0.001635	0.001652	28.0809	0.059817	0.001053	56.8073	-125.646	-159.852	0.009920	0.001212	-1.039639	-1.040939	-0.026962	56.8073	-1.039283	-7.661655E+13	3.519089E-16	NaN
1179	1.000000	0.010456	7.37658e+06	-56639.1	1105.82	-29738.4	0.000000	0.000000	6.010739	0.037231	NaN	0.000000	0.001616	0.001649	28.0806	0.049579	0.001074	46.1667	156.809	-168.457	-0.022430	0.009183	-1.031695	-1.032968	0.037231	46.1667	-1.032299	-6.171760E+13	-6.032413E-16	NaN
1179	1.000000	0.018470	7.37658e+06	-56639.1	1105.82	-29738.4	0.000000	0.000000	6.018749	-0.070060	NaN	0.000000	0.001683	0.001626	28.0807	0.045645	0.001763	25.8847	102.568	-167.594	-0.139165	0.017143	-1.023681	-1.025008	-0.070060	25.8847	-1.021651	-4.437743E+13	1.578736E-15	NaN
1179	1.000000	0.026489	7.37658e+06	-56639.1	1105.82	-29738.4	0.000000	0.000000	6.026770	0.014318	NaN	0.000000	0.001662	0.001627	28.0805	0.053864	0.001716	31.3816	-29.5525	-169.01	-0.040907	0.025182	-1.015662	-1.016969	0.014318	31.3816	-1.016005	-3.725559E+13	-3.843253E-16	NaN
1179	1.000000	0.034455	7.37658e+06	-56639.1	1105.82	-29738.4	0.000000	0.000000	6.034739	0.064528	NaN	0.000000	0.001689	0.001645	28.0806	0.066046	0.001980	33.3525	-122.675	-165.898	0.152320	0.033180	-1.007696	-1.008971	0.064528	33.3525	-1.009147	-3.012328E+13	-2.142124E-15	NaN
1179	1.000000	0.042464	7.37658e+06	-56639.1	1105.82	-29738.4	0.000000	0.000000	6.042746	0.024147	NaN	0.000000	0.001682	0.001633	28.0807	0.014874	0.002021	7.357902	-162.831	-162.967	-0.030816	0.041183	-0.999687	-1.000968	0.024147	7.357902	-1.002149	-2.424905E+13	-9.958054E-16	NaN
1179	1.000000	0.050465	7.37658e+06	-56639.1	1105.82	-29738.4	0.000000	0.000000	6.050744	-0.050083	NaN	0.000000	0.001680	0.001595	28.0811	0.031845	0.002052	15.518	-126.948	-165.798	-0.061414	0.049162	-0.991686	-0.992989	-0.050083	15.518	-0.989265	-1.626351E+13	3.079480E-15	NaN
1179	1.000000	0.058477	7.37658e+06	-56639.1	1105.82	-29738.4	0.000000	0.000000	6.058757	-0.043160	NaN	0.000000	0.001672	0.001625	28.0806	0.067293	0.002054	32.7626	23.4053	-164.813	-0.033656	0.057155	-0.983674	-0.984996	-0.043160	32.7626	-0.982686	-1.326149E+13	3.254571E-15	NaN
1179	1.000000	0.066474	7.37658e+06	-56639.1	1105.82	-29738.4	0.000000	0.000000	6.066757	0.037351	NaN	0.000000	0.001704	0.001637	28.0805	0.031502	0.002027	15.5397	-166.362	-165.879	0.010350	0.065222	-0.975677	-0.976929	0.037351	15.5397	-0.977480	-1.128384E+13	-3.310109E-15	NaN
1179	1.000000	0.074510	7.37658e+06	-56639.1	1105.82	-29738.4	0.000000	0.000000	6.074792	0.012893	NaN	0.000000	0.001702	0.001593	28.0806	0.039235	0.001946	20.1584	85.1847	-166.84	-0.048914	0.073213	-0.967641	-0.968938	0.012893	20.1584	-0.968120	-8.439770E+12	-1.527666E-15	NaN
1179	1.000000	0.082484	7.37658e+06	-56639.1	1105.82	-29738.4	0.000000	0.000000	6.082765	-0.002662	NaN	0.000000	0.001701	0.001616	28.0806	0.058035	0.002091	27.7591	158.818	-166.004	0.081895	0.081154	-0.959667	-0.960997	-0.002662	27.7591	-0.959595	-6.477567E+12	4.109964E-16	NaN
1179	1.000000	0.090471	7.37658e+06	-56639.1	1105.82	-29738.4	0.000000	0.000000	6.090752	-0.003625	NaN	0.000000	0.001665	0.001636	28.0808	0.080968	0.002049	39.5076	-110.305	-167.227	-0.008011	0.089194	-0.951680	-0.952957	-0.003625	39.5076	-0.951612	-5.055475E+12	7.169744E-16	NaN
1179	1.000000	0.098481	7.37658e+06	-56639.1	1105.82	-29738.4	0.000000	0.000000	6.098763	0.025663	NaN	0.000000	0.001621	0.001637	28.0818	0.148109	0.001907	77.6541	-162.459	-167.009	-0.005529	0.097162	-0.943670	-0.944989	0.025663	77.6541	-0.943918	-3.981016E+12	-6.446244E-15	NaN
1179	1.000000	0.106504	7.37658e+06	-56639.1	1105.82	-29738.4	0.000000	0.000000	6.106782	-0.063202	NaN	0.000000	0.001579	0.001675	28.0818	0.086234	0.002097	41.1314	87.7989	-166.439	-0.004073	0.105178	-0.935647	-0.936973	-0.063202	41.1314	-0.934495	-2.970675E+12	2.127530E-14	NaN
1179	1.000000	0.114489	7.37658e+06	-56639.1	1105.82	-29738.4	0.000000	0.000000	6.114770	-0.005642	NaN	0.000000	0.001601	0.001639	28.0819	0.112489	0.001863	60.3968	-130.864	-161.85	0.040483	0.113161	-0.927662	-0.928990	-0.005642	60.3968	-0.927592	-2.397177E+12	2.353469E-15	NaN
1179	1.000000	0.122506	7.37658e+06	-56639.1	1105.82	-29738.4	0.000000	0.000000	6.122787	-0.008968	NaN	0.000000	0.001594	0.001646	28.0818	0.026679	0.002096	12.7305	-10.1062	-164.876	0.013844	0.121223	-0.919645	-0.920928	-0.008968	12.7305	-0.919116	-1.841940E+12	4.869020E-15	NaN
1179	1.000000	0.130503	7.37658e+06	-56639.1	1105.82	-29738.4	0.000000	0.000000	6.130785	0.019332	NaN	0.000000	0.001571	0.001652	28.0818	0.070030	0.001957	35.7826	36.6294	-165.347	0.073791	0.129249	-0.911648	-0.912902	0.019332	35.7826	-0.912053	-1.478755E+12	-1.307333E-14	NaN
1179	1.000000	0.138483	7.37658e+06	-56639.1	1105.82	-29738.4	0.000000	0.000000	6.138762	-0.042419	NaN	0.000000	0.001578	0.001636	28.082	0.082855	0.002083	39.7717	134.006	-165.976	-0.013199	0.137148	-0.903668	-0.905003	-0.042419	39.7717	-0.902868	-1.111278E+12	3.817092E-14	NaN
1179	1.000000	0.146503	7.37658e+06	-56639.1	1105.82	-29738.4	0.000000	0.000000	6.146782	-0.053665	NaN	0.000000	0.001544	0.001625	28.0819	0.056364	0.001918	29.3829	145.542	-166.161	0.063995	0.145160	-0.895648	-0.896991	-0.053665	29.3829	-0.894278	-8.506252E+11	6.308911E-14	NaN
1179	1.000000	0.154505	7.37658e+06	-56639.1	1105.82	-29738.4	0.000000	0.000000	6.154787	0.017725	NaN	0.000000	0.001545	0.001627	28.082	0.072524	0.002007	36.1308	-169.087	-163.205	-0.025925	0.153244	-0.887646	-0.888907	0.017725	36.1308	-0.888014	-6.999589E+11	-2.532258E-14	NaN
1179	1.000000	0.162531	7.37658e+06	-56639.1	1105.82	-29738.4	0.000000	0.000000	6.162810	-0.061642	NaN	0.000000	0.001573	0.001652	28.0816	0.053192	0.001872	28.4193	55.3905	-168.962	-0.118564	0.161188	-0.879620	-0.880963	-0.061642	28.4193	-0.877993	-5.123453E+11	1.203130E-13	NaN
1179	1.000000	0.170512	7.37658e+06	-56639.1	1105.82	-29738.4	0.000000	0.000000	6.170795	0.046708	NaN	0.000000	0.001564	0.001623	28.0817	0.091884	0.001954	47.021	-41.0781	-165.741	0.055627	0.169181	-0.871639	-0.872970	0.046708	47.021	-0.872384	-4.302214E+11	-1.085673E-13	NaN
1179	1.000000	0.178521	7.37658e+06	-56639.1	1105.82	-29738.4	0.000000	0.000000	6.178802	-0.004049	NaN	0.000000	0.001555	0.001620	28.0817	0.025146	0.001893	13.287	7.049671	-166.763	-0.070577	0.177222	-0.863630	-0.864929	-0.004049	13.287	-0.863402	-3.252082E+11	1.244904E-14	NaN
1179	1.000000	0.186495	7.37658e+06	-56639.1	1105.82	-29738.4	0.000000	0.000000	6.186776	-0.001167	NaN	0.000000	0.001545	0.001615	28.0816	0.043179	0.002038	21.1892	-94.1258	-167.006	0.061331	0.185207	-0.855656	-0.856944	-0.001167	21.1892	-0.855615	-2.551276E+11	4.573057E-15	NaN
1179	1.000000	0.194568	7.37658e+06	-56639.1	1105.82	-29738.4	0.000000	0.000000	6.194851	0.024046	NaN	0.000000	0.001553	0.001641	28.0823	0.108787	0.001985	54.7931	176.11	-166.094	-0.092979	0.193225	-0.847583	-0.848926	0.024046	54.7931	-0.847912	-2.006595E+11	-1.198341E-13	NaN
1179	1.000000	0.202555	7.37658e+06	-56639.1	1105.82	-29738.4	0.000000	0.000000	6.202832	-0.103590	NaN	0.000000	0.001585	0.001646	28.0814	0.032072	0.002057	15.5929	-157.305	-166.616	-0.165641	0.201289	-0.839596	-0.840862	-0.103590	15.5929	-0.834614	-1.325288E+11	7.816413E-13	NaN
1179	1.000000	0.210532	7.37658e+06	-56639.1	1105.82	-29738.4	0.000000	0.000000	6.210812	-0.040131	NaN	0.000000	0.001631	0.001650	28.0813	0.054736	0.002088	26.2142	89.4618	-162.367	-0.010236	0.209202	-0.831619	-0.832949	-0.040131	26.2142	-0.830470	-1.164554E+11	3.446075E-13	NaN
1179	1.000000	0.218533	7.37658e+06	-56639.1	1105.82	-29738.4	0.000000	0.000000	6.218814	-0.011232	NaN	0.000000	0.001640	0.001611	28.0812	0.055750	0.001895	29.417	-173.139	-167.789	-0.043279	0.217179	-0.823618	-0.824972	-0.011232	29.417	-0.823331	-9.319331E+10	1.205245E-13	NaN
1179	1.000000	0.226526	7.37658e+06	-56639.1	1105.82	-29738.4	0.000000	0.000000	6.226807	0.013832	NaN	0.000000	0.001619	0.001647	28.0814	0.059793	0.001917	31.1857	80.333	-165.069	0.087595	0.225229	-0.815625	-0.816922	0.013832	31.1857	-0.815958	-7.402780E+10	-1.868508E-13	NaN
1179	1.000000	0.234544	7.37658e+06	-56639.1	1105.82	-29738.4	0.000000	0.000000	6.234824	-0.037646	NaN	0.000000	0.001625	0.001640	28.0801	0.103600	0.002044	50.6839	135.09	-165.426	-0.141088	0.233206	-0.807607	-0.808945	-0.037646	50.6839	-0.807050	-5.604540E+10	6.716972E-13	NaN
1179	1.000000	0.242522	7.37658e+06	-56639.1	1105.82	-29738.4	0.000000	0.000000	6.242800	-0.069978	NaN	0.000000	0.001650	0.001644	28.0801	0.079316	0.001976	40.1393	145.09	-169.973	-0.073453	0.241175	-0.799629	-0.800976	-0.069978	40.1393	-0.798322	-4.266594E+10	1.640132E-12	NaN
1179	1.000000	0.250541	7.37658e+06	-56639.1	1105.82	-29738.4	0.000000	0.000000	6.250820	-0.049675	NaN	0.000000	0.001632	0.001645	28.0802	0.059152	0.002058	28.7469	150.017	-168.084	-0.026296	0.249223	-0.791610	-0.792928	-0.049675	28.7469	-0.790314	-3.321648E+10	1.495490E-12	NaN
1179	1.000000	0.258542	7.37658e+06	-56639.1	1105.82	-29738.4	0.000000	0.000000	6.258820	-0.080546	NaN	0.000000	0.001625	0.001638	28.0799	0.025619	0.002170	11.8047	140.513	-165.505	-0.006343	0.257280	-0.783609	-0.784871	-0.080546	11.8047	-0.778492	-2.294754E+10	3.510000E-12	NaN
1179	1.000000	0.266515	7.37658e+06	-56639.1	1105.82	-29738.4	0.000000	0.000000	6.266797	0.013536	NaN	0.000000	0.001634	0.001639	28.0802	0.047453	0.002083	22.7858	-111.924	-166.654	0.071341	0.265235	-0.775636	-0.776916	0.013536	22.7858	-0.776082	-2.128032E+10	-6.360767E-13	NaN
1179	1.000000	0.274556	7.37658e+06	-56639.1	1105.82	-29738.4	0.000000	0.000000	6.274836	-0.032789	NaN	0.000000	0.001666	0.001634	28.08	0.073461	0.001996	36.7968	-3.829436	-164.931	-0.081347	0.273253	-0.767595	-0.768898	-0.032789	36.7968	-0.766927	-1.597772E+10	2.052195E-12	NaN
1179	1.000000	0.282541	7.37658e+06	-56639.1	1105.82	-29738.4	0.000000	0.000000	6.282822	-0.010608	NaN	0.000000	0.001634	0.001621	28.08	0.053016	0.001955	27.1122	112.66	-165.972	0.042908	0.281218	-0.759610	-0.760933	-0.010608	27.1122	-0.759316	-1.258936E+10	8.426085E-13	NaN
1179	1.000000	0.290550	7.37658e+06	-56639.1	1105.82	-29738.4	0.000000	0.000000	6.290830	-0.033969	NaN	0.000000	0.001652	0.001635	28.08	0.047357	0.001969	24.0561	-18.5616	-166.989	0.021330	0.289242	-0.751601	-0.752909	-0.033969	24.0561	-0.750542	-9.562945E+9	3.552193E-12	NaN
1179	1.000000	0.298584	7.37658e+06	-56639.1	1105.82	-29738.4	0.000000	0.000000	6.298865	0.003476	NaN	0.000000	0.001643	0.001631	28.0799	0.059577	0.001973	30.2029	17.218	-165.265	-0.064452	0.297255	-0.743567	-0.744896	0.003476	30.2029	-0.743653	-7.705718E+9	-4.511006E-13	NaN
1179	1.000000	0.306576	7.37658e+06	-56639.1	1105.82	-29738.4	0.000000	0.000000	6.306856	-0.037905	NaN	0.000000	0.001607	0.001605	28.0803	0.115248	0.002113	54.5313	-55.2245	-167.279	-0.014163	0.305251	-0.735575	-0.736900	-0.037905	54.5313	-0.735053	-5.883951E+9	6.442116E-12	NaN
1179	1.000000	0.314580	7.37658e+06	-56639.1	1105.82	-29738.4	0.000000	0.000000	6.314861	-0.006787	NaN	0.000000	0.001648	0.001607	28.0798	0.023924	0.002014	11.8769	155.856	-167.959	-0.026114	0.313265	-0.727570	-0.728886	-0.006787	11.8769	-0.727142	-4.590406E+9	1.478576E-12	NaN
1179	1.000000	0.322569	7.37658e+06	-56639.1	1105.82	-29738.4	0.000000	0.000000	6.322850	-0.011829	NaN	0.000000	0.001662	0.001656	28.08	0.147413	0.001981	74.3946	-11.3609	-164.525	-0.038750	0.321239	-0.719582	-0.720912	-0.011829	74.3946	-0.719463	-3.606975E+9	3.279522E-12	NaN
1179	1.000000	0.330577	7.37658e+06	-56639.1	1105.82	-29738.4	0.000000	0.000000	6.330859	0.014721	NaN	0.000000	0.001614	0.001618	28.0799	0.074606	0.002029	36.7686	-170.554	-165.585	-0.062300	0.329317	-0.711574	-0.712834	0.014721	36.7686	-0.711874	-2.841997E+9	-5.179929E-12	NaN
1179	1.000000	0.338589	7.37658e+06	-56639.1	1105.82	-29738.4	0.000000	0.000000	6.338868	-0.049797	NaN	0.000000	0.001621	0.001649	28.08	0.087826	0.002000	43.919	99.282	-168.833	-0.081502	0.337237	-0.703562	-0.704914	-0.049797	43.919	-0.702711	-2.130870E+9	2.336920E-11	NaN
1179	1.000000	0.346591	7.37658e+06	-56639.1	1105.82	-29738.4	0.000000	0.000000	6.346872	-0.002618	NaN	0.000000	0.001542	0.001625	28.0801	0.004235	0.001894	2.236695	-77.478	-167.196	0.022776	0.345274	-0.695560	-0.696877	-0.002618	2.236695	-0.694682	-1.655356E+9	1.581439E-12	NaN
1179	1.000000	0.354587	7.37658e+06	-56639.1	1105.82	-29738.4	0.000000	0.000000	6.354870	0.049947	NaN	0.000000	0.001573	0.001625	28.0797	0.074388	0.002030	36.6374	-135.691	-167.216	0.054799	0.353361	-0.687564	-0.688790	0.049947	36.6374	-0.688586	-1.366458E+9	-3.655197E-11	NaN
1179	1.000000	0.362625	7.37658e+06	-56639.1	1105.82	-29738.4	0.000000	0.000000	6.362908	0.041927	NaN	0.000000	0.001602	0.001635	28.0801	0.051356	0.001961	26.1849	-35.8088	-165.887	0.041942	0.361299	-0.679526	-0.680852	0.041927	26.1849	-0.680727	-1.066950E+9	-3.929611E-11	NaN
1179	1.000000	0.370627	7.37658e+06	-56639.1	1105.82	-29738.4	0.000000	0.000000	6.370907	-0.024514	NaN	0.000000	0.001602	0.001653	28.0811	0.100494	0.002036	49.3568	83.3485	-167.311	-0.048308	0.369209	-0.671524	-0.672942	-0.024514	49.3568	-0.671152	-7.891389E+8	3.106381E-11	NaN
1179	1.000000	0.378602	7.37658e+06	-56639.1	1105.82	-29738.4	0.000000	0.000000	6.378885	0.023056	NaN	0.000000	0.001635	0.001627	28.081	0.082138	0.002061	39.846	23.6625	-164.369	-0.033823	0.377300	-0.663549	-0.664851	0.023056	39.846	-0.663983	-6.295225E+8	-3.662517E-11	NaN
1179	1.000000	0.386625	7.37658e+06	-56639.1	1105.82	-29738.4	0.000000	0.000000	6.386906	-0.010072	NaN	0.000000	0.001600	0.001647	28.0812	0.117668	0.002047	57.4821	-44.0142	-166.824	0.041027	0.385324	-0.655526	-0.656827	-0.010072	57.4821	-0.655395	-4.801457E+8	2.097727E-11	NaN
1179	1.000000	0.394621	7.37658e+06	-56639.1	1105.82	-29738.4	0.000000	0.000000	6.394901	-0.017489	NaN	0.000000	0.001576	0.001636	28.0811	0.157075	0.001842	85.2842	27.4661	-165.483	-0.027432	0.393292	-0.647530	-0.648859	-0.017489	85.2842	-0.647376	-3.727908E+8	4.691266E-11	NaN
1179	1.000000	0.402589	7.37658e+06	-56639.1	1105.82	-29738.4	0.000000	0.000000	6.402870	-0.001914	NaN	0.000000	0.001587	0.001652	28.0818	0.020404	0.001926	10.5927	140.701	-165.009	0.075572	0.401311	-0.639562	-0.640840	-0.001914	10.5927	-0.639426	-2.900129E+8	6.598783E-12	NaN
1179	1.000000	0.410629	7.37658e+06	-56639.1	1105.82	-29738.4	0.000000	0.000000	6.410912	0.031437	NaN	0.000000	0.001604	0.001610	28.081	0.107467	0.001921	55.9458	114.094	-168.276	0.079236	0.409263	-0.631522	-0.632888	0.031437	55.9458	-0.631943	-2.289337E+8	-1.373195E-10	NaN
1179	1.000000	0.418633	7.37658e+06	-56639.1	1105.82	-29738.4	0.000000	0.000000	6.418914	0.010367	NaN	0.000000	0.001593	0.001654	28.0812	0.052324	0.002013	25.9874	82.539	-165.107	-0.015167	0.417286	-0.623518	-0.624865	0.010367	25.9874	-0.623818	-1.770507E+8	-5.855350E-11	NaN
1179	1.000000	0.426616	7.37658e+06	-56639.1	1105.82	-29738.4	0.000000	0.000000	6.426895	-0.037579	NaN	0.000000	0.001589	0.001621	28.0811	0.081018	0.002061	39.3053	-134.414	-166.854	-0.038786	0.425301	-0.615535	-0.616850	-0.037579	39.3053	-0.614818	-1.331647E+8	2.822032E-10	NaN
1179	1.000000	0.434638	7.37658e+06	-56639.1	1105.82	-29738.4	0.000000	0.000000	6.434921	0.041487	NaN	0.000000	0.001652	0.001627	28.081	0.063182	0.002099	30.1027	40.1316	-165.569	0.046994	0.433317	-0.607513	-0.608834	0.041487	30.1027	-0.608547	-1.091735E+8	-3.800138E-10	NaN
1179	1.000000	0.442651	7.37658e+06	-56639.1	1105.82	-29738.4	0.000000	0.000000	6.442931	-0.026472	NaN	0.000000	0.001582	0.001642	28.0813	0.107011	0.001944	55.0497	126.544	-165.008	0.061091	0.441285	-0.599500	-0.600866	-0.026472	55.0497	-0.599139	-8.102303E+7	3.267165E-10	NaN
1179	1.000000	0.450665	7.37658e+06	-56639.1	1105.82	-29738.4	0.000000	0.000000	6.450946	-0.020981	NaN	0.000000	0.001575	0.001662	28.0811	0.030403	0.001989	15.2864	137.348	-166.786	-0.063556	0.449279	-0.591486	-0.592872	-0.020981	15.2864	-0.590456	-6.151152E+7	3.410902E-10	NaN
1179	1.000000	0.458647	7.37658e+06	-56639.1	1105.82	-29738.4	0.000000	0.000000	6.458929	0.000135	NaN	0.000000	0.001595	0.001663	28.0814	0.023878	0.002023	11.8059	99.8552	-166.173	-0.034043	0.457360	-0.583504	-0.584791	0.000135	11.8059	-0.583512	-4.933886E+7	-2.727817E-12	NaN
1179	1.000000	0.466650	7.37658e+06	-56639.1	1105.82	-29738.4	0.000000	0.000000	6.466930	-0.027965	NaN	0.000000	0.001576	0.001643	28.081	0.129095	0.001962	65.7951	47.6694	-168.339	0.064997	0.465351	-0.575501	-0.576800	-0.027965	65.7951	-0.575182	-3.786256E+7	7.385795E-10	NaN
1179	1.000000	0.474654	7.37658e+06	-56639.1	1105.82	-29738.4	0.000000	0.000000	6.474934	-0.021802	NaN	0.000000	0.001606	0.001655	28.0811	0.025273	0.002096	12.0557	-56.673	-163.485	-0.093998	0.473374	-0.567497	-0.568777	-0.021802	12.0557	-0.566141	-2.839879E+7	7.676923E-10	NaN
1179	1.000000	0.482646	7.37658e+06	-56639.1	1105.82	-29738.4	0.000000	0.000000	6.482925	-0.055457	NaN	0.000000	0.001606	0.001663	28.0811	0.039477	0.001868	21.1342	86.1262	-162.957	-0.022326	0.481321	-0.559505	-0.560829	-0.055457	21.1342	-0.557537	-2.159264E+7	2.568310E-9	NaN
1179	1.000000	0.490664	7.37658e+06	-56639.1	1105.82	-29738.4	0.000000	0.000000	6.490948	0.053180	NaN	0.000000	0.001581	0.001644	28.081	0.128929	0.001942	66.3781	125.865	-162.527	0.072306	0.489312	-0.551487	-0.552839	0.053180	66.3781	-0.552088	-1.814969E+7	-2.930088E-9	NaN
1179	1.000000	0.498668	7.37658e+06	-56639.1	1105.82	-29738.4	0.000000	0.000000	6.498952	0.056017	NaN	0.000000	0.001561	0.001693	28.0812	0.031041	0.002043	15.1948	78.7886	-166.381	-0.029328	0.497363	-0.543483	-0.544788	0.056017	15.1948	-0.546248	-1.506515E+7	-3.718320E-9	NaN
1179	1.000000	0.506682	7.37658e+06	-56639.1	1105.82	-29738.4	0.000000	0.000000	6.506964	0.021141	NaN	0.000000	0.001624	0.001694	28.0798	0.089255	0.001831	48.7583	-120.923	-165.399	0.032425	0.505312	-0.535469	-0.536839	0.021141	48.7583	-0.535794	-1.078980E+7	-1.959305E-9	NaN
1179	1.000000	0.514642	7.37658e+06	-56639.1	1105.82	-29738.4	0.000000	0.000000	6.514923	-0.016750	NaN	0.000000	0.001597	0.001707	28.08	0.008477	0.002031	4.172892	150.686	-166.458	-0.011356	0.513363	-0.527509	-0.528788	-0.016750	4.172892	-0.524498	-7.51867e+06	2.227792E-9	NaN
1179	1.000000	0.522673	7.37658e+06	-56639.1	1105.82	-29738.4	0.000000	0.000000	6.522957	0.067843	NaN	0.000000	0.001599	0.001699	28.0799	0.018272	0.001910	9.567006	99.3347	-166.133	0.021927	0.521327	-0.519478	-0.520824	0.067843	9.567006	-0.524796	-7.59071e+06	-8.937677E-9	NaN
1179	1.000000	0.530673	7.37658e+06	-56639.1	1105.82	-29738.4	0.000000	0.000000	6.530953	-0.032338	NaN	0.000000	0.001560	0.001683	28.08	0.095422	0.001930	49.4463	-51.6581	-169.917	-0.105658	0.529341	-0.511478	-0.512809	-0.032338	49.4463	-0.510987	-4.87718e+06	6.630387E-9	NaN
1179	1.000000	0.538695	7.37658e+06	-56639.1	1105.82	-29738.4	0.000000	0.000000	6.538975	-0.025528	NaN	0.000000	0.001569	0.001709	28.0797	0.037962	0.001958	19.3882	-142.809	-167.622	-0.026475	0.537400	-0.503456	-0.504751	-0.025528	19.3882	-0.502468	-3.71062e+06	6.879737E-9	NaN
1179	1.000000	0.546640	7.37658e+06	-56639.1	1105.82	-29738.4	0.000000	0.000000	6.546921	0.009438	NaN	0.000000	0.001594	0.001691	28.0799	0.127506	0.001879	67.8519	71.5069	-168.836	0.016627	0.545326	-0.495511	-0.496825	0.009438	67.8519	-0.495616	-2.97735e+06	-3.169904E-9	NaN
1179	1.000000	0.554680	7.37658e+06	-56639.1	1105.82	-29738.4	0.000000	0.000000	6.554964	0.076195	NaN	0.000000	0.001579	0.001708	28.0804	0.028474	0.001970	14.4509	108.217	-167.255	0.051531	0.553371	-0.487471	-0.488780	0.076195	14.4509	-0.491426	-2.60203e+06	-2.928279E-8	NaN
1179	1.000000	0.562660	7.37658e+06	-56639.1	1105.82	-29738.4	0.000000	0.000000	6.562942	0.018666	NaN	0.000000	0.001574	0.001722	28.0799	0.033201	0.002091	15.8744	-162.456	-166.327	0.064274	0.561392	-0.479491	-0.480759	0.018666	15.8744	-0.480373	-1.82285e+06	-1.023994E-8	NaN
1179	1.000000	0.570674	7.37658e+06	-56639.1	1105.82	-29738.4	0.000000	0.000000	6.570955	-0.019975	NaN	0.000000	0.001568	0.001690	28.0801	0.067754	0.002103	32.217	143.028	-165.953	-0.005896	0.569357	-0.471477	-0.472794	-0.019975	32.217	-0.471012	-1.3477e+06	1.482182E-8	NaN
1179	1.000000	0.578714	7.37658e+06	-56639.1	1105.82	-29738.4	0.000000	0.000000	6.578994	-0.030494	NaN	0.000000	0.001565	0.001730	28.0798	0.041098	0.001983	20.7253	-175.507	-165.083	0.029012	0.577386	-0.463437	-0.464765	-0.030494	20.7253	-0.462334	-1.01814e+06	2.995092E-8	NaN
1179	1.000000	0.586673	7.37658e+06	-56639.1	1105.82	-29738.4	0.000000	0.000000	6.586953	-0.021719	NaN	0.000000	0.001545	0.001683	28.0801	0.050552	0.001967	25.6982	-156.73	-166.955	-0.032472	0.585389	-0.455478	-0.456762	-0.021719	25.6982	-0.454844	-798964	2.718370E-8	NaN
1179	1.000000	0.594675	7.37658e+06	-56639.1	1105.82	-29738.4	0.000000	0.000000	6.594954	-0.036987	NaN	0.000000	0.001576	0.001703	28.0801	0.053209	0.001884	28.2452	-7.512524	-169.205	0.006551	0.593385	-0.447476	-0.448766	-0.036987	28.2452	-0.446494	-609473	6.068662E-8	NaN
1179	1.000000	0.602697	7.37658e+06	-56639.1	1105.82	-29738.4	0.000000	0.000000	6.602978	-0.013180	NaN	0.000000	0.001593	0.001680	28.0799	0.030013	0.002005	14.967	-82.4737	-165.05	0.028068	0.601379	-0.439454	-0.440772	-0.013180	14.967	-0.438793	-474603	2.777155E-8	NaN
1179	1.000000	0.610711	7.37658e+06	-56639.1	1105.82	-29738.4	0.000000	0.000000	6.610991	-0.014977	NaN	0.000000	0.001584	0.001688	28.0803	0.130879	0.002093	62.5432	-150.437	-165.078	-0.037726	0.609351	-0.431440	-0.432800	-0.014977	62.5432	-0.431261	-371444	4.031980E-8	NaN
1179	1.000000	0.618724	7.37658e+06	-56639.1	1105.82	-29738.4	0.000000	0.000000	6.619002	-0.077514	NaN	0.000000	0.001565	0.001687	28.08	0.042750	0.001934	22.1064	-15.8438	-163.642	-0.059310	0.617431	-0.423427	-0.424720	-0.077514	22.1064	-0.420797	-264070	2.935356E-7	NaN
1179	1.000000	0.626710	7.37658e+06	-56639.1	1105.82	-29738.4	0.000000	0.000000	6.626990	-0.019333	NaN	0.000000	0.001552	0.001669	28.0801	0.068729	0.002104	32.6658	-48.2607	-163.06	-0.052154	0.625393	-0.415441	-0.416758	-0.019333	32.6658	-0.414997	-218484	8.848605E-8	NaN
1179	1.000000	0.634702	7.37658e+06	-56639.1	1105.82	-29738.4	0.000000	0.000000	6.634983	-0.029087	NaN	0.000000	0.001569	0.001656	28.08	0.125616	0.002180	57.6255	-57.4921	-164.161	0.032938	0.633375	-0.407449	-0.408776	-0.029087	57.6255	-0.407070	-168545	1.725780E-7	NaN
1179	1.000000	0.642690	7.37658e+06	-56639.1	1105.82	-29738.4	0.000000	0.000000	6.642970	-0.026817	NaN	0.000000	0.001585	0.001651	28.0813	0.071420	0.002088	34.1969	171.24	-166.137	-0.046493	0.641367	-0.399461	-0.400784	-0.026817	34.1969	-0.398873	-128799	2.082108E-7	NaN
1179	1.000000	0.650755	7.37658e+06	-56639.1	1105.82	-29738.4	0.000000	0.000000	6.651036	-0.013947	NaN	0.000000	0.001559	0.001651	28.0815	0.014332	0.002079	6.892312	152.349	-167.133	0.026112	0.649386	-0.391396	-0.392765	-0.013947	6.892312	-0.389878	-95812.2	1.455687E-7	NaN
1179	1.000000	0.658728	7.37658e+06	-56639.1	1105.82	-29738.4	0.000000	0.000000	6.659009	0.006628	NaN	0.000000	0.001553	0.001636	28.0812	0.021549	0.002051	10.5043	-13.3736	-163.862	-0.059604	0.657377	-0.383423	-0.384774	0.006628	10.5043	-0.383897	-78663.8	-8.426086E-8	NaN
1179	1.000000	0.666754	7.37658e+06	-56639.1	1105.82	-29738.4	0.000000	0.000000	6.667035	-0.008019	NaN	0.000000	0.001562	0.001658	28.0813	0.054817	0.002046	26.7944	123.568	-167.351	-0.009126	0.665403	-0.375397	-0.376748	-0.008019	26.7944	-0.375173	-58959.2	1.360105E-7	NaN
1179	1.000000	0.674727	7.37658e+06	-56639.1	1105.82	-29738.4	0.000000	0.000000	6.675009	0.037587	NaN	0.000000	0.001574	0.001662	28.0812	0.061784	0.002089	29.5722	8.492435	-164.943	0.009031	0.673440	-0.367424	-0.368711	0.037587	29.5722	-0.368378	-47071.3	-7.985053E-7	NaN
1179	1.000000	0.682726	7.37658e+06	-56639.1	1105.82	-29738.4	0.000000	0.000000	6.683009	0.039503	NaN	0.000000	0.001552	0.001635	28.0812	0.032446	0.002008	16.1593	92.0121	-168.695	-0.004347	0.681438	-0.359425	-0.360713	0.039503	16.1593	-0.361259	-37156.5	-1.063158E-6	NaN
1179	1.000000	0.690759	7.37658e+06	-56639.1	1105.82	-29738.4	0.000000	0.000000	6.691038	-0.052769	NaN	0.000000	0.001554	0.001659	28.0815	0.080918	0.002028	39.9092	-156.381	-165.629	-0.026716	0.689409	-0.351392	-0.352742	-0.052769	39.9092	-0.350400	-25871	2.039681E-6	NaN
1179	1.000000	0.698731	7.37658e+06	-56639.1	1105.82	-29738.4	0.000000	0.000000	6.699010	-0.046565	NaN	0.000000	0.001543	0.001652	28.0813	0.073005	0.001813	40.2746	115.945	-163.749	0.006186	0.697447	-0.343420	-0.344704	-0.046565	40.2746	-0.342553	-19895.2	2.340514E-6	NaN
1179	1.000000	0.706753	7.37658e+06	-56639.1	1105.82	-29738.4	0.000000	0.000000	6.707035	0.025820	NaN	0.000000	0.001528	0.001656	28.0815	0.112904	0.001999	56.4714	7.790589	-167.292	0.014082	0.705469	-0.335398	-0.336682	0.025820	56.4714	-0.335741	-15827.6	-1.631341E-6	NaN
1179	1.000000	0.714742	7.37658e+06	-56639.1	1105.82	-29738.4	0.000000	0.000000	6.715025	0.020044	NaN	0.000000	0.001572	0.001655	28.0812	0.054067	0.002252	24.0035	-131.02	-163.549	-0.053408	0.713396	-0.327408	-0.328755	0.020044	24.0035	-0.328035	-12208.3	-1.641847E-6	NaN
1179	1.000000	0.722761	7.37658e+06	-56639.1	1105.82	-29738.4	0.000000	0.000000	6.723044	0.044109	NaN	0.000000	0.001509	0.001652	28.0812	0.055311	0.002038	27.1352	-102.24	-166.55	0.052207	0.721425	-0.319390	-0.320726	0.044109	27.1352	-0.320609	-9497.29	-4.644425E-6	NaN
1179	1.000000	0.730760	7.37658e+06	-56639.1	1105.82	-29738.4	0.000000	0.000000	6.731040	-0.011711	NaN	0.000000	0.001561	0.001626	28.0814	0.105481	0.002042	51.6678	37.503	-165.21	-0.036728	0.729432	-0.311391	-0.312719	-0.011711	51.6678	-0.311221	-6904.4	1.696170E-6	NaN
1179	1.000000	0.738768	7.37658e+06	-56639.1	1105.82	-29738.4	0.000000	0.000000	6.739049	-0.012212	NaN	0.000000	0.001554	0.001664	28.0812	0.090393	0.002000	45.1931	6.925882	-163.949	0.056859	0.737423	-0.303383	-0.304728	-0.012212	45.1931	-0.303180	-5247.26	2.327398E-6	NaN
1179	1.000000	0.746767	7.37658e+06	-56639.1	1105.82	-29738.4	0.000000	0.000000	6.747048	-0.008455	NaN	0.000000	0.001558	0.001650	28.0815	0.059548	0.002031	29.3191	39.1951	-167.407	0.043491	0.745468	-0.295384	-0.296683	-0.008455	29.3191	-0.295168	-3986.52	2.120774E-6	NaN
1179	1.000000	0.754773	7.37658e+06	-56639.1	1105.82	-29738.4	0.000000	0.000000	6.755052	-0.052906	NaN	0.000000	0.001548	0.001645	28.0812	0.081544	0.001980	41.1763	12.4157	-164	0.026536	0.753476	-0.287378	-0.288675	-0.052906	41.1763	-0.286415	-2947.98	1.794641E-5	NaN
1179	1.000000	0.762777	7.37658e+06	-56639.1	1105.82	-29738.4	0.000000	0.000000	6.763057	-0.047796	NaN	0.000000	0.001597	0.001678	28.0814	0.045736	0.001988	23.0049	178.364	-166.562	-0.054676	0.761429	-0.279374	-0.280722	-0.047796	23.0049	-0.277815	-2187.7	2.184752E-5	NaN
1179	1.000000	0.770772	7.37658e+06	-56639.1	1105.82	-29738.4	0.000000	0.000000	6.771052	-0.031273	NaN	0.000000	0.001568	0.001619	28.0812	0.053178	0.002102	25.3027	-173.546	-164.143	-0.013391	0.769462	-0.271379	-0.272689	-0.031273	25.3027	-0.270452	-1692.08	1.848192E-5	NaN
1179	1.000000	0.778784	7.37658e+06	-56639.1	1105.82	-29738.4	0.000000	0.000000	6.779062	-0.091073	NaN	0.000000	0.001545	0.001633	28.0799	0.122327	0.001929	63.4204	-91.9125	-167.045	-0.113721	0.777514	-0.263367	-0.264637	-0.091073	63.4204	-0.262290	-1270.51	7.168205E-5	NaN
1179	1.000000	0.786810	7.37658e+06	-56639.1	1105.82	-29738.4	0.000000	0.000000	6.787093	0.046087	NaN	0.000000	0.001611	0.001587	28.0801	0.125355	0.002192	57.1886	172.852	-165.95	-0.005002	0.785470	-0.255341	-0.256681	0.046087	57.1886	-0.255945	-1015.46	-4.538519E-5	NaN
1179	1.000000	0.794774	7.37658e+06	-56639.1	1105.82	-29738.4	0.000000	0.000000	6.795054	-0.018846	NaN	0.000000	0.001499	0.001658	28.0801	0.089528	0.001916	46.7247	-1.752187	-164.852	0.070878	0.793467	-0.247377	-0.248684	-0.018846	46.7247	-0.247074	-740.726	2.544277E-5	NaN
1179	1.000000	0.802755	7.37658e+06	-56639.1	1105.82	-29738.4	0.000000	0.000000	6.803035	-0.019825	NaN	0.000000	0.001543	0.001657	28.0801	0.023209	0.002007	11.565	-136.502	-166.479	-0.040982	0.801471	-0.239396	-0.240680	-0.019825	11.565	-0.238111	-537.049	3.691515E-5	NaN
1179	1.000000	0.810785	7.37658e+06	-56639.1	1105.82	-29738.4	0.000000	0.000000	6.811065	-0.030472	NaN	0.000000	0.001545	0.001625	28.08	0.037399	0.002051	18.2356	-13.2979	-167.329	-0.049084	0.809492	-0.231366	-0.232659	-0.030472	18.2356	-0.230113	-402.063	7.578790E-5	NaN
1179	1.000000	0.818779	7.37658e+06	-56639.1	1105.82	-29738.4	0.000000	0.000000	6.819065	0.117160	NaN	0.000000	0.001548	0.001616	28.0803	0.062664	0.002020	31.0273	-128.927	-166.683	0.028621	0.817548	-0.223372	-0.224603	0.117160	31.0273	-0.226204	-348.696	-0.000336	NaN
1179	1.000000	0.826774	7.37658e+06	-56639.1	1105.82	-29738.4	0.000000	0.000000	6.827054	-0.019544	NaN	0.000000	0.001544	0.001603	28.08	0.085149	0.002078	40.9721	151.567	-165.188	-0.016175	0.825456	-0.215377	-0.216695	-0.019544	40.9721	-0.215019	-231.112	8.456530E-5	NaN
1179	1.000000	0.834781	7.37658e+06	-56639.1	1105.82	-29738.4	0.000000	0.000000	6.835060	-0.059908	NaN	0.000000	0.001542	0.001656	28.0803	0.012728	0.001896	6.713808	-96.2238	-167.424	-0.010160	0.833470	-0.207370	-0.208681	-0.059908	6.713808	-0.200678	-135.156	0.000443	NaN
1179	1.000000	0.842836	7.37658e+06	-56639.1	1105.82	-29738.4	0.000000	0.000000	6.843115	-0.059383	NaN	0.000000	0.001551	0.001653	28.0804	0.017052	0.002098	8.128941	-61.6821	-165.475	-0.058932	0.841489	-0.199315	-0.200662	-0.059383	8.128941	-0.193836	-104.209	0.000570	NaN
1179	1.000000	0.850794	7.37658e+06	-56639.1	1105.82	-29738.4	0.000000	0.000000	6.851077	0.040349	NaN	0.000000	0.001530	0.001607	28.08	0.071875	0.002093	34.345	42.3221	-166.728	-0.052905	0.849500	-0.191357	-0.192651	0.040349	34.345	-0.192238	-98.0253	-0.000412	NaN
1179	1.000000	0.858817	7.37658e+06	-56639.1	1105.82	-29738.4	0.000000	0.000000	6.859101	0.058989	NaN	0.000000	0.001548	0.001615	28.0805	0.048200	0.002007	24.015	-104.099	-168.124	0.069452	0.857496	-0.183334	-0.184655	0.058989	24.015	-0.185176	-74.6619	-0.000790	NaN
1179	1.000000	0.866813	7.37658e+06	-56639.1	1105.82	-29738.4	0.000000	0.000000	6.867092	-0.042179	NaN	0.000000	0.001547	0.001640	28.08	0.061097	0.001949	31.3457	168.502	-164.027	-0.042809	0.865516	-0.175338	-0.176635	-0.042179	31.3457	-0.174329	-48.8021	0.000864	NaN
1179	1.000000	0.874828	7.37658e+06	-56639.1	1105.82	-29738.4	0.000000	0.000000	6.875109	0.002882	NaN	0.000000	0.001612	0.001631	28.0802	0.102622	0.001980	51.8255	-138.939	-162.498	-0.017175	0.873505	-0.167323	-0.168646	0.002882	51.8255	-0.167365	-36.9594	-7.797731E-5	NaN
1179	1.000000	0.882814	7.37658e+06	-56639.1	1105.82	-29738.4	0.000000	0.000000	6.883095	0.008735	NaN	0.000000	0.001600	0.001606	28.0801	0.025699	0.002008	12.7956	-116.518	-166.542	0.012229	0.881492	-0.159337	-0.160659	0.008735	12.7956	-0.159849	-27.2465	-0.000321	NaN
1179	1.000000	0.890827	7.37658e+06	-56639.1	1105.82	-29738.4	0.000000	0.000000	6.891108	-0.009002	NaN	0.000000	0.001617	0.001607	28.0801	0.084291	0.002006	42.014	-166.934	-167.141	0.095168	0.889544	-0.151324	-0.152607	-0.009002	42.014	-0.151164	-19.0192	0.000473	NaN
1179	1.000000	0.898830	7.37658e+06	-56639.1	1105.82	-29738.4	0.000000	0.000000	6.899110	-0.040067	NaN	0.000000	0.001574	0.001657	28.0802	0.049999	0.001867	26.7838	50.0193	-168.212	-0.028497	0.897471	-0.143321	-0.144680	-0.040067	26.7838	-0.142199	-13.0055	0.003081	NaN
1179	1.000000	0.906825	7.37658e+06	-56639.1	1105.82	-29738.4	0.000000	0.000000	6.907108	0.037048	NaN	0.000000	0.001568	0.001642	28.08	0.099054	0.002037	48.6377	-65.8997	-165.534	0.003677	0.905549	-0.135326	-0.136602	0.037048	48.6377	-0.135897	-9.894544	-0.003744	NaN
1179	1.000000	0.914803	7.37658e+06	-56639.1	1105.82	-29738.4	0.000000	0.000000	6.915084	-0.006070	NaN	0.000000	0.001569	0.001628	28.0813	0.026296	0.002087	12.6016	-109.981	-163.872	-0.035529	0.913520	-0.127348	-0.128631	-0.006070	12.6016	-0.126987	-6.655160	0.000912	NaN
1179	1.000000	0.922843	7.37658e+06	-56639.1	1105.82	-29738.4	0.000000	0.000000	6.923124	-0.010755	NaN	0.000000	0.001585	0.001621	28.0814	0.086877	0.001970	44.1092	64.1166	-167.118	0.011973	0.921484	-0.119308	-0.120667	-0.010755	44.1092	-0.119125	-4.638724	0.002318	NaN
1179	1.000000	0.930822	7.37658e+06	-56639.1	1105.82	-29738.4	0.000000	0.000000	6.931104	0.022110	NaN	0.000000	0.001549	0.001626	28.0813	0.025605	0.001997	12.8248	-76.8664	-164.888	-0.034536	0.929567	-0.111329	-0.112584	0.022110	12.8248	-0.112622	-3.410587	-0.006483	NaN
1179	1.000000	0.938839	7.37658e+06	-56639.1	1105.82	-29738.4	0.000000	0.000000	6.939121	0.004726	NaN	0.000000	0.001565	0.001646	28.082	0.113261	0.001948	58.1521	-169.124	-163.794	-0.043509	0.937499	-0.103312	-0.104652	0.004726	58.1521	-0.103373	-2.167068	-0.002181	NaN
1179	1.000000	0.946848	7.37658e+06	-56639.1	1105.82	-29738.4	0.000000	0.000000	6.947127	-0.055447	NaN	0.000000	0.001564	0.001658	28.0812	0.088023	0.002001	43.9799	-97.7315	-166.189	-0.064496	0.945515	-0.095303	-0.096636	-0.055447	43.9799	-0.094357	-1.363757	0.040658	NaN
1179	1.000000	0.954832	7.37658e+06	-56639.1	1105.82	-29738.4	0.000000	0.000000	6.955113	0.003614	NaN	0.000000	0.001568	0.001625	28.0814	0.098154	0.002045	48.0008	65.6979	-168.81	0.036196	0.953524	-0.087319	-0.088627	0.003614	48.0008	-0.087375	-0.937007	-0.003857	NaN
1179	1.000000	0.962806	7.37658e+06	-56639.1	1105.82	-29738.4	0.000000	0.000000	6.963085	-0.066679	NaN	0.000000	0.001571	0.001690	28.0813	0.019362	0.002086	9.280475	-151.039	-167.673	-0.117798	0.961532	-0.079344	-0.080619	-0.066679	9.280475	-0.073956	-0.433921	0.153665	NaN
1179	1.000000	0.970878	7.37658e+06	-56639.1	1105.82	-29738.4	0.000000	0.000000	6.971158	-0.018439	NaN	0.000000	0.001587	0.001631	28.0812	0.069646	0.002020	34.4833	-2.865838	-166.103	-0.065167	0.969562	-0.071273	-0.072589	-0.018439	34.4833	-0.070872	-0.359905	0.051232	NaN
1179	1.000000	0.978854	7.37658e+06	-56639.1	1105.82	-29738.4	0.000000	0.000000	6.979136	0.014008	NaN	0.000000	0.001571	0.001591	28.0814	0.077377	0.001883	41.0845	-150.544	-165.799	-0.031187	0.977557	-0.063297	-0.064594	0.014008	41.0845	-0.063553	-0.227105	-0.061683	NaN
1179	1.000000	0.986860	7.37658e+06	-56639.1	1105.82	-29738.4	0.000000	0.000000	6.987140	-0.020678	NaN	0.000000	0.001560	0.001637	28.0813	0.035612	0.002068	17.22	-158.486	-166.968	-0.015403	0.985550	-0.055291	-0.056601	-0.020678	17.22	-0.054390	-0.123536	0.167383	NaN
1179	1.000000	0.994889	7.37658e+06	-56639.1	1105.82	-29738.4	0.000000	0.000000	6.995167	-0.068633	NaN	0.000000	0.001557	0.001675	28.0816	0.126040	0.002050	61.4887	121.624	-166.594	-0.117594	0.993587	-0.047262	-0.048564	-0.068633	61.4887	-0.046425	-0.071046	0.966039	NaN
1179	1.000000	1.002893	7.37658e+06	-56639.1	1105.82	-29738.4	0.000000	0.000000	7.003172	-0.060327	NaN	0.000000	0.001594	0.001688	28.0815	0.022695	0.001876	12.1003	-80.9895	-168.963	0.001204	1.001569	-0.039258	-0.040582	-0.060327	12.1003	-0.035519	-0.033174	1.818488	NaN
1179	1.000000	1.010893	7.37658e+06	-56639.1	1105.82	-29738.4	0.000000	0.000000	7.011171	-0.060258	NaN	0.000000	0.001536	0.001689	28.0821	0.058140	0.002019	28.7903	-61.0473	-166.952	-0.072003	1.009557	-0.031258	-0.032594	-0.060258	28.7903	-0.029689	-0.022559	2.671189	NaN
1179	1.000000	1.018894	7.37658e+06	-56639.1	1105.82	-29738.4	0.000000	0.000000	7.019176	0.003990	NaN	0.000000	0.001540	0.001667	28.0816	0.093512	0.001989	47.014	-40.254	-165.831	0.004732	1.017524	-0.023257	-0.024627	0.003990	47.014	-0.023320	-0.015263	-0.261425	NaN
1179	1.000000	1.026845	7.37658e+06	-56639.1	1105.82	-29738.4	0.000000	0.000000	7.027125	-0.021129	NaN	0.000000	0.001569	0.001661	28.0813	0.025315	0.002089	12.1213	146.784	-162.674	-0.042161	1.025587	-0.015306	-0.016564	-0.021129	12.1213	-0.013999	-0.008683	2.433553	NaN
1179	1.000000	1.034856	7.37658e+06	-56639.1	1105.82	-29738.4	0.000000	0.000000	7.035135	-0.035041	NaN	0.000000	0.001548	0.001666	28.0815	0.041647	0.001975	21.0918	132.232	-167.616	-0.052870	1.033521	-0.007295	-0.008630	-0.035041	21.0918	-0.006049	-0.004067	8.616811	NaN
1179	1.000000	1.042870	7.37658e+06	-56639.1	1105.82	-29738.4	0.000000	0.000000	7.043258	2.584355	NaN	0.000000	0.001550	0.001669	28.0813	3.564064	0.001831	1946.62	8.552514	-167.573	1.598556	1.041613	0.000719	-0.000538	2.584355	1946.62	-0.000276	-0.000205	-12586.7	NaN
1179	2.000000	1.048528	7.37658e+06	-56639.1	1105.82	-29738.4	0.000000	0.000000	7.049210	9.738050	NaN	0.000000	0.001528	0.001688	28.0802	9.286502	0.001650	5628.03	4.376895	-171.741	9.490263	1.048156	0.006377	0.006005	9.738050	5628.03	0.005079	0.004206	2315.52	79289.9
1179	2.000000	1.050511	7.37658e+06	-56639.1	1105.82	-29738.4	0.000000	0.000000	7.051208	10.1095	NaN	0.000000	0.001576	0.001692	28.0802	10.9188	0.001785	6116.1	10.9456	-174.756	10.5421	1.050206	0.008360	0.008055	10.1095	6116.1	0.007120	0.006153	1643.13	71239.1
1179	2.000000	1.052513	7.37658e+06	-56639.1	1105.82	-29738.4	0.000000	0.000000	7.053393	14.5544	NaN	0.000000	0.001560	0.001694	28.0802	13.529	0.001641	8242.89	9.901350	-177.285	14.2118	1.052067	0.010362	0.009916	14.5544	8242.89	0.009037	0.008131	1789.95	83517.2
1179	2.000000	1.054438	7.37658e+06	-56639.1	1105.82	-29738.4	0.000000	0.000000	7.055435	17.4009	NaN	0.000000	0.001589	0.001703	28.0803	15.3245	0.001776	8630.3	7.016411	-174.786	16.4685	1.054170	0.012287	0.012019	17.4009	8630.3	0.010775	0.010056	1730.46	78631
1179	2.000000	1.056440	7.37658e+06	-56639.1	1105.82	-29738.4	0.000000	0.000000	7.057506	19.0886	NaN	0.000000	0.001575	0.001683	28.0802	17.9425	0.001895	9469.75	11.0967	-179.876	18.7008	1.056238	0.014289	0.014087	19.0886	9469.75	0.012777	0.012434	1535.2	77590.1
1179	2.000000	1.058429	7.37658e+06	-56639.1	1105.82	-29738.4	0.000000	0.000000	7.059788	26.176	NaN	0.000000	0.001587	0.001678	28.0804	19.0733	0.001674	11395	4.803442	-176.397	24.5888	1.058094	0.016279	0.015943	26.176	11395	0.014556	0.014697	1780.99	85875
1179	2.000000	1.060437	7.37658e+06	-56639.1	1105.82	-29738.4	0.000000	0.000000	7.061877	28.1772	NaN	0.000000	0.001620	0.001673	28.0801	21.3921	0.001868	11453.7	6.121551	-177.261	26.6054	1.060114	0.018286	0.017963	28.1772	11453.7	0.016441	0.017255	1632.99	79663.9
1179	2.000000	1.062501	7.37658e+06	-56639.1	1105.82	-29738.4	0.000000	0.000000	7.064132	32.8188	NaN	0.000000	0.001607	0.001686	28.0803	23.3173	0.001811	12875.6	7.089472	-179.443	33.7343	1.062097	0.020350	0.019946	32.8188	12875.6	0.018438	0.020147	1628.94	82876.2
1179	2.000000	1.064398	7.37659e+06	-56639.1	1105.82	-29738.4	0.000000	0.000000	7.066085	34.1701	NaN	0.000000	0.001601	0.001694	28.0801	24.4975	0.001747	14022.6	4.884196	-178.231	33.5862	1.064080	0.022247	0.021929	34.1701	14022.6	0.020419	0.023205	1472.51	84102.4
1179	2.000000	1.066425	7.37659e+06	-56639.1	1105.82	-29738.4	0.000000	0.000000	7.068395	41.0454	NaN	0.000000	0.001590	0.001686	28.0802	27.2505	0.001799	15144.9	6.315421	179.968	41.0589	1.066166	0.024274	0.024015	41.0454	15144.9	0.022241	0.026187	1567.39	85505.7
1179	2.000000	1.068412	7.37659e+06	-56639.1	1105.82	-29738.4	0.000000	0.000000	7.070635	47.1894	NaN	0.000000	0.001555	0.001674	28.0803	28.3695	0.001749	16221.3	6.394712	179.084	47.3818	1.068056	0.026261	0.025905	47.1894	16221.3	0.024079	0.029362	1607.15	86490.1
1179	2.000000	1.070375	7.37659e+06	-56639.1	1105.82	-29738.4	0.000000	0.000000	7.072743	50.7105	NaN	0.000000	0.001604	0.001672	28.08	30.1902	0.001694	17823	4.666509	179.337	48.5285	1.070159	0.028224	0.028008	50.7105	17823	0.026090	0.033029	1535.34	89599.8
1179	2.000000	1.072451	7.37659e+06	-56639.1	1105.82	-29738.4	0.000000	0.000000	7.075110	57.7934	NaN	0.000000	0.001609	0.001711	28.0804	33.2605	0.001912	17397.9	8.988994	177.07	58.7283	1.072108	0.030300	0.029957	57.7934	17397.9	0.027809	0.036324	1591.04	83401.2
1179	2.000000	1.074355	7.37659e+06	-56639.1	1105.82	-29738.4	0.000000	0.000000	7.077105	59.9998	NaN	0.000000	0.001618	0.001704	28.0808	34.3068	0.001886	18193.1	4.436237	179.759	57.5086	1.074132	0.032204	0.031981	59.9998	18193.1	0.029731	0.040187	1493.02	82915.7
1179	2.000000	1.076401	7.37659e+06	-56639.1	1105.82	-29738.4	0.000000	0.000000	7.079483	68.0658	NaN	0.000000	0.001655	0.001693	28.0802	36.3845	0.001833	19852.9	5.226502	178.868	66.8572	1.076067	0.034250	0.033916	68.0658	19852.9	0.031679	0.044296	1536.63	86182
1179	2.000000	1.078418	7.37659e+06	-56639.1	1105.82	-29738.4	0.000000	0.000000	7.081766	74.529	NaN	0.000000	0.001640	0.001672	28.0801	36.7422	0.001735	21179.6	4.218638	179.939	75.0908	1.078021	0.036267	0.035870	74.529	21179.6	0.033628	0.048600	1533.51	87775.2
1179	2.000000	1.080425	7.37659e+06	-56639.1	1105.82	-29738.4	0.000000	0.000000	7.084071	81.7914	NaN	0.000000	0.001635	0.001699	28.08	39.3977	0.001778	22164.5	6.788909	176.646	82.5731	1.080034	0.038274	0.037883	81.7914	22164.5	0.035506	0.052931	1545.24	88018.8
1179	2.000000	1.082415	7.37659e+06	-56639.1	1105.82	-29738.4	0.000000	0.000000	7.086310	87.8451	NaN	0.000000	0.001633	0.001675	28.0814	42.1709	0.001823	23132.2	10.9915	171.388	87.6589	1.082050	0.040264	0.039899	87.8451	23132.2	0.037416	0.057520	1527.2	88121.3
1179	2.000000	1.084405	7.37659e+06	-56639.1	1105.82	-29738.4	0.000000	0.000000	7.088358	89.2248	NaN	0.000000	0.001630	0.001683	28.0818	42.2639	0.001719	24591.8	3.815888	177.944	88.7898	1.084118	0.042254	0.041967	89.2248	24591.8	0.039533	0.062828	1420.15	89637.1
1179	2.000000	1.086429	7.37659e+06	-56639.1	1105.82	-29738.4	0.000000	0.000000	7.090936	102.694	NaN	0.000000	0.001635	0.001662	28.0814	45.1342	0.001910	23628.8	7.918507	175.79	103.729	1.086046	0.044278	0.043895	102.694	23628.8	0.041019	0.066687	1539.94	83597.6
1179	2.000000	1.088388	7.37659e+06	-56639.1	1105.82	-29738.4	0.000000	0.000000	7.093194	110.003	NaN	0.000000	0.001594	0.001666	28.0813	45.8792	0.001847	24843.5	7.762850	175.21	109.229	1.087970	0.046237	0.045819	110.003	24843.5	0.042916	0.071780	1532.49	84719.4
1179	2.000000	1.090339	7.37659e+06	-56639.1	1105.82	-29738.4	0.000000	0.000000	7.095112	109.159	NaN	0.000000	0.001600	0.001641	28.0814	48.3897	0.001768	27370.3	4.437646	176.868	106.787	1.090019	0.048188	0.047868	109.159	27370.3	0.045197	0.078148	1396.83	89452.6
1179	2.000000	1.092365	7.37659e+06	-56639.1	1105.82	-29738.4	0.000000	0.000000	7.097639	121.348	NaN	0.000000	0.001615	0.001676	28.0815	50.5933	0.001773	28534.8	4.306933	176.99	118.703	1.092036	0.050214	0.049885	121.348	28534.8	0.047024	0.083438	1454.35	90254
1179	2.000000	1.094283	7.37659e+06	-56639.1	1105.82	-29738.4	0.000000	0.000000	7.100064	133.672	NaN	0.000000	0.001639	0.001677	28.0818	51.8777	0.001753	29586.4	3.175066	177.233	129.592	1.094054	0.052132	0.051903	133.672	29586.4	0.048744	0.088569	1509.24	90829
1179	2.000000	1.096381	7.37659e+06	-56639.1	1105.82	-29738.4	0.000000	0.000000	7.102268	136.258	NaN	0.000000	0.001595	0.001679	28.0815	54.753	0.001850	29603.9	7.255911	173.815	135.413	1.096070	0.054230	0.053919	136.258	29603.9	0.050777	0.094831	1436.85	87830.6
1179	2.000000	1.098365	7.37659e+06	-56639.1	1105.82	-29738.4	0.000000	0.000000	7.104787	149.254	NaN	0.000000	0.001603	0.001673	28.0814	55.4082	0.001832	30240.6	3.453778	177.12	148.225	1.097980	0.056214	0.055829	149.254	30240.6	0.052512	0.100337	1487.53	87223.6
1179	2.000000	1.100369	7.37659e+06	-56639.1	1105.82	-29738.4	0.000000	0.000000	7.107176	158.608	NaN	0.000000	0.001600	0.001747	28.0814	58.7595	0.001852	31726.7	7.990932	172.451	158.426	1.100003	0.058218	0.057852	158.608	31726.7	0.054469	0.106726	1486.13	88728.5
1179	2.000000	1.102396	7.37659e+06	-56639.1	1105.82	-29738.4	0.000000	0.000000	7.109374	162.78	NaN	0.000000	0.001579	0.001715	28.0815	59.6308	0.001738	34313.2	1.250516	178.424	161.695	1.102107	0.060245	0.059956	162.78	34313.2	0.056687	0.114197	1425.44	92769.9
1179	2.000000	1.104356	7.37659e+06	-56639.1	1105.82	-29738.4	0.000000	0.000000	7.111743	172.73	NaN	0.000000	0.001610	0.001694	28.0815	62.0979	0.001869	33233.4	4.613690	174.984	170.496	1.104218	0.062205	0.062067	172.73	33233.4	0.058307	0.119806	1441.75	87721.9
1179	2.000000	1.106334	7.37659e+06	-56639.1	1105.82	-29738.4	0.000000	0.000000	7.114194	184.216	NaN	0.000000	0.001549	0.001682	28.0818	63.6863	0.001759	36216	0.687893	178.18	181.792	1.106195	0.064183	0.064044	184.216	36216	0.060368	0.127132	1449.01	92799.7
1179	2.000000	1.108324	7.37659e+06	-56639.1	1105.82	-29738.4	0.000000	0.000000	7.116920	202.102	NaN	0.000000	0.001553	0.001689	28.0816	64.8758	0.001761	36837.2	9.224654	170.052	198.869	1.107965	0.066173	0.065814	202.102	36837.2	0.062058	0.133291	1516.25	92184.7
1179	2.000000	1.110334	7.37659e+06	-56639.1	1105.82	-29738.4	0.000000	0.000000	7.119230	209.406	NaN	0.000000	0.001541	0.001685	28.0815	68.1294	0.001865	36527.2	5.485425	173.919	208.448	1.110017	0.068183	0.067866	209.406	36527.2	0.063883	0.140100	1494.69	89160.1
1179	2.000000	1.112359	7.37659e+06	-56639.1	1105.82	-29738.4	0.000000	0.000000	7.121616	218.169	NaN	0.000000	0.001551	0.001748	28.0813	69.7371	0.001861	37469.8	5.869295	173.388	216.137	1.111966	0.070208	0.069815	218.169	37469.8	0.065841	0.147584	1478.27	89111.7
1179	2.000000	1.114383	7.37659e+06	-56639.1	1105.82	-29738.4	0.000000	0.000000	7.124221	232.282	NaN	0.000000	0.001557	0.001673	28.0814	71.064	0.001867	38060.9	5.125175	173.279	231.183	1.113968	0.072232	0.071817	232.282	38060.9	0.067655	0.154679	1501.7	88417.2
1179	2.000000	1.116400	7.37659e+06	-56639.1	1105.82	-29738.4	0.000000	0.000000	7.126618	241.521	NaN	0.000000	0.001556	0.001663	28.0802	72.1411	0.001690	42699.1	0.101319	177.705	242.703	1.116091	0.074249	0.073940	241.521	42699.1	0.070007	0.164114	1471.66	96298.2
1179	2.000000	1.118302	7.37659e+06	-56639.1	1105.82	-29738.4	0.000000	0.000000	7.129188	257.759	NaN	0.000000	0.001574	0.001687	28.0804	74.6295	0.001802	41406.5	7.802823	169.963	255.089	1.117960	0.076151	0.075809	257.759	41406.5	0.071482	0.170168	1514.73	91707
1179	2.000000	1.120276	7.37659e+06	-56639.1	1105.82	-29738.4	0.000000	0.000000	7.131847	274.425	NaN	0.000000	0.001539	0.001680	28.0803	76.1552	0.001846	41254.3	4.555800	174.581	271.286	1.119843	0.078125	0.077692	274.425	41254.3	0.073136	0.177077	1549.75	89569.7
1179	2.000000	1.122266	7.37659e+06	-56639.1	1105.82	-29738.4	0.000000	0.000000	7.134338	286.587	NaN	0.000000	0.001600	0.001620	28.08	78.2545	0.001735	45091.2	5.491014	172.583	280.663	1.121852	0.080115	0.079701	286.587	45091.2	0.075348	0.186523	1536.47	95389.1
1179	2.000000	1.124363	7.37659e+06	-56639.1	1105.82	-29738.4	0.000000	0.000000	7.136697	292.961	NaN	0.000000	0.001585	0.001651	28.0801	79.35	0.001761	45066.5	1.970693	175.312	291.084	1.124128	0.082212	0.081977	292.961	45066.5	0.077336	0.195205	1500.78	93192.7
1179	2.000000	1.126416	7.37659e+06	-56639.1	1105.82	-29738.4	0.000000	0.000000	7.139241	304.9	NaN	0.000000	0.001590	0.001647	28.0801	83.0818	0.001888	43996.8	5.247191	172.662	307.935	1.126140	0.084265	0.083989	304.9	43996.8	0.079067	0.202915	1502.6	89235.3
1179	2.000000	1.128353	7.37659e+06	-56639.1	1105.82	-29738.4	0.000000	0.000000	7.142157	328.687	NaN	0.000000	0.001550	0.001667	28.0802	83.7925	0.001730	48443.4	7.126228	170.406	329.604	1.128035	0.086202	0.085884	328.687	48443.4	0.081113	0.212208	1548.89	96078.7
1179	2.000000	1.130310	7.37659e+06	-56639.1	1105.82	-29738.4	0.000000	0.000000	7.144649	341.696	NaN	0.000000	0.001603	0.001686	28.0802	86.6485	0.001864	46489.9	5.888738	171.411	340.399	1.129969	0.088159	0.087819	341.696	46489.9	0.082647	0.219303	1558.1	90700.5
1179	2.000000	1.132336	7.37659e+06	-56639.1	1105.82	-29738.4	0.000000	0.000000	7.147414	359.65	NaN	0.000000	0.001561	0.001697	28.08	87.9907	0.001813	48521	5.490477	172.253	359.343	1.131964	0.090185	0.089813	359.65	48521	0.084626	0.228620	1573.14	92714.1
1179	2.000000	1.134295	7.37659e+06	-56639.1	1105.82	-29738.4	0.000000	0.000000	7.149656	366.524	NaN	0.000000	0.001573	0.001697	28.0802	88.6753	0.001782	49754	1.385776	175.265	363.155	1.134065	0.092144	0.091914	366.524	49754	0.086619	0.238187	1538.81	93141.2
1179	2.000000	1.136238	7.37659e+06	-56639.1	1105.82	-29738.4	0.000000	0.000000	7.152070	377.978	NaN	0.000000	0.001587	0.001662	28.0801	92.5412	0.001916	48299.7	9.229340	168.494	372.508	1.135834	0.094087	0.093683	377.978	48299.7	0.088218	0.245990	1536.56	88973.2
1179	2.000000	1.138398	7.37659e+06	-56639.1	1105.82	-29738.4	0.000000	0.000000	7.154794	391.695	NaN	0.000000	0.001538	0.001663	28.0802	91.4003	0.001701	53723.5	1.467008	175.263	395.606	1.138058	0.096247	0.095907	391.695	53723.5	0.090778	0.258736	1513.88	96496
1179	2.000000	1.140262	7.37659e+06	-56639.1	1105.82	-29738.4	0.000000	0.000000	7.157305	407.417	NaN	0.000000	0.001553	0.001681	28.0804	94.654	0.001805	52452.4	1.947345	174.937	403.295	1.139934	0.098111	0.097783	407.417	52452.4	0.092286	0.266379	1529.46	92851.5
1179	2.000000	1.142320	7.37659e+06	-56639.1	1105.82	-29738.4	0.000000	0.000000	7.159885	420.111	NaN	0.000000	0.001580	0.001684	28.08	96.6653	0.001805	53565.4	1.600164	175.218	417.966	1.142055	0.100169	0.099904	420.111	53565.4	0.094287	0.276686	1518.37	93038.8
1179	2.000000	1.144215	7.37659e+06	-56639.1	1105.82	-29738.4	0.000000	0.000000	7.162698	442.425	NaN	0.000000	0.001586	0.001694	28.0801	98.424	0.001659	59321.3	6.158433	169.994	436.552	1.143877	0.102064	0.101726	442.425	59321.3	0.096470	0.288142	1535.44	100967
1179	2.000000	1.146251	7.37659e+06	-56639.1	1105.82	-29738.4	0.000000	0.000000	7.164962	447.971	NaN	0.000000	0.001563	0.001651	28.0802	102.379	0.001827	56030.2	5.798899	170.328	445.036	1.146061	0.104100	0.103910	447.971	56030.2	0.098104	0.296852	1509.07	93956