File: remote_trans/data/nanoindenter/0828-1/data/Data_2025-08-06,11h17m57s/2025-07-22_16-23-58_1_212.txt
2025-07-22, 16:23:58, 1
Index	Phase	Displacement	Time	Pos X	Pos Y	Pos Z	Rot A	Rot B	Piezo Z	Force A	Force B	Gripper	Voltage A	Voltage B	Temperature	Amplitude force	Amplitude pos	Stiffness	Phase shift	Phase excitation	Force A raw	Displacement raw	HMax	HMax raw	Real Force	Real Stiffness	Contact Depth	Area	Hardness	Reduced Mod.
[#]	[#]	[um]	[s]	[um]	[um]	[um]	[m°]	[m°]	[um]	[uN]	[uN]	[V]	[V]	[V]	[°C]	[uN]	[um]	[N/m]	[°]	[°]	[uN]	[um]	[um]	[um]	[uN]	[N/m]	[um]	[um^2]	[MPa]	[MPa]
212	1.000000	0.002707	7.36712e+06	-49239.1	955.818	-29760	0.000000	0.000000	6.002820	-0.035946	NaN	0.000000	0.001624	0.001722	28.0785	0.120014	0.001043	115.025	-103.306	-162.714	-0.064921	0.001451	-1.099646	-1.100902	-0.035946	115.025	-1.099412	-4.922302E+14	7.302666E-17	NaN
212	1.000000	0.012736	7.36712e+06	-49239.1	955.819	-29760	0.000000	0.000000	6.012848	-0.045052	NaN	0.000000	0.001653	0.001733	28.0782	0.021878	0.001126	19.435	-67.3937	17.4054	-0.004659	0.011308	-1.089617	-1.091045	-0.045052	19.435	-1.087878	-3.446030E+14	1.307366E-16	NaN
212	1.000000	0.022668	7.36712e+06	-49239.1	955.818	-29760	0.000000	0.000000	6.022783	0.017107	NaN	0.000000	0.001634	0.001708	28.0783	0.131677	0.001731	76.0869	-68.7485	-162.427	-0.004820	0.021372	-1.079685	-1.080981	0.017107	76.0869	-1.079854	-2.688769E+14	-6.362457E-17	NaN
212	1.000000	0.032646	7.36712e+06	-49239.1	955.818	-29760	0.000000	0.000000	6.032756	-0.089271	NaN	0.000000	0.001659	0.001738	28.0785	0.091624	0.001951	46.9563	176.934	16.0027	-0.053059	0.031289	-1.069707	-1.071064	-0.089271	46.9563	-1.068281	-1.879720E+14	4.749179E-16	NaN
212	1.000000	0.042657	7.36712e+06	-49239.1	955.819	-29760	0.000000	0.000000	6.042768	-0.066084	NaN	0.000000	0.001652	0.001742	28.0787	0.051142	0.001938	26.3841	-66.2411	-165.021	-0.040583	0.041401	-1.059696	-1.060952	-0.066084	26.3841	-1.057817	-1.359842E+14	4.859707E-16	NaN
212	1.000000	0.052640	7.36712e+06	-49239.1	955.818	-29760	0.000000	0.000000	6.052751	-0.065082	NaN	0.000000	0.001630	0.001724	28.0783	0.189718	0.002058	92.1752	124.209	14.2276	-0.035261	0.051232	-1.049713	-1.051121	-0.065082	92.1752	-1.049184	-1.040977E+14	6.252053E-16	NaN
212	1.000000	0.062687	7.36712e+06	-49239.1	955.818	-29760	0.000000	0.000000	6.062798	-0.079934	NaN	0.000000	0.001624	0.001688	28.0785	0.083152	0.002010	41.3777	-120.666	-167.541	-0.084345	0.061350	-1.039666	-1.041003	-0.079934	41.3777	-1.038217	-7.412953E+13	1.078296E-15	NaN
212	1.000000	0.072641	7.36712e+06	-49239.1	955.818	-29760	0.000000	0.000000	6.072752	-0.078595	NaN	0.000000	0.001653	0.001727	28.0784	0.063935	0.002083	30.6908	-162.78	16.4002	-0.125759	0.071256	-1.029712	-1.031097	-0.078595	30.6908	-1.027791	-5.367457E+13	1.464285E-15	NaN
212	1.000000	0.082638	7.36712e+06	-49239.1	955.817	-29760	0.000000	0.000000	6.082750	-0.038328	NaN	0.000000	0.001640	0.001681	28.0786	0.118120	0.001988	59.4127	-42.7252	-162.572	-0.096837	0.081377	-1.019715	-1.020976	-0.038328	59.4127	-1.019231	-4.117252E+13	9.309076E-16	NaN
212	1.000000	0.092655	7.36712e+06	-49239.1	955.817	-29760	0.000000	0.000000	6.092765	-0.111503	NaN	0.000000	0.001671	0.001692	28.0783	0.134882	0.002087	64.6403	30.7069	17.2479	-0.074167	0.091311	-1.009698	-1.011042	-0.111503	64.6403	-1.008404	-2.943759E+13	3.787779E-15	NaN
212	1.000000	0.102675	7.36712e+06	-49239.1	955.819	-29760	0.000000	0.000000	6.102789	0.000302	NaN	0.000000	0.001654	0.001679	28.0784	0.044938	0.001822	24.658	9.341796	-169.17	-0.000464	0.101345	-0.999678	-1.001008	0.000302	24.658	-0.999687	-2.246755E+13	-1.346333E-17	NaN
212	1.000000	0.112682	7.36712e+06	-49239.1	955.817	-29760	0.000000	0.000000	6.112796	0.016252	NaN	0.000000	0.001644	0.001703	28.0783	0.045946	0.002045	22.4714	30.1029	16.3046	0.038169	0.111300	-0.989671	-0.991053	0.016252	22.4714	-0.990214	-1.674905E+13	-9.703360E-16	NaN
212	1.000000	0.122672	7.36712e+06	-49239.1	955.818	-29760	0.000000	0.000000	6.122785	-0.020092	NaN	0.000000	0.001699	0.001768	28.0785	0.176198	0.002018	87.3214	46.6261	-165.223	-0.004008	0.121363	-0.979681	-0.980990	-0.020092	87.3214	-0.979509	-1.201685E+13	1.671997E-15	NaN
212	1.000000	0.132654	7.36712e+06	-49239.1	955.819	-29760	0.000000	0.000000	6.132764	-0.095565	NaN	0.000000	0.001640	0.001760	28.0778	0.151553	0.002045	74.1224	-43.3735	14.3215	-0.105585	0.131259	-0.969699	-0.971094	-0.095565	74.1224	-0.968732	-8.601497E+12	1.111024E-14	NaN
212	1.000000	0.142666	7.36712e+06	-49239.1	955.818	-29760	0.000000	0.000000	6.142778	-0.059578	NaN	0.000000	0.001584	0.001777	28.0771	0.072707	0.002008	36.2154	110.006	-161.176	-0.074129	0.141351	-0.959687	-0.961002	-0.059578	36.2154	-0.958453	-6.251890E+12	9.529521E-15	NaN
212	1.000000	0.152696	7.36712e+06	-49239.1	955.819	-29760	0.000000	0.000000	6.152808	-0.068271	NaN	0.000000	0.001595	0.001774	28.0772	0.049794	0.002088	23.8448	-55.2287	12.3101	-0.142896	0.151309	-0.949657	-0.951044	-0.068271	23.8448	-0.947509	-4.450748E+12	1.533933E-14	NaN
212	1.000000	0.162684	7.36712e+06	-49239.1	955.817	-29760	0.000000	0.000000	6.162796	-0.050535	NaN	0.000000	0.001619	0.001758	28.0773	0.094264	0.002030	46.444	77.4177	-167.198	-0.120850	0.161353	-0.939669	-0.941000	-0.050535	46.444	-0.938853	-3.401397E+12	1.485710E-14	NaN
212	1.000000	0.172711	7.36712e+06	-49239.1	955.818	-29760	0.000000	0.000000	6.172824	-0.010096	NaN	0.000000	0.001580	0.001692	28.0774	0.099361	0.002060	48.2353	133.187	16.5977	-0.063495	0.171290	-0.929642	-0.931063	-0.010096	48.2353	-0.929485	-2.542433E+12	3.970929E-15	NaN
212	1.000000	0.182669	7.36712e+06	-49239.1	955.819	-29760	0.000000	0.000000	6.182781	-0.053754	NaN	0.000000	0.001599	0.001713	28.0774	0.086580	0.001996	43.3668	82.6785	-166.696	0.014842	0.181372	-0.919684	-0.920981	-0.053754	43.3668	-0.918754	-1.821325E+12	2.951393E-14	NaN
212	1.000000	0.192681	7.36712e+06	-49239.1	955.817	-29760	0.000000	0.000000	6.192793	-0.048215	NaN	0.000000	0.001583	0.001693	28.0776	0.116645	0.002087	55.8802	-75.5096	16.0548	-0.086000	0.191299	-0.909672	-0.911054	-0.048215	55.8802	-0.909025	-1.345828E+12	3.582530E-14	NaN
212	1.000000	0.202715	7.36712e+06	-49239.1	955.819	-29760	0.000000	0.000000	6.202828	-0.018061	NaN	0.000000	0.001589	0.001731	28.0774	0.060212	0.001956	30.7765	-52.7684	-167.2	-0.044086	0.201389	-0.899638	-0.900964	-0.018061	30.7765	-0.899198	-9.913538E+11	1.821889E-14	NaN
212	1.000000	0.212691	7.36712e+06	-49239.1	955.819	-29760	0.000000	0.000000	6.212803	-0.043319	NaN	0.000000	0.001606	0.001732	28.0777	0.053202	0.002070	25.7057	-160.619	14.3059	-0.040291	0.211309	-0.889662	-0.891044	-0.043319	25.7057	-0.888398	-7.083782E+11	6.115215E-14	NaN
212	1.000000	0.222701	7.36712e+06	-49239.1	955.818	-29760	0.000000	0.000000	6.222813	-0.035681	NaN	0.000000	0.001568	0.001707	28.0776	0.128672	0.002131	60.3869	-74.2656	-162.029	-0.038949	0.221399	-0.879652	-0.880954	-0.035681	60.3869	-0.879209	-5.321196E+11	6.705483E-14	NaN
212	1.000000	0.232705	7.36712e+06	-49239.1	955.818	-29760	0.000000	0.000000	6.232818	-0.028544	NaN	0.000000	0.001601	0.001706	28.078	0.103186	0.001940	53.1779	-58.7844	13.3452	-0.046333	0.231381	-0.869648	-0.870972	-0.028544	53.1779	-0.869246	-3.901550E+11	7.316177E-14	NaN
212	1.000000	0.242748	7.36712e+06	-49239.1	955.817	-29760	0.000000	0.000000	6.242859	-0.053911	NaN	0.000000	0.001544	0.001736	28.0774	0.090080	0.001901	47.3796	-124.114	-161.678	-0.040563	0.241399	-0.859605	-0.860954	-0.053911	47.3796	-0.858752	-2.813366E+11	1.916247E-13	NaN
212	1.000000	0.252721	7.36712e+06	-49239.1	955.818	-29760	0.000000	0.000000	6.252832	-0.061959	NaN	0.000000	0.001592	0.001707	28.0776	0.002072	0.002077	0.997518	-108.837	14.6065	0.015313	0.251386	-0.849632	-0.850967	-0.061959	0.997518	-0.803047	-4.945631E+10	1.252805E-12	NaN
212	1.000000	0.262727	7.36712e+06	-49239.1	955.819	-29760	0.000000	0.000000	6.262839	-0.033791	NaN	0.000000	0.001622	0.001725	28.0773	0.038344	0.002093	18.3245	34.4651	-165.278	-0.068264	0.261433	-0.839626	-0.840920	-0.033791	18.3245	-0.838243	-1.484203E+11	2.276714E-13	NaN
212	1.000000	0.272712	7.36712e+06	-49239.1	955.818	-29760	0.000000	0.000000	6.272824	-0.024896	NaN	0.000000	0.001649	0.001753	28.0789	0.098971	0.001944	50.9086	178.491	16.1236	-0.006785	0.271387	-0.829641	-0.830966	-0.024896	50.9086	-0.829275	-1.121898E+11	2.219058E-13	NaN
212	1.000000	0.282770	7.36712e+06	-49239.1	955.819	-29760	0.000000	0.000000	6.282882	-0.061271	NaN	0.000000	0.001582	0.001750	28.0786	0.070528	0.002007	35.1378	-23.4667	-165.029	-0.043539	0.281449	-0.819583	-0.820904	-0.061271	35.1378	-0.818275	-7.958258E+10	7.699006E-13	NaN
212	1.000000	0.292715	7.36712e+06	-49239.1	955.818	-29760	0.000000	0.000000	6.292828	-0.031840	NaN	0.000000	0.001565	0.001737	28.0788	0.059914	0.002002	29.9305	144.683	12.8811	0.048328	0.291411	-0.809638	-0.810942	-0.031840	29.9305	-0.808840	-5.926993E+10	5.372104E-13	NaN
212	1.000000	0.302759	7.36712e+06	-49239.1	955.817	-29760	0.000000	0.000000	6.302871	-0.046571	NaN	0.000000	0.001590	0.001727	28.0788	0.137108	0.002078	65.9698	-65.7239	-165.866	-0.075594	0.301413	-0.799594	-0.800940	-0.046571	65.9698	-0.799065	-4.366865E+10	1.066452E-12	NaN
212	1.000000	0.312746	7.36712e+06	-49239.1	955.818	-29760	0.000000	0.000000	6.312859	-0.024382	NaN	0.000000	0.001606	0.001708	28.0787	0.033974	0.001932	17.5846	-104.497	21.0675	-0.005670	0.311391	-0.789607	-0.790962	-0.024382	17.5846	-0.788567	-3.145046E+10	7.752364E-13	NaN
212	1.000000	0.322732	7.36712e+06	-49239.1	955.818	-29760	0.000000	0.000000	6.322845	-0.028068	NaN	0.000000	0.001609	0.001733	28.0787	0.037347	0.001906	19.599	72.2948	-161.342	-0.035495	0.321424	-0.779621	-0.780929	-0.028068	19.599	-0.778547	-2.298704E+10	1.221054E-12	NaN
212	1.000000	0.332783	7.36712e+06	-49239.1	955.818	-29760	0.000000	0.000000	6.332893	-0.080873	NaN	0.000000	0.001596	0.001721	28.0785	0.016823	0.001868	9.005020	40.218	15.6626	-0.070490	0.331416	-0.769570	-0.770937	-0.080873	9.005020	-0.762835	-1.405601E+10	5.753655E-12	NaN
212	1.000000	0.342770	7.36712e+06	-49239.1	955.818	-29760	0.000000	0.000000	6.342881	-0.072095	NaN	0.000000	0.001571	0.001754	28.0789	0.028370	0.002029	13.9857	134.284	-167.349	-0.093562	0.341425	-0.759583	-0.760928	-0.072095	13.9857	-0.755717	-1.124681E+10	6.410239E-12	NaN
212	1.000000	0.352772	7.36712e+06	-49239.1	955.819	-29760	0.000000	0.000000	6.352884	-0.047573	NaN	0.000000	0.001579	0.001740	28.0785	0.065460	0.001943	33.6869	-90.7547	15.1065	-0.040003	0.351432	-0.749581	-0.750921	-0.047573	33.6869	-0.748522	-8.976363E+9	5.299807E-12	NaN
212	1.000000	0.362763	7.36712e+06	-49239.1	955.819	-29760	0.000000	0.000000	6.362876	-0.026684	NaN	0.000000	0.001573	0.001749	28.0786	0.033108	0.001859	17.8134	62.968	-166.932	-0.010422	0.361488	-0.739590	-0.740865	-0.026684	17.8134	-0.738467	-6.548953E+9	4.074489E-12	NaN
212	1.000000	0.372771	7.36712e+06	-49239.1	955.817	-29760	0.000000	0.000000	6.372885	0.003702	NaN	0.000000	0.001612	0.001776	28.0785	0.096874	0.002071	46.7708	-123.166	15.2296	-0.020153	0.371428	-0.729582	-0.730925	0.003702	46.7708	-0.729642	-4.965042E+9	-7.455662E-13	NaN
212	1.000000	0.382792	7.36712e+06	-49239.1	955.817	-29760	0.000000	0.000000	6.382906	-0.019891	NaN	0.000000	0.001610	0.001748	28.0788	0.089383	0.002114	42.2902	10.6255	-164.314	-0.081381	0.381436	-0.719561	-0.720917	-0.019891	42.2902	-0.719208	-3.578241E+9	5.558808E-12	NaN
212	1.000000	0.392795	7.36712e+06	-49239.1	955.818	-29760	0.000000	0.000000	6.392905	-0.095799	NaN	0.000000	0.001601	0.001758	28.0785	0.161143	0.002018	79.8655	-56.7276	12.0151	-0.087214	0.391429	-0.709558	-0.710924	-0.095799	79.8655	-0.708658	-2.568820E+9	3.729288E-11	NaN
212	1.000000	0.402788	7.36712e+06	-49239.1	955.818	-29760	0.000000	0.000000	6.402897	-0.111144	NaN	0.000000	0.001625	0.001744	28.0786	0.055005	0.002003	27.4614	-172.875	-166.121	-0.120106	0.401471	-0.699565	-0.700882	-0.111144	27.4614	-0.696530	-1.754416E+9	6.335083E-11	NaN
212	1.000000	0.412787	7.36712e+06	-49239.1	955.818	-29760	0.000000	0.000000	6.412898	-0.071498	NaN	0.000000	0.001602	0.001737	28.0771	0.137519	0.002034	67.6067	-134.544	12.9009	-0.041150	0.411441	-0.689566	-0.690912	-0.071498	67.6067	-0.688773	-1.374520E+9	5.201638E-11	NaN
212	1.000000	0.422812	7.36712e+06	-49239.1	955.819	-29760	0.000000	0.000000	6.422923	-0.075778	NaN	0.000000	0.001622	0.001718	28.0774	0.090374	0.002049	44.0962	30.7296	-165.325	-0.024265	0.421518	-0.679541	-0.680835	-0.075778	44.0962	-0.678252	-9.869616E+8	7.677956E-11	NaN
212	1.000000	0.432826	7.36712e+06	-49239.1	955.819	-29760	0.000000	0.000000	6.432939	-0.037864	NaN	0.000000	0.001605	0.001766	28.0771	0.059412	0.001876	31.6737	-29.294	16.8042	-0.033840	0.431445	-0.669527	-0.670908	-0.037864	31.6737	-0.668630	-7.288545E+8	5.194973E-11	NaN
212	1.000000	0.442824	7.36712e+06	-49239.1	955.819	-29760	0.000000	0.000000	6.442936	-0.059401	NaN	0.000000	0.001592	0.001740	28.0774	0.045140	0.002048	22.0356	150.745	-166.4	-0.031826	0.441512	-0.659529	-0.660841	-0.059401	22.0356	-0.657507	-5.132374E+8	1.157374E-10	NaN
212	1.000000	0.452776	7.36712e+06	-49239.1	955.819	-29760	0.000000	0.000000	6.452888	-0.051873	NaN	0.000000	0.001600	0.001764	28.0774	0.041533	0.002090	19.874	101.371	15.6279	-0.002810	0.451463	-0.649577	-0.650890	-0.051873	19.874	-0.647619	-3.756572E+8	1.380851E-10	NaN
212	1.000000	0.462795	7.36712e+06	-49239.1	955.819	-29760	0.000000	0.000000	6.462907	-0.045302	NaN	0.000000	0.001597	0.001731	28.0774	0.129331	0.001935	66.8439	28.994	-162.849	-0.038223	0.461494	-0.639558	-0.640859	-0.045302	66.8439	-0.639050	-2.865823E+8	1.580758E-10	NaN
212	1.000000	0.472791	7.36712e+06	-49239.1	955.818	-29760	0.000000	0.000000	6.472903	-0.043342	NaN	0.000000	0.001598	0.001719	28.0771	0.070340	0.001929	36.4668	22.6228	12.7933	-0.077680	0.471428	-0.629562	-0.630925	-0.043342	36.4668	-0.628670	-2.064256E+8	2.099627E-10	NaN
212	1.000000	0.482838	7.36712e+06	-49239.1	955.819	-29760	0.000000	0.000000	6.482952	-0.009736	NaN	0.000000	0.001607	0.001751	28.0776	0.066145	0.001980	33.4017	171.239	-164.728	0.075332	0.481445	-0.619515	-0.620908	-0.009736	33.4017	-0.619296	-1.534465E+8	6.344906E-11	NaN
212	1.000000	0.492831	7.36712e+06	-49239.1	955.818	-29760	0.000000	0.000000	6.492942	-0.083491	NaN	0.000000	0.001567	0.001726	28.0774	0.038140	0.002076	18.3752	-7.763226	17.4056	-0.040201	0.491484	-0.609522	-0.610869	-0.083491	18.3752	-0.606114	-1.010735E+8	8.260390E-10	NaN
212	1.000000	0.502804	7.36712e+06	-49239.1	955.819	-29760	0.000000	0.000000	6.502916	-0.048723	NaN	0.000000	0.001552	0.001724	28.0776	0.044220	0.002019	21.9059	-91.8773	-165.384	-0.013038	0.501521	-0.599549	-0.600832	-0.048723	21.9059	-0.597881	-7.785190E+7	6.258383E-10	NaN
212	1.000000	0.512848	7.36712e+06	-49239.1	955.817	-29760	0.000000	0.000000	6.512958	-0.106807	NaN	0.000000	0.001613	0.001714	28.0773	0.008191	0.002018	4.059741	-99.9547	14.34	-0.053526	0.511457	-0.589505	-0.590896	-0.106807	4.059741	-0.569773	-3.187851E+7	3.350429E-9	NaN
212	1.000000	0.522850	7.36712e+06	-49239.1	955.818	-29760	0.000000	0.000000	6.522961	-0.073395	NaN	0.000000	0.001592	0.001707	28.0775	0.037113	0.002052	18.0891	-147.736	-164.981	0.013215	0.521567	-0.579503	-0.580786	-0.073395	18.0891	-0.576460	-3.943280E+7	1.861263E-9	NaN
212	1.000000	0.532848	7.36712e+06	-49239.1	955.818	-29760	0.000000	0.000000	6.532959	-0.069134	NaN	0.000000	0.001677	0.001722	28.0775	0.098671	0.002016	48.9369	27.0118	18.1051	-0.069163	0.531463	-0.569505	-0.570890	-0.069134	48.9369	-0.568446	-3.055998E+7	2.262229E-9	NaN
212	1.000000	0.542857	7.36712e+06	-49239.1	955.818	-29760	0.000000	0.000000	6.542968	-0.060113	NaN	0.000000	0.001660	0.001721	28.0784	0.102617	0.001996	51.4105	13.0718	-169.161	-0.032582	0.541562	-0.559496	-0.560791	-0.060113	51.4105	-0.558619	-2.234977E+7	2.689632E-9	NaN
212	1.000000	0.552861	7.36712e+06	-49239.1	955.817	-29760	0.000000	0.000000	6.552972	-0.055805	NaN	0.000000	0.001642	0.001690	28.0786	0.056532	0.001969	28.7152	136.051	15.2025	-0.050381	0.551511	-0.549492	-0.550842	-0.055805	28.7152	-0.548035	-1.594901E+7	3.498947E-9	NaN
212	1.000000	0.562847	7.36712e+06	-49239.1	955.818	-29760	0.000000	0.000000	6.562958	-0.056492	NaN	0.000000	0.001675	0.001745	28.0787	0.081143	0.001987	40.8321	20.5497	-167.017	-0.069467	0.561545	-0.539506	-0.540808	-0.056492	40.8321	-0.538469	-1.175222E+7	4.806886E-9	NaN
212	1.000000	0.572863	7.36712e+06	-49239.1	955.818	-29760	0.000000	0.000000	6.572976	-0.034945	NaN	0.000000	0.001660	0.001710	28.0789	0.012680	0.002075	6.110429	-176.028	12.5443	-0.026050	0.571490	-0.529490	-0.530863	-0.034945	6.110429	-0.525201	-7.68955e+06	4.544513E-9	NaN
212	1.000000	0.582863	7.36712e+06	-49239.1	955.818	-29760	0.000000	0.000000	6.582975	-0.057538	NaN	0.000000	0.001665	0.001750	28.0788	0.180628	0.002034	88.8073	131.655	-165.709	-0.000380	0.581523	-0.519490	-0.520830	-0.057538	88.8073	-0.519004	-6.30586e+06	9.124465E-9	NaN
212	1.000000	0.592875	7.36712e+06	-49239.1	955.819	-29760	0.000000	0.000000	6.592989	-0.009252	NaN	0.000000	0.001645	0.001730	28.0788	0.008201	0.002035	4.030326	31.7135	13.6111	-0.083979	0.591448	-0.509478	-0.510905	-0.009252	4.030326	-0.507756	-4.39694e+06	2.104257E-9	NaN
212	1.000000	0.602862	7.36712e+06	-49239.1	955.818	-29760	0.000000	0.000000	6.602974	-0.054747	NaN	0.000000	0.001660	0.001739	28.079	0.099301	0.001985	50.0296	-29.5879	-160.949	-0.063410	0.601596	-0.499491	-0.500757	-0.054747	50.0296	-0.498670	-3.28445e+06	1.666851E-8	NaN
212	1.000000	0.612871	7.36712e+06	-49239.1	955.818	-29760	0.000000	0.000000	6.612981	-0.110124	NaN	0.000000	0.001658	0.001725	28.079	0.039034	0.002069	18.8648	12.6157	19.5818	-0.153013	0.611531	-0.489482	-0.490822	-0.110124	18.8648	-0.485104	-2.12296e+06	5.187273E-8	NaN
212	1.000000	0.622889	7.36712e+06	-49239.1	955.819	-29760	0.000000	0.000000	6.623000	-0.054472	NaN	0.000000	0.001620	0.001728	28.0788	0.082570	0.001947	42.4182	147.438	-161.958	-0.061755	0.621553	-0.479464	-0.480800	-0.054472	42.4182	-0.478501	-1.71611e+06	3.174134E-8	NaN
212	1.000000	0.632880	7.36712e+06	-49239.1	955.819	-29760	0.000000	0.000000	6.632992	-0.053002	NaN	0.000000	0.001670	0.001736	28.079	0.004644	0.001912	2.428614	-89.4788	13.6541	-0.008232	0.631503	-0.469472	-0.470850	-0.053002	2.428614	-0.453105	-755175	7.018498E-8	NaN
212	1.000000	0.642858	7.36712e+06	-49239.1	955.818	-29760	0.000000	0.000000	6.642967	-0.127765	NaN	0.000000	0.001636	0.001752	28.0789	0.067746	0.002010	33.7041	117.739	-165.89	-0.003238	0.641586	-0.459495	-0.460767	-0.127765	33.7041	-0.456652	-847133	1.508202E-7	NaN
212	1.000000	0.652887	7.36712e+06	-49239.1	955.817	-29760	0.000000	0.000000	6.653001	-0.008386	NaN	0.000000	0.001639	0.001718	28.079	0.061346	0.002022	30.3458	89.1079	17.9568	-0.054997	0.651518	-0.449466	-0.450835	-0.008386	30.3458	-0.449258	-666649	1.258002E-8	NaN
212	1.000000	0.662886	7.36712e+06	-49239.1	955.818	-29760	0.000000	0.000000	6.662998	-0.048546	NaN	0.000000	0.001667	0.001713	28.0789	0.073287	0.002083	35.1794	-66.5505	-165.747	-0.145942	0.661635	-0.439466	-0.440718	-0.048546	35.1794	-0.438432	-469054	1.034967E-7	NaN
212	1.000000	0.672893	7.36712e+06	-49239.1	955.818	-29760	0.000000	0.000000	6.673005	-0.039226	NaN	0.000000	0.001657	0.001734	28.0789	0.145674	0.001965	74.1417	-141.766	15.2503	-0.098683	0.671586	-0.429460	-0.430767	-0.039226	74.1417	-0.429063	-345786	1.134413E-7	NaN
212	1.000000	0.682908	7.36712e+06	-49239.1	955.819	-29760	0.000000	0.000000	6.683019	-0.052159	NaN	0.000000	0.001668	0.001707	28.0778	0.026478	0.001946	13.608	161.198	-165.072	0.016825	0.681671	-0.419445	-0.420682	-0.052159	13.608	-0.416571	-230015	2.267651E-7	NaN
212	1.000000	0.692902	7.36712e+06	-49239.1	955.818	-29760	0.000000	0.000000	6.693014	-0.055581	NaN	0.000000	0.001654	0.001713	28.0777	0.021144	0.001968	10.7435	142.85	15.0167	-0.047592	0.691531	-0.409451	-0.410822	-0.055581	10.7435	-0.405571	-160463	3.463815E-7	NaN
212	1.000000	0.702898	7.36712e+06	-49239.1	955.819	-29760	0.000000	0.000000	6.703007	-0.131516	NaN	0.000000	0.001609	0.001727	28.0776	0.020323	0.002088	9.731020	77.0097	-163.312	-0.105484	0.701608	-0.399455	-0.400745	-0.131516	9.731020	-0.389318	-94061.8	1.398184E-6	NaN
212	1.000000	0.712897	7.36712e+06	-49239.1	955.819	-29760	0.000000	0.000000	6.713010	-0.026746	NaN	0.000000	0.001648	0.001725	28.0778	0.128367	0.001974	65.0157	174.218	14.8802	-0.016427	0.711567	-0.389456	-0.390786	-0.026746	65.0157	-0.389147	-93533.5	2.859508E-7	NaN
212	1.000000	0.722930	7.36712e+06	-49239.1	955.818	-29760	0.000000	0.000000	6.723041	-0.092893	NaN	0.000000	0.001646	0.001702	28.0777	0.097178	0.001910	50.8852	112.047	-165.073	-0.070015	0.721608	-0.379423	-0.380745	-0.092893	50.8852	-0.378053	-64854.9	1.432316E-6	NaN
212	1.000000	0.732922	7.36712e+06	-49239.1	955.818	-29760	0.000000	0.000000	6.733032	-0.095419	NaN	0.000000	0.001642	0.001739	28.0779	0.074977	0.002017	37.1658	145.482	14.1733	-0.055727	0.731593	-0.369431	-0.370760	-0.095419	37.1658	-0.367506	-45728.5	2.086638E-6	NaN
212	1.000000	0.742915	7.36712e+06	-49239.1	955.818	-29760	0.000000	0.000000	6.743024	-0.127235	NaN	0.000000	0.001635	0.001704	28.0778	0.080673	0.002110	38.2346	-118.769	-164.208	-0.123238	0.741663	-0.359438	-0.360690	-0.127235	38.2346	-0.356942	-32181.9	3.953622E-6	NaN
212	1.000000	0.752917	7.36712e+06	-49239.1	955.819	-29760	0.000000	0.000000	6.753030	-0.020725	NaN	0.000000	0.001604	0.001732	28.0782	0.025940	0.002143	12.1017	55.6458	16.5751	-0.017334	0.751620	-0.349436	-0.350733	-0.020725	12.1017	-0.348152	-23997.5	8.636426E-7	NaN
212	1.000000	0.762959	7.36712e+06	-49239.1	955.817	-29760	0.000000	0.000000	6.763071	-0.029782	NaN	0.000000	0.001618	0.001681	28.0778	0.042812	0.001928	22.2069	-32.9571	-165.989	-0.054335	0.761650	-0.339394	-0.340703	-0.029782	22.2069	-0.338388	-17300.3	1.721486E-6	NaN
212	1.000000	0.772959	7.36712e+06	-49239.1	955.819	-29760	0.000000	0.000000	6.773070	-0.065256	NaN	0.000000	0.001597	0.001696	28.0779	0.082112	0.002006	40.9311	77.7884	16.3015	-0.086725	0.771613	-0.329394	-0.330740	-0.065256	40.9311	-0.328198	-12275.9	5.315752E-6	NaN
212	1.000000	0.782924	7.36712e+06	-49239.1	955.819	-29760	0.000000	0.000000	6.783036	-0.051709	NaN	0.000000	0.001548	0.001727	28.0778	0.056738	0.002021	28.0771	-171.29	-162.346	-0.060977	0.781686	-0.319429	-0.320667	-0.051709	28.0771	-0.318048	-8707.44	5.938538E-6	NaN
212	1.000000	0.792943	7.36712e+06	-49239.1	955.818	-29760	0.000000	0.000000	6.793056	-0.023259	NaN	0.000000	0.001601	0.001689	28.0781	0.095003	0.001906	49.8539	82.483	13.7935	-0.023568	0.791614	-0.309410	-0.310739	-0.023259	49.8539	-0.309060	-6414.21	3.626127E-6	NaN
212	1.000000	0.802931	7.36712e+06	-49239.1	955.818	-29760	0.000000	0.000000	6.803041	-0.117783	NaN	0.000000	0.001636	0.001716	28.0778	0.041368	0.002175	19.0163	-80.8204	-163.669	-0.070744	0.801670	-0.299422	-0.300682	-0.117783	19.0163	-0.294776	-3933.2	2.994585E-5	NaN
212	1.000000	0.812970	7.36712e+06	-49239.1	955.818	-29760	0.000000	0.000000	6.813079	-0.116833	NaN	0.000000	0.001601	0.001712	28.0782	0.078848	0.001961	40.2018	1.293660	16.9801	-0.118048	0.811545	-0.289383	-0.290808	-0.116833	40.2018	-0.287204	-3029.48	3.856522E-5	NaN
212	1.000000	0.822963	7.36712e+06	-49239.1	955.818	-29760	0.000000	0.000000	6.823074	-0.064236	NaN	0.000000	0.001612	0.001722	28.0792	0.056594	0.001971	28.7184	155.973	-165.103	-0.108762	0.821684	-0.279390	-0.280669	-0.064236	28.7184	-0.277713	-2179.9	2.946761E-5	NaN
212	1.000000	0.832965	7.36712e+06	-49239.1	955.818	-29760	0.000000	0.000000	6.833078	-0.032592	NaN	0.000000	0.001628	0.001701	28.0791	0.047246	0.002006	23.5501	61.4457	13.4341	-0.057581	0.831588	-0.269388	-0.270765	-0.032592	23.5501	-0.268350	-1571.96	2.073350E-5	NaN
212	1.000000	0.842954	7.36712e+06	-49239.1	955.819	-29760	0.000000	0.000000	6.843068	0.006155	NaN	0.000000	0.001616	0.001699	28.0792	0.064907	0.002008	32.3227	-95.7487	-165.245	0.009373	0.841622	-0.259399	-0.260731	0.006155	32.3227	-0.259542	-1153.19	-5.337139E-6	NaN
212	1.000000	0.852935	7.36712e+06	-49239.1	955.818	-29760	0.000000	0.000000	6.853044	-0.106734	NaN	0.000000	0.001574	0.001715	28.079	0.079469	0.001998	39.7672	-38.5642	13.1385	-0.109069	0.851620	-0.249418	-0.250733	-0.106734	39.7672	-0.247405	-749.529	0.000142	NaN
212	1.000000	0.862983	7.36712e+06	-49239.1	955.818	-29760	0.000000	0.000000	6.863094	-0.064744	NaN	0.000000	0.001638	0.001697	28.0793	0.050602	0.002094	24.162	149.839	-162.471	0.017395	0.861640	-0.239370	-0.240713	-0.064744	24.162	-0.237361	-522.719	0.000124	NaN
212	1.000000	0.872978	7.36712e+06	-49239.1	955.819	-29760	0.000000	0.000000	6.873090	-0.029025	NaN	0.000000	0.001603	0.001733	28.079	0.051625	0.002121	24.3393	142.438	17.2842	-0.140308	0.871613	-0.229375	-0.230740	-0.029025	24.3393	-0.228481	-378.886	7.660683E-5	NaN
212	1.000000	0.882993	7.36712e+06	-49239.1	955.818	-29760	0.000000	0.000000	6.883104	-0.061128	NaN	0.000000	0.001602	0.001721	28.079	0.056903	0.001918	29.6623	-139.476	-164.282	-0.120749	0.881681	-0.219360	-0.220672	-0.061128	29.6623	-0.217815	-256.273	0.000239	NaN
212	1.000000	0.892997	7.36712e+06	-49239.1	955.818	-29760	0.000000	0.000000	6.893106	-0.106457	NaN	0.000000	0.001612	0.001688	28.0789	0.085399	0.001972	43.2962	-131.6	15.6801	-0.127632	0.891677	-0.209356	-0.210676	-0.106457	43.2962	-0.207512	-174.766	0.000609	NaN
212	1.000000	0.902973	7.36712e+06	-49239.1	955.819	-29760	0.000000	0.000000	6.903085	-0.050552	NaN	0.000000	0.001627	0.001736	28.0794	0.120911	0.002006	60.2765	157.594	-166.209	-0.038325	0.901664	-0.199380	-0.200689	-0.050552	60.2765	-0.198751	-125.648	0.000402	NaN
212	1.000000	0.912993	7.36712e+06	-49239.1	955.818	-29760	0.000000	0.000000	6.913107	0.013028	NaN	0.000000	0.001626	0.001776	28.0788	0.054797	0.002057	26.6417	-28.7951	12.852	-0.043416	0.911657	-0.189360	-0.190696	0.013028	26.6417	-0.189727	-89.0163	-0.000146	NaN
212	1.000000	0.922988	7.36712e+06	-49239.1	955.818	-29760	0.000000	0.000000	6.923102	0.003886	NaN	0.000000	0.001597	0.001741	28.0789	0.017854	0.002023	8.824971	-10.4888	-162.539	0.008677	0.921695	-0.179365	-0.180658	0.003886	8.824971	-0.179695	-60.2943	-6.445116E-5	NaN
212	1.000000	0.932987	7.36712e+06	-49239.1	955.818	-29760	0.000000	0.000000	6.933100	-0.009267	NaN	0.000000	0.001600	0.001687	28.0788	0.016417	0.001917	8.564840	82.0158	10.2378	-0.085156	0.931637	-0.169366	-0.170716	-0.009267	8.564840	-0.168555	-38.7686	0.000239	NaN
212	1.000000	0.943019	7.36712e+06	-49239.1	955.819	-29760	0.000000	0.000000	6.943129	-0.105874	NaN	0.000000	0.001597	0.001719	28.0789	0.017612	0.001958	8.994882	167.9	-165.819	-0.133968	0.941736	-0.159334	-0.160617	-0.105874	8.994882	-0.150506	-18.5022	0.005722	NaN
212	1.000000	0.953024	7.36712e+06	-49239.1	955.818	-29760	0.000000	0.000000	6.953137	-0.024411	NaN	0.000000	0.001627	0.001705	28.0779	0.081218	0.002062	39.3851	-60.6134	14.9235	-0.027096	0.951685	-0.149329	-0.150668	-0.024411	39.3851	-0.148864	-17.2688	0.001414	NaN
212	1.000000	0.963022	7.36712e+06	-49239.1	955.818	-29760	0.000000	0.000000	6.963134	-0.057817	NaN	0.000000	0.001595	0.001685	28.0779	0.013952	0.002132	6.544873	174.642	-162.212	-0.022894	0.961708	-0.139331	-0.140645	-0.057817	6.544873	-0.132705	-8.596195	0.006726	NaN
212	1.000000	0.973060	7.36712e+06	-49239.1	955.821	-29760	0.000000	0.000000	6.973170	-0.102879	NaN	0.000000	0.001620	0.001731	28.0778	0.170036	0.001998	85.0823	-24.3009	16.2412	-0.111842	0.971704	-0.129293	-0.130649	-0.102879	85.0823	-0.128386	-7.088677	0.014513	NaN
212	1.000000	0.983040	7.36712e+06	-49239.1	955.82	-29760	0.000000	0.000000	6.983148	-0.141261	NaN	0.000000	0.001568	0.001735	28.0777	0.056676	0.001925	29.4435	14.3845	-165.159	-0.150531	0.981725	-0.119313	-0.120628	-0.141261	29.4435	-0.115715	-3.952050	0.035744	NaN
212	1.000000	0.993036	7.36712e+06	-49239.1	955.82	-29760	0.000000	0.000000	6.993148	-0.052262	NaN	0.000000	0.001579	0.001733	28.0776	0.128471	0.002002	64.1585	32.59	16.2445	-0.123106	0.991681	-0.109317	-0.110672	-0.052262	64.1585	-0.108706	-2.821632	0.018522	NaN
212	1.000000	1.003023	7.36712e+06	-49239.1	955.819	-29760	0.000000	0.000000	7.003136	-0.019593	NaN	0.000000	0.001582	0.001704	28.0776	0.047593	0.002114	22.5183	98.5114	-164.12	-0.026600	1.001682	-0.099330	-0.100671	-0.019593	22.5183	-0.098677	-1.707470	0.011475	NaN
212	1.000000	1.013051	7.36712e+06	-49239.1	955.82	-29760	0.000000	0.000000	7.013166	0.015614	NaN	0.000000	0.001568	0.001715	28.0777	0.131903	0.001936	68.1184	-39.2156	10.5313	-0.075537	1.011637	-0.089302	-0.090715	0.015614	68.1184	-0.089474	-1.050627	-0.014862	NaN
212	1.000000	1.023062	7.36712e+06	-49239.1	955.82	-29760	0.000000	0.000000	7.023173	-0.082116	NaN	0.000000	0.001579	0.001720	28.0777	0.123728	0.001960	63.1386	116.424	-163.562	-0.126431	1.021726	-0.079290	-0.080627	-0.082116	63.1386	-0.078315	-0.561454	0.146255	NaN
212	1.000000	1.033029	7.36712e+06	-49239.1	955.819	-29760	0.000000	0.000000	7.033140	-0.072454	NaN	0.000000	0.001622	0.001708	28.0781	0.040460	0.001818	22.2496	-68.3809	14.6261	-0.173487	1.031702	-0.069324	-0.070651	-0.072454	22.2496	-0.066882	-0.280827	0.258003	NaN
212	1.000000	1.043038	7.36712e+06	-49239.1	955.82	-29760	0.000000	0.000000	7.043151	-0.019870	NaN	0.000000	0.001632	0.001755	28.0777	0.010425	0.002033	5.127555	117.825	-167.091	-0.031851	1.041771	-0.059315	-0.060582	-0.019870	5.127555	-0.056409	-0.141685	0.140242	NaN
212	1.000000	1.053053	7.36712e+06	-49239.1	955.821	-29760	0.000000	0.000000	7.053166	-0.023389	NaN	0.000000	0.001684	0.001751	28.0777	0.034993	0.002008	17.4239	-29.2624	13.6005	-0.036238	1.051712	-0.049300	-0.050641	-0.023389	17.4239	-0.048293	-0.080997	0.288762	NaN
212	1.000000	1.063085	7.36712e+06	-49239.1	955.82	-29760	0.000000	0.000000	7.063196	-0.064664	NaN	0.000000	0.001681	0.001720	28.0779	0.058265	0.002115	27.5453	-97.606	-161.742	-0.118818	1.061806	-0.039268	-0.040547	-0.064664	27.5453	-0.037507	-0.038024	1.700599	NaN
212	1.000000	1.073060	7.36712e+06	-49239.1	955.82	-29760	0.000000	0.000000	7.073172	-0.058291	NaN	0.000000	0.001673	0.001723	28.0776	0.090126	0.001954	46.1131	-64.5031	16.2846	-0.043968	1.071712	-0.029293	-0.030641	-0.058291	46.1131	-0.028345	-0.020718	2.813547	NaN
212	1.000000	1.083068	7.36712e+06	-49239.1	955.821	-29760	0.000000	0.000000	7.083184	0.043358	NaN	0.000000	0.001674	0.001755	28.0781	0.204722	0.002011	101.814	56.9497	-165.806	0.037912	1.081738	-0.019285	-0.020615	0.043358	101.814	-0.019604	-0.012273	-3.532893	NaN
212	1.000000	1.093068	7.36712e+06	-49239.1	955.821	-29760	0.000000	0.000000	7.093189	0.173697	NaN	0.000000	0.001645	0.001747	28.0791	0.394258	0.001879	209.821	37.6239	15.3588	0.184586	1.091678	-0.009285	-0.010675	0.173697	209.821	-0.009906	-0.006333	-27.4259	NaN
212	1.000000	1.103065	7.36712e+06	-49239.1	955.82	-29760	0.000000	0.000000	7.103202	0.564998	NaN	0.000000	0.001690	0.001732	28.0792	1.056155	0.001996	529.163	30.6663	-165.594	0.484877	1.101789	0.000712	-0.000564	0.564998	529.163	-8.900259E-5	-6.639819E-5	-8509.24	NaN
212	1.000000	1.113070	7.36712e+06	-49239.1	955.82	-29760	0.000000	0.000000	7.113305	2.954675	NaN	0.000000	0.001684	0.001747	28.079	4.122491	0.001922	2144.99	20.9949	10.8146	2.018066	1.111740	0.010717	0.009387	2.954675	2144.99	0.009684	0.008832	334.54	20853
212	2.000000	1.119744	7.36712e+06	-49239.1	955.82	-29760	0.000000	0.000000	7.120182	7.866117	NaN	0.000000	0.001669	0.001733	28.0791	9.766367	0.001751	5578.43	12.6373	-172.382	7.895281	1.119440	0.017391	0.017087	7.866117	5578.43	0.016334	0.017105	459.868	38969.3
212	2.000000	1.122222	7.36712e+06	-49239.1	955.821	-29760	0.000000	0.000000	7.122853	12.5705	NaN	0.000000	0.001592	0.001777	28.0789	13.0836	0.001626	8045.08	11.2294	4.003686	11.3957	1.121879	0.019869	0.019526	12.5705	8045.08	0.018697	0.020536	612.107	51291.1
212	2.000000	1.124661	7.36712e+06	-49239.1	955.82	-29760	0.000000	0.000000	7.125602	20.1022	NaN	0.000000	0.001602	0.001786	28.0789	16.5072	0.001701	9703.07	7.012044	-174.363	18.893	1.124369	0.022308	0.022016	20.1022	9703.07	0.020755	0.023742	846.693	57533.9
212	2.000000	1.127172	7.36712e+06	-49239.1	955.821	-29760	0.000000	0.000000	7.128569	31.2012	NaN	0.000000	0.001604	0.001773	28.0788	20.6792	0.001601	12920.3	7.002537	1.139111	30.0727	1.126786	0.024819	0.024434	31.2012	12920.3	0.023008	0.027491	1134.96	71195.2
212	2.000000	1.129615	7.36712e+06	-49239.1	955.82	-29760	0.000000	0.000000	7.131703	48.0025	NaN	0.000000	0.001601	0.001732	28.079	25.1435	0.001710	14702	7.115814	-179.51	45.8573	1.129325	0.027262	0.026972	48.0025	14702	0.024813	0.030676	1564.8	76691.7
212	2.000000	1.132079	7.36712e+06	-49239.1	955.82	-29760	0.000000	0.000000	7.134922	66.3665	NaN	0.000000	0.001623	0.001760	28.0788	27.6437	0.001700	16261.6	5.536517	1.190853	61.4686	1.131720	0.029726	0.029367	66.3665	16261.6	0.026665	0.034115	1945.37	80438.5
212	2.000000	1.134538	7.36712e+06	-49239.1	955.822	-29760	0.000000	0.000000	7.138263	87.8143	NaN	0.000000	0.001603	0.001760	28.0789	30.6512	0.001703	17997.9	3.115300	-177.427	84.5773	1.134285	0.032185	0.031932	87.8143	17997.9	0.028525	0.037743	2326.64	84640.1
212	2.000000	1.137093	7.36712e+06	-49239.1	955.821	-29760	0.000000	0.000000	7.141744	110.328	NaN	0.000000	0.001594	0.001748	28.0789	35.0057	0.001848	18942.5	7.113632	-1.252020	108.232	1.136748	0.034740	0.034395	110.328	18942.5	0.030372	0.041518	2657.35	84936.1
212	2.000000	1.139561	7.36712e+06	-49239.1	955.822	-29760	0.000000	0.000000	7.144997	129.439	NaN	0.000000	0.001556	0.001760	28.0792	36.6727	0.001721	21303.3	1.385260	-177.429	126.349	1.139285	0.037208	0.036932	129.439	21303.3	0.032651	0.046418	2788.57	90339.4
212	2.000000	1.142070	7.36712e+06	-49239.1	955.821	-29760	0.000000	0.000000	7.148560	155.063	NaN	0.000000	0.001542	0.001738	28.079	38.721	0.001742	22221.8	0.345826	3.536107	150.131	1.141711	0.039717	0.039358	155.063	22221.8	0.034484	0.050551	3067.44	90299.7
212	2.000000	1.144545	7.36712e+06	-49239.1	955.821	-29760	0.000000	0.000000	7.151968	177.743	NaN	0.000000	0.001514	0.001742	28.0791	42.0156	0.001736	24205	7.260892	174.604	173.795	1.144287	0.042192	0.041934	177.743	24205	0.036685	0.055742	3188.67	93667
212	2.000000	1.147131	7.36712e+06	-49239.1	955.821	-29760	0.000000	0.000000	7.155590	202.957	NaN	0.000000	0.001502	0.001745	28.0778	44.6624	0.001734	25749.8	3.600460	-0.528029	203.539	1.146665	0.044778	0.044312	202.957	25749.8	0.038867	0.061132	3319.96	95150.6
212	2.000000	1.149508	7.36712e+06	-49239.1	955.822	-29760	0.000000	0.000000	7.159185	232.591	NaN	0.000000	0.001571	0.001746	28.0779	47.8723	0.001708	28022.6	6.751349	174.513	227.57	1.149198	0.047155	0.046845	232.591	28022.6	0.040930	0.066453	3500.1	99317.6
212	2.000000	1.152016	7.36712e+06	-49239.1	955.821	-29760	0.000000	0.000000	7.163053	265.674	NaN	0.000000	0.001599	0.001730	28.0778	49.5009	0.001736	28506.4	6.300913	-4.985283	259.149	1.151642	0.049663	0.049289	265.674	28506.4	0.042673	0.071118	3735.69	97662
212	2.000000	1.154554	7.36712e+06	-49239.1	955.82	-29760	0.000000	0.000000	7.166675	292.013	NaN	0.000000	0.001531	0.001692	28.0776	51.1269	0.001861	27477.5	-0.129976	-178.364	289.16	1.154255	0.052201	0.051902	292.013	27477.5	0.044231	0.075419	3871.89	91413.5
212	2.000000	1.157037	7.36712e+06	-49239.1	955.821	-29760	0.000000	0.000000	7.170592	326.899	NaN	0.000000	0.001496	0.001707	28.0775	54.0544	0.001912	28267	5.720343	-4.395862	323.398	1.156686	0.054684	0.054333	326.899	28267	0.046010	0.080481	4061.83	91034.8
212	2.000000	1.159558	7.36712e+06	-49239.1	955.821	-29760	0.000000	0.000000	7.174434	359.006	NaN	0.000000	0.001555	0.001776	28.0779	54.4579	0.001816	29991.4	0.547187	179.995	356.233	1.159218	0.057205	0.056865	359.006	29991.4	0.048228	0.087014	4125.85	92891.4
212	2.000000	1.162080	7.36712e+06	-49239.1	955.82	-29760	0.000000	0.000000	7.178138	387.774	NaN	0.000000	0.001535	0.001748	28.0778	56.4384	0.001845	30594.5	4.277954	-3.723804	384.314	1.161747	0.059727	0.059394	387.774	30594.5	0.050221	0.093096	4165.31	91611.6
212	2.000000	1.164507	7.36712e+06	-49239.1	955.821	-29760	0.000000	0.000000	7.179960	373.066	NaN	0.000000	0.001566	0.001718	28.0776	58.2759	0.001869	31176.3	4.012771	176.086	367.626	1.164376	0.062154	0.062023	373.066	31176.3	0.053179	0.102492	3639.96	88971.9
212	2.000000	1.166970	7.36712e+06	-49239.1	955.82	-29760	0.000000	0.000000	7.184789	430.604	NaN	0.000000	0.001565	0.001708	28.0779	60.3271	0.001752	34427.7	7.926492	-8.276807	423.393	1.166599	0.064617	0.064246	430.604	34427.7	0.055236	0.109283	3940.27	95149.1
212	2.000000	1.169516	7.36712e+06	-49239.1	955.821	-29760	0.000000	0.000000	7.188428	457.181	NaN	0.000000	0.001542	0.001732	28.0777	63.7295	0.001875	33989.2	6.770636	172.9	452.712	1.169276	0.067163	0.066923	457.181	33989.2	0.057074	0.115527	3957.35	91363.3
212	2.000000	1.171953	7.36712e+06	-49239.1	955.821	-29760	0.000000	0.000000	7.191690	477.247	NaN	0.000000	0.001555	0.001699	28.0779	63.6404	0.001861	34204.4	2.216131	-2.339172	469.301	1.171584	0.069600	0.069231	477.247	34204.4	0.059135	0.122725	3888.76	89205
212	2.000000	1.174652	7.36712e+06	-49239.1	955.821	-29760	0.000000	0.000000	7.195421	502.335	NaN	0.000000	0.001547	0.001732	28.0776	65.6775	0.001915	34295.7	3.880751	176.382	508.262	1.174200	0.072299	0.071847	502.335	34295.7	0.061314	0.130561	3847.5	86717.2
212	2.000000	1.176970	7.36712e+06	-49239.1	955.82	-29760	0.000000	0.000000	7.199211	538.148	NaN	0.000000	0.001569	0.001770	28.0779	66.4647	0.001760	37767.2	1.390311	-2.647093	532.803	1.176668	0.074617	0.074315	538.148	37767.2	0.063930	0.140277	3836.34	92128.8
212	2.000000	1.179439	7.36712e+06	-49239.1	955.821	-29760	0.000000	0.000000	7.201810	541.307	NaN	0.000000	0.001555	0.001725	28.0787	70.0667	0.001850	37873.1	4.721298	173.803	533.851	1.179227	0.077086	0.076874	541.307	37873.1	0.066366	0.149622	3617.83	89455.3
212	2.000000	1.182082	7.36713e+06	-49239.1	955.82	-29760	0.000000	0.000000	7.206106	581.495	NaN	0.000000	0.001592	0.001699	28.079	71.6532	0.002003	35770.9	9.500520	-7.771876	580.002	1.181663	0.079729	0.079310	581.495	35770.9	0.067537	0.154212	3770.75	83223.2
212	2.000000	1.184367	7.36713e+06	-49239.1	955.822	-29760	0.000000	0.000000	7.208649	587.788	NaN	0.000000	0.001588	0.001747	28.0789	72.0169	0.001811	39775.2	4.411560	173.702	577.334	1.184087	0.082014	0.081734	587.788	39775.2	0.070930	0.167893	3500.96	88688.8
212	2.000000	1.187245	7.36713e+06	-49239.1	955.821	-29760	0.000000	0.000000	7.212357	607.954	NaN	0.000000	0.001603	0.001749	28.079	74.575	0.001966	37927.3	7.503773	-6.532135	616.834	1.186620	0.084892	0.084267	607.954	37927.3	0.072870	0.175959	3455.09	82607.5
212	2.000000	1.189444	7.36713e+06	-49239.1	955.821	-29760	0.000000	0.000000	7.215833	639.005	NaN	0.000000	0.001583	0.001743	28.0787	74.6956	0.001820	41032.7	5.156659	173.592	632.838	1.189158	0.087091	0.086806	639.005	41032.7	0.075411	0.186795	3420.89	86740.2
212	2.000000	1.192111	7.36713e+06	-49239.1	955.821	-29760	0.000000	0.000000	7.219397	660.833	NaN	0.000000	0.001595	0.001730	28.0801	77.2768	0.001775	43528.2	4.805079	-5.811085	661.631	1.191635	0.089758	0.089282	660.833	43528.2	0.078372	0.199801	3307.46	88970.4
212	2.000000	1.194594	7.36713e+06	-49239.1	955.821	-29760	0.000000	0.000000	7.222040	664.724	NaN	0.000000	0.001566	0.001731	28.0789	78.3179	0.001861	42075	3.504944	175.001	666.37	1.194288	0.092241	0.091935	664.724	42075	0.080392	0.208913	3181.82	84103.4
212	2.000000	1.197306	7.36713e+06	-49239.1	955.821	-29760	0.000000	0.000000	7.224928	669.009	NaN	0.000000	0.001597	0.001725	28.0791	80.7387	0.001957	41262.4	4.384975	-6.152795	678.894	1.197059	0.094953	0.094706	669.009	41262.4	0.082793	0.219986	3041.14	80376.7
212	2.000000	1.199521	7.36713e+06	-49239.1	955.82	-29760	0.000000	0.000000	7.228951	712.972	NaN	0.000000	0.001686	0.001725	28.0787	80.3837	0.001851	43437.9	3.705772	174.84	710.908	1.199110	0.097168	0.096757	712.972	43437.9	0.084858	0.229726	3103.57	82801.3
212	2.000000	1.202091	7.36713e+06	-49239.1	955.821	-29760	0.000000	0.000000	7.232010	724.88	NaN	0.000000	0.001689	0.001731	28.0788	82.2995	0.001925	42761.9	6.727820	-8.203693	724.297	1.201628	0.099738	0.099275	724.88	42761.9	0.087024	0.240151	3018.43	79723.8
212	2.000000	1.204442	7.36713e+06	-49239.1	955.821	-29760	0.000000	0.000000	7.231970	666.718	NaN	0.000000	0.001662	0.001753	28.0788	82.3123	0.001844	44635.5	-0.156297	177.593	659.464	1.204256	0.102089	0.101903	666.718	44635.5	0.090886	0.259279	2571.43	80088.5
212	2.000000	1.206988	7.36713e+06	-49239.1	955.821	-29760	0.000000	0.000000	7.237456	738.211	NaN	0.000000	0.001646	0.001740	28.0789	85.5397	0.001998	42805	4.911449	-6.339533	733.919	1.206533	0.104635	0.104180	738.211	42805	0.091701	0.263400	2802.63	76200.9
212	2.000000	1.209514	7.36713e+06	-49239.1	955.821	-29760	0.000000	0.000000	7.240808	758.298	NaN	0.000000	0.001684	0.001732	28.0787	85.386	0.001907	44776.4	1.466812	176.566	757.288	1.209215	0.107161	0.106862	758.298	44776.4	0.094460	0.277586	2731.76	77646.8
212	2.000000	1.211936	7.36713e+06	-49239.1	955.821	-29760	0.000000	0.000000	7.242654	744.303	NaN	0.000000	0.001645	0.001723	28.0787	86.702	0.001787	48515.2	4.630230	-7.632112	737.283	1.211767	0.109583	0.109414	744.303	48515.2	0.098077	0.296710	2508.52	81373.9
212	2.000000	1.214605	7.36713e+06	-49239.1	955.821	-29760	0.000000	0.000000	7.247016	785.499	NaN	0.000000	0.001670	0.001734	28.0777	87.3959	0.001981	44123.7	7.672436	171.457	787.952	1.214043	0.112252	0.111690	785.499	44123.7	0.098900	0.301143	2608.39	73461.3
212	2.000000	1.217113	7.36713e+06	-49239.1	955.822	-29760	0.000000	0.000000	7.250123	800.035	NaN	0.000000	0.001659	0.001714	28.0774	89.3869	0.001954	45744.7	7.623400	-8.728693	802.993	1.216502	0.114760	0.114149	800.035	45744.7	0.101643	0.316148	2530.58	74330.9