File: remote_trans/data/nanoindenter/0828-1/data/Data_2025-08-06,11h17m57s/2025-07-22_16-23-58_1_516.txt
2025-07-22, 16:23:58, 1
Index	Phase	Displacement	Time	Pos X	Pos Y	Pos Z	Rot A	Rot B	Piezo Z	Force A	Force B	Gripper	Voltage A	Voltage B	Temperature	Amplitude force	Amplitude pos	Stiffness	Phase shift	Phase excitation	Force A raw	Displacement raw	HMax	HMax raw	Real Force	Real Stiffness	Contact Depth	Area	Hardness	Reduced Mod.
[#]	[#]	[um]	[s]	[um]	[um]	[um]	[m°]	[m°]	[um]	[uN]	[uN]	[V]	[V]	[V]	[°C]	[uN]	[um]	[N/m]	[°]	[°]	[uN]	[um]	[um]	[um]	[uN]	[N/m]	[um]	[um^2]	[MPa]	[MPa]
516	1.000000	0.002316	7.3701e+06	-51289.1	1005.82	-29752.8	0.000000	0.000000	6.002775	0.000435	NaN	0.000000	0.001667	0.001695	28.0816	0.109400	0.000951	115.097	-150.025	-170.568	0.053106	0.001057	-1.087525	-1.088783	0.000435	115.097	-1.087528	-3.408922E+14	-1.275003E-18	NaN
516	1.000000	0.010313	7.3701e+06	-51289.1	1005.82	-29752.8	0.000000	0.000000	6.010769	-0.087775	NaN	0.000000	0.001637	0.001650	28.0814	0.017335	0.000935	18.5441	-176.212	-162.332	0.068760	0.009036	-1.079528	-1.080805	-0.087775	18.5441	-1.075978	-2.385014E+14	3.680292E-16	NaN
516	1.000000	0.018307	7.3701e+06	-51289.1	1005.82	-29752.8	0.000000	0.000000	6.018765	-0.026643	NaN	0.000000	0.001690	0.001693	28.0815	0.114051	0.001787	63.8117	-166.606	-165.014	-0.023938	0.016979	-1.071534	-1.072861	-0.026643	63.8117	-1.071221	-2.058682E+14	1.294166E-16	NaN
516	1.000000	0.026314	7.3701e+06	-51289.1	1005.82	-29752.8	0.000000	0.000000	6.026774	0.013428	NaN	0.000000	0.001670	0.001747	28.0815	0.057253	0.001781	32.1462	-164.774	-167.788	-0.013111	0.024992	-1.063527	-1.064849	0.013428	32.1462	-1.063840	-1.638419E+14	-8.195538E-17	NaN
516	1.000000	0.034287	7.3701e+06	-51289.1	1005.82	-29752.8	0.000000	0.000000	6.034747	-0.014144	NaN	0.000000	0.001666	0.001687	28.0814	0.132244	0.001780	74.2888	35.1741	-162.507	0.017530	0.032989	-1.055553	-1.056851	-0.014144	74.2888	-1.055410	-1.262234E+14	1.120532E-16	NaN
516	1.000000	0.042270	7.3701e+06	-51289.1	1005.82	-29752.8	0.000000	0.000000	6.042729	-0.014432	NaN	0.000000	0.001650	0.001676	28.082	0.127070	0.002027	62.7035	-174.087	-167.539	0.048611	0.040994	-1.047571	-1.048846	-0.014432	62.7035	-1.047398	-9.850025E+13	1.465184E-16	NaN
516	1.000000	0.050278	7.3701e+06	-51289.1	1005.82	-29752.8	0.000000	0.000000	6.050738	0.004102	NaN	0.000000	0.001658	0.001667	28.0817	0.018485	0.002086	8.861990	33.2438	-168.142	-0.039937	0.049020	-1.039563	-1.040821	0.004102	8.861990	-1.039910	-7.811836E+13	-5.251023E-17	NaN
516	1.000000	0.058306	7.3701e+06	-51289.1	1005.82	-29752.8	0.000000	0.000000	6.058764	-0.026312	NaN	0.000000	0.001671	0.001648	28.0828	0.077497	0.001962	39.5007	-110.499	-166.545	-0.042848	0.057025	-1.031535	-1.032816	-0.026312	39.5007	-1.031036	-5.934860E+13	4.433384E-16	NaN
516	1.000000	0.066277	7.3701e+06	-51289.1	1005.82	-29752.8	0.000000	0.000000	6.066735	-0.024465	NaN	0.000000	0.001667	0.001648	28.0832	0.002215	0.001960	1.130255	-51.9172	-167.564	-0.124782	0.064945	-1.023564	-1.024895	-0.024465	1.130255	-1.007330	-2.847362E+13	8.592152E-16	NaN
516	1.000000	0.074274	7.3701e+06	-51289.1	1005.82	-29752.8	0.000000	0.000000	6.074730	-0.077977	NaN	0.000000	0.001647	0.001674	28.0826	0.092896	0.002121	43.8058	-133.819	-167.06	-0.018692	0.072985	-1.015567	-1.016855	-0.077977	43.8058	-1.014232	-3.526413E+13	2.211215E-15	NaN
516	1.000000	0.082301	7.3701e+06	-51289.1	1005.82	-29752.8	0.000000	0.000000	6.082760	-0.014030	NaN	0.000000	0.001682	0.001685	28.0827	0.034527	0.002073	16.6575	-93.2106	-166.698	-0.060940	0.080995	-1.007540	-1.008846	-0.014030	16.6575	-1.006908	-2.810377E+13	4.992181E-16	NaN
516	1.000000	0.090309	7.3701e+06	-51289.1	1005.82	-29752.8	0.000000	0.000000	6.090767	-0.053937	NaN	0.000000	0.001638	0.001666	28.0828	0.139153	0.002029	68.5706	-31.1098	-164.72	-0.085607	0.089019	-0.999531	-1.000822	-0.053937	68.5706	-0.998941	-2.195420E+13	2.456812E-15	NaN
516	1.000000	0.098285	7.3701e+06	-51289.1	1005.82	-29752.8	0.000000	0.000000	6.098741	-0.094803	NaN	0.000000	0.001642	0.001672	28.0824	0.041975	0.001987	21.1201	16.6082	-163.788	-0.059536	0.097004	-0.991556	-0.992837	-0.094803	21.1201	-0.988189	-1.572972E+13	6.026998E-15	NaN
516	1.000000	0.106307	7.3701e+06	-51289.1	1005.82	-29752.8	0.000000	0.000000	6.106767	0.013019	NaN	0.000000	0.001693	0.001688	28.0827	0.126775	0.002024	62.6363	-10.2833	-166.918	-0.052010	0.105028	-0.983534	-0.984813	0.013019	62.6363	-0.983690	-1.368107E+13	-9.516041E-16	NaN
516	1.000000	0.114316	7.3701e+06	-51289.1	1005.82	-29752.8	0.000000	0.000000	6.114776	0.005662	NaN	0.000000	0.001640	0.001690	28.0824	0.035773	0.002012	17.7792	139.194	-165.578	0.084056	0.112981	-0.975525	-0.976859	0.005662	17.7792	-0.975764	-1.069883E+13	-5.292393E-16	NaN
516	1.000000	0.122301	7.3701e+06	-51289.1	1005.82	-29752.8	0.000000	0.000000	6.122757	-0.080861	NaN	0.000000	0.001670	0.001691	28.0825	0.046530	0.001907	24.3937	116.446	-164.931	-0.075766	0.121025	-0.967540	-0.968816	-0.080861	24.3937	-0.965054	-7.673609E+12	1.053753E-14	NaN
516	1.000000	0.130315	7.3701e+06	-51289.1	1005.82	-29752.8	0.000000	0.000000	6.130772	-0.069543	NaN	0.000000	0.001646	0.001704	28.0824	0.090679	0.001978	45.8545	-142.009	-167.656	-0.045720	0.129043	-0.959525	-0.960797	-0.069543	45.8545	-0.958388	-6.239310E+12	1.114593E-14	NaN
516	1.000000	0.138334	7.3701e+06	-51289.1	1005.82	-29752.8	0.000000	0.000000	6.138792	-0.033004	NaN	0.000000	0.001584	0.001698	28.0827	0.066675	0.002049	32.5409	43.0864	-164.607	-0.004659	0.137046	-0.951507	-0.952795	-0.033004	32.5409	-0.950746	-4.921379E+12	6.706327E-15	NaN
516	1.000000	0.146312	7.3701e+06	-51289.1	1005.82	-29752.8	0.000000	0.000000	6.146768	-0.090379	NaN	0.000000	0.001581	0.001682	28.0826	0.116004	0.002128	54.5179	-111.939	-167.31	0.040479	0.144984	-0.943529	-0.944857	-0.090379	54.5179	-0.942285	-3.784136E+12	2.388374E-14	NaN
516	1.000000	0.154321	7.3701e+06	-51289.1	1005.82	-29752.8	0.000000	0.000000	6.154786	0.116410	NaN	0.000000	0.001646	0.001706	28.0825	0.075583	0.002038	37.0827	54.5172	-168.448	0.123813	0.152971	-0.935520	-0.936870	0.116410	37.0827	-0.937874	-3.299545E+12	-3.528063E-14	NaN
516	1.000000	0.162339	7.3701e+06	-51289.1	1005.82	-29752.8	0.000000	0.000000	6.162797	-0.032115	NaN	0.000000	0.001670	0.001736	28.0825	0.074500	0.002093	35.5931	166.387	-169.143	-0.094041	0.161078	-0.927502	-0.928763	-0.032115	35.5931	-0.926825	-2.340694E+12	1.372021E-14	NaN
516	1.000000	0.170349	7.3701e+06	-51289.1	1005.82	-29752.8	0.000000	0.000000	6.170810	0.027832	NaN	0.000000	0.001683	0.001719	28.0825	0.030728	0.001913	16.0657	-66.2445	-163.73	0.027049	0.169021	-0.919491	-0.920820	0.027832	16.0657	-0.920791	-1.940351E+12	-1.434378E-14	NaN
516	1.000000	0.178316	7.3701e+06	-51289.1	1005.82	-29752.8	0.000000	0.000000	6.178773	-0.049535	NaN	0.000000	0.001640	0.001698	28.0827	0.099800	0.002047	48.7508	139.409	-163.723	-0.003533	0.177039	-0.911525	-0.912802	-0.049535	48.7508	-0.910763	-1.420587E+12	3.486917E-14	NaN
516	1.000000	0.186348	7.3701e+06	-51289.1	1005.82	-29752.8	0.000000	0.000000	6.186805	-0.051790	NaN	0.000000	0.001637	0.001701	28.0826	0.088581	0.001975	44.8585	140.365	-166.128	-0.157441	0.185059	-0.903493	-0.904782	-0.051790	44.8585	-0.902627	-1.102962E+12	4.695569E-14	NaN
516	1.000000	0.194356	7.3701e+06	-51289.1	1005.82	-29752.8	0.000000	0.000000	6.194814	-0.028613	NaN	0.000000	0.001677	0.001686	28.0814	0.143600	0.001936	74.1696	-141.831	-164.021	0.018743	0.193069	-0.895485	-0.896772	-0.028613	74.1696	-0.895196	-8.752663E+11	3.269109E-14	NaN
516	1.000000	0.202356	7.3701e+06	-51289.1	1005.82	-29752.8	0.000000	0.000000	6.202813	-0.055512	NaN	0.000000	0.001616	0.001637	28.0816	0.115112	0.002036	56.5285	-100.479	-166.962	0.059395	0.201010	-0.887485	-0.888831	-0.055512	56.5285	-0.886749	-6.729158E+11	8.249422E-14	NaN
516	1.000000	0.210355	7.3701e+06	-51289.1	1005.82	-29752.8	0.000000	0.000000	6.210815	0.011126	NaN	0.000000	0.001649	0.001648	28.0813	0.059808	0.002037	29.3659	150.963	-165.778	0.058271	0.209017	-0.879486	-0.880824	0.011126	29.3659	-0.879770	-5.415060E+11	-2.054714E-14	NaN
516	1.000000	0.218345	7.3701e+06	-51289.1	1005.82	-29752.8	0.000000	0.000000	6.218802	-0.073655	NaN	0.000000	0.001668	0.001660	28.0815	0.068526	0.002062	33.2375	-35.4395	-163.918	0.007343	0.217037	-0.871496	-0.872804	-0.073655	33.2375	-0.869833	-3.973664E+11	1.853587E-13	NaN
516	1.000000	0.226369	7.3701e+06	-51289.1	1005.82	-29752.8	0.000000	0.000000	6.226824	-0.116169	NaN	0.000000	0.001574	0.001650	28.0812	0.050642	0.002003	25.2889	-60.6935	-166.726	-0.051723	0.225099	-0.863472	-0.864742	-0.116169	25.2889	-0.860027	-2.927415E+11	3.968305E-13	NaN
516	1.000000	0.234357	7.3701e+06	-51289.1	1005.82	-29752.8	0.000000	0.000000	6.234816	-0.021343	NaN	0.000000	0.001588	0.001661	28.0812	0.077409	0.001841	42.0434	124.836	-163.819	-0.034077	0.233090	-0.855484	-0.856751	-0.021343	42.0434	-0.855103	-2.510903E+11	8.500275E-14	NaN
516	1.000000	0.242369	7.3701e+06	-51289.1	1005.82	-29752.8	0.000000	0.000000	6.242826	-0.055609	NaN	0.000000	0.001618	0.001655	28.0816	0.034770	0.001780	19.529	18.8489	-166.788	-0.104806	0.241026	-0.847472	-0.848815	-0.055609	19.529	-0.845336	-1.851730E+11	3.003069E-13	NaN
516	1.000000	0.250372	7.3701e+06	-51289.1	1005.82	-29752.8	0.000000	0.000000	6.250831	-0.010635	NaN	0.000000	0.001561	0.001700	28.0812	0.183141	0.001978	92.6017	-2.748722	-164.379	-0.017886	0.249030	-0.839469	-0.840811	-0.010635	92.6017	-0.839383	-1.537914E+11	6.915083E-14	NaN
516	1.000000	0.258353	7.3701e+06	-51289.1	1005.82	-29752.8	0.000000	0.000000	6.258813	-0.001642	NaN	0.000000	0.001553	0.001711	28.0816	0.102013	0.001970	51.7823	-29.4212	-166.792	-0.021001	0.257081	-0.831488	-0.832760	-0.001642	51.7823	-0.831464	-1.201231E+11	1.367183E-14	NaN
516	1.000000	0.266390	7.3701e+06	-51289.1	1005.82	-29752.8	0.000000	0.000000	6.266850	0.004711	NaN	0.000000	0.001566	0.001701	28.0811	0.093810	0.001965	47.7306	-62.4388	-168.722	-0.066270	0.265072	-0.823451	-0.824769	0.004711	47.7306	-0.823525	-9.375795E+10	-5.025145E-14	NaN
516	1.000000	0.274345	7.3701e+06	-51289.1	1005.82	-29752.8	0.000000	0.000000	6.274804	0.004030	NaN	0.000000	0.001636	0.001678	28.0815	0.036764	0.002054	17.9018	-16.8786	-167.416	-0.063223	0.273049	-0.815496	-0.816792	0.004030	17.9018	-0.815665	-7.335327E+10	-5.493529E-14	NaN
516	1.000000	0.282381	7.3701e+06	-51289.1	1005.82	-29752.8	0.000000	0.000000	6.282840	-0.004667	NaN	0.000000	0.001611	0.001683	28.0813	0.088843	0.001974	45.0131	-167.697	-165.679	-0.027269	0.281089	-0.807460	-0.808752	-0.004667	45.0131	-0.807382	-5.663095E+10	8.241093E-14	NaN
516	1.000000	0.290383	7.3701e+06	-51289.1	1005.82	-29752.8	0.000000	0.000000	6.290841	-0.024541	NaN	0.000000	0.001629	0.001713	28.0814	0.044322	0.002112	20.9832	34.8273	-165.849	-0.084526	0.289075	-0.799458	-0.800765	-0.024541	20.9832	-0.798581	-4.301291E+10	5.705388E-13	NaN
516	1.000000	0.298408	7.3701e+06	-51289.1	1005.82	-29752.8	0.000000	0.000000	6.298869	0.025023	NaN	0.000000	0.001560	0.001721	28.0819	0.019575	0.002043	9.581987	145.395	-162.853	0.011504	0.297081	-0.791432	-0.792760	0.025023	9.581987	-0.793391	-3.657072E+10	-6.842276E-13	NaN
516	1.000000	0.306371	7.3701e+06	-51289.1	1005.82	-29752.8	0.000000	0.000000	6.306832	0.021738	NaN	0.000000	0.001581	0.001702	28.0812	0.016061	0.002156	7.449026	-147.412	-166.719	0.083091	0.305084	-0.783469	-0.784757	0.021738	7.449026	-0.785658	-2.871470E+10	-7.570208E-13	NaN
516	1.000000	0.314392	7.3701e+06	-51289.1	1005.82	-29752.8	0.000000	0.000000	6.314852	0.011534	NaN	0.000000	0.001606	0.001698	28.0814	0.035197	0.001954	18.0148	108.336	-168.148	0.010647	0.313107	-0.775448	-0.776734	0.011534	18.0148	-0.775929	-2.117874E+10	-5.446035E-13	NaN
516	1.000000	0.322420	7.3701e+06	-51289.1	1005.82	-29752.8	0.000000	0.000000	6.322879	-0.006440	NaN	0.000000	0.001585	0.001680	28.0813	0.067621	0.002065	32.7479	-94.7991	-166.896	-0.022743	0.321096	-0.767421	-0.768745	-0.006440	32.7479	-0.767274	-1.615232E+10	3.987325E-13	NaN
516	1.000000	0.330406	7.3701e+06	-51289.1	1005.82	-29752.8	0.000000	0.000000	6.330865	-0.015836	NaN	0.000000	0.001612	0.001693	28.0826	0.020815	0.002012	10.3441	-56.04	-165.617	0.004791	0.329084	-0.759434	-0.760756	-0.015836	10.3441	-0.758286	-1.218952E+10	1.299142E-12	NaN
516	1.000000	0.338395	7.3701e+06	-51289.1	1005.82	-29752.8	0.000000	0.000000	6.338855	0.006280	NaN	0.000000	0.001594	0.001682	28.0828	0.132884	0.001873	70.9383	2.859463	-166.137	-0.027253	0.337086	-0.751446	-0.752755	0.006280	70.9383	-0.751512	-9.858387E+9	-6.370717E-13	NaN
516	1.000000	0.346425	7.3701e+06	-51289.1	1005.82	-29752.8	0.000000	0.000000	6.346884	-0.014619	NaN	0.000000	0.001594	0.001679	28.0827	0.015131	0.002045	7.397444	-127.713	-166.412	0.027383	0.345093	-0.743416	-0.744748	-0.014619	7.397444	-0.741934	-7.301132E+9	2.002332E-12	NaN
516	1.000000	0.354432	7.3701e+06	-51289.1	1005.82	-29752.8	0.000000	0.000000	6.354890	-0.019228	NaN	0.000000	0.001589	0.001669	28.0829	0.013092	0.002086	6.275997	67.4749	-164.85	-0.013317	0.353142	-0.735409	-0.736699	-0.019228	6.275997	-0.733111	-5.536176E+9	3.473070E-12	NaN
516	1.000000	0.362425	7.3701e+06	-51289.1	1005.82	-29752.8	0.000000	0.000000	6.362882	-0.074760	NaN	0.000000	0.001579	0.001700	28.0828	0.015126	0.001994	7.586734	96.3381	-165.921	-0.114453	0.361123	-0.727415	-0.728718	-0.074760	7.586734	-0.720025	-3.671234E+9	2.036372E-11	NaN
516	1.000000	0.370432	7.3701e+06	-51289.1	1005.82	-29752.8	0.000000	0.000000	6.370889	-0.080327	NaN	0.000000	0.001586	0.001699	28.083	0.052190	0.001903	27.4263	157.667	-163.328	0.028687	0.369107	-0.719408	-0.720734	-0.080327	27.4263	-0.717212	-3.360813E+9	2.390116E-11	NaN
516	1.000000	0.378418	7.3701e+06	-51289.1	1005.82	-29752.8	0.000000	0.000000	6.378874	-0.088657	NaN	0.000000	0.001564	0.001680	28.0827	0.088062	0.002143	41.1006	-114.501	-164.885	-0.053093	0.377069	-0.711422	-0.712772	-0.088657	41.1006	-0.709805	-2.663059E+9	3.329154E-11	NaN
516	1.000000	0.386437	7.3701e+06	-51289.1	1005.82	-29752.8	0.000000	0.000000	6.386900	0.078021	NaN	0.000000	0.001594	0.001672	28.0827	0.107428	0.002012	53.3955	157.875	-162.285	0.038010	0.385141	-0.703404	-0.704700	0.078021	53.3955	-0.704500	-2.254088E+9	-3.461307E-11	NaN
516	1.000000	0.394435	7.3701e+06	-51289.1	1005.82	-29752.8	0.000000	0.000000	6.394894	-0.023877	NaN	0.000000	0.001571	0.001678	28.0829	0.009681	0.001998	4.845244	27.6905	-161.51	-0.012547	0.393082	-0.695406	-0.696758	-0.023877	4.845244	-0.691710	-1.507586E+9	1.583795E-11	NaN
516	1.000000	0.402438	7.3701e+06	-51289.1	1005.82	-29752.8	0.000000	0.000000	6.402896	-0.039804	NaN	0.000000	0.001561	0.001712	28.0829	0.051141	0.001987	25.7328	-134.259	-164.377	0.051979	0.401122	-0.687402	-0.688718	-0.039804	25.7328	-0.686242	-1.269278E+9	3.135964E-11	NaN
516	1.000000	0.410435	7.3701e+06	-51289.1	1005.82	-29752.8	0.000000	0.000000	6.410897	0.040829	NaN	0.000000	0.001555	0.001672	28.0832	0.190974	0.002087	91.4892	-137.678	-165.554	0.038856	0.409173	-0.679405	-0.680667	0.040829	91.4892	-0.679740	-1.034312E+9	-3.947454E-11	NaN
516	1.000000	0.418434	7.3701e+06	-51289.1	1005.82	-29752.8	0.000000	0.000000	6.418894	0.002107	NaN	0.000000	0.001559	0.001690	28.0826	0.094001	0.001953	48.1278	-2.059295	-162.989	-0.078949	0.417151	-0.671406	-0.672690	0.002107	48.1278	-0.671439	-7.963220E+8	-2.646321E-12	NaN
516	1.000000	0.426457	7.3701e+06	-51289.1	1005.82	-29752.8	0.000000	0.000000	6.426919	0.072061	NaN	0.000000	0.001609	0.001700	28.0827	0.097260	0.001933	50.3282	-154.684	-166.366	0.060181	0.425141	-0.663384	-0.664700	0.072061	50.3282	-0.664458	-6.390284E+8	-1.127659E-10	NaN
516	1.000000	0.434455	7.3701e+06	-51289.1	1005.82	-29752.8	0.000000	0.000000	6.434911	-0.079019	NaN	0.000000	0.001618	0.001720	28.0828	0.118288	0.001823	64.8732	-77.1354	-164.949	-0.085903	0.433144	-0.655386	-0.656697	-0.079019	64.8732	-0.654473	-4.663803E+8	1.694299E-10	NaN
516	1.000000	0.442461	7.3701e+06	-51289.1	1005.82	-29752.8	0.000000	0.000000	6.442916	-0.101199	NaN	0.000000	0.001613	0.001691	28.0833	0.033044	0.002027	16.2993	-113.868	-164.314	-0.017957	0.441176	-0.647380	-0.648665	-0.101199	16.2993	-0.642723	-3.218491E+8	3.144304E-10	NaN
516	1.000000	0.450464	7.3701e+06	-51289.1	1005.82	-29752.8	0.000000	0.000000	6.450924	0.025505	NaN	0.000000	0.001571	0.001702	28.083	0.164029	0.002027	80.9203	-74.0172	-163.527	-0.007850	0.449098	-0.639377	-0.640743	0.025505	80.9203	-0.639613	-2.917324E+8	-8.742536E-11	NaN
516	1.000000	0.458467	7.3701e+06	-51289.1	1005.82	-29752.8	0.000000	0.000000	6.458924	-0.046277	NaN	0.000000	0.001630	0.001667	28.0826	0.132536	0.001888	70.2089	-78.074	-165.384	0.004184	0.457144	-0.631374	-0.632697	-0.046277	70.2089	-0.630880	-2.213629E+8	2.090568E-10	NaN
516	1.000000	0.466468	7.3701e+06	-51289.1	1005.82	-29752.8	0.000000	0.000000	6.466927	-0.035398	NaN	0.000000	0.001620	0.001715	28.0817	0.052478	0.001923	27.286	144.264	-163.383	-0.004671	0.465136	-0.623372	-0.624704	-0.035398	27.286	-0.622399	-1.692819E+8	2.091044E-10	NaN
516	1.000000	0.474491	7.3701e+06	-51289.1	1005.82	-29752.8	0.000000	0.000000	6.474952	0.023985	NaN	0.000000	0.001614	0.001715	28.0815	0.051707	0.002105	24.567	113.986	-162.505	0.026678	0.473182	-0.615350	-0.616659	0.023985	24.567	-0.616082	-1.386012E+8	-1.730513E-10	NaN
516	1.000000	0.482446	7.3701e+06	-51289.1	1005.82	-29752.8	0.000000	0.000000	6.482908	0.041846	NaN	0.000000	0.001592	0.001731	28.0817	0.090835	0.001940	46.8294	158.476	-164.214	-0.031466	0.481161	-0.607394	-0.608679	0.041846	46.8294	-0.608065	-1.075188E+8	-3.891945E-10	NaN
516	1.000000	0.490451	7.3701e+06	-51289.1	1005.82	-29752.8	0.000000	0.000000	6.490908	-0.067895	NaN	0.000000	0.001577	0.001684	28.0816	0.038107	0.001826	20.8704	19.8551	-166.706	-0.028423	0.489123	-0.599389	-0.600718	-0.067895	20.8704	-0.596950	-7.558608E+7	8.982470E-10	NaN
516	1.000000	0.498460	7.3701e+06	-51289.1	1005.82	-29752.8	0.000000	0.000000	6.498921	0.017782	NaN	0.000000	0.001593	0.001658	28.0814	0.056587	0.002015	28.0892	43.8328	-165.423	0.069382	0.497190	-0.591380	-0.592651	0.017782	28.0892	-0.591855	-6.430434E+7	-2.765235E-10	NaN
516	1.000000	0.506494	7.3701e+06	-51289.1	1005.82	-29752.8	0.000000	0.000000	6.506953	-0.010882	NaN	0.000000	0.001571	0.001689	28.0819	0.134648	0.001985	67.8399	-50.266	-164.294	-0.073427	0.505158	-0.583347	-0.584683	-0.010882	67.8399	-0.583227	-4.889390E+7	2.225645E-10	NaN
516	1.000000	0.514511	7.3701e+06	-51289.1	1005.82	-29752.8	0.000000	0.000000	6.514969	-0.033017	NaN	0.000000	0.001611	0.001661	28.0815	0.069086	0.001960	35.2565	-87.6513	-164.543	-0.040053	0.513178	-0.575330	-0.576662	-0.033017	35.2565	-0.574627	-3.720098E+7	8.875302E-10	NaN
516	1.000000	0.522503	7.3701e+06	-51289.1	1005.82	-29752.8	0.000000	0.000000	6.522961	-0.043339	NaN	0.000000	0.001550	0.001639	28.0814	0.048101	0.002065	23.2988	-121.7	-164.212	-0.022571	0.521182	-0.567338	-0.568659	-0.043339	23.2988	-0.565943	-2.822020E+7	1.535731E-9	NaN
516	1.000000	0.530488	7.3701e+06	-51289.1	1005.82	-29752.8	0.000000	0.000000	6.530948	0.003126	NaN	0.000000	0.001571	0.001669	28.0815	0.038592	0.002022	19.0843	10.1082	-170.125	-0.024538	0.529201	-0.559353	-0.560640	0.003126	19.0843	-0.559476	-2.296820E+7	-1.360942E-10	NaN
516	1.000000	0.538479	7.3701e+06	-51289.1	1005.82	-29752.8	0.000000	0.000000	6.538937	-0.022091	NaN	0.000000	0.001594	0.001671	28.0814	0.038431	0.001897	20.256	-16.6092	-167.921	-0.025825	0.537211	-0.551362	-0.552630	-0.022091	20.256	-0.550544	-1.727802E+7	1.278580E-9	NaN
516	1.000000	0.546487	7.3701e+06	-51289.1	1005.82	-29752.8	0.000000	0.000000	6.546947	-0.004694	NaN	0.000000	0.001595	0.001683	28.0819	0.105112	0.001883	55.8165	-85.4828	-162.032	-0.042916	0.545185	-0.543353	-0.544656	-0.004694	55.8165	-0.543290	-1.370826E+7	3.424323E-10	NaN
516	1.000000	0.554484	7.3701e+06	-51289.1	1005.82	-29752.8	0.000000	0.000000	6.554944	-0.009325	NaN	0.000000	0.001608	0.001669	28.0815	0.076389	0.001891	40.3986	-69.9716	-166.216	-0.126511	0.553236	-0.535356	-0.536604	-0.009325	40.3986	-0.535183	-1.058115E+7	8.812586E-10	NaN
516	1.000000	0.562520	7.3701e+06	-51289.1	1005.82	-29752.8	0.000000	0.000000	6.562979	-0.029310	NaN	0.000000	0.001626	0.001733	28.0817	0.010140	0.002031	4.993446	-145.509	-167.271	-0.039742	0.561186	-0.527321	-0.528655	-0.029310	4.993446	-0.522918	-7.14789e+06	4.100496E-9	NaN
516	1.000000	0.570500	7.3701e+06	-51289.1	1005.82	-29752.8	0.000000	0.000000	6.570956	-0.073262	NaN	0.000000	0.001609	0.001703	28.0816	0.097718	0.002110	46.3081	-27.7297	-163.758	-0.009777	0.569186	-0.519341	-0.520655	-0.073262	46.3081	-0.518154	-6.13658e+06	1.193850E-8	NaN
516	1.000000	0.578511	7.3701e+06	-51289.1	1005.82	-29752.8	0.000000	0.000000	6.578969	-0.036704	NaN	0.000000	0.001601	0.001745	28.0814	0.032333	0.002033	15.9009	76.1087	-164.9	-0.059834	0.577235	-0.511330	-0.512606	-0.036704	15.9009	-0.509599	-4.6647e+06	7.868392E-9	NaN
516	1.000000	0.586520	7.3701e+06	-51289.1	1005.82	-29752.8	0.000000	0.000000	6.586976	-0.072564	NaN	0.000000	0.001607	0.001749	28.0816	0.008525	0.001999	4.265126	106.656	-165.69	-0.011945	0.585235	-0.503321	-0.504606	-0.072564	4.265126	-0.490561	-2.53066e+06	2.867396E-8	NaN
516	1.000000	0.594531	7.3701e+06	-51289.1	1005.82	-29752.8	0.000000	0.000000	6.594991	0.007442	NaN	0.000000	0.001619	0.001744	28.0815	0.093466	0.001945	48.0581	155.249	-167.625	-0.028703	0.593202	-0.495310	-0.496638	0.007442	48.0581	-0.495426	-2.95927e+06	-2.514898E-9	NaN
516	1.000000	0.602548	7.3701e+06	-51289.1	1005.82	-29752.8	0.000000	0.000000	6.603004	-0.094927	NaN	0.000000	0.001646	0.001702	28.0832	0.120883	0.001958	61.7405	-52.8043	-165.292	-0.077187	0.601258	-0.487293	-0.488583	-0.094927	61.7405	-0.486139	-2.19496e+06	4.324774E-8	NaN
516	1.000000	0.610506	7.3701e+06	-51289.1	1005.82	-29752.8	0.000000	0.000000	6.610964	-0.038278	NaN	0.000000	0.001618	0.001691	28.083	0.072835	0.001952	37.3076	-111.773	-162.682	-0.100072	0.609221	-0.479335	-0.480620	-0.038278	37.3076	-0.478566	-1.71967e+06	2.225878E-8	NaN
516	1.000000	0.618526	7.3701e+06	-51289.1	1005.82	-29752.8	0.000000	0.000000	6.618984	-0.056459	NaN	0.000000	0.001640	0.001675	28.083	0.136383	0.002130	64.027	-51.6014	-167.021	-0.057956	0.617251	-0.471315	-0.472589	-0.056459	64.027	-0.470653	-1.3322e+06	4.238040E-8	NaN
516	1.000000	0.626529	7.3701e+06	-51289.1	1005.82	-29752.8	0.000000	0.000000	6.626986	-0.054319	NaN	0.000000	0.001614	0.001692	28.0831	0.108038	0.001942	55.6417	-64.6287	-167.589	-0.108416	0.625250	-0.463312	-0.464591	-0.054319	55.6417	-0.462580	-1.02627e+06	5.292870E-8	NaN
516	1.000000	0.634518	7.3701e+06	-51289.1	1005.82	-29752.8	0.000000	0.000000	6.634975	-0.068380	NaN	0.000000	0.001629	0.001654	28.0829	0.045929	0.002037	22.547	-86.1693	-165.734	-0.028692	0.633220	-0.455323	-0.456621	-0.068380	22.547	-0.453048	-753796	9.071371E-8	NaN
516	1.000000	0.642519	7.3701e+06	-51289.1	1005.82	-29752.8	0.000000	0.000000	6.642977	-0.052064	NaN	0.000000	0.001621	0.001673	28.0834	0.094445	0.001880	50.2474	79.0937	-164.576	-0.095712	0.641261	-0.447321	-0.448580	-0.052064	50.2474	-0.446544	-610462	8.528598E-8	NaN
516	1.000000	0.650554	7.3701e+06	-51289.1	1005.82	-29752.8	0.000000	0.000000	6.651012	-0.030824	NaN	0.000000	0.001622	0.001707	28.083	0.064864	0.002003	32.3765	-50.2657	-165.978	0.002345	0.649193	-0.439287	-0.440647	-0.030824	32.3765	-0.438573	-471217	6.541306E-8	NaN
516	1.000000	0.658547	7.3701e+06	-51289.1	1005.82	-29752.8	0.000000	0.000000	6.659007	-0.003170	NaN	0.000000	0.001581	0.001684	28.0829	0.043492	0.002086	20.8463	-159.005	-165.624	-0.026850	0.657223	-0.431293	-0.432618	-0.003170	20.8463	-0.431179	-370462	8.557499E-9	NaN
516	1.000000	0.666543	7.3701e+06	-51289.1	1005.82	-29752.8	0.000000	0.000000	6.667001	-0.042220	NaN	0.000000	0.001583	0.001685	28.0828	0.083000	0.001898	43.7225	47.6602	-163.47	-0.069055	0.665210	-0.423298	-0.424631	-0.042220	43.7225	-0.422573	-279833	1.508747E-7	NaN
516	1.000000	0.674552	7.3701e+06	-51289.1	1005.82	-29752.8	0.000000	0.000000	6.675007	-0.103191	NaN	0.000000	0.001603	0.001673	28.0828	0.065693	0.001919	34.235	-124.496	-164.436	-0.092676	0.673284	-0.415289	-0.416556	-0.103191	34.235	-0.413028	-204856	5.037241E-7	NaN
516	1.000000	0.682568	7.3701e+06	-51289.1	1005.82	-29752.8	0.000000	0.000000	6.683029	0.036311	NaN	0.000000	0.001614	0.001723	28.083	0.021983	0.001976	11.1277	-89.7105	-164.543	-0.024799	0.681224	-0.407273	-0.408617	0.036311	11.1277	-0.409721	-183834	-1.975217E-7	NaN
516	1.000000	0.690588	7.3701e+06	-51289.1	1005.82	-29752.8	0.000000	0.000000	6.691048	0.008552	NaN	0.000000	0.001605	0.001687	28.083	0.128355	0.002040	62.9157	72.5237	-166.608	0.051133	0.689248	-0.399253	-0.400593	0.008552	62.9157	-0.399355	-130855	-6.535296E-8	NaN
516	1.000000	0.698564	7.3701e+06	-51289.1	1005.82	-29752.8	0.000000	0.000000	6.699023	-0.009420	NaN	0.000000	0.001619	0.001688	28.0831	0.033756	0.001960	17.2199	-129.688	-166.012	-0.038686	0.697201	-0.391277	-0.392640	-0.009420	17.2199	-0.390867	-98983.1	9.516318E-8	NaN
516	1.000000	0.706551	7.3701e+06	-51289.1	1005.82	-29752.8	0.000000	0.000000	6.707010	-0.008754	NaN	0.000000	0.001619	0.001719	28.0828	0.081311	0.001990	40.867	16.3222	-166.189	0.009132	0.705256	-0.383290	-0.384585	-0.008754	40.867	-0.383130	-76697.1	1.141315E-7	NaN
516	1.000000	0.714583	7.3701e+06	-51289.1	1005.82	-29752.8	0.000000	0.000000	6.715040	-0.070354	NaN	0.000000	0.001563	0.001688	28.083	0.122599	0.001927	63.612	-88.5794	-165.351	-0.022034	0.713272	-0.375258	-0.376569	-0.070354	63.612	-0.374428	-57524.3	1.223038E-6	NaN
516	1.000000	0.722535	7.3701e+06	-51289.1	1005.82	-29752.8	0.000000	0.000000	6.722992	-0.060143	NaN	0.000000	0.001579	0.001685	28.0829	0.066890	0.001985	33.6981	69.9633	-163.051	-0.103170	0.721287	-0.367306	-0.368554	-0.060143	33.6981	-0.365967	-43451.5	1.384133E-6	NaN
516	1.000000	0.730563	7.3701e+06	-51289.1	1005.82	-29752.8	0.000000	0.000000	6.731021	-0.028628	NaN	0.000000	0.001580	0.001702	28.0831	0.017421	0.002046	8.514881	110.891	-167.58	-0.049368	0.729277	-0.359278	-0.360564	-0.028628	8.514881	-0.356756	-31983.6	8.950978E-7	NaN
516	1.000000	0.738563	7.3701e+06	-51289.1	1005.82	-29752.8	0.000000	0.000000	6.739021	-0.041680	NaN	0.000000	0.001575	0.001675	28.0819	0.088416	0.001873	47.1997	69.5531	-164.911	-0.063671	0.737244	-0.351278	-0.352597	-0.041680	47.1997	-0.350615	-26057.4	1.599539E-6	NaN
516	1.000000	0.746599	7.3701e+06	-51289.1	1005.82	-29752.8	0.000000	0.000000	6.747059	0.010492	NaN	0.000000	0.001643	0.001648	28.0817	0.124920	0.002056	60.7641	129.699	-169.316	0.007348	0.745295	-0.343242	-0.344546	0.010492	60.7641	-0.343371	-20448.3	-5.130925E-7	NaN
516	1.000000	0.754555	7.3701e+06	-51289.1	1005.82	-29752.8	0.000000	0.000000	6.755016	0.016278	NaN	0.000000	0.001604	0.001670	28.0821	0.032630	0.002104	15.5115	143.018	-165.991	-0.022751	0.753256	-0.335285	-0.336584	0.016278	15.5115	-0.336073	-16004.9	-1.017073E-6	NaN
516	1.000000	0.762584	7.3701e+06	-51289.1	1005.82	-29752.8	0.000000	0.000000	6.763044	-0.001449	NaN	0.000000	0.001637	0.001663	28.0817	0.031012	0.002002	15.4926	155.835	-167.951	-0.067052	0.761272	-0.327256	-0.328569	-0.001449	15.4926	-0.327186	-11863.6	1.221242E-7	NaN
516	1.000000	0.770572	7.3701e+06	-51289.1	1005.82	-29752.9	0.000000	0.000000	6.771029	-0.063015	NaN	0.000000	0.001633	0.001713	28.0817	0.076377	0.001977	38.6385	-94.6614	-164.238	-0.040291	0.769300	-0.319268	-0.320541	-0.063015	38.6385	-0.318045	-8706.65	7.237582E-6	NaN
516	1.000000	0.778583	7.3701e+06	-51289.1	1005.82	-29752.8	0.000000	0.000000	6.779041	-0.033769	NaN	0.000000	0.001664	0.001697	28.0816	0.084876	0.001865	45.5056	85.5907	-166.003	-0.035403	0.777360	-0.311258	-0.312481	-0.033769	45.5056	-0.310701	-6783.18	4.978297E-6	NaN
516	1.000000	0.786634	7.3701e+06	-51289.1	1005.82	-29752.9	0.000000	0.000000	6.787092	-0.023654	NaN	0.000000	0.001702	0.001707	28.0817	0.020591	0.001921	10.7192	-80.22	-165.387	0.013792	0.785284	-0.303207	-0.304556	-0.023654	10.7192	-0.301552	-4962.82	4.766324E-6	NaN
516	1.000000	0.794581	7.3701e+06	-51289.1	1005.82	-29752.9	0.000000	0.000000	6.795041	0.002172	NaN	0.000000	0.001666	0.001688	28.082	0.085965	0.001955	43.9752	130.007	-162.675	-0.072540	0.793291	-0.295259	-0.296549	0.002172	43.9752	-0.295296	-4004.17	-5.425139E-7	NaN
516	1.000000	0.802585	7.3701e+06	-51289.1	1005.82	-29752.8	0.000000	0.000000	6.803040	-0.111842	NaN	0.000000	0.001698	0.001673	28.0813	0.121377	0.002135	56.8412	-165.946	-164.637	0.014011	0.801308	-0.287256	-0.288533	-0.111842	56.8412	-0.285780	-2883.94	3.878112E-5	NaN
516	1.000000	0.810616	7.3701e+06	-51289.1	1005.82	-29752.9	0.000000	0.000000	6.811076	-0.008705	NaN	0.000000	0.001684	0.001701	28.0817	0.045853	0.001969	23.2849	119.616	-166.46	-0.013163	0.809252	-0.279224	-0.280589	-0.008705	23.2849	-0.278944	-2275.28	3.825834E-6	NaN
516	1.000000	0.818612	7.3701e+06	-51289.1	1005.82	-29752.9	0.000000	0.000000	6.819071	-0.018974	NaN	0.000000	0.001673	0.001689	28.0816	0.079043	0.002033	38.8808	2.188018	-166.851	-0.034858	0.817315	-0.271228	-0.272526	-0.018974	38.8808	-0.270862	-1716.51	1.105374E-5	NaN
516	1.000000	0.826602	7.3701e+06	-51289.1	1005.82	-29752.9	0.000000	0.000000	6.827061	-0.011279	NaN	0.000000	0.001696	0.001684	28.0817	0.102460	0.001962	52.2113	-166.007	-165.642	-0.077678	0.825280	-0.263239	-0.264560	-0.011279	52.2113	-0.263077	-1306.21	8.635086E-6	NaN
516	1.000000	0.834624	7.3701e+06	-51289.1	1005.82	-29752.9	0.000000	0.000000	6.835084	0.010888	NaN	0.000000	0.001684	0.001701	28.0818	0.051437	0.002109	24.3947	-88.1261	-169.046	-0.026107	0.833279	-0.255217	-0.256562	0.010888	24.3947	-0.255551	-1001.39	-1.087340E-5	NaN
516	1.000000	0.842638	7.3701e+06	-51289.1	1005.82	-29752.9	0.000000	0.000000	6.843096	-0.034151	NaN	0.000000	0.001670	0.001696	28.0819	0.065011	0.002001	32.4882	-56.8377	-164.225	0.005655	0.841292	-0.247203	-0.248549	-0.034151	32.4882	-0.246415	-723.476	4.720348E-5	NaN
516	1.000000	0.850647	7.3701e+06	-51289.1	1005.82	-29752.9	0.000000	0.000000	6.851105	-0.040376	NaN	0.000000	0.001689	0.001669	28.0828	0.148483	0.002085	71.2309	-167.24	-163.072	-0.029513	0.849312	-0.239193	-0.240528	-0.040376	71.2309	-0.238768	-549.923	7.342183E-5	NaN
516	1.000000	0.858649	7.3701e+06	-51289.1	1005.82	-29752.9	0.000000	0.000000	6.859105	-0.067034	NaN	0.000000	0.001633	0.001674	28.0815	0.069810	0.002024	34.4913	150.706	-166.692	-0.078105	0.857375	-0.231192	-0.232465	-0.067034	34.4913	-0.229735	-396.575	0.000169	NaN
516	1.000000	0.866643	7.3701e+06	-51289.1	1005.82	-29752.9	0.000000	0.000000	6.867101	-0.039845	NaN	0.000000	0.001685	0.001695	28.0815	0.114648	0.001966	58.3021	-125.062	-166.529	0.021793	0.865349	-0.223198	-0.224491	-0.039845	58.3021	-0.222685	-306.56	0.000130	NaN
516	1.000000	0.874608	7.3701e+06	-51289.1	1005.82	-29752.9	0.000000	0.000000	6.875064	-0.087897	NaN	0.000000	0.001692	0.001717	28.0831	0.042234	0.001971	21.4282	-76.1966	-168.583	-0.060035	0.873349	-0.215233	-0.216492	-0.087897	21.4282	-0.212156	-207.821	0.000423	NaN
516	1.000000	0.882617	7.3701e+06	-51289.1	1005.82	-29752.9	0.000000	0.000000	6.883076	-0.020392	NaN	0.000000	0.001693	0.001705	28.0829	0.012252	0.002059	5.951068	-28.4352	-166.539	0.049264	0.881381	-0.207224	-0.208459	-0.020392	5.951068	-0.204654	-157.004	0.000130	NaN
516	1.000000	0.890630	7.3701e+06	-51289.1	1005.82	-29752.9	0.000000	0.000000	6.891085	-0.127139	NaN	0.000000	0.001678	0.001718	28.0832	0.123760	0.001973	62.7211	172.104	-165.05	-0.024262	0.889350	-0.199210	-0.200491	-0.127139	62.7211	-0.197690	-120.69	0.001053	NaN
516	1.000000	0.898639	7.3701e+06	-51289.1	1005.82	-29752.9	0.000000	0.000000	6.899095	-0.096892	NaN	0.000000	0.001720	0.001713	28.0829	0.041733	0.001963	21.2616	-7.719068	-162.049	-0.118541	0.897308	-0.191202	-0.192532	-0.096892	21.2616	-0.187784	-82.5913	0.001173	NaN
516	1.000000	0.906641	7.3701e+06	-51289.1	1005.82	-29752.9	0.000000	0.000000	6.907100	-0.017251	NaN	0.000000	0.001619	0.001722	28.0829	0.025183	0.002023	12.4488	-113.491	-166.264	-0.061692	0.905353	-0.183200	-0.184488	-0.017251	12.4488	-0.182161	-66.3976	0.000260	NaN
516	1.000000	0.914651	7.3701e+06	-51289.1	1005.82	-29752.9	0.000000	0.000000	6.915110	-0.006325	NaN	0.000000	0.001673	0.001755	28.0829	0.091703	0.002065	44.4053	-158.321	-166.977	-0.059372	0.913310	-0.175190	-0.176531	-0.006325	44.4053	-0.175083	-50.2821	0.000126	NaN
516	1.000000	0.922647	7.3701e+06	-51289.1	1005.82	-29752.9	0.000000	0.000000	6.923103	-0.111004	NaN	0.000000	0.001690	0.001714	28.0829	0.064853	0.001908	33.9841	-28.8537	-163.616	-0.170599	0.921379	-0.167193	-0.168462	-0.111004	33.9841	-0.164744	-33.2507	0.003338	NaN
516	1.000000	0.930641	7.3701e+06	-51289.1	1005.82	-29752.9	0.000000	0.000000	6.931100	-0.012195	NaN	0.000000	0.001712	0.001689	28.0827	0.043039	0.002046	21.0361	128.973	-168.475	-0.005071	0.929326	-0.159200	-0.160514	-0.012195	21.0361	-0.158765	-26.0623	0.000468	NaN
516	1.000000	0.938659	7.3701e+06	-51289.1	1005.82	-29752.9	0.000000	0.000000	6.939116	-0.073383	NaN	0.000000	0.001718	0.001663	28.0829	0.054887	0.002002	27.4147	-56.0147	-166.366	-0.103129	0.937360	-0.151181	-0.152481	-0.073383	27.4147	-0.149174	-17.4952	0.004194	NaN
516	1.000000	0.946669	7.3701e+06	-51289.1	1005.82	-29752.9	0.000000	0.000000	6.947127	-0.051686	NaN	0.000000	0.001677	0.001654	28.083	0.118276	0.001985	59.5787	66.6693	-164.104	-0.015035	0.945384	-0.143171	-0.144456	-0.051686	59.5787	-0.142521	-13.1865	0.003920	NaN
516	1.000000	0.954660	7.3701e+06	-51289.1	1005.82	-29752.9	0.000000	0.000000	6.955119	-0.017555	NaN	0.000000	0.001719	0.001705	28.0828	0.013655	0.001924	7.097387	-51.0059	-165.203	0.041785	0.953382	-0.135181	-0.136459	-0.017555	7.097387	-0.133325	-8.835487	0.001987	NaN
516	1.000000	0.962684	7.3701e+06	-51289.1	1005.82	-29752.9	0.000000	0.000000	6.963141	-0.067130	NaN	0.000000	0.001677	0.001713	28.0828	0.025840	0.002095	12.3325	0.342182	-165.165	0.008320	0.961358	-0.127156	-0.128483	-0.067130	12.3325	-0.123074	-5.568536	0.012055	NaN
516	1.000000	0.970678	7.3701e+06	-51289.1	1005.82	-29752.9	0.000000	0.000000	6.971136	-0.037333	NaN	0.000000	0.001656	0.001726	28.0828	0.078099	0.002035	38.3863	-90.0862	-163.697	-0.055965	0.969362	-0.119163	-0.120479	-0.037333	38.3863	-0.118434	-4.491263	0.008312	NaN
516	1.000000	0.978676	7.3701e+06	-51289.1	1005.82	-29752.9	0.000000	0.000000	6.979132	-0.090743	NaN	0.000000	0.001667	0.001696	28.0827	0.053305	0.001938	27.5016	-79.7816	-163.469	-0.097833	0.977309	-0.111165	-0.112532	-0.090743	27.5016	-0.108690	-2.819507	0.032184	NaN
516	1.000000	0.986683	7.3701e+06	-51289.1	1005.82	-29752.9	0.000000	0.000000	6.987139	-0.079319	NaN	0.000000	0.001660	0.001779	28.0832	0.070838	0.002007	35.2976	-18.4311	-168.277	-0.059790	0.985370	-0.103158	-0.104471	-0.079319	35.2976	-0.101473	-1.969221	0.040280	NaN
516	1.000000	0.994664	7.3701e+06	-51289.1	1005.82	-29752.9	0.000000	0.000000	6.995124	0.019662	NaN	0.000000	0.001663	0.001774	28.0827	0.097828	0.002091	46.7861	-46.6702	-166.232	0.056450	0.993358	-0.095177	-0.096483	0.019662	46.7861	-0.095492	-1.447473	-0.013584	NaN
516	1.000000	1.002670	7.3701e+06	-51289.1	1005.82	-29752.9	0.000000	0.000000	7.003129	-0.028162	NaN	0.000000	0.001614	0.001771	28.0831	0.093969	0.001981	47.4317	42.0067	-164.785	-0.066965	1.001364	-0.087170	-0.088476	-0.028162	47.4317	-0.086725	-0.904072	0.031150	NaN
516	1.000000	1.010675	7.3701e+06	-51289.1	1005.82	-29752.9	0.000000	0.000000	7.011133	-0.034903	NaN	0.000000	0.001615	0.001815	28.0816	0.026653	0.001951	13.6613	-1.899561	-167.048	-0.058913	1.009387	-0.079166	-0.080454	-0.034903	13.6613	-0.077249	-0.527554	0.066159	NaN
516	1.000000	1.018699	7.3701e+06	-51289.1	1005.82	-29752.9	0.000000	0.000000	7.019156	-0.069212	NaN	0.000000	0.001678	0.001822	28.0816	0.063739	0.001990	32.0253	-9.061549	-164.496	-0.036308	1.017370	-0.071142	-0.072471	-0.069212	32.0253	-0.069521	-0.331161	0.208997	NaN
516	1.000000	1.026703	7.3701e+06	-51289.1	1005.82	-29752.9	0.000000	0.000000	7.027160	-0.062465	NaN	0.000000	0.001653	0.001765	28.0816	0.031201	0.001925	16.2077	-50.48	-165.762	-0.142098	1.025400	-0.063138	-0.064441	-0.062465	16.2077	-0.060247	-0.183057	0.341233	NaN
516	1.000000	1.034716	7.3701e+06	-51289.1	1005.82	-29752.9	0.000000	0.000000	7.035170	-0.137684	NaN	0.000000	0.001650	0.001792	28.0814	0.070289	0.001976	35.5781	179.86	-165.68	-0.121345	1.033349	-0.055125	-0.056492	-0.137684	35.5781	-0.052222	-0.106453	1.293386	NaN
516	1.000000	1.042704	7.3701e+06	-51289.1	1005.82	-29752.9	0.000000	0.000000	7.043160	-0.103881	NaN	0.000000	0.001635	0.001754	28.0819	0.097345	0.002069	47.0573	-128.744	-164.451	-0.045163	1.041337	-0.047137	-0.048504	-0.103881	47.0573	-0.045481	-0.066481	1.562561	NaN
516	1.000000	1.050703	7.3701e+06	-51289.1	1005.82	-29752.9	0.000000	0.000000	7.051159	-0.100932	NaN	0.000000	0.001678	0.001767	28.0813	0.154270	0.002079	74.2027	-89.5412	-161.624	-0.116325	1.049395	-0.039137	-0.040446	-0.100932	74.2027	-0.038117	-0.039664	2.544678	NaN
516	1.000000	1.058708	7.3701e+06	-51289.1	1005.82	-29752.9	0.000000	0.000000	7.059165	-0.087629	NaN	0.000000	0.001610	0.001799	28.0815	0.036776	0.002001	18.3743	124.366	-163.116	-0.101380	1.057372	-0.031132	-0.032469	-0.087629	18.3743	-0.027555	-0.019721	4.443342	NaN
516	1.000000	1.066719	7.3701e+06	-51289.1	1005.82	-29752.9	0.000000	0.000000	7.067175	-0.090250	NaN	0.000000	0.001628	0.001765	28.0817	0.073769	0.001905	38.7331	-82.89	-166.272	-0.045914	1.065444	-0.023121	-0.024397	-0.090250	38.7331	-0.021374	-0.013612	6.630050	NaN
516	1.000000	1.074694	7.3701e+06	-51289.1	1005.82	-29752.9	0.000000	0.000000	7.075152	-0.031220	NaN	0.000000	0.001649	0.001777	28.0814	0.049359	0.001864	26.4816	-129.293	-163.785	-0.064656	1.073369	-0.015147	-0.016472	-0.031220	26.4816	-0.014263	-0.008838	3.532664	NaN
516	1.000000	1.082719	7.3701e+06	-51289.1	1005.82	-29752.9	0.000000	0.000000	7.083182	0.097010	NaN	0.000000	0.001663	0.001768	28.0817	0.277536	0.002000	138.763	10.8205	-160.64	-0.035557	1.081405	-0.007122	-0.008436	0.097010	138.763	-0.007646	-0.005024	-19.3095	NaN
516	1.000000	1.090669	7.3701e+06	-51289.1	1005.82	-29752.9	0.000000	0.000000	7.091380	6.090240	NaN	0.000000	0.001678	0.001791	28.0813	6.134002	0.001750	3505.76	10.9037	-168.76	5.094075	1.089394	0.000829	-0.000446	6.090240	3505.76	-0.000474	-0.000351	-17342.8	NaN
516	2.000000	1.094373	7.3701e+06	-51289.1	1005.82	-29752.9	0.000000	0.000000	7.095186	8.604776	NaN	0.000000	0.001615	0.001773	28.0816	9.654669	0.001732	5573.72	5.992171	-169.768	8.069862	1.094001	0.004532	0.004160	8.604776	5573.72	0.003374	0.002697	3190.41	98055.6
516	2.000000	1.096358	7.3701e+06	-51289.1	1005.82	-29752.9	0.000000	0.000000	7.097315	12.1045	NaN	0.000000	0.001649	0.001765	28.0815	11.8296	0.001677	7054.81	5.874481	-171.022	11.374	1.095992	0.006517	0.006152	12.1045	7054.81	0.005230	0.004344	2786.25	97790.1
516	2.000000	1.098298	7.3701e+06	-51289.1	1005.82	-29752.9	0.000000	0.000000	7.099348	14.3653	NaN	0.000000	0.001633	0.001781	28.0816	13.2849	0.001601	8296.91	6.009510	-173.481	13.2884	1.098035	0.008457	0.008194	14.3653	8296.91	0.007159	0.006191	2320.24	96338.3
516	2.000000	1.100307	7.3701e+06	-51289.1	1005.82	-29752.9	0.000000	0.000000	7.101490	17.5924	NaN	0.000000	0.001645	0.001742	28.0814	16.3285	0.001783	9156.95	10.1534	-176.351	17.9169	1.100015	0.010466	0.010174	17.5924	9156.95	0.009025	0.008118	2167	92851.8
516	2.000000	1.102287	7.3701e+06	-51289.1	1005.82	-29752.9	0.000000	0.000000	7.103642	21.7598	NaN	0.000000	0.001619	0.001738	28.0814	17.4933	0.001613	10843	1.658574	-173.419	21.4964	1.102027	0.012447	0.012187	21.7598	10843	0.010942	0.010247	2123.57	97865.2
516	2.000000	1.104256	7.3701e+06	-51289.1	1005.82	-29752.9	0.000000	0.000000	7.105844	27.4368	NaN	0.000000	0.001596	0.001713	28.0816	20.4101	0.001720	11868	-0.534317	-170.749	26.2245	1.103975	0.014415	0.014135	27.4368	11868	0.012681	0.012316	2227.68	97703.6
516	2.000000	1.106337	7.3701e+06	-51289.1	1005.82	-29752.9	0.000000	0.000000	7.108086	31.3528	NaN	0.000000	0.001656	0.001758	28.0825	22.898	0.001822	12568.6	8.526525	-177.75	31.9714	1.105956	0.016496	0.016115	31.3528	12568.6	0.014625	0.014789	2120.02	94426.3
516	2.000000	1.108286	7.3701e+06	-51289.1	1005.82	-29752.9	0.000000	0.000000	7.110138	33.8661	NaN	0.000000	0.001660	0.001753	28.083	24.6825	0.001878	13141.1	8.696779	-178.434	34.2777	1.107976	0.018445	0.018136	33.8661	13141.1	0.016512	0.017355	1951.35	91135.6
516	2.000000	1.110273	7.3701e+06	-51289.1	1005.82	-29752.9	0.000000	0.000000	7.112379	40.0285	NaN	0.000000	0.001642	0.001726	28.0829	26.1824	0.001785	14666.8	2.881381	-175.153	39.495	1.109967	0.020433	0.020127	40.0285	14666.8	0.018386	0.020069	1994.55	94590.4
516	2.000000	1.112256	7.3701e+06	-51289.1	1005.82	-29752.9	0.000000	0.000000	7.114513	43.7039	NaN	0.000000	0.001654	0.001748	28.0829	27.3631	0.001769	15466.2	-0.753924	-172.508	42.4783	1.111996	0.022416	0.022155	43.7039	15466.2	0.020296	0.023010	1899.34	93153.4
516	2.000000	1.114256	7.3701e+06	-51289.1	1005.82	-29752.9	0.000000	0.000000	7.116701	48.261	NaN	0.000000	0.001602	0.001792	28.0828	30.0872	0.001782	16883.1	5.138050	-179.74	47.1187	1.113906	0.024416	0.024065	48.261	16883.1	0.022272	0.026238	1839.33	95226.5
516	2.000000	1.116252	7.3701e+06	-51289.1	1005.82	-29752.9	0.000000	0.000000	7.118973	54.9739	NaN	0.000000	0.001680	0.001771	28.083	31.7767	0.001825	17410.6	4.281155	-177.55	53.3751	1.115979	0.026411	0.026138	54.9739	17410.6	0.024043	0.029298	1876.36	92932.1
516	2.000000	1.118316	7.3701e+06	-51289.1	1005.82	-29752.9	0.000000	0.000000	7.121198	58.9112	NaN	0.000000	0.001684	0.001748	28.0828	34.0931	0.001823	18702.3	11.4468	174.835	61.2604	1.117926	0.028475	0.028085	58.9112	18702.3	0.026113	0.033071	1781.35	93960.2
516	2.000000	1.120225	7.3701e+06	-51289.1	1005.82	-29752.9	0.000000	0.000000	7.123385	65.6693	NaN	0.000000	0.001645	0.001737	28.0828	36.3186	0.001822	19933.3	5.823721	179.037	63.5114	1.119914	0.030384	0.030074	65.6693	19933.3	0.027913	0.036529	1797.71	95286.4
516	2.000000	1.122203	7.3701e+06	-51289.1	1005.82	-29752.9	0.000000	0.000000	7.125628	72.1016	NaN	0.000000	0.001630	0.001748	28.0831	37.759	0.001791	21082.8	8.275154	175.638	71.2156	1.121887	0.032363	0.032046	72.1016	21082.8	0.029798	0.040325	1788	95920.8
516	2.000000	1.124290	7.3701e+06	-51289.1	1005.82	-29752.9	0.000000	0.000000	7.127907	76.7723	NaN	0.000000	0.001652	0.001703	28.0829	39.926	0.001764	22633	5.243134	178.017	77.7501	1.123986	0.034449	0.034145	76.7723	22633	0.031905	0.044785	1714.25	97712.5
516	2.000000	1.126257	7.3701e+06	-51289.1	1005.82	-29752.9	0.000000	0.000000	7.130340	88.1051	NaN	0.000000	0.001652	0.001717	28.0829	41.7418	0.001885	22147.1	2.719778	-177.929	86.7956	1.125873	0.036417	0.036032	88.1051	22147.1	0.033433	0.048160	1829.42	92203.3
516	2.000000	1.128236	7.3701e+06	-51289.1	1005.82	-29752.9	0.000000	0.000000	7.132536	93.3776	NaN	0.000000	0.001651	0.001776	28.0825	43.6505	0.001800	24247	3.353940	178.624	92.1304	1.128061	0.038396	0.038220	93.3776	24247	0.035507	0.052934	1764.05	96286.6
516	2.000000	1.130189	7.3701e+06	-51289.1	1005.82	-29752.9	0.000000	0.000000	7.134897	103.313	NaN	0.000000	0.001650	0.001682	28.0831	45.6961	0.001818	25139.8	4.564376	178.049	100.707	1.129847	0.040348	0.040006	103.313	25139.8	0.037266	0.057154	1807.62	96075.2
516	2.000000	1.132193	7.3701e+06	-51289.1	1005.82	-29752.9	0.000000	0.000000	7.137232	111.36	NaN	0.000000	0.001663	0.001680	28.0826	47.6084	0.001738	27391.4	9.120623	172.274	110.926	1.131822	0.042352	0.041981	111.36	27391.4	0.039303	0.062240	1789.19	100312
516	2.000000	1.134184	7.3701e+06	-51289.1	1005.82	-29752.9	0.000000	0.000000	7.139651	121.763	NaN	0.000000	0.001611	0.001685	28.0832	49.5515	0.001712	28941.5	7.491517	173.822	120.234	1.133854	0.044343	0.044013	121.763	28941.5	0.041188	0.067135	1813.71	102052
516	2.000000	1.136244	7.3701e+06	-51289.1	1005.82	-29752.9	0.000000	0.000000	7.141956	127.708	NaN	0.000000	0.001653	0.001664	28.0826	51.613	0.001770	29156.3	3.387394	179.218	127.18	1.135882	0.046404	0.046041	127.708	29156.3	0.043118	0.072336	1765.48	99044.3
516	2.000000	1.138206	7.3701e+06	-51289.1	1005.82	-29752.9	0.000000	0.000000	7.144255	135.904	NaN	0.000000	0.001689	0.001676	28.0826	54.008	0.001808	29871.3	4.737952	176.255	134.967	1.137925	0.048366	0.048085	135.904	29871.3	0.044953	0.077455	1754.62	98062
516	2.000000	1.140237	7.3701e+06	-51289.1	1005.82	-29752.9	0.000000	0.000000	7.146562	142.62	NaN	0.000000	0.001656	0.001680	28.0818	56.2934	0.001870	30109.3	4.406647	176.776	144.497	1.139903	0.050396	0.050062	142.62	30109.3	0.046844	0.082908	1720.22	95537.8
516	2.000000	1.142155	7.3701e+06	-51289.1	1005.82	-29752.9	0.000000	0.000000	7.148875	152.249	NaN	0.000000	0.001620	0.001674	28.0814	56.3646	0.001676	33624.2	3.252543	176.284	148.982	1.141900	0.052314	0.052059	152.249	33624.2	0.048918	0.089098	1708.79	102918
516	2.000000	1.144179	7.3701e+06	-51289.1	1005.82	-29752.9	0.000000	0.000000	7.151301	161.997	NaN	0.000000	0.001657	0.001713	28.0816	59.2157	0.001778	33297.7	5.702295	174.954	161.035	1.143860	0.054338	0.054020	161.997	33297.7	0.050689	0.094556	1713.25	98933.4
516	2.000000	1.146263	7.3701e+06	-51289.1	1005.82	-29752.9	0.000000	0.000000	7.153910	174.776	NaN	0.000000	0.001670	0.001678	28.0816	60.9477	0.001920	31751.3	3.109265	178.145	174.303	1.145882	0.056423	0.056041	174.776	31751.3	0.052294	0.099636	1754.14	91902.3
516	2.000000	1.148162	7.3701e+06	-51289.1	1005.82	-29752.9	0.000000	0.000000	7.156372	188.441	NaN	0.000000	0.001651	0.001668	28.0815	62.8062	0.001734	36217	6.321610	173.249	186.852	1.147850	0.058322	0.058009	188.441	36217	0.054419	0.106561	1768.38	101365
516	2.000000	1.150168	7.3701e+06	-51289.1	1005.82	-29752.9	0.000000	0.000000	7.158501	191.459	NaN	0.000000	0.001617	0.001729	28.0814	64.8452	0.001721	37686.4	2.149050	176.865	188.309	1.149918	0.060327	0.060077	191.459	37686.4	0.056517	0.113615	1685.15	102150
516	2.000000	1.152163	7.3701e+06	-51289.1	1005.82	-29752.9	0.000000	0.000000	7.160987	203.389	NaN	0.000000	0.001641	0.001714	28.0813	66.8647	0.001790	37345.2	9.325475	169.673	204.204	1.151887	0.062323	0.062046	203.389	37345.2	0.058238	0.119566	1701.05	98674.3
516	2.000000	1.154165	7.3701e+06	-51289.1	1005.82	-29752.9	0.000000	0.000000	7.163494	215.67	NaN	0.000000	0.001651	0.001713	28.0817	68.0781	0.001817	37464.4	5.023004	174.472	212.23	1.153774	0.064325	0.063934	215.67	37464.4	0.060007	0.125834	1713.93	96492.4
516	2.000000	1.156153	7.3701e+06	-51289.1	1005.82	-29752.9	0.000000	0.000000	7.165934	226.662	NaN	0.000000	0.001638	0.001699	28.0814	69.8134	0.001830	38141.3	4.459031	176.055	223.517	1.155841	0.066312	0.066000	226.662	38141.3	0.061855	0.132545	1710.08	95716.6
516	2.000000	1.158190	7.3701e+06	-51289.1	1005.82	-29752.9	0.000000	0.000000	7.168661	243.455	NaN	0.000000	0.001636	0.001685	28.0815	70.4485	0.001698	41491.5	1.874076	176.781	241.969	1.157796	0.068349	0.067955	243.455	41491.5	0.063948	0.140345	1734.69	101189
516	2.000000	1.160225	7.3701e+06	-51289.1	1005.82	-29752.9	0.000000	0.000000	7.170881	247.949	NaN	0.000000	0.001635	0.001706	28.0815	74.5374	0.001782	41831.4	4.087062	174.403	248.375	1.159915	0.070384	0.070074	247.949	41831.4	0.065938	0.147959	1675.79	99358.5
516	2.000000	1.162119	7.3701e+06	-51289.1	1005.82	-29752.9	0.000000	0.000000	7.173368	262.372	NaN	0.000000	0.001635	0.001715	28.0813	75.3263	0.001786	42172.3	3.355018	175.288	257.355	1.161851	0.072278	0.072010	262.372	42172.3	0.067612	0.154509	1698.11	98022.1
516	2.000000	1.164178	7.3701e+06	-51289.1	1005.82	-29752.9	0.000000	0.000000	7.176102	278.786	NaN	0.000000	0.001640	0.001730	28.0815	78.826	0.001869	42167.2	6.875248	171.61	278.741	1.163926	0.074337	0.074086	278.786	42167.2	0.069379	0.161569	1725.49	95844.7
516	2.000000	1.166232	7.3701e+06	-51289.1	1005.82	-29752.9	0.000000	0.000000	7.178481	286.663	NaN	0.000000	0.001649	0.001685	28.0814	79.2316	0.001770	44765.5	2.871923	176.131	286.694	1.165815	0.076391	0.075974	286.663	44765.5	0.071589	0.170610	1680.22	99017.9
516	2.000000	1.168177	7.3701e+06	-51289.1	1005.82	-29752.9	0.000000	0.000000	7.180562	289.986	NaN	0.000000	0.001633	0.001666	28.0814	80.7729	0.001774	45522	2.769491	175.308	287.176	1.167810	0.078336	0.077969	289.986	45522	0.073558	0.178864	1621.27	98340.7
516	2.000000	1.170151	7.3701e+06	-51289.1	1005.82	-29752.9	0.000000	0.000000	7.183336	309.425	NaN	0.000000	0.001626	0.001687	28.0815	83.4198	0.001697	49158.4	6.060831	171.301	307.21	1.169859	0.080311	0.080018	309.425	49158.4	0.075590	0.187567	1649.67	103703
516	2.000000	1.172189	7.3701e+06	-51289.1	1005.82	-29752.9	0.000000	0.000000	7.185930	322.963	NaN	0.000000	0.001604	0.001720	28.0814	84.4795	0.001824	46317.8	6.498306	172.219	323.168	1.171780	0.082348	0.081940	322.963	46317.8	0.077119	0.194245	1662.66	96016.4
516	2.000000	1.174109	7.3701e+06	-51289.1	1005.82	-29752.9	0.000000	0.000000	7.187976	326.016	NaN	0.000000	0.001645	0.001716	28.0818	87.7825	0.001845	47576.8	5.337401	171.936	321.311	1.173894	0.084269	0.084054	326.016	47576.8	0.079129	0.203195	1604.45	96430.1
516	2.000000	1.176277	7.3701e+06	-51289.1	1005.82	-29752.9	0.000000	0.000000	7.191052	348.092	NaN	0.000000	0.001642	0.001733	28.0823	89.3512	0.001733	51565.8	5.851188	171.702	350.2	1.175897	0.086437	0.086056	348.092	51565.8	0.081374	0.213408	1631.12	101984
516	2.000000	1.178313	7.3701e+06	-51289.1	1005.82	-29752.9	0.000000	0.000000	7.193605	360.688	NaN	0.000000	0.001630	0.001711	28.0826	89.8611	0.001739	51678.2	5.264052	172.394	369.879	1.177893	0.088472	0.088052	360.688	51678.2	0.083237	0.222065	1624.24	100194
516	2.000000	1.180168	7.3701e+06	-51289.1	1005.82	-29752.9	0.000000	0.000000	7.196289	380.841	NaN	0.000000	0.001676	0.001707	28.0828	94.1627	0.001919	49080.6	10.0608	168.084	379.491	1.179635	0.090327	0.089794	380.841	49080.6	0.084507	0.228057	1669.94	93899
516	2.000000	1.182120	7.3701e+06	-51289.1	1005.82	-29752.9	0.000000	0.000000	7.198630	390.286	NaN	0.000000	0.001614	0.001738	28.0824	93.6284	0.001735	53954.8	5.261889	171.62	387.91	1.181907	0.092279	0.092067	390.286	53954.8	0.086854	0.239325	1630.78	100765
516	2.000000	1.184148	7.3701e+06	-51289.1	1005.82	-29752.9	0.000000	0.000000	7.201539	411.714	NaN	0.000000	0.001648	0.001723	28.0833	95.0749	0.001766	53824.9	7.266793	170.606	411.579	1.183790	0.094307	0.093949	411.714	53824.9	0.088571	0.247728	1661.96	98802.6
516	2.000000	1.186266	7.3701e+06	-51289.1	1005.82	-29752.9	0.000000	0.000000	7.204280	426.868	NaN	0.000000	0.001616	0.001702	28.0826	98.7579	0.001843	53588.5	9.241719	168.952	429.07	1.185778	0.096425	0.095937	426.868	53588.5	0.090451	0.257089	1660.39	96561.3
516	2.000000	1.188075	7.3701e+06	-51289.1	1005.82	-29752.9	0.000000	0.000000	7.206596	439.181	NaN	0.000000	0.001613	0.001715	28.0829	99.3576	0.001820	54583.7	3.368356	173.534	434.771	1.187777	0.098235	0.097937	439.181	54583.7	0.092200	0.265941	1651.42	96703.7
516	2.000000	1.190257	7.3701e+06	-51289.1	1005.82	-29752.9	0.000000	0.000000	7.209003	444.679	NaN	0.000000	0.001630	0.001695	28.0823	102.827	0.001845	55727.6	5.061031	171.546	451.311	1.189886	0.100416	0.100045	444.679	55727.6	0.094431	0.277437	1602.81	96663.2
516	2.000000	1.191040	7.3701e+06	-51289.1	1005.82	-29752.9	0.000000	0.000000	7.210506	462.158	NaN	0.000000	0.001609	0.001751	28.0825	103.752	0.001900	54612.4	7.484495	169.418	455.585	1.190659	0.101199	0.100818	462.158	54612.4	0.094852	0.279633	1652.73	94356.2