File: remote_trans/data/nanoindenter/0828-1/data/Data_2025-08-06,11h17m57s/2025-07-22_16-23-58_1_482.txt
2025-07-22, 16:23:58, 1
Index	Phase	Displacement	Time	Pos X	Pos Y	Pos Z	Rot A	Rot B	Piezo Z	Force A	Force B	Gripper	Voltage A	Voltage B	Temperature	Amplitude force	Amplitude pos	Stiffness	Phase shift	Phase excitation	Force A raw	Displacement raw	HMax	HMax raw	Real Force	Real Stiffness	Contact Depth	Area	Hardness	Reduced Mod.
[#]	[#]	[um]	[s]	[um]	[um]	[um]	[m°]	[m°]	[um]	[uN]	[uN]	[V]	[V]	[V]	[°C]	[uN]	[um]	[N/m]	[°]	[°]	[uN]	[um]	[um]	[um]	[uN]	[N/m]	[um]	[um^2]	[MPa]	[MPa]
482	1.000000	0.002454	7.36977e+06	-52989.1	1005.82	-29747.7	0.000000	0.000000	6.002801	-0.018206	NaN	0.000000	0.001593	0.001765	28.0839	0.020113	0.001038	19.3793	168.853	-164.677	-0.116311	0.001200	-1.081725	-1.082979	-0.018206	19.3793	-1.081021	-2.787601E+14	6.531142E-17	NaN
482	1.000000	0.010425	7.36977e+06	-52989.1	1005.82	-29747.7	0.000000	0.000000	6.010777	0.076336	NaN	0.000000	0.001603	0.001770	28.0836	0.036059	0.001073	33.6194	27.8905	-163.982	0.048088	0.009102	-1.073754	-1.075077	0.076336	33.6194	-1.075457	-2.346895E+14	-3.252641E-16	NaN
482	1.000000	0.018448	7.36977e+06	-52989.1	1005.82	-29747.7	0.000000	0.000000	6.018794	-0.053809	NaN	0.000000	0.001629	0.001754	28.0838	0.058907	0.001808	32.5873	36.9249	-166.304	0.052183	0.017135	-1.065731	-1.067044	-0.053809	32.5873	-1.064493	-1.671825E+14	3.218582E-16	NaN
482	1.000000	0.026450	7.36977e+06	-52989.1	1005.82	-29747.7	0.000000	0.000000	6.026798	0.002714	NaN	0.000000	0.001603	0.001749	28.0839	0.084903	0.001779	47.7275	74.9877	-161.623	0.025363	0.025048	-1.057729	-1.059131	0.002714	47.7275	-1.057772	-1.357936E+14	-1.998980E-17	NaN
482	1.000000	0.034379	7.36977e+06	-52989.1	1005.82	-29747.7	0.000000	0.000000	6.034726	-0.024138	NaN	0.000000	0.001599	0.001747	28.084	0.049848	0.001810	27.5391	-67.9556	-166.672	-0.024680	0.033076	-1.049800	-1.051104	-0.024138	27.5391	-1.049143	-1.039662E+14	2.321715E-16	NaN
482	1.000000	0.042449	7.36977e+06	-52989.1	1005.82	-29747.7	0.000000	0.000000	6.042795	-0.043908	NaN	0.000000	0.001601	0.001731	28.0841	0.154243	0.001997	77.2487	-162.155	-166.96	0.019857	0.041055	-1.041731	-1.043124	-0.043908	77.2487	-1.041304	-8.156520E+13	5.383133E-16	NaN
482	1.000000	0.050430	7.36977e+06	-52989.1	1005.82	-29747.7	0.000000	0.000000	6.050775	-0.075134	NaN	0.000000	0.001622	0.001755	28.0842	0.094965	0.001920	49.4515	125.829	-164.907	-0.042292	0.049063	-1.033749	-1.035116	-0.075134	49.4515	-1.032610	-6.231378E+13	1.205731E-15	NaN
482	1.000000	0.058409	7.36977e+06	-52989.1	1005.82	-29747.7	0.000000	0.000000	6.058759	0.030905	NaN	0.000000	0.001615	0.001784	28.0847	0.026770	0.002029	13.1952	-66.0009	-164.914	0.060050	0.057092	-1.025770	-1.027087	0.030905	13.1952	-1.027527	-5.323651E+13	-5.805251E-16	NaN
482	1.000000	0.066393	7.36977e+06	-52989.1	1005.82	-29747.7	0.000000	0.000000	6.066739	-0.049800	NaN	0.000000	0.001588	0.001780	28.084	0.038111	0.001960	19.4459	162.592	-167.606	0.056641	0.065100	-1.017786	-1.019080	-0.049800	19.4459	-1.015866	-3.709549E+13	1.342491E-15	NaN
482	1.000000	0.074402	7.36977e+06	-52989.1	1005.82	-29747.7	0.000000	0.000000	6.074749	-0.015022	NaN	0.000000	0.001597	0.001763	28.0841	0.050234	0.001960	25.6269	-37.4416	-167.259	0.014697	0.073195	-1.009777	-1.010985	-0.015022	25.6269	-1.009338	-3.030162E+13	4.957410E-16	NaN
482	1.000000	0.082398	7.36977e+06	-52989.1	1005.82	-29747.7	0.000000	0.000000	6.082749	0.051988	NaN	0.000000	0.001565	0.001727	28.0839	0.067928	0.001913	35.504	-2.744696	-164.477	-0.044108	0.081104	-1.001781	-1.003075	0.051988	35.504	-1.002879	-2.480447E+13	-2.095924E-15	NaN
482	1.000000	0.090436	7.36977e+06	-52989.1	1005.82	-29747.7	0.000000	0.000000	6.090785	0.019065	NaN	0.000000	0.001630	0.001782	28.0838	0.097563	0.001962	49.7343	30.5327	-164.666	0.041424	0.089092	-0.993743	-0.995087	0.019065	49.7343	-0.994031	-1.885359E+13	-1.011220E-15	NaN
482	1.000000	0.098425	7.36977e+06	-52989.1	1005.82	-29747.7	0.000000	0.000000	6.098772	-0.021871	NaN	0.000000	0.001604	0.001743	28.083	0.066130	0.002010	32.8984	123.472	-164.161	-0.038113	0.097081	-0.985755	-0.987098	-0.021871	32.8984	-0.985256	-1.436199E+13	1.522808E-15	NaN
482	1.000000	0.106419	7.36977e+06	-52989.1	1005.82	-29747.7	0.000000	0.000000	6.106766	-0.027273	NaN	0.000000	0.001631	0.001769	28.0826	0.054499	0.001951	27.9278	80.8812	-165.501	0.012184	0.105118	-0.977760	-0.979061	-0.027273	27.9278	-0.977028	-1.112673E+13	2.451130E-15	NaN
482	1.000000	0.114430	7.36977e+06	-52989.1	1005.82	-29747.7	0.000000	0.000000	6.114778	-0.013141	NaN	0.000000	0.001614	0.001727	28.0831	0.179754	0.001851	97.1195	-137.109	-167.468	0.006577	0.113133	-0.969749	-0.971046	-0.013141	97.1195	-0.969648	-8.849429E+12	1.484969E-15	NaN
482	1.000000	0.122404	7.36977e+06	-52989.1	1005.82	-29747.7	0.000000	0.000000	6.122750	-0.041222	NaN	0.000000	0.001602	0.001740	28.0828	0.132825	0.002083	63.7759	19.5633	-165.058	-0.077689	0.121144	-0.961775	-0.963036	-0.041222	63.7759	-0.961291	-6.827612E+12	6.037510E-15	NaN
482	1.000000	0.130435	7.36977e+06	-52989.1	1005.82	-29747.7	0.000000	0.000000	6.130783	0.011707	NaN	0.000000	0.001584	0.001787	28.0827	0.018690	0.002195	8.513139	7.070052	-164.608	0.033700	0.129107	-0.953744	-0.955073	0.011707	8.513139	-0.954776	-5.577384E+12	-2.098926E-15	NaN
482	1.000000	0.138426	7.36977e+06	-52989.1	1005.82	-29747.7	0.000000	0.000000	6.138776	0.029918	NaN	0.000000	0.001570	0.001755	28.0829	0.156752	0.001889	82.9932	-101.229	-167.98	0.032989	0.137105	-0.945753	-0.947074	0.029918	82.9932	-0.946023	-4.250013E+12	-7.039482E-15	NaN
482	1.000000	0.146460	7.36977e+06	-52989.1	1005.82	-29747.7	0.000000	0.000000	6.146808	0.001967	NaN	0.000000	0.001620	0.001750	28.0829	0.037956	0.002132	17.8051	-22.6644	-165.586	0.031501	0.145074	-0.937719	-0.939105	0.001967	17.8051	-0.937802	-3.292176E+12	-5.976026E-16	NaN
482	1.000000	0.154432	7.36977e+06	-52989.1	1005.82	-29747.7	0.000000	0.000000	6.154780	-0.011983	NaN	0.000000	0.001586	0.001763	28.0831	0.037286	0.001951	19.1114	113.364	-164.612	0.129675	0.153085	-0.929747	-0.931094	-0.011983	19.1114	-0.929277	-2.526005E+12	4.743696E-15	NaN
482	1.000000	0.162463	7.36977e+06	-52989.1	1005.82	-29747.7	0.000000	0.000000	6.162810	-0.029838	NaN	0.000000	0.001573	0.001776	28.0828	0.023645	0.002149	11.0049	-141.372	-165.114	-0.047012	0.161138	-0.921716	-0.923041	-0.029838	11.0049	-0.919682	-1.874630E+12	1.591701E-14	NaN
482	1.000000	0.170463	7.36977e+06	-52989.1	1005.82	-29747.7	0.000000	0.000000	6.170811	-0.000558	NaN	0.000000	0.001555	0.001769	28.0827	0.067967	0.002025	33.5654	-146.271	-163.074	-0.062433	0.169157	-0.913716	-0.915022	-0.000558	33.5654	-0.913703	-1.556617E+12	3.584520E-16	NaN
482	1.000000	0.178460	7.36977e+06	-52989.1	1005.82	-29747.7	0.000000	0.000000	6.178808	-0.001870	NaN	0.000000	0.001545	0.001763	28.0828	0.028121	0.001926	14.6025	166.022	-166.646	-0.055767	0.177175	-0.905719	-0.907004	-0.001870	14.6025	-0.905623	-1.210702E+12	1.544448E-15	NaN
482	1.000000	0.186445	7.36977e+06	-52989.1	1005.82	-29747.7	0.000000	0.000000	6.186792	-0.030936	NaN	0.000000	0.001602	0.001750	28.0827	0.098637	0.001998	49.3661	31.8317	-163.034	-0.007434	0.185133	-0.897734	-0.899046	-0.030936	49.3661	-0.897264	-9.334622E+11	3.314128E-14	NaN
482	1.000000	0.194435	7.36977e+06	-52989.1	1005.82	-29747.7	0.000000	0.000000	6.194782	-0.019907	NaN	0.000000	0.001586	0.001743	28.083	0.150610	0.002109	71.4254	15.3961	-165.756	0.059477	0.193171	-0.889744	-0.891008	-0.019907	71.4254	-0.889535	-7.338887E+11	2.712499E-14	NaN
482	1.000000	0.202480	7.36977e+06	-52989.1	1005.82	-29747.7	0.000000	0.000000	6.202827	-0.026602	NaN	0.000000	0.001632	0.001742	28.0826	0.014715	0.001984	7.415362	87.9022	-164.866	-0.006619	0.201189	-0.881700	-0.882990	-0.026602	7.415362	-0.879009	-5.288183E+11	5.030407E-14	NaN
482	1.000000	0.210470	7.36977e+06	-52989.1	1005.82	-29747.7	0.000000	0.000000	6.210819	0.020394	NaN	0.000000	0.001606	0.001769	28.0826	0.078281	0.002018	38.7902	-83.0607	-164.568	0.028292	0.209178	-0.873709	-0.875001	0.020394	38.7902	-0.874103	-4.538914E+11	-4.493156E-14	NaN
482	1.000000	0.218495	7.36977e+06	-52989.1	1005.82	-29747.7	0.000000	0.000000	6.218844	0.026818	NaN	0.000000	0.001622	0.001704	28.0826	0.117079	0.001932	60.6119	-164.425	-165.698	-0.015108	0.217160	-0.865684	-0.867019	0.026818	60.6119	-0.866016	-3.528065E+11	-7.601313E-14	NaN
482	1.000000	0.226487	7.36977e+06	-52989.1	1005.82	-29747.7	0.000000	0.000000	6.226835	-0.014269	NaN	0.000000	0.001603	0.001725	28.084	0.005525	0.001958	2.821380	17.8775	-166.067	-0.017083	0.225223	-0.857692	-0.858956	-0.014269	2.821380	-0.853899	-2.418401E+11	5.900050E-14	NaN
482	1.000000	0.234506	7.36977e+06	-52989.1	1005.82	-29747.7	0.000000	0.000000	6.234852	-0.056716	NaN	0.000000	0.001596	0.001760	28.0839	0.031970	0.002054	15.5625	75.0536	-160.909	-0.002819	0.233162	-0.849673	-0.851017	-0.056716	15.5625	-0.846940	-1.946669E+11	2.913503E-13	NaN
482	1.000000	0.242499	7.36977e+06	-52989.1	1005.82	-29747.7	0.000000	0.000000	6.242845	-0.031356	NaN	0.000000	0.001594	0.001801	28.0838	0.019235	0.001863	10.3266	-25.4864	-165.559	-0.073142	0.241153	-0.841681	-0.843026	-0.031356	10.3266	-0.839403	-1.538888E+11	2.037585E-13	NaN
482	1.000000	0.250500	7.36977e+06	-52989.1	1005.82	-29747.7	0.000000	0.000000	6.250844	-0.092440	NaN	0.000000	0.001590	0.001730	28.0841	0.029168	0.001924	15.1627	-168.675	-167.634	-0.125830	0.249202	-0.833680	-0.834977	-0.092440	15.1627	-0.829107	-1.116047E+11	8.282773E-13	NaN
482	1.000000	0.258508	7.36977e+06	-52989.1	1005.82	-29747.7	0.000000	0.000000	6.258854	-0.052004	NaN	0.000000	0.001548	0.001737	28.0838	0.117563	0.002013	58.4122	164.517	-166.678	-0.082553	0.257210	-0.825671	-0.826969	-0.052004	58.4122	-0.825003	-9.818566E+10	5.296513E-13	NaN
482	1.000000	0.266486	7.36977e+06	-52989.1	1005.82	-29747.7	0.000000	0.000000	6.266833	-0.035135	NaN	0.000000	0.001570	0.001751	28.0839	0.104001	0.001982	52.4762	-138.443	-168.204	-0.067125	0.265157	-0.817693	-0.819022	-0.035135	52.4762	-0.817191	-7.693314E+10	4.566951E-13	NaN
482	1.000000	0.274489	7.36977e+06	-52989.1	1005.82	-29747.7	0.000000	0.000000	6.274839	0.030471	NaN	0.000000	0.001567	0.001759	28.0839	0.098625	0.001946	50.6919	-136.514	-166.496	-0.005162	0.273157	-0.809690	-0.811022	0.030471	50.6919	-0.810141	-6.172751E+10	-4.936381E-13	NaN
482	1.000000	0.282493	7.36977e+06	-52989.1	1005.82	-29747.7	0.000000	0.000000	6.282840	-0.035989	NaN	0.000000	0.001545	0.001738	28.0841	0.127500	0.001851	68.8819	6.650535	-163.879	-0.049718	0.281175	-0.801686	-0.803004	-0.035989	68.8819	-0.801294	-4.681936E+10	7.686822E-13	NaN
482	1.000000	0.290501	7.36977e+06	-52989.1	1005.82	-29747.7	0.000000	0.000000	6.290850	0.020927	NaN	0.000000	0.001567	0.001761	28.0841	0.121585	0.002072	58.6935	14.5549	-167.774	0.064600	0.289144	-0.793678	-0.795036	0.020927	58.6935	-0.793946	-3.721078E+10	-5.623795E-13	NaN
482	1.000000	0.298507	7.36977e+06	-52989.1	1005.82	-29747.7	0.000000	0.000000	6.298854	-0.041918	NaN	0.000000	0.001560	0.001745	28.084	0.081577	0.002049	39.8142	-120.4	-165.811	0.074491	0.297149	-0.785672	-0.787030	-0.041918	39.8142	-0.784882	-2.802641E+10	1.495664E-12	NaN
482	1.000000	0.306506	7.36977e+06	-52989.1	1005.82	-29747.7	0.000000	0.000000	6.306850	-0.102206	NaN	0.000000	0.001582	0.001749	28.0841	0.066270	0.002052	32.2986	113.81	-166.434	-0.076880	0.305153	-0.777673	-0.779026	-0.102206	32.2986	-0.775300	-2.076605E+10	4.921796E-12	NaN
482	1.000000	0.314507	7.36977e+06	-52989.1	1005.82	-29747.7	0.000000	0.000000	6.314854	-0.038760	NaN	0.000000	0.001576	0.001744	28.0839	0.101202	0.001967	51.4483	-172.043	-163.91	-0.046976	0.313235	-0.769672	-0.770944	-0.038760	51.4483	-0.769107	-1.710648E+10	2.265813E-12	NaN
482	1.000000	0.322515	7.36977e+06	-52989.1	1005.82	-29747.7	0.000000	0.000000	6.322862	-0.027207	NaN	0.000000	0.001570	0.001755	28.0839	0.042045	0.001962	21.4248	44.7714	-167.016	-0.032330	0.321180	-0.761664	-0.762999	-0.027207	21.4248	-0.760712	-1.315174E+10	2.068698E-12	NaN
482	1.000000	0.330535	7.36977e+06	-52989.1	1005.82	-29747.7	0.000000	0.000000	6.330884	0.026387	NaN	0.000000	0.001604	0.001764	28.0839	0.058111	0.001965	29.5793	179.035	-163.526	-0.008489	0.329206	-0.753644	-0.754973	0.026387	29.5793	-0.754313	-1.076278E+10	-2.451735E-12	NaN
482	1.000000	0.338509	7.36977e+06	-52989.1	1005.82	-29747.7	0.000000	0.000000	6.338855	-0.064372	NaN	0.000000	0.001560	0.001743	28.084	0.036179	0.001991	18.1673	-9.013539	-165.056	-0.036694	0.337161	-0.745670	-0.747018	-0.064372	18.1673	-0.743012	-7.552317E+9	8.523486E-12	NaN
482	1.000000	0.346510	7.36977e+06	-52989.1	1005.82	-29747.7	0.000000	0.000000	6.346852	-0.131365	NaN	0.000000	0.001579	0.001743	28.0847	0.083423	0.001974	42.2561	-92.2904	-166.072	-0.133515	0.345201	-0.737669	-0.738978	-0.131365	42.2561	-0.735338	-5.936712E+9	2.212755E-11	NaN
482	1.000000	0.354510	7.36977e+06	-52989.1	1005.82	-29747.7	0.000000	0.000000	6.354860	0.042524	NaN	0.000000	0.001559	0.001768	28.084	0.065112	0.002004	32.4963	75.992	-162.469	-0.085229	0.353237	-0.729669	-0.730942	0.042524	32.4963	-0.730650	-5.124712E+9	-8.297855E-12	NaN
482	1.000000	0.362551	7.36977e+06	-52989.1	1005.82	-29747.7	0.000000	0.000000	6.362896	-0.067881	NaN	0.000000	0.001565	0.001762	28.084	0.089427	0.001937	46.1573	-28.893	-166.957	-0.031431	0.361203	-0.721628	-0.722976	-0.067881	46.1573	-0.720525	-3.729390E+9	1.820166E-11	NaN
482	1.000000	0.370542	7.36977e+06	-52989.1	1005.82	-29747.7	0.000000	0.000000	6.370889	-0.028747	NaN	0.000000	0.001559	0.001782	28.0824	0.044722	0.001908	23.4451	63.4387	-166.991	-0.061496	0.369234	-0.713637	-0.714945	-0.028747	23.4451	-0.712717	-2.918306E+9	9.850617E-12	NaN
482	1.000000	0.378542	7.36977e+06	-52989.1	1005.82	-29747.7	0.000000	0.000000	6.378887	-0.057070	NaN	0.000000	0.001580	0.001760	28.0824	0.057324	0.001919	29.8697	110.92	-164.196	-0.028205	0.377176	-0.705637	-0.707004	-0.057070	29.8697	-0.704205	-2.233273E+9	2.555421E-11	NaN
482	1.000000	0.386518	7.36977e+06	-52989.1	1005.82	-29747.7	0.000000	0.000000	6.386864	-0.034196	NaN	0.000000	0.001614	0.001720	28.083	0.056952	0.002021	28.1798	77.3674	-164.452	-0.099891	0.385287	-0.697662	-0.698892	-0.034196	28.1798	-0.696751	-1.766698E+9	1.935568E-11	NaN
482	1.000000	0.394538	7.36977e+06	-52989.1	1005.82	-29747.7	0.000000	0.000000	6.394886	-0.008246	NaN	0.000000	0.001572	0.001749	28.0826	0.128430	0.001983	64.7732	16.8515	-168.868	0.017810	0.393259	-0.689641	-0.690920	-0.008246	64.7732	-0.689546	-1.408355E+9	5.854757E-12	NaN
482	1.000000	0.402559	7.36977e+06	-52989.1	1005.82	-29747.7	0.000000	0.000000	6.402909	0.050689	NaN	0.000000	0.001591	0.001763	28.0825	0.068886	0.001970	34.9743	109.378	-164.811	-0.052122	0.401257	-0.681620	-0.682922	0.050689	34.9743	-0.682707	-1.135595E+9	-4.463679E-11	NaN
482	1.000000	0.410558	7.36977e+06	-52989.1	1005.82	-29747.7	0.000000	0.000000	6.410905	-0.020696	NaN	0.000000	0.001573	0.001756	28.0824	0.074380	0.001912	38.8992	-20.1272	-164.328	-0.034376	0.409237	-0.673622	-0.674942	-0.020696	38.8992	-0.673223	-8.423471E+8	2.456982E-11	NaN
482	1.000000	0.418528	7.36977e+06	-52989.1	1005.82	-29747.7	0.000000	0.000000	6.418874	-0.043570	NaN	0.000000	0.001565	0.001728	28.0822	0.085336	0.001947	43.8363	-14.0299	-168.672	0.011573	0.417273	-0.665651	-0.666907	-0.043570	43.8363	-0.664906	-6.481185E+8	6.722545E-11	NaN
482	1.000000	0.426573	7.36977e+06	-52989.1	1005.82	-29747.7	0.000000	0.000000	6.426921	0.008088	NaN	0.000000	0.001557	0.001755	28.0825	0.010691	0.001952	5.476742	157.145	-166.375	0.015327	0.425241	-0.657606	-0.658938	0.008088	5.476742	-0.658714	-5.331510E+8	-1.517029E-11	NaN
482	1.000000	0.434565	7.36977e+06	-52989.1	1005.82	-29747.7	0.000000	0.000000	6.434911	-0.051778	NaN	0.000000	0.001623	0.001753	28.0824	0.028148	0.002080	13.5322	119.559	-160.636	-0.058649	0.433263	-0.649614	-0.650916	-0.051778	13.5322	-0.646745	-3.654278E+8	1.416908E-10	NaN
482	1.000000	0.442590	7.36977e+06	-52989.1	1005.82	-29747.7	0.000000	0.000000	6.442936	-0.036310	NaN	0.000000	0.001562	0.001720	28.0825	0.140043	0.001952	71.7316	-52.6082	-165.595	0.030194	0.441180	-0.641590	-0.642999	-0.036310	71.7316	-0.641210	-3.068237E+8	1.183424E-10	NaN
482	1.000000	0.450570	7.36977e+06	-52989.1	1005.82	-29747.7	0.000000	0.000000	6.450919	0.014444	NaN	0.000000	0.001663	0.001717	28.0822	0.031678	0.002043	15.5042	-123.918	-165.33	0.094369	0.449257	-0.633609	-0.634922	0.014444	15.5042	-0.634308	-2.467011E+8	-5.855012E-11	NaN
482	1.000000	0.458534	7.36977e+06	-52989.1	1005.82	-29747.7	0.000000	0.000000	6.458880	-0.062414	NaN	0.000000	0.001594	0.001737	28.0819	0.025689	0.001935	13.2743	-111.552	-165.493	-0.041027	0.457259	-0.625645	-0.626920	-0.062414	13.2743	-0.622119	-1.677839E+8	3.719876E-10	NaN
482	1.000000	0.466580	7.36977e+06	-52989.1	1005.82	-29747.7	0.000000	0.000000	6.466928	-0.020360	NaN	0.000000	0.001587	0.001713	28.0822	0.027286	0.001979	13.7858	-45.881	-163.641	-0.061066	0.465293	-0.617599	-0.618887	-0.020360	13.7858	-0.616491	-1.404095E+8	1.450022E-10	NaN
482	1.000000	0.474567	7.36977e+06	-52989.1	1005.82	-29747.7	0.000000	0.000000	6.474915	0.015963	NaN	0.000000	0.001557	0.001739	28.0822	0.014704	0.002059	7.140990	127.637	-166.819	0.015565	0.473274	-0.609612	-0.610905	0.015963	7.140990	-0.611289	-1.190825E+8	-1.340482E-10	NaN
482	1.000000	0.482592	7.36977e+06	-52989.1	1005.82	-29747.7	0.000000	0.000000	6.482938	-0.038512	NaN	0.000000	0.001575	0.001747	28.0825	0.071428	0.001955	36.537	-72.4551	-161.853	-0.093590	0.481262	-0.601587	-0.602917	-0.038512	36.537	-0.600797	-8.539524E+7	4.509873E-10	NaN
482	1.000000	0.490563	7.36977e+06	-52989.1	1005.82	-29747.7	0.000000	0.000000	6.490909	-0.036403	NaN	0.000000	0.001556	0.001785	28.0825	0.079366	0.002084	38.0808	136.716	-166.438	-0.060523	0.489295	-0.593616	-0.594884	-0.036403	38.0808	-0.592899	-6.647106E+7	5.476593E-10	NaN
482	1.000000	0.498578	7.36977e+06	-52989.1	1005.82	-29747.7	0.000000	0.000000	6.498927	0.004856	NaN	0.000000	0.001540	0.001795	28.0824	0.079130	0.002016	39.242	-14.6564	-162.682	-0.072190	0.497311	-0.585601	-0.586868	0.004856	39.242	-0.585693	-5.287860E+7	-9.183568E-11	NaN
482	1.000000	0.506587	7.36977e+06	-52989.1	1005.82	-29747.7	0.000000	0.000000	6.506935	-0.008327	NaN	0.000000	0.001553	0.001767	28.0835	0.086448	0.001983	43.6042	-129.13	-162.967	0.023887	0.505258	-0.577592	-0.578921	-0.008327	43.6042	-0.577449	-4.069190E+7	2.046425E-10	NaN
482	1.000000	0.514591	7.36977e+06	-52989.1	1005.82	-29747.7	0.000000	0.000000	6.514939	0.010601	NaN	0.000000	0.001626	0.001730	28.0836	0.003771	0.002084	1.809668	98.2247	-163.488	-0.076301	0.513283	-0.569588	-0.570896	0.010601	1.809668	-0.573982	-3.644531E+7	-2.908864E-10	NaN
482	1.000000	0.522569	7.36977e+06	-52989.1	1005.82	-29747.7	0.000000	0.000000	6.522918	0.021759	NaN	0.000000	0.001621	0.001746	28.0837	0.061152	0.001998	30.5988	66.6954	-166.638	-0.022886	0.521278	-0.561611	-0.562901	0.021759	30.5988	-0.562144	-2.500525E+7	-8.701696E-10	NaN
482	1.000000	0.530603	7.36977e+06	-52989.1	1005.82	-29747.7	0.000000	0.000000	6.530948	-0.065328	NaN	0.000000	0.001667	0.001775	28.0837	0.058445	0.002092	27.9315	132.779	-163.481	-0.082221	0.529331	-0.553577	-0.554848	-0.065328	27.9315	-0.551822	-1.799680E+7	3.629959E-9	NaN
482	1.000000	0.538625	7.36977e+06	-52989.1	1005.82	-29747.7	0.000000	0.000000	6.538974	0.003243	NaN	0.000000	0.001653	0.001743	28.0842	0.074900	0.001978	37.8597	-145.426	-167.248	-0.041464	0.537325	-0.545554	-0.546854	0.003243	37.8597	-0.545618	-1.476542E+7	-2.196339E-10	NaN
482	1.000000	0.546623	7.36977e+06	-52989.1	1005.82	-29747.7	0.000000	0.000000	6.546972	0.034088	NaN	0.000000	0.001666	0.001789	28.0835	0.042584	0.002116	20.1205	-61.5009	-165.255	0.101309	0.545274	-0.537556	-0.538905	0.034088	20.1205	-0.538827	-1.188737E+7	-2.867595E-9	NaN
482	1.000000	0.554602	7.36977e+06	-52989.1	1005.82	-29747.7	0.000000	0.000000	6.554948	-0.039210	NaN	0.000000	0.001654	0.001779	28.0842	0.081301	0.001936	41.9929	-108.889	-167.645	-0.015198	0.553287	-0.529577	-0.530892	-0.039210	41.9929	-0.528877	-8.64927e+06	4.533390E-9	NaN
482	1.000000	0.562585	7.36977e+06	-52989.1	1005.82	-29747.7	0.000000	0.000000	6.562934	0.039718	NaN	0.000000	0.001628	0.001784	28.0835	0.017977	0.002092	8.591923	0.941023	-163.257	0.099024	0.561291	-0.521595	-0.522888	0.039718	8.591923	-0.525062	-7.65539e+06	-5.188215E-9	NaN
482	1.000000	0.570596	7.36977e+06	-52989.1	1005.82	-29747.7	0.000000	0.000000	6.570945	0.022302	NaN	0.000000	0.001613	0.001758	28.0835	0.076206	0.002191	34.7809	-153.403	-163.833	-0.050493	0.569311	-0.513583	-0.514868	0.022302	34.7809	-0.514064	-5.38275e+06	-4.143257E-9	NaN
482	1.000000	0.578639	7.36977e+06	-52989.1	1005.82	-29747.7	0.000000	0.000000	6.578985	-0.033263	NaN	0.000000	0.001614	0.001788	28.0837	0.058892	0.002034	28.9589	-105.676	-166.492	-0.065544	0.577291	-0.505540	-0.506888	-0.033263	28.9589	-0.504679	-3.98354e+06	8.350005E-9	NaN
482	1.000000	0.586622	7.36977e+06	-52989.1	1005.82	-29747.7	0.000000	0.000000	6.586972	0.035425	NaN	0.000000	0.001610	0.001772	28.0834	0.085078	0.001987	42.82	86.8266	-166.331	-0.060883	0.585275	-0.497557	-0.498904	0.035425	42.82	-0.498177	-3.23286e+06	-1.095774E-8	NaN
482	1.000000	0.594609	7.36977e+06	-52989.1	1005.82	-29747.7	0.000000	0.000000	6.594955	-0.032282	NaN	0.000000	0.001633	0.001783	28.0841	0.049266	0.002061	23.9026	-99.8102	-164.355	-0.082002	0.593306	-0.489570	-0.490873	-0.032282	23.9026	-0.488558	-2.37265e+06	1.360569E-8	NaN
482	1.000000	0.602629	7.36977e+06	-52989.1	1005.82	-29747.7	0.000000	0.000000	6.602976	-0.047957	NaN	0.000000	0.001624	0.001723	28.0834	0.027909	0.001990	14.0247	87.2611	-165.705	0.032631	0.601345	-0.481550	-0.482834	-0.047957	14.0247	-0.478985	-1.74308e+06	2.751279E-8	NaN
482	1.000000	0.610621	7.36977e+06	-52989.1	1005.82	-29747.7	0.000000	0.000000	6.610971	0.040593	NaN	0.000000	0.001642	0.001774	28.0834	0.134410	0.001897	70.8538	43.3195	-168.32	0.051210	0.609335	-0.473558	-0.474844	0.040593	70.8538	-0.473988	-1.48361e+06	-2.736132E-8	NaN
482	1.000000	0.618668	7.36977e+06	-52989.1	1005.82	-29747.7	0.000000	0.000000	6.619012	-0.115703	NaN	0.000000	0.001610	0.001786	28.0834	0.046143	0.001970	23.4282	49.9245	-162.958	-0.081608	0.617327	-0.465511	-0.466852	-0.115703	23.4282	-0.461807	-1.00094e+06	1.155945E-7	NaN
482	1.000000	0.626651	7.36977e+06	-52989.1	1005.82	-29747.7	0.000000	0.000000	6.626998	-0.016477	NaN	0.000000	0.001601	0.001765	28.0836	0.039532	0.001947	20.3053	176.142	-167.131	0.034763	0.625383	-0.457528	-0.458796	-0.016477	20.3053	-0.456920	-854506	1.928204E-8	NaN
482	1.000000	0.634594	7.36977e+06	-52989.1	1005.82	-29747.7	0.000000	0.000000	6.634943	0.033038	NaN	0.000000	0.001627	0.001735	28.0841	0.059188	0.001970	30.0408	-63.688	-166.24	0.039640	0.633380	-0.449585	-0.450799	0.033038	30.0408	-0.450410	-692021	-4.774160E-8	NaN
482	1.000000	0.642691	7.36977e+06	-52989.1	1005.82	-29747.7	0.000000	0.000000	6.643039	-0.003938	NaN	0.000000	0.001628	0.001754	28.0821	0.087922	0.002168	40.5552	-23.5221	-164.162	0.042135	0.641358	-0.441488	-0.442821	-0.003938	40.5552	-0.441416	-516819	7.619752E-9	NaN
482	1.000000	0.650667	7.36977e+06	-52989.1	1005.82	-29747.7	0.000000	0.000000	6.651016	0.009177	NaN	0.000000	0.001668	0.001767	28.0823	0.037108	0.002000	18.5581	36.25	-163.787	-0.042933	0.649397	-0.433512	-0.434782	0.009177	18.5581	-0.433883	-404546	-2.268576E-8	NaN
482	1.000000	0.658656	7.36977e+06	-52989.1	1005.82	-29747.7	0.000000	0.000000	6.659005	0.017129	NaN	0.000000	0.001666	0.001767	28.0824	0.033790	0.002015	16.7652	-39.121	-167.422	0.052608	0.657316	-0.425523	-0.426863	0.017129	16.7652	-0.426289	-315891	-5.422575E-8	NaN
482	1.000000	0.666651	7.36977e+06	-52989.1	1005.82	-29747.7	0.000000	0.000000	6.667000	0.026925	NaN	0.000000	0.001626	0.001725	28.0823	0.070887	0.002007	35.3151	179.404	-162.295	-0.004626	0.665359	-0.417528	-0.418820	0.026925	35.3151	-0.418100	-241803	-1.113492E-7	NaN
482	1.000000	0.674649	7.36977e+06	-52989.1	1005.82	-29747.7	0.000000	0.000000	6.674999	0.049540	NaN	0.000000	0.001655	0.001735	28.0827	0.099385	0.002048	48.5221	91.9011	-168.058	-0.057298	0.673300	-0.409530	-0.410879	0.049540	48.5221	-0.410296	-187329	-2.644525E-7	NaN
482	1.000000	0.682653	7.36977e+06	-52989.1	1005.82	-29747.7	0.000000	0.000000	6.682999	-0.045907	NaN	0.000000	0.001657	0.001762	28.0824	0.059656	0.002005	29.7516	166.551	-165.536	-0.051086	0.681286	-0.401526	-0.402893	-0.045907	29.7516	-0.400369	-135287	3.393268E-7	NaN
482	1.000000	0.690673	7.36977e+06	-52989.1	1005.82	-29747.7	0.000000	0.000000	6.691021	-0.002782	NaN	0.000000	0.001600	0.001744	28.0824	0.014609	0.001944	7.514712	-151.187	-165.258	-0.074254	0.689363	-0.393506	-0.394816	-0.002782	7.514712	-0.393228	-106986	2.600027E-8	NaN
482	1.000000	0.698683	7.36977e+06	-52989.1	1005.82	-29747.7	0.000000	0.000000	6.699030	-0.038297	NaN	0.000000	0.001588	0.001744	28.0822	0.122648	0.002073	59.1532	-136.874	-165.571	-0.002545	0.697360	-0.385496	-0.386819	-0.038297	59.1532	-0.385010	-81608.2	4.692785E-7	NaN
482	1.000000	0.706685	7.36977e+06	-52989.1	1005.82	-29747.7	0.000000	0.000000	6.707033	-0.012373	NaN	0.000000	0.001561	0.001768	28.0822	0.116490	0.001908	61.0456	116.646	-165.054	-0.015744	0.705401	-0.377494	-0.378778	-0.012373	61.0456	-0.377342	-63346.9	1.953143E-7	NaN
482	1.000000	0.714669	7.36977e+06	-52989.1	1005.82	-29747.7	0.000000	0.000000	6.715017	-0.021404	NaN	0.000000	0.001573	0.001762	28.0824	0.041489	0.002034	20.3979	95.0347	-164.114	-0.061019	0.713386	-0.369510	-0.370793	-0.021404	20.3979	-0.368723	-47613.3	4.495305E-7	NaN
482	1.000000	0.722679	7.36977e+06	-52989.1	1005.82	-29747.7	0.000000	0.000000	6.723024	-0.081079	NaN	0.000000	0.001563	0.001788	28.0824	0.072006	0.001934	37.2293	125.639	-165.458	-0.052082	0.721348	-0.361500	-0.362831	-0.081079	37.2293	-0.359867	-35474.9	2.285536E-6	NaN
482	1.000000	0.730718	7.36977e+06	-52989.1	1005.82	-29747.7	0.000000	0.000000	6.731063	-0.059134	NaN	0.000000	0.001550	0.001766	28.0825	0.041457	0.001888	21.9603	-167.709	-166.143	-0.057969	0.729404	-0.353461	-0.354775	-0.059134	21.9603	-0.351442	-26786.9	2.207568E-6	NaN
482	1.000000	0.738702	7.36977e+06	-52989.1	1005.82	-29747.7	0.000000	0.000000	6.739050	-0.018594	NaN	0.000000	0.001575	0.001774	28.0824	0.083184	0.001930	43.1039	-30.8683	-163.549	0.038420	0.737392	-0.345477	-0.346787	-0.018594	43.1039	-0.345153	-21706.3	8.566054E-7	NaN
482	1.000000	0.746703	7.36977e+06	-52989.1	1005.82	-29747.7	0.000000	0.000000	6.747052	0.027061	NaN	0.000000	0.001561	0.001771	28.0822	0.114748	0.001979	57.9688	23.658	-161.781	0.058419	0.745409	-0.337476	-0.338770	0.027061	57.9688	-0.337826	-16976.6	-1.594022E-6	NaN
482	1.000000	0.754737	7.36977e+06	-52989.1	1005.82	-29747.7	0.000000	0.000000	6.755083	-0.052860	NaN	0.000000	0.001571	0.001725	28.0822	0.024370	0.001923	12.6716	33.379	-165.637	-0.028801	0.753319	-0.329442	-0.330860	-0.052860	12.6716	-0.326314	-11519	4.588959E-6	NaN
482	1.000000	0.762693	7.36977e+06	-52989.1	1005.82	-29747.7	0.000000	0.000000	6.763040	-0.036733	NaN	0.000000	0.001547	0.001761	28.0821	0.072513	0.001945	37.2826	32.4135	-167.238	-0.085337	0.761366	-0.321486	-0.322813	-0.036733	37.2826	-0.320747	-9541.8	3.849693E-6	NaN
482	1.000000	0.770716	7.36977e+06	-52989.1	1005.82	-29747.7	0.000000	0.000000	6.771062	-0.039169	NaN	0.000000	0.001567	0.001740	28.0824	0.087362	0.002075	42.0949	1.254831	-163.362	0.042756	0.769378	-0.313463	-0.314801	-0.039169	42.0949	-0.312766	-7276.98	5.382653E-6	NaN
482	1.000000	0.778689	7.36977e+06	-52989.1	1005.82	-29747.7	0.000000	0.000000	6.779037	-0.010074	NaN	0.000000	0.001576	0.001782	28.0835	0.119073	0.001973	60.3389	15.8576	-168.674	-0.023259	0.777419	-0.305490	-0.306760	-0.010074	60.3389	-0.305364	-5654.09	1.781744E-6	NaN
482	1.000000	0.786745	7.36977e+06	-52989.1	1005.82	-29747.7	0.000000	0.000000	6.787094	0.021575	NaN	0.000000	0.001569	0.001759	28.0833	0.017816	0.001929	9.235237	-127.521	-164.396	-0.010235	0.785377	-0.297434	-0.298802	0.021575	9.235237	-0.299187	-4576.39	-4.714423E-6	NaN
482	1.000000	0.794726	7.36977e+06	-52989.1	1005.82	-29747.7	0.000000	0.000000	6.795074	-0.000195	NaN	0.000000	0.001553	0.001765	28.0833	0.113292	0.002032	55.7594	157.234	-166.889	-0.031864	0.793371	-0.289454	-0.290808	-0.000195	55.7594	-0.289451	-3273.97	5.943971E-8	NaN
482	1.000000	0.802704	7.36977e+06	-52989.1	1005.82	-29747.7	0.000000	0.000000	6.803053	0.004474	NaN	0.000000	0.001539	0.001751	28.0833	0.026668	0.002000	13.3364	-84.8863	-163.251	-0.029280	0.801377	-0.281475	-0.282802	0.004474	13.3364	-0.281727	-2506.11	-1.785278E-6	NaN
482	1.000000	0.810708	7.36977e+06	-52989.1	1005.82	-29747.7	0.000000	0.000000	6.811055	-0.029885	NaN	0.000000	0.001592	0.001775	28.0833	0.071138	0.002035	34.9607	-90.2415	-165.72	-0.012922	0.809447	-0.273471	-0.274732	-0.029885	34.9607	-0.272830	-1838.7	1.625311E-5	NaN
482	1.000000	0.818737	7.36977e+06	-52989.1	1005.82	-29747.7	0.000000	0.000000	6.819083	-0.040316	NaN	0.000000	0.001572	0.001761	28.0833	0.040400	0.002058	19.6303	-45.1365	-165.533	-0.058256	0.817397	-0.265442	-0.266782	-0.040316	19.6303	-0.263902	-1344.7	2.998141E-5	NaN
482	1.000000	0.826713	7.36977e+06	-52989.1	1005.82	-29747.7	0.000000	0.000000	6.827060	-0.024963	NaN	0.000000	0.001590	0.001750	28.084	0.108178	0.001925	56.1846	150.444	-162.553	-0.007407	0.825395	-0.257467	-0.258784	-0.024963	56.1846	-0.257133	-1059.07	2.357029E-5	NaN
482	1.000000	0.834717	7.36977e+06	-52989.1	1005.82	-29747.7	0.000000	0.000000	6.835064	-0.042658	NaN	0.000000	0.001603	0.001741	28.0838	0.056616	0.001978	28.6159	-138.146	-164.033	-0.080121	0.833438	-0.249462	-0.250741	-0.042658	28.6159	-0.248344	-775.048	5.503899E-5	NaN
482	1.000000	0.842748	7.36977e+06	-52989.1	1005.82	-29747.7	0.000000	0.000000	6.843096	0.008225	NaN	0.000000	0.001560	0.001758	28.084	0.065988	0.002008	32.8551	116.954	-164.862	0.010506	0.841456	-0.241431	-0.242723	0.008225	32.8551	-0.241619	-609.286	-1.349998E-5	NaN
482	1.000000	0.850707	7.36977e+06	-52989.1	1005.82	-29747.7	0.000000	0.000000	6.851056	0.020058	NaN	0.000000	0.001562	0.001777	28.0835	0.123010	0.002050	59.9941	-85.1997	-164.125	0.012810	0.849445	-0.233472	-0.234735	0.020058	59.9941	-0.233723	-458.328	-4.376277E-5	NaN
482	1.000000	0.858747	7.36977e+06	-52989.1	1005.82	-29747.7	0.000000	0.000000	6.859095	-0.007786	NaN	0.000000	0.001568	0.001759	28.0835	0.036723	0.001984	18.5093	-72.3376	-165.785	0.041253	0.857454	-0.225432	-0.226725	-0.007786	18.5093	-0.225117	-335.113	2.323258E-5	NaN
482	1.000000	0.866713	7.36977e+06	-52989.1	1005.82	-29747.7	0.000000	0.000000	6.867060	-0.029713	NaN	0.000000	0.001552	0.001757	28.0838	0.056100	0.002035	27.5723	91.7945	-164.938	0.004799	0.865500	-0.217466	-0.218679	-0.029713	27.5723	-0.216657	-245.552	0.000121	NaN
482	1.000000	0.874737	7.36977e+06	-52989.1	1005.82	-29747.7	0.000000	0.000000	6.875082	-0.092836	NaN	0.000000	0.001534	0.001767	28.0835	0.097230	0.001941	50.1024	115.307	-165.277	-0.049385	0.873420	-0.209442	-0.210759	-0.092836	50.1024	-0.208052	-178.331	0.000521	NaN
482	1.000000	0.882738	7.36977e+06	-52989.1	1005.82	-29747.7	0.000000	0.000000	6.883088	0.037854	NaN	0.000000	0.001517	0.001753	28.084	0.024154	0.002086	11.5811	87.2909	-165.014	0.021471	0.881461	-0.201441	-0.202718	0.037854	11.5811	-0.203892	-152.572	-0.000248	NaN
482	1.000000	0.890731	7.36977e+06	-52989.1	1005.82	-29747.7	0.000000	0.000000	6.891076	-0.078459	NaN	0.000000	0.001528	0.001783	28.0837	0.076640	0.002110	36.3138	108.025	-167.135	-0.132703	0.889436	-0.193448	-0.194743	-0.078459	36.3138	-0.191828	-96.4968	0.000813	NaN
482	1.000000	0.898765	7.36977e+06	-52989.1	1005.82	-29747.7	0.000000	0.000000	6.899113	-0.012876	NaN	0.000000	0.001549	0.001829	28.0835	0.011399	0.001972	5.780275	-166.623	-162.97	-0.019667	0.897478	-0.185414	-0.186701	-0.012876	5.780275	-0.183743	-70.62	0.000182	NaN
482	1.000000	0.906763	7.36977e+06	-52989.1	1005.82	-29747.8	0.000000	0.000000	6.907111	-0.019238	NaN	0.000000	0.001555	0.001837	28.0837	0.079495	0.002090	38.0422	20.6722	-166.695	0.022162	0.905491	-0.177416	-0.178688	-0.019238	38.0422	-0.177037	-54.313	0.000354	NaN
482	1.000000	0.914747	7.36977e+06	-52989.1	1005.82	-29747.8	0.000000	0.000000	6.915096	0.000817	NaN	0.000000	0.001533	0.001809	28.0824	0.125421	0.002009	62.4338	-168.243	-167.451	-0.023626	0.913428	-0.169432	-0.170751	0.000817	62.4338	-0.169441	-40.1706	-2.032877E-5	NaN
482	1.000000	0.922773	7.36977e+06	-52989.1	1005.82	-29747.8	0.000000	0.000000	6.923118	-0.076090	NaN	0.000000	0.001582	0.001807	28.0825	0.022202	0.001984	11.1927	16.5485	-169.509	-0.095824	0.921478	-0.161406	-0.162701	-0.076090	11.1927	-0.156307	-23.5542	0.003230	NaN
482	1.000000	0.930768	7.36977e+06	-52989.1	1005.82	-29747.8	0.000000	0.000000	6.931113	-0.077470	NaN	0.000000	0.001559	0.001791	28.0824	0.119654	0.002095	57.1095	-158.06	-165.822	-0.079980	0.929426	-0.153411	-0.154753	-0.077470	57.1095	-0.152394	-20.0224	0.003869	NaN
482	1.000000	0.938769	7.36977e+06	-52989.1	1005.82	-29747.8	0.000000	0.000000	6.939119	0.045565	NaN	0.000000	0.001569	0.001797	28.0824	0.133788	0.001980	67.5583	-60.9461	-164.839	-0.003851	0.937432	-0.145410	-0.146747	0.045565	67.5583	-0.145916	-15.2434	-0.002989	NaN
482	1.000000	0.946765	7.36977e+06	-52989.1	1005.82	-29747.8	0.000000	0.000000	6.947115	0.047168	NaN	0.000000	0.001545	0.001787	28.0827	0.043446	0.002117	20.524	-39.0689	-165.309	0.029029	0.945469	-0.137414	-0.138710	0.047168	20.524	-0.139137	-11.3958	-0.004139	NaN
482	1.000000	0.954776	7.36977e+06	-52989.1	1005.82	-29747.8	0.000000	0.000000	6.955124	-0.002112	NaN	0.000000	0.001539	0.001785	28.0826	0.068818	0.002010	34.2329	-5.888980	-164.714	0.049271	0.953439	-0.129404	-0.130740	-0.002112	34.2329	-0.129357	-7.404771	0.000285	NaN
482	1.000000	0.962794	7.36977e+06	-52989.1	1005.82	-29747.8	0.000000	0.000000	6.963142	0.005585	NaN	0.000000	0.001539	0.001799	28.083	0.038783	0.001990	19.488	109.097	-168.997	-0.011214	0.961406	-0.121385	-0.122773	0.005585	19.488	-0.121600	-5.203285	-0.001073	NaN
482	1.000000	0.970780	7.36977e+06	-52989.1	1005.82	-29747.8	0.000000	0.000000	6.971127	-0.020701	NaN	0.000000	0.001522	0.001792	28.0827	0.132126	0.002060	64.1289	-79.0263	-164.69	-0.044813	0.969471	-0.113399	-0.114708	-0.020701	64.1289	-0.113157	-3.499156	0.005916	NaN
482	1.000000	0.978771	7.36977e+06	-52989.1	1005.82	-29747.8	0.000000	0.000000	6.979119	-0.011330	NaN	0.000000	0.001600	0.001803	28.0827	0.096110	0.002037	47.1872	4.353421	-165.539	0.041631	0.977461	-0.105408	-0.106718	-0.011330	47.1872	-0.105228	-2.377363	0.004766	NaN
482	1.000000	0.986778	7.36977e+06	-52989.1	1005.82	-29747.8	0.000000	0.000000	6.987124	-0.036022	NaN	0.000000	0.001614	0.001777	28.0825	0.198155	0.001977	100.224	81.3076	-164.033	-0.036270	0.985453	-0.097401	-0.098726	-0.036022	100.224	-0.097132	-1.576512	0.022849	NaN
482	1.000000	0.994792	7.36977e+06	-52989.1	1005.82	-29747.8	0.000000	0.000000	6.995141	0.035012	NaN	0.000000	0.001534	0.001766	28.0825	0.070791	0.002091	33.8526	-179.846	-164.65	0.011749	0.993454	-0.089388	-0.090725	0.035012	33.8526	-0.090163	-1.090548	-0.032105	NaN
482	1.000000	1.002784	7.36977e+06	-52989.1	1005.82	-29747.8	0.000000	0.000000	7.003133	0.019188	NaN	0.000000	0.001549	0.001739	28.0828	0.084696	0.002099	40.3457	30.2144	-166.17	-0.007925	1.001510	-0.081395	-0.082669	0.019188	40.3457	-0.081752	-0.684298	-0.028041	NaN
482	1.000000	1.010787	7.36977e+06	-52989.1	1005.82	-29747.8	0.000000	0.000000	7.011132	-0.068729	NaN	0.000000	0.001534	0.001774	28.0824	0.161179	0.001929	83.5584	-135.95	-164.821	-0.019802	1.009523	-0.073392	-0.074656	-0.068729	83.5584	-0.072776	-0.404134	0.170066	NaN
482	1.000000	1.018780	7.36977e+06	-52989.1	1005.82	-29747.8	0.000000	0.000000	7.019128	-0.013102	NaN	0.000000	0.001557	0.001758	28.0835	0.031554	0.001903	16.5835	-7.643757	-164.606	-0.019729	1.017484	-0.065399	-0.066695	-0.013102	16.5835	-0.064806	-0.246147	0.053229	NaN
482	1.000000	1.026820	7.36977e+06	-52989.1	1005.82	-29747.8	0.000000	0.000000	7.027168	0.010258	NaN	0.000000	0.001562	0.001761	28.0828	0.081876	0.002078	39.4023	-159.472	-161.119	-0.008134	1.025538	-0.057359	-0.058641	0.010258	39.4023	-0.057555	-0.153041	-0.067030	NaN
482	1.000000	1.034816	7.36977e+06	-52989.1	1005.82	-29747.8	0.000000	0.000000	7.035161	-0.084388	NaN	0.000000	0.001556	0.001800	28.0824	0.032162	0.001935	16.6193	79.9958	-168.746	-0.068808	1.033505	-0.049363	-0.050675	-0.084388	16.6193	-0.045555	-0.066827	1.262779	NaN
482	1.000000	1.042798	7.36977e+06	-52989.1	1005.82	-29747.8	0.000000	0.000000	7.043143	-0.077705	NaN	0.000000	0.001549	0.001773	28.0825	0.017140	0.002002	8.559938	-164.05	-163.93	-0.102506	1.041503	-0.041381	-0.042677	-0.077705	8.559938	-0.034573	-0.031112	2.497539	NaN
482	1.000000	1.050826	7.36977e+06	-52989.1	1005.82	-29747.8	0.000000	0.000000	7.051175	0.025904	NaN	0.000000	0.001548	0.001779	28.0833	0.058145	0.001988	29.244	19.696	-165.47	-0.045850	1.049520	-0.033353	-0.034659	0.025904	29.244	-0.034017	-0.029969	-0.864354	NaN
482	1.000000	1.058826	7.36977e+06	-52989.1	1005.82	-29747.8	0.000000	0.000000	7.059171	-0.066531	NaN	0.000000	0.001549	0.001822	28.0835	0.081152	0.001965	41.3066	-170.687	-166.022	-0.000141	1.057467	-0.025354	-0.026713	-0.066531	41.3066	-0.024146	-0.016029	4.150639	NaN
482	1.000000	1.066838	7.36977e+06	-52989.1	1005.82	-29747.8	0.000000	0.000000	7.067184	-0.069565	NaN	0.000000	0.001536	0.001771	28.0837	0.054975	0.002075	26.4923	-84.0859	-162.81	-0.066936	1.065569	-0.017341	-0.018611	-0.069565	26.4923	-0.015371	-0.009499	7.323294	NaN
482	1.000000	1.074837	7.36977e+06	-52989.1	1005.82	-29747.8	0.000000	0.000000	7.075180	-0.104330	NaN	0.000000	0.001546	0.001807	28.0838	0.125199	0.002015	62.1223	-101.076	-163.194	-0.069506	1.073490	-0.009343	-0.010689	-0.104330	62.1223	-0.008083	-0.005280	19.7585	NaN
482	1.000000	1.082760	7.36977e+06	-52989.1	1005.82	-29747.8	0.000000	0.000000	7.083201	2.249598	NaN	0.000000	0.001595	0.001779	28.0836	3.069993	0.001877	1635.53	11.8244	-171.284	0.864912	1.081511	-0.001419	-0.002668	2.249598	1635.53	-0.002451	-0.001749	-1286.01	NaN
482	2.000000	1.089389	7.36977e+06	-52989.1	1005.82	-29747.8	0.000000	0.000000	7.090070	8.080109	NaN	0.000000	0.001609	0.001795	28.0837	9.029048	0.001584	5701.57	8.197246	-172.145	8.091537	1.088993	0.005210	0.004814	8.080109	5701.57	0.004147	0.003368	2398.87	89755.6
482	2.000000	1.091353	7.36977e+06	-52989.1	1005.82	-29747.8	0.000000	0.000000	7.092161	11.1731	NaN	0.000000	0.001609	0.001815	28.0839	11.5486	0.001617	7143.31	4.219095	-170.214	10.649	1.091038	0.007174	0.006859	11.1731	7143.31	0.006001	0.005065	2205.83	91700.6
482	2.000000	1.093361	7.36977e+06	-52989.1	1005.82	-29747.8	0.000000	0.000000	7.094318	14.794	NaN	0.000000	0.001536	0.001781	28.0838	14.4899	0.001796	8068.93	8.962819	-174.118	14.5732	1.093029	0.009182	0.008849	14.794	8068.93	0.007807	0.006845	2161.39	89107.4
482	2.000000	1.095350	7.36977e+06	-52989.1	1005.82	-29747.8	0.000000	0.000000	7.096534	20.3238	NaN	0.000000	0.001553	0.001757	28.0838	16.8526	0.001718	9811.11	10.634	-179.139	19.9654	1.094921	0.011171	0.010742	20.3238	9811.11	0.009617	0.008759	2320.26	95776
482	2.000000	1.097306	7.36977e+06	-52989.1	1005.82	-29747.8	0.000000	0.000000	7.098657	24.3842	NaN	0.000000	0.001563	0.001811	28.0837	19.4639	0.001766	11019.8	4.234299	-174.028	23.2677	1.097003	0.013127	0.012824	24.3842	11019.8	0.011467	0.010858	2245.77	96622.1
482	2.000000	1.099320	7.36977e+06	-52989.1	1005.82	-29747.8	0.000000	0.000000	7.100789	27.2409	NaN	0.000000	0.001571	0.001772	28.0838	20.9919	0.001820	11532.7	7.732334	-176.85	26.7532	1.099002	0.015141	0.014823	27.2409	11532.7	0.013370	0.013172	2068.05	91806.7
482	2.000000	1.101289	7.36977e+06	-52989.1	1005.82	-29747.8	0.000000	0.000000	7.102973	32.4834	NaN	0.000000	0.001567	0.001771	28.0841	23.4454	0.001715	13671.1	6.767680	-179.225	31.629	1.100975	0.017110	0.016796	32.4834	13671.1	0.015327	0.015725	2065.78	99606.5
482	2.000000	1.103310	7.36977e+06	-52989.1	1005.82	-29747.8	0.000000	0.000000	7.105249	38.6566	NaN	0.000000	0.001590	0.001805	28.0839	26.052	0.001794	14522.4	6.836034	-178.242	39.064	1.103010	0.019131	0.018831	38.6566	14522.4	0.017135	0.018239	2119.5	98246
482	2.000000	1.105325	7.36977e+06	-52989.1	1005.82	-29747.8	0.000000	0.000000	7.107473	43.751	NaN	0.000000	0.001549	0.001733	28.084	27.8342	0.001796	15500	5.972269	-177.944	44.5087	1.104973	0.021146	0.020794	43.751	15500	0.019029	0.021040	2079.46	97630.4
482	2.000000	1.107245	7.36977e+06	-52989.1	1005.82	-29747.8	0.000000	0.000000	7.109692	51.0319	NaN	0.000000	0.001573	0.001711	28.0839	30.6931	0.001844	16647.3	5.703504	-178.454	49.9439	1.107010	0.023066	0.022831	51.0319	16647.3	0.020767	0.023762	2147.66	98668.6
482	2.000000	1.109284	7.36977e+06	-52989.1	1005.82	-29747.8	0.000000	0.000000	7.112008	57.7689	NaN	0.000000	0.001603	0.001758	28.084	31.1492	0.001771	17591.2	5.274537	-178.778	57.2996	1.108892	0.025105	0.024713	57.7689	17591.2	0.022642	0.026865	2150.35	98056.5
482	2.000000	1.111281	7.36977e+06	-52989.1	1005.82	-29747.8	0.000000	0.000000	7.114185	62.1403	NaN	0.000000	0.001560	0.001745	28.0839	34.2543	0.001893	18095.5	6.237775	179.987	62.0338	1.110934	0.027102	0.026755	62.1403	18095.5	0.024526	0.030159	2060.43	95199.5
482	2.000000	1.113260	7.36977e+06	-52989.1	1005.82	-29747.8	0.000000	0.000000	7.116397	67.8288	NaN	0.000000	0.001571	0.001748	28.0829	35.955	0.001827	19682.1	6.723350	179.132	67.8117	1.112957	0.029080	0.028778	67.8288	19682.1	0.026496	0.033793	2007.18	97820.6
482	2.000000	1.115239	7.36977e+06	-52989.1	1005.82	-29747.8	0.000000	0.000000	7.118762	77.1922	NaN	0.000000	0.001579	0.001736	28.0826	37.8618	0.001830	20690.7	5.313619	179.461	75.4212	1.114977	0.031060	0.030798	77.1922	20690.7	0.028262	0.037218	2074.07	97988.2
482	2.000000	1.117226	7.36977e+06	-52989.1	1005.82	-29747.8	0.000000	0.000000	7.121168	87.3835	NaN	0.000000	0.001590	0.001766	28.0823	39.9658	0.001757	22747.4	6.997846	176.419	84.6965	1.116911	0.033047	0.032732	87.3835	22747.4	0.030166	0.041089	2126.71	102529
482	2.000000	1.119219	7.36977e+06	-52989.1	1005.82	-29747.8	0.000000	0.000000	7.123511	95.8944	NaN	0.000000	0.001574	0.001718	28.0832	41.2905	0.001789	23085.7	7.086993	176.578	94.2046	1.118931	0.035039	0.034752	95.8944	23085.7	0.031924	0.044826	2139.25	99621
482	2.000000	1.121239	7.36977e+06	-52989.1	1005.82	-29747.8	0.000000	0.000000	7.125791	102.211	NaN	0.000000	0.001581	0.001748	28.0824	42.8403	0.001641	26109.6	3.278642	178.917	100.965	1.120890	0.037060	0.036711	102.211	26109.6	0.034124	0.049725	2055.52	106976
482	2.000000	1.123253	7.36977e+06	-52989.1	1005.82	-29747.8	0.000000	0.000000	7.128029	107.662	NaN	0.000000	0.001580	0.001765	28.0825	45.7829	0.001767	25913.2	6.587199	176.423	107.32	1.123009	0.039074	0.038830	107.662	25913.2	0.035958	0.053999	1993.76	101882
482	2.000000	1.125234	7.36977e+06	-52989.1	1005.82	-29747.8	0.000000	0.000000	7.130402	117.187	NaN	0.000000	0.001596	0.001771	28.0829	47.2316	0.001795	26319.1	4.649653	178.01	115.821	1.124871	0.041055	0.040691	117.187	26319.1	0.037715	0.058257	2011.55	99625.2
482	2.000000	1.127252	7.36977e+06	-52989.1	1005.82	-29747.8	0.000000	0.000000	7.132719	124.449	NaN	0.000000	0.001592	0.001798	28.0826	50.4623	0.001843	27386.1	1.328937	-179.427	123.28	1.126942	0.043073	0.042763	124.449	27386.1	0.039665	0.063164	1970.24	99555.7
482	2.000000	1.129181	7.36977e+06	-52989.1	1005.82	-29747.8	0.000000	0.000000	7.135197	137.81	NaN	0.000000	0.001577	0.001786	28.0833	50.7663	0.001636	31023.5	1.650905	179.039	133.996	1.128826	0.045002	0.044647	137.81	31023.5	0.041670	0.068417	2014.27	108364
482	2.000000	1.131220	7.36977e+06	-52989.1	1005.82	-29747.8	0.000000	0.000000	7.137482	143.793	NaN	0.000000	0.001570	0.001807	28.0826	54.9247	0.001797	30571.1	6.192067	174.56	141.953	1.130889	0.047040	0.046710	143.793	30571.1	0.043513	0.073421	1958.46	103080
482	2.000000	1.133283	7.36977e+06	-52989.1	1005.82	-29747.8	0.000000	0.000000	7.140202	159.771	NaN	0.000000	0.001605	0.001769	28.0824	56.0977	0.001867	30054	2.391322	-179.874	160.448	1.132884	0.049104	0.048705	159.771	30054	0.045116	0.077918	2050.5	98368.5
482	2.000000	1.135199	7.36977e+06	-52989.1	1005.82	-29747.8	0.000000	0.000000	7.142288	163.902	NaN	0.000000	0.001619	0.001765	28.083	58.0903	0.001814	32024	4.429774	176.239	163.384	1.134934	0.051020	0.050755	163.902	32024	0.047181	0.083900	1953.55	101011
482	2.000000	1.137169	7.36977e+06	-52989.1	1005.82	-29747.8	0.000000	0.000000	7.145023	182.51	NaN	0.000000	0.001611	0.001762	28.0825	59.8683	0.001761	34004.9	6.626289	173.935	179.096	1.136877	0.052990	0.052698	182.51	34004.9	0.048964	0.089239	2045.19	104001
482	2.000000	1.139271	7.36977e+06	-52989.1	1005.82	-29747.8	0.000000	0.000000	7.147473	190.949	NaN	0.000000	0.001625	0.001769	28.0826	60.6108	0.001808	33518.9	4.183589	177.043	193.728	1.138891	0.055092	0.054711	190.949	33518.9	0.050820	0.094963	2010.76	99376.8
482	2.000000	1.141193	7.36977e+06	-52989.1	1005.82	-29747.8	0.000000	0.000000	7.149888	202.955	NaN	0.000000	0.001646	0.001799	28.0825	62.1707	0.001917	32428.4	0.002207	-178.478	199.671	1.140818	0.057014	0.056638	202.955	32428.4	0.052320	0.099718	2035.29	93823.7
482	2.000000	1.143254	7.36977e+06	-52989.1	1005.82	-29747.8	0.000000	0.000000	7.152382	213.473	NaN	0.000000	0.001633	0.001768	28.0824	64.5824	0.001641	39358.1	4.664049	174.583	215.287	1.142905	0.059075	0.058726	213.473	39358.1	0.055007	0.108515	1967.22	109160
482	2.000000	1.145222	7.36977e+06	-52989.1	1005.82	-29747.8	0.000000	0.000000	7.154942	227.873	NaN	0.000000	0.001604	0.001752	28.083	66.2227	0.001651	40120.5	7.488541	172.481	227.391	1.144779	0.061043	0.060600	227.873	40120.5	0.056783	0.114526	1989.7	108315
482	2.000000	1.147167	7.36977e+06	-52989.1	1005.82	-29747.8	0.000000	0.000000	7.157353	239.199	NaN	0.000000	0.001635	0.001810	28.0831	68.9867	0.001784	38659.5	5.677347	173.504	236.811	1.146906	0.062988	0.062727	239.199	38659.5	0.058348	0.119950	1994.16	101984
482	2.000000	1.149155	7.36977e+06	-52989.1	1005.82	-29747.8	0.000000	0.000000	7.160038	256.159	NaN	0.000000	0.001660	0.001817	28.0839	69.6243	0.001707	40778.8	7.328042	171.965	253.15	1.148785	0.064975	0.064606	256.159	40778.8	0.060264	0.126757	2020.87	104646
482	2.000000	1.151236	7.36977e+06	-52989.1	1005.82	-29747.8	0.000000	0.000000	7.162410	263.196	NaN	0.000000	0.001667	0.001776	28.0835	72.0303	0.001681	42854.4	0.604246	177.756	263.272	1.151006	0.067057	0.066827	263.196	42854.4	0.062451	0.134743	1953.31	106663
482	2.000000	1.153222	7.36977e+06	-52989.1	1005.82	-29747.8	0.000000	0.000000	7.165180	282.274	NaN	0.000000	0.001628	0.001781	28.0836	74.231	0.001709	43430.6	5.513892	173.83	281.264	1.152908	0.069043	0.068729	282.274	43430.6	0.064169	0.141179	1999.4	105605
482	2.000000	1.155145	7.36977e+06	-52989.1	1005.82	-29747.8	0.000000	0.000000	7.167677	296.249	NaN	0.000000	0.001649	0.001791	28.084	76.1457	0.001718	44314.9	6.007343	171.973	292.266	1.154849	0.070966	0.070670	296.249	44314.9	0.065952	0.148011	2001.53	105239
482	2.000000	1.157229	7.36977e+06	-52989.1	1005.82	-29747.8	0.000000	0.000000	7.170434	312.606	NaN	0.000000	0.001662	0.001779	28.0836	79.4804	0.001802	44110.7	7.880921	171.17	313.618	1.156848	0.073050	0.072668	312.606	44110.7	0.067734	0.154994	2016.89	102367
482	2.000000	1.159212	7.36977e+06	-52989.1	1005.82	-29747.8	0.000000	0.000000	7.172985	326.397	NaN	0.000000	0.001644	0.001737	28.0839	79.9954	0.001857	43077.6	3.599585	175.044	326.118	1.158833	0.075033	0.074654	326.397	43077.6	0.069350	0.161454	2021.61	97948.8
482	2.000000	1.161190	7.36977e+06	-52989.1	1005.82	-29747.8	0.000000	0.000000	7.175586	341.538	NaN	0.000000	0.001651	0.001774	28.0835	83.4836	0.001702	49037.7	10.9942	166.765	341.194	1.160727	0.077011	0.076548	341.538	49037.7	0.071788	0.171436	1992.22	108206
482	2.000000	1.163243	7.36977e+06	-52989.1	1005.82	-29747.8	0.000000	0.000000	7.178212	355.49	NaN	0.000000	0.001591	0.001773	28.0835	85.7314	0.001818	47156.4	4.848863	173.73	355.438	1.162901	0.079064	0.078722	355.49	47156.4	0.073410	0.178236	1994.49	102051
482	2.000000	1.165219	7.36977e+06	-52989.1	1005.82	-29747.8	0.000000	0.000000	7.180876	372.211	NaN	0.000000	0.001564	0.001765	28.0837	86.6193	0.001816	47708	1.711928	176.571	372.021	1.164804	0.081040	0.080625	372.211	47708	0.075189	0.185833	2002.93	101112
482	2.000000	1.167266	7.36977e+06	-52989.1	1005.82	-29747.8	0.000000	0.000000	7.182257	356.016	NaN	0.000000	0.001599	0.001795	28.0834	89.0712	0.001880	47371	1.349675	176.083	357.143	1.167225	0.083087	0.083046	356.016	47371	0.077450	0.195709	1819.11	97831.9
482	2.000000	1.169148	7.36977e+06	-52989.1	1005.82	-29747.8	0.000000	0.000000	7.185986	400.926	NaN	0.000000	0.001579	0.001800	28.0836	90.2034	0.001795	50241.7	6.140415	172.028	400.827	1.168733	0.084969	0.084554	400.926	50241.7	0.078984	0.202541	1979.48	101995
482	2.000000	1.171187	7.36977e+06	-52989.1	1005.82	-29747.8	0.000000	0.000000	7.188628	415.597	NaN	0.000000	0.001579	0.001796	28.0834	92.5426	0.001861	49729.9	2.742760	175.213	413.719	1.170766	0.087008	0.086587	415.597	49729.9	0.080740	0.210500	1974.33	99029.7
482	2.000000	1.173137	7.36977e+06	-52989.1	1005.82	-29747.8	0.000000	0.000000	7.191462	437.081	NaN	0.000000	0.001572	0.001783	28.084	94.4567	0.001678	56281.6	7.526153	169.927	432.602	1.172769	0.088958	0.088590	437.081	56281.6	0.083133	0.221577	1972.59	109239
482	2.000000	1.175114	7.36977e+06	-52989.1	1005.82	-29747.8	0.000000	0.000000	7.193801	445.871	NaN	0.000000	0.001629	0.001758	28.0836	95.3338	0.001824	52275.3	5.134750	171.885	442.561	1.174952	0.090935	0.090773	445.871	52275.3	0.084538	0.228204	1953.83	99978.9
482	2.000000	1.177002	7.36977e+06	-52989.1	1005.82	-29747.8	0.000000	0.000000	7.196167	457.503	NaN	0.000000	0.001610	0.001785	28.0835	97.1234	0.001646	59020.7	1.807427	174.681	448.807	1.176813	0.092822	0.092634	457.503	59020.7	0.087009	0.240077	1905.65	110053
482	2.000000	1.179231	7.36977e+06	-52989.1	1005.82	-29747.8	0.000000	0.000000	7.199317	479.892	NaN	0.000000	0.001585	0.001763	28.0836	99.2595	0.001833	54161.6	6.009553	171.08	482.715	1.178845	0.095052	0.094666	479.892	54161.6	0.088407	0.246921	1943.51	99583.2
482	2.000000	1.181132	7.36977e+06	-52989.1	1005.82	-29747.8	0.000000	0.000000	7.201939	497.414	NaN	0.000000	0.001589	0.001778	28.0832	102.357	0.001822	56178.9	6.421259	170.298	495.62	1.180875	0.096953	0.096696	497.414	56178.9	0.090313	0.256395	1940.03	101366
482	2.000000	1.183201	7.36977e+06	-52989.1	1005.82	-29747.8	0.000000	0.000000	7.204858	518.099	NaN	0.000000	0.001596	0.001750	28.0829	104.02	0.001842	56480	3.225606	173.727	515.198	1.182924	0.099022	0.098744	518.099	56480	0.092142	0.265645	1950.34	100119
482	2.000000	1.185121	7.36977e+06	-52989.1	1005.82	-29747.8	0.000000	0.000000	7.207346	531.909	NaN	0.000000	0.001573	0.001756	28.0821	105.455	0.001697	62159.4	4.145345	171.972	528.982	1.184897	0.100942	0.100718	531.909	62159.4	0.094524	0.277919	1913.9	107726
482	2.000000	1.186989	7.36977e+06	-52989.1	1005.82	-29747.8	0.000000	0.000000	7.209861	547.611	NaN	0.000000	0.001596	0.001783	28.0821	107.823	0.001722	62615.9	4.118978	171.824	536.12	1.186824	0.102810	0.102644	547.611	62615.9	0.096251	0.286982	1908.18	106790