File: remote_trans/data/nanoindenter/0828-1/data/Data_2025-08-06,11h17m57s/2025-07-22_16-23-58_1_387.txt
2025-07-22, 16:23:58, 1
Index	Phase	Displacement	Time	Pos X	Pos Y	Pos Z	Rot A	Rot B	Piezo Z	Force A	Force B	Gripper	Voltage A	Voltage B	Temperature	Amplitude force	Amplitude pos	Stiffness	Phase shift	Phase excitation	Force A raw	Displacement raw	HMax	HMax raw	Real Force	Real Stiffness	Contact Depth	Area	Hardness	Reduced Mod.
[#]	[#]	[um]	[s]	[um]	[um]	[um]	[m°]	[m°]	[um]	[uN]	[uN]	[V]	[V]	[V]	[°C]	[uN]	[um]	[N/m]	[°]	[°]	[uN]	[um]	[um]	[um]	[uN]	[N/m]	[um]	[um^2]	[MPa]	[MPa]
387	1.000000	0.002742	7.36885e+06	-57739.1	1005.82	-29736.6	0.000000	0.000000	6.002781	0.058882	NaN	0.000000	0.001607	0.001669	28.0811	0.050104	0.001021	49.0509	-90.6628	-167.159	0.023991	0.001495	-1.125162	-1.126410	0.058882	49.0509	-1.126062	-1.121505E+15	-5.250270E-17	NaN
387	1.000000	0.012828	7.36885e+06	-57739.1	1005.82	-29736.6	0.000000	0.000000	6.012865	0.016277	NaN	0.000000	0.001621	0.001649	28.0807	0.051785	0.001232	42.048	94.1307	19.078	0.012244	0.011383	-1.115076	-1.116522	0.016277	42.048	-1.115367	-8.059410E+14	-2.019625E-17	NaN
387	1.000000	0.022723	7.36885e+06	-57739.1	1005.82	-29736.6	0.000000	0.000000	6.022756	-0.074167	NaN	0.000000	0.001658	0.001690	28.0807	0.033489	0.001726	19.3982	-142.613	-162.617	-0.101237	0.021446	-1.105181	-1.106459	-0.074167	19.3982	-1.102314	-5.384291E+14	1.377470E-16	NaN
387	1.000000	0.032714	7.36885e+06	-57739.1	1005.82	-29736.6	0.000000	0.000000	6.032748	-0.048895	NaN	0.000000	0.001631	0.001697	28.0796	0.097205	0.001918	50.6777	104.499	12.9788	0.012833	0.031360	-1.095190	-1.096544	-0.048895	50.6777	-1.094466	-4.224545E+14	1.157409E-16	NaN
387	1.000000	0.042703	7.36885e+06	-57739.1	1005.82	-29736.6	0.000000	0.000000	6.042740	0.017729	NaN	0.000000	0.001628	0.001691	28.08	0.060250	0.001881	32.0249	50.966	-166.08	0.094580	0.041417	-1.085201	-1.086487	0.017729	32.0249	-1.085617	-3.213291E+14	-5.517428E-17	NaN
387	1.000000	0.052723	7.36885e+06	-57739.1	1005.82	-29736.6	0.000000	0.000000	6.052759	0.001054	NaN	0.000000	0.001657	0.001663	28.0795	0.082247	0.001848	44.5098	-114.905	14.9409	-0.032040	0.051302	-1.075181	-1.076602	0.001054	44.5098	-1.075199	-2.328253E+14	-4.529007E-18	NaN
387	1.000000	0.062690	7.36885e+06	-57739.1	1005.82	-29736.6	0.000000	0.000000	6.062727	0.032883	NaN	0.000000	0.001663	0.001691	28.0796	0.055909	0.001996	28.0134	11.6162	-166.712	0.028735	0.061488	-1.065214	-1.066417	0.032883	28.0134	-1.066094	-1.756771E+14	-1.871785E-16	NaN
387	1.000000	0.072732	7.36885e+06	-57739.1	1005.82	-29736.6	0.000000	0.000000	6.072769	0.020328	NaN	0.000000	0.001626	0.001663	28.0796	0.093132	0.002048	45.4806	72.174	10.82	-0.047286	0.071341	-1.055172	-1.056564	0.020328	45.4806	-1.055507	-1.266013E+14	-1.605655E-16	NaN
387	1.000000	0.082714	7.36885e+06	-57739.1	1005.82	-29736.6	0.000000	0.000000	6.082752	0.045086	NaN	0.000000	0.001657	0.001677	28.0796	0.020855	0.002041	10.2164	52.3896	-170.817	-0.039383	0.081451	-1.045190	-1.046454	0.045086	10.2164	-1.048500	-1.019172E+14	-4.423825E-16	NaN
387	1.000000	0.092745	7.36885e+06	-57739.1	1005.82	-29736.6	0.000000	0.000000	6.092782	0.035390	NaN	0.000000	0.001658	0.001698	28.0795	0.077328	0.002158	35.8335	169.446	10.4195	0.038392	0.091345	-1.035159	-1.036559	0.035390	35.8335	-1.035900	-6.899742E+13	-5.129244E-16	NaN
387	1.000000	0.102746	7.36885e+06	-57739.1	1005.82	-29736.6	0.000000	0.000000	6.102783	0.022852	NaN	0.000000	0.001677	0.001716	28.0796	0.082475	0.002008	41.0819	178.645	-167.847	-0.040921	0.101378	-1.025159	-1.026526	0.022852	41.0819	-1.025576	-5.011482E+13	-4.559840E-16	NaN
387	1.000000	0.112735	7.36885e+06	-57739.1	1005.82	-29736.6	0.000000	0.000000	6.112772	0.024790	NaN	0.000000	0.001630	0.001720	28.0796	0.072614	0.001835	39.5622	123.113	13.1096	0.093497	0.111342	-1.015169	-1.016562	0.024790	39.5622	-1.015639	-3.683613E+13	-6.729804E-16	NaN
387	1.000000	0.122771	7.36885e+06	-57739.1	1005.82	-29736.6	0.000000	0.000000	6.122806	-0.026643	NaN	0.000000	0.001664	0.001713	28.0805	0.115255	0.002156	53.4553	19.5061	-168.414	-0.046873	0.121506	-1.005133	-1.006398	-0.026643	53.4553	-1.004759	-2.629296E+13	1.013309E-15	NaN
387	1.000000	0.132734	7.36885e+06	-57739.1	1005.82	-29736.6	0.000000	0.000000	6.132773	0.071835	NaN	0.000000	0.001637	0.001723	28.0795	0.080444	0.002017	39.8905	110.188	13.5834	0.042897	0.131401	-0.995170	-0.996503	0.071835	39.8905	-0.996521	-2.036699E+13	-3.527016E-15	NaN
387	1.000000	0.142759	7.36885e+06	-57739.1	1005.82	-29736.6	0.000000	0.000000	6.142795	-0.003723	NaN	0.000000	0.001653	0.001683	28.0799	0.117075	0.002015	58.1058	26.6332	-163.33	-0.021557	0.141436	-0.985145	-0.986468	-0.003723	58.1058	-0.985097	-1.429132E+13	2.605096E-16	NaN
387	1.000000	0.152745	7.36885e+06	-57739.1	1005.82	-29736.6	0.000000	0.000000	6.152783	0.050922	NaN	0.000000	0.001659	0.001729	28.0798	0.038522	0.001869	20.6135	-15.4125	17.5025	0.109283	0.151382	-0.975159	-0.976522	0.050922	20.6135	-0.977012	-1.112125E+13	-4.578799E-15	NaN
387	1.000000	0.162787	7.36885e+06	-57739.1	1005.82	-29736.6	0.000000	0.000000	6.162823	0.004123	NaN	0.000000	0.001679	0.001750	28.08	0.105363	0.001946	54.1466	-2.356152	-168.141	0.063901	0.161471	-0.965117	-0.966433	0.004123	54.1466	-0.965174	-7.702290E+12	-5.353517E-16	NaN
387	1.000000	0.172777	7.36885e+06	-57739.1	1005.82	-29736.6	0.000000	0.000000	6.172812	-0.025261	NaN	0.000000	0.001679	0.001724	28.081	0.105663	0.002080	50.7964	134.81	10.8669	-0.028822	0.171362	-0.955127	-0.956542	-0.025261	50.7964	-0.954754	-5.573619E+12	4.532226E-15	NaN
387	1.000000	0.182778	7.36885e+06	-57739.1	1005.82	-29736.6	0.000000	0.000000	6.182812	-0.038976	NaN	0.000000	0.001677	0.001709	28.0809	0.058539	0.001979	29.578	-64.6596	-165.595	-0.011965	0.181506	-0.945126	-0.946398	-0.038976	29.578	-0.944138	-4.008327E+12	9.723831E-15	NaN
387	1.000000	0.192797	7.36885e+06	-57739.1	1005.82	-29736.6	0.000000	0.000000	6.192835	0.042030	NaN	0.000000	0.001626	0.001715	28.0811	0.081293	0.001972	41.2287	-68.4881	11.8131	0.067081	0.191378	-0.935107	-0.936526	0.042030	41.2287	-0.935871	-3.100506E+12	-1.355589E-14	NaN
387	1.000000	0.202781	7.36885e+06	-57739.1	1005.82	-29736.6	0.000000	0.000000	6.202817	0.010566	NaN	0.000000	0.001694	0.001659	28.081	0.069542	0.001944	35.7676	-65.2073	-168.488	-0.023498	0.201473	-0.925123	-0.926431	0.010566	35.7676	-0.925345	-2.235452E+12	-4.726360E-15	NaN
387	1.000000	0.212755	7.36885e+06	-57739.1	1005.82	-29736.6	0.000000	0.000000	6.212789	-0.028756	NaN	0.000000	0.001656	0.001696	28.0811	0.110573	0.002037	54.2761	-161.019	13.8389	-0.027740	0.211398	-0.915150	-0.916506	-0.028756	54.2761	-0.914752	-1.608221E+12	1.788036E-14	NaN
387	1.000000	0.222758	7.36885e+06	-57739.1	1005.82	-29736.6	0.000000	0.000000	6.222796	0.063645	NaN	0.000000	0.001642	0.001732	28.081	0.045287	0.001998	22.6636	-151.98	-164.248	-0.000661	0.221481	-0.905146	-0.906423	0.063645	22.6636	-0.907253	-1.273657E+12	-4.997043E-14	NaN
387	1.000000	0.232793	7.36885e+06	-57739.1	1005.82	-29736.6	0.000000	0.000000	6.232830	0.013876	NaN	0.000000	0.001638	0.001691	28.0808	0.052157	0.001947	26.7884	162.895	14.8196	-0.044729	0.231457	-0.895111	-0.896447	0.013876	26.7884	-0.895499	-8.835827E+11	-1.570408E-14	NaN
387	1.000000	0.242784	7.36885e+06	-57739.1	1005.82	-29736.6	0.000000	0.000000	6.242819	-0.018125	NaN	0.000000	0.001667	0.001712	28.0809	0.123004	0.002096	58.6734	93.1436	-165.122	-0.076236	0.241424	-0.885121	-0.886481	-0.018125	58.6734	-0.884889	-6.350648E+11	2.854090E-14	NaN
387	1.000000	0.252793	7.36885e+06	-57739.1	1005.82	-29736.6	0.000000	0.000000	6.252831	0.040158	NaN	0.000000	0.001661	0.001685	28.0811	0.049876	0.001946	25.6241	-133.981	15.7399	-0.007829	0.251457	-0.875111	-0.876447	0.040158	25.6241	-0.876287	-4.858325E+11	-8.265776E-14	NaN
387	1.000000	0.262789	7.36885e+06	-57739.1	1005.82	-29736.6	0.000000	0.000000	6.262824	-0.020235	NaN	0.000000	0.001674	0.001698	28.0809	0.135483	0.001965	68.9332	52.0376	-170.462	-0.000981	0.261445	-0.865116	-0.866459	-0.020235	68.9332	-0.864895	-3.407022E+11	5.939257E-14	NaN
387	1.000000	0.272808	7.36885e+06	-57739.1	1005.82	-29736.6	0.000000	0.000000	6.272847	0.069472	NaN	0.000000	0.001667	0.001703	28.0813	0.063351	0.002081	30.4379	-68.6734	11.564	0.069652	0.271421	-0.855096	-0.856484	0.069472	30.4379	-0.856808	-2.647956E+11	-2.623599E-13	NaN
387	1.000000	0.282814	7.36885e+06	-57739.1	1005.82	-29736.6	0.000000	0.000000	6.282849	-0.027611	NaN	0.000000	0.001694	0.001703	28.0809	0.058385	0.002048	28.5087	164.943	-163.828	-0.009373	0.281507	-0.845090	-0.846398	-0.027611	28.5087	-0.844364	-1.796405E+11	1.537016E-13	NaN
387	1.000000	0.292825	7.36885e+06	-57739.1	1005.82	-29736.6	0.000000	0.000000	6.292861	0.000137	NaN	0.000000	0.001634	0.001701	28.0812	0.081044	0.001948	41.6011	119.998	10.5143	0.005120	0.291414	-0.835079	-0.836490	0.000137	41.6011	-0.835082	-1.344792E+11	-1.021110E-15	NaN
387	1.000000	0.302825	7.36885e+06	-57739.1	1005.82	-29736.6	0.000000	0.000000	6.302857	-0.079984	NaN	0.000000	0.001688	0.001675	28.0809	0.112401	0.001973	56.9577	-136.954	-168.163	-0.052467	0.301494	-0.825080	-0.826410	-0.079984	56.9577	-0.824027	-9.523764E+10	8.398308E-13	NaN
387	1.000000	0.312821	7.36885e+06	-57739.1	1005.82	-29736.6	0.000000	0.000000	6.312857	-0.014290	NaN	0.000000	0.001621	0.001684	28.0799	0.064497	0.002092	30.8362	21.3591	13.4278	-0.065593	0.311419	-0.815083	-0.816485	-0.014290	30.8362	-0.814735	-7.125383E+10	2.005451E-13	NaN
387	1.000000	0.322820	7.36885e+06	-57739.1	1005.82	-29736.6	0.000000	0.000000	6.322856	-0.005782	NaN	0.000000	0.001617	0.001689	28.0796	0.096144	0.002129	45.1617	148.307	-164.574	-0.030734	0.321497	-0.805084	-0.806407	-0.005782	45.1617	-0.804988	-5.254842E+10	1.100307E-13	NaN
387	1.000000	0.332844	7.36885e+06	-57739.1	1005.82	-29736.6	0.000000	0.000000	6.332881	0.040723	NaN	0.000000	0.001582	0.001708	28.0798	0.098876	0.002104	46.9968	-114.932	12.7373	-0.010787	0.331478	-0.795060	-0.796427	0.040723	46.9968	-0.795710	-3.932108E+10	-1.035649E-12	NaN
387	1.000000	0.342836	7.36885e+06	-57739.1	1005.82	-29736.6	0.000000	0.000000	6.342872	-0.000292	NaN	0.000000	0.001567	0.001720	28.0795	0.119916	0.002035	58.9195	-157.128	-164.382	-0.084888	0.341531	-0.785069	-0.786373	-0.000292	58.9195	-0.785065	-2.818696E+10	1.037476E-14	NaN
387	1.000000	0.352865	7.36885e+06	-57739.1	1005.82	-29736.6	0.000000	0.000000	6.352899	-0.047808	NaN	0.000000	0.001608	0.001708	28.0797	0.092873	0.002035	45.6385	-39.2919	12.6958	-0.019175	0.351445	-0.775040	-0.776459	-0.047808	45.6385	-0.774254	-2.009726E+10	2.378825E-12	NaN
387	1.000000	0.362857	7.36885e+06	-57739.1	1005.82	-29736.6	0.000000	0.000000	6.362891	-0.038991	NaN	0.000000	0.001597	0.001675	28.0798	0.087788	0.001896	46.2935	47.396	-164.313	-0.080474	0.361555	-0.765048	-0.766349	-0.038991	46.2935	-0.764416	-1.476961E+10	2.639968E-12	NaN
387	1.000000	0.372877	7.36885e+06	-57739.1	1005.82	-29736.6	0.000000	0.000000	6.372912	-0.031669	NaN	0.000000	0.001578	0.001684	28.0797	0.036802	0.001919	19.1791	79.7954	10.2499	-0.042606	0.371501	-0.755027	-0.756403	-0.031669	19.1791	-0.753789	-1.058741E+10	2.991153E-12	NaN
387	1.000000	0.382836	7.36885e+06	-57739.1	1005.82	-29736.6	0.000000	0.000000	6.382871	-0.029933	NaN	0.000000	0.001576	0.001684	28.08	0.112160	0.001987	56.4603	-173.617	-167.156	-0.018766	0.381504	-0.745068	-0.746400	-0.029933	56.4603	-0.744670	-7.955354E+9	3.762609E-12	NaN
387	1.000000	0.392857	7.36885e+06	-57739.1	1005.82	-29736.6	0.000000	0.000000	6.392893	-0.006415	NaN	0.000000	0.001579	0.001680	28.0797	0.054944	0.002065	26.6063	43.8933	14.5343	-0.052370	0.391450	-0.735047	-0.736455	-0.006415	26.6063	-0.734866	-5.849569E+9	1.096738E-12	NaN
387	1.000000	0.402867	7.36885e+06	-57739.1	1005.82	-29736.6	0.000000	0.000000	6.402900	-0.073585	NaN	0.000000	0.001589	0.001668	28.0797	0.088059	0.002004	43.9372	14.3188	-165.603	-0.056481	0.401570	-0.725037	-0.726334	-0.073585	43.9372	-0.723781	-4.130781E+9	1.781391E-11	NaN
387	1.000000	0.412906	7.36885e+06	-57739.1	1005.82	-29736.6	0.000000	0.000000	6.412943	0.007840	NaN	0.000000	0.001571	0.001677	28.0798	0.022039	0.002078	10.6052	38.9724	13.5731	0.050405	0.411539	-0.714998	-0.716366	0.007840	10.6052	-0.715552	-3.190115E+9	-2.457490E-12	NaN
387	1.000000	0.422875	7.36885e+06	-57739.1	1005.82	-29736.6	0.000000	0.000000	6.422914	0.065824	NaN	0.000000	0.001601	0.001664	28.0798	0.042022	0.002109	19.927	-164.973	-165.523	0.107227	0.421554	-0.705029	-0.706350	0.065824	19.927	-0.707506	-2.477514E+9	-2.656856E-11	NaN
387	1.000000	0.432881	7.36885e+06	-57739.1	1005.82	-29736.6	0.000000	0.000000	6.432917	0.012980	NaN	0.000000	0.001564	0.001692	28.0798	0.093805	0.001887	49.7064	123.982	15.1382	-0.071269	0.431533	-0.695023	-0.696371	0.012980	49.7064	-0.695219	-1.683570E+9	-7.709913E-12	NaN
387	1.000000	0.442910	7.36885e+06	-57739.1	1005.82	-29736.6	0.000000	0.000000	6.442946	0.014423	NaN	0.000000	0.001574	0.001678	28.0808	0.087073	0.001918	45.4022	95.3554	-161.482	-0.007991	0.441582	-0.684994	-0.686322	0.014423	45.4022	-0.685233	-1.229575E+9	-1.172976E-11	NaN
387	1.000000	0.452894	7.36885e+06	-57739.1	1005.82	-29736.6	0.000000	0.000000	6.452928	-0.051983	NaN	0.000000	0.001552	0.001688	28.0812	0.037151	0.002058	18.0523	144.487	13.0592	-0.010460	0.451561	-0.675010	-0.676343	-0.051983	18.0523	-0.672850	-8.325199E+8	6.244104E-11	NaN
387	1.000000	0.462905	7.36885e+06	-57739.1	1005.82	-29736.6	0.000000	0.000000	6.462940	-0.036532	NaN	0.000000	0.001547	0.001682	28.081	0.114344	0.001985	57.5921	-105.882	-165.476	0.004614	0.461566	-0.664999	-0.666339	-0.036532	57.5921	-0.664523	-6.403458E+8	5.705035E-11	NaN
387	1.000000	0.472909	7.36885e+06	-57739.1	1005.82	-29736.6	0.000000	0.000000	6.472944	-0.027928	NaN	0.000000	0.001550	0.001711	28.0809	0.087596	0.001962	44.6393	-166.377	13.1274	0.053769	0.471572	-0.654995	-0.656332	-0.027928	44.6393	-0.654526	-4.671594E+8	5.978251E-11	NaN
387	1.000000	0.482871	7.36885e+06	-57739.1	1005.82	-29736.6	0.000000	0.000000	6.482907	-0.015570	NaN	0.000000	0.001593	0.001698	28.0808	0.106291	0.002013	52.8063	-110.981	-166.911	0.037056	0.481572	-0.645033	-0.646333	-0.015570	52.8063	-0.644812	-3.437916E+8	4.528913E-11	NaN
387	1.000000	0.492907	7.36885e+06	-57739.1	1005.82	-29736.6	0.000000	0.000000	6.492943	-0.000127	NaN	0.000000	0.001642	0.001660	28.0811	0.128511	0.002011	63.8995	62.9357	9.299405	0.053987	0.491523	-0.634998	-0.636382	-0.000127	63.8995	-0.634996	-2.521262E+8	5.038874E-13	NaN
387	1.000000	0.502911	7.36885e+06	-57739.1	1005.82	-29736.6	0.000000	0.000000	6.502949	0.039738	NaN	0.000000	0.001631	0.001700	28.081	0.211787	0.001913	110.699	-79.7906	-163.423	0.043601	0.501588	-0.624993	-0.626316	0.039738	110.699	-0.625262	-1.853296E+8	-2.144155E-10	NaN
387	1.000000	0.512902	7.36885e+06	-57739.1	1005.82	-29736.6	0.000000	0.000000	6.512940	0.028297	NaN	0.000000	0.001662	0.001692	28.0807	0.053070	0.002062	25.7383	-108.714	15.437	-0.029334	0.511559	-0.615002	-0.616346	0.028297	25.7383	-0.615826	-1.374844E+8	-2.058219E-10	NaN
387	1.000000	0.522926	7.36885e+06	-57739.1	1005.82	-29736.6	0.000000	0.000000	6.522961	-0.040594	NaN	0.000000	0.001652	0.001693	28.0809	0.054230	0.002013	26.9461	117.799	-168.252	-0.000883	0.521598	-0.604978	-0.606306	-0.040594	26.9461	-0.603848	-9.406908E+7	4.315362E-10	NaN
387	1.000000	0.532947	7.36885e+06	-57739.1	1005.82	-29736.6	0.000000	0.000000	6.532981	-0.041265	NaN	0.000000	0.001635	0.001689	28.0809	0.021745	0.001959	11.102	51.8018	13.2361	0.028358	0.531593	-0.594957	-0.596312	-0.041265	11.102	-0.592170	-6.494964E+7	6.353395E-10	NaN
387	1.000000	0.542934	7.36885e+06	-57739.1	1005.82	-29736.6	0.000000	0.000000	6.542968	-0.025998	NaN	0.000000	0.001587	0.001704	28.081	0.075193	0.001989	37.8107	79.0154	-166.53	-0.011977	0.541626	-0.584971	-0.586278	-0.025998	37.8107	-0.584455	-5.083909E+7	5.113686E-10	NaN
387	1.000000	0.552933	7.36885e+06	-57739.1	1005.82	-29736.6	0.000000	0.000000	6.552964	-0.103111	NaN	0.000000	0.001581	0.001725	28.0808	0.060903	0.002004	30.3919	79.3805	13.1471	-0.127037	0.551517	-0.574971	-0.576387	-0.103111	30.3919	-0.572427	-3.468649E+7	2.972664E-9	NaN
387	1.000000	0.562920	7.36885e+06	-57739.1	1005.82	-29736.6	0.000000	0.000000	6.562956	0.016653	NaN	0.000000	0.001580	0.001671	28.0813	0.171260	0.001962	87.2994	108.632	-166.07	-0.001251	0.561604	-0.564985	-0.566301	0.016653	87.2994	-0.565128	-2.749743E+7	-6.056196E-10	NaN
387	1.000000	0.572955	7.36885e+06	-57739.1	1005.82	-29736.6	0.000000	0.000000	6.572991	-0.012762	NaN	0.000000	0.001631	0.001715	28.081	0.118844	0.002096	56.7035	-42.2652	11.7047	0.045780	0.571588	-0.554949	-0.556317	-0.012762	56.7035	-0.554780	-1.977620E+7	6.453011E-10	NaN
387	1.000000	0.582929	7.36885e+06	-57739.1	1005.82	-29736.6	0.000000	0.000000	6.582964	-0.021791	NaN	0.000000	0.001651	0.001696	28.0797	0.110079	0.002016	54.6028	153.78	-169.312	-0.011949	0.581629	-0.544975	-0.546275	-0.021791	54.6028	-0.544676	-1.432806E+7	1.520841E-9	NaN
387	1.000000	0.592932	7.36885e+06	-57739.1	1005.82	-29736.6	0.000000	0.000000	6.592967	-0.030518	NaN	0.000000	0.001649	0.001695	28.0797	0.129816	0.001943	66.8144	-85.4222	11.9249	0.006130	0.591587	-0.534972	-0.536317	-0.030518	66.8144	-0.534630	-1.039561E+7	2.935678E-9	NaN
387	1.000000	0.602917	7.36885e+06	-57739.1	1005.82	-29736.6	0.000000	0.000000	6.602955	0.039197	NaN	0.000000	0.001642	0.001717	28.0799	0.009793	0.001974	4.959975	-140.437	-164.685	-0.012643	0.601611	-0.524987	-0.526293	0.039197	4.959975	-0.530914	-9.2314e+06	-4.246003E-9	NaN
387	1.000000	0.612948	7.36885e+06	-57739.1	1005.82	-29736.6	0.000000	0.000000	6.612985	0.005270	NaN	0.000000	0.001641	0.001701	28.0798	0.155428	0.001987	78.2363	-11.5286	14.4073	-0.064861	0.611642	-0.514956	-0.516262	0.005270	78.2363	-0.515006	-5.5478e+06	-9.498605E-10	NaN
387	1.000000	0.622922	7.36885e+06	-57739.1	1005.82	-29736.6	0.000000	0.000000	6.622957	-0.015284	NaN	0.000000	0.001696	0.001712	28.0798	0.059101	0.001987	29.7471	28.8421	-164.915	-0.027045	0.621610	-0.504983	-0.506294	-0.015284	29.7471	-0.504597	-3.97313e+06	3.846852E-9	NaN
387	1.000000	0.632963	7.36885e+06	-57739.1	1005.82	-29736.6	0.000000	0.000000	6.632995	-0.114079	NaN	0.000000	0.001661	0.001692	28.0798	0.132777	0.002123	62.5339	147.28	14.5773	-0.102513	0.631627	-0.494941	-0.496277	-0.114079	62.5339	-0.493573	-2.78806e+06	4.091719E-8	NaN
387	1.000000	0.642961	7.36885e+06	-57739.1	1005.82	-29736.6	0.000000	0.000000	6.642996	-0.000628	NaN	0.000000	0.001620	0.001671	28.08	0.020287	0.001976	10.2653	-114.185	-165.005	-0.009846	0.641605	-0.484944	-0.486300	-0.000628	10.2653	-0.484898	-2.10893e+06	2.976208E-10	NaN
387	1.000000	0.652963	7.36885e+06	-57739.1	1005.82	-29736.6	0.000000	0.000000	6.652998	-0.027814	NaN	0.000000	0.001677	0.001708	28.0798	0.105579	0.001928	54.7731	-77.1183	14.2328	-0.009654	0.651644	-0.474941	-0.476260	-0.027814	54.7731	-0.474560	-1.51126e+06	1.840484E-8	NaN
387	1.000000	0.662934	7.36885e+06	-57739.1	1005.82	-29736.6	0.000000	0.000000	6.662971	0.014836	NaN	0.000000	0.001643	0.001692	28.0798	0.114340	0.001829	62.5221	-141.385	-167.429	-0.055184	0.661627	-0.464970	-0.466278	0.014836	62.5221	-0.465148	-1.11514e+06	-1.330441E-8	NaN
387	1.000000	0.672962	7.36885e+06	-57739.1	1005.82	-29736.6	0.000000	0.000000	6.672999	0.021173	NaN	0.000000	0.001708	0.001706	28.0797	0.074651	0.002084	35.8285	-161.14	13.8742	0.039823	0.671557	-0.454942	-0.456347	0.021173	35.8285	-0.455385	-813088	-2.604011E-8	NaN
387	1.000000	0.682984	7.36885e+06	-57739.1	1005.82	-29736.6	0.000000	0.000000	6.683021	0.031625	NaN	0.000000	0.001669	0.001683	28.0802	0.070536	0.001914	36.8444	78.1639	-164.528	0.049097	0.681627	-0.444921	-0.446278	0.031625	36.8444	-0.445564	-591353	-5.347906E-8	NaN
387	1.000000	0.692966	7.36885e+06	-57739.1	1005.82	-29736.6	0.000000	0.000000	6.693003	0.026054	NaN	0.000000	0.001649	0.001728	28.08	0.057459	0.001989	28.8912	-68.406	14.0119	-0.088437	0.691646	-0.434938	-0.436258	0.026054	28.8912	-0.435614	-427990	-6.087542E-8	NaN
387	1.000000	0.702953	7.36885e+06	-57739.1	1005.82	-29736.6	0.000000	0.000000	6.702993	0.101294	NaN	0.000000	0.001662	0.001727	28.0799	0.133135	0.001976	67.362	-29.0496	-162.137	0.062116	0.701671	-0.424951	-0.426234	0.101294	67.362	-0.426079	-313732	-3.228690E-7	NaN
387	1.000000	0.713024	7.36885e+06	-57739.1	1005.82	-29736.6	0.000000	0.000000	6.713059	-0.014029	NaN	0.000000	0.001609	0.001708	28.0798	0.058266	0.002096	27.7974	-60.7635	14.0928	-0.091355	0.711678	-0.414881	-0.416226	-0.014029	27.7974	-0.414502	-214973	6.525905E-8	NaN
387	1.000000	0.723010	7.36885e+06	-57739.1	1005.82	-29736.6	0.000000	0.000000	6.723044	-0.043900	NaN	0.000000	0.001625	0.001693	28.0813	0.046094	0.002048	22.5058	160.037	-166.24	-0.008358	0.721642	-0.404894	-0.406262	-0.043900	22.5058	-0.403431	-149589	2.934726E-7	NaN
387	1.000000	0.732974	7.36885e+06	-57739.1	1005.82	-29736.6	0.000000	0.000000	6.733009	-0.006397	NaN	0.000000	0.001633	0.001690	28.0811	0.101489	0.001867	54.3634	-163.531	11.0945	-0.064857	0.731595	-0.394931	-0.396309	-0.006397	54.3634	-0.394842	-112819	5.670486E-8	NaN
387	1.000000	0.743015	7.36885e+06	-57739.1	1005.82	-29736.6	0.000000	0.000000	6.743051	-0.004341	NaN	0.000000	0.001588	0.001646	28.081	0.009658	0.001902	5.076610	102.719	-166.446	0.030891	0.741649	-0.384889	-0.386256	-0.004341	5.076610	-0.384248	-79580	5.455193E-8	NaN
387	1.000000	0.752998	7.36885e+06	-57739.1	1005.82	-29736.6	0.000000	0.000000	6.753033	-0.019709	NaN	0.000000	0.001585	0.001672	28.0812	0.095038	0.002046	46.4441	87.4397	12.7228	-0.044951	0.751609	-0.374906	-0.376295	-0.019709	46.4441	-0.374588	-57829.1	3.408184E-7	NaN
387	1.000000	0.763029	7.36885e+06	-57739.1	1005.82	-29736.6	0.000000	0.000000	6.763065	0.001444	NaN	0.000000	0.001618	0.001665	28.0815	0.078955	0.002005	39.3774	153.309	-165.458	0.029188	0.761671	-0.364875	-0.366234	0.001444	39.3774	-0.364903	-41942.4	-3.443420E-8	NaN
387	1.000000	0.773005	7.36885e+06	-57739.1	1005.82	-29736.6	0.000000	0.000000	6.773037	-0.101581	NaN	0.000000	0.001600	0.001673	28.0812	0.069846	0.001905	36.6733	64.959	12.163	-0.028480	0.771648	-0.354899	-0.356257	-0.101581	36.6733	-0.352821	-28049.7	3.621478E-6	NaN
387	1.000000	0.783000	7.36885e+06	-57739.1	1005.82	-29736.6	0.000000	0.000000	6.783036	-0.003704	NaN	0.000000	0.001589	0.001696	28.0813	0.025152	0.001869	13.4538	-99.9807	-167.227	0.035084	0.781719	-0.344904	-0.346185	-0.003704	13.4538	-0.344698	-21377.5	1.732513E-7	NaN
387	1.000000	0.793036	7.36885e+06	-57739.1	1005.82	-29736.6	0.000000	0.000000	6.793071	-0.015182	NaN	0.000000	0.001582	0.001731	28.0815	0.045033	0.001911	23.5712	99.6352	10.7149	-0.039497	0.791670	-0.334868	-0.336234	-0.015182	23.5712	-0.334385	-15121.8	1.003975E-6	NaN
387	1.000000	0.803043	7.36885e+06	-57739.1	1005.82	-29736.6	0.000000	0.000000	6.803078	-0.009062	NaN	0.000000	0.001586	0.001745	28.0811	0.062779	0.001991	31.5263	-103.618	-166.293	0.012609	0.801736	-0.324862	-0.326169	-0.009062	31.5263	-0.324646	-10887.8	8.323338E-7	NaN
387	1.000000	0.813054	7.36885e+06	-57739.1	1005.82	-29736.6	0.000000	0.000000	6.813089	-0.004905	NaN	0.000000	0.001607	0.001701	28.081	0.069680	0.002016	34.5709	32.5565	11.9603	-0.010241	0.811675	-0.314851	-0.316229	-0.004905	34.5709	-0.314744	-7783.47	6.302161E-7	NaN
387	1.000000	0.823031	7.36885e+06	-57739.1	1005.82	-29736.6	0.000000	0.000000	6.823068	0.042711	NaN	0.000000	0.001593	0.001718	28.081	0.025219	0.001901	13.2666	17.0997	-166.061	0.046906	0.821773	-0.304874	-0.306131	0.042711	13.2666	-0.307288	-6038.02	-7.073746E-6	NaN
387	1.000000	0.833052	7.36885e+06	-57739.1	1005.82	-29736.6	0.000000	0.000000	6.833088	0.000301	NaN	0.000000	0.001636	0.001718	28.0811	0.075965	0.001937	39.2248	0.661516	14.7514	0.031279	0.831707	-0.294852	-0.296197	0.000301	39.2248	-0.294858	-3944.27	-7.619086E-8	NaN
387	1.000000	0.843060	7.36885e+06	-57739.1	1005.82	-29736.6	0.000000	0.000000	6.843091	-0.115979	NaN	0.000000	0.001586	0.001696	28.0809	0.084559	0.001971	42.8999	17.4426	-167.599	-0.124870	0.841761	-0.284844	-0.286144	-0.115979	42.8999	-0.282816	-2602.65	4.456201E-5	NaN
387	1.000000	0.853042	7.36885e+06	-57739.1	1005.82	-29736.6	0.000000	0.000000	6.853079	0.018507	NaN	0.000000	0.001632	0.001733	28.0795	0.027403	0.002030	13.4984	97.9522	11.8104	0.056060	0.851690	-0.274862	-0.276214	0.018507	13.4984	-0.275890	-2045.86	-9.046183E-6	NaN
387	1.000000	0.863055	7.36885e+06	-57739.1	1005.82	-29736.6	0.000000	0.000000	6.863091	-0.010582	NaN	0.000000	0.001603	0.001679	28.0797	0.053066	0.002024	26.2172	-17.241	-169.034	0.014836	0.861709	-0.264849	-0.266195	-0.010582	26.2172	-0.264546	-1375.52	7.692981E-6	NaN
387	1.000000	0.873064	7.36885e+06	-57739.1	1005.82	-29736.6	0.000000	0.000000	6.873100	0.006738	NaN	0.000000	0.001613	0.001705	28.0798	0.050907	0.001995	25.5115	-76.6135	10.9713	0.005226	0.871736	-0.254840	-0.256168	0.006738	25.5115	-0.255039	-983.352	-6.852421E-6	NaN
387	1.000000	0.883082	7.36885e+06	-57739.1	1005.82	-29736.6	0.000000	0.000000	6.883118	-0.015656	NaN	0.000000	0.001609	0.001726	28.0798	0.122155	0.001971	61.9733	-161.441	-168.987	-0.031427	0.881728	-0.244822	-0.246176	-0.015656	61.9733	-0.244632	-678.793	2.306405E-5	NaN
387	1.000000	0.893060	7.36885e+06	-57739.1	1005.82	-29736.6	0.000000	0.000000	6.893098	0.049795	NaN	0.000000	0.001659	0.001710	28.0799	0.060798	0.001995	30.4798	-149.603	13.2862	-0.082470	0.891726	-0.234844	-0.236179	0.049795	30.4798	-0.236069	-498.922	-9.980613E-5	NaN
387	1.000000	0.903061	7.36885e+06	-57739.1	1005.82	-29736.6	0.000000	0.000000	6.903094	-0.073736	NaN	0.000000	0.001590	0.001667	28.0797	0.090678	0.002028	44.7078	-92.5334	-164.837	0.008277	0.901751	-0.224843	-0.226153	-0.073736	44.7078	-0.223606	-317.09	0.000233	NaN
387	1.000000	0.913106	7.36885e+06	-57739.1	1005.82	-29736.6	0.000000	0.000000	6.913142	0.013526	NaN	0.000000	0.001555	0.001687	28.0797	0.023711	0.002062	11.5003	-35.7538	7.720867	0.006464	0.911733	-0.214799	-0.216172	0.013526	11.5003	-0.215681	-236.841	-5.710823E-5	NaN
387	1.000000	0.923090	7.36885e+06	-57739.1	1005.82	-29736.6	0.000000	0.000000	6.923125	-0.026065	NaN	0.000000	0.001590	0.001719	28.0797	0.050544	0.002069	24.4241	55.8205	-172.771	-0.026611	0.921758	-0.204814	-0.206146	-0.026065	24.4241	-0.204014	-153.272	0.000170	NaN
387	1.000000	0.933060	7.36885e+06	-57739.1	1005.82	-29736.6	0.000000	0.000000	6.933095	-0.009576	NaN	0.000000	0.001566	0.001690	28.0809	0.143070	0.002037	70.2288	14.5843	13.2373	0.005808	0.931708	-0.194844	-0.196196	-0.009576	70.2288	-0.194742	-107.877	8.876799E-5	NaN
387	1.000000	0.943070	7.36885e+06	-57739.1	1005.82	-29736.6	0.000000	0.000000	6.943109	0.083010	NaN	0.000000	0.001615	0.001678	28.0799	0.086638	0.001875	46.2159	-96.8982	-165.141	0.034085	0.941723	-0.184835	-0.186181	0.083010	46.2159	-0.186182	-77.6301	-0.001069	NaN
387	1.000000	0.953068	7.36885e+06	-57739.1	1005.82	-29736.6	0.000000	0.000000	6.953105	0.012134	NaN	0.000000	0.001620	0.001695	28.0801	0.087664	0.002010	43.6138	130.994	13.4179	-0.034252	0.951736	-0.174836	-0.176168	0.012134	43.6138	-0.175045	-50.2051	-0.000242	NaN
387	1.000000	0.963104	7.36885e+06	-57739.1	1005.82	-29736.6	0.000000	0.000000	6.963142	0.048135	NaN	0.000000	0.001654	0.001697	28.0802	0.054510	0.001889	28.8517	-31.6479	-167.841	0.048530	0.961751	-0.164801	-0.166154	0.048135	28.8517	-0.166052	-35.0553	-0.001373	NaN
387	1.000000	0.973106	7.36885e+06	-57739.1	1005.82	-29736.6	0.000000	0.000000	6.973143	0.031107	NaN	0.000000	0.001599	0.001653	28.08	0.149462	0.001988	75.1826	-80.3374	17.1056	-0.037618	0.971791	-0.154798	-0.156113	0.031107	75.1826	-0.155109	-22.415	-0.001388	NaN
387	1.000000	0.983117	7.36885e+06	-57739.1	1005.82	-29736.6	0.000000	0.000000	6.983154	0.040904	NaN	0.000000	0.001614	0.001700	28.0802	0.010576	0.001970	5.369087	-55.6997	-167.015	-0.056039	0.981765	-0.144788	-0.146139	0.040904	5.369087	-0.150501	-18.4988	-0.002211	NaN
387	1.000000	0.993117	7.36885e+06	-57739.1	1005.82	-29736.6	0.000000	0.000000	6.993157	0.090604	NaN	0.000000	0.001593	0.001700	28.0812	0.043217	0.002114	20.4422	132.248	14.2461	0.073851	0.991741	-0.134787	-0.136163	0.090604	20.4422	-0.138111	-10.8989	-0.008313	NaN
387	1.000000	1.003095	7.36885e+06	-57739.1	1005.82	-29736.6	0.000000	0.000000	7.003133	0.053679	NaN	0.000000	0.001662	0.001735	28.0814	0.061523	0.001979	31.0953	43.5443	-163.725	0.061093	1.001800	-0.124809	-0.126104	0.053679	31.0953	-0.126104	-6.394343	-0.008395	NaN
387	1.000000	1.013113	7.36885e+06	-57739.1	1005.82	-29736.6	0.000000	0.000000	7.013149	-0.001552	NaN	0.000000	0.001696	0.001670	28.0812	0.065731	0.001928	34.0846	159.013	10.8247	0.025981	1.011794	-0.114792	-0.116110	-0.001552	34.0846	-0.114757	-3.776609	0.000411	NaN
387	1.000000	1.023113	7.36885e+06	-57739.1	1005.82	-29736.6	0.000000	0.000000	7.023147	-0.054944	NaN	0.000000	0.001608	0.001675	28.0816	0.073721	0.001863	39.5811	109.92	-167.281	-0.015781	1.021819	-0.104791	-0.106085	-0.054944	39.5811	-0.103750	-2.208422	0.024879	NaN
387	1.000000	1.033128	7.36885e+06	-57739.1	1005.82	-29736.6	0.000000	0.000000	7.033165	0.019872	NaN	0.000000	0.001600	0.001696	28.0812	0.045161	0.001820	24.8168	26.2707	11.7579	0.001213	1.031686	-0.094776	-0.096219	0.019872	24.8168	-0.095377	-1.438775	-0.013812	NaN
387	1.000000	1.043113	7.36885e+06	-57739.1	1005.82	-29736.6	0.000000	0.000000	7.043150	0.018854	NaN	0.000000	0.001537	0.001684	28.0813	0.086937	0.002053	42.3362	-101.207	-162.706	0.076883	1.041811	-0.084791	-0.086093	0.018854	42.3362	-0.085125	-0.827377	-0.022788	NaN
387	1.000000	1.053170	7.36885e+06	-57739.1	1005.82	-29736.6	0.000000	0.000000	7.053209	0.070849	NaN	0.000000	0.001595	0.001683	28.0812	0.126657	0.001954	64.8088	161.044	13.0346	-0.005234	1.051801	-0.074734	-0.076104	0.070849	64.8088	-0.075554	-0.477330	-0.148427	NaN
387	1.000000	1.063127	7.36885e+06	-57739.1	1005.82	-29736.6	0.000000	0.000000	7.063163	0.007402	NaN	0.000000	0.001594	0.001642	28.0814	0.036076	0.002077	17.3675	-132.427	-168.787	-0.040869	1.061868	-0.064777	-0.066036	0.007402	17.3675	-0.065097	-0.250760	-0.029518	NaN
387	1.000000	1.073160	7.36885e+06	-57739.1	1005.82	-29736.6	0.000000	0.000000	7.073194	-0.036365	NaN	0.000000	0.001622	0.001707	28.0811	0.108453	0.002049	52.9297	-127.198	11.585	0.002676	1.071794	-0.054744	-0.056110	-0.036365	52.9297	-0.054229	-0.122183	0.297630	NaN
387	1.000000	1.083131	7.36885e+06	-57739.1	1005.82	-29736.6	0.000000	0.000000	7.083166	-0.025955	NaN	0.000000	0.001608	0.001627	28.0811	0.045456	0.002014	22.5672	-11.5614	-165.786	-0.018735	1.081839	-0.044773	-0.046065	-0.025955	22.5672	-0.043910	-0.059521	0.436068	NaN
387	1.000000	1.093164	7.36885e+06	-57739.1	1005.82	-29736.6	0.000000	0.000000	7.093200	0.012163	NaN	0.000000	0.001595	0.001694	28.0813	0.053771	0.002005	26.8173	118.751	16.2405	0.014145	1.091780	-0.034741	-0.036125	0.012163	26.8173	-0.035081	-0.032201	-0.377711	NaN
387	1.000000	1.103134	7.36885e+06	-57739.1	1005.82	-29736.6	0.000000	0.000000	7.103169	-0.018866	NaN	0.000000	0.001576	0.001677	28.0811	0.003074	0.002056	1.494974	-138.162	-166.128	0.001738	1.101801	-0.024771	-0.026103	-0.018866	1.494974	-0.015306	-0.009459	1.994439	NaN
387	1.000000	1.113122	7.36885e+06	-57739.1	1005.82	-29736.6	0.000000	0.000000	7.113158	-0.006580	NaN	0.000000	0.001586	0.001715	28.081	0.046734	0.001974	23.6701	-61.7138	14.8607	0.038625	1.111791	-0.014782	-0.016113	-0.006580	23.6701	-0.014574	-0.009021	0.729335	NaN
387	1.000000	1.123149	7.36885e+06	-57739.1	1005.82	-29736.6	0.000000	0.000000	7.123185	0.011125	NaN	0.000000	0.001588	0.001683	28.0808	0.026898	0.002065	13.0232	-142.368	-163.499	0.045742	1.121887	-0.004755	-0.006017	0.011125	13.0232	-0.005396	-0.003664	-3.036358	NaN
387	1.000000	1.133137	7.36885e+06	-57739.1	1005.82	-29736.6	0.000000	0.000000	7.133387	5.189912	NaN	0.000000	0.001590	0.001684	28.08	6.084681	0.001705	3569.06	9.359222	7.835518	2.963645	1.131789	0.005233	0.003885	5.189912	3569.06	0.004142	0.003364	1542.71	56219.9
387	2.000000	1.137714	7.36885e+06	-57739.1	1005.82	-29736.6	0.000000	0.000000	7.138235	11.8089	NaN	0.000000	0.001650	0.001632	28.0798	10.3909	0.001421	7311.85	6.464548	-175.204	11.1283	1.137373	0.009809	0.009468	11.8089	7311.85	0.008598	0.007665	1540.69	76305.1
387	2.000000	1.140135	7.36885e+06	-57739.1	1005.82	-29736.6	0.000000	0.000000	7.140808	15.4701	NaN	0.000000	0.001624	0.001642	28.0797	14.0407	0.001589	8835.52	2.345712	4.818037	13.0038	1.139816	0.012231	0.011912	15.4701	8835.52	0.010918	0.010219	1513.8	79853.2
387	2.000000	1.142645	7.36885e+06	-57739.1	1005.82	-29736.6	0.000000	0.000000	7.143399	17.4578	NaN	0.000000	0.001626	0.001679	28.0799	17.2398	0.001928	8940.19	7.177148	-176.75	16.4097	1.142388	0.014741	0.014484	17.4578	8940.19	0.013276	0.013055	1337.29	71488.6
387	2.000000	1.145170	7.36885e+06	-57739.1	1005.82	-29736.6	0.000000	0.000000	7.146194	24.0062	NaN	0.000000	0.001629	0.001667	28.08	19.5808	0.001764	11100	6.343010	1.883467	22.6133	1.144737	0.017266	0.016833	24.0062	11100	0.015644	0.016154	1486.09	79791.4
387	2.000000	1.147641	7.36885e+06	-57739.1	1005.82	-29736.6	0.000000	0.000000	7.148754	26.1784	NaN	0.000000	0.001615	0.001713	28.0799	21.8333	0.001779	12275.1	2.876682	-175.602	26.6938	1.147316	0.019737	0.019412	26.1784	12275.1	0.018137	0.019699	1328.89	79904.8
387	2.000000	1.150167	7.36885e+06	-57739.1	1005.82	-29736.6	0.000000	0.000000	7.151424	29.6901	NaN	0.000000	0.001592	0.001692	28.0796	24.4287	0.001823	13399.5	5.939068	1.778064	30.833	1.149703	0.022263	0.021799	29.6901	13399.5	0.020601	0.023495	1263.67	79868.1
387	2.000000	1.152633	7.36885e+06	-57739.1	1005.82	-29736.6	0.000000	0.000000	7.154168	36.4475	NaN	0.000000	0.001613	0.001675	28.08	27.4943	0.001852	14846.2	4.517507	179.69	34.792	1.152383	0.024728	0.024479	36.4475	14846.2	0.022887	0.027284	1335.87	82117.6
387	2.000000	1.155093	7.36885e+06	-57739.1	1005.82	-29736.6	0.000000	0.000000	7.156857	42.0082	NaN	0.000000	0.001709	0.001680	28.0799	29.3229	0.001834	15988.1	7.419674	-2.599154	39.773	1.154758	0.027189	0.026854	42.0082	15988.1	0.025218	0.031414	1337.25	82415.3
387	2.000000	1.157635	7.36885e+06	-57739.1	1005.82	-29736.6	0.000000	0.000000	7.159541	45.464	NaN	0.000000	0.001671	0.001667	28.0801	30.6571	0.001707	17961.5	5.018153	178.531	44.9457	1.157336	0.029730	0.029432	45.464	17961.5	0.027832	0.036370	1250.04	86048.7
387	2.000000	1.160041	7.36885e+06	-57739.1	1005.82	-29736.6	0.000000	0.000000	7.162738	64.6783	NaN	0.000000	0.001684	0.001689	28.0798	33.9541	0.001807	18788.7	3.910422	-0.426404	60.8914	1.159610	0.032137	0.031706	64.6783	18788.7	0.029555	0.039826	1624.01	86017
387	2.000000	1.162580	7.36885e+06	-57739.1	1005.82	-29736.6	0.000000	0.000000	7.165187	62.4835	NaN	0.000000	0.001679	0.001720	28.0797	36.4759	0.001786	20424.8	7.130179	175.745	61.6132	1.162305	0.034676	0.034400	62.4835	20424.8	0.032382	0.045825	1363.52	87172.4
387	2.000000	1.165063	7.36885e+06	-57739.1	1005.82	-29736.6	0.000000	0.000000	7.168150	74.1516	NaN	0.000000	0.001693	0.001714	28.0799	38.3917	0.001717	22362.9	6.534932	-4.251893	69.7578	1.164701	0.037158	0.036797	74.1516	22362.9	0.034672	0.050984	1454.41	90486.7
387	2.000000	1.167640	7.36885e+06	-57739.1	1005.82	-29736.6	0.000000	0.000000	7.170968	80.0187	NaN	0.000000	0.001660	0.001709	28.0811	40.7805	0.001837	22198.6	6.424925	177.437	81.8463	1.167217	0.039736	0.039313	80.0187	22198.6	0.037032	0.056584	1414.17	85261.5
387	2.000000	1.170081	7.36885e+06	-57739.1	1005.82	-29736.6	0.000000	0.000000	7.173672	86.4085	NaN	0.000000	0.001670	0.001746	28.081	44.2747	0.001841	24051.8	4.922030	-3.902786	84.1225	1.169740	0.042176	0.041836	86.4085	24051.8	0.039482	0.062696	1378.2	87760.7
387	2.000000	1.172517	7.36885e+06	-57739.1	1005.82	-29736.6	0.000000	0.000000	7.176593	98.1785	NaN	0.000000	0.001682	0.001712	28.0812	47.5557	0.001904	24981.6	7.911624	173.411	95.7502	1.172180	0.044613	0.044275	98.1785	24981.6	0.041665	0.068403	1435.3	87268.4
387	2.000000	1.175094	7.36885e+06	-57739.1	1005.82	-29736.6	0.000000	0.000000	7.179449	104.978	NaN	0.000000	0.001689	0.001683	28.0812	48.3863	0.001801	26864.4	3.938670	-3.245919	102.926	1.174759	0.047190	0.046855	104.978	26864.4	0.044259	0.075498	1390.48	89327.1
387	2.000000	1.177637	7.36885e+06	-57739.1	1005.82	-29736.6	0.000000	0.000000	7.182598	119.705	NaN	0.000000	0.001665	0.001694	28.0811	49.8399	0.001717	29029.7	6.009305	174.289	124.527	1.177257	0.049733	0.049353	119.705	29029.7	0.046640	0.082312	1454.28	92445
387	2.000000	1.180036	7.36885e+06	-57739.1	1005.82	-29736.6	0.000000	0.000000	7.185335	127.911	NaN	0.000000	0.001688	0.001711	28.0814	52.9067	0.001759	30075.4	6.611903	-7.705988	123.704	1.179686	0.052132	0.051782	127.911	30075.4	0.048942	0.089172	1434.43	92017.5
387	2.000000	1.182580	7.36885e+06	-57739.1	1005.82	-29736.6	0.000000	0.000000	7.188140	134.267	NaN	0.000000	0.001714	0.001701	28.0814	55.6927	0.001734	32122.6	6.339553	172.998	135.077	1.182228	0.054675	0.054324	134.267	32122.6	0.051541	0.097234	1380.86	94118.3
387	2.000000	1.185074	7.36885e+06	-57739.1	1005.82	-29736.6	0.000000	0.000000	7.191057	144.521	NaN	0.000000	0.001712	0.001682	28.081	57.0224	0.001789	31867.5	2.802335	-3.358923	143.586	1.184861	0.057170	0.056956	144.521	31867.5	0.053769	0.104418	1384.07	90102.1
387	2.000000	1.187522	7.36885e+06	-57739.1	1005.82	-29736.6	0.000000	0.000000	7.194198	161.368	NaN	0.000000	0.001709	0.001705	28.0812	60.3206	0.001897	31794.8	4.541416	175.165	158.946	1.187243	0.059618	0.059339	161.368	31794.8	0.055811	0.111218	1450.91	87104.5
387	2.000000	1.190010	7.36885e+06	-57739.1	1005.82	-29736.6	0.000000	0.000000	7.196919	167.057	NaN	0.000000	0.001673	0.001701	28.081	63.9182	0.001811	35297.6	5.077674	-7.487018	162.424	1.189727	0.062106	0.061823	167.057	35297.6	0.058556	0.120681	1384.29	92832.2
387	2.000000	1.192567	7.36885e+06	-57739.1	1005.82	-29736.6	0.000000	0.000000	7.199992	179.588	NaN	0.000000	0.001683	0.001659	28.0813	67.1168	0.001877	35765.6	6.454803	171.184	181.029	1.192374	0.064662	0.064470	179.588	35765.6	0.060896	0.129042	1391.7	90964.7
387	2.000000	1.195147	7.36885e+06	-57739.1	1005.82	-29736.6	0.000000	0.000000	7.202855	186.471	NaN	0.000000	0.001684	0.001715	28.081	68.6385	0.001832	37466.6	4.622017	-7.387036	189.026	1.194804	0.067242	0.066900	186.471	37466.6	0.063510	0.138694	1344.48	91915.5
387	2.000000	1.197588	7.36885e+06	-57739.1	1005.82	-29736.6	0.000000	0.000000	7.206050	204.781	NaN	0.000000	0.001704	0.001705	28.081	70.1292	0.001893	37042.9	4.393393	173.064	207.695	1.197274	0.069684	0.069370	204.781	37042.9	0.065538	0.146412	1398.66	88448.5
387	2.000000	1.200043	7.36885e+06	-57739.1	1005.82	-29736.6	0.000000	0.000000	7.208941	215.388	NaN	0.000000	0.001697	0.001704	28.0811	72.16	0.001838	39262.7	0.211266	-3.060194	213.771	1.199749	0.072139	0.071844	215.388	39262.7	0.068025	0.156145	1379.41	90779.8
387	2.000000	1.202548	7.36885e+06	-57739.1	1005.82	-29736.6	0.000000	0.000000	7.211733	222.363	NaN	0.000000	0.001715	0.001686	28.0796	74.4675	0.001747	42616.2	0.720873	175.543	222.965	1.202371	0.074644	0.074467	222.363	42616.2	0.070730	0.167071	1330.94	95256.9
387	2.000000	1.205068	7.36885e+06	-57739.1	1005.82	-29736.6	0.000000	0.000000	7.215377	249.674	NaN	0.000000	0.001708	0.001706	28.0799	76.9905	0.001775	43376.9	8.354412	-11.8513	248.344	1.204732	0.077164	0.076828	249.674	43376.9	0.072847	0.175861	1419.72	94503.2
387	2.000000	1.207471	7.36885e+06	-57739.1	1005.82	-29736.6	0.000000	0.000000	7.218642	270.632	NaN	0.000000	0.001719	0.001764	28.0796	77.4795	0.001682	46060.9	-0.162453	176.614	266.071	1.207168	0.079566	0.079264	270.632	46060.9	0.075160	0.185708	1457.3	97654.2
387	2.000000	1.209990	7.36885e+06	-57739.1	1005.82	-29736.6	0.000000	0.000000	7.221924	289.183	NaN	0.000000	0.001686	0.001756	28.08	81.972	0.001855	44188	5.639364	-8.706895	284.639	1.209605	0.082085	0.081701	289.183	44188	0.077177	0.194503	1486.78	91540.9
387	2.000000	1.212428	7.36885e+06	-57739.1	1005.82	-29736.6	0.000000	0.000000	7.224816	300.202	NaN	0.000000	0.001717	0.001731	28.0797	84.3924	0.001832	46057.2	3.934622	172.16	294.878	1.212206	0.084524	0.084302	300.202	46057.2	0.079636	0.205478	1461	92829.9
387	2.000000	1.215022	7.36885e+06	-57739.1	1005.82	-29736.6	0.000000	0.000000	7.228476	326.116	NaN	0.000000	0.001700	0.001745	28.08	85.3445	0.001882	45351.8	2.497554	-5.826745	320.703	1.214605	0.087117	0.086701	326.116	45351.8	0.081724	0.215024	1516.65	89356.2
387	2.000000	1.217485	7.36885e+06	-57739.1	1005.82	-29736.6	0.000000	0.000000	7.231641	343.166	NaN	0.000000	0.001753	0.001728	28.0799	87.3901	0.001803	48470.5	3.629228	173.319	341.225	1.217025	0.089581	0.089121	343.166	48470.5	0.084271	0.226936	1512.17	92960.5
387	2.000000	1.220062	7.36885e+06	-57739.1	1005.82	-29736.6	0.000000	0.000000	7.234857	358.708	NaN	0.000000	0.001655	0.001718	28.0802	91.2937	0.001809	50467.5	7.580809	-11.1703	359.661	1.219555	0.092158	0.091650	358.708	50467.5	0.086827	0.239196	1499.64	94277.5
387	2.000000	1.222512	7.36885e+06	-57739.1	1005.82	-29736.6	0.000000	0.000000	7.237746	369.375	NaN	0.000000	0.001693	0.001699	28.0799	92.6173	0.001744	53105.2	2.030570	173.261	368.705	1.222406	0.094608	0.094502	369.375	53105.2	0.089391	0.251794	1466.97	96691.3
387	2.000000	1.225055	7.36885e+06	-57739.1	1005.82	-29736.6	0.000000	0.000000	7.241263	393.042	NaN	0.000000	0.001693	0.001719	28.0801	94.5346	0.001684	56128.1	5.355694	-10.2331	390.687	1.224685	0.097151	0.096780	393.042	56128.1	0.091899	0.264407	1486.51	99728
387	2.000000	1.227493	7.36885e+06	-57739.1	1005.82	-29736.6	0.000000	0.000000	7.244580	414.407	NaN	0.000000	0.001704	0.001711	28.0799	96.7754	0.001766	54790.2	8.216276	166.93	413.129	1.227267	0.099588	0.099363	414.407	54790.2	0.093916	0.274761	1508.24	95499
387	2.000000	1.229910	7.36885e+06	-57739.1	1005.82	-29736.6	0.000000	0.000000	7.247784	433.536	NaN	0.000000	0.001727	0.001711	28.0799	99.275	0.001698	58468.4	4.696522	-9.940983	425.859	1.229600	0.102006	0.101695	433.536	58468.4	0.096445	0.288006	1505.3	99539.1
387	2.000000	1.232504	7.36885e+06	-57739.1	1005.82	-29736.6	0.000000	0.000000	7.251187	453.206	NaN	0.000000	0.001684	0.001724	28.08	103.579	0.001816	57031.7	5.587947	169.159	451.937	1.232242	0.104599	0.104337	453.206	57031.7	0.098639	0.299737	1512.01	95174.2
387	2.000000	1.234512	7.36885e+06	-57739.1	1005.82	-29736.6	0.000000	0.000000	7.254312	480.327	NaN	0.000000	0.001669	0.001733	28.0799	103.877	0.001753	59247.9	3.711896	170.968	480.625	1.234088	0.106608	0.106184	480.327	59247.9	0.100528	0.310006	1549.41	97221.3