File: remote_trans/data/nanoindenter/0828-1/data/Data_2025-08-06,11h17m57s/2025-07-22_16-23-58_1_1175.txt
2025-07-22, 16:23:58, 1
Index	Phase	Displacement	Time	Pos X	Pos Y	Pos Z	Rot A	Rot B	Piezo Z	Force A	Force B	Gripper	Voltage A	Voltage B	Temperature	Amplitude force	Amplitude pos	Stiffness	Phase shift	Phase excitation	Force A raw	Displacement raw	HMax	HMax raw	Real Force	Real Stiffness	Contact Depth	Area	Hardness	Reduced Mod.
[#]	[#]	[um]	[s]	[um]	[um]	[um]	[m°]	[m°]	[um]	[uN]	[uN]	[V]	[V]	[V]	[°C]	[uN]	[um]	[N/m]	[°]	[°]	[uN]	[um]	[um]	[um]	[uN]	[N/m]	[um]	[um^2]	[MPa]	[MPa]
1175	1.000000	0.002849	7.37654e+06	-56839.1	1105.82	-29737.8	0.000000	0.000000	6.002782	-0.065112	NaN	0.000000	0.001556	0.001706	28.0836	0.090786	0.000912	99.5488	-65.3034	-168.03	-0.059615	0.001608	-1.102389	-1.103630	-0.065112	99.5488	-1.101899	-5.315631E+14	1.224914E-16	NaN
1175	1.000000	0.012937	7.37654e+06	-56839.1	1105.82	-29737.8	0.000000	0.000000	6.012870	-0.063460	NaN	0.000000	0.001537	0.001723	28.0831	0.037925	0.001272	29.819	-119.931	17.1846	-0.122740	0.011449	-1.092301	-1.093789	-0.063460	29.819	-1.090705	-3.760818E+14	1.687387E-16	NaN
1175	1.000000	0.022818	7.37654e+06	-56839.1	1105.82	-29737.8	0.000000	0.000000	6.022755	0.051186	NaN	0.000000	0.001556	0.001691	28.0828	0.025859	0.001765	14.649	73.5094	-167.076	0.038665	0.021547	-1.082421	-1.083691	0.051186	14.649	-1.085042	-3.156682E+14	-1.621528E-16	NaN
1175	1.000000	0.032804	7.37654e+06	-56839.1	1105.82	-29737.8	0.000000	0.000000	6.032738	-0.053682	NaN	0.000000	0.001563	0.001726	28.0827	0.027261	0.001894	14.3899	122.656	12.13	-0.175439	0.031406	-1.072434	-1.073833	-0.053682	14.3899	-1.069637	-1.960226E+14	2.738554E-16	NaN
1175	1.000000	0.042830	7.37654e+06	-56839.1	1105.82	-29737.8	0.000000	0.000000	6.042767	0.041995	NaN	0.000000	0.001569	0.001705	28.0819	0.070004	0.001977	35.4169	152.498	-164.754	0.081065	0.041498	-1.062409	-1.063740	0.041995	35.4169	-1.063298	-1.611159E+14	-2.606537E-16	NaN
1175	1.000000	0.052813	7.37654e+06	-56839.1	1105.82	-29737.8	0.000000	0.000000	6.052747	-0.053376	NaN	0.000000	0.001538	0.001704	28.0816	0.086529	0.002048	42.2488	167.542	11.5592	0.046348	0.051441	-1.052425	-1.053798	-0.053376	42.2488	-1.051478	-1.117586E+14	4.776014E-16	NaN
1175	1.000000	0.062815	7.37654e+06	-56839.1	1105.82	-29737.8	0.000000	0.000000	6.062748	-0.042414	NaN	0.000000	0.001523	0.001746	28.0821	0.083900	0.001952	42.9763	42.9843	-165.179	-0.009998	0.061497	-1.042424	-1.043741	-0.042414	42.9763	-1.041684	-8.252955E+13	5.139226E-16	NaN
1175	1.000000	0.072806	7.37654e+06	-56839.1	1105.82	-29737.8	0.000000	0.000000	6.072740	-0.050911	NaN	0.000000	0.001516	0.001715	28.0817	0.111677	0.002006	55.661	-118.948	9.301032	-0.050103	0.071475	-1.032432	-1.033764	-0.050911	55.661	-1.031746	-6.066942E+13	8.391580E-16	NaN
1175	1.000000	0.082788	7.37654e+06	-56839.1	1105.82	-29737.8	0.000000	0.000000	6.082725	0.016856	NaN	0.000000	0.001497	0.001747	28.082	0.033864	0.001980	17.1053	45.4922	-164.203	0.015634	0.081459	-1.022450	-1.023779	0.016856	17.1053	-1.023189	-4.654402E+13	-3.621451E-16	NaN
1175	1.000000	0.092825	7.37654e+06	-56839.1	1105.82	-29737.8	0.000000	0.000000	6.092757	-0.099098	NaN	0.000000	0.001531	0.001676	28.0815	0.020059	0.002196	9.133963	-94.3876	13.5179	-0.108893	0.091447	-1.012413	-1.013791	-0.099098	9.133963	-1.004276	-2.590229E+13	3.825829E-15	NaN
1175	1.000000	0.102841	7.37654e+06	-56839.1	1105.82	-29737.8	0.000000	0.000000	6.102775	-0.037777	NaN	0.000000	0.001531	0.001728	28.0818	0.069340	0.001941	35.7163	-9.892004	-164.115	-0.051944	0.101560	-1.002397	-1.003679	-0.037777	35.7163	-1.001604	-2.384318E+13	1.584390E-15	NaN
1175	1.000000	0.112847	7.37654e+06	-56839.1	1105.82	-29737.8	0.000000	0.000000	6.112784	0.038936	NaN	0.000000	0.001532	0.001722	28.0817	0.019332	0.002016	9.589405	-7.357936	13.7786	0.007337	0.111495	-0.992392	-0.993744	0.038936	9.589405	-0.995437	-1.969395E+13	-1.977053E-15	NaN
1175	1.000000	0.122859	7.37654e+06	-56839.1	1105.82	-29737.8	0.000000	0.000000	6.122795	0.031012	NaN	0.000000	0.001521	0.001725	28.0818	0.024961	0.002018	12.3662	108.012	-166.191	0.012524	0.121474	-0.982380	-0.983765	0.031012	12.3662	-0.984261	-1.392549E+13	-2.227005E-15	NaN
1175	1.000000	0.132816	7.37654e+06	-56839.1	1105.82	-29737.8	0.000000	0.000000	6.132754	0.058829	NaN	0.000000	0.001488	0.001724	28.0816	0.029199	0.002057	14.1942	108.273	16.5967	0.065769	0.131490	-0.972423	-0.973748	0.058829	14.1942	-0.975531	-1.062184E+13	-5.538509E-15	NaN
1175	1.000000	0.142883	7.37654e+06	-56839.1	1105.82	-29737.8	0.000000	0.000000	6.142821	0.072563	NaN	0.000000	0.001525	0.001699	28.0817	0.083789	0.001947	43.0461	-171.228	-166.75	0.037626	0.141583	-0.962356	-0.963656	0.072563	43.0461	-0.963620	-7.339668E+12	-9.886436E-15	NaN
1175	1.000000	0.152829	7.37654e+06	-56839.1	1105.82	-29737.8	0.000000	0.000000	6.152767	0.060240	NaN	0.000000	0.001544	0.001709	28.0815	0.045117	0.001898	23.7674	-154.618	12.3022	-0.018799	0.151454	-0.952409	-0.953785	0.060240	23.7674	-0.954310	-5.497338E+12	-1.095795E-14	NaN
1175	1.000000	0.162860	7.37654e+06	-56839.1	1105.82	-29737.8	0.000000	0.000000	6.162794	-0.028575	NaN	0.000000	0.001519	0.001719	28.0815	0.025432	0.002107	12.0705	-68.5378	-167.602	0.005746	0.161535	-0.942379	-0.943704	-0.028575	12.0705	-0.940604	-3.591537E+12	7.956206E-15	NaN
1175	1.000000	0.172870	7.37654e+06	-56839.1	1105.82	-29737.8	0.000000	0.000000	6.172806	0.003736	NaN	0.000000	0.001519	0.001676	28.0827	0.053010	0.002013	26.3335	166.877	12.9747	-0.004682	0.171471	-0.932369	-0.933768	0.003736	26.3335	-0.932475	-2.789969E+12	-1.339136E-15	NaN
1175	1.000000	0.182864	7.37654e+06	-56839.1	1105.82	-29737.8	0.000000	0.000000	6.182799	-0.010858	NaN	0.000000	0.001483	0.001706	28.083	0.077566	0.002109	36.7747	-91.6443	-166.851	-0.021644	0.181501	-0.922375	-0.923738	-0.010858	36.7747	-0.922154	-2.024332E+12	5.363954E-15	NaN
1175	1.000000	0.192878	7.37654e+06	-56839.1	1105.82	-29737.8	0.000000	0.000000	6.192817	0.080348	NaN	0.000000	0.001504	0.001692	28.0828	0.051079	0.002063	24.7611	-58.5816	13.1509	-0.003944	0.191529	-0.912361	-0.913710	0.080348	24.7611	-0.914795	-1.610338E+12	-4.989498E-14	NaN
1175	1.000000	0.202869	7.37654e+06	-56839.1	1105.82	-29737.8	0.000000	0.000000	6.202803	-0.042666	NaN	0.000000	0.001511	0.001703	28.083	0.093159	0.001996	46.6738	155.534	-167.162	-0.037840	0.201580	-0.902370	-0.903659	-0.042666	46.6738	-0.901684	-1.071083E+12	3.983488E-14	NaN
1175	1.000000	0.212904	7.37654e+06	-56839.1	1105.82	-29737.8	0.000000	0.000000	6.212838	-0.027412	NaN	0.000000	0.001498	0.001711	28.0832	0.166972	0.001895	88.1037	105.532	14.2172	0.047279	0.211508	-0.892335	-0.893731	-0.027412	88.1037	-0.892102	-7.949202E+11	3.448358E-14	NaN
1175	1.000000	0.222875	7.37654e+06	-56839.1	1105.82	-29737.8	0.000000	0.000000	6.222809	-0.044919	NaN	0.000000	0.001515	0.001728	28.0831	0.148919	0.002055	72.462	159.033	-166.441	-0.050160	0.221633	-0.882364	-0.883606	-0.044919	72.462	-0.881899	-5.786088E+11	7.763230E-14	NaN
1175	1.000000	0.232889	7.37654e+06	-56839.1	1105.82	-29737.8	0.000000	0.000000	6.232828	0.064456	NaN	0.000000	0.001499	0.001730	28.083	0.030051	0.001932	15.5516	-137.267	13.5541	0.013232	0.231474	-0.872349	-0.873764	0.064456	15.5516	-0.875458	-4.734512E+11	-1.361415E-13	NaN
1175	1.000000	0.242881	7.37654e+06	-56839.1	1105.82	-29737.8	0.000000	0.000000	6.242811	-0.135226	NaN	0.000000	0.001503	0.001717	28.0831	0.043567	0.002007	21.7066	-21.4363	-168.211	-0.030791	0.241553	-0.862357	-0.863685	-0.135226	21.7066	-0.857685	-2.721369E+11	4.969056E-13	NaN
1175	1.000000	0.252901	7.37654e+06	-56839.1	1105.82	-29737.8	0.000000	0.000000	6.252836	-0.006168	NaN	0.000000	0.001542	0.001709	28.0832	0.140489	0.002062	68.1394	-99.1827	15.8512	-0.045917	0.251567	-0.852338	-0.853672	-0.006168	68.1394	-0.852270	-2.298634E+11	2.683513E-14	NaN
1175	1.000000	0.262919	7.37654e+06	-56839.1	1105.82	-29737.8	0.000000	0.000000	6.262857	0.070924	NaN	0.000000	0.001538	0.001695	28.0831	0.065132	0.002117	30.7605	43.5488	-165.768	0.034133	0.261587	-0.842320	-0.843651	0.070924	30.7605	-0.844049	-1.778864E+11	-3.987065E-13	NaN
1175	1.000000	0.272886	7.37654e+06	-56839.1	1105.82	-29737.8	0.000000	0.000000	6.272822	0.007290	NaN	0.000000	0.001575	0.001709	28.083	0.058524	0.002002	29.2388	69.049	10.5885	-0.015352	0.271520	-0.832353	-0.833718	0.007290	29.2388	-0.832540	-1.242241E+11	-5.868826E-14	NaN
1175	1.000000	0.282938	7.37654e+06	-56839.1	1105.82	-29737.8	0.000000	0.000000	6.282872	-0.033993	NaN	0.000000	0.001523	0.001726	28.0831	0.031146	0.002005	15.5371	62.8006	-165.186	-0.042907	0.281534	-0.822301	-0.823705	-0.033993	15.5371	-0.820660	-8.573553E+10	3.964851E-13	NaN
1175	1.000000	0.292933	7.37654e+06	-56839.1	1105.82	-29737.8	0.000000	0.000000	6.292869	-0.005147	NaN	0.000000	0.001553	0.001690	28.0835	0.136674	0.002041	66.9756	-58.1488	13.2326	0.018078	0.291541	-0.812305	-0.813698	-0.005147	66.9756	-0.812248	-6.592730E+10	7.807313E-14	NaN
1175	1.000000	0.302908	7.37654e+06	-56839.1	1105.82	-29737.8	0.000000	0.000000	6.302844	-0.000383	NaN	0.000000	0.001568	0.001690	28.0832	0.066531	0.001998	33.3062	82.5444	-167.259	-0.029779	0.301651	-0.802331	-0.803587	-0.000383	33.3062	-0.802322	-4.834814E+10	7.931447E-15	NaN
1175	1.000000	0.312928	7.37654e+06	-56839.1	1105.82	-29737.8	0.000000	0.000000	6.312864	0.014197	NaN	0.000000	0.001615	0.001674	28.0818	0.062448	0.002015	30.991	175.816	12.5598	0.007637	0.311577	-0.792311	-0.793662	0.014197	30.991	-0.792654	-3.573778E+10	-3.972437E-13	NaN
1175	1.000000	0.322920	7.37654e+06	-56839.1	1105.82	-29737.8	0.000000	0.000000	6.322855	-0.001440	NaN	0.000000	0.001532	0.001695	28.082	0.039301	0.002144	18.3337	86.0293	-163.103	0.042851	0.321555	-0.782319	-0.783683	-0.001440	18.3337	-0.782260	-2.581920E+10	5.578127E-14	NaN
1175	1.000000	0.332914	7.37654e+06	-56839.1	1105.82	-29737.8	0.000000	0.000000	6.332849	-0.019732	NaN	0.000000	0.001520	0.001696	28.082	0.070713	0.001954	36.1918	-2.990063	12.8483	0.028113	0.331559	-0.772325	-0.773679	-0.019732	36.1918	-0.771916	-1.867901E+10	1.056362E-12	NaN
1175	1.000000	0.342934	7.37654e+06	-56839.1	1105.82	-29737.8	0.000000	0.000000	6.342869	-0.016663	NaN	0.000000	0.001563	0.001705	28.0821	0.018794	0.002035	9.233793	107.572	-166.16	-0.095300	0.341628	-0.762305	-0.763611	-0.016663	9.233793	-0.760951	-1.325092E+10	1.257521E-12	NaN
1175	1.000000	0.352927	7.37654e+06	-56839.1	1105.82	-29737.8	0.000000	0.000000	6.352860	-0.067242	NaN	0.000000	0.001524	0.001710	28.0822	0.192085	0.002060	93.2616	-158.405	9.964720	-0.116675	0.351597	-0.752311	-0.753642	-0.067242	93.2616	-0.751771	-9.938489E+9	6.765813E-12	NaN
1175	1.000000	0.362921	7.37654e+06	-56839.1	1105.82	-29737.8	0.000000	0.000000	6.362856	-0.020699	NaN	0.000000	0.001572	0.001759	28.0822	0.077175	0.001957	39.4438	-159.534	-167.644	-0.021240	0.361649	-0.742318	-0.743589	-0.020699	39.4438	-0.741924	-7.298962E+9	2.835861E-12	NaN
1175	1.000000	0.372939	7.37654e+06	-56839.1	1105.82	-29737.8	0.000000	0.000000	6.372874	0.002261	NaN	0.000000	0.001539	0.001688	28.0822	0.056730	0.002089	27.1527	161.668	10.7992	-0.065840	0.371582	-0.732300	-0.733656	0.002261	27.1527	-0.732363	-5.407611E+9	-4.181626E-13	NaN
1175	1.000000	0.382975	7.37654e+06	-56839.1	1105.82	-29737.8	0.000000	0.000000	6.382909	-0.012676	NaN	0.000000	0.001565	0.001676	28.082	0.189563	0.001937	97.8843	-170.403	-167.578	-0.008875	0.381668	-0.722264	-0.723571	-0.012676	97.8843	-0.722167	-3.926679E+9	3.228257E-12	NaN
1175	1.000000	0.392958	7.37654e+06	-56839.1	1105.82	-29737.8	0.000000	0.000000	6.392895	0.039735	NaN	0.000000	0.001508	0.001689	28.0822	0.057446	0.002008	28.6066	58.5038	11.9563	0.035973	0.391603	-0.712281	-0.713636	0.039735	28.6066	-0.713322	-2.974289E+9	-1.335958E-11	NaN
1175	1.000000	0.402960	7.37654e+06	-56839.1	1105.82	-29737.8	0.000000	0.000000	6.402895	-0.010674	NaN	0.000000	0.001541	0.001736	28.0821	0.099861	0.002040	48.9474	-5.823602	-166.908	0.044490	0.401668	-0.702279	-0.703571	-0.010674	48.9474	-0.702115	-2.091287E+9	5.103894E-12	NaN
1175	1.000000	0.412950	7.37654e+06	-56839.1	1105.82	-29737.8	0.000000	0.000000	6.412883	-0.060624	NaN	0.000000	0.001543	0.001686	28.082	0.128780	0.002030	63.4497	165.508	13.6346	0.020323	0.411605	-0.692289	-0.693634	-0.060624	63.4497	-0.691572	-1.501083E+9	4.038693E-11	NaN
1175	1.000000	0.422947	7.37654e+06	-56839.1	1105.82	-29737.8	0.000000	0.000000	6.422879	-0.070130	NaN	0.000000	0.001564	0.001662	28.082	0.043542	0.002000	21.7742	126.267	-168.482	-0.170310	0.421640	-0.682292	-0.683599	-0.070130	21.7742	-0.679877	-1.038766E+9	6.751250E-11	NaN
1175	1.000000	0.432956	7.37654e+06	-56839.1	1105.82	-29737.8	0.000000	0.000000	6.432894	0.070213	NaN	0.000000	0.001557	0.001666	28.082	0.038134	0.001838	20.7445	-9.501437	16.9489	0.122882	0.431573	-0.672283	-0.673665	0.070213	20.7445	-0.674821	-8.858590E+8	-7.925976E-11	NaN
1175	1.000000	0.442986	7.37654e+06	-56839.1	1105.82	-29737.8	0.000000	0.000000	6.442919	-0.060726	NaN	0.000000	0.001551	0.001703	28.0822	0.030587	0.002115	14.4593	177.861	-167.877	-0.013675	0.441678	-0.662253	-0.663560	-0.060726	14.4593	-0.659103	-5.397377E+8	1.125098E-10	NaN
1175	1.000000	0.452982	7.37654e+06	-56839.1	1105.82	-29737.8	0.000000	0.000000	6.452919	0.038470	NaN	0.000000	0.001555	0.001717	28.0831	0.082115	0.001951	42.0823	162.877	14.0539	0.006769	0.451673	-0.652257	-0.653566	0.038470	42.0823	-0.652942	-4.443945E+8	-8.656720E-11	NaN
1175	1.000000	0.463000	7.37654e+06	-56839.1	1105.82	-29737.8	0.000000	0.000000	6.462935	-0.019348	NaN	0.000000	0.001559	0.001699	28.083	0.085709	0.001907	44.9433	3.996429	-164.854	-0.003895	0.461707	-0.642238	-0.643532	-0.019348	44.9433	-0.641916	-3.137403E+8	6.166859E-11	NaN
1175	1.000000	0.473005	7.37654e+06	-56839.1	1105.82	-29737.8	0.000000	0.000000	6.472941	0.009343	NaN	0.000000	0.001559	0.001702	28.0831	0.057854	0.002004	28.8629	-148.476	16.545	-0.012099	0.471604	-0.632234	-0.633635	0.009343	28.8629	-0.632476	-2.328235E+8	-4.013045E-11	NaN
1175	1.000000	0.482981	7.37654e+06	-56839.1	1105.82	-29737.8	0.000000	0.000000	6.482918	0.039960	NaN	0.000000	0.001573	0.001657	28.0829	0.046939	0.001977	23.747	-120.273	-168.926	-0.014018	0.481699	-0.622258	-0.623539	0.039960	23.747	-0.623520	-1.753902E+8	-2.278346E-10	NaN
1175	1.000000	0.492954	7.37654e+06	-56839.1	1105.82	-29737.8	0.000000	0.000000	6.492889	-0.006799	NaN	0.000000	0.001546	0.001685	28.0831	0.108668	0.002055	52.8841	-146.642	14.4073	0.053666	0.491636	-0.612285	-0.613603	-0.006799	52.8841	-0.612188	-1.225231E+8	5.549239E-11	NaN
1175	1.000000	0.502995	7.37654e+06	-56839.1	1105.82	-29737.8	0.000000	0.000000	6.502933	0.071377	NaN	0.000000	0.001565	0.001700	28.0831	0.068239	0.001895	36.0054	164.954	-165.708	0.026919	0.501690	-0.602244	-0.603549	0.071377	36.0054	-0.603731	-9.371968E+7	-7.616033E-10	NaN
1175	1.000000	0.512988	7.37654e+06	-56839.1	1105.82	-29737.8	0.000000	0.000000	6.512923	-0.011243	NaN	0.000000	0.001567	0.001670	28.083	0.060068	0.001994	30.1191	102.156	15.6405	-0.000590	0.511583	-0.592251	-0.593655	-0.011243	30.1191	-0.591971	-6.454086E+7	1.741983E-10	NaN
1175	1.000000	0.523003	7.37654e+06	-56839.1	1105.82	-29737.8	0.000000	0.000000	6.522936	-0.048862	NaN	0.000000	0.001564	0.001696	28.083	0.120565	0.001862	64.7426	-84.4877	-167.801	0.021489	0.521730	-0.582236	-0.583508	-0.048862	64.7426	-0.581670	-4.653398E+7	1.050031E-9	NaN
1175	1.000000	0.533006	7.37654e+06	-56839.1	1105.82	-29737.8	0.000000	0.000000	6.532939	-0.079418	NaN	0.000000	0.001545	0.001695	28.0829	0.165397	0.001943	85.1141	-96.9287	13.7843	-0.098879	0.531688	-0.572232	-0.573551	-0.079418	85.1141	-0.571532	-3.371355E+7	2.355675E-9	NaN
1175	1.000000	0.543027	7.37654e+06	-56839.1	1105.82	-29737.8	0.000000	0.000000	6.542962	-0.002205	NaN	0.000000	0.001526	0.001703	28.0832	0.054044	0.002033	26.5816	128.564	-163.286	0.001466	0.541710	-0.562212	-0.563529	-0.002205	26.5816	-0.562150	-2.500983E+7	8.815931E-11	NaN
1175	1.000000	0.553004	7.37654e+06	-56839.1	1105.82	-29737.8	0.000000	0.000000	6.552939	-0.005032	NaN	0.000000	0.001538	0.001715	28.0828	0.092095	0.001970	46.7569	124.418	9.880226	-0.003771	0.551646	-0.552235	-0.553593	-0.005032	46.7569	-0.552154	-1.818834E+7	2.766645E-10	NaN
1175	1.000000	0.563016	7.37654e+06	-56839.1	1105.82	-29737.8	0.000000	0.000000	6.562948	-0.092232	NaN	0.000000	0.001593	0.001754	28.0828	0.006511	0.002165	3.007910	-127.602	-167.774	-0.048636	0.561736	-0.542222	-0.543503	-0.092232	3.007910	-0.519225	-6.35065e+06	1.452325E-8	NaN
1175	1.000000	0.573043	7.37654e+06	-56839.1	1105.82	-29737.8	0.000000	0.000000	6.572978	-0.019936	NaN	0.000000	0.001549	0.001782	28.0829	0.130480	0.002064	63.2167	-160.093	14.9035	-0.080052	0.571645	-0.532196	-0.533593	-0.019936	63.2167	-0.531959	-9.54514e+06	2.088572E-9	NaN
1175	1.000000	0.583027	7.37654e+06	-56839.1	1105.82	-29737.8	0.000000	0.000000	6.582962	-0.005608	NaN	0.000000	0.001567	0.001736	28.0818	0.022920	0.002077	11.0338	-67.3204	-165.354	-0.026338	0.581770	-0.522212	-0.523469	-0.005608	11.0338	-0.521830	-6.90321e+06	8.123037E-10	NaN
1175	1.000000	0.593030	7.37654e+06	-56839.1	1105.82	-29737.8	0.000000	0.000000	6.592965	-0.015693	NaN	0.000000	0.001548	0.001772	28.0816	0.121213	0.001937	62.5685	-115.929	15.6967	0.041916	0.591679	-0.512209	-0.513560	-0.015693	62.5685	-0.512020	-5.04144e+06	3.112714E-9	NaN
1175	1.000000	0.603037	7.37654e+06	-56839.1	1105.82	-29737.8	0.000000	0.000000	6.602968	-0.095898	NaN	0.000000	0.001553	0.001722	28.0819	0.068590	0.001954	35.11	-162.377	-165.248	-0.085302	0.601693	-0.502202	-0.503546	-0.095898	35.11	-0.500154	-3.44478e+06	2.783854E-8	NaN
1175	1.000000	0.613071	7.37654e+06	-56839.1	1105.82	-29737.8	0.000000	0.000000	6.613004	-0.059018	NaN	0.000000	0.001558	0.001701	28.0817	0.023952	0.002061	11.62	23.3086	15.9296	-0.021796	0.611699	-0.492168	-0.493539	-0.059018	11.62	-0.488358	-2.35748e+06	2.503415E-8	NaN
1175	1.000000	0.623054	7.37654e+06	-56839.1	1105.82	-29737.8	0.000000	0.000000	6.622989	-0.009180	NaN	0.000000	0.001530	0.001749	28.0819	0.048711	0.001953	24.9364	9.744604	-165.321	0.057046	0.621705	-0.482185	-0.483533	-0.009180	24.9364	-0.481909	-1.91533e+06	4.792839E-9	NaN
1175	1.000000	0.633066	7.37654e+06	-56839.1	1105.82	-29737.8	0.000000	0.000000	6.633001	-0.011420	NaN	0.000000	0.001518	0.001706	28.0816	0.173037	0.001925	89.8853	123.777	15.507	-0.003711	0.631683	-0.472172	-0.473556	-0.011420	89.8853	-0.472077	-1.39486e+06	8.187093E-9	NaN
1175	1.000000	0.643046	7.37654e+06	-56839.1	1105.82	-29737.8	0.000000	0.000000	6.642979	-0.061118	NaN	0.000000	0.001487	0.001705	28.082	0.093856	0.001998	46.9789	-169.74	-166.72	-0.032814	0.641769	-0.462193	-0.463470	-0.061118	46.9789	-0.461217	-982020	6.223709E-8	NaN
1175	1.000000	0.653067	7.37654e+06	-56839.1	1105.82	-29737.8	0.000000	0.000000	6.653001	-0.032594	NaN	0.000000	0.001495	0.001716	28.0821	0.029600	0.001957	15.1246	-54.0887	15.989	0.001175	0.651717	-0.452172	-0.453522	-0.032594	15.1246	-0.450556	-695289	4.687798E-8	NaN
1175	1.000000	0.663093	7.37654e+06	-56839.1	1105.82	-29737.8	0.000000	0.000000	6.663029	0.012794	NaN	0.000000	0.001471	0.001733	28.0831	0.062021	0.001973	31.4393	-109.047	-169.062	-0.005353	0.661748	-0.442146	-0.443491	0.012794	31.4393	-0.442451	-534500	-2.393631E-8	NaN
1175	1.000000	0.673080	7.37654e+06	-56839.1	1105.82	-29737.8	0.000000	0.000000	6.673013	-0.062402	NaN	0.000000	0.001550	0.001732	28.0841	0.043057	0.001913	22.5018	-68.949	15.6073	-0.070673	0.671716	-0.432159	-0.433523	-0.062402	22.5018	-0.430079	-357417	1.745924E-7	NaN
1175	1.000000	0.683074	7.37654e+06	-56839.1	1105.82	-29737.8	0.000000	0.000000	6.683010	0.012647	NaN	0.000000	0.001594	0.001732	28.0821	0.064599	0.002107	30.6629	139.689	-164.988	0.065041	0.681699	-0.422165	-0.423539	0.012647	30.6629	-0.422474	-278932	-4.534090E-8	NaN
1175	1.000000	0.693067	7.37654e+06	-56839.1	1105.82	-29737.8	0.000000	0.000000	6.693003	0.016080	NaN	0.000000	0.001607	0.001707	28.0821	0.007154	0.002035	3.515038	-60.7868	14.1154	0.021701	0.691770	-0.412172	-0.413469	0.016080	3.515038	-0.415603	-222852	-7.215555E-8	NaN
1175	1.000000	0.703087	7.37654e+06	-56839.1	1105.82	-29737.8	0.000000	0.000000	6.703022	-0.025855	NaN	0.000000	0.001592	0.001740	28.0818	0.040121	0.001882	21.3174	-38.4629	-169.605	0.044273	0.701740	-0.402152	-0.403499	-0.025855	21.3174	-0.401242	-139220	1.857114E-7	NaN
1175	1.000000	0.713091	7.37654e+06	-56839.1	1105.82	-29737.8	0.000000	0.000000	6.713027	0.008758	NaN	0.000000	0.001590	0.001719	28.0818	0.108677	0.002133	50.9506	-18.237	13.0919	0.019218	0.711715	-0.392148	-0.393524	0.008758	50.9506	-0.392277	-103687	-8.446302E-8	NaN
1175	1.000000	0.723107	7.37654e+06	-56839.1	1105.82	-29737.8	0.000000	0.000000	6.723043	0.012865	NaN	0.000000	0.001584	0.001731	28.0829	0.010312	0.001914	5.386789	154.528	-162.551	-0.002316	0.721794	-0.382131	-0.383444	0.012865	5.386789	-0.383923	-78731.4	-1.634032E-7	NaN
1175	1.000000	0.733128	7.37654e+06	-56839.1	1105.82	-29737.8	0.000000	0.000000	6.733063	-0.020166	NaN	0.000000	0.001586	0.001685	28.0829	0.055058	0.001909	28.8471	110.923	14.605	0.076617	0.731764	-0.372111	-0.373474	-0.020166	28.8471	-0.371586	-52356.3	3.851698E-7	NaN
1175	1.000000	0.743121	7.37654e+06	-56839.1	1105.82	-29737.8	0.000000	0.000000	6.743056	-0.015924	NaN	0.000000	0.001625	0.001730	28.0828	0.075168	0.001857	40.4836	144.912	-166.823	-0.014697	0.741765	-0.362118	-0.363474	-0.015924	40.4836	-0.361823	-37860.3	4.205934E-7	NaN
1175	1.000000	0.753115	7.37654e+06	-56839.1	1105.82	-29737.8	0.000000	0.000000	6.753050	-0.014844	NaN	0.000000	0.001584	0.001737	28.0826	0.060101	0.002039	29.4814	75.6297	15.5814	0.015384	0.751717	-0.352123	-0.353522	-0.014844	29.4814	-0.351746	-27060.1	5.485752E-7	NaN
1175	1.000000	0.763120	7.37654e+06	-56839.1	1105.82	-29737.8	0.000000	0.000000	6.763055	0.004353	NaN	0.000000	0.001612	0.001741	28.0829	0.091737	0.002027	45.2524	-40.8651	-163.136	0.022266	0.761814	-0.342119	-0.343424	0.004353	45.2524	-0.342191	-19655.3	-2.214534E-7	NaN
1175	1.000000	0.773099	7.37654e+06	-56839.1	1105.82	-29737.8	0.000000	0.000000	6.773036	0.026185	NaN	0.000000	0.001649	0.001723	28.0829	0.042267	0.001966	21.5039	-31.7727	15.2359	0.072374	0.771775	-0.332140	-0.333463	0.026185	21.5039	-0.333053	-14458.6	-1.811036E-6	NaN
1175	1.000000	0.783096	7.37654e+06	-56839.1	1105.82	-29737.8	0.000000	0.000000	6.783031	-0.021387	NaN	0.000000	0.001631	0.001744	28.0828	0.068589	0.001883	36.4335	105.086	-170.252	0.004186	0.781784	-0.322142	-0.323455	-0.021387	36.4335	-0.321702	-9855.53	2.170047E-6	NaN
1175	1.000000	0.793123	7.37654e+06	-56839.1	1105.82	-29737.8	0.000000	0.000000	6.793058	-0.011888	NaN	0.000000	0.001628	0.001746	28.0828	0.028987	0.002008	14.4373	73.584	14.5738	-0.050356	0.791722	-0.312116	-0.313517	-0.011888	14.4373	-0.311498	-6969.75	1.705601E-6	NaN
1175	1.000000	0.803168	7.37654e+06	-56839.1	1105.82	-29737.8	0.000000	0.000000	6.803106	0.057378	NaN	0.000000	0.001589	0.001724	28.083	0.055722	0.001950	28.5824	87.8478	-163.54	-0.050365	0.801810	-0.302071	-0.303428	0.057378	28.5824	-0.303576	-5318.8	-1.078774E-5	NaN
1175	1.000000	0.813127	7.37654e+06	-56839.1	1105.82	-29737.8	0.000000	0.000000	6.813063	-0.004326	NaN	0.000000	0.001609	0.001769	28.0831	0.144399	0.001842	78.414	-93.309	15.995	0.024086	0.811744	-0.292111	-0.293495	-0.004326	78.414	-0.292070	-3583.38	1.207157E-6	NaN
1175	1.000000	0.823122	7.37654e+06	-56839.1	1105.82	-29737.8	0.000000	0.000000	6.823060	0.064393	NaN	0.000000	0.001597	0.001747	28.0829	0.061421	0.002110	29.1049	75.0131	-165.006	0.059784	0.821850	-0.282117	-0.283389	0.064393	29.1049	-0.283776	-2690.7	-2.393186E-5	NaN
1175	1.000000	0.833122	7.37655e+06	-56839.1	1105.82	-29737.8	0.000000	0.000000	6.833056	-0.041032	NaN	0.000000	0.001574	0.001733	28.083	0.123151	0.001945	63.3037	-94.8499	14.8295	0.035322	0.831769	-0.272116	-0.273470	-0.041032	63.3037	-0.271630	-1763.24	2.327062E-5	NaN
1175	1.000000	0.843126	7.37655e+06	-56839.1	1105.82	-29737.8	0.000000	0.000000	6.843062	0.015065	NaN	0.000000	0.001598	0.001773	28.0831	0.054446	0.002001	27.2131	-60.4598	-164.574	-0.087145	0.841826	-0.262113	-0.263413	0.015065	27.2131	-0.262528	-1281.23	-1.175810E-5	NaN
1175	1.000000	0.853136	7.37655e+06	-56839.1	1105.82	-29737.8	0.000000	0.000000	6.853070	-0.049934	NaN	0.000000	0.001581	0.001764	28.0826	0.161866	0.002029	79.7803	-143.21	13.6881	-0.033606	0.851752	-0.252103	-0.253487	-0.049934	79.7803	-0.251633	-871.373	5.730509E-5	NaN
1175	1.000000	0.863150	7.37655e+06	-56839.1	1105.82	-29737.8	0.000000	0.000000	6.863087	0.040461	NaN	0.000000	0.001551	0.001753	28.0815	0.041014	0.002060	19.9126	63.4595	-167.795	0.027294	0.861869	-0.242089	-0.243369	0.040461	19.9126	-0.243613	-654.449	-6.182380E-5	NaN
1175	1.000000	0.873169	7.37655e+06	-56839.1	1105.82	-29737.8	0.000000	0.000000	6.873107	0.058251	NaN	0.000000	0.001582	0.001763	28.0817	0.096320	0.002078	46.3628	-124.573	11.6334	0.063207	0.871768	-0.232070	-0.233471	0.058251	46.3628	-0.233012	-446.682	-0.000130	NaN
1175	1.000000	0.883179	7.37655e+06	-56839.1	1105.82	-29737.8	0.000000	0.000000	6.883117	0.071593	NaN	0.000000	0.001516	0.001752	28.0816	0.101031	0.001892	53.3971	-171.931	-165.724	0.106494	0.881831	-0.222060	-0.223408	0.071593	53.3971	-0.223065	-310.864	-0.000230	NaN
1175	1.000000	0.893175	7.37655e+06	-56839.1	1105.82	-29737.8	0.000000	0.000000	6.893110	-0.005015	NaN	0.000000	0.001540	0.001761	28.0814	0.024389	0.002017	12.0921	-139.07	16.1652	-0.000833	0.891780	-0.212064	-0.213459	-0.005015	12.0921	-0.211753	-204.724	2.449840E-5	NaN
1175	1.000000	0.903165	7.37655e+06	-56839.1	1105.82	-29737.8	0.000000	0.000000	6.903101	0.023370	NaN	0.000000	0.001549	0.001757	28.0813	0.045264	0.001995	22.69	12.0594	-164.891	-0.112534	0.901844	-0.202074	-0.203395	0.023370	22.69	-0.202846	-146.682	-0.000159	NaN
1175	1.000000	0.913167	7.37655e+06	-56839.1	1105.82	-29737.8	0.000000	0.000000	6.913099	-0.090796	NaN	0.000000	0.001525	0.001735	28.0816	0.107383	0.001964	54.6891	24.0681	16.3517	-0.068448	0.911801	-0.192072	-0.193437	-0.090796	54.6891	-0.190826	-92.8591	0.000978	NaN
1175	1.000000	0.923150	7.37655e+06	-56839.1	1105.82	-29737.8	0.000000	0.000000	6.923086	0.013689	NaN	0.000000	0.001557	0.001769	28.0816	0.072890	0.001957	37.2422	-4.244647	-164.673	-0.045959	0.921871	-0.182089	-0.183368	0.013689	37.2422	-0.182365	-66.9281	-0.000205	NaN
1175	1.000000	0.933162	7.37655e+06	-56839.1	1105.82	-29737.8	0.000000	0.000000	6.933096	-0.038940	NaN	0.000000	0.001571	0.001764	28.0816	0.031491	0.001998	15.7609	136.538	17.1349	-0.028912	0.931804	-0.172077	-0.173435	-0.038940	15.7609	-0.170224	-41.4475	0.000939	NaN
1175	1.000000	0.943184	7.37655e+06	-56839.1	1105.82	-29737.8	0.000000	0.000000	6.943119	8.577217E-5	NaN	0.000000	0.001554	0.001705	28.0816	0.080371	0.001941	41.4026	-67.3035	-166.684	-0.000783	0.941860	-0.162055	-0.163379	8.577217E-5	41.4026	-0.162057	-29.8154	-2.876772E-6	NaN
1175	1.000000	0.953200	7.37655e+06	-56839.1	1105.82	-29737.8	0.000000	0.000000	6.953135	-0.006206	NaN	0.000000	0.001539	0.001712	28.0818	0.029001	0.001930	15.0261	76.6187	12.3775	0.070867	0.951817	-0.152039	-0.153421	-0.006206	15.0261	-0.151729	-19.4742	0.000319	NaN
1175	1.000000	0.963211	7.37655e+06	-56839.1	1105.82	-29737.8	0.000000	0.000000	6.963147	0.026683	NaN	0.000000	0.001528	0.001697	28.0816	0.108676	0.002085	52.1196	165.109	-164.241	0.030713	0.961894	-0.142028	-0.143345	0.026683	52.1196	-0.142412	-13.125	-0.002033	NaN
1175	1.000000	0.973228	7.37655e+06	-56839.1	1105.82	-29737.8	0.000000	0.000000	6.973163	-0.017897	NaN	0.000000	0.001533	0.001741	28.0817	0.064292	0.001972	32.6023	-32.7439	13.5813	-0.099716	0.971853	-0.132011	-0.133386	-0.017897	32.6023	-0.131599	-8.184394	0.002187	NaN
1175	1.000000	0.983196	7.37655e+06	-56839.1	1105.82	-29737.8	0.000000	0.000000	6.983131	-0.018202	NaN	0.000000	0.001524	0.001751	28.0817	0.008567	0.001952	4.389713	165.303	-167.517	-0.079180	0.981855	-0.122043	-0.123384	-0.018202	4.389713	-0.118933	-4.597274	0.003959	NaN
1175	1.000000	0.993190	7.37655e+06	-56839.1	1105.82	-29737.8	0.000000	0.000000	6.993126	0.001163	NaN	0.000000	0.001583	0.001716	28.083	0.113990	0.001930	59.0564	138.828	14.2697	-0.031865	0.991841	-0.112048	-0.113398	0.001163	59.0564	-0.112063	-3.320213	-0.000350	NaN
1175	1.000000	1.003191	7.37655e+06	-56839.1	1105.82	-29737.8	0.000000	0.000000	7.003127	0.014003	NaN	0.000000	0.001556	0.001700	28.083	0.037204	0.002035	18.2828	81.3757	-165.402	-0.010425	1.001916	-0.102048	-0.103323	0.014003	18.2828	-0.102622	-2.086918	-0.006710	NaN
1175	1.000000	1.013228	7.37655e+06	-56839.1	1105.82	-29737.8	0.000000	0.000000	7.013162	-0.038629	NaN	0.000000	0.001555	0.001704	28.0828	0.108842	0.002031	53.5986	110.358	13.7564	0.009338	1.011817	-0.092011	-0.093422	-0.038629	53.5986	-0.091470	-1.169952	0.033017	NaN
1175	1.000000	1.023215	7.37655e+06	-56839.1	1105.82	-29737.8	0.000000	0.000000	7.023147	-0.076217	NaN	0.000000	0.001593	0.001719	28.0833	0.115079	0.002031	56.6649	108.277	-162.656	-0.069649	1.021969	-0.082024	-0.083270	-0.076217	56.6649	-0.081015	-0.656119	0.116164	NaN
1175	1.000000	1.033182	7.37655e+06	-56839.1	1105.82	-29737.8	0.000000	0.000000	7.033118	0.011126	NaN	0.000000	0.001549	0.001701	28.083	0.051997	0.002010	25.8728	-20.5877	12.0072	0.008964	1.031870	-0.072056	-0.073369	0.011126	25.8728	-0.072379	-0.394537	-0.028201	NaN
1175	1.000000	1.043227	7.37655e+06	-56839.1	1105.82	-29737.8	0.000000	0.000000	7.043163	0.014559	NaN	0.000000	0.001561	0.001677	28.0829	0.063515	0.002070	30.6774	174.153	-166.733	-0.039347	1.041896	-0.062012	-0.063342	0.014559	30.6774	-0.062368	-0.210330	-0.069219	NaN
1175	1.000000	1.053254	7.37655e+06	-56839.1	1105.82	-29737.8	0.000000	0.000000	7.053189	-0.009689	NaN	0.000000	0.001558	0.001677	28.0826	0.060705	0.002006	30.2547	157.619	17.1721	0.009953	1.051878	-0.051985	-0.053361	-0.009689	30.2547	-0.051745	-0.102998	0.094072	NaN
1175	1.000000	1.063222	7.37655e+06	-56839.1	1105.82	-29737.8	0.000000	0.000000	7.063159	0.021917	NaN	0.000000	0.001556	0.001685	28.0829	0.043285	0.001974	21.9223	60.017	-165.78	-0.017908	1.061918	-0.042017	-0.043321	0.021917	21.9223	-0.042766	-0.054915	-0.399115	NaN
1175	1.000000	1.073224	7.37655e+06	-56839.1	1105.82	-29737.8	0.000000	0.000000	7.073159	-0.024404	NaN	0.000000	0.001534	0.001709	28.0826	0.083928	0.001847	45.4419	137.045	13.9277	0.025801	1.071898	-0.032014	-0.033341	-0.024404	45.4419	-0.031612	-0.025547	0.955257	NaN
1175	1.000000	1.083228	7.37655e+06	-56839.1	1105.82	-29737.8	0.000000	0.000000	7.083164	0.024014	NaN	0.000000	0.001532	0.001688	28.0828	0.009623	0.001980	4.859869	-111.965	-167.419	0.017611	1.081996	-0.022011	-0.023243	0.024014	4.859869	-0.025717	-0.017617	-1.363104	NaN
1175	1.000000	1.093260	7.37655e+06	-56839.1	1105.82	-29737.8	0.000000	0.000000	7.093196	0.021076	NaN	0.000000	0.001519	0.001687	28.0828	0.035853	0.002110	16.9928	-145.523	12.3011	-0.055272	1.091840	-0.011979	-0.013399	0.021076	16.9928	-0.012909	-0.008050	-2.618088	NaN
1175	1.000000	1.103243	7.37655e+06	-56839.1	1105.82	-29737.8	0.000000	0.000000	7.103235	1.384770	NaN	0.000000	0.001559	0.001677	28.0828	1.446336	0.002046	706.998	15.9138	-168.451	1.293120	1.101929	-0.001996	-0.003310	1.384770	706.998	-0.003465	-0.002429	-570.034	NaN
1175	2.000000	1.110364	7.37655e+06	-56839.1	1105.82	-29737.8	0.000000	0.000000	7.110719	10.1938	NaN	0.000000	0.001580	0.001697	28.0831	10.4655	0.001632	6410.76	10.0452	4.172802	9.309692	1.110015	0.005126	0.004777	10.1938	6410.76	0.003933	0.003180	3205.1	103857
1175	2.000000	1.112862	7.37655e+06	-56839.1	1105.82	-29737.8	0.000000	0.000000	7.113381	14.1792	NaN	0.000000	0.001541	0.001709	28.0843	13.8839	0.001709	8123.94	7.484545	-175.358	13.7282	1.112571	0.007624	0.007332	14.1792	8123.94	0.006315	0.005365	2642.72	101330
1175	2.000000	1.115345	7.37655e+06	-56839.1	1105.82	-29737.8	0.000000	0.000000	7.116136	20.7996	NaN	0.000000	0.001539	0.001714	28.0828	16.5663	0.001690	9801.46	7.087219	5.193027	19.1031	1.114954	0.010106	0.009716	20.7996	9801.46	0.008515	0.007577	2745.02	102875
1175	2.000000	1.117858	7.37655e+06	-56839.1	1105.82	-29737.8	0.000000	0.000000	7.118812	24.7653	NaN	0.000000	0.001564	0.001713	28.0827	19.6402	0.001662	11819.1	9.620076	179.199	24.7579	1.117492	0.012619	0.012254	24.7653	11819.1	0.011048	0.010369	2388.31	106043
1175	2.000000	1.120318	7.37655e+06	-56839.1	1105.82	-29737.8	0.000000	0.000000	7.121471	29.5883	NaN	0.000000	0.001536	0.001714	28.0814	22.6397	0.001767	12814.3	10.0394	-1.879603	29.3346	1.119974	0.015080	0.014736	29.5883	12814.3	0.013348	0.013145	2250.95	102115
1175	2.000000	1.122842	7.37655e+06	-56839.1	1105.82	-29737.8	0.000000	0.000000	7.124175	33.9753	NaN	0.000000	0.001555	0.001718	28.0822	25.8328	0.001803	14326.4	9.492676	177.873	35.8371	1.122578	0.017603	0.017339	33.9753	14326.4	0.015825	0.016401	2071.59	102207
1175	2.000000	1.125348	7.37655e+06	-56839.1	1105.82	-29737.8	0.000000	0.000000	7.127065	43.3078	NaN	0.000000	0.001569	0.001773	28.0817	27.4473	0.001731	15853.2	5.560081	1.619078	43.2179	1.124908	0.020109	0.019670	43.3078	15853.2	0.018061	0.019586	2211.18	103495
1175	2.000000	1.127790	7.37655e+06	-56839.1	1105.82	-29737.8	0.000000	0.000000	7.129915	53.2052	NaN	0.000000	0.001550	0.001762	28.0819	30.0592	0.001775	16931	2.921619	-176.655	52.3916	1.127433	0.022552	0.022194	53.2052	16931	0.020195	0.022849	2328.54	102334
1175	2.000000	1.130283	7.37655e+06	-56839.1	1105.82	-29737.8	0.000000	0.000000	7.132592	57.6901	NaN	0.000000	0.001577	0.001705	28.0816	33.3099	0.001689	19725.4	6.542666	-2.883330	56.7566	1.129995	0.025044	0.024756	57.6901	19725.4	0.022851	0.027221	2119.31	109231
1175	2.000000	1.132811	7.37655e+06	-56839.1	1105.82	-29737.8	0.000000	0.000000	7.135638	70.2584	NaN	0.000000	0.001604	0.001722	28.0818	37.3034	0.001859	20065.1	6.243325	178.468	69.5622	1.132407	0.027573	0.027168	70.2584	20065.1	0.024947	0.030919	2272.36	104257
1175	2.000000	1.135297	7.37655e+06	-56839.1	1105.82	-29737.8	0.000000	0.000000	7.138536	80.2984	NaN	0.000000	0.001625	0.001676	28.0819	38.8271	0.001719	22588.5	4.866794	-0.900120	78.8434	1.134882	0.030058	0.029644	80.2984	22588.5	0.027392	0.035511	2261.22	109516
1175	2.000000	1.137761	7.37655e+06	-56839.1	1105.82	-29737.8	0.000000	0.000000	7.141381	89.5624	NaN	0.000000	0.001633	0.001686	28.0827	41.366	0.001731	23899.2	3.886248	178.085	87.4909	1.137455	0.032522	0.032216	89.5624	23899.2	0.029711	0.040148	2230.83	108975
1175	2.000000	1.140303	7.37655e+06	-56839.1	1105.82	-29737.8	0.000000	0.000000	7.144425	101.757	NaN	0.000000	0.001620	0.001729	28.0816	44.758	0.001843	24287.3	4.757361	-1.647147	100.979	1.139933	0.035064	0.034694	101.757	24287.3	0.031922	0.044822	2270.24	104811
1175	2.000000	1.142767	7.37655e+06	-56839.1	1105.82	-29737.8	0.000000	0.000000	7.147438	115.115	NaN	0.000000	0.001643	0.001662	28.0819	48.1454	0.001927	24986	8.788576	173.417	113.996	1.142411	0.037528	0.037173	115.115	24986	0.034073	0.049609	2320.47	102492
1175	2.000000	1.145236	7.37655e+06	-56839.1	1105.82	-29737.8	0.000000	0.000000	7.150482	129.082	NaN	0.000000	0.001648	0.001674	28.0816	49.2646	0.001850	26626.7	6.192540	-3.702602	125.383	1.144913	0.039997	0.039674	129.082	26626.7	0.036362	0.054964	2348.49	103765
1175	2.000000	1.147724	7.37655e+06	-56839.1	1105.82	-29737.8	0.000000	0.000000	7.153498	141.907	NaN	0.000000	0.001613	0.001653	28.0828	51.3555	0.001711	30012.1	6.519663	175.015	140.223	1.147378	0.042485	0.042139	141.907	30012.1	0.038939	0.061315	2314.39	110735
1175	2.000000	1.150228	7.37655e+06	-56839.1	1105.82	-29737.8	0.000000	0.000000	7.156499	153.993	NaN	0.000000	0.001599	0.001664	28.083	53.87	0.001737	31019.1	4.321100	-3.683461	150.228	1.149962	0.044989	0.044724	153.993	31019.1	0.041266	0.067341	2286.75	109210
1175	2.000000	1.152711	7.37655e+06	-56839.1	1105.82	-29737.8	0.000000	0.000000	7.159615	169.362	NaN	0.000000	0.001530	0.001701	28.0831	57.2653	0.001714	33418	1.963023	178.266	166.228	1.152496	0.047473	0.047257	169.362	33418	0.043672	0.073861	2292.99	112343
1175	2.000000	1.155248	7.37655e+06	-56839.1	1105.82	-29737.8	0.000000	0.000000	7.162811	185.384	NaN	0.000000	0.001587	0.001706	28.083	59.7751	0.001834	32597.8	5.664455	-5.253755	182.187	1.154965	0.050009	0.049726	185.384	32597.8	0.045744	0.079713	2325.63	105486
1175	2.000000	1.157746	7.37655e+06	-56839.1	1105.82	-29737.8	0.000000	0.000000	7.165747	196.046	NaN	0.000000	0.001582	0.001701	28.0829	61.5226	0.001903	32321.4	2.221225	178.509	195.894	1.157378	0.052507	0.052139	196.046	32321.4	0.047958	0.086206	2274.16	100576
1175	2.000000	1.160275	7.37655e+06	-56839.1	1105.82	-29737.9	0.000000	0.000000	7.168686	206.02	NaN	0.000000	0.001598	0.001693	28.083	65.5773	0.001836	35724.3	6.098300	-6.729037	204.841	1.159854	0.055036	0.054615	206.02	35724.3	0.050711	0.094623	2177.27	106106
1175	2.000000	1.162769	7.37655e+06	-56839.1	1105.82	-29737.9	0.000000	0.000000	7.171604	216.314	NaN	0.000000	0.001592	0.001673	28.0831	67.6337	0.001767	38276.5	3.574500	174.775	217.277	1.162533	0.057530	0.057294	216.314	38276.5	0.053291	0.102858	2103.04	109040
1175	2.000000	1.165261	7.37655e+06	-56839.1	1105.82	-29737.9	0.000000	0.000000	7.174911	236.109	NaN	0.000000	0.001549	0.001671	28.0826	69.0781	0.001789	38610	2.180911	-3.614213	233.782	1.164916	0.060022	0.059677	236.109	38610	0.055436	0.109953	2147.36	106382
1175	2.000000	1.167812	7.37655e+06	-56839.1	1105.82	-29737.9	0.000000	0.000000	7.177934	247.601	NaN	0.000000	0.001593	0.001721	28.0827	71.2475	0.001682	42349.2	7.164088	170.85	251.693	1.167425	0.062573	0.062186	247.601	42349.2	0.058188	0.119392	2073.85	111977
1175	2.000000	1.170204	7.37655e+06	-56839.1	1105.82	-29737.9	0.000000	0.000000	7.181116	266.78	NaN	0.000000	0.001543	0.001711	28.0826	72.883	0.001868	39009.8	3.114909	-3.973167	264.217	1.169913	0.064966	0.064674	266.78	39009.8	0.059836	0.125223	2130.45	100718
1175	2.000000	1.172765	7.37655e+06	-56839.1	1105.82	-29737.9	0.000000	0.000000	7.184326	282.564	NaN	0.000000	0.001666	0.001726	28.0829	75.3458	0.001800	41859.1	3.966342	174.873	283.223	1.172489	0.067526	0.067250	282.564	41859.1	0.062463	0.134789	2096.35	104168
1175	2.000000	1.175150	7.37655e+06	-56839.1	1105.82	-29737.9	0.000000	0.000000	7.187714	306.949	NaN	0.000000	0.001656	0.001704	28.0828	76.2256	0.001760	43319.8	3.835500	-4.856835	301.835	1.174846	0.069911	0.069607	306.949	43319.8	0.064597	0.142807	2149.4	104733
1175	2.000000	1.177679	7.37655e+06	-56839.1	1105.82	-29737.9	0.000000	0.000000	7.190998	325.292	NaN	0.000000	0.001641	0.001713	28.0828	79.4464	0.001818	43703.8	6.999197	171.047	322.088	1.177342	0.072440	0.072103	325.292	43703.8	0.066858	0.151541	2146.56	102572
1175	2.000000	1.180238	7.37655e+06	-56839.1	1105.82	-29737.9	0.000000	0.000000	7.194166	340.101	NaN	0.000000	0.001609	0.001698	28.0829	81.8689	0.001842	44435.3	2.985721	-4.896215	337.339	1.179841	0.074999	0.074602	340.101	44435.3	0.069259	0.161087	2111.29	101151
1175	2.000000	1.182688	7.37655e+06	-56839.1	1105.82	-29737.9	0.000000	0.000000	7.197333	357.515	NaN	0.000000	0.001635	0.001717	28.0815	84.9154	0.001736	48921.2	5.057147	172.228	356.454	1.182433	0.077450	0.077194	357.515	48921.2	0.071969	0.172189	2076.3	107713
1175	2.000000	1.185158	7.37655e+06	-56839.1	1105.82	-29737.9	0.000000	0.000000	7.200822	382.292	NaN	0.000000	0.001631	0.001705	28.0815	87.2828	0.001732	50382	7.947120	-10.7197	377.805	1.184900	0.079919	0.079662	382.292	50382	0.074228	0.181713	2103.82	107983
1175	2.000000	1.187748	7.37655e+06	-56839.1	1105.82	-29737.9	0.000000	0.000000	7.203972	395.907	NaN	0.000000	0.001612	0.001683	28.0815	88.1125	0.001730	50922.5	0.688018	176.471	394.832	1.187436	0.082509	0.082197	395.907	50922.5	0.076678	0.192308	2058.71	106092
1175	2.000000	1.190199	7.37655e+06	-56839.1	1105.82	-29737.9	0.000000	0.000000	7.207436	420.53	NaN	0.000000	0.001580	0.001731	28.0817	92.8967	0.001921	48349.8	2.299103	-4.585634	417.017	1.189785	0.084961	0.084547	420.53	48349.8	0.078437	0.200093	2101.67	98753.2
1175	2.000000	1.192699	7.37655e+06	-56839.1	1105.82	-29737.9	0.000000	0.000000	7.210540	435.197	NaN	0.000000	0.001543	0.001704	28.0815	96.1229	0.001958	49095.4	6.465241	170.794	434.242	1.192307	0.087460	0.087068	435.197	49095.4	0.080812	0.210829	2064.21	97689.6
1175	2.000000	1.195330	7.37655e+06	-56839.1	1105.82	-29737.9	0.000000	0.000000	7.214003	455.427	NaN	0.000000	0.001535	0.001709	28.0815	96.9797	0.001747	55519.8	8.002177	-10.8787	460.165	1.194793	0.090092	0.089555	455.427	55519.8	0.083939	0.225368	2020.81	106850
1175	2.000000	1.197623	7.37655e+06	-56839.1	1105.82	-29737.9	0.000000	0.000000	7.217590	486.878	NaN	0.000000	0.001569	0.001679	28.0816	96.3386	0.001837	52448.6	0.368237	176.708	482.565	1.197316	0.092384	0.092078	486.878	52448.6	0.085422	0.232418	2094.84	99396.7
1175	2.000000	1.200226	7.37655e+06	-56839.1	1105.82	-29737.9	0.000000	0.000000	7.220744	500.26	NaN	0.000000	0.001562	0.001702	28.0816	100.467	0.001776	56557.7	4.362074	-7.929650	500.081	1.199832	0.094987	0.094593	500.26	56557.7	0.088354	0.246659	2028.15	104044
1175	2.000000	1.202694	7.37655e+06	-56839.1	1105.82	-29737.9	0.000000	0.000000	7.223701	512.163	NaN	0.000000	0.001564	0.001673	28.0814	103.706	0.001835	56529.9	3.276876	173.053	512.772	1.202485	0.097455	0.097246	512.163	56529.9	0.090660	0.258141	1984.04	101654
1175	2.000000	1.205252	7.37655e+06	-56839.1	1105.82	-29737.9	0.000000	0.000000	7.227302	537.515	NaN	0.000000	0.001585	0.001700	28.0827	104.392	0.001758	59384.7	0.718067	-4.359451	536.881	1.204915	0.100013	0.099677	537.515	59384.7	0.093225	0.271193	1982.04	104186
1175	2.000000	1.207567	7.37655e+06	-56839.1	1105.82	-29737.9	0.000000	0.000000	7.230628	562.085	NaN	0.000000	0.001545	0.001713	28.0816	107.245	0.001856	57786.3	3.705151	172.527	554.458	1.207324	0.102328	0.102085	562.085	57786.3	0.095033	0.280577	2003.32	99671.9