File: remote_trans/data/nanoindenter/0828-1/data/Data_2025-08-06,11h17m57s/2025-07-22_16-23-58_1_172.txt
2025-07-22, 16:23:58, 1
Index	Phase	Displacement	Time	Pos X	Pos Y	Pos Z	Rot A	Rot B	Piezo Z	Force A	Force B	Gripper	Voltage A	Voltage B	Temperature	Amplitude force	Amplitude pos	Stiffness	Phase shift	Phase excitation	Force A raw	Displacement raw	HMax	HMax raw	Real Force	Real Stiffness	Contact Depth	Area	Hardness	Reduced Mod.
[#]	[#]	[um]	[s]	[um]	[um]	[um]	[m°]	[m°]	[um]	[uN]	[uN]	[V]	[V]	[V]	[°C]	[uN]	[um]	[N/m]	[°]	[°]	[uN]	[um]	[um]	[um]	[uN]	[N/m]	[um]	[um^2]	[MPa]	[MPa]
172	1.000000	0.002209	7.36672e+06	-47239.1	955.818	-29767.2	0.000000	0.000000	6.002837	0.015290	NaN	0.000000	0.001546	0.001734	28.0812	0.048285	0.000976	49.491	61.8581	-171.654	0.027047	0.000881	-0.954186	-0.955515	0.015290	49.491	-0.954418	-5.515746E+12	-2.772079E-15	NaN
172	1.000000	0.010170	7.36672e+06	-47239.1	955.818	-29767.2	0.000000	0.000000	6.010801	0.098027	NaN	0.000000	0.001569	0.001744	28.0809	0.058273	0.001017	57.3251	162.214	-161.708	0.163241	0.008842	-0.946226	-0.947553	0.098027	57.3251	-0.947508	-4.450643E+12	-2.202543E-14	NaN
172	1.000000	0.018143	7.36672e+06	-47239.1	955.819	-29767.2	0.000000	0.000000	6.018770	0.006955	NaN	0.000000	0.001591	0.001741	28.0811	0.034208	0.001558	21.9601	152.385	-165.867	0.011555	0.016805	-0.938252	-0.939591	0.006955	21.9601	-0.938490	-3.363296E+12	-2.068016E-15	NaN
172	1.000000	0.026187	7.36672e+06	-47239.1	955.817	-29767.2	0.000000	0.000000	6.026812	-0.045250	NaN	0.000000	0.001578	0.001746	28.0822	0.116394	0.001817	64.0739	152.498	-160.784	-0.033920	0.024812	-0.930209	-0.931584	-0.045250	64.0739	-0.929679	-2.557812E+12	1.769097E-14	NaN
172	1.000000	0.034138	7.36672e+06	-47239.1	955.818	-29767.2	0.000000	0.000000	6.034764	-0.006198	NaN	0.000000	0.001594	0.001733	28.0817	0.088315	0.001908	46.2815	-41.924	-162.811	0.008242	0.032790	-0.922258	-0.923605	-0.006198	46.2815	-0.922157	-2.024569E+12	3.061529E-15	NaN
172	1.000000	0.042154	7.36672e+06	-47239.1	955.818	-29767.2	0.000000	0.000000	6.042780	-0.022664	NaN	0.000000	0.001556	0.001738	28.085	0.038168	0.002082	18.3316	78.9748	-165.775	-0.037525	0.040919	-0.914242	-0.915476	-0.022664	18.3316	-0.913314	-1.537891E+12	1.473732E-14	NaN
172	1.000000	0.050146	7.36672e+06	-47239.1	955.819	-29767.2	0.000000	0.000000	6.050771	-0.039339	NaN	0.000000	0.001564	0.001740	28.0832	0.019674	0.001991	9.879885	-133.832	-167.213	-0.029048	0.048781	-0.906250	-0.907614	-0.039339	9.879885	-0.903263	-1.125021E+12	3.496727E-14	NaN
172	1.000000	0.058146	7.36672e+06	-47239.1	955.819	-29767.2	0.000000	0.000000	6.058771	-0.043890	NaN	0.000000	0.001578	0.001742	28.0846	0.199454	0.002007	99.384	61.9568	-163.033	-0.062420	0.056816	-0.898249	-0.899579	-0.043890	99.384	-0.897918	-9.526549E+11	4.607097E-14	NaN
172	1.000000	0.066164	7.36672e+06	-47239.1	955.818	-29767.2	0.000000	0.000000	6.066787	-0.098802	NaN	0.000000	0.001589	0.001741	28.0836	0.049383	0.002013	24.5315	-153.188	-166.585	-0.076081	0.064836	-0.890231	-0.891559	-0.098802	24.5315	-0.887211	-6.826674E+11	1.447298E-13	NaN
172	1.000000	0.074147	7.36672e+06	-47239.1	955.818	-29767.2	0.000000	0.000000	6.074773	-0.035335	NaN	0.000000	0.001561	0.001724	28.085	0.139441	0.002001	69.6917	35.7091	-166.95	0.028492	0.072834	-0.882248	-0.883562	-0.035335	69.6917	-0.881868	-5.780537E+11	6.112675E-14	NaN
172	1.000000	0.082134	7.36672e+06	-47239.1	955.818	-29767.2	0.000000	0.000000	6.082758	-0.076774	NaN	0.000000	0.001577	0.001787	28.083	0.089718	0.002059	43.5677	-157.278	-166.497	-0.106248	0.080859	-0.874262	-0.875537	-0.076774	43.5677	-0.872940	-4.377415E+11	1.753872E-13	NaN
172	1.000000	0.090150	7.36672e+06	-47239.1	955.819	-29767.2	0.000000	0.000000	6.090776	-0.038157	NaN	0.000000	0.001599	0.001751	28.0844	0.059489	0.002079	28.6114	175.782	-164.554	-0.025622	0.088808	-0.866245	-0.867587	-0.038157	28.6114	-0.865245	-3.444343E+11	1.107809E-13	NaN
172	1.000000	0.098141	7.36672e+06	-47239.1	955.818	-29767.2	0.000000	0.000000	6.098768	-0.011615	NaN	0.000000	0.001550	0.001733	28.0832	0.043239	0.001835	23.5673	-111.931	-163.792	-0.071669	0.096870	-0.858254	-0.859525	-0.011615	23.5673	-0.857884	-2.738319E+11	4.241652E-14	NaN
172	1.000000	0.106146	7.36672e+06	-47239.1	955.818	-29767.2	0.000000	0.000000	6.106770	-0.055741	NaN	0.000000	0.001544	0.001783	28.0822	0.057102	0.002018	28.3015	-92.9831	-163.54	-0.069418	0.104859	-0.850250	-0.851537	-0.055741	28.3015	-0.848773	-2.061193E+11	2.704285E-13	NaN
172	1.000000	0.114117	7.36672e+06	-47239.1	955.818	-29767.2	0.000000	0.000000	6.114743	-0.022039	NaN	0.000000	0.001566	0.001736	28.083	0.049574	0.002130	23.2783	133.151	-162.433	0.051248	0.112787	-0.842278	-0.843609	-0.022039	23.2783	-0.841568	-1.646416E+11	1.338609E-13	NaN
172	1.000000	0.122160	7.36672e+06	-47239.1	955.82	-29767.2	0.000000	0.000000	6.122788	0.023268	NaN	0.000000	0.001635	0.001769	28.0842	0.074501	0.002033	36.6425	53.9697	-162.189	0.005740	0.120819	-0.834235	-0.835576	0.023268	36.6425	-0.834711	-1.329337E+11	-1.750369E-13	NaN
172	1.000000	0.130167	7.36672e+06	-47239.1	955.819	-29767.2	0.000000	0.000000	6.130792	-0.038864	NaN	0.000000	0.001636	0.001749	28.0843	0.048533	0.001935	25.0852	55.1293	-163.315	-0.096121	0.128796	-0.826229	-0.827599	-0.038864	25.0852	-0.825067	-9.838110E+10	3.950333E-13	NaN
172	1.000000	0.138160	7.36672e+06	-47239.1	955.818	-29767.2	0.000000	0.000000	6.138784	-0.061898	NaN	0.000000	0.001628	0.001751	28.0838	0.025080	0.002044	12.2677	165.852	-164.749	-0.081714	0.136872	-0.818235	-0.819524	-0.061898	12.2677	-0.814451	-7.062459E+10	8.764415E-13	NaN
172	1.000000	0.146134	7.36672e+06	-47239.1	955.819	-29767.2	0.000000	0.000000	6.146758	-0.072419	NaN	0.000000	0.001664	0.001734	28.0835	0.056570	0.002090	27.0695	44.3623	-163.925	-0.037174	0.144883	-0.810261	-0.811513	-0.072419	27.0695	-0.808255	-5.819627E+10	1.244398E-12	NaN
172	1.000000	0.154181	7.36672e+06	-47239.1	955.818	-29767.2	0.000000	0.000000	6.154808	-0.001368	NaN	0.000000	0.001640	0.001725	28.0832	0.101369	0.001995	50.8025	111.448	-164.66	-0.013643	0.152840	-0.802214	-0.803555	-0.001368	50.8025	-0.802194	-4.815507E+10	2.839891E-14	NaN
172	1.000000	0.162151	7.36672e+06	-47239.1	955.818	-29767.2	0.000000	0.000000	6.162778	0.010537	NaN	0.000000	0.001584	0.001708	28.081	0.109682	0.002051	53.4815	161.453	-165.702	0.049039	0.160847	-0.794245	-0.795548	0.010537	53.4815	-0.794393	-3.773431E+10	-2.792414E-13	NaN
172	1.000000	0.170168	7.36672e+06	-47239.1	955.819	-29767.2	0.000000	0.000000	6.170796	0.024388	NaN	0.000000	0.001593	0.001687	28.0813	0.025851	0.001971	13.1166	-9.376546	-161.518	-0.031558	0.168839	-0.786228	-0.787556	0.024388	13.1166	-0.787622	-3.053440E+10	-7.986895E-13	NaN
172	1.000000	0.178185	7.36672e+06	-47239.1	955.818	-29767.2	0.000000	0.000000	6.178809	-0.072878	NaN	0.000000	0.001595	0.001733	28.0814	0.034719	0.002037	17.0439	-18.9918	-164.209	-0.098508	0.176885	-0.778210	-0.779511	-0.072878	17.0439	-0.775004	-2.057433E+10	3.542186E-12	NaN
172	1.000000	0.186187	7.36672e+06	-47239.1	955.818	-29767.2	0.000000	0.000000	6.186811	-0.066934	NaN	0.000000	0.001559	0.001715	28.0814	0.085425	0.002028	42.1232	-13.5167	-165.768	-0.096451	0.184890	-0.770209	-0.771505	-0.066934	42.1232	-0.769017	-1.705841E+10	3.923817E-12	NaN
172	1.000000	0.194193	7.36672e+06	-47239.1	955.819	-29767.2	0.000000	0.000000	6.194820	0.003299	NaN	0.000000	0.001585	0.001658	28.0817	0.040430	0.002089	19.3515	77.7922	-165.724	0.066951	0.192906	-0.762203	-0.763489	0.003299	19.3515	-0.762331	-1.383591E+10	-2.384617E-13	NaN
172	1.000000	0.202203	7.36672e+06	-47239.1	955.818	-29767.2	0.000000	0.000000	6.202830	0.015333	NaN	0.000000	0.001614	0.001728	28.0825	0.037757	0.002086	18.1031	-172.137	-166.283	0.024919	0.200883	-0.754193	-0.755513	0.015333	18.1031	-0.754828	-1.093785E+10	-1.401852E-12	NaN
172	1.000000	0.210193	7.36672e+06	-47239.1	955.818	-29767.2	0.000000	0.000000	6.210819	-0.008745	NaN	0.000000	0.001613	0.001730	28.0832	0.035133	0.001908	18.4132	-106.843	-162.199	0.004404	0.208921	-0.746203	-0.747474	-0.008745	18.4132	-0.745847	-8.254215E+9	1.059447E-12	NaN
172	1.000000	0.218225	7.36672e+06	-47239.1	955.818	-29767.2	0.000000	0.000000	6.218848	-0.112254	NaN	0.000000	0.001559	0.001734	28.0824	0.024986	0.001925	12.9814	-114.723	-164.892	-0.131710	0.216958	-0.738170	-0.739437	-0.112254	12.9814	-0.731685	-5.293789E+9	2.120478E-11	NaN
172	1.000000	0.226211	7.36672e+06	-47239.1	955.818	-29767.2	0.000000	0.000000	6.226837	-0.035202	NaN	0.000000	0.001548	0.001727	28.0821	0.100736	0.002086	48.2816	178.849	-159.525	-0.029601	0.224911	-0.730184	-0.731485	-0.035202	48.2816	-0.729637	-4.964388E+9	7.090900E-12	NaN
172	1.000000	0.234218	7.36672e+06	-47239.1	955.818	-29767.2	0.000000	0.000000	6.234846	0.017242	NaN	0.000000	0.001527	0.001672	28.0826	0.108897	0.002153	50.5841	-13.6803	-165.547	0.010761	0.232910	-0.722177	-0.723486	0.017242	50.5841	-0.722433	-3.959562E+9	-4.354628E-12	NaN
172	1.000000	0.242217	7.36672e+06	-47239.1	955.818	-29767.2	0.000000	0.000000	6.242842	-0.042490	NaN	0.000000	0.001571	0.001701	28.0811	0.020617	0.002106	9.790492	75.106	-164.103	0.004180	0.240894	-0.714178	-0.715502	-0.042490	9.790492	-0.710923	-2.758356E+9	1.540414E-11	NaN
172	1.000000	0.250193	7.36672e+06	-47239.1	955.819	-29767.2	0.000000	0.000000	6.250820	-0.003414	NaN	0.000000	0.001510	0.001721	28.081	0.071127	0.001964	36.2166	5.023627	-161.775	-0.037378	0.248903	-0.706203	-0.707492	-0.003414	36.2166	-0.706132	-2.372769E+9	1.438688E-12	NaN
172	1.000000	0.258198	7.36672e+06	-47239.1	955.819	-29767.2	0.000000	0.000000	6.258822	-0.067603	NaN	0.000000	0.001513	0.001729	28.0808	0.115208	0.001954	58.9515	90.7984	-164.567	-0.019123	0.256904	-0.698197	-0.699491	-0.067603	58.9515	-0.697337	-1.799555E+9	3.756643E-11	NaN
172	1.000000	0.266213	7.36672e+06	-47239.1	955.818	-29767.2	0.000000	0.000000	6.266841	0.014118	NaN	0.000000	0.001542	0.001743	28.0813	0.025851	0.002069	12.4955	-60.0511	-167.844	-0.004917	0.264951	-0.690182	-0.691444	0.014118	12.4955	-0.691030	-1.475664E+9	-9.567267E-12	NaN
172	1.000000	0.274239	7.36672e+06	-47239.1	955.818	-29767.2	0.000000	0.000000	6.274862	-0.093111	NaN	0.000000	0.001561	0.001716	28.0822	0.120669	0.001914	63.0558	124.937	-164.171	-0.046750	0.272914	-0.682156	-0.683482	-0.093111	63.0558	-0.681049	-1.077827E+9	8.638768E-11	NaN
172	1.000000	0.282233	7.36672e+06	-47239.1	955.818	-29767.2	0.000000	0.000000	6.282861	0.024257	NaN	0.000000	0.001583	0.001718	28.0827	0.097886	0.002000	48.9442	-133.332	-164.592	-0.014492	0.280945	-0.674162	-0.675451	0.024257	48.9442	-0.674534	-8.778759E+8	-2.763137E-11	NaN
172	1.000000	0.290212	7.36672e+06	-47239.1	955.818	-29767.2	0.000000	0.000000	6.290838	-0.016760	NaN	0.000000	0.001572	0.001721	28.0824	0.054720	0.002089	26.2007	-127.556	-165.513	-0.025717	0.288910	-0.666183	-0.667486	-0.016760	26.2007	-0.665704	-6.646239E+8	2.521755E-11	NaN
172	1.000000	0.298276	7.36672e+06	-47239.1	955.818	-29767.2	0.000000	0.000000	6.298900	-0.063716	NaN	0.000000	0.001568	0.001737	28.0837	0.090369	0.002035	44.4118	179.717	-163.186	0.008077	0.296909	-0.658120	-0.659487	-0.063716	44.4118	-0.657044	-5.057930E+8	1.259729E-10	NaN
172	1.000000	0.306203	7.36672e+06	-47239.1	955.818	-29767.2	0.000000	0.000000	6.306831	0.029786	NaN	0.000000	0.001576	0.001723	28.0842	0.065536	0.001942	33.7438	-107.854	-165.6	0.039018	0.304940	-0.650193	-0.651455	0.029786	33.7438	-0.650855	-4.160611E+8	-7.159043E-11	NaN
172	1.000000	0.314255	7.36672e+06	-47239.1	955.818	-29767.2	0.000000	0.000000	6.314880	-0.038319	NaN	0.000000	0.001589	0.001732	28.0843	0.084313	0.001941	43.443	-21.7362	-166.882	-0.037665	0.312904	-0.642140	-0.643491	-0.038319	43.443	-0.641479	-3.094428E+8	1.238337E-10	NaN
172	1.000000	0.322229	7.36672e+06	-47239.1	955.818	-29767.2	0.000000	0.000000	6.322854	-0.054352	NaN	0.000000	0.001572	0.001755	28.0838	0.061590	0.002043	30.1489	-97.751	-163.931	-0.012247	0.320950	-0.634166	-0.635446	-0.054352	30.1489	-0.632814	-2.353232E+8	2.309683E-10	NaN
172	1.000000	0.330232	7.36672e+06	-47239.1	955.817	-29767.2	0.000000	0.000000	6.330858	-0.033310	NaN	0.000000	0.001583	0.001757	28.0823	0.093103	0.002046	45.5123	-8.319417	-165.391	0.014631	0.328895	-0.626163	-0.627501	-0.033310	45.5123	-0.625614	-1.874069E+8	1.777418E-10	NaN
172	1.000000	0.338246	7.36672e+06	-47239.1	955.819	-29767.2	0.000000	0.000000	6.338873	0.000772	NaN	0.000000	0.001565	0.001758	28.0837	0.062802	0.002152	29.1769	-69.1875	-162.674	-0.007245	0.336935	-0.618150	-0.619461	0.000772	29.1769	-0.618169	-1.480706E+8	-5.213387E-12	NaN
172	1.000000	0.346239	7.36672e+06	-47239.1	955.818	-29767.2	0.000000	0.000000	6.346863	-0.054437	NaN	0.000000	0.001580	0.001726	28.0844	0.089761	0.001921	46.7175	150.131	-164.54	-0.121414	0.344924	-0.610157	-0.611471	-0.054437	46.7175	-0.609283	-1.117496E+8	4.871295E-10	NaN
172	1.000000	0.354232	7.36672e+06	-47239.1	955.818	-29767.2	0.000000	0.000000	6.354859	0.000148	NaN	0.000000	0.001565	0.001779	28.0834	0.170545	0.001825	93.439	104.092	-161.608	0.019531	0.352958	-0.602163	-0.603437	0.000148	93.439	-0.602164	-8.917978E+7	-1.659117E-12	NaN
172	1.000000	0.362261	7.36672e+06	-47239.1	955.819	-29767.2	0.000000	0.000000	6.362887	-0.028362	NaN	0.000000	0.001567	0.001744	28.0845	0.006484	0.002081	3.115629	179.17	-164.666	-0.075487	0.360958	-0.594134	-0.595438	-0.028362	3.115629	-0.587307	-5.565854E+7	5.095662E-10	NaN
172	1.000000	0.370268	7.36672e+06	-47239.1	955.817	-29767.2	0.000000	0.000000	6.370892	-0.060714	NaN	0.000000	0.001586	0.001727	28.0833	0.022641	0.001930	11.7332	-143.476	-165.804	-0.043644	0.368923	-0.586128	-0.587472	-0.060714	11.7332	-0.582247	-4.739473E+7	1.281037E-9	NaN
172	1.000000	0.378263	7.36672e+06	-47239.1	955.818	-29767.2	0.000000	0.000000	6.378890	0.000724	NaN	0.000000	0.001573	0.001737	28.0851	0.021489	0.001969	10.9143	30.6593	-166.831	-0.058250	0.376922	-0.578133	-0.579473	0.000724	10.9143	-0.578183	-4.165253E+7	-1.738838E-11	NaN
172	1.000000	0.386266	7.36672e+06	-47239.1	955.818	-29767.2	0.000000	0.000000	6.386893	0.010961	NaN	0.000000	0.001560	0.001748	28.0846	0.032220	0.002017	15.9738	-11.9046	-163.358	0.040024	0.384994	-0.570130	-0.571402	0.010961	15.9738	-0.570644	-3.277438E+7	-3.344405E-10	NaN
172	1.000000	0.394256	7.36672e+06	-47239.1	955.819	-29767.2	0.000000	0.000000	6.394881	-0.041512	NaN	0.000000	0.001571	0.001729	28.0839	0.081507	0.001985	41.0518	-134.806	-163.805	-0.105057	0.392984	-0.562139	-0.563412	-0.041512	41.0518	-0.561381	-2.440516E+7	1.700944E-9	NaN
172	1.000000	0.402271	7.36672e+06	-47239.1	955.819	-29767.2	0.000000	0.000000	6.402896	-0.033529	NaN	0.000000	0.001568	0.001760	28.0823	0.116483	0.001948	59.7917	170.857	-164.369	-0.069882	0.400936	-0.554125	-0.555460	-0.033529	59.7917	-0.553704	-1.910942E+7	1.754583E-9	NaN
172	1.000000	0.410261	7.36672e+06	-47239.1	955.818	-29767.2	0.000000	0.000000	6.410890	0.056185	NaN	0.000000	0.001559	0.001770	28.0835	0.076544	0.001984	38.5794	-85.5966	-166.349	0.037825	0.409015	-0.546134	-0.547381	0.056185	38.5794	-0.547227	-1.554304E+7	-3.614775E-9	NaN
172	1.000000	0.418289	7.36672e+06	-47239.1	955.818	-29767.2	0.000000	0.000000	6.418911	-0.107093	NaN	0.000000	0.001537	0.001752	28.0834	0.038823	0.002081	18.6576	54.2852	-166.891	-0.078464	0.416995	-0.538107	-0.539400	-0.107093	18.6576	-0.533802	-1.012425E+7	1.057792E-8	NaN
172	1.000000	0.426265	7.36672e+06	-47239.1	955.818	-29767.2	0.000000	0.000000	6.426892	-0.010138	NaN	0.000000	0.001558	0.001789	28.0837	0.095088	0.001895	50.1775	139.507	-165.164	0.002779	0.424949	-0.530130	-0.531447	-0.010138	50.1775	-0.529979	-8.95943e+06	1.131543E-9	NaN
172	1.000000	0.434299	7.36672e+06	-47239.1	955.818	-29767.2	0.000000	0.000000	6.434926	-0.016005	NaN	0.000000	0.001616	0.001776	28.0821	0.072303	0.001978	36.5455	105.501	-165.759	-0.042910	0.433008	-0.522096	-0.523387	-0.016005	36.5455	-0.521768	-6.88938e+06	2.323084E-9	NaN
172	1.000000	0.442277	7.36672e+06	-47239.1	955.819	-29767.2	0.000000	0.000000	6.442901	-0.057615	NaN	0.000000	0.001570	0.001776	28.0827	0.030171	0.002195	13.7462	-147.013	-166.736	0.012822	0.440980	-0.514119	-0.515416	-0.057615	13.7462	-0.510975	-4.87529e+06	1.181781E-8	NaN
172	1.000000	0.450274	7.36672e+06	-47239.1	955.819	-29767.2	0.000000	0.000000	6.450900	-0.030058	NaN	0.000000	0.001589	0.001765	28.0836	0.096378	0.001868	51.596	83.6325	-165.355	-0.045909	0.448988	-0.506121	-0.507407	-0.030058	51.596	-0.505685	-4.11421e+06	7.305866E-9	NaN
172	1.000000	0.458305	7.36672e+06	-47239.1	955.818	-29767.2	0.000000	0.000000	6.458932	0.010645	NaN	0.000000	0.001557	0.001786	28.0839	0.167742	0.001885	88.971	53.8762	-164.885	-0.009282	0.457010	-0.498091	-0.499386	0.010645	88.971	-0.498180	-3.23317e+06	-3.292577E-9	NaN
172	1.000000	0.466343	7.36672e+06	-47239.1	955.818	-29767.2	0.000000	0.000000	6.466966	-0.091470	NaN	0.000000	0.001620	0.001766	28.0825	0.043345	0.002067	20.9704	120.742	-167.97	-0.012103	0.465032	-0.490053	-0.491363	-0.091470	20.9704	-0.486781	-2.2408e+06	4.082010E-8	NaN
172	1.000000	0.474292	7.36672e+06	-47239.1	955.818	-29767.2	0.000000	0.000000	6.474918	-0.026582	NaN	0.000000	0.001609	0.001748	28.0828	0.078813	0.001945	40.5204	-98.3621	-163.762	-0.059541	0.472983	-0.482104	-0.483412	-0.026582	40.5204	-0.481612	-1.89709e+06	1.401225E-8	NaN
172	1.000000	0.482301	7.36672e+06	-47239.1	955.819	-29767.2	0.000000	0.000000	6.482926	-0.058425	NaN	0.000000	0.001579	0.001719	28.0827	0.094784	0.002034	46.5932	133.665	-168.829	-0.063492	0.481027	-0.474094	-0.475368	-0.058425	46.5932	-0.473154	-1.4442e+06	4.045470E-8	NaN
172	1.000000	0.490302	7.36672e+06	-47239.1	955.819	-29767.2	0.000000	0.000000	6.490927	-0.057610	NaN	0.000000	0.001577	0.001731	28.082	0.058350	0.002075	28.1221	-138.957	-163.472	0.009003	0.489015	-0.466093	-0.467381	-0.057610	28.1221	-0.464557	-1.09402e+06	5.265898E-8	NaN
172	1.000000	0.498294	7.36672e+06	-47239.1	955.818	-29767.2	0.000000	0.000000	6.498917	-0.111079	NaN	0.000000	0.001601	0.001695	28.0832	0.112844	0.001940	58.1657	-29.6696	-164.171	-0.163956	0.496982	-0.458101	-0.459413	-0.111079	58.1657	-0.456669	-847602	1.310505E-7	NaN
172	1.000000	0.506336	7.36672e+06	-47239.1	955.818	-29767.2	0.000000	0.000000	6.506962	-0.024770	NaN	0.000000	0.001582	0.001729	28.0827	0.110970	0.001926	57.6129	27.4215	-163.988	-0.069727	0.505028	-0.450059	-0.451367	-0.024770	57.6129	-0.449737	-677073	3.658411E-8	NaN
172	1.000000	0.514322	7.36672e+06	-47239.1	955.818	-29767.2	0.000000	0.000000	6.514946	-0.083290	NaN	0.000000	0.001623	0.001695	28.0829	0.052576	0.002115	24.8551	-102.985	-164.708	-0.132240	0.513005	-0.442073	-0.443391	-0.083290	24.8551	-0.439560	-486581	1.711741E-7	NaN
172	1.000000	0.522319	7.36672e+06	-47239.1	955.819	-29767.2	0.000000	0.000000	6.522945	-0.024861	NaN	0.000000	0.001631	0.001692	28.0844	0.064613	0.001995	32.3921	155.649	-164.063	0.002410	0.521039	-0.434076	-0.435357	-0.024861	32.3921	-0.433501	-399543	6.222261E-8	NaN
172	1.000000	0.530312	7.36672e+06	-47239.1	955.817	-29767.2	0.000000	0.000000	6.530940	0.025431	NaN	0.000000	0.001589	0.001696	28.0827	0.020938	0.001965	10.6544	-145.807	-164.681	0.034492	0.529027	-0.426083	-0.427368	0.025431	10.6544	-0.427873	-332633	-7.645210E-8	NaN
172	1.000000	0.538333	7.36672e+06	-47239.1	955.818	-29767.2	0.000000	0.000000	6.538958	-0.050585	NaN	0.000000	0.001591	0.001703	28.0843	0.034933	0.001927	18.1253	-70.831	-166.255	-0.043251	0.537014	-0.418062	-0.419382	-0.050585	18.1253	-0.415969	-225534	2.242908E-7	NaN
172	1.000000	0.546316	7.36672e+06	-47239.1	955.818	-29767.2	0.000000	0.000000	6.546941	-0.036766	NaN	0.000000	0.001558	0.001668	28.0838	0.056947	0.001990	28.6154	-44.2961	-164.279	-0.013031	0.544943	-0.410080	-0.411452	-0.036766	28.6154	-0.409116	-180230	2.039921E-7	NaN
172	1.000000	0.554352	7.36672e+06	-47239.1	955.818	-29767.2	0.000000	0.000000	6.554975	-0.114948	NaN	0.000000	0.001578	0.001697	28.0823	0.095639	0.002061	46.3946	2.153606	-165.099	-0.141656	0.553000	-0.402043	-0.403395	-0.114948	46.3946	-0.400185	-134472	8.548157E-7	NaN
172	1.000000	0.562335	7.36672e+06	-47239.1	955.818	-29767.2	0.000000	0.000000	6.562960	-0.040400	NaN	0.000000	0.001590	0.001684	28.0823	0.056833	0.002068	27.4811	-108.127	-164.865	0.066063	0.561064	-0.394061	-0.395331	-0.040400	27.4811	-0.392958	-106039	3.809967E-7	NaN
172	1.000000	0.570338	7.36672e+06	-47239.1	955.819	-29767.2	0.000000	0.000000	6.570964	-0.042724	NaN	0.000000	0.001634	0.001730	28.0822	0.092050	0.001928	47.7532	-73.3558	-169.828	-0.005282	0.569040	-0.386057	-0.387356	-0.042724	47.7532	-0.385386	-82626.1	5.170733E-7	NaN
172	1.000000	0.578366	7.36672e+06	-47239.1	955.818	-29767.2	0.000000	0.000000	6.578991	-0.056108	NaN	0.000000	0.001631	0.001728	28.0869	0.124488	0.002003	62.1527	-170.965	-163.596	-0.005613	0.577083	-0.378029	-0.379313	-0.056108	62.1527	-0.377352	-63368.2	8.854293E-7	NaN
172	1.000000	0.586339	7.36672e+06	-47239.1	955.818	-29767.2	0.000000	0.000000	6.586964	-0.043320	NaN	0.000000	0.001608	0.001687	28.0856	0.061312	0.002086	29.3946	112.937	-166.542	-0.056928	0.585108	-0.370057	-0.371288	-0.043320	29.3946	-0.368951	-47975.8	9.029618E-7	NaN
172	1.000000	0.594386	7.36672e+06	-47239.1	955.819	-29767.2	0.000000	0.000000	6.595011	-0.049111	NaN	0.000000	0.001571	0.001667	28.0851	0.044409	0.001947	22.8085	-144.165	-165.374	0.003919	0.593063	-0.362010	-0.363333	-0.049111	22.8085	-0.360395	-36103.6	1.360278E-6	NaN
172	1.000000	0.602365	7.36672e+06	-47239.1	955.818	-29767.2	0.000000	0.000000	6.602991	-0.020751	NaN	0.000000	0.001552	0.001692	28.0856	0.111071	0.002055	54.0491	102.795	-167.262	-0.033613	0.601096	-0.354031	-0.355299	-0.020751	54.0491	-0.353743	-28925.6	7.173983E-7	NaN
172	1.000000	0.610369	7.36672e+06	-47239.1	955.819	-29767.2	0.000000	0.000000	6.610996	0.001760	NaN	0.000000	0.001565	0.001687	28.0851	0.034519	0.002091	16.5113	-166.248	-163.178	-0.070980	0.609078	-0.346026	-0.347318	0.001760	16.5113	-0.346106	-22410	-7.853429E-8	NaN
172	1.000000	0.618372	7.36672e+06	-47239.1	955.818	-29767.2	0.000000	0.000000	6.618997	-0.046642	NaN	0.000000	0.001546	0.001687	28.0854	0.045207	0.002016	22.4219	-139.865	-165.945	-0.034937	0.617121	-0.338024	-0.339274	-0.046642	22.4219	-0.336464	-16216.8	2.876165E-6	NaN
172	1.000000	0.626372	7.36672e+06	-47239.1	955.818	-29767.2	0.000000	0.000000	6.626996	-0.063610	NaN	0.000000	0.001517	0.001678	28.0847	0.122357	0.001972	62.0535	86.947	-162.66	-0.029349	0.625064	-0.330024	-0.331332	-0.063610	62.0535	-0.329255	-12721.5	5.000185E-6	NaN
172	1.000000	0.634380	7.36672e+06	-47239.1	955.819	-29767.2	0.000000	0.000000	6.635003	-0.091943	NaN	0.000000	0.001523	0.001701	28.086	0.074484	0.002094	35.5671	-107.836	-166.917	-0.091754	0.633032	-0.322015	-0.323363	-0.091943	35.5671	-0.320077	-9327.54	9.857174E-6	NaN
172	1.000000	0.642382	7.36672e+06	-47239.1	955.818	-29767.2	0.000000	0.000000	6.643009	-0.005632	NaN	0.000000	0.001547	0.001728	28.0839	0.045422	0.001894	23.9809	-86.9652	-162.734	-0.067783	0.641102	-0.314013	-0.315293	-0.005632	23.9809	-0.313837	-7547.13	7.462861E-7	NaN
172	1.000000	0.650363	7.36672e+06	-47239.1	955.819	-29767.2	0.000000	0.000000	6.650988	-0.048966	NaN	0.000000	0.001530	0.001720	28.0846	0.005565	0.001984	2.804662	42.5814	-166.769	-0.032618	0.649089	-0.306032	-0.307307	-0.048966	2.804662	-0.292938	-3692.13	1.326235E-5	NaN
172	1.000000	0.658394	7.36672e+06	-47239.1	955.818	-29767.2	0.000000	0.000000	6.659021	-0.009653	NaN	0.000000	0.001556	0.001746	28.0853	0.096818	0.002077	46.6139	25.1311	-165.524	-0.030691	0.657093	-0.298001	-0.299303	-0.009653	46.6139	-0.297846	-4370.66	2.208667E-6	NaN
172	1.000000	0.666383	7.36672e+06	-47239.1	955.817	-29767.2	0.000000	0.000000	6.667009	-0.018162	NaN	0.000000	0.001573	0.001739	28.0841	0.038052	0.002033	18.7211	-73.4549	-167.019	-0.059996	0.665110	-0.290013	-0.291286	-0.018162	18.7211	-0.289285	-3255.3	5.579317E-6	NaN
172	1.000000	0.674424	7.36672e+06	-47239.1	955.818	-29767.2	0.000000	0.000000	6.675049	-0.044308	NaN	0.000000	0.001534	0.001729	28.0852	0.090565	0.002026	44.6906	60.6105	-162.922	0.034120	0.673089	-0.281972	-0.283306	-0.044308	44.6906	-0.281228	-2463.13	1.798859E-5	NaN
172	1.000000	0.682399	7.36672e+06	-47239.1	955.818	-29767.2	0.000000	0.000000	6.683024	-0.058834	NaN	0.000000	0.001552	0.001747	28.0856	0.066418	0.002134	31.1178	-68.0743	-163.012	-0.052779	0.681091	-0.273996	-0.275305	-0.058834	31.1178	-0.272578	-1822.62	3.228015E-5	NaN
172	1.000000	0.690378	7.36672e+06	-47239.1	955.819	-29767.2	0.000000	0.000000	6.691003	-0.062534	NaN	0.000000	0.001542	0.001723	28.0863	0.055847	0.002128	26.2493	81.8471	-168.237	0.046367	0.689062	-0.266017	-0.267333	-0.062534	26.2493	-0.264230	-1360.31	4.597042E-5	NaN
172	1.000000	0.698393	7.36672e+06	-47239.1	955.818	-29767.2	0.000000	0.000000	6.699019	-0.030964	NaN	0.000000	0.001532	0.001696	28.0851	0.020136	0.001885	10.684	97.9829	-166.066	-0.067666	0.697079	-0.258002	-0.259317	-0.030964	10.684	-0.255829	-1011.27	3.061881E-5	NaN
172	1.000000	0.706413	7.36672e+06	-47239.1	955.819	-29767.2	0.000000	0.000000	6.707040	-0.005954	NaN	0.000000	0.001530	0.001714	28.0851	0.053535	0.001901	28.161	11.0833	-165.166	-0.028929	0.705043	-0.249982	-0.251352	-0.005954	28.161	-0.249824	-817.039	7.287327E-6	NaN
172	1.000000	0.714405	7.36672e+06	-47239.1	955.819	-29767.2	0.000000	0.000000	6.715030	-0.034470	NaN	0.000000	0.001533	0.001711	28.0842	0.071647	0.001946	36.8084	14.0174	-167.066	-0.005334	0.713158	-0.241991	-0.243238	-0.034470	36.8084	-0.241288	-602.09	5.725085E-5	NaN
172	1.000000	0.722430	7.36672e+06	-47239.1	955.817	-29767.2	0.000000	0.000000	6.723059	0.034269	NaN	0.000000	0.001547	0.001706	28.0843	0.075675	0.001952	38.7614	-108.579	-164.008	0.095852	0.721105	-0.233965	-0.235291	0.034269	38.7614	-0.234628	-473.596	-7.235885E-5	NaN
172	1.000000	0.730399	7.36672e+06	-47239.1	955.818	-29767.2	0.000000	0.000000	6.731025	-0.017466	NaN	0.000000	0.001559	0.001691	28.0831	0.089122	0.001993	44.7266	-145.116	-163.447	0.011284	0.729037	-0.225997	-0.227358	-0.017466	44.7266	-0.225704	-342.383	5.101325E-5	NaN
172	1.000000	0.738420	7.36672e+06	-47239.1	955.818	-29767.2	0.000000	0.000000	6.739046	-0.043511	NaN	0.000000	0.001546	0.001685	28.0829	0.084051	0.001982	42.4006	90.725	-162.082	-0.057357	0.737072	-0.217975	-0.219323	-0.043511	42.4006	-0.217205	-250.575	0.000174	NaN
172	1.000000	0.746438	7.36672e+06	-47239.1	955.819	-29767.2	0.000000	0.000000	6.747065	0.003874	NaN	0.000000	0.001554	0.001690	28.0828	0.079334	0.002027	39.1329	125.566	-169.147	-0.006388	0.745116	-0.209958	-0.211279	0.003874	39.1329	-0.210032	-192.016	-2.017437E-5	NaN
172	1.000000	0.754443	7.36672e+06	-47239.1	955.819	-29767.2	0.000000	0.000000	6.755069	-0.024005	NaN	0.000000	0.001558	0.001692	28.0831	0.063322	0.002066	30.646	153.253	-164.892	-0.071633	0.753077	-0.201952	-0.203318	-0.024005	30.646	-0.201365	-138.709	0.000173	NaN
172	1.000000	0.762410	7.36672e+06	-47239.1	955.817	-29767.2	0.000000	0.000000	6.763036	-0.024320	NaN	0.000000	0.001563	0.001658	28.0852	0.077260	0.001939	39.8426	-7.618938	-160.983	-0.017092	0.761091	-0.193986	-0.195305	-0.024320	39.8426	-0.193528	-102.988	0.000236	NaN
172	1.000000	0.770417	7.36672e+06	-47239.1	955.818	-29767.2	0.000000	0.000000	6.771045	0.013882	NaN	0.000000	0.001570	0.001673	28.0841	0.024518	0.001987	12.3404	-134.449	-165.721	0.020968	0.769120	-0.185978	-0.187276	0.013882	12.3404	-0.186822	-79.5771	-0.000174	NaN
172	1.000000	0.778455	7.36672e+06	-47239.1	955.818	-29767.2	0.000000	0.000000	6.779080	-0.047292	NaN	0.000000	0.001558	0.001689	28.0847	0.099140	0.002093	47.3725	100.189	-163.893	-0.032686	0.777099	-0.177941	-0.179296	-0.047292	47.3725	-0.177192	-54.6466	0.000865	NaN
172	1.000000	0.786445	7.36672e+06	-47239.1	955.818	-29767.2	0.000000	0.000000	6.787073	0.029701	NaN	0.000000	0.001574	0.001671	28.0834	0.048662	0.002101	23.1567	-120.504	-165.085	-0.047054	0.785135	-0.169950	-0.171261	0.029701	23.1567	-0.170912	-42.6031	-0.000697	NaN
172	1.000000	0.794453	7.36672e+06	-47239.1	955.818	-29767.2	0.000000	0.000000	6.795081	0.011368	NaN	0.000000	0.001559	0.001691	28.0843	0.086446	0.001982	43.6197	94.4689	-163.606	0.049295	0.793139	-0.161942	-0.163257	0.011368	43.6197	-0.162138	-29.914	-0.000380	NaN
172	1.000000	0.802436	7.36672e+06	-47239.1	955.817	-29767.2	0.000000	0.000000	6.803063	-0.012951	NaN	0.000000	0.001571	0.001726	28.0828	0.051262	0.001983	25.8488	-113.879	-164.602	0.008429	0.801148	-0.153959	-0.155248	-0.012951	25.8488	-0.153583	-21.0398	0.000616	NaN
172	1.000000	0.810438	7.36672e+06	-47239.1	955.818	-29767.2	0.000000	0.000000	6.811063	-0.029491	NaN	0.000000	0.001532	0.001697	28.0834	0.060115	0.002024	29.6966	79.3879	-162.389	-0.075162	0.809158	-0.145958	-0.147238	-0.029491	29.6966	-0.145213	-14.7948	0.001993	NaN
172	1.000000	0.818429	7.36672e+06	-47239.1	955.819	-29767.2	0.000000	0.000000	6.819056	0.000135	NaN	0.000000	0.001593	0.001709	28.0846	0.076748	0.002045	37.5253	69.2963	-165.421	0.082794	0.817099	-0.137967	-0.139296	0.000135	37.5253	-0.137969	-10.8317	-1.245808E-5	NaN
172	1.000000	0.826443	7.36672e+06	-47239.1	955.818	-29767.2	0.000000	0.000000	6.827068	-0.045277	NaN	0.000000	0.001588	0.001696	28.083	0.083615	0.001977	42.3025	54.4699	-170.335	-0.141692	0.825145	-0.129953	-0.131251	-0.045277	42.3025	-0.129150	-7.336321	0.006172	NaN
172	1.000000	0.834449	7.36672e+06	-47239.1	955.818	-29767.2	0.000000	0.000000	6.835074	-0.029477	NaN	0.000000	0.001572	0.001715	28.0839	0.053261	0.001999	26.6376	136.781	-162.962	-0.002365	0.833157	-0.121947	-0.123238	-0.029477	26.6376	-0.121117	-5.088281	0.005793	NaN
172	1.000000	0.842456	7.36672e+06	-47239.1	955.819	-29767.2	0.000000	0.000000	6.843085	0.049960	NaN	0.000000	0.001544	0.001719	28.0848	0.082329	0.002142	38.4378	132.495	-164.656	-0.021641	0.841199	-0.113940	-0.115197	0.049960	38.4378	-0.114915	-3.804913	-0.013130	NaN
172	1.000000	0.850450	7.36672e+06	-47239.1	955.818	-29767.2	0.000000	0.000000	6.851074	-0.064914	NaN	0.000000	0.001576	0.001700	28.085	0.047437	0.002043	23.2148	-106.494	-163.746	-0.050679	0.849126	-0.105945	-0.107269	-0.064914	23.2148	-0.103848	-2.219314	0.029250	NaN
172	1.000000	0.858436	7.36672e+06	-47239.1	955.819	-29767.2	0.000000	0.000000	6.859064	0.025339	NaN	0.000000	0.001618	0.001719	28.0857	0.151161	0.002034	74.3292	41.9152	-164.333	0.005024	0.857173	-0.097959	-0.099223	0.025339	74.3292	-0.098215	-1.667278	-0.015198	NaN
172	1.000000	0.866425	7.36672e+06	-47239.1	955.818	-29767.2	0.000000	0.000000	6.867049	-0.078110	NaN	0.000000	0.001587	0.001706	28.0856	0.003165	0.001956	1.618198	-137.276	-167.57	-0.048681	0.865201	-0.089970	-0.091195	-0.078110	1.618198	-0.053768	-0.118387	0.659787	NaN
172	1.000000	0.874481	7.36672e+06	-47239.1	955.819	-29767.2	0.000000	0.000000	6.875109	0.016279	NaN	0.000000	0.001650	0.001707	28.0858	0.093660	0.002006	46.6801	143.076	-166.415	-0.010887	0.873174	-0.081914	-0.083221	0.016279	46.6801	-0.082176	-0.700975	-0.023224	NaN
172	1.000000	0.882493	7.36672e+06	-47239.1	955.818	-29767.2	0.000000	0.000000	6.883120	0.000535	NaN	0.000000	0.001668	0.001717	28.0845	0.036680	0.001900	19.3047	-167.822	-165.348	0.034417	0.881179	-0.073902	-0.075216	0.000535	19.3047	-0.073923	-0.433063	-0.001235	NaN
172	1.000000	0.890487	7.36672e+06	-47239.1	955.819	-29767.2	0.000000	0.000000	6.891109	-0.108312	NaN	0.000000	0.001630	0.001745	28.0836	0.080048	0.002139	37.4267	124.457	-164.941	0.009051	0.889214	-0.065909	-0.067182	-0.108312	37.4267	-0.063738	-0.229838	0.471253	NaN
172	1.000000	0.898450	7.36672e+06	-47239.1	955.818	-29767.2	0.000000	0.000000	6.899078	0.027184	NaN	0.000000	0.001642	0.001721	28.0842	0.095504	0.002011	47.5	78.4216	-165.741	0.032092	0.897219	-0.057945	-0.059177	0.027184	47.5	-0.058374	-0.161669	-0.168145	NaN
172	1.000000	0.906505	7.36672e+06	-47239.1	955.818	-29767.2	0.000000	0.000000	6.907130	-0.053978	NaN	0.000000	0.001647	0.001720	28.0845	0.144865	0.001941	74.6191	126.082	-167.23	-0.040000	0.905128	-0.049890	-0.051268	-0.053978	74.6191	-0.049348	-0.087195	0.619050	NaN
172	1.000000	0.914481	7.36672e+06	-47239.1	955.818	-29767.2	0.000000	0.000000	6.915104	-0.079625	NaN	0.000000	0.001627	0.001679	28.0847	0.038684	0.001986	19.4799	111.911	-166.096	-0.097301	0.913183	-0.041915	-0.043212	-0.079625	19.4799	-0.038849	-0.041733	1.907973	NaN
172	1.000000	0.922507	7.36672e+06	-47239.1	955.818	-29767.2	0.000000	0.000000	6.923132	-0.041137	NaN	0.000000	0.001616	0.001689	28.085	0.083354	0.002035	40.9582	-172.89	-165.966	-0.062655	0.921156	-0.033889	-0.035240	-0.041137	40.9582	-0.033136	-0.028252	1.456085	NaN
172	1.000000	0.930513	7.36672e+06	-47239.1	955.819	-29767.2	0.000000	0.000000	6.931140	0.008868	NaN	0.000000	0.001623	0.001709	28.0856	0.024305	0.001974	12.3152	-42.9178	-164.538	-0.021100	0.929196	-0.025883	-0.027200	0.008868	12.3152	-0.026423	-0.018391	-0.482188	NaN
172	1.000000	0.938496	7.36672e+06	-47239.1	955.818	-29767.2	0.000000	0.000000	6.939122	-0.023757	NaN	0.000000	0.001598	0.001713	28.084	0.050937	0.002050	24.851	119.43	-167.201	-0.013275	0.937148	-0.017900	-0.019247	-0.023757	24.851	-0.017183	-0.010628	2.235350	NaN
172	1.000000	0.946485	7.36672e+06	-47239.1	955.818	-29767.2	0.000000	0.000000	6.947111	-0.026666	NaN	0.000000	0.001580	0.001720	28.0849	0.108621	0.002021	53.7547	-118.047	-162.998	-0.048544	0.945203	-0.009911	-0.011193	-0.026666	53.7547	-0.009539	-0.006123	4.354951	NaN
172	1.000000	0.954488	7.36672e+06	-47239.1	955.818	-29767.2	0.000000	0.000000	6.955115	-0.002072	NaN	0.000000	0.001556	0.001688	28.0863	0.030388	0.001939	15.6712	103.192	-166.394	-0.049913	0.953196	-0.001907	-0.003199	-0.002072	15.6712	-0.001808	-0.001306	1.586272	NaN
172	1.000000	0.962494	7.36672e+06	-47239.1	955.819	-29767.2	0.000000	0.000000	6.963262	3.418833	NaN	0.000000	0.001518	0.001669	28.0852	3.997581	0.001880	2126.75	13.312	-170.303	1.845385	0.961186	0.006099	0.004790	3.418833	2126.75	0.004893	0.004036	847.051	30584.7
172	2.000000	0.969117	7.36672e+06	-47239.1	955.818	-29767.2	0.000000	0.000000	6.970101	8.677962	NaN	0.000000	0.001514	0.001714	28.0841	9.335131	0.001628	5734.15	8.248253	-171.594	9.303234	0.968715	0.012721	0.012319	8.677962	5734.15	0.011586	0.010998	789.023	49954.9
172	2.000000	0.971081	7.36672e+06	-47239.1	955.819	-29767.2	0.000000	0.000000	6.972174	11.332	NaN	0.000000	0.001568	0.001684	28.084	11.3082	0.001559	7254	9.132066	-175.471	11.6723	0.970776	0.014685	0.014381	11.332	7254	0.013514	0.013354	848.562	57350.9
172	2.000000	0.973118	7.36672e+06	-47239.1	955.819	-29767.2	0.000000	0.000000	6.974430	16.657	NaN	0.000000	0.001564	0.001685	28.0845	14.009	0.001668	8400.75	2.737061	-168.717	16.1678	0.972737	0.016723	0.016341	16.657	8400.75	0.015236	0.015601	1067.7	61449.4
172	2.000000	0.975044	7.36672e+06	-47239.1	955.818	-29767.2	0.000000	0.000000	6.976486	19.815	NaN	0.000000	0.001538	0.001690	28.0839	16.5403	0.001736	9527.48	6.240654	-175.803	19.4988	0.974728	0.018649	0.018333	19.815	9527.48	0.017089	0.018173	1090.37	64571.4
172	2.000000	0.977062	7.36672e+06	-47239.1	955.818	-29767.2	0.000000	0.000000	6.978695	24.4668	NaN	0.000000	0.001543	0.001707	28.0853	18.8536	0.001678	11233.3	7.456734	-179.386	24.1891	0.976752	0.020667	0.020356	24.4668	11233.3	0.019033	0.021046	1162.55	70745.1
172	2.000000	0.979005	7.36672e+06	-47239.1	955.819	-29767.2	0.000000	0.000000	6.980896	30.7499	NaN	0.000000	0.001550	0.001728	28.0846	19.966	0.001687	11837.4	5.356918	-176.693	29.6722	0.978669	0.022610	0.022273	30.7499	11837.4	0.020661	0.023592	1303.39	70411.8
172	2.000000	0.981000	7.36672e+06	-47239.1	955.819	-29767.2	0.000000	0.000000	6.983022	33.93	NaN	0.000000	0.001505	0.001690	28.0838	22.6199	0.001829	12370.4	6.371218	-178.022	32.8786	0.980705	0.024605	0.024310	33.93	12370.4	0.022548	0.026705	1270.55	69161.3
172	2.000000	0.983082	7.36672e+06	-47239.1	955.819	-29767.2	0.000000	0.000000	6.985293	38.5341	NaN	0.000000	0.001583	0.001736	28.0835	24.0916	0.001686	14288.2	6.058953	-178.538	38.0403	0.982693	0.026687	0.026297	38.5341	14288.2	0.024664	0.030407	1267.26	74862.1
172	2.000000	0.985044	7.36672e+06	-47239.1	955.819	-29767.2	0.000000	0.000000	6.987353	40.9075	NaN	0.000000	0.001584	0.001696	28.0846	26.4823	0.001713	15458.1	7.812090	178.924	42.7877	0.984733	0.028649	0.028338	40.9075	15458.1	0.026664	0.034112	1199.21	76467.1
172	2.000000	0.987014	7.36672e+06	-47239.1	955.819	-29767.2	0.000000	0.000000	6.989562	46.7146	NaN	0.000000	0.001560	0.001697	28.0857	28.6024	0.001941	14732.7	3.682846	-175.468	47.0755	0.986683	0.030619	0.030287	46.7146	14732.7	0.028240	0.037176	1256.59	69811.4
172	2.000000	0.988998	7.36672e+06	-47239.1	955.818	-29767.2	0.000000	0.000000	6.991763	52.0053	NaN	0.000000	0.001577	0.001711	28.0837	29.7956	0.001899	15687.5	2.540335	-175.228	51.6311	0.988722	0.032603	0.032327	52.0053	15687.5	0.030117	0.040986	1268.87	70796.4
172	2.000000	0.990957	7.36672e+06	-47239.1	955.818	-29767.2	0.000000	0.000000	6.993955	57.6889	NaN	0.000000	0.001577	0.001712	28.0832	32.3483	0.001734	18654.2	1.405017	-176.148	56.0867	0.990627	0.034561	0.034231	57.6889	18654.2	0.032242	0.045519	1267.37	79883.1
172	2.000000	0.993058	7.36672e+06	-47239.1	955.819	-29767.2	0.000000	0.000000	6.996185	60.8082	NaN	0.000000	0.001551	0.001689	28.0834	35.6351	0.001861	19149.8	8.426046	176.892	63.0294	0.992731	0.036662	0.036335	60.8082	19149.8	0.034281	0.050085	1214.1	78177.7
172	2.000000	0.995004	7.36672e+06	-47239.1	955.819	-29767.2	0.000000	0.000000	6.998511	70.0495	NaN	0.000000	0.001554	0.001679	28.0845	36.8619	0.001763	20907.2	7.604199	176.926	70.8091	0.994607	0.038609	0.038212	70.0495	20907.2	0.036096	0.054329	1289.37	81951.3
172	2.000000	0.996974	7.36672e+06	-47239.1	955.819	-29767.2	0.000000	0.000000	7.000795	77.6845	NaN	0.000000	0.001551	0.001640	28.0856	39.3402	0.001824	21562.8	6.976253	176.658	76.8522	0.996633	0.040579	0.040238	77.6845	21562.8	0.037877	0.058657	1324.39	81342.8
172	2.000000	0.998958	7.36672e+06	-47239.1	955.819	-29767.2	0.000000	0.000000	7.003171	87.2146	NaN	0.000000	0.001545	0.001696	28.0847	40.0679	0.001801	22243.3	5.715864	177.746	86.4786	0.998669	0.042563	0.042273	87.2146	22243.3	0.039622	0.063055	1383.14	80930.3
172	2.000000	1.000937	7.36672e+06	-47239.1	955.82	-29767.2	0.000000	0.000000	7.005312	91.1555	NaN	0.000000	0.001574	0.001686	28.0855	42.2107	0.001760	23981.1	2.857754	179.284	88.9681	1.000658	0.044542	0.044262	91.1555	23981.1	0.041691	0.068472	1331.29	83731.1
172	2.000000	1.002999	7.36672e+06	-47239.1	955.82	-29767.2	0.000000	0.000000	7.007667	98.2939	NaN	0.000000	0.001568	0.001696	28.0853	44.3155	0.001792	24734	4.262187	178.003	96.938	1.002692	0.046603	0.046296	98.2939	24734	0.043623	0.073726	1333.23	83225.6
172	2.000000	1.004955	7.36672e+06	-47239.1	955.819	-29767.2	0.000000	0.000000	7.009990	107.226	NaN	0.000000	0.001575	0.001689	28.0853	46.1613	0.001792	25763.9	6.000835	176.759	106.321	1.004659	0.048560	0.048264	107.226	25763.9	0.045438	0.078836	1360.1	83834.4
172	2.000000	1.006986	7.36672e+06	-47239.1	955.819	-29767.2	0.000000	0.000000	7.012348	115.17	NaN	0.000000	0.001598	0.001685	28.0853	48.7914	0.001875	26017.2	7.483581	175.129	114.79	1.006599	0.050590	0.050204	115.17	26017.2	0.047270	0.084163	1368.42	81935.7
172	2.000000	1.008926	7.36673e+06	-47239.1	955.819	-29767.2	0.000000	0.000000	7.014743	126.249	NaN	0.000000	0.001571	0.001678	28.0849	49.0255	0.001728	28368.4	5.333824	176.448	125.003	1.008696	0.052530	0.052301	126.249	28368.4	0.049193	0.089934	1403.8	86426.4
172	2.000000	1.010971	7.36673e+06	-47239.1	955.82	-29767.2	0.000000	0.000000	7.017002	131.446	NaN	0.000000	0.001570	0.001661	28.085	52.1643	0.001830	28501.9	6.967166	174.843	130.627	1.010645	0.054575	0.054250	131.446	28501.9	0.051116	0.095894	1370.73	84091.1
172	2.000000	1.012997	7.36673e+06	-47239.1	955.82	-29767.2	0.000000	0.000000	7.019527	143.575	NaN	0.000000	0.001564	0.001655	28.0852	54.1252	0.001811	29881.9	7.341053	173.603	144.017	1.012603	0.056602	0.056208	143.575	29881.9	0.052998	0.101905	1408.91	85523.2
172	2.000000	1.014945	7.36673e+06	-47239.1	955.82	-29767.2	0.000000	0.000000	7.021691	148.847	NaN	0.000000	0.001615	0.001654	28.0858	55.5545	0.001842	30155.1	6.744299	173.533	147.194	1.014687	0.058549	0.058292	148.847	30155.1	0.054847	0.107982	1378.45	83841.5
172	2.000000	1.016936	7.36673e+06	-47239.1	955.819	-29767.2	0.000000	0.000000	7.024133	159.803	NaN	0.000000	0.001562	0.001668	28.0873	57.3211	0.001684	34041.3	3.944698	175.38	159.206	1.016652	0.060541	0.060256	159.803	34041.3	0.057020	0.115339	1385.51	91578.1
172	2.000000	1.018976	7.36673e+06	-47239.1	955.82	-29767.2	0.000000	0.000000	7.026673	171.971	NaN	0.000000	0.001590	0.001644	28.0865	58.2206	0.001767	32948.6	6.685878	174.31	171.834	1.018521	0.062580	0.062125	171.971	32948.6	0.058666	0.121067	1420.47	86516.4
172	2.000000	1.020966	7.36673e+06	-47239.1	955.821	-29767.2	0.000000	0.000000	7.028920	178.222	NaN	0.000000	0.001618	0.001638	28.0875	61.4335	0.001813	33891.5	4.266569	175.44	179.02	1.020666	0.064571	0.064270	178.222	33891.5	0.060627	0.128066	1391.65	86526.2
172	2.000000	1.022933	7.36673e+06	-47239.1	955.819	-29767.2	0.000000	0.000000	7.031473	192.469	NaN	0.000000	0.001593	0.001659	28.0867	63.0294	0.001782	35362	3.636545	176.189	188.863	1.022678	0.066537	0.066283	192.469	35362	0.062455	0.134759	1428.24	88009.8
172	2.000000	1.024883	7.36673e+06	-47239.1	955.82	-29767.2	0.000000	0.000000	7.033876	203.474	NaN	0.000000	0.001602	0.001686	28.0872	64.6295	0.001817	35562.9	5.309780	174.444	199.138	1.024597	0.068488	0.068201	203.474	35562.9	0.064197	0.141286	1440.15	86441.1
172	2.000000	1.026943	7.36673e+06	-47239.1	955.819	-29767.2	0.000000	0.000000	7.036485	216.85	NaN	0.000000	0.001545	0.001681	28.0864	68.4973	0.001951	35111.4	10.2089	170.535	216.566	1.026539	0.070548	0.070144	216.85	35111.4	0.065916	0.147871	1466.48	83421.9
172	2.000000	1.028864	7.36673e+06	-47239.1	955.818	-29767.2	0.000000	0.000000	7.038881	228.417	NaN	0.000000	0.001567	0.001654	28.0861	67.7778	0.001812	37402.1	2.451201	176.659	223.886	1.028621	0.072468	0.072225	228.417	37402.1	0.067888	0.155602	1467.96	86628.6
172	2.000000	1.030948	7.36673e+06	-47239.1	955.819	-29767.2	0.000000	0.000000	7.041362	238.041	NaN	0.000000	0.001597	0.001665	28.0856	70.7016	0.001808	39096.2	3.478481	175.517	239.301	1.030627	0.074553	0.074231	238.041	39096.2	0.069987	0.164033	1451.18	88194.6
172	2.000000	1.032920	7.36673e+06	-47239.1	955.819	-29767.2	0.000000	0.000000	7.043888	251.523	NaN	0.000000	0.001555	0.001622	28.0862	73.1188	0.001898	38521.4	7.553104	171.207	249.454	1.032603	0.076525	0.076208	251.523	38521.4	0.071627	0.170771	1472.86	85166.3
172	2.000000	1.034885	7.36673e+06	-47239.1	955.82	-29767.2	0.000000	0.000000	7.046481	266.821	NaN	0.000000	0.001597	0.001628	28.0853	74.6027	0.001871	39875.7	7.248278	171.37	264.189	1.034558	0.078489	0.078162	266.821	39875.7	0.073471	0.178493	1494.85	86232.3
172	2.000000	1.036917	7.36673e+06	-47239.1	955.82	-29767.2	0.000000	0.000000	7.049179	283.023	NaN	0.000000	0.001577	0.001626	28.0862	75.33	0.001812	41562.1	1.287280	177.344	282.757	1.036587	0.080521	0.080191	283.023	41562.1	0.075414	0.186806	1515.07	87856.8
172	2.000000	1.038988	7.36673e+06	-47239.1	955.819	-29767.2	0.000000	0.000000	7.051473	288.417	NaN	0.000000	0.001618	0.001676	28.0878	76.5646	0.001745	43881.2	3.033018	175.007	291.438	1.038692	0.082593	0.082297	288.417	43881.2	0.077663	0.196651	1466.64	90407.2
172	2.000000	1.040950	7.36673e+06	-47239.1	955.819	-29767.2	0.000000	0.000000	7.054210	307.283	NaN	0.000000	0.001626	0.001686	28.0852	79.6531	0.001775	44885	5.260980	173.299	307.925	1.040530	0.084554	0.084135	307.283	44885	0.079420	0.204503	1502.58	90682.6
172	2.000000	1.042955	7.36673e+06	-47239.1	955.82	-29767.2	0.000000	0.000000	7.056944	325.015	NaN	0.000000	0.001602	0.001701	28.086	82.019	0.001728	47456.3	9.316272	168.395	324.45	1.042541	0.086560	0.086146	325.015	47456.3	0.081423	0.213636	1521.35	93805.8
172	2.000000	1.044896	7.36673e+06	-47239.1	955.819	-29767.2	0.000000	0.000000	7.059289	334.848	NaN	0.000000	0.001557	0.001756	28.0847	82.6339	0.001845	44798.2	3.392842	174.549	331.069	1.044563	0.088500	0.088167	334.848	44798.2	0.082894	0.220459	1518.87	87170.6
172	2.000000	1.047011	7.36673e+06	-47239.1	955.819	-29767.2	0.000000	0.000000	7.061979	348.83	NaN	0.000000	0.001583	0.001671	28.0845	86.679	0.001763	49171.5	7.682182	170.008	351.78	1.046611	0.090616	0.090215	348.83	49171.5	0.085295	0.231811	1504.8	93308.1
172	2.000000	1.049020	7.36673e+06	-47239.1	955.818	-29767.2	0.000000	0.000000	7.064559	362.708	NaN	0.000000	0.001626	0.001671	28.0836	86.63	0.001758	49270	4.887294	172.774	369.785	1.048593	0.092625	0.092198	362.708	49270	0.087104	0.240539	1507.9	91783.1
172	2.000000	1.050881	7.36673e+06	-47239.1	955.819	-29767.2	0.000000	0.000000	7.067013	377.142	NaN	0.000000	0.001579	0.001687	28.085	90.1108	0.001840	48963.9	6.304642	170.823	374.852	1.050666	0.094485	0.094271	377.142	48963.9	0.088708	0.248408	1518.24	89756.5
172	2.000000	1.052865	7.36673e+06	-47239.1	955.82	-29767.2	0.000000	0.000000	7.069900	399.093	NaN	0.000000	0.001606	0.001695	28.0838	90.3109	0.001771	50996.7	4.266322	172.934	394.097	1.052575	0.096470	0.096179	399.093	50996.7	0.090600	0.257840	1547.83	91757.1
172	2.000000	1.054968	7.36673e+06	-47239.1	955.819	-29767.2	0.000000	0.000000	7.072405	408.878	NaN	0.000000	0.001612	0.001667	28.0853	92.0968	0.001750	52622	4.495664	172.521	411.383	1.054614	0.098573	0.098218	408.878	52622	0.092745	0.268730	1521.52	92743.2
172	2.000000	1.056880	7.36673e+06	-47239.1	955.819	-29767.2	0.000000	0.000000	7.074896	422.967	NaN	0.000000	0.001590	0.001648	28.0861	94.9613	0.001761	53932.1	3.848370	172.271	422.38	1.056665	0.100484	0.100269	422.967	53932.1	0.094602	0.278327	1519.67	93399.1
172	2.000000	1.058882	7.36673e+06	-47239.1	955.819	-29767.2	0.000000	0.000000	7.077802	444.962	NaN	0.000000	0.001586	0.001660	28.0869	96.1689	0.001720	55904.7	5.226764	170.889	442.596	1.058701	0.102486	0.102306	444.962	55904.7	0.096517	0.288387	1542.93	95111.5
172	2.000000	1.060866	7.36673e+06	-47239.1	955.819	-29767.2	0.000000	0.000000	7.080572	464.074	NaN	0.000000	0.001586	0.001659	28.0857	97.5306	0.001721	56671.6	3.427000	173.458	461.012	1.060432	0.104470	0.104037	464.074	56671.6	0.098329	0.298063	1556.97	94838.5
172	2.000000	1.062812	7.36673e+06	-47239.1	955.819	-29767.2	0.000000	0.000000	7.083303	483.163	NaN	0.000000	0.001575	0.001637	28.0849	100.195	0.001767	56699.2	4.556602	172.221	475.479	1.062456	0.106417	0.106060	483.163	56699.2	0.100025	0.307258	1572.5	93454.2
172	2.000000	1.064822	7.36673e+06	-47239.1	955.819	-29767.2	0.000000	0.000000	7.086198	504.704	NaN	0.000000	0.001579	0.001684	28.0855	102.024	0.001832	55689.2	5.937846	171.184	500.59	1.064367	0.108427	0.107972	504.704	55689.2	0.101629	0.316071	1596.81	90500.8
172	2.000000	1.066890	7.36673e+06	-47239.1	955.819	-29767.2	0.000000	0.000000	7.088577	512.244	NaN	0.000000	0.001574	0.001664	28.085	105.038	0.001798	58406.2	5.038971	171.141	512.853	1.066543	0.110495	0.110147	512.244	58406.2	0.103917	0.328842	1557.72	93054.8