File: remote_trans/data/nanoindenter/0828-1/data/Data_2025-08-06,11h17m57s/2025-07-22_16-23-58_1_469.txt
2025-07-22, 16:23:58, 1
Index	Phase	Displacement	Time	Pos X	Pos Y	Pos Z	Rot A	Rot B	Piezo Z	Force A	Force B	Gripper	Voltage A	Voltage B	Temperature	Amplitude force	Amplitude pos	Stiffness	Phase shift	Phase excitation	Force A raw	Displacement raw	HMax	HMax raw	Real Force	Real Stiffness	Contact Depth	Area	Hardness	Reduced Mod.
[#]	[#]	[um]	[s]	[um]	[um]	[um]	[m°]	[m°]	[um]	[uN]	[uN]	[V]	[V]	[V]	[°C]	[uN]	[um]	[N/m]	[°]	[°]	[uN]	[um]	[um]	[um]	[uN]	[N/m]	[um]	[um^2]	[MPa]	[MPa]
469	1.000000	0.002159	7.36964e+06	-53639.1	1005.82	-29745.9	0.000000	0.000000	6.002806	-0.038464	NaN	0.000000	0.001590	0.001810	28.0795	0.062103	0.000907	68.4726	108.792	-166.486	-0.030169	0.000888	-1.004083	-1.005354	-0.038464	68.4726	-1.003662	-2.541359E+13	1.513507E-15	NaN
469	1.000000	0.010137	7.36964e+06	-53639.1	1005.82	-29745.9	0.000000	0.000000	6.010785	-0.032976	NaN	0.000000	0.001622	0.001783	28.0794	0.064587	0.001061	60.853	11.9833	-158.556	-0.001710	0.008754	-0.996105	-0.997488	-0.032976	60.853	-0.995698	-1.985415E+13	1.660899E-15	NaN
469	1.000000	0.018129	7.36964e+06	-53639.1	1005.82	-29745.9	0.000000	0.000000	6.018780	0.032025	NaN	0.000000	0.001640	0.001826	28.0793	0.032828	0.001707	19.2337	-73.2485	-162.7	0.025433	0.016777	-0.988113	-0.989465	0.032025	19.2337	-0.989362	-1.631224E+13	-1.963278E-15	NaN
469	1.000000	0.026134	7.36964e+06	-53639.1	1005.82	-29745.9	0.000000	0.000000	6.026785	0.039100	NaN	0.000000	0.001585	0.001798	28.0796	0.066095	0.001835	36.0187	-69.0438	-163.984	0.003532	0.024715	-0.980108	-0.981527	0.039100	36.0187	-0.980922	-1.255536E+13	-3.114214E-15	NaN
469	1.000000	0.034061	7.36964e+06	-53639.1	1005.82	-29745.9	0.000000	0.000000	6.034711	0.018860	NaN	0.000000	0.001627	0.001788	28.0795	0.054603	0.001845	29.5886	-118.027	-166.532	0.022514	0.032830	-0.972181	-0.973412	0.018860	29.5886	-0.972659	-9.716263E+12	-1.941118E-15	NaN
469	1.000000	0.042112	7.36964e+06	-53639.1	1005.82	-29745.9	0.000000	0.000000	6.042765	0.073754	NaN	0.000000	0.001611	0.001772	28.0798	0.053561	0.002038	26.2856	-72.0413	-166.757	-0.055636	0.040751	-0.964129	-0.965491	0.073754	26.2856	-0.966234	-7.959821E+12	-9.265743E-15	NaN
469	1.000000	0.050077	7.36964e+06	-53639.1	1005.82	-29745.9	0.000000	0.000000	6.050730	0.080919	NaN	0.000000	0.001586	0.001794	28.0796	0.051798	0.001991	26.0147	-33.2148	-166.232	-0.001640	0.048793	-0.956165	-0.957449	0.080919	26.0147	-0.958498	-6.260569E+12	-1.292525E-14	NaN
469	1.000000	0.058086	7.36964e+06	-53639.1	1005.82	-29745.9	0.000000	0.000000	6.058735	-0.023421	NaN	0.000000	0.001631	0.001806	28.0796	0.024441	0.002118	11.5381	-103.439	-166.183	-0.040842	0.056764	-0.948155	-0.949478	-0.023421	11.5381	-0.946633	-4.331274E+12	5.407468E-15	NaN
469	1.000000	0.066100	7.36964e+06	-53639.1	1005.82	-29745.9	0.000000	0.000000	6.066749	-0.018098	NaN	0.000000	0.001612	0.001812	28.0797	0.101785	0.001929	52.7781	157.26	-168.593	-0.077000	0.064767	-0.940142	-0.941475	-0.018098	52.7781	-0.939884	-3.512184E+12	5.152842E-15	NaN
469	1.000000	0.074114	7.36964e+06	-53639.1	1005.82	-29745.9	0.000000	0.000000	6.074764	0.012242	NaN	0.000000	0.001610	0.001766	28.0798	0.142962	0.002058	69.4806	114.801	-168.621	-0.007985	0.072822	-0.932128	-0.933420	0.012242	69.4806	-0.932260	-2.771384E+12	-4.417403E-15	NaN
469	1.000000	0.082148	7.36964e+06	-53639.1	1005.82	-29745.9	0.000000	0.000000	6.082798	0.019613	NaN	0.000000	0.001584	0.001796	28.0798	0.105069	0.001885	55.7319	-41.1167	-166.497	0.005510	0.080776	-0.924094	-0.925466	0.019613	55.7319	-0.924358	-2.167897E+12	-9.046858E-15	NaN
469	1.000000	0.090118	7.36964e+06	-53639.1	1005.82	-29745.9	0.000000	0.000000	6.090769	0.024778	NaN	0.000000	0.001619	0.001776	28.0795	0.120107	0.001910	62.8988	103.566	-161.305	0.015292	0.088832	-0.916123	-0.917410	0.024778	62.8988	-0.916419	-1.693761E+12	-1.462889E-14	NaN
469	1.000000	0.098146	7.36964e+06	-53639.1	1005.82	-29745.9	0.000000	0.000000	6.098797	0.043711	NaN	0.000000	0.001620	0.001796	28.0797	0.023786	0.001933	12.3046	111.077	-167.33	0.009124	0.096787	-0.908096	-0.909455	0.043711	12.3046	-0.910760	-1.420472E+12	-3.077222E-14	NaN
469	1.000000	0.106123	7.36964e+06	-53639.1	1005.82	-29745.9	0.000000	0.000000	6.106770	-0.052433	NaN	0.000000	0.001630	0.001761	28.0797	0.059913	0.001926	31.1136	-95.145	-162.184	0.010873	0.104789	-0.900119	-0.901453	-0.052433	31.1136	-0.898855	-9.808213E+11	5.345818E-14	NaN
469	1.000000	0.114104	7.36964e+06	-53639.1	1005.82	-29745.9	0.000000	0.000000	6.114750	-0.077979	NaN	0.000000	0.001601	0.001772	28.0796	0.169346	0.002124	79.7134	-139.614	-162.909	-0.001727	0.112828	-0.892138	-0.893414	-0.077979	79.7134	-0.891404	-7.778424E+11	1.002506E-13	NaN
469	1.000000	0.122152	7.36964e+06	-53639.1	1005.82	-29745.9	0.000000	0.000000	6.122806	0.114797	NaN	0.000000	0.001612	0.001788	28.0795	0.180616	0.001893	95.3877	-103.074	-165.454	0.038779	0.120807	-0.884090	-0.885435	0.114797	95.3877	-0.884992	-6.371083E+11	-1.801839E-13	NaN
469	1.000000	0.130132	7.36964e+06	-53639.1	1005.82	-29745.9	0.000000	0.000000	6.130780	-0.029409	NaN	0.000000	0.001629	0.001786	28.08	0.114270	0.001891	60.4194	82.9939	-164.12	-0.018556	0.128810	-0.876109	-0.877432	-0.029409	60.4194	-0.875744	-4.776973E+11	6.156364E-14	NaN
469	1.000000	0.138135	7.36964e+06	-53639.1	1005.82	-29745.9	0.000000	0.000000	6.138784	-0.025883	NaN	0.000000	0.001624	0.001729	28.0812	0.069703	0.001942	35.8953	-89.6585	-166.784	-0.018944	0.136811	-0.868106	-0.869430	-0.025883	35.8953	-0.867566	-3.702599E+11	6.990413E-14	NaN
469	1.000000	0.146162	7.36964e+06	-53639.1	1005.82	-29745.9	0.000000	0.000000	6.146811	0.012810	NaN	0.000000	0.001679	0.001703	28.081	0.045769	0.001999	22.8926	-171.61	-165.764	0.015895	0.144826	-0.860080	-0.861415	0.012810	22.8926	-0.860500	-2.970894E+11	-4.311702E-14	NaN
469	1.000000	0.154173	7.36964e+06	-53639.1	1005.82	-29745.9	0.000000	0.000000	6.154825	0.053795	NaN	0.000000	0.001662	0.001710	28.081	0.120802	0.002028	59.5617	-83.2368	-163.152	0.036282	0.152895	-0.852068	-0.853347	0.053795	59.5617	-0.852746	-2.333015E+11	-2.305801E-13	NaN
469	1.000000	0.162145	7.36964e+06	-53639.1	1005.82	-29745.9	0.000000	0.000000	6.162796	0.047959	NaN	0.000000	0.001641	0.001726	28.0809	0.036916	0.002045	18.0505	-125.866	-166.819	0.045818	0.160801	-0.844097	-0.845440	0.047959	18.0505	-0.846089	-1.895739E+11	-2.529834E-13	NaN
469	1.000000	0.170145	7.36964e+06	-53639.1	1005.82	-29745.9	0.000000	0.000000	6.170796	0.046426	NaN	0.000000	0.001685	0.001729	28.0809	0.073481	0.001946	37.7566	22.9096	-163.347	0.106918	0.168838	-0.836097	-0.837404	0.046426	37.7566	-0.837019	-1.428587E+11	-3.249753E-13	NaN
469	1.000000	0.178131	7.36964e+06	-53639.1	1005.82	-29745.9	0.000000	0.000000	6.178781	0.020877	NaN	0.000000	0.001664	0.001708	28.0809	0.111540	0.001980	56.3236	23.1306	-169.511	-0.076558	0.176824	-0.828111	-0.829418	0.020877	56.3236	-0.828389	-1.091299E+11	-1.913033E-13	NaN
469	1.000000	0.186167	7.36964e+06	-53639.1	1005.82	-29745.9	0.000000	0.000000	6.186822	0.143126	NaN	0.000000	0.001654	0.001727	28.0809	0.044266	0.002001	22.1173	-178.407	-166.947	0.083037	0.184811	-0.820075	-0.821431	0.143126	22.1173	-0.824928	-9.795690E+10	-1.461115E-12	NaN
469	1.000000	0.194172	7.36964e+06	-53639.1	1005.82	-29745.9	0.000000	0.000000	6.194820	-0.033417	NaN	0.000000	0.001662	0.001744	28.0811	0.086998	0.001932	45.022	-65.9066	-165.513	0.052388	0.192859	-0.812069	-0.813383	-0.033417	45.022	-0.811513	-6.443091E+10	5.186518E-13	NaN
469	1.000000	0.202186	7.36964e+06	-53639.1	1005.82	-29745.9	0.000000	0.000000	6.202840	0.102593	NaN	0.000000	0.001639	0.001739	28.0811	0.057617	0.002061	27.9505	94.8481	-166.155	0.108037	0.200853	-0.804055	-0.805388	0.102593	27.9505	-0.806808	-5.562435E+10	-1.844393E-12	NaN
469	1.000000	0.210159	7.36964e+06	-53639.1	1005.82	-29745.9	0.000000	0.000000	6.210807	-0.033653	NaN	0.000000	0.001559	0.001676	28.0809	0.084130	0.002152	39.0912	163.43	-161.307	-0.037954	0.208862	-0.796083	-0.797380	-0.033653	39.0912	-0.795437	-3.898677E+10	8.631812E-13	NaN
469	1.000000	0.218159	7.36964e+06	-53639.1	1005.82	-29745.9	0.000000	0.000000	6.218810	0.031038	NaN	0.000000	0.001593	0.001711	28.0809	0.077788	0.002081	37.3805	-170.394	-167.022	0.004226	0.216818	-0.788082	-0.789424	0.031038	37.3805	-0.788705	-3.158610E+10	-9.826531E-13	NaN
469	1.000000	0.226201	7.36964e+06	-53639.1	1005.82	-29745.9	0.000000	0.000000	6.226851	0.031154	NaN	0.000000	0.001582	0.001716	28.081	0.117404	0.001985	59.1591	-120.42	-167.579	0.037683	0.224811	-0.780041	-0.781431	0.031154	59.1591	-0.780436	-2.438700E+10	-1.277494E-12	NaN
469	1.000000	0.234195	7.36964e+06	-53639.1	1005.82	-29745.9	0.000000	0.000000	6.234844	-0.000514	NaN	0.000000	0.001558	0.001748	28.081	0.035139	0.001925	18.2575	108.486	-162.609	-0.032839	0.232819	-0.772047	-0.773423	-0.000514	18.2575	-0.772026	-1.874340E+10	2.742711E-14	NaN
469	1.000000	0.242168	7.36964e+06	-53639.1	1005.82	-29745.9	0.000000	0.000000	6.242818	0.020727	NaN	0.000000	0.001573	0.001783	28.0812	0.116610	0.002085	55.9276	109.183	-167.756	-0.053825	0.240841	-0.764074	-0.765401	0.020727	55.9276	-0.764352	-1.474008E+10	-1.406141E-12	NaN
469	1.000000	0.250165	7.36964e+06	-53639.1	1005.82	-29745.9	0.000000	0.000000	6.250815	0.017200	NaN	0.000000	0.001581	0.001762	28.0811	0.080238	0.002003	40.0682	121.688	-166.838	-0.021250	0.248877	-0.756077	-0.757365	0.017200	40.0682	-0.756399	-1.148961E+10	-1.496995E-12	NaN
469	1.000000	0.258205	7.36964e+06	-53639.1	1005.82	-29745.9	0.000000	0.000000	6.258855	0.032347	NaN	0.000000	0.001579	0.001719	28.0808	0.085257	0.002034	41.9165	159.323	-164.261	0.025088	0.256854	-0.748037	-0.749388	0.032347	41.9165	-0.748616	-9.002773E+9	-3.592954E-12	NaN
469	1.000000	0.266181	7.36964e+06	-53639.1	1005.82	-29745.9	0.000000	0.000000	6.266830	0.013987	NaN	0.000000	0.001604	0.001733	28.0809	0.022627	0.001958	11.5584	-18.2915	-163.311	0.012744	0.264854	-0.740061	-0.741388	0.013987	11.5584	-0.740969	-7.083561E+9	-1.974608E-12	NaN
469	1.000000	0.274176	7.36964e+06	-53639.1	1005.82	-29745.9	0.000000	0.000000	6.274824	-0.032000	NaN	0.000000	0.001598	0.001719	28.0793	0.019319	0.001920	10.0599	-29.6025	-162.646	-0.054744	0.272824	-0.732066	-0.733418	-0.032000	10.0599	-0.729680	-4.971038E+9	6.437321E-12	NaN
469	1.000000	0.282205	7.36964e+06	-53639.1	1005.82	-29745.9	0.000000	0.000000	6.282856	0.041335	NaN	0.000000	0.001583	0.001732	28.0802	0.089757	0.001998	44.9186	154.048	-163.4	-0.030025	0.280889	-0.724037	-0.725353	0.041335	44.9186	-0.724727	-4.255270E+9	-9.713906E-12	NaN
469	1.000000	0.290203	7.36964e+06	-53639.1	1005.82	-29745.9	0.000000	0.000000	6.290852	0.003926	NaN	0.000000	0.001542	0.001750	28.0797	0.090642	0.001970	46.0185	0.924855	-166.713	0.001328	0.288880	-0.716039	-0.717361	0.003926	46.0185	-0.716103	-3.245805E+9	-1.209558E-12	NaN
469	1.000000	0.298172	7.36964e+06	-53639.1	1005.82	-29745.9	0.000000	0.000000	6.298824	0.068311	NaN	0.000000	0.001585	0.001736	28.0796	0.071203	0.002033	35.017	119.682	-164.927	0.059383	0.296893	-0.708070	-0.709349	0.068311	35.017	-0.709533	-2.640407E+9	-2.587157E-11	NaN
469	1.000000	0.306217	7.36964e+06	-53639.1	1005.82	-29745.9	0.000000	0.000000	6.306865	-0.027968	NaN	0.000000	0.001583	0.001728	28.0797	0.040673	0.002113	19.2443	67.7458	-166.606	0.033106	0.304914	-0.700025	-0.701328	-0.027968	19.2443	-0.698935	-1.892299E+9	1.478012E-11	NaN
469	1.000000	0.314200	7.36964e+06	-53639.1	1005.82	-29745.9	0.000000	0.000000	6.314845	-0.092901	NaN	0.000000	0.001586	0.001737	28.0795	0.036213	0.002069	17.5018	154.66	-164.162	-0.080471	0.312865	-0.692042	-0.693377	-0.092901	17.5018	-0.688061	-1.344049E+9	6.912014E-11	NaN
469	1.000000	0.322242	7.36964e+06	-53639.1	1005.82	-29745.9	0.000000	0.000000	6.322891	0.001409	NaN	0.000000	0.001581	0.001756	28.0796	0.088892	0.001981	44.8708	33.5056	-163.697	0.018330	0.320854	-0.684000	-0.685388	0.001409	44.8708	-0.684023	-1.183651E+9	-1.190082E-12	NaN
469	1.000000	0.330206	7.36965e+06	-53639.1	1005.82	-29745.9	0.000000	0.000000	6.330857	0.040212	NaN	0.000000	0.001562	0.001798	28.0798	0.039710	0.001951	20.3483	-139.902	-165.449	-0.043267	0.328914	-0.676036	-0.677327	0.040212	20.3483	-0.677518	-9.643960E+8	-4.169697E-11	NaN
469	1.000000	0.338202	7.36965e+06	-53639.1	1005.82	-29745.9	0.000000	0.000000	6.338852	0.012234	NaN	0.000000	0.001558	0.001703	28.0798	0.017047	0.002024	8.421550	-0.153653	-167.185	0.033691	0.336908	-0.668039	-0.669334	0.012234	8.421550	-0.669129	-7.404037E+8	-1.652316E-11	NaN
469	1.000000	0.346247	7.36965e+06	-53639.1	1005.82	-29745.9	0.000000	0.000000	6.346896	-0.003177	NaN	0.000000	0.001621	0.001720	28.0799	0.074718	0.002041	36.6165	-84.0466	-164.827	0.067838	0.344872	-0.659995	-0.661370	-0.003177	36.6165	-0.659930	-5.539986E+8	5.734534E-12	NaN
469	1.000000	0.354209	7.36965e+06	-53639.1	1005.82	-29745.9	0.000000	0.000000	6.354858	-0.017024	NaN	0.000000	0.001549	0.001776	28.0797	0.041030	0.001901	21.5886	178.757	-163.071	-0.006315	0.352937	-0.652032	-0.653305	-0.017024	21.5886	-0.651441	-4.238268E+8	4.016726E-11	NaN
469	1.000000	0.362234	7.36965e+06	-53639.1	1005.82	-29745.9	0.000000	0.000000	6.362887	0.071898	NaN	0.000000	0.001597	0.001750	28.0796	0.060647	0.001942	31.2271	-24.8522	-162.681	0.087843	0.360949	-0.644007	-0.645292	0.071898	31.2271	-0.645734	-3.539534E+8	-2.031289E-10	NaN
469	1.000000	0.370240	7.36965e+06	-53639.1	1005.82	-29745.9	0.000000	0.000000	6.370888	-0.012333	NaN	0.000000	0.001590	0.001734	28.08	0.065791	0.001996	32.9599	73.8542	-166.36	-0.022382	0.368905	-0.636002	-0.637337	-0.012333	32.9599	-0.635722	-2.579743E+8	4.780834E-11	NaN
469	1.000000	0.378222	7.36965e+06	-53639.1	1005.82	-29745.9	0.000000	0.000000	6.378872	0.027957	NaN	0.000000	0.001594	0.001719	28.0797	0.024263	0.001922	12.6212	51.9815	-162.652	0.039250	0.376958	-0.628020	-0.629284	0.027957	12.6212	-0.629681	-2.131297E+8	-1.311733E-10	NaN
469	1.000000	0.386254	7.36965e+06	-53639.1	1005.82	-29745.9	0.000000	0.000000	6.386905	0.027237	NaN	0.000000	0.001617	0.001732	28.0797	0.034347	0.002188	15.6952	-75.8443	-165.591	-0.012369	0.384907	-0.619987	-0.621335	0.027237	15.6952	-0.621289	-1.634367E+8	-1.666516E-10	NaN
469	1.000000	0.394226	7.36965e+06	-53639.1	1005.82	-29745.9	0.000000	0.000000	6.394876	0.005005	NaN	0.000000	0.001541	0.001740	28.0795	0.061778	0.002018	30.6126	107.535	-167.17	-0.024401	0.392909	-0.612016	-0.613333	0.005005	30.6126	-0.612138	-1.223289E+8	-4.091078E-11	NaN
469	1.000000	0.402266	7.36965e+06	-53639.1	1005.82	-29745.9	0.000000	0.000000	6.402915	-0.015344	NaN	0.000000	0.001582	0.001766	28.0795	0.027016	0.002126	12.7067	-58.4559	-164.876	-0.026386	0.400928	-0.603976	-0.605314	-0.015344	12.7067	-0.603070	-9.177765E+7	1.671813E-10	NaN
469	1.000000	0.410267	7.36965e+06	-53639.1	1005.82	-29745.9	0.000000	0.000000	6.410919	0.061715	NaN	0.000000	0.001587	0.001760	28.0806	0.084172	0.002044	41.1697	-87.4905	-164.922	0.138425	0.408983	-0.595974	-0.597259	0.061715	41.1697	-0.597099	-7.594458E+7	-8.126310E-10	NaN
469	1.000000	0.418236	7.36965e+06	-53639.1	1005.82	-29745.9	0.000000	0.000000	6.418885	-0.004049	NaN	0.000000	0.001558	0.001753	28.0808	0.133620	0.001935	69.0645	105.493	-168.432	-0.036282	0.416940	-0.588006	-0.589302	-0.004049	69.0645	-0.587962	-5.682812E+7	7.125834E-11	NaN
469	1.000000	0.426246	7.36965e+06	-53639.1	1005.82	-29745.9	0.000000	0.000000	6.426897	0.063835	NaN	0.000000	0.001582	0.001757	28.0808	0.095604	0.002049	46.6584	-14.3503	-163.634	0.032920	0.424918	-0.579996	-0.581324	0.063835	46.6584	-0.581022	-4.558631E+7	-1.400320E-9	NaN
469	1.000000	0.434288	7.36965e+06	-53639.1	1005.82	-29745.9	0.000000	0.000000	6.434938	0.009027	NaN	0.000000	0.001560	0.001735	28.0809	0.090149	0.001987	45.3608	-3.993756	-165.29	-0.050829	0.432958	-0.571954	-0.573284	0.009027	45.3608	-0.572103	-3.433096E+7	-2.629339E-10	NaN
469	1.000000	0.442272	7.36965e+06	-53639.1	1005.82	-29745.9	0.000000	0.000000	6.442922	0.029077	NaN	0.000000	0.001566	0.001762	28.0808	0.053708	0.002033	26.4197	-149.53	-167.693	-0.024915	0.440953	-0.563970	-0.565288	0.029077	26.4197	-0.564795	-2.720789E+7	-1.068709E-9	NaN
469	1.000000	0.450239	7.36965e+06	-53639.1	1005.82	-29745.9	0.000000	0.000000	6.450889	0.019766	NaN	0.000000	0.001542	0.001757	28.0806	0.066709	0.002036	32.7692	31.3422	-164.452	-0.011508	0.448987	-0.556003	-0.557255	0.019766	32.7692	-0.556455	-2.086093E+7	-9.474922E-10	NaN
469	1.000000	0.458257	7.36965e+06	-53639.1	1005.82	-29745.9	0.000000	0.000000	6.458910	0.073682	NaN	0.000000	0.001598	0.001744	28.0806	0.039043	0.002033	19.2034	-91.3247	-165.977	0.083820	0.456908	-0.547984	-0.549333	0.073682	19.2034	-0.550862	-1.745405E+7	-4.221469E-9	NaN
469	1.000000	0.466266	7.36965e+06	-53639.1	1005.82	-29745.9	0.000000	0.000000	6.466916	0.005297	NaN	0.000000	0.001597	0.001778	28.0807	0.090567	0.001974	45.8868	138.792	-163.955	-0.005186	0.464968	-0.539975	-0.541274	0.005297	45.8868	-0.540062	-1.236562E+7	-4.283817E-10	NaN
469	1.000000	0.474270	7.36965e+06	-53639.1	1005.82	-29745.9	0.000000	0.000000	6.474921	0.043424	NaN	0.000000	0.001599	0.001786	28.0807	0.054384	0.001948	27.9147	26.2325	-166.513	0.089789	0.472898	-0.531972	-0.533343	0.043424	27.9147	-0.533138	-9.91177e+06	-4.381098E-9	NaN
469	1.000000	0.482295	7.36965e+06	-53639.1	1005.82	-29745.9	0.000000	0.000000	6.482946	0.047370	NaN	0.000000	0.001576	0.001794	28.0808	0.064582	0.002068	31.2288	-60.9588	-166.997	-0.007197	0.481014	-0.523947	-0.525228	0.047370	31.2288	-0.525085	-7.66105e+06	-6.183286E-9	NaN
469	1.000000	0.490311	7.36965e+06	-53639.1	1005.82	-29745.9	0.000000	0.000000	6.490961	0.013809	NaN	0.000000	0.001597	0.001773	28.0809	0.026965	0.002074	13.0043	-60.9038	-165.933	-0.032130	0.489025	-0.515931	-0.517217	0.013809	13.0043	-0.516727	-5.86235e+06	-2.355491E-9	NaN
469	1.000000	0.498304	7.36965e+06	-53639.1	1005.82	-29745.9	0.000000	0.000000	6.498958	0.128662	NaN	0.000000	0.001627	0.001736	28.081	0.028178	0.002037	13.8338	43.704	-163.649	0.062106	0.497016	-0.507938	-0.509226	0.128662	13.8338	-0.514914	-5.53135e+06	-2.326047E-8	NaN
469	1.000000	0.506303	7.36965e+06	-53639.1	1005.82	-29745.9	0.000000	0.000000	6.506954	0.032846	NaN	0.000000	0.001597	0.001750	28.0806	0.055416	0.002028	27.3231	18.9977	-167.451	0.039319	0.504996	-0.499938	-0.501246	0.032846	27.3231	-0.500840	-3.52156e+06	-9.327069E-9	NaN
469	1.000000	0.514311	7.36965e+06	-53639.1	1005.82	-29745.9	0.000000	0.000000	6.514961	0.025215	NaN	0.000000	0.001604	0.001745	28.0808	0.080935	0.002084	38.8421	164.74	-163.722	-0.019987	0.512968	-0.491931	-0.493274	0.025215	38.8421	-0.492418	-2.68642e+06	-9.385919E-9	NaN
469	1.000000	0.522310	7.36965e+06	-53639.1	1005.82	-29745.9	0.000000	0.000000	6.522963	0.090954	NaN	0.000000	0.001631	0.001736	28.0806	0.026301	0.001946	13.5163	-15.4945	-168.385	0.003779	0.520980	-0.483932	-0.485262	0.090954	13.5163	-0.488979	-2.40504e+06	-3.781817E-8	NaN
469	1.000000	0.530301	7.36965e+06	-53639.1	1005.82	-29745.9	0.000000	0.000000	6.530952	0.027310	NaN	0.000000	0.001634	0.001771	28.0808	0.074569	0.002089	35.6981	122.296	-164.817	0.046093	0.528984	-0.475941	-0.477257	0.027310	35.6981	-0.476514	-1.60959e+06	-1.696692E-8	NaN
469	1.000000	0.538321	7.36965e+06	-53639.1	1005.82	-29745.9	0.000000	0.000000	6.538973	0.049443	NaN	0.000000	0.001625	0.001733	28.0809	0.068536	0.001897	36.1348	81.8891	-163.146	0.009858	0.537002	-0.467920	-0.469240	0.049443	36.1348	-0.468947	-1.26076e+06	-3.921691E-8	NaN
469	1.000000	0.546309	7.36965e+06	-53639.1	1005.82	-29745.9	0.000000	0.000000	6.546958	-0.010375	NaN	0.000000	0.001637	0.001736	28.0794	0.055611	0.001996	27.8598	109.688	-165.683	-0.019480	0.544993	-0.459933	-0.461249	-0.010375	27.8598	-0.459653	-933572	1.111374E-8	NaN
469	1.000000	0.554318	7.36965e+06	-53639.1	1005.82	-29745.9	0.000000	0.000000	6.554969	0.027537	NaN	0.000000	0.001625	0.001703	28.0797	0.097447	0.001986	49.0702	-17.5192	-164.244	0.071856	0.552986	-0.451924	-0.453256	0.027537	49.0702	-0.452344	-736800	-3.737440E-8	NaN
469	1.000000	0.562298	7.36965e+06	-53639.1	1005.82	-29745.9	0.000000	0.000000	6.562946	-0.038269	NaN	0.000000	0.001640	0.001742	28.0795	0.038890	0.001877	20.7175	2.936188	-166.333	0.013954	0.561020	-0.443944	-0.445221	-0.038269	20.7175	-0.442558	-536366	7.134779E-8	NaN
469	1.000000	0.570315	7.36965e+06	-53639.1	1005.82	-29745.9	0.000000	0.000000	6.570963	-0.039593	NaN	0.000000	0.001640	0.001705	28.0798	0.094485	0.002058	45.9042	118.662	-165.317	-0.041373	0.569036	-0.435926	-0.437206	-0.039593	45.9042	-0.435279	-423353	9.352222E-8	NaN
469	1.000000	0.578306	7.36965e+06	-53639.1	1005.82	-29745.9	0.000000	0.000000	6.578956	0.005321	NaN	0.000000	0.001562	0.001723	28.0796	0.079994	0.002038	39.2477	-3.313166	-160.233	0.074575	0.577028	-0.427936	-0.429214	0.005321	39.2477	-0.428037	-334418	-1.591050E-8	NaN
469	1.000000	0.586317	7.36965e+06	-53639.1	1005.82	-29745.9	0.000000	0.000000	6.586964	-0.053659	NaN	0.000000	0.001585	0.001710	28.0797	0.072078	0.001978	36.4324	-177.824	-170.213	0.019129	0.585003	-0.419925	-0.421239	-0.053659	36.4324	-0.418820	-247562	2.167493E-7	NaN
469	1.000000	0.594352	7.36965e+06	-53639.1	1005.82	-29745.9	0.000000	0.000000	6.595001	-0.002025	NaN	0.000000	0.001615	0.001716	28.08	0.100408	0.001971	50.9481	-131.776	-166.678	0.038785	0.593008	-0.411890	-0.413234	-0.002025	50.9481	-0.411860	-197170	1.027072E-8	NaN
469	1.000000	0.602340	7.36965e+06	-53639.1	1005.82	-29745.9	0.000000	0.000000	6.602988	-0.023817	NaN	0.000000	0.001593	0.001718	28.0797	0.036763	0.001983	18.5418	39.5172	-164.039	-0.070245	0.601030	-0.403902	-0.405212	-0.023817	18.5418	-0.402939	-147193	1.618042E-7	NaN
469	1.000000	0.610334	7.36965e+06	-53639.1	1005.82	-29745.9	0.000000	0.000000	6.610985	0.043153	NaN	0.000000	0.001598	0.001733	28.0799	0.098475	0.001915	51.4244	54.4602	-164.451	0.103714	0.609050	-0.395907	-0.397192	0.043153	51.4244	-0.396537	-119283	-3.617676E-7	NaN
469	1.000000	0.618329	7.36965e+06	-53639.1	1005.82	-29745.9	0.000000	0.000000	6.618979	0.028327	NaN	0.000000	0.001614	0.001759	28.0796	0.078192	0.001885	41.4849	-113.331	-166.866	0.046072	0.617050	-0.387913	-0.389191	0.028327	41.4849	-0.388425	-91333.4	-3.101516E-7	NaN
469	1.000000	0.626358	7.36965e+06	-53639.1	1005.82	-29745.9	0.000000	0.000000	6.627006	-0.009398	NaN	0.000000	0.001623	0.001758	28.0799	0.093105	0.001969	47.2846	114.558	-164.431	-0.027350	0.625075	-0.379884	-0.381167	-0.009398	47.2846	-0.379735	-68562.7	1.370745E-7	NaN
469	1.000000	0.634359	7.36965e+06	-53639.1	1005.82	-29745.9	0.000000	0.000000	6.635008	-0.001229	NaN	0.000000	0.001570	0.001769	28.0798	0.025088	0.001907	13.1523	-149.322	-166.919	0.027770	0.633030	-0.371883	-0.373212	-0.001229	13.1523	-0.371813	-52751.1	2.329766E-8	NaN
469	1.000000	0.642366	7.36965e+06	-53639.1	1005.82	-29745.9	0.000000	0.000000	6.643019	0.081710	NaN	0.000000	0.001587	0.001748	28.0797	0.043430	0.002121	20.4807	-90.5449	-165.696	0.103892	0.640999	-0.363876	-0.365242	0.081710	20.4807	-0.366868	-44770.6	-1.825089E-6	NaN
469	1.000000	0.650341	7.36965e+06	-53639.1	1005.82	-29745.9	0.000000	0.000000	6.650994	0.083173	NaN	0.000000	0.001602	0.001729	28.0799	0.116220	0.002097	55.4217	55.8717	-164.05	0.069652	0.648994	-0.355901	-0.357248	0.083173	55.4217	-0.357026	-32272.4	-2.577223E-6	NaN
469	1.000000	0.658362	7.36965e+06	-53639.1	1005.82	-29745.9	0.000000	0.000000	6.659013	0.043899	NaN	0.000000	0.001594	0.001762	28.0798	0.043076	0.002086	20.6473	-135.916	-160.718	0.060743	0.657055	-0.347880	-0.349187	0.043899	20.6473	-0.349475	-25083	-1.750138E-6	NaN
469	1.000000	0.666326	7.36965e+06	-53639.1	1005.82	-29745.9	0.000000	0.000000	6.666979	0.085422	NaN	0.000000	0.001552	0.001754	28.0801	0.152296	0.001913	79.6036	-121.381	-165.588	0.009803	0.665099	-0.339916	-0.341142	0.085422	79.6036	-0.340721	-18709.3	-4.565743E-6	NaN
469	1.000000	0.674363	7.36965e+06	-53639.1	1005.82	-29745.9	0.000000	0.000000	6.675010	-0.065810	NaN	0.000000	0.001575	0.001768	28.0799	0.071270	0.001968	36.2097	120.866	-164.951	-0.012113	0.673043	-0.331878	-0.333199	-0.065810	36.2097	-0.330515	-13273.8	4.957898E-6	NaN
469	1.000000	0.682359	7.36965e+06	-53639.1	1005.82	-29745.9	0.000000	0.000000	6.683008	0.012403	NaN	0.000000	0.001580	0.001756	28.0812	0.038166	0.001913	19.9501	138.523	-160.968	-0.048595	0.680963	-0.323883	-0.325279	0.012403	19.9501	-0.324349	-10779.1	-1.150681E-6	NaN
469	1.000000	0.690375	7.36965e+06	-53639.1	1005.82	-29745.9	0.000000	0.000000	6.691025	0.001041	NaN	0.000000	0.001542	0.001779	28.0811	0.015693	0.001894	8.283954	-125.502	-163.996	0.045764	0.689097	-0.315867	-0.317145	0.001041	8.283954	-0.315961	-8111.92	-1.283885E-7	NaN
469	1.000000	0.698374	7.36965e+06	-53639.1	1005.82	-29745.9	0.000000	0.000000	6.699022	-0.029415	NaN	0.000000	0.001574	0.001733	28.081	0.145838	0.001934	75.4191	-177.657	-169.529	-0.013010	0.697022	-0.307868	-0.309220	-0.029415	75.4191	-0.307575	-6097.41	4.824240E-6	NaN
469	1.000000	0.706385	7.36965e+06	-53639.1	1005.82	-29745.9	0.000000	0.000000	6.707035	0.038694	NaN	0.000000	0.001591	0.001767	28.0814	0.053977	0.002005	26.9237	-71.6521	-161.473	0.052887	0.705031	-0.299857	-0.301211	0.038694	26.9237	-0.300935	-4859.05	-7.963251E-6	NaN
469	1.000000	0.714397	7.36965e+06	-53639.1	1005.82	-29745.9	0.000000	0.000000	6.715044	-0.051483	NaN	0.000000	0.001622	0.001726	28.081	0.061852	0.001953	31.6675	-59.1718	-163.823	-0.044762	0.713054	-0.291845	-0.293187	-0.051483	31.6675	-0.290626	-3409.4	1.510022E-5	NaN
469	1.000000	0.722377	7.36965e+06	-53639.1	1005.82	-29745.9	0.000000	0.000000	6.723027	0.015305	NaN	0.000000	0.001613	0.001775	28.0812	0.108643	0.001958	55.4796	71.8296	-164.872	0.002399	0.721092	-0.283865	-0.285150	0.015305	55.4796	-0.284072	-2718.38	-5.630300E-6	NaN
469	1.000000	0.730352	7.36965e+06	-53639.1	1005.82	-29745.9	0.000000	0.000000	6.731000	-0.052177	NaN	0.000000	0.001598	0.001720	28.081	0.062454	0.002065	30.2415	-167.655	-165.757	-0.076889	0.729100	-0.275889	-0.277141	-0.052177	30.2415	-0.274595	-1955.57	2.668114E-5	NaN
469	1.000000	0.738418	7.36965e+06	-53639.1	1005.82	-29745.9	0.000000	0.000000	6.739068	0.021879	NaN	0.000000	0.001624	0.001726	28.081	0.028502	0.001986	14.3481	133.81	-166.482	-0.022494	0.737082	-0.267824	-0.269160	0.021879	14.3481	-0.268968	-1606.37	-1.361990E-5	NaN
469	1.000000	0.746394	7.36965e+06	-53639.1	1005.82	-29745.9	0.000000	0.000000	6.747044	0.021423	NaN	0.000000	0.001611	0.001772	28.081	0.060670	0.002124	28.5595	8.525671	-166.497	0.024260	0.745070	-0.259848	-0.261172	0.021423	28.5595	-0.260411	-1189.09	-1.801657E-5	NaN
469	1.000000	0.754402	7.36965e+06	-53639.1	1005.82	-29745.9	0.000000	0.000000	6.755052	0.015404	NaN	0.000000	0.001610	0.001723	28.0811	0.022306	0.001999	11.1581	34.6179	-166.98	0.024109	0.753072	-0.251840	-0.253170	0.015404	11.1581	-0.252875	-910.699	-1.691476E-5	NaN
469	1.000000	0.762415	7.36965e+06	-53639.1	1005.82	-29745.9	0.000000	0.000000	6.763066	0.028214	NaN	0.000000	0.001613	0.001748	28.0813	0.054280	0.002007	27.0479	31.099	-168.387	0.082132	0.761095	-0.243827	-0.245147	0.028214	27.0479	-0.244609	-678.225	-4.159946E-5	NaN
469	1.000000	0.770380	7.36965e+06	-53639.1	1005.82	-29745.9	0.000000	0.000000	6.771031	0.045672	NaN	0.000000	0.001608	0.001793	28.0813	0.006764	0.001933	3.499736	-119.107	-168.194	0.123635	0.769069	-0.235862	-0.237172	0.045672	3.499736	-0.245650	-703.957	-6.487902E-5	NaN
469	1.000000	0.778368	7.36965e+06	-53639.1	1005.82	-29745.9	0.000000	0.000000	6.779018	0.002611	NaN	0.000000	0.001618	0.001737	28.0812	0.108311	0.002057	52.6486	-104.62	-166.075	-0.019430	0.777105	-0.227874	-0.229137	0.002611	52.6486	-0.227911	-371.096	-7.034595E-6	NaN
469	1.000000	0.786393	7.36965e+06	-53639.1	1005.82	-29745.9	0.000000	0.000000	6.787041	-0.016062	NaN	0.000000	0.001649	0.001769	28.081	0.035468	0.002002	17.7181	-87.3455	-163.007	0.015023	0.785068	-0.219849	-0.221174	-0.016062	17.7181	-0.219169	-269.398	5.961998E-5	NaN
469	1.000000	0.794405	7.36965e+06	-53639.1	1005.82	-29745.9	0.000000	0.000000	6.795056	0.044330	NaN	0.000000	0.001606	0.001792	28.081	0.035882	0.001967	18.2384	-125.257	-164.1	-0.012925	0.793054	-0.211837	-0.213188	0.044330	18.2384	-0.213660	-219.757	-0.000202	NaN
469	1.000000	0.802386	7.36965e+06	-53639.1	1005.82	-29745.9	0.000000	0.000000	6.803036	0.026705	NaN	0.000000	0.001581	0.001764	28.0812	0.040198	0.002095	19.1871	-130.085	-164.611	-0.017204	0.801098	-0.203856	-0.205144	0.026705	19.1871	-0.204900	-158.46	-0.000169	NaN
469	1.000000	0.810383	7.36965e+06	-53639.1	1005.82	-29745.9	0.000000	0.000000	6.811033	0.038332	NaN	0.000000	0.001651	0.001750	28.081	0.040580	0.002120	19.1376	-120.311	-165.475	-0.012941	0.809151	-0.195859	-0.197091	0.038332	19.1376	-0.197361	-119.192	-0.000322	NaN
469	1.000000	0.818433	7.36965e+06	-53639.1	1005.82	-29745.9	0.000000	0.000000	6.819084	0.051037	NaN	0.000000	0.001610	0.001781	28.0802	0.057456	0.001751	32.8062	-80.8767	-164.381	0.043294	0.817107	-0.187809	-0.189135	0.051037	32.8062	-0.188976	-86.4777	-0.000590	NaN
469	1.000000	0.826456	7.36965e+06	-53639.1	1005.82	-29745.9	0.000000	0.000000	6.827105	-0.007964	NaN	0.000000	0.001642	0.001794	28.0797	0.100890	0.001967	51.2921	-76.5874	-166.032	0.061375	0.825131	-0.179786	-0.181111	-0.007964	51.2921	-0.179670	-60.2345	0.000132	NaN
469	1.000000	0.834421	7.36965e+06	-53639.1	1005.82	-29745.9	0.000000	0.000000	6.835070	0.004130	NaN	0.000000	0.001628	0.001775	28.0798	0.060490	0.002042	29.6233	-167.953	-162.985	0.104234	0.833089	-0.171821	-0.173153	0.004130	29.6233	-0.171926	-44.3593	-9.309920E-5	NaN
469	1.000000	0.842428	7.36965e+06	-53639.1	1005.82	-29745.9	0.000000	0.000000	6.843078	0.004468	NaN	0.000000	0.001610	0.001769	28.0799	0.053659	0.002129	25.2098	-65.5232	-165.291	-0.082493	0.841092	-0.163814	-0.165149	0.004468	25.2098	-0.163947	-32.1947	-0.000139	NaN
469	1.000000	0.850451	7.36965e+06	-53639.1	1005.82	-29745.9	0.000000	0.000000	6.851099	-0.025757	NaN	0.000000	0.001607	0.001740	28.0803	0.110824	0.001975	56.1138	12.8868	-166.929	-0.029424	0.849096	-0.155791	-0.157146	-0.025757	56.1138	-0.155447	-22.7307	0.001133	NaN
469	1.000000	0.858431	7.36965e+06	-53639.1	1005.82	-29745.9	0.000000	0.000000	6.859077	-0.068017	NaN	0.000000	0.001583	0.001766	28.0801	0.076065	0.002103	36.1624	103.546	-162.914	-0.012737	0.857086	-0.147811	-0.149156	-0.068017	36.1624	-0.146400	-15.5605	0.004371	NaN
469	1.000000	0.866424	7.36965e+06	-53639.1	1005.82	-29745.9	0.000000	0.000000	6.867074	0.023084	NaN	0.000000	0.001604	0.001776	28.0798	0.098461	0.002115	46.5627	168.824	-163.484	0.000124	0.865107	-0.139818	-0.141134	0.023084	46.5627	-0.140190	-11.9271	-0.001935	NaN
469	1.000000	0.874433	7.36965e+06	-53639.1	1005.82	-29745.9	0.000000	0.000000	6.875082	-0.003784	NaN	0.000000	0.001625	0.001737	28.0802	0.046645	0.002089	22.3237	-149.285	-165.236	-0.048134	0.873164	-0.131808	-0.133077	-0.003784	22.3237	-0.131681	-8.214362	0.000461	NaN
469	1.000000	0.882482	7.36965e+06	-53639.1	1005.82	-29745.9	0.000000	0.000000	6.883131	0.001187	NaN	0.000000	0.001615	0.001783	28.0796	0.080812	0.002045	39.5122	-122.505	-166.316	-0.106916	0.881139	-0.123760	-0.125103	0.001187	39.5122	-0.123782	-5.752314	-0.000206	NaN
469	1.000000	0.890453	7.36965e+06	-53639.1	1005.82	-29745.9	0.000000	0.000000	6.891102	-0.000768	NaN	0.000000	0.001573	0.001739	28.0796	0.042031	0.002035	20.6574	-41.6834	-169.692	-0.017152	0.889169	-0.115789	-0.117073	-0.000768	20.6574	-0.115761	-3.960588	0.000194	NaN
469	1.000000	0.898435	7.36965e+06	-53639.1	1005.82	-29745.9	0.000000	0.000000	6.899083	-0.023460	NaN	0.000000	0.001640	0.001739	28.0796	0.094862	0.001845	51.4236	-101.333	-171.832	-0.064319	0.897176	-0.107807	-0.109066	-0.023460	51.4236	-0.107465	-2.655198	0.008836	NaN
469	1.000000	0.906498	7.36965e+06	-53639.1	1005.82	-29745.9	0.000000	0.000000	6.907146	-0.024457	NaN	0.000000	0.001660	0.001743	28.0796	0.074522	0.002002	37.2194	-134.976	-168.627	-0.027002	0.905117	-0.099744	-0.101124	-0.024457	37.2194	-0.099251	-1.758506	0.013908	NaN
469	1.000000	0.914467	7.36965e+06	-53639.1	1005.82	-29745.9	0.000000	0.000000	6.915115	-0.019427	NaN	0.000000	0.001668	0.001756	28.0799	0.087947	0.002003	43.9124	-139.328	-167.708	-0.005354	0.913173	-0.091775	-0.093069	-0.019427	43.9124	-0.091443	-1.168233	0.016629	NaN
469	1.000000	0.922464	7.36965e+06	-53639.1	1005.82	-29745.9	0.000000	0.000000	6.923113	-0.018979	NaN	0.000000	0.001662	0.001758	28.0796	0.076262	0.001884	40.4804	-21.1049	-165.58	-0.049813	0.921172	-0.083777	-0.085069	-0.018979	40.4804	-0.083426	-0.752293	0.025228	NaN
469	1.000000	0.930437	7.36965e+06	-53639.1	1005.82	-29745.9	0.000000	0.000000	6.931087	0.013179	NaN	0.000000	0.001688	0.001755	28.0798	0.043425	0.002021	21.4864	34.3306	-169.426	-0.038519	0.929142	-0.075805	-0.077100	0.013179	21.4864	-0.076265	-0.497850	-0.026471	NaN
469	1.000000	0.938481	7.36965e+06	-53639.1	1005.82	-29745.9	0.000000	0.000000	6.939128	-0.047672	NaN	0.000000	0.001683	0.001781	28.0798	0.080557	0.001979	40.7118	-152.77	-165.905	-0.052400	0.937192	-0.067761	-0.069050	-0.047672	40.7118	-0.066883	-0.280841	0.169748	NaN
469	1.000000	0.946467	7.36965e+06	-53639.1	1005.82	-29745.9	0.000000	0.000000	6.947118	0.049264	NaN	0.000000	0.001667	0.001749	28.0797	0.164801	0.001934	85.2158	68.8958	-164.112	-0.071870	0.945159	-0.059775	-0.061082	0.049264	85.2158	-0.060208	-0.182585	-0.269816	NaN
469	1.000000	0.954478	7.36965e+06	-53639.1	1005.82	-29745.9	0.000000	0.000000	6.955126	-0.020774	NaN	0.000000	0.001656	0.001734	28.0811	0.099307	0.002096	47.375	172.603	-168.67	-0.013443	0.953174	-0.051764	-0.053068	-0.020774	47.375	-0.051435	-0.100812	0.206071	NaN
469	1.000000	0.962480	7.36965e+06	-53639.1	1005.82	-29745.9	0.000000	0.000000	6.963127	-0.053914	NaN	0.000000	0.001684	0.001730	28.0811	0.122243	0.001954	62.5537	-45.9131	-166.045	0.034003	0.961182	-0.043762	-0.045060	-0.053914	62.5537	-0.043115	-0.056280	0.957965	NaN
469	1.000000	0.970488	7.36965e+06	-53639.1	1005.82	-29745.9	0.000000	0.000000	6.971141	0.080596	NaN	0.000000	0.001617	0.001738	28.0813	0.031437	0.001931	16.2788	0.190884	-165.175	0.021217	0.969197	-0.035754	-0.037045	0.080596	16.2788	-0.039467	-0.043569	-1.849864	NaN
469	1.000000	0.978505	7.36965e+06	-53639.1	1005.82	-29745.9	0.000000	0.000000	6.979157	0.059361	NaN	0.000000	0.001576	0.001763	28.0811	0.050463	0.002081	24.2506	-53.9832	-164.827	0.003905	0.977149	-0.027736	-0.029092	0.059361	24.2506	-0.029572	-0.022392	-2.651063	NaN
469	1.000000	0.986488	7.36965e+06	-53639.1	1005.82	-29745.9	0.000000	0.000000	6.987139	0.047484	NaN	0.000000	0.001539	0.001801	28.0812	0.031130	0.001885	16.5138	93.6709	-163.291	-0.031148	0.985189	-0.019754	-0.021053	0.047484	16.5138	-0.021911	-0.014047	-3.380290	NaN
469	1.000000	0.994515	7.36965e+06	-53639.1	1005.82	-29745.9	0.000000	0.000000	6.995163	-0.031875	NaN	0.000000	0.001587	0.001731	28.0808	0.134098	0.001902	70.5078	-124.643	-165.407	0.013878	0.993168	-0.011727	-0.013074	-0.031875	70.5078	-0.011388	-0.007179	4.440000	NaN
469	1.000000	1.002475	7.36965e+06	-53639.1	1005.82	-29745.9	0.000000	0.000000	7.003186	1.513220	NaN	0.000000	0.001601	0.001756	28.081	2.492373	0.001746	1427.28	5.447909	-165.791	0.651589	1.001211	-0.003767	-0.005030	1.513220	1427.28	-0.004562	-0.003140	-481.962	NaN
469	2.000000	1.009891	7.36965e+06	-53639.1	1005.82	-29745.9	0.000000	0.000000	7.010912	9.054347	NaN	0.000000	0.001585	0.001788	28.0812	8.804106	0.001730	5088.07	12.5222	-171.935	9.271506	1.009111	0.003649	0.002869	9.054347	5088.07	0.002314	0.001811	5000.65	109247
469	2.000000	1.012021	7.36965e+06	-53639.1	1005.82	-29745.9	0.000000	0.000000	7.013136	11.3225	NaN	0.000000	0.001621	0.001760	28.081	11.6861	0.001682	6945.95	7.958425	-176.135	10.4973	1.011658	0.005779	0.005416	11.3225	6945.95	0.004557	0.003733	3033.37	103872
469	2.000000	1.014058	7.36965e+06	-53639.1	1005.82	-29745.9	0.000000	0.000000	7.015317	14.8108	NaN	0.000000	0.001614	0.001763	28.081	13.6341	0.001596	8541.42	4.103170	-172.454	14.8658	1.013712	0.007816	0.007470	14.8108	8541.42	0.006516	0.005560	2663.93	104659
469	2.000000	1.015947	7.36965e+06	-53639.1	1005.82	-29745.9	0.000000	0.000000	7.017312	17.4227	NaN	0.000000	0.001608	0.001757	28.0809	16.2034	0.001748	9268.88	7.472549	-177.731	16.347	1.015720	0.009705	0.009478	17.4227	9268.88	0.008295	0.007347	2371.25	98794.3
469	2.000000	1.018058	7.36965e+06	-53639.1	1005.82	-29745.9	0.000000	0.000000	7.019421	17.3481	NaN	0.000000	0.001583	0.001794	28.081	17.9321	0.001837	9763.32	7.484983	-176.423	20.0672	1.017766	0.011816	0.011524	17.3481	9763.32	0.010483	0.009724	1784.12	90460
469	2.000000	1.019941	7.36965e+06	-53639.1	1005.82	-29745.9	0.000000	0.000000	7.021632	25.3219	NaN	0.000000	0.001589	0.001803	28.0815	19.9287	0.001710	11653.5	5.687211	-177.529	24.3864	1.019692	0.013699	0.013450	25.3219	11653.5	0.012070	0.011573	2187.94	98969.1
469	2.000000	1.021991	7.36965e+06	-53639.1	1005.82	-29745.9	0.000000	0.000000	7.023760	27.2138	NaN	0.000000	0.001585	0.001803	28.0811	22.5612	0.001862	12114.9	6.724377	-178.182	27.8526	1.021658	0.015750	0.015416	27.2138	12114.9	0.014065	0.014058	1935.76	93351.9
469	2.000000	1.023974	7.36965e+06	-53639.1	1005.82	-29745.9	0.000000	0.000000	7.025951	32.2684	NaN	0.000000	0.001596	0.001776	28.081	24.2796	0.001825	13306.3	5.352809	-177.928	31.5258	1.023672	0.017732	0.017431	32.2684	13306.3	0.015914	0.016523	1952.92	94576.9
469	2.000000	1.025937	7.36965e+06	-53639.1	1005.82	-29745.9	0.000000	0.000000	7.028107	36.9762	NaN	0.000000	0.001543	0.001770	28.0809	26.1915	0.001819	14402.5	7.459205	179.026	36.1758	1.025627	0.019695	0.019385	36.9762	14402.5	0.017770	0.019158	1930.05	95068
469	2.000000	1.027940	7.36965e+06	-53639.1	1005.82	-29745.9	0.000000	0.000000	7.030458	45.4438	NaN	0.000000	0.001587	0.001719	28.0809	27.3605	0.001729	15821	2.890922	-177.114	45.0597	1.027614	0.021698	0.021372	45.4438	15821	0.019544	0.021830	2081.69	97831.5
469	2.000000	1.029969	7.36965e+06	-53639.1	1005.82	-29745.9	0.000000	0.000000	7.032569	47.4354	NaN	0.000000	0.001544	0.001753	28.081	28.3847	0.001627	17446.4	4.210507	-179.487	48.3162	1.029576	0.023727	0.023334	47.4354	17446.4	0.021688	0.025264	1877.59	100283
469	2.000000	1.031901	7.36965e+06	-53639.1	1005.82	-29745.9	0.000000	0.000000	7.034748	53.4102	NaN	0.000000	0.001568	0.001761	28.0797	32.1294	0.001874	17140.8	8.181196	177.741	52.6327	1.031648	0.025660	0.025406	53.4102	17140.8	0.023323	0.028035	1905.15	93531.2
469	2.000000	1.033963	7.36965e+06	-53639.1	1005.82	-29745.9	0.000000	0.000000	7.036968	57.2814	NaN	0.000000	0.001565	0.001745	28.0796	34.1324	0.001839	18557.9	9.110210	176.625	58.2952	1.033609	0.027721	0.027367	57.2814	18557.9	0.025406	0.031758	1803.67	95142.3
469	2.000000	1.035934	7.36965e+06	-53639.1	1005.82	-29745.9	0.000000	0.000000	7.039165	62.7735	NaN	0.000000	0.001549	0.001720	28.0796	35.0029	0.001805	19392.5	5.418099	178.515	62.7903	1.035620	0.029692	0.029378	62.7735	19392.5	0.027264	0.035264	1780.08	94349.2
469	2.000000	1.037910	7.36965e+06	-53639.1	1005.82	-29745.9	0.000000	0.000000	7.041374	68.4306	NaN	0.000000	0.001601	0.001733	28.0797	37.8731	0.001811	20913.6	2.973151	179.929	67.1478	1.037651	0.031668	0.031409	68.4306	20913.6	0.029214	0.039130	1748.8	96593.4
469	2.000000	1.039906	7.36965e+06	-53639.1	1005.82	-29745.9	0.000000	0.000000	7.043790	78.6506	NaN	0.000000	0.001586	0.001716	28.0804	38.5594	0.001675	23017.4	3.245985	178.66	76.9934	1.039613	0.033664	0.033371	78.6506	23017.4	0.031102	0.043058	1826.63	101345
469	2.000000	1.041918	7.36965e+06	-53639.1	1005.82	-29745.9	0.000000	0.000000	7.045789	78.325	NaN	0.000000	0.001616	0.001690	28.08	41.5084	0.001831	22672.6	4.117856	178.149	78.2514	1.041658	0.035677	0.035416	78.325	22672.6	0.033086	0.047382	1653.04	95162.7
469	2.000000	1.043897	7.36965e+06	-53639.1	1005.82	-29745.9	0.000000	0.000000	7.048318	91.6934	NaN	0.000000	0.001607	0.001725	28.0797	43.4169	0.001802	24099.3	5.280336	176.475	89.6809	1.043593	0.037655	0.037352	91.6934	24099.3	0.034802	0.051285	1787.92	97226
469	2.000000	1.045870	7.36965e+06	-53639.1	1005.82	-29745.9	0.000000	0.000000	7.050522	97.3144	NaN	0.000000	0.001591	0.001708	28.08	44.8837	0.001796	24986.8	6.824868	174.85	95.2112	1.045546	0.039629	0.039304	97.3144	24986.8	0.036708	0.055797	1744.09	96644.9
469	2.000000	1.047983	7.36965e+06	-53639.1	1005.82	-29745.9	0.000000	0.000000	7.052732	99.6807	NaN	0.000000	0.001590	0.001705	28.0798	47.9415	0.001906	25151	9.939298	171.612	103.006	1.047620	0.041741	0.041378	99.6807	25151	0.038768	0.060884	1637.23	93127.3
469	2.000000	1.049895	7.36965e+06	-53639.1	1005.82	-29745.9	0.000000	0.000000	7.055143	111.793	NaN	0.000000	0.001599	0.001706	28.08	48.3341	0.001808	26737.6	6.671239	174.253	110.926	1.049702	0.043653	0.043460	111.793	26737.6	0.040518	0.065373	1710.08	95542.7
469	2.000000	1.051872	7.36965e+06	-53639.1	1005.82	-29745.9	0.000000	0.000000	7.057501	121.054	NaN	0.000000	0.001567	0.001692	28.08	48.6951	0.001633	29813	1.117308	178.936	120.325	1.051566	0.045631	0.045325	121.054	29813	0.042585	0.070880	1707.86	102309
469	2.000000	1.053953	7.36965e+06	-53639.1	1005.82	-29745.9	0.000000	0.000000	7.059930	129.527	NaN	0.000000	0.001572	0.001706	28.0797	51.7722	0.001759	29425.7	3.885587	177.051	130.462	1.053585	0.047711	0.047343	129.527	29425.7	0.044410	0.075921	1706.06	97570.4
469	2.000000	1.055832	7.36965e+06	-53639.1	1005.82	-29745.9	0.000000	0.000000	7.062064	135.726	NaN	0.000000	0.001625	0.001733	28.0801	53.216	0.001618	32885.6	3.186801	175.583	132.295	1.055597	0.049591	0.049355	135.726	32885.6	0.046495	0.081889	1657.45	104995
469	2.000000	1.057929	7.36965e+06	-53639.1	1005.82	-29745.9	0.000000	0.000000	7.064342	140.135	NaN	0.000000	0.001566	0.001756	28.0798	57.2481	0.001897	30182.3	2.315970	177.547	139.807	1.057640	0.051687	0.051398	140.135	30182.3	0.048205	0.086946	1611.75	93519.6
469	2.000000	1.059880	7.36965e+06	-53639.1	1005.82	-29745.9	0.000000	0.000000	7.066914	155.223	NaN	0.000000	0.001588	0.001715	28.0798	57.8617	0.001801	32131.5	1.634480	178.304	155.079	1.059522	0.053638	0.053280	155.223	32131.5	0.050015	0.092460	1678.81	96544.3
469	2.000000	1.061876	7.36965e+06	-53639.1	1005.82	-29745.9	0.000000	0.000000	7.069110	160.071	NaN	0.000000	0.001615	0.001745	28.08	61.38	0.001823	33670.5	7.097033	172.305	156.737	1.061423	0.055634	0.055182	160.071	33670.5	0.052069	0.098915	1618.26	97811.8
469	2.000000	1.063883	7.36965e+06	-53639.1	1005.82	-29745.9	0.000000	0.000000	7.071660	173.298	NaN	0.000000	0.001547	0.001734	28.0811	62.4193	0.001790	34865.3	2.361875	176.989	170.593	1.063570	0.057641	0.057328	173.298	34865.3	0.053913	0.104891	1652.17	98355.3
469	2.000000	1.065910	7.36965e+06	-53639.1	1005.82	-29745.9	0.000000	0.000000	7.073849	177.243	NaN	0.000000	0.001540	0.001753	28.0816	63.6056	0.001804	35267.5	-0.081801	178.468	176.125	1.065674	0.059668	0.059432	177.243	35267.5	0.055899	0.111513	1589.44	96490.6
469	2.000000	1.067878	7.36965e+06	-53639.1	1005.82	-29745.9	0.000000	0.000000	7.076284	188.592	NaN	0.000000	0.001542	0.001758	28.0811	67.9799	0.001924	35331.3	6.249095	172.683	188.248	1.067695	0.061636	0.061453	188.592	35331.3	0.057633	0.117457	1605.63	94187.7
469	2.000000	1.069813	7.36965e+06	-53639.1	1005.82	-29745.9	0.000000	0.000000	7.078943	206.17	NaN	0.000000	0.001557	0.001722	28.0812	67.204	0.001771	37956.3	1.694060	176.478	202.981	1.069517	0.063571	0.063275	206.17	37956.3	0.059498	0.124013	1662.49	98474.5
469	2.000000	1.071813	7.36965e+06	-53639.1	1005.82	-29745.9	0.000000	0.000000	7.081312	215.145	NaN	0.000000	0.001562	0.001749	28.0811	69.2271	0.001673	41377.1	1.909256	175.987	211.408	1.071582	0.065572	0.065340	215.145	41377.1	0.061672	0.131871	1631.48	104102
469	2.000000	1.073894	7.36965e+06	-53639.1	1005.82	-29745.9	0.000000	0.000000	7.083943	228.536	NaN	0.000000	0.001543	0.001756	28.0811	72.9308	0.001897	38447.3	8.316609	171.39	227.482	1.073355	0.067652	0.067114	228.536	38447.3	0.063194	0.137511	1661.95	94726.4
469	2.000000	1.075857	7.36965e+06	-53639.1	1005.82	-29745.9	0.000000	0.000000	7.086125	233.858	NaN	0.000000	0.001546	0.001739	28.0814	73.9212	0.001734	42619.2	3.472621	173.921	232.578	1.075649	0.069615	0.069407	233.858	42619.2	0.065500	0.146264	1598.87	101814
469	2.000000	1.077789	7.36965e+06	-53639.1	1005.82	-29745.9	0.000000	0.000000	7.088553	245.904	NaN	0.000000	0.001564	0.001713	28.081	76.3085	0.001797	42469.3	2.016356	175.501	239.832	1.077465	0.071547	0.071223	245.904	42469.3	0.067205	0.152903	1608.23	99229.3
469	2.000000	1.079863	7.36965e+06	-53639.1	1005.82	-29745.9	0.000000	0.000000	7.090920	253.032	NaN	0.000000	0.001579	0.001712	28.0814	78.2203	0.001842	42475.5	4.307248	172.456	251.157	1.079661	0.073621	0.073419	253.032	42475.5	0.069154	0.160662	1574.93	96817.8
469	2.000000	1.081775	7.36965e+06	-53639.1	1005.82	-29745.9	0.000000	0.000000	7.093443	267.909	NaN	0.000000	0.001572	0.001781	28.081	79.0467	0.001785	44290.3	2.877361	173.723	260.73	1.081580	0.075533	0.075338	267.909	44290.3	0.070996	0.168164	1593.14	98676.9
469	2.000000	1.083898	7.36965e+06	-53639.1	1005.82	-29745.9	0.000000	0.000000	7.096313	286.036	NaN	0.000000	0.001545	0.001747	28.0812	81.0818	0.001702	47632	4.015750	172.625	285.859	1.083538	0.077657	0.077296	286.036	47632	0.073153	0.177149	1614.67	103396
469	2.000000	1.085745	7.36965e+06	-53639.1	1005.82	-29745.9	0.000000	0.000000	7.098885	303.692	NaN	0.000000	0.001552	0.001762	28.0813	82.0818	0.001730	47435.5	5.304973	171.352	297.769	1.085572	0.079503	0.079330	303.692	47435.5	0.074701	0.183737	1652.87	101106
469	2.000000	1.087773	7.36965e+06	-53639.1	1005.82	-29745.9	0.000000	0.000000	7.101235	311.508	NaN	0.000000	0.001548	0.001752	28.0808	84.9012	0.001792	47364.7	2.359618	174.505	307.108	1.087471	0.081531	0.081230	311.508	47364.7	0.076599	0.191961	1622.76	98769.1
469	2.000000	1.089813	7.36965e+06	-53639.1	1005.82	-29745.9	0.000000	0.000000	7.103676	321.257	NaN	0.000000	0.001581	0.001749	28.0816	85.7081	0.001664	51515.1	5.058759	170.768	317.987	1.089539	0.083571	0.083298	321.257	51515.1	0.078894	0.202136	1589.31	104685
469	2.000000	1.091755	7.36965e+06	-53639.1	1005.82	-29745.9	0.000000	0.000000	7.106602	345.169	NaN	0.000000	0.001603	0.001739	28.081	88.1439	0.001745	50510.5	4.796941	171.712	341.09	1.091441	0.085513	0.085199	345.169	50510.5	0.080388	0.208893	1652.38	100970
469	2.000000	1.093935	7.36965e+06	-53639.1	1005.82	-29745.9	0.000000	0.000000	7.109326	358.415	NaN	0.000000	0.001583	0.001685	28.0811	91.178	0.001829	49855	8.233160	168.803	362.645	1.093464	0.087693	0.087223	358.415	49855	0.082301	0.217695	1646.41	97624.2
469	2.000000	1.095916	7.36965e+06	-53639.1	1005.82	-29745.9	0.000000	0.000000	7.111487	362.784	NaN	0.000000	0.001568	0.001754	28.0814	92.0631	0.001660	55458.8	7.068581	168.574	367.641	1.095593	0.089674	0.089351	362.784	55458.8	0.084768	0.229297	1582.16	105814
469	2.000000	1.097808	7.36965e+06	-53639.1	1005.82	-29745.9	0.000000	0.000000	7.114253	384.024	NaN	0.000000	0.001578	0.001756	28.08	94.817	0.001815	52227.4	3.356872	172.202	380.149	1.097478	0.091566	0.091236	384.024	52227.4	0.086051	0.235442	1631.07	98339.8
469	2.000000	1.099874	7.36965e+06	-53639.1	1005.82	-29745.9	0.000000	0.000000	7.116090	378.466	NaN	0.000000	0.001553	0.001751	28.0802	95.8696	0.001740	55103.9	3.674835	171.404	379.37	1.099847	0.093632	0.093605	378.466	55103.9	0.088481	0.247287	1530.47	101241
469	2.000000	1.101795	7.36965e+06	-53639.1	1005.82	-29745.9	0.000000	0.000000	7.119379	411.717	NaN	0.000000	0.001599	0.001753	28.0799	98.5891	0.001825	54031.9	5.023634	170.777	408.717	1.101442	0.095553	0.095200	411.717	54031.9	0.089838	0.254020	1620.81	97946.7
469	2.000000	1.103898	7.36965e+06	-53639.1	1005.82	-29745.9	0.000000	0.000000	7.122117	427.16	NaN	0.000000	0.001583	0.001767	28.08	101.289	0.001888	53640.2	9.246958	167.271	427.476	1.103414	0.097657	0.097172	427.16	53640.2	0.091684	0.263315	1622.24	95505
469	2.000000	1.105863	7.36965e+06	-53639.1	1005.82	-29745.9	0.000000	0.000000	7.124611	440.024	NaN	0.000000	0.001570	0.001778	28.0796	102.81	0.001802	57042.7	9.582318	165.998	443.577	1.105416	0.099621	0.099175	440.024	57042.7	0.093835	0.274345	1603.91	99500.4
469	2.000000	1.107828	7.36965e+06	-53639.1	1005.82	-29745.9	0.000000	0.000000	7.127235	456.038	NaN	0.000000	0.001566	0.001762	28.0796	105.783	0.001771	59739.6	8.826589	166.243	456.095	1.107594	0.101586	0.101352	456.038	59739.6	0.095861	0.284922	1600.57	102252
469	2.000000	1.108298	7.36965e+06	-53639.1	1005.82	-29745.9	0.000000	0.000000	7.127895	460.653	NaN	0.000000	0.001561	0.001755	28.0798	105.66	0.001841	57400.3	7.157612	-11.6346	456.678	1.107938	0.102057	0.101697	460.653	57400.3	0.096038	0.285855	1611.49	98087.7