File: remote_trans/data/nanoindenter/0828-1/data/Data_2025-08-06,11h17m57s/2025-07-22_16-23-58_1_79.txt
2025-07-22, 16:23:58, 1
Index	Phase	Displacement	Time	Pos X	Pos Y	Pos Z	Rot A	Rot B	Piezo Z	Force A	Force B	Gripper	Voltage A	Voltage B	Temperature	Amplitude force	Amplitude pos	Stiffness	Phase shift	Phase excitation	Force A raw	Displacement raw	HMax	HMax raw	Real Force	Real Stiffness	Contact Depth	Area	Hardness	Reduced Mod.
[#]	[#]	[um]	[s]	[um]	[um]	[um]	[m°]	[m°]	[um]	[uN]	[uN]	[V]	[V]	[V]	[°C]	[uN]	[um]	[N/m]	[°]	[°]	[uN]	[um]	[um]	[um]	[uN]	[N/m]	[um]	[um^2]	[MPa]	[MPa]
79	1.000000	0.002486	7.36581e+06	-42589.1	955.819	-29782.7	0.000000	0.000000	6.002800	-0.026993	NaN	0.000000	0.001568	0.001729	28.0939	0.059278	0.000951	62.3305	127.787	-161.788	0.020951	0.001204	-1.086938	-1.088221	-0.026993	62.3305	-1.086613	-3.313881E+14	8.145541E-17	NaN
79	1.000000	0.012578	7.36581e+06	-42589.1	955.818	-29782.7	0.000000	0.000000	6.012894	0.039524	NaN	0.000000	0.001589	0.001695	28.1285	0.083483	0.001192	70.0453	-138.387	20.4253	0.017622	0.011128	-1.076846	-1.078297	0.039524	70.0453	-1.077270	-2.482255E+14	-1.592251E-16	NaN
79	1.000000	0.022463	7.36581e+06	-42589.1	955.818	-29782.7	0.000000	0.000000	6.022777	-0.008575	NaN	0.000000	0.001576	0.001659	28.1002	0.032115	0.001834	17.515	-105.958	-166.181	-0.023951	0.021130	-1.066962	-1.068295	-0.008575	17.515	-1.066595	-1.784175E+14	4.806391E-17	NaN
79	1.000000	0.032469	7.36581e+06	-42589.1	955.818	-29782.7	0.000000	0.000000	6.032786	0.054753	NaN	0.000000	0.001557	0.001645	28.0804	0.071020	0.002078	34.1753	-15.7193	14.4451	0.027556	0.031109	-1.056955	-1.058316	0.054753	34.1753	-1.058157	-1.374196E+14	-3.984360E-16	NaN
79	1.000000	0.042433	7.36581e+06	-42589.1	955.818	-29782.7	0.000000	0.000000	6.042748	0.004372	NaN	0.000000	0.001554	0.001655	28.0934	0.056849	0.001927	29.497	-137.515	-168.956	0.019680	0.041171	-1.046992	-1.048254	0.004372	29.497	-1.047103	-9.760450E+13	-4.479054E-17	NaN
79	1.000000	0.052468	7.36581e+06	-42589.1	955.819	-29782.7	0.000000	0.000000	6.052781	-0.025023	NaN	0.000000	0.001617	0.001693	28.1296	0.061652	0.001886	32.6858	-114.203	15.5338	0.010251	0.051105	-1.036957	-1.038320	-0.025023	32.6858	-1.036383	-7.003610E+13	3.572872E-16	NaN
79	1.000000	0.062457	7.36581e+06	-42589.1	955.818	-29782.7	0.000000	0.000000	6.062773	0.028666	NaN	0.000000	0.001658	0.001697	28.1009	0.024468	0.002019	12.1205	-85.3793	-166.839	-0.022612	0.061152	-1.026967	-1.028273	0.028666	12.1205	-1.028741	-5.527701E+13	-5.185811E-16	NaN
79	1.000000	0.072462	7.36581e+06	-42589.1	955.818	-29782.7	0.000000	0.000000	6.072774	-0.061095	NaN	0.000000	0.001606	0.001709	28.0791	0.094286	0.002018	46.7112	-155.435	17.242	-0.020305	0.071108	-1.016963	-1.018317	-0.061095	46.7112	-1.015982	-3.722918E+13	1.641061E-15	NaN
79	1.000000	0.082433	7.36581e+06	-42589.1	955.819	-29782.7	0.000000	0.000000	6.082747	-0.018732	NaN	0.000000	0.001634	0.001702	28.0916	0.129297	0.002021	63.964	148.853	-166.1	-0.046420	0.081169	-1.006991	-1.008256	-0.018732	63.964	-1.006772	-2.798531E+13	6.693375E-16	NaN
79	1.000000	0.092472	7.36581e+06	-42589.1	955.819	-29782.7	0.000000	0.000000	6.092788	0.024392	NaN	0.000000	0.001572	0.001724	28.1287	0.021233	0.001931	10.997	-134.159	13.0337	0.069233	0.091006	-0.996952	-0.998418	0.024392	10.997	-0.998616	-2.173374E+13	-1.122300E-15	NaN
79	1.000000	0.102457	7.36581e+06	-42589.1	955.819	-29782.7	0.000000	0.000000	6.102771	-0.003006	NaN	0.000000	0.001573	0.001728	28.1008	0.056372	0.001881	29.9692	151.07	-161.816	-0.041747	0.101092	-0.986968	-0.988332	-0.003006	29.9692	-0.986892	-1.510975E+13	1.989135E-16	NaN
79	1.000000	0.112459	7.36581e+06	-42589.1	955.818	-29782.7	0.000000	0.000000	6.112776	0.033130	NaN	0.000000	0.001593	0.001687	28.0815	0.071065	0.001985	35.805	168.052	14.0807	0.033171	0.111119	-0.976965	-0.978306	0.033130	35.805	-0.977659	-1.134673E+13	-2.919754E-15	NaN
79	1.000000	0.122465	7.36581e+06	-42589.1	955.818	-29782.7	0.000000	0.000000	6.122782	0.069068	NaN	0.000000	0.001592	0.001672	28.093	0.082523	0.001898	43.4681	-134.032	-165.839	0.015008	0.121144	-0.966960	-0.968280	0.069068	43.4681	-0.968152	-8.447953E+12	-8.175653E-15	NaN
79	1.000000	0.132496	7.36581e+06	-42589.1	955.818	-29782.7	0.000000	0.000000	6.132810	-0.030067	NaN	0.000000	0.001590	0.001669	28.13	0.126714	0.002002	63.285	104.806	16.5693	0.018821	0.131090	-0.956928	-0.958335	-0.030067	63.285	-0.956572	-5.897272E+12	5.098542E-15	NaN
79	1.000000	0.142473	7.36581e+06	-42589.1	955.818	-29782.7	0.000000	0.000000	6.142788	-0.008248	NaN	0.000000	0.001564	0.001716	28.104	0.078475	0.002009	39.0662	51.0778	-163.495	0.001833	0.141194	-0.946951	-0.948230	-0.008248	39.0662	-0.946793	-4.352842E+12	1.894764E-15	NaN
79	1.000000	0.152459	7.36581e+06	-42589.1	955.818	-29782.7	0.000000	0.000000	6.152774	0.001204	NaN	0.000000	0.001553	0.001671	28.0815	0.153799	0.002024	75.9695	108.296	17.4672	-0.020006	0.151142	-0.936966	-0.938283	0.001204	75.9695	-0.936977	-3.208895E+12	-3.751064E-16	NaN
79	1.000000	0.162478	7.36581e+06	-42589.1	955.818	-29782.7	0.000000	0.000000	6.162792	-0.010345	NaN	0.000000	0.001573	0.001708	28.0932	0.048705	0.002043	23.8409	38.1719	-167.21	-0.031364	0.161242	-0.926946	-0.928183	-0.010345	23.8409	-0.926621	-2.325883E+12	4.447673E-15	NaN
79	1.000000	0.172515	7.36581e+06	-42589.1	955.817	-29782.7	0.000000	0.000000	6.172829	-0.005573	NaN	0.000000	0.001604	0.001711	28.13	0.035523	0.001984	17.9034	-109.611	13.146	0.051514	0.171165	-0.916910	-0.918260	-0.005573	17.9034	-0.916676	-1.707358E+12	3.264102E-15	NaN
79	1.000000	0.182480	7.36581e+06	-42589.1	955.818	-29782.7	0.000000	0.000000	6.182792	-0.056809	NaN	0.000000	0.001571	0.001706	28.1027	0.013544	0.001999	6.774182	-157.782	-164.389	-0.094600	0.181230	-0.906945	-0.908194	-0.056809	6.774182	-0.900655	-1.037336E+12	5.476449E-14	NaN
79	1.000000	0.192492	7.36581e+06	-42589.1	955.819	-29782.7	0.000000	0.000000	6.192804	-0.049077	NaN	0.000000	0.001595	0.001680	28.0812	0.101653	0.001914	53.1178	65.228	15.6901	-0.080169	0.191136	-0.896933	-0.898288	-0.049077	53.1178	-0.896240	-9.041846E+11	5.427802E-14	NaN
79	1.000000	0.202490	7.36581e+06	-42589.1	955.818	-29782.7	0.000000	0.000000	6.202804	-0.023575	NaN	0.000000	0.001632	0.001708	28.094	0.071270	0.002033	35.0585	141.779	-163.253	0.083126	0.201194	-0.886935	-0.888231	-0.023575	35.0585	-0.886430	-6.662777E+11	3.538264E-14	NaN
79	1.000000	0.212497	7.36581e+06	-42589.1	955.819	-29782.7	0.000000	0.000000	6.212812	0.012734	NaN	0.000000	0.001629	0.001719	28.1308	0.073167	0.001953	37.4681	-128.873	12.3927	-0.049518	0.211137	-0.876928	-0.878288	0.012734	37.4681	-0.877183	-4.995801E+11	-2.548952E-14	NaN
79	1.000000	0.222546	7.36581e+06	-42589.1	955.818	-29782.7	0.000000	0.000000	6.222863	0.047473	NaN	0.000000	0.001632	0.001684	28.1034	0.112750	0.001951	57.7819	-177.377	-165.405	0.073429	0.221183	-0.866878	-0.868241	0.047473	57.7819	-0.867494	-3.694380E+11	-1.284993E-13	NaN
79	1.000000	0.232516	7.36581e+06	-42589.1	955.818	-29782.7	0.000000	0.000000	6.232832	0.027471	NaN	0.000000	0.001622	0.001689	28.0808	0.088545	0.002018	43.8753	-141.86	13.0352	-0.016049	0.231189	-0.856908	-0.858235	0.027471	43.8753	-0.857378	-2.695421E+11	-1.019188E-13	NaN
79	1.000000	0.242524	7.36581e+06	-42589.1	955.818	-29782.7	0.000000	0.000000	6.242838	-0.001904	NaN	0.000000	0.001621	0.001718	28.0925	0.036394	0.002097	17.3565	105.675	-165.828	0.047577	0.241249	-0.846901	-0.848176	-0.001904	17.3565	-0.846819	-1.939347E+11	9.820260E-15	NaN
79	1.000000	0.252559	7.36581e+06	-42589.1	955.819	-29782.7	0.000000	0.000000	6.252874	0.003516	NaN	0.000000	0.001614	0.001717	28.1301	0.031370	0.001993	15.7403	64.4018	15.7008	-0.047012	0.251167	-0.836866	-0.838258	0.003516	15.7403	-0.837033	-1.429216E+11	-2.460326E-14	NaN
79	1.000000	0.262531	7.36581e+06	-42589.1	955.818	-29782.7	0.000000	0.000000	6.262847	0.032935	NaN	0.000000	0.001623	0.001701	28.1038	0.121685	0.002121	57.3694	-5.684083	-163.325	-0.050297	0.261211	-0.826893	-0.828214	0.032935	57.3694	-0.827324	-1.055619E+11	-3.119963E-13	NaN
79	1.000000	0.272520	7.36581e+06	-42589.1	955.818	-29782.7	0.000000	0.000000	6.272836	0.012238	NaN	0.000000	0.001650	0.001687	28.082	0.082802	0.002023	40.9323	-158.946	16.8766	0.014092	0.271201	-0.816904	-0.818224	0.012238	40.9323	-0.817128	-7.678325E+10	-1.593872E-13	NaN
79	1.000000	0.282510	7.36581e+06	-42589.1	955.819	-29782.7	0.000000	0.000000	6.282824	-0.011820	NaN	0.000000	0.001571	0.001660	28.0923	0.085814	0.001833	46.8079	-55.3609	-169.092	-0.106683	0.281191	-0.806914	-0.808234	-0.011820	46.8079	-0.806725	-5.547980E+10	2.130491E-13	NaN
79	1.000000	0.292549	7.36581e+06	-42589.1	955.819	-29782.7	0.000000	0.000000	6.292866	0.046640	NaN	0.000000	0.001553	0.001674	28.1299	0.053408	0.002035	26.2471	124.882	16.6934	0.030072	0.291160	-0.796875	-0.798265	0.046640	26.2471	-0.798208	-4.251436E+10	-1.097038E-12	NaN
79	1.000000	0.302540	7.36581e+06	-42589.1	955.818	-29782.7	0.000000	0.000000	6.302855	0.003857	NaN	0.000000	0.001612	0.001695	28.1029	0.020904	0.002080	10.0504	-154.088	-168.355	-0.064392	0.301222	-0.786885	-0.788202	0.003857	10.0504	-0.787173	-3.010793E+10	-1.280962E-13	NaN
79	1.000000	0.312545	7.36581e+06	-42589.1	955.819	-29782.7	0.000000	0.000000	6.312861	0.024844	NaN	0.000000	0.001539	0.001723	28.0801	0.108394	0.001849	58.6359	15.6175	14.8227	-0.057799	0.311168	-0.776880	-0.778256	0.024844	58.6359	-0.777197	-2.203664E+10	-1.127378E-12	NaN
79	1.000000	0.322554	7.36581e+06	-42589.1	955.818	-29782.7	0.000000	0.000000	6.322863	-0.127974	NaN	0.000000	0.001547	0.001700	28.0906	0.083000	0.002082	39.8649	-18.5775	-165.496	-0.087118	0.321201	-0.766871	-0.768224	-0.127974	39.8649	-0.764463	-1.479147E+10	8.651893E-12	NaN
79	1.000000	0.332521	7.36581e+06	-42589.1	955.818	-29782.7	0.000000	0.000000	6.332837	0.019116	NaN	0.000000	0.001589	0.001691	28.1285	0.074241	0.001998	37.1538	78.5484	12.251	-0.035602	0.331261	-0.756903	-0.758164	0.019116	37.1538	-0.757289	-1.181466E+10	-1.617978E-12	NaN
79	1.000000	0.342573	7.36581e+06	-42589.1	955.819	-29782.7	0.000000	0.000000	6.342887	-0.011556	NaN	0.000000	0.001546	0.001682	28.1022	0.087099	0.001965	44.3253	-126.828	-163.814	0.067297	0.341236	-0.746852	-0.748189	-0.011556	44.3253	-0.746656	-8.466427E+9	1.364915E-12	NaN
79	1.000000	0.352564	7.36581e+06	-42589.1	955.818	-29782.7	0.000000	0.000000	6.352877	-0.045655	NaN	0.000000	0.001555	0.001671	28.0798	0.104521	0.002052	50.9279	168.225	17.3957	-0.022396	0.351228	-0.736861	-0.738197	-0.045655	50.9279	-0.736188	-6.097253E+9	7.487732E-12	NaN
79	1.000000	0.362573	7.36581e+06	-42589.1	955.819	-29782.7	0.000000	0.000000	6.362890	0.045506	NaN	0.000000	0.001569	0.001661	28.0927	0.120718	0.001932	62.4706	-82.5624	-162.92	0.061753	0.361288	-0.726851	-0.728137	0.045506	62.4706	-0.727397	-4.627378E+9	-9.834018E-12	NaN
79	1.000000	0.372563	7.36581e+06	-42589.1	955.818	-29782.7	0.000000	0.000000	6.372875	-0.050238	NaN	0.000000	0.001559	0.001749	28.13	0.046024	0.001831	25.1327	-3.359279	14.153	-0.123980	0.371183	-0.716862	-0.718242	-0.050238	25.1327	-0.715363	-3.171175E+9	1.584211E-11	NaN
79	1.000000	0.382566	7.36581e+06	-42589.1	955.818	-29782.7	0.000000	0.000000	6.382880	-0.022944	NaN	0.000000	0.001549	0.001719	28.1036	0.132683	0.001908	69.5376	-160.354	-163.425	-0.062367	0.381315	-0.706859	-0.708110	-0.022944	69.5376	-0.706611	-2.408772E+9	9.525142E-12	NaN
79	1.000000	0.392587	7.36581e+06	-42589.1	955.818	-29782.7	0.000000	0.000000	6.392900	-0.029464	NaN	0.000000	0.001549	0.001756	28.0805	0.055854	0.001993	28.0256	-143.906	13.2311	-0.001250	0.391217	-0.696838	-0.698208	-0.029464	28.0256	-0.696049	-1.728100E+9	1.704987E-11	NaN
79	1.000000	0.402586	7.36581e+06	-42589.1	955.818	-29782.7	0.000000	0.000000	6.402900	-0.030344	NaN	0.000000	0.001531	0.001728	28.0917	0.038127	0.002002	19.0467	-96.1692	-167.349	-0.037042	0.401276	-0.686838	-0.688149	-0.030344	19.0467	-0.685643	-1.245569E+9	2.436168E-11	NaN
79	1.000000	0.412592	7.36581e+06	-42589.1	955.819	-29782.7	0.000000	0.000000	6.412902	-0.092351	NaN	0.000000	0.001558	0.001748	28.1289	0.066458	0.002009	33.0818	52.3364	15.3969	-0.036679	0.411243	-0.676833	-0.678181	-0.092351	33.0818	-0.674739	-8.835752E+8	1.045197E-10	NaN
79	1.000000	0.422585	7.36581e+06	-42589.1	955.818	-29782.7	0.000000	0.000000	6.422897	-0.062189	NaN	0.000000	0.001556	0.001719	28.1037	0.026096	0.001999	13.0515	145.315	-166.276	-0.073215	0.421294	-0.666839	-0.668131	-0.062189	13.0515	-0.663266	-6.154523E+8	1.010463E-10	NaN
79	1.000000	0.432612	7.36581e+06	-42589.1	955.819	-29782.7	0.000000	0.000000	6.432927	0.003083	NaN	0.000000	0.001549	0.001743	28.0819	0.057328	0.001914	29.9556	-47.7524	10.3842	-0.011612	0.431254	-0.656812	-0.658170	0.003083	29.9556	-0.656890	-5.033374E+8	-6.125954E-12	NaN
79	1.000000	0.442623	7.36581e+06	-42589.1	955.817	-29782.7	0.000000	0.000000	6.442935	-0.063826	NaN	0.000000	0.001560	0.001754	28.0925	0.093796	0.002102	44.6281	-177.592	-164.866	-0.047914	0.441345	-0.646801	-0.648080	-0.063826	44.6281	-0.645729	-3.538919E+8	1.803552E-10	NaN
79	1.000000	0.452599	7.36581e+06	-42589.1	955.818	-29782.7	0.000000	0.000000	6.452911	-0.057888	NaN	0.000000	0.001554	0.001726	28.131	0.023942	0.002049	11.684	-2.646628	13.5683	-0.063054	0.451239	-0.636825	-0.638186	-0.057888	11.684	-0.633110	-2.375308E+8	2.437057E-10	NaN
79	1.000000	0.462625	7.36581e+06	-42589.1	955.818	-29782.7	0.000000	0.000000	6.462941	0.025461	NaN	0.000000	0.001537	0.001742	28.1043	0.076925	0.002080	36.9759	-102.408	-162.999	-0.070714	0.461348	-0.626799	-0.628077	0.025461	36.9759	-0.627316	-1.977679E+8	-1.287401E-10	NaN
79	1.000000	0.472618	7.36581e+06	-42589.1	955.819	-29782.7	0.000000	0.000000	6.472931	-0.040504	NaN	0.000000	0.001568	0.001718	28.0806	0.065382	0.002028	32.2377	97.9412	14.2009	-0.037962	0.471237	-0.616806	-0.618188	-0.040504	32.2377	-0.615864	-1.376491E+8	2.942575E-10	NaN
79	1.000000	0.482591	7.36581e+06	-42589.1	955.819	-29782.7	0.000000	0.000000	6.482904	-0.042815	NaN	0.000000	0.001541	0.001736	28.0919	0.054490	0.001946	28.0079	6.080428	-167.298	-0.062233	0.481351	-0.606834	-0.608073	-0.042815	28.0079	-0.605687	-9.971647E+7	4.293721E-10	NaN
79	1.000000	0.492626	7.36581e+06	-42589.1	955.818	-29782.7	0.000000	0.000000	6.492941	-0.009552	NaN	0.000000	0.001618	0.001738	28.1299	0.123959	0.001932	64.1713	177.818	17.0985	0.014449	0.491289	-0.596798	-0.598135	-0.009552	64.1713	-0.596687	-7.495825E+7	1.274357E-10	NaN
79	1.000000	0.502642	7.36581e+06	-42589.1	955.817	-29782.7	0.000000	0.000000	6.502957	0.001070	NaN	0.000000	0.001536	0.001765	28.1042	0.072824	0.001982	36.752	-134.748	-164.587	-0.009514	0.501302	-0.586782	-0.588123	0.001070	36.752	-0.586804	-5.477707E+7	-1.952605E-11	NaN
79	1.000000	0.512626	7.36581e+06	-42589.1	955.818	-29782.7	0.000000	0.000000	6.512937	-0.076261	NaN	0.000000	0.001530	0.001742	28.0815	0.074344	0.002038	36.4711	-177.446	12.2794	-0.061352	0.511310	-0.576799	-0.578115	-0.076261	36.4711	-0.575230	-3.792102E+7	2.011057E-9	NaN
79	1.000000	0.522651	7.36581e+06	-42589.1	955.818	-29782.7	0.000000	0.000000	6.522962	-0.097837	NaN	0.000000	0.001555	0.001734	28.0922	0.038343	0.002093	18.3226	-165.857	-168.031	-0.056750	0.521379	-0.566774	-0.568046	-0.097837	18.3226	-0.562769	-2.550797E+7	3.835530E-9	NaN
79	1.000000	0.532642	7.36581e+06	-42589.1	955.818	-29782.7	0.000000	0.000000	6.532957	0.012035	NaN	0.000000	0.001577	0.001754	28.1313	0.055762	0.001915	29.1145	-123.993	14.538	0.055697	0.531285	-0.556782	-0.558140	0.012035	29.1145	-0.557092	-2.128857E+7	-5.653387E-10	NaN
79	1.000000	0.542662	7.36581e+06	-42589.1	955.819	-29782.7	0.000000	0.000000	6.542980	0.079382	NaN	0.000000	0.001602	0.001704	28.1054	0.101672	0.001949	52.1777	48.4494	-166.889	-0.055863	0.541344	-0.546762	-0.548080	0.079382	52.1777	-0.547903	-1.588220E+7	-4.998144E-9	NaN
79	1.000000	0.552628	7.36581e+06	-42589.1	955.818	-29782.7	0.000000	0.000000	6.552940	-0.052327	NaN	0.000000	0.001598	0.001703	28.0797	0.017461	0.001904	9.171966	-69.8726	15.7229	-0.013940	0.551266	-0.536797	-0.538158	-0.052327	9.171966	-0.532518	-9.71713e+06	5.385045E-9	NaN
79	1.000000	0.562656	7.36582e+06	-42589.1	955.818	-29782.7	0.000000	0.000000	6.562969	-0.053748	NaN	0.000000	0.001599	0.001714	28.0911	0.115189	0.001991	57.8574	-33.2898	-164.803	0.044765	0.561375	-0.526768	-0.528049	-0.053748	57.8574	-0.526072	-7.90688e+06	6.797606E-9	NaN
79	1.000000	0.572644	7.36582e+06	-42589.1	955.819	-29782.7	0.000000	0.000000	6.572961	0.054134	NaN	0.000000	0.001616	0.001712	28.1286	0.094157	0.002021	46.5936	112.402	13.7888	0.086802	0.571283	-0.516781	-0.518142	0.054134	46.5936	-0.517652	-6.03864e+06	-8.964594E-9	NaN
79	1.000000	0.582684	7.36582e+06	-42589.1	955.818	-29782.7	0.000000	0.000000	6.582997	-0.061285	NaN	0.000000	0.001585	0.001653	28.1039	0.093813	0.002089	44.9033	-178.493	-166.809	-0.054680	0.581359	-0.506740	-0.508066	-0.061285	44.9033	-0.505717	-4.11843e+06	1.488061E-8	NaN
79	1.000000	0.592666	7.36582e+06	-42589.1	955.818	-29782.7	0.000000	0.000000	6.592980	-0.008086	NaN	0.000000	0.001598	0.001696	28.0815	0.007613	0.001906	3.994363	1.128338	12.951	-0.073626	0.591334	-0.496759	-0.498090	-0.008086	3.994363	-0.495240	-2.94166e+06	2.748744E-9	NaN
79	1.000000	0.602688	7.36582e+06	-42589.1	955.818	-29782.7	0.000000	0.000000	6.603003	0.000622	NaN	0.000000	0.001585	0.001700	28.0919	0.108449	0.001995	54.3735	129.33	-169.45	-0.004399	0.601393	-0.486737	-0.488032	0.000622	54.3735	-0.486745	-2.23819e+06	-2.779090E-10	NaN
79	1.000000	0.612661	7.36582e+06	-42589.1	955.818	-29782.7	0.000000	0.000000	6.612974	-0.026999	NaN	0.000000	0.001604	0.001718	28.1299	0.118426	0.001987	59.6115	138.323	17.1774	-0.023319	0.611315	-0.476764	-0.478109	-0.026999	59.6115	-0.476424	-1.60491e+06	1.682276E-8	NaN
79	1.000000	0.622686	7.36582e+06	-42589.1	955.818	-29782.7	0.000000	0.000000	6.622997	-0.091323	NaN	0.000000	0.001598	0.001711	28.1054	0.078302	0.002028	38.6181	157.357	-167.032	-0.032461	0.621416	-0.466739	-0.468008	-0.091323	38.6181	-0.464965	-1.10856e+06	8.237936E-8	NaN
79	1.000000	0.632685	7.36582e+06	-42589.1	955.818	-29782.7	0.000000	0.000000	6.632999	-0.010014	NaN	0.000000	0.001544	0.001651	28.0798	0.028334	0.001942	14.5928	135.548	14.0576	0.042421	0.631300	-0.456740	-0.458125	-0.010014	14.5928	-0.456225	-835505	1.198586E-8	NaN
79	1.000000	0.642681	7.36582e+06	-42589.1	955.819	-29782.7	0.000000	0.000000	6.642996	0.008051	NaN	0.000000	0.001566	0.001684	28.0896	0.016584	0.001973	8.405882	-78.1524	-162.44	-0.104768	0.641431	-0.446744	-0.447994	0.008051	8.405882	-0.447462	-628918	-1.280203E-8	NaN
79	1.000000	0.652661	7.36582e+06	-42589.1	955.818	-29782.7	0.000000	0.000000	6.652976	0.002290	NaN	0.000000	0.001556	0.001674	28.1286	0.078512	0.002107	37.265	-148.202	14.7879	-0.064836	0.651343	-0.436763	-0.438082	0.002290	37.265	-0.436809	-444951	-5.146346E-9	NaN
79	1.000000	0.662715	7.36582e+06	-42589.1	955.819	-29782.7	0.000000	0.000000	6.663028	-0.043735	NaN	0.000000	0.001543	0.001654	28.1036	0.073047	0.001989	36.7335	-154.821	-166.793	-0.077560	0.661396	-0.426710	-0.428028	-0.043735	36.7335	-0.425817	-311064	1.405981E-7	NaN
79	1.000000	0.672661	7.36582e+06	-42589.1	955.818	-29782.7	0.000000	0.000000	6.672976	0.023860	NaN	0.000000	0.001555	0.001661	28.0808	0.073947	0.002087	35.4297	-36.0465	12.8991	-0.043453	0.671365	-0.416764	-0.418059	0.023860	35.4297	-0.417269	-235324	-1.013940E-7	NaN
79	1.000000	0.682695	7.36582e+06	-42589.1	955.818	-29782.7	0.000000	0.000000	6.683010	-0.004194	NaN	0.000000	0.001553	0.001626	28.0915	0.053885	0.001914	28.1575	118.102	-165.132	-0.002727	0.681388	-0.406730	-0.408037	-0.004194	28.1575	-0.406618	-166066	2.525641E-8	NaN
79	1.000000	0.692726	7.36582e+06	-42589.1	955.818	-29782.7	0.000000	0.000000	6.693037	-0.096757	NaN	0.000000	0.001544	0.001659	28.1306	0.052593	0.001978	26.5885	158.138	13.6216	0.003627	0.691395	-0.396698	-0.398029	-0.096757	26.5885	-0.393969	-109625	8.826188E-7	NaN
79	1.000000	0.702701	7.36582e+06	-42589.1	955.818	-29782.7	0.000000	0.000000	6.703014	-0.043201	NaN	0.000000	0.001558	0.001654	28.1066	0.034059	0.002019	16.8729	-122.062	-164.571	-0.097116	0.701393	-0.386724	-0.388032	-0.043201	16.8729	-0.384804	-81053.5	5.329908E-7	NaN
79	1.000000	0.712710	7.36582e+06	-42589.1	955.818	-29782.7	0.000000	0.000000	6.713024	-0.032486	NaN	0.000000	0.001546	0.001658	28.0818	0.062691	0.002028	30.9076	73.5047	13.3762	0.024489	0.711383	-0.376714	-0.378041	-0.032486	30.9076	-0.375926	-60447.5	5.374259E-7	NaN
79	1.000000	0.722688	7.36582e+06	-42589.1	955.819	-29782.7	0.000000	0.000000	6.723001	-0.036716	NaN	0.000000	0.001547	0.001659	28.0904	0.067635	0.001942	34.8355	-106.209	-166.1	0.063040	0.721410	-0.366737	-0.368015	-0.036716	34.8355	-0.365946	-43421.1	8.455835E-7	NaN
79	1.000000	0.732732	7.36582e+06	-42589.1	955.818	-29782.7	0.000000	0.000000	6.733046	-0.016714	NaN	0.000000	0.001564	0.001622	28.1294	0.033581	0.001957	17.158	21.1682	14.4645	-0.025024	0.731344	-0.356693	-0.358081	-0.016714	17.158	-0.355962	-31148	5.365867E-7	NaN
79	1.000000	0.742725	7.36582e+06	-42589.1	955.819	-29782.7	0.000000	0.000000	6.743039	-0.022598	NaN	0.000000	0.001541	0.001646	28.1062	0.090685	0.002032	44.6351	-97.1478	-167.28	0.013309	0.741396	-0.346699	-0.348029	-0.022598	44.6351	-0.346319	-22570.5	1.001205E-6	NaN
79	1.000000	0.752731	7.36582e+06	-42589.1	955.818	-29782.7	0.000000	0.000000	6.753045	-0.031241	NaN	0.000000	0.001548	0.001684	28.0812	0.085022	0.001957	43.4393	86.7127	13.6688	-0.074650	0.751341	-0.336693	-0.338083	-0.031241	43.4393	-0.336154	-16048.6	1.946642E-6	NaN
79	1.000000	0.762735	7.36582e+06	-42589.1	955.818	-29782.7	0.000000	0.000000	6.763049	-0.023327	NaN	0.000000	0.001573	0.001670	28.0917	0.049740	0.001988	25.0212	-66.4964	-168.156	-0.014809	0.761440	-0.326689	-0.327985	-0.023327	25.0212	-0.325990	-11393.8	2.047306E-6	NaN
79	1.000000	0.772741	7.36582e+06	-42589.1	955.819	-29782.7	0.000000	0.000000	6.773055	-0.008111	NaN	0.000000	0.001588	0.001671	28.1303	0.041144	0.002036	20.2048	178.781	12.4738	-0.009336	0.771391	-0.316683	-0.318034	-0.008111	20.2048	-0.316382	-8228.87	9.856259E-7	NaN
79	1.000000	0.782732	7.36582e+06	-42589.1	955.82	-29782.7	0.000000	0.000000	6.783047	0.007241	NaN	0.000000	0.001589	0.001660	28.1073	0.073396	0.001947	37.6922	162.344	-167.637	0.038928	0.781430	-0.306692	-0.307995	0.007241	37.6922	-0.306836	-5945.59	-1.217859E-6	NaN
79	1.000000	0.792777	7.36582e+06	-42589.1	955.818	-29782.7	0.000000	0.000000	6.793092	-0.003980	NaN	0.000000	0.001575	0.001660	28.0812	0.027282	0.001949	13.9955	155.083	13.9223	0.038524	0.791413	-0.296647	-0.298011	-0.003980	13.9955	-0.296434	-4163.82	9.559416E-7	NaN
79	1.000000	0.802757	7.36582e+06	-42589.1	955.819	-29782.7	0.000000	0.000000	6.803072	0.005782	NaN	0.000000	0.001559	0.001652	28.0901	0.064407	0.002025	31.8074	142.158	-168.066	-0.050622	0.801425	-0.286667	-0.288000	0.005782	31.8074	-0.286804	-2987.89	-1.935110E-6	NaN
79	1.000000	0.812721	7.36582e+06	-42589.1	955.818	-29782.7	0.000000	0.000000	6.813036	-0.005538	NaN	0.000000	0.001537	0.001688	28.129	0.036321	0.002061	17.6222	-132.277	16.8704	-0.019957	0.811351	-0.276703	-0.278073	-0.005538	17.6222	-0.276467	-2087.41	2.652948E-6	NaN
79	1.000000	0.822774	7.36582e+06	-42589.1	955.818	-29782.7	0.000000	0.000000	6.823087	-0.018066	NaN	0.000000	0.001556	0.001710	28.1058	0.028582	0.001956	14.6129	39.6062	-165.096	0.083104	0.821514	-0.266651	-0.267911	-0.018066	14.6129	-0.265724	-1433.61	1.260177E-5	NaN
79	1.000000	0.832783	7.36582e+06	-42589.1	955.818	-29782.7	0.000000	0.000000	6.833096	-0.031785	NaN	0.000000	0.001580	0.001693	28.0801	0.096477	0.002108	45.7752	-157.07	13.3377	0.007429	0.831398	-0.256642	-0.258027	-0.031785	45.7752	-0.256121	-1021.8	3.110654E-5	NaN
79	1.000000	0.842772	7.36582e+06	-42589.1	955.818	-29782.7	0.000000	0.000000	6.843088	0.033868	NaN	0.000000	0.001569	0.001702	28.0899	0.119446	0.001892	63.1279	-53.895	-165.789	-0.021514	0.841510	-0.246653	-0.247914	0.033868	63.1279	-0.247055	-740.218	-4.575370E-5	NaN
79	1.000000	0.852767	7.36582e+06	-42589.1	955.819	-29782.7	0.000000	0.000000	6.853079	-0.050084	NaN	0.000000	0.001576	0.001670	28.1289	0.020526	0.001919	10.6988	-157.469	12.8504	-0.072449	0.851441	-0.236658	-0.237984	-0.050084	10.6988	-0.233147	-448.869	0.000112	NaN
79	1.000000	0.862805	7.36582e+06	-42589.1	955.818	-29782.7	0.000000	0.000000	6.863119	-0.016520	NaN	0.000000	0.001618	0.001651	28.1062	0.019342	0.001993	9.706598	135.788	-165.336	-0.008993	0.861429	-0.226620	-0.227995	-0.016520	9.706598	-0.225343	-337.897	4.889207E-5	NaN
79	1.000000	0.872756	7.36582e+06	-42589.1	955.819	-29782.7	0.000000	0.000000	6.873070	-0.002040	NaN	0.000000	0.001574	0.001681	28.079	0.039712	0.001843	21.5454	-146.979	11.8314	-0.060272	0.871456	-0.216669	-0.217968	-0.002040	21.5454	-0.216598	-245.012	8.325844E-6	NaN
79	1.000000	0.882780	7.36582e+06	-42589.1	955.819	-29782.7	0.000000	0.000000	6.883096	0.026480	NaN	0.000000	0.001584	0.001685	28.0895	0.098873	0.002010	49.1822	-86.5139	-165.856	0.010764	0.881486	-0.206644	-0.207938	0.026480	49.1822	-0.207048	-171.757	-0.000154	NaN
79	1.000000	0.892780	7.36582e+06	-42589.1	955.819	-29782.7	0.000000	0.000000	6.893093	-0.034367	NaN	0.000000	0.001588	0.001678	28.1282	0.062773	0.002015	31.152	144.403	15.6207	-0.010220	0.891433	-0.196645	-0.197991	-0.034367	31.152	-0.195817	-112.391	0.000306	NaN
79	1.000000	0.902789	7.36582e+06	-42589.1	955.818	-29782.7	0.000000	0.000000	6.903105	0.051488	NaN	0.000000	0.001653	0.001726	28.1055	0.131620	0.001927	68.313	153.397	-166.798	0.064425	0.901475	-0.186636	-0.187949	0.051488	68.313	-0.187201	-80.7531	-0.000638	NaN
79	1.000000	0.912823	7.36582e+06	-42589.1	955.818	-29782.7	0.000000	0.000000	6.913135	-0.048731	NaN	0.000000	0.001645	0.001708	28.0804	0.034125	0.002014	16.9449	56.4212	15.6962	0.003639	0.911440	-0.176602	-0.177985	-0.048731	16.9449	-0.174445	-49.0273	0.000994	NaN
79	1.000000	0.922810	7.36582e+06	-42589.1	955.819	-29782.7	0.000000	0.000000	6.923124	-0.012493	NaN	0.000000	0.001629	0.001702	28.0899	0.033419	0.002095	15.9504	-98.8753	-167.747	-0.012094	0.921508	-0.166615	-0.167916	-0.012493	15.9504	-0.166027	-35.0204	0.000357	NaN
79	1.000000	0.932777	7.36582e+06	-42589.1	955.818	-29782.7	0.000000	0.000000	6.933090	-0.046144	NaN	0.000000	0.001658	0.001703	28.1285	0.035538	0.002009	17.692	-140.651	15.1036	-0.111082	0.931400	-0.156647	-0.158025	-0.046144	17.692	-0.154691	-22.0303	0.002095	NaN
79	1.000000	0.942837	7.36582e+06	-42589.1	955.818	-29782.7	0.000000	0.000000	6.943153	0.032282	NaN	0.000000	0.001663	0.001681	28.1068	0.023887	0.001955	12.218	-121.028	-163.251	0.032030	0.941471	-0.146587	-0.147953	0.032282	12.218	-0.148569	-17.0549	-0.001893	NaN
79	1.000000	0.952834	7.36582e+06	-42589.1	955.818	-29782.7	0.000000	0.000000	6.953149	0.028467	NaN	0.000000	0.001624	0.001645	28.0804	0.079171	0.002007	39.4489	1.409867	15.4116	-0.061385	0.951481	-0.136591	-0.137944	0.028467	39.4489	-0.137132	-10.4436	-0.002726	NaN
79	1.000000	0.962803	7.36582e+06	-42589.1	955.819	-29782.7	0.000000	0.000000	6.963118	0.008250	NaN	0.000000	0.001637	0.001655	28.0909	0.078685	0.001972	39.8994	-98.9351	-164.656	-5.973124E-5	0.961505	-0.126622	-0.127920	0.008250	39.8994	-0.126777	-6.592329	-0.001251	NaN
79	1.000000	0.972810	7.36582e+06	-42589.1	955.819	-29782.7	0.000000	0.000000	6.973124	-0.005262	NaN	0.000000	0.001642	0.001642	28.1292	0.060033	0.001979	30.3361	140.449	17.1839	-0.107618	0.971474	-0.116615	-0.117950	-0.005262	30.3361	-0.116485	-4.098380	0.001284	NaN
79	1.000000	0.982805	7.36582e+06	-42589.1	955.819	-29782.7	0.000000	0.000000	6.983118	-0.032471	NaN	0.000000	0.001641	0.001667	28.1067	0.163371	0.001984	82.361	-64.8189	-167.997	-0.006669	0.981535	-0.106620	-0.107890	-0.032471	82.361	-0.106324	-2.510026	0.012937	NaN
79	1.000000	0.992838	7.36582e+06	-42589.1	955.819	-29782.7	0.000000	0.000000	6.993152	-0.008900	NaN	0.000000	0.001657	0.001681	28.0829	0.123720	0.002032	60.8901	-108.938	14.1742	-0.065571	0.991486	-0.096587	-0.097938	-0.008900	60.8901	-0.096477	-1.523835	0.005840	NaN
79	1.000000	1.002847	7.36582e+06	-42589.1	955.819	-29782.7	0.000000	0.000000	7.003161	-0.013480	NaN	0.000000	0.001619	0.001690	28.091	0.071967	0.001961	36.7049	1.344734	-164.908	-0.047087	1.001521	-0.086577	-0.087903	-0.013480	36.7049	-0.086302	-0.883192	0.015262	NaN
79	1.000000	1.012839	7.36582e+06	-42589.1	955.818	-29782.7	0.000000	0.000000	7.013150	-0.089065	NaN	0.000000	0.001624	0.001699	28.1301	0.189059	0.002084	90.7231	-66.5782	13.2734	-0.091747	1.011482	-0.076585	-0.077943	-0.089065	90.7231	-0.075849	-0.485754	0.183354	NaN
79	1.000000	1.022842	7.36582e+06	-42589.1	955.818	-29782.7	0.000000	0.000000	7.023158	0.030395	NaN	0.000000	0.001656	0.001679	28.1086	0.103424	0.002065	50.089	-128.039	-167.684	0.081218	1.021572	-0.066583	-0.067853	0.030395	50.089	-0.067038	-0.283601	-0.107176	NaN
79	1.000000	1.032846	7.36582e+06	-42589.1	955.819	-29782.7	0.000000	0.000000	7.033163	0.071465	NaN	0.000000	0.001630	0.001678	28.0815	0.147531	0.001967	75.009	-179.091	18.3291	0.074200	1.031498	-0.056579	-0.057926	0.071465	75.009	-0.057293	-0.150381	-0.475230	NaN
79	1.000000	1.042867	7.36582e+06	-42589.1	955.819	-29782.7	0.000000	0.000000	7.043178	-0.093388	NaN	0.000000	0.001598	0.001690	28.0906	0.116821	0.002025	57.7021	-116.491	-164.364	-0.001178	1.041563	-0.046558	-0.047861	-0.093388	57.7021	-0.045344	-0.065844	1.418335	NaN
79	1.000000	1.052823	7.36582e+06	-42589.1	955.82	-29782.7	0.000000	0.000000	7.053137	-0.015722	NaN	0.000000	0.001645	0.001655	28.1288	0.099552	0.002039	48.8256	-145.976	15.1914	-0.063825	1.051539	-0.036601	-0.037885	-0.015722	48.8256	-0.036360	-0.035136	0.447449	NaN
79	1.000000	1.062864	7.36582e+06	-42589.1	955.82	-29782.7	0.000000	0.000000	7.063176	-0.052718	NaN	0.000000	0.001640	0.001662	28.1071	0.054987	0.001923	28.5903	-175.356	-169.958	0.037575	1.061543	-0.026561	-0.027882	-0.052718	28.5903	-0.025178	-0.017052	3.091614	NaN
79	1.000000	1.072853	7.36582e+06	-42589.1	955.819	-29782.7	0.000000	0.000000	7.073169	0.037500	NaN	0.000000	0.001618	0.001695	28.0823	0.110028	0.002065	53.2846	37.3244	10.4117	-0.025724	1.071530	-0.016571	-0.017894	0.037500	53.2846	-0.017099	-0.010574	-3.546442	NaN
79	1.000000	1.082902	7.36582e+06	-42589.1	955.82	-29782.7	0.000000	0.000000	7.083233	0.399577	NaN	0.000000	0.001604	0.001705	28.0908	0.644799	0.002047	315.013	45.9652	-168.903	0.332510	1.081535	-0.006523	-0.007890	0.399577	315.013	-0.007474	-0.004922	-81.1808	NaN
79	1.000000	1.092844	7.36582e+06	-42589.1	955.819	-29782.7	0.000000	0.000000	7.093239	1.953902	NaN	0.000000	0.001636	0.001699	28.1296	2.513849	0.001915	1312.58	16.4201	12.3541	1.214145	1.091514	0.003420	0.002090	1.953902	1312.58	0.002304	0.001802	1084.45	28252.3
79	2.000000	1.099458	7.36582e+06	-42589.1	955.82	-29782.7	0.000000	0.000000	7.100283	12.4064	NaN	0.000000	0.001603	0.001677	28.1074	9.956456	0.001436	6933	6.673144	-175.768	11.4318	1.099130	0.010034	0.009706	12.4064	6933	0.008692	0.007763	1598.08	71890.4
79	2.000000	1.101913	7.36582e+06	-42589.1	955.819	-29782.7	0.000000	0.000000	7.102885	15.9823	NaN	0.000000	0.001597	0.001666	28.0795	13.2071	0.001614	8182.62	4.229225	7.130886	14.8201	1.101609	0.012489	0.012184	15.9823	8182.62	0.011024	0.010341	1545.46	73514.8
79	2.000000	1.104417	7.36582e+06	-42589.1	955.819	-29782.7	0.000000	0.000000	7.105570	20.4042	NaN	0.000000	0.001621	0.001672	28.0882	17.0396	0.001753	9721.41	7.915617	-178.707	19.8629	1.104132	0.014992	0.014708	20.4042	9721.41	0.013418	0.013233	1541.87	77208.8
79	2.000000	1.106941	7.36582e+06	-42589.1	955.818	-29782.7	0.000000	0.000000	7.108494	30.1365	NaN	0.000000	0.001602	0.001672	28.1269	19.3281	0.001743	11086	6.039993	2.868491	28.4622	1.106465	0.017516	0.017040	30.1365	11086	0.015478	0.015928	1892.11	80255.4
79	2.000000	1.109396	7.36582e+06	-42589.1	955.818	-29782.7	0.000000	0.000000	7.111177	35.68	NaN	0.000000	0.001620	0.001667	28.1066	21.6305	0.001597	13541.3	3.783508	-177.929	34.3633	1.109094	0.019971	0.019669	35.68	13541.3	0.017995	0.019489	1830.74	88620.2
79	2.000000	1.111868	7.36582e+06	-42589.1	955.818	-29782.7	0.000000	0.000000	7.114021	44.715	NaN	0.000000	0.001594	0.001678	28.0811	24.8448	0.001627	15266.3	5.858513	-1.686139	42.6517	1.111505	0.022444	0.022080	44.715	15266.3	0.020247	0.022932	1949.93	92106.4
79	2.000000	1.114382	7.36582e+06	-42589.1	955.818	-29782.7	0.000000	0.000000	7.116761	50.2333	NaN	0.000000	0.001581	0.001711	28.09	28.632	0.001781	16077.1	5.302550	179.201	49.3146	1.114132	0.024957	0.024708	50.2333	16077.1	0.022614	0.026817	1873.18	89696.1
79	2.000000	1.116879	7.36582e+06	-42589.1	955.818	-29782.7	0.000000	0.000000	7.119606	58.695	NaN	0.000000	0.001572	0.001659	28.129	30.1067	0.001714	17567.5	5.465026	-0.537177	58.0849	1.116491	0.027455	0.027067	58.695	17567.5	0.024949	0.030923	1898.11	91272.9
79	2.000000	1.119360	7.36582e+06	-42589.1	955.818	-29782.7	0.000000	0.000000	7.122602	71.2184	NaN	0.000000	0.001551	0.001667	28.1078	32.4532	0.001842	17618.8	5.933424	179.148	70.3865	1.118989	0.029936	0.029564	71.2184	17618.8	0.026904	0.034571	2060.08	86575.8
79	2.000000	1.121864	7.36582e+06	-42589.1	955.818	-29782.7	0.000000	0.000000	7.125499	80.7639	NaN	0.000000	0.001556	0.001688	28.0809	34.6696	0.001804	19213.4	6.574267	-3.154037	79.2188	1.121491	0.032440	0.032066	80.7639	19213.4	0.029287	0.039279	2056.14	88571.6
79	2.000000	1.124333	7.36582e+06	-42589.1	955.819	-29782.7	0.000000	0.000000	7.128294	88.7109	NaN	0.000000	0.001554	0.001661	28.0888	37.2211	0.001813	20527	5.420389	177.257	87.3217	1.124069	0.034908	0.034645	88.7109	20527	0.031667	0.044270	2003.86	89134.2
79	2.000000	1.126807	7.36582e+06	-42589.1	955.819	-29782.7	0.000000	0.000000	7.131381	103.623	NaN	0.000000	0.001566	0.001660	28.1273	38.6395	0.001782	21678.7	7.553978	-4.842029	99.3206	1.126516	0.037383	0.037092	103.623	21678.7	0.033798	0.048984	2115.45	89491.1
79	2.000000	1.129312	7.36582e+06	-42589.1	955.819	-29782.7	0.000000	0.000000	7.134468	117.79	NaN	0.000000	0.001589	0.001670	28.1079	40.3049	0.001847	21816	1.865464	-179.441	115.985	1.129071	0.039887	0.039646	117.79	21816	0.035838	0.053715	2192.85	86000.2
79	2.000000	1.131804	7.36582e+06	-42589.1	955.82	-29782.7	0.000000	0.000000	7.137452	129.758	NaN	0.000000	0.001565	0.001674	28.0812	43.3364	0.001756	24675.9	7.097271	-5.333786	126.327	1.131443	0.042380	0.042019	129.758	24675.9	0.038436	0.060048	2160.89	92001.7
79	2.000000	1.134297	7.36582e+06	-42589.1	955.819	-29782.7	0.000000	0.000000	7.140539	144.216	NaN	0.000000	0.001594	0.001659	28.0911	45.7522	0.001882	24313.8	5.612224	176.121	141.405	1.134062	0.044872	0.044638	144.216	24313.8	0.040423	0.065127	2214.37	87045.1
79	2.000000	1.136784	7.36582e+06	-42589.1	955.818	-29782.7	0.000000	0.000000	7.143574	157.546	NaN	0.000000	0.001601	0.001642	28.1296	46.7268	0.001828	25560.7	5.801626	-3.904097	152.947	1.136453	0.047360	0.047029	157.546	25560.7	0.042737	0.071293	2209.84	87462.3
79	2.000000	1.139279	7.36582e+06	-42589.1	955.819	-29782.7	0.000000	0.000000	7.146723	173.445	NaN	0.000000	0.001560	0.001656	28.1097	48.9813	0.001887	25952.4	4.754661	175.673	170.792	1.138979	0.049855	0.049555	173.445	25952.4	0.044842	0.077140	2248.43	85370.9
79	2.000000	1.141801	7.36582e+06	-42589.1	955.82	-29782.7	0.000000	0.000000	7.149756	185.895	NaN	0.000000	0.001569	0.001652	28.0829	51.4677	0.001825	28202.7	5.597413	-5.533404	182.714	1.141434	0.052376	0.052009	185.895	28202.7	0.047433	0.084644	2196.22	88566
79	2.000000	1.144319	7.36582e+06	-42589.1	955.819	-29782.7	0.000000	0.000000	7.152840	199.653	NaN	0.000000	0.001583	0.001664	28.0908	53.4831	0.001849	28924	2.793930	177.021	199.36	1.144050	0.054895	0.054625	199.653	28924	0.049718	0.091542	2181	87341.7
79	2.000000	1.146862	7.36582e+06	-42589.1	955.819	-29782.7	0.000000	0.000000	7.155918	212.677	NaN	0.000000	0.001565	0.001659	28.1279	54.987	0.001913	28739.4	2.811129	-2.389756	212.777	1.146556	0.057438	0.057132	212.677	28739.4	0.051887	0.098336	2162.76	83732.5
79	2.000000	1.149310	7.36582e+06	-42589.1	955.818	-29782.7	0.000000	0.000000	7.159224	233.569	NaN	0.000000	0.001586	0.001653	28.1093	56.3118	0.001708	32970.4	3.611472	175.449	233.892	1.148979	0.059885	0.059555	233.569	32970.4	0.054572	0.107067	2181.53	92059.8
79	2.000000	1.151767	7.36582e+06	-42589.1	955.818	-29782.7	0.000000	0.000000	7.162334	249.454	NaN	0.000000	0.001589	0.001659	28.0828	58.3626	0.001831	31868.8	1.660941	-2.675391	246.019	1.151409	0.062343	0.061985	249.454	31868.8	0.056472	0.113462	2198.56	86439.7
79	2.000000	1.154314	7.36582e+06	-42589.1	955.819	-29782.7	0.000000	0.000000	7.165228	257.892	NaN	0.000000	0.001612	0.001661	28.09	60.6928	0.001816	33416.8	1.659959	176.112	255.84	1.154070	0.064889	0.064646	257.892	33416.8	0.059101	0.122605	2103.43	87193.3
79	2.000000	1.156858	7.36582e+06	-42589.1	955.818	-29782.7	0.000000	0.000000	7.168713	280.78	NaN	0.000000	0.001564	0.001675	28.129	61.9165	0.001859	33298.7	5.525252	-6.239035	280.248	1.156403	0.067433	0.066978	280.78	33298.7	0.061109	0.129816	2162.9	84437.8
79	2.000000	1.159330	7.36582e+06	-42589.1	955.819	-29782.7	0.000000	0.000000	7.171663	292.423	NaN	0.000000	0.001579	0.001653	28.1102	63.5347	0.001850	34348.2	0.233926	178.607	293.603	1.159006	0.069905	0.069581	292.423	34348.2	0.063520	0.138732	2107.82	84253.6
79	2.000000	1.161804	7.36582e+06	-42589.1	955.819	-29782.7	0.000000	0.000000	7.174834	309.387	NaN	0.000000	0.001607	0.001643	28.081	67.327	0.001955	34437.6	4.718674	-5.799235	307.711	1.161394	0.072379	0.071970	309.387	34437.6	0.065641	0.146810	2107.4	82116.1
79	2.000000	1.164268	7.36582e+06	-42589.1	955.819	-29782.7	0.000000	0.000000	7.177788	321.304	NaN	0.000000	0.001605	0.001693	28.0885	69.3019	0.001814	38193.7	4.658935	173.681	318.794	1.163948	0.074843	0.074523	321.304	38193.7	0.068534	0.158176	2031.31	87739.5
79	2.000000	1.166753	7.36582e+06	-42589.1	955.819	-29782.7	0.000000	0.000000	7.180707	331.865	NaN	0.000000	0.001571	0.001649	28.1264	70.9802	0.001883	37690.1	7.062559	-8.670079	325.997	1.166385	0.077328	0.076961	331.865	37690.1	0.070724	0.167047	1986.65	84252.2
79	2.000000	1.169234	7.36582e+06	-42589.1	955.817	-29782.7	0.000000	0.000000	7.184076	353.461	NaN	0.000000	0.001585	0.001663	28.1077	73.3518	0.001909	38424.6	6.981125	171.393	349.631	1.168923	0.079809	0.079498	353.461	38424.6	0.072910	0.176128	2006.84	83650.4
79	2.000000	1.171734	7.36582e+06	-42589.1	955.818	-29782.7	0.000000	0.000000	7.187342	372.102	NaN	0.000000	0.001552	0.001683	28.0804	74.1259	0.001793	41345.1	4.959134	-7.070249	368.131	1.171363	0.082309	0.081938	372.102	41345.1	0.075559	0.187435	1985.24	87251.5
79	2.000000	1.174626	7.36582e+06	-42589.1	955.818	-29782.7	0.000000	0.000000	7.189564	355.815	NaN	0.000000	0.001575	0.001695	28.0874	78.4283	0.001905	41177.2	5.274440	172.865	375.557	1.174195	0.085201	0.084770	355.815	41177.2	0.078720	0.201359	1767.07	83838.8
79	2.000000	1.176691	7.36582e+06	-42589.1	955.817	-29782.7	0.000000	0.000000	7.192987	388.833	NaN	0.000000	0.001543	0.001687	28.1276	77.9998	0.001763	44252.1	2.592697	-5.348374	380.463	1.176345	0.087267	0.086921	388.833	44252.1	0.080677	0.210211	1849.73	88182
79	2.000000	1.179298	7.36582e+06	-42589.1	955.817	-29782.7	0.000000	0.000000	7.196023	399.259	NaN	0.000000	0.001565	0.001697	28.1095	80.4949	0.001690	47619.7	6.238159	169.646	397.179	1.179047	0.089874	0.089623	399.259	47619.7	0.083586	0.223701	1784.79	91986.9
79	2.000000	1.181859	7.36582e+06	-42589.1	955.817	-29782.7	0.000000	0.000000	7.199257	415.641	NaN	0.000000	0.001580	0.001662	28.0795	83.9006	0.001813	46273.7	3.938714	-7.053387	417.895	1.181408	0.092435	0.091983	415.641	46273.7	0.085698	0.233744	1778.19	87445.6
79	2.000000	1.184206	7.36582e+06	-42589.1	955.818	-29782.7	0.000000	0.000000	7.202254	431.482	NaN	0.000000	0.001527	0.001674	28.0881	87.257	0.001877	46493.4	9.515797	166.716	427.44	1.183889	0.094781	0.094464	431.482	46493.4	0.087821	0.244042	1768.07	85986.9
79	2.000000	1.186771	7.36582e+06	-42589.1	955.817	-29782.7	0.000000	0.000000	7.205715	453.258	NaN	0.000000	0.001582	0.001677	28.1262	88.0471	0.001830	48121	6.464385	-9.468578	450.893	1.186414	0.097346	0.096989	453.258	48121	0.090282	0.256242	1768.87	86852.6
79	2.000000	1.189255	7.36582e+06	-42589.1	955.818	-29782.7	0.000000	0.000000	7.208775	467.27	NaN	0.000000	0.001591	0.001719	28.1082	89.3955	0.001724	51840.3	5.467520	170.027	467.37	1.188966	0.099831	0.099541	467.27	51840.3	0.093070	0.270399	1728.08	91083.3
79	2.000000	1.191719	7.36582e+06	-42589.1	955.817	-29782.7	0.000000	0.000000	7.212343	494.139	NaN	0.000000	0.001569	0.001708	28.0814	92.7111	0.001861	49815.2	4.712018	-7.898636	491.321	1.191346	0.102294	0.101922	494.139	49815.2	0.094855	0.279644	1767.03	86066.1
79	2.000000	1.194478	7.36582e+06	-42589.1	955.818	-29782.7	0.000000	0.000000	7.215354	500.263	NaN	0.000000	0.001542	0.001691	28.0879	96.2989	0.001827	52719.8	7.239772	168.742	513.494	1.194064	0.105054	0.104639	500.263	52719.8	0.097937	0.295958	1690.32	88538.4
79	2.000000	1.196755	7.36582e+06	-42589.1	955.818	-29782.7	0.000000	0.000000	7.218990	533.345	NaN	0.000000	0.001553	0.001684	28.1272	97.1567	0.001891	51372.5	5.879211	-9.412812	530.016	1.196358	0.107331	0.106934	533.345	51372.5	0.099544	0.304636	1750.76	85038.1