File: remote_trans/data/nanoindenter/0828-1/data/Data_2025-08-06,11h17m57s/2025-07-22_16-23-58_1_1171.txt
2025-07-22, 16:23:58, 1
Index	Phase	Displacement	Time	Pos X	Pos Y	Pos Z	Rot A	Rot B	Piezo Z	Force A	Force B	Gripper	Voltage A	Voltage B	Temperature	Amplitude force	Amplitude pos	Stiffness	Phase shift	Phase excitation	Force A raw	Displacement raw	HMax	HMax raw	Real Force	Real Stiffness	Contact Depth	Area	Hardness	Reduced Mod.
[#]	[#]	[um]	[s]	[um]	[um]	[um]	[m°]	[m°]	[um]	[uN]	[uN]	[V]	[V]	[V]	[°C]	[uN]	[um]	[N/m]	[°]	[°]	[uN]	[um]	[um]	[um]	[uN]	[N/m]	[um]	[um^2]	[MPa]	[MPa]
1171	1.000000	0.003036	7.3765e+06	-57039.1	1105.82	-29737.4	0.000000	0.000000	6.002816	0.021931	NaN	0.000000	0.001616	0.001764	28.0838	0.096026	0.001013	94.7785	1.950122	-170.886	-0.065514	0.001777	-1.106158	-1.107417	0.021931	94.7785	-1.106331	-6.096115E+14	-3.597580E-17	NaN
1171	1.000000	0.013082	7.3765e+06	-57039.1	1105.82	-29737.4	0.000000	0.000000	6.012864	0.049725	NaN	0.000000	0.001596	0.001762	28.0836	0.103164	0.001243	83.0065	-172.452	19.4943	0.039148	0.011623	-1.096112	-1.097571	0.049725	83.0065	-1.096561	-4.507148E+14	-1.103241E-16	NaN
1171	1.000000	0.022945	7.3765e+06	-57039.1	1105.82	-29737.4	0.000000	0.000000	6.022725	0.013423	NaN	0.000000	0.001607	0.001790	28.0825	0.159435	0.001702	93.6668	-80.0928	-165.765	0.009367	0.021589	-1.086249	-1.087605	0.013423	93.6668	-1.086356	-3.287630E+14	-4.082969E-17	NaN
1171	1.000000	0.032963	7.3765e+06	-57039.1	1105.82	-29737.4	0.000000	0.000000	6.032743	0.009121	NaN	0.000000	0.001583	0.001787	28.0822	0.036759	0.001879	19.5652	159.14	13.4818	0.045336	0.031602	-1.076231	-1.077592	0.009121	19.5652	-1.076581	-2.429919E+14	-3.753691E-17	NaN
1171	1.000000	0.042992	7.3765e+06	-57039.1	1105.82	-29737.4	0.000000	0.000000	6.042772	0.011801	NaN	0.000000	0.001595	0.001792	28.0825	0.087783	0.002022	43.421	-33.3601	-165.729	0.033058	0.041669	-1.066202	-1.067525	0.011801	43.421	-1.066406	-1.773791E+14	-6.652952E-17	NaN
1171	1.000000	0.052942	7.3765e+06	-57039.1	1105.82	-29737.4	0.000000	0.000000	6.052720	-0.017890	NaN	0.000000	0.001567	0.001793	28.0824	0.033116	0.001855	17.8482	-55.4541	13.5666	-0.018449	0.051622	-1.056252	-1.057572	-0.017890	17.8482	-1.055500	-1.265755E+14	1.413359E-16	NaN
1171	1.000000	0.062994	7.3765e+06	-57039.1	1105.82	-29737.4	0.000000	0.000000	6.062772	-0.037892	NaN	0.000000	0.001571	0.001759	28.0825	0.078958	0.001954	40.4009	-81.1458	-165.361	0.012156	0.061665	-1.046200	-1.047530	-0.037892	40.4009	-1.045496	-9.286833E+13	4.080137E-16	NaN
1171	1.000000	0.072990	7.3765e+06	-57039.1	1105.82	-29737.4	0.000000	0.000000	6.072768	-0.043830	NaN	0.000000	0.001586	0.001743	28.0826	0.137311	0.001989	69.032	20.1363	10.4345	0.018194	0.071608	-1.036204	-1.037586	-0.043830	69.032	-1.035728	-6.863049E+13	6.386400E-16	NaN
1171	1.000000	0.082996	7.3765e+06	-57039.1	1105.82	-29737.4	0.000000	0.000000	6.082776	0.025875	NaN	0.000000	0.001567	0.001777	28.0828	0.015320	0.001911	8.016756	-104.353	-162.79	0.049254	0.081601	-1.026198	-1.027593	0.025875	8.016756	-1.028619	-5.506834E+13	-4.698777E-16	NaN
1171	1.000000	0.092979	7.3765e+06	-57039.1	1105.82	-29737.4	0.000000	0.000000	6.092758	-0.006463	NaN	0.000000	0.001573	0.001745	28.0826	0.092887	0.002004	46.3512	-121.776	10.1237	-0.068731	0.091617	-1.016215	-1.017577	-0.006463	46.3512	-1.016110	-3.737793E+13	1.729019E-16	NaN
1171	1.000000	0.102993	7.3765e+06	-57039.1	1105.82	-29737.4	0.000000	0.000000	6.102774	0.048282	NaN	0.000000	0.001572	0.001769	28.0826	0.109599	0.002129	51.4895	-5.956863	-165.259	-0.003709	0.101639	-1.006201	-1.007555	0.048282	51.4895	-1.006905	-2.810084E+13	-1.718166E-15	NaN
1171	1.000000	0.113006	7.3765e+06	-57039.1	1105.82	-29737.4	0.000000	0.000000	6.112785	-0.014015	NaN	0.000000	0.001548	0.001784	28.082	0.110532	0.002029	54.4829	117.598	13.6733	0.085181	0.111652	-0.996188	-0.997543	-0.014015	54.4829	-0.995995	-2.003774E+13	6.994070E-16	NaN
1171	1.000000	0.123002	7.3765e+06	-57039.1	1105.82	-29737.4	0.000000	0.000000	6.122779	-0.072608	NaN	0.000000	0.001590	0.001750	28.0825	0.042137	0.001939	21.7286	42.5263	-164.074	-0.061662	0.121698	-0.986192	-0.987496	-0.072608	21.7286	-0.983686	-1.367922E+13	5.307907E-15	NaN
1171	1.000000	0.132987	7.3765e+06	-57039.1	1105.82	-29737.4	0.000000	0.000000	6.132769	0.047133	NaN	0.000000	0.001598	0.001766	28.0823	0.103569	0.002052	50.4608	-29.4088	11.9318	0.093338	0.131606	-0.976207	-0.977588	0.047133	50.4608	-0.976907	-1.108518E+13	-4.251923E-15	NaN
1171	1.000000	0.142943	7.3765e+06	-57039.1	1105.82	-29737.4	0.000000	0.000000	6.142726	0.071342	NaN	0.000000	0.001588	0.001727	28.0826	0.075491	0.002040	37.0115	-75.2904	-167.259	-0.018205	0.141706	-0.966251	-0.967488	0.071342	37.0115	-0.967696	-8.329464E+12	-8.565053E-15	NaN
1171	1.000000	0.153020	7.3765e+06	-57039.1	1105.82	-29737.4	0.000000	0.000000	6.152801	0.033490	NaN	0.000000	0.001599	0.001776	28.0826	0.042314	0.002083	20.3155	-161.051	14.5265	0.019677	0.151672	-0.956174	-0.957523	0.033490	20.3155	-0.957410	-6.052727E+12	-5.533057E-15	NaN
1171	1.000000	0.163022	7.3765e+06	-57039.1	1105.82	-29737.4	0.000000	0.000000	6.162803	0.021091	NaN	0.000000	0.001609	0.001766	28.0837	0.029453	0.001924	15.3063	61.5407	-164.303	0.068316	0.161665	-0.946172	-0.947529	0.021091	15.3063	-0.947205	-4.408921E+12	-4.783709E-15	NaN
1171	1.000000	0.173025	7.3765e+06	-57039.1	1105.82	-29737.4	0.000000	0.000000	6.172805	0.013013	NaN	0.000000	0.001616	0.001748	28.0835	0.015808	0.001950	8.105188	112.854	11.8015	-0.037452	0.171684	-0.936169	-0.937510	0.013013	8.105188	-0.937373	-3.248547E+12	-4.005702E-15	NaN
1171	1.000000	0.183065	7.3765e+06	-57039.1	1105.82	-29737.4	0.000000	0.000000	6.182845	0.004973	NaN	0.000000	0.001596	0.001730	28.0838	0.083933	0.001983	42.3201	145.295	-168.071	0.097965	0.181683	-0.926129	-0.927511	0.004973	42.3201	-0.926217	-2.296857E+12	-2.164962E-15	NaN
1171	1.000000	0.193003	7.3765e+06	-57039.1	1105.82	-29737.4	0.000000	0.000000	6.192783	0.013595	NaN	0.000000	0.001611	0.001733	28.0836	0.052842	0.002005	26.3596	56.8122	13.9349	-0.070310	0.191638	-0.916191	-0.917556	0.013595	26.3596	-0.916578	-1.702154E+12	-7.987090E-15	NaN
1171	1.000000	0.203044	7.3765e+06	-57039.1	1105.82	-29737.4	0.000000	0.000000	6.202825	0.049855	NaN	0.000000	0.001586	0.001758	28.0837	0.077316	0.001968	39.2881	-164.829	-165.555	0.021705	0.201619	-0.906150	-0.907575	0.049855	39.2881	-0.907102	-1.267706E+12	-3.932664E-14	NaN
1171	1.000000	0.213023	7.3765e+06	-57039.1	1105.82	-29737.4	0.000000	0.000000	6.212803	-0.007408	NaN	0.000000	0.001614	0.001731	28.0835	0.032050	0.001994	16.0739	-149.37	15.5982	0.047486	0.211688	-0.896171	-0.897506	-0.007408	16.0739	-0.895825	-8.925787E+11	8.299276E-15	NaN
1171	1.000000	0.223046	7.3765e+06	-57039.1	1105.82	-29737.4	0.000000	0.000000	6.222824	-0.022160	NaN	0.000000	0.001549	0.001733	28.0837	0.100398	0.002003	50.1315	-107.935	-167.318	0.003472	0.221743	-0.886148	-0.887451	-0.022160	50.1315	-0.885817	-6.536758E+11	3.390034E-14	NaN
1171	1.000000	0.233064	7.3765e+06	-57039.1	1105.82	-29737.4	0.000000	0.000000	6.232842	-0.026975	NaN	0.000000	0.001565	0.001752	28.0835	0.049020	0.002072	23.6594	-170.776	14.1023	-0.012446	0.231710	-0.876130	-0.877484	-0.026975	23.6594	-0.875275	-4.707606E+11	5.730043E-14	NaN
1171	1.000000	0.243017	7.3765e+06	-57039.1	1105.82	-29737.4	0.000000	0.000000	6.242798	0.059250	NaN	0.000000	0.001570	0.001770	28.0837	0.108882	0.001948	55.8888	-40.7497	-165.08	0.146006	0.241749	-0.866177	-0.867445	0.059250	55.8888	-0.866973	-3.634812E+11	-1.630065E-13	NaN
1171	1.000000	0.253015	7.3765e+06	-57039.1	1105.82	-29737.4	0.000000	0.000000	6.252794	-0.004589	NaN	0.000000	0.001640	0.001789	28.0837	0.051666	0.002017	25.6185	-5.974654	14.0608	-0.002333	0.251696	-0.856180	-0.857498	-0.004589	25.6185	-0.856045	-2.585752E+11	1.774739E-14	NaN
1171	1.000000	0.263048	7.3765e+06	-57039.1	1105.82	-29737.4	0.000000	0.000000	6.262826	-0.018323	NaN	0.000000	0.001678	0.001798	28.0841	0.113032	0.001909	59.2207	-160.085	-163.818	-0.042966	0.261761	-0.846146	-0.847433	-0.018323	59.2207	-0.845914	-1.885409E+11	9.718142E-14	NaN
1171	1.000000	0.273046	7.3765e+06	-57039.1	1105.82	-29737.4	0.000000	0.000000	6.272824	-0.014378	NaN	0.000000	0.001622	0.001789	28.0833	0.045592	0.002028	22.4857	-139.762	12.6923	-0.019846	0.271709	-0.836149	-0.837485	-0.014378	22.4857	-0.835669	-1.369656E+11	1.049718E-13	NaN
1171	1.000000	0.283074	7.3765e+06	-57039.1	1105.82	-29737.4	0.000000	0.000000	6.282854	0.020157	NaN	0.000000	0.001588	0.001777	28.0834	0.081943	0.001966	41.6766	12.8396	-163.858	-0.029953	0.281780	-0.826120	-0.827414	0.020157	41.6766	-0.826483	-1.028283E+11	-1.960300E-13	NaN
1171	1.000000	0.293070	7.3765e+06	-57039.1	1105.82	-29737.4	0.000000	0.000000	6.292849	0.005368	NaN	0.000000	0.001577	0.001765	28.0835	0.039856	0.002060	19.3469	2.814576	13.1447	0.089511	0.291705	-0.816125	-0.817489	0.005368	19.3469	-0.816333	-7.489882E+10	-7.167336E-14	NaN
1171	1.000000	0.303091	7.3765e+06	-57039.1	1105.82	-29737.4	0.000000	0.000000	6.302867	-0.070029	NaN	0.000000	0.001606	0.001767	28.0822	0.041706	0.002144	19.4527	118.267	-166.128	-0.075854	0.301771	-0.806103	-0.807423	-0.070029	19.4527	-0.803403	-5.000965E+10	1.400308E-12	NaN
1171	1.000000	0.313091	7.3765e+06	-57039.1	1105.82	-29737.4	0.000000	0.000000	6.312869	-0.042404	NaN	0.000000	0.001634	0.001794	28.0821	0.088935	0.001882	47.2449	-110.869	12.8619	-0.050542	0.311705	-0.796103	-0.797489	-0.042404	47.2449	-0.795430	-3.897800E+10	1.087905E-12	NaN
1171	1.000000	0.323070	7.3765e+06	-57039.1	1105.82	-29737.4	0.000000	0.000000	6.322851	0.021986	NaN	0.000000	0.001585	0.001802	28.0821	0.034783	0.002091	16.6338	-91.1807	-168.236	0.005176	0.321729	-0.786124	-0.787465	0.021986	16.6338	-0.787115	-3.005366E+10	-7.315425E-13	NaN
1171	1.000000	0.333097	7.3765e+06	-57039.1	1105.82	-29737.4	0.000000	0.000000	6.332881	0.108660	NaN	0.000000	0.001598	0.001800	28.0823	0.054697	0.002105	25.9874	-20.2258	13.3409	0.019475	0.331763	-0.776097	-0.777431	0.108660	25.9874	-0.779233	-2.348567E+10	-4.626662E-12	NaN
1171	1.000000	0.343092	7.3765e+06	-57039.1	1105.82	-29737.4	0.000000	0.000000	6.342872	8.119337E-7	NaN	0.000000	0.001562	0.001784	28.0821	0.075554	0.002025	37.3071	0.640473	-163.672	0.071876	0.341765	-0.766102	-0.767429	8.119337E-7	37.3071	-0.766102	-1.557033E+10	-5.214621E-17	NaN
1171	1.000000	0.353099	7.3765e+06	-57039.1	1105.82	-29737.4	0.000000	0.000000	6.352880	0.019264	NaN	0.000000	0.001610	0.001763	28.0822	0.095303	0.002047	46.5478	-146.389	15.6415	0.012098	0.351757	-0.756095	-0.757437	0.019264	46.5478	-0.756405	-1.149186E+10	-1.676347E-12	NaN
1171	1.000000	0.363110	7.3765e+06	-57039.1	1105.82	-29737.4	0.000000	0.000000	6.362888	-0.025876	NaN	0.000000	0.001613	0.001752	28.0828	0.055116	0.002057	26.792	153.868	-164.65	0.043161	0.361763	-0.746084	-0.747431	-0.025876	26.792	-0.745360	-8.129180E+9	3.183098E-12	NaN
1171	1.000000	0.373097	7.3765e+06	-57039.1	1105.82	-29737.4	0.000000	0.000000	6.372879	0.052052	NaN	0.000000	0.001618	0.001775	28.0821	0.097011	0.001932	50.2113	-9.552620	13.5057	0.036262	0.371733	-0.736097	-0.737462	0.052052	50.2113	-0.736874	-6.229860E+9	-8.355211E-12	NaN
1171	1.000000	0.383108	7.3765e+06	-57039.1	1105.82	-29737.4	0.000000	0.000000	6.382889	0.039385	NaN	0.000000	0.001594	0.001742	28.082	0.057968	0.001935	29.9581	-83.3568	-165.31	-0.067586	0.381795	-0.726087	-0.727399	0.039385	29.9581	-0.727073	-4.580424E+9	-8.598527E-12	NaN
1171	1.000000	0.393109	7.3765e+06	-57039.1	1105.82	-29737.4	0.000000	0.000000	6.392891	0.056739	NaN	0.000000	0.001596	0.001728	28.0819	0.103751	0.001983	52.3307	175.978	12.1926	-0.012949	0.391722	-0.716085	-0.717472	0.056739	52.3307	-0.716898	-3.327877E+9	-1.704971E-11	NaN
1171	1.000000	0.403123	7.3765e+06	-57039.1	1105.82	-29737.4	0.000000	0.000000	6.402903	0.031549	NaN	0.000000	0.001637	0.001738	28.0823	0.052514	0.002009	26.1444	-117.956	-165.355	0.051889	0.401847	-0.706071	-0.707347	0.031549	26.1444	-0.706976	-2.436579E+9	-1.294796E-11	NaN
1171	1.000000	0.413137	7.3765e+06	-57039.1	1105.82	-29737.4	0.000000	0.000000	6.412918	0.052413	NaN	0.000000	0.001648	0.001746	28.0819	0.136517	0.001933	70.6128	-116.969	10.4271	0.033824	0.411797	-0.696057	-0.697398	0.052413	70.6128	-0.696614	-1.759069E+9	-2.979569E-11	NaN
1171	1.000000	0.423136	7.3765e+06	-57039.1	1105.82	-29737.4	0.000000	0.000000	6.422917	0.033397	NaN	0.000000	0.001648	0.001778	28.082	0.184551	0.002011	91.7543	-147.426	-166.759	-0.014399	0.421840	-0.686058	-0.687354	0.033397	91.7543	-0.686331	-1.272815E+9	-2.623854E-11	NaN
1171	1.000000	0.433130	7.3765e+06	-57039.1	1105.82	-29737.4	0.000000	0.000000	6.432911	0.031884	NaN	0.000000	0.001640	0.001731	28.0833	0.069869	0.002165	32.2774	-45.2722	15.6253	0.048505	0.431773	-0.676064	-0.677421	0.031884	32.2774	-0.676805	-9.429846E+8	-3.381182E-11	NaN
1171	1.000000	0.443155	7.3765e+06	-57039.1	1105.82	-29737.4	0.000000	0.000000	6.442936	0.038785	NaN	0.000000	0.001635	0.001743	28.0835	0.055046	0.001877	29.3193	-68.6997	-166.91	0.046444	0.441739	-0.666040	-0.667455	0.038785	29.3193	-0.667032	-6.930411E+8	-5.596377E-11	NaN
1171	1.000000	0.453140	7.3765e+06	-57039.1	1105.82	-29737.4	0.000000	0.000000	6.452922	0.047156	NaN	0.000000	0.001620	0.001715	28.0836	0.050081	0.001837	27.2659	173.214	16.0295	0.046162	0.451725	-0.656054	-0.657469	0.047156	27.2659	-0.657351	-5.107121E+8	-9.233444E-11	NaN
1171	1.000000	0.463166	7.3765e+06	-57039.1	1105.82	-29737.4	0.000000	0.000000	6.462946	0.026584	NaN	0.000000	0.001641	0.001723	28.0831	0.048366	0.001977	24.4615	-101.286	-163.581	0.090763	0.461858	-0.646029	-0.647336	0.026584	24.4615	-0.646844	-3.665726E+8	-7.252022E-11	NaN
1171	1.000000	0.473123	7.37651e+06	-57039.1	1105.82	-29737.4	0.000000	0.000000	6.472900	-0.043595	NaN	0.000000	0.001622	0.001720	28.0836	0.153279	0.001909	80.3115	130.492	13.1997	-0.037278	0.471875	-0.636072	-0.637319	-0.043595	80.3115	-0.635664	-2.575088E+8	1.692971E-10	NaN
1171	1.000000	0.483176	7.37651e+06	-57039.1	1105.82	-29737.4	0.000000	0.000000	6.482952	-0.058909	NaN	0.000000	0.001610	0.001759	28.0831	0.069647	0.002064	33.7499	69.6576	-167.987	0.019146	0.481811	-0.626019	-0.627383	-0.058909	33.7499	-0.624709	-1.821179E+8	3.234650E-10	NaN
1171	1.000000	0.493142	7.37651e+06	-57039.1	1105.82	-29737.4	0.000000	0.000000	6.492924	0.052474	NaN	0.000000	0.001666	0.001722	28.0833	0.069477	0.002010	34.5662	66.7729	16.3252	-0.005253	0.491812	-0.616052	-0.617382	0.052474	34.5662	-0.617190	-1.435512E+8	-3.655400E-10	NaN
1171	1.000000	0.503139	7.37651e+06	-57039.1	1105.82	-29737.4	0.000000	0.000000	6.502919	0.011863	NaN	0.000000	0.001673	0.001779	28.0832	0.049130	0.002021	24.3094	28.6306	-167.048	0.018929	0.501844	-0.606055	-0.607350	0.011863	24.3094	-0.606421	-1.020620E+8	-1.162379E-10	NaN
1171	1.000000	0.513133	7.37651e+06	-57039.1	1105.82	-29737.4	0.000000	0.000000	6.512914	0.043705	NaN	0.000000	0.001648	0.001764	28.0835	0.121303	0.001927	62.9437	175.795	12.3392	0.002474	0.511815	-0.596061	-0.597379	0.043705	62.9437	-0.596582	-7.470965E+7	-5.850007E-10	NaN
1171	1.000000	0.523165	7.37651e+06	-57039.1	1105.82	-29737.4	0.000000	0.000000	6.522945	0.015663	NaN	0.000000	0.001663	0.001781	28.0833	0.054413	0.002046	26.5916	174.62	-164.31	-0.016881	0.521877	-0.586029	-0.587317	0.015663	26.5916	-0.586471	-5.420087E+7	-2.889719E-10	NaN
1171	1.000000	0.533174	7.37651e+06	-57039.1	1105.82	-29737.4	0.000000	0.000000	6.532955	0.057850	NaN	0.000000	0.001647	0.001759	28.0832	0.030099	0.002051	14.6777	-1.437322	13.0058	0.039531	0.531783	-0.576020	-0.577411	0.057850	14.6777	-0.578976	-4.271665E+7	-1.354276E-9	NaN
1171	1.000000	0.543194	7.37651e+06	-57039.1	1105.82	-29737.4	0.000000	0.000000	6.542975	0.030162	NaN	0.000000	0.001641	0.001779	28.0834	0.022868	0.002101	10.8865	125.572	-166.245	0.075213	0.541869	-0.566000	-0.567325	0.030162	10.8865	-0.568078	-3.020439E+7	-9.985976E-10	NaN
1171	1.000000	0.553163	7.37651e+06	-57039.1	1105.82	-29737.4	0.000000	0.000000	6.552943	0.015772	NaN	0.000000	0.001625	0.001788	28.0833	0.069007	0.002093	32.978	-137.285	10.1321	-0.002202	0.551809	-0.556031	-0.557385	0.015772	32.978	-0.556390	-2.081742E+7	-7.576255E-10	NaN
1171	1.000000	0.563154	7.37651e+06	-57039.1	1105.82	-29737.4	0.000000	0.000000	6.562934	-0.000744	NaN	0.000000	0.001651	0.001783	28.0832	0.084166	0.001777	47.3535	83.6261	-164.971	-0.003002	0.561854	-0.546040	-0.547340	-0.000744	47.3535	-0.546028	-1.495981E+7	4.970335E-11	NaN
1171	1.000000	0.573181	7.37651e+06	-57039.1	1105.82	-29737.4	0.000000	0.000000	6.572960	-0.002308	NaN	0.000000	0.001635	0.001780	28.082	0.016432	0.002013	8.161272	-132.514	13.8054	0.069582	0.571777	-0.536013	-0.537417	-0.002308	8.161272	-0.535801	-1.079210E+7	2.138301E-10	NaN
1171	1.000000	0.583158	7.37651e+06	-57039.1	1105.82	-29737.4	0.000000	0.000000	6.582936	-0.033902	NaN	0.000000	0.001657	0.001768	28.0821	0.032247	0.002030	15.8825	172.4	-165.828	-0.014080	0.581895	-0.526037	-0.527299	-0.033902	15.8825	-0.524436	-7.50355e+06	4.518159E-9	NaN
1171	1.000000	0.593184	7.37651e+06	-57039.1	1105.82	-29737.4	0.000000	0.000000	6.592967	0.076430	NaN	0.000000	0.001665	0.001781	28.082	0.099262	0.001994	49.7878	105.42	13.1591	0.061943	0.591816	-0.516010	-0.517378	0.076430	49.7878	-0.517161	-5.94436e+06	-1.285764E-8	NaN
1171	1.000000	0.603227	7.37651e+06	-57039.1	1105.82	-29737.4	0.000000	0.000000	6.603005	-0.037583	NaN	0.000000	0.001664	0.001771	28.0816	0.050507	0.001968	25.6704	73.6812	-165.16	0.026804	0.601878	-0.505967	-0.507316	-0.037583	25.6704	-0.504869	-4.00793e+06	9.377046E-9	NaN
1171	1.000000	0.613222	7.37651e+06	-57039.1	1105.82	-29737.4	0.000000	0.000000	6.613000	-0.030027	NaN	0.000000	0.001657	0.001830	28.082	0.086668	0.001994	43.4543	149.622	13.7511	0.016848	0.611874	-0.495972	-0.497320	-0.030027	43.4543	-0.495454	-2.96194e+06	1.013744E-8	NaN
1171	1.000000	0.623204	7.37651e+06	-57039.1	1105.82	-29737.4	0.000000	0.000000	6.622984	0.015639	NaN	0.000000	0.001656	0.001761	28.082	0.038738	0.002124	18.2395	42.2637	-166.316	0.084704	0.621930	-0.485990	-0.487264	0.015639	18.2395	-0.486633	-2.23012e+06	-7.012591E-9	NaN
1171	1.000000	0.633208	7.37651e+06	-57039.1	1105.82	-29737.4	0.000000	0.000000	6.632987	0.007532	NaN	0.000000	0.001670	0.001795	28.082	0.039016	0.002107	18.519	158.933	17.1245	0.052349	0.631859	-0.475986	-0.477335	0.007532	18.519	-0.476291	-1.59806e+06	-4.713241E-9	NaN
1171	1.000000	0.643203	7.37651e+06	-57039.1	1105.82	-29737.4	0.000000	0.000000	6.642981	-0.019246	NaN	0.000000	0.001709	0.001768	28.0818	0.046901	0.002044	22.9492	109.496	-165.593	0.018457	0.641888	-0.465991	-0.467306	-0.019246	22.9492	-0.465362	-1.12288e+06	1.714019E-8	NaN
1171	1.000000	0.653239	7.37651e+06	-57039.1	1105.82	-29737.4	0.000000	0.000000	6.653020	0.045941	NaN	0.000000	0.001635	0.001794	28.0822	0.085837	0.002097	40.9381	72.5295	14.2514	0.043866	0.651839	-0.455955	-0.457355	0.045941	40.9381	-0.456797	-851125	-5.397668E-8	NaN
1171	1.000000	0.663238	7.37651e+06	-57039.1	1105.82	-29737.4	0.000000	0.000000	6.663015	-0.063714	NaN	0.000000	0.001690	0.001741	28.0819	0.072996	0.002051	35.5879	133.533	-168.952	0.016673	0.661936	-0.445956	-0.447258	-0.063714	35.5879	-0.444613	-573379	1.111197E-7	NaN
1171	1.000000	0.673235	7.37651e+06	-57039.1	1105.82	-29737.4	0.000000	0.000000	6.673012	-0.053058	NaN	0.000000	0.001688	0.001764	28.082	0.030391	0.001951	15.5788	98.4882	13.9487	0.031132	0.671888	-0.435959	-0.437306	-0.053058	15.5788	-0.433404	-398295	1.332126E-7	NaN
1171	1.000000	0.683235	7.37651e+06	-57039.1	1105.82	-29737.4	0.000000	0.000000	6.683015	0.034629	NaN	0.000000	0.001635	0.001785	28.082	0.053426	0.002025	26.379	-64.3963	-168.208	-0.009868	0.681943	-0.425959	-0.427251	0.034629	26.379	-0.426944	-322709	-1.073073E-7	NaN
1171	1.000000	0.693244	7.37651e+06	-57039.1	1105.82	-29737.4	0.000000	0.000000	6.693027	0.083656	NaN	0.000000	0.001645	0.001740	28.082	0.053317	0.001917	27.8086	151.37	14.9451	0.047557	0.691922	-0.415950	-0.417272	0.083656	27.8086	-0.418206	-242644	-3.447685E-7	NaN
1171	1.000000	0.703229	7.37651e+06	-57039.1	1105.82	-29737.4	0.000000	0.000000	6.703009	0.015476	NaN	0.000000	0.001663	0.001798	28.0821	0.081174	0.002025	40.0936	100.753	-166.217	0.013435	0.701942	-0.405965	-0.407253	0.015476	40.0936	-0.406255	-164102	-9.430942E-8	NaN
1171	1.000000	0.713218	7.37651e+06	-57039.1	1105.82	-29737.4	0.000000	0.000000	6.712998	0.003763	NaN	0.000000	0.001661	0.001804	28.0832	0.045345	0.001970	23.0174	-126.149	12.1974	-0.062878	0.711872	-0.395976	-0.397322	0.003763	23.0174	-0.396098	-117576	-3.200894E-8	NaN
1171	1.000000	0.723249	7.37651e+06	-57039.1	1105.82	-29737.4	0.000000	0.000000	6.723029	0.003342	NaN	0.000000	0.001668	0.001806	28.0838	0.026198	0.002062	12.7042	60.8566	-162.685	0.038243	0.721966	-0.385945	-0.387228	0.003342	12.7042	-0.386142	-84713.2	-3.945306E-8	NaN
1171	1.000000	0.733247	7.37651e+06	-57039.1	1105.82	-29737.4	0.000000	0.000000	6.733024	-0.060041	NaN	0.000000	0.001667	0.001769	28.0831	0.116170	0.002102	55.2671	38.6863	13.9165	-0.022850	0.731863	-0.375947	-0.377331	-0.060041	55.2671	-0.375132	-58880.1	1.019712E-6	NaN
1171	1.000000	0.743270	7.37651e+06	-57039.1	1105.82	-29737.4	0.000000	0.000000	6.743049	0.012100	NaN	0.000000	0.001640	0.001810	28.0834	0.076828	0.001978	38.8426	-40.7214	-165.278	0.021134	0.741945	-0.365925	-0.367249	0.012100	38.8426	-0.366158	-43728	-2.767061E-7	NaN
1171	1.000000	0.753265	7.37651e+06	-57039.1	1105.82	-29737.4	0.000000	0.000000	6.753043	-0.031581	NaN	0.000000	0.001634	0.001816	28.0833	0.127265	0.002054	61.9456	109.724	11.7843	-0.062645	0.751875	-0.355929	-0.357319	-0.031581	61.9456	-0.355547	-30719.6	1.028040E-6	NaN
1171	1.000000	0.763251	7.37651e+06	-57039.1	1105.82	-29737.4	0.000000	0.000000	6.763032	0.042090	NaN	0.000000	0.001644	0.001792	28.0833	0.125957	0.001814	69.4364	124.428	-163.619	0.046830	0.761942	-0.345943	-0.347252	0.042090	69.4364	-0.346398	-22629.6	-1.859950E-6	NaN
1171	1.000000	0.773313	7.37651e+06	-57039.1	1105.82	-29737.4	0.000000	0.000000	6.773093	0.026229	NaN	0.000000	0.001635	0.001759	28.0831	0.039985	0.002067	19.3456	40.6186	16.2589	0.056585	0.771877	-0.335881	-0.337317	0.026229	19.3456	-0.336898	-16455.4	-1.593921E-6	NaN
1171	1.000000	0.783273	7.37651e+06	-57039.1	1105.82	-29737.4	0.000000	0.000000	6.783055	0.041347	NaN	0.000000	0.001688	0.001769	28.0832	0.049379	0.002087	23.6656	75.806	-168.602	0.008595	0.781991	-0.325921	-0.327203	0.041347	23.6656	-0.327231	-11881.5	-3.479949E-6	NaN
1171	1.000000	0.793272	7.37651e+06	-57039.1	1105.82	-29737.4	0.000000	0.000000	6.793051	-0.009467	NaN	0.000000	0.001646	0.001771	28.0833	0.132667	0.002011	65.9568	-117.79	16.2834	0.035723	0.791916	-0.315922	-0.317278	-0.009467	65.9568	-0.315815	-8071.79	1.172858E-6	NaN
1171	1.000000	0.803286	7.37651e+06	-57039.1	1105.82	-29737.4	0.000000	0.000000	6.803064	-0.040216	NaN	0.000000	0.001662	0.001784	28.0832	0.073617	0.001854	39.7094	112.231	-167.183	0.032135	0.801966	-0.305908	-0.307228	-0.040216	39.7094	-0.305149	-5612.56	7.165295E-6	NaN
1171	1.000000	0.813273	7.37651e+06	-57039.1	1105.82	-29737.4	0.000000	0.000000	6.813056	0.071124	NaN	0.000000	0.001647	0.001751	28.0832	0.048167	0.001895	25.4119	-43.0176	11.9954	0.059810	0.811920	-0.295921	-0.297274	0.071124	25.4119	-0.298020	-4396.85	-1.617614E-5	NaN
1171	1.000000	0.823302	7.37651e+06	-57039.1	1105.82	-29737.4	0.000000	0.000000	6.823083	0.057083	NaN	0.000000	0.001653	0.001773	28.0831	0.031852	0.001914	16.6423	165.782	-163.425	0.062321	0.821992	-0.285892	-0.287202	0.057083	16.6423	-0.288465	-3164.39	-1.803904E-5	NaN
1171	1.000000	0.833311	7.37651e+06	-57039.1	1105.82	-29737.4	0.000000	0.000000	6.833092	0.036937	NaN	0.000000	0.001662	0.001752	28.0832	0.096701	0.002116	45.7079	-128.086	10.6274	0.013836	0.831922	-0.275883	-0.277272	0.036937	45.7079	-0.276489	-2089	-1.768181E-5	NaN
1171	1.000000	0.843304	7.37651e+06	-57039.1	1105.82	-29737.4	0.000000	0.000000	6.843083	-0.025047	NaN	0.000000	0.001641	0.001750	28.082	0.031179	0.002065	15.0998	176.405	-164.117	-0.036948	0.842002	-0.265890	-0.267192	-0.025047	15.0998	-0.264646	-1380.31	1.814612E-5	NaN
1171	1.000000	0.853309	7.37651e+06	-57039.1	1105.82	-29737.4	0.000000	0.000000	6.853088	-0.005058	NaN	0.000000	0.001653	0.001756	28.0822	0.013930	0.001991	6.995705	28.491	14.5082	0.085617	0.851913	-0.255885	-0.257281	-0.005058	6.995705	-0.255343	-994.015	5.087998E-6	NaN
1171	1.000000	0.863317	7.37651e+06	-57039.1	1105.82	-29737.4	0.000000	0.000000	6.863097	0.011521	NaN	0.000000	0.001640	0.001751	28.082	0.034330	0.002041	16.8203	-96.9833	-166.472	-0.040589	0.861961	-0.245877	-0.247233	0.011521	16.8203	-0.246390	-722.845	-1.593803E-5	NaN
1171	1.000000	0.873312	7.37651e+06	-57039.1	1105.82	-29737.4	0.000000	0.000000	6.873093	0.035880	NaN	0.000000	0.001645	0.001743	28.082	0.098861	0.001960	50.4495	-166.216	14.9796	0.018570	0.871976	-0.235882	-0.237218	0.035880	50.4495	-0.236416	-505.199	-7.102203E-5	NaN
1171	1.000000	0.883323	7.37651e+06	-57039.1	1105.82	-29737.4	0.000000	0.000000	6.883103	0.027910	NaN	0.000000	0.001640	0.001752	28.0819	0.049906	0.002045	24.4058	167.485	-168.488	0.061193	0.882024	-0.225871	-0.227170	0.027910	24.4058	-0.226729	-355.44	-7.852216E-5	NaN
1171	1.000000	0.893327	7.37651e+06	-57039.1	1105.82	-29737.4	0.000000	0.000000	6.893107	0.011230	NaN	0.000000	0.001645	0.001734	28.082	0.156173	0.002009	77.7405	64.5551	15.0453	0.042911	0.891963	-0.215867	-0.217231	0.011230	77.7405	-0.215975	-239.438	-4.690176E-5	NaN
1171	1.000000	0.903329	7.37651e+06	-57039.1	1105.82	-29737.4	0.000000	0.000000	6.903107	-0.018414	NaN	0.000000	0.001675	0.001769	28.0822	0.036161	0.002017	17.9317	35.6153	-167.441	-0.018843	0.902014	-0.205866	-0.207180	-0.018414	17.9317	-0.205095	-159.63	0.000115	NaN
1171	1.000000	0.913343	7.37651e+06	-57039.1	1105.82	-29737.4	0.000000	0.000000	6.913121	-0.033535	NaN	0.000000	0.001644	0.001757	28.0819	0.004214	0.002016	2.090040	132.142	10.5089	-0.020295	0.911955	-0.195851	-0.197239	-0.033535	2.090040	-0.183817	-70.8234	0.000474	NaN
1171	1.000000	0.923347	7.37651e+06	-57039.1	1105.82	-29737.4	0.000000	0.000000	6.923128	0.024000	NaN	0.000000	0.001640	0.001759	28.082	0.016438	0.002040	8.058570	-44.826	-167.561	0.037863	0.922034	-0.185847	-0.187160	0.024000	8.058570	-0.188081	-83.5428	-0.000287	NaN
1171	1.000000	0.933311	7.37651e+06	-57039.1	1105.82	-29737.4	0.000000	0.000000	6.933090	0.000610	NaN	0.000000	0.001636	0.001739	28.0821	0.098890	0.002043	48.4023	-22.4378	15.2716	-0.051718	0.931960	-0.175883	-0.177234	0.000610	48.4023	-0.175893	-51.9164	-1.175832E-5	NaN
1171	1.000000	0.943348	7.37651e+06	-57039.1	1105.82	-29737.4	0.000000	0.000000	6.943127	-0.016647	NaN	0.000000	0.001659	0.001747	28.0822	0.050667	0.001882	26.922	-131.146	-164.543	0.063828	0.942062	-0.165846	-0.167132	-0.016647	26.922	-0.165382	-34.12	0.000488	NaN
1171	1.000000	0.953327	7.37651e+06	-57039.1	1105.82	-29737.4	0.000000	0.000000	6.953107	0.033684	NaN	0.000000	0.001652	0.001753	28.082	0.070435	0.001928	36.5349	-6.068650	15.8886	0.034893	0.951970	-0.155867	-0.157224	0.033684	36.5349	-0.156559	-23.8	-0.001415	NaN
1171	1.000000	0.963381	7.37651e+06	-57039.1	1105.82	-29737.4	0.000000	0.000000	6.963162	0.022717	NaN	0.000000	0.001661	0.001809	28.082	0.005844	0.002124	2.751688	-118.251	-167.75	0.030938	0.962068	-0.145813	-0.147126	0.022717	2.751688	-0.152005	-19.6999	-0.001153	NaN
1171	1.000000	0.973316	7.37651e+06	-57039.1	1105.82	-29737.4	0.000000	0.000000	6.973094	-0.040760	NaN	0.000000	0.001658	0.001746	28.0823	0.091902	0.002028	45.3059	-136.816	11.585	-0.087308	0.971999	-0.135878	-0.137195	-0.040760	45.3059	-0.135203	-9.597590	0.004247	NaN
1171	1.000000	0.983360	7.37651e+06	-57039.1	1105.82	-29737.4	0.000000	0.000000	6.983140	0.014244	NaN	0.000000	0.001678	0.001748	28.0833	0.006161	0.001985	3.103278	48.1821	-165.222	0.001896	0.982092	-0.125834	-0.127102	0.014244	3.103278	-0.129276	-7.377994	-0.001931	NaN
1171	1.000000	0.993346	7.37651e+06	-57039.1	1105.82	-29737.4	0.000000	0.000000	6.993126	0.003610	NaN	0.000000	0.001669	0.001802	28.0833	0.035385	0.002012	17.5837	5.248834	13.7677	0.023371	0.991960	-0.115848	-0.117234	0.003610	17.5837	-0.116002	-4.006025	-0.000901	NaN
1171	1.000000	1.003372	7.37651e+06	-57039.1	1105.82	-29737.4	0.000000	0.000000	7.003151	-0.002618	NaN	0.000000	0.001682	0.001856	28.083	0.064642	0.001989	32.5026	111.789	-168.281	-0.069505	1.002059	-0.105822	-0.107135	-0.002618	32.5026	-0.105762	-2.441163	0.001072	NaN
1171	1.000000	1.013372	7.37651e+06	-57039.1	1105.82	-29737.4	0.000000	0.000000	7.013153	0.053486	NaN	0.000000	0.001734	0.001822	28.0835	0.024853	0.001854	13.4031	163.759	9.272120	0.020890	1.012040	-0.095823	-0.097154	0.053486	13.4031	-0.098815	-1.719616	-0.031103	NaN
1171	1.000000	1.023365	7.37651e+06	-57039.1	1105.82	-29737.4	0.000000	0.000000	7.023144	-0.009997	NaN	0.000000	0.001744	0.001810	28.0831	0.083938	0.001949	43.0615	178.055	-166.015	-0.073160	1.022046	-0.085829	-0.087148	-0.009997	43.0615	-0.085655	-0.852129	0.011732	NaN
1171	1.000000	1.033383	7.37651e+06	-57039.1	1105.82	-29737.4	0.000000	0.000000	7.033162	-0.000724	NaN	0.000000	0.001753	0.001860	28.0832	0.096129	0.001988	48.3547	-42.6245	13.0917	0.016325	1.032021	-0.075811	-0.077173	-0.000724	48.3547	-0.075800	-0.484346	0.001496	NaN
1171	1.000000	1.043372	7.37651e+06	-57039.1	1105.82	-29737.4	0.000000	0.000000	7.043152	0.016008	NaN	0.000000	0.001712	0.001800	28.083	0.015540	0.001975	7.868607	-33.8878	-164.971	-0.028639	1.042055	-0.065822	-0.067139	0.016008	7.868607	-0.067348	-0.289185	-0.055354	NaN
1171	1.000000	1.053392	7.37651e+06	-57039.1	1105.82	-29737.4	0.000000	0.000000	7.053173	0.032554	NaN	0.000000	0.001630	0.001759	28.0833	0.105790	0.001871	56.5505	160.253	11.8442	-0.013310	1.052001	-0.055802	-0.057193	0.032554	56.5505	-0.056234	-0.140019	-0.232496	NaN
1171	1.000000	1.063385	7.37651e+06	-57039.1	1105.82	-29737.4	0.000000	0.000000	7.063164	0.007840	NaN	0.000000	0.001669	0.001769	28.0829	0.077798	0.002073	37.5217	26.2002	-163.675	-0.038923	1.062071	-0.045810	-0.047123	0.007840	37.5217	-0.045966	-0.068791	-0.113970	NaN
1171	1.000000	1.073394	7.37651e+06	-57039.1	1105.82	-29737.4	0.000000	0.000000	7.073173	-0.021519	NaN	0.000000	0.001676	0.001735	28.0832	0.148000	0.001940	76.3068	-155.685	14.3136	0.019331	1.071996	-0.035800	-0.037198	-0.021519	76.3068	-0.035588	-0.033332	0.645591	NaN
1171	1.000000	1.083374	7.37651e+06	-57039.1	1105.82	-29737.4	0.000000	0.000000	7.083154	0.005247	NaN	0.000000	0.001591	0.001742	28.0841	0.113383	0.002034	55.7358	109.348	-167.518	0.023442	1.082041	-0.025820	-0.027153	0.005247	55.7358	-0.025891	-0.017804	-0.294724	NaN
1171	1.000000	1.093397	7.37651e+06	-57039.1	1105.82	-29737.4	0.000000	0.000000	7.093176	-0.016621	NaN	0.000000	0.001666	0.001754	28.0833	0.132450	0.001933	68.5298	-105.319	10.4741	0.009681	1.092060	-0.015797	-0.017134	-0.016621	68.5298	-0.015615	-0.009647	1.722885	NaN
1171	1.000000	1.103424	7.37651e+06	-57039.1	1105.82	-29737.4	0.000000	0.000000	7.103204	0.010745	NaN	0.000000	0.001668	0.001731	28.083	0.084213	0.002077	40.5468	109.005	-168.314	-0.004639	1.102082	-0.005770	-0.007112	0.010745	40.5468	-0.005969	-0.004017	-2.674836	NaN
1171	1.000000	1.113370	7.37651e+06	-57039.1	1105.82	-29737.4	0.000000	0.000000	7.113450	7.308174	NaN	0.000000	0.001694	0.001766	28.083	7.001698	0.001651	4240.44	11.2556	8.170284	5.719836	1.112032	0.004176	0.002838	7.308174	4240.44	0.002884	0.002282	3202.2	81097
1171	2.000000	1.117016	7.37651e+06	-57039.1	1105.82	-29737.4	0.000000	0.000000	7.117268	11.496	NaN	0.000000	0.001676	0.001771	28.082	11.5357	0.001747	6601.26	9.551191	-175.069	12.126	1.116696	0.007822	0.007502	11.496	6601.26	0.006516	0.005560	2067.78	80887.1
1171	2.000000	1.119496	7.37651e+06	-57039.1	1105.82	-29737.4	0.000000	0.000000	7.119947	16.328	NaN	0.000000	0.001629	0.001778	28.0819	14.0415	0.001721	8157.69	5.324314	6.385139	15.7421	1.119151	0.010302	0.009957	16.328	8157.69	0.008801	0.007879	2072.39	83967.1
1171	2.000000	1.121912	7.37651e+06	-57039.1	1105.82	-29737.4	0.000000	0.000000	7.122573	21.4323	NaN	0.000000	0.001625	0.001755	28.0818	16.7333	0.001665	10052.9	6.979167	-178.625	19.9148	1.121670	0.012718	0.012476	21.4323	10052.9	0.011119	0.010452	2050.55	89839.5
1171	2.000000	1.124384	7.37651e+06	-57039.1	1105.82	-29737.4	0.000000	0.000000	7.125153	24.0518	NaN	0.000000	0.001663	0.001713	28.082	19.1068	0.001707	11194.9	4.629211	3.964607	22.0068	1.124077	0.015190	0.014883	24.0518	11194.9	0.013578	0.013436	1790.12	88238.8
1171	2.000000	1.126936	7.37651e+06	-57039.1	1105.82	-29737.4	0.000000	0.000000	7.127872	28.1099	NaN	0.000000	0.001680	0.001723	28.082	22.1495	0.001802	12292.9	4.280494	-176.825	27.4661	1.126658	0.017742	0.017464	28.1099	12292.9	0.016027	0.016679	1685.36	86964.9
1171	2.000000	1.129423	7.37651e+06	-57039.1	1105.82	-29737.4	0.000000	0.000000	7.130619	34.4336	NaN	0.000000	0.001656	0.001727	28.0817	24.1497	0.001734	13930.8	6.622792	0.902508	34.4305	1.129129	0.020229	0.019935	34.4336	13930.8	0.018375	0.020053	1717.09	89878.1
1171	2.000000	1.131879	7.37651e+06	-57039.1	1105.82	-29737.4	0.000000	0.000000	7.133273	39.229	NaN	0.000000	0.001655	0.001760	28.0819	26.5695	0.001817	14620.6	7.704061	179.203	38.1443	1.131609	0.022685	0.022415	39.229	14620.6	0.020673	0.023611	1661.51	86933.1
1171	2.000000	1.134386	7.37651e+06	-57039.1	1105.82	-29737.4	0.000000	0.000000	7.136135	47.8844	NaN	0.000000	0.001608	0.001765	28.0825	28.9597	0.001656	17486.8	4.772175	-0.803487	45.6243	1.133999	0.025192	0.024805	47.8844	17486.8	0.023138	0.027715	1727.75	95967.9
1171	2.000000	1.136859	7.37651e+06	-57039.1	1105.82	-29737.4	0.000000	0.000000	7.138764	51.6595	NaN	0.000000	0.001601	0.001753	28.0821	33.1972	0.001832	18124.3	6.372970	177.401	49.6126	1.136640	0.027665	0.027446	51.6595	18124.3	0.025528	0.031983	1615.24	92592.9
1171	2.000000	1.139405	7.37651e+06	-57039.1	1105.82	-29737.4	0.000000	0.000000	7.141792	63.3698	NaN	0.000000	0.001645	0.001768	28.0824	34.4513	0.001780	19356.2	4.043486	0.253385	61.3867	1.139012	0.030211	0.029818	63.3698	19356.2	0.027755	0.036220	1749.58	92922.1
1171	2.000000	1.141856	7.37651e+06	-57039.1	1105.82	-29737.4	0.000000	0.000000	7.144510	69.8659	NaN	0.000000	0.001645	0.001729	28.0819	36.9114	0.001753	21060.2	5.391944	176.895	67.9195	1.141525	0.032662	0.032331	69.8659	21060.2	0.030174	0.041104	1699.72	94905.6
1171	2.000000	1.144362	7.37651e+06	-57039.1	1105.82	-29737.4	0.000000	0.000000	7.147398	79.1379	NaN	0.000000	0.001631	0.001716	28.0824	38.6255	0.001787	21620	3.672337	-0.451176	75.6954	1.143944	0.035168	0.034749	79.1379	21620	0.032423	0.045915	1723.56	92182.9
1171	2.000000	1.146842	7.37651e+06	-57039.1	1105.82	-29737.4	0.000000	0.000000	7.149991	81.8884	NaN	0.000000	0.001636	0.001760	28.0821	41.4032	0.001806	22924	4.504271	177.477	79.5474	1.146737	0.037648	0.037543	81.8884	22924	0.034969	0.051674	1584.72	92135.9
1171	2.000000	1.149414	7.37651e+06	-57039.1	1105.82	-29737.4	0.000000	0.000000	7.153217	97.7954	NaN	0.000000	0.001623	0.001781	28.0841	43.5501	0.001856	23466.8	5.065675	-1.905307	97.0321	1.149041	0.040219	0.039846	97.7954	23466.8	0.037094	0.056734	1723.76	90013
1171	2.000000	1.151778	7.37651e+06	-57039.1	1105.82	-29737.4	0.000000	0.000000	7.155907	105.718	NaN	0.000000	0.001626	0.001768	28.0833	46.974	0.001803	26055.6	4.687930	176.492	101.322	1.151465	0.042584	0.042271	105.718	26055.6	0.039541	0.062846	1682.16	94958.6
1171	2.000000	1.154337	7.37651e+06	-57039.1	1105.82	-29737.4	0.000000	0.000000	7.159011	118.987	NaN	0.000000	0.001594	0.001793	28.0837	48.6021	0.001648	29488.8	2.276075	-2.136525	115.835	1.153951	0.045143	0.044757	118.987	29488.8	0.042116	0.069612	1709.28	102115
1171	2.000000	1.156833	7.37651e+06	-57039.1	1105.82	-29737.4	0.000000	0.000000	7.161814	126.444	NaN	0.000000	0.001598	0.001813	28.0833	53.2599	0.001882	28299.4	6.063848	174.416	124.298	1.156589	0.047639	0.047394	126.444	28299.4	0.044288	0.075578	1673.04	94048.9
1171	2.000000	1.159330	7.37651e+06	-57039.1	1105.82	-29737.4	0.000000	0.000000	7.164730	136.607	NaN	0.000000	0.001616	0.001792	28.0836	54.7249	0.001907	28689.4	3.127034	-2.702832	133.641	1.159071	0.050136	0.049877	136.607	28689.4	0.046565	0.082091	1664.09	91484.4
1171	2.000000	1.161869	7.37651e+06	-57039.1	1105.82	-29737.4	0.000000	0.000000	7.168022	154.915	NaN	0.000000	0.001574	0.001800	28.0834	56.0191	0.001747	32074.8	5.764314	174.345	155.148	1.161488	0.052675	0.052294	154.915	32074.8	0.049053	0.089508	1730.75	97950.6
1171	2.000000	1.164286	7.37651e+06	-57039.1	1105.82	-29737.4	0.000000	0.000000	7.170921	166.622	NaN	0.000000	0.001631	0.001783	28.0837	59.5866	0.001809	32942.5	6.066747	-6.186678	163.343	1.163954	0.055092	0.054760	166.622	32942.5	0.051298	0.096468	1727.22	96902.9
1171	2.000000	1.166852	7.37651e+06	-57039.1	1105.82	-29737.4	0.000000	0.000000	7.173861	175.7	NaN	0.000000	0.001630	0.001765	28.0834	62.6902	0.002001	31325.4	3.361631	176.416	172.435	1.166507	0.057658	0.057313	175.7	31325.4	0.053452	0.103380	1699.56	89012.5
1171	2.000000	1.169374	7.37651e+06	-57039.1	1105.82	-29737.4	0.000000	0.000000	7.176897	188.21	NaN	0.000000	0.001665	0.001813	28.0835	63.1868	0.001758	35936.6	2.134333	-3.516277	185.911	1.169013	0.060180	0.059819	188.21	35936.6	0.056252	0.112712	1669.83	97796.9
1171	2.000000	1.171884	7.37651e+06	-57039.1	1105.82	-29737.4	0.000000	0.000000	7.180189	207.202	NaN	0.000000	0.001639	0.001821	28.0835	66.7141	0.001885	35396.7	9.310820	169.651	209.045	1.171482	0.062690	0.062288	207.202	35396.7	0.058300	0.119783	1729.82	93441.4
1171	2.000000	1.174328	7.37651e+06	-57039.1	1105.82	-29737.4	0.000000	0.000000	7.183238	221.922	NaN	0.000000	0.001616	0.001809	28.0836	68.2816	0.001875	36411.5	5.110754	-6.610194	219.439	1.173981	0.065134	0.064787	221.922	36411.5	0.060563	0.127834	1736.01	93044.1
1171	2.000000	1.176828	7.37651e+06	-57039.1	1105.82	-29737.4	0.000000	0.000000	7.186201	233.175	NaN	0.000000	0.001590	0.001764	28.0835	70.6783	0.001763	40088.6	5.264995	172.392	232.341	1.176465	0.067634	0.067271	233.175	40088.6	0.063272	0.137802	1692.1	98665.7
1171	2.000000	1.179326	7.37651e+06	-57039.1	1105.82	-29737.4	0.000000	0.000000	7.189445	251.294	NaN	0.000000	0.001591	0.001778	28.0834	71.8727	0.001798	39980.2	1.013528	-2.592062	247.201	1.178915	0.070132	0.069721	251.294	39980.2	0.065418	0.145950	1721.78	95612.8
1171	2.000000	1.181860	7.37651e+06	-57039.1	1105.82	-29737.4	0.000000	0.000000	7.192518	264.418	NaN	0.000000	0.001622	0.001765	28.0839	74.8642	0.001856	40332.7	5.537378	171.606	264.216	1.181567	0.072666	0.072373	264.418	40332.7	0.067749	0.155051	1705.36	93582.3
1171	2.000000	1.184334	7.37651e+06	-57039.1	1105.82	-29737.4	0.000000	0.000000	7.195599	279.169	NaN	0.000000	0.001636	0.001766	28.0823	77.2276	0.001816	42521.1	3.304353	-5.955119	278	1.184047	0.075140	0.074853	279.169	42521.1	0.070216	0.164967	1692.27	95648.6
1171	2.000000	1.186765	7.37651e+06	-57039.1	1105.82	-29737.4	0.000000	0.000000	7.198709	295.679	NaN	0.000000	0.001605	0.001808	28.0821	79.5188	0.001781	44654.1	-1.338217	178.198	290.81	1.186532	0.077570	0.077338	295.679	44654.1	0.072604	0.174843	1691.11	97568.7
1171	2.000000	1.189361	7.37651e+06	-57039.1	1105.82	-29737.4	0.000000	0.000000	7.202105	315.102	NaN	0.000000	0.001597	0.001744	28.0822	81.4889	0.001765	46177	1.106051	-4.159165	313.75	1.189130	0.080167	0.079936	315.102	46177	0.075049	0.185232	1701.12	98026
1171	2.000000	1.191852	7.37651e+06	-57039.1	1105.82	-29737.4	0.000000	0.000000	7.205370	333.936	NaN	0.000000	0.001587	0.001754	28.0823	85.135	0.001788	47611.1	6.942570	170.072	333.575	1.191430	0.082658	0.082236	333.936	47611.1	0.077397	0.195474	1708.34	98386.8
1171	2.000000	1.194229	7.37651e+06	-57039.1	1105.82	-29737.4	0.000000	0.000000	7.208451	351.044	NaN	0.000000	0.001631	0.001800	28.0821	86.2156	0.001853	46527.7	1.506985	-4.827554	344.209	1.193975	0.085035	0.084781	351.044	46527.7	0.079376	0.204306	1718.23	94046.9
1171	2.000000	1.196914	7.37651e+06	-57039.1	1105.82	-29737.4	0.000000	0.000000	7.211657	363.711	NaN	0.000000	0.001570	0.001761	28.0821	89.1242	0.001785	49927.4	4.786483	171.882	370.729	1.196518	0.087720	0.087324	363.711	49927.4	0.082256	0.217486	1672.34	97813
1171	2.000000	1.199249	7.37651e+06	-57039.1	1105.82	-29737.4	0.000000	0.000000	7.214905	385.876	NaN	0.000000	0.001593	0.001786	28.0822	90.0063	0.001712	52571.1	3.497148	-7.593837	378.468	1.199006	0.090055	0.089812	385.876	52571.1	0.084550	0.228261	1690.5	100532
1171	2.000000	1.201770	7.37651e+06	-57039.1	1105.82	-29737.4	0.000000	0.000000	7.218368	408.78	NaN	0.000000	0.001624	0.001735	28.0821	92.915	0.001739	53423.9	8.150713	167.171	407.394	1.201584	0.092576	0.092390	408.78	53423.9	0.086837	0.239243	1708.64	99790.5
1171	2.000000	1.204360	7.37651e+06	-57039.1	1105.82	-29737.4	0.000000	0.000000	7.221609	424.593	NaN	0.000000	0.001586	0.001768	28.0821	96.7289	0.001830	52854.7	6.754870	-10.4675	425.942	1.203838	0.095166	0.094644	424.593	52854.7	0.089141	0.250552	1694.63	96473.4
1171	2.000000	1.206726	7.37651e+06	-57039.1	1105.82	-29737.4	0.000000	0.000000	7.224692	442.029	NaN	0.000000	0.001574	0.001740	28.0822	98.2632	0.001747	56233.4	3.977063	171.174	437.91	1.206656	0.097532	0.097462	442.029	56233.4	0.091636	0.263073	1680.25	100168
1171	2.000000	1.209332	7.37651e+06	-57039.1	1105.82	-29737.4	0.000000	0.000000	7.228544	472.315	NaN	0.000000	0.001589	0.001726	28.0822	99.8096	0.001764	56593.2	7.101757	-11.1476	471.341	1.208961	0.100138	0.099767	472.315	56593.2	0.093879	0.274570	1720.2	98675.9
1171	2.000000	1.211866	7.37651e+06	-57039.1	1105.82	-29737.4	0.000000	0.000000	7.231443	481.178	NaN	0.000000	0.001691	0.001715	28.0819	100.953	0.001726	58485.8	-0.245811	175.146	482.249	1.211681	0.102672	0.102487	481.178	58485.8	0.096502	0.288308	1668.97	99516.6
1171	2.000000	1.213299	7.37651e+06	-57039.1	1105.82	-29737.4	0.000000	0.000000	7.233810	503.887	NaN	0.000000	0.001696	0.001748	28.083	105.756	0.001825	57941.6	6.670902	-10.969	502.296	1.212851	0.104105	0.103657	503.887	57941.6	0.097582	0.294059	1713.56	97621.8