File: remote_trans/data/nanoindenter/0828-1/data/Data_2025-08-06,11h17m57s/2025-07-22_16-23-58_1_31.txt
2025-07-22, 16:23:58, 1
Index	Phase	Displacement	Time	Pos X	Pos Y	Pos Z	Rot A	Rot B	Piezo Z	Force A	Force B	Gripper	Voltage A	Voltage B	Temperature	Amplitude force	Amplitude pos	Stiffness	Phase shift	Phase excitation	Force A raw	Displacement raw	HMax	HMax raw	Real Force	Real Stiffness	Contact Depth	Area	Hardness	Reduced Mod.
[#]	[#]	[um]	[s]	[um]	[um]	[um]	[m°]	[m°]	[um]	[uN]	[uN]	[V]	[V]	[V]	[°C]	[uN]	[um]	[N/m]	[°]	[°]	[uN]	[um]	[um]	[um]	[uN]	[N/m]	[um]	[um^2]	[MPa]	[MPa]
31	1.000000	0.001929	7.36534e+06	-40189.1	955.818	-29791.6	0.000000	0.000000	6.002842	-0.096337	NaN	0.000000	0.001610	0.001658	28.0812	0.079252	0.001042	76.0397	8.523877	-161.548	-0.065651	0.000683	-1.103171	-1.104418	-0.096337	76.0397	-1.102221	-5.368862E+14	1.794357E-16	NaN
31	1.000000	0.011945	7.36534e+06	-40189.1	955.819	-29791.6	0.000000	0.000000	6.012861	-0.026704	NaN	0.000000	0.001647	0.001652	28.0993	0.015276	0.001331	11.4794	45.5021	19.5593	-0.053740	0.010528	-1.093155	-1.094573	-0.026704	11.4794	-1.091411	-3.843729E+14	6.947355E-17	NaN
31	1.000000	0.021828	7.36534e+06	-40189.1	955.818	-29791.6	0.000000	0.000000	6.022746	0.032763	NaN	0.000000	0.001664	0.001665	28.1318	0.083865	0.001542	54.3977	45.4495	-162.916	-0.015154	0.020540	-1.083273	-1.084560	0.032763	54.3977	-1.083724	-3.030679E+14	-1.081059E-16	NaN
31	1.000000	0.031848	7.36534e+06	-40189.1	955.818	-29791.6	0.000000	0.000000	6.032762	-0.067611	NaN	0.000000	0.001628	0.001654	28.0983	0.072165	0.001865	38.7009	0.895443	14.3942	-0.042566	0.030491	-1.073252	-1.074609	-0.067611	38.7009	-1.071942	-2.105122E+14	3.211761E-16	NaN
31	1.000000	0.041820	7.36534e+06	-40189.1	955.819	-29791.6	0.000000	0.000000	6.042733	-0.108693	NaN	0.000000	0.001643	0.001645	28.0811	0.156422	0.002009	77.8471	86.5036	-165.368	-0.095928	0.040527	-1.063280	-1.064573	-0.108693	77.8471	-1.062233	-1.558932E+14	6.972303E-16	NaN
31	1.000000	0.051818	7.36534e+06	-40189.1	955.817	-29791.6	0.000000	0.000000	6.052733	-0.042009	NaN	0.000000	0.001639	0.001636	28.098	0.077029	0.001972	39.0516	31.1071	14.8223	-0.064544	0.050479	-1.053282	-1.054621	-0.042009	39.0516	-1.052476	-1.152631E+14	3.644613E-16	NaN
31	1.000000	0.061828	7.36534e+06	-40189.1	955.818	-29791.6	0.000000	0.000000	6.062741	-0.089556	NaN	0.000000	0.001665	0.001604	28.1324	0.100308	0.002110	47.5425	108.658	-166.885	-0.102533	0.060512	-1.043273	-1.044588	-0.089556	47.5425	-1.041860	-8.298112E+13	1.079231E-15	NaN
31	1.000000	0.071851	7.36534e+06	-40189.1	955.818	-29791.6	0.000000	0.000000	6.072767	-0.032262	NaN	0.000000	0.001664	0.001668	28.0992	0.035645	0.001989	17.9187	-54.2426	16.5933	-0.022454	0.070489	-1.033249	-1.034612	-0.032262	17.9187	-1.031899	-6.095686E+13	5.292572E-16	NaN
31	1.000000	0.081862	7.36534e+06	-40189.1	955.818	-29791.6	0.000000	0.000000	6.082779	-0.004631	NaN	0.000000	0.001669	0.001635	28.0804	0.125918	0.002090	60.2456	-126.699	-164.157	-0.013910	0.080572	-1.023239	-1.024528	-0.004631	60.2456	-1.023181	-4.653176E+13	9.952480E-17	NaN
31	1.000000	0.091823	7.36534e+06	-40189.1	955.818	-29791.6	0.000000	0.000000	6.092737	-0.082125	NaN	0.000000	0.001623	0.001660	28.0962	0.037352	0.001956	19.0963	160.512	11.1869	-0.138891	0.090443	-1.013277	-1.014658	-0.082125	19.0963	-1.010052	-3.097962E+13	2.650921E-15	NaN
31	1.000000	0.101869	7.36534e+06	-40189.1	955.818	-29791.6	0.000000	0.000000	6.102786	0.021322	NaN	0.000000	0.001671	0.001661	28.1308	0.075478	0.001868	40.395	-80.945	-164.72	-0.066433	0.100603	-1.003232	-1.004497	0.021322	40.395	-1.003628	-2.538674E+13	-8.399040E-16	NaN
31	1.000000	0.111909	7.36534e+06	-40189.1	955.818	-29791.6	0.000000	0.000000	6.112825	-0.025017	NaN	0.000000	0.001598	0.001670	28.0985	0.079821	0.001873	42.6116	-85.6635	15.2196	-0.102812	0.110513	-0.993191	-0.994588	-0.025017	42.6116	-0.992751	-1.812017E+13	1.380631E-15	NaN
31	1.000000	0.121852	7.36534e+06	-40189.1	955.818	-29791.6	0.000000	0.000000	6.122767	-0.048287	NaN	0.000000	0.001640	0.001606	28.0788	0.048106	0.002122	22.6713	-28.8653	-165.029	-0.087664	0.120554	-0.983248	-0.984546	-0.048287	22.6713	-0.981651	-1.284255E+13	3.759887E-15	NaN
31	1.000000	0.131887	7.36534e+06	-40189.1	955.818	-29791.6	0.000000	0.000000	6.132804	0.002958	NaN	0.000000	0.001632	0.001645	28.097	0.052836	0.002026	26.0748	-96.0352	13.4306	0.010521	0.130488	-0.973213	-0.974613	0.002958	26.0748	-0.973298	-9.910871E+12	-2.984377E-16	NaN
31	1.000000	0.141846	7.36534e+06	-40189.1	955.818	-29791.6	0.000000	0.000000	6.142761	-0.034043	NaN	0.000000	0.001613	0.001626	28.132	0.026418	0.002042	12.9345	141.028	-163.102	-0.033907	0.140492	-0.963255	-0.964608	-0.034043	12.9345	-0.961281	-6.825524E+12	4.987657E-15	NaN
31	1.000000	0.151863	7.36534e+06	-40189.1	955.818	-29791.6	0.000000	0.000000	6.152779	-0.040688	NaN	0.000000	0.001651	0.001659	28.0998	0.026295	0.002145	12.2603	-102.126	14.2558	-0.084903	0.150523	-0.953237	-0.954577	-0.040688	12.2603	-0.950748	-4.921695E+12	8.266991E-15	NaN
31	1.000000	0.161887	7.36534e+06	-40189.1	955.818	-29791.6	0.000000	0.000000	6.162803	-0.009256	NaN	0.000000	0.001613	0.001641	28.081	0.048457	0.001971	24.5822	113.902	-162.119	0.012087	0.160634	-0.943214	-0.944466	-0.009256	24.5822	-0.942931	-3.860838E+12	2.397320E-15	NaN
31	1.000000	0.171871	7.36534e+06	-40189.1	955.818	-29791.6	0.000000	0.000000	6.172786	-0.040986	NaN	0.000000	0.001666	0.001654	28.0964	0.073039	0.001903	38.3787	161.574	9.789126	-0.006033	0.170457	-0.933230	-0.934644	-0.040986	38.3787	-0.932429	-2.785960E+12	1.471156E-14	NaN
31	1.000000	0.181870	7.36534e+06	-40189.1	955.819	-29791.6	0.000000	0.000000	6.182785	-0.046546	NaN	0.000000	0.001643	0.001654	28.1307	0.066735	0.001903	35.0638	-63.6162	-164.701	-0.109436	0.180608	-0.923230	-0.924492	-0.046546	35.0638	-0.922235	-2.029452E+12	2.293510E-14	NaN
31	1.000000	0.191921	7.36534e+06	-40189.1	955.818	-29791.6	0.000000	0.000000	6.192837	-0.017762	NaN	0.000000	0.001599	0.001673	28.0982	0.040827	0.001871	21.8221	72.7555	16.4801	-0.093405	0.190559	-0.913179	-0.914541	-0.017762	21.8221	-0.912569	-1.502657E+12	1.182037E-14	NaN
31	1.000000	0.201870	7.36534e+06	-40189.1	955.817	-29791.6	0.000000	0.000000	6.202783	-0.079901	NaN	0.000000	0.001627	0.001653	28.0808	0.066739	0.002168	30.7887	-112.643	-164.147	-0.057852	0.200541	-0.903231	-0.904559	-0.079901	30.7887	-0.901284	-1.057840E+12	7.553238E-14	NaN
31	1.000000	0.211901	7.36534e+06	-40189.1	955.818	-29791.6	0.000000	0.000000	6.212817	-0.033766	NaN	0.000000	0.001649	0.001644	28.0975	0.024528	0.002030	12.0855	-137.949	19.9709	-0.062245	0.210494	-0.893199	-0.894607	-0.033766	12.0855	-0.891104	-7.706085E+11	4.381711E-14	NaN
31	1.000000	0.221887	7.36534e+06	-40189.1	955.819	-29791.6	0.000000	0.000000	6.222802	-0.045994	NaN	0.000000	0.001636	0.001666	28.1323	0.031434	0.002026	15.5176	-129.191	-165.188	0.007473	0.220604	-0.883213	-0.884497	-0.045994	15.5176	-0.880990	-5.624720E+11	8.177180E-14	NaN
31	1.000000	0.231918	7.36534e+06	-40189.1	955.818	-29791.6	0.000000	0.000000	6.232833	-0.037735	NaN	0.000000	0.001636	0.001698	28.1009	0.105050	0.002002	52.4701	63.3654	15.6265	-0.029611	0.230575	-0.873183	-0.874525	-0.037735	52.4701	-0.872643	-4.337148E+11	8.700328E-14	NaN
31	1.000000	0.241932	7.36534e+06	-40189.1	955.819	-29791.6	0.000000	0.000000	6.242846	-0.066105	NaN	0.000000	0.001630	0.001677	28.0816	0.059460	0.001969	30.194	163.529	-166.47	-0.130375	0.240589	-0.863168	-0.864512	-0.066105	30.194	-0.861526	-3.067448E+11	2.155056E-13	NaN
31	1.000000	0.251906	7.36534e+06	-40189.1	955.819	-29791.6	0.000000	0.000000	6.252821	-0.053588	NaN	0.000000	0.001639	0.001630	28.0959	0.046133	0.002055	22.4446	-125.676	14.3735	-0.063385	0.250516	-0.853194	-0.854584	-0.053588	22.4446	-0.851404	-2.237417E+11	2.395064E-13	NaN
31	1.000000	0.261928	7.36534e+06	-40189.1	955.818	-29791.6	0.000000	0.000000	6.262843	-0.051113	NaN	0.000000	0.001639	0.001633	28.1312	0.139252	0.002110	66.0082	61.6517	-168.867	-0.107224	0.260549	-0.843172	-0.844551	-0.051113	66.0082	-0.842591	-1.699795E+11	3.007035E-13	NaN
31	1.000000	0.271935	7.36534e+06	-40189.1	955.819	-29791.6	0.000000	0.000000	6.272850	-0.032592	NaN	0.000000	0.001639	0.001647	28.1007	0.092955	0.002058	45.165	-78.8908	14.435	-0.045375	0.270555	-0.833166	-0.834545	-0.032592	45.165	-0.832625	-1.245533E+11	2.616679E-13	NaN
31	1.000000	0.281903	7.36534e+06	-40189.1	955.818	-29791.6	0.000000	0.000000	6.282816	-0.103278	NaN	0.000000	0.001622	0.001629	28.0797	0.077274	0.002029	38.0877	-15.4692	-163.701	-0.057911	0.280592	-0.823197	-0.824508	-0.103278	38.0877	-0.821163	-8.709341E+10	1.185826E-12	NaN
31	1.000000	0.291962	7.36534e+06	-40189.1	955.818	-29791.6	0.000000	0.000000	6.292877	-0.063752	NaN	0.000000	0.001595	0.001632	28.0958	0.086607	0.002059	42.0553	175.624	12.6912	-0.087603	0.290565	-0.813138	-0.814535	-0.063752	42.0553	-0.812001	-6.542128E+10	9.744834E-13	NaN
31	1.000000	0.301944	7.36534e+06	-40189.1	955.818	-29791.6	0.000000	0.000000	6.302857	-0.101436	NaN	0.000000	0.001587	0.001657	28.1327	0.071554	0.002165	33.0565	18.6774	-163.866	-0.128606	0.300668	-0.803156	-0.804432	-0.101436	33.0565	-0.800855	-4.618163E+10	2.196448E-12	NaN
31	1.000000	0.311925	7.36534e+06	-40189.1	955.818	-29791.6	0.000000	0.000000	6.312840	-0.043613	NaN	0.000000	0.001615	0.001655	28.1005	0.086499	0.001915	45.1746	133.857	12.9715	-0.078245	0.310606	-0.793176	-0.794494	-0.043613	45.1746	-0.792452	-3.551244E+10	1.228111E-12	NaN
31	1.000000	0.321963	7.36534e+06	-40189.1	955.819	-29791.6	0.000000	0.000000	6.322878	-0.041833	NaN	0.000000	0.001566	0.001650	28.081	0.065132	0.002059	31.6266	-143.919	-166.01	0.060654	0.320628	-0.783138	-0.784472	-0.041833	31.6266	-0.782146	-2.572687E+10	1.626054E-12	NaN
31	1.000000	0.331951	7.36534e+06	-40189.1	955.818	-29791.6	0.000000	0.000000	6.332868	-0.012832	NaN	0.000000	0.001595	0.001656	28.0954	0.094276	0.002051	45.9683	-166.199	16.9329	-0.044754	0.330620	-0.773149	-0.774481	-0.012832	45.9683	-0.772940	-1.928726E+10	6.653180E-13	NaN
31	1.000000	0.341941	7.36534e+06	-40189.1	955.819	-29791.6	0.000000	0.000000	6.342856	-0.051844	NaN	0.000000	0.001601	0.001629	28.1299	0.044361	0.002074	21.3892	144.097	-163.068	-0.018895	0.340671	-0.763159	-0.764429	-0.051844	21.3892	-0.761342	-1.341380E+10	3.865002E-12	NaN
31	1.000000	0.351976	7.36534e+06	-40189.1	955.818	-29791.6	0.000000	0.000000	6.352891	-0.046521	NaN	0.000000	0.001645	0.001656	28.0991	0.114798	0.001964	58.4551	120.27	13.5222	-0.055857	0.350616	-0.753124	-0.754484	-0.046521	58.4551	-0.752527	-1.017694E+10	4.571194E-12	NaN
31	1.000000	0.361975	7.36534e+06	-40189.1	955.819	-29791.6	0.000000	0.000000	6.362888	-0.095186	NaN	0.000000	0.001634	0.001660	28.0797	0.037778	0.001917	19.7082	90.9977	-169.319	-0.106267	0.360677	-0.743125	-0.744424	-0.095186	19.7082	-0.739503	-6.765322E+9	1.406972E-11	NaN
31	1.000000	0.371968	7.36534e+06	-40189.1	955.818	-29791.6	0.000000	0.000000	6.372882	-0.083029	NaN	0.000000	0.001650	0.001663	28.0945	0.143859	0.002083	69.0547	-35.1639	15.6872	-0.066321	0.370595	-0.733132	-0.734506	-0.083029	69.0547	-0.732230	-5.385243E+9	1.541781E-11	NaN
31	1.000000	0.381980	7.36534e+06	-40189.1	955.819	-29791.6	0.000000	0.000000	6.382892	-0.111277	NaN	0.000000	0.001645	0.001649	28.1311	0.078345	0.001992	39.3323	-84.1362	-166.072	-0.040066	0.380657	-0.723120	-0.724444	-0.111277	39.3323	-0.720998	-3.785210E+9	2.939792E-11	NaN
31	1.000000	0.391980	7.36534e+06	-40189.1	955.818	-29791.6	0.000000	0.000000	6.392892	-0.108590	NaN	0.000000	0.001638	0.001643	28.1	0.129649	0.002053	63.142	179.731	14.8275	-0.100047	0.390660	-0.713120	-0.714441	-0.108590	63.142	-0.711831	-2.838107E+9	3.826139E-11	NaN
31	1.000000	0.401979	7.36534e+06	-40189.1	955.819	-29791.6	0.000000	0.000000	6.402895	-0.010236	NaN	0.000000	0.001660	0.001667	28.0804	0.064071	0.002159	29.6708	85.1279	-164.994	-0.034107	0.400722	-0.703121	-0.704378	-0.010236	29.6708	-0.702863	-2.141024E+9	4.781024E-12	NaN
31	1.000000	0.411984	7.36534e+06	-40189.1	955.818	-29791.6	0.000000	0.000000	6.412896	-0.103576	NaN	0.000000	0.001650	0.001643	28.0942	0.030426	0.002025	15.0241	-4.627597	14.7179	-0.076761	0.410605	-0.693117	-0.694496	-0.103576	15.0241	-0.687946	-1.339207E+9	7.734091E-11	NaN
31	1.000000	0.421988	7.36534e+06	-40189.1	955.818	-29791.6	0.000000	0.000000	6.422903	-0.053827	NaN	0.000000	0.001634	0.001624	28.1298	0.044380	0.002026	21.9044	-89.7794	-161.947	-0.012712	0.420655	-0.683112	-0.684445	-0.053827	21.9044	-0.681269	-1.085326E+9	4.959505E-11	NaN
31	1.000000	0.432011	7.36534e+06	-40189.1	955.818	-29791.6	0.000000	0.000000	6.432923	-0.109345	NaN	0.000000	0.001628	0.001641	28.0995	0.057127	0.002146	26.6205	139.809	14.6324	-0.071949	0.430639	-0.673090	-0.674461	-0.109345	26.6205	-0.670009	-7.612317E+8	1.436421E-10	NaN
31	1.000000	0.442006	7.36534e+06	-40189.1	955.818	-29791.6	0.000000	0.000000	6.442919	-0.074660	NaN	0.000000	0.001658	0.001659	28.0791	0.061059	0.001997	30.582	-14.6091	-166.099	-0.051157	0.440632	-0.663095	-0.664468	-0.074660	30.582	-0.661264	-5.778045E+8	1.292132E-10	NaN
31	1.000000	0.452024	7.36534e+06	-40189.1	955.818	-29791.6	0.000000	0.000000	6.452938	-0.056074	NaN	0.000000	0.001639	0.001673	28.0942	0.078390	0.001926	40.7108	7.327040	17.7475	-0.024129	0.450672	-0.653077	-0.654428	-0.056074	40.7108	-0.652044	-4.319674E+8	1.298100E-10	NaN
31	1.000000	0.461992	7.36534e+06	-40189.1	955.819	-29791.6	0.000000	0.000000	6.462908	-0.038006	NaN	0.000000	0.001644	0.001678	28.1318	0.029658	0.001988	14.9187	168.018	-164.324	-0.088575	0.460716	-0.643108	-0.644384	-0.038006	14.9187	-0.641197	-3.067019E+8	1.239194E-10	NaN
31	1.000000	0.472013	7.36534e+06	-40189.1	955.818	-29791.6	0.000000	0.000000	6.472931	0.016870	NaN	0.000000	0.001675	0.001655	28.1018	0.064608	0.002017	32.0243	18.051	16.5839	0.000485	0.470666	-0.633087	-0.634435	0.016870	32.0243	-0.633482	-2.403464E+8	-7.019169E-11	NaN
31	1.000000	0.482020	7.36534e+06	-40189.1	955.818	-29791.6	0.000000	0.000000	6.482934	-0.086444	NaN	0.000000	0.001696	0.001650	28.0819	0.073195	0.001974	37.0806	-47.73	-167.987	-0.067071	0.480714	-0.623080	-0.624386	-0.086444	37.0806	-0.621332	-1.636578E+8	5.281980E-10	NaN
31	1.000000	0.492039	7.36534e+06	-40189.1	955.818	-29791.6	0.000000	0.000000	6.492951	-0.119916	NaN	0.000000	0.001659	0.001650	28.095	0.113054	0.002111	53.5613	67.5558	16.0234	-0.044838	0.490659	-0.613062	-0.614441	-0.119916	53.5613	-0.611383	-1.194361E+8	1.004022E-9	NaN
31	1.000000	0.502066	7.36534e+06	-40189.1	955.818	-29791.6	0.000000	0.000000	6.502983	0.000877	NaN	0.000000	0.001662	0.001654	28.1312	0.015073	0.002010	7.497410	-90.0098	-167.454	-0.013409	0.500714	-0.603034	-0.604387	0.000877	7.497410	-0.603122	-9.192797E+7	-9.544418E-12	NaN
31	1.000000	0.512069	7.36534e+06	-40189.1	955.819	-29791.6	0.000000	0.000000	6.512984	-0.051985	NaN	0.000000	0.001646	0.001630	28.1011	0.064264	0.001996	32.1961	79.5756	13.4852	-0.148012	0.510739	-0.593031	-0.594361	-0.051985	32.1961	-0.591820	-6.423337E+7	8.093163E-10	NaN
31	1.000000	0.522035	7.36534e+06	-40189.1	955.819	-29791.6	0.000000	0.000000	6.522951	-0.020466	NaN	0.000000	0.001674	0.001616	28.0802	0.104407	0.001991	52.4427	56.6215	-160.978	-0.018365	0.520665	-0.583066	-0.584435	-0.020466	52.4427	-0.582773	-4.819421E+7	4.246560E-10	NaN
31	1.000000	0.532044	7.36534e+06	-40189.1	955.819	-29791.6	0.000000	0.000000	6.532960	-0.019590	NaN	0.000000	0.001698	0.001640	28.0951	0.104955	0.001931	54.3622	-95.1947	15.7051	0.063277	0.530718	-0.573056	-0.574382	-0.019590	54.3622	-0.572786	-3.508510E+7	5.583434E-10	NaN
31	1.000000	0.542036	7.36534e+06	-40189.1	955.818	-29791.6	0.000000	0.000000	6.542950	-0.082316	NaN	0.000000	0.001677	0.001653	28.1324	0.090225	0.001919	47.0242	107.895	-167.137	0.052210	0.540746	-0.563064	-0.564354	-0.082316	47.0242	-0.561751	-2.469466E+7	3.333352E-9	NaN
31	1.000000	0.552064	7.36534e+06	-40189.1	955.819	-29791.6	0.000000	0.000000	6.552980	-0.008700	NaN	0.000000	0.001678	0.001624	28.1021	0.141707	0.002110	67.1455	-98.4233	9.912216	-0.088413	0.550664	-0.553037	-0.554437	-0.008700	67.1455	-0.552939	-1.864922E+7	4.665158E-10	NaN
31	1.000000	0.562066	7.36534e+06	-40189.1	955.819	-29791.6	0.000000	0.000000	6.562984	0.018542	NaN	0.000000	0.001693	0.001605	28.0823	0.131671	0.001897	69.4128	-85.4356	-163.997	-0.011341	0.560726	-0.543034	-0.544374	0.018542	69.4128	-0.543235	-1.368387E+7	-1.355031E-9	NaN
31	1.000000	0.572099	7.36534e+06	-40189.1	955.819	-29791.6	0.000000	0.000000	6.573015	-0.005946	NaN	0.000000	0.001653	0.001625	28.0946	0.060198	0.001994	30.1832	-131.753	17.2659	-0.071491	0.570702	-0.533002	-0.534399	-0.005946	30.1832	-0.532854	-9.82213e+06	6.053347E-10	NaN
31	1.000000	0.582080	7.36534e+06	-40189.1	955.818	-29791.6	0.000000	0.000000	6.582993	-0.098297	NaN	0.000000	0.001693	0.001667	28.131	0.009813	0.001993	4.924290	62.9532	-162.647	-0.067316	0.580699	-0.523020	-0.524402	-0.098297	4.924290	-0.508049	-4.4385e+06	2.214656E-8	NaN
31	1.000000	0.592052	7.36534e+06	-40189.1	955.818	-29791.6	0.000000	0.000000	6.592966	-0.069760	NaN	0.000000	0.001708	0.001610	28.1017	0.018642	0.002040	9.138242	-148.647	11.8039	-0.116601	0.590735	-0.513048	-0.514365	-0.069760	9.138242	-0.507323	-4.3363e+06	1.608742E-8	NaN
31	1.000000	0.602090	7.36534e+06	-40189.1	955.818	-29791.6	0.000000	0.000000	6.603005	-0.041383	NaN	0.000000	0.001692	0.001619	28.0813	0.033413	0.002023	16.5192	-34.8607	-167.568	-0.078928	0.600732	-0.503010	-0.504369	-0.041383	16.5192	-0.501132	-3.55469e+06	1.164192E-8	NaN
31	1.000000	0.612068	7.36534e+06	-40189.1	955.818	-29791.6	0.000000	0.000000	6.612982	-0.069229	NaN	0.000000	0.001675	0.001658	28.0942	0.158798	0.001921	82.6551	88.0768	15.041	-0.013118	0.610701	-0.493033	-0.494400	-0.069229	82.6551	-0.492404	-2.68526e+06	2.578115E-8	NaN
31	1.000000	0.622104	7.36534e+06	-40189.1	955.818	-29791.6	0.000000	0.000000	6.623018	-0.073161	NaN	0.000000	0.001673	0.001645	28.1306	0.116536	0.001987	58.6498	58.4898	-163.756	-0.075890	0.620783	-0.482997	-0.484317	-0.073161	58.6498	-0.482061	-1.92475e+06	3.801089E-8	NaN
31	1.000000	0.632085	7.36534e+06	-40189.1	955.817	-29791.6	0.000000	0.000000	6.632998	-0.107128	NaN	0.000000	0.001716	0.001593	28.1007	0.109496	0.001830	59.842	75.39	13.5088	-0.054876	0.630718	-0.473015	-0.474382	-0.107128	59.842	-0.471672	-1.37677e+06	7.781119E-8	NaN
31	1.000000	0.642095	7.36534e+06	-40189.1	955.818	-29791.6	0.000000	0.000000	6.643009	-0.088981	NaN	0.000000	0.001721	0.001654	28.081	0.042453	0.001987	21.3674	-25.3853	-166.652	-0.120416	0.640763	-0.463005	-0.464338	-0.088981	21.3674	-0.459882	-940496	9.461043E-8	NaN
31	1.000000	0.652078	7.36534e+06	-40189.1	955.818	-29791.6	0.000000	0.000000	6.652993	-0.040375	NaN	0.000000	0.001664	0.001622	28.093	0.038976	0.002019	19.3077	-9.704288	11.5038	-0.011959	0.650747	-0.453023	-0.454354	-0.040375	19.3077	-0.451454	-715844	5.640130E-8	NaN
31	1.000000	0.662090	7.36534e+06	-40189.1	955.818	-29791.6	0.000000	0.000000	6.663005	-0.064499	NaN	0.000000	0.001684	0.001648	28.1307	0.085490	0.001993	42.9007	-116.728	-164.329	0.006350	0.660797	-0.443010	-0.444304	-0.064499	42.9007	-0.441883	-524719	1.229216E-7	NaN
31	1.000000	0.672095	7.36534e+06	-40189.1	955.819	-29791.6	0.000000	0.000000	6.673008	-0.097309	NaN	0.000000	0.001671	0.001613	28.1008	0.086673	0.002159	40.1483	-30.1656	14.9717	-0.037943	0.670750	-0.433006	-0.434351	-0.097309	40.1483	-0.431188	-370564	2.625975E-7	NaN
31	1.000000	0.682136	7.36534e+06	-40189.1	955.819	-29791.6	0.000000	0.000000	6.683052	-0.037698	NaN	0.000000	0.001663	0.001634	28.0784	0.098786	0.001969	50.1705	-56.4512	-166.212	0.010667	0.680827	-0.422964	-0.424274	-0.037698	50.1705	-0.422400	-278259	1.354793E-7	NaN
31	1.000000	0.692093	7.36534e+06	-40189.1	955.818	-29791.6	0.000000	0.000000	6.693007	-0.074051	NaN	0.000000	0.001656	0.001645	28.0939	0.032348	0.001946	16.6253	179.74	17.1115	-0.027203	0.690721	-0.413008	-0.414380	-0.074051	16.6253	-0.409667	-183513	4.035192E-7	NaN
31	1.000000	0.702099	7.36534e+06	-40189.1	955.818	-29791.6	0.000000	0.000000	6.703014	-0.036898	NaN	0.000000	0.001650	0.001623	28.131	0.095512	0.001999	47.7683	160.631	-166.336	-0.100689	0.700830	-0.403002	-0.404270	-0.036898	47.7683	-0.402423	-144721	2.549608E-7	NaN
31	1.000000	0.712120	7.36534e+06	-40189.1	955.819	-29791.6	0.000000	0.000000	6.713033	-0.077424	NaN	0.000000	0.001683	0.001591	28.1034	0.056503	0.001882	30.0206	-99.5953	13.3685	-0.049516	0.710732	-0.392981	-0.394369	-0.077424	30.0206	-0.391046	-99571	7.775748E-7	NaN
31	1.000000	0.722123	7.36534e+06	-40189.1	955.818	-29791.6	0.000000	0.000000	6.723034	-0.126399	NaN	0.000000	0.001663	0.001597	28.0812	0.060947	0.001979	30.7984	131.929	-167.235	-0.152970	0.720860	-0.382978	-0.384240	-0.126399	30.7984	-0.379900	-68936.4	1.833553E-6	NaN
31	1.000000	0.732116	7.36534e+06	-40189.1	955.82	-29791.6	0.000000	0.000000	6.733031	-0.057309	NaN	0.000000	0.001624	0.001598	28.0924	0.037795	0.002113	17.8855	-77.1322	14.8338	-0.066047	0.730780	-0.372984	-0.374320	-0.057309	17.8855	-0.370581	-50640.1	1.131692E-6	NaN
31	1.000000	0.742137	7.36534e+06	-40189.1	955.818	-29791.6	0.000000	0.000000	6.743051	-0.090375	NaN	0.000000	0.001660	0.001614	28.131	0.056151	0.002075	27.063	-91.1824	-168.283	-0.063995	0.740786	-0.362963	-0.364314	-0.090375	27.063	-0.360459	-36180.4	2.497889E-6	NaN
31	1.000000	0.752095	7.36534e+06	-40189.1	955.818	-29791.6	0.000000	0.000000	6.753007	-0.123111	NaN	0.000000	0.001665	0.001635	28.1027	0.098940	0.002105	46.9983	79.9258	11.7102	-0.113547	0.750750	-0.353006	-0.354351	-0.123111	46.9983	-0.351041	-26430.6	4.657910E-6	NaN
31	1.000000	0.762121	7.36534e+06	-40189.1	955.819	-29791.6	0.000000	0.000000	6.763036	-0.048997	NaN	0.000000	0.001680	0.001616	28.0817	0.078662	0.001985	39.6324	36.1294	-168.464	-0.114116	0.760866	-0.342979	-0.344235	-0.048997	39.6324	-0.342052	-19563.8	2.504462E-6	NaN
31	1.000000	0.772132	7.36534e+06	-40189.1	955.819	-29791.6	0.000000	0.000000	6.773048	-0.009408	NaN	0.000000	0.001663	0.001636	28.0939	0.013036	0.002099	6.209269	116.558	17.0161	-0.025133	0.770772	-0.332969	-0.334328	-0.009408	6.209269	-0.331833	-13876.4	6.779628E-7	NaN
31	1.000000	0.782144	7.36534e+06	-40189.1	955.818	-29791.6	0.000000	0.000000	6.783058	-0.079600	NaN	0.000000	0.001657	0.001631	28.1328	0.058862	0.002013	29.238	165.469	-165.509	-0.004062	0.780836	-0.322956	-0.324264	-0.079600	29.238	-0.320914	-9596.06	8.295100E-6	NaN
31	1.000000	0.792152	7.36534e+06	-40189.1	955.818	-29791.6	0.000000	0.000000	6.793066	-0.059720	NaN	0.000000	0.001671	0.001596	28.1035	0.056915	0.002086	27.2835	129.942	13.6142	-0.057050	0.790819	-0.312949	-0.314282	-0.059720	27.2835	-0.311307	-6924.59	8.624319E-6	NaN
31	1.000000	0.802170	7.36534e+06	-40189.1	955.818	-29791.6	0.000000	0.000000	6.803082	-0.119377	NaN	0.000000	0.001664	0.001581	28.083	0.032803	0.001913	17.1514	56.316	-163.993	-0.125519	0.800853	-0.302930	-0.304248	-0.119377	17.1514	-0.297710	-4350.37	2.744074E-5	NaN
31	1.000000	0.812161	7.36534e+06	-40189.1	955.818	-29791.6	0.000000	0.000000	6.813075	-0.065987	NaN	0.000000	0.001742	0.001603	28.0937	0.085644	0.001951	43.8877	-75.4574	12.9251	-0.015215	0.810831	-0.292940	-0.294269	-0.065987	43.8877	-0.291812	-3551.67	1.857900E-5	NaN
31	1.000000	0.822142	7.36534e+06	-40189.1	955.818	-29791.6	0.000000	0.000000	6.823057	-0.053613	NaN	0.000000	0.001691	0.001636	28.1311	0.057511	0.001854	31.0164	137.551	-166.994	-0.085316	0.820867	-0.282958	-0.284234	-0.053613	31.0164	-0.281662	-2500.47	2.144132E-5	NaN
31	1.000000	0.832130	7.36535e+06	-40189.1	955.818	-29791.6	0.000000	0.000000	6.833044	-0.077332	NaN	0.000000	0.001680	0.001628	28.1026	0.065306	0.002112	30.9258	-157.875	15.9837	-0.115728	0.830802	-0.272970	-0.274299	-0.077332	30.9258	-0.271095	-1730.53	4.468674E-5	NaN
31	1.000000	0.842166	7.36535e+06	-40189.1	955.818	-29791.6	0.000000	0.000000	6.843082	-0.041124	NaN	0.000000	0.001671	0.001586	28.0809	0.034587	0.001867	18.5258	-173.19	-165.26	0.026743	0.840815	-0.262934	-0.264285	-0.041124	18.5258	-0.261269	-1225.63	3.355366E-5	NaN
31	1.000000	0.852155	7.36535e+06	-40189.1	955.818	-29791.6	0.000000	0.000000	6.853071	-0.028047	NaN	0.000000	0.001636	0.001699	28.0934	0.040210	0.001963	20.4844	91.5278	16.0721	-0.065118	0.850865	-0.252945	-0.254235	-0.028047	20.4844	-0.251918	-880.256	3.186194E-5	NaN
31	1.000000	0.862164	7.36535e+06	-40189.1	955.818	-29791.6	0.000000	0.000000	6.863081	-0.017473	NaN	0.000000	0.001668	0.001615	28.1323	0.015298	0.001995	7.669351	-154.297	-165.82	-0.035127	0.860863	-0.242936	-0.244238	-0.017473	7.669351	-0.241227	-600.773	2.908427E-5	NaN
31	1.000000	0.872192	7.36535e+06	-40189.1	955.818	-29791.6	0.000000	0.000000	6.873108	-0.013267	NaN	0.000000	0.001681	0.001636	28.1049	0.070856	0.002009	35.2755	-24.232	16.4331	-0.012566	0.870847	-0.232909	-0.234254	-0.013267	35.2755	-0.232627	-440.489	3.011903E-5	NaN
31	1.000000	0.882152	7.36535e+06	-40189.1	955.818	-29791.6	0.000000	0.000000	6.883067	-0.051618	NaN	0.000000	0.001674	0.001657	28.0809	0.088056	0.001954	45.0553	48.7732	-168.199	-0.095621	0.880910	-0.222948	-0.224190	-0.051618	45.0553	-0.222089	-299.925	0.000172	NaN
31	1.000000	0.892199	7.36535e+06	-40189.1	955.819	-29791.6	0.000000	0.000000	6.893111	-0.101528	NaN	0.000000	0.001703	0.001644	28.0932	0.102665	0.002012	51.0193	-64.5823	17.8332	-0.176549	0.890767	-0.212902	-0.214334	-0.101528	51.0193	-0.211409	-202.125	0.000502	NaN
31	1.000000	0.902195	7.36535e+06	-40189.1	955.818	-29791.6	0.000000	0.000000	6.903107	-0.128786	NaN	0.000000	0.001723	0.001689	28.1303	0.035046	0.002004	17.4878	86.8727	-163.796	-0.152833	0.900875	-0.202905	-0.204225	-0.128786	17.4878	-0.197382	-119.286	0.001080	NaN
31	1.000000	0.912194	7.36535e+06	-40189.1	955.818	-29791.6	0.000000	0.000000	6.913112	0.028005	NaN	0.000000	0.001725	0.001666	28.1026	0.070329	0.001902	36.9826	128.541	14.1025	-0.000375	0.910872	-0.192907	-0.194228	0.028005	36.9826	-0.193475	-102.778	-0.000272	NaN
31	1.000000	0.922193	7.36535e+06	-40189.1	955.818	-29791.6	0.000000	0.000000	6.923105	-0.116420	NaN	0.000000	0.001740	0.001655	28.079	0.044974	0.002152	20.9037	-92.2796	-166.143	-0.099594	0.920921	-0.182907	-0.184179	-0.116420	20.9037	-0.178730	-58.055	0.002005	NaN
31	1.000000	0.932227	7.36535e+06	-40189.1	955.818	-29791.6	0.000000	0.000000	6.933141	-0.057425	NaN	0.000000	0.001739	0.001647	28.0935	0.049164	0.001984	24.7841	-179.118	14.0612	-0.033650	0.930856	-0.172874	-0.174245	-0.057425	24.7841	-0.171136	-42.9849	0.001336	NaN
31	1.000000	0.942186	7.36535e+06	-40189.1	955.819	-29791.6	0.000000	0.000000	6.943099	-0.110275	NaN	0.000000	0.001732	0.001634	28.1309	0.111233	0.002005	55.4771	-71.0974	-167.91	-0.073460	0.940886	-0.162914	-0.164214	-0.110275	55.4771	-0.161423	-29.0559	0.003795	NaN
31	1.000000	0.952216	7.36535e+06	-40189.1	955.818	-29791.6	0.000000	0.000000	6.953131	-0.035030	NaN	0.000000	0.001726	0.001616	28.1037	0.122307	0.002083	58.7106	-44.0924	11.8057	-0.067222	0.950837	-0.152884	-0.154263	-0.035030	58.7106	-0.152437	-20.0587	0.001746	NaN
31	1.000000	0.962202	7.36535e+06	-40189.1	955.818	-29791.6	0.000000	0.000000	6.963114	-0.106881	NaN	0.000000	0.001743	0.001629	28.0808	0.032988	0.001944	16.973	-92.2298	-170.275	-0.071441	0.960905	-0.142899	-0.144195	-0.106881	16.973	-0.138176	-10.9296	0.009779	NaN
31	1.000000	0.972204	7.36535e+06	-40189.1	955.819	-29791.6	0.000000	0.000000	6.973119	-0.047921	NaN	0.000000	0.001684	0.001625	28.0926	0.075965	0.001855	40.9533	61.5717	13.1721	-0.082764	0.970794	-0.132897	-0.134306	-0.047921	40.9533	-0.132019	-8.338578	0.005747	NaN
31	1.000000	0.982205	7.36535e+06	-40189.1	955.818	-29791.6	0.000000	0.000000	6.983117	-0.112174	NaN	0.000000	0.001650	0.001618	28.1298	0.135734	0.001887	71.9359	46.3353	-167.073	-0.097296	0.980929	-0.122896	-0.124172	-0.112174	71.9359	-0.121726	-5.233584	0.021434	NaN
31	1.000000	0.992219	7.36535e+06	-40189.1	955.818	-29791.6	0.000000	0.000000	6.993134	-0.049240	NaN	0.000000	0.001660	0.001616	28.1023	0.018215	0.001978	9.210861	-109.714	11.3688	-0.056380	0.990809	-0.112882	-0.114291	-0.049240	9.210861	-0.108872	-2.844657	0.017310	NaN
31	1.000000	1.002266	7.36535e+06	-40189.1	955.819	-29791.6	0.000000	0.000000	7.003180	-0.079191	NaN	0.000000	0.001646	0.001653	28.0809	0.060107	0.002100	28.6198	-7.670409	-165.738	-0.083362	1.000945	-0.102834	-0.104155	-0.079191	28.6198	-0.100759	-1.899186	0.041697	NaN
31	1.000000	1.012234	7.36535e+06	-40189.1	955.818	-29791.6	0.000000	0.000000	7.013150	-0.034787	NaN	0.000000	0.001685	0.001644	28.092	0.114978	0.002065	55.6667	14.1289	13.7007	-0.064484	1.010921	-0.092866	-0.094179	-0.034787	55.6667	-0.092398	-1.229335	0.028297	NaN
31	1.000000	1.022230	7.36535e+06	-40189.1	955.818	-29791.6	0.000000	0.000000	7.023147	-0.006212	NaN	0.000000	0.001671	0.001650	28.1323	0.086282	0.001958	44.0582	58.7016	-168.57	0.037722	1.020948	-0.082871	-0.084153	-0.006212	44.0582	-0.082765	-0.724757	0.008571	NaN
31	1.000000	1.032230	7.36535e+06	-40189.1	955.818	-29791.6	0.000000	0.000000	7.033148	0.014366	NaN	0.000000	0.001676	0.001650	28.1051	0.056593	0.002001	28.2776	96.42	8.888723	-0.051090	1.030869	-0.072870	-0.074231	0.014366	28.2776	-0.073251	-0.415916	-0.034541	NaN
31	1.000000	1.042245	7.36535e+06	-40189.1	955.818	-29791.6	0.000000	0.000000	7.043160	-0.042325	NaN	0.000000	0.001660	0.001634	28.0823	0.066614	0.001995	33.3952	-26.9572	-167.559	-0.034256	1.040918	-0.062856	-0.064183	-0.042325	33.3952	-0.061905	-0.204085	0.207387	NaN
31	1.000000	1.052261	7.36535e+06	-40189.1	955.818	-29791.6	0.000000	0.000000	7.053176	-0.042259	NaN	0.000000	0.001661	0.001620	28.0929	0.104564	0.002032	51.4539	33.8944	14.8583	-0.029316	1.050922	-0.052839	-0.054179	-0.042259	51.4539	-0.052223	-0.106459	0.396952	NaN
31	1.000000	1.062242	7.36535e+06	-40189.1	955.818	-29791.6	0.000000	0.000000	7.063156	-0.079374	NaN	0.000000	0.001690	0.001647	28.1313	0.079948	0.001900	42.078	120.81	-164.496	-0.050843	1.061019	-0.042858	-0.044082	-0.079374	42.078	-0.041444	-0.050037	1.586295	NaN
31	1.000000	1.072229	7.36535e+06	-40189.1	955.819	-29791.6	0.000000	0.000000	7.073144	-0.034726	NaN	0.000000	0.001673	0.001643	28.104	0.064366	0.001885	34.1506	163.298	16.1866	-0.106538	1.070858	-0.032872	-0.034243	-0.034726	34.1506	-0.032109	-0.026395	1.315612	NaN
31	1.000000	1.082253	7.36535e+06	-40189.1	955.818	-29791.6	0.000000	0.000000	7.083168	-0.033093	NaN	0.000000	0.001724	0.001677	28.0803	0.138779	0.002030	68.3575	-81.0577	-162.676	-0.046941	1.080943	-0.022848	-0.024158	-0.033093	68.3575	-0.022485	-0.014529	2.277757	NaN
31	1.000000	1.092250	7.36535e+06	-40189.1	955.82	-29791.6	0.000000	0.000000	7.093166	-0.001693	NaN	0.000000	0.001681	0.001670	28.0934	0.107956	0.002068	52.2051	70.5075	13.5832	0.027055	1.090889	-0.012851	-0.014212	-0.001693	52.2051	-0.012826	-0.008002	0.211528	NaN
31	1.000000	1.102283	7.36535e+06	-40189.1	955.819	-29791.6	0.000000	0.000000	7.103200	-0.000450	NaN	0.000000	0.001702	0.001650	28.1321	0.172641	0.001954	88.3416	18.3637	-165.287	-0.056741	1.100984	-0.002818	-0.004117	-0.000450	88.3416	-0.002814	-0.001996	0.225591	NaN
31	2.000000	1.111421	7.36535e+06	-40189.1	955.819	-29791.6	0.000000	0.000000	7.112673	8.139944	NaN	0.000000	0.001678	0.001661	28.1065	8.016834	0.001689	4747.13	10.305	5.552117	8.327559	1.110738	0.006321	0.005638	8.139944	4747.13	0.005035	0.004165	1954.33	67203.6
31	2.000000	1.113923	7.36535e+06	-40189.1	955.819	-29791.6	0.000000	0.000000	7.115312	11.487	NaN	0.000000	0.001746	0.001677	28.0828	10.6013	0.001801	5886.85	5.351660	-172.698	10.6391	1.113687	0.008822	0.008587	11.487	5886.85	0.007359	0.006391	1797.39	67278.1
31	2.000000	1.116458	7.36535e+06	-40189.1	955.818	-29791.6	0.000000	0.000000	7.118020	15.7156	NaN	0.000000	0.001731	0.001639	28.0932	12.2485	0.001752	6989.73	0.753181	12.0775	14.5108	1.116090	0.011357	0.010989	15.7156	6989.73	0.009671	0.008818	1782.24	68006.5
31	2.000000	1.118925	7.36535e+06	-40189.1	955.818	-29791.6	0.000000	0.000000	7.120628	19.1447	NaN	0.000000	0.001768	0.001624	28.1309	14.6107	0.001867	7824.66	5.264718	-174.389	18.8694	1.118588	0.013824	0.013488	19.1447	7824.66	0.011989	0.011477	1668.05	66729.6
31	2.000000	1.121382	7.36535e+06	-40189.1	955.819	-29791.6	0.000000	0.000000	7.123225	22.5258	NaN	0.000000	0.001776	0.001635	28.1048	16.7096	0.001883	8875.29	5.745705	3.387752	21.356	1.121046	0.016282	0.015946	22.5258	8875.29	0.014378	0.014465	1557.22	67420.4
31	2.000000	1.123885	7.36535e+06	-40189.1	955.819	-29791.6	0.000000	0.000000	7.125793	24.1025	NaN	0.000000	0.001729	0.001658	28.0808	18.46	0.001857	9939.41	5.591237	-176.689	23.8283	1.123610	0.018785	0.018510	24.1025	9939.41	0.016966	0.017997	1339.24	67691.1
31	2.000000	1.126348	7.36535e+06	-40189.1	955.819	-29791.6	0.000000	0.000000	7.128582	32.0308	NaN	0.000000	0.001726	0.001684	28.092	20.1404	0.001777	11332.4	2.605002	5.200677	29.3746	1.125988	0.021248	0.020888	32.0308	11332.4	0.019128	0.021191	1511.55	71125.1
31	2.000000	1.128885	7.36535e+06	-40189.1	955.819	-29791.6	0.000000	0.000000	7.131311	36.7034	NaN	0.000000	0.001790	0.001689	28.1304	22.418	0.001782	12578.4	5.584464	-177.965	36.7303	1.128523	0.023785	0.023422	36.7034	12578.4	0.021597	0.025113	1461.51	72518.1
31	2.000000	1.131300	7.36535e+06	-40189.1	955.819	-29791.6	0.000000	0.000000	7.133956	42.3096	NaN	0.000000	0.001743	0.001665	28.1046	24.0896	0.001729	13936.5	-1.021256	7.274816	39.6133	1.131052	0.026200	0.025952	42.3096	13936.5	0.023923	0.029085	1454.67	74660.5
31	2.000000	1.133873	7.36535e+06	-40189.1	955.819	-29791.6	0.000000	0.000000	7.136734	47.3083	NaN	0.000000	0.001750	0.001623	28.0799	27.6475	0.001842	15010.5	3.838747	-178.085	47.1465	1.133534	0.028773	0.028434	47.3083	15010.5	0.026409	0.033629	1406.78	74784.6
31	2.000000	1.136383	7.36535e+06	-40189.1	955.819	-29791.6	0.000000	0.000000	7.139497	53.4599	NaN	0.000000	0.001762	0.001640	28.0914	29.6652	0.001894	15664	4.494410	2.894294	53.5143	1.135974	0.031282	0.030874	53.4599	15664	0.028723	0.038138	1401.76	73282.3
31	2.000000	1.138814	7.36535e+06	-40189.1	955.819	-29791.6	0.000000	0.000000	7.142362	64.0094	NaN	0.000000	0.001749	0.001640	28.129	31.8488	0.001850	17215.3	3.213233	-179.147	62.0655	1.138518	0.033714	0.033418	64.0094	17215.3	0.030925	0.042683	1499.65	76130.9
31	2.000000	1.141326	7.36535e+06	-40189.1	955.819	-29791.6	0.000000	0.000000	7.145177	71.3842	NaN	0.000000	0.001759	0.001639	28.1044	34.79	0.001900	18313	8.897369	-5.262991	69.7753	1.140989	0.036226	0.035888	71.3842	18313	0.033303	0.047867	1491.29	76473.9
31	2.000000	1.143795	7.36535e+06	-40189.1	955.819	-29791.6	0.000000	0.000000	7.148007	80.1959	NaN	0.000000	0.001667	0.001617	28.0792	36.3562	0.001750	20775.9	4.686387	177.47	77.7866	1.143602	0.038694	0.038502	80.1959	20775.9	0.035799	0.053623	1495.54	81970.4
31	2.000000	1.146389	7.36535e+06	-40189.1	955.819	-29791.6	0.000000	0.000000	7.150973	89.2341	NaN	0.000000	0.001647	0.001629	28.0916	38.7616	0.001782	21756.3	8.051595	-5.993126	88.9723	1.146022	0.041289	0.040922	89.2341	21756.3	0.038212	0.059490	1499.97	81495.6
31	2.000000	1.148844	7.36535e+06	-40189.1	955.82	-29791.6	0.000000	0.000000	7.153947	101.852	NaN	0.000000	0.001632	0.001644	28.1306	40.2993	0.001711	23551.3	4.515382	177.278	100.836	1.148456	0.043744	0.043355	101.852	23551.3	0.040500	0.065327	1559.1	84186.2
31	2.000000	1.151292	7.36535e+06	-40189.1	955.82	-29791.6	0.000000	0.000000	7.156730	110.027	NaN	0.000000	0.001654	0.001635	28.1041	43.2077	0.001808	23903.1	8.236404	-5.981693	107.316	1.151058	0.046192	0.045958	110.027	23903.1	0.042739	0.071299	1543.17	81787.3
31	2.000000	1.153794	7.36535e+06	-40189.1	955.819	-29791.6	0.000000	0.000000	7.159693	121.236	NaN	0.000000	0.001656	0.001666	28.0803	45.8314	0.001816	25243.3	3.566823	177.641	118.779	1.153518	0.048694	0.048417	121.236	25243.3	0.045092	0.077848	1557.34	82660.3
31	2.000000	1.156348	7.36535e+06	-40189.1	955.818	-29791.6	0.000000	0.000000	7.162692	132.073	NaN	0.000000	0.001680	0.001681	28.0912	46.9188	0.001761	26648.4	1.792461	-0.706212	130.598	1.156021	0.051247	0.050920	132.073	26648.4	0.047530	0.084932	1555.04	83542.7
31	2.000000	1.158821	7.36535e+06	-40189.1	955.819	-29791.6	0.000000	0.000000	7.165621	143.155	NaN	0.000000	0.001712	0.001679	28.1301	49.8656	0.001799	27718.5	6.910907	173.49	141.807	1.158449	0.053721	0.053348	143.155	27718.5	0.049847	0.091942	1557.01	83519.1
31	2.000000	1.161299	7.36535e+06	-40189.1	955.819	-29791.6	0.000000	0.000000	7.168730	158.52	NaN	0.000000	0.001699	0.001660	28.1036	51.5449	0.001758	29320.2	3.828854	-3.416952	155.14	1.160897	0.056198	0.055797	158.52	29320.2	0.052143	0.099153	1598.74	85072.1
31	2.000000	1.163757	7.36535e+06	-40189.1	955.819	-29791.6	0.000000	0.000000	7.171558	167.526	NaN	0.000000	0.001693	0.001648	28.0803	55.3276	0.001823	30348.1	4.596139	174.546	164.785	1.163620	0.058657	0.058519	167.526	30348.1	0.054517	0.106883	1567.37	84810.6
31	2.000000	1.166303	7.36535e+06	-40189.1	955.819	-29791.6	0.000000	0.000000	7.174988	189.034	NaN	0.000000	0.001709	0.001638	28.0914	57.0407	0.001754	32518.7	5.728212	-6.476026	185.788	1.165930	0.061202	0.060829	189.034	32518.7	0.056842	0.114730	1647.64	87713.9
31	2.000000	1.168807	7.36535e+06	-40189.1	955.819	-29791.6	0.000000	0.000000	7.177917	199.382	NaN	0.000000	0.001687	0.001633	28.1306	59.7622	0.001842	32441.9	6.238978	173.684	199.611	1.168426	0.063706	0.063326	199.382	32441.9	0.059097	0.122589	1626.42	84655
31	2.000000	1.171318	7.36535e+06	-40189.1	955.82	-29791.6	0.000000	0.000000	7.181093	215.566	NaN	0.000000	0.001691	0.001621	28.1053	61.8636	0.001745	35459.7	2.828629	-4.465902	213.864	1.170935	0.066217	0.065834	215.566	35459.7	0.061658	0.131821	1635.3	89231
31	2.000000	1.173796	7.36535e+06	-40189.1	955.82	-29791.6	0.000000	0.000000	7.184348	234.437	NaN	0.000000	0.001681	0.001632	28.0806	65.7038	0.001761	37307.9	5.444130	172.756	233.479	1.173475	0.068696	0.068375	234.437	37307.9	0.063983	0.140478	1668.85	90943.2
31	2.000000	1.176229	7.36535e+06	-40189.1	955.819	-29791.6	0.000000	0.000000	7.187230	245.38	NaN	0.000000	0.001723	0.001632	28.0912	66.2566	0.001687	39273.7	-0.704718	-1.805119	240.075	1.176004	0.071129	0.070904	245.38	39273.7	0.066443	0.149919	1636.75	92671.6
31	2.000000	1.178829	7.36535e+06	-40189.1	955.82	-29791.6	0.000000	0.000000	7.190450	260.474	NaN	0.000000	0.001692	0.001644	28.1299	69.7895	0.001810	38555.4	3.377392	175.016	262.471	1.178485	0.073729	0.073385	260.474	38555.4	0.068662	0.158686	1641.44	88427.8
31	2.000000	1.181218	7.36535e+06	-40189.1	955.82	-29791.6	0.000000	0.000000	7.193417	274.529	NaN	0.000000	0.001651	0.001608	28.1051	71.5909	0.001750	40908	3.312162	-6.086940	268.208	1.180940	0.076118	0.075839	274.529	40908	0.071085	0.168529	1628.98	91042.6
31	2.000000	1.183722	7.36535e+06	-40189.1	955.82	-29791.6	0.000000	0.000000	7.196727	294.161	NaN	0.000000	0.001681	0.001593	28.0794	75.0697	0.001769	42436.9	3.443272	173.374	289.015	1.183464	0.078621	0.078363	294.161	42436.9	0.073423	0.178289	1649.91	91823.8
31	2.000000	1.186258	7.36535e+06	-40189.1	955.82	-29791.6	0.000000	0.000000	7.200274	318.734	NaN	0.000000	0.001618	0.001604	28.0903	76.547	0.001733	44182.5	6.013682	-9.049559	314.805	1.185937	0.081158	0.080836	318.734	44182.5	0.075747	0.188250	1693.14	93036.9
31	2.000000	1.188771	7.36535e+06	-40189.1	955.82	-29791.6	0.000000	0.000000	7.203581	338.057	NaN	0.000000	0.001684	0.001630	28.1306	76.3877	0.001654	46179	-0.320882	176.439	336.374	1.188577	0.083671	0.083476	338.057	46179	0.078180	0.198947	1699.23	94590.9
31	2.000000	1.191251	7.36535e+06	-40189.1	955.821	-29791.6	0.000000	0.000000	7.206750	354.856	NaN	0.000000	0.001659	0.001623	28.1047	80.5459	0.001765	45637.4	3.159262	-6.980185	350.377	1.190916	0.086150	0.085815	354.856	45637.4	0.080318	0.208576	1701.33	91298.1
31	2.000000	1.193761	7.36535e+06	-40189.1	955.819	-29791.6	0.000000	0.000000	7.209846	369.096	NaN	0.000000	0.001670	0.001634	28.0782	83.4594	0.001804	46255.2	2.707976	173.64	367.623	1.193625	0.088661	0.088524	369.096	46255.2	0.082676	0.219442	1681.98	90214
31	2.000000	1.196252	7.36535e+06	-40189.1	955.82	-29791.6	0.000000	0.000000	7.213250	391.302	NaN	0.000000	0.001697	0.001634	28.0885	86.0788	0.001732	49700.6	7.115626	-10.976	386.295	1.195942	0.091152	0.090841	391.302	49700.6	0.085247	0.231582	1689.69	94358.7
31	2.000000	1.198771	7.36535e+06	-40189.1	955.82	-29791.6	0.000000	0.000000	7.216744	415.046	NaN	0.000000	0.001665	0.001632	28.1279	88.3736	0.001799	49134.4	6.225562	170.215	414.048	1.198419	0.093670	0.093318	415.046	49134.4	0.087335	0.241666	1717.44	91316.9
31	2.000000	1.201272	7.36535e+06	-40189.1	955.82	-29791.6	0.000000	0.000000	7.219987	433.098	NaN	0.000000	0.001690	0.001638	28.1035	89.7943	0.001821	49302.9	3.798069	-7.528518	429.443	1.200921	0.096171	0.095821	433.098	49302.9	0.089583	0.252748	1713.56	89598.8
31	2.000000	1.203783	7.36535e+06	-40189.1	955.82	-29791.6	0.000000	0.000000	7.223215	450.552	NaN	0.000000	0.001678	0.001602	28.0777	92.281	0.001847	49961.6	0.969311	175.716	449.686	1.203432	0.098683	0.098332	450.552	49961.6	0.091919	0.264510	1703.34	88754
31	2.000000	1.206316	7.36535e+06	-40189.1	955.82	-29791.6	0.000000	0.000000	7.226542	469.848	NaN	0.000000	0.001640	0.001643	28.0899	94.1748	0.001691	55683	4.685490	-8.952712	467.088	1.205880	0.101216	0.100779	469.848	55683	0.094887	0.279815	1679.14	96174.7
31	2.000000	1.208701	7.36535e+06	-40189.1	955.82	-29791.6	0.000000	0.000000	7.229689	488.406	NaN	0.000000	0.001659	0.001629	28.129	95.7944	0.001836	52183.7	1.313784	174.612	483.641	1.208489	0.103601	0.103389	488.406	52183.7	0.096581	0.288729	1691.57	88728.6
31	2.000000	1.209756	7.36535e+06	-40189.1	955.82	-29791.6	0.000000	0.000000	7.231355	503.271	NaN	0.000000	0.001678	0.001653	28.0797	97.6596	0.001807	54052.9	5.084239	171.513	500.718	1.209360	0.104656	0.104260	503.271	54052.9	0.097673	0.294542	1708.66	90995.2