File: remote_trans/data/nanoindenter/0828-1/data/Data_2025-08-06,11h17m57s/2025-07-22_16-23-58_1_1158.txt
2025-07-22, 16:23:58, 1
Index	Phase	Displacement	Time	Pos X	Pos Y	Pos Z	Rot A	Rot B	Piezo Z	Force A	Force B	Gripper	Voltage A	Voltage B	Temperature	Amplitude force	Amplitude pos	Stiffness	Phase shift	Phase excitation	Force A raw	Displacement raw	HMax	HMax raw	Real Force	Real Stiffness	Contact Depth	Area	Hardness	Reduced Mod.
[#]	[#]	[um]	[s]	[um]	[um]	[um]	[m°]	[m°]	[um]	[uN]	[uN]	[V]	[V]	[V]	[°C]	[uN]	[um]	[N/m]	[°]	[°]	[uN]	[um]	[um]	[um]	[uN]	[N/m]	[um]	[um^2]	[MPa]	[MPa]
1158	1.000000	0.002683	7.37638e+06	-57689.1	1105.82	-29736.5	0.000000	0.000000	6.002817	-0.050054	NaN	0.000000	0.001652	0.001648	28.0834	0.065135	0.000993	65.6213	38.1622	-157.684	-0.018250	0.001352	-1.027597	-1.028928	-0.050054	65.6213	-1.027025	-5.241647E+13	9.549299E-16	NaN
1158	1.000000	0.010646	7.37638e+06	-57689.1	1105.82	-29736.5	0.000000	0.000000	6.010783	-0.003115	NaN	0.000000	0.001660	0.001648	28.0834	0.075764	0.001013	74.7846	140.793	-168.152	-0.067278	0.009302	-1.019634	-1.020978	-0.003115	74.7846	-1.019602	-4.164870E+13	7.479626E-17	NaN
1158	1.000000	0.018613	7.37638e+06	-57689.1	1105.82	-29736.5	0.000000	0.000000	6.018749	-0.016728	NaN	0.000000	0.001641	0.001633	28.0831	0.042558	0.001706	24.9395	37.838	-162.372	-0.051886	0.017283	-1.011667	-1.012997	-0.016728	24.9395	-1.011163	-3.206575E+13	5.216788E-16	NaN
1158	1.000000	0.026628	7.37638e+06	-57689.1	1105.82	-29736.5	0.000000	0.000000	6.026764	-0.013140	NaN	0.000000	0.001662	0.001664	28.0833	0.096371	0.001993	48.345	66.1132	-166.429	-0.028734	0.025307	-1.003652	-1.004973	-0.013140	48.345	-1.003448	-2.524581E+13	5.204745E-16	NaN
1158	1.000000	0.034605	7.37638e+06	-57689.1	1105.82	-29736.5	0.000000	0.000000	6.034741	-0.002533	NaN	0.000000	0.001641	0.001684	28.0831	0.061987	0.001963	31.5836	-19.8336	-165.144	-0.042155	0.033331	-0.995675	-0.996949	-0.002533	31.5836	-0.995615	-1.980258E+13	1.279271E-16	NaN
1158	1.000000	0.042623	7.37638e+06	-57689.1	1105.82	-29736.5	0.000000	0.000000	6.042757	-0.047919	NaN	0.000000	0.001621	0.001662	28.0839	0.080067	0.001842	43.4621	94.7325	-165.561	-0.026609	0.041350	-0.987657	-0.988930	-0.047919	43.4621	-0.986830	-1.508059E+13	3.177520E-15	NaN
1158	1.000000	0.050623	7.37638e+06	-57689.1	1105.82	-29736.5	0.000000	0.000000	6.050761	0.035834	NaN	0.000000	0.001622	0.001674	28.0832	0.035574	0.001800	19.7595	-8.415063	-167.438	0.017881	0.049304	-0.979657	-0.980976	0.035834	19.7595	-0.981017	-1.259255E+13	-2.845681E-15	NaN
1158	1.000000	0.058609	7.37638e+06	-57689.1	1105.82	-29736.5	0.000000	0.000000	6.058746	0.003784	NaN	0.000000	0.001602	0.001672	28.0834	0.080878	0.001951	41.4533	38.3556	-162.728	0.059939	0.057366	-0.971671	-0.972914	0.003784	41.4533	-0.971739	-9.442812E+12	-4.007394E-16	NaN
1158	1.000000	0.066638	7.37638e+06	-57689.1	1105.82	-29736.5	0.000000	0.000000	6.066772	-0.051333	NaN	0.000000	0.001645	0.001704	28.0832	0.072914	0.001856	39.2929	-96.9167	-164.125	0.078392	0.065288	-0.963642	-0.964992	-0.051333	39.2929	-0.962662	-7.124552E+12	7.205145E-15	NaN
1158	1.000000	0.074612	7.37638e+06	-57689.1	1105.82	-29736.5	0.000000	0.000000	6.074748	0.008518	NaN	0.000000	0.001608	0.001667	28.0832	0.058054	0.001987	29.2187	99.2164	-165.227	-0.042372	0.073348	-0.955668	-0.956932	0.008518	29.2187	-0.955887	-5.773142E+12	-1.475498E-15	NaN
1158	1.000000	0.082614	7.37638e+06	-57689.1	1105.82	-29736.5	0.000000	0.000000	6.082750	-0.021983	NaN	0.000000	0.001650	0.001653	28.0834	0.098328	0.001957	50.243	-139.912	-167.364	-0.057025	0.081299	-0.947666	-0.948981	-0.021983	50.243	-0.947337	-4.427072E+12	4.965675E-15	NaN
1158	1.000000	0.090598	7.37638e+06	-57689.1	1105.82	-29736.5	0.000000	0.000000	6.090735	0.029920	NaN	0.000000	0.001655	0.001645	28.083	0.065698	0.001925	34.1307	-54.1979	-165.083	-0.040175	0.089301	-0.939682	-0.940979	0.029920	34.1307	-0.940340	-3.562203E+12	-8.399368E-15	NaN
1158	1.000000	0.098642	7.37638e+06	-57689.1	1105.82	-29736.5	0.000000	0.000000	6.098777	-0.011900	NaN	0.000000	0.001649	0.001632	28.0835	0.034951	0.001893	18.4654	-75.9375	-164.255	-0.027062	0.097327	-0.931638	-0.932953	-0.011900	18.4654	-0.931155	-2.677837E+12	4.443806E-15	NaN
1158	1.000000	0.106643	7.37638e+06	-57689.1	1105.82	-29736.5	0.000000	0.000000	6.106780	0.021580	NaN	0.000000	0.001682	0.001670	28.0818	0.030857	0.002084	14.8067	106.871	-163.135	-0.024746	0.105282	-0.923637	-0.924998	0.021580	14.8067	-0.924731	-2.193160E+12	-9.839597E-15	NaN
1158	1.000000	0.114633	7.37638e+06	-57689.1	1105.82	-29736.5	0.000000	0.000000	6.114770	0.031944	NaN	0.000000	0.001651	0.001659	28.082	0.070093	0.002020	34.7067	-42.0667	-165.358	0.000588	0.113356	-0.915647	-0.916924	0.031944	34.7067	-0.916338	-1.689482E+12	-1.890772E-14	NaN
1158	1.000000	0.122644	7.37638e+06	-57689.1	1105.82	-29736.5	0.000000	0.000000	6.122780	-0.020973	NaN	0.000000	0.001647	0.001676	28.082	0.038509	0.002063	18.6678	-30.5108	-165.799	-0.017710	0.121374	-0.907636	-0.908906	-0.020973	18.6678	-0.906793	-1.255580E+12	1.670396E-14	NaN
1158	1.000000	0.130634	7.37638e+06	-57689.1	1105.82	-29736.5	0.000000	0.000000	6.130768	-0.055579	NaN	0.000000	0.001639	0.001741	28.0821	0.147691	0.002011	73.4324	-142.174	-167.469	-0.014623	0.129310	-0.899646	-0.900970	-0.055579	73.4324	-0.899078	-9.876683E+11	5.627330E-14	NaN
1158	1.000000	0.138673	7.37638e+06	-57689.1	1105.82	-29736.5	0.000000	0.000000	6.138809	-0.000270	NaN	0.000000	0.001666	0.001662	28.0822	0.143886	0.002004	71.7909	124.547	-169.729	-0.079391	0.137381	-0.891607	-0.892899	-0.000270	71.7909	-0.891604	-7.827036E+11	3.444903E-16	NaN
1158	1.000000	0.146658	7.37638e+06	-57689.1	1105.82	-29736.5	0.000000	0.000000	6.146796	0.036641	NaN	0.000000	0.001650	0.001660	28.0816	0.047162	0.001909	24.7057	120.547	-167.317	0.019252	0.145330	-0.883622	-0.884950	0.036641	24.7057	-0.884734	-6.320084E+11	-5.797560E-14	NaN
1158	1.000000	0.154679	7.37638e+06	-57689.1	1105.82	-29736.5	0.000000	0.000000	6.154812	-0.074565	NaN	0.000000	0.001649	0.001673	28.082	0.099048	0.001977	50.1073	61.1916	-167.323	-0.054111	0.153320	-0.875601	-0.876960	-0.074565	50.1073	-0.874485	-4.593210E+11	1.623379E-13	NaN
1158	1.000000	0.162644	7.37638e+06	-57689.1	1105.82	-29736.5	0.000000	0.000000	6.162780	-0.022550	NaN	0.000000	0.001673	0.001667	28.082	0.088371	0.002017	43.8065	7.309782	-167.539	0.006995	0.161328	-0.867636	-0.868952	-0.022550	43.8065	-0.867249	-3.666302E+11	6.150621E-14	NaN
1158	1.000000	0.170657	7.37638e+06	-57689.1	1105.82	-29736.5	0.000000	0.000000	6.170794	0.008317	NaN	0.000000	0.001668	0.001673	28.0818	0.108077	0.002112	51.1698	-68.4741	-165.846	0.052619	0.169302	-0.859623	-0.860978	0.008317	51.1698	-0.859745	-2.901808E+11	-2.865979E-14	NaN
1158	1.000000	0.178650	7.37638e+06	-57689.1	1105.82	-29736.5	0.000000	0.000000	6.178787	0.033138	NaN	0.000000	0.001625	0.001645	28.0818	0.008552	0.002108	4.057789	-132.657	-164.989	0.108657	0.177363	-0.851630	-0.852917	0.033138	4.057789	-0.857755	-2.727295E+11	-1.215041E-13	NaN
1158	1.000000	0.186679	7.37638e+06	-57689.1	1105.82	-29736.5	0.000000	0.000000	6.186819	0.081513	NaN	0.000000	0.001692	0.001666	28.0817	0.036944	0.001902	19.423	-14.9706	-166.18	0.013118	0.185404	-0.843601	-0.844876	0.081513	19.423	-0.846748	-1.935103E+11	-4.212308E-13	NaN
1158	1.000000	0.194676	7.37638e+06	-57689.1	1105.82	-29736.5	0.000000	0.000000	6.194813	0.020386	NaN	0.000000	0.001675	0.001637	28.082	0.090509	0.002082	43.4634	51.2488	-166.665	0.029569	0.193387	-0.835604	-0.836893	0.020386	43.4634	-0.835956	-1.381972E+11	-1.475128E-13	NaN
1158	1.000000	0.202686	7.37638e+06	-57689.1	1105.82	-29736.5	0.000000	0.000000	6.202825	0.062208	NaN	0.000000	0.001691	0.001679	28.082	0.043102	0.002091	20.6167	-153.491	-162.258	0.039736	0.201377	-0.827594	-0.828903	0.062208	20.6167	-0.829857	-1.142457E+11	-5.445088E-13	NaN
1158	1.000000	0.210678	7.37638e+06	-57689.1	1105.82	-29736.5	0.000000	0.000000	6.210814	0.003675	NaN	0.000000	0.001705	0.001675	28.0816	0.073456	0.002064	35.5921	-101.017	-168.219	-0.049177	0.209377	-0.819602	-0.820903	0.003675	35.5921	-0.819679	-8.315031E+10	-4.420123E-14	NaN
1158	1.000000	0.218685	7.37638e+06	-57689.1	1105.82	-29736.5	0.000000	0.000000	6.218824	0.057099	NaN	0.000000	0.001659	0.001648	28.0825	0.097550	0.002077	46.9583	58.1308	-169.187	-0.006398	0.217403	-0.811595	-0.812877	0.057099	46.9583	-0.812507	-6.646339E+10	-8.591065E-13	NaN
1158	1.000000	0.226672	7.37638e+06	-57689.1	1105.82	-29736.5	0.000000	0.000000	6.226809	0.014875	NaN	0.000000	0.001637	0.001669	28.0816	0.046716	0.001970	23.708	44.3808	-163.618	-0.045770	0.225359	-0.803608	-0.804921	0.014875	23.708	-0.804079	-5.107697E+10	-2.912249E-13	NaN
1158	1.000000	0.234676	7.37638e+06	-57689.1	1105.82	-29736.5	0.000000	0.000000	6.234814	0.025612	NaN	0.000000	0.001575	0.001650	28.0822	0.064341	0.002034	31.6272	-166	-162.511	0.071639	0.233354	-0.795604	-0.796926	0.025612	31.6272	-0.796211	-3.994150E+10	-6.412426E-13	NaN
1158	1.000000	0.242697	7.37638e+06	-57689.1	1105.82	-29736.5	0.000000	0.000000	6.242832	-0.034440	NaN	0.000000	0.001587	0.001599	28.0831	0.041243	0.002037	20.2516	-123.796	-168.033	-0.027192	0.241400	-0.787583	-0.788880	-0.034440	20.2516	-0.786307	-2.930371E+10	1.175288E-12	NaN
1158	1.000000	0.250683	7.37638e+06	-57689.1	1105.82	-29736.5	0.000000	0.000000	6.250820	0.017091	NaN	0.000000	0.001642	0.001622	28.0829	0.120203	0.001982	60.6474	-76.5227	-166.339	0.033387	0.249376	-0.779597	-0.780904	0.017091	60.6474	-0.779809	-2.391284E+10	-7.147363E-13	NaN
1158	1.000000	0.258718	7.37638e+06	-57689.1	1105.82	-29736.5	0.000000	0.000000	6.258856	0.059980	NaN	0.000000	0.001636	0.001592	28.083	0.083452	0.002050	40.7092	19.4001	-166.224	0.030593	0.257420	-0.771562	-0.772860	0.059980	40.7092	-0.772667	-1.912358E+10	-3.136431E-12	NaN
1158	1.000000	0.266695	7.37638e+06	-57689.1	1105.82	-29736.5	0.000000	0.000000	6.266832	0.014035	NaN	0.000000	0.001678	0.001626	28.0829	0.062908	0.001895	33.1919	42.8332	-167.169	0.091107	0.265417	-0.763585	-0.764863	0.014035	33.1919	-0.763902	-1.453395E+10	-9.656537E-13	NaN
1158	1.000000	0.274694	7.37638e+06	-57689.1	1105.82	-29736.5	0.000000	0.000000	6.274831	0.021908	NaN	0.000000	0.001677	0.001590	28.0834	0.171627	0.002045	83.9211	-29.1819	-165.279	0.120577	0.273437	-0.755586	-0.756843	0.021908	83.9211	-0.755782	-1.126976E+10	-1.943966E-12	NaN
1158	1.000000	0.282695	7.37638e+06	-57689.1	1105.82	-29736.5	0.000000	0.000000	6.282829	-0.058137	NaN	0.000000	0.001705	0.001604	28.0829	0.053190	0.002073	25.6642	-4.232489	-167.89	0.028317	0.281403	-0.747585	-0.748877	-0.058137	25.6642	-0.745886	-8.264464E+9	7.034529E-12	NaN
1158	1.000000	0.290706	7.37638e+06	-57689.1	1105.82	-29736.5	0.000000	0.000000	6.290845	0.056886	NaN	0.000000	0.001646	0.001594	28.083	0.077232	0.001962	39.3651	85.7371	-166.777	0.011546	0.289390	-0.739574	-0.740890	0.056886	39.3651	-0.740658	-7.014816E+9	-8.109401E-12	NaN
1158	1.000000	0.298728	7.37638e+06	-57689.1	1105.82	-29736.5	0.000000	0.000000	6.298863	-0.032078	NaN	0.000000	0.001653	0.001585	28.0827	0.075509	0.001995	37.8497	143.554	-169.292	-0.078682	0.297402	-0.731552	-0.732878	-0.032078	37.8497	-0.730916	-5.167659E+9	6.207383E-12	NaN
1158	1.000000	0.306744	7.37638e+06	-57689.1	1105.82	-29736.5	0.000000	0.000000	6.306877	-0.076588	NaN	0.000000	0.001643	0.001605	28.0826	0.001575	0.002042	0.771248	103.286	-168.125	-0.101002	0.305393	-0.723536	-0.724887	-0.076588	0.771248	-0.649058	-3.931157E+8	1.948238E-10	NaN
1158	1.000000	0.314706	7.37638e+06	-57689.1	1105.82	-29736.5	0.000000	0.000000	6.314846	0.082630	NaN	0.000000	0.001613	0.001604	28.0828	0.105522	0.001966	53.682	-62.9056	-166.99	0.066843	0.313442	-0.715574	-0.716838	0.082630	53.682	-0.716728	-3.310172E+9	-2.496248E-11	NaN
1158	1.000000	0.322709	7.37638e+06	-57689.1	1105.82	-29736.5	0.000000	0.000000	6.322845	-0.003956	NaN	0.000000	0.001611	0.001603	28.0827	0.049317	0.001897	25.9948	-114.452	-164.507	-0.075507	0.321393	-0.707571	-0.708887	-0.003956	25.9948	-0.707457	-2.473690E+9	1.599181E-12	NaN
1158	1.000000	0.330728	7.37638e+06	-57689.1	1105.82	-29736.5	0.000000	0.000000	6.330865	0.008221	NaN	0.000000	0.001689	0.001644	28.0829	0.155185	0.001976	78.5197	159.421	-163.492	0.040796	0.329423	-0.699552	-0.700857	0.008221	78.5197	-0.699630	-1.934126E+9	-4.250357E-12	NaN
1158	1.000000	0.338739	7.37638e+06	-57689.1	1105.82	-29736.5	0.000000	0.000000	6.338872	-0.094235	NaN	0.000000	0.001623	0.001633	28.0827	0.109184	0.001903	57.3637	154.445	-166.724	-0.041471	0.337432	-0.691541	-0.692848	-0.094235	57.3637	-0.690309	-1.442570E+9	6.532408E-11	NaN
1158	1.000000	0.346749	7.37638e+06	-57689.1	1105.82	-29736.5	0.000000	0.000000	6.346887	0.021869	NaN	0.000000	0.001664	0.001637	28.0829	0.080428	0.001937	41.5293	-68.6352	-166.335	0.083152	0.345359	-0.683531	-0.684921	0.021869	41.5293	-0.683926	-1.180009E+9	-1.853324E-11	NaN
1158	1.000000	0.354720	7.37638e+06	-57689.1	1105.82	-29736.5	0.000000	0.000000	6.354856	-0.007111	NaN	0.000000	0.001604	0.001621	28.0827	0.033997	0.001990	17.0802	-143.96	-166.996	0.052082	0.353469	-0.675560	-0.676811	-0.007111	17.0802	-0.675248	-8.978480E+8	7.920249E-12	NaN
1158	1.000000	0.362747	7.37638e+06	-57689.1	1105.82	-29736.5	0.000000	0.000000	6.362882	-0.027777	NaN	0.000000	0.001649	0.001573	28.0826	0.043099	0.001968	21.8947	66.7727	-166.184	0.023126	0.361404	-0.667533	-0.668876	-0.027777	21.8947	-0.666581	-6.832735E+8	4.065230E-11	NaN
1158	1.000000	0.370749	7.37638e+06	-57689.1	1105.82	-29736.5	0.000000	0.000000	6.370884	-0.027025	NaN	0.000000	0.001635	0.001572	28.0828	0.118035	0.002012	58.6647	28.9987	-166.676	-0.051889	0.369437	-0.659531	-0.660843	-0.027025	58.6647	-0.659186	-5.411435E+8	4.994090E-11	NaN
1158	1.000000	0.378743	7.37638e+06	-57689.1	1105.82	-29736.5	0.000000	0.000000	6.378877	-0.043146	NaN	0.000000	0.001641	0.001610	28.0816	0.117479	0.001985	59.192	-58.5912	-165.528	0.044111	0.377412	-0.651537	-0.652868	-0.043146	59.192	-0.650991	-4.178479E+8	1.032581E-10	NaN
1158	1.000000	0.386765	7.37638e+06	-57689.1	1105.82	-29736.5	0.000000	0.000000	6.386901	-0.024213	NaN	0.000000	0.001655	0.001641	28.0821	0.081812	0.002089	39.1632	38.9523	-164.159	-0.069728	0.385464	-0.643514	-0.644816	-0.024213	39.1632	-0.643051	-3.251942E+8	7.445795E-11	NaN
1158	1.000000	0.394767	7.37638e+06	-57689.1	1105.82	-29736.5	0.000000	0.000000	6.394904	0.021518	NaN	0.000000	0.001603	0.001608	28.0816	0.082984	0.002120	39.1391	138.115	-167.131	0.086129	0.393472	-0.635513	-0.636808	0.021518	39.1391	-0.635925	-2.596417E+8	-8.287556E-11	NaN
1158	1.000000	0.402777	7.37638e+06	-57689.1	1105.82	-29736.5	0.000000	0.000000	6.402913	0.000372	NaN	0.000000	0.001639	0.001582	28.0815	0.020692	0.002118	9.767472	-105.126	-165.745	0.028586	0.401419	-0.627503	-0.628861	0.000372	9.767472	-0.627532	-1.991235E+8	-1.865724E-12	NaN
1158	1.000000	0.410742	7.37638e+06	-57689.1	1105.82	-29736.5	0.000000	0.000000	6.410878	0.003424	NaN	0.000000	0.001614	0.001625	28.0816	0.028889	0.002014	14.3435	27.5125	-164.185	0.006962	0.409525	-0.619538	-0.620755	0.003424	14.3435	-0.619717	-1.555052E+8	-2.201653E-11	NaN
1158	1.000000	0.418769	7.37638e+06	-57689.1	1105.82	-29736.5	0.000000	0.000000	6.418907	0.037109	NaN	0.000000	0.001670	0.001588	28.0815	0.092457	0.001994	46.3575	90.0686	-164.818	0.046956	0.417435	-0.611511	-0.612845	0.037109	46.3575	-0.612112	-1.222259E+8	-3.036136E-10	NaN
1158	1.000000	0.426775	7.37638e+06	-57689.1	1105.82	-29736.5	0.000000	0.000000	6.426914	0.076050	NaN	0.000000	0.001634	0.001609	28.0816	0.075493	0.002004	37.6735	-27.1335	-167.728	0.066118	0.425477	-0.603505	-0.604803	0.076050	37.6735	-0.605019	-9.762721E+7	-7.789844E-10	NaN
1158	1.000000	0.434797	7.37638e+06	-57689.1	1105.82	-29736.5	0.000000	0.000000	6.434934	0.014729	NaN	0.000000	0.001606	0.001601	28.0815	0.017262	0.002005	8.611677	-65.5893	-164.203	-0.016964	0.433502	-0.595483	-0.596778	0.014729	8.611677	-0.596766	-7.514741E+7	-1.959995E-10	NaN
1158	1.000000	0.442767	7.37638e+06	-57689.1	1105.82	-29736.5	0.000000	0.000000	6.442904	0.013501	NaN	0.000000	0.001636	0.001587	28.0814	0.044848	0.002074	21.6221	28.5101	-166.992	0.058569	0.441440	-0.587513	-0.588840	0.013501	21.6221	-0.587981	-5.686275E+7	-2.374334E-10	NaN
1158	1.000000	0.450761	7.37638e+06	-57689.1	1105.82	-29736.5	0.000000	0.000000	6.450898	0.014356	NaN	0.000000	0.001634	0.001605	28.0815	0.087426	0.001967	44.4361	164.804	-166.685	0.078345	0.449437	-0.579519	-0.580843	0.014356	44.4361	-0.579761	-4.379569E+7	-3.277850E-10	NaN
1158	1.000000	0.458792	7.37638e+06	-57689.1	1105.82	-29736.5	0.000000	0.000000	6.458927	-0.027653	NaN	0.000000	0.001641	0.001614	28.0815	0.080596	0.001964	41.0377	126.376	-165.835	-0.017042	0.457516	-0.571488	-0.572764	-0.027653	41.0377	-0.570983	-3.312923E+7	8.347007E-10	NaN
1158	1.000000	0.466812	7.37638e+06	-57689.1	1105.82	-29736.5	0.000000	0.000000	6.466951	0.052085	NaN	0.000000	0.001673	0.001594	28.0817	0.037427	0.002014	18.583	35.9166	-165.369	-0.021419	0.465508	-0.563468	-0.564772	0.052085	18.583	-0.565570	-2.788710E+7	-1.867721E-9	NaN
1158	1.000000	0.474772	7.37638e+06	-57689.1	1105.82	-29736.5	0.000000	0.000000	6.474906	-0.038981	NaN	0.000000	0.001682	0.001572	28.0815	0.029258	0.002030	14.4102	-49.8311	-164.328	-0.058097	0.473521	-0.555508	-0.556759	-0.038981	14.4102	-0.553479	-1.897315E+7	2.054519E-9	NaN
1158	1.000000	0.482791	7.37638e+06	-57689.1	1105.82	-29736.5	0.000000	0.000000	6.482928	0.016629	NaN	0.000000	0.001617	0.001571	28.0815	0.062449	0.002027	30.8092	131.05	-165.475	-0.032084	0.481443	-0.547489	-0.548837	0.016629	30.8092	-0.547894	-1.587757E+7	-1.047331E-9	NaN
1158	1.000000	0.490807	7.37638e+06	-57689.1	1105.82	-29736.5	0.000000	0.000000	6.490942	-0.021421	NaN	0.000000	0.001642	0.001616	28.0815	0.054113	0.002010	26.9193	-106.687	-164.16	-0.055953	0.489492	-0.539473	-0.540788	-0.021421	26.9193	-0.538876	-1.190615E+7	1.799155E-9	NaN
1158	1.000000	0.498778	7.37638e+06	-57689.1	1105.82	-29736.5	0.000000	0.000000	6.498913	-0.025864	NaN	0.000000	0.001602	0.001571	28.0815	0.037708	0.002113	17.843	-98.107	-163.853	0.058459	0.497495	-0.531502	-0.532785	-0.025864	17.843	-0.530415	-9.08533e+06	2.846770E-9	NaN
1158	1.000000	0.506779	7.37638e+06	-57689.1	1105.82	-29736.5	0.000000	0.000000	6.506914	-0.023990	NaN	0.000000	0.001647	0.001604	28.0816	0.091761	0.002016	45.5095	172.89	-165.495	-0.037878	0.505469	-0.523501	-0.524811	-0.023990	45.5095	-0.523106	-7.19082e+06	3.336260E-9	NaN
1158	1.000000	0.514806	7.37638e+06	-57689.1	1105.82	-29736.5	0.000000	0.000000	6.514940	-0.071233	NaN	0.000000	0.001655	0.001612	28.0826	0.073053	0.002008	36.3737	165.511	-165.3	-0.064863	0.513511	-0.515474	-0.516769	-0.071233	36.3737	-0.514005	-5.37257e+06	1.325862E-8	NaN
1158	1.000000	0.522800	7.37638e+06	-57689.1	1105.82	-29736.5	0.000000	0.000000	6.522936	0.002134	NaN	0.000000	0.001661	0.001625	28.0826	0.106792	0.001893	56.421	-170.913	-168.113	-0.011872	0.521489	-0.507480	-0.508791	0.002134	56.421	-0.507508	-4.36217e+06	-4.891882E-10	NaN
1158	1.000000	0.530819	7.37638e+06	-57689.1	1105.82	-29736.5	0.000000	0.000000	6.530957	0.061064	NaN	0.000000	0.001644	0.001665	28.0827	0.092642	0.001993	46.4778	-153.544	-164.423	0.040414	0.529495	-0.499461	-0.500785	0.061064	46.4778	-0.500447	-3.47735e+06	-1.756054E-8	NaN
1158	1.000000	0.538813	7.37638e+06	-57689.1	1105.82	-29736.5	0.000000	0.000000	6.538950	0.023838	NaN	0.000000	0.001634	0.001700	28.0827	0.012709	0.002006	6.336257	-42.5782	-163.778	0.066088	0.537505	-0.491467	-0.492775	0.023838	6.336257	-0.494288	-2.85298e+06	-8.355419E-9	NaN
1158	1.000000	0.546835	7.37638e+06	-57689.1	1105.82	-29736.5	0.000000	0.000000	6.546973	0.033108	NaN	0.000000	0.001634	0.001680	28.0826	0.080374	0.002094	38.3845	161.401	-166.055	0.017081	0.545489	-0.483445	-0.484791	0.033108	38.3845	-0.484092	-2.05489e+06	-1.611167E-8	NaN
1158	1.000000	0.554807	7.37638e+06	-57689.1	1105.82	-29736.5	0.000000	0.000000	6.554944	0.023677	NaN	0.000000	0.001622	0.001681	28.0827	0.080453	0.002043	39.3773	50.0064	-165.373	0.027179	0.553492	-0.475473	-0.476788	0.023677	39.3773	-0.475924	-1.57922e+06	-1.499276E-8	NaN
1158	1.000000	0.562820	7.37638e+06	-57689.1	1105.82	-29736.5	0.000000	0.000000	6.562956	-0.008876	NaN	0.000000	0.001641	0.001630	28.0825	0.131348	0.001969	66.7204	-27.9076	-167.837	0.027327	0.561468	-0.467460	-0.468812	-0.008876	66.7204	-0.467360	-1.19777e+06	7.410405E-9	NaN
1158	1.000000	0.570822	7.37638e+06	-57689.1	1105.82	-29736.5	0.000000	0.000000	6.570960	0.043820	NaN	0.000000	0.001654	0.001672	28.0824	0.118855	0.001863	63.8084	109.231	-167.861	0.013250	0.569552	-0.459458	-0.460728	0.043820	63.8084	-0.459973	-943266	-4.645568E-8	NaN
1158	1.000000	0.578802	7.37638e+06	-57689.1	1105.82	-29736.5	0.000000	0.000000	6.578939	0.024372	NaN	0.000000	0.001681	0.001693	28.0826	0.064587	0.002018	31.9986	77.6467	-164.75	0.010055	0.577499	-0.451478	-0.452781	0.024372	31.9986	-0.452049	-729786	-3.339624E-8	NaN
1158	1.000000	0.586856	7.37638e+06	-57689.1	1105.82	-29736.5	0.000000	0.000000	6.586991	-0.037639	NaN	0.000000	0.001706	0.001664	28.0826	0.089864	0.001948	46.1409	152.224	-168.935	-0.040169	0.585520	-0.443424	-0.444760	-0.037639	46.1409	-0.442812	-540802	6.959903E-8	NaN
1158	1.000000	0.594861	7.37638e+06	-57689.1	1105.82	-29736.5	0.000000	0.000000	6.594999	0.036844	NaN	0.000000	0.001644	0.001700	28.0829	0.056653	0.001935	29.2777	102.412	-166.598	0.027490	0.593516	-0.435419	-0.436764	0.036844	29.2777	-0.436362	-438533	-8.401711E-8	NaN
1158	1.000000	0.602813	7.37638e+06	-57689.1	1105.82	-29736.5	0.000000	0.000000	6.602951	0.054849	NaN	0.000000	0.001666	0.001694	28.0827	0.025513	0.002083	12.2498	-88.8479	-164.131	-0.010409	0.601557	-0.427467	-0.428723	0.054849	12.2498	-0.430825	-366214	-1.497731E-7	NaN
1158	1.000000	0.610829	7.37638e+06	-57689.1	1105.82	-29736.5	0.000000	0.000000	6.610965	0.000254	NaN	0.000000	0.001659	0.001685	28.0828	0.090150	0.002039	44.206	-12.6919	-166.083	-0.059602	0.609582	-0.419451	-0.420698	0.000254	44.206	-0.419455	-252750	-1.006480E-9	NaN
1158	1.000000	0.618868	7.37638e+06	-57689.1	1105.82	-29736.5	0.000000	0.000000	6.619006	0.047934	NaN	0.000000	0.001633	0.001662	28.0829	0.104984	0.002056	51.0543	85.4842	-166.096	0.158212	0.617580	-0.411412	-0.412700	0.047934	51.0543	-0.412116	-198832	-2.410755E-7	NaN
1158	1.000000	0.626856	7.37638e+06	-57689.1	1105.82	-29736.5	0.000000	0.000000	6.626993	0.012627	NaN	0.000000	0.001650	0.001642	28.0826	0.048936	0.001946	25.1517	-59.895	-166.811	0.065576	0.625546	-0.403424	-0.404734	0.012627	25.1517	-0.403801	-151414	-8.339097E-8	NaN
1158	1.000000	0.634883	7.37638e+06	-57689.1	1105.82	-29736.5	0.000000	0.000000	6.635020	0.018306	NaN	0.000000	0.001637	0.001654	28.083	0.035805	0.001981	18.0739	-40.4999	-169.043	0.020058	0.633596	-0.395397	-0.396684	0.018306	18.0739	-0.396157	-117803	-1.553982E-7	NaN
1158	1.000000	0.642866	7.37638e+06	-57689.1	1105.82	-29736.5	0.000000	0.000000	6.643000	-0.040016	NaN	0.000000	0.001644	0.001667	28.0826	0.081901	0.001939	42.2482	99.6311	-166.525	-0.070415	0.641523	-0.387414	-0.388757	-0.040016	42.2482	-0.386704	-86296	4.637089E-7	NaN
1158	1.000000	0.650891	7.37638e+06	-57689.1	1105.82	-29736.5	0.000000	0.000000	6.651028	0.034412	NaN	0.000000	0.001646	0.001681	28.0816	0.027573	0.001996	13.8144	32.2135	-165.242	-0.067023	0.649532	-0.379389	-0.380748	0.034412	13.8144	-0.381258	-72100.1	-4.772849E-7	NaN
1158	1.000000	0.658853	7.37638e+06	-57689.1	1105.82	-29736.5	0.000000	0.000000	6.658989	-0.006876	NaN	0.000000	0.001688	0.001672	28.0815	0.136758	0.002041	67.0039	-118.629	-169.021	0.009919	0.657609	-0.371427	-0.372671	-0.006876	67.0039	-0.371350	-51948	1.323645E-7	NaN
1158	1.000000	0.666906	7.37638e+06	-57689.1	1105.82	-29736.5	0.000000	0.000000	6.667043	-0.000145	NaN	0.000000	0.001698	0.001686	28.0812	0.110483	0.002066	53.4663	132.928	-164.136	-0.016034	0.665644	-0.363374	-0.364636	-0.000145	53.4663	-0.363372	-39861.3	3.649057E-9	NaN
1158	1.000000	0.674876	7.37638e+06	-57689.1	1105.82	-29736.5	0.000000	0.000000	6.675013	0.030654	NaN	0.000000	0.001664	0.001674	28.0813	0.120825	0.002017	59.8987	117.321	-162.933	0.107210	0.673569	-0.355404	-0.356711	0.030654	59.8987	-0.355788	-30967.6	-9.898836E-7	NaN
1158	1.000000	0.682900	7.37638e+06	-57689.1	1105.82	-29736.5	0.000000	0.000000	6.683036	0.006355	NaN	0.000000	0.001671	0.001690	28.0813	0.096804	0.001945	49.7718	-11.4127	-166.518	-0.031254	0.681591	-0.347380	-0.348689	0.006355	49.7718	-0.347476	-23461.3	-2.708920E-7	NaN
1158	1.000000	0.690863	7.37638e+06	-57689.1	1105.82	-29736.5	0.000000	0.000000	6.691000	0.021836	NaN	0.000000	0.001654	0.001702	28.0816	0.057031	0.001969	28.9703	28.4894	-163.464	-0.008778	0.689567	-0.339417	-0.340713	0.021836	28.9703	-0.339982	-18251.3	-1.196434E-6	NaN
1158	1.000000	0.698861	7.37638e+06	-57689.1	1105.82	-29736.5	0.000000	0.000000	6.698998	0.020714	NaN	0.000000	0.001658	0.001679	28.0813	0.027290	0.001924	14.1857	-66.9977	-166.153	0.036349	0.697586	-0.331419	-0.332694	0.020714	14.1857	-0.332514	-14198.8	-1.458885E-6	NaN
1158	1.000000	0.706905	7.37638e+06	-57689.1	1105.82	-29736.5	0.000000	0.000000	6.707042	0.033253	NaN	0.000000	0.001650	0.001682	28.0812	0.129133	0.001993	64.7794	128.136	-167.844	-0.003431	0.705605	-0.323375	-0.324675	0.033253	64.7794	-0.323760	-10566.6	-3.146990E-6	NaN
1158	1.000000	0.714914	7.37638e+06	-57689.1	1105.82	-29736.5	0.000000	0.000000	6.715046	-0.083261	NaN	0.000000	0.001671	0.001673	28.0816	0.044901	0.001876	23.932	167.829	-168.458	0.013904	0.713580	-0.315366	-0.316700	-0.083261	23.932	-0.312757	-7274.88	1.144500E-5	NaN
1158	1.000000	0.722901	7.37638e+06	-57689.1	1105.82	-29736.5	0.000000	0.000000	6.723038	-0.002206	NaN	0.000000	0.001630	0.001650	28.0814	0.039569	0.002145	18.4497	166.701	-162.933	-0.025892	0.721615	-0.307379	-0.308665	-0.002206	18.4497	-0.307289	-6038.15	3.653284E-7	NaN
1158	1.000000	0.730911	7.37638e+06	-57689.1	1105.82	-29736.5	0.000000	0.000000	6.731048	0.005520	NaN	0.000000	0.001646	0.001681	28.0813	0.021656	0.002000	10.8309	-176.489	-167.878	-0.043638	0.729626	-0.299369	-0.300654	0.005520	10.8309	-0.299751	-4665.83	-1.183066E-6	NaN
1158	1.000000	0.738866	7.37638e+06	-57689.1	1105.82	-29736.5	0.000000	0.000000	6.739002	-0.003341	NaN	0.000000	0.001657	0.001687	28.0814	0.074694	0.002006	37.2304	168.342	-166.229	0.066166	0.737562	-0.291414	-0.292718	-0.003341	37.2304	-0.291347	-3495.17	9.559004E-7	NaN
1158	1.000000	0.746902	7.37638e+06	-57689.1	1105.82	-29736.5	0.000000	0.000000	6.747040	0.021284	NaN	0.000000	0.001648	0.001703	28.0815	0.014717	0.001986	7.410244	-49.6851	-162.299	-0.041899	0.745583	-0.283378	-0.284697	0.021284	7.410244	-0.285532	-2859.28	-7.443649E-6	NaN
1158	1.000000	0.754929	7.37638e+06	-57689.1	1105.82	-29736.5	0.000000	0.000000	6.755067	0.040933	NaN	0.000000	0.001684	0.001689	28.0818	0.018753	0.001917	9.780736	164.168	-168.016	-0.009761	0.753592	-0.275351	-0.276688	0.040933	9.780736	-0.278490	-2239.65	-1.827674E-5	NaN
1158	1.000000	0.762900	7.37638e+06	-57689.1	1105.82	-29736.5	0.000000	0.000000	6.763033	-0.069135	NaN	0.000000	0.001655	0.001658	28.0813	0.153607	0.002093	73.3862	109.061	-164.761	-0.003096	0.761585	-0.267380	-0.268695	-0.069135	73.3862	-0.266673	-1482.21	4.664345E-5	NaN
1158	1.000000	0.770918	7.37638e+06	-57689.1	1105.82	-29736.5	0.000000	0.000000	6.771054	-0.002658	NaN	0.000000	0.001626	0.001700	28.0811	0.026229	0.002083	12.5892	-136.739	-164.06	-0.031894	0.769591	-0.259362	-0.260689	-0.002658	12.5892	-0.259204	-1139.48	2.332512E-6	NaN
1158	1.000000	0.778945	7.37638e+06	-57689.1	1105.82	-29736.5	0.000000	0.000000	6.779080	-0.045120	NaN	0.000000	0.001649	0.001676	28.0812	0.080359	0.001967	40.8636	-76.2631	-166.878	-0.056503	0.777614	-0.251335	-0.252666	-0.045120	40.8636	-0.250507	-837.146	5.389753E-5	NaN
1158	1.000000	0.786929	7.37638e+06	-57689.1	1105.82	-29736.5	0.000000	0.000000	6.787066	0.024445	NaN	0.000000	0.001658	0.001672	28.0827	0.059074	0.001877	31.4644	-178.678	-164.587	0.036693	0.785629	-0.243351	-0.244651	0.024445	31.4644	-0.243933	-662.016	-3.692534E-5	NaN
1158	1.000000	0.794939	7.37638e+06	-57689.1	1105.82	-29736.5	0.000000	0.000000	6.795072	-0.073781	NaN	0.000000	0.001643	0.001682	28.0828	0.072903	0.002040	35.7416	-177.43	-165.98	-0.021492	0.793648	-0.235341	-0.236632	-0.073781	35.7416	-0.233793	-459.498	0.000161	NaN
1158	1.000000	0.802931	7.37638e+06	-57689.1	1105.82	-29736.5	0.000000	0.000000	6.803066	-0.009658	NaN	0.000000	0.001655	0.001680	28.0829	0.020331	0.002021	10.0604	145.938	-163.64	-0.060780	0.801628	-0.227349	-0.228652	-0.009658	10.0604	-0.226629	-354.152	2.726968E-5	NaN
1158	1.000000	0.810927	7.37638e+06	-57689.1	1105.82	-29736.5	0.000000	0.000000	6.811062	-0.028186	NaN	0.000000	0.001640	0.001651	28.0826	0.059639	0.001992	29.9334	162.335	-167.512	-0.074674	0.809639	-0.219353	-0.220641	-0.028186	29.9334	-0.218647	-264.265	0.000107	NaN
1158	1.000000	0.818932	7.37638e+06	-57689.1	1105.82	-29736.5	0.000000	0.000000	6.819068	0.002524	NaN	0.000000	0.001666	0.001722	28.0827	0.012292	0.001978	6.213828	-176.696	-161.682	0.025476	0.817611	-0.211348	-0.212668	0.002524	6.213828	-0.211653	-203.966	-1.237356E-5	NaN
1158	1.000000	0.826940	7.37638e+06	-57689.1	1105.82	-29736.5	0.000000	0.000000	6.827076	0.011745	NaN	0.000000	0.001665	0.001704	28.0826	0.074206	0.002090	35.5026	16.9154	-164.179	0.019601	0.825622	-0.203340	-0.204658	0.011745	35.5026	-0.203588	-150.838	-7.786761E-5	NaN
1158	1.000000	0.834936	7.37638e+06	-57689.1	1105.82	-29736.5	0.000000	0.000000	6.835073	0.021899	NaN	0.000000	0.001681	0.001697	28.0826	0.055841	0.001974	28.2871	-10.5709	-166.402	0.070415	0.833660	-0.195344	-0.196620	0.021899	28.2871	-0.195925	-112.851	-0.000194	NaN
1158	1.000000	0.842953	7.37638e+06	-57689.1	1105.82	-29736.5	0.000000	0.000000	6.843090	0.027461	NaN	0.000000	0.001645	0.001720	28.0831	0.012653	0.001986	6.370610	82.0924	-166.304	-0.082916	0.841638	-0.187327	-0.188642	0.027461	6.370610	-0.190560	-91.9139	-0.000299	NaN
1158	1.000000	0.850931	7.37638e+06	-57689.1	1105.82	-29736.5	0.000000	0.000000	6.851067	0.007704	NaN	0.000000	0.001611	0.001665	28.0829	0.081437	0.001864	43.6941	44.188	-165.309	-0.069824	0.849563	-0.179349	-0.180717	0.007704	43.6941	-0.179481	-59.7917	-0.000129	NaN
1158	1.000000	0.858955	7.37638e+06	-57689.1	1105.82	-29736.5	0.000000	0.000000	6.859092	0.010187	NaN	0.000000	0.001653	0.001659	28.0847	0.071599	0.001972	36.3067	-60.6507	-167.558	0.096547	0.857646	-0.171325	-0.172634	0.010187	36.3067	-0.171535	-43.6744	-0.000233	NaN
1158	1.000000	0.866995	7.37638e+06	-57689.1	1105.82	-29736.5	0.000000	0.000000	6.867133	0.036359	NaN	0.000000	0.001635	0.001649	28.0863	0.047865	0.001959	24.4285	120.676	-167.867	0.033431	0.865652	-0.163285	-0.164628	0.036359	24.4285	-0.164401	-32.7935	-0.001109	NaN
1158	1.000000	0.874942	7.37638e+06	-57689.1	1105.82	-29736.5	0.000000	0.000000	6.875076	-0.077639	NaN	0.000000	0.001640	0.001617	28.0834	0.108792	0.001964	55.3884	-124.083	-163.979	-0.093924	0.873671	-0.155338	-0.156609	-0.077639	55.3884	-0.154286	-21.6633	0.003584	NaN
1158	1.000000	0.882930	7.37638e+06	-57689.1	1105.82	-29736.5	0.000000	0.000000	6.883067	0.028173	NaN	0.000000	0.001619	0.001678	28.0835	0.091195	0.001955	46.6557	-6.801926	-167.249	0.004149	0.881624	-0.147350	-0.148656	0.028173	46.6557	-0.147803	-16.5127	-0.001706	NaN
1158	1.000000	0.890958	7.37638e+06	-57689.1	1105.82	-29736.5	0.000000	0.000000	6.891095	0.013329	NaN	0.000000	0.001645	0.001680	28.0829	0.098603	0.001908	51.6889	-38.9352	-166.261	0.054112	0.889633	-0.139322	-0.140647	0.013329	51.6889	-0.139515	-11.584	-0.001151	NaN
1158	1.000000	0.898979	7.37638e+06	-57689.1	1105.82	-29736.5	0.000000	0.000000	6.899114	-0.026823	NaN	0.000000	0.001678	0.001674	28.0826	0.011485	0.002079	5.524993	136.321	-164.957	-0.040651	0.897644	-0.131301	-0.132636	-0.026823	5.524993	-0.127660	-6.860651	0.003910	NaN
1158	1.000000	0.906974	7.37638e+06	-57689.1	1105.82	-29736.5	0.000000	0.000000	6.907111	0.022788	NaN	0.000000	0.001677	0.001681	28.0825	0.027862	0.001977	14.091	-68.4088	-167.14	-0.022126	0.905658	-0.123306	-0.124622	0.022788	14.091	-0.124519	-5.949293	-0.003830	NaN
1158	1.000000	0.914991	7.37638e+06	-57689.1	1105.82	-29736.5	0.000000	0.000000	6.915130	0.088268	NaN	0.000000	0.001658	0.001641	28.0827	0.009505	0.001961	4.847712	-3.358651	-166.206	0.018164	0.913638	-0.115289	-0.116642	0.088268	4.847712	-0.128945	-7.269246	-0.012143	NaN
1158	1.000000	0.922946	7.37638e+06	-57689.1	1105.82	-29736.5	0.000000	0.000000	6.923081	-0.044178	NaN	0.000000	0.001674	0.001667	28.0817	0.040462	0.001983	20.4094	142.251	-168.554	-0.040351	0.921659	-0.107334	-0.108621	-0.044178	20.4094	-0.105710	-2.434932	0.018143	NaN
1158	1.000000	0.930979	7.37638e+06	-57689.1	1105.82	-29736.5	0.000000	0.000000	6.931115	-0.022274	NaN	0.000000	0.001659	0.001647	28.0815	0.111745	0.001925	58.0615	14.6562	-162.516	-0.040308	0.929657	-0.099301	-0.100623	-0.022274	58.0615	-0.099013	-1.737133	0.012822	NaN
1158	1.000000	0.938968	7.37638e+06	-57689.1	1105.82	-29736.5	0.000000	0.000000	6.939104	-0.013734	NaN	0.000000	0.001649	0.001662	28.0815	0.134196	0.002061	65.1211	75.3365	-164.014	-0.119239	0.937705	-0.091312	-0.092575	-0.013734	65.1211	-0.091154	-1.150270	0.011940	NaN
1158	1.000000	0.947003	7.37638e+06	-57689.1	1105.82	-29736.5	0.000000	0.000000	6.947137	-0.047283	NaN	0.000000	0.001629	0.001628	28.0815	0.081559	0.001856	43.9481	87.9445	-165.002	-0.062660	0.945690	-0.083277	-0.084590	-0.047283	43.9481	-0.082470	-0.712784	0.066335	NaN
1158	1.000000	0.955014	7.37638e+06	-57689.1	1105.82	-29736.5	0.000000	0.000000	6.955150	-0.010603	NaN	0.000000	0.001684	0.001653	28.0816	0.087316	0.002034	42.9323	-144.192	-165.687	0.053740	0.953719	-0.075266	-0.076561	-0.010603	42.9323	-0.075081	-0.464094	0.022848	NaN
1158	1.000000	0.963000	7.37638e+06	-57689.1	1105.82	-29736.5	0.000000	0.000000	6.963137	0.018036	NaN	0.000000	0.001659	0.001672	28.0819	0.046318	0.001922	24.099	156.691	-165.196	0.002576	0.961653	-0.067280	-0.068627	0.018036	24.099	-0.067841	-0.298275	-0.060468	NaN
1158	1.000000	0.970998	7.37638e+06	-57689.1	1105.82	-29736.5	0.000000	0.000000	6.971134	-0.003591	NaN	0.000000	0.001628	0.001671	28.0818	0.047575	0.001999	23.8046	173.699	-167.562	-0.070160	0.969700	-0.059282	-0.060580	-0.003591	23.8046	-0.059169	-0.170451	0.021070	NaN
1158	1.000000	0.978972	7.37638e+06	-57689.1	1105.82	-29736.5	0.000000	0.000000	6.979106	-0.043144	NaN	0.000000	0.001648	0.001593	28.0818	0.046611	0.001991	23.4063	-164.589	-164.93	-0.073022	0.977684	-0.051308	-0.052596	-0.043144	23.4063	-0.049926	-0.090781	0.475255	NaN
1158	1.000000	0.987002	7.37638e+06	-57689.1	1105.82	-29736.5	0.000000	0.000000	6.987137	-0.016697	NaN	0.000000	0.001634	0.001657	28.082	0.023058	0.002116	10.8987	-145.78	-167.513	-0.001761	0.985688	-0.043278	-0.044592	-0.016697	10.8987	-0.042129	-0.052507	0.318002	NaN
1158	1.000000	0.994993	7.37638e+06	-57689.1	1105.82	-29736.5	0.000000	0.000000	6.995130	0.012874	NaN	0.000000	0.001609	0.001638	28.0816	0.107315	0.002044	52.5088	-14.342	-165.739	0.012093	0.993661	-0.035287	-0.036619	0.012874	52.5088	-0.035470	-0.033065	-0.389346	NaN
1158	1.000000	1.002986	7.37638e+06	-57689.1	1105.82	-29736.5	0.000000	0.000000	7.003121	-0.051587	NaN	0.000000	0.001649	0.001621	28.0817	0.027658	0.001876	14.7469	-39.6443	-162.934	-0.008017	1.001692	-0.027294	-0.028588	-0.051587	14.7469	-0.024670	-0.016539	3.119059	NaN
1158	1.000000	1.011037	7.37638e+06	-57689.1	1105.82	-29736.5	0.000000	0.000000	7.011172	-0.033236	NaN	0.000000	0.001619	0.001661	28.0817	0.059072	0.002000	29.534	107.416	-168.024	-0.016400	1.009666	-0.019243	-0.020614	-0.033236	29.534	-0.018399	-0.011431	2.907600	NaN
1158	1.000000	1.019039	7.37638e+06	-57689.1	1105.82	-29736.5	0.000000	0.000000	7.019175	-0.019514	NaN	0.000000	0.001603	0.001645	28.0821	0.058663	0.001853	31.6559	72.7306	-169.095	0.007940	1.017669	-0.011240	-0.012611	-0.019514	31.6559	-0.010778	-0.006832	2.856381	NaN
1158	1.000000	1.027052	7.37638e+06	-57689.1	1105.82	-29736.5	0.000000	0.000000	7.027184	-0.114248	NaN	0.000000	0.001629	0.001664	28.0825	0.047123	0.002093	22.5174	63.9734	-164.782	-0.031211	1.025699	-0.003228	-0.004581	-0.114248	22.5174	0.000578	0.000437	-261.636	984.502
1158	1.000000	1.034977	7.37638e+06	-57689.1	1105.82	-29736.5	0.000000	0.000000	7.035220	2.601224	NaN	0.000000	0.001637	0.001647	28.0817	3.476809	0.001985	1751.34	10.2827	-170.892	1.170575	1.033622	0.004697	0.003342	2.601224	1751.34	0.003583	0.002876	904.37	29835.1
1158	2.000000	1.040711	7.37638e+06	-57689.1	1105.82	-29736.5	0.000000	0.000000	7.041195	8.442995	NaN	0.000000	0.001617	0.001671	28.0818	7.430219	0.001680	4421.86	12.1608	-170.602	11.0728	1.040388	0.010431	0.010108	8.442995	4421.86	0.008999	0.008090	1043.58	44915.2
1158	2.000000	1.042674	7.37638e+06	-57689.1	1105.82	-29736.5	0.000000	0.000000	7.043168	8.695927	NaN	0.000000	0.001626	0.001679	28.0815	10.2172	0.001716	5953.26	8.844841	-175.826	8.873124	1.042301	0.012394	0.012022	8.695927	5953.26	0.011298	0.010660	815.722	52679.4
1158	2.000000	1.044664	7.37638e+06	-57689.1	1105.82	-29736.5	0.000000	0.000000	7.045293	11.9825	NaN	0.000000	0.001623	0.001687	28.0829	12.5667	0.001806	6958.85	7.908446	-174.115	11.7264	1.044308	0.014384	0.014028	11.9825	6958.85	0.013092	0.012825	934.326	56141.8
1158	2.000000	1.046669	7.37638e+06	-57689.1	1105.82	-29736.5	0.000000	0.000000	7.047444	15.5171	NaN	0.000000	0.001654	0.001676	28.0828	14.7605	0.001687	8752.09	8.286130	-177.849	15.1775	1.046277	0.016389	0.015997	15.5171	8752.09	0.015059	0.015364	1009.94	64509.8
1158	2.000000	1.048609	7.37638e+06	-57689.1	1105.82	-29736.5	0.000000	0.000000	7.049389	15.649	NaN	0.000000	0.001605	0.001623	28.083	15.5428	0.001669	9314.81	6.153495	-176.328	14.9663	1.048307	0.018329	0.018027	15.649	9314.81	0.017069	0.018144	862.487	63180
1158	2.000000	1.050605	7.37638e+06	-57689.1	1105.82	-29736.5	0.000000	0.000000	7.051506	18.5805	NaN	0.000000	0.001647	0.001662	28.0836	18.3123	0.001779	10295.8	6.307959	-176.551	18.1135	1.050281	0.020325	0.020001	18.5805	10295.8	0.018972	0.020952	886.8	64985.4
1158	2.000000	1.052599	7.37638e+06	-57689.1	1105.82	-29736.5	0.000000	0.000000	7.053640	21.9949	NaN	0.000000	0.001633	0.001684	28.083	19.5042	0.001648	11838.3	3.490150	-174.373	21.69	1.052280	0.022319	0.022000	21.9949	11838.3	0.020925	0.024017	915.811	69792.1
1158	2.000000	1.054557	7.37638e+06	-57689.1	1105.82	-29736.5	0.000000	0.000000	7.055773	26.2603	NaN	0.000000	0.001633	0.001663	28.0828	22.2265	0.001869	11892.1	5.456757	-176.037	24.7785	1.054250	0.024277	0.023970	26.2603	11892.1	0.022620	0.026828	978.822	66333.9
1158	2.000000	1.056600	7.37638e+06	-57689.1	1105.82	-29736.5	0.000000	0.000000	7.057969	29.9576	NaN	0.000000	0.001654	0.001662	28.0828	25.0886	0.001754	14304.9	9.877459	177.065	30.4816	1.056216	0.026320	0.025936	29.9576	14304.9	0.024749	0.030561	980.253	74761
1158	2.000000	1.058529	7.37638e+06	-57689.1	1105.82	-29736.5	0.000000	0.000000	7.060175	36.7033	NaN	0.000000	0.001620	0.001688	28.083	25.6633	0.001724	14885.7	1.836328	-175.94	33.8321	1.058188	0.028249	0.027908	36.7033	14885.7	0.026399	0.033611	1092.02	74183.1
1158	2.000000	1.060635	7.37638e+06	-57689.1	1105.82	-29736.5	0.000000	0.000000	7.062282	36.7148	NaN	0.000000	0.001624	0.001655	28.0831	28.4968	0.001937	14711.1	6.707442	-177.713	40.7179	1.060314	0.030355	0.030034	36.7148	14711.1	0.028483	0.037658	974.944	69260.8
1158	2.000000	1.062569	7.37638e+06	-57689.1	1105.82	-29736.5	0.000000	0.000000	7.064762	49.9849	NaN	0.000000	0.001612	0.001678	28.083	29.7721	0.001852	16076.6	3.180198	-175.966	49.6033	1.062171	0.032289	0.031891	49.9849	16076.6	0.029957	0.040654	1229.52	72847.5
1158	2.000000	1.064552	7.37638e+06	-57689.1	1105.82	-29736.5	0.000000	0.000000	7.066655	47.8141	NaN	0.000000	0.001718	0.001638	28.0827	32.554	0.001869	17414.7	4.155948	-177.811	46.3976	1.064234	0.034272	0.033954	47.8141	17414.7	0.032213	0.045455	1051.9	74627.4
1158	2.000000	1.066559	7.37638e+06	-57689.1	1105.82	-29736.5	0.000000	0.000000	7.069085	58.0672	NaN	0.000000	0.001714	0.001644	28.0827	34.5657	0.001771	19513.4	3.214272	-179.239	56.699	1.066219	0.036279	0.035939	58.0672	19513.4	0.034047	0.049551	1171.86	80090.2
1158	2.000000	1.068582	7.37638e+06	-57689.1	1105.82	-29736.5	0.000000	0.000000	7.071414	65.511	NaN	0.000000	0.001723	0.001662	28.0828	35.5693	0.001741	20434.1	8.227836	176.689	68.1922	1.068231	0.038302	0.037951	65.511	20434.1	0.035898	0.053857	1216.38	80446.4
1158	2.000000	1.070520	7.37638e+06	-57689.1	1105.82	-29736.5	0.000000	0.000000	7.073483	68.6991	NaN	0.000000	0.001704	0.001653	28.0829	39.4305	0.001966	20054.2	6.843808	176.97	67.5979	1.070285	0.040240	0.040005	68.6991	20054.2	0.037671	0.058147	1181.47	75982.7
1158	2.000000	1.072576	7.37638e+06	-57689.1	1105.82	-29736.5	0.000000	0.000000	7.075850	76.274	NaN	0.000000	0.001571	0.001671	28.083	39.9326	0.001774	22513.8	2.143918	-179.163	77.4273	1.072270	0.042296	0.041990	76.274	22513.8	0.039755	0.063397	1203.13	81693.8
1158	2.000000	1.074551	7.37638e+06	-57689.1	1105.82	-29736.5	0.000000	0.000000	7.078190	85.1213	NaN	0.000000	0.001609	0.001693	28.0828	42.0142	0.001798	23367.1	2.079135	-179.175	84.417	1.074253	0.044271	0.043973	85.1213	23367.1	0.041539	0.068067	1250.55	81829.5
1158	2.000000	1.076474	7.37638e+06	-57689.1	1105.82	-29736.5	0.000000	0.000000	7.080597	96.9029	NaN	0.000000	0.001608	0.001708	28.083	45.104	0.001809	24929.5	4.779736	177.373	92.8637	1.076151	0.046194	0.045871	96.9029	24929.5	0.043279	0.072776	1331.53	84429.4
1158	2.000000	1.078538	7.37638e+06	-57689.1	1105.82	-29736.5	0.000000	0.000000	7.082873	102.056	NaN	0.000000	0.001628	0.001707	28.0814	45.6611	0.001830	24955.4	1.544058	-178.507	101.481	1.078172	0.048258	0.047892	102.056	24955.4	0.045190	0.078129	1306.25	81570.2
1158	2.000000	1.080545	7.37638e+06	-57689.1	1105.82	-29736.5	0.000000	0.000000	7.085084	107.011	NaN	0.000000	0.001621	0.001653	28.0816	49.1384	0.001973	24900.6	7.006437	175.229	106.907	1.080295	0.050265	0.050015	107.011	24900.6	0.047042	0.083489	1281.73	78735
1158	2.000000	1.082512	7.37638e+06	-57689.1	1105.82	-29736.5	0.000000	0.000000	7.087531	118.659	NaN	0.000000	0.001611	0.001642	28.0816	48.6906	0.001713	28417.6	5.277697	175.38	116.688	1.082158	0.052232	0.051878	118.659	28417.6	0.049101	0.089654	1323.52	86711.5
1158	2.000000	1.084518	7.37638e+06	-57689.1	1105.82	-29736.5	0.000000	0.000000	7.089816	125.466	NaN	0.000000	0.001594	0.001663	28.0815	50.9002	0.001708	29803.1	7.139446	172.803	122.944	1.084207	0.054238	0.053927	125.466	29803.1	0.051080	0.095782	1309.92	87981.7
1158	2.000000	1.086469	7.37638e+06	-57689.1	1105.82	-29736.5	0.000000	0.000000	7.092393	140.649	NaN	0.000000	0.001635	0.001649	28.0817	51.7625	0.001654	31287.1	2.979294	177.315	137.405	1.086139	0.056189	0.055859	140.649	31287.1	0.052818	0.101321	1388.16	89802.7
1158	2.000000	1.088550	7.37638e+06	-57689.1	1105.82	-29736.5	0.000000	0.000000	7.094820	149.078	NaN	0.000000	0.001627	0.001620	28.0816	53.3906	0.001781	29984.2	3.727485	178.015	149.757	1.088086	0.058270	0.057806	149.078	29984.2	0.054541	0.106966	1393.7	83761.4
1158	2.000000	1.090457	7.37638e+06	-57689.1	1105.82	-29736.5	0.000000	0.000000	7.097171	159.855	NaN	0.000000	0.001622	0.001648	28.0819	56.061	0.001794	31256.3	1.958532	179.585	157.427	1.090091	0.060177	0.059811	159.855	31256.3	0.056341	0.113017	1414.43	84945.2
1158	2.000000	1.092446	7.37638e+06	-57689.1	1105.82	-29736.5	0.000000	0.000000	7.099754	174.296	NaN	0.000000	0.001632	0.001675	28.082	57.568	0.001722	33435.7	5.429256	174.619	170.521	1.092173	0.062166	0.061893	174.296	33435.7	0.058257	0.119632	1456.94	88320.2
1158	2.000000	1.094470	7.37638e+06	-57689.1	1105.82	-29736.5	0.000000	0.000000	7.102245	185.648	NaN	0.000000	0.001607	0.001606	28.0818	60.905	0.001765	34501	7.188152	171.281	183.013	1.094217	0.064190	0.063937	185.648	34501	0.060154	0.126362	1469.18	88673.9
1158	2.000000	1.096492	7.37638e+06	-57689.1	1105.82	-29736.5	0.000000	0.000000	7.104933	201.854	NaN	0.000000	0.001631	0.001671	28.082	61.8278	0.001660	37255.8	3.110211	175.875	198.513	1.096211	0.066212	0.065931	201.854	37255.8	0.062148	0.133624	1510.61	93115.9
1158	2.000000	1.098501	7.37638e+06	-57689.1	1105.82	-29736.5	0.000000	0.000000	7.107470	214.659	NaN	0.000000	0.001593	0.001646	28.0819	63.5844	0.001827	34802.2	1.545371	178.25	215.303	1.098248	0.068221	0.067968	214.659	34802.2	0.063595	0.139015	1544.14	85280.3
1158	2.000000	1.100630	7.37638e+06	-57689.1	1105.82	-29736.5	0.000000	0.000000	7.110053	225.71	NaN	0.000000	0.001625	0.001607	28.0819	67.4288	0.001771	38081.5	8.813646	169.823	231.405	1.100183	0.070350	0.069903	225.71	38081.5	0.065904	0.147827	1526.85	90491.9
1158	2.000000	1.102493	7.37638e+06	-57689.1	1105.82	-29736.5	0.000000	0.000000	7.112671	244.075	NaN	0.000000	0.001605	0.001624	28.0818	67.3078	0.001817	37052.8	5.284949	173.754	244.174	1.102231	0.072213	0.071951	244.075	37052.8	0.067272	0.153169	1593.5	86498.6
1158	2.000000	1.104445	7.37638e+06	-57689.1	1105.82	-29736.5	0.000000	0.000000	7.115334	261.321	NaN	0.000000	0.001624	0.001670	28.0818	70.2669	0.001767	39765.2	5.987711	172.639	260.488	1.104138	0.074165	0.073858	261.321	39765.2	0.069237	0.160996	1623.15	90545.8
1158	2.000000	1.106513	7.37638e+06	-57689.1	1105.82	-29736.5	0.000000	0.000000	7.117982	275.443	NaN	0.000000	0.001603	0.001648	28.082	72.1686	0.001799	40109	5.429349	173.187	274.139	1.106112	0.076233	0.075832	275.443	40109	0.071082	0.168518	1634.5	89267.2
1158	2.000000	1.108510	7.37638e+06	-57689.1	1105.82	-29736.5	0.000000	0.000000	7.120528	288.774	NaN	0.000000	0.001600	0.001645	28.0815	74.2219	0.001808	41054.4	5.541444	172.441	287.927	1.108267	0.078230	0.077987	288.774	41054.4	0.072955	0.176314	1637.84	89328.5
1158	2.000000	1.110533	7.37638e+06	-57689.1	1105.82	-29736.5	0.000000	0.000000	7.123106	302.265	NaN	0.000000	0.001630	0.001699	28.0818	76.542	0.001785	42884.3	4.316769	173.684	303.934	1.110231	0.080253	0.079951	302.265	42884.3	0.074966	0.184875	1634.97	91123.9
1158	2.000000	1.112415	7.37638e+06	-57689.1	1105.82	-29736.5	0.000000	0.000000	7.125934	325.275	NaN	0.000000	0.001606	0.001682	28.0826	76.5141	0.001786	42829.3	1.240026	176.211	320.774	1.112199	0.082135	0.081919	325.275	42829.3	0.076439	0.191261	1700.69	89474.9
1158	2.000000	1.114368	7.37638e+06	-57689.1	1105.82	-29736.5	0.000000	0.000000	7.128537	341.038	NaN	0.000000	0.001615	0.001643	28.0832	79.4867	0.001729	45970.5	3.551599	173.291	334.495	1.114090	0.084088	0.083810	341.038	45970.5	0.078524	0.200481	1701.09	93802.7
1158	2.000000	1.116536	7.37638e+06	-57689.1	1105.82	-29736.5	0.000000	0.000000	7.131310	355.757	NaN	0.000000	0.001623	0.001682	28.0828	81.568	0.001794	45465.3	2.972870	174.407	357.243	1.116221	0.086256	0.085941	355.757	45465.3	0.080387	0.208889	1703.09	90885.6
1158	2.000000	1.118499	7.37638e+06	-57689.1	1105.82	-29736.5	0.000000	0.000000	7.134317	381.127	NaN	0.000000	0.001615	0.001670	28.0828	82.6479	0.001815	45524.3	2.972717	174.531	380.43	1.118151	0.088219	0.087871	381.127	45524.3	0.081940	0.216022	1764.29	89488.6
1158	2.000000	1.120445	7.37638e+06	-57689.1	1105.82	-29736.5	0.000000	0.000000	7.137199	403.883	NaN	0.000000	0.001617	0.001685	28.0829	85.277	0.001671	51033.1	3.644274	173.171	401.585	1.120031	0.090165	0.089751	403.883	51033.1	0.084229	0.226738	1781.28	97918.1
1158	2.000000	1.122397	7.37638e+06	-57689.1	1105.82	-29736.5	0.000000	0.000000	7.139955	423.433	NaN	0.000000	0.001621	0.001661	28.0828	86.1124	0.001783	48288.9	3.060530	174.454	417.997	1.122068	0.092117	0.091788	423.433	48288.9	0.085540	0.232986	1817.42	91402.1
1158	2.000000	1.124389	7.37638e+06	-57689.1	1105.82	-29736.5	0.000000	0.000000	7.142491	436.655	NaN	0.000000	0.001650	0.001666	28.083	89.7761	0.001784	50319.8	4.461231	172.09	430.566	1.124179	0.094109	0.093899	436.655	50319.8	0.087600	0.242963	1797.21	93270.1
1158	2.000000	1.126458	7.37638e+06	-57689.1	1105.82	-29736.5	0.000000	0.000000	7.145733	465.154	NaN	0.000000	0.001682	0.001690	28.0828	91.2585	0.001776	51388.2	4.665919	171.982	462.475	1.126173	0.096178	0.095893	465.154	51388.2	0.089389	0.251784	1847.43	93566.9
1158	2.000000	1.128463	7.37639e+06	-57689.1	1105.82	-29736.5	0.000000	0.000000	7.148508	483.869	NaN	0.000000	0.001649	0.001630	28.0827	91.9437	0.001843	49885.9	1.125104	175.568	481.341	1.128178	0.098183	0.097898	483.869	49885.9	0.090908	0.259391	1865.4	89489.8
1158	2.000000	1.130422	7.37639e+06	-57689.1	1105.82	-29736.5	0.000000	0.000000	7.151343	505.161	NaN	0.000000	0.001670	0.001644	28.0828	94.3852	0.001776	53140.3	2.686351	173.859	502.239	1.130072	0.100142	0.099792	505.161	53140.3	0.093012	0.270098	1870.28	93419.3
1158	2.000000	1.132375	7.37639e+06	-57689.1	1105.82	-29736.5	0.000000	0.000000	7.154226	527.758	NaN	0.000000	0.001631	0.001612	28.083	95.9756	0.001737	55255.4	5.129080	170.573	523.252	1.132094	0.102095	0.101814	527.758	55255.4	0.094931	0.280044	1884.56	95397.1
1158	2.000000	1.134412	7.37639e+06	-57689.1	1105.82	-29736.5	0.000000	0.000000	7.157110	548.342	NaN	0.000000	0.001643	0.001629	28.0831	99.4048	0.001773	56059.9	5.892317	170.811	543.828	1.134066	0.104132	0.103786	548.342	56059.9	0.096796	0.289870	1891.68	95131.4
1158	2.000000	1.136412	7.37639e+06	-57689.1	1105.82	-29736.5	0.000000	0.000000	7.159630	560.957	NaN	0.000000	0.001627	0.001662	28.0828	101.484	0.001759	57696.5	5.448214	170.576	554.857	1.136113	0.106132	0.105833	560.957	57696.5	0.098841	0.300823	1864.74	96109.6
1158	2.000000	1.138300	7.37639e+06	-57689.1	1105.82	-29736.5	0.000000	0.000000	7.162852	593.388	NaN	0.000000	0.001648	0.001672	28.0828	103.262	0.001833	56329.3	3.776555	172.453	582.851	1.137983	0.108020	0.107703	593.388	56329.3	0.100120	0.307772	1928.01	92766.9