File: remote_trans/data/nanoindenter/0828-1/data/Data_2025-08-06,11h17m57s/2025-07-22_16-23-58_1_1148.txt
2025-07-22, 16:23:58, 1
Index	Phase	Displacement	Time	Pos X	Pos Y	Pos Z	Rot A	Rot B	Piezo Z	Force A	Force B	Gripper	Voltage A	Voltage B	Temperature	Amplitude force	Amplitude pos	Stiffness	Phase shift	Phase excitation	Force A raw	Displacement raw	HMax	HMax raw	Real Force	Real Stiffness	Contact Depth	Area	Hardness	Reduced Mod.
[#]	[#]	[um]	[s]	[um]	[um]	[um]	[m°]	[m°]	[um]	[uN]	[uN]	[V]	[V]	[V]	[°C]	[uN]	[um]	[N/m]	[°]	[°]	[uN]	[um]	[um]	[um]	[uN]	[N/m]	[um]	[um^2]	[MPa]	[MPa]
1148	1.000000	0.002198	7.37629e+06	-57539.1	1055.82	-29736.7	0.000000	0.000000	6.002793	0.037681	NaN	0.000000	0.001539	0.001723	28.0811	0.033262	0.000893	37.2668	-25.6383	-159.526	0.113893	0.000941	-1.067933	-1.069189	0.037681	37.2668	-1.068692	-1.903752E+14	-1.979305E-16	NaN
1148	1.000000	0.010162	7.37629e+06	-57539.1	1055.82	-29736.7	0.000000	0.000000	6.010755	0.005264	NaN	0.000000	0.001591	0.001685	28.0808	0.097125	0.000885	109.792	14.0706	-172.001	-0.027582	0.008856	-1.059969	-1.061275	0.005264	109.792	-1.060005	-1.455090E+14	-3.617335E-17	NaN
1148	1.000000	0.018162	7.37629e+06	-57539.1	1055.82	-29736.7	0.000000	0.000000	6.018757	0.039813	NaN	0.000000	0.001571	0.001689	28.0809	0.066871	0.001749	38.2284	83.9034	-165.825	0.127715	0.016856	-1.051968	-1.053274	0.039813	38.2284	-1.052750	-1.162450E+14	-3.424927E-16	NaN
1148	1.000000	0.026172	7.37629e+06	-57539.1	1055.82	-29736.7	0.000000	0.000000	6.026765	-0.020470	NaN	0.000000	0.001568	0.001642	28.0812	0.024669	0.001860	13.2604	38.3161	-159.559	-0.012269	0.024860	-1.043959	-1.045271	-0.020470	13.2604	-1.042801	-8.543420E+13	2.396003E-16	NaN
1148	1.000000	0.034145	7.37629e+06	-57539.1	1055.82	-29736.7	0.000000	0.000000	6.034738	0.008970	NaN	0.000000	0.001528	0.001667	28.0808	0.132970	0.001911	69.5669	-136.435	-165.007	-0.045930	0.032849	-1.035986	-1.037282	0.008970	69.5669	-1.036083	-6.938940E+13	-1.292660E-16	NaN
1148	1.000000	0.042189	7.37629e+06	-57539.1	1055.82	-29736.7	0.000000	0.000000	6.042782	-0.020710	NaN	0.000000	0.001567	0.001672	28.0812	0.113164	0.001928	58.684	166.092	-167.659	0.045077	0.040871	-1.027942	-1.029260	-0.020710	58.684	-1.027677	-5.348503E+13	3.872022E-16	NaN
1148	1.000000	0.050137	7.37629e+06	-57539.1	1055.82	-29736.7	0.000000	0.000000	6.050729	-0.048554	NaN	0.000000	0.001592	0.001659	28.0808	0.094144	0.001988	47.363	73.2536	-166.773	0.012598	0.048842	-1.019994	-1.021289	-0.048554	47.363	-1.019225	-4.116435E+13	1.179512E-15	NaN
1148	1.000000	0.058133	7.37629e+06	-57539.1	1055.82	-29736.7	0.000000	0.000000	6.058728	0.020936	NaN	0.000000	0.001578	0.001659	28.0809	0.132258	0.001989	66.4968	59.7273	-167.646	-0.029071	0.056874	-1.011998	-1.013257	0.020936	66.4968	-1.012234	-3.314705E+13	-6.316160E-16	NaN
1148	1.000000	0.066160	7.37629e+06	-57539.1	1055.82	-29736.7	0.000000	0.000000	6.066753	-0.021014	NaN	0.000000	0.001559	0.001684	28.0824	0.120093	0.001948	61.6565	57.9941	-165.698	-0.023839	0.064847	-1.003971	-1.005284	-0.021014	61.6565	-1.003715	-2.545570E+13	8.255033E-16	NaN
1148	1.000000	0.074148	7.37629e+06	-57539.1	1055.82	-29736.7	0.000000	0.000000	6.074742	0.015517	NaN	0.000000	0.001573	0.001696	28.0822	0.009774	0.002080	4.698785	96.1528	-164.214	0.006061	0.072820	-0.995983	-0.997311	0.015517	4.698785	-0.998459	-2.162846E+13	-7.174443E-16	NaN
1148	1.000000	0.082185	7.37629e+06	-57539.1	1055.82	-29736.7	0.000000	0.000000	6.082778	-0.014775	NaN	0.000000	0.001544	0.001697	28.0825	0.111130	0.001962	56.637	85.5366	-164.677	-0.015385	0.080859	-0.987946	-0.989272	-0.014775	56.637	-0.987750	-1.551694E+13	9.522027E-16	NaN
1148	1.000000	0.090177	7.37629e+06	-57539.1	1055.82	-29736.7	0.000000	0.000000	6.090771	0.011089	NaN	0.000000	0.001535	0.001661	28.0822	0.024837	0.001851	13.4193	135.473	-162.324	-0.000180	0.088825	-0.979954	-0.981306	0.011089	13.4193	-0.980574	-1.242053E+13	-8.927707E-16	NaN
1148	1.000000	0.098196	7.37629e+06	-57539.1	1055.82	-29736.7	0.000000	0.000000	6.098790	-0.006064	NaN	0.000000	0.001572	0.001653	28.0823	0.082130	0.001995	41.1648	125.302	-163.754	0.024887	0.096888	-0.971934	-0.973243	-0.006064	41.1648	-0.971824	-9.467698E+12	6.405046E-16	NaN
1148	1.000000	0.106181	7.37629e+06	-57539.1	1055.82	-29736.7	0.000000	0.000000	6.106772	-0.052351	NaN	0.000000	0.001601	0.001689	28.0824	0.068900	0.002125	32.4266	-4.368891	-165.607	0.046674	0.104847	-0.963950	-0.965284	-0.052351	32.4266	-0.962739	-7.141603E+12	7.330480E-15	NaN
1148	1.000000	0.114179	7.37629e+06	-57539.1	1055.82	-29736.7	0.000000	0.000000	6.114773	0.019710	NaN	0.000000	0.001538	0.001695	28.0822	0.091051	0.001893	48.0993	-69.7435	-165.461	-0.069218	0.112835	-0.955952	-0.957296	0.019710	48.0993	-0.956260	-5.840345E+12	-3.374774E-15	NaN
1148	1.000000	0.122161	7.37629e+06	-57539.1	1055.82	-29736.7	0.000000	0.000000	6.122755	-0.000678	NaN	0.000000	0.001576	0.001671	28.0824	0.068471	0.002087	32.8123	49.8807	-161.913	-0.035224	0.120863	-0.947970	-0.949268	-0.000678	32.8123	-0.947954	-4.512692E+12	1.503040E-16	NaN
1148	1.000000	0.130168	7.37629e+06	-57539.1	1055.82	-29736.7	0.000000	0.000000	6.130762	0.000923	NaN	0.000000	0.001536	0.001701	28.0826	0.104615	0.001939	53.9565	166.418	-167.012	-0.082073	0.128885	-0.939963	-0.941246	0.000923	53.9565	-0.939976	-3.522157E+12	-2.619964E-16	NaN
1148	1.000000	0.138201	7.37629e+06	-57539.1	1055.82	-29736.7	0.000000	0.000000	6.138791	-0.074072	NaN	0.000000	0.001568	0.001692	28.0826	0.032431	0.001935	16.7571	26.541	-164.138	-0.010337	0.136848	-0.931930	-0.933283	-0.074072	16.7571	-0.928615	-2.474562E+12	2.993337E-14	NaN
1148	1.000000	0.146186	7.37629e+06	-57539.1	1055.82	-29736.7	0.000000	0.000000	6.146779	-0.005481	NaN	0.000000	0.001540	0.001676	28.0831	0.075010	0.001955	38.3738	129.591	-164.856	0.033750	0.144885	-0.923945	-0.925246	-0.005481	38.3738	-0.923838	-2.133161E+12	2.569256E-15	NaN
1148	1.000000	0.154193	7.37629e+06	-57539.1	1055.82	-29736.7	0.000000	0.000000	6.154785	-0.027557	NaN	0.000000	0.001623	0.001669	28.0825	0.080794	0.001998	40.4331	-64.6505	-162.641	0.065705	0.152849	-0.915938	-0.917281	-0.027557	40.4331	-0.915427	-1.642302E+12	1.677928E-14	NaN
1148	1.000000	0.162173	7.37629e+06	-57539.1	1055.82	-29736.7	0.000000	0.000000	6.162766	0.008670	NaN	0.000000	0.001620	0.001658	28.0826	0.056812	0.001893	30.011	160.969	-165.501	-0.014005	0.160900	-0.907958	-0.909231	0.008670	30.011	-0.908175	-1.310724E+12	-6.615010E-15	NaN
1148	1.000000	0.170217	7.37629e+06	-57539.1	1055.82	-29736.7	0.000000	0.000000	6.170808	-0.050839	NaN	0.000000	0.001628	0.001674	28.0824	0.083051	0.002009	41.3461	92.7574	-167.551	0.027993	0.168910	-0.899914	-0.901221	-0.050839	41.3461	-0.898992	-9.850149E+11	5.161214E-14	NaN
1148	1.000000	0.178219	7.37629e+06	-57539.1	1055.82	-29736.7	0.000000	0.000000	6.178810	-0.064226	NaN	0.000000	0.001638	0.001646	28.0825	0.097259	0.002033	47.8393	108.696	-164.308	-0.068523	0.176860	-0.891912	-0.893271	-0.064226	47.8393	-0.890905	-7.658526E+11	8.386204E-14	NaN
1148	1.000000	0.186198	7.37629e+06	-57539.1	1055.82	-29736.7	0.000000	0.000000	6.186795	0.086985	NaN	0.000000	0.001614	0.001664	28.0825	0.062067	0.002010	30.8721	130.901	-161.039	-0.018212	0.184841	-0.883933	-0.885290	0.086985	30.8721	-0.886046	-6.583551E+11	-1.321252E-13	NaN
1148	1.000000	0.194191	7.37629e+06	-57539.1	1055.82	-29736.7	0.000000	0.000000	6.194786	0.042258	NaN	0.000000	0.001582	0.001678	28.0826	0.144131	0.001975	72.9875	163.131	-165.267	-0.025834	0.192909	-0.875940	-0.877221	0.042258	72.9875	-0.876374	-4.871594E+11	-8.674442E-14	NaN
1148	1.000000	0.202220	7.37629e+06	-57539.1	1055.82	-29736.7	0.000000	0.000000	6.202813	-0.007819	NaN	0.000000	0.001531	0.001690	28.0812	0.061771	0.001899	32.5263	157.2	-163.353	0.020926	0.200865	-0.867911	-0.869266	-0.007819	32.5263	-0.867731	-3.721707E+11	2.100841E-14	NaN
1148	1.000000	0.210214	7.37629e+06	-57539.1	1055.82	-29736.7	0.000000	0.000000	6.210808	0.007013	NaN	0.000000	0.001565	0.001674	28.0814	0.100777	0.001931	52.1843	-1.486128	-164.146	0.013376	0.208896	-0.859917	-0.861234	0.007013	52.1843	-0.860018	-2.926579E+11	-2.396376E-14	NaN
1148	1.000000	0.218217	7.37629e+06	-57539.1	1055.82	-29736.7	0.000000	0.000000	6.218810	-0.001977	NaN	0.000000	0.001588	0.001697	28.0815	0.085939	0.001959	43.8791	170.677	-166.404	0.026113	0.216895	-0.851914	-0.853236	-0.001977	43.8791	-0.851880	-2.270887E+11	8.705372E-15	NaN
1148	1.000000	0.226222	7.37629e+06	-57539.1	1055.82	-29736.7	0.000000	0.000000	6.226815	-0.016962	NaN	0.000000	0.001566	0.001706	28.0812	0.020213	0.001893	10.6773	-144.59	-164.854	-0.060850	0.224896	-0.843908	-0.845235	-0.016962	10.6773	-0.842717	-1.706471E+11	9.939606E-14	NaN
1148	1.000000	0.234201	7.37629e+06	-57539.1	1055.82	-29736.7	0.000000	0.000000	6.234795	0.025823	NaN	0.000000	0.001566	0.001662	28.0813	0.057351	0.002060	27.8423	65.2979	-167.201	0.066139	0.232920	-0.835930	-0.837211	0.025823	27.8423	-0.836626	-1.411164E+11	-1.829919E-13	NaN
1148	1.000000	0.242243	7.37629e+06	-57539.1	1055.82	-29736.7	0.000000	0.000000	6.242837	0.018496	NaN	0.000000	0.001584	0.001672	28.0809	0.077892	0.002058	37.8554	-27.0776	-166.279	-0.005399	0.240931	-0.827888	-0.829200	0.018496	37.8554	-0.828254	-1.086730E+11	-1.701979E-13	NaN
1148	1.000000	0.250237	7.37629e+06	-57539.1	1055.82	-29736.7	0.000000	0.000000	6.250830	-0.018432	NaN	0.000000	0.001599	0.001667	28.0811	0.100782	0.002131	47.2929	26.5487	-165.057	0.027501	0.248923	-0.819894	-0.821208	-0.018432	47.2929	-0.819601	-8.294754E+10	2.222165E-13	NaN
1148	1.000000	0.258262	7.37629e+06	-57539.1	1055.82	-29736.7	0.000000	0.000000	6.258857	0.025352	NaN	0.000000	0.001558	0.001661	28.0813	0.099355	0.002015	49.3155	-170.38	-164.046	-0.032595	0.256977	-0.811869	-0.813154	0.025352	49.3155	-0.812254	-6.594086E+10	-3.844635E-13	NaN
1148	1.000000	0.266225	7.37629e+06	-57539.1	1055.82	-29736.7	0.000000	0.000000	6.266820	0.041391	NaN	0.000000	0.001582	0.001662	28.081	0.113960	0.002011	56.6577	-166.825	-163.604	-0.001821	0.265030	-0.803906	-0.805100	0.041391	56.6577	-0.804454	-5.167887E+10	-8.009317E-13	NaN
1148	1.000000	0.274250	7.37629e+06	-57539.1	1055.82	-29736.7	0.000000	0.000000	6.274842	-0.040129	NaN	0.000000	0.001577	0.001674	28.081	0.109216	0.001956	55.8381	150.49	-162.281	-0.021035	0.272872	-0.795881	-0.797259	-0.040129	55.8381	-0.795342	-3.887091E+10	1.032373E-12	NaN
1148	1.000000	0.282240	7.37629e+06	-57539.1	1055.82	-29736.7	0.000000	0.000000	6.282834	-0.010657	NaN	0.000000	0.001609	0.001691	28.0809	0.148741	0.002159	68.8884	-48.889	-165.573	-0.035089	0.280963	-0.787890	-0.789168	-0.010657	68.8884	-0.787774	-3.067990E+10	3.473463E-13	NaN
1148	1.000000	0.290247	7.37629e+06	-57539.1	1055.82	-29736.7	0.000000	0.000000	6.290840	-0.016207	NaN	0.000000	0.001588	0.001690	28.0814	0.070159	0.001980	35.4315	107.581	-163.962	-0.025600	0.289010	-0.779884	-0.781121	-0.016207	35.4315	-0.779541	-2.371308E+10	6.834505E-13	NaN
1148	1.000000	0.298287	7.37629e+06	-57539.1	1055.82	-29736.7	0.000000	0.000000	6.298879	-0.036578	NaN	0.000000	0.001583	0.001697	28.0811	0.059913	0.001902	31.5069	68.5401	-164.643	0.010229	0.296936	-0.771843	-0.773195	-0.036578	31.5069	-0.770973	-1.813553E+10	2.016923E-12	NaN
1148	1.000000	0.306244	7.37629e+06	-57539.1	1055.82	-29736.7	0.000000	0.000000	6.306837	-0.009650	NaN	0.000000	0.001593	0.001701	28.0812	0.054736	0.002037	26.8742	12.5358	-164.433	0.026330	0.304954	-0.763887	-0.765176	-0.009650	26.8742	-0.763618	-1.440499E+10	6.699301E-13	NaN
1148	1.000000	0.314264	7.37629e+06	-57539.1	1055.82	-29736.7	0.000000	0.000000	6.314854	-0.068083	NaN	0.000000	0.001550	0.001700	28.0811	0.075982	0.002070	36.7005	144.76	-167.607	-0.031038	0.312916	-0.755867	-0.757215	-0.068083	36.7005	-0.754476	-1.081776E+10	6.293645E-12	NaN
1148	1.000000	0.322280	7.37629e+06	-57539.1	1055.82	-29736.7	0.000000	0.000000	6.322873	-0.009416	NaN	0.000000	0.001563	0.001726	28.081	0.070027	0.001920	36.4662	146.558	-165.009	0.001877	0.320962	-0.747851	-0.749169	-0.009416	36.4662	-0.747657	-8.736283E+9	1.077861E-12	NaN
1148	1.000000	0.330257	7.37629e+06	-57539.1	1055.82	-29736.7	0.000000	0.000000	6.330851	-0.006886	NaN	0.000000	0.001618	0.001719	28.0809	0.065572	0.001951	33.6076	65.4017	-167.803	0.085699	0.328919	-0.739873	-0.741212	-0.006886	33.6076	-0.739720	-6.811448E+9	1.010934E-12	NaN
1148	1.000000	0.338274	7.37629e+06	-57539.1	1055.82	-29736.7	0.000000	0.000000	6.338867	-0.006351	NaN	0.000000	0.001581	0.001683	28.0822	0.056976	0.002049	27.8043	12.6713	-164.89	0.003033	0.336997	-0.731857	-0.733134	-0.006351	27.8043	-0.731686	-5.293987E+9	1.199577E-12	NaN
1148	1.000000	0.346266	7.37629e+06	-57539.1	1055.82	-29736.7	0.000000	0.000000	6.346860	0.012919	NaN	0.000000	0.001569	0.001714	28.0825	0.070782	0.002031	34.8534	-60.3299	-166.617	0.052329	0.344979	-0.723865	-0.725152	0.012919	34.8534	-0.724143	-4.178010E+9	-3.092069E-12	NaN
1148	1.000000	0.354264	7.37629e+06	-57539.1	1055.82	-29736.7	0.000000	0.000000	6.354858	0.011019	NaN	0.000000	0.001594	0.001727	28.0825	0.059890	0.002014	29.7374	27.9999	-166.32	0.012378	0.352929	-0.715867	-0.717202	0.011019	29.7374	-0.716145	-3.250064E+9	-3.390293E-12	NaN
1148	1.000000	0.362264	7.37629e+06	-57539.1	1055.82	-29736.7	0.000000	0.000000	6.362858	0.014890	NaN	0.000000	0.001604	0.001723	28.0823	0.019988	0.002015	9.918237	-141.409	-164.578	0.064442	0.360998	-0.707867	-0.709133	0.014890	9.918237	-0.708993	-2.595981E+9	-5.735606E-12	NaN
1148	1.000000	0.370282	7.37629e+06	-57539.1	1055.82	-29736.7	0.000000	0.000000	6.370874	-0.024005	NaN	0.000000	0.001604	0.001688	28.0822	0.100537	0.001915	52.5104	-74.0775	-163.962	-0.029413	0.368988	-0.699849	-0.701143	-0.024005	52.5104	-0.699506	-1.926593E+9	1.246002E-11	NaN
1148	1.000000	0.378294	7.37629e+06	-57539.1	1055.82	-29736.7	0.000000	0.000000	6.378885	-0.075175	NaN	0.000000	0.001631	0.001709	28.0825	0.033467	0.002067	16.1949	51.123	-162.348	-0.003096	0.376945	-0.691836	-0.693186	-0.075175	16.1949	-0.688355	-1.356550E+9	5.541597E-11	NaN
1148	1.000000	0.386258	7.37629e+06	-57539.1	1055.82	-29736.7	0.000000	0.000000	6.386849	-0.054350	NaN	0.000000	0.001612	0.001696	28.0822	0.038060	0.002063	18.4469	-172.015	-163.826	-0.066295	0.384967	-0.683873	-0.685164	-0.054350	18.4469	-0.681663	-1.098883E+9	4.945977E-11	NaN
1148	1.000000	0.394289	7.37629e+06	-57539.1	1055.82	-29736.7	0.000000	0.000000	6.394882	-0.003585	NaN	0.000000	0.001588	0.001671	28.0823	0.031453	0.002009	15.6574	31.2065	-166.448	-0.010841	0.393008	-0.675842	-0.677123	-0.003585	15.6574	-0.675670	-9.098706E+8	3.940361E-12	NaN
1148	1.000000	0.402264	7.37629e+06	-57539.1	1055.82	-29736.7	0.000000	0.000000	6.402858	-0.007603	NaN	0.000000	0.001599	0.001701	28.0825	0.036288	0.001966	18.4583	9.572406	-164.848	-0.006473	0.400953	-0.667866	-0.669177	-0.007603	18.4583	-0.667557	-7.046222E+8	1.079020E-11	NaN
1148	1.000000	0.410307	7.37629e+06	-57539.1	1055.82	-29736.7	0.000000	0.000000	6.410899	-0.032693	NaN	0.000000	0.001607	0.001700	28.0824	0.079025	0.002011	39.306	-171.222	-166.355	0.000557	0.408993	-0.659824	-0.661138	-0.032693	39.306	-0.659200	-5.413870E+8	6.038824E-11	NaN
1148	1.000000	0.418310	7.37629e+06	-57539.1	1055.82	-29736.7	0.000000	0.000000	6.418904	0.025207	NaN	0.000000	0.001605	0.001682	28.0826	0.114591	0.001976	57.9779	62.7618	-166.497	0.050726	0.417001	-0.651821	-0.653130	0.025207	57.9779	-0.652147	-4.333800E+8	-5.816319E-11	NaN
1148	1.000000	0.426308	7.37629e+06	-57539.1	1055.82	-29736.7	0.000000	0.000000	6.426899	-0.059363	NaN	0.000000	0.001597	0.001685	28.0824	0.035182	0.002037	17.2685	-132.122	-166.272	-0.027164	0.425052	-0.643823	-0.645079	-0.059363	17.2685	-0.641245	-3.071607E+8	1.932638E-10	NaN
1148	1.000000	0.434315	7.37629e+06	-57539.1	1055.82	-29736.7	0.000000	0.000000	6.434909	0.013420	NaN	0.000000	0.001623	0.001674	28.0827	0.094586	0.001936	48.8522	3.557060	-168.89	-0.064059	0.432995	-0.635816	-0.637136	0.013420	48.8522	-0.636022	-2.604329E+8	-5.153071E-11	NaN
1148	1.000000	0.442297	7.37629e+06	-57539.1	1055.82	-29736.7	0.000000	0.000000	6.442890	-0.008376	NaN	0.000000	0.001609	0.001682	28.0826	0.071507	0.001861	38.4164	-30.8199	-167.232	-0.011909	0.441040	-0.627834	-0.629091	-0.008376	38.4164	-0.627670	-1.999972E+8	4.187851E-11	NaN
1148	1.000000	0.450336	7.37629e+06	-57539.1	1055.82	-29736.7	0.000000	0.000000	6.450930	0.016850	NaN	0.000000	0.001606	0.001673	28.0827	0.072039	0.002065	34.8799	86.436	-165.055	-0.014199	0.449029	-0.619795	-0.621102	0.016850	34.8799	-0.620157	-1.576867E+8	-1.068594E-10	NaN
1148	1.000000	0.458316	7.37629e+06	-57539.1	1055.82	-29736.7	0.000000	0.000000	6.458911	0.035853	NaN	0.000000	0.001590	0.001682	28.0826	0.029061	0.002144	13.5559	-72.8455	-163.549	0.056802	0.457016	-0.611815	-0.613115	0.035853	13.5559	-0.613798	-1.289330E+8	-2.780718E-10	NaN
1148	1.000000	0.466306	7.37629e+06	-57539.1	1055.82	-29736.7	0.000000	0.000000	6.466897	-0.042739	NaN	0.000000	0.001617	0.001690	28.0823	0.039913	0.001967	20.2891	60.3285	-165.321	0.014705	0.465066	-0.603825	-0.605065	-0.042739	20.2891	-0.602245	-8.940861E+7	4.780205E-10	NaN
1148	1.000000	0.474343	7.37629e+06	-57539.1	1055.82	-29736.7	0.000000	0.000000	6.474936	-0.005860	NaN	0.000000	0.001628	0.001750	28.081	0.047422	0.002083	22.7696	137.072	-159.803	0.032914	0.473000	-0.595788	-0.597131	-0.005860	22.7696	-0.595595	-7.240626E+7	8.093273E-11	NaN
1148	1.000000	0.482340	7.37629e+06	-57539.1	1055.82	-29736.7	0.000000	0.000000	6.482935	0.027918	NaN	0.000000	0.001609	0.001742	28.0812	0.036620	0.001958	18.7014	98.0978	-165.46	0.023624	0.481001	-0.587790	-0.589129	0.027918	18.7014	-0.588910	-5.856484E+7	-4.766958E-10	NaN
1148	1.000000	0.490327	7.37629e+06	-57539.1	1055.82	-29736.7	0.000000	0.000000	6.490919	-0.045765	NaN	0.000000	0.001604	0.001700	28.0813	0.125007	0.001890	66.1498	95.8784	-165.615	-0.052628	0.489017	-0.579804	-0.581114	-0.045765	66.1498	-0.579285	-4.313745E+7	1.060914E-9	NaN
1148	1.000000	0.498342	7.37629e+06	-57539.1	1055.82	-29736.7	0.000000	0.000000	6.498935	-0.014012	NaN	0.000000	0.001543	0.001672	28.0817	0.035895	0.002058	17.442	6.887184	-161.552	-0.019480	0.497069	-0.571789	-0.573061	-0.014012	17.442	-0.571187	-3.334465E+7	4.202214E-10	NaN
1148	1.000000	0.506316	7.37629e+06	-57539.1	1055.82	-29736.7	0.000000	0.000000	6.506911	0.045343	NaN	0.000000	0.001600	0.001674	28.0813	0.043594	0.002034	21.4341	-150.156	-165.107	0.029960	0.505035	-0.563815	-0.565096	0.045343	21.4341	-0.565402	-2.773822E+7	-1.634676E-9	NaN
1148	1.000000	0.514364	7.37629e+06	-57539.1	1055.82	-29736.7	0.000000	0.000000	6.514957	-0.005053	NaN	0.000000	0.001601	0.001683	28.0815	0.104830	0.001884	55.6449	-73.3629	-165.634	-0.018308	0.513050	-0.555767	-0.557081	-0.005053	55.6449	-0.555699	-2.036380E+7	2.481423E-10	NaN
1148	1.000000	0.522374	7.37629e+06	-57539.1	1055.82	-29736.7	0.000000	0.000000	6.522967	-0.001195	NaN	0.000000	0.001565	0.001683	28.0812	0.124261	0.001885	65.9171	152.595	-164.015	0.017541	0.520999	-0.547757	-0.549132	-0.001195	65.9171	-0.547743	-1.580139E+7	7.559805E-11	NaN
1148	1.000000	0.530353	7.37629e+06	-57539.1	1055.82	-29736.7	0.000000	0.000000	6.530945	-0.040392	NaN	0.000000	0.001597	0.001666	28.0811	0.104619	0.001924	54.372	-133.888	-163.835	-0.077881	0.528999	-0.539777	-0.541132	-0.040392	54.372	-0.539220	-1.203770E+7	3.355487E-9	NaN
1148	1.000000	0.538377	7.37629e+06	-57539.1	1055.82	-29736.7	0.000000	0.000000	6.538971	0.027323	NaN	0.000000	0.001612	0.001665	28.0811	0.093585	0.001966	47.6136	-9.113036	-163.839	0.037790	0.537051	-0.531754	-0.533080	0.027323	47.6136	-0.532185	-9.6141e+06	-2.841952E-9	NaN
1148	1.000000	0.546383	7.37629e+06	-57539.1	1055.82	-29736.7	0.000000	0.000000	6.546976	-0.002613	NaN	0.000000	0.001616	0.001682	28.0812	0.043100	0.001988	21.6847	-45.4478	-166.356	-0.038364	0.545096	-0.523748	-0.525035	-0.002613	21.6847	-0.523657	-7.31896e+06	3.570255E-10	NaN
1148	1.000000	0.554378	7.37629e+06	-57539.1	1055.82	-29736.7	0.000000	0.000000	6.554968	-0.076521	NaN	0.000000	0.001579	0.001674	28.0814	0.043871	0.001921	22.8395	78.2899	-163.319	-0.062654	0.553060	-0.515753	-0.517071	-0.076521	22.8395	-0.513240	-5.24248e+06	1.459632E-8	NaN
1148	1.000000	0.562402	7.37629e+06	-57539.1	1055.82	-29736.7	0.000000	0.000000	6.562993	-0.043141	NaN	0.000000	0.001582	0.001673	28.0811	0.028886	0.002036	14.1884	-101.62	-167.071	-0.005608	0.561054	-0.507729	-0.509076	-0.043141	14.1884	-0.505449	-4.0832e+06	1.056542E-8	NaN
1148	1.000000	0.570382	7.37629e+06	-57539.1	1055.82	-29736.7	0.000000	0.000000	6.570975	-0.010784	NaN	0.000000	0.001606	0.001664	28.0818	0.057253	0.002141	26.7457	131.589	-165.895	0.008267	0.569036	-0.499749	-0.501094	-0.010784	26.7457	-0.499446	-3.36741e+06	3.202454E-9	NaN
1148	1.000000	0.578373	7.37629e+06	-57539.1	1055.82	-29736.7	0.000000	0.000000	6.578969	0.064889	NaN	0.000000	0.001617	0.001656	28.0814	0.101738	0.001991	51.1079	-3.682403	-166.264	0.074278	0.577094	-0.491758	-0.493036	0.064889	51.1079	-0.492710	-2.71178e+06	-2.392877E-8	NaN
1148	1.000000	0.586391	7.37629e+06	-57539.1	1055.82	-29736.7	0.000000	0.000000	6.586987	0.059284	NaN	0.000000	0.001603	0.001701	28.0812	0.045222	0.002091	21.6288	151.865	-163.833	-0.002598	0.585110	-0.483740	-0.485021	0.059284	21.6288	-0.485795	-2.17078e+06	-2.731018E-8	NaN
1148	1.000000	0.594395	7.37629e+06	-57539.1	1055.82	-29736.7	0.000000	0.000000	6.594987	-0.038679	NaN	0.000000	0.001600	0.001693	28.081	0.055644	0.001984	28.0525	161.641	-165.851	-0.018818	0.593080	-0.475736	-0.477051	-0.038679	28.0525	-0.474702	-1.51817e+06	2.547747E-8	NaN
1148	1.000000	0.602382	7.37629e+06	-57539.1	1055.82	-29736.7	0.000000	0.000000	6.602980	0.104737	NaN	0.000000	0.001577	0.001645	28.0809	0.029834	0.002007	14.8681	22.6392	-162.009	0.086527	0.601118	-0.467749	-0.469013	0.104737	14.8681	-0.473032	-1.43853e+06	-7.280838E-8	NaN
1148	1.000000	0.610404	7.37629e+06	-57539.1	1055.82	-29736.7	0.000000	0.000000	6.610997	0.006699	NaN	0.000000	0.001536	0.001670	28.0824	0.026882	0.002026	13.2673	67.6066	-164.549	0.085822	0.609111	-0.459727	-0.461019	0.006699	13.2673	-0.460106	-947342	-7.070990E-9	NaN
1148	1.000000	0.618404	7.37629e+06	-57539.1	1055.82	-29736.7	0.000000	0.000000	6.618998	0.020665	NaN	0.000000	0.001569	0.001658	28.0819	0.070260	0.002117	33.1898	-178.446	-162.906	0.010287	0.617104	-0.451727	-0.453027	0.020665	33.1898	-0.452194	-733223	-2.818420E-8	NaN
1148	1.000000	0.626353	7.37629e+06	-57539.1	1055.82	-29736.7	0.000000	0.000000	6.626944	-0.051874	NaN	0.000000	0.001510	0.001682	28.082	0.050721	0.001986	25.5407	-80.2119	-163.443	-0.018626	0.625075	-0.443778	-0.445056	-0.051874	25.5407	-0.442255	-531100	9.767306E-8	NaN
1148	1.000000	0.634401	7.37629e+06	-57539.1	1055.82	-29736.7	0.000000	0.000000	6.634995	0.002236	NaN	0.000000	0.001528	0.001658	28.0818	0.082920	0.002145	38.649	-109.198	-166.185	-0.022578	0.633039	-0.435730	-0.437092	0.002236	38.649	-0.435773	-430205	-5.198597E-9	NaN
1148	1.000000	0.642397	7.37629e+06	-57539.1	1055.82	-29736.7	0.000000	0.000000	6.642991	-0.007859	NaN	0.000000	0.001551	0.001653	28.0822	0.065439	0.001988	32.9183	167.008	-166.594	0.019209	0.641091	-0.427733	-0.429040	-0.007859	32.9183	-0.427554	-329194	2.387197E-8	NaN
1148	1.000000	0.650401	7.37629e+06	-57539.1	1055.82	-29736.7	0.000000	0.000000	6.650991	-0.070461	NaN	0.000000	0.001549	0.001676	28.0822	0.002769	0.002038	1.358456	-35.1838	-162.055	-0.085513	0.649087	-0.419730	-0.421044	-0.070461	1.358456	-0.380829	-71085	9.912261E-7	NaN
1148	1.000000	0.658396	7.37629e+06	-57539.1	1055.82	-29736.7	0.000000	0.000000	6.658990	0.012653	NaN	0.000000	0.001544	0.001696	28.082	0.079331	0.002023	39.2109	94.2275	-162.957	0.001339	0.657085	-0.411735	-0.413046	0.012653	39.2109	-0.411977	-197925	-6.392583E-8	NaN
1148	1.000000	0.666410	7.37629e+06	-57539.1	1055.82	-29736.7	0.000000	0.000000	6.667003	-0.014700	NaN	0.000000	0.001571	0.001703	28.0823	0.119250	0.002075	57.4647	160.663	-164.141	-0.057977	0.665097	-0.403720	-0.405033	-0.014700	57.4647	-0.403529	-150069	9.795821E-8	NaN
1148	1.000000	0.674426	7.37629e+06	-57539.1	1055.82	-29736.7	0.000000	0.000000	6.675017	-0.057111	NaN	0.000000	0.001529	0.001715	28.082	0.087024	0.002003	43.4504	169.835	-163.036	-0.012620	0.673145	-0.395705	-0.396986	-0.057111	43.4504	-0.394719	-112363	5.082683E-7	NaN
1148	1.000000	0.682404	7.37629e+06	-57539.1	1055.82	-29736.7	0.000000	0.000000	6.682996	-0.028672	NaN	0.000000	0.001545	0.001689	28.0822	0.108401	0.002104	51.5275	43.7322	-162.323	-0.008315	0.681072	-0.387727	-0.389058	-0.028672	51.5275	-0.387310	-88037.4	3.256789E-7	NaN
1148	1.000000	0.690429	7.37629e+06	-57539.1	1055.82	-29736.7	0.000000	0.000000	6.691024	0.016602	NaN	0.000000	0.001547	0.001661	28.0823	0.100180	0.002041	49.0796	-175.217	-165.256	0.061696	0.689151	-0.379701	-0.380980	0.016602	49.0796	-0.379955	-69063	-2.403944E-7	NaN
1148	1.000000	0.698449	7.37629e+06	-57539.1	1055.82	-29736.7	0.000000	0.000000	6.699044	0.033345	NaN	0.000000	0.001580	0.001682	28.0823	0.120215	0.002024	59.3982	-7.780751	-168.482	0.030104	0.697125	-0.371682	-0.373005	0.033345	59.3982	-0.372103	-53260.1	-6.260736E-7	NaN
1148	1.000000	0.706417	7.37629e+06	-57539.1	1055.82	-29736.7	0.000000	0.000000	6.707009	-0.047212	NaN	0.000000	0.001533	0.001671	28.0823	0.087500	0.001877	46.6251	-164.621	-165.969	-0.006545	0.705084	-0.363713	-0.365047	-0.047212	46.6251	-0.362954	-39311.9	1.200973E-6	NaN
1148	1.000000	0.714442	7.37629e+06	-57539.1	1055.82	-29736.7	0.000000	0.000000	6.715032	-0.067031	NaN	0.000000	0.001562	0.001671	28.0821	0.022589	0.001955	11.5566	143.283	-165.874	0.007160	0.713133	-0.355689	-0.356998	-0.067031	11.5566	-0.351339	-26695	2.511005E-6	NaN
1148	1.000000	0.722445	7.37629e+06	-57539.1	1055.82	-29736.7	0.000000	0.000000	6.723036	-0.067619	NaN	0.000000	0.001569	0.001685	28.0822	0.127325	0.001966	64.751	71.7003	-163.595	-0.010106	0.721076	-0.347686	-0.349055	-0.067619	64.751	-0.346902	-23015.3	2.938001E-6	NaN
1148	1.000000	0.730448	7.37629e+06	-57539.1	1055.82	-29736.7	0.000000	0.000000	6.731043	0.019838	NaN	0.000000	0.001524	0.001722	28.0822	0.072941	0.002111	34.5489	21.5202	-164.034	-0.000304	0.729087	-0.339682	-0.341044	0.019838	34.5489	-0.340113	-18331.6	-1.082195E-6	NaN
1148	1.000000	0.738446	7.37629e+06	-57539.1	1055.82	-29736.7	0.000000	0.000000	6.739039	0.003938	NaN	0.000000	0.001539	0.001686	28.0823	0.071785	0.001916	37.4759	-86.9047	-168.542	0.054737	0.737110	-0.331685	-0.333020	0.003938	37.4759	-0.331764	-13844.4	-2.844366E-7	NaN
1148	1.000000	0.746461	7.37629e+06	-57539.1	1055.82	-29736.7	0.000000	0.000000	6.747053	-0.040070	NaN	0.000000	0.001571	0.001688	28.0813	0.091865	0.002092	43.9026	-65.5725	-164.743	-0.016011	0.745141	-0.323670	-0.324989	-0.040070	43.9026	-0.322985	-10293	3.892976E-6	NaN
1148	1.000000	0.754416	7.37629e+06	-57539.1	1055.82	-29736.7	0.000000	0.000000	6.755008	-0.019415	NaN	0.000000	0.001517	0.001655	28.081	0.098879	0.002112	46.8224	-160.897	-165.465	-0.023444	0.753192	-0.315715	-0.316939	-0.019415	46.8224	-0.315404	-7959.93	2.439086E-6	NaN
1148	1.000000	0.762480	7.37629e+06	-57539.1	1055.82	-29736.7	0.000000	0.000000	6.763075	0.037718	NaN	0.000000	0.001561	0.001655	28.0813	0.131285	0.001850	70.9481	-135.596	-167.585	0.089796	0.761138	-0.307651	-0.308993	0.037718	70.9481	-0.308049	-6196.89	-6.086627E-6	NaN
1148	1.000000	0.770457	7.37629e+06	-57539.1	1055.82	-29736.7	0.000000	0.000000	6.771049	-0.039400	NaN	0.000000	0.001529	0.001663	28.0812	0.160732	0.001906	84.312	120.997	-164.87	-0.090594	0.769144	-0.299674	-0.300987	-0.039400	84.312	-0.299324	-4597.96	8.569010E-6	NaN
1148	1.000000	0.778465	7.37629e+06	-57539.1	1055.82	-29736.7	0.000000	0.000000	6.779060	0.031864	NaN	0.000000	0.001550	0.001636	28.0813	0.046149	0.001960	23.544	-104.539	-163.984	0.014424	0.777153	-0.291666	-0.292978	0.031864	23.544	-0.292681	-3659.58	-8.707021E-6	NaN
1148	1.000000	0.786438	7.37629e+06	-57539.1	1055.82	-29736.7	0.000000	0.000000	6.787032	0.005218	NaN	0.000000	0.001505	0.001639	28.0811	0.057220	0.001991	28.7357	-13.5561	-164.69	-0.089755	0.785165	-0.283693	-0.284966	0.005218	28.7357	-0.283829	-2695.6	-1.935657E-6	NaN
1148	1.000000	0.794447	7.37629e+06	-57539.1	1055.82	-29736.7	0.000000	0.000000	6.795042	0.038287	NaN	0.000000	0.001517	0.001677	28.081	0.042074	0.001976	21.2888	6.641820	-164.746	0.034987	0.793152	-0.275684	-0.276979	0.038287	21.2888	-0.277033	-2128.91	-1.798414E-5	NaN
1148	1.000000	0.802458	7.37629e+06	-57539.1	1055.82	-29736.7	0.000000	0.000000	6.803052	0.020491	NaN	0.000000	0.001544	0.001682	28.0812	0.058759	0.001866	31.4828	145.581	-164.373	0.017628	0.801161	-0.267673	-0.268970	0.020491	31.4828	-0.268161	-1561.61	-1.312175E-5	NaN
1148	1.000000	0.810483	7.37629e+06	-57539.1	1055.82	-29736.7	0.000000	0.000000	6.811078	0.024460	NaN	0.000000	0.001516	0.001663	28.0813	0.059883	0.002039	29.3675	141.154	-163.952	0.032418	0.809188	-0.259648	-0.260942	0.024460	29.3675	-0.260272	-1183.28	-2.067171E-5	NaN
1148	1.000000	0.818495	7.37629e+06	-57539.1	1055.82	-29736.7	0.000000	0.000000	6.819087	-0.031787	NaN	0.000000	0.001519	0.001649	28.0811	0.084277	0.001959	43.0105	45.3638	-167.427	-0.000593	0.817142	-0.251636	-0.252989	-0.031787	43.0105	-0.251082	-854.454	3.720150E-5	NaN
1148	1.000000	0.826476	7.37629e+06	-57539.1	1055.82	-29736.7	0.000000	0.000000	6.827069	-0.013438	NaN	0.000000	0.001548	0.001650	28.0809	0.068715	0.002007	34.2323	-149.452	-164.437	-0.021434	0.825164	-0.243654	-0.244967	-0.013438	34.2323	-0.243360	-648.551	2.072033E-5	NaN
1148	1.000000	0.834486	7.37629e+06	-57539.1	1055.82	-29736.7	0.000000	0.000000	6.835081	0.034115	NaN	0.000000	0.001536	0.001673	28.0812	0.032467	0.002123	15.2915	90.3929	-163.928	0.082885	0.833197	-0.235645	-0.236934	0.034115	15.2915	-0.237318	-521.921	-6.536529E-5	NaN
1148	1.000000	0.842491	7.37629e+06	-57539.1	1055.82	-29736.7	0.000000	0.000000	6.843084	-0.022204	NaN	0.000000	0.001531	0.001684	28.081	0.129689	0.002036	63.6881	126.651	-167.122	0.012005	0.841200	-0.227640	-0.228931	-0.022204	63.6881	-0.227378	-363.962	6.100608E-5	NaN
1148	1.000000	0.850495	7.37629e+06	-57539.1	1055.82	-29736.7	0.000000	0.000000	6.851088	0.003360	NaN	0.000000	0.001540	0.001696	28.081	0.119074	0.002050	58.0933	45.9778	-164.109	-0.024241	0.849218	-0.219636	-0.220912	0.003360	58.0933	-0.219679	-274.507	-1.223914E-5	NaN
1148	1.000000	0.858497	7.37629e+06	-57539.1	1055.82	-29736.7	0.000000	0.000000	6.859088	-0.050212	NaN	0.000000	0.001529	0.001651	28.0811	0.074623	0.001961	38.0592	76.8331	-163.314	-0.050183	0.857197	-0.211634	-0.212934	-0.050212	38.0592	-0.210645	-196.451	0.000256	NaN
1148	1.000000	0.866522	7.37629e+06	-57539.1	1055.82	-29736.7	0.000000	0.000000	6.867118	0.060648	NaN	0.000000	0.001589	0.001708	28.0808	0.092385	0.001993	46.3505	152.048	-163.448	-0.062136	0.865215	-0.203609	-0.204916	0.060648	46.3505	-0.204590	-156.63	-0.000387	NaN
1148	1.000000	0.874494	7.37629e+06	-57539.1	1055.82	-29736.7	0.000000	0.000000	6.875087	-0.007631	NaN	0.000000	0.001601	0.001694	28.0814	0.061944	0.001870	33.1242	-6.958177	-161.66	-0.001065	0.873172	-0.195637	-0.196958	-0.007631	33.1242	-0.195464	-110.889	6.881675E-5	NaN
1148	1.000000	0.882521	7.37629e+06	-57539.1	1055.82	-29736.7	0.000000	0.000000	6.883111	-0.084294	NaN	0.000000	0.001597	0.001661	28.0818	0.117561	0.002141	54.9003	-133.869	-165.56	0.038824	0.881171	-0.187610	-0.188960	-0.084294	54.9003	-0.186459	-78.4666	0.001074	NaN
1148	1.000000	0.890481	7.37629e+06	-57539.1	1055.82	-29736.7	0.000000	0.000000	6.891076	0.024977	NaN	0.000000	0.001595	0.001703	28.0824	0.072040	0.002037	35.3637	146.317	-164.677	0.067316	0.889199	-0.179650	-0.180932	0.024977	35.3637	-0.180179	-61.4496	-0.000406	NaN
1148	1.000000	0.898503	7.37629e+06	-57539.1	1055.82	-29736.7	0.000000	0.000000	6.899096	-0.021601	NaN	0.000000	0.001596	0.001674	28.0822	0.164691	0.001929	85.3618	-158.52	-162.739	-0.062436	0.897200	-0.171627	-0.172931	-0.021601	85.3618	-0.171438	-43.5051	0.000497	NaN
1148	1.000000	0.906504	7.37629e+06	-57539.1	1055.82	-29736.7	0.000000	0.000000	6.907097	-0.015235	NaN	0.000000	0.001540	0.001694	28.082	0.040476	0.001955	20.7077	-82.5263	-162.568	0.053790	0.905202	-0.163627	-0.164929	-0.015235	20.7077	-0.163075	-31.0759	0.000490	NaN
1148	1.000000	0.914500	7.37629e+06	-57539.1	1055.82	-29736.7	0.000000	0.000000	6.915095	0.029614	NaN	0.000000	0.001533	0.001671	28.0826	0.102220	0.002016	50.7063	10.119	-167.217	0.034213	0.913229	-0.155631	-0.156901	0.029614	50.7063	-0.156069	-23.323	-0.001270	NaN
1148	1.000000	0.922506	7.37629e+06	-57539.1	1055.82	-29736.7	0.000000	0.000000	6.923100	-0.001490	NaN	0.000000	0.001542	0.001667	28.0821	0.089166	0.002070	43.0737	98.0728	-164.673	0.065544	0.921260	-0.147624	-0.148871	-0.001490	43.0737	-0.147598	-16.3704	9.101076E-5	NaN
1148	1.000000	0.930533	7.37629e+06	-57539.1	1055.82	-29736.7	0.000000	0.000000	6.931126	-0.006761	NaN	0.000000	0.001548	0.001673	28.0822	0.077473	0.002192	35.34	-33.2188	-164.62	-0.027499	0.929184	-0.139598	-0.140947	-0.006761	35.34	-0.139454	-11.5533	0.000585	NaN
1148	1.000000	0.938521	7.37629e+06	-57539.1	1055.82	-29736.7	0.000000	0.000000	6.939116	0.031896	NaN	0.000000	0.001529	0.001675	28.082	0.100985	0.002019	50.0233	-54.0858	-165.52	0.020497	0.937160	-0.131610	-0.132971	0.031896	50.0233	-0.132088	-8.364109	-0.003813	NaN
1148	1.000000	0.946531	7.37629e+06	-57539.1	1055.82	-29736.7	0.000000	0.000000	6.947130	0.125448	NaN	0.000000	0.001529	0.001656	28.0824	0.105052	0.001995	52.6703	112.548	-167.054	0.072739	0.945281	-0.123600	-0.124850	0.125448	52.6703	-0.125386	-6.189044	-0.020269	NaN
1148	1.000000	0.954542	7.37629e+06	-57539.1	1055.82	-29736.7	0.000000	0.000000	6.955135	-0.012808	NaN	0.000000	0.001537	0.001693	28.0822	0.027615	0.002041	13.5327	-127.081	-162.117	-0.050159	0.953270	-0.115589	-0.116861	-0.012808	13.5327	-0.114879	-3.798557	0.003372	NaN
1148	1.000000	0.962547	7.37629e+06	-57539.1	1055.82	-29736.7	0.000000	0.000000	6.963145	0.091017	NaN	0.000000	0.001528	0.001679	28.0821	0.151494	0.002056	73.6792	-137.411	-163.803	0.009982	0.961187	-0.107583	-0.108944	0.091017	73.6792	-0.108510	-2.794737	-0.032567	NaN
1148	1.000000	0.970542	7.37629e+06	-57539.1	1055.82	-29736.7	0.000000	0.000000	6.971134	-0.044305	NaN	0.000000	0.001536	0.001689	28.0822	0.146919	0.001831	80.2471	-160.092	-166.078	-0.038696	0.969201	-0.099588	-0.100930	-0.044305	80.2471	-0.099174	-1.751576	0.025294	NaN
1148	1.000000	0.978554	7.37629e+06	-57539.1	1055.82	-29736.7	0.000000	0.000000	6.979145	-0.049860	NaN	0.000000	0.001554	0.001656	28.0822	0.114307	0.001963	58.24	136.203	-166.133	-0.061358	0.977222	-0.091577	-0.092909	-0.049860	58.24	-0.090935	-1.136819	0.043859	NaN
1148	1.000000	0.986539	7.37629e+06	-57539.1	1055.82	-29736.7	0.000000	0.000000	6.987133	0.007323	NaN	0.000000	0.001567	0.001687	28.0821	0.072778	0.002148	33.8801	-163.432	-166.245	-0.049051	0.985208	-0.083592	-0.084923	0.007323	33.8801	-0.083754	-0.766294	-0.009556	NaN
1148	1.000000	0.994545	7.37629e+06	-57539.1	1055.82	-29736.7	0.000000	0.000000	6.995140	0.023122	NaN	0.000000	0.001575	0.001702	28.0821	0.056073	0.002055	27.2806	104.81	-162.19	-0.102369	0.993260	-0.075586	-0.076871	0.023122	27.2806	-0.076221	-0.496573	-0.046563	NaN
1148	1.000000	1.002577	7.37629e+06	-57539.1	1055.82	-29736.7	0.000000	0.000000	7.003171	0.003914	NaN	0.000000	0.001580	0.001686	28.0819	0.027297	0.001969	13.8636	-173.128	-164.435	-0.094924	1.001252	-0.067554	-0.068879	0.003914	13.8636	-0.067765	-0.296862	-0.013184	NaN
1148	1.000000	1.010581	7.37629e+06	-57539.1	1055.82	-29736.7	0.000000	0.000000	7.011175	0.015745	NaN	0.000000	0.001560	0.001665	28.0821	0.108120	0.001960	55.1745	-72.2963	-164.902	0.010445	1.009224	-0.059550	-0.060907	0.015745	55.1745	-0.059764	-0.177305	-0.088802	NaN
1148	1.000000	1.018564	7.37629e+06	-57539.1	1055.82	-29736.7	0.000000	0.000000	7.019157	-0.011696	NaN	0.000000	0.001563	0.001689	28.0815	0.078027	0.001913	40.7866	-137.113	-164.496	0.032540	1.017233	-0.051566	-0.052898	-0.011696	40.7866	-0.051351	-0.100230	0.116688	NaN
1148	1.000000	1.026542	7.37629e+06	-57539.1	1055.82	-29736.7	0.000000	0.000000	7.027137	0.022286	NaN	0.000000	0.001595	0.001705	28.0809	0.076507	0.002037	37.5628	32.3273	-164.35	0.094152	1.025256	-0.043589	-0.044874	0.022286	37.5628	-0.044034	-0.060039	-0.371183	NaN
1148	1.000000	1.034551	7.37629e+06	-57539.1	1055.82	-29736.7	0.000000	0.000000	7.035145	0.006539	NaN	0.000000	0.001553	0.001708	28.0807	0.082943	0.001980	41.8959	-137.928	-163.914	0.163917	1.033277	-0.035579	-0.036854	0.006539	41.8959	-0.035697	-0.033578	-0.194730	NaN
1148	1.000000	1.042581	7.37629e+06	-57539.1	1055.82	-29736.7	0.000000	0.000000	7.043178	0.078160	NaN	0.000000	0.001550	0.001685	28.0806	0.015138	0.001926	7.860925	6.458933	-166.038	0.032919	1.041240	-0.027549	-0.028891	0.078160	7.860925	-0.035006	-0.032038	-2.439563	NaN
1148	1.000000	1.050547	7.37629e+06	-57539.1	1055.82	-29736.7	0.000000	0.000000	7.051223	2.007670	NaN	0.000000	0.001566	0.001720	28.0804	1.308584	0.001808	723.759	4.702829	-162.908	1.449161	1.049261	-0.019584	-0.020870	2.007670	723.759	-0.021664	-0.013846	-145	NaN
1148	1.000000	1.058541	7.37629e+06	-57539.1	1055.82	-29736.7	0.000000	0.000000	7.059377	5.904404	NaN	0.000000	0.001602	0.001662	28.0807	1.964683	0.001981	991.883	9.434616	-164.365	5.364066	1.057256	-0.011590	-0.012875	5.904404	991.883	-0.016055	-0.009917	-595.397	NaN
1148	1.000000	1.066574	7.37629e+06	-57539.1	1055.82	-29736.7	0.000000	0.000000	7.067461	7.121060	NaN	0.000000	0.001614	0.001705	28.081	2.110817	0.001878	1124.05	14.9889	-166.391	7.019034	1.065272	-0.003557	-0.004859	7.121060	1124.05	-0.008308	-0.005412	-1315.89	NaN
1148	1.000000	1.074592	7.37629e+06	-57539.1	1055.82	-29736.7	0.000000	0.000000	7.075482	7.222296	NaN	0.000000	0.001593	0.001663	28.0804	2.464523	0.002062	1195.45	15.385	-165.46	7.439312	1.073302	0.004461	0.003171	7.222296	1195.45	-7.028954E-5	-5.245673E-5	-137681	NaN
1148	1.000000	1.082440	7.37629e+06	-57539.1	1055.82	-29736.7	0.000000	0.000000	7.083414	9.245650	NaN	0.000000	0.001561	0.001711	28.0811	5.183419	0.001899	2730.18	13.0522	-168.498	8.344525	1.081249	0.012310	0.011118	9.245650	2730.18	0.009770	0.008927	1035.73	26400.9
1148	2.000000	1.085075	7.37629e+06	-57539.1	1055.82	-29736.7	0.000000	0.000000	7.086044	9.130317	NaN	0.000000	0.001603	0.001664	28.0807	5.659223	0.001805	3134.83	10.3377	-172.258	8.999980	1.084783	0.014944	0.014652	9.130317	3134.83	0.012760	0.012413	735.532	25706.6
1148	2.000000	1.087060	7.37629e+06	-57539.1	1055.82	-29736.7	0.000000	0.000000	7.088107	11.0183	NaN	0.000000	0.001570	0.001695	28.0808	6.286844	0.001878	3347.87	9.742900	-170.167	10.7338	1.086707	0.016929	0.016576	11.0183	3347.87	0.014461	0.014573	756.054	25337.3
1148	2.000000	1.089080	7.37629e+06	-57539.1	1055.82	-29736.7	0.000000	0.000000	7.090206	12.9603	NaN	0.000000	0.001589	0.001657	28.0808	6.936783	0.001911	3630.06	8.725554	-170.3	12.803	1.088747	0.018949	0.018617	12.9603	3630.06	0.016271	0.017018	761.567	25423.3
1148	2.000000	1.091023	7.37629e+06	-57539.1	1055.82	-29736.7	0.000000	0.000000	7.092210	14.4169	NaN	0.000000	0.001594	0.001681	28.0808	7.262689	0.002045	3551.11	7.761242	-166.989	14.3342	1.090727	0.020893	0.020596	14.4169	3551.11	0.017848	0.019273	748.057	23370.5
1148	2.000000	1.092996	7.37629e+06	-57539.1	1055.82	-29736.7	0.000000	0.000000	7.094222	15.3707	NaN	0.000000	0.001590	0.001677	28.0812	7.768060	0.001899	4091.24	7.827825	-169.602	15.6017	1.092724	0.022865	0.022593	15.3707	4091.24	0.020047	0.022617	679.614	24854.9
1148	2.000000	1.094969	7.37629e+06	-57539.1	1055.82	-29736.7	0.000000	0.000000	7.096208	15.6835	NaN	0.000000	0.001579	0.001663	28.081	8.477997	0.002029	4178.56	10.3521	-171.227	15.2826	1.094683	0.024838	0.024552	15.6835	4178.56	0.022023	0.025822	607.369	23757.8
1148	2.000000	1.096985	7.37629e+06	-57539.1	1055.82	-29736.7	0.000000	0.000000	7.098315	17.9012	NaN	0.000000	0.001549	0.001690	28.0812	8.800951	0.001981	4443.27	5.032878	-166.661	17.475	1.096721	0.026854	0.026591	17.9012	4443.27	0.023832	0.028926	618.87	23869
1148	2.000000	1.099013	7.37629e+06	-57539.1	1055.82	-29736.7	0.000000	0.000000	7.100445	20.3699	NaN	0.000000	0.001524	0.001678	28.0811	9.525878	0.001915	4973.54	10.0578	-172.934	20.2326	1.098682	0.028882	0.028552	20.3699	4973.54	0.025810	0.032506	626.646	25203.2
1148	2.000000	1.100998	7.37629e+06	-57539.1	1055.82	-29736.7	0.000000	0.000000	7.102562	23.5962	NaN	0.000000	0.001536	0.001688	28.0813	10.4703	0.001927	5433.13	8.058034	-171.138	23.4422	1.100680	0.030867	0.030549	23.5962	5433.13	0.027610	0.035935	656.631	26185.6
1148	2.000000	1.102986	7.37629e+06	-57539.1	1055.82	-29736.7	0.000000	0.000000	7.104694	27.0969	NaN	0.000000	0.001527	0.001694	28.0824	11.7277	0.002009	5838.22	5.838400	-169.132	26.4545	1.102671	0.032855	0.032541	27.0969	5838.22	0.029374	0.039456	686.758	26853.2
1148	2.000000	1.104938	7.37629e+06	-57539.1	1055.82	-29736.7	0.000000	0.000000	7.106823	31.375	NaN	0.000000	0.001540	0.001697	28.082	12.7994	0.001894	6758.8	7.127755	-171.271	30.5263	1.104722	0.034807	0.034591	31.375	6758.8	0.031326	0.043536	720.663	29594.9
1148	2.000000	1.106990	7.37629e+06	-57539.1	1055.82	-29736.7	0.000000	0.000000	7.109040	35.3906	NaN	0.000000	0.001553	0.001667	28.0824	14.402	0.001961	7344.09	8.815650	-172.515	35.06	1.106676	0.036860	0.036545	35.3906	7344.09	0.033245	0.047739	741.329	30709.5
1148	2.000000	1.108953	7.37629e+06	-57539.1	1055.82	-29736.7	0.000000	0.000000	7.111177	39.6397	NaN	0.000000	0.001572	0.001656	28.0825	16.3206	0.002031	8036.09	8.841267	-172.654	38.7523	1.108702	0.038822	0.038571	39.6397	8036.09	0.035123	0.052032	761.837	32187.2
1148	2.000000	1.110957	7.37629e+06	-57539.1	1055.82	-29736.7	0.000000	0.000000	7.113343	43.5614	NaN	0.000000	0.001569	0.001659	28.0823	17.5993	0.001680	10475	7.998708	-177.027	43.2021	1.110665	0.040826	0.040534	43.5614	10475	0.037707	0.058238	747.993	39657.6
1148	2.000000	1.113003	7.37629e+06	-57539.1	1055.82	-29736.7	0.000000	0.000000	7.115659	50.1276	NaN	0.000000	0.001568	0.001678	28.0826	20.5324	0.001789	11476.7	7.975643	-177.479	50.3966	1.112702	0.042872	0.042571	50.1276	11476.7	0.039597	0.062990	795.804	41778.7
1148	2.000000	1.114964	7.37629e+06	-57539.1	1055.82	-29736.7	0.000000	0.000000	7.117959	58.3772	NaN	0.000000	0.001569	0.001690	28.0823	22.003	0.001638	13431.3	6.535868	-177.44	57.5127	1.114580	0.044833	0.044449	58.3772	13431.3	0.041573	0.068158	856.499	47003.9
1148	2.000000	1.116916	7.37629e+06	-57539.1	1055.82	-29736.7	0.000000	0.000000	7.120247	66.536	NaN	0.000000	0.001583	0.001682	28.0823	24.3057	0.001795	13539.7	5.720236	-176.719	64.5637	1.116637	0.046785	0.046506	66.536	13539.7	0.043099	0.072283	920.491	46011.4
1148	2.000000	1.118920	7.37629e+06	-57539.1	1055.82	-29736.7	0.000000	0.000000	7.122690	77.2168	NaN	0.000000	0.001583	0.001705	28.0824	26.4265	0.001605	16465.7	4.221060	-176.452	74.6044	1.118606	0.048789	0.048476	77.2168	16465.7	0.045272	0.078361	985.395	53740.8
1148	2.000000	1.120918	7.37629e+06	-57539.1	1055.82	-29736.7	0.000000	0.000000	7.125267	91.2853	NaN	0.000000	0.001589	0.001678	28.0823	28.8004	0.001706	16880.1	6.936209	179.225	89.6598	1.120574	0.050787	0.050444	91.2853	16880.1	0.046731	0.082578	1105.45	53668.3
1148	2.000000	1.122977	7.37629e+06	-57539.1	1055.82	-29736.7	0.000000	0.000000	7.127868	104.432	NaN	0.000000	0.001573	0.001707	28.0831	31.1292	0.001909	16303.8	5.943887	-178.004	105.268	1.122663	0.052846	0.052532	104.432	16303.8	0.048042	0.086459	1207.88	50659.1
1148	2.000000	1.124898	7.37629e+06	-57539.1	1055.82	-29736.7	0.000000	0.000000	7.129479	96.9025	NaN	0.000000	0.001561	0.001668	28.0823	31.5685	0.001742	18124.1	5.836601	-179.823	94.3097	1.124585	0.054768	0.054454	96.9025	18124.1	0.050758	0.094769	1022.51	53789.4
1148	2.000000	1.126881	7.37629e+06	-57539.1	1055.82	-29736.7	0.000000	0.000000	7.132035	110.822	NaN	0.000000	0.001562	0.001700	28.0821	33.6378	0.001737	19361.8	5.460032	179.783	109.041	1.126600	0.056751	0.056469	110.822	19361.8	0.052458	0.100161	1106.43	55894.6
1148	2.000000	1.128942	7.37629e+06	-57539.1	1055.82	-29736.7	0.000000	0.000000	7.134722	126.042	NaN	0.000000	0.001549	0.001719	28.0822	35.5163	0.001796	19772.4	1.458298	-176.123	123.13	1.128655	0.058811	0.058525	126.042	19772.4	0.054030	0.105276	1197.25	55675.8
1148	2.000000	1.130908	7.37629e+06	-57539.1	1055.82	-29736.7	0.000000	0.000000	7.137316	141.318	NaN	0.000000	0.001555	0.001691	28.0823	37.6357	0.001776	21189.2	4.227556	179.821	140.275	1.130618	0.060777	0.060487	141.318	21189.2	0.055775	0.111095	1272.05	58081.7
1148	2.000000	1.132901	7.37629e+06	-57539.1	1055.82	-29736.7	0.000000	0.000000	7.140174	162.346	NaN	0.000000	0.001558	0.001713	28.0827	40.0752	0.001788	22416.4	3.707430	-179.906	160.298	1.132613	0.062770	0.062482	162.346	22416.4	0.057339	0.116438	1394.27	60019.5
1148	2.000000	1.134904	7.37629e+06	-57539.1	1055.82	-29736.7	0.000000	0.000000	7.142894	179.789	NaN	0.000000	0.001565	0.001698	28.0823	41.539	0.001842	22551.8	8.019646	175.933	177.278	1.134528	0.064773	0.064397	179.789	22551.8	0.058794	0.121518	1479.53	59106.4
1148	2.000000	1.136882	7.37629e+06	-57539.1	1055.82	-29736.7	0.000000	0.000000	7.145627	198.113	NaN	0.000000	0.001580	0.001701	28.081	43.2118	0.001826	23665.5	5.410889	178.454	196.034	1.136535	0.066751	0.066405	198.113	23665.5	0.060473	0.127510	1553.71	60550.4
1148	2.000000	1.138886	7.37629e+06	-57539.1	1055.82	-29736.7	0.000000	0.000000	7.148573	221.005	NaN	0.000000	0.001589	0.001680	28.081	44.6966	0.001807	24738.2	5.027165	177.814	217.45	1.138535	0.068755	0.068404	221.005	24738.2	0.062055	0.133279	1658.21	61909.8
1148	2.000000	1.140851	7.37629e+06	-57539.1	1055.82	-29736.7	0.000000	0.000000	7.151472	243.714	NaN	0.000000	0.001568	0.001725	28.0808	45.7768	0.001840	24874.8	2.976316	179.664	239.86	1.140483	0.070720	0.070352	243.714	24874.8	0.063372	0.138176	1763.79	61138.8
1148	2.000000	1.142902	7.37629e+06	-57539.1	1055.82	-29736.7	0.000000	0.000000	7.154433	265.841	NaN	0.000000	0.001569	0.001727	28.0812	47.6701	0.001767	26977.9	2.351139	179.284	262.089	1.142611	0.072771	0.072480	265.841	26977.9	0.065381	0.145806	1823.25	64549.6
1148	2.000000	1.144854	7.37629e+06	-57539.1	1055.82	-29736.7	0.000000	0.000000	7.157304	288.171	NaN	0.000000	0.001551	0.001748	28.0811	48.3971	0.001841	26286.8	4.360883	177.974	284.758	1.144593	0.074723	0.074462	288.171	26286.8	0.066501	0.150146	1919.28	61980.5
1148	2.000000	1.146857	7.37629e+06	-57539.1	1055.82	-29736.7	0.000000	0.000000	7.160328	312.981	NaN	0.000000	0.001593	0.001719	28.0808	50.5946	0.001702	29732.9	3.929555	176.63	308.589	1.146487	0.076726	0.076356	312.981	29732.9	0.068831	0.159367	1963.9	68047.4
1148	2.000000	1.148862	7.37629e+06	-57539.1	1055.82	-29736.7	0.000000	0.000000	7.162996	329.091	NaN	0.000000	0.001561	0.001722	28.081	52.7633	0.001742	30287.7	4.347758	176.678	323.911	1.148542	0.078731	0.078411	329.091	30287.7	0.070582	0.166462	1976.97	67823.8
1148	2.000000	1.150836	7.37629e+06	-57539.1	1055.82	-29736.7	0.000000	0.000000	7.166198	358.942	NaN	0.000000	0.001599	0.001684	28.0809	55.3431	0.001841	30060.3	4.059479	177.14	355.776	1.150516	0.080705	0.080385	358.942	30060.3	0.071750	0.171278	2095.66	66361.3
1148	2.000000	1.152893	7.37629e+06	-57539.1	1055.82	-29736.7	0.000000	0.000000	7.169077	378.922	NaN	0.000000	0.001590	0.001701	28.0811	56.8278	0.001840	30891.4	3.746910	177.737	378.66	1.152674	0.082762	0.082543	378.922	30891.4	0.073563	0.178882	2118.28	66731
1148	2.000000	1.154769	7.37629e+06	-57539.1	1055.82	-29736.7	0.000000	0.000000	7.172393	413.9	NaN	0.000000	0.001558	0.001681	28.0815	57.712	0.001861	31006.6	2.108108	179.365	406.211	1.154455	0.084639	0.084324	413.9	31006.6	0.074627	0.183418	2256.6	66146.4
1148	2.000000	1.156834	7.37629e+06	-57539.1	1055.82	-29736.7	0.000000	0.000000	7.174925	425.258	NaN	0.000000	0.001605	0.001699	28.0811	60.8228	0.001866	32593.5	4.776142	175.585	419.872	1.156485	0.086703	0.086354	425.258	32593.5	0.076918	0.193361	2199.29	67720.4
1148	2.000000	1.158854	7.37629e+06	-57539.1	1055.82	-29736.7	0.000000	0.000000	7.178565	464.627	NaN	0.000000	0.001563	0.001718	28.081	62.1449	0.001908	32562.8	3.967346	176.541	460.084	1.158532	0.088724	0.088401	464.627	32562.8	0.078022	0.198243	2343.72	66818.4
1148	2.000000	1.160923	7.37629e+06	-57539.1	1055.82	-29736.7	0.000000	0.000000	7.181919	495.884	NaN	0.000000	0.001589	0.001712	28.0809	62.7549	0.001845	34009.6	5.024107	175.031	495.378	1.160479	0.090792	0.090349	495.884	34009.6	0.079856	0.206478	2401.64	68381.5
1148	2.000000	1.162798	7.37629e+06	-57539.1	1055.82	-29736.7	0.000000	0.000000	7.182642	467.877	NaN	0.000000	0.001561	0.001677	28.0812	65.5827	0.001903	34467	3.153276	176.463	461.252	1.162573	0.092667	0.092443	467.877	34467	0.082486	0.218554	2140.78	67359.2
1148	2.000000	1.164769	7.37629e+06	-57539.1	1055.82	-29736.7	0.000000	0.000000	7.186728	519.271	NaN	0.000000	0.001553	0.001654	28.0811	65.4551	0.001791	36538.6	2.053080	177.669	511.138	1.164421	0.094638	0.094290	519.271	36538.6	0.083979	0.225557	2302.18	70290.6
1148	2.000000	1.166807	7.37629e+06	-57539.1	1055.82	-29736.7	0.000000	0.000000	7.188961	524.011	NaN	0.000000	0.001579	0.001733	28.081	69.0641	0.001857	37195.9	4.853992	173.943	518.017	1.166531	0.096676	0.096400	524.011	37195.9	0.086110	0.235728	2222.95	69994.3
1148	2.000000	1.168841	7.37629e+06	-57539.1	1055.82	-29736.7	0.000000	0.000000	7.192623	563.596	NaN	0.000000	0.001567	0.001721	28.0814	68.6382	0.001910	35932.2	-1.585025	-178.159	558.16	1.168523	0.098710	0.098392	563.596	35932.2	0.086946	0.239773	2350.54	67043.5
1148	2.000000	1.170798	7.37629e+06	-57539.1	1055.82	-29736.7	0.000000	0.000000	7.195408	583.714	NaN	0.000000	0.001605	0.001691	28.0823	70.6812	0.001904	37126.7	3.992295	175.555	578.944	1.170501	0.100667	0.100370	583.714	37126.7	0.088875	0.249235	2342.02	67944.5
1148	2.000000	1.172887	7.37629e+06	-57539.1	1055.82	-29736.7	0.000000	0.000000	7.198944	618.875	NaN	0.000000	0.001576	0.001711	28.0824	72.9677	0.001898	38435.3	7.208261	172.169	618.058	1.172562	0.102756	0.102431	618.875	38435.3	0.090680	0.258239	2396.52	69102.3
1148	2.000000	1.174672	7.37629e+06	-57539.1	1055.82	-29736.7	0.000000	0.000000	7.201102	627.921	NaN	0.000000	0.001552	0.001688	28.0822	73.5484	0.001843	39915.6	4.693997	173.828	616.453	1.174396	0.104542	0.104265	627.921	39915.6	0.092743	0.268719	2336.72	70350.5
1148	2.000000	1.176849	7.37629e+06	-57539.1	1055.82	-29736.7	0.000000	0.000000	7.204887	667.023	NaN	0.000000	0.001535	0.001680	28.0821	74.2881	0.001846	40233.6	4.003629	176.024	664.655	1.176488	0.106718	0.106357	667.023	40233.6	0.094284	0.276670	2410.89	69884.5
1148	2.000000	1.178816	7.37629e+06	-57539.1	1055.82	-29736.7	0.000000	0.000000	7.206984	670.198	NaN	0.000000	0.001536	0.001734	28.0826	76.635	0.001949	39317.1	3.153907	175.819	664.248	1.178487	0.108685	0.108356	670.198	39317.1	0.095900	0.285130	2350.5	67271.8
1148	2.000000	1.180788	7.37629e+06	-57539.1	1055.82	-29736.7	0.000000	0.000000	7.210808	715.178	NaN	0.000000	0.001546	0.001675	28.0823	78.4919	0.002014	38980.9	7.604513	172.585	709.457	1.180385	0.110658	0.110254	715.178	38980.9	0.096897	0.290408	2462.67	66087.6
1148	2.000000	1.182127	7.37629e+06	-57539.1	1055.82	-29736.7	0.000000	0.000000	7.209954	661.902	NaN	0.000000	0.001568	0.001683	28.0822	78.2048	0.001802	43393.2	2.048913	175.766	669.246	1.182250	0.111996	0.112119	661.902	43393.2	0.100556	0.310158	2134.08	71187.5