File: remote_trans/data/nanoindenter/0828-1/data/Data_2025-08-06,11h17m57s/2025-07-22_16-23-58_1_211.txt
2025-07-22, 16:23:58, 1
Index	Phase	Displacement	Time	Pos X	Pos Y	Pos Z	Rot A	Rot B	Piezo Z	Force A	Force B	Gripper	Voltage A	Voltage B	Temperature	Amplitude force	Amplitude pos	Stiffness	Phase shift	Phase excitation	Force A raw	Displacement raw	HMax	HMax raw	Real Force	Real Stiffness	Contact Depth	Area	Hardness	Reduced Mod.
[#]	[#]	[um]	[s]	[um]	[um]	[um]	[m°]	[m°]	[um]	[uN]	[uN]	[V]	[V]	[V]	[°C]	[uN]	[um]	[N/m]	[°]	[°]	[uN]	[um]	[um]	[um]	[uN]	[N/m]	[um]	[um^2]	[MPa]	[MPa]
211	1.000000	0.002563	7.36711e+06	-49189.1	955.818	-29760.2	0.000000	0.000000	6.002823	0.022899	NaN	0.000000	0.001639	0.001797	28.0771	0.060174	0.001012	59.4324	46.9287	-165.602	0.050514	0.001276	-1.142885	-1.144173	0.022899	59.4324	-1.143174	-1.902414E+15	-1.203678E-17	NaN
211	1.000000	0.012611	7.36711e+06	-49189.1	955.818	-29760.2	0.000000	0.000000	6.012872	0.050752	NaN	0.000000	0.001617	0.001739	28.0772	0.032773	0.001227	26.7075	62.3096	22.5272	-0.034039	0.011153	-1.132838	-1.134295	0.050752	26.7075	-1.134263	-1.444783E+15	-3.512767E-17	NaN
211	1.000000	0.022479	7.36711e+06	-49189.1	955.818	-29760.2	0.000000	0.000000	6.022739	0.022751	NaN	0.000000	0.001611	0.001743	28.0774	0.074391	0.001813	41.0262	24.407	-160.739	0.020721	0.021210	-1.122970	-1.124238	0.022751	41.0262	-1.123386	-1.032512E+15	-2.203475E-17	NaN
211	1.000000	0.032496	7.36711e+06	-49189.1	955.819	-29760.2	0.000000	0.000000	6.032756	0.012356	NaN	0.000000	0.001624	0.001800	28.0772	0.126394	0.001982	63.7675	-8.675629	15.3473	-0.085178	0.031116	-1.112952	-1.114333	0.012356	63.7675	-1.113098	-7.513737E+14	-1.644518E-17	NaN
211	1.000000	0.042501	7.36711e+06	-49189.1	955.819	-29760.2	0.000000	0.000000	6.042757	-0.060303	NaN	0.000000	0.001599	0.001767	28.0772	0.100538	0.001955	51.4196	26.3343	-164.211	-0.140668	0.041151	-1.102948	-1.104297	-0.060303	51.4196	-1.102068	-5.343523E+14	1.128517E-16	NaN
211	1.000000	0.052509	7.36711e+06	-49189.1	955.819	-29760.2	0.000000	0.000000	6.052766	-0.054675	NaN	0.000000	0.001605	0.001759	28.0777	0.108945	0.001978	55.0761	67.5949	18.0385	-0.068303	0.051122	-1.092939	-1.094327	-0.054675	55.0761	-1.092195	-3.938045E+14	1.388380E-16	NaN
211	1.000000	0.062489	7.36711e+06	-49189.1	955.818	-29760.2	0.000000	0.000000	6.062748	0.000142	NaN	0.000000	0.001628	0.001773	28.0774	0.066590	0.002038	32.6821	-133.084	-165.616	-0.000231	0.061110	-1.082959	-1.084339	0.000142	32.6821	-1.082963	-2.960124E+14	-4.788274E-19	NaN
211	1.000000	0.072506	7.36711e+06	-49189.1	955.818	-29760.2	0.000000	0.000000	6.072765	-0.001625	NaN	0.000000	0.001645	0.001729	28.0785	0.111577	0.002127	52.4549	87.8759	14.1051	-0.002761	0.071143	-1.072942	-1.074306	-0.001625	52.4549	-1.072919	-2.169716E+14	7.487165E-18	NaN
211	1.000000	0.082518	7.36711e+06	-49189.1	955.819	-29760.2	0.000000	0.000000	6.082774	-0.053887	NaN	0.000000	0.001601	0.001782	28.0782	0.109704	0.001875	58.4975	-122.353	-163.501	-0.014641	0.081176	-1.062931	-1.064273	-0.053887	58.4975	-1.062240	-1.559275E+14	3.455917E-16	NaN
211	1.000000	0.092508	7.36711e+06	-49189.1	955.818	-29760.2	0.000000	0.000000	6.092766	-0.031175	NaN	0.000000	0.001601	0.001790	28.0785	0.037659	0.001980	19.0164	178.868	13.9466	-0.058869	0.091126	-1.052941	-1.054323	-0.031175	19.0164	-1.051711	-1.125684E+14	2.769388E-16	NaN
211	1.000000	0.102505	7.36711e+06	-49189.1	955.819	-29760.2	0.000000	0.000000	6.102764	0.005471	NaN	0.000000	0.001626	0.001782	28.0783	0.116097	0.001975	58.7759	55.2906	-166.737	-0.024278	0.101240	-1.042944	-1.044209	0.005471	58.7759	-1.043013	-8.599732E+13	-6.361353E-17	NaN
211	1.000000	0.112535	7.36711e+06	-49189.1	955.818	-29760.2	0.000000	0.000000	6.112795	0.020297	NaN	0.000000	0.001637	0.001762	28.0784	0.105967	0.001870	56.6611	147.553	18.3974	-0.030969	0.111125	-1.032913	-1.034324	0.020297	56.6611	-1.033182	-6.342791E+13	-3.200077E-16	NaN
211	1.000000	0.122547	7.36711e+06	-49189.1	955.819	-29760.2	0.000000	0.000000	6.122805	-0.010937	NaN	0.000000	0.001647	0.001786	28.0786	0.108282	0.002121	51.0586	-165.862	-162.662	0.050499	0.121248	-1.022902	-1.024201	-0.010937	51.0586	-1.022741	-4.590217E+13	2.382665E-16	NaN
211	1.000000	0.132532	7.36711e+06	-49189.1	955.818	-29760.2	0.000000	0.000000	6.132790	-0.010193	NaN	0.000000	0.001629	0.001775	28.0785	0.099785	0.001949	51.2053	24.1185	16.1611	-0.010615	0.131198	-1.012917	-1.014251	-0.010193	51.2053	-1.012768	-3.370017E+13	3.024713E-16	NaN
211	1.000000	0.142507	7.36711e+06	-49189.1	955.82	-29760.2	0.000000	0.000000	6.142766	-0.004224	NaN	0.000000	0.001592	0.001776	28.0786	0.073510	0.002060	35.6796	-159.72	-164.742	-0.024334	0.141223	-1.002942	-1.004225	-0.004224	35.6796	-1.002853	-2.478446E+13	1.704178E-16	NaN
211	1.000000	0.152514	7.36711e+06	-49189.1	955.819	-29760.2	0.000000	0.000000	6.152773	-0.010204	NaN	0.000000	0.001590	0.001787	28.0785	0.037640	0.002029	18.5553	-122.441	14.7898	-0.053965	0.151149	-0.992934	-0.994300	-0.010204	18.5553	-0.992522	-1.799180E+13	5.671447E-16	NaN
211	1.000000	0.162541	7.36711e+06	-49189.1	955.819	-29760.2	0.000000	0.000000	6.162799	-0.026074	NaN	0.000000	0.001596	0.001787	28.0787	0.056409	0.002017	27.9599	83.2407	-166.919	-0.007708	0.161212	-0.982907	-0.984237	-0.026074	27.9599	-0.982208	-1.306641E+13	1.995474E-15	NaN
211	1.000000	0.172556	7.36711e+06	-49189.1	955.818	-29760.2	0.000000	0.000000	6.172815	0.007357	NaN	0.000000	0.001603	0.001765	28.0788	0.057478	0.002052	28.0149	34.0025	16.932	0.046711	0.171196	-0.972893	-0.974253	0.007357	28.0149	-0.973090	-9.846920E+12	-7.471119E-16	NaN
211	1.000000	0.182528	7.36711e+06	-49189.1	955.818	-29760.2	0.000000	0.000000	6.182789	0.037219	NaN	0.000000	0.001616	0.001782	28.0787	0.071852	0.002048	35.0913	49.685	-163.755	-0.004652	0.181247	-0.962921	-0.964202	0.037219	35.0913	-0.963716	-7.361469E+12	-5.055917E-15	NaN
211	1.000000	0.192552	7.36711e+06	-49189.1	955.819	-29760.2	0.000000	0.000000	6.192810	-0.016836	NaN	0.000000	0.001607	0.001742	28.0786	0.106225	0.002017	52.6701	38.9187	16.7967	0.026074	0.191170	-0.952897	-0.954279	-0.016836	52.6701	-0.952657	-5.222238E+12	3.223818E-15	NaN
211	1.000000	0.202563	7.36711e+06	-49189.1	955.819	-29760.2	0.000000	0.000000	6.202821	-0.023591	NaN	0.000000	0.001628	0.001770	28.0787	0.040794	0.002030	20.0997	106.651	-163.129	-0.000476	0.201257	-0.942885	-0.944191	-0.023591	20.0997	-0.942005	-3.751351E+12	6.288649E-15	NaN
211	1.000000	0.212525	7.36711e+06	-49189.1	955.818	-29760.2	0.000000	0.000000	6.212782	-0.065502	NaN	0.000000	0.001649	0.001734	28.0777	0.114467	0.001965	58.2447	86.0615	15.8309	-0.110344	0.211203	-0.932923	-0.934246	-0.065502	58.2447	-0.932080	-2.755915E+12	2.376773E-14	NaN
211	1.000000	0.222564	7.36711e+06	-49189.1	955.819	-29760.2	0.000000	0.000000	6.222824	0.037655	NaN	0.000000	0.001637	0.001775	28.0777	0.118945	0.002067	57.5439	-110.53	-164.282	-0.007714	0.221256	-0.922885	-0.924193	0.037655	57.5439	-0.923376	-2.102713E+12	-1.790796E-14	NaN
211	1.000000	0.232570	7.36711e+06	-49189.1	955.819	-29760.2	0.000000	0.000000	6.232831	0.035866	NaN	0.000000	0.001649	0.001780	28.0775	0.070497	0.001966	35.8505	9.126430	17.7868	0.017106	0.231228	-0.912878	-0.914221	0.035866	35.8505	-0.913629	-1.553002E+12	-2.309448E-14	NaN
211	1.000000	0.242570	7.36711e+06	-49189.1	955.819	-29760.2	0.000000	0.000000	6.242829	-0.001865	NaN	0.000000	0.001631	0.001775	28.0778	0.076863	0.002041	37.6627	-75.0867	-166.825	0.053683	0.241222	-0.902879	-0.904227	-0.001865	37.6627	-0.902842	-1.110358E+12	1.679682E-15	NaN
211	1.000000	0.252617	7.36711e+06	-49189.1	955.818	-29760.2	0.000000	0.000000	6.252878	0.028251	NaN	0.000000	0.001623	0.001793	28.0777	0.048756	0.001978	24.6521	-132.8	14.1612	0.064333	0.251251	-0.892831	-0.894197	0.028251	24.6521	-0.893691	-8.352202E+11	-3.382470E-14	NaN
211	1.000000	0.262585	7.36711e+06	-49189.1	955.818	-29760.2	0.000000	0.000000	6.262844	-0.010167	NaN	0.000000	0.001630	0.001793	28.0777	0.052985	0.002061	25.7031	106.497	-164.088	-0.032844	0.261297	-0.882863	-0.884151	-0.010167	25.7031	-0.882567	-5.907665E+11	1.720959E-14	NaN
211	1.000000	0.272564	7.36711e+06	-49189.1	955.819	-29760.2	0.000000	0.000000	6.272823	0.011280	NaN	0.000000	0.001615	0.001795	28.0773	0.038992	0.001871	20.8445	173.42	16.024	-0.041990	0.271216	-0.872885	-0.874232	0.011280	20.8445	-0.873291	-4.425477E+11	-2.548907E-14	NaN
211	1.000000	0.282597	7.36711e+06	-49189.1	955.819	-29760.2	0.000000	0.000000	6.282853	-0.071084	NaN	0.000000	0.001629	0.001770	28.0782	0.060475	0.002033	29.7453	-172.922	-161.556	-0.116040	0.281279	-0.862852	-0.864169	-0.071084	29.7453	-0.861059	-3.023144E+11	2.351312E-13	NaN
211	1.000000	0.292571	7.36711e+06	-49189.1	955.819	-29760.2	0.000000	0.000000	6.292832	0.053490	NaN	0.000000	0.001616	0.001743	28.0771	0.031722	0.002059	15.4042	-147.448	14.8233	-0.031425	0.291255	-0.852878	-0.854193	0.053490	15.4042	-0.855482	-2.540765E+11	-2.105287E-13	NaN
211	1.000000	0.302600	7.36711e+06	-49189.1	955.819	-29760.2	0.000000	0.000000	6.302859	-0.001716	NaN	0.000000	0.001617	0.001751	28.0776	0.143108	0.001984	72.1176	68.293	-165.185	-0.013198	0.301271	-0.842849	-0.844178	-0.001716	72.1176	-0.842831	-1.712557E+11	1.001993E-14	NaN
211	1.000000	0.312624	7.36711e+06	-49189.1	955.819	-29760.2	0.000000	0.000000	6.312881	-0.037036	NaN	0.000000	0.001642	0.001729	28.0772	0.019547	0.001987	9.835756	142.817	17.4178	0.000391	0.311261	-0.832825	-0.834187	-0.037036	9.835756	-0.830001	-1.147615E+11	3.227219E-13	NaN
211	1.000000	0.322636	7.36711e+06	-49189.1	955.818	-29760.2	0.000000	0.000000	6.322896	0.028513	NaN	0.000000	0.001618	0.001790	28.0776	0.026623	0.001940	13.7216	-105.895	-163.513	-0.032667	0.321288	-0.822812	-0.824161	0.028513	13.7216	-0.824371	-9.626708E+10	-2.961834E-13	NaN
211	1.000000	0.332602	7.36711e+06	-49189.1	955.819	-29760.2	0.000000	0.000000	6.332860	-0.006576	NaN	0.000000	0.001605	0.001752	28.0769	0.116333	0.001950	59.6664	-162.027	17.0586	-0.094124	0.331221	-0.812847	-0.814228	-0.006576	59.6664	-0.812764	-6.699944E+10	9.814734E-14	NaN
211	1.000000	0.342612	7.36711e+06	-49189.1	955.818	-29760.2	0.000000	0.000000	6.342871	0.008542	NaN	0.000000	0.001607	0.001767	28.0779	0.153959	0.002041	75.4193	151.387	-165.966	-0.007059	0.341322	-0.802837	-0.804126	0.008542	75.4193	-0.802922	-4.926318E+10	-1.733947E-13	NaN
211	1.000000	0.352628	7.36711e+06	-49189.1	955.819	-29760.2	0.000000	0.000000	6.352887	-0.014820	NaN	0.000000	0.001652	0.001762	28.0785	0.057793	0.002002	28.8641	173.665	14.3964	-0.058771	0.351238	-0.792820	-0.794211	-0.014820	28.8641	-0.792435	-3.549388E+10	4.175284E-13	NaN
211	1.000000	0.362633	7.36711e+06	-49189.1	955.819	-29760.2	0.000000	0.000000	6.362892	-0.014906	NaN	0.000000	0.001620	0.001766	28.0787	0.014431	0.002025	7.127542	11.2086	-165.942	0.013337	0.361326	-0.782815	-0.784123	-0.014906	7.127542	-0.781247	-2.501349E+10	5.959106E-13	NaN
211	1.000000	0.372612	7.36711e+06	-49189.1	955.818	-29760.2	0.000000	0.000000	6.372869	-0.029049	NaN	0.000000	0.001680	0.001727	28.0786	0.026813	0.001937	13.8399	111.243	15.8886	-0.103907	0.371266	-0.772837	-0.774183	-0.029049	13.8399	-0.771263	-1.830091E+10	1.587324E-12	NaN
211	1.000000	0.382634	7.36711e+06	-49189.1	955.818	-29760.2	0.000000	0.000000	6.382894	0.028853	NaN	0.000000	0.001617	0.001737	28.0787	0.059367	0.002009	29.55	-17.0212	-164.052	-0.001737	0.381292	-0.762814	-0.764156	0.028853	29.55	-0.763547	-1.437303E+10	-2.007425E-12	NaN
211	1.000000	0.392620	7.36711e+06	-49189.1	955.819	-29760.2	0.000000	0.000000	6.392879	0.016289	NaN	0.000000	0.001668	0.001744	28.0788	0.028059	0.002022	13.8736	93.1412	14.7285	-0.102864	0.391242	-0.752829	-0.754207	0.016289	13.8736	-0.753710	-1.056113E+10	-1.542346E-12	NaN
211	1.000000	0.402629	7.36711e+06	-49189.1	955.818	-29760.2	0.000000	0.000000	6.402891	0.067750	NaN	0.000000	0.001631	0.001744	28.0788	0.073146	0.002001	36.5469	23.6731	-162.783	0.084040	0.401343	-0.742819	-0.744106	0.067750	36.5469	-0.744210	-7.841303E+9	-8.640190E-12	NaN
211	1.000000	0.412622	7.36711e+06	-49189.1	955.819	-29760.2	0.000000	0.000000	6.412881	0.001065	NaN	0.000000	0.001648	0.001764	28.0786	0.025441	0.002053	12.3946	146.66	17.4528	-0.036120	0.411314	-0.732826	-0.734135	0.001065	12.3946	-0.732891	-5.498004E+9	-1.937773E-13	NaN
211	1.000000	0.422658	7.36711e+06	-49189.1	955.82	-29760.2	0.000000	0.000000	6.422918	0.031886	NaN	0.000000	0.001678	0.001795	28.0788	0.010277	0.002153	4.772693	38.1082	-165.861	-0.033896	0.421352	-0.722790	-0.724097	0.031886	4.772693	-0.727801	-4.686371E+9	-6.803969E-12	NaN
211	1.000000	0.432649	7.36711e+06	-49189.1	955.818	-29760.2	0.000000	0.000000	6.432905	-0.068435	NaN	0.000000	0.001681	0.001783	28.0784	0.089824	0.001847	48.6418	-175.732	14.876	0.001091	0.431256	-0.712800	-0.714193	-0.068435	48.6418	-0.711745	-2.830478E+9	2.417805E-11	NaN
211	1.000000	0.442658	7.36711e+06	-49189.1	955.819	-29760.2	0.000000	0.000000	6.442918	0.005682	NaN	0.000000	0.001656	0.001811	28.0786	0.087035	0.002098	41.4776	66.9748	-164.802	-0.028918	0.441350	-0.702790	-0.704099	0.005682	41.4776	-0.702893	-2.143065E+9	-2.651388E-12	NaN
211	1.000000	0.452657	7.36711e+06	-49189.1	955.82	-29760.2	0.000000	0.000000	6.452917	0.012359	NaN	0.000000	0.001706	0.001780	28.0788	0.034756	0.002044	17.0023	-135.7	15.6801	-0.119164	0.451334	-0.692791	-0.694115	0.012359	17.0023	-0.693336	-1.586749E+9	-7.788945E-12	NaN
211	1.000000	0.462677	7.36711e+06	-49189.1	955.818	-29760.2	0.000000	0.000000	6.462934	-0.059230	NaN	0.000000	0.001683	0.001785	28.0785	0.103317	0.002004	51.5436	1.290744	-163.933	-0.088769	0.461339	-0.682771	-0.684109	-0.059230	51.5436	-0.681910	-1.107442E+9	5.348328E-11	NaN
211	1.000000	0.472673	7.36711e+06	-49189.1	955.818	-29760.2	0.000000	0.000000	6.472932	0.005678	NaN	0.000000	0.001725	0.001749	28.0788	0.094537	0.001989	47.5196	70.4995	15.3573	-0.019107	0.471318	-0.672776	-0.674131	0.005678	47.5196	-0.672865	-8.329152E+8	-6.816599E-12	NaN
211	1.000000	0.482649	7.36711e+06	-49189.1	955.818	-29760.2	0.000000	0.000000	6.482911	0.067197	NaN	0.000000	0.001628	0.001764	28.0773	0.039958	0.001893	21.1119	60.5254	-165.816	0.018472	0.481375	-0.662800	-0.664073	0.067197	21.1119	-0.665187	-6.538829E+8	-1.027667E-10	NaN
211	1.000000	0.492685	7.36711e+06	-49189.1	955.819	-29760.2	0.000000	0.000000	6.492944	0.000839	NaN	0.000000	0.001632	0.001762	28.0773	0.016102	0.002015	7.992192	-85.9908	19.7556	0.021677	0.491327	-0.652764	-0.654122	0.000839	7.992192	-0.652842	-4.429923E+8	-1.893935E-12	NaN
211	1.000000	0.502694	7.36711e+06	-49189.1	955.819	-29760.2	0.000000	0.000000	6.502957	0.108126	NaN	0.000000	0.001653	0.001765	28.0775	0.048371	0.002014	24.0196	-78.3712	-163.675	0.001539	0.501388	-0.642755	-0.644061	0.108126	24.0196	-0.646131	-3.584155E+8	-3.016767E-10	NaN
211	1.000000	0.512695	7.36711e+06	-49189.1	955.819	-29760.2	0.000000	0.000000	6.512956	0.055093	NaN	0.000000	0.001641	0.001774	28.0775	0.023871	0.001986	12.0196	41.6909	13.4572	0.010278	0.511327	-0.632753	-0.634121	0.055093	12.0196	-0.636191	-2.618311E+8	-2.104153E-10	NaN
211	1.000000	0.522690	7.36711e+06	-49189.1	955.818	-29760.2	0.000000	0.000000	6.522950	0.034751	NaN	0.000000	0.001646	0.001777	28.0775	0.012267	0.002112	5.807678	134.237	-165.538	0.043816	0.521370	-0.622758	-0.624079	0.034751	5.807678	-0.627246	-1.973341E+8	-1.761037E-10	NaN
211	1.000000	0.532687	7.36711e+06	-49189.1	955.817	-29760.2	0.000000	0.000000	6.532946	-0.001226	NaN	0.000000	0.001641	0.001768	28.0774	0.067046	0.002041	32.8486	-117.662	13.596	0.040714	0.531331	-0.612762	-0.614117	-0.001226	32.8486	-0.612734	-1.246588E+8	9.836434E-12	NaN
211	1.000000	0.542679	7.36711e+06	-49189.1	955.819	-29760.2	0.000000	0.000000	6.542938	0.007655	NaN	0.000000	0.001591	0.001769	28.0774	0.017828	0.002176	8.191988	-150.617	-164.99	-0.023795	0.541341	-0.602770	-0.604108	0.007655	8.191988	-0.603471	-9.294997E+7	-8.236068E-11	NaN
211	1.000000	0.552700	7.36711e+06	-49189.1	955.819	-29760.2	0.000000	0.000000	6.552956	-0.062240	NaN	0.000000	0.001600	0.001799	28.0777	0.044915	0.001971	22.7897	18.2322	11.953	-0.144208	0.551354	-0.592749	-0.594095	-0.062240	22.7897	-0.590700	-6.198981E+7	1.004029E-9	NaN
211	1.000000	0.562708	7.36711e+06	-49189.1	955.818	-29760.2	0.000000	0.000000	6.562967	-0.001027	NaN	0.000000	0.001638	0.001764	28.0771	0.034264	0.002180	15.7163	-86.9713	-165.896	-0.085777	0.561394	-0.582740	-0.584055	-0.001027	15.7163	-0.582691	-4.806898E+7	2.136482E-11	NaN
211	1.000000	0.572707	7.36711e+06	-49189.1	955.819	-29760.2	0.000000	0.000000	6.572965	-0.015678	NaN	0.000000	0.001655	0.001775	28.0776	0.045317	0.001986	22.8234	168.728	16.5781	-0.004643	0.571388	-0.572741	-0.574060	-0.015678	22.8234	-0.572226	-3.446585E+7	4.548957E-10	NaN
211	1.000000	0.582681	7.36711e+06	-49189.1	955.818	-29760.2	0.000000	0.000000	6.582943	0.065827	NaN	0.000000	0.001626	0.001779	28.0776	0.066535	0.001987	33.4906	53.0496	-166.531	0.039791	0.581440	-0.562767	-0.564009	0.065827	33.4906	-0.564241	-2.673233E+7	-2.462464E-9	NaN
211	1.000000	0.592708	7.36711e+06	-49189.1	955.818	-29760.2	0.000000	0.000000	6.592968	0.024891	NaN	0.000000	0.001644	0.001734	28.0778	0.120059	0.002043	58.7732	109.489	13.3168	0.059863	0.591425	-0.552740	-0.554024	0.024891	58.7732	-0.553058	-1.871988E+7	-1.329680E-9	NaN
211	1.000000	0.602723	7.36711e+06	-49189.1	955.819	-29760.2	0.000000	0.000000	6.602983	0.026324	NaN	0.000000	0.001585	0.001772	28.0784	0.083217	0.001789	46.5144	-37.989	-163.014	0.022258	0.601368	-0.542726	-0.544081	0.026324	46.5144	-0.543150	-1.364709E+7	-1.928874E-9	NaN
211	1.000000	0.612737	7.36711e+06	-49189.1	955.819	-29760.2	0.000000	0.000000	6.612994	-0.047931	NaN	0.000000	0.001584	0.001759	28.0776	0.039190	0.001944	20.1565	-40.4012	13.4414	-0.015311	0.611364	-0.532711	-0.534084	-0.047931	20.1565	-0.530928	-9.23545e+06	5.189899E-9	NaN
211	1.000000	0.622729	7.36711e+06	-49189.1	955.818	-29760.2	0.000000	0.000000	6.622987	-0.035492	NaN	0.000000	0.001645	0.001803	28.0788	0.087457	0.001943	45.0171	-96.8574	-165.371	-0.006279	0.621418	-0.522719	-0.524030	-0.035492	45.0171	-0.522128	-6.9693e+06	5.092681E-9	NaN
211	1.000000	0.632746	7.36711e+06	-49189.1	955.819	-29760.2	0.000000	0.000000	6.633006	0.022132	NaN	0.000000	0.001618	0.001756	28.0784	0.109946	0.001982	55.4852	56.2147	13.0519	0.009197	0.631370	-0.512702	-0.514078	0.022132	55.4852	-0.513002	-5.20252e+06	-4.254137E-9	NaN
211	1.000000	0.642746	7.36711e+06	-49189.1	955.817	-29760.2	0.000000	0.000000	6.643004	-0.012611	NaN	0.000000	0.001590	0.001766	28.0786	0.054836	0.002051	26.7352	-76.0977	-165.03	-0.090186	0.641469	-0.502703	-0.503980	-0.012611	26.7352	-0.502349	-3.69645e+06	3.411755E-9	NaN
211	1.000000	0.652769	7.36711e+06	-49189.1	955.818	-29760.2	0.000000	0.000000	6.653029	0.041273	NaN	0.000000	0.001597	0.001830	28.0787	0.136319	0.002049	66.5411	33.4948	13.8215	-0.054161	0.651451	-0.492680	-0.493998	0.041273	66.5411	-0.493145	-2.74999e+06	-1.500831E-8	NaN
211	1.000000	0.662755	7.36711e+06	-49189.1	955.818	-29760.2	0.000000	0.000000	6.663015	0.029240	NaN	0.000000	0.001599	0.001728	28.0787	0.043186	0.002106	20.5019	38.4336	-163.121	0.028127	0.661458	-0.482693	-0.483991	0.029240	20.5019	-0.483763	-2.03323e+06	-1.438083E-8	NaN
211	1.000000	0.672774	7.36711e+06	-49189.1	955.818	-29760.2	0.000000	0.000000	6.673032	-0.017961	NaN	0.000000	0.001637	0.001742	28.0786	0.100916	0.001900	53.1057	-109.461	13.1714	-0.025940	0.671355	-0.472675	-0.474093	-0.017961	53.1057	-0.472421	-1.41045e+06	1.273453E-8	NaN
211	1.000000	0.682725	7.36711e+06	-49189.1	955.819	-29760.2	0.000000	0.000000	6.682982	-0.054191	NaN	0.000000	0.001632	0.001753	28.0785	0.111018	0.001971	56.3178	28.1951	-163.785	-0.092479	0.681423	-0.462724	-0.464026	-0.054191	56.3178	-0.462002	-1.00727e+06	5.379977E-8	NaN
211	1.000000	0.692757	7.36711e+06	-49189.1	955.818	-29760.2	0.000000	0.000000	6.693012	-0.079187	NaN	0.000000	0.001620	0.001730	28.0786	0.133677	0.001991	67.1517	147.966	12.3966	-0.080716	0.691398	-0.452692	-0.454051	-0.079187	67.1517	-0.451807	-724087	1.093610E-7	NaN
211	1.000000	0.702790	7.36711e+06	-49189.1	955.818	-29760.2	0.000000	0.000000	6.703050	0.024231	NaN	0.000000	0.001587	0.001742	28.0788	0.089288	0.002032	43.9459	-168.423	-164.465	-0.004386	0.701465	-0.442658	-0.443984	0.024231	43.9459	-0.443072	-545385	-4.442940E-8	NaN
211	1.000000	0.712775	7.36711e+06	-49189.1	955.818	-29760.2	0.000000	0.000000	6.713034	-0.003725	NaN	0.000000	0.001593	0.001707	28.0788	0.049540	0.001952	25.3851	31.0719	19.9514	0.011494	0.711437	-0.432673	-0.434012	-0.003725	25.3851	-0.432563	-387538	9.612611E-9	NaN
211	1.000000	0.722763	7.36711e+06	-49189.1	955.819	-29760.2	0.000000	0.000000	6.723023	0.014057	NaN	0.000000	0.001574	0.001739	28.0788	0.053687	0.002048	26.2106	139.687	-163.975	-0.058353	0.721496	-0.422685	-0.423953	0.014057	26.2106	-0.423088	-284570	-4.939726E-8	NaN
211	1.000000	0.732776	7.36711e+06	-49189.1	955.819	-29760.2	0.000000	0.000000	6.733032	-0.077842	NaN	0.000000	0.001612	0.001759	28.0788	0.036791	0.001983	18.5491	-147.108	16.2998	-0.006708	0.731398	-0.412672	-0.414050	-0.077842	18.5491	-0.409525	-182659	4.261605E-7	NaN
211	1.000000	0.742766	7.36711e+06	-49189.1	955.819	-29760.2	0.000000	0.000000	6.743022	-0.064620	NaN	0.000000	0.001602	0.001769	28.079	0.030862	0.001900	16.2434	-149.059	-161.731	-0.136111	0.741444	-0.402682	-0.404005	-0.064620	16.2434	-0.399699	-132342	4.882763E-7	NaN
211	1.000000	0.752779	7.36711e+06	-49189.1	955.818	-29760.2	0.000000	0.000000	6.753037	-0.013567	NaN	0.000000	0.001571	0.001697	28.0786	0.131559	0.002110	62.3575	179.303	16.5021	0.037107	0.751444	-0.392670	-0.394004	-0.013567	62.3575	-0.392507	-104475	1.298565E-7	NaN
211	1.000000	0.762782	7.36711e+06	-49189.1	955.819	-29760.2	0.000000	0.000000	6.763039	-0.035945	NaN	0.000000	0.001583	0.001708	28.0779	0.023942	0.002058	11.6334	-25.3098	-163.497	-0.003451	0.761525	-0.382667	-0.383923	-0.035945	11.6334	-0.380350	-69968.9	5.137269E-7	NaN
211	1.000000	0.772806	7.36711e+06	-49189.1	955.818	-29760.2	0.000000	0.000000	6.773060	-0.122107	NaN	0.000000	0.001632	0.001764	28.0778	0.102485	0.002075	49.4002	134.287	14.2784	-0.042891	0.771401	-0.372642	-0.374047	-0.122107	49.4002	-0.370788	-50989.3	2.394757E-6	NaN
211	1.000000	0.782820	7.36711e+06	-49189.1	955.818	-29760.2	0.000000	0.000000	6.783078	-0.008618	NaN	0.000000	0.001656	0.001719	28.078	0.020205	0.001991	10.1487	-147.575	-164.988	-0.000355	0.781500	-0.362629	-0.363949	-0.008618	10.1487	-0.361992	-38074.2	2.263466E-7	NaN
211	1.000000	0.792790	7.36711e+06	-49189.1	955.818	-29760.2	0.000000	0.000000	6.793049	-0.009429	NaN	0.000000	0.001622	0.001715	28.0778	0.089975	0.001956	45.9909	-157.58	15.101	-0.030835	0.791406	-0.352658	-0.354042	-0.009429	45.9909	-0.352505	-27754.5	3.397338E-7	NaN
211	1.000000	0.802797	7.36711e+06	-49189.1	955.818	-29760.2	0.000000	0.000000	6.803058	0.036687	NaN	0.000000	0.001615	0.001704	28.078	0.089073	0.002004	44.4518	-111.675	-167.173	0.075713	0.801471	-0.342651	-0.343978	0.036687	44.4518	-0.343270	-20379.3	-1.800227E-6	NaN
211	1.000000	0.812810	7.36711e+06	-49189.1	955.818	-29760.2	0.000000	0.000000	6.813070	0.024438	NaN	0.000000	0.001581	0.001734	28.0782	0.150051	0.001983	75.6601	-101.062	13.3154	-4.466068E-6	0.811496	-0.332638	-0.333952	0.024438	75.6601	-0.332881	-14375	-1.700057E-6	NaN
211	1.000000	0.822799	7.36711e+06	-49189.1	955.819	-29760.2	0.000000	0.000000	6.823056	-0.044355	NaN	0.000000	0.001620	0.001733	28.0776	0.084319	0.001851	45.5617	-167.467	-167.744	0.029717	0.821554	-0.322650	-0.323894	-0.044355	45.5617	-0.321920	-9928.42	4.467441E-6	NaN
211	1.000000	0.832824	7.36711e+06	-49189.1	955.819	-29760.2	0.000000	0.000000	6.833083	0.008280	NaN	0.000000	0.001606	0.001742	28.0775	0.045807	0.001939	23.6218	81.6084	14.8757	0.027821	0.831449	-0.312625	-0.313999	0.008280	23.6218	-0.312888	-7307.34	-1.133070E-6	NaN
211	1.000000	0.842840	7.36711e+06	-49189.1	955.818	-29760.2	0.000000	0.000000	6.843100	0.016226	NaN	0.000000	0.001608	0.001754	28.078	0.083492	0.002110	39.5738	6.355465	-165.07	-0.007167	0.841519	-0.302609	-0.303930	0.016226	39.5738	-0.302916	-5200.07	-3.120347E-6	NaN
211	1.000000	0.852838	7.36711e+06	-49189.1	955.818	-29760.2	0.000000	0.000000	6.853098	0.033109	NaN	0.000000	0.001634	0.001715	28.0776	0.054855	0.002028	27.0442	110.77	15.4516	0.108136	0.851458	-0.292611	-0.293990	0.033109	27.0442	-0.293529	-3768.01	-8.786877E-6	NaN
211	1.000000	0.862831	7.36711e+06	-49189.1	955.818	-29760.2	0.000000	0.000000	6.863093	0.060332	NaN	0.000000	0.001647	0.001716	28.0776	0.033322	0.002083	15.994	-91.1149	-165.863	-0.013658	0.861490	-0.282617	-0.283959	0.060332	15.994	-0.285447	-2850.87	-2.116279E-5	NaN
211	1.000000	0.872819	7.36711e+06	-49189.1	955.818	-29760.2	0.000000	0.000000	6.873077	-0.028603	NaN	0.000000	0.001668	0.001717	28.0774	0.112355	0.002015	55.7685	-11.2929	14.5569	0.013401	0.871508	-0.272629	-0.273941	-0.028603	55.7685	-0.272245	-1801.5	1.587707E-5	NaN
211	1.000000	0.882850	7.36711e+06	-49189.1	955.818	-29760.2	0.000000	0.000000	6.883109	0.012839	NaN	0.000000	0.001620	0.001723	28.0778	0.106481	0.002111	50.4523	-166.735	-162.097	0.026693	0.881561	-0.262599	-0.263888	0.012839	50.4523	-0.262790	-1293.07	-9.929342E-6	NaN
211	1.000000	0.892854	7.36711e+06	-49189.1	955.818	-29760.2	0.000000	0.000000	6.893111	-0.039645	NaN	0.000000	0.001623	0.001725	28.0786	0.031305	0.001944	16.0999	-89.8936	12.847	0.049240	0.891466	-0.252595	-0.253983	-0.039645	16.0999	-0.250748	-844.368	4.695251E-5	NaN
211	1.000000	0.902852	7.36711e+06	-49189.1	955.818	-29760.2	0.000000	0.000000	6.903113	0.052663	NaN	0.000000	0.001609	0.001705	28.0789	0.085801	0.001863	46.0637	-148.405	-160.916	-0.018138	0.901545	-0.242597	-0.243904	0.052663	46.0637	-0.243454	-650.744	-8.092720E-5	NaN
211	1.000000	0.912855	7.36711e+06	-49189.1	955.818	-29760.2	0.000000	0.000000	6.913114	0.007257	NaN	0.000000	0.001649	0.001688	28.0787	0.092300	0.001980	46.6057	76.0959	16.9522	-0.046304	0.911545	-0.232593	-0.233903	0.007257	46.6057	-0.232710	-441.821	-1.642420E-5	NaN
211	1.000000	0.922841	7.36711e+06	-49189.1	955.818	-29760.2	0.000000	0.000000	6.923100	0.004545	NaN	0.000000	0.001633	0.001721	28.0791	0.078876	0.002115	37.2966	-156.042	-166.411	-0.042439	0.921549	-0.222607	-0.223899	0.004545	37.2966	-0.222699	-306.715	-1.481846E-5	NaN
211	1.000000	0.932863	7.36711e+06	-49189.1	955.818	-29760.2	0.000000	0.000000	6.933119	-0.079544	NaN	0.000000	0.001641	0.001750	28.0786	0.080528	0.002023	39.7998	-111.791	13.797	0.004888	0.931485	-0.212586	-0.213963	-0.079544	39.7998	-0.211087	-199.712	0.000398	NaN
211	1.000000	0.942857	7.36711e+06	-49189.1	955.819	-29760.2	0.000000	0.000000	6.943117	0.037718	NaN	0.000000	0.001598	0.001740	28.079	0.098829	0.002065	47.859	150.846	-161.733	0.018900	0.941542	-0.202592	-0.203906	0.037718	47.859	-0.203183	-148.553	-0.000254	NaN
211	1.000000	0.952886	7.36711e+06	-49189.1	955.817	-29760.2	0.000000	0.000000	6.953147	0.038322	NaN	0.000000	0.001599	0.001756	28.0788	0.031068	0.001882	16.5112	174.204	12.6848	0.068403	0.951490	-0.192562	-0.193959	0.038322	16.5112	-0.194303	-106.085	-0.000361	NaN
211	1.000000	0.962889	7.36711e+06	-49189.1	955.818	-29760.2	0.000000	0.000000	6.963147	-0.011943	NaN	0.000000	0.001645	0.001743	28.0789	0.105637	0.001994	52.9859	-154.113	-164.457	0.031738	0.961554	-0.182560	-0.183894	-0.011943	52.9859	-0.182391	-66.9957	0.000178	NaN
211	1.000000	0.972862	7.36711e+06	-49189.1	955.819	-29760.2	0.000000	0.000000	6.973121	0.013512	NaN	0.000000	0.001623	0.001760	28.0789	0.016883	0.002073	8.145473	-77.9544	19.971	0.048152	0.971528	-0.172587	-0.173920	0.013512	8.145473	-0.173831	-47.8487	-0.000282	NaN
211	1.000000	0.982892	7.36711e+06	-49189.1	955.818	-29760.2	0.000000	0.000000	6.983150	-0.011551	NaN	0.000000	0.001600	0.001734	28.0789	0.060599	0.001816	33.3728	160.841	-166.785	0.026273	0.981590	-0.162557	-0.163859	-0.011551	33.3728	-0.162297	-30.1092	0.000384	NaN
211	1.000000	0.992884	7.36711e+06	-49189.1	955.819	-29760.2	0.000000	0.000000	6.993141	-0.039328	NaN	0.000000	0.001635	0.001738	28.079	0.114113	0.001971	57.9067	-162.867	11.3283	0.004914	0.991544	-0.152565	-0.153905	-0.039328	57.9067	-0.152055	-19.7419	0.001992	NaN
211	1.000000	1.002875	7.36711e+06	-49189.1	955.819	-29760.2	0.000000	0.000000	7.003135	0.011731	NaN	0.000000	0.001716	0.001723	28.0789	0.008544	0.002052	4.164360	-42.1425	-165.574	-0.058423	1.001599	-0.142573	-0.143850	0.011731	4.164360	-0.144686	-14.4662	-0.000811	NaN
211	1.000000	1.012895	7.36711e+06	-49189.1	955.819	-29760.2	0.000000	0.000000	7.013156	0.054220	NaN	0.000000	0.001672	0.001730	28.0787	0.077096	0.002115	36.4593	-135.385	16.5591	0.024064	1.011589	-0.132554	-0.133860	0.054220	36.4593	-0.133669	-8.970709	-0.006044	NaN
211	1.000000	1.022903	7.36711e+06	-49189.1	955.818	-29760.2	0.000000	0.000000	7.023161	-0.010226	NaN	0.000000	0.001707	0.001697	28.0787	0.058858	0.002075	28.3696	-63.5215	-165.875	0.003624	1.021582	-0.122546	-0.123866	-0.010226	28.3696	-0.122276	-5.367864	0.001905	NaN
211	1.000000	1.032879	7.36711e+06	-49189.1	955.819	-29760.2	0.000000	0.000000	7.033138	-0.011806	NaN	0.000000	0.001674	0.001736	28.0774	0.033446	0.001878	17.8057	164.155	14.1486	-0.082750	1.031553	-0.112569	-0.113895	-0.011806	17.8057	-0.112072	-3.321634	0.003554	NaN
211	1.000000	1.042929	7.36711e+06	-49189.1	955.82	-29760.2	0.000000	0.000000	7.043188	-0.008270	NaN	0.000000	0.001687	0.001751	28.0773	0.170403	0.002104	80.9713	-105.858	-164.302	-0.049063	1.041604	-0.102519	-0.103845	-0.008270	80.9713	-0.102443	-2.068121	0.003999	NaN
211	1.000000	1.052892	7.36711e+06	-49189.1	955.82	-29760.2	0.000000	0.000000	7.053150	-0.030970	NaN	0.000000	0.001670	0.001713	28.0777	0.043490	0.002103	20.6841	26.4824	16.9193	-0.040333	1.051535	-0.092556	-0.093914	-0.030970	20.6841	-0.091433	-1.167625	0.026524	NaN
211	1.000000	1.062901	7.36711e+06	-49189.1	955.819	-29760.2	0.000000	0.000000	7.063158	-0.047923	NaN	0.000000	0.001665	0.001712	28.0775	0.052607	0.001950	26.9717	-135.333	-162.666	0.007672	1.061551	-0.082548	-0.083898	-0.047923	26.9717	-0.081215	-0.663658	0.072211	NaN
211	1.000000	1.072915	7.36711e+06	-49189.1	955.82	-29760.2	0.000000	0.000000	7.073175	0.023115	NaN	0.000000	0.001615	0.001723	28.0775	0.036757	0.001938	18.9648	77.4628	17.1115	-0.031738	1.071558	-0.072533	-0.073891	0.023115	18.9648	-0.073447	-0.420860	-0.054923	NaN
211	1.000000	1.082915	7.36711e+06	-49189.1	955.82	-29760.2	0.000000	0.000000	7.083171	-0.083405	NaN	0.000000	0.001595	0.001712	28.0774	0.046441	0.002000	23.2238	-54.9038	-162.943	0.006578	1.081698	-0.062533	-0.063751	-0.083405	23.2238	-0.059840	-0.178199	0.468043	NaN
211	1.000000	1.092918	7.36711e+06	-49189.1	955.82	-29760.2	0.000000	0.000000	7.093175	-0.043698	NaN	0.000000	0.001584	0.001769	28.0777	0.010098	0.002016	5.010055	-63.5366	17.0724	-0.054236	1.091567	-0.052531	-0.053882	-0.043698	5.010055	-0.045989	-0.068902	0.634197	NaN
211	1.000000	1.102921	7.36711e+06	-49189.1	955.819	-29760.2	0.000000	0.000000	7.103179	-0.027122	NaN	0.000000	0.001592	0.001729	28.0775	0.047009	0.001895	24.8096	-71.1702	-164.875	-0.029888	1.101632	-0.042527	-0.043816	-0.027122	24.8096	-0.041708	-0.050974	0.532085	NaN
211	1.000000	1.112961	7.36711e+06	-49189.1	955.82	-29760.2	0.000000	0.000000	7.113219	-0.040461	NaN	0.000000	0.001647	0.001722	28.0775	0.043891	0.002111	20.7882	3.655201	13.1923	-0.026857	1.111547	-0.032487	-0.033901	-0.040461	20.7882	-0.031027	-0.024592	1.645313	NaN
211	1.000000	1.122936	7.36711e+06	-49189.1	955.82	-29760.2	0.000000	0.000000	7.123193	-0.047058	NaN	0.000000	0.001640	0.001712	28.0773	0.020952	0.002007	10.4398	62.0885	-160.55	0.005457	1.121637	-0.022513	-0.023812	-0.047058	10.4398	-0.019132	-0.011937	3.942269	NaN
211	1.000000	1.132959	7.36711e+06	-49189.1	955.82	-29760.2	0.000000	0.000000	7.133218	-0.011304	NaN	0.000000	0.001628	0.001687	28.0775	0.060917	0.001974	30.852	-84.3724	15.3768	0.040035	1.131591	-0.012489	-0.013858	-0.011304	30.852	-0.012215	-0.007651	1.477403	NaN
211	1.000000	1.142961	7.36711e+06	-49189.1	955.82	-29760.2	0.000000	0.000000	7.143217	-0.065052	NaN	0.000000	0.001637	0.001669	28.0773	0.230636	0.002013	114.594	43.4046	-163.271	0.007402	1.141607	-0.002488	-0.003842	-0.065052	114.594	-0.002062	-0.001482	43.8809	NaN
211	1.000000	1.152940	7.36711e+06	-49189.1	955.821	-29760.2	0.000000	0.000000	7.153384	4.495927	NaN	0.000000	0.001619	0.001688	28.0777	5.201504	0.001757	2961.13	15.5601	9.214477	3.377002	1.151594	0.007492	0.006145	4.495927	2961.13	0.006353	0.005402	832.209	36807.5
211	2.000000	1.158559	7.36711e+06	-49189.1	955.821	-29760.2	0.000000	0.000000	7.159257	10.6966	NaN	0.000000	0.001641	0.001709	28.0779	10.6234	0.001645	6457.58	7.512519	-174.058	10.5714	1.158269	0.013110	0.012820	10.6966	6457.58	0.011868	0.011332	943.928	55422.9
211	2.000000	1.161046	7.36711e+06	-49189.1	955.819	-29760.2	0.000000	0.000000	7.161849	13.253	NaN	0.000000	0.001629	0.001748	28.0796	12.2659	0.001649	7437.64	6.086722	7.027406	12.6124	1.160670	0.015597	0.015221	13.253	7437.64	0.014260	0.014312	926.016	56801.5
211	2.000000	1.163496	7.36711e+06	-49189.1	955.819	-29760.2	0.000000	0.000000	7.164448	16.8724	NaN	0.000000	0.001619	0.001781	28.0787	15.1994	0.001770	8585.6	10.0921	-177.732	16.7825	1.163112	0.018047	0.017663	16.8724	8585.6	0.016573	0.017441	967.408	59396.4
211	2.000000	1.165976	7.36711e+06	-49189.1	955.819	-29760.2	0.000000	0.000000	7.167069	20.3039	NaN	0.000000	0.001613	0.001768	28.0793	17.8467	0.001859	9599.54	8.448768	3.484178	19.217	1.165620	0.020527	0.020171	20.3039	9599.54	0.018941	0.020905	971.243	60659.4
211	2.000000	1.168459	7.36711e+06	-49189.1	955.82	-29760.2	0.000000	0.000000	7.169713	24.198	NaN	0.000000	0.001654	0.001741	28.0788	20.5328	0.001805	11377.5	8.593224	-178.406	24.5797	1.168179	0.023011	0.022731	24.198	11377.5	0.021416	0.024816	975.1	65986.4
211	2.000000	1.170993	7.36711e+06	-49189.1	955.819	-29760.2	0.000000	0.000000	7.172517	30.7566	NaN	0.000000	0.001589	0.001826	28.0792	22.1168	0.001686	13117.1	6.745279	1.918475	31.0511	1.170627	0.025544	0.025178	30.7566	13117.1	0.023786	0.028844	1066.32	70564.2
211	2.000000	1.173462	7.36711e+06	-49189.1	955.82	-29760.2	0.000000	0.000000	7.175261	37.4626	NaN	0.000000	0.001589	0.001755	28.0787	23.7273	0.001728	13734.6	2.910959	-173.937	38.2248	1.173095	0.028013	0.027646	37.4626	13734.6	0.025968	0.032800	1142.17	69287.6
211	2.000000	1.175931	7.36711e+06	-49189.1	955.82	-29760.2	0.000000	0.000000	7.177904	41.6833	NaN	0.000000	0.001606	0.001788	28.08	27.1018	0.001810	14972	3.980290	3.393240	41.6136	1.175647	0.030483	0.030199	41.6833	14972	0.028394	0.037482	1112.1	70655
211	2.000000	1.178448	7.36711e+06	-49189.1	955.82	-29760.2	0.000000	0.000000	7.180700	48.4603	NaN	0.000000	0.001601	0.001762	28.0784	30.2942	0.001744	17367.5	3.412622	-178.564	47.4377	1.178186	0.033000	0.032737	48.4603	17367.5	0.030907	0.042644	1136.38	76838.4
211	2.000000	1.180988	7.36711e+06	-49189.1	955.819	-29760.2	0.000000	0.000000	7.183572	56.5426	NaN	0.000000	0.001625	0.001758	28.0804	31.2794	0.001654	18907.9	6.131987	0.147397	56.683	1.180571	0.035540	0.035122	56.5426	18907.9	0.033297	0.047855	1181.55	78968.8
211	2.000000	1.183397	7.36711e+06	-49189.1	955.819	-29760.2	0.000000	0.000000	7.186230	62.5906	NaN	0.000000	0.001589	0.001735	28.0786	34.4232	0.001731	19882.8	6.956161	176.097	59.8485	1.183085	0.037949	0.037636	62.5906	19882.8	0.035588	0.053123	1178.22	78815.1
211	2.000000	1.185895	7.36711e+06	-49189.1	955.82	-29760.2	0.000000	0.000000	7.189195	73.9613	NaN	0.000000	0.001595	0.001746	28.0792	36.65	0.001749	20953.4	6.627287	-3.380833	70.4742	1.185487	0.040446	0.040038	73.9613	20953.4	0.037799	0.058463	1265.1	79174.8
211	2.000000	1.188489	7.36711e+06	-49189.1	955.82	-29760.2	0.000000	0.000000	7.191890	76.4043	NaN	0.000000	0.001601	0.001679	28.0786	40.0324	0.001777	22526.4	7.964612	175.191	78.8044	1.188146	0.043040	0.042697	76.4043	22526.4	0.040497	0.065318	1169.72	80528.1
211	2.000000	1.190967	7.36711e+06	-49189.1	955.819	-29760.2	0.000000	0.000000	7.194783	86.5199	NaN	0.000000	0.001603	0.001690	28.0792	41.1057	0.001823	22551.6	2.165483	0.814496	86.0131	1.190705	0.045518	0.045256	86.5199	22551.6	0.042641	0.071031	1218.06	77308.3
211	2.000000	1.193408	7.36711e+06	-49189.1	955.82	-29760.2	0.000000	0.000000	7.197743	99.1397	NaN	0.000000	0.001630	0.001705	28.0774	43.3079	0.001771	24447.9	2.125002	179.977	97.6709	1.193143	0.047959	0.047694	99.1397	24447.9	0.044918	0.077353	1281.65	80311
211	2.000000	1.195858	7.36711e+06	-49189.1	955.82	-29760.2	0.000000	0.000000	7.200467	105.795	NaN	0.000000	0.001586	0.001695	28.079	45.8518	0.001800	25468.4	2.830371	-0.631216	102.296	1.195502	0.050410	0.050053	105.795	25468.4	0.047294	0.084233	1255.97	80173.8
211	2.000000	1.198455	7.36711e+06	-49189.1	955.82	-29760.2	0.000000	0.000000	7.203419	114.433	NaN	0.000000	0.001609	0.001697	28.0775	49.7342	0.001824	27271.7	7.571533	174.075	118.482	1.198128	0.053006	0.052679	114.433	27271.7	0.049859	0.091978	1244.14	82156.9
211	2.000000	1.200873	7.36711e+06	-49189.1	955.819	-29760.2	0.000000	0.000000	7.206528	131.236	NaN	0.000000	0.001663	0.001739	28.078	50.2861	0.001701	29563.4	4.451599	-3.213252	128.483	1.200588	0.055424	0.055139	131.236	29563.4	0.052095	0.098998	1325.64	85844.9
211	2.000000	1.203412	7.36711e+06	-49189.1	955.82	-29760.2	0.000000	0.000000	7.209399	139.326	NaN	0.000000	0.001717	0.001719	28.0775	51.9418	0.001688	30773.2	3.004268	176.838	139.059	1.203090	0.057963	0.057641	139.326	30773.2	0.054567	0.107052	1301.48	85930.7
211	2.000000	1.205914	7.36712e+06	-49189.1	955.819	-29760.2	0.000000	0.000000	7.212268	148.248	NaN	0.000000	0.001672	0.001733	28.0781	55.6548	0.001793	31032.6	5.028512	-4.641642	147.499	1.205606	0.060465	0.060158	148.248	31032.6	0.056882	0.114867	1290.61	83655.4
211	2.000000	1.208376	7.36712e+06	-49189.1	955.82	-29760.2	0.000000	0.000000	7.215243	160.706	NaN	0.000000	0.001691	0.001724	28.0776	59.0826	0.001839	32120.6	6.360690	173.212	157.413	1.208117	0.062927	0.062669	160.706	32120.6	0.059175	0.122866	1307.98	83722.3
211	2.000000	1.210911	7.36712e+06	-49189.1	955.82	-29760.2	0.000000	0.000000	7.218412	176.15	NaN	0.000000	0.001695	0.001788	28.078	60.7123	0.001840	33004	2.820607	-2.869552	173.7	1.210556	0.065462	0.065107	176.15	33004	0.061459	0.131092	1343.71	83282
211	2.000000	1.213390	7.36712e+06	-49189.1	955.82	-29760.2	0.000000	0.000000	7.221344	187.141	NaN	0.000000	0.001634	0.001728	28.0775	62.8911	0.001790	35137.7	4.140569	174.818	186.507	1.213095	0.067942	0.067646	187.141	35137.7	0.063947	0.140343	1333.46	85694.3
211	2.000000	1.215903	7.36712e+06	-49189.1	955.819	-29760.2	0.000000	0.000000	7.224451	201.61	NaN	0.000000	0.001673	0.001740	28.0776	65.1149	0.001820	35773.6	1.499602	-2.400591	200.17	1.215609	0.070454	0.070160	201.61	35773.6	0.066227	0.149080	1352.36	84649.9
211	2.000000	1.218371	7.36712e+06	-49189.1	955.82	-29760.2	0.000000	0.000000	7.227456	214.649	NaN	0.000000	0.001702	0.001723	28.0777	68.0436	0.001852	36733.2	1.055791	177.921	213.813	1.218187	0.072922	0.072739	214.649	36733.2	0.068540	0.158199	1356.83	84378.3
211	2.000000	1.220834	7.36712e+06	-49189.1	955.821	-29760.2	0.000000	0.000000	7.231015	241.31	NaN	0.000000	0.001669	0.001703	28.078	69.3708	0.001680	41292.3	3.606910	-5.497838	237.36	1.220465	0.075385	0.075017	241.31	41292.3	0.071002	0.168189	1434.75	91990.6
211	2.000000	1.223363	7.36712e+06	-49189.1	955.82	-29760.2	0.000000	0.000000	7.233974	251.783	NaN	0.000000	0.001664	0.001706	28.0774	71.3387	0.001636	43598.2	6.995629	170.358	252.407	1.222999	0.077914	0.077550	251.783	43598.2	0.073583	0.178966	1406.87	94157.8
211	2.000000	1.225870	7.36712e+06	-49189.1	955.82	-29760.2	0.000000	0.000000	7.237174	268.61	NaN	0.000000	0.001654	0.001699	28.0774	75.3034	0.001870	40267.1	6.582120	-8.248170	266.071	1.225501	0.080422	0.080053	268.61	40267.1	0.075419	0.186826	1437.76	85114.9
211	2.000000	1.228295	7.36712e+06	-49189.1	955.819	-29760.2	0.000000	0.000000	7.240578	292.431	NaN	0.000000	0.001700	0.001695	28.0786	75.5476	0.001765	42805	-0.100746	178.425	287.81	1.228071	0.082847	0.082622	292.431	42805	0.077723	0.196915	1485.06	88131
211	2.000000	1.230834	7.36712e+06	-49189.1	955.819	-29760.2	0.000000	0.000000	7.243784	308.657	NaN	0.000000	0.001640	0.001709	28.0788	78.9068	0.001819	43374.9	6.903497	-8.934388	303.863	1.230584	0.085385	0.085136	308.657	43374.9	0.080048	0.207346	1488.61	87029.1
211	2.000000	1.233347	7.36712e+06	-49189.1	955.818	-29760.2	0.000000	0.000000	7.247063	327.289	NaN	0.000000	0.001672	0.001704	28.0786	80.8774	0.001748	46268.3	1.882980	175.253	326.843	1.233102	0.087898	0.087653	327.289	46268.3	0.082593	0.219054	1494.1	90319.4
211	2.000000	1.235822	7.36712e+06	-49189.1	955.82	-29760.2	0.000000	0.000000	7.250259	344.813	NaN	0.000000	0.001656	0.001723	28.0786	83.5589	0.001742	47965	4.597821	-7.592451	339.725	1.235471	0.090374	0.090022	344.813	47965	0.084982	0.230316	1497.13	91313.7
211	2.000000	1.238404	7.36712e+06	-49189.1	955.819	-29760.2	0.000000	0.000000	7.253376	357.84	NaN	0.000000	0.001652	0.001713	28.0789	86.5779	0.001789	48394.7	0.987144	176.238	359.953	1.238103	0.092955	0.092655	357.84	48394.7	0.087410	0.242030	1478.49	89874.5
211	2.000000	1.240889	7.36712e+06	-49189.1	955.82	-29760.2	0.000000	0.000000	7.256721	378.735	NaN	0.000000	0.001666	0.001720	28.0788	88.5271	0.001827	48461.5	1.523544	-4.180274	376.088	1.240535	0.095440	0.095086	378.735	48461.5	0.089579	0.252728	1498.59	88073.1
211	2.000000	1.243289	7.36712e+06	-49189.1	955.819	-29760.2	0.000000	0.000000	7.259964	399.235	NaN	0.000000	0.001631	0.001704	28.0786	90.724	0.001884	48161.9	5.746790	171.646	395.668	1.242959	0.097841	0.097511	399.235	48161.9	0.091624	0.263009	1517.95	85800.8
211	2.000000	1.245793	7.36712e+06	-49189.1	955.82	-29760.2	0.000000	0.000000	7.263278	418.956	NaN	0.000000	0.001665	0.001720	28.0787	92.1279	0.001695	54340.9	-1.650485	-1.766166	413.378	1.245480	0.100344	0.100032	418.956	54340.9	0.094562	0.278118	1506.4	94142.4
211	2.000000	1.248286	7.36712e+06	-49189.1	955.819	-29760.2	0.000000	0.000000	7.266324	432.407	NaN	0.000000	0.001626	0.001706	28.0788	96.3712	0.001752	54993.9	2.526587	173.999	429.463	1.248096	0.102837	0.102648	432.407	54993.9	0.096940	0.290634	1487.81	93199.8
211	2.000000	1.250821	7.36712e+06	-49189.1	955.82	-29760.2	0.000000	0.000000	7.269790	455.043	NaN	0.000000	0.001661	0.001732	28.0786	98.611	0.001792	55025.3	5.177413	-8.690154	451.502	1.250587	0.105372	0.105138	455.043	55025.3	0.099170	0.302606	1503.74	91389.5
211	2.000000	1.253345	7.36712e+06	-49189.1	955.82	-29760.2	0.000000	0.000000	7.273213	476.891	NaN	0.000000	0.001631	0.001691	28.0787	102.211	0.001890	54094.1	7.514677	169.582	476.77	1.252921	0.107896	0.107473	476.891	54094.1	0.101284	0.314165	1517.96	88174.7
211	2.000000	1.255338	7.36712e+06	-49189.1	955.821	-29760.2	0.000000	0.000000	7.275367	480.808	NaN	0.000000	0.001612	0.001751	28.0792	102.72	0.001830	56142	1.659223	174.381	478.886	1.255154	0.109889	0.109706	480.808	56142	0.103466	0.326307	1473.48	89794.1