File: remote_trans/data/nanoindenter/0828-1/data/Data_2025-08-06,11h17m57s/2025-07-22_16-23-58_1_455.txt
2025-07-22, 16:23:58, 1
Index	Phase	Displacement	Time	Pos X	Pos Y	Pos Z	Rot A	Rot B	Piezo Z	Force A	Force B	Gripper	Voltage A	Voltage B	Temperature	Amplitude force	Amplitude pos	Stiffness	Phase shift	Phase excitation	Force A raw	Displacement raw	HMax	HMax raw	Real Force	Real Stiffness	Contact Depth	Area	Hardness	Reduced Mod.
[#]	[#]	[um]	[s]	[um]	[um]	[um]	[m°]	[m°]	[um]	[uN]	[uN]	[V]	[V]	[V]	[°C]	[uN]	[um]	[N/m]	[°]	[°]	[uN]	[um]	[um]	[um]	[uN]	[N/m]	[um]	[um^2]	[MPa]	[MPa]
455	1.000000	0.002037	7.36951e+06	-54339.1	1005.82	-29743.9	0.000000	0.000000	6.002796	-0.030529	NaN	0.000000	0.001605	0.001818	28.0805	0.082090	0.001027	79.9397	-149.008	-158.887	-0.020027	0.000768	-1.126851	-1.128121	-0.030529	79.9397	-1.126565	-1.139055E+15	2.680226E-17	NaN
455	1.000000	0.012120	7.36951e+06	-54339.1	1005.82	-29743.9	0.000000	0.000000	6.012881	-0.002817	NaN	0.000000	0.001605	0.001849	28.0804	0.022079	0.001186	18.6111	-131.696	18.4685	-0.114879	0.010652	-1.116768	-1.118236	-0.002817	18.6111	-1.116654	-8.386526E+14	3.359349E-18	NaN
455	1.000000	0.021975	7.36951e+06	-54339.1	1005.82	-29743.9	0.000000	0.000000	6.022731	-0.113426	NaN	0.000000	0.001600	0.001850	28.0802	0.082592	0.001830	45.1341	67.2141	-163.46	-0.114996	0.020702	-1.106913	-1.108186	-0.113426	45.1341	-1.105029	-5.855533E+14	1.937067E-16	NaN
455	1.000000	0.032007	7.36951e+06	-54339.1	1005.82	-29743.9	0.000000	0.000000	6.032766	-0.033674	NaN	0.000000	0.001592	0.001869	28.0801	0.064581	0.001798	35.9268	-135.535	15.3504	-0.086168	0.030615	-1.096882	-1.098273	-0.033674	35.9268	-1.096179	-4.454181E+14	7.560109E-17	NaN
455	1.000000	0.041989	7.36951e+06	-54339.1	1005.82	-29743.9	0.000000	0.000000	6.042750	-0.006033	NaN	0.000000	0.001589	0.001796	28.0804	0.070419	0.002007	35.0914	-133.333	-168.186	0.014049	0.040745	-1.086899	-1.088143	-0.006033	35.0914	-1.086770	-3.329983E+14	1.811693E-17	NaN
455	1.000000	0.052006	7.36951e+06	-54339.1	1005.82	-29743.9	0.000000	0.000000	6.052766	-0.030753	NaN	0.000000	0.001566	0.001790	28.08	0.041794	0.002144	19.4961	-35.2034	14.8175	-0.094333	0.050633	-1.076882	-1.078255	-0.030753	19.4961	-1.075699	-2.364541E+14	1.300582E-16	NaN
455	1.000000	0.062005	7.36951e+06	-54339.1	1005.82	-29743.9	0.000000	0.000000	6.062765	-0.007568	NaN	0.000000	0.001582	0.001761	28.08	0.079067	0.002135	37.0324	20.7108	-161.719	-0.114142	0.060688	-1.066884	-1.068200	-0.007568	37.0324	-1.066730	-1.791682E+14	4.224194E-17	NaN
455	1.000000	0.072004	7.36951e+06	-54339.1	1005.82	-29743.9	0.000000	0.000000	6.072765	-0.000305	NaN	0.000000	0.001547	0.001778	28.0798	0.041191	0.001992	20.6745	88.8239	12.2534	-0.031938	0.070618	-1.056884	-1.058271	-0.000305	20.6745	-1.056873	-1.320691E+14	2.305661E-18	NaN
455	1.000000	0.081976	7.36951e+06	-54339.1	1005.82	-29743.9	0.000000	0.000000	6.082734	-0.071245	NaN	0.000000	0.001553	0.001796	28.0801	0.065468	0.002069	31.6391	83.5299	-167.044	-0.071782	0.080663	-1.046912	-1.048226	-0.071245	31.6391	-1.045223	-9.208738E+13	7.736682E-16	NaN
455	1.000000	0.092016	7.36951e+06	-54339.1	1005.82	-29743.9	0.000000	0.000000	6.092775	-0.043069	NaN	0.000000	0.001529	0.001794	28.0799	0.055368	0.001974	28.0519	-107.646	16.3722	-0.055577	0.090618	-1.036873	-1.038270	-0.043069	28.0519	-1.035721	-6.861653E+13	6.276703E-16	NaN
455	1.000000	0.102004	7.36951e+06	-54339.1	1005.82	-29743.9	0.000000	0.000000	6.102764	-0.029087	NaN	0.000000	0.001547	0.001803	28.0808	0.059415	0.001951	30.4476	106.317	-168.611	-0.039453	0.100743	-1.026884	-1.028145	-0.029087	30.4476	-1.026167	-5.104190E+13	5.698716E-16	NaN
455	1.000000	0.112012	7.36951e+06	-54339.1	1005.82	-29743.9	0.000000	0.000000	6.112772	-0.031385	NaN	0.000000	0.001576	0.001796	28.0809	0.098234	0.001938	50.6912	-164.514	13.1458	-0.026259	0.110681	-1.016876	-1.018207	-0.031385	50.6912	-1.016412	-3.772869E+13	8.318547E-16	NaN
455	1.000000	0.122011	7.36951e+06	-54339.1	1005.82	-29743.9	0.000000	0.000000	6.122771	-0.005195	NaN	0.000000	0.001543	0.001808	28.0809	0.035193	0.002049	17.1717	-139.392	-165.596	-0.041781	0.120663	-1.006878	-1.008226	-0.005195	17.1717	-1.006651	-2.788059E+13	1.863210E-16	NaN
455	1.000000	0.132035	7.36951e+06	-54339.1	1005.82	-29743.9	0.000000	0.000000	6.132795	-0.020105	NaN	0.000000	0.001568	0.001824	28.0811	0.007707	0.001987	3.879593	-34.7121	15.3619	0.014669	0.130653	-0.996854	-0.998235	-0.020105	3.879593	-0.992967	-1.824181E+13	1.102143E-15	NaN
455	1.000000	0.142033	7.36951e+06	-54339.1	1005.82	-29743.9	0.000000	0.000000	6.142792	-0.036546	NaN	0.000000	0.001578	0.001818	28.0809	0.108981	0.001952	55.82	-42.9237	-167.042	-0.020447	0.140737	-0.986856	-0.988151	-0.036546	55.82	-0.986365	-1.486445E+13	2.458593E-15	NaN
455	1.000000	0.152005	7.36951e+06	-54339.1	1005.82	-29743.9	0.000000	0.000000	6.152764	-0.041447	NaN	0.000000	0.001597	0.001774	28.0812	0.087089	0.002178	39.9894	39.8153	13.2584	-0.031497	0.150643	-0.976883	-0.978245	-0.041447	39.9894	-0.976106	-1.081300E+13	3.833063E-15	NaN
455	1.000000	0.162050	7.36951e+06	-54339.1	1005.82	-29743.9	0.000000	0.000000	6.162810	-0.011405	NaN	0.000000	0.001587	0.001756	28.0807	0.058590	0.001875	31.2414	-66.7606	-168.731	-0.028439	0.160741	-0.966838	-0.968147	-0.011405	31.2414	-0.966564	-8.041874E+12	1.418242E-15	NaN
455	1.000000	0.172023	7.36951e+06	-54339.1	1005.82	-29743.9	0.000000	0.000000	6.172784	-0.000483	NaN	0.000000	0.001553	0.001808	28.0805	0.037714	0.001878	20.084	78.8189	14.7343	0.015348	0.170625	-0.956865	-0.958263	-0.000483	20.084	-0.956847	-5.947791E+12	8.126924E-17	NaN
455	1.000000	0.181999	7.36951e+06	-54339.1	1005.82	-29743.9	0.000000	0.000000	6.182756	-0.106001	NaN	0.000000	0.001560	0.001818	28.0805	0.139567	0.002034	68.6145	43.4667	-165.612	-0.168139	0.180708	-0.946889	-0.948180	-0.106001	68.6145	-0.945730	-4.211536E+12	2.516932E-14	NaN
455	1.000000	0.192045	7.36951e+06	-54339.1	1005.82	-29743.9	0.000000	0.000000	6.192803	-0.053291	NaN	0.000000	0.001579	0.001790	28.0806	0.096942	0.002103	46.1041	-108.615	14.9734	-0.038807	0.190741	-0.936844	-0.938147	-0.053291	46.1041	-0.935977	-3.110658E+12	1.713178E-14	NaN
455	1.000000	0.202067	7.36951e+06	-54339.1	1005.82	-29743.9	0.000000	0.000000	6.202828	0.000754	NaN	0.000000	0.001579	0.001770	28.0805	0.035345	0.001873	18.8661	172.728	-166.788	-0.003117	0.200773	-0.926821	-0.928116	0.000754	18.8661	-0.926851	-2.342589E+12	-3.218527E-16	NaN
455	1.000000	0.212055	7.36951e+06	-54339.1	1005.82	-29743.9	0.000000	0.000000	6.212816	0.003364	NaN	0.000000	0.001539	0.001780	28.0804	0.025941	0.001976	13.1308	151.824	10.8252	-0.016834	0.210685	-0.916833	-0.918203	0.003364	13.1308	-0.917025	-1.725979E+12	-1.949214E-15	NaN
455	1.000000	0.222072	7.36951e+06	-54339.1	1005.82	-29743.9	0.000000	0.000000	6.222828	-0.129836	NaN	0.000000	0.001529	0.001792	28.0806	0.012845	0.002007	6.399069	141.121	-167.106	-0.002866	0.220750	-0.906816	-0.908138	-0.129836	6.399069	-0.891598	-7.825673E+11	1.659104E-13	NaN
455	1.000000	0.232068	7.36951e+06	-54339.1	1005.82	-29743.9	0.000000	0.000000	6.232826	-0.072715	NaN	0.000000	0.001547	0.001772	28.0795	0.091968	0.001961	46.9015	166.627	15.0613	-0.169992	0.230703	-0.896820	-0.898186	-0.072715	46.9015	-0.895658	-8.879441E+11	8.189186E-14	NaN
455	1.000000	0.242052	7.36951e+06	-54339.1	1005.82	-29743.9	0.000000	0.000000	6.242812	-0.019033	NaN	0.000000	0.001557	0.001743	28.0793	0.080783	0.002006	40.263	119.742	-167.354	-0.057306	0.240794	-0.886836	-0.888094	-0.019033	40.263	-0.886482	-6.673456E+11	2.852069E-14	NaN
455	1.000000	0.252041	7.36951e+06	-54339.1	1005.82	-29743.9	0.000000	0.000000	6.252800	-0.043282	NaN	0.000000	0.001550	0.001760	28.0793	0.088677	0.001987	44.6193	-20.263	16.9712	-0.046227	0.250693	-0.876847	-0.878195	-0.043282	44.6193	-0.876119	-4.833092E+11	8.955445E-14	NaN
455	1.000000	0.262092	7.36951e+06	-54339.1	1005.82	-29743.9	0.000000	0.000000	6.262850	-0.066783	NaN	0.000000	0.001540	0.001815	28.0795	0.071530	0.002012	35.5472	159.048	-167.371	-0.070001	0.260771	-0.866797	-0.868117	-0.066783	35.5472	-0.865388	-3.459661E+11	1.930338E-13	NaN
455	1.000000	0.272114	7.36951e+06	-54339.1	1005.82	-29743.9	0.000000	0.000000	6.272877	0.052096	NaN	0.000000	0.001567	0.001756	28.0793	0.048915	0.001995	24.5148	-157.675	12.9643	0.081724	0.270710	-0.856774	-0.858178	0.052096	24.5148	-0.858368	-2.779907E+11	-1.874027E-13	NaN
455	1.000000	0.282062	7.36951e+06	-54339.1	1005.82	-29743.9	0.000000	0.000000	6.282819	-0.106353	NaN	0.000000	0.001522	0.001784	28.0794	0.152385	0.001984	76.8022	153.2	-168.039	-0.091035	0.280812	-0.846826	-0.848076	-0.106353	76.8022	-0.845788	-1.877976E+11	5.663168E-13	NaN
455	1.000000	0.292120	7.36951e+06	-54339.1	1005.82	-29743.9	0.000000	0.000000	6.292878	-0.077196	NaN	0.000000	0.001591	0.001795	28.0795	0.083271	0.002015	41.3252	163.424	13.5658	-0.162946	0.290764	-0.836768	-0.838124	-0.077196	41.3252	-0.835367	-1.356808E+11	5.689502E-13	NaN
455	1.000000	0.302129	7.36951e+06	-54339.1	1005.82	-29743.9	0.000000	0.000000	6.302887	-0.073386	NaN	0.000000	0.001533	0.001802	28.0797	0.105929	0.001903	55.6566	-94.6841	-166.334	-0.001636	0.300736	-0.826759	-0.828153	-0.073386	55.6566	-0.825770	-1.005650E+11	7.297403E-13	NaN
455	1.000000	0.312133	7.36951e+06	-54339.1	1005.82	-29743.9	0.000000	0.000000	6.312892	-0.057655	NaN	0.000000	0.001508	0.001805	28.0796	0.036775	0.002104	17.4813	-113.01	14.9337	-0.007064	0.310756	-0.816755	-0.818132	-0.057655	17.4813	-0.814281	-7.025054E+10	8.207079E-13	NaN
455	1.000000	0.322098	7.36951e+06	-54339.1	1005.82	-29743.9	0.000000	0.000000	6.322857	-0.054468	NaN	0.000000	0.001501	0.001824	28.0794	0.083346	0.001995	41.7748	38.5088	-165.055	-0.042299	0.320770	-0.806790	-0.808119	-0.054468	41.7748	-0.805812	-5.391929E+10	1.010172E-12	NaN
455	1.000000	0.332117	7.36951e+06	-54339.1	1005.82	-29743.9	0.000000	0.000000	6.332880	0.054803	NaN	0.000000	0.001518	0.001789	28.0796	0.096861	0.002020	47.941	-109.067	14.4882	0.087107	0.330732	-0.796771	-0.798156	0.054803	47.941	-0.797628	-4.175081E+10	-1.312611E-12	NaN
455	1.000000	0.342111	7.36951e+06	-54339.1	1005.82	-29743.9	0.000000	0.000000	6.342869	-0.068766	NaN	0.000000	0.001512	0.001790	28.0792	0.072718	0.001899	38.2922	28.9552	-166.124	-0.099000	0.340800	-0.786777	-0.788088	-0.068766	38.2922	-0.785430	-2.851116E+10	2.411915E-12	NaN
455	1.000000	0.352123	7.36951e+06	-54339.1	1005.82	-29743.9	0.000000	0.000000	6.352882	-0.044092	NaN	0.000000	0.001527	0.001810	28.0791	0.069790	0.001983	35.1852	126.697	13.1369	-0.054203	0.350748	-0.776766	-0.778140	-0.044092	35.1852	-0.775826	-2.111063E+10	2.088617E-12	NaN
455	1.000000	0.362109	7.36951e+06	-54339.1	1005.82	-29743.9	0.000000	0.000000	6.362870	0.003824	NaN	0.000000	0.001591	0.001763	28.0794	0.132856	0.002030	65.4425	122.572	-166.369	-0.043435	0.360825	-0.766779	-0.768063	0.003824	65.4425	-0.766823	-1.592580E+10	-2.401123E-13	NaN
455	1.000000	0.372117	7.36951e+06	-54339.1	1005.82	-29743.9	0.000000	0.000000	6.372874	-0.077209	NaN	0.000000	0.001612	0.001773	28.0807	0.089923	0.001999	44.9892	0.117868	11.2556	-0.051075	0.370758	-0.756772	-0.758130	-0.077209	44.9892	-0.755484	-1.116514E+10	6.915206E-12	NaN
455	1.000000	0.382117	7.36951e+06	-54339.1	1005.82	-29743.9	0.000000	0.000000	6.382877	-0.024376	NaN	0.000000	0.001634	0.001757	28.0806	0.096304	0.001923	50.0903	29.2635	-163.549	0.016327	0.380798	-0.746771	-0.748090	-0.024376	50.0903	-0.746406	-8.400290E+9	2.901814E-12	NaN
455	1.000000	0.392156	7.36951e+06	-54339.1	1005.82	-29743.9	0.000000	0.000000	6.392917	-0.004791	NaN	0.000000	0.001578	0.001793	28.0806	0.075187	0.002043	36.7943	106.077	13.4284	0.050179	0.390765	-0.736732	-0.738123	-0.004791	36.7943	-0.736634	-6.183138E+9	7.747970E-13	NaN
455	1.000000	0.402129	7.36951e+06	-54339.1	1005.82	-29743.9	0.000000	0.000000	6.402890	0.003176	NaN	0.000000	0.001580	0.001771	28.0808	0.044464	0.001998	22.2587	-117.065	-165.718	-0.100953	0.400805	-0.726759	-0.728083	0.003176	22.2587	-0.726866	-4.550794E+9	-6.977965E-13	NaN
455	1.000000	0.412164	7.36951e+06	-54339.1	1005.82	-29743.9	0.000000	0.000000	6.412922	-0.061937	NaN	0.000000	0.001573	0.001734	28.0809	0.074423	0.002032	36.6228	110.467	12.9557	-0.091171	0.410786	-0.716724	-0.718102	-0.061937	36.6228	-0.715456	-3.180482E+9	1.947400E-11	NaN
455	1.000000	0.422174	7.36951e+06	-54339.1	1005.82	-29743.9	0.000000	0.000000	6.422933	-0.054848	NaN	0.000000	0.001553	0.001760	28.0808	0.063506	0.002018	31.4699	-73.6533	-164.164	-0.020238	0.420830	-0.706714	-0.708058	-0.054848	31.4699	-0.705407	-2.319290E+9	2.364841E-11	NaN
455	1.000000	0.432154	7.36951e+06	-54339.1	1005.82	-29743.9	0.000000	0.000000	6.432910	-0.104875	NaN	0.000000	0.001570	0.001762	28.0809	0.031863	0.001924	16.5619	113.667	14.8709	-0.065941	0.430781	-0.696735	-0.698107	-0.104875	16.5619	-0.691986	-1.520725E+9	6.896360E-11	NaN
455	1.000000	0.442150	7.36951e+06	-54339.1	1005.82	-29743.9	0.000000	0.000000	6.442908	-0.065410	NaN	0.000000	0.001545	0.001759	28.0808	0.067674	0.002054	32.9457	87.8712	-164.53	-0.024884	0.440831	-0.686738	-0.688057	-0.065410	32.9457	-0.685249	-1.230223E+9	5.316893E-11	NaN
455	1.000000	0.452155	7.36951e+06	-54339.1	1005.82	-29743.9	0.000000	0.000000	6.452913	-0.063309	NaN	0.000000	0.001573	0.001742	28.0807	0.062324	0.002042	30.5258	-96.4498	11.655	-0.070701	0.450805	-0.676734	-0.678083	-0.063309	30.5258	-0.675178	-8.958804E+8	7.066673E-11	NaN
455	1.000000	0.462160	7.36951e+06	-54339.1	1005.82	-29743.9	0.000000	0.000000	6.462918	-0.072708	NaN	0.000000	0.001593	0.001802	28.0807	0.023749	0.001978	12.0092	154.706	-167.476	-0.127767	0.460884	-0.666728	-0.668004	-0.072708	12.0092	-0.662187	-5.948769E+8	1.222239E-10	NaN
455	1.000000	0.472187	7.36951e+06	-54339.1	1005.82	-29743.9	0.000000	0.000000	6.472948	0.008351	NaN	0.000000	0.001637	0.001781	28.0807	0.052279	0.001873	27.9108	37.0443	13.6419	0.010098	0.470829	-0.656701	-0.658059	0.008351	27.9108	-0.656926	-5.039084E+8	-1.657286E-11	NaN
455	1.000000	0.482185	7.36951e+06	-54339.1	1005.82	-29743.9	0.000000	0.000000	6.482944	-0.033960	NaN	0.000000	0.001612	0.001801	28.0808	0.039906	0.001972	20.2358	-82.0579	-165.569	-0.066383	0.480870	-0.646703	-0.648019	-0.033960	20.2358	-0.645445	-3.507321E+8	9.682553E-11	NaN
455	1.000000	0.492197	7.36951e+06	-54339.1	1005.82	-29743.9	0.000000	0.000000	6.492955	-0.058353	NaN	0.000000	0.001595	0.001801	28.0806	0.016438	0.002158	7.617193	5.077780	14.6666	-0.050974	0.490839	-0.636691	-0.638049	-0.058353	7.617193	-0.630946	-2.218242E+8	2.630592E-10	NaN
455	1.000000	0.502132	7.36951e+06	-54339.1	1005.82	-29743.9	0.000000	0.000000	6.502890	-0.064177	NaN	0.000000	0.001577	0.001756	28.0805	0.037321	0.002037	18.3229	44.1376	-167.281	-0.045154	0.500915	-0.626756	-0.627973	-0.064177	18.3229	-0.624130	-1.788071E+8	3.589180E-10	NaN
455	1.000000	0.512201	7.36951e+06	-54339.1	1005.82	-29743.9	0.000000	0.000000	6.512959	-0.066238	NaN	0.000000	0.001574	0.001745	28.0796	0.092109	0.002027	45.4429	-26.8124	13.3222	-0.036474	0.510788	-0.616687	-0.618101	-0.066238	45.4429	-0.615594	-1.364771E+8	4.853414E-10	NaN
455	1.000000	0.522177	7.36951e+06	-54339.1	1005.82	-29743.9	0.000000	0.000000	6.522934	-0.077531	NaN	0.000000	0.001608	0.001745	28.0794	0.118493	0.001971	60.1194	-138.748	-164.072	-0.087313	0.520816	-0.606712	-0.608072	-0.077531	60.1194	-0.605745	-9.989709E+7	7.761134E-10	NaN
455	1.000000	0.532193	7.36951e+06	-54339.1	1005.82	-29743.9	0.000000	0.000000	6.532954	-0.001698	NaN	0.000000	0.001550	0.001743	28.0793	0.084675	0.001932	43.8366	138.121	14.3414	-0.003386	0.530821	-0.596695	-0.598067	-0.001698	43.8366	-0.596666	-7.490979E+7	2.266131E-11	NaN
455	1.000000	0.542200	7.36951e+06	-54339.1	1005.82	-29743.9	0.000000	0.000000	6.542959	-0.043126	NaN	0.000000	0.001609	0.001752	28.0793	0.099204	0.001989	49.8835	150.519	-165.371	-0.038414	0.540875	-0.586689	-0.588013	-0.043126	49.8835	-0.586040	-5.346430E+7	8.066355E-10	NaN
455	1.000000	0.552209	7.36951e+06	-54339.1	1005.82	-29743.9	0.000000	0.000000	6.552965	-0.126637	NaN	0.000000	0.001535	0.001768	28.0796	0.084888	0.002056	41.2963	72.9333	12.1706	-0.083543	0.550859	-0.576679	-0.578029	-0.126637	41.2963	-0.574379	-3.690813E+7	3.431137E-9	NaN
455	1.000000	0.562195	7.36951e+06	-54339.1	1005.82	-29743.9	0.000000	0.000000	6.562953	-0.060453	NaN	0.000000	0.001525	0.001780	28.0794	0.068395	0.002057	33.2539	145.248	-167.457	-0.049447	0.560885	-0.566693	-0.568004	-0.060453	33.2539	-0.565330	-2.767468E+7	2.184422E-9	NaN
455	1.000000	0.572202	7.36951e+06	-54339.1	1005.82	-29743.9	0.000000	0.000000	6.572961	-0.046546	NaN	0.000000	0.001520	0.001736	28.0794	0.029032	0.001935	15.0045	-5.665289	11.895	-0.009085	0.570849	-0.556686	-0.558039	-0.046546	15.0045	-0.554359	-1.951288E+7	2.385380E-9	NaN
455	1.000000	0.582222	7.36951e+06	-54339.1	1005.82	-29743.9	0.000000	0.000000	6.582979	-0.086542	NaN	0.000000	0.001563	0.001781	28.0796	0.084852	0.001912	44.3869	-111.913	-162.558	-0.071649	0.580866	-0.546667	-0.548022	-0.086542	44.3869	-0.545204	-1.457172E+7	5.939053E-9	NaN
455	1.000000	0.592216	7.36951e+06	-54339.1	1005.82	-29743.9	0.000000	0.000000	6.592974	-0.058096	NaN	0.000000	0.001535	0.001736	28.0797	0.113285	0.001787	63.3902	-139.992	16.0425	-0.041448	0.590830	-0.536672	-0.538058	-0.058096	63.3902	-0.535985	-1.085571E+7	5.351648E-9	NaN
455	1.000000	0.602255	7.36951e+06	-54339.1	1005.82	-29743.9	0.000000	0.000000	6.603014	-0.045798	NaN	0.000000	0.001524	0.001741	28.0795	0.077807	0.002029	38.3444	-160.838	-164.934	-0.027051	0.600929	-0.526633	-0.527959	-0.045798	38.3444	-0.525737	-7.82274e+06	5.854532E-9	NaN
455	1.000000	0.612219	7.36951e+06	-54339.1	1005.82	-29743.9	0.000000	0.000000	6.612975	-0.118417	NaN	0.000000	0.001545	0.001767	28.0796	0.044357	0.002052	21.6164	-14.2921	11.6417	-0.078257	0.610870	-0.516669	-0.518018	-0.118417	21.6164	-0.512561	-5.12951e+06	2.308554E-8	NaN
455	1.000000	0.622224	7.36951e+06	-54339.1	1005.82	-29743.9	0.000000	0.000000	6.622984	-0.007668	NaN	0.000000	0.001554	0.001758	28.0798	0.113024	0.002122	53.2709	82.2703	-165.54	0.002648	0.620895	-0.506664	-0.507993	-0.007668	53.2709	-0.506557	-4.23096e+06	1.812467E-9	NaN
455	1.000000	0.632244	7.36951e+06	-54339.1	1005.82	-29743.9	0.000000	0.000000	6.633002	-0.082540	NaN	0.000000	0.001557	0.001777	28.0797	0.086121	0.002051	41.9914	-58.4929	13.8432	-0.042757	0.630887	-0.496644	-0.498001	-0.082540	41.9914	-0.495170	-2.93498e+06	2.812298E-8	NaN
455	1.000000	0.642252	7.36951e+06	-54339.1	1005.82	-29743.9	0.000000	0.000000	6.643010	-0.074730	NaN	0.000000	0.001500	0.001780	28.0808	0.038246	0.001900	20.1296	-93.9373	-167.661	-0.056502	0.640981	-0.486636	-0.487908	-0.074730	20.1296	-0.483852	-2.03908e+06	3.664879E-8	NaN
455	1.000000	0.652247	7.36951e+06	-54339.1	1005.82	-29743.9	0.000000	0.000000	6.653005	-0.051183	NaN	0.000000	0.001468	0.001802	28.081	0.083500	0.001968	42.4281	-163.385	14.9344	-0.062693	0.650888	-0.476642	-0.478001	-0.051183	42.4281	-0.475737	-1.56973e+06	3.260630E-8	NaN
455	1.000000	0.662246	7.36951e+06	-54339.1	1005.82	-29743.9	0.000000	0.000000	6.663004	-0.067666	NaN	0.000000	0.001513	0.001765	28.0812	0.102716	0.002020	50.8404	31.7987	-164.932	0.008796	0.660946	-0.466642	-0.467942	-0.067666	50.8404	-0.465644	-1.13314e+06	5.971574E-8	NaN
455	1.000000	0.672248	7.36951e+06	-54339.1	1005.82	-29743.9	0.000000	0.000000	6.673007	-0.046889	NaN	0.000000	0.001513	0.001711	28.0807	0.036310	0.002084	17.4251	-103.658	13.6872	-0.067266	0.670914	-0.456640	-0.457974	-0.046889	17.4251	-0.454622	-793230	5.911189E-8	NaN
455	1.000000	0.682246	7.36951e+06	-54339.1	1005.82	-29743.9	0.000000	0.000000	6.683002	-0.111727	NaN	0.000000	0.001549	0.001759	28.0807	0.061193	0.001960	31.2137	62.0084	-166.298	-0.142770	0.680974	-0.446643	-0.447914	-0.111727	31.2137	-0.443958	-561307	1.990474E-7	NaN
455	1.000000	0.692282	7.36951e+06	-54339.1	1005.82	-29743.9	0.000000	0.000000	6.693040	-0.055450	NaN	0.000000	0.001513	0.001773	28.0808	0.006999	0.002045	3.422891	70.2836	10.8963	-0.036314	0.690929	-0.436606	-0.437960	-0.055450	3.422891	-0.424456	-297566	1.863459E-7	NaN
455	1.000000	0.702264	7.36951e+06	-54339.1	1005.82	-29743.9	0.000000	0.000000	6.703022	-0.057565	NaN	0.000000	0.001537	0.001749	28.0806	0.069705	0.001988	35.0563	-28.9325	-165.123	-0.022339	0.700947	-0.426625	-0.427941	-0.057565	35.0563	-0.425393	-306797	1.876314E-7	NaN
455	1.000000	0.712268	7.36951e+06	-54339.1	1005.82	-29743.9	0.000000	0.000000	6.713027	-0.025989	NaN	0.000000	0.001537	0.001740	28.0808	0.065959	0.002058	32.0522	79.5571	12.3372	0.001297	0.710907	-0.416620	-0.417981	-0.025989	32.0522	-0.416012	-225855	1.150697E-7	NaN
455	1.000000	0.722272	7.36951e+06	-54339.1	1005.82	-29743.9	0.000000	0.000000	6.723032	-0.003571	NaN	0.000000	0.001556	0.001724	28.0805	0.057006	0.002023	28.1751	87.913	-167.752	-0.024691	0.720917	-0.406616	-0.407971	-0.003571	28.1751	-0.406521	-165542	2.157201E-8	NaN
455	1.000000	0.732286	7.36951e+06	-54339.1	1005.82	-29743.9	0.000000	0.000000	6.733044	-0.069821	NaN	0.000000	0.001524	0.001724	28.081	0.066312	0.002080	31.8804	84.7529	14.0319	-0.067903	0.730998	-0.396602	-0.397890	-0.069821	31.8804	-0.394960	-113256	6.164900E-7	NaN
455	1.000000	0.742295	7.36951e+06	-54339.1	1005.82	-29743.9	0.000000	0.000000	6.743051	-0.110609	NaN	0.000000	0.001544	0.001744	28.0806	0.070793	0.001921	36.862	20.8785	-164.696	-0.171889	0.740876	-0.386593	-0.388012	-0.110609	36.862	-0.384343	-79830.3	1.385545E-6	NaN
455	1.000000	0.752288	7.36951e+06	-54339.1	1005.82	-29743.9	0.000000	0.000000	6.753046	-0.051897	NaN	0.000000	0.001516	0.001762	28.0807	0.054705	0.001997	27.3929	-135.718	15.2569	-0.046656	0.750880	-0.376601	-0.378008	-0.051897	27.3929	-0.375180	-58973.1	8.800057E-7	NaN
455	1.000000	0.762302	7.36951e+06	-54339.1	1005.82	-29743.9	0.000000	0.000000	6.763060	-0.069223	NaN	0.000000	0.001532	0.001767	28.0806	0.106828	0.001992	53.6278	67.2865	-165.334	-0.079898	0.760957	-0.366586	-0.367931	-0.069223	53.6278	-0.365618	-42950.7	1.611678E-6	NaN
455	1.000000	0.772307	7.36951e+06	-54339.1	1005.82	-29743.9	0.000000	0.000000	6.773066	-0.028977	NaN	0.000000	0.001543	0.001719	28.0809	0.195318	0.002023	96.557	41.2704	16.1851	-0.018842	0.770973	-0.356582	-0.357916	-0.028977	96.557	-0.356357	-31560.3	9.181463E-7	NaN
455	1.000000	0.782308	7.36951e+06	-54339.1	1005.82	-29743.9	0.000000	0.000000	6.783064	-0.123808	NaN	0.000000	0.001506	0.001741	28.0795	0.046481	0.001914	24.2841	-114.365	-160.212	-0.139402	0.780982	-0.346580	-0.347907	-0.123808	24.2841	-0.342757	-20031.4	6.180692E-6	NaN
455	1.000000	0.792279	7.36951e+06	-54339.1	1005.82	-29743.9	0.000000	0.000000	6.793038	-0.054501	NaN	0.000000	0.001562	0.001721	28.0795	0.134173	0.002013	66.6516	-115.587	14.0242	-0.102161	0.790933	-0.336609	-0.337955	-0.054501	66.6516	-0.335996	-15963.7	3.414071E-6	NaN
455	1.000000	0.802294	7.36951e+06	-54339.1	1005.82	-29743.9	0.000000	0.000000	6.803054	-0.034743	NaN	0.000000	0.001533	0.001744	28.0796	0.121391	0.002067	58.7391	-103.702	-168.072	0.003673	0.801030	-0.326594	-0.327859	-0.034743	58.7391	-0.326150	-11455.7	3.032788E-6	NaN
455	1.000000	0.812304	7.36951e+06	-54339.1	1005.82	-29743.9	0.000000	0.000000	6.813061	-0.091626	NaN	0.000000	0.001547	0.001769	28.0797	0.035137	0.002072	16.96	-116.882	12.6068	-0.101362	0.810910	-0.316584	-0.317978	-0.091626	16.96	-0.312533	-7219.54	1.269137E-5	NaN
455	1.000000	0.822326	7.36951e+06	-54339.1	1005.82	-29743.9	0.000000	0.000000	6.823083	-0.091457	NaN	0.000000	0.001531	0.001724	28.0795	0.026659	0.002108	12.6494	88.0352	-165.253	-0.051269	0.821022	-0.306562	-0.307866	-0.091457	12.6494	-0.301140	-4893.24	1.869053E-5	NaN
455	1.000000	0.832337	7.36951e+06	-54339.1	1005.82	-29743.9	0.000000	0.000000	6.833097	-3.249244E-5	NaN	0.000000	0.001551	0.001686	28.0794	0.083799	0.001903	44.0462	48.824	12.0523	-0.027224	0.830913	-0.296552	-0.297975	-3.249244E-5	44.0462	-0.296551	-4180.6	7.772199E-9	NaN
455	1.000000	0.842334	7.36951e+06	-54339.1	1005.82	-29743.9	0.000000	0.000000	6.843093	-0.051345	NaN	0.000000	0.001530	0.001715	28.0798	0.061813	0.002107	29.3411	42.1477	-166.485	-0.072430	0.840963	-0.286554	-0.287925	-0.051345	29.3411	-0.285242	-2830.73	1.813857E-5	NaN
455	1.000000	0.852316	7.36951e+06	-54339.1	1005.82	-29743.9	0.000000	0.000000	6.853072	-0.130940	NaN	0.000000	0.001528	0.001706	28.0795	0.050469	0.002038	24.7702	-11.025	13.4771	-0.094716	0.850937	-0.276572	-0.277951	-0.130940	24.7702	-0.272607	-1824.48	7.176859E-5	NaN
455	1.000000	0.862311	7.36951e+06	-54339.1	1005.82	-29743.9	0.000000	0.000000	6.863069	-0.064619	NaN	0.000000	0.001545	0.001734	28.0794	0.101804	0.002025	50.2645	-5.093726	-166.667	-0.052822	0.861045	-0.266577	-0.267843	-0.064619	50.2645	-0.265613	-1428.06	4.524982E-5	NaN
455	1.000000	0.872333	7.36951e+06	-54339.1	1005.82	-29743.9	0.000000	0.000000	6.873092	-0.044695	NaN	0.000000	0.001529	0.001749	28.0795	0.097119	0.002041	47.5776	165.323	16.4508	0.045838	0.870976	-0.256555	-0.257912	-0.044695	47.5776	-0.255850	-1012.05	4.416334E-5	NaN
455	1.000000	0.882328	7.36951e+06	-54339.1	1005.82	-29743.9	0.000000	0.000000	6.883088	-0.026815	NaN	0.000000	0.001533	0.001769	28.0798	0.033246	0.001888	17.6138	63.3479	-164.67	-0.034030	0.881037	-0.246560	-0.247851	-0.026815	17.6138	-0.245419	-698.16	3.840792E-5	NaN
455	1.000000	0.892334	7.36951e+06	-54339.1	1005.82	-29743.9	0.000000	0.000000	6.893095	-0.000316	NaN	0.000000	0.001512	0.001732	28.0794	0.071861	0.001949	36.8624	-125.058	13.2395	-0.092993	0.890983	-0.236554	-0.237905	-0.000316	36.8624	-0.236548	-507.616	6.233957E-7	NaN
455	1.000000	0.902357	7.36951e+06	-54339.1	1005.82	-29743.9	0.000000	0.000000	6.903117	-0.022460	NaN	0.000000	0.001572	0.001716	28.0798	0.049169	0.002063	23.8289	-145.187	-165.62	-0.040015	0.901019	-0.226531	-0.227869	-0.022460	23.8289	-0.225824	-343.889	6.531199E-5	NaN
455	1.000000	0.912348	7.36951e+06	-54339.1	1005.82	-29743.9	0.000000	0.000000	6.913109	0.002610	NaN	0.000000	0.001571	0.001720	28.0799	0.084818	0.002100	40.3809	105.208	14.9002	-0.018626	0.910983	-0.216541	-0.217905	0.002610	40.3809	-0.216589	-244.933	-1.065500E-5	NaN
455	1.000000	0.922338	7.36951e+06	-54339.1	1005.82	-29743.9	0.000000	0.000000	6.923098	-0.013293	NaN	0.000000	0.001549	0.001685	28.0809	0.025635	0.001945	13.1814	109.664	-165.795	-0.026229	0.921017	-0.206550	-0.207871	-0.013293	13.1814	-0.205794	-163.871	8.111725E-5	NaN
455	1.000000	0.932367	7.36951e+06	-54339.1	1005.82	-29743.9	0.000000	0.000000	6.933126	-0.052608	NaN	0.000000	0.001553	0.001758	28.0807	0.119380	0.001991	59.9681	134.155	13.3763	-0.068249	0.931053	-0.196521	-0.197835	-0.052608	59.9681	-0.195863	-112.587	0.000467	NaN
455	1.000000	0.942358	7.36951e+06	-54339.1	1005.82	-29743.9	0.000000	0.000000	6.943118	-0.013280	NaN	0.000000	0.001515	0.001760	28.0808	0.146586	0.001853	79.1001	116.854	-163.93	-0.094219	0.941024	-0.186530	-0.187865	-0.013280	79.1001	-0.186404	-78.302	0.000170	NaN
455	1.000000	0.952361	7.36951e+06	-54339.1	1005.82	-29743.9	0.000000	0.000000	6.953119	-0.059701	NaN	0.000000	0.001650	0.001764	28.0811	0.130511	0.002047	63.7422	72.532	12.853	-0.048379	0.951010	-0.176528	-0.177878	-0.059701	63.7422	-0.175825	-51.7783	0.001153	NaN
455	1.000000	0.962389	7.36951e+06	-54339.1	1005.82	-29743.9	0.000000	0.000000	6.963149	-0.010297	NaN	0.000000	0.001579	0.001777	28.0808	0.009963	0.002012	4.951217	-120.064	-166.093	-0.009122	0.961123	-0.166500	-0.167766	-0.010297	4.951217	-0.164940	-33.5156	0.000307	NaN
455	1.000000	0.972376	7.36951e+06	-54339.1	1005.82	-29743.9	0.000000	0.000000	6.973133	-0.080452	NaN	0.000000	0.001590	0.001768	28.0806	0.058920	0.002039	28.896	-165.131	14.913	-0.118996	0.971018	-0.156513	-0.157870	-0.080452	28.896	-0.154424	-21.7879	0.003692	NaN
455	1.000000	0.982376	7.36951e+06	-54339.1	1005.82	-29743.9	0.000000	0.000000	6.983134	-0.067889	NaN	0.000000	0.001549	0.001740	28.0809	0.031095	0.002022	15.3779	-81.6864	-165.494	-0.115399	0.981054	-0.146512	-0.147834	-0.067889	15.3779	-0.143201	-13.5769	0.005000	NaN
455	1.000000	0.992344	7.36951e+06	-54339.1	1005.82	-29743.9	0.000000	0.000000	6.993109	0.111736	NaN	0.000000	0.001583	0.001763	28.081	0.129986	0.001929	67.4001	39.8175	12.556	0.036201	0.990950	-0.136545	-0.137939	0.111736	67.4001	-0.137788	-10.7466	-0.010397	NaN
455	1.000000	1.002396	7.36951e+06	-54339.1	1005.82	-29743.9	0.000000	0.000000	7.003169	0.301598	NaN	0.000000	0.001567	0.001729	28.0807	0.400751	0.002003	200.092	34.6731	-170.015	0.317688	1.001086	-0.126492	-0.127802	0.301598	200.092	-0.127623	-6.849139	-0.044034	NaN
455	1.000000	1.012412	7.36951e+06	-54339.1	1005.82	-29743.9	0.000000	0.000000	7.013193	0.487850	NaN	0.000000	0.001554	0.001739	28.0806	0.372221	0.001972	188.746	27.3395	12.0326	0.483020	1.011002	-0.116476	-0.117886	0.487850	188.746	-0.118415	-4.487287	-0.108718	NaN
455	1.000000	1.022390	7.36951e+06	-54339.1	1005.82	-29743.9	0.000000	0.000000	7.023178	0.668736	NaN	0.000000	0.001548	0.001751	28.0808	0.461375	0.002021	228.3	30.302	-165.774	0.598786	1.021096	-0.106498	-0.107793	0.668736	228.3	-0.108695	-2.820148	-0.237128	NaN
455	1.000000	1.032375	7.36951e+06	-54339.1	1005.82	-29743.9	0.000000	0.000000	7.033170	0.832243	NaN	0.000000	0.001569	0.001788	28.0807	0.648517	0.001876	345.675	26.5373	13.9513	0.764324	1.031090	-0.096513	-0.097798	0.832243	345.675	-0.098319	-1.676278	-0.496483	NaN
455	1.000000	1.042401	7.36951e+06	-54339.1	1005.82	-29743.9	0.000000	0.000000	7.043202	0.970453	NaN	0.000000	0.001592	0.001767	28.0807	0.869773	0.001871	464.807	21.2866	-166.092	0.909308	1.041079	-0.086487	-0.087809	0.970453	464.807	-0.088053	-0.972454	-0.997942	NaN
455	1.000000	1.052382	7.36951e+06	-54339.1	1005.82	-29743.9	0.000000	0.000000	7.053197	1.317014	NaN	0.000000	0.001567	0.001794	28.0793	0.815187	0.001924	423.76	29.5182	13.119	1.142398	1.051037	-0.076506	-0.077851	1.317014	423.76	-0.078837	-0.578751	-2.275615	NaN
455	1.000000	1.062398	7.36951e+06	-54339.1	1005.82	-29743.9	0.000000	0.000000	7.063217	1.416306	NaN	0.000000	0.001548	0.001762	28.0794	0.953187	0.001875	508.456	24.6549	-163.554	1.466216	1.061127	-0.066490	-0.067762	1.416306	508.456	-0.068580	-0.312355	-4.534281	NaN
455	1.000000	1.072405	7.36951e+06	-54339.1	1005.82	-29743.9	0.000000	0.000000	7.073222	1.365366	NaN	0.000000	0.001555	0.001762	28.0792	0.940085	0.001989	472.702	30.5884	11.1049	1.341516	1.071033	-0.056483	-0.057855	1.365366	472.702	-0.058649	-0.164658	-8.292159	NaN
455	1.000000	1.082401	7.36951e+06	-54339.1	1005.82	-29743.9	0.000000	0.000000	7.083221	1.446570	NaN	0.000000	0.001537	0.001726	28.0792	1.110166	0.001964	565.376	26.8586	-166.855	1.380795	1.081160	-0.046487	-0.047729	1.446570	565.376	-0.048406	-0.081642	-17.7185	NaN
455	1.000000	1.092408	7.36951e+06	-54339.1	1005.82	-29743.9	0.000000	0.000000	7.093238	1.669776	NaN	0.000000	0.001588	0.001765	28.0792	1.245609	0.002116	588.578	32.1553	12.0308	1.598978	1.091080	-0.036480	-0.037808	1.669776	588.578	-0.038608	-0.041038	-40.6883	NaN
455	1.000000	1.102398	7.36951e+06	-54339.1	1005.82	-29743.9	0.000000	0.000000	7.103274	2.793835	NaN	0.000000	0.001581	0.001786	28.0795	2.872415	0.001883	1525.09	24.0956	-168.497	2.270837	1.101066	-0.026490	-0.027822	2.793835	1525.09	-0.027864	-0.020104	-138.968	NaN
455	2.000000	1.109535	7.36951e+06	-54339.1	1005.82	-29743.9	0.000000	0.000000	7.110668	9.054942	NaN	0.000000	0.001624	0.001770	28.0793	9.866072	0.001676	5887.06	11.5718	4.594796	8.607641	1.109133	-0.019353	-0.019755	9.054942	5887.06	-0.020507	-0.012939	-699.809	NaN
455	2.000000	1.111991	7.36951e+06	-54339.1	1005.82	-29743.9	0.000000	0.000000	7.113249	12.0919	NaN	0.000000	0.001629	0.001747	28.0794	13.2141	0.001822	7253.52	9.791664	-174.62	11.5724	1.111685	-0.016897	-0.017203	12.0919	7253.52	-0.018147	-0.011261	-1073.78	NaN
455	2.000000	1.114520	7.36951e+06	-54339.1	1005.82	-29743.9	0.000000	0.000000	7.115952	16.3102	NaN	0.000000	0.001642	0.001722	28.0793	15.8733	0.001736	9141.16	9.007046	3.062450	16.4822	1.114162	-0.014368	-0.014726	16.3102	9141.16	-0.015706	-0.009703	-1680.98	NaN
455	2.000000	1.116943	7.36951e+06	-54339.1	1005.82	-29743.9	0.000000	0.000000	7.118536	20.224	NaN	0.000000	0.001655	0.001788	28.0794	18.4401	0.001717	10737	5.366807	-175.095	19.5404	1.116653	-0.011945	-0.012235	20.224	10737	-0.013358	-0.008309	-2433.88	NaN
455	2.000000	1.119431	7.36951e+06	-54339.1	1005.82	-29743.9	0.000000	0.000000	7.121194	24.355	NaN	0.000000	0.001629	0.001781	28.0794	21.1349	0.001673	12635.4	6.981168	0.812397	22.6115	1.119112	-0.009457	-0.009776	24.355	12635.4	-0.010903	-0.006903	-3528.34	NaN
455	2.000000	1.121908	7.36951e+06	-54339.1	1005.82	-29743.9	0.000000	0.000000	7.123919	30.3972	NaN	0.000000	0.001639	0.001784	28.0793	23.8679	0.001701	14033.4	5.820018	-178.413	29.3709	1.121683	-0.006980	-0.007205	30.3972	14033.4	-0.008605	-0.005584	-5443.29	NaN
455	2.000000	1.124439	7.36951e+06	-54339.1	1005.82	-29743.9	0.000000	0.000000	7.126747	37.6278	NaN	0.000000	0.001610	0.001752	28.0794	26.572	0.001762	15080.6	8.762386	-1.457324	36.0119	1.124028	-0.004450	-0.004860	37.6278	15080.6	-0.006321	-0.004232	-8891.83	NaN
455	2.000000	1.126915	7.36951e+06	-54339.1	1005.82	-29743.9	0.000000	0.000000	7.129455	43.2637	NaN	0.000000	0.001618	0.001743	28.0792	29.5142	0.001769	16683.5	7.788811	177.475	42.1349	1.126528	-0.001973	-0.002360	43.2637	16683.5	-0.003918	-0.002726	-15871.7	NaN
455	2.000000	1.129387	7.36951e+06	-54339.1	1005.82	-29743.9	0.000000	0.000000	7.132111	47.7288	NaN	0.000000	0.001621	0.001770	28.0808	31.8693	0.001733	18386.1	6.566716	-2.245118	45.2269	1.129028	0.000499	0.000140	47.7288	18386.1	-0.001448	-0.001053	-45325.4	NaN
455	2.000000	1.131881	7.36951e+06	-54339.1	1005.82	-29743.9	0.000000	0.000000	7.134973	56.6736	NaN	0.000000	0.001622	0.001758	28.0807	34.8586	0.001792	19448.6	4.481906	-179.811	54.8784	1.131598	0.002993	0.002710	56.6736	19448.6	0.000807	0.000613	92476.5	717774
455	2.000000	1.134447	7.36951e+06	-54339.1	1005.82	-29743.9	0.000000	0.000000	7.137927	66.1031	NaN	0.000000	0.001632	0.001759	28.0811	37.6464	0.001868	20154.7	6.517816	-1.081691	66.2137	1.133992	0.005559	0.005104	66.1031	20154.7	0.003099	0.002464	26832.4	370995
455	2.000000	1.136890	7.36951e+06	-54339.1	1005.82	-29743.9	0.000000	0.000000	7.140696	74.0234	NaN	0.000000	0.001604	0.001766	28.0808	39.3878	0.001818	21668	6.905292	176.446	71.7259	1.136548	0.008002	0.007660	74.0234	21668	0.005440	0.004538	16311.3	293868
455	2.000000	1.139391	7.36951e+06	-54339.1	1005.82	-29743.9	0.000000	0.000000	7.143556	82.7413	NaN	0.000000	0.001551	0.001770	28.081	42.6514	0.001835	23244.8	6.680922	-3.400818	81.3709	1.138926	0.010503	0.010038	82.7413	23244.8	0.007833	0.006871	12041.2	256197
455	2.000000	1.141914	7.36951e+06	-54339.1	1005.82	-29743.9	0.000000	0.000000	7.146548	94.1709	NaN	0.000000	0.001540	0.001788	28.0811	44.9085	0.001829	24555.3	6.360524	175.925	94.3357	1.141505	0.013025	0.012617	94.1709	24555.3	0.010149	0.009348	10074.4	232043
455	2.000000	1.144397	7.36951e+06	-54339.1	1005.82	-29743.9	0.000000	0.000000	7.149434	103.949	NaN	0.000000	0.001545	0.001756	28.0812	46.4194	0.001760	26370.1	7.941243	-6.271938	100.958	1.144039	0.015509	0.015151	103.949	26370.1	0.012552	0.012158	8549.53	218497
455	2.000000	1.146839	7.36951e+06	-54339.1	1005.82	-29743.9	0.000000	0.000000	7.152133	110.2	NaN	0.000000	0.001516	0.001756	28.081	49.1906	0.001742	28233.6	4.794756	175.598	108.191	1.146608	0.017951	0.017720	110.2	28233.6	0.015023	0.015317	7194.8	208429
455	2.000000	1.149349	7.36951e+06	-54339.1	1005.82	-29743.9	0.000000	0.000000	7.155278	125.646	NaN	0.000000	0.001535	0.001752	28.0809	51.2596	0.001703	30106.1	4.950634	-4.902325	122.053	1.148967	0.020461	0.020078	125.646	30106.1	0.017331	0.018520	6784.34	202119
455	2.000000	1.151928	7.36951e+06	-54339.1	1005.82	-29743.9	0.000000	0.000000	7.158305	136.539	NaN	0.000000	0.001540	0.001762	28.0812	55.0478	0.001712	32153.4	6.212526	173.764	137.555	1.151587	0.023040	0.022699	136.539	32153.4	0.019855	0.022315	6118.67	196653
455	2.000000	1.154398	7.36951e+06	-54339.1	1005.82	-29743.9	0.000000	0.000000	7.161407	151.893	NaN	0.000000	0.001579	0.001739	28.0805	57.289	0.001810	31643	5.293700	-4.976198	148.379	1.153989	0.025510	0.025101	151.893	31643	0.021909	0.025632	5925.9	180576
455	2.000000	1.156781	7.36951e+06	-54339.1	1005.82	-29743.9	0.000000	0.000000	7.164352	165.57	NaN	0.000000	0.001570	0.001733	28.081	58.896	0.001744	33778.2	3.139331	176.635	161.122	1.156457	0.027892	0.027569	165.57	33778.2	0.024216	0.029605	5592.66	179361
455	2.000000	1.159289	7.36951e+06	-54339.1	1005.82	-29743.9	0.000000	0.000000	7.167502	181.151	NaN	0.000000	0.001587	0.001768	28.0808	62.3881	0.001697	36765.5	5.739622	-7.339030	176.573	1.158990	0.030401	0.030102	181.151	36765.5	0.026706	0.034192	5298.04	181656
455	2.000000	1.161884	7.36951e+06	-54339.1	1005.82	-29743.9	0.000000	0.000000	7.170660	194.868	NaN	0.000000	0.001516	0.001749	28.0806	65.9864	0.001803	36603.9	7.136444	171.361	196.979	1.161500	0.032996	0.032611	194.868	36603.9	0.029003	0.038702	5035.04	169993
455	2.000000	1.164323	7.36951e+06	-54339.1	1005.82	-29743.9	0.000000	0.000000	7.173755	210.818	NaN	0.000000	0.001524	0.001756	28.0797	67.1897	0.001768	38010	8.166181	-9.736729	206.412	1.163968	0.035434	0.035079	210.818	38010	0.031275	0.043427	4854.52	166644
455	2.000000	1.166743	7.36951e+06	-54339.1	1005.82	-29743.9	0.000000	0.000000	7.176952	229.693	NaN	0.000000	0.001535	0.001735	28.0796	68.2346	0.001707	39969.8	1.419797	176.583	223.913	1.166453	0.037855	0.037565	229.693	39969.8	0.033545	0.048412	4744.51	165969
455	2.000000	1.169286	7.36951e+06	-54339.1	1005.82	-29743.9	0.000000	0.000000	7.180112	244.7	NaN	0.000000	0.001646	0.001737	28.0799	72.2171	0.001867	38690.2	3.974098	-5.628739	239.411	1.169032	0.040398	0.040144	244.7	38690.2	0.035654	0.053280	4592.72	153141
455	2.000000	1.171776	7.36951e+06	-54339.1	1005.82	-29743.9	0.000000	0.000000	7.183210	259.486	NaN	0.000000	0.001562	0.001738	28.0797	74.5297	0.001776	41969.3	4.725963	172.55	255.149	1.171583	0.042888	0.042694	259.486	41969.3	0.038251	0.059586	4354.85	157085
455	2.000000	1.174338	7.36951e+06	-54339.1	1005.82	-29743.9	0.000000	0.000000	7.186429	275.446	NaN	0.000000	0.001556	0.001742	28.0799	76.6353	0.001764	43445.7	2.998888	-5.494374	270.855	1.173989	0.045450	0.045101	275.446	43445.7	0.040695	0.065836	4183.8	154699
455	2.000000	1.176812	7.36951e+06	-54339.1	1005.82	-29743.9	0.000000	0.000000	7.189764	296.373	NaN	0.000000	0.001553	0.001735	28.0795	79.6719	0.001886	42233.1	4.213684	173.145	293.718	1.176507	0.047924	0.047619	296.373	42233.1	0.042661	0.071085	4169.26	144723
455	2.000000	1.179258	7.36951e+06	-54339.1	1005.82	-29743.9	0.000000	0.000000	7.193129	318.728	NaN	0.000000	0.001535	0.001765	28.0803	81.8487	0.001763	46431.9	4.652895	-8.034944	311.712	1.178887	0.050369	0.049998	318.728	46431.9	0.045221	0.078216	4074.95	151684
455	2.000000	1.181788	7.36951e+06	-54339.1	1005.82	-29743.9	0.000000	0.000000	7.196559	340.61	NaN	0.000000	0.001574	0.001753	28.0798	85.9975	0.001825	47121	7.605862	168.993	336.358	1.181522	0.052900	0.052634	340.61	47121	0.047478	0.084779	4017.64	147858
455	2.000000	1.184284	7.36951e+06	-54339.1	1005.82	-29743.9	0.000000	0.000000	7.199935	361.987	NaN	0.000000	0.001557	0.001759	28.08	86.2552	0.001756	49111.3	3.554333	-6.697408	354.837	1.183958	0.055396	0.055070	361.987	49111.3	0.049868	0.092005	3934.42	147927
455	2.000000	1.186740	7.36951e+06	-54339.1	1005.82	-29743.9	0.000000	0.000000	7.203310	384.316	NaN	0.000000	0.001595	0.001763	28.0798	88.5479	0.001629	54364.5	2.978288	172.452	379.258	1.186486	0.057852	0.057598	384.316	54364.5	0.052550	0.100459	3825.61	156709
455	2.000000	1.189278	7.36951e+06	-54339.1	1005.82	-29743.9	0.000000	0.000000	7.206443	398.811	NaN	0.000000	0.001505	0.001751	28.0802	92.524	0.001747	52968.8	4.957427	-9.033627	393.456	1.188945	0.060389	0.060057	398.811	52968.8	0.054743	0.107634	3705.25	147509
455	2.000000	1.191739	7.36951e+06	-54339.1	1005.82	-29743.9	0.000000	0.000000	7.209861	422.051	NaN	0.000000	0.001496	0.001739	28.08	95.0298	0.001821	52192.9	2.698873	173.618	416.843	1.191423	0.062851	0.062535	422.051	52192.9	0.056786	0.114537	3684.86	140901
455	2.000000	1.194330	7.36951e+06	-54339.1	1005.82	-29743.9	0.000000	0.000000	7.213418	445.552	NaN	0.000000	0.001551	0.001737	28.0803	96.3155	0.001678	57414.5	5.423923	-9.505799	441.473	1.193892	0.065442	0.065003	445.552	57414.5	0.059622	0.124456	3580	148692
455	2.000000	1.196837	7.36951e+06	-54339.1	1005.82	-29743.9	0.000000	0.000000	7.216679	463.881	NaN	0.000000	0.001499	0.001765	28.0812	99.1514	0.001828	54239.8	5.503226	170.422	462.984	1.196449	0.067949	0.067561	463.881	54239.8	0.061534	0.131367	3531.17	136725
455	2.000000	1.199287	7.36951e+06	-54339.1	1005.82	-29743.9	0.000000	0.000000	7.220019	485.514	NaN	0.000000	0.001525	0.001773	28.0813	101.63	0.001832	55467.4	7.645955	-12.0728	482.067	1.198851	0.070399	0.069963	485.514	55467.4	0.063834	0.139914	3470.09	135482
455	2.000000	1.201720	7.36951e+06	-54339.1	1005.82	-29743.9	0.000000	0.000000	7.223197	503.616	NaN	0.000000	0.001531	0.001747	28.0809	103.291	0.001795	57541	4.485296	171.045	497.99	1.201490	0.072832	0.072602	503.616	57541	0.066268	0.149238	3374.59	136085
455	2.000000	1.204304	7.36951e+06	-54339.1	1005.82	-29743.9	0.000000	0.000000	7.226647	524.685	NaN	0.000000	0.001540	0.001766	28.081	104.836	0.001793	58467.2	3.918928	-8.533899	520.347	1.204024	0.075416	0.075135	524.685	58467.2	0.068685	0.158780	3304.47	134056
455	2.000000	1.206798	7.36951e+06	-54339.1	1005.82	-29743.9	0.000000	0.000000	7.230170	549.707	NaN	0.000000	0.001517	0.001771	28.0811	107.777	0.001727	62395.2	8.304370	166.165	548.675	1.206492	0.077909	0.077604	549.707	62395.2	0.071302	0.169424	3244.56	138496