File: remote_trans/data/nanoindenter/0828-1/data/Data_2025-08-06,11h17m57s/2025-07-22_16-23-58_1_1044.txt
2025-07-22, 16:23:58, 1
Index	Phase	Displacement	Time	Pos X	Pos Y	Pos Z	Rot A	Rot B	Piezo Z	Force A	Force B	Gripper	Voltage A	Voltage B	Temperature	Amplitude force	Amplitude pos	Stiffness	Phase shift	Phase excitation	Force A raw	Displacement raw	HMax	HMax raw	Real Force	Real Stiffness	Contact Depth	Area	Hardness	Reduced Mod.
[#]	[#]	[um]	[s]	[um]	[um]	[um]	[m°]	[m°]	[um]	[uN]	[uN]	[V]	[V]	[V]	[°C]	[uN]	[um]	[N/m]	[°]	[°]	[uN]	[um]	[um]	[um]	[uN]	[N/m]	[um]	[um^2]	[MPa]	[MPa]
1044	1.000000	0.002784	7.37526e+06	-52339.1	1055.82	-29749.4	0.000000	0.000000	6.002776	0.018554	NaN	0.000000	0.001591	0.001778	28.0823	0.017905	0.000947	18.9086	-47.906	-161.181	0.030978	0.001561	-0.944702	-0.945925	0.018554	18.9086	-0.945438	-4.173477E+12	-4.445670E-15	NaN
1044	1.000000	0.010768	7.37526e+06	-52339.1	1055.82	-29749.4	0.000000	0.000000	6.010757	-0.055527	NaN	0.000000	0.001571	0.001777	28.0821	0.107853	0.000982	109.823	102.678	-161.113	-0.041934	0.009461	-0.936718	-0.938025	-0.055527	109.823	-0.936339	-3.145875E+12	1.765081E-14	NaN
1044	1.000000	0.018741	7.37526e+06	-52339.1	1055.82	-29749.4	0.000000	0.000000	6.018733	0.002645	NaN	0.000000	0.001592	0.001759	28.0822	0.140487	0.001817	77.2994	-2.153103	-167.68	-0.023274	0.017423	-0.928745	-0.930063	0.002645	77.2994	-0.928770	-2.486575E+12	-1.063533E-15	NaN
1044	1.000000	0.026780	7.37526e+06	-52339.1	1055.82	-29749.4	0.000000	0.000000	6.026773	0.043046	NaN	0.000000	0.001577	0.001746	28.082	0.121524	0.001853	65.5686	-8.115529	-165.783	0.051093	0.025449	-0.920706	-0.922038	0.043046	65.5686	-0.921199	-1.965124E+12	-2.190520E-14	NaN
1044	1.000000	0.034750	7.37526e+06	-52339.1	1055.82	-29749.4	0.000000	0.000000	6.034739	-0.057820	NaN	0.000000	0.001544	0.001784	28.0819	0.081243	0.001956	41.5427	-144.237	-171.971	-0.039663	0.033427	-0.912736	-0.914059	-0.057820	41.5427	-0.911692	-1.462241E+12	3.954175E-14	NaN
1044	1.000000	0.042751	7.37526e+06	-52339.1	1055.82	-29749.4	0.000000	0.000000	6.042740	-0.060170	NaN	0.000000	0.001552	0.001733	28.0821	0.125800	0.002015	62.4363	-172.386	-166.522	-0.119088	0.041491	-0.904735	-0.905995	-0.060170	62.4363	-0.904013	-1.151546E+12	5.225112E-14	NaN
1044	1.000000	0.050768	7.37526e+06	-52339.1	1055.82	-29749.4	0.000000	0.000000	6.050760	0.013231	NaN	0.000000	0.001548	0.001789	28.0822	0.055245	0.001937	28.5236	93.6189	-164.237	0.034026	0.049386	-0.896718	-0.898100	0.013231	28.5236	-0.897066	-9.277343E+11	-1.426154E-14	NaN
1044	1.000000	0.058779	7.37526e+06	-52339.1	1055.82	-29749.4	0.000000	0.000000	6.058767	-0.072636	NaN	0.000000	0.001534	0.001812	28.0822	0.098868	0.002127	46.4775	-178.236	-168.179	0.043378	0.057472	-0.888707	-0.890014	-0.072636	46.4775	-0.887535	-6.895963E+11	1.053317E-13	NaN
1044	1.000000	0.066759	7.37526e+06	-52339.1	1055.82	-29749.4	0.000000	0.000000	6.066750	-0.019922	NaN	0.000000	0.001572	0.001784	28.0819	0.034417	0.001968	17.486	166.179	-165.911	0.053514	0.065461	-0.880727	-0.882025	-0.019922	17.486	-0.879872	-5.432262E+11	3.667273E-14	NaN
1044	1.000000	0.074737	7.37526e+06	-52339.1	1055.82	-29749.4	0.000000	0.000000	6.074727	-0.017204	NaN	0.000000	0.001545	0.001780	28.0821	0.073396	0.001880	39.0309	-40.2912	-165.279	-0.030387	0.073417	-0.872749	-0.874069	-0.017204	39.0309	-0.872419	-4.306908E+11	3.994591E-14	NaN
1044	1.000000	0.082752	7.37526e+06	-52339.1	1055.82	-29749.4	0.000000	0.000000	6.082741	-0.061166	NaN	0.000000	0.001574	0.001780	28.082	0.068124	0.002119	32.1524	-46.0733	-168.41	-0.059392	0.081456	-0.864734	-0.866030	-0.061166	32.1524	-0.863307	-3.242508E+11	1.886376E-13	NaN
1044	1.000000	0.090788	7.37526e+06	-52339.1	1055.82	-29749.4	0.000000	0.000000	6.090778	-0.045561	NaN	0.000000	0.001575	0.001772	28.0821	0.085375	0.002004	42.5971	139.653	-164.548	-0.000814	0.089447	-0.856698	-0.858039	-0.045561	42.5971	-0.855896	-2.573736E+11	1.770212E-13	NaN
1044	1.000000	0.098762	7.37526e+06	-52339.1	1055.82	-29749.4	0.000000	0.000000	6.098752	-0.024509	NaN	0.000000	0.001599	0.001754	28.0821	0.082158	0.001940	42.3506	-111.848	-163.713	-0.039138	0.097455	-0.848725	-0.850032	-0.024509	42.3506	-0.848291	-2.030432E+11	1.207093E-13	NaN
1044	1.000000	0.106785	7.37526e+06	-52339.1	1055.82	-29749.4	0.000000	0.000000	6.106777	0.017329	NaN	0.000000	0.001509	0.001782	28.0832	0.024660	0.002013	12.253	87.3036	-165.784	-0.042502	0.105409	-0.840701	-0.842077	0.017329	12.253	-0.841762	-1.656380E+11	-1.046225E-13	NaN
1044	1.000000	0.114763	7.37526e+06	-52339.1	1055.82	-29749.4	0.000000	0.000000	6.114753	-0.029293	NaN	0.000000	0.001539	0.001777	28.0831	0.133227	0.001995	66.7916	154.732	-163.498	-0.001548	0.113468	-0.832724	-0.834019	-0.029293	66.7916	-0.832395	-1.236632E+11	2.368776E-13	NaN
1044	1.000000	0.122770	7.37526e+06	-52339.1	1055.82	-29749.4	0.000000	0.000000	6.122764	0.077491	NaN	0.000000	0.001562	0.001787	28.0829	0.082612	0.002011	41.0871	-1.237919	-165.628	0.008587	0.121486	-0.824716	-0.826000	0.077491	41.0871	-0.826131	-1.017036E+11	-7.619293E-13	NaN
1044	1.000000	0.130767	7.37526e+06	-52339.1	1055.82	-29749.4	0.000000	0.000000	6.130755	-0.060851	NaN	0.000000	0.001529	0.001766	28.0833	0.117796	0.002091	56.3296	-118.849	-165.677	-0.060385	0.129465	-0.816720	-0.818021	-0.060851	56.3296	-0.815909	-7.391528E+10	8.232509E-13	NaN
1044	1.000000	0.138788	7.37526e+06	-52339.1	1055.82	-29749.4	0.000000	0.000000	6.138780	0.004548	NaN	0.000000	0.001570	0.001772	28.0834	0.119256	0.001948	61.2048	-90.3651	-164.119	-0.019652	0.137488	-0.808698	-0.809998	0.004548	61.2048	-0.808754	-5.911001E+10	-7.693561E-14	NaN
1044	1.000000	0.146805	7.37526e+06	-52339.1	1055.82	-29749.4	0.000000	0.000000	6.146795	-0.032525	NaN	0.000000	0.001548	0.001750	28.0831	0.046672	0.002094	22.2876	5.601339	-162.713	-0.057614	0.145498	-0.800681	-0.801988	-0.032525	22.2876	-0.799587	-4.438642E+10	7.327687E-13	NaN
1044	1.000000	0.154804	7.37526e+06	-52339.1	1055.82	-29749.4	0.000000	0.000000	6.154796	0.016990	NaN	0.000000	0.001579	0.001757	28.0831	0.066783	0.002050	32.5756	-161.25	-166.663	0.002101	0.153475	-0.792682	-0.794011	0.016990	32.5756	-0.793074	-3.620962E+10	-4.692113E-13	NaN
1044	1.000000	0.162821	7.37526e+06	-52339.1	1055.82	-29749.4	0.000000	0.000000	6.162811	-0.028130	NaN	0.000000	0.001583	0.001758	28.0832	0.078761	0.002076	37.9301	-29.4763	-166.118	0.016002	0.161495	-0.784665	-0.785991	-0.028130	37.9301	-0.784109	-2.735660E+10	1.028282E-12	NaN
1044	1.000000	0.170821	7.37526e+06	-52339.1	1055.82	-29749.4	0.000000	0.000000	6.170810	-0.054046	NaN	0.000000	0.001582	0.001746	28.0829	0.042877	0.002080	20.6117	-103.022	-163.819	-0.012593	0.169465	-0.776665	-0.778021	-0.054046	20.6117	-0.774699	-2.037909E+10	2.652020E-12	NaN
1044	1.000000	0.178805	7.37526e+06	-52339.1	1055.82	-29749.4	0.000000	0.000000	6.178796	-0.018857	NaN	0.000000	0.001573	0.001767	28.083	0.027615	0.002016	13.6955	-141.292	-168.768	-0.010582	0.177488	-0.768681	-0.769998	-0.018857	13.6955	-0.767648	-1.634296E+10	1.153840E-12	NaN
1044	1.000000	0.186815	7.37526e+06	-52339.1	1055.82	-29749.4	0.000000	0.000000	6.186808	0.031128	NaN	0.000000	0.001558	0.001770	28.083	0.203303	0.002015	100.878	-97.2675	-163.723	0.044130	0.185549	-0.760671	-0.761937	0.031128	100.878	-0.760902	-1.323046E+10	-2.352754E-12	NaN
1044	1.000000	0.194813	7.37526e+06	-52339.1	1055.82	-29749.4	0.000000	0.000000	6.194805	0.020439	NaN	0.000000	0.001571	0.001796	28.0833	0.043156	0.002023	21.3304	99.5857	-167.933	-0.062873	0.193509	-0.752673	-0.753978	0.020439	21.3304	-0.753392	-1.045651E+10	-1.954638E-12	NaN
1044	1.000000	0.202791	7.37526e+06	-52339.1	1055.82	-29749.4	0.000000	0.000000	6.202782	0.000206	NaN	0.000000	0.001591	0.001797	28.0831	0.092023	0.001936	47.521	140.575	-164.163	-0.056401	0.201499	-0.744695	-0.745987	0.000206	47.521	-0.744699	-7.962413E+9	-2.581989E-14	NaN
1044	1.000000	0.210837	7.37526e+06	-52339.1	1055.82	-29749.4	0.000000	0.000000	6.210829	0.013458	NaN	0.000000	0.001651	0.001772	28.0831	0.092088	0.001963	46.9035	10.1206	-167.921	0.009461	0.209508	-0.736649	-0.737978	0.013458	46.9035	-0.736864	-6.227909E+9	-2.160910E-12	NaN
1044	1.000000	0.218840	7.37526e+06	-52339.1	1055.82	-29749.4	0.000000	0.000000	6.218828	-0.072870	NaN	0.000000	0.001556	0.001756	28.0832	0.079698	0.002022	39.4132	21.3323	-165.259	-0.064217	0.217514	-0.728646	-0.729972	-0.072870	39.4132	-0.727259	-4.607356E+9	1.581609E-11	NaN
1044	1.000000	0.226808	7.37526e+06	-52339.1	1055.82	-29749.4	0.000000	0.000000	6.226798	-0.043834	NaN	0.000000	0.001541	0.001759	28.0829	0.052188	0.001978	26.3876	99.6813	-165.676	-0.103749	0.225491	-0.720678	-0.721995	-0.043834	26.3876	-0.719432	-3.603499E+9	1.216423E-11	NaN
1044	1.000000	0.234819	7.37526e+06	-52339.1	1055.82	-29749.4	0.000000	0.000000	6.234805	-0.128746	NaN	0.000000	0.001545	0.001778	28.0834	0.032050	0.001923	16.6636	151.704	-170.24	-0.044053	0.233545	-0.712667	-0.713942	-0.128746	16.6636	-0.706872	-2.428628E+9	5.301191E-11	NaN
1044	1.000000	0.242852	7.37526e+06	-52339.1	1055.82	-29749.4	0.000000	0.000000	6.242843	-0.000455	NaN	0.000000	0.001544	0.001774	28.0817	0.068679	0.001984	34.6203	85.0809	-166.76	-0.103149	0.241567	-0.704635	-0.705919	-0.000455	34.6203	-0.704625	-2.262972E+9	2.011103E-13	NaN
1044	1.000000	0.250828	7.37526e+06	-52339.1	1055.82	-29749.4	0.000000	0.000000	6.250819	-0.004728	NaN	0.000000	0.001594	0.001745	28.082	0.055155	0.002072	26.6157	99.5408	-167.716	0.032721	0.249535	-0.696658	-0.697951	-0.004728	26.6157	-0.696525	-1.754147E+9	2.695519E-12	NaN
1044	1.000000	0.258826	7.37526e+06	-52339.1	1055.82	-29749.4	0.000000	0.000000	6.258817	-0.013513	NaN	0.000000	0.001613	0.001774	28.0818	0.098046	0.001915	51.1967	-118.344	-166.128	0.056573	0.257536	-0.688660	-0.689950	-0.013513	51.1967	-0.688462	-1.361117E+9	9.927865E-12	NaN
1044	1.000000	0.266838	7.37526e+06	-52339.1	1055.82	-29749.4	0.000000	0.000000	6.266833	0.089356	NaN	0.000000	0.001588	0.001772	28.0829	0.072523	0.002014	36.0182	117.776	-167.491	0.035629	0.265503	-0.680648	-0.681984	0.089356	36.0182	-0.682509	-1.128541E+9	-7.917821E-11	NaN
1044	1.000000	0.274842	7.37526e+06	-52339.1	1055.82	-29749.4	0.000000	0.000000	6.274830	-0.071200	NaN	0.000000	0.001587	0.001743	28.082	0.036552	0.002088	17.5053	114.163	-164.573	-0.094212	0.273519	-0.672644	-0.673967	-0.071200	17.5053	-0.669594	-7.513320E+8	9.476539E-11	NaN
1044	1.000000	0.282852	7.37526e+06	-52339.1	1055.82	-29749.4	0.000000	0.000000	6.282842	-0.014599	NaN	0.000000	0.001576	0.001769	28.0819	0.089096	0.002073	42.9735	120.147	-163.19	-0.054687	0.281536	-0.664634	-0.665951	-0.014599	42.9735	-0.664380	-6.374548E+8	2.290152E-11	NaN
1044	1.000000	0.290869	7.37526e+06	-52339.1	1055.82	-29749.4	0.000000	0.000000	6.290860	0.003553	NaN	0.000000	0.001573	0.001738	28.0819	0.050287	0.001895	26.532	-155.124	-165.776	0.049522	0.289496	-0.656618	-0.657991	0.003553	26.532	-0.656718	-5.006179E+8	-7.097138E-12	NaN
1044	1.000000	0.298870	7.37526e+06	-52339.1	1055.82	-29749.4	0.000000	0.000000	6.298862	-0.005917	NaN	0.000000	0.001574	0.001746	28.0821	0.070788	0.001857	38.111	79.7311	-168.627	0.082112	0.297547	-0.648616	-0.649939	-0.005917	38.111	-0.648499	-3.862438E+8	1.531909E-11	NaN
1044	1.000000	0.306924	7.37526e+06	-52339.1	1055.82	-29749.4	0.000000	0.000000	6.306916	0.027503	NaN	0.000000	0.001542	0.001752	28.0821	0.048158	0.001957	24.6054	93.9591	-167.213	0.053805	0.305571	-0.640563	-0.641915	0.027503	24.6054	-0.641401	-3.086816E+8	-8.909854E-11	NaN
1044	1.000000	0.314884	7.37526e+06	-52339.1	1055.82	-29749.4	0.000000	0.000000	6.314874	-0.014509	NaN	0.000000	0.001524	0.001763	28.0819	0.036974	0.001996	18.5242	156.555	-169.072	-0.043878	0.313565	-0.632602	-0.633921	-0.014509	18.5242	-0.632015	-2.294528E+8	6.323375E-11	NaN
1044	1.000000	0.322864	7.37526e+06	-52339.1	1055.82	-29749.4	0.000000	0.000000	6.322855	-0.004270	NaN	0.000000	0.001535	0.001782	28.0817	0.143531	0.002005	71.5813	154.067	-168.42	0.025960	0.321553	-0.624622	-0.625933	-0.004270	71.5813	-0.624578	-1.813603E+8	2.354358E-11	NaN
1044	1.000000	0.330861	7.37526e+06	-52339.1	1055.82	-29749.4	0.000000	0.000000	6.330851	-0.017110	NaN	0.000000	0.001533	0.001794	28.0819	0.079651	0.002069	38.5023	113.613	-166.257	-0.046548	0.329619	-0.616626	-0.617868	-0.017110	38.5023	-0.616292	-1.395275E+8	1.226276E-10	NaN
1044	1.000000	0.338857	7.37526e+06	-52339.1	1055.82	-29749.4	0.000000	0.000000	6.338847	-0.017637	NaN	0.000000	0.001519	0.001798	28.082	0.126019	0.001987	63.4222	-49.3249	-168.272	0.043047	0.337573	-0.608630	-0.609913	-0.017637	63.4222	-0.608421	-1.087397E+8	1.621925E-10	NaN
1044	1.000000	0.346878	7.37526e+06	-52339.1	1055.82	-29749.4	0.000000	0.000000	6.346870	0.030680	NaN	0.000000	0.001524	0.001794	28.0819	0.078201	0.002027	38.5845	31.2409	-166.801	-0.033956	0.345566	-0.600609	-0.601920	0.030680	38.5845	-0.601205	-8.650761E+7	-3.546486E-10	NaN
1044	1.000000	0.354913	7.37526e+06	-52339.1	1055.82	-29749.4	0.000000	0.000000	6.354905	0.010190	NaN	0.000000	0.001538	0.001778	28.0821	0.007959	0.002020	3.940168	146.35	-166.439	-0.030091	0.353571	-0.592573	-0.593916	0.010190	3.940168	-0.594513	-6.996253E+7	-1.456550E-10	NaN
1044	1.000000	0.362890	7.37526e+06	-52339.1	1055.82	-29749.4	0.000000	0.000000	6.362880	-0.032067	NaN	0.000000	0.001569	0.001793	28.0821	0.012501	0.001833	6.821106	31.9811	-169.992	-0.076568	0.361566	-0.584596	-0.585921	-0.032067	6.821106	-0.581070	-4.565575E+7	7.023734E-10	NaN
1044	1.000000	0.370885	7.37526e+06	-52339.1	1055.82	-29749.4	0.000000	0.000000	6.370874	-0.050599	NaN	0.000000	0.001541	0.001785	28.0818	0.061115	0.001909	32.0193	163.677	-165.06	-0.079400	0.369567	-0.576601	-0.577920	-0.050599	32.0193	-0.575416	-3.814571E+7	1.326467E-9	NaN
1044	1.000000	0.378883	7.37526e+06	-52339.1	1055.82	-29749.4	0.000000	0.000000	6.378874	-0.018318	NaN	0.000000	0.001601	0.001782	28.0833	0.078141	0.002086	37.4524	-31.6655	-164.283	0.021546	0.377581	-0.568603	-0.569905	-0.018318	37.4524	-0.568236	-3.035677E+7	6.034218E-10	NaN
1044	1.000000	0.386892	7.37526e+06	-52339.1	1055.82	-29749.4	0.000000	0.000000	6.386881	-0.042491	NaN	0.000000	0.001609	0.001792	28.0828	0.141301	0.002003	70.5619	73.1482	-166.693	-0.058975	0.385614	-0.560595	-0.561873	-0.042491	70.5619	-0.560143	-2.346151E+7	1.811089E-9	NaN
1044	1.000000	0.394920	7.37526e+06	-52339.1	1055.82	-29749.4	0.000000	0.000000	6.394912	0.016862	NaN	0.000000	0.001556	0.001780	28.0832	0.043044	0.001959	21.9768	156.143	-163.206	0.052592	0.393613	-0.552567	-0.553873	0.016862	21.9768	-0.553142	-1.877013E+7	-8.983195E-10	NaN
1044	1.000000	0.402871	7.37526e+06	-52339.1	1055.82	-29749.4	0.000000	0.000000	6.402862	-0.012977	NaN	0.000000	0.001542	0.001762	28.0831	0.018577	0.001993	9.319612	-144.962	-166.804	-0.061015	0.401594	-0.544615	-0.545893	-0.012977	9.319612	-0.543571	-1.383145E+7	9.382208E-10	NaN
1044	1.000000	0.410916	7.37526e+06	-52339.1	1055.82	-29749.4	0.000000	0.000000	6.410907	-0.013869	NaN	0.000000	0.001570	0.001801	28.0827	0.053758	0.001939	27.7296	138.023	-164.646	-0.045723	0.409620	-0.536570	-0.537866	-0.013869	27.7296	-0.536195	-1.092879E+7	1.269048E-9	NaN
1044	1.000000	0.418879	7.37526e+06	-52339.1	1055.82	-29749.4	0.000000	0.000000	6.418871	0.012947	NaN	0.000000	0.001554	0.001784	28.0831	0.092575	0.001988	46.5694	-65.5145	-166.964	-0.028885	0.417577	-0.528607	-0.529909	0.012947	46.5694	-0.528815	-8.63217e+06	-1.499809E-9	NaN
1044	1.000000	0.426932	7.37526e+06	-52339.1	1055.82	-29749.4	0.000000	0.000000	6.426924	0.020568	NaN	0.000000	0.001535	0.001805	28.0832	0.029574	0.002030	14.566	99.9422	-167.16	0.097645	0.425584	-0.520554	-0.521903	0.020568	14.566	-0.521613	-6.8554e+06	-3.000258E-9	NaN
1044	1.000000	0.434928	7.37526e+06	-52339.1	1055.82	-29749.4	0.000000	0.000000	6.434917	-0.046953	NaN	0.000000	0.001537	0.001802	28.0833	0.152367	0.001931	78.9056	168.298	-166.108	-0.020912	0.433579	-0.512558	-0.513908	-0.046953	78.9056	-0.512112	-5.05626e+06	9.286131E-9	NaN
1044	1.000000	0.442933	7.37526e+06	-52339.1	1055.82	-29749.4	0.000000	0.000000	6.442921	-0.068195	NaN	0.000000	0.001562	0.001747	28.0833	0.134197	0.002101	63.8827	-57.6321	-168.584	-0.044134	0.441584	-0.504553	-0.505902	-0.068195	63.8827	-0.503753	-3.86684e+06	1.763585E-8	NaN
1044	1.000000	0.450915	7.37526e+06	-52339.1	1055.82	-29749.4	0.000000	0.000000	6.450906	-0.019215	NaN	0.000000	0.001585	0.001756	28.0833	0.055684	0.002083	26.7261	-89.1266	-167.259	0.102073	0.449618	-0.496571	-0.497869	-0.019215	26.7261	-0.496032	-3.01746e+06	6.367931E-9	NaN
1044	1.000000	0.458936	7.37526e+06	-52339.1	1055.82	-29749.4	0.000000	0.000000	6.458929	0.040829	NaN	0.000000	0.001543	0.001755	28.0834	0.066754	0.001990	33.5423	-48.3659	-167.185	-0.065895	0.457589	-0.488550	-0.489897	0.040829	33.5423	-0.489463	-2.44283e+06	-1.671379E-8	NaN
1044	1.000000	0.466935	7.37526e+06	-52339.1	1055.82	-29749.4	0.000000	0.000000	6.466925	-0.032311	NaN	0.000000	0.001547	0.001768	28.0831	0.030090	0.001966	15.3074	-7.728626	-166.612	-0.136787	0.465654	-0.480551	-0.481832	-0.032311	15.3074	-0.478968	-1.74211e+06	1.854691E-8	NaN
1044	1.000000	0.474931	7.37526e+06	-52339.1	1055.82	-29749.4	0.000000	0.000000	6.474921	-0.034536	NaN	0.000000	0.001540	0.001793	28.0833	0.073313	0.001898	38.6238	-163.34	-168.397	-0.036285	0.473589	-0.472555	-0.473898	-0.034536	38.6238	-0.471884	-1.38622e+06	2.491417E-8	NaN
1044	1.000000	0.482916	7.37526e+06	-52339.1	1055.82	-29749.4	0.000000	0.000000	6.482904	-0.073679	NaN	0.000000	0.001559	0.001777	28.0831	0.034312	0.002035	16.8632	-170.334	-167.373	0.026543	0.481619	-0.464570	-0.465867	-0.073679	16.8632	-0.461293	-984444	7.484280E-8	NaN
1044	1.000000	0.490950	7.37526e+06	-52339.1	1055.82	-29749.4	0.000000	0.000000	6.490941	-0.010217	NaN	0.000000	0.001522	0.001721	28.0833	0.079881	0.002063	38.7252	18.8184	-164.4	-0.003324	0.489664	-0.456536	-0.457822	-0.010217	38.7252	-0.456338	-838573	1.218374E-8	NaN
1044	1.000000	0.498954	7.37526e+06	-52339.1	1055.82	-29749.4	0.000000	0.000000	6.498941	-0.107693	NaN	0.000000	0.001547	0.001766	28.0832	0.026003	0.001862	13.9678	5.180586	-168.321	-0.016635	0.497619	-0.448532	-0.449867	-0.107693	13.9678	-0.442750	-539711	1.995375E-7	NaN
1044	1.000000	0.506959	7.37526e+06	-52339.1	1055.82	-29749.4	0.000000	0.000000	6.506951	0.008306	NaN	0.000000	0.001569	0.001791	28.0832	0.106854	0.002139	49.9523	80.5415	-164.584	-0.034810	0.505664	-0.440527	-0.441822	0.008306	49.9523	-0.440652	-504152	-1.647560E-8	NaN
1044	1.000000	0.514947	7.37526e+06	-52339.1	1055.82	-29749.4	0.000000	0.000000	6.514939	0.015716	NaN	0.000000	0.001537	0.001763	28.0822	0.085784	0.001923	44.6	-177.583	-170.874	0.041918	0.513672	-0.432539	-0.433814	0.015716	44.6	-0.432803	-390573	-4.023908E-8	NaN
1044	1.000000	0.522955	7.37526e+06	-52339.1	1055.82	-29749.4	0.000000	0.000000	6.522946	0.011270	NaN	0.000000	0.001535	0.001774	28.0821	0.096056	0.002039	47.1135	-177.68	-168.277	-0.006731	0.521688	-0.424532	-0.425798	0.011270	47.1135	-0.424711	-300047	-3.755928E-8	NaN
1044	1.000000	0.530992	7.37526e+06	-52339.1	1055.82	-29749.4	0.000000	0.000000	6.530982	-0.033960	NaN	0.000000	0.001517	0.001768	28.082	0.085813	0.002052	41.814	-10.599	-166.125	-0.040448	0.529625	-0.416494	-0.417861	-0.033960	41.814	-0.415885	-224919	1.509869E-7	NaN
1044	1.000000	0.538952	7.37526e+06	-52339.1	1055.82	-29749.4	0.000000	0.000000	6.538943	-0.008262	NaN	0.000000	0.001537	0.001791	28.082	0.027068	0.001977	13.6937	-148.585	-169.286	0.137316	0.537641	-0.408534	-0.409846	-0.008262	13.6937	-0.408082	-174226	4.742083E-8	NaN
1044	1.000000	0.546974	7.37526e+06	-52339.1	1055.82	-29749.4	0.000000	0.000000	6.546963	-0.063688	NaN	0.000000	0.001557	0.001781	28.082	0.073080	0.001908	38.2973	-1.901463	-166.003	-0.069577	0.545637	-0.400512	-0.401849	-0.063688	38.2973	-0.399265	-130469	4.881455E-7	NaN
1044	1.000000	0.554974	7.37526e+06	-52339.1	1055.82	-29749.4	0.000000	0.000000	6.554962	-0.079170	NaN	0.000000	0.001512	0.001784	28.082	0.037061	0.002042	18.1529	-147.442	-168.279	-0.152378	0.553620	-0.392512	-0.393866	-0.079170	18.1529	-0.389241	-93822.9	8.438264E-7	NaN
1044	1.000000	0.562990	7.37526e+06	-52339.1	1055.82	-29749.4	0.000000	0.000000	6.562981	0.004204	NaN	0.000000	0.001516	0.001819	28.0819	0.066648	0.002009	33.1752	-173.022	-167.04	-0.046847	0.561676	-0.384496	-0.385810	0.004204	33.1752	-0.384591	-80487.9	-5.222686E-8	NaN
1044	1.000000	0.570988	7.37526e+06	-52339.1	1055.82	-29749.4	0.000000	0.000000	6.570979	-0.002618	NaN	0.000000	0.001537	0.001811	28.0819	0.026428	0.001937	13.6462	100.232	-167.366	0.059572	0.569621	-0.376498	-0.377865	-0.002618	13.6462	-0.376354	-61310.6	4.269991E-8	NaN
1044	1.000000	0.579009	7.37526e+06	-52339.1	1055.82	-29749.4	0.000000	0.000000	6.578997	-0.086687	NaN	0.000000	0.001505	0.001788	28.0819	0.071623	0.002087	34.3168	-52.6542	-166.448	-0.054146	0.577654	-0.368477	-0.369832	-0.086687	34.3168	-0.366582	-44348.3	1.954692E-6	NaN
1044	1.000000	0.586946	7.37526e+06	-52339.1	1055.82	-29749.4	0.000000	0.000000	6.586937	-0.016607	NaN	0.000000	0.001515	0.001780	28.0822	0.062011	0.001993	31.1089	-72.3679	-169.295	-0.044715	0.585664	-0.360540	-0.361822	-0.016607	31.1089	-0.360140	-35798.3	4.639111E-7	NaN
1044	1.000000	0.594975	7.37526e+06	-52339.1	1055.82	-29749.4	0.000000	0.000000	6.594964	-0.040237	NaN	0.000000	0.001551	0.001753	28.082	0.080396	0.002038	39.4425	71.6824	-166.326	-0.078032	0.593690	-0.352511	-0.353796	-0.040237	39.4425	-0.351746	-27060.7	1.486898E-6	NaN
1044	1.000000	0.602985	7.37526e+06	-52339.1	1055.82	-29749.4	0.000000	0.000000	6.602972	-0.099033	NaN	0.000000	0.001527	0.001752	28.0819	0.068440	0.002138	32.0101	-149.957	-163.789	-0.061238	0.601676	-0.344501	-0.345810	-0.099033	32.0101	-0.342181	-19648.6	5.040192E-6	NaN
1044	1.000000	0.611018	7.37526e+06	-52339.1	1055.82	-29749.4	0.000000	0.000000	6.611009	-0.013054	NaN	0.000000	0.001515	0.001786	28.0821	0.084315	0.001913	44.0765	-73.4103	-164.609	-0.055409	0.609688	-0.336468	-0.337798	-0.013054	44.0765	-0.336246	-16098.6	8.108761E-7	NaN
1044	1.000000	0.618989	7.37526e+06	-52339.1	1055.82	-29749.4	0.000000	0.000000	6.618981	0.010034	NaN	0.000000	0.001538	0.001748	28.082	0.109457	0.002011	54.437	-112.136	-166.509	0.039332	0.617691	-0.328497	-0.329795	0.010034	54.437	-0.328636	-12458.4	-8.053770E-7	NaN
1044	1.000000	0.626984	7.37526e+06	-52339.1	1055.82	-29749.4	0.000000	0.000000	6.626974	-0.024682	NaN	0.000000	0.001519	0.001753	28.0824	0.089403	0.001974	45.29	111.682	-166.668	-0.064587	0.625703	-0.320502	-0.321783	-0.024682	45.29	-0.320093	-9332.82	2.644616E-6	NaN
1044	1.000000	0.635000	7.37526e+06	-52339.1	1055.82	-29749.4	0.000000	0.000000	6.634990	-0.020779	NaN	0.000000	0.001542	0.001763	28.0819	0.061181	0.002050	29.8421	-10.3934	-161.776	0.012281	0.633671	-0.312486	-0.313815	-0.020779	29.8421	-0.311964	-7081.16	2.934395E-6	NaN
1044	1.000000	0.642987	7.37526e+06	-52339.1	1055.82	-29749.4	0.000000	0.000000	6.642979	0.028750	NaN	0.000000	0.001537	0.001768	28.0822	0.124206	0.002188	56.7553	76.8748	-166.526	0.031709	0.641673	-0.304500	-0.305814	0.028750	56.7553	-0.304880	-5561.18	-5.169843E-6	NaN
1044	1.000000	0.651006	7.37526e+06	-52339.1	1055.82	-29749.4	0.000000	0.000000	6.650995	-0.055833	NaN	0.000000	0.001518	0.001715	28.0831	0.080165	0.002132	37.5969	7.438444	-166.396	-0.039990	0.649687	-0.296480	-0.297799	-0.055833	37.5969	-0.295366	-4013.8	1.391029E-5	NaN
1044	1.000000	0.659026	7.37526e+06	-52339.1	1055.82	-29749.4	0.000000	0.000000	6.659016	-0.023980	NaN	0.000000	0.001529	0.001730	28.0832	0.036470	0.001951	18.6975	-140.651	-164.947	-0.010691	0.657700	-0.288460	-0.289786	-0.023980	18.6975	-0.287498	-3060.47	7.835514E-6	NaN
1044	1.000000	0.667043	7.37526e+06	-52339.1	1055.82	-29749.4	0.000000	0.000000	6.667034	-0.004703	NaN	0.000000	0.001502	0.001763	28.0835	0.042433	0.001844	23.0108	-87.548	-168.423	-0.020354	0.665724	-0.280443	-0.281762	-0.004703	23.0108	-0.280290	-2384.19	1.972624E-6	NaN
1044	1.000000	0.675060	7.37526e+06	-52339.1	1055.82	-29749.4	0.000000	0.000000	6.675051	-0.007643	NaN	0.000000	0.001534	0.001738	28.083	0.161445	0.001957	82.481	114.708	-164.759	0.005729	0.673718	-0.272427	-0.273768	-0.007643	82.481	-0.272357	-1808.59	4.226183E-6	NaN
1044	1.000000	0.683000	7.37526e+06	-52339.1	1055.82	-29749.4	0.000000	0.000000	6.682992	0.029288	NaN	0.000000	0.001510	0.001748	28.0834	0.103545	0.001906	54.3121	-156.756	-164.289	0.045235	0.681731	-0.264486	-0.265755	0.029288	54.3121	-0.264891	-1392.26	-2.103659E-5	NaN
1044	1.000000	0.691002	7.37526e+06	-52339.1	1055.82	-29749.4	0.000000	0.000000	6.690994	0.017182	NaN	0.000000	0.001518	0.001739	28.0831	0.019038	0.002022	9.415566	-85.542	-166.514	-0.115460	0.689695	-0.256484	-0.257792	0.017182	9.415566	-0.257853	-1086.37	-1.581613E-5	NaN
1044	1.000000	0.699010	7.37526e+06	-52339.1	1055.82	-29749.4	0.000000	0.000000	6.698998	-0.080596	NaN	0.000000	0.001548	0.001725	28.0832	0.018474	0.001958	9.436710	-74.8212	-166.573	-0.083903	0.697672	-0.248477	-0.249814	-0.080596	9.436710	-0.242071	-619.251	0.000130	NaN
1044	1.000000	0.707037	7.37526e+06	-52339.1	1055.82	-29749.4	0.000000	0.000000	6.707026	-0.043252	NaN	0.000000	0.001545	0.001754	28.0834	0.039386	0.002049	19.2234	95.4441	-167.605	-0.085193	0.705716	-0.240449	-0.241770	-0.043252	19.2234	-0.238762	-549.798	7.866824E-5	NaN
1044	1.000000	0.715025	7.37526e+06	-52339.1	1055.82	-29749.4	0.000000	0.000000	6.715013	-0.077207	NaN	0.000000	0.001554	0.001731	28.0831	0.103051	0.001950	52.8511	-20.1565	-170.766	-0.045126	0.713689	-0.232461	-0.233797	-0.077207	52.8511	-0.231365	-420.784	0.000183	NaN
1044	1.000000	0.723040	7.37526e+06	-52339.1	1055.82	-29749.4	0.000000	0.000000	6.723030	-0.034567	NaN	0.000000	0.001556	0.001777	28.0832	0.090502	0.002050	44.1486	107.541	-164.191	0.000488	0.721803	-0.224446	-0.225683	-0.034567	44.1486	-0.223858	-320.03	0.000108	NaN
1044	1.000000	0.731037	7.37526e+06	-52339.1	1055.82	-29749.4	0.000000	0.000000	6.731027	-0.046594	NaN	0.000000	0.001529	0.001763	28.0831	0.044736	0.002155	20.7593	79.9625	-162.876	-0.045999	0.729753	-0.216449	-0.217733	-0.046594	20.7593	-0.214765	-228.949	0.000204	NaN
1044	1.000000	0.739071	7.37526e+06	-52339.1	1055.82	-29749.4	0.000000	0.000000	6.739062	-0.018578	NaN	0.000000	0.001574	0.001742	28.0834	0.118899	0.001960	60.6705	-139.95	-167.838	-0.047609	0.737721	-0.208415	-0.209765	-0.018578	60.6705	-0.208185	-179.221	0.000104	NaN
1044	1.000000	0.747051	7.37526e+06	-52339.1	1055.82	-29749.4	0.000000	0.000000	6.747041	-0.026907	NaN	0.000000	0.001572	0.001752	28.0833	0.071095	0.001995	35.6297	-98.3855	-164.437	-0.000315	0.745744	-0.200435	-0.201742	-0.026907	35.6297	-0.199868	-131.08	0.000205	NaN
1044	1.000000	0.755050	7.37526e+06	-52339.1	1055.82	-29749.4	0.000000	0.000000	6.755039	-0.054229	NaN	0.000000	0.001548	0.001764	28.083	0.030090	0.002125	14.157	42.4093	-169.714	0.009963	0.753794	-0.192436	-0.193692	-0.054229	14.157	-0.189563	-88.4568	0.000613	NaN
1044	1.000000	0.763055	7.37526e+06	-52339.1	1055.82	-29749.4	0.000000	0.000000	6.763044	-0.046894	NaN	0.000000	0.001545	0.001770	28.0831	0.057698	0.001997	28.8878	32.1368	-167.986	-0.042906	0.761691	-0.184431	-0.185796	-0.046894	28.8878	-0.183214	-69.1795	0.000678	NaN
1044	1.000000	0.771049	7.37526e+06	-52339.1	1055.82	-29749.4	0.000000	0.000000	6.771038	-0.060751	NaN	0.000000	0.001527	0.001793	28.083	0.093465	0.001928	48.475	-80.7117	-162.078	0.026680	0.769697	-0.176437	-0.177789	-0.060751	48.475	-0.175497	-51.1113	0.001189	NaN
1044	1.000000	0.779074	7.37526e+06	-52339.1	1055.82	-29749.4	0.000000	0.000000	6.779063	-0.046204	NaN	0.000000	0.001566	0.001827	28.0831	0.080762	0.002019	40.0008	91.9583	-168.27	-0.060174	0.777737	-0.168412	-0.169749	-0.046204	40.0008	-0.167546	-37.2292	0.001241	NaN
1044	1.000000	0.787050	7.37526e+06	-52339.1	1055.82	-29749.4	0.000000	0.000000	6.787040	-0.036576	NaN	0.000000	0.001578	0.001795	28.0819	0.030512	0.002040	14.9593	166.704	-165.531	-0.092030	0.785761	-0.160436	-0.161725	-0.036576	14.9593	-0.158602	-25.8881	0.001413	NaN
1044	1.000000	0.795081	7.37526e+06	-52339.1	1055.82	-29749.4	0.000000	0.000000	6.795072	0.003152	NaN	0.000000	0.001565	0.001770	28.0815	0.027413	0.001914	14.3209	73.7548	-165.858	0.035756	0.793753	-0.152405	-0.153733	0.003152	14.3209	-0.152570	-20.1706	-0.000156	NaN
1044	1.000000	0.803059	7.37526e+06	-52339.1	1055.82	-29749.4	0.000000	0.000000	6.803050	0.004857	NaN	0.000000	0.001591	0.001767	28.0819	0.077544	0.002043	37.9523	-107.609	-165.933	-0.074397	0.801754	-0.144428	-0.145732	0.004857	37.9523	-0.144524	-14.3664	-0.000338	NaN
1044	1.000000	0.811084	7.37526e+06	-52339.1	1055.82	-29749.4	0.000000	0.000000	6.811073	-0.069704	NaN	0.000000	0.001577	0.001710	28.0818	0.153418	0.002058	74.529	-154.642	-166.744	-0.028142	0.809769	-0.136402	-0.137717	-0.069704	74.529	-0.135700	-9.809449	0.007106	NaN
1044	1.000000	0.819070	7.37526e+06	-52339.1	1055.82	-29749.4	0.000000	0.000000	6.819060	-0.024719	NaN	0.000000	0.001571	0.001764	28.0818	0.011660	0.002000	5.830096	138.213	-168.844	-0.014325	0.817804	-0.128417	-0.129682	-0.024719	5.830096	-0.125237	-6.147150	0.004021	NaN
1044	1.000000	0.827099	7.37526e+06	-52339.1	1055.82	-29749.4	0.000000	0.000000	6.827088	-0.059193	NaN	0.000000	0.001569	0.001743	28.0817	0.086661	0.001896	45.6993	-13.7065	-168.095	-0.090891	0.825755	-0.120387	-0.121731	-0.059193	45.6993	-0.119416	-4.701985	0.012589	NaN
1044	1.000000	0.835073	7.37526e+06	-52339.1	1055.82	-29749.4	0.000000	0.000000	6.835066	0.037758	NaN	0.000000	0.001564	0.001766	28.0816	0.069041	0.002002	34.4846	16.8103	-166.517	-0.038680	0.833723	-0.112413	-0.113763	0.037758	34.4846	-0.113234	-3.512028	-0.010751	NaN
1044	1.000000	0.843116	7.37526e+06	-52339.1	1055.82	-29749.4	0.000000	0.000000	6.843105	-0.063936	NaN	0.000000	0.001556	0.001781	28.0817	0.069715	0.001907	36.5562	-119.634	-166.622	0.022040	0.841767	-0.104370	-0.105719	-0.063936	36.5562	-0.103058	-2.133155	0.029972	NaN
1044	1.000000	0.851091	7.37526e+06	-52339.1	1055.82	-29749.4	0.000000	0.000000	6.851085	0.069378	NaN	0.000000	0.001566	0.001763	28.0816	0.043954	0.002090	21.0306	41.7818	-167.349	0.043595	0.849824	-0.096395	-0.097662	0.069378	21.0306	-0.098869	-1.724373	-0.040234	NaN
1044	1.000000	0.859089	7.37526e+06	-52339.1	1055.82	-29749.4	0.000000	0.000000	6.859080	-0.000347	NaN	0.000000	0.001550	0.001808	28.0818	0.100950	0.001981	50.9518	141.468	-163.072	-0.075817	0.857785	-0.088397	-0.089702	-0.000347	50.9518	-0.088392	-0.990619	0.000350	NaN
1044	1.000000	0.867087	7.37526e+06	-52339.1	1055.82	-29749.4	0.000000	0.000000	6.867079	0.033542	NaN	0.000000	0.001548	0.001781	28.0816	0.092400	0.002017	45.8217	-55.9466	-168.868	-0.089254	0.865753	-0.080399	-0.081733	0.033542	45.8217	-0.080948	-0.653622	-0.051317	NaN
1044	1.000000	0.875096	7.37526e+06	-52339.1	1055.82	-29749.4	0.000000	0.000000	6.875087	0.001832	NaN	0.000000	0.001558	0.001794	28.0819	0.119503	0.002086	57.2789	7.170397	-166.082	-0.017268	0.873776	-0.072391	-0.073711	0.001832	57.2789	-0.072415	-0.395396	-0.004633	NaN
1044	1.000000	0.883101	7.37526e+06	-52339.1	1055.82	-29749.4	0.000000	0.000000	6.883102	0.240255	NaN	0.000000	0.001568	0.001806	28.0816	0.123151	0.002075	59.3407	64.1249	-166.568	0.257789	0.881775	-0.064386	-0.065711	0.240255	59.3407	-0.067422	-0.290541	-0.826923	NaN
1044	1.000000	0.891135	7.37526e+06	-52339.1	1055.82	-29749.4	0.000000	0.000000	6.891145	0.454872	NaN	0.000000	0.001568	0.001800	28.0817	0.315122	0.001989	158.466	6.934589	-163.135	0.418227	0.889785	-0.056351	-0.057701	0.454872	158.466	-0.058504	-0.163074	-2.789352	NaN
1044	1.000000	0.899093	7.37526e+06	-52339.1	1055.82	-29749.4	0.000000	0.000000	6.899115	0.744731	NaN	0.000000	0.001567	0.001828	28.082	0.491808	0.001933	254.468	3.772948	-164.491	0.665503	0.897771	-0.048393	-0.049715	0.744731	254.468	-0.050588	-0.095062	-7.834139	NaN
1044	1.000000	0.907118	7.37526e+06	-52339.1	1055.82	-29749.4	0.000000	0.000000	6.907144	0.842166	NaN	0.000000	0.001533	0.001795	28.0816	0.474284	0.001893	250.484	42.5406	-168.151	0.830375	0.905866	-0.040368	-0.041620	0.842166	250.484	-0.042889	-0.055392	-15.2038	NaN
1044	1.000000	0.915123	7.37526e+06	-52339.1	1055.82	-29749.4	0.000000	0.000000	6.915159	1.080456	NaN	0.000000	0.001542	0.001808	28.082	0.501984	0.001910	262.795	22.6047	-164.881	0.992201	0.913810	-0.032363	-0.033677	1.080456	262.795	-0.035447	-0.033012	-32.7296	NaN
1044	1.000000	0.923120	7.37526e+06	-52339.1	1055.82	-29749.4	0.000000	0.000000	6.923163	1.264305	NaN	0.000000	0.001506	0.001799	28.0827	0.700632	0.002044	342.77	20.1586	-163.38	1.299680	0.921778	-0.024366	-0.025708	1.264305	342.77	-0.027133	-0.019212	-65.8092	NaN
1044	1.000000	0.931119	7.37526e+06	-52339.1	1055.82	-29749.4	0.000000	0.000000	6.931171	1.458963	NaN	0.000000	0.001562	0.001817	28.0832	0.701248	0.002044	343.147	16.9833	-166.62	1.487668	0.929777	-0.016367	-0.017709	1.458963	343.147	-0.019556	-0.012238	-119.217	NaN
1044	1.000000	0.939134	7.37526e+06	-52339.1	1055.82	-29749.4	0.000000	0.000000	6.939195	1.688224	NaN	0.000000	0.001561	0.001799	28.0832	0.997627	0.001965	507.617	16.3234	-167.003	1.715482	0.937812	-0.008352	-0.009674	1.688224	507.617	-0.010847	-0.006871	-245.714	NaN
1044	1.000000	0.947133	7.37526e+06	-52339.1	1055.82	-29749.4	0.000000	0.000000	6.947200	1.840832	NaN	0.000000	0.001577	0.001791	28.083	1.344490	0.001917	701.477	21.8251	-168.31	1.873861	0.945810	-0.000353	-0.001676	1.840832	701.477	-0.002322	-0.001661	-1108.3	NaN
1044	1.000000	0.955125	7.37526e+06	-52339.1	1055.82	-29749.4	0.000000	0.000000	6.955217	2.451097	NaN	0.000000	0.001558	0.001790	28.0837	1.526377	0.002065	739.333	21.9042	-168.696	2.451767	0.953843	0.007638	0.006357	2.451097	739.333	0.005152	0.004273	573.685	10334
1044	1.000000	0.963121	7.37526e+06	-52339.1	1055.82	-29749.4	0.000000	0.000000	6.963232	2.930857	NaN	0.000000	0.001579	0.001806	28.0829	1.755836	0.002149	817.109	25.0451	-171.678	2.882785	0.961812	0.015634	0.014326	2.930857	817.109	0.012944	0.012641	231.856	6639.95
1044	1.000000	0.971139	7.37526e+06	-52339.1	1055.82	-29749.4	0.000000	0.000000	6.971264	3.240557	NaN	0.000000	0.001531	0.001795	28.0831	2.017664	0.001917	1052.61	22.9928	-167.597	3.290302	0.969846	0.023653	0.022360	3.240557	1052.61	0.021344	0.024698	131.205	6119.35
1044	1.000000	0.979113	7.37526e+06	-52339.1	1055.82	-29749.4	0.000000	0.000000	6.979262	3.833219	NaN	0.000000	0.001546	0.001823	28.083	2.210231	0.001932	1143.95	19.907	-165.346	3.715092	0.977819	0.031627	0.030333	3.833219	1143.95	0.029114	0.038927	98.4726	5297.3
1044	1.000000	0.987150	7.37526e+06	-52339.1	1055.82	-29749.4	0.000000	0.000000	6.987333	4.647906	NaN	0.000000	0.001574	0.001773	28.0829	2.879832	0.002157	1335.32	23.6192	-170.039	4.602645	0.985824	0.039664	0.038338	4.647906	1335.32	0.037053	0.056635	82.0672	5126.44
1044	1.000000	0.995157	7.37526e+06	-52339.1	1055.82	-29749.4	0.000000	0.000000	6.995390	5.880472	NaN	0.000000	0.001537	0.001805	28.0835	3.610063	0.001879	1921.51	23.2727	-172.662	5.721855	0.993801	0.047671	0.046315	5.880472	1921.51	0.045375	0.078657	74.7611	6259.62
1044	1.000000	1.003136	7.37526e+06	-52339.1	1055.82	-29749.4	0.000000	0.000000	7.003453	7.918339	NaN	0.000000	0.001608	0.001828	28.0826	4.663603	0.002012	2317.44	19.4656	-169.423	7.739603	1.001858	0.055650	0.054372	7.918339	2317.44	0.053087	0.102193	77.4838	6623.22
1044	2.000000	1.006841	7.37526e+06	-52339.1	1055.82	-29749.4	0.000000	0.000000	7.007138	7.429626	NaN	0.000000	0.001619	0.001800	28.0828	4.977947	0.001985	2507.62	16.7562	-170.782	7.728352	1.006518	0.059355	0.059032	7.429626	2507.62	0.057133	0.115728	64.1991	6734.67
1044	2.000000	1.008755	7.37526e+06	-52339.1	1055.82	-29749.4	0.000000	0.000000	7.009055	7.496123	NaN	0.000000	0.001628	0.001783	28.0829	5.322331	0.001929	2759.77	13.6164	-169.076	7.338308	1.008446	0.061269	0.060960	7.496123	2759.77	0.059232	0.123068	60.9105	7187.44
1044	2.000000	1.010772	7.37526e+06	-52339.1	1055.82	-29749.4	0.000000	0.000000	7.011092	7.997626	NaN	0.000000	0.001605	0.001785	28.0828	5.640198	0.001938	2910.24	16.0454	-172.432	8.007203	1.010424	0.063286	0.062938	7.997626	2910.24	0.061225	0.130237	61.4082	7367.73
1044	2.000000	1.012732	7.37526e+06	-52339.1	1055.82	-29749.4	0.000000	0.000000	7.013074	8.517762	NaN	0.000000	0.001568	0.001789	28.0832	6.104879	0.001925	3171.27	15.7851	-172.861	8.488634	1.012434	0.065246	0.064947	8.517762	3171.27	0.063231	0.137650	61.88	7809.41
1044	2.000000	1.014743	7.37526e+06	-52339.1	1055.82	-29749.4	0.000000	0.000000	7.015115	9.255603	NaN	0.000000	0.001595	0.001804	28.0828	6.341456	0.001950	3252.08	16.8341	-173.188	9.236908	1.014390	0.067257	0.066904	9.255603	3252.08	0.065122	0.144814	63.9136	7807.81
1044	2.000000	1.016735	7.37526e+06	-52339.1	1055.82	-29749.4	0.000000	0.000000	7.017127	9.742273	NaN	0.000000	0.001540	0.001815	28.083	6.697486	0.002098	3192.92	16.8977	-172.309	9.807628	1.016429	0.069249	0.068943	9.742273	3192.92	0.066960	0.151943	64.118	7483.77
1044	2.000000	1.018710	7.37526e+06	-52339.1	1055.82	-29749.4	0.000000	0.000000	7.019113	10.0086	NaN	0.000000	0.001566	0.001803	28.0823	6.649852	0.001905	3490.86	13.2414	-171.023	9.718654	1.018379	0.071224	0.070893	10.0086	3490.86	0.069074	0.160341	62.4206	7964.96
1044	2.000000	1.020720	7.37526e+06	-52339.1	1055.82	-29749.4	0.000000	0.000000	7.021144	10.5152	NaN	0.000000	0.001592	0.001785	28.0818	7.203965	0.001947	3699.22	17.5276	-174.761	10.3183	1.020421	0.073234	0.072935	10.5152	3699.22	0.071102	0.168600	62.3674	8231.03
1044	2.000000	1.022717	7.37526e+06	-52339.1	1055.82	-29749.4	0.000000	0.000000	7.023161	11.0089	NaN	0.000000	0.001568	0.001776	28.0824	7.451646	0.001817	4100.65	12.9222	-171.698	11.0659	1.022401	0.075231	0.074915	11.0089	4100.65	0.073217	0.177422	62.0491	8894.52
1044	2.000000	1.024687	7.37526e+06	-52339.1	1055.82	-29749.4	0.000000	0.000000	7.025148	11.4441	NaN	0.000000	0.001573	0.001799	28.0819	7.876336	0.002006	3926.76	16.6725	-173.211	11.5341	1.024406	0.077200	0.076920	11.4441	3926.76	0.075015	0.185083	61.8323	8339.21
1044	2.000000	1.026692	7.37526e+06	-52339.1	1055.82	-29749.4	0.000000	0.000000	7.027161	11.6017	NaN	0.000000	0.001577	0.001801	28.0827	7.944710	0.001900	4180.38	16.6831	-174.913	11.7448	1.026448	0.079206	0.078962	11.6017	4180.38	0.077125	0.194272	59.7189	8665.31
1044	2.000000	1.028689	7.37526e+06	-52339.1	1055.82	-29749.4	0.000000	0.000000	7.029183	12.2244	NaN	0.000000	0.001597	0.001794	28.0819	8.480747	0.002022	4195.24	15.3239	-172.874	11.9011	1.028340	0.081203	0.080854	12.2244	4195.24	0.079018	0.202693	60.3101	8513.55
1044	2.000000	1.030689	7.37526e+06	-52339.1	1055.82	-29749.4	0.000000	0.000000	7.031200	12.6269	NaN	0.000000	0.001555	0.001767	28.0819	8.750934	0.001961	4461.79	13.6151	-172.125	12.6399	1.030379	0.083203	0.082893	12.6269	4461.79	0.081081	0.212061	59.5436	8852.22
1044	2.000000	1.032702	7.37526e+06	-52339.1	1055.82	-29749.4	0.000000	0.000000	7.033214	12.6491	NaN	0.000000	0.001533	0.001787	28.082	9.187120	0.001954	4702.44	15.5355	-173.958	12.6247	1.032385	0.085216	0.084899	12.6491	4702.44	0.083199	0.221884	57.0077	9120.82
1044	2.000000	1.034693	7.37526e+06	-52339.1	1055.82	-29749.4	0.000000	0.000000	7.035249	13.7121	NaN	0.000000	0.001573	0.001803	28.0819	9.654838	0.001962	4920.48	13.6102	-171.675	13.2917	1.034292	0.087207	0.086806	13.7121	4920.48	0.085117	0.230961	59.3698	9354.3
1044	2.000000	1.036696	7.37526e+06	-52339.1	1055.82	-29749.4	0.000000	0.000000	7.037248	13.6393	NaN	0.000000	0.001568	0.001785	28.0826	10.0649	0.002088	4821.12	15.9226	-174.317	13.8153	1.036425	0.089210	0.088939	13.6393	4821.12	0.087088	0.240463	56.721	8982.49
1044	2.000000	1.038691	7.37526e+06	-52339.1	1055.82	-29749.4	0.000000	0.000000	7.039285	14.6622	NaN	0.000000	0.001512	0.001775	28.082	10.477	0.002052	5106.65	16.5364	-174.599	14.5805	1.038323	0.091205	0.090837	14.6622	5106.65	0.089051	0.250107	58.6235	9329.25
1044	2.000000	1.040659	7.37526e+06	-52339.1	1055.82	-29749.4	0.000000	0.000000	7.041293	15.6327	NaN	0.000000	0.001527	0.001804	28.082	10.8359	0.001858	5832.41	15.0683	-175.04	15.5194	1.040358	0.093173	0.092871	15.6327	5832.41	0.091162	0.260673	59.9704	10436.9
1044	2.000000	1.042670	7.37526e+06	-52339.1	1055.82	-29749.4	0.000000	0.000000	7.043310	15.7707	NaN	0.000000	0.001587	0.001760	28.082	11.4893	0.002045	5618.64	17.9024	-176.034	15.8677	1.042370	0.095184	0.094884	15.7707	5618.64	0.093079	0.270442	58.3147	9871.14
1044	2.000000	1.044685	7.37526e+06	-52339.1	1055.82	-29749.4	0.000000	0.000000	7.045379	17.0882	NaN	0.000000	0.001533	0.001787	28.082	11.7972	0.002035	5798.07	16.7095	-175.464	16.7471	1.044327	0.097199	0.096841	17.0882	5798.07	0.094989	0.280345	60.9542	10004.8
1044	2.000000	1.046639	7.37526e+06	-52339.1	1055.82	-29749.4	0.000000	0.000000	7.047357	17.6866	NaN	0.000000	0.001575	0.001866	28.0819	12.5018	0.001904	6567.2	18.3086	-179	17.5507	1.046357	0.099153	0.098871	17.6866	6567.2	0.097133	0.291660	60.6412	11110
1044	2.000000	1.048676	7.37526e+06	-52339.1	1055.82	-29749.4	0.000000	0.000000	7.049440	18.8084	NaN	0.000000	0.001542	0.001768	28.0819	13.2003	0.001832	7207.03	13.2713	-174.841	18.8542	1.048350	0.101189	0.100864	18.8084	7207.03	0.099232	0.302942	62.0857	11963.3
1044	2.000000	1.050684	7.37526e+06	-52339.1	1055.82	-29749.4	0.000000	0.000000	7.051507	20.2233	NaN	0.000000	0.001543	0.001761	28.0821	14.4711	0.001950	7422.47	15.8352	-177.856	20.1966	1.050400	0.103198	0.102914	20.2233	7422.47	0.101154	0.313448	64.5187	12112.6
1044	2.000000	1.052686	7.37526e+06	-52339.1	1055.82	-29749.4	0.000000	0.000000	7.053549	21.2004	NaN	0.000000	0.001545	0.001774	28.0821	15.134	0.001800	8408.52	16.6811	-179.971	21.3979	1.052359	0.105200	0.104872	21.2004	8408.52	0.103309	0.325423	65.1473	13466.9
1044	2.000000	1.054678	7.37526e+06	-52339.1	1055.82	-29749.4	0.000000	0.000000	7.055588	22.3202	NaN	0.000000	0.001552	0.001801	28.0831	16.3283	0.002117	7714.17	13.9637	-174.944	22.1942	1.054312	0.107192	0.106826	22.3202	7714.17	0.105022	0.335097	66.6083	12175.2
1044	2.000000	1.056654	7.37526e+06	-52339.1	1055.82	-29749.4	0.000000	0.000000	7.057577	22.6509	NaN	0.000000	0.001545	0.001777	28.0829	16.9983	0.001915	8875.38	15.9671	-179.577	23.1275	1.056412	0.109168	0.108926	22.6509	8875.38	0.107254	0.347899	65.1077	13747.8
1044	2.000000	1.058660	7.37526e+06	-52339.1	1055.82	-29749.4	0.000000	0.000000	7.059677	24.9324	NaN	0.000000	0.001564	0.001822	28.0831	17.6905	0.001954	9052.6	14.4634	-178.863	24.7409	1.058395	0.111174	0.110909	24.9324	9052.6	0.109108	0.358703	69.5071	13809.5
1044	2.000000	1.060692	7.37526e+06	-52339.1	1055.82	-29749.4	0.000000	0.000000	7.061786	26.8131	NaN	0.000000	0.001574	0.001808	28.0832	18.2622	0.001802	10132.5	11.2751	-176.523	27.1986	1.060342	0.113206	0.112855	26.8131	10132.5	0.111221	0.371207	72.2322	15194.3
1044	2.000000	1.062666	7.37526e+06	-52339.1	1055.82	-29749.4	0.000000	0.000000	7.063846	28.8934	NaN	0.000000	0.001543	0.001838	28.083	19.3679	0.001741	11126.7	14.0128	179.017	29.0939	1.062303	0.115180	0.114817	28.8934	11126.7	0.113233	0.383300	75.3807	16419.9
1044	2.000000	1.064660	7.37526e+06	-52339.1	1055.82	-29749.4	0.000000	0.000000	7.065916	30.7528	NaN	0.000000	0.001579	0.001839	28.0832	21.0265	0.001871	11239.1	15.7986	177.213	30.6639	1.064343	0.117174	0.116857	30.7528	11239.1	0.115122	0.394823	77.8901	16342
1044	2.000000	1.066680	7.37526e+06	-52339.1	1055.82	-29749.4	0.000000	0.000000	7.068006	32.4407	NaN	0.000000	0.001570	0.001831	28.0832	21.8581	0.001903	11485.3	15.0978	178.062	32.8265	1.066301	0.119194	0.118815	32.4407	11485.3	0.117076	0.406914	79.7236	16450
1044	2.000000	1.068627	7.37526e+06	-52339.1	1055.82	-29749.4	0.000000	0.000000	7.070027	34.2463	NaN	0.000000	0.001583	0.001814	28.0829	22.959	0.001861	12334.7	12.6605	179.4	33.9107	1.068306	0.121141	0.120820	34.2463	12334.7	0.119058	0.419357	81.6637	17402.4
1044	2.000000	1.070625	7.37526e+06	-52339.1	1055.82	-29749.4	0.000000	0.000000	7.072133	36.8785	NaN	0.000000	0.001573	0.001838	28.0831	24.0753	0.001968	12235.3	12.4096	-179.726	36.2944	1.070281	0.123139	0.122795	36.8785	12235.3	0.120879	0.430938	85.5772	17028.6
1044	2.000000	1.072637	7.37526e+06	-52339.1	1055.82	-29749.4	0.000000	0.000000	7.074169	37.4474	NaN	0.000000	0.001570	0.001828	28.083	25.1453	0.001900	13236.3	12.861	178.903	36.9731	1.072382	0.125151	0.124896	37.4474	13236.3	0.123029	0.444816	84.1863	18132.2
1044	2.000000	1.074622	7.37526e+06	-52339.1	1055.82	-29749.4	0.000000	0.000000	7.076255	39.9199	NaN	0.000000	0.001586	0.001824	28.083	26.513	0.001897	13974.4	12.3265	178.634	39.6162	1.074321	0.127136	0.126834	39.9199	13974.4	0.124993	0.457675	87.2234	18872.5
1044	2.000000	1.076586	7.37526e+06	-52339.1	1055.82	-29749.4	0.000000	0.000000	7.078270	41.1587	NaN	0.000000	0.001645	0.001809	28.083	27.4257	0.001900	14434.1	12.9265	176.42	40.7073	1.076352	0.129100	0.128866	41.1587	14434.1	0.126961	0.470734	87.4351	19221
1044	2.000000	1.078635	7.37526e+06	-52339.1	1055.82	-29749.4	0.000000	0.000000	7.080431	43.8885	NaN	0.000000	0.001603	0.001834	28.0831	28.8701	0.001804	16001.5	10.868	177.334	43.8134	1.078318	0.131149	0.130832	43.8885	16001.5	0.129092	0.485069	90.4789	20990.9
1044	2.000000	1.080649	7.37526e+06	-52339.1	1055.82	-29749.4	0.000000	0.000000	7.082629	48.3408	NaN	0.000000	0.001570	0.001872	28.0833	30.9393	0.001831	16900.1	10.8785	177.404	48.5491	1.080298	0.133163	0.132812	48.3408	16900.1	0.131018	0.498210	97.0289	21875.3
1044	2.000000	1.082621	7.37526e+06	-52339.1	1055.82	-29749.4	0.000000	0.000000	7.084681	50.2994	NaN	0.000000	0.001575	0.001835	28.0832	32.2898	0.001822	17721.9	11.5163	175.703	50.4088	1.082310	0.135135	0.134824	50.2994	17721.9	0.133006	0.511953	98.2501	22629.2
1044	2.000000	1.084625	7.37526e+06	-52339.1	1055.82	-29749.4	0.000000	0.000000	7.086861	54.5789	NaN	0.000000	0.001570	0.001841	28.083	34.147	0.001946	17550.3	9.078398	178.368	53.1046	1.084265	0.137139	0.136779	54.5789	17550.3	0.134807	0.524554	104.048	22139.2
1044	2.000000	1.086589	7.37526e+06	-52339.1	1055.82	-29749.4	0.000000	0.000000	7.089022	59.3849	NaN	0.000000	0.001565	0.001866	28.0828	35.0369	0.001815	19306.6	6.545318	179.312	58.2086	1.086307	0.139103	0.138821	59.3849	19306.6	0.136796	0.538647	110.248	24034
1044	2.000000	1.088628	7.37526e+06	-52339.1	1055.82	-29749.4	0.000000	0.000000	7.091277	64.6183	NaN	0.000000	0.001568	0.001877	28.0822	37.3765	0.001873	19955.4	8.203581	177.187	64.7531	1.088353	0.141142	0.140867	64.6183	19955.4	0.138713	0.552403	116.977	24530.4
1044	2.000000	1.090647	7.37526e+06	-52339.1	1055.82	-29749.4	0.000000	0.000000	7.093691	74.2191	NaN	0.000000	0.001564	0.001854	28.0823	38.8217	0.001656	23440	8.203232	175.349	73.4512	1.090264	0.143161	0.142778	74.2191	23440	0.140786	0.567471	130.789	28428.8
1044	2.000000	1.092598	7.37526e+06	-52339.1	1055.82	-29749.4	0.000000	0.000000	7.095976	82.338	NaN	0.000000	0.001579	0.001805	28.0818	40.238	0.001768	22753.4	8.277217	175.544	81.3401	1.092261	0.145112	0.144774	82.338	22753.4	0.142398	0.579319	142.129	27312.5
1044	2.000000	1.094627	7.37526e+06	-52339.1	1055.82	-29749.4	0.000000	0.000000	7.098282	89.0833	NaN	0.000000	0.001560	0.001825	28.082	43.0997	0.001818	23713.2	9.115854	174.026	88.2367	1.094321	0.147141	0.146835	89.0833	23713.2	0.144323	0.593633	150.064	28119.3
1044	2.000000	1.096572	7.37526e+06	-52339.1	1055.82	-29749.4	0.000000	0.000000	7.100641	99.1434	NaN	0.000000	0.001574	0.001808	28.0819	43.6079	0.001837	23737.9	6.405676	176.938	98.3175	1.096304	0.149086	0.148818	99.1434	23737.9	0.145954	0.605887	163.634	27862.5
1044	2.000000	1.098581	7.37526e+06	-52339.1	1055.82	-29749.4	0.000000	0.000000	7.103082	109.67	NaN	0.000000	0.001611	0.001812	28.082	45.3636	0.001718	26401	1.940502	-179.603	108.555	1.098280	0.151094	0.150794	109.67	26401	0.147979	0.621280	176.523	30602
1044	2.000000	1.100643	7.37526e+06	-52339.1	1055.82	-29749.4	0.000000	0.000000	7.105641	121.744	NaN	0.000000	0.001576	0.001769	28.0821	48.2561	0.001805	26729.5	6.999422	175.211	120.38	1.100227	0.153157	0.152740	121.744	26729.5	0.149741	0.634827	191.775	30650.4
1044	2.000000	1.102534	7.37526e+06	-52339.1	1055.82	-29749.4	0.000000	0.000000	7.107931	131.428	NaN	0.000000	0.001577	0.001775	28.0821	49.4602	0.001789	27645.7	6.418260	175.118	128.203	1.102189	0.155048	0.154703	131.428	27645.7	0.151483	0.648362	202.708	31368.4
1044	2.000000	1.103593	7.37526e+06	-52339.1	1055.82	-29749.4	0.000000	0.000000	7.109290	138.73	NaN	0.000000	0.001563	0.001802	28.0817	50.5269	0.001706	29609.4	10.4195	169.899	138.462	1.103296	0.156107	0.155810	138.73	29609.4	0.152593	0.657064	211.136	33373.3