File: remote_trans/data/nanoindenter/0828-1/data/Data_2025-08-06,11h17m57s/2025-07-22_16-23-58_1_771.txt
2025-07-22, 16:23:58, 1
Index	Phase	Displacement	Time	Pos X	Pos Y	Pos Z	Rot A	Rot B	Piezo Z	Force A	Force B	Gripper	Voltage A	Voltage B	Temperature	Amplitude force	Amplitude pos	Stiffness	Phase shift	Phase excitation	Force A raw	Displacement raw	HMax	HMax raw	Real Force	Real Stiffness	Contact Depth	Area	Hardness	Reduced Mod.
[#]	[#]	[um]	[s]	[um]	[um]	[um]	[m°]	[m°]	[um]	[uN]	[uN]	[V]	[V]	[V]	[°C]	[uN]	[um]	[N/m]	[°]	[°]	[uN]	[um]	[um]	[um]	[uN]	[N/m]	[um]	[um^2]	[MPa]	[MPa]
771	1.000000	0.003176	7.3726e+06	-38689.1	1055.82	-29796.5	0.000000	0.000000	6.002755	0.004773	NaN	0.000000	0.001734	0.001761	28.0815	0.139966	0.000977	143.252	-13.0495	-167.533	-0.073021	0.001961	-1.058642	-1.059857	0.004773	143.252	-1.058667	-1.396060E+14	-3.418745E-17	NaN
771	1.000000	0.011174	7.3726e+06	-38689.1	1055.82	-29796.5	0.000000	0.000000	6.010754	0.047481	NaN	0.000000	0.001718	0.001745	28.0816	0.049971	0.000972	51.4097	85.9515	-167.729	-0.008719	0.009862	-1.050644	-1.051956	0.047481	51.4097	-1.051337	-1.112709E+14	-4.267139E-16	NaN
771	1.000000	0.019185	7.3726e+06	-38689.1	1055.82	-29796.5	0.000000	0.000000	6.018764	0.005851	NaN	0.000000	0.001727	0.001738	28.0815	0.051228	0.001776	28.849	-63.4828	-165.389	-0.042885	0.017882	-1.042633	-1.043936	0.005851	28.849	-1.042785	-8.539086E+13	-6.851604E-17	NaN
771	1.000000	0.027205	7.3726e+06	-38689.1	1055.82	-29796.5	0.000000	0.000000	6.026786	0.052250	NaN	0.000000	0.001682	0.001713	28.0817	0.032031	0.001784	17.9565	-79.9061	-166.373	0.052744	0.025918	-1.034612	-1.035899	0.052250	17.9565	-1.036795	-7.093552E+13	-7.365778E-16	NaN
771	1.000000	0.035162	7.3726e+06	-38689.1	1055.82	-29796.6	0.000000	0.000000	6.034741	-0.007118	NaN	0.000000	0.001724	0.001724	28.0818	0.052984	0.001817	29.1551	58.4443	-166.248	0.016011	0.033850	-1.026655	-1.027968	-0.007118	29.1551	-1.026472	-5.152596E+13	1.381376E-16	NaN
771	1.000000	0.043157	7.3726e+06	-38689.1	1055.82	-29796.6	0.000000	0.000000	6.042737	0.020472	NaN	0.000000	0.001740	0.001734	28.082	0.051595	0.001985	25.9928	178.085	-166.87	0.017212	0.041835	-1.018660	-1.019982	0.020472	25.9928	-1.019251	-4.119788E+13	-4.969217E-16	NaN
771	1.000000	0.051170	7.3726e+06	-38689.1	1055.82	-29796.6	0.000000	0.000000	6.050752	0.083344	NaN	0.000000	0.001688	0.001714	28.0815	0.025548	0.001872	13.644	-94.5689	-167.946	0.045926	0.049890	-1.010647	-1.011928	0.083344	13.644	-1.015229	-3.637060E+13	-2.291521E-15	NaN
771	1.000000	0.059153	7.3726e+06	-38689.1	1055.82	-29796.6	0.000000	0.000000	6.058731	-0.004330	NaN	0.000000	0.001694	0.001739	28.0819	0.088151	0.001992	44.2532	-59.3522	-165.778	0.052684	0.057851	-1.002665	-1.003966	-0.004330	44.2532	-1.002591	-2.458416E+13	1.761112E-16	NaN
771	1.000000	0.067176	7.3726e+06	-38689.1	1055.82	-29796.6	0.000000	0.000000	6.066757	0.056345	NaN	0.000000	0.001722	0.001705	28.0814	0.030056	0.002032	14.7881	133.378	-165.631	0.061913	0.065867	-0.994641	-0.995951	0.056345	14.7881	-0.997499	-2.099386E+13	-2.683895E-15	NaN
771	1.000000	0.075182	7.3726e+06	-38689.1	1055.82	-29796.6	0.000000	0.000000	6.074761	0.005179	NaN	0.000000	0.001679	0.001723	28.0814	0.135190	0.002125	63.6045	18.553	-166.72	-0.090041	0.073870	-0.986636	-0.987947	0.005179	63.6045	-0.986697	-1.501838E+13	-3.448359E-16	NaN
771	1.000000	0.083196	7.3726e+06	-38689.1	1055.82	-29796.6	0.000000	0.000000	6.082775	-0.004818	NaN	0.000000	0.001732	0.001741	28.0816	0.054179	0.001906	28.4274	-172.121	-167.87	0.022048	0.081914	-0.978621	-0.979903	-0.004818	28.4274	-0.978494	-1.164455E+13	4.137373E-16	NaN
771	1.000000	0.091183	7.3726e+06	-38689.1	1055.82	-29796.6	0.000000	0.000000	6.090761	-0.026975	NaN	0.000000	0.001691	0.001730	28.0816	0.110626	0.002121	52.1475	-107.801	-166.557	0.004017	0.089903	-0.970634	-0.971915	-0.026975	52.1475	-0.970246	-9.015348E+12	2.992100E-15	NaN
771	1.000000	0.099197	7.3726e+06	-38689.1	1055.82	-29796.6	0.000000	0.000000	6.098773	-0.054631	NaN	0.000000	0.001720	0.001711	28.0823	0.089627	0.001938	46.2538	-69.0352	-165.938	0.042714	0.097853	-0.962621	-0.963964	-0.054631	46.2538	-0.961735	-6.922390E+12	7.891932E-15	NaN
771	1.000000	0.107176	7.3726e+06	-38689.1	1055.82	-29796.6	0.000000	0.000000	6.106754	-0.022344	NaN	0.000000	0.001732	0.001722	28.0818	0.078659	0.001919	40.9822	-15.8716	-161.152	-0.076438	0.105879	-0.954641	-0.955939	-0.022344	40.9822	-0.954233	-5.484111E+12	4.074281E-15	NaN
771	1.000000	0.115204	7.3726e+06	-38689.1	1055.82	-29796.6	0.000000	0.000000	6.114780	-0.072065	NaN	0.000000	0.001751	0.001721	28.082	0.066651	0.001949	34.1886	-131.461	-166.625	-0.014604	0.113880	-0.946613	-0.947938	-0.072065	34.1886	-0.945032	-4.121188E+12	1.748658E-14	NaN
771	1.000000	0.123200	7.3726e+06	-38689.1	1055.82	-29796.6	0.000000	0.000000	6.122776	-0.063256	NaN	0.000000	0.001727	0.001711	28.0818	0.059198	0.001996	29.6634	47.754	-165.082	0.047391	0.121934	-0.938618	-0.939884	-0.063256	29.6634	-0.937018	-3.212983E+12	1.968775E-14	NaN
771	1.000000	0.131179	7.3726e+06	-38689.1	1055.82	-29796.6	0.000000	0.000000	6.130757	-0.015985	NaN	0.000000	0.001682	0.001740	28.0828	0.049130	0.001913	25.6778	-76.1919	-165.044	0.035543	0.129928	-0.930639	-0.931890	-0.015985	25.6778	-0.930172	-2.597276E+12	6.154482E-15	NaN
771	1.000000	0.139192	7.3726e+06	-38689.1	1055.82	-29796.6	0.000000	0.000000	6.138767	-0.071390	NaN	0.000000	0.001634	0.001745	28.0832	0.169577	0.001982	85.5492	-125.274	-171.239	-0.037248	0.137888	-0.922626	-0.923929	-0.071390	85.5492	-0.922000	-2.014684E+12	3.543462E-14	NaN
771	1.000000	0.147213	7.3726e+06	-38689.1	1055.82	-29796.6	0.000000	0.000000	6.146794	0.040116	NaN	0.000000	0.001690	0.001734	28.0831	0.043423	0.002027	21.4236	58.0396	-166.094	-0.017830	0.145887	-0.914604	-0.915931	0.040116	21.4236	-0.916009	-1.672292E+12	-2.398892E-14	NaN
771	1.000000	0.155200	7.3726e+06	-38689.1	1055.82	-29796.6	0.000000	0.000000	6.154784	0.127595	NaN	0.000000	0.001715	0.001699	28.0835	0.059253	0.001982	29.903	116.493	-164.887	0.087502	0.153864	-0.906618	-0.907953	0.127595	29.903	-0.909818	-1.379444E+12	-9.249774E-14	NaN
771	1.000000	0.163189	7.3726e+06	-38689.1	1055.82	-29796.6	0.000000	0.000000	6.162769	0.035484	NaN	0.000000	0.001687	0.001737	28.0831	0.118022	0.002166	54.4863	160.237	-165.637	0.011691	0.161901	-0.898629	-0.899916	0.035484	54.4863	-0.899117	-9.888639E+11	-3.588408E-14	NaN
771	1.000000	0.171221	7.3726e+06	-38689.1	1055.82	-29796.6	0.000000	0.000000	6.170797	-0.060257	NaN	0.000000	0.001693	0.001686	28.0831	0.025947	0.002048	12.672	-72.0278	-165.692	-0.005927	0.169954	-0.890597	-0.891864	-0.060257	12.672	-0.887030	-6.788405E+11	8.876397E-14	NaN
771	1.000000	0.179224	7.3726e+06	-38689.1	1055.82	-29796.6	0.000000	0.000000	6.178805	0.045776	NaN	0.000000	0.001730	0.001754	28.083	0.136417	0.002087	65.3629	125.812	-168.217	-0.095681	0.177875	-0.882593	-0.883943	0.045776	65.3629	-0.883118	-6.010032E+11	-7.616573E-14	NaN
771	1.000000	0.187183	7.3726e+06	-38689.1	1055.82	-29796.6	0.000000	0.000000	6.186763	0.028549	NaN	0.000000	0.001728	0.001740	28.0829	0.030352	0.002024	14.9983	50.6137	-167.217	0.074375	0.185909	-0.874634	-0.875909	0.028549	14.9983	-0.876062	-4.824428E+11	-5.917505E-14	NaN
771	1.000000	0.195235	7.3726e+06	-38689.1	1055.82	-29796.6	0.000000	0.000000	6.194816	0.061022	NaN	0.000000	0.001728	0.001743	28.0834	0.020371	0.001856	10.9775	155.512	-165.004	-0.014063	0.193925	-0.866582	-0.867892	0.061022	10.9775	-0.870751	-4.088921E+11	-1.492365E-13	NaN
771	1.000000	0.203196	7.3726e+06	-38689.1	1055.82	-29796.6	0.000000	0.000000	6.202774	-0.006644	NaN	0.000000	0.001745	0.001724	28.0831	0.155703	0.002022	76.9898	113.874	-166.976	0.022252	0.202004	-0.858621	-0.859814	-0.006644	76.9898	-0.858557	-2.796305E+11	2.375854E-14	NaN
771	1.000000	0.211210	7.3726e+06	-38689.1	1055.82	-29796.6	0.000000	0.000000	6.210789	0.001893	NaN	0.000000	0.001748	0.001732	28.0831	0.062630	0.002003	31.2652	8.681277	-163.094	0.108878	0.209937	-0.850607	-0.851881	0.001893	31.2652	-0.850653	-2.185638E+11	-8.660995E-15	NaN
771	1.000000	0.219248	7.3726e+06	-38689.1	1055.82	-29796.6	0.000000	0.000000	6.218826	-0.008294	NaN	0.000000	0.001751	0.001724	28.083	0.047209	0.001934	24.4059	-14.8215	-168.567	0.064048	0.217939	-0.842569	-0.843878	-0.008294	24.4059	-0.842315	-1.685190E+11	4.921510E-14	NaN
771	1.000000	0.227234	7.3726e+06	-38689.1	1055.82	-29796.6	0.000000	0.000000	6.226813	-0.007766	NaN	0.000000	0.001740	0.001701	28.0829	0.066649	0.002017	33.0431	140.754	-163.917	0.000413	0.225944	-0.834583	-0.835874	-0.007766	33.0431	-0.834407	-1.316773E+11	5.897915E-14	NaN
771	1.000000	0.235242	7.3726e+06	-38689.1	1055.82	-29796.6	0.000000	0.000000	6.234821	-0.008823	NaN	0.000000	0.001726	0.001737	28.0832	0.112745	0.002072	54.4134	3.106216	-165.865	0.010586	0.233957	-0.826575	-0.827861	-0.008823	54.4134	-0.826454	-1.027334E+11	8.587823E-14	NaN
771	1.000000	0.243242	7.3726e+06	-38689.1	1055.82	-29796.6	0.000000	0.000000	6.242821	-0.005347	NaN	0.000000	0.001742	0.001743	28.0832	0.045810	0.002039	22.4648	-38.0652	-165.603	-0.082289	0.241900	-0.818575	-0.819918	-0.005347	22.4648	-0.818397	-7.988544E+10	6.693032E-14	NaN
771	1.000000	0.251257	7.3726e+06	-38689.1	1055.82	-29796.6	0.000000	0.000000	6.250838	0.049928	NaN	0.000000	0.001761	0.001716	28.0834	0.037595	0.001933	19.4504	80.3903	-170.198	-0.015636	0.249965	-0.810561	-0.811852	0.049928	19.4504	-0.812486	-6.641956E+10	-7.517071E-13	NaN
771	1.000000	0.259245	7.3726e+06	-38689.1	1055.82	-29796.6	0.000000	0.000000	6.258822	-0.038563	NaN	0.000000	0.001741	0.001723	28.0834	0.122907	0.002058	59.7188	-167.102	-165.534	-0.016947	0.258017	-0.802573	-0.803800	-0.038563	59.7188	-0.802089	-4.799695E+10	8.034565E-13	NaN
771	1.000000	0.267266	7.3726e+06	-38689.1	1055.82	-29796.6	0.000000	0.000000	6.266846	0.034378	NaN	0.000000	0.001762	0.001708	28.0824	0.030611	0.001931	15.8525	27.7139	-167.045	0.053201	0.265928	-0.794552	-0.795889	0.034378	15.8525	-0.796178	-3.990035E+10	-8.615984E-13	NaN
771	1.000000	0.275289	7.3726e+06	-38689.1	1055.82	-29796.6	0.000000	0.000000	6.274868	0.010884	NaN	0.000000	0.001748	0.001713	28.0818	0.100239	0.001988	50.4196	109.382	-167.832	-0.009968	0.273912	-0.786528	-0.787906	0.010884	50.4196	-0.786690	-2.965702E+10	-3.670002E-13	NaN
771	1.000000	0.283258	7.3726e+06	-38689.1	1055.82	-29796.6	0.000000	0.000000	6.282837	0.002019	NaN	0.000000	0.001728	0.001749	28.0816	0.116434	0.001975	58.9543	-78.126	-168.787	-0.004126	0.281969	-0.778559	-0.779848	0.002019	58.9543	-0.778585	-2.301449E+10	-8.771144E-14	NaN
771	1.000000	0.291250	7.3726e+06	-38689.1	1055.82	-29796.6	0.000000	0.000000	6.290827	-0.036169	NaN	0.000000	0.001741	0.001736	28.0818	0.073683	0.002099	35.0953	-118.393	-165.593	-0.055414	0.289937	-0.770568	-0.771881	-0.036169	35.0953	-0.769795	-1.747909E+10	2.069286E-12	NaN
771	1.000000	0.299272	7.3726e+06	-38689.1	1055.82	-29796.6	0.000000	0.000000	6.298849	-0.041648	NaN	0.000000	0.001758	0.001770	28.0817	0.165366	0.001895	87.2862	80.9781	-165.155	-0.138251	0.297963	-0.762546	-0.763855	-0.041648	87.2862	-0.762188	-1.377409E+10	3.023625E-12	NaN
771	1.000000	0.307274	7.3726e+06	-38689.1	1055.82	-29796.6	0.000000	0.000000	6.306853	-0.004202	NaN	0.000000	0.001700	0.001727	28.0818	0.071402	0.001912	37.3531	40.1807	-165.498	0.029923	0.305958	-0.754543	-0.755859	-0.004202	37.3531	-0.754459	-1.081198E+10	3.886806E-13	NaN
771	1.000000	0.315282	7.3726e+06	-38689.1	1055.82	-29796.6	0.000000	0.000000	6.314862	0.031142	NaN	0.000000	0.001733	0.001702	28.0817	0.062904	0.002007	31.3403	137.581	-168.705	0.067024	0.313966	-0.746535	-0.747852	0.031142	31.3403	-0.747281	-8.633749E+9	-3.607030E-12	NaN
771	1.000000	0.323291	7.3726e+06	-38689.1	1055.82	-29796.6	0.000000	0.000000	6.322870	0.007527	NaN	0.000000	0.001704	0.001718	28.0817	0.096067	0.002040	47.0962	-105.154	-166.205	0.046906	0.321982	-0.738527	-0.739835	0.007527	47.0962	-0.738646	-6.585965E+9	-1.142822E-12	NaN
771	1.000000	0.331298	7.3726e+06	-38689.1	1055.82	-29796.6	0.000000	0.000000	6.330878	0.046815	NaN	0.000000	0.001725	0.001752	28.0819	0.094475	0.002084	45.3436	3.598829	-165.346	0.045063	0.329998	-0.730520	-0.731820	0.046815	45.3436	-0.731294	-5.229340E+9	-8.952380E-12	NaN
771	1.000000	0.339309	7.3726e+06	-38689.1	1055.82	-29796.6	0.000000	0.000000	6.338885	-0.070025	NaN	0.000000	0.001781	0.001686	28.0815	0.126661	0.001908	66.3976	-113.006	-162.469	-0.122393	0.338003	-0.722509	-0.723815	-0.070025	66.3976	-0.721718	-3.871673E+9	1.808657E-11	NaN
771	1.000000	0.347275	7.3726e+06	-38689.1	1055.82	-29796.6	0.000000	0.000000	6.346854	-0.001571	NaN	0.000000	0.001691	0.001767	28.0817	0.013481	0.002200	6.127515	29.9276	-167.497	0.072415	0.346017	-0.714542	-0.715800	-0.001571	6.127515	-0.714350	-3.071894E+9	5.115083E-13	NaN
771	1.000000	0.355284	7.3726e+06	-38689.1	1055.82	-29796.6	0.000000	0.000000	6.354860	-0.074021	NaN	0.000000	0.001710	0.001759	28.0818	0.080738	0.002015	40.0776	14.9766	-165.469	-0.080549	0.354041	-0.706533	-0.707776	-0.074021	40.0776	-0.705148	-2.300495E+9	3.217619E-11	NaN
771	1.000000	0.363316	7.3726e+06	-38689.1	1055.82	-29796.6	0.000000	0.000000	6.362896	0.036575	NaN	0.000000	0.001693	0.001720	28.082	0.068134	0.001947	34.9947	-137.69	-167.817	0.021841	0.362008	-0.698502	-0.699810	0.036575	34.9947	-0.699286	-1.913270E+9	-1.911666E-11	NaN
771	1.000000	0.371293	7.3726e+06	-38689.1	1055.82	-29796.6	0.000000	0.000000	6.370871	-0.019304	NaN	0.000000	0.001693	0.001714	28.0821	0.098863	0.001940	50.9542	-146.84	-168.95	0.073636	0.370036	-0.690524	-0.691781	-0.019304	50.9542	-0.690240	-1.439452E+9	1.341037E-11	NaN
771	1.000000	0.379328	7.3726e+06	-38689.1	1055.82	-29796.6	0.000000	0.000000	6.378905	-0.048489	NaN	0.000000	0.001676	0.001699	28.0819	0.081949	0.001946	42.1134	-26.3771	-164.568	-0.081983	0.378020	-0.682489	-0.683798	-0.048489	42.1134	-0.681626	-1.097588E+9	4.417780E-11	NaN
771	1.000000	0.387326	7.3726e+06	-38689.1	1055.82	-29796.6	0.000000	0.000000	6.386904	-0.018205	NaN	0.000000	0.001702	0.001669	28.082	0.083967	0.002017	41.6203	-173.253	-169.143	-0.017511	0.386059	-0.674491	-0.675759	-0.018205	41.6203	-0.674163	-8.676862E+8	2.098067E-11	NaN
771	1.000000	0.395328	7.3726e+06	-38689.1	1055.82	-29796.6	0.000000	0.000000	6.394907	0.010710	NaN	0.000000	0.001658	0.001720	28.0819	0.078715	0.002089	37.6789	-62.2833	-168.833	0.007146	0.393960	-0.666490	-0.667857	0.010710	37.6789	-0.666703	-6.858949E+8	-1.561391E-11	NaN
771	1.000000	0.403291	7.3726e+06	-38689.1	1055.82	-29796.6	0.000000	0.000000	6.402870	0.004433	NaN	0.000000	0.001656	0.001732	28.0831	0.080465	0.001978	40.6841	155.602	-164.984	-0.031666	0.402017	-0.658526	-0.659800	0.004433	40.6841	-0.658608	-5.313723E+8	-8.342352E-12	NaN
771	1.000000	0.411328	7.3726e+06	-38689.1	1055.82	-29796.6	0.000000	0.000000	6.410907	0.027398	NaN	0.000000	0.001679	0.001704	28.0832	0.028208	0.002015	13.9961	11.7544	-165.581	0.007223	0.409960	-0.650490	-0.651858	0.027398	13.9961	-0.651958	-4.308010E+8	-6.359850E-11	NaN
771	1.000000	0.419333	7.3726e+06	-38689.1	1055.82	-29796.6	0.000000	0.000000	6.418914	0.066688	NaN	0.000000	0.001691	0.001719	28.0829	0.017268	0.001939	8.907256	-53.3715	-165.53	-0.000732	0.417995	-0.642485	-0.643822	0.066688	8.907256	-0.648100	-3.814049E+8	-1.748470E-10	NaN
771	1.000000	0.427328	7.3726e+06	-38689.1	1055.82	-29796.6	0.000000	0.000000	6.426906	-0.018105	NaN	0.000000	0.001698	0.001717	28.0829	0.033977	0.002076	16.3677	-99.1922	-165.436	-0.050426	0.426053	-0.634490	-0.635764	-0.018105	16.3677	-0.633660	-2.417000E+8	7.490824E-11	NaN
771	1.000000	0.435354	7.3726e+06	-38689.1	1055.82	-29796.6	0.000000	0.000000	6.434934	0.054479	NaN	0.000000	0.001683	0.001735	28.0829	0.044786	0.002157	20.7674	-55.6845	-165.164	0.056776	0.434012	-0.626464	-0.627806	0.054479	20.7674	-0.628431	-2.048716E+8	-2.659197E-10	NaN
771	1.000000	0.443319	7.3726e+06	-38689.1	1055.82	-29796.6	0.000000	0.000000	6.442897	-0.023838	NaN	0.000000	0.001657	0.001718	28.083	0.079906	0.001978	40.3884	132.891	-167.685	0.034620	0.442023	-0.618498	-0.619794	-0.023838	40.3884	-0.618056	-1.475391E+8	1.615736E-10	NaN
771	1.000000	0.451334	7.3726e+06	-38689.1	1055.82	-29796.6	0.000000	0.000000	6.450915	0.073399	NaN	0.000000	0.001690	0.001721	28.0831	0.060144	0.002030	29.6237	50.279	-161.772	0.091383	0.449965	-0.610484	-0.611852	0.073399	29.6237	-0.612342	-1.231222E+8	-5.961496E-10	NaN
771	1.000000	0.459350	7.3726e+06	-38689.1	1055.82	-29796.6	0.000000	0.000000	6.458928	-0.020463	NaN	0.000000	0.001690	0.001712	28.0832	0.057062	0.001932	29.5388	145.374	-167.677	0.029515	0.458057	-0.602467	-0.603760	-0.020463	29.5388	-0.601948	-8.856962E+7	2.310411E-10	NaN
771	1.000000	0.467359	7.3726e+06	-38689.1	1055.82	-29796.6	0.000000	0.000000	6.466940	0.048517	NaN	0.000000	0.001707	0.001713	28.0829	0.137123	0.001918	71.4839	-118.357	-166.734	0.016432	0.466028	-0.594458	-0.595789	0.048517	71.4839	-0.594967	-7.097900E+7	-6.835363E-10	NaN
771	1.000000	0.475366	7.3726e+06	-38689.1	1055.82	-29796.6	0.000000	0.000000	6.474950	0.124253	NaN	0.000000	0.001714	0.001704	28.0831	0.021917	0.001994	10.9889	44.4975	-166.244	0.033900	0.474079	-0.586451	-0.587738	0.124253	10.9889	-0.594932	-7.089859E+7	-1.752547E-9	NaN
771	1.000000	0.483337	7.3726e+06	-38689.1	1055.82	-29796.6	0.000000	0.000000	6.482915	-0.014613	NaN	0.000000	0.001686	0.001711	28.0832	0.035703	0.002051	17.4062	8.822006	-169.502	-0.046511	0.482054	-0.578480	-0.579763	-0.014613	17.4062	-0.577851	-4.121517E+7	3.545579E-10	NaN
771	1.000000	0.491362	7.3726e+06	-38689.1	1055.82	-29796.6	0.000000	0.000000	6.490942	0.047308	NaN	0.000000	0.001680	0.001682	28.0832	0.099259	0.002144	46.306	81.8813	-167.325	0.031943	0.490044	-0.570456	-0.571773	0.047308	46.306	-0.571222	-3.338234E+7	-1.417147E-9	NaN
771	1.000000	0.499325	7.3726e+06	-38689.1	1055.82	-29796.6	0.000000	0.000000	6.498905	0.018711	NaN	0.000000	0.001706	0.001718	28.0841	0.052794	0.002015	26.1965	-162.4	-165.395	0.079695	0.498070	-0.562492	-0.563747	0.018711	26.1965	-0.563028	-2.571916E+7	-7.275020E-10	NaN
771	1.000000	0.507378	7.3726e+06	-38689.1	1055.82	-29796.6	0.000000	0.000000	6.506960	0.079560	NaN	0.000000	0.001714	0.001707	28.083	0.123249	0.001912	64.4501	75.429	-169.141	-0.015286	0.506022	-0.554439	-0.555796	0.079560	64.4501	-0.555365	-2.014838E+7	-3.948689E-9	NaN
771	1.000000	0.515361	7.3726e+06	-38689.1	1055.82	-29796.6	0.000000	0.000000	6.514940	-0.005443	NaN	0.000000	0.001738	0.001710	28.0833	0.021088	0.001940	10.8714	-164.256	-163.81	0.013387	0.514064	-0.546456	-0.547753	-0.005443	10.8714	-0.546081	-1.498494E+7	3.632229E-10	NaN
771	1.000000	0.523362	7.3726e+06	-38689.1	1055.82	-29796.6	0.000000	0.000000	6.522941	0.020540	NaN	0.000000	0.001712	0.001711	28.0831	0.076822	0.001990	38.6083	107.677	-168.606	0.050484	0.522077	-0.538456	-0.539740	0.020540	38.6083	-0.538855	-1.189800E+7	-1.726326E-9	NaN
771	1.000000	0.531373	7.3726e+06	-38689.1	1055.82	-29796.6	0.000000	0.000000	6.530953	0.047817	NaN	0.000000	0.001720	0.001738	28.0831	0.067068	0.002079	32.2593	151.143	-167.65	0.095255	0.530048	-0.530445	-0.531770	0.047817	32.2593	-0.531556	-9.42299e+06	-5.074480E-9	NaN
771	1.000000	0.539393	7.3726e+06	-38689.1	1055.82	-29796.6	0.000000	0.000000	6.538973	0.040053	NaN	0.000000	0.001703	0.001731	28.082	0.041523	0.002032	20.4348	-14.6362	-168.012	0.056107	0.538086	-0.522425	-0.523732	0.040053	20.4348	-0.523895	-7.37483e+06	-5.431087E-9	NaN
771	1.000000	0.547374	7.3726e+06	-38689.1	1055.82	-29796.6	0.000000	0.000000	6.546954	0.024919	NaN	0.000000	0.001713	0.001703	28.0818	0.070679	0.002247	31.4572	-176.236	-165.356	0.044367	0.546044	-0.514443	-0.515773	0.024919	31.4572	-0.515037	-5.5533e+06	-4.487302E-9	NaN
771	1.000000	0.555383	7.3726e+06	-38689.1	1055.82	-29796.6	0.000000	0.000000	6.554962	0.016019	NaN	0.000000	0.001743	0.001651	28.082	0.058184	0.002137	27.2206	160.244	-168.199	0.029450	0.554082	-0.506435	-0.507736	0.016019	27.2206	-0.506876	-4.27457e+06	-3.747595E-9	NaN
771	1.000000	0.563415	7.3726e+06	-38689.1	1055.82	-29796.6	0.000000	0.000000	6.562995	0.036380	NaN	0.000000	0.001735	0.001676	28.0818	0.074439	0.001839	40.4835	-160.079	-167.907	0.146082	0.562056	-0.498403	-0.499761	0.036380	40.4835	-0.499077	-3.32767e+06	-1.093249E-8	NaN
771	1.000000	0.571381	7.3726e+06	-38689.1	1055.82	-29796.6	0.000000	0.000000	6.570962	0.075652	NaN	0.000000	0.001713	0.001682	28.0818	0.092048	0.001889	48.7348	-142.584	-162.712	0.074245	0.570078	-0.490437	-0.491740	0.075652	48.7348	-0.491601	-2.61677e+06	-2.891055E-8	NaN
771	1.000000	0.579408	7.3726e+06	-38689.1	1055.82	-29796.6	0.000000	0.000000	6.578987	0.018428	NaN	0.000000	0.001737	0.001679	28.0817	0.089506	0.001843	48.5686	-115.138	-170.533	0.064852	0.578104	-0.482410	-0.483714	0.018428	48.5686	-0.482695	-1.96444e+06	-9.380856E-9	NaN
771	1.000000	0.587398	7.3726e+06	-38689.1	1055.82	-29796.6	0.000000	0.000000	6.586976	-0.015973	NaN	0.000000	0.001731	0.001700	28.0816	0.111799	0.001962	56.975	-100.788	-165.266	-0.009802	0.586057	-0.474420	-0.475761	-0.015973	56.975	-0.474210	-1.49425e+06	1.068959E-8	NaN
771	1.000000	0.595401	7.3726e+06	-38689.1	1055.82	-29796.6	0.000000	0.000000	6.594980	0.012469	NaN	0.000000	0.001702	0.001734	28.0818	0.046770	0.002072	22.5669	177.245	-164.268	0.068250	0.594086	-0.466417	-0.467732	0.012469	22.5669	-0.466831	-1.17746e+06	-1.058966E-8	NaN
771	1.000000	0.603385	7.3726e+06	-38689.1	1055.82	-29796.6	0.000000	0.000000	6.602967	0.090591	NaN	0.000000	0.001719	0.001739	28.0816	0.091823	0.001934	47.4672	119.895	-163.951	0.131990	0.602111	-0.458433	-0.459706	0.090591	47.4672	-0.459864	-939955	-9.637762E-8	NaN
771	1.000000	0.611427	7.3726e+06	-38689.1	1055.82	-29796.6	0.000000	0.000000	6.611009	0.084413	NaN	0.000000	0.001664	0.001711	28.0818	0.058787	0.002105	27.922	-41.0367	-166.137	0.039809	0.610092	-0.450391	-0.451725	0.084413	27.922	-0.452658	-744333	-1.134083E-7	NaN
771	1.000000	0.619409	7.3726e+06	-38689.1	1055.82	-29796.6	0.000000	0.000000	6.618987	-0.015449	NaN	0.000000	0.001678	0.001702	28.0816	0.041481	0.002067	20.0708	130.102	-167.753	0.007525	0.618085	-0.442409	-0.443733	-0.015449	20.0708	-0.441831	-523849	2.949212E-8	NaN
771	1.000000	0.627410	7.3726e+06	-38689.1	1055.82	-29796.6	0.000000	0.000000	6.626993	0.104266	NaN	0.000000	0.001719	0.001732	28.0816	0.056951	0.002092	27.2222	-96.5055	-165.371	0.054229	0.626114	-0.434408	-0.435703	0.104266	27.2222	-0.437281	-451825	-2.307671E-7	NaN
771	1.000000	0.635401	7.3726e+06	-38689.1	1055.82	-29796.6	0.000000	0.000000	6.634982	0.045774	NaN	0.000000	0.001712	0.001720	28.0819	0.065040	0.001973	32.9714	-175.24	-164.861	0.052186	0.634080	-0.426417	-0.427738	0.045774	32.9714	-0.427458	-328159	-1.394864E-7	NaN
771	1.000000	0.643435	7.3726e+06	-38689.1	1055.82	-29796.6	0.000000	0.000000	6.643015	0.016079	NaN	0.000000	0.001727	0.001712	28.0817	0.018059	0.001928	9.364671	-1.777875	-164.208	0.025584	0.642076	-0.418382	-0.419742	0.016079	9.364671	-0.419670	-254527	-6.317221E-8	NaN
771	1.000000	0.651426	7.3726e+06	-38689.1	1055.82	-29796.6	0.000000	0.000000	6.651006	0.043843	NaN	0.000000	0.001713	0.001720	28.082	0.029896	0.002095	14.2718	-81.0792	-167.971	0.075783	0.650181	-0.410392	-0.411636	0.043843	14.2718	-0.412696	-202638	-2.163624E-7	NaN
771	1.000000	0.659441	7.3726e+06	-38689.1	1055.82	-29796.6	0.000000	0.000000	6.659020	0.003469	NaN	0.000000	0.001700	0.001719	28.0819	0.060862	0.001989	30.6	31.1989	-167.606	0.047134	0.658093	-0.402377	-0.403725	0.003469	30.6	-0.402462	-144906	-2.393944E-8	NaN
771	1.000000	0.667447	7.3726e+06	-38689.1	1055.82	-29796.6	0.000000	0.000000	6.667025	-0.001382	NaN	0.000000	0.001670	0.001741	28.0818	0.011248	0.002030	5.540054	20.4383	-166.536	0.071214	0.666112	-0.394371	-0.395705	-0.001382	5.540054	-0.394184	-110402	1.251345E-8	NaN
771	1.000000	0.675435	7.3726e+06	-38689.1	1055.82	-29796.6	0.000000	0.000000	6.675015	0.041268	NaN	0.000000	0.001721	0.001707	28.0831	0.015214	0.002045	7.441370	12.4044	-163.367	0.094127	0.674129	-0.386383	-0.387688	0.041268	7.441370	-0.390542	-97930.9	-4.213993E-7	NaN
771	1.000000	0.683456	7.3726e+06	-38689.1	1055.82	-29796.6	0.000000	0.000000	6.683036	0.027372	NaN	0.000000	0.001674	0.001733	28.083	0.094082	0.001968	47.7993	-56.7129	-164.959	0.057691	0.682159	-0.378362	-0.379658	0.027372	47.7993	-0.378791	-66456.4	-4.118774E-7	NaN
771	1.000000	0.691434	7.3726e+06	-38689.1	1055.82	-29796.6	0.000000	0.000000	6.691013	0.002576	NaN	0.000000	0.001676	0.001718	28.0829	0.050989	0.001880	27.1193	89.0137	-166.154	0.005080	0.690122	-0.370384	-0.371695	0.002576	27.1193	-0.370455	-50428.5	-5.108191E-8	NaN
771	1.000000	0.699447	7.3726e+06	-38689.1	1055.82	-29796.6	0.000000	0.000000	6.699029	0.070834	NaN	0.000000	0.001696	0.001703	28.0831	0.030844	0.001969	15.6662	124.494	-165.516	0.053678	0.698087	-0.362370	-0.363730	0.070834	15.6662	-0.365761	-43155.5	-1.641369E-6	NaN
771	1.000000	0.707439	7.3726e+06	-38689.1	1055.82	-29796.6	0.000000	0.000000	6.707016	-0.020235	NaN	0.000000	0.001636	0.001733	28.0832	0.052453	0.002050	25.5834	-177.419	-166.037	0.001434	0.706198	-0.354379	-0.355619	-0.020235	25.5834	-0.353786	-28967.1	6.985563E-7	NaN
771	1.000000	0.715453	7.3726e+06	-38689.1	1055.82	-29796.6	0.000000	0.000000	6.715031	-0.005849	NaN	0.000000	0.001692	0.001734	28.083	0.138187	0.001954	70.7158	5.478446	-164.776	0.012517	0.714174	-0.346365	-0.347643	-0.005849	70.7158	-0.346303	-22557.8	2.593094E-7	NaN
771	1.000000	0.723428	7.3726e+06	-38689.1	1055.82	-29796.6	0.000000	0.000000	6.723007	0.007409	NaN	0.000000	0.001652	0.001750	28.0832	0.066857	0.001904	35.1121	1.608382	-168.029	-0.005305	0.722164	-0.338389	-0.339654	0.007409	35.1121	-0.338547	-17393	-4.259968E-7	NaN
771	1.000000	0.731440	7.3726e+06	-38689.1	1055.82	-29796.6	0.000000	0.000000	6.731021	0.067030	NaN	0.000000	0.001671	0.001730	28.0829	0.092967	0.002052	45.2987	152.529	-162.276	-0.047099	0.730156	-0.330378	-0.331661	0.067030	45.2987	-0.331488	-13716.1	-4.887000E-6	NaN
771	1.000000	0.739445	7.3726e+06	-38689.1	1055.82	-29796.6	0.000000	0.000000	6.739027	0.083619	NaN	0.000000	0.001643	0.001733	28.0831	0.039101	0.002199	17.7828	154.591	-166.766	0.102373	0.738180	-0.322373	-0.323638	0.083619	17.7828	-0.325899	-11358.9	-7.361543E-6	NaN
771	1.000000	0.747455	7.3726e+06	-38689.1	1055.82	-29796.6	0.000000	0.000000	6.747037	0.080793	NaN	0.000000	0.001669	0.001747	28.083	0.021883	0.002005	10.913	-155.195	-168.051	0.079672	0.746143	-0.314363	-0.315674	0.080793	10.913	-0.319915	-9276.68	-8.709270E-6	NaN
771	1.000000	0.755461	7.3726e+06	-38689.1	1055.82	-29796.6	0.000000	0.000000	6.755043	0.090848	NaN	0.000000	0.001689	0.001740	28.0829	0.107575	0.001988	54.1079	-73.6206	-167.84	0.084738	0.754175	-0.306357	-0.307642	0.090848	54.1079	-0.307616	-6105.9	-1.487870E-5	NaN
771	1.000000	0.763482	7.3726e+06	-38689.1	1055.82	-29796.6	0.000000	0.000000	6.763063	0.057452	NaN	0.000000	0.001638	0.001741	28.0831	0.129735	0.002016	64.3515	38.4297	-166.405	0.025346	0.762181	-0.298335	-0.299636	0.057452	64.3515	-0.299005	-4547.99	-1.263234E-5	NaN
771	1.000000	0.771460	7.3726e+06	-38689.1	1055.82	-29796.6	0.000000	0.000000	6.771042	0.085309	NaN	0.000000	0.001661	0.001754	28.0831	0.159401	0.002164	73.6681	-116.807	-168.428	0.077134	0.770178	-0.290358	-0.291640	0.085309	73.6681	-0.291226	-3480.69	-2.450933E-5	NaN
771	1.000000	0.779484	7.3726e+06	-38689.1	1055.82	-29796.6	0.000000	0.000000	6.779061	-0.061432	NaN	0.000000	0.001636	0.001752	28.0828	0.150343	0.001914	78.5364	-148.795	-166.143	0.001255	0.778158	-0.282333	-0.283660	-0.061432	78.5364	-0.281746	-2507.84	2.449574E-5	NaN
771	1.000000	0.787505	7.3726e+06	-38689.1	1055.82	-29796.6	0.000000	0.000000	6.787087	0.075038	NaN	0.000000	0.001665	0.001748	28.083	0.019409	0.002014	9.634762	33.7595	-165.238	0.106100	0.786148	-0.274312	-0.275670	0.075038	9.634762	-0.280153	-2372.93	-3.162241E-5	NaN
771	1.000000	0.795461	7.3726e+06	-38689.1	1055.82	-29796.6	0.000000	0.000000	6.795042	0.058367	NaN	0.000000	0.001670	0.001734	28.083	0.057998	0.001974	29.3884	-7.064836	-165.634	-0.021238	0.794186	-0.266357	-0.267631	0.058367	29.3884	-0.267846	-1544.47	-3.779116E-5	NaN
771	1.000000	0.803468	7.3726e+06	-38689.1	1055.82	-29796.6	0.000000	0.000000	6.803051	0.083658	NaN	0.000000	0.001664	0.001698	28.0833	0.040880	0.001919	21.3003	137.394	-164.288	0.085161	0.802160	-0.258349	-0.259657	0.083658	21.3003	-0.261295	-1226.73	-6.819600E-5	NaN
771	1.000000	0.811458	7.3726e+06	-38689.1	1055.82	-29796.6	0.000000	0.000000	6.811040	0.068797	NaN	0.000000	0.001687	0.001705	28.082	0.010154	0.002047	4.961439	171.777	-165.968	0.048620	0.810184	-0.250359	-0.251633	0.068797	4.961439	-0.260759	-1203.77	-5.715129E-5	NaN
771	1.000000	0.819504	7.3726e+06	-38689.1	1055.82	-29796.6	0.000000	0.000000	6.819084	0.037707	NaN	0.000000	0.001681	0.001726	28.0818	0.030322	0.002041	14.8582	-25.314	-169.654	0.049868	0.818147	-0.242313	-0.243670	0.037707	14.8582	-0.244217	-668.768	-5.638285E-5	NaN
771	1.000000	0.827497	7.3726e+06	-38689.1	1055.82	-29796.6	0.000000	0.000000	6.827075	-0.014578	NaN	0.000000	0.001713	0.001704	28.0818	0.066926	0.002057	32.5397	152.939	-166.296	-0.021093	0.826169	-0.234320	-0.235649	-0.014578	32.5397	-0.233984	-462.693	3.150722E-5	NaN
771	1.000000	0.835504	7.3726e+06	-38689.1	1055.82	-29796.6	0.000000	0.000000	6.835084	0.035897	NaN	0.000000	0.001659	0.001746	28.082	0.068294	0.001930	35.3783	25.9135	-163.636	0.019716	0.834172	-0.226313	-0.227646	0.035897	35.3783	-0.227074	-359.949	-9.972702E-5	NaN
771	1.000000	0.843494	7.3726e+06	-38689.1	1055.82	-29796.6	0.000000	0.000000	6.843073	0.007918	NaN	0.000000	0.001674	0.001726	28.0821	0.095540	0.002085	45.815	49.127	-165.335	0.103332	0.842210	-0.218323	-0.219607	0.007918	45.815	-0.218453	-262.377	-3.017627E-5	NaN
771	1.000000	0.851489	7.3726e+06	-38689.1	1055.82	-29796.6	0.000000	0.000000	6.851069	0.038677	NaN	0.000000	0.001642	0.001753	28.0819	0.110842	0.001817	61.0189	75.5728	-165.163	-0.004954	0.850238	-0.210329	-0.211580	0.038677	61.0189	-0.210804	-197.623	-0.000196	NaN
771	1.000000	0.859500	7.3726e+06	-38689.1	1055.82	-29796.6	0.000000	0.000000	6.859082	0.084334	NaN	0.000000	0.001694	0.001761	28.082	0.084496	0.001941	43.5269	-48.227	-163.411	0.040658	0.858183	-0.202317	-0.203635	0.084334	43.5269	-0.203770	-151.874	-0.000555	NaN
771	1.000000	0.867519	7.3726e+06	-38689.1	1055.82	-29796.6	0.000000	0.000000	6.867101	0.087871	NaN	0.000000	0.001690	0.001746	28.0819	0.067916	0.002094	32.4361	53.2158	-164.239	0.007479	0.866167	-0.194299	-0.195651	0.087871	32.4361	-0.196331	-114.61	-0.000767	NaN
771	1.000000	0.875522	7.3726e+06	-38689.1	1055.82	-29796.6	0.000000	0.000000	6.875100	-0.025185	NaN	0.000000	0.001668	0.001750	28.0818	0.082153	0.002145	38.3077	-102.103	-166.062	0.003200	0.874168	-0.186295	-0.187649	-0.025185	38.3077	-0.185802	-76.4966	0.000329	NaN
771	1.000000	0.883523	7.3726e+06	-38689.1	1055.82	-29796.6	0.000000	0.000000	6.883104	0.050117	NaN	0.000000	0.001674	0.001778	28.0819	0.093444	0.001856	50.3593	-5.335196	-166.13	0.062504	0.882226	-0.178294	-0.179592	0.050117	50.3593	-0.179041	-58.7668	-0.000853	NaN
771	1.000000	0.891536	7.3726e+06	-38689.1	1055.82	-29796.6	0.000000	0.000000	6.891115	0.021673	NaN	0.000000	0.001698	0.001732	28.0815	0.025337	0.001952	12.9769	15.1674	-166.907	0.035619	0.890234	-0.170282	-0.171584	0.021673	12.9769	-0.171535	-43.6734	-0.000496	NaN
771	1.000000	0.899504	7.3726e+06	-38689.1	1055.82	-29796.6	0.000000	0.000000	6.899082	-0.026212	NaN	0.000000	0.001653	0.001737	28.0817	0.015246	0.001867	8.165981	33.1271	-165.478	0.048902	0.898243	-0.162313	-0.163575	-0.026212	8.165981	-0.159906	-27.3092	0.000960	NaN
771	1.000000	0.907518	7.3726e+06	-38689.1	1055.82	-29796.6	0.000000	0.000000	6.907096	-0.004337	NaN	0.000000	0.001655	0.001767	28.0819	0.041060	0.001973	20.8121	138.986	-167.622	0.026844	0.906207	-0.154300	-0.155610	-0.004337	20.8121	-0.154143	-21.5351	0.000201	NaN
771	1.000000	0.915515	7.3726e+06	-38689.1	1055.82	-29796.6	0.000000	0.000000	6.915096	0.057456	NaN	0.000000	0.001676	0.001757	28.0818	0.041642	0.002087	19.9525	78.0852	-165.691	0.022035	0.914220	-0.146303	-0.147597	0.057456	19.9525	-0.148462	-16.9785	-0.003384	NaN
771	1.000000	0.923543	7.3726e+06	-38689.1	1055.82	-29796.6	0.000000	0.000000	6.923122	0.009170	NaN	0.000000	0.001705	0.001737	28.0817	0.077645	0.002001	38.7944	8.246117	-171.571	-0.035155	0.922172	-0.138275	-0.139645	0.009170	38.7944	-0.138452	-11.0617	-0.000829	NaN
771	1.000000	0.931545	7.3726e+06	-38689.1	1055.82	-29796.6	0.000000	0.000000	6.931122	-0.028269	NaN	0.000000	0.001689	0.001736	28.0817	0.117964	0.001959	60.2033	-67.931	-165.093	-0.041856	0.930195	-0.130273	-0.131623	-0.028269	60.2033	-0.129920	-7.593890	0.003723	NaN
771	1.000000	0.939541	7.3726e+06	-38689.1	1055.82	-29796.6	0.000000	0.000000	6.939122	0.044819	NaN	0.000000	0.001711	0.001734	28.0817	0.040273	0.002033	19.8059	-105.648	-167.131	0.068177	0.938215	-0.122276	-0.123602	0.044819	19.8059	-0.123973	-5.802854	-0.007724	NaN
771	1.000000	0.947563	7.3726e+06	-38689.1	1055.82	-29796.6	0.000000	0.000000	6.947146	0.118060	NaN	0.000000	0.001689	0.001803	28.0828	0.026081	0.002023	12.8938	-54.1663	-167.662	0.111291	0.946213	-0.114255	-0.115605	0.118060	12.8938	-0.121122	-5.089539	-0.023197	NaN
771	1.000000	0.955524	7.3726e+06	-38689.1	1055.82	-29796.6	0.000000	0.000000	6.955103	0.011958	NaN	0.000000	0.001699	0.001781	28.0831	0.161546	0.001880	85.9239	174.612	-162.553	0.078012	0.954204	-0.106294	-0.107614	0.011958	85.9239	-0.106398	-2.519279	-0.004747	NaN
771	1.000000	0.963571	7.3726e+06	-38689.1	1055.82	-29796.6	0.000000	0.000000	6.963146	-0.099208	NaN	0.000000	0.001756	0.001753	28.0832	0.082650	0.002030	40.7167	164.008	-167.687	-0.095567	0.962242	-0.098246	-0.099576	-0.099208	40.7167	-0.096419	-1.519207	0.065302	NaN
771	1.000000	0.971560	7.3726e+06	-38689.1	1055.82	-29796.6	0.000000	0.000000	6.971140	0.023280	NaN	0.000000	0.001711	0.001756	28.0831	0.027983	0.002064	13.5546	118.803	-164.714	-0.069800	0.970280	-0.090257	-0.091538	0.023280	13.5546	-0.091545	-1.174648	-0.019819	NaN
771	1.000000	0.979530	7.3726e+06	-38689.1	1055.82	-29796.6	0.000000	0.000000	6.979110	0.037304	NaN	0.000000	0.001666	0.001756	28.0828	0.039110	0.001861	21.0149	-137.736	-170.901	0.088404	0.978254	-0.082288	-0.083563	0.037304	21.0149	-0.083619	-0.760516	-0.049051	NaN
771	1.000000	0.987562	7.3726e+06	-38689.1	1055.82	-29796.6	0.000000	0.000000	6.987139	-0.029591	NaN	0.000000	0.001680	0.001769	28.083	0.041495	0.002054	20.1983	-55.0672	-161.279	-0.061318	0.986285	-0.074256	-0.075533	-0.029591	20.1983	-0.073157	-0.413551	0.071552	NaN
771	1.000000	0.995563	7.3726e+06	-38689.1	1055.82	-29796.6	0.000000	0.000000	6.995144	0.068030	NaN	0.000000	0.001697	0.001728	28.0829	0.094919	0.001958	48.4793	-14.3525	-165.057	0.030554	0.994266	-0.066255	-0.067551	0.068030	48.4793	-0.067307	-0.288453	-0.235845	NaN
771	1.000000	1.003572	7.3726e+06	-38689.1	1055.82	-29796.6	0.000000	0.000000	7.003151	0.008495	NaN	0.000000	0.001669	0.001729	28.0829	0.069487	0.002023	34.3475	-144.129	-167.863	0.055119	1.002297	-0.058246	-0.059521	0.008495	34.3475	-0.058431	-0.162285	-0.052344	NaN
771	1.000000	1.011563	7.3726e+06	-38689.1	1055.82	-29796.6	0.000000	0.000000	7.011143	0.023279	NaN	0.000000	0.001679	0.001731	28.083	0.085955	0.002018	42.5842	-158.487	-165.7	-0.050217	1.010251	-0.050255	-0.051567	0.023279	42.5842	-0.050665	-0.095567	-0.243583	NaN
771	1.000000	1.019567	7.3726e+06	-38689.1	1055.82	-29796.6	0.000000	0.000000	7.019146	0.004769	NaN	0.000000	0.001686	0.001755	28.0827	0.007999	0.001861	4.298914	-107.384	-164.134	-0.065089	1.018232	-0.042250	-0.043586	0.004769	4.298914	-0.043082	-0.056150	-0.084941	NaN
771	1.000000	1.027572	7.3726e+06	-38689.1	1055.82	-29796.6	0.000000	0.000000	7.027152	0.013157	NaN	0.000000	0.001686	0.001778	28.0832	0.064562	0.001952	33.067	-52.0035	-165.116	0.073666	1.026286	-0.034245	-0.035532	0.013157	33.067	-0.034543	-0.031050	-0.423719	NaN
771	1.000000	1.035587	7.3726e+06	-38689.1	1055.82	-29796.6	0.000000	0.000000	7.035167	0.033541	NaN	0.000000	0.001674	0.001774	28.083	0.067063	0.001950	34.3834	-52.3177	-166.349	0.060403	1.034260	-0.026231	-0.027557	0.033541	34.3834	-0.026963	-0.019011	-1.764312	NaN
771	1.000000	1.043571	7.3726e+06	-38689.1	1055.82	-29796.6	0.000000	0.000000	7.043152	0.053238	NaN	0.000000	0.001642	0.001746	28.0829	0.063020	0.001937	32.5413	-32.7471	-166.286	0.049360	1.042266	-0.018247	-0.019552	0.053238	32.5413	-0.019474	-0.012179	-4.371258	NaN
771	1.000000	1.051576	7.3726e+06	-38689.1	1055.82	-29796.6	0.000000	0.000000	7.051159	0.093019	NaN	0.000000	0.001679	0.001791	28.0828	0.068982	0.002044	33.7411	15.1761	-165.272	0.070169	1.050262	-0.010241	-0.011555	0.093019	33.7411	-0.012309	-0.007705	-12.0722	NaN
771	1.000000	1.059593	7.3726e+06	-38689.1	1055.82	-29796.6	0.000000	0.000000	7.059188	0.397057	NaN	0.000000	0.001631	0.001764	28.0829	0.665855	0.001903	349.949	20.485	-167.036	0.109591	1.058224	-0.002225	-0.003593	0.397057	349.949	-0.003076	-0.002171	-182.879	NaN
771	2.000000	1.067058	7.3726e+06	-38689.1	1055.82	-29796.6	0.000000	0.000000	7.066987	8.524965	NaN	0.000000	0.001635	0.001739	28.0828	7.930859	0.001795	4417.93	6.322222	-169.358	7.674299	1.066221	0.005241	0.004404	8.524965	4417.93	0.003794	0.003059	2786.96	72981.3
771	2.000000	1.069241	7.3726e+06	-38689.1	1055.82	-29796.6	0.000000	0.000000	7.069270	10.9779	NaN	0.000000	0.001689	0.001711	28.0828	9.605195	0.001633	5883.15	11.3305	-176.096	11.1587	1.068879	0.007423	0.007062	10.9779	5883.15	0.006024	0.005087	2158.02	75361.6
771	2.000000	1.071174	7.3726e+06	-38689.1	1055.82	-29796.6	0.000000	0.000000	7.071304	13.4226	NaN	0.000000	0.001640	0.001727	28.0821	12.0411	0.001822	6607.71	7.872405	-172.02	13.8359	1.070912	0.009356	0.009095	13.4226	6607.71	0.007833	0.006871	1953.49	72830.2
771	2.000000	1.073172	7.3726e+06	-38689.1	1055.82	-29796.6	0.000000	0.000000	7.073403	15.8668	NaN	0.000000	0.001689	0.001711	28.0815	13.8229	0.001852	7461.77	7.089760	-174.411	13.964	1.072856	0.011354	0.011038	15.8668	7461.77	0.009760	0.008916	1779.66	72200.4
771	2.000000	1.075169	7.3726e+06	-38689.1	1055.82	-29796.6	0.000000	0.000000	7.075545	19.4013	NaN	0.000000	0.001669	0.001724	28.0819	16.5305	0.001922	8599.5	8.498691	-177.987	17.9787	1.074832	0.013352	0.013014	19.4013	8599.5	0.011660	0.011085	1750.24	74624.2
771	2.000000	1.077170	7.3726e+06	-38689.1	1055.82	-29796.6	0.000000	0.000000	7.077922	28.5431	NaN	0.000000	0.001687	0.001725	28.0817	17.6193	0.001581	11141.7	7.764833	-179.233	27.1253	1.076876	0.015352	0.015059	28.5431	11141.7	0.013431	0.013250	2154.23	88434.4
771	2.000000	1.079149	7.3726e+06	-38689.1	1055.82	-29796.6	0.000000	0.000000	7.079889	28.2662	NaN	0.000000	0.001683	0.001704	28.0817	18.5977	0.001673	11118.8	0.546459	-171.562	27.6732	1.078826	0.017331	0.017009	28.2662	11118.8	0.015424	0.015855	1782.74	80675.7
771	2.000000	1.081129	7.3726e+06	-38689.1	1055.82	-29796.6	0.000000	0.000000	7.082113	34.2049	NaN	0.000000	0.001681	0.001728	28.0816	22.4276	0.001706	13148.9	7.891603	-179.728	33.287	1.080814	0.019311	0.018996	34.2049	13148.9	0.017360	0.018563	1842.66	88174.2
771	2.000000	1.083165	7.3726e+06	-38689.1	1055.82	-29796.6	0.000000	0.000000	7.084332	38.661	NaN	0.000000	0.001678	0.001745	28.0819	23.4048	0.001866	12543.9	9.533718	-179.625	39.1099	1.082830	0.021348	0.021013	38.661	12543.9	0.019036	0.021050	1836.62	78991.5
771	2.000000	1.085121	7.3726e+06	-38689.1	1055.82	-29796.6	0.000000	0.000000	7.086595	46.1404	NaN	0.000000	0.001663	0.001721	28.0847	25.6529	0.001873	13693.9	3.624182	-175.197	43.9803	1.084813	0.023303	0.022995	46.1404	13693.9	0.020776	0.023776	1940.59	81138.7
771	2.000000	1.087126	7.3726e+06	-38689.1	1055.82	-29796.6	0.000000	0.000000	7.088499	43.6624	NaN	0.000000	0.001659	0.001719	28.0853	27.1935	0.001864	14588.8	7.552833	-179.559	42.2364	1.086828	0.025309	0.025011	43.6624	14588.8	0.023064	0.027588	1582.67	80248.2
771	2.000000	1.089119	7.3726e+06	-38689.1	1055.82	-29796.6	0.000000	0.000000	7.090879	53.0795	NaN	0.000000	0.001674	0.001731	28.0824	29.3168	0.001845	15886	9.397895	177.673	52.4014	1.088802	0.027302	0.026985	53.0795	15886	0.024796	0.030645	1732.05	82909.4
771	2.000000	1.091104	7.3726e+06	-38689.1	1055.82	-29796.6	0.000000	0.000000	7.093085	58.4631	NaN	0.000000	0.001725	0.001743	28.0822	30.5447	0.001641	18612.2	4.136207	-179.882	57.5489	1.090824	0.029286	0.029006	58.4631	18612.2	0.026931	0.034622	1688.63	91389.4
771	2.000000	1.093154	7.3726e+06	-38689.1	1055.82	-29796.6	0.000000	0.000000	7.095289	62.2263	NaN	0.000000	0.001672	0.001718	28.0817	32.4302	0.001820	17823.5	10.6314	176.841	62.6565	1.092762	0.031336	0.030945	62.2263	17823.5	0.028718	0.038128	1632.03	83395.5
771	2.000000	1.095104	7.3726e+06	-38689.1	1055.82	-29796.6	0.000000	0.000000	7.097524	69.1565	NaN	0.000000	0.001679	0.001736	28.082	34.5212	0.001757	19649.9	3.723337	-179.311	68.0402	1.094726	0.033286	0.032909	69.1565	19649.9	0.030647	0.042095	1642.89	87502.5
771	2.000000	1.097185	7.3726e+06	-38689.1	1055.82	-29796.6	0.000000	0.000000	7.100066	80.3569	NaN	0.000000	0.001669	0.001738	28.0819	37.1294	0.001883	19716.8	4.947716	-178.765	81.5683	1.096781	0.035367	0.034964	80.3569	19716.8	0.032311	0.045669	1759.53	84294.1
771	2.000000	1.099155	7.3726e+06	-38689.1	1055.82	-29796.6	0.000000	0.000000	7.102172	83.6645	NaN	0.000000	0.001644	0.001716	28.082	38.5923	0.001681	22957.2	4.153383	178.24	84.8869	1.098900	0.037338	0.037082	83.6645	22957.2	0.034604	0.050829	1646	93032.8
771	2.000000	1.101110	7.3726e+06	-38689.1	1055.82	-29796.6	0.000000	0.000000	7.104538	93.6694	NaN	0.000000	0.001664	0.001685	28.0817	42.165	0.001820	23163.7	8.117098	176.363	93.7692	1.100797	0.039293	0.038979	93.6694	23163.7	0.036260	0.054720	1711.8	90470.9
771	2.000000	1.103042	7.3726e+06	-38689.1	1055.82	-29796.6	0.000000	0.000000	7.106805	101.843	NaN	0.000000	0.001669	0.001676	28.0817	42.6476	0.001752	24345.3	5.336846	177.389	99.7749	1.102782	0.041224	0.040965	101.843	24345.3	0.038087	0.059178	1720.97	91434.6
771	2.000000	1.105027	7.3726e+06	-38689.1	1055.82	-29796.6	0.000000	0.000000	7.108969	106.192	NaN	0.000000	0.001717	0.001681	28.0823	44.6387	0.001770	25220.2	1.423543	-178.677	103.251	1.104745	0.043209	0.042927	106.192	25220.2	0.040051	0.064161	1655.1	90967.5
771	2.000000	1.107127	7.3726e+06	-38689.1	1055.82	-29796.6	0.000000	0.000000	7.111346	112.936	NaN	0.000000	0.001744	0.001679	28.0832	47.7064	0.001833	26020.2	5.228553	176.58	111.863	1.106816	0.045310	0.044998	112.936	26020.2	0.042054	0.069445	1626.25	90211.8
771	2.000000	1.109149	7.3726e+06	-38689.1	1055.82	-29796.6	0.000000	0.000000	7.113841	124.441	NaN	0.000000	0.001715	0.001683	28.0838	49.3394	0.001708	28883.4	7.037259	174.133	126.976	1.108828	0.047331	0.047011	124.441	28883.4	0.044100	0.075053	1658.05	96324.8
771	2.000000	1.111057	7.3726e+06	-38689.1	1055.82	-29796.6	0.000000	0.000000	7.116370	139.546	NaN	0.000000	0.001719	0.001706	28.083	51.571	0.001789	28829	6.081515	175.642	136.942	1.110747	0.049240	0.048929	139.546	28829	0.045609	0.079326	1759.13	93517.8
771	2.000000	1.113031	7.3726e+06	-38689.1	1055.82	-29796.6	0.000000	0.000000	7.118746	149.335	NaN	0.000000	0.001721	0.001688	28.0829	52.6964	0.001835	28718.2	6.898235	175.792	146.577	1.112697	0.051213	0.050879	149.335	28718.2	0.047313	0.084289	1771.7	90374.4
771	2.000000	1.115103	7.3726e+06	-38689.1	1055.82	-29796.6	0.000000	0.000000	7.121130	156.923	NaN	0.000000	0.001774	0.001677	28.0833	55.3648	0.001802	30729.1	4.424206	176.785	158.181	1.114721	0.053286	0.052904	156.923	30729.1	0.049456	0.090738	1729.41	93202.8
771	2.000000	1.117049	7.3726e+06	-38689.1	1055.82	-29796.6	0.000000	0.000000	7.123361	163.862	NaN	0.000000	0.001735	0.001725	28.0834	57.2608	0.001810	31630	3.205937	177.601	160.149	1.116813	0.055231	0.054996	163.862	31630	0.051346	0.096618	1695.98	92969.9
771	2.000000	1.119122	7.3726e+06	-38689.1	1055.82	-29796.6	0.000000	0.000000	7.125838	173.691	NaN	0.000000	0.001771	0.001702	28.0832	58.1586	0.001797	32366.3	3.833967	176.446	175.07	1.118854	0.057305	0.057036	173.691	32366.3	0.053280	0.102820	1689.26	92220.3
771	2.000000	1.121006	7.3726e+06	-38689.1	1055.82	-29796.6	0.000000	0.000000	7.128207	185.495	NaN	0.000000	0.001731	0.001665	28.0831	60.4164	0.001881	32118.7	3.944555	177.639	182.182	1.120795	0.059188	0.058978	185.495	32118.7	0.054857	0.108014	1717.32	89287.7
771	2.000000	1.123083	7.3726e+06	-38689.1	1055.82	-29796.6	0.000000	0.000000	7.130902	200.543	NaN	0.000000	0.001648	0.001687	28.0829	60.7702	0.001752	34694.9	3.912138	176.309	200.845	1.122709	0.061266	0.060892	200.543	34694.9	0.056930	0.115032	1743.37	93460.8
771	2.000000	1.125069	7.3726e+06	-38689.1	1055.82	-29796.6	0.000000	0.000000	7.133297	210.498	NaN	0.000000	0.001623	0.001684	28.0829	63.0804	0.001798	35084.9	4.018244	175.986	207.691	1.124733	0.063251	0.062915	210.498	35084.9	0.058751	0.121369	1734.37	92011.1
771	2.000000	1.127085	7.3726e+06	-38689.1	1055.82	-29796.6	0.000000	0.000000	7.135748	221.057	NaN	0.000000	0.001637	0.001720	28.083	65.3871	0.001963	33311.9	4.422884	176.627	220.385	1.126750	0.065268	0.064932	221.057	33311.9	0.060291	0.126854	1742.62	85451.9
771	2.000000	1.129033	7.3726e+06	-38689.1	1055.82	-29796.6	0.000000	0.000000	7.138183	232.931	NaN	0.000000	0.001641	0.001701	28.0833	66.4957	0.001852	35906.2	2.243951	177.471	229.833	1.128700	0.067215	0.066883	232.931	35906.2	0.062350	0.134369	1733.51	89493.8
771	2.000000	1.131036	7.3726e+06	-38689.1	1055.82	-29796.6	0.000000	0.000000	7.140765	247.034	NaN	0.000000	0.001640	0.001702	28.0832	69.7067	0.001789	38968.3	7.278534	171.683	243.751	1.130765	0.069218	0.068947	247.034	38968.3	0.064464	0.142299	1736.03	94380.9
771	2.000000	1.132997	7.3726e+06	-38689.1	1055.82	-29796.6	0.000000	0.000000	7.143238	259.471	NaN	0.000000	0.001652	0.001688	28.083	69.6713	0.001714	40647.7	3.205073	175.271	255.944	1.132775	0.071179	0.070957	259.471	40647.7	0.066392	0.149720	1733.05	95977.5
771	2.000000	1.135032	7.3726e+06	-38689.1	1055.82	-29796.6	0.000000	0.000000	7.145750	271.078	NaN	0.000000	0.001642	0.001706	28.0831	71.9743	0.001880	38282	4.709846	174.64	268.767	1.134772	0.073214	0.072954	271.078	38282	0.067903	0.155664	1741.43	88649
771	2.000000	1.137132	7.3726e+06	-38689.1	1055.82	-29796.6	0.000000	0.000000	7.148381	284.023	NaN	0.000000	0.001653	0.001675	28.083	73.9727	0.001829	40442.9	6.771730	172.328	285.991	1.136670	0.075314	0.074853	284.023	40442.9	0.070047	0.164280	1728.9	91164.1
771	2.000000	1.139046	7.3726e+06	-38689.1	1055.82	-29796.6	0.000000	0.000000	7.150803	296.379	NaN	0.000000	0.001594	0.001692	28.083	73.7946	0.001783	41389	2.154682	176.771	293.477	1.138697	0.077229	0.076879	296.379	41389	0.071858	0.171728	1725.87	91251
771	2.000000	1.141015	7.3726e+06	-38689.1	1055.82	-29796.6	0.000000	0.000000	7.153315	309.572	NaN	0.000000	0.001645	0.001709	28.0817	77.4267	0.001946	39785	3.057437	176.45	306.928	1.140655	0.079198	0.078838	309.572	39785	0.073362	0.178031	1738.87	86147.8
771	2.000000	1.143009	7.3726e+06	-38689.1	1055.82	-29796.6	0.000000	0.000000	7.155902	324.019	NaN	0.000000	0.001641	0.001700	28.0819	79.1862	0.001830	43265.3	9.337494	169.407	321.478	1.142764	0.081191	0.080946	324.019	43265.3	0.075574	0.187499	1728.11	91287.8
771	2.000000	1.144933	7.3726e+06	-38689.1	1055.82	-29796.6	0.000000	0.000000	7.158237	334.015	NaN	0.000000	0.001645	0.001669	28.0821	81.3725	0.001892	42997.5	6.096359	172.436	327.674	1.144656	0.083116	0.082838	334.015	42997.5	0.077290	0.194999	1712.91	88961.3
771	2.000000	1.147020	7.3726e+06	-38689.1	1055.82	-29796.6	0.000000	0.000000	7.161044	351.537	NaN	0.000000	0.001654	0.001656	28.0817	82.7685	0.001838	45020.9	4.527536	174.188	350.397	1.146740	0.085202	0.084923	351.537	45020.9	0.079346	0.204170	1721.78	91031.4
771	2.000000	1.148993	7.3726e+06	-38689.1	1055.82	-29796.6	0.000000	0.000000	7.163559	364.727	NaN	0.000000	0.001654	0.001657	28.0819	84.5288	0.001885	44846.5	4.197399	174.341	360.513	1.148610	0.087176	0.086793	364.727	44846.5	0.081076	0.212040	1720.08	88980.1
771	2.000000	1.150978	7.3726e+06	-38689.1	1055.82	-29796.6	0.000000	0.000000	7.166130	378.989	NaN	0.000000	0.001632	0.001661	28.0818	86.1062	0.001790	48112.2	3.642034	174.344	375.116	1.150705	0.089161	0.088887	378.989	48112.2	0.083253	0.222138	1706.1	93264.7
771	2.000000	1.153017	7.3726e+06	-38689.1	1055.82	-29796.6	0.000000	0.000000	7.168679	391.411	NaN	0.000000	0.001636	0.001655	28.0819	87.3713	0.001784	48987.8	6.182911	171.215	388.811	1.152750	0.091199	0.090933	391.411	48987.8	0.085207	0.231389	1691.57	93044.4
771	2.000000	1.155046	7.3726e+06	-38689.1	1055.82	-29796.6	0.000000	0.000000	7.171284	405.404	NaN	0.000000	0.001664	0.001666	28.0819	90.4492	0.001858	48688	7.247647	170.532	404.798	1.154691	0.093229	0.092874	405.404	48688	0.086984	0.239957	1689.49	90808.9
771	2.000000	1.157088	7.3726e+06	-38689.1	1055.82	-29796.6	0.000000	0.000000	7.174129	424.962	NaN	0.000000	0.001646	0.001722	28.0817	91.1236	0.001780	51199	4.687319	173.117	425.815	1.156758	0.095270	0.094941	424.962	51199	0.089045	0.250076	1699.33	93540.3
771	2.000000	1.159051	7.3726e+06	-38689.1	1055.82	-29796.6	0.000000	0.000000	7.176636	438.203	NaN	0.000000	0.001625	0.001663	28.0821	92.8416	0.001879	49422.5	6.040230	171.934	437.25	1.158665	0.097234	0.096847	438.203	49422.5	0.090584	0.257756	1700.07	88939.2
771	2.000000	1.160990	7.3726e+06	-38689.1	1055.82	-29796.6	0.000000	0.000000	7.179160	452.44	NaN	0.000000	0.001644	0.001635	28.0818	95.9398	0.001908	50295	4.672367	172.717	449.739	1.160800	0.099173	0.098983	452.44	50295	0.092426	0.267095	1693.93	88913
771	2.000000	1.163045	7.3726e+06	-38689.1	1055.82	-29796.6	0.000000	0.000000	7.182035	472.387	NaN	0.000000	0.001618	0.001655	28.082	96.0662	0.001842	52146.7	6.213836	171.455	473.356	1.162689	0.101228	0.100872	472.387	52146.7	0.094433	0.277448	1702.61	90450.1
771	2.000000	1.164969	7.3726e+06	-38689.1	1055.82	-29796.6	0.000000	0.000000	7.184630	488.709	NaN	0.000000	0.001614	0.001677	28.0817	98.5419	0.001809	54477.6	6.861487	170.096	485.655	1.164690	0.103152	0.102872	488.709	54477.6	0.096424	0.287894	1697.53	92763.1
771	2.000000	1.165490	7.3726e+06	-38689.1	1055.82	-29796.6	0.000000	0.000000	7.185319	492.817	NaN	0.000000	0.001582	0.001704	28.0818	98.3265	0.001825	53862.9	6.903987	-9.775763	490.037	1.165095	0.103672	0.103278	492.817	53862.9	0.096810	0.289943	1699.71	91391.8