File: remote_trans/data/nanoindenter/0828-1/data/Data_2025-08-06,11h17m57s/2025-07-22_16-23-58_1_165.txt
2025-07-22, 16:23:58, 1
Index	Phase	Displacement	Time	Pos X	Pos Y	Pos Z	Rot A	Rot B	Piezo Z	Force A	Force B	Gripper	Voltage A	Voltage B	Temperature	Amplitude force	Amplitude pos	Stiffness	Phase shift	Phase excitation	Force A raw	Displacement raw	HMax	HMax raw	Real Force	Real Stiffness	Contact Depth	Area	Hardness	Reduced Mod.
[#]	[#]	[um]	[s]	[um]	[um]	[um]	[m°]	[m°]	[um]	[uN]	[uN]	[V]	[V]	[V]	[°C]	[uN]	[um]	[N/m]	[°]	[°]	[uN]	[um]	[um]	[um]	[uN]	[N/m]	[um]	[um^2]	[MPa]	[MPa]
165	1.000000	0.002234	7.36665e+06	-46889.1	955.819	-29768.2	0.000000	0.000000	6.002794	0.016461	NaN	0.000000	0.001634	0.001623	28.1061	0.080182	0.000956	83.9152	-72.4558	-164.52	-0.004778	0.000966	-1.040641	-1.041908	0.016461	83.9152	-1.040788	-8.027167E+13	-2.050721E-16	NaN
165	1.000000	0.010215	7.36665e+06	-46889.1	955.819	-29768.2	0.000000	0.000000	6.010776	0.032999	NaN	0.000000	0.001654	0.001621	28.1042	0.034225	0.000970	35.2775	-14.9263	-159.45	0.106739	0.008905	-1.032660	-1.033969	0.032999	35.2775	-1.033361	-6.378044E+13	-5.173791E-16	NaN
165	1.000000	0.018225	7.36665e+06	-46889.1	955.819	-29768.2	0.000000	0.000000	6.018784	-0.012957	NaN	0.000000	0.001651	0.001591	28.1054	0.066219	0.001824	36.3083	65.0396	-164.404	0.018782	0.016855	-1.024650	-1.026019	-0.012957	36.3083	-1.024382	-4.829561E+13	2.682815E-16	NaN
165	1.000000	0.026231	7.36665e+06	-46889.1	955.819	-29768.2	0.000000	0.000000	6.026793	0.049920	NaN	0.000000	0.001608	0.001651	28.1052	0.021376	0.001837	11.6368	-61.8232	-166.126	0.064041	0.024908	-1.016643	-1.017966	0.049920	11.6368	-1.019861	-4.198323E+13	-1.189049E-15	NaN
165	1.000000	0.034191	7.36665e+06	-46889.1	955.819	-29768.2	0.000000	0.000000	6.034752	0.026983	NaN	0.000000	0.001593	0.001664	28.1034	0.012964	0.001860	6.971095	54.8795	-160.779	-0.031973	0.032877	-1.008683	-1.009997	0.026983	6.971095	-1.011587	-3.248888E+13	-8.305412E-16	NaN
165	1.000000	0.042191	7.36665e+06	-46889.1	955.819	-29768.2	0.000000	0.000000	6.042752	0.013475	NaN	0.000000	0.001594	0.001689	28.1052	0.022667	0.001977	11.4648	-9.690583	-164.657	0.030629	0.040902	-1.000683	-1.001972	0.013475	11.4648	-1.001565	-2.381406E+13	-5.658577E-16	NaN
165	1.000000	0.050188	7.36665e+06	-46889.1	955.819	-29768.2	0.000000	0.000000	6.050747	-0.022663	NaN	0.000000	0.001590	0.001653	28.1044	0.043574	0.001988	21.9204	115.81	-164.077	-0.039283	0.048924	-0.992686	-0.993951	-0.022663	21.9204	-0.991911	-1.765421E+13	1.283700E-15	NaN
165	1.000000	0.058202	7.36665e+06	-46889.1	955.819	-29768.2	0.000000	0.000000	6.058763	0.018972	NaN	0.000000	0.001581	0.001688	28.1052	0.086034	0.002053	41.9136	-95.917	-167.194	0.120294	0.056856	-0.984672	-0.986018	0.018972	41.9136	-0.985012	-1.425360E+13	-1.331019E-15	NaN
165	1.000000	0.066168	7.36665e+06	-46889.1	955.819	-29768.2	0.000000	0.000000	6.066729	0.023350	NaN	0.000000	0.001632	0.001679	28.1044	0.081496	0.001950	41.7968	-152.539	-165.559	-0.054982	0.064910	-0.976706	-0.977964	0.023350	41.7968	-0.977125	-1.116042E+13	-2.092233E-15	NaN
165	1.000000	0.074155	7.36665e+06	-46889.1	955.819	-29768.2	0.000000	0.000000	6.074719	0.086150	NaN	0.000000	0.001583	0.001688	28.105	0.067382	0.002028	33.2235	145.818	-166.791	0.067641	0.072858	-0.968719	-0.970016	0.086150	33.2235	-0.970664	-9.133036E+12	-9.432747E-15	NaN
165	1.000000	0.082177	7.36665e+06	-46889.1	955.819	-29768.2	0.000000	0.000000	6.082738	0.015771	NaN	0.000000	0.001617	0.001682	28.1035	0.065131	0.002137	30.4729	-82.3131	-167.266	-0.037806	0.080870	-0.960697	-0.962004	0.015771	30.4729	-0.961085	-6.784265E+12	-2.324606E-15	NaN
165	1.000000	0.090216	7.36665e+06	-46889.1	955.819	-29768.2	0.000000	0.000000	6.090778	0.058344	NaN	0.000000	0.001624	0.001679	28.1039	0.136548	0.001946	70.1597	179.312	-164.479	0.041067	0.088847	-0.952659	-0.954027	0.058344	70.1597	-0.953283	-5.324695E+12	-1.095724E-14	NaN
165	1.000000	0.098197	7.36665e+06	-46889.1	955.819	-29768.2	0.000000	0.000000	6.098758	0.001336	NaN	0.000000	0.001580	0.001717	28.1035	0.168740	0.001891	89.2299	127.909	-163.236	-0.005575	0.096886	-0.944677	-0.945989	0.001336	89.2299	-0.944688	-4.077397E+12	-3.275793E-16	NaN
165	1.000000	0.106201	7.36665e+06	-46889.1	955.818	-29768.2	0.000000	0.000000	6.106760	-0.030089	NaN	0.000000	0.001526	0.001724	28.1037	0.041373	0.001977	20.9282	142.406	-167.456	0.024681	0.104891	-0.936673	-0.937983	-0.030089	20.9282	-0.935595	-3.073967E+12	9.788228E-15	NaN
165	1.000000	0.114214	7.36665e+06	-46889.1	955.819	-29768.2	0.000000	0.000000	6.114773	-0.039139	NaN	0.000000	0.001564	0.001682	28.1035	0.054514	0.002068	26.3546	37.151	-164.714	0.045128	0.112888	-0.928660	-0.929986	-0.039139	26.3546	-0.927546	-2.393760E+12	1.635057E-14	NaN
165	1.000000	0.122224	7.36665e+06	-46889.1	955.819	-29768.2	0.000000	0.000000	6.122785	0.014354	NaN	0.000000	0.001578	0.001722	28.1042	0.028232	0.002003	14.0972	72.6611	-165.908	-0.053191	0.120866	-0.920650	-0.922009	0.014354	14.0972	-0.921414	-1.978320E+12	-7.255708E-15	NaN
165	1.000000	0.130211	7.36665e+06	-46889.1	955.819	-29768.2	0.000000	0.000000	6.130774	0.054638	NaN	0.000000	0.001542	0.001715	28.1045	0.042142	0.002073	20.3312	-158.432	-164.722	-0.007509	0.128917	-0.912663	-0.913958	0.054638	20.3312	-0.914679	-1.604540E+12	-3.405239E-14	NaN
165	1.000000	0.138245	7.36665e+06	-46889.1	955.818	-29768.2	0.000000	0.000000	6.138804	-0.030182	NaN	0.000000	0.001599	0.001673	28.1038	0.149295	0.001950	76.555	69.6615	-164.099	-0.031767	0.136893	-0.904629	-0.905982	-0.030182	76.555	-0.904334	-1.163102E+12	2.594939E-14	NaN
165	1.000000	0.146235	7.36665e+06	-46889.1	955.818	-29768.2	0.000000	0.000000	6.146794	-0.008731	NaN	0.000000	0.001582	0.001673	28.1049	0.028593	0.001937	14.7592	-119.774	-163.99	0.048801	0.144905	-0.896640	-0.897969	-0.008731	14.7592	-0.896196	-9.029464E+11	9.669897E-15	NaN
165	1.000000	0.154219	7.36665e+06	-46889.1	955.819	-29768.2	0.000000	0.000000	6.154780	0.031196	NaN	0.000000	0.001600	0.001671	28.1041	0.102548	0.002126	48.2458	57.4797	-163.836	0.003802	0.152944	-0.888656	-0.889931	0.031196	48.2458	-0.889141	-7.249326E+11	-4.303267E-14	NaN
165	1.000000	0.162211	7.36665e+06	-46889.1	955.818	-29768.2	0.000000	0.000000	6.162772	0.007257	NaN	0.000000	0.001614	0.001685	28.1031	0.145151	0.002010	72.2202	-178.47	-162.9	-0.027651	0.160922	-0.880663	-0.881952	0.007257	72.2202	-0.880739	-5.580789E+11	-1.300394E-14	NaN
165	1.000000	0.170253	7.36665e+06	-46889.1	955.818	-29768.2	0.000000	0.000000	6.170811	-0.056561	NaN	0.000000	0.001601	0.001669	28.1042	0.053350	0.001868	28.5568	50.959	-165.825	-0.057456	0.168944	-0.872621	-0.873930	-0.056561	28.5568	-0.871136	-4.138164E+11	1.366821E-13	NaN
165	1.000000	0.178222	7.36665e+06	-46889.1	955.818	-29768.2	0.000000	0.000000	6.178781	-0.029220	NaN	0.000000	0.001611	0.001633	28.1041	0.118777	0.002072	57.3231	54.6176	-164.854	-0.009388	0.176966	-0.864652	-0.865908	-0.029220	57.3231	-0.864270	-3.341228E+11	8.745301E-14	NaN
165	1.000000	0.186224	7.36665e+06	-46889.1	955.818	-29768.2	0.000000	0.000000	6.186781	-0.059462	NaN	0.000000	0.001629	0.001715	28.104	0.092084	0.001975	46.6352	-76.935	-166.341	-0.046263	0.184911	-0.856651	-0.857963	-0.059462	46.6352	-0.855694	-2.557626E+11	2.324901E-13	NaN
165	1.000000	0.194237	7.36665e+06	-46889.1	955.818	-29768.2	0.000000	0.000000	6.194796	-0.016331	NaN	0.000000	0.001623	0.001686	28.1038	0.066080	0.001933	34.1825	60.5713	-167.789	-0.023199	0.192892	-0.848638	-0.849983	-0.016331	34.1825	-0.848280	-2.029739E+11	8.045999E-14	NaN
165	1.000000	0.202252	7.36665e+06	-46889.1	955.819	-29768.2	0.000000	0.000000	6.202809	-0.065686	NaN	0.000000	0.001630	0.001700	28.1053	0.100502	0.001990	50.508	176.544	-165.499	-0.012294	0.200967	-0.840623	-0.841907	-0.065686	50.508	-0.839647	-1.550651E+11	4.236013E-13	NaN
165	1.000000	0.210251	7.36665e+06	-46889.1	955.819	-29768.2	0.000000	0.000000	6.210809	-0.054201	NaN	0.000000	0.001574	0.001697	28.1051	0.056216	0.002135	26.3313	-86.0812	-162.264	-0.072365	0.208905	-0.832623	-0.833969	-0.054201	26.3313	-0.831079	-1.186892E+11	4.566665E-13	NaN
165	1.000000	0.218217	7.36665e+06	-46889.1	955.819	-29768.2	0.000000	0.000000	6.218777	-0.006249	NaN	0.000000	0.001587	0.001652	28.1049	0.075056	0.001934	38.8069	-56.4018	-166.136	-0.087332	0.216976	-0.824657	-0.825899	-0.006249	38.8069	-0.824536	-9.676501E+10	6.457503E-14	NaN
165	1.000000	0.226232	7.36665e+06	-46889.1	955.819	-29768.2	0.000000	0.000000	6.226795	0.059341	NaN	0.000000	0.001616	0.001648	28.1059	0.030990	0.002021	15.3348	60.4247	-165.179	0.089800	0.224915	-0.816642	-0.817960	0.059341	15.3348	-0.819544	-8.280023E+10	-7.166747E-13	NaN
165	1.000000	0.234267	7.36665e+06	-46889.1	955.819	-29768.2	0.000000	0.000000	6.234828	0.022469	NaN	0.000000	0.001644	0.001662	28.1056	0.021379	0.002031	10.5252	-97.3388	-163.137	0.005205	0.232942	-0.808607	-0.809932	0.022469	10.5252	-0.810208	-6.185842E+10	-3.632370E-13	NaN
165	1.000000	0.242279	7.36665e+06	-46889.1	955.819	-29768.2	0.000000	0.000000	6.242841	0.039796	NaN	0.000000	0.001635	0.001659	28.1046	0.006713	0.002152	3.119724	-8.693170	-164.96	0.018214	0.240957	-0.800595	-0.801917	0.039796	3.119724	-0.810162	-6.176914E+10	-6.442712E-13	NaN
165	1.000000	0.250290	7.36665e+06	-46889.1	955.818	-29768.2	0.000000	0.000000	6.250850	0.009231	NaN	0.000000	0.001662	0.001669	28.1047	0.103694	0.002019	51.3478	115.034	-166.582	0.047918	0.248994	-0.792585	-0.793881	0.009231	51.3478	-0.792719	-3.581080E+10	-2.577703E-13	NaN
165	1.000000	0.258258	7.36665e+06	-46889.1	955.818	-29768.2	0.000000	0.000000	6.258816	-0.040468	NaN	0.000000	0.001669	0.001638	28.1042	0.092577	0.001876	49.3373	-92.8792	-163.454	-0.014025	0.256955	-0.784617	-0.785919	-0.040468	49.3373	-0.784002	-2.726496E+10	1.484234E-12	NaN
165	1.000000	0.266273	7.36665e+06	-46889.1	955.819	-29768.2	0.000000	0.000000	6.266831	-0.048770	NaN	0.000000	0.001660	0.001670	28.1028	0.107980	0.002133	50.6249	132.497	-164.914	0.066854	0.264914	-0.776602	-0.777961	-0.048770	50.6249	-0.775879	-2.114592E+10	2.306349E-12	NaN
165	1.000000	0.274283	7.36665e+06	-46889.1	955.82	-29768.2	0.000000	0.000000	6.274843	0.009712	NaN	0.000000	0.001676	0.001655	28.1045	0.027604	0.002071	13.3271	19.3938	-162.119	-0.005451	0.272994	-0.768592	-0.769881	0.009712	13.3271	-0.769138	-1.712340E+10	-5.671630E-13	NaN
165	1.000000	0.282262	7.36665e+06	-46889.1	955.818	-29768.2	0.000000	0.000000	6.282825	0.071351	NaN	0.000000	0.001678	0.001657	28.1047	0.082979	0.002075	39.9869	-19.4046	-164.491	0.023520	0.280969	-0.760613	-0.761905	0.071351	39.9869	-0.761951	-1.367229E+10	-5.218690E-12	NaN
165	1.000000	0.290297	7.36665e+06	-46889.1	955.819	-29768.2	0.000000	0.000000	6.290857	-0.016451	NaN	0.000000	0.001604	0.001661	28.1059	0.020966	0.001976	10.6102	-8.027474	-167.069	0.062152	0.288992	-0.752577	-0.753882	-0.016451	10.6102	-0.751414	-9.828145E+9	1.673817E-12	NaN
165	1.000000	0.298270	7.36665e+06	-46889.1	955.819	-29768.2	0.000000	0.000000	6.298833	0.080519	NaN	0.000000	0.001590	0.001663	28.105	0.049785	0.001983	25.1018	-174.871	-163.425	0.086817	0.297003	-0.744605	-0.745872	0.080519	25.1018	-0.747011	-8.560963E+9	-9.405424E-12	NaN
165	1.000000	0.306287	7.36665e+06	-46889.1	955.817	-29768.2	0.000000	0.000000	6.306845	-0.037300	NaN	0.000000	0.001594	0.001634	28.1034	0.092647	0.002001	46.3018	28.4177	-166.909	0.023590	0.304991	-0.736588	-0.737883	-0.037300	46.3018	-0.735983	-6.058153E+9	6.156990E-12	NaN
165	1.000000	0.314304	7.36665e+06	-46889.1	955.819	-29768.2	0.000000	0.000000	6.314866	0.056573	NaN	0.000000	0.001592	0.001668	28.1037	0.102220	0.001809	56.506	-21.5989	-167.263	0.028314	0.312991	-0.728571	-0.729884	0.056573	56.506	-0.729322	-4.915455E+9	-1.150922E-11	NaN
165	1.000000	0.322274	7.36665e+06	-46889.1	955.819	-29768.2	0.000000	0.000000	6.322834	0.009264	NaN	0.000000	0.001600	0.001636	28.1017	0.105154	0.002104	49.9803	-86.4818	-164.561	0.016759	0.321034	-0.720601	-0.721841	0.009264	49.9803	-0.720740	-3.754572E+9	-2.467427E-12	NaN
165	1.000000	0.330325	7.36665e+06	-46889.1	955.819	-29768.2	0.000000	0.000000	6.330885	-0.014623	NaN	0.000000	0.001581	0.001674	28.1022	0.053776	0.002069	25.9921	64.2557	-164.809	-0.024883	0.329048	-0.712549	-0.713827	-0.014623	25.9921	-0.712127	-2.864681E+9	5.104673E-12	NaN
165	1.000000	0.338328	7.36665e+06	-46889.1	955.819	-29768.2	0.000000	0.000000	6.338886	-0.038325	NaN	0.000000	0.001604	0.001670	28.1024	0.057131	0.001906	29.9726	-141.303	-159.802	-0.016754	0.337029	-0.704547	-0.705845	-0.038325	29.9726	-0.703588	-2.190389E+9	1.749667E-11	NaN
165	1.000000	0.346302	7.36665e+06	-46889.1	955.818	-29768.2	0.000000	0.000000	6.346861	-0.013583	NaN	0.000000	0.001623	0.001682	28.1023	0.107896	0.002101	51.3553	27.4272	-163.493	-0.004069	0.344995	-0.696573	-0.697880	-0.013583	51.3553	-0.696374	-1.745866E+9	7.779973E-12	NaN
165	1.000000	0.354303	7.36665e+06	-46889.1	955.819	-29768.2	0.000000	0.000000	6.354864	0.026094	NaN	0.000000	0.001596	0.001689	28.1026	0.016602	0.002014	8.241605	43.3103	-162.091	-0.016457	0.352981	-0.688572	-0.689893	0.026094	8.241605	-0.690946	-1.471802E+9	-1.772958E-11	NaN
165	1.000000	0.362319	7.36665e+06	-46889.1	955.819	-29768.2	0.000000	0.000000	6.362877	-0.049339	NaN	0.000000	0.001577	0.001730	28.1032	0.021863	0.001976	11.0648	-149.874	-167.446	-0.003324	0.360980	-0.680556	-0.681894	-0.049339	11.0648	-0.677211	-9.551261E+8	5.165749E-11	NaN
165	1.000000	0.370335	7.36665e+06	-46889.1	955.819	-29768.2	0.000000	0.000000	6.370893	-0.049033	NaN	0.000000	0.001558	0.001692	28.103	0.096049	0.001905	50.4197	-106.11	-163.498	-0.050409	0.369011	-0.672540	-0.673863	-0.049033	50.4197	-0.671810	-8.056862E+8	6.085872E-11	NaN
165	1.000000	0.378328	7.36665e+06	-46889.1	955.819	-29768.2	0.000000	0.000000	6.378887	-0.015014	NaN	0.000000	0.001612	0.001709	28.1034	0.003170	0.001982	1.599475	-34.2687	-165.701	0.039798	0.377024	-0.664547	-0.665850	-0.015014	1.599475	-0.657507	-5.132319E+8	2.925374E-11	NaN
165	1.000000	0.386323	7.36665e+06	-46889.1	955.819	-29768.2	0.000000	0.000000	6.386882	-0.031297	NaN	0.000000	0.001525	0.001719	28.103	0.060283	0.001982	30.4188	129.273	-168.265	-0.117789	0.385016	-0.656552	-0.657858	-0.031297	30.4188	-0.655780	-4.860201E+8	6.439539E-11	NaN
165	1.000000	0.394331	7.36665e+06	-46889.1	955.819	-29768.2	0.000000	0.000000	6.394888	-0.067869	NaN	0.000000	0.001540	0.001699	28.1029	0.029757	0.001921	15.4909	11.2053	-165.215	-0.064980	0.392998	-0.648543	-0.649877	-0.067869	15.4909	-0.645257	-3.486648E+8	1.946534E-10	NaN
165	1.000000	0.402339	7.36665e+06	-46889.1	955.819	-29768.2	0.000000	0.000000	6.402899	0.008924	NaN	0.000000	0.001505	0.001677	28.102	0.091362	0.002030	44.9987	-35.8401	-163.393	0.079588	0.401029	-0.640536	-0.641845	0.008924	44.9987	-0.640685	-3.017747E+8	-2.957072E-11	NaN
165	1.000000	0.410355	7.36665e+06	-46889.1	955.819	-29768.2	0.000000	0.000000	6.410913	-0.031957	NaN	0.000000	0.001549	0.001678	28.1019	0.103421	0.002091	49.4697	-44.3671	-166.018	0.007653	0.409027	-0.632520	-0.633847	-0.031957	49.4697	-0.632035	-2.296003E+8	1.391843E-10	NaN
165	1.000000	0.418352	7.36665e+06	-46889.1	955.818	-29768.2	0.000000	0.000000	6.418910	-0.038143	NaN	0.000000	0.001577	0.001712	28.1019	0.078521	0.002006	39.1414	-140.302	-164.06	-0.046497	0.417042	-0.624522	-0.625832	-0.038143	39.1414	-0.623792	-1.769053E+8	2.156146E-10	NaN
165	1.000000	0.426355	7.36665e+06	-46889.1	955.819	-29768.2	0.000000	0.000000	6.426912	-0.075682	NaN	0.000000	0.001630	0.001691	28.1019	0.050900	0.001956	26.0248	33.5692	-167.654	-0.046094	0.425047	-0.616520	-0.617828	-0.075682	26.0248	-0.614339	-1.311578E+8	5.770268E-10	NaN
165	1.000000	0.434353	7.36665e+06	-46889.1	955.819	-29768.2	0.000000	0.000000	6.434909	-0.109480	NaN	0.000000	0.001557	0.001702	28.1022	0.048606	0.001931	25.1676	-143.508	-168.807	-0.031492	0.432952	-0.608521	-0.609923	-0.109480	25.1676	-0.605259	-9.837127E+7	1.112923E-9	NaN
165	1.000000	0.442347	7.36665e+06	-46889.1	955.819	-29768.2	0.000000	0.000000	6.442909	0.050338	NaN	0.000000	0.001587	0.001721	28.1042	0.058653	0.002055	28.5485	-179.004	-164.147	-0.041573	0.441073	-0.600528	-0.601802	0.050338	28.5485	-0.601850	-8.829612E+7	-5.701028E-10	NaN
165	1.000000	0.450328	7.36665e+06	-46889.1	955.819	-29768.2	0.000000	0.000000	6.450889	0.026606	NaN	0.000000	0.001562	0.001715	28.1041	0.048234	0.002006	24.0486	2.796751	-166.86	0.018271	0.449064	-0.592546	-0.593811	0.026606	24.0486	-0.593376	-6.748428E+7	-3.942585E-10	NaN
165	1.000000	0.458348	7.36665e+06	-46889.1	955.819	-29768.2	0.000000	0.000000	6.458907	-0.027123	NaN	0.000000	0.001574	0.001716	28.104	0.137015	0.002065	66.3558	-59.7485	-160.766	-0.064970	0.457053	-0.584526	-0.585821	-0.027123	66.3558	-0.584220	-5.046023E+7	5.375079E-10	NaN
165	1.000000	0.466355	7.36665e+06	-46889.1	955.819	-29768.2	0.000000	0.000000	6.466915	0.008255	NaN	0.000000	0.001609	0.001722	28.1043	0.055802	0.001953	28.5774	-125.622	-165.094	0.008838	0.465026	-0.576519	-0.577848	0.008255	28.5774	-0.576736	-3.978044E+7	-2.075055E-10	NaN
165	1.000000	0.474360	7.36665e+06	-46889.1	955.819	-29768.2	0.000000	0.000000	6.474920	-0.009337	NaN	0.000000	0.001614	0.001707	28.1032	0.059413	0.001915	31.0201	-15.9897	-164.361	-0.001065	0.473006	-0.568514	-0.569869	-0.009337	31.0201	-0.568289	-3.040765E+7	3.070757E-10	NaN
165	1.000000	0.482357	7.36665e+06	-46889.1	955.819	-29768.2	0.000000	0.000000	6.482918	0.024600	NaN	0.000000	0.001619	0.001704	28.1035	0.084362	0.002067	40.811	-121.588	-163.768	0.058200	0.481008	-0.560518	-0.561866	0.024600	40.811	-0.560970	-2.408759E+7	-1.021269E-9	NaN
165	1.000000	0.490366	7.36665e+06	-46889.1	955.819	-29768.2	0.000000	0.000000	6.490928	0.041032	NaN	0.000000	0.001672	0.001696	28.1026	0.058398	0.001954	29.8841	-28.4034	-169.236	0.018902	0.489048	-0.552508	-0.553826	0.041032	29.8841	-0.553538	-1.900868E+7	-2.158587E-9	NaN
165	1.000000	0.498382	7.36665e+06	-46889.1	955.818	-29768.2	0.000000	0.000000	6.498942	0.005596	NaN	0.000000	0.001640	0.001703	28.1028	0.073018	0.002091	34.915	51.0471	-167.521	-0.109752	0.497045	-0.544493	-0.545829	0.005596	34.915	-0.544613	-1.429926E+7	-3.913564E-10	NaN
165	1.000000	0.506396	7.36665e+06	-46889.1	955.818	-29768.2	0.000000	0.000000	6.506955	-0.038033	NaN	0.000000	0.001659	0.001691	28.1025	0.023675	0.002064	11.47	-82.2498	-164.663	-0.048992	0.505096	-0.536478	-0.537778	-0.038033	11.47	-0.533991	-1.018565E+7	3.733997E-9	NaN
165	1.000000	0.514387	7.36665e+06	-46889.1	955.819	-29768.2	0.000000	0.000000	6.514945	-0.047336	NaN	0.000000	0.001661	0.001696	28.1016	0.170612	0.002052	83.1592	-128.837	-165.162	-0.053387	0.513101	-0.528488	-0.529773	-0.047336	83.1592	-0.528061	-8.42636e+06	5.617661E-9	NaN
165	1.000000	0.522405	7.36665e+06	-46889.1	955.819	-29768.2	0.000000	0.000000	6.522966	0.000185	NaN	0.000000	0.001656	0.001711	28.1033	0.087771	0.002009	43.6814	-87.0473	-162.788	0.044759	0.521120	-0.520469	-0.521754	0.000185	43.6814	-0.520472	-6.60943e+06	-2.792418E-11	NaN
165	1.000000	0.530408	7.36665e+06	-46889.1	955.819	-29768.2	0.000000	0.000000	6.530967	-0.021037	NaN	0.000000	0.001693	0.001717	28.1025	0.086114	0.002080	41.3948	170.526	-167.395	-0.034415	0.529078	-0.512466	-0.513796	-0.021037	41.3948	-0.512085	-5.05187e+06	4.164141E-9	NaN
165	1.000000	0.538392	7.36665e+06	-46889.1	955.818	-29768.2	0.000000	0.000000	6.538955	0.074784	NaN	0.000000	0.001646	0.001680	28.1031	0.124211	0.002014	61.6737	-71.3012	-163.557	0.086517	0.537077	-0.504482	-0.505798	0.074784	61.6737	-0.505392	-4.07575e+06	-1.834859E-8	NaN
165	1.000000	0.546400	7.36665e+06	-46889.1	955.819	-29768.2	0.000000	0.000000	6.546961	0.029856	NaN	0.000000	0.001652	0.001705	28.1036	0.022310	0.002074	10.7577	-63.6301	-166.864	0.065078	0.545093	-0.496474	-0.497782	0.029856	10.7577	-0.498556	-3.27242e+06	-9.123425E-9	NaN
165	1.000000	0.554409	7.36665e+06	-46889.1	955.819	-29768.2	0.000000	0.000000	6.554970	0.003485	NaN	0.000000	0.001650	0.001721	28.1041	0.040912	0.001985	20.6097	-143.391	-161.943	-0.007391	0.553075	-0.488465	-0.489799	0.003485	20.6097	-0.488592	-2.37526e+06	-1.467397E-9	NaN
165	1.000000	0.562403	7.36665e+06	-46889.1	955.819	-29768.2	0.000000	0.000000	6.562962	-0.032473	NaN	0.000000	0.001677	0.001705	28.1022	0.111872	0.002026	55.2146	-155.782	-164.177	0.015978	0.561125	-0.480471	-0.481750	-0.032473	55.2146	-0.480030	-1.80281e+06	1.801218E-8	NaN
165	1.000000	0.570409	7.36665e+06	-46889.1	955.819	-29768.2	0.000000	0.000000	6.570970	0.012396	NaN	0.000000	0.001641	0.001729	28.1029	0.082261	0.001956	42.0506	-50.1383	-164.293	0.030555	0.569123	-0.472465	-0.473752	0.012396	42.0506	-0.472686	-1.42257e+06	-8.713923E-9	NaN
165	1.000000	0.578441	7.36665e+06	-46889.1	955.818	-29768.2	0.000000	0.000000	6.578999	-0.058894	NaN	0.000000	0.001614	0.001724	28.1011	0.026121	0.001986	13.1557	-53.823	-162.235	-0.086167	0.577095	-0.464433	-0.465780	-0.058894	13.1557	-0.461076	-977532	6.024792E-8	NaN
165	1.000000	0.586425	7.36665e+06	-46889.1	955.818	-29768.2	0.000000	0.000000	6.586987	0.054302	NaN	0.000000	0.001664	0.001722	28.1006	0.033529	0.002017	16.6268	50.136	-166.732	0.007330	0.585074	-0.456449	-0.457800	0.054302	16.6268	-0.458899	-911047	-5.960428E-8	NaN
165	1.000000	0.594430	7.36665e+06	-46889.1	955.819	-29768.2	0.000000	0.000000	6.594990	-0.007558	NaN	0.000000	0.001660	0.001694	28.0999	0.014023	0.002097	6.685962	134.381	-166.117	-0.011824	0.593099	-0.448445	-0.449775	-0.007558	6.685962	-0.447597	-631671	1.196521E-8	NaN
165	1.000000	0.602434	7.36665e+06	-46889.1	955.819	-29768.2	0.000000	0.000000	6.602991	-0.076476	NaN	0.000000	0.001587	0.001700	28.1022	0.098116	0.002002	49.0084	39.7403	-164.977	-0.016192	0.601122	-0.440441	-0.441753	-0.076476	49.0084	-0.439270	-482019	1.586569E-7	NaN
165	1.000000	0.610407	7.36665e+06	-46889.1	955.819	-29768.2	0.000000	0.000000	6.610968	0.025541	NaN	0.000000	0.001543	0.001697	28.1022	0.082793	0.001945	42.5709	57.6415	-164.339	-0.043048	0.609139	-0.432467	-0.433735	0.025541	42.5709	-0.432917	-392031	-6.514961E-8	NaN
165	1.000000	0.618420	7.36665e+06	-46889.1	955.819	-29768.2	0.000000	0.000000	6.618982	0.048731	NaN	0.000000	0.001600	0.001705	28.1024	0.033929	0.001969	17.2334	114.945	-168.329	-0.064998	0.617155	-0.424454	-0.425719	0.048731	17.2334	-0.426575	-318851	-1.528342E-7	NaN
165	1.000000	0.626446	7.36665e+06	-46889.1	955.819	-29768.2	0.000000	0.000000	6.627009	0.073324	NaN	0.000000	0.001569	0.001723	28.1026	0.073057	0.001999	36.5429	70.3365	-160.408	0.095943	0.625134	-0.416429	-0.417741	0.073324	36.5429	-0.417934	-240491	-3.048904E-7	NaN
165	1.000000	0.634435	7.36665e+06	-46889.1	955.819	-29768.2	0.000000	0.000000	6.634996	0.013537	NaN	0.000000	0.001566	0.001782	28.1017	0.062130	0.002131	29.1574	129.221	-164.42	-0.019697	0.633123	-0.408439	-0.409752	0.013537	29.1574	-0.408787	-178300	-7.592280E-8	NaN
165	1.000000	0.642429	7.36665e+06	-46889.1	955.819	-29768.2	0.000000	0.000000	6.642986	-0.067709	NaN	0.000000	0.001538	0.001702	28.1008	0.069926	0.001880	37.2044	-138.485	-165.483	0.001317	0.641085	-0.400446	-0.401790	-0.067709	37.2044	-0.399081	-129684	5.221100E-7	NaN
165	1.000000	0.650439	7.36666e+06	-46889.1	955.819	-29768.2	0.000000	0.000000	6.650998	-0.033127	NaN	0.000000	0.001563	0.001673	28.1004	0.090842	0.001851	49.065	69.0257	-165.323	0.059453	0.649116	-0.392435	-0.393759	-0.033127	49.065	-0.391929	-102507	3.231633E-7	NaN
165	1.000000	0.658449	7.36666e+06	-46889.1	955.818	-29768.2	0.000000	0.000000	6.659012	0.063464	NaN	0.000000	0.001524	0.001665	28.1014	0.060124	0.002146	28.0123	-148.2	-165.809	0.015117	0.657152	-0.384425	-0.385723	0.063464	28.0123	-0.386125	-84663.4	-7.496006E-7	NaN
165	1.000000	0.666460	7.36666e+06	-46889.1	955.818	-29768.2	0.000000	0.000000	6.667021	0.023206	NaN	0.000000	0.001583	0.001675	28.1004	0.049189	0.002015	24.4109	-111.671	-161.165	0.056660	0.665159	-0.376415	-0.377715	0.023206	24.4109	-0.377128	-62899.2	-3.689367E-7	NaN
165	1.000000	0.674437	7.36666e+06	-46889.1	955.818	-29768.2	0.000000	0.000000	6.674996	-0.024949	NaN	0.000000	0.001580	0.001676	28.1002	0.028300	0.001955	14.4725	128.114	-163.63	0.013323	0.673162	-0.368437	-0.369713	-0.024949	14.4725	-0.367144	-45183.5	5.521648E-7	NaN
165	1.000000	0.682473	7.36666e+06	-46889.1	955.819	-29768.2	0.000000	0.000000	6.683033	0.013320	NaN	0.000000	0.001592	0.001716	28.101	0.120940	0.002014	60.0591	16.9318	-163.331	0.083575	0.681152	-0.360402	-0.361723	0.013320	60.0591	-0.360568	-36312.4	-3.668125E-7	NaN
165	1.000000	0.690428	7.36666e+06	-46889.1	955.819	-29768.2	0.000000	0.000000	6.690988	0.002412	NaN	0.000000	0.001562	0.001682	28.1009	0.103946	0.002070	50.2137	167.816	-165.608	-0.025785	0.689130	-0.352447	-0.353744	0.002412	50.2137	-0.352483	-27734.4	-8.696102E-8	NaN
165	1.000000	0.698494	7.36666e+06	-46889.1	955.82	-29768.2	0.000000	0.000000	6.699053	-0.015369	NaN	0.000000	0.001563	0.001704	28.1014	0.029480	0.002014	14.6403	128.481	-165.499	0.016016	0.697179	-0.344380	-0.345695	-0.015369	14.6403	-0.343593	-20600.9	7.460257E-7	NaN
165	1.000000	0.706467	7.36666e+06	-46889.1	955.819	-29768.2	0.000000	0.000000	6.707030	0.057555	NaN	0.000000	0.001585	0.001683	28.1018	0.043693	0.001928	22.6672	-92.7494	-164.345	0.011888	0.705167	-0.336407	-0.337707	0.057555	22.6672	-0.338312	-17255.8	-3.335410E-6	NaN
165	1.000000	0.714456	7.36666e+06	-46889.1	955.818	-29768.2	0.000000	0.000000	6.715018	0.039922	NaN	0.000000	0.001558	0.001715	28.102	0.045815	0.001998	22.9246	-38.9878	-166.344	-0.040851	0.713192	-0.328419	-0.329683	0.039922	22.9246	-0.329725	-12924.6	-3.088832E-6	NaN
165	1.000000	0.722457	7.36666e+06	-46889.1	955.818	-29768.2	0.000000	0.000000	6.723016	-0.036225	NaN	0.000000	0.001573	0.001731	28.1025	0.033472	0.002098	15.9509	97.2381	-163.586	-0.014327	0.721178	-0.320417	-0.321697	-0.036225	15.9509	-0.318714	-8906.35	4.067343E-6	NaN
165	1.000000	0.730474	7.36666e+06	-46889.1	955.818	-29768.2	0.000000	0.000000	6.731033	-0.011318	NaN	0.000000	0.001590	0.001733	28.1013	0.021181	0.001928	10.9881	77.7381	-165.219	-0.032608	0.729147	-0.312401	-0.313728	-0.011318	10.9881	-0.311628	-7000.68	1.616646E-6	NaN
165	1.000000	0.738466	7.36666e+06	-46889.1	955.818	-29768.2	0.000000	0.000000	6.739024	-0.030370	NaN	0.000000	0.001552	0.001740	28.1008	0.062758	0.002044	30.702	105.26	-164.773	-0.059985	0.737199	-0.304409	-0.305676	-0.030370	30.702	-0.303667	-5335.35	5.692296E-6	NaN
165	1.000000	0.746513	7.36666e+06	-46889.1	955.818	-29768.2	0.000000	0.000000	6.747076	0.059264	NaN	0.000000	0.001576	0.001721	28.102	0.049392	0.002039	24.2193	-28.7234	-164.044	0.084254	0.745149	-0.296361	-0.297726	0.059264	24.2193	-0.298197	-4423.6	-1.339733E-5	NaN
165	1.000000	0.754488	7.36666e+06	-46889.1	955.819	-29768.2	0.000000	0.000000	6.755047	-0.029614	NaN	0.000000	0.001585	0.001728	28.0999	0.086342	0.001987	43.4626	-49.2567	-164.044	-0.038824	0.753169	-0.288386	-0.289705	-0.029614	43.4626	-0.287875	-3100.6	9.551081E-6	NaN
165	1.000000	0.762474	7.36666e+06	-46889.1	955.819	-29768.2	0.000000	0.000000	6.763035	0.011029	NaN	0.000000	0.001663	0.001713	28.1023	0.059325	0.002050	28.9324	163.442	-161.497	0.030977	0.761168	-0.280400	-0.281706	0.011029	28.9324	-0.280686	-2417.24	-4.562760E-6	NaN
165	1.000000	0.770484	7.36666e+06	-46889.1	955.818	-29768.2	0.000000	0.000000	6.771044	0.018786	NaN	0.000000	0.001662	0.001733	28.1027	0.026146	0.001968	13.2823	36.9252	-162.454	0.058917	0.769156	-0.272391	-0.273719	0.018786	13.2823	-0.273452	-1879.06	-9.997678E-6	NaN
165	1.000000	0.778487	7.36666e+06	-46889.1	955.819	-29768.2	0.000000	0.000000	6.779050	0.064394	NaN	0.000000	0.001684	0.001734	28.1015	0.119606	0.002067	57.8699	105.72	-166.912	0.007061	0.777216	-0.264387	-0.265659	0.064394	57.8699	-0.265222	-1408.55	-4.571646E-5	NaN
165	1.000000	0.786486	7.36666e+06	-46889.1	955.818	-29768.2	0.000000	0.000000	6.787044	-0.058589	NaN	0.000000	0.001667	0.001729	28.1017	0.013729	0.001966	6.982956	39.7614	-166.527	-0.063889	0.785171	-0.256388	-0.257703	-0.058589	6.982956	-0.250096	-824.984	7.101813E-5	NaN
165	1.000000	0.794505	7.36666e+06	-46889.1	955.818	-29768.2	0.000000	0.000000	6.795065	0.003499	NaN	0.000000	0.001686	0.001712	28.1027	0.046601	0.002084	22.3619	-161.997	-164.714	-0.019522	0.793190	-0.248369	-0.249684	0.003499	22.3619	-0.248487	-779.015	-4.491991E-6	NaN
165	1.000000	0.802504	7.36666e+06	-46889.1	955.82	-29768.2	0.000000	0.000000	6.803065	0.015537	NaN	0.000000	0.001667	0.001695	28.1004	0.034888	0.002061	16.9243	-50.814	-167.153	-0.027772	0.801235	-0.240370	-0.241639	0.015537	16.9243	-0.241059	-597.144	-2.601916E-5	NaN
165	1.000000	0.810512	7.36666e+06	-46889.1	955.819	-29768.2	0.000000	0.000000	6.811071	-0.024141	NaN	0.000000	0.001678	0.001736	28.1009	0.056670	0.002031	27.9084	32.2716	-165.883	0.070841	0.809209	-0.232363	-0.233666	-0.024141	27.9084	-0.231714	-426.141	5.664964E-5	NaN
165	1.000000	0.818531	7.36666e+06	-46889.1	955.818	-29768.2	0.000000	0.000000	6.819092	0.029195	NaN	0.000000	0.001670	0.001681	28.1009	0.131195	0.002041	64.2779	167.925	-167.172	0.003303	0.817221	-0.224344	-0.225653	0.029195	64.2779	-0.224685	-329.855	-8.850798E-5	NaN
165	1.000000	0.826525	7.36666e+06	-46889.1	955.819	-29768.2	0.000000	0.000000	6.827085	0.005932	NaN	0.000000	0.001704	0.001691	28.1011	0.052998	0.002020	26.2421	-80.8769	-164.54	-0.025407	0.825211	-0.216350	-0.217663	0.005932	26.2421	-0.216519	-244.302	-2.428037E-5	NaN
165	1.000000	0.834502	7.36666e+06	-46889.1	955.818	-29768.2	0.000000	0.000000	6.835061	-0.010564	NaN	0.000000	0.001639	0.001692	28.1007	0.098753	0.002097	47.1022	128.615	-165.424	-0.020430	0.833219	-0.208373	-0.209655	-0.010564	47.1022	-0.208205	-179.352	5.890160E-5	NaN
165	1.000000	0.842526	7.36666e+06	-46889.1	955.818	-29768.2	0.000000	0.000000	6.843083	-0.051394	NaN	0.000000	0.001683	0.001696	28.1021	0.008818	0.001900	4.641374	-115.739	-165.742	-0.063610	0.841218	-0.200349	-0.201657	-0.051394	4.641374	-0.192044	-97.3007	0.000528	NaN
165	1.000000	0.850526	7.36666e+06	-46889.1	955.819	-29768.2	0.000000	0.000000	6.851085	-0.016936	NaN	0.000000	0.001701	0.001716	28.1011	0.137869	0.001926	71.5811	155.989	-166.484	0.026193	0.849216	-0.192349	-0.193658	-0.016936	71.5811	-0.192171	-97.7768	0.000173	NaN
165	1.000000	0.858521	7.36666e+06	-46889.1	955.818	-29768.2	0.000000	0.000000	6.859080	-0.024669	NaN	0.000000	0.001671	0.001693	28.1016	0.049756	0.002036	24.4421	-13.366	-167.09	-0.048670	0.857175	-0.184353	-0.185700	-0.024669	24.4421	-0.183596	-70.2176	0.000351	NaN
165	1.000000	0.866525	7.36666e+06	-46889.1	955.819	-29768.2	0.000000	0.000000	6.867085	-0.011479	NaN	0.000000	0.001611	0.001682	28.101	0.037512	0.001886	19.8888	65.2152	-167.059	-0.008476	0.865209	-0.176349	-0.177665	-0.011479	19.8888	-0.175916	-51.9649	0.000221	NaN
165	1.000000	0.874523	7.36666e+06	-46889.1	955.818	-29768.2	0.000000	0.000000	6.875085	0.035445	NaN	0.000000	0.001591	0.001664	28.101	0.035928	0.002026	17.7315	101.075	-162.484	0.047201	0.873225	-0.168351	-0.169649	0.035445	17.7315	-0.169850	-40.8331	-0.000868	NaN
165	1.000000	0.882578	7.36666e+06	-46889.1	955.819	-29768.2	0.000000	0.000000	6.883137	-0.010208	NaN	0.000000	0.001649	0.001682	28.0991	0.043071	0.001939	22.209	-121.247	-161.83	0.031273	0.881219	-0.160297	-0.161655	-0.010208	22.209	-0.159952	-27.3612	0.000373	NaN
165	1.000000	0.890557	7.36666e+06	-46889.1	955.818	-29768.2	0.000000	0.000000	6.891118	0.029915	NaN	0.000000	0.001685	0.001682	28.0997	0.030897	0.001907	16.2032	-140.504	-164.642	-0.043583	0.889240	-0.152317	-0.153634	0.029915	16.2032	-0.153702	-21.1438	-0.001415	NaN
165	1.000000	0.898555	7.36666e+06	-46889.1	955.818	-29768.2	0.000000	0.000000	6.899114	-0.048316	NaN	0.000000	0.001646	0.001684	28.0999	0.116959	0.002013	58.114	170.769	-163.017	0.018568	0.897252	-0.144319	-0.145622	-0.048316	58.114	-0.143695	-13.8671	0.003484	NaN
165	1.000000	0.906531	7.36666e+06	-46889.1	955.818	-29768.2	0.000000	0.000000	6.907092	0.032313	NaN	0.000000	0.001672	0.001660	28.1001	0.033919	0.001955	17.3534	-156.199	-163.402	0.072258	0.905226	-0.136344	-0.137649	0.032313	17.3534	-0.137740	-10.7243	-0.003013	NaN
165	1.000000	0.914552	7.36666e+06	-46889.1	955.819	-29768.2	0.000000	0.000000	6.915111	-0.033603	NaN	0.000000	0.001707	0.001688	28.0995	0.070128	0.002021	34.6953	-142.252	-164.563	-0.016044	0.913280	-0.128322	-0.129594	-0.033603	34.6953	-0.127596	-6.840782	0.004912	NaN
165	1.000000	0.922544	7.36666e+06	-46889.1	955.818	-29768.2	0.000000	0.000000	6.923104	0.000114	NaN	0.000000	0.001673	0.001659	28.1001	0.041192	0.001899	21.6953	130.713	-168.115	0.050773	0.921269	-0.120331	-0.121606	0.000114	21.6953	-0.120335	-4.907224	-2.328633E-5	NaN
165	1.000000	0.930566	7.36666e+06	-46889.1	955.819	-29768.2	0.000000	0.000000	6.931126	-0.005145	NaN	0.000000	0.001642	0.001703	28.1001	0.046848	0.001920	24.3954	-165.842	-164.841	0.053337	0.929271	-0.112308	-0.113604	-0.005145	24.3954	-0.112150	-3.334161	0.001543	NaN
165	1.000000	0.938566	7.36666e+06	-46889.1	955.819	-29768.2	0.000000	0.000000	6.939127	0.014781	NaN	0.000000	0.001621	0.001662	28.1001	0.069096	0.001978	34.9289	51.382	-164.314	0.006851	0.937224	-0.104309	-0.105651	0.014781	34.9289	-0.104626	-2.307197	-0.006407	NaN
165	1.000000	0.946574	7.36666e+06	-46889.1	955.819	-29768.2	0.000000	0.000000	6.947133	-0.013404	NaN	0.000000	0.001627	0.001719	28.1	0.160193	0.002020	79.3131	-12.6887	-166.622	-0.037904	0.945275	-0.096301	-0.097599	-0.013404	79.3131	-0.096174	-1.499963	0.008936	NaN
165	1.000000	0.954562	7.36666e+06	-46889.1	955.819	-29768.2	0.000000	0.000000	6.955122	-0.014087	NaN	0.000000	0.001597	0.001711	28.1006	0.128327	0.002021	63.4863	-70.7227	-163.1	-0.009964	0.953317	-0.088312	-0.089558	-0.014087	63.4863	-0.088146	-0.977386	0.014412	NaN
165	1.000000	0.962549	7.36666e+06	-46889.1	955.819	-29768.2	0.000000	0.000000	6.963108	-0.019638	NaN	0.000000	0.001598	0.001703	28.099	0.028865	0.001983	14.5558	80.8842	-161.979	-0.013356	0.961243	-0.080325	-0.081632	-0.019638	14.5558	-0.079313	-0.594949	0.033007	NaN
165	1.000000	0.970577	7.36666e+06	-46889.1	955.819	-29768.2	0.000000	0.000000	6.971138	0.005670	NaN	0.000000	0.001576	0.001690	28.0991	0.114457	0.001904	60.1236	-77.3853	-166.253	-0.069652	0.969272	-0.072297	-0.073603	0.005670	60.1236	-0.072368	-0.394276	-0.014381	NaN
165	1.000000	0.978582	7.36666e+06	-46889.1	955.819	-29768.2	0.000000	0.000000	6.979142	-0.015731	NaN	0.000000	0.001575	0.001709	28.0996	0.056520	0.001882	30.0337	-146.384	-164.153	-0.029200	0.977243	-0.064292	-0.065632	-0.015731	30.0337	-0.063899	-0.232234	0.067739	NaN
165	1.000000	0.986616	7.36666e+06	-46889.1	955.819	-29768.2	0.000000	0.000000	6.987177	0.025024	NaN	0.000000	0.001608	0.001693	28.1008	0.102478	0.001943	52.7465	-131.211	-162.404	0.061946	0.985250	-0.056259	-0.057624	0.025024	52.7465	-0.056615	-0.143666	-0.174183	NaN
165	1.000000	0.994561	7.36666e+06	-46889.1	955.819	-29768.2	0.000000	0.000000	6.995120	-0.030010	NaN	0.000000	0.001592	0.001682	28.1005	0.081985	0.002042	40.1549	158.764	-165.12	-0.051118	0.993305	-0.048314	-0.049569	-0.030010	40.1549	-0.047753	-0.077991	0.384792	NaN
165	1.000000	1.002585	7.36666e+06	-46889.1	955.818	-29768.2	0.000000	0.000000	7.003143	-0.049597	NaN	0.000000	0.001609	0.001697	28.1012	0.074976	0.002027	36.9963	102.138	-161.441	0.009144	1.001284	-0.040290	-0.041591	-0.049597	36.9963	-0.039284	-0.043017	1.152970	NaN
165	1.000000	1.010586	7.36666e+06	-46889.1	955.819	-29768.2	0.000000	0.000000	7.011147	0.012105	NaN	0.000000	0.001573	0.001673	28.101	0.084351	0.002038	41.383	43.6762	-167.826	0.071180	1.009298	-0.032288	-0.033577	0.012105	41.383	-0.032508	-0.027099	-0.446691	NaN
165	1.000000	1.018603	7.36666e+06	-46889.1	955.818	-29768.2	0.000000	0.000000	7.019162	-0.030394	NaN	0.000000	0.001663	0.001691	28.1008	0.093953	0.001909	49.2216	88.0406	-164.911	0.004765	1.017317	-0.024271	-0.025557	-0.030394	49.2216	-0.023808	-0.015710	1.934680	NaN
165	1.000000	1.026586	7.36666e+06	-46889.1	955.819	-29768.2	0.000000	0.000000	7.027147	0.005852	NaN	0.000000	0.001647	0.001690	28.1004	0.094061	0.002024	46.4694	-28.929	-164.27	-0.012980	1.025282	-0.016288	-0.017592	0.005852	46.4694	-0.016383	-0.010120	-0.578211	NaN
165	1.000000	1.034602	7.36666e+06	-46889.1	955.819	-29768.2	0.000000	0.000000	7.035159	-0.071157	NaN	0.000000	0.001656	0.001705	28.1012	0.054823	0.001987	27.597	107.346	-164.798	-0.030474	1.033295	-0.008273	-0.009579	-0.071157	27.597	-0.006339	-0.004243	16.7715	NaN
165	1.000000	1.042605	7.36666e+06	-46889.1	955.819	-29768.2	0.000000	0.000000	7.043176	0.277188	NaN	0.000000	0.001623	0.001715	28.0997	0.653264	0.002020	323.469	13.4081	-166.49	0.000358	1.041299	-0.000269	-0.001575	0.277188	323.469	-0.000912	-0.000670	-413.814	NaN
165	2.000000	1.049964	7.36666e+06	-46889.1	955.819	-29768.2	0.000000	0.000000	7.050918	9.600231	NaN	0.000000	0.001644	0.001701	28.0985	10.0457	0.001672	6008.36	7.541911	-171.502	9.056606	1.049264	0.007089	0.006390	9.600231	6008.36	0.005891	0.004961	1935.12	77936.8
165	2.000000	1.052063	7.36666e+06	-46889.1	955.819	-29768.2	0.000000	0.000000	7.053150	12.8148	NaN	0.000000	0.001607	0.001712	28.1004	12.3984	0.001550	7997.8	6.154799	-174.216	11.8362	1.051755	0.009189	0.008881	12.8148	7997.8	0.007987	0.007029	1823.17	87156.9
165	2.000000	1.054103	7.36666e+06	-46889.1	955.819	-29768.2	0.000000	0.000000	7.055342	16.5298	NaN	0.000000	0.001627	0.001705	28.099	15.3547	0.001707	8994.57	8.628024	-174.776	16.1874	1.053734	0.011228	0.010859	16.5298	8994.57	0.009850	0.009015	1833.55	86549.9
165	2.000000	1.056053	7.36666e+06	-46889.1	955.819	-29768.2	0.000000	0.000000	7.057395	19.0099	NaN	0.000000	0.001574	0.001712	28.0997	17.3946	0.001742	9983.71	6.243195	-175.379	18.5211	1.055760	0.013179	0.012885	19.0099	9983.71	0.011751	0.011193	1698.42	86217.9
165	2.000000	1.058031	7.36666e+06	-46889.1	955.819	-29768.2	0.000000	0.000000	7.059617	24.968	NaN	0.000000	0.001581	0.001723	28.1003	20.0038	0.001820	10994	5.060735	-175.244	24.5483	1.057723	0.015156	0.014849	24.968	10994	0.013453	0.013277	1880.52	87171.9
165	2.000000	1.060023	7.36666e+06	-46889.1	955.819	-29768.2	0.000000	0.000000	7.061708	27.3748	NaN	0.000000	0.001565	0.001693	28.1003	20.7769	0.001732	11993.8	2.342198	-173.41	26.1475	1.059666	0.017148	0.016792	27.3748	11993.8	0.015436	0.015872	1724.77	86979.8
165	2.000000	1.062033	7.36666e+06	-46889.1	955.819	-29768.2	0.000000	0.000000	7.063928	32.4602	NaN	0.000000	0.001570	0.001696	28.1002	23.1636	0.001632	14196.7	5.648603	-178.491	31.958	1.061723	0.019159	0.018848	32.4602	14196.7	0.017444	0.018684	1737.33	94890.8
165	2.000000	1.064101	7.36666e+06	-46889.1	955.818	-29768.2	0.000000	0.000000	7.066194	37.2981	NaN	0.000000	0.001584	0.001727	28.1006	25.8702	0.001775	14571.2	8.996411	-179.92	38.5508	1.063675	0.021227	0.020801	37.2981	14571.2	0.019307	0.021465	1737.64	90866.9
165	2.000000	1.066040	7.36666e+06	-46889.1	955.819	-29768.2	0.000000	0.000000	7.068294	41.2018	NaN	0.000000	0.001540	0.001734	28.1003	28.1883	0.001890	14911.9	8.225760	179.259	41.8455	1.065701	0.023166	0.022826	41.2018	14911.9	0.021094	0.024290	1696.24	87416.1
165	2.000000	1.067944	7.36666e+06	-46889.1	955.818	-29768.2	0.000000	0.000000	7.070378	45.5826	NaN	0.000000	0.001549	0.001715	28.0986	29.8347	0.001812	16462.1	4.875133	-179.133	43.3571	1.067673	0.025070	0.024799	45.5826	16462.1	0.022993	0.027465	1659.64	90754.2
165	2.000000	1.070017	7.36666e+06	-46889.1	955.819	-29768.2	0.000000	0.000000	7.072644	50.2929	NaN	0.000000	0.001574	0.001747	28.0982	31.2619	0.001749	17870.8	6.994960	177.671	49.1406	1.069705	0.027142	0.026830	50.2929	17870.8	0.025032	0.031073	1618.54	92624.1
165	2.000000	1.071954	7.36666e+06	-46889.1	955.819	-29768.2	0.000000	0.000000	7.074898	57.9714	NaN	0.000000	0.001580	0.001741	28.0979	33.7389	0.001818	18557.9	5.333264	178.767	55.4783	1.071685	0.029080	0.028810	57.9714	18557.9	0.026737	0.034252	1692.52	91614.2
165	2.000000	1.074008	7.36666e+06	-46889.1	955.82	-29768.2	0.000000	0.000000	7.077169	63.2644	NaN	0.000000	0.001544	0.001700	28.0989	35.7046	0.001831	19504.5	5.359641	178.915	62.4613	1.073727	0.031133	0.030853	63.2644	19504.5	0.028701	0.038094	1660.76	91302.3
165	2.000000	1.075956	7.36666e+06	-46889.1	955.819	-29768.2	0.000000	0.000000	7.079145	63.948	NaN	0.000000	0.001551	0.001725	28.0975	36.2917	0.001729	20988.1	0.163356	-176.957	62.0793	1.075770	0.033082	0.032895	63.948	20988.1	0.030797	0.042411	1507.8	93112
165	2.000000	1.077999	7.36666e+06	-46889.1	955.818	-29768.2	0.000000	0.000000	7.081649	75.1515	NaN	0.000000	0.001540	0.001703	28.099	39.6053	0.001831	21633.3	8.481297	176.065	75.7156	1.077625	0.035125	0.034751	75.1515	21633.3	0.032519	0.046127	1629.22	92027.5
165	2.000000	1.080000	7.36666e+06	-46889.1	955.819	-29768.2	0.000000	0.000000	7.084048	84.8319	NaN	0.000000	0.001562	0.001724	28.0987	40.1186	0.001734	23130.3	5.183315	178.35	85.1511	1.079577	0.037126	0.036702	84.8319	23130.3	0.034375	0.050300	1686.51	94225.5
165	2.000000	1.081966	7.36666e+06	-46889.1	955.819	-29768.2	0.000000	0.000000	7.086277	91.2352	NaN	0.000000	0.001543	0.001741	28.0995	42.4474	0.001838	23088.5	3.478637	-179.83	89.7305	1.081609	0.039092	0.038735	91.2352	23088.5	0.036128	0.054406	1676.93	90436.8
165	2.000000	1.083972	7.36666e+06	-46889.1	955.819	-29768.2	0.000000	0.000000	7.088550	97.7315	NaN	0.000000	0.001581	0.001734	28.0984	44.2158	0.001743	25374.4	4.034755	178.378	95.7785	1.083617	0.041098	0.040743	97.7315	25374.4	0.038209	0.059482	1643.05	95055.5
165	2.000000	1.086022	7.36666e+06	-46889.1	955.819	-29768.2	0.000000	0.000000	7.090975	106.845	NaN	0.000000	0.001535	0.001771	28.0992	45.3883	0.001709	26559.9	5.058226	177.403	109.555	1.085635	0.043148	0.042761	106.845	26559.9	0.040131	0.064367	1659.95	95646.7
165	2.000000	1.087953	7.36666e+06	-46889.1	955.819	-29768.2	0.000000	0.000000	7.093235	114.863	NaN	0.000000	0.001567	0.001773	28.097	49.0806	0.001840	26680.3	4.839602	176.905	113.683	1.087727	0.045078	0.044852	114.863	26680.3	0.041850	0.068896	1667.2	92868.3
165	2.000000	1.089938	7.36666e+06	-46889.1	955.819	-29768.2	0.000000	0.000000	7.095524	122.235	NaN	0.000000	0.001554	0.001715	28.0982	49.8332	0.001838	27109.4	4.136437	178.325	121.32	1.089610	0.047064	0.046736	122.235	27109.4	0.043682	0.073890	1654.27	91117.1
165	2.000000	1.091883	7.36666e+06	-46889.1	955.819	-29768.2	0.000000	0.000000	7.097717	128.282	NaN	0.000000	0.001601	0.001687	28.0969	51.6529	0.001807	28582	-1.086460	-178.021	124.7	1.091688	0.049008	0.048813	128.282	28582	0.045642	0.079421	1615.22	92661.3
165	2.000000	1.093923	7.36666e+06	-46889.1	955.819	-29768.2	0.000000	0.000000	7.100403	143.997	NaN	0.000000	0.001589	0.001708	28.0979	53.2916	0.001699	31366.7	2.850350	178.057	142.219	1.093672	0.051049	0.050798	143.997	31366.7	0.047606	0.085157	1690.97	98205
165	2.000000	1.095917	7.36666e+06	-46889.1	955.819	-29768.2	0.000000	0.000000	7.102649	150.126	NaN	0.000000	0.001624	0.001696	28.0969	54.9834	0.001750	31427	5.996484	174.769	146.973	1.095595	0.053042	0.052720	150.126	31427	0.049460	0.090750	1654.27	95313
165	2.000000	1.097980	7.36666e+06	-46889.1	955.819	-29768.2	0.000000	0.000000	7.104979	156.621	NaN	0.000000	0.001650	0.001706	28.0988	58.9829	0.001887	31251.9	7.331613	173.004	156.791	1.097646	0.055106	0.054772	156.621	31251.9	0.051347	0.096623	1620.95	91856.6
165	2.000000	1.099960	7.36666e+06	-46889.1	955.819	-29768.2	0.000000	0.000000	7.107419	167.829	NaN	0.000000	0.001599	0.001743	28.0986	59.2433	0.001817	32610.7	5.914056	174.032	166.662	1.099705	0.057085	0.056831	167.829	32610.7	0.053225	0.102643	1635.07	92996.9
165	2.000000	1.101971	7.36666e+06	-46889.1	955.82	-29768.2	0.000000	0.000000	7.109822	177.351	NaN	0.000000	0.001568	0.001703	28.0993	61.9975	0.001836	33760.7	6.330138	173.934	176.877	1.101611	0.059096	0.058736	177.351	33760.7	0.055156	0.109014	1626.86	93420.6
165	2.000000	1.104035	7.36666e+06	-46889.1	955.819	-29768.2	0.000000	0.000000	7.112388	189.556	NaN	0.000000	0.001594	0.001705	28.0996	63.9769	0.001868	34254.9	7.681262	173.194	191.931	1.103595	0.061161	0.060720	189.556	34254.9	0.057011	0.115308	1643.91	92165.1
165	2.000000	1.105932	7.36666e+06	-46889.1	955.819	-29768.2	0.000000	0.000000	7.114831	202.836	NaN	0.000000	0.001590	0.001697	28.1	64.4749	0.001750	36842.1	7.540585	173.001	202.394	1.105490	0.063058	0.062616	202.836	36842.1	0.058928	0.121994	1662.68	96371.5
165	2.000000	1.107910	7.36666e+06	-46889.1	955.82	-29768.2	0.000000	0.000000	7.116930	205.793	NaN	0.000000	0.001537	0.001699	28.099	67.2306	0.001739	38662.8	5.829064	172.778	203.306	1.107738	0.065035	0.064863	205.793	38662.8	0.061043	0.129576	1588.19	98130.5
165	2.000000	1.109830	7.36666e+06	-46889.1	955.82	-29768.2	0.000000	0.000000	7.119535	222.429	NaN	0.000000	0.001571	0.001731	28.0991	67.4545	0.001757	38393.7	1.463206	177.577	215.636	1.109502	0.066956	0.066627	222.429	38393.7	0.062611	0.135337	1643.52	95350.9
165	2.000000	1.111823	7.36666e+06	-46889.1	955.82	-29768.2	0.000000	0.000000	7.122112	236.649	NaN	0.000000	0.001584	0.001715	28.0987	68.9404	0.001736	39713.7	-1.733912	-179.321	229.32	1.111536	0.068949	0.068661	236.649	39713.7	0.064480	0.142360	1662.33	96165.8
165	2.000000	1.113920	7.36666e+06	-46889.1	955.82	-29768.2	0.000000	0.000000	7.124614	246.503	NaN	0.000000	0.001589	0.001701	28.0979	73.3063	0.001850	39631.8	4.078277	175.796	243.553	1.113606	0.071045	0.070732	246.503	39631.8	0.066381	0.149677	1646.9	93592.2
165	2.000000	1.115943	7.36666e+06	-46889.1	955.82	-29768.2	0.000000	0.000000	7.127258	261.612	NaN	0.000000	0.001630	0.001717	28.0983	74.733	0.001869	39992.3	6.024127	173.276	262.032	1.115587	0.073069	0.072712	261.612	39992.3	0.068163	0.156694	1669.57	92304.7
165	2.000000	1.117947	7.36666e+06	-46889.1	955.821	-29768.2	0.000000	0.000000	7.129617	270.248	NaN	0.000000	0.001628	0.001711	28.0994	77.9218	0.001835	42462.2	9.366103	169.689	272.427	1.117550	0.075073	0.074676	270.248	42462.2	0.070299	0.165308	1634.82	95417.9
165	2.000000	1.119941	7.36666e+06	-46889.1	955.82	-29768.2	0.000000	0.000000	7.132253	285.874	NaN	0.000000	0.001641	0.001722	28.099	76.8833	0.001794	42844.4	4.097826	174.363	284.226	1.119569	0.077066	0.076695	285.874	42844.4	0.072062	0.172578	1656.49	94226.9
165	2.000000	1.121935	7.36666e+06	-46889.1	955.821	-29768.2	0.000000	0.000000	7.134586	294.093	NaN	0.000000	0.001662	0.001707	28.0997	79.2591	0.001697	46705.6	3.133236	174.877	293.776	1.121672	0.079061	0.078798	294.093	46705.6	0.074338	0.182182	1614.28	99974.5
165	2.000000	1.123889	7.36666e+06	-46889.1	955.82	-29768.2	0.000000	0.000000	7.136990	305.065	NaN	0.000000	0.001642	0.001692	28.0988	81.8383	0.001777	46047.2	4.980868	173.035	300.133	1.123561	0.081014	0.080686	305.065	46047.2	0.076046	0.189547	1609.45	96631.5
165	2.000000	1.125988	7.36666e+06	-46889.1	955.82	-29768.2	0.000000	0.000000	7.139505	315.182	NaN	0.000000	0.001630	0.001711	28.0996	84.7015	0.001872	45240.6	6.686770	171.585	317.553	1.125619	0.083113	0.082745	315.182	45240.6	0.077888	0.197648	1594.66	92972.7
165	2.000000	1.127931	7.36666e+06	-46889.1	955.82	-29768.2	0.000000	0.000000	7.142151	332.269	NaN	0.000000	0.001655	0.001744	28.0991	85.1239	0.001783	47735.7	2.094938	175.818	331.959	1.127604	0.085057	0.084730	332.269	47735.7	0.079836	0.206385	1609.95	96001.2
165	2.000000	1.129888	7.36666e+06	-46889.1	955.819	-29768.2	0.000000	0.000000	7.144337	337.818	NaN	0.000000	0.001675	0.001703	28.0978	86.0677	0.001668	51608.7	3.095273	173.731	335.173	1.129781	0.087014	0.086907	337.818	51608.7	0.082105	0.216783	1558.32	101271
165	2.000000	1.131769	7.36666e+06	-46889.1	955.819	-29768.2	0.000000	0.000000	7.146859	353.435	NaN	0.000000	0.001667	0.001739	28.0982	89.5048	0.001796	49821.9	1.979970	175.05	345.498	1.131553	0.088895	0.088679	353.435	49821.9	0.083574	0.223648	1580.32	96252.3
165	2.000000	1.133879	7.36666e+06	-46889.1	955.819	-29768.2	0.000000	0.000000	7.149595	368.646	NaN	0.000000	0.001622	0.001699	28.0981	90.7559	0.001721	52739.8	-0.968532	177.963	368.344	1.133593	0.091005	0.090719	368.646	52739.8	0.085763	0.234053	1575.06	99598.9
165	2.000000	1.135918	7.36666e+06	-46889.1	955.819	-29768.2	0.000000	0.000000	7.152479	389.206	NaN	0.000000	0.001657	0.001678	28.0969	93.6474	0.001834	51054.5	8.511846	168.76	388.55	1.135483	0.093044	0.092609	389.206	51054.5	0.087326	0.241623	1610.8	94893.7
165	2.000000	1.138001	7.36666e+06	-46889.1	955.819	-29768.2	0.000000	0.000000	7.154967	399.064	NaN	0.000000	0.001677	0.001714	28.0961	96.0658	0.001842	52156.5	5.365834	171.924	405.387	1.137555	0.095126	0.094680	399.064	52156.5	0.089388	0.251777	1584.99	94967.1
165	2.000000	1.139916	7.36666e+06	-46889.1	955.82	-29768.2	0.000000	0.000000	7.157632	417.3	NaN	0.000000	0.001632	0.001712	28.098	95.793	0.001841	52033.5	4.841115	173.277	417.232	1.139453	0.097042	0.096579	417.3	52033.5	0.091027	0.259988	1605.08	93235.3
165	2.000000	1.141876	7.36666e+06	-46889.1	955.82	-29768.2	0.000000	0.000000	7.160153	430.952	NaN	0.000000	0.001556	0.001727	28.0981	98.3511	0.001856	53002.8	3.299464	173.655	429.182	1.141640	0.099002	0.098766	430.952	53002.8	0.092904	0.269542	1598.83	93273.5
165	2.000000	1.143854	7.36666e+06	-46889.1	955.82	-29768.2	0.000000	0.000000	7.162651	443.603	NaN	0.000000	0.001570	0.001756	28.0973	99.6875	0.001849	53920	3.559712	173.788	439.858	1.143528	0.100980	0.100654	443.603	53920	0.094810	0.279409	1587.65	93197.1
165	2.000000	1.145793	7.36666e+06	-46889.1	955.819	-29768.2	0.000000	0.000000	7.165225	459.026	NaN	0.000000	0.001592	0.001740	28.0977	100.651	0.001818	55356.9	1.832579	175.03	453.644	1.145556	0.102919	0.102681	459.026	55356.9	0.096700	0.289359	1586.35	94021.4
165	2.000000	1.147818	7.36666e+06	-46889.1	955.82	-29768.2	0.000000	0.000000	7.167872	474.168	NaN	0.000000	0.001567	0.001722	28.0966	102.581	0.001805	56824.6	0.464813	176.088	468.509	1.147542	0.104944	0.104668	474.168	56824.6	0.098685	0.299985	1580.64	94789.5
165	2.000000	1.148324	7.36666e+06	-46889.1	955.82	-29768.2	0.000000	0.000000	7.168693	481.85	NaN	0.000000	0.001581	0.001733	28.1296	102.37	0.001736	58967.2	0.343260	-3.863783	476.462	1.147988	0.105449	0.105114	481.85	58967.2	0.099321	0.303424	1588.05	97804.6