File: remote_trans/data/nanoindenter/0828-1/data/Data_2025-08-06,11h17m57s/2025-07-22_16-23-58_1_1066.txt
2025-07-22, 16:23:58, 1
Index	Phase	Displacement	Time	Pos X	Pos Y	Pos Z	Rot A	Rot B	Piezo Z	Force A	Force B	Gripper	Voltage A	Voltage B	Temperature	Amplitude force	Amplitude pos	Stiffness	Phase shift	Phase excitation	Force A raw	Displacement raw	HMax	HMax raw	Real Force	Real Stiffness	Contact Depth	Area	Hardness	Reduced Mod.
[#]	[#]	[um]	[s]	[um]	[um]	[um]	[m°]	[m°]	[um]	[uN]	[uN]	[V]	[V]	[V]	[°C]	[uN]	[um]	[N/m]	[°]	[°]	[uN]	[um]	[um]	[um]	[uN]	[N/m]	[um]	[um^2]	[MPa]	[MPa]
1066	1.000000	0.002813	7.37547e+06	-53439.1	1055.82	-29746.2	0.000000	0.000000	6.002804	-0.002590	NaN	0.000000	0.001545	0.001716	28.0825	0.051161	0.000816	62.6928	-90.7228	-165.885	-0.028103	0.001522	-1.146483	-1.147774	-0.002590	62.6928	-1.146452	-2.105004E+15	1.230256E-18	NaN
1066	1.000000	0.012884	7.37547e+06	-53439.1	1055.82	-29746.2	0.000000	0.000000	6.012876	0.013495	NaN	0.000000	0.001581	0.001726	28.0816	0.081100	0.001298	62.4819	77.1445	12.0235	0.036867	0.011431	-1.136412	-1.137865	0.013495	62.4819	-1.136574	-1.551665E+15	-8.697191E-18	NaN
1066	1.000000	0.022753	7.37547e+06	-53439.1	1055.82	-29746.2	0.000000	0.000000	6.022749	0.091448	NaN	0.000000	0.001564	0.001705	28.0827	0.062862	0.001714	36.6862	53.9067	-164.677	-0.051762	0.021376	-1.126543	-1.127920	0.091448	36.6862	-1.128412	-1.205930E+15	-7.583158E-17	NaN
1066	1.000000	0.032753	7.37547e+06	-53439.1	1055.82	-29746.2	0.000000	0.000000	6.032747	0.064198	NaN	0.000000	0.001532	0.001690	28.0828	0.151040	0.001967	76.7679	111.106	12.5759	0.073349	0.031401	-1.116543	-1.117895	0.064198	76.7679	-1.117170	-8.521345E+14	-7.533777E-17	NaN
1066	1.000000	0.042742	7.37547e+06	-53439.1	1055.82	-29746.2	0.000000	0.000000	6.042736	0.073973	NaN	0.000000	0.001505	0.001701	28.0831	0.129963	0.001812	71.7179	-163.705	-166.064	0.093370	0.041471	-1.106554	-1.107825	0.073973	71.7179	-1.107328	-6.286740E+14	-1.176653E-16	NaN
1066	1.000000	0.052761	7.37547e+06	-53439.1	1055.82	-29746.2	0.000000	0.000000	6.052753	0.008882	NaN	0.000000	0.001523	0.001716	28.0825	0.039031	0.001953	19.9845	36.7183	16.4254	0.011710	0.051379	-1.096535	-1.097917	0.008882	19.9845	-1.096868	-4.550156E+14	-1.952063E-17	NaN
1066	1.000000	0.062742	7.37547e+06	-53439.1	1055.82	-29746.2	0.000000	0.000000	6.062735	0.037645	NaN	0.000000	0.001539	0.001706	28.0829	0.070688	0.002084	33.9214	-171.019	-165.124	0.057875	0.061448	-1.086554	-1.087848	0.037645	33.9214	-1.087386	-3.394012E+14	-1.109150E-16	NaN
1066	1.000000	0.072784	7.37547e+06	-53439.1	1055.82	-29746.2	0.000000	0.000000	6.072776	0.017592	NaN	0.000000	0.001536	0.001685	28.0826	0.088670	0.002084	42.5485	55.5169	14.1543	-0.024774	0.071439	-1.076512	-1.077857	0.017592	42.5485	-1.076822	-2.448098E+14	-7.186191E-17	NaN
1066	1.000000	0.082780	7.37547e+06	-53439.1	1055.82	-29746.2	0.000000	0.000000	6.082774	0.043766	NaN	0.000000	0.001555	0.001731	28.0828	0.096461	0.001915	50.3817	-125.603	-163.276	0.025462	0.081443	-1.066516	-1.067853	0.043766	50.3817	-1.067167	-1.816051E+14	-2.409968E-16	NaN
1066	1.000000	0.092789	7.37547e+06	-53439.1	1055.82	-29746.2	0.000000	0.000000	6.092782	0.033276	NaN	0.000000	0.001559	0.001735	28.0825	0.055296	0.002002	27.6177	-0.562645	15.0545	0.015026	0.091404	-1.056507	-1.057892	0.033276	27.6177	-1.057410	-1.342822E+14	-2.478069E-16	NaN
1066	1.000000	0.102808	7.37547e+06	-53439.1	1055.82	-29746.2	0.000000	0.000000	6.102801	0.034801	NaN	0.000000	0.001572	0.001776	28.0826	0.077168	0.002060	37.46	-161.68	-163.889	0.035737	0.101461	-1.046488	-1.047835	0.034801	37.46	-1.047184	-9.785032E+13	-3.556595E-16	NaN
1066	1.000000	0.112785	7.37547e+06	-53439.1	1055.82	-29746.2	0.000000	0.000000	6.112776	0.005148	NaN	0.000000	0.001572	0.001716	28.0825	0.062842	0.002089	30.0787	-9.410002	15.6609	0.031127	0.111428	-1.036511	-1.037868	0.005148	30.0787	-1.036640	-7.059602E+13	-7.292782E-17	NaN
1066	1.000000	0.122806	7.37547e+06	-53439.1	1055.82	-29746.2	0.000000	0.000000	6.122797	-0.029601	NaN	0.000000	0.001546	0.001687	28.0825	0.181518	0.001936	93.7427	-118.315	-164.091	0.057889	0.121440	-1.026490	-1.027856	-0.029601	93.7427	-1.026253	-5.117693E+13	5.784039E-16	NaN
1066	1.000000	0.132780	7.37547e+06	-53439.1	1055.82	-29746.2	0.000000	0.000000	6.132774	0.058048	NaN	0.000000	0.001567	0.001684	28.0824	0.077418	0.001931	40.0823	-27.0577	15.0595	0.100415	0.131426	-1.016516	-1.017870	0.058048	40.0823	-1.017602	-3.914567E+13	-1.482880E-15	NaN
1066	1.000000	0.142791	7.37547e+06	-53439.1	1055.82	-29746.2	0.000000	0.000000	6.142783	0.031107	NaN	0.000000	0.001542	0.001722	28.0824	0.098044	0.002020	48.5246	-1.716252	-165.223	0.036403	0.141476	-1.006505	-1.007820	0.031107	48.5246	-1.006986	-2.817167E+13	-1.104179E-15	NaN
1066	1.000000	0.152815	7.37547e+06	-53439.1	1055.82	-29746.2	0.000000	0.000000	6.152809	0.072617	NaN	0.000000	0.001607	0.001706	28.0824	0.078693	0.002017	39.0089	-170.134	12.539	0.051175	0.151394	-0.996482	-0.997902	0.072617	39.0089	-0.997878	-2.124193E+13	-3.418560E-15	NaN
1066	1.000000	0.162793	7.37547e+06	-53439.1	1055.82	-29746.2	0.000000	0.000000	6.162788	0.068447	NaN	0.000000	0.001616	0.001723	28.0811	0.059848	0.002051	29.1798	169.42	-165.293	0.079431	0.161487	-0.986503	-0.987809	0.068447	29.1798	-0.988262	-1.576531E+13	-4.341639E-15	NaN
1066	1.000000	0.172760	7.37547e+06	-53439.1	1055.82	-29746.2	0.000000	0.000000	6.172754	0.074695	NaN	0.000000	0.001607	0.001732	28.0812	0.076075	0.002124	35.8129	-138.339	17.9949	0.115598	0.171412	-0.976536	-0.977884	0.074695	35.8129	-0.978101	-1.150325E+13	-6.493372E-15	NaN
1066	1.000000	0.182805	7.37547e+06	-53439.1	1055.82	-29746.2	0.000000	0.000000	6.182801	0.130666	NaN	0.000000	0.001608	0.001681	28.0815	0.065440	0.002111	31.0037	104.309	-163.593	0.018726	0.181485	-0.966491	-0.967811	0.130666	31.0037	-0.969652	-8.850651E+12	-1.476346E-14	NaN
1066	1.000000	0.192801	7.37547e+06	-53439.1	1055.82	-29746.2	0.000000	0.000000	6.192795	0.058909	NaN	0.000000	0.001551	0.001669	28.0815	0.011849	0.001913	6.194365	111.524	17.1236	0.057875	0.191501	-0.956495	-0.957795	0.058909	6.194365	-0.963628	-7.341323E+12	-8.024268E-15	NaN
1066	1.000000	0.202830	7.37547e+06	-53439.1	1055.82	-29746.2	0.000000	0.000000	6.202821	-0.025408	NaN	0.000000	0.001559	0.001734	28.0815	0.089783	0.001978	45.3909	68.3633	-167.684	-0.067941	0.201511	-0.946466	-0.947785	-0.025408	45.3909	-0.946046	-4.253011E+12	5.974186E-15	NaN
1066	1.000000	0.212813	7.37547e+06	-53439.1	1055.82	-29746.2	0.000000	0.000000	6.212803	-0.016051	NaN	0.000000	0.001573	0.001713	28.0813	0.074562	0.002000	37.2776	-172.683	13.2468	-0.015744	0.211469	-0.936483	-0.937827	-0.016051	37.2776	-0.936161	-3.128479E+12	5.130744E-15	NaN
1066	1.000000	0.222832	7.37548e+06	-53439.1	1055.82	-29746.2	0.000000	0.000000	6.222826	0.075092	NaN	0.000000	0.001615	0.001659	28.0816	0.035251	0.002025	17.4076	-173.101	-161.805	0.056095	0.221505	-0.926464	-0.927791	0.075092	17.4076	-0.929699	-2.559403E+12	-2.933958E-14	NaN
1066	1.000000	0.232815	7.37548e+06	-53439.1	1055.82	-29746.2	0.000000	0.000000	6.232810	0.089752	NaN	0.000000	0.001591	0.001683	28.0815	0.112163	0.002154	52.0781	96.2101	15.492	0.103764	0.231445	-0.916481	-0.917851	0.089752	52.0781	-0.917774	-1.766636E+12	-5.080393E-14	NaN
1066	1.000000	0.242839	7.37548e+06	-53439.1	1055.82	-29746.2	0.000000	0.000000	6.242834	0.078731	NaN	0.000000	0.001589	0.001722	28.0814	0.027054	0.002062	13.1227	143.096	-168.353	0.109934	0.241563	-0.906457	-0.907733	0.078731	13.1227	-0.910956	-1.429153E+12	-5.508904E-14	NaN
1066	1.000000	0.252859	7.37548e+06	-53439.1	1055.82	-29746.2	0.000000	0.000000	6.252853	0.050046	NaN	0.000000	0.001576	0.001710	28.0816	0.127144	0.001987	63.9955	-65.1921	19.2593	0.161825	0.251504	-0.896437	-0.897792	0.050046	63.9955	-0.897023	-9.264917E+11	-5.401697E-14	NaN
1066	1.000000	0.262852	7.37548e+06	-53439.1	1055.82	-29746.2	0.000000	0.000000	6.262844	0.021562	NaN	0.000000	0.001587	0.001711	28.0816	0.015262	0.002008	7.602653	81.1062	-163.951	0.030800	0.261554	-0.886444	-0.887742	0.021562	7.602653	-0.888571	-7.121912E+11	-3.027579E-14	NaN
1066	1.000000	0.272846	7.37548e+06	-53439.1	1055.82	-29746.2	0.000000	0.000000	6.272839	0.039731	NaN	0.000000	0.001564	0.001689	28.0815	0.010115	0.001988	5.087122	88.0333	16.3619	-0.030024	0.271506	-0.876450	-0.877790	0.039731	5.087122	-0.882307	-5.860175E+11	-6.779818E-14	NaN
1066	1.000000	0.282840	7.37548e+06	-53439.1	1055.82	-29746.2	0.000000	0.000000	6.282834	0.052538	NaN	0.000000	0.001571	0.001692	28.0813	0.079812	0.001880	42.4633	47.5175	-162.993	0.011042	0.281517	-0.866456	-0.867779	0.052538	42.4633	-0.867384	-3.681689E+11	-1.427017E-13	NaN
1066	1.000000	0.292872	7.37548e+06	-53439.1	1055.82	-29746.2	0.000000	0.000000	6.292865	0.042828	NaN	0.000000	0.001553	0.001667	28.0829	0.163937	0.001923	85.2492	93.0515	14.9821	0.043009	0.291475	-0.856424	-0.857821	0.042828	85.2492	-0.856800	-2.647348E+11	-1.617753E-13	NaN
1066	1.000000	0.302871	7.37548e+06	-53439.1	1055.82	-29746.2	0.000000	0.000000	6.302863	0.020243	NaN	0.000000	0.001575	0.001700	28.0828	0.118858	0.002041	58.2257	158.429	-164.959	0.027905	0.301566	-0.846425	-0.847731	0.020243	58.2257	-0.846685	-1.931306E+11	-1.048163E-13	NaN
1066	1.000000	0.312887	7.37548e+06	-53439.1	1055.82	-29746.2	0.000000	0.000000	6.312880	0.029082	NaN	0.000000	0.001597	0.001680	28.083	0.058884	0.001958	30.0796	166.452	13.6697	0.116851	0.311491	-0.836409	-0.837805	0.029082	30.0796	-0.837134	-1.433707E+11	-2.028437E-13	NaN
1066	1.000000	0.322852	7.37548e+06	-53439.1	1055.82	-29746.2	0.000000	0.000000	6.322844	0.024208	NaN	0.000000	0.001554	0.001717	28.0829	0.066097	0.001974	33.4753	-103.721	-164.427	0.000763	0.321555	-0.826444	-0.827741	0.024208	33.4753	-0.826986	-1.044557E+11	-2.317490E-13	NaN
1066	1.000000	0.332883	7.37548e+06	-53439.1	1055.82	-29746.2	0.000000	0.000000	6.332874	0.001266	NaN	0.000000	0.001560	0.001695	28.0828	0.030996	0.001953	15.8737	124.598	17.1301	0.002087	0.331535	-0.816413	-0.817761	0.001266	15.8737	-0.816473	-7.522737E+10	-1.683549E-14	NaN
1066	1.000000	0.342874	7.37548e+06	-53439.1	1055.82	-29746.2	0.000000	0.000000	6.342867	0.062049	NaN	0.000000	0.001531	0.001701	28.0825	0.030632	0.002043	14.9972	-137.983	-164.42	-0.007537	0.341546	-0.806422	-0.807750	0.062049	14.9972	-0.809525	-6.055250E+10	-1.024712E-12	NaN
1066	1.000000	0.352884	7.37548e+06	-53439.1	1055.82	-29746.2	0.000000	0.000000	6.352877	0.030148	NaN	0.000000	0.001541	0.001687	28.0825	0.055314	0.001982	27.9047	-8.679383	15.5322	0.071146	0.351543	-0.796412	-0.797753	0.030148	27.9047	-0.797222	-4.122426E+10	-7.313234E-13	NaN
1066	1.000000	0.362890	7.37548e+06	-53439.1	1055.82	-29746.2	0.000000	0.000000	6.362882	0.037913	NaN	0.000000	0.001515	0.001700	28.0827	0.070344	0.001945	36.1628	71.503	-164.231	0.015337	0.361561	-0.786406	-0.787735	0.037913	36.1628	-0.787193	-3.012681E+10	-1.258444E-12	NaN
1066	1.000000	0.372887	7.37548e+06	-53439.1	1055.82	-29746.2	0.000000	0.000000	6.372881	0.074110	NaN	0.000000	0.001524	0.001657	28.0824	0.070107	0.001954	35.8784	-167.164	17.3972	0.059618	0.371566	-0.776409	-0.777730	0.074110	35.8784	-0.777958	-2.256765E+10	-3.283912E-12	NaN
1066	1.000000	0.382899	7.37548e+06	-53439.1	1055.82	-29746.2	0.000000	0.000000	6.382891	0.032744	NaN	0.000000	0.001504	0.001671	28.0827	0.051338	0.002111	24.3236	-25.8675	-166.31	0.095798	0.381573	-0.766397	-0.767723	0.032744	24.3236	-0.767407	-1.621977E+10	-2.018788E-12	NaN
1066	1.000000	0.392886	7.37548e+06	-53439.1	1055.82	-29746.2	0.000000	0.000000	6.392878	0.020540	NaN	0.000000	0.001529	0.001698	28.0824	0.081344	0.001962	41.4505	104.202	16.5963	-0.029811	0.391575	-0.756410	-0.757721	0.020540	41.4505	-0.756782	-1.162827E+10	-1.766352E-12	NaN
1066	1.000000	0.402903	7.37548e+06	-53439.1	1055.82	-29746.2	0.000000	0.000000	6.402895	0.007391	NaN	0.000000	0.001523	0.001722	28.0828	0.084017	0.002008	41.8513	-42.7315	-164.725	0.115590	0.401592	-0.746393	-0.747704	0.007391	41.8513	-0.746525	-8.431701E+9	-8.765657E-13	NaN
1066	1.000000	0.412922	7.37548e+06	-53439.1	1055.82	-29746.2	0.000000	0.000000	6.412913	-0.003471	NaN	0.000000	0.001555	0.001688	28.0826	0.011854	0.001949	6.081063	152.279	12.0357	-0.090233	0.411513	-0.736374	-0.737783	-0.003471	6.081063	-0.735946	-6.051033E+9	5.735786E-13	NaN
1066	1.000000	0.422905	7.37548e+06	-53439.1	1055.82	-29746.2	0.000000	0.000000	6.422898	0.024493	NaN	0.000000	0.001497	0.001705	28.0824	0.052604	0.002016	26.0928	24.4816	-165.748	0.042077	0.421604	-0.726391	-0.727692	0.024493	26.0928	-0.727095	-4.583615E+9	-5.343498E-12	NaN
1066	1.000000	0.432918	7.37548e+06	-53439.1	1055.82	-29746.2	0.000000	0.000000	6.432912	0.079936	NaN	0.000000	0.001534	0.001701	28.0815	0.072997	0.001935	37.7318	59.3186	15.2735	0.144718	0.431569	-0.716378	-0.717727	0.079936	37.7318	-0.717967	-3.441523E+9	-2.322681E-11	NaN
1066	1.000000	0.442935	7.37548e+06	-53439.1	1055.82	-29746.2	0.000000	0.000000	6.442927	0.023235	NaN	0.000000	0.001539	0.001656	28.0812	0.036643	0.002019	18.1485	-27.4795	-164.905	0.031828	0.441612	-0.706361	-0.707684	0.023235	18.1485	-0.707321	-2.463137E+9	-9.433136E-12	NaN
1066	1.000000	0.452909	7.37548e+06	-53439.1	1055.82	-29746.2	0.000000	0.000000	6.452899	-0.037410	NaN	0.000000	0.001521	0.001648	28.0813	0.033045	0.002119	15.5934	9.200081	17.6943	-0.116590	0.451582	-0.696387	-0.697714	-0.037410	15.5934	-0.694587	-1.650442E+9	2.266694E-11	NaN
1066	1.000000	0.462920	7.37548e+06	-53439.1	1055.82	-29746.2	0.000000	0.000000	6.462911	-0.010270	NaN	0.000000	0.001545	0.001672	28.0812	0.078679	0.001981	39.7137	-126.534	-164.023	-0.022387	0.461630	-0.686376	-0.687666	-0.010270	39.7137	-0.686182	-1.266876E+9	8.106374E-12	NaN
1066	1.000000	0.472945	7.37548e+06	-53439.1	1055.82	-29746.2	0.000000	0.000000	6.472935	-0.019442	NaN	0.000000	0.001601	0.001663	28.0815	0.078908	0.001975	39.9629	110.544	12.764	-0.028316	0.471560	-0.676352	-0.677736	-0.019442	39.9629	-0.675987	-9.189868E+8	2.115635E-11	NaN
1066	1.000000	0.482944	7.37548e+06	-53439.1	1055.82	-29746.2	0.000000	0.000000	6.482936	0.013443	NaN	0.000000	0.001584	0.001684	28.0814	0.052556	0.001938	27.1243	-161.499	-164.356	0.044702	0.481633	-0.666352	-0.667663	0.013443	27.1243	-0.666724	-6.863455E+8	-1.958620E-11	NaN
1066	1.000000	0.492932	7.37548e+06	-53439.1	1055.82	-29746.2	0.000000	0.000000	6.492924	0.014940	NaN	0.000000	0.001597	0.001681	28.0814	0.035895	0.002040	17.5942	-53.5208	16.0989	0.055546	0.491609	-0.656364	-0.657687	0.014940	17.5942	-0.657001	-5.051123E+8	-2.957721E-11	NaN
1066	1.000000	0.502967	7.37548e+06	-53439.1	1055.82	-29746.2	0.000000	0.000000	6.502958	0.007630	NaN	0.000000	0.001632	0.001680	28.0816	0.120378	0.002045	58.8752	157.527	-166.895	0.070004	0.501624	-0.646329	-0.647672	0.007630	58.8752	-0.646427	-3.617773E+8	-2.108900E-11	NaN
1066	1.000000	0.512973	7.37548e+06	-53439.1	1055.82	-29746.2	0.000000	0.000000	6.512963	-0.025109	NaN	0.000000	0.001622	0.001649	28.0813	0.054483	0.001974	27.6064	88.7995	11.8808	0.035688	0.511548	-0.636323	-0.637748	-0.025109	27.6064	-0.635641	-2.573171E+8	9.757911E-11	NaN
1066	1.000000	0.522946	7.37548e+06	-53439.1	1055.82	-29746.2	0.000000	0.000000	6.522938	0.026588	NaN	0.000000	0.001627	0.001665	28.0814	0.121934	0.002022	60.2899	62.1325	-163.392	0.121139	0.521668	-0.626350	-0.627628	0.026588	60.2899	-0.626681	-1.938361E+8	-1.371698E-10	NaN
1066	1.000000	0.532959	7.37548e+06	-53439.1	1055.82	-29746.2	0.000000	0.000000	6.532951	0.027130	NaN	0.000000	0.001553	0.001664	28.0814	0.062265	0.002028	30.7009	-67.0952	17.6651	0.017617	0.531630	-0.616337	-0.617666	0.027130	30.7009	-0.617000	-1.426894E+8	-1.901336E-10	NaN
1066	1.000000	0.542968	7.37548e+06	-53439.1	1055.82	-29746.2	0.000000	0.000000	6.542959	-0.011931	NaN	0.000000	0.001594	0.001682	28.0818	0.175621	0.002062	85.1874	126.342	-164.457	0.003936	0.541660	-0.606328	-0.607636	-0.011931	85.1874	-0.606223	-1.014224E+8	1.176373E-10	NaN
1066	1.000000	0.552966	7.37548e+06	-53439.1	1055.82	-29746.2	0.000000	0.000000	6.552956	-0.016979	NaN	0.000000	0.001546	0.001664	28.0814	0.018257	0.001974	9.247945	-41.0946	18.5321	0.045858	0.551627	-0.596330	-0.597670	-0.016979	9.247945	-0.594953	-7.094777E+7	2.393158E-10	NaN
1066	1.000000	0.562969	7.37548e+06	-53439.1	1055.82	-29746.2	0.000000	0.000000	6.562959	-0.018992	NaN	0.000000	0.001583	0.001667	28.0817	0.135438	0.002142	63.2261	-100.303	-166.16	0.087071	0.561715	-0.586327	-0.587581	-0.018992	63.2261	-0.586102	-5.356874E+7	3.545274E-10	NaN
1066	1.000000	0.573007	7.37548e+06	-53439.1	1055.82	-29746.2	0.000000	0.000000	6.572999	0.017864	NaN	0.000000	0.001511	0.001669	28.0827	0.050019	0.002027	24.6814	32.6	14.7923	0.039405	0.571685	-0.576289	-0.577611	0.017864	24.6814	-0.576832	-3.990185E+7	-4.476955E-10	NaN
1066	1.000000	0.582959	7.37548e+06	-53439.1	1055.82	-29746.2	0.000000	0.000000	6.582953	0.058299	NaN	0.000000	0.001546	0.001704	28.0828	0.108740	0.001988	54.7016	82.7752	-168.265	0.048258	0.581640	-0.566337	-0.567656	0.058299	54.7016	-0.567136	-2.931284E+7	-1.988851E-9	NaN
1066	1.000000	0.593016	7.37548e+06	-53439.1	1055.82	-29746.2	0.000000	0.000000	6.593006	-0.025458	NaN	0.000000	0.001518	0.001714	28.0826	0.057576	0.001936	29.7344	99.1794	15.8231	0.016261	0.591638	-0.556280	-0.557658	-0.025458	29.7344	-0.555638	-2.032446E+7	1.252601E-9	NaN
1066	1.000000	0.602986	7.37548e+06	-53439.1	1055.82	-29746.2	0.000000	0.000000	6.602974	-0.070528	NaN	0.000000	0.001528	0.001734	28.0827	0.100859	0.002102	47.9719	146.08	-164.977	-0.034518	0.601678	-0.546310	-0.547618	-0.070528	47.9719	-0.545207	-1.457317E+7	4.839612E-9	NaN
1066	1.000000	0.612993	7.37548e+06	-53439.1	1055.82	-29746.2	0.000000	0.000000	6.612986	0.034743	NaN	0.000000	0.001516	0.001755	28.0826	0.020693	0.001994	10.3788	-45.0494	18.6944	0.030415	0.611631	-0.536303	-0.537665	0.034743	10.3788	-0.538813	-1.188221E+7	-2.923946E-9	NaN
1066	1.000000	0.622998	7.37548e+06	-53439.1	1055.82	-29746.2	0.000000	0.000000	6.622992	0.060588	NaN	0.000000	0.001525	0.001740	28.0827	0.013706	0.001930	7.103166	170.521	-165.18	0.041398	0.621673	-0.526298	-0.527623	0.060588	7.103166	-0.532695	-9.77223e+06	-6.200017E-9	NaN
1066	1.000000	0.633015	7.37548e+06	-53439.1	1055.82	-29746.2	0.000000	0.000000	6.633007	-9.802039E-5	NaN	0.000000	0.001525	0.001680	28.0827	0.011998	0.002046	5.865228	-2.131272	14.9489	-0.012294	0.631656	-0.516281	-0.517640	-9.802039E-5	5.865228	-0.516268	-5.77673e+06	1.696814E-11	NaN
1066	1.000000	0.643010	7.37548e+06	-53439.1	1055.82	-29746.2	0.000000	0.000000	6.642999	-0.061410	NaN	0.000000	0.001517	0.001712	28.0827	0.055738	0.002143	26.0036	-140.171	-165.479	0.011222	0.641720	-0.506286	-0.507576	-0.061410	26.0036	-0.504515	-3.96257e+06	1.549761E-8	NaN
1066	1.000000	0.653020	7.37548e+06	-53439.1	1055.82	-29746.2	0.000000	0.000000	6.653011	0.005997	NaN	0.000000	0.001536	0.001662	28.0826	0.065843	0.001946	33.8356	66.5661	14.6955	-0.063368	0.651652	-0.496276	-0.497644	0.005997	33.8356	-0.496409	-3.0543e+06	-1.963471E-9	NaN
1066	1.000000	0.663022	7.37548e+06	-53439.1	1055.82	-29746.2	0.000000	0.000000	6.663017	0.072531	NaN	0.000000	0.001565	0.001694	28.0826	0.022317	0.001903	11.7274	66.4117	-166.746	0.099227	0.661720	-0.486274	-0.487576	0.072531	11.7274	-0.490912	-2.5594e+06	-2.833916E-8	NaN
1066	1.000000	0.673020	7.37548e+06	-53439.1	1055.82	-29746.2	0.000000	0.000000	6.673013	0.024834	NaN	0.000000	0.001485	0.001685	28.0825	0.089519	0.001970	45.4338	24.2054	16.4581	-0.041400	0.671671	-0.476276	-0.477625	0.024834	45.4338	-0.476685	-1.6185e+06	-1.534374E-8	NaN
1066	1.000000	0.683033	7.37548e+06	-53439.1	1055.82	-29746.2	0.000000	0.000000	6.683027	0.044958	NaN	0.000000	0.001497	0.001693	28.0825	0.112382	0.002033	55.2839	-154.524	-162.533	0.026898	0.681744	-0.466263	-0.467552	0.044958	55.2839	-0.466872	-1.17904e+06	-3.813093E-8	NaN
1066	1.000000	0.693006	7.37548e+06	-53439.1	1055.82	-29746.2	0.000000	0.000000	6.693001	0.093677	NaN	0.000000	0.001508	0.001698	28.0825	0.067245	0.001805	37.2486	-176.379	16.1149	0.070367	0.691725	-0.456290	-0.457571	0.093677	37.2486	-0.458176	-889982	-1.052567E-7	NaN
1066	1.000000	0.703011	7.37548e+06	-53439.1	1055.82	-29746.2	0.000000	0.000000	6.703003	0.017103	NaN	0.000000	0.001510	0.001729	28.0815	0.029614	0.001994	14.8518	-48.9359	-167.614	-0.006794	0.701705	-0.446285	-0.447591	0.017103	14.8518	-0.447149	-622556	-2.747221E-8	NaN
1066	1.000000	0.713041	7.37548e+06	-53439.1	1055.82	-29746.2	0.000000	0.000000	6.713033	0.021865	NaN	0.000000	0.001516	0.001678	28.0811	0.035486	0.001969	18.0209	80.891	16.6169	0.104252	0.711673	-0.436255	-0.437623	0.021865	18.0209	-0.437165	-450137	-4.857316E-8	NaN
1066	1.000000	0.723034	7.37548e+06	-53439.1	1055.82	-29746.2	0.000000	0.000000	6.723026	0.018880	NaN	0.000000	0.001568	0.001672	28.0814	0.058009	0.001954	29.6933	-175.584	-165.599	0.010488	0.721742	-0.426262	-0.427554	0.018880	29.6933	-0.426739	-320563	-5.889794E-8	NaN
1066	1.000000	0.733061	7.37548e+06	-53439.1	1055.82	-29746.2	0.000000	0.000000	6.733052	0.004324	NaN	0.000000	0.001515	0.001670	28.0808	0.050465	0.002045	24.6808	-98.5234	14.2107	0.026766	0.731703	-0.416236	-0.417593	0.004324	24.6808	-0.416367	-228488	-1.892581E-8	NaN
1066	1.000000	0.743039	7.37548e+06	-53439.1	1055.82	-29746.2	0.000000	0.000000	6.743031	0.031156	NaN	0.000000	0.001477	0.001682	28.0812	0.112186	0.002081	53.9072	53.5387	-165.852	0.111872	0.741713	-0.406257	-0.407583	0.031156	53.9072	-0.406691	-166463	-1.871653E-7	NaN
1066	1.000000	0.753046	7.37548e+06	-53439.1	1055.82	-29746.2	0.000000	0.000000	6.753037	-0.003500	NaN	0.000000	0.001537	0.001644	28.0814	0.047585	0.001954	24.3506	97.0937	17.3772	0.072616	0.751718	-0.396250	-0.397578	-0.003500	24.3506	-0.396142	-117745	2.972589E-8	NaN
1066	1.000000	0.763028	7.37548e+06	-53439.1	1055.82	-29746.2	0.000000	0.000000	6.763021	0.027248	NaN	0.000000	0.001501	0.001654	28.0813	0.047402	0.001999	23.7102	79.3382	-164.513	0.008138	0.761816	-0.386268	-0.387480	0.027248	23.7102	-0.387130	-87516.6	-3.113501E-7	NaN
1066	1.000000	0.773062	7.37548e+06	-53439.1	1055.82	-29746.2	0.000000	0.000000	6.773053	0.005800	NaN	0.000000	0.001513	0.001645	28.0812	0.047827	0.001952	24.5001	42.4122	13.3604	0.092629	0.771693	-0.376234	-0.377603	0.005800	24.5001	-0.376412	-61427.6	-9.441525E-8	NaN
1066	1.000000	0.783070	7.37548e+06	-53439.1	1055.82	-29746.2	0.000000	0.000000	6.783062	0.007451	NaN	0.000000	0.001497	0.001646	28.0812	0.106452	0.002029	52.4683	49.9695	-165.002	0.026970	0.781815	-0.366226	-0.367481	0.007451	52.4683	-0.366332	-43981.9	-1.694189E-7	NaN
1066	1.000000	0.793085	7.37548e+06	-53439.1	1055.82	-29746.2	0.000000	0.000000	6.793077	0.007296	NaN	0.000000	0.001526	0.001666	28.0812	0.100247	0.001997	50.2022	-155.436	18.745	0.031856	0.791730	-0.356211	-0.357566	0.007296	50.2022	-0.356320	-31521.6	-2.314643E-7	NaN
1066	1.000000	0.803048	7.37548e+06	-53439.1	1055.82	-29746.2	0.000000	0.000000	6.803041	0.053696	NaN	0.000000	0.001477	0.001706	28.0812	0.015009	0.001850	8.112457	132.198	-164.266	0.012099	0.801722	-0.346248	-0.347574	0.053696	8.112457	-0.351212	-26582.3	-2.019981E-6	NaN
1066	1.000000	0.813104	7.37548e+06	-53439.1	1055.82	-29746.2	0.000000	0.000000	6.813097	0.034084	NaN	0.000000	0.001540	0.001729	28.0814	0.088829	0.001904	46.6596	-91.9146	13.0194	-0.024132	0.811684	-0.336192	-0.337612	0.034084	46.6596	-0.336740	-16368.1	-2.082329E-6	NaN
1066	1.000000	0.823068	7.37548e+06	-53439.1	1055.82	-29746.2	0.000000	0.000000	6.823056	-0.064081	NaN	0.000000	0.001541	0.001673	28.0813	0.134926	0.001969	68.5396	-126.778	-165.727	-0.043225	0.821772	-0.326228	-0.327525	-0.064081	68.5396	-0.325527	-11217	5.712812E-6	NaN
1066	1.000000	0.833067	7.37548e+06	-53439.1	1055.82	-29746.2	0.000000	0.000000	6.833060	0.023651	NaN	0.000000	0.001454	0.001674	28.0813	0.076271	0.002239	34.0663	89.5924	11.2989	0.046137	0.831665	-0.316229	-0.317631	0.023651	34.0663	-0.316749	-8332.09	-2.838601E-6	NaN
1066	1.000000	0.843089	7.37548e+06	-53439.1	1055.82	-29746.2	0.000000	0.000000	6.843079	-0.020706	NaN	0.000000	0.001475	0.001693	28.0823	0.039166	0.002045	19.1543	21.5608	-167.231	-0.036733	0.841813	-0.306207	-0.307483	-0.020706	19.1543	-0.305396	-5660.24	3.658199E-6	NaN
1066	1.000000	0.853091	7.37548e+06	-53439.1	1055.82	-29746.2	0.000000	0.000000	6.853085	0.053153	NaN	0.000000	0.001434	0.001693	28.0823	0.110746	0.001963	56.428	-137.11	15.0832	0.065930	0.851746	-0.296205	-0.297550	0.053153	56.428	-0.296911	-4232.65	-1.255783E-5	NaN
1066	1.000000	0.863114	7.37548e+06	-53439.1	1055.82	-29746.2	0.000000	0.000000	6.863108	0.065464	NaN	0.000000	0.001498	0.001671	28.0824	0.082971	0.001940	42.7793	20.7615	-167.291	0.010375	0.861780	-0.286182	-0.287516	0.065464	42.7793	-0.287330	-3042.7	-2.151505E-5	NaN
1066	1.000000	0.873110	7.37548e+06	-53439.1	1055.82	-29746.2	0.000000	0.000000	6.873103	0.061157	NaN	0.000000	0.001499	0.001679	28.0821	0.047538	0.002035	23.3612	178.275	13.055	0.110454	0.871733	-0.276186	-0.277563	0.061157	23.3612	-0.278150	-2213.29	-2.763163E-5	NaN
1066	1.000000	0.883116	7.37548e+06	-53439.1	1055.82	-29746.2	0.000000	0.000000	6.883107	0.003161	NaN	0.000000	0.001508	0.001656	28.0822	0.058243	0.001972	29.5382	-17.4778	-163.856	-0.000192	0.881756	-0.266180	-0.267540	0.003161	29.5382	-0.266260	-1460.89	-2.164089E-6	NaN
1066	1.000000	0.893100	7.37548e+06	-53439.1	1055.82	-29746.2	0.000000	0.000000	6.893092	0.031240	NaN	0.000000	0.001500	0.001681	28.0824	0.014933	0.001949	7.663620	38.1556	13.1287	0.026661	0.891713	-0.256196	-0.257583	0.031240	7.663620	-0.259254	-1141.5	-2.736717E-5	NaN
1066	1.000000	0.903108	7.37548e+06	-53439.1	1055.82	-29746.2	0.000000	0.000000	6.903097	-0.048627	NaN	0.000000	0.001519	0.001660	28.0824	0.083967	0.001805	46.5137	-144.118	-164.22	0.106268	0.901794	-0.246188	-0.247503	-0.048627	46.5137	-0.245404	-697.801	6.968647E-5	NaN
1066	1.000000	0.913127	7.37548e+06	-53439.1	1055.82	-29746.2	0.000000	0.000000	6.913119	0.031903	NaN	0.000000	0.001502	0.001697	28.0824	0.077126	0.001841	41.894	37.3966	12.6416	0.044341	0.911746	-0.236170	-0.237550	0.031903	41.894	-0.236741	-511.159	-6.241294E-5	NaN
1066	1.000000	0.923105	7.37548e+06	-53439.1	1055.82	-29746.2	0.000000	0.000000	6.923097	0.033049	NaN	0.000000	0.001515	0.001692	28.0825	0.135761	0.002018	67.2881	42.3408	-168.009	0.061594	0.921844	-0.226191	-0.227452	0.033049	67.2881	-0.226560	-353.251	-9.355768E-5	NaN
1066	1.000000	0.933129	7.37548e+06	-53439.1	1055.82	-29746.2	0.000000	0.000000	6.933122	0.043446	NaN	0.000000	0.001486	0.001688	28.0825	0.049462	0.002090	23.6632	130.46	14.113	-0.017038	0.931777	-0.216167	-0.217519	0.043446	23.6632	-0.217544	-253.725	-0.000171	NaN
1066	1.000000	0.943118	7.37548e+06	-53439.1	1055.82	-29746.2	0.000000	0.000000	6.943107	-0.039931	NaN	0.000000	0.001525	0.001727	28.0824	0.038785	0.001997	19.4253	83.3931	-165.613	0.001387	0.941824	-0.206178	-0.207472	-0.039931	19.4253	-0.204637	-156.903	0.000254	NaN
1066	1.000000	0.953128	7.37548e+06	-53439.1	1055.82	-29746.2	0.000000	0.000000	6.953119	0.005702	NaN	0.000000	0.001548	0.001660	28.0824	0.059978	0.002088	28.7235	-129.148	16.8754	0.011038	0.951727	-0.196168	-0.197569	0.005702	28.7235	-0.196317	-114.551	-4.977908E-5	NaN
1066	1.000000	0.963141	7.37548e+06	-53439.1	1055.82	-29746.2	0.000000	0.000000	6.963133	0.009663	NaN	0.000000	0.001514	0.001680	28.0824	0.079229	0.001968	40.2565	51.1846	-169.026	-0.006902	0.961833	-0.186155	-0.187463	0.009663	40.2565	-0.186335	-78.0922	-0.000124	NaN
1066	1.000000	0.973138	7.37548e+06	-53439.1	1055.82	-29746.2	0.000000	0.000000	6.973128	-0.038320	NaN	0.000000	0.001518	0.001694	28.0826	0.055420	0.001946	28.4792	-151.009	14.186	-0.009400	0.971773	-0.176158	-0.177523	-0.038320	28.4792	-0.175148	-50.4116	0.000760	NaN
1066	1.000000	0.983135	7.37548e+06	-53439.1	1055.82	-29746.2	0.000000	0.000000	6.983127	0.030252	NaN	0.000000	0.001522	0.001680	28.0812	0.027073	0.001934	13.995	-57.9942	-166.052	0.075622	0.981876	-0.166161	-0.167420	0.030252	13.995	-0.167782	-37.5848	-0.000805	NaN
1066	1.000000	0.993145	7.37548e+06	-53439.1	1055.82	-29746.2	0.000000	0.000000	6.993139	0.070700	NaN	0.000000	0.001576	0.001690	28.0812	0.089706	0.001988	45.133	120.475	15.9786	0.068004	0.991804	-0.156151	-0.157492	0.070700	45.133	-0.157326	-24.5647	-0.002878	NaN
1066	1.000000	1.003157	7.37548e+06	-53439.1	1055.82	-29746.2	0.000000	0.000000	7.003149	0.012480	NaN	0.000000	0.001532	0.001720	28.0811	0.024988	0.001964	12.7256	-104.148	-164.38	0.064098	1.001851	-0.146139	-0.147445	0.012480	12.7256	-0.146874	-15.8761	-0.000786	NaN
1066	1.000000	1.013165	7.37548e+06	-53439.1	1055.82	-29746.2	0.000000	0.000000	7.013159	0.054171	NaN	0.000000	0.001510	0.001672	28.0814	0.077351	0.001985	38.9698	-59.0302	15.577	0.035694	1.011823	-0.136131	-0.137473	0.054171	38.9698	-0.137173	-10.4624	-0.005178	NaN
1066	1.000000	1.023177	7.37548e+06	-53439.1	1055.82	-29746.2	0.000000	0.000000	7.023168	-0.000197	NaN	0.000000	0.001479	0.001680	28.0812	0.102662	0.001996	51.4248	159.406	-164.328	0.013424	1.021853	-0.126119	-0.127443	-0.000197	51.4248	-0.126116	-6.397787	3.080927E-5	NaN
1066	1.000000	1.033170	7.37548e+06	-53439.1	1055.82	-29746.2	0.000000	0.000000	7.033165	0.071622	NaN	0.000000	0.001484	0.001674	28.0812	0.079386	0.002064	38.4533	22.1297	14.5069	0.099698	1.031790	-0.116126	-0.117506	0.071622	38.4533	-0.117523	-4.303534	-0.016643	NaN
1066	1.000000	1.043153	7.37548e+06	-53439.1	1055.82	-29746.2	0.000000	0.000000	7.043147	0.063576	NaN	0.000000	0.001517	0.001672	28.0814	0.080472	0.002049	39.2735	17.545	-163.788	0.087799	1.041836	-0.106143	-0.107460	0.063576	39.2735	-0.107357	-2.641203	-0.024071	NaN
1066	1.000000	1.053182	7.37548e+06	-53439.1	1055.82	-29746.2	0.000000	0.000000	7.053172	-0.012333	NaN	0.000000	0.001516	0.001686	28.0813	0.070772	0.002136	33.1365	87.7528	16.4019	-0.000783	1.051819	-0.096114	-0.097477	-0.012333	33.1365	-0.095835	-1.473678	0.008369	NaN
1066	1.000000	1.063177	7.37548e+06	-53439.1	1055.82	-29746.2	0.000000	0.000000	7.063168	-0.009931	NaN	0.000000	0.001523	0.001719	28.0814	0.014231	0.002128	6.686758	-165.875	-166.473	0.024505	1.061837	-0.086119	-0.087459	-0.009931	6.686758	-0.085005	-0.821881	0.012083	NaN
1066	1.000000	1.073198	7.37548e+06	-53439.1	1055.82	-29746.2	0.000000	0.000000	7.073188	-0.022349	NaN	0.000000	0.001552	0.001697	28.0813	0.060391	0.002008	30.0805	-144.98	15.1584	-0.057595	1.071797	-0.076098	-0.077499	-0.022349	30.0805	-0.075541	-0.476963	0.046857	NaN
1066	1.000000	1.083160	7.37548e+06	-53439.1	1055.82	-29746.2	0.000000	0.000000	7.083158	0.157498	NaN	0.000000	0.001503	0.001693	28.0813	0.046016	0.001936	23.7629	-123.071	-165.382	0.125974	1.081862	-0.066136	-0.067434	0.157498	23.7629	-0.071107	-0.365111	-0.431371	NaN
1066	1.000000	1.093189	7.37548e+06	-53439.1	1055.82	-29746.2	0.000000	0.000000	7.093179	-0.024963	NaN	0.000000	0.001494	0.001650	28.0811	0.006437	0.001990	3.234641	-151.936	14.9022	0.045888	1.091787	-0.056107	-0.057509	-0.024963	3.234641	-0.050319	-0.093301	0.267558	NaN
1066	1.000000	1.103171	7.37548e+06	-53439.1	1055.82	-29746.2	0.000000	0.000000	7.103164	0.032046	NaN	0.000000	0.001506	0.001682	28.0812	0.055540	0.002020	27.4978	-111.222	-166.502	0.116740	1.101844	-0.046125	-0.047452	0.032046	27.4978	-0.046999	-0.073969	-0.433236	NaN
1066	1.000000	1.113209	7.37548e+06	-53439.1	1055.82	-29746.2	0.000000	0.000000	7.113200	-0.005054	NaN	0.000000	0.001498	0.001690	28.0826	0.113337	0.001842	61.5161	-30.9561	13.5548	-0.067849	1.111872	-0.036087	-0.037424	-0.005054	61.5161	-0.036025	-0.034340	0.147171	NaN
1066	1.000000	1.123192	7.37548e+06	-53439.1	1055.82	-29746.2	0.000000	0.000000	7.123183	-0.010006	NaN	0.000000	0.001565	0.001711	28.0826	0.050533	0.002055	24.5861	147.256	-164.821	0.040062	1.121865	-0.026104	-0.027431	-0.010006	24.5861	-0.025798	-0.017704	0.565170	NaN
1066	1.000000	1.133175	7.37548e+06	-53439.1	1055.82	-29746.2	0.000000	0.000000	7.133176	0.233623	NaN	0.000000	0.001546	0.001712	28.0825	0.361933	0.002139	169.22	31.337	15.0987	0.052808	1.131762	-0.016121	-0.017534	0.233623	169.22	-0.017157	-0.010611	-22.017	NaN
1066	1.000000	1.143198	7.37548e+06	-53439.1	1055.82	-29746.2	0.000000	0.000000	7.143389	4.860289	NaN	0.000000	0.001504	0.001704	28.0824	2.034314	0.001981	1026.77	11.3562	-164.902	4.361177	1.141901	-0.006098	-0.007395	4.860289	1026.77	-0.009648	-0.006186	-785.699	NaN
1066	1.000000	1.153190	7.37548e+06	-53439.1	1055.82	-29746.2	0.000000	0.000000	7.153461	6.782148	NaN	0.000000	0.001529	0.001665	28.0824	3.758550	0.001995	1883.88	13.5074	11.5783	5.827589	1.151856	0.003894	0.002560	6.782148	1883.88	0.001194	0.000914	7422.57	56940.3
1066	2.000000	1.157804	7.37548e+06	-53439.1	1055.82	-29746.2	0.000000	0.000000	7.158166	9.015839	NaN	0.000000	0.001519	0.001677	28.0826	6.526672	0.001887	3458.45	7.305373	-168.165	9.049730	1.157487	0.008508	0.008191	9.015839	3458.45	0.006553	0.005596	1611.15	42239.5
1066	2.000000	1.160287	7.37548e+06	-53439.1	1055.82	-29746.2	0.000000	0.000000	7.160743	11.2867	NaN	0.000000	0.001536	0.001673	28.0823	8.660035	0.001749	4951.13	7.369469	10.6551	11.09	1.159873	0.010991	0.010577	11.2867	4951.13	0.009281	0.008394	1344.67	49374.3
1066	2.000000	1.162747	7.37548e+06	-53439.1	1055.82	-29746.2	0.000000	0.000000	7.163420	16.5794	NaN	0.000000	0.001541	0.001660	28.0828	11.9684	0.001760	6800.44	3.664696	-169.757	16.3828	1.162457	0.013451	0.013161	16.5794	6800.44	0.011622	0.011041	1501.65	59130.3
1066	2.000000	1.165283	7.37548e+06	-53439.1	1055.82	-29746.2	0.000000	0.000000	7.165975	17.0174	NaN	0.000000	0.001501	0.001660	28.0824	14.2954	0.001744	8196.19	6.652914	6.709637	17.1799	1.164932	0.015987	0.015636	17.0174	8196.19	0.014430	0.014533	1170.94	62116.5
1066	2.000000	1.167692	7.37548e+06	-53439.1	1055.82	-29746.2	0.000000	0.000000	7.168509	20.0725	NaN	0.000000	0.001497	0.001641	28.0825	17.4887	0.001889	9257.65	6.449134	-174.618	19.3507	1.167403	0.018396	0.018107	20.0725	9257.65	0.016770	0.017719	1132.82	63541.1
1066	2.000000	1.170229	7.37548e+06	-53439.1	1055.82	-29746.2	0.000000	0.000000	7.171222	24.3567	NaN	0.000000	0.001498	0.001672	28.0824	19.5831	0.001778	11011.7	3.265993	7.167595	23.185	1.169904	0.020933	0.020608	24.3567	11011.7	0.019274	0.021415	1137.38	68749.6
1066	2.000000	1.172702	7.37548e+06	-53439.1	1055.82	-29746.2	0.000000	0.000000	7.173951	30.5657	NaN	0.000000	0.001473	0.001668	28.0825	21.9534	0.001738	12630.8	4.448842	-174.15	30.932	1.172428	0.023406	0.023132	30.5657	12630.8	0.021591	0.025105	1217.53	72832.6
1066	2.000000	1.175214	7.37548e+06	-53439.1	1055.82	-29746.2	0.000000	0.000000	7.176668	35.5556	NaN	0.000000	0.001482	0.001656	28.0825	25.3053	0.001773	14273.6	6.226342	2.452282	35.1174	1.174797	0.025918	0.025501	35.5556	14273.6	0.024050	0.029309	1213.12	76173.7
1066	2.000000	1.177673	7.37548e+06	-53439.1	1055.82	-29746.2	0.000000	0.000000	7.179443	43.2466	NaN	0.000000	0.001453	0.001664	28.0825	28.9842	0.001815	15970.6	10.9974	176.906	42.2848	1.177388	0.028377	0.028092	43.2466	15970.6	0.026346	0.033510	1290.56	79709.2
1066	2.000000	1.180247	7.37548e+06	-53439.1	1055.82	-29746.2	0.000000	0.000000	7.182594	57.276	NaN	0.000000	0.001590	0.001682	28.0814	31.0192	0.001826	16984.7	7.985403	-0.475964	54.9026	1.179820	0.030951	0.030524	57.276	16984.7	0.028422	0.037536	1525.89	80095.1
1066	2.000000	1.182656	7.37548e+06	-53439.1	1055.82	-29746.2	0.000000	0.000000	7.185248	63.2196	NaN	0.000000	0.001583	0.001672	28.0813	32.8105	0.001735	18909	3.285637	-178.203	61.3134	1.182395	0.033360	0.033099	63.2196	18909	0.030853	0.042530	1486.48	83771.3
1066	2.000000	1.185226	7.37548e+06	-53439.1	1055.82	-29746.2	0.000000	0.000000	7.188216	72.9014	NaN	0.000000	0.001568	0.001680	28.0813	36.685	0.001800	20383	5.479025	0.091056	73.5416	1.184765	0.035930	0.035469	72.9014	20383	0.033248	0.047744	1526.92	85227.9
1066	2.000000	1.187652	7.37548e+06	-53439.1	1055.82	-29746.2	0.000000	0.000000	7.191108	84.2341	NaN	0.000000	0.001560	0.001673	28.0812	38.9963	0.001857	21002.3	4.049616	-179.471	82.3639	1.187390	0.038356	0.038094	84.2341	21002.3	0.035348	0.052559	1602.66	83698.2
1066	2.000000	1.190215	7.37548e+06	-53439.1	1055.82	-29746.2	0.000000	0.000000	7.194236	97.9559	NaN	0.000000	0.001555	0.001702	28.0815	40.3557	0.001791	22533.6	4.253175	-0.193931	96.2267	1.189884	0.040919	0.040588	97.9559	22533.6	0.037659	0.058118	1685.46	85398.1
1066	2.000000	1.192633	7.37548e+06	-53439.1	1055.82	-29746.2	0.000000	0.000000	7.197347	114.807	NaN	0.000000	0.001538	0.001665	28.0815	43.1864	0.001745	24753.3	5.199581	177.138	111.634	1.192244	0.043337	0.042948	114.807	24753.3	0.039859	0.063664	1803.33	89631.1
1066	2.000000	1.195122	7.37548e+06	-53439.1	1055.82	-29746.2	0.000000	0.000000	7.200326	126.731	NaN	0.000000	0.001549	0.001685	28.0816	46.0056	0.001794	25650.9	2.298416	0.008636	122.953	1.194831	0.045826	0.045535	126.731	25650.9	0.042121	0.069625	1820.21	88816.6
1066	2.000000	1.197587	7.37548e+06	-53439.1	1055.82	-29746.2	0.000000	0.000000	7.203234	137.511	NaN	0.000000	0.001561	0.001663	28.0814	49.0377	0.001780	27547.6	5.164057	176.072	133.102	1.197271	0.048291	0.047975	137.511	27547.6	0.044547	0.076306	1802.1	91112.3
1066	2.000000	1.200125	7.37548e+06	-53439.1	1055.82	-29746.2	0.000000	0.000000	7.206630	158.381	NaN	0.000000	0.001535	0.001683	28.0812	51.5545	0.001735	29706	9.040736	-8.106194	153.493	1.199762	0.050829	0.050466	158.381	29706	0.046830	0.082867	1911.25	94281.4
1066	2.000000	1.202616	7.37548e+06	-53439.1	1055.82	-29746.2	0.000000	0.000000	7.209906	177.442	NaN	0.000000	0.001564	0.001681	28.0816	52.6255	0.001740	30236.3	2.356199	179.052	174.248	1.202261	0.053320	0.052965	177.442	30236.3	0.048918	0.089100	1991.51	92547.4
1066	2.000000	1.205071	7.37548e+06	-53439.1	1055.82	-29746.2	0.000000	0.000000	7.212928	191.245	NaN	0.000000	0.001550	0.001644	28.0811	56.6125	0.001794	31552.8	2.942917	-2.428037	186.124	1.204783	0.055774	0.055487	191.245	31552.8	0.051229	0.096249	1986.99	92921.1
1066	2.000000	1.207646	7.37548e+06	-53439.1	1055.82	-29746.2	0.000000	0.000000	7.215910	201.114	NaN	0.000000	0.001542	0.001644	28.0815	59.9211	0.001865	32136.7	6.358296	174.373	199.777	1.207326	0.058350	0.058030	201.114	32136.7	0.053657	0.104050	1932.86	91023.6
1066	2.000000	1.210102	7.37548e+06	-53439.1	1055.82	-29746.2	0.000000	0.000000	7.219123	219.521	NaN	0.000000	0.001554	0.001641	28.0814	60.6969	0.001908	31807.7	5.100509	-2.931546	214.069	1.209713	0.060806	0.060417	219.521	31807.7	0.055630	0.110607	1984.7	87380.4
1066	2.000000	1.212615	7.37548e+06	-53439.1	1055.82	-29746.2	0.000000	0.000000	7.222490	240.306	NaN	0.000000	0.001537	0.001667	28.0816	62.961	0.001701	37018	7.606030	171.607	236.936	1.212355	0.063319	0.063059	240.306	37018	0.058450	0.120309	1997.4	97507.1
1066	2.000000	1.215154	7.37548e+06	-53439.1	1055.82	-29746.2	0.000000	0.000000	7.225422	249.848	NaN	0.000000	0.001514	0.001675	28.0825	66.4397	0.001848	35961.7	6.905969	-6.977953	248.363	1.214835	0.065858	0.065539	249.848	35961.7	0.060648	0.128141	1949.79	91784.6
1066	2.000000	1.217583	7.37548e+06	-53439.1	1055.82	-29746.2	0.000000	0.000000	7.229065	279.369	NaN	0.000000	0.001538	0.001690	28.0829	67.7821	0.001788	37902.3	3.583548	175.427	276.023	1.217380	0.068287	0.068084	279.369	37902.3	0.062759	0.135889	2055.87	93939.2
1066	2.000000	1.220155	7.37548e+06	-53439.1	1055.82	-29746.2	0.000000	0.000000	7.232566	301.937	NaN	0.000000	0.001503	0.001683	28.0825	69.8257	0.001790	38999.4	5.924740	-5.892371	299.472	1.219806	0.070859	0.070510	301.937	38999.4	0.065053	0.144548	2088.83	93718.4
1066	2.000000	1.222523	7.37548e+06	-53439.1	1055.82	-29746.2	0.000000	0.000000	7.235738	321.505	NaN	0.000000	0.001499	0.001693	28.0824	72.8646	0.001794	40622.5	5.965455	173.008	315.351	1.222296	0.073227	0.073000	321.505	40622.5	0.067291	0.153243	2098	94808.9
1066	2.000000	1.225081	7.37548e+06	-53439.1	1055.82	-29746.2	0.000000	0.000000	7.239224	344.074	NaN	0.000000	0.001494	0.001688	28.0825	75.6471	0.001893	39952.8	8.036941	-8.827651	341.105	1.224781	0.075784	0.075485	344.074	39952.8	0.069325	0.161355	2132.41	90871.9
1066	2.000000	1.227615	7.37548e+06	-53439.1	1055.82	-29746.2	0.000000	0.000000	7.242798	369.367	NaN	0.000000	0.001561	0.001679	28.0828	76.7876	0.001848	41554.9	3.674096	175.135	368.861	1.227320	0.078319	0.078024	369.367	41554.9	0.071652	0.170874	2161.64	91845.3
1066	2.000000	1.230184	7.37548e+06	-53439.1	1055.82	-29746.2	0.000000	0.000000	7.246440	395.45	NaN	0.000000	0.001571	0.001649	28.0824	78.0214	0.001826	42722	3.831443	-4.580691	394.947	1.229739	0.080888	0.080443	395.45	42722	0.073945	0.180507	2190.78	91871
1066	2.000000	1.232588	7.37548e+06	-53439.1	1055.82	-29746.2	0.000000	0.000000	7.249629	414.542	NaN	0.000000	0.001529	0.001695	28.0827	79.2787	0.001774	44696.6	1.344297	177.031	413.108	1.232324	0.083292	0.083028	414.542	44696.6	0.076336	0.190811	2172.52	93485.8
1066	2.000000	1.235150	7.37548e+06	-53439.1	1055.82	-29746.2	0.000000	0.000000	7.252947	432.891	NaN	0.000000	0.001520	0.001683	28.0825	82.7977	0.001719	48170.2	2.325561	-4.719455	430.304	1.234842	0.085854	0.085546	432.891	48170.2	0.079114	0.203126	2131.14	97649.1
1066	2.000000	1.237639	7.37548e+06	-53439.1	1055.82	-29746.2	0.000000	0.000000	7.256548	459.928	NaN	0.000000	0.001558	0.001626	28.0825	87.111	0.001917	45433.6	5.141548	172.688	459.937	1.237374	0.088343	0.088078	459.928	45433.6	0.080751	0.210550	2184.41	90463.4
1066	2.000000	1.240094	7.37548e+06	-53439.1	1055.82	-29746.2	0.000000	0.000000	7.259999	484.157	NaN	0.000000	0.001497	0.001673	28.0825	88.1987	0.001757	50199.8	4.157449	-6.884690	481.822	1.239838	0.090798	0.090542	484.157	50199.8	0.083565	0.223603	2165.25	96992.1
1066	2.000000	1.242589	7.37548e+06	-53439.1	1055.82	-29746.2	0.000000	0.000000	7.263802	515.971	NaN	0.000000	0.001531	0.001668	28.0824	90.8752	0.001775	51193.9	7.078944	170.235	515.388	1.242261	0.093293	0.092965	515.971	51193.9	0.085734	0.233914	2205.82	96708.2
1066	2.000000	1.245045	7.37548e+06	-53439.1	1055.82	-29746.2	0.000000	0.000000	7.267480	545.661	NaN	0.000000	0.001517	0.001666	28.0828	93.4249	0.001847	50586.8	3.122960	-5.524174	540.724	1.244741	0.095749	0.095445	545.661	50586.8	0.087659	0.243250	2243.21	93709.6
1066	2.000000	1.247590	7.37548e+06	-53439.1	1055.82	-29746.2	0.000000	0.000000	7.270988	569.074	NaN	0.000000	0.001511	0.001702	28.0812	95.7217	0.001711	55935.2	3.180803	172.888	567.304	1.247301	0.098294	0.098005	569.074	55935.2	0.090664	0.258157	2204.37	100581
1066	2.000000	1.250095	7.37548e+06	-53439.1	1055.82	-29746.2	0.000000	0.000000	7.275124	608.746	NaN	0.000000	0.001512	0.001692	28.0813	98.4887	0.001900	51824.9	6.477441	-9.426468	604.439	1.249773	0.100799	0.100477	608.746	51824.9	0.091989	0.264867	2298.31	92002.1
1066	2.000000	1.252475	7.37548e+06	-53439.1	1055.82	-29746.2	0.000000	0.000000	7.279214	650.302	NaN	0.000000	0.001517	0.001710	28.0813	100.306	0.001872	53579.1	5.875719	170.998	642.877	1.252192	0.103179	0.102896	650.302	53579.1	0.094076	0.275594	2359.64	93246.8
1066	2.000000	1.254481	7.37548e+06	-53439.1	1055.82	-29746.2	0.000000	0.000000	7.281680	661.507	NaN	0.000000	0.001558	0.001650	28.0811	102.503	0.001814	56497.7	4.884830	171.421	655.461	1.254198	0.105185	0.104902	661.507	56497.7	0.096403	0.287787	2298.6	96220.7