File: remote_trans/data/nanoindenter/0828-1/data/Data_2025-08-06,11h17m57s/2025-07-22_16-23-58_1_74.txt
2025-07-22, 16:23:58, 1
Index	Phase	Displacement	Time	Pos X	Pos Y	Pos Z	Rot A	Rot B	Piezo Z	Force A	Force B	Gripper	Voltage A	Voltage B	Temperature	Amplitude force	Amplitude pos	Stiffness	Phase shift	Phase excitation	Force A raw	Displacement raw	HMax	HMax raw	Real Force	Real Stiffness	Contact Depth	Area	Hardness	Reduced Mod.
[#]	[#]	[um]	[s]	[um]	[um]	[um]	[m°]	[m°]	[um]	[uN]	[uN]	[V]	[V]	[V]	[°C]	[uN]	[um]	[N/m]	[°]	[°]	[uN]	[um]	[um]	[um]	[uN]	[N/m]	[um]	[um^2]	[MPa]	[MPa]
74	1.000000	0.002747	7.36577e+06	-42339.1	955.818	-29783.5	0.000000	0.000000	6.002828	0.003130	NaN	0.000000	0.001587	0.001694	28.1317	0.062927	0.000864	72.8188	48.4915	-166.088	-0.014380	0.001435	-1.069785	-1.071097	0.003130	72.8188	-1.069817	-1.971192E+14	-1.587641E-17	NaN
74	1.000000	0.010694	7.36577e+06	-42339.1	955.819	-29783.6	0.000000	0.000000	6.010773	-0.022509	NaN	0.000000	0.001571	0.001692	28.1329	0.079252	0.000882	89.8257	41.988	-162.081	-0.058637	0.009357	-1.061838	-1.063175	-0.022509	89.8257	-1.061650	-1.531062E+14	1.470176E-16	NaN
74	1.000000	0.018707	7.36577e+06	-42339.1	955.818	-29783.6	0.000000	0.000000	6.018790	0.061998	NaN	0.000000	0.001567	0.001697	28.1328	0.081299	0.001806	45.0129	25.2328	-167.777	0.117039	0.017388	-1.053825	-1.055143	0.061998	45.0129	-1.054858	-1.240823E+14	-4.996508E-16	NaN
74	1.000000	0.026740	7.36577e+06	-42339.1	955.818	-29783.6	0.000000	0.000000	6.026822	0.047036	NaN	0.000000	0.001575	0.001699	28.1324	0.054023	0.001749	30.884	-77.1585	-164.949	-0.009554	0.025336	-1.045792	-1.047195	0.047036	30.884	-1.046934	-9.709450E+13	-4.844320E-16	NaN
74	1.000000	0.034675	7.36577e+06	-42339.1	955.819	-29783.6	0.000000	0.000000	6.034757	0.022841	NaN	0.000000	0.001536	0.001680	28.1329	0.130877	0.001949	67.156	-117.047	-165.284	0.113734	0.033341	-1.037856	-1.039191	0.022841	67.156	-1.038111	-7.388725E+13	-3.091312E-16	NaN
74	1.000000	0.042677	7.36577e+06	-42339.1	955.818	-29783.6	0.000000	0.000000	6.042758	0.021610	NaN	0.000000	0.001545	0.001695	28.1328	0.075083	0.001961	38.2841	-118.606	-163.738	0.072650	0.041397	-1.029855	-1.031135	0.021610	38.2841	-1.030278	-5.797196E+13	-3.727584E-16	NaN
74	1.000000	0.050676	7.36577e+06	-42339.1	955.819	-29783.6	0.000000	0.000000	6.050754	-0.052760	NaN	0.000000	0.001537	0.001680	28.1322	0.062072	0.001874	33.1217	115.643	-166.202	-0.107694	0.049377	-1.021856	-1.023154	-0.052760	33.1217	-1.020661	-4.303732E+13	1.225924E-15	NaN
74	1.000000	0.058657	7.36577e+06	-42339.1	955.818	-29783.6	0.000000	0.000000	6.058740	0.065794	NaN	0.000000	0.001548	0.001699	28.1311	0.077870	0.001858	41.8999	117.408	-164.724	0.033591	0.057375	-1.013875	-1.015157	0.065794	41.8999	-1.015053	-3.617268E+13	-1.818881E-15	NaN
74	1.000000	0.066696	7.36577e+06	-42339.1	955.818	-29783.6	0.000000	0.000000	6.066774	-0.063391	NaN	0.000000	0.001507	0.001689	28.1306	0.037203	0.002011	18.4995	-68.6725	-161.022	-0.143291	0.065370	-1.005835	-1.007162	-0.063391	18.4995	-1.003265	-2.510323E+13	2.525199E-15	NaN
74	1.000000	0.074682	7.36577e+06	-42339.1	955.818	-29783.6	0.000000	0.000000	6.074763	0.013740	NaN	0.000000	0.001564	0.001658	28.1304	0.148456	0.001988	74.6857	-178.106	-164.637	0.010010	0.073434	-0.997850	-0.999098	0.013740	74.6857	-0.997988	-2.131447E+13	-6.446540E-16	NaN
74	1.000000	0.082680	7.36577e+06	-42339.1	955.818	-29783.6	0.000000	0.000000	6.082762	0.054047	NaN	0.000000	0.001545	0.001680	28.1304	0.073294	0.001930	37.9833	129.225	-167.263	0.008168	0.081388	-0.989852	-0.991144	0.054047	37.9833	-0.990919	-1.711952E+13	-3.157040E-15	NaN
74	1.000000	0.090691	7.36577e+06	-42339.1	955.818	-29783.6	0.000000	0.000000	6.090774	0.066041	NaN	0.000000	0.001540	0.001635	28.1315	0.046015	0.001991	23.1059	-93.7942	-168.928	0.095018	0.089404	-0.981841	-0.983128	0.066041	23.1059	-0.983985	-1.380665E+13	-4.783294E-15	NaN
74	1.000000	0.098675	7.36577e+06	-42339.1	955.818	-29783.6	0.000000	0.000000	6.098756	0.002971	NaN	0.000000	0.001534	0.001681	28.1318	0.067433	0.002034	33.161	119.803	-165.375	-0.038472	0.097344	-0.973857	-0.975188	0.002971	33.161	-0.973924	-1.010510E+13	-2.940019E-16	NaN
74	1.000000	0.106705	7.36577e+06	-42339.1	955.818	-29783.6	0.000000	0.000000	6.106783	-0.065334	NaN	0.000000	0.001530	0.001654	28.1314	0.109660	0.002057	53.3031	-132.77	-165.19	-0.131353	0.105376	-0.965827	-0.967156	-0.065334	53.3031	-0.964908	-7.638820E+12	8.552913E-15	NaN
74	1.000000	0.114714	7.36577e+06	-42339.1	955.819	-29783.6	0.000000	0.000000	6.114794	-0.021913	NaN	0.000000	0.001503	0.001636	28.1315	0.082003	0.001890	43.3938	175.089	-165.862	-0.024548	0.113354	-0.957817	-0.959177	-0.021913	43.3938	-0.957439	-6.058069E+12	3.617110E-15	NaN
74	1.000000	0.122718	7.36577e+06	-42339.1	955.818	-29783.6	0.000000	0.000000	6.122800	0.022099	NaN	0.000000	0.001542	0.001648	28.1316	0.100670	0.002001	50.3142	1.074279	-167.759	-0.004055	0.121402	-0.949813	-0.951129	0.022099	50.3142	-0.950143	-4.830086E+12	-4.575194E-15	NaN
74	1.000000	0.130725	7.36577e+06	-42339.1	955.819	-29783.6	0.000000	0.000000	6.130805	-0.012872	NaN	0.000000	0.001566	0.001656	28.1301	0.109709	0.001939	56.5887	-130.95	-165.492	-0.006494	0.129414	-0.941807	-0.943118	-0.012872	56.5887	-0.941636	-3.708589E+12	3.470917E-15	NaN
74	1.000000	0.138704	7.36577e+06	-42339.1	955.819	-29783.6	0.000000	0.000000	6.138785	0.017173	NaN	0.000000	0.001579	0.001657	28.1302	0.032452	0.002069	15.6812	-154.522	-163.48	0.003775	0.137381	-0.933828	-0.935150	0.017173	15.6812	-0.934649	-2.984993E+12	-5.753190E-15	NaN
74	1.000000	0.146680	7.36577e+06	-42339.1	955.819	-29783.6	0.000000	0.000000	6.146758	-0.064264	NaN	0.000000	0.001578	0.001662	28.1304	0.114209	0.001938	58.9188	135.137	-165.016	-0.088442	0.145357	-0.925851	-0.927174	-0.064264	58.9188	-0.925033	-2.213889E+12	2.902743E-14	NaN
74	1.000000	0.154713	7.36577e+06	-42339.1	955.818	-29783.6	0.000000	0.000000	6.154794	0.020624	NaN	0.000000	0.001537	0.001676	28.1305	0.069446	0.002071	33.5255	161.554	-165.104	0.003669	0.153411	-0.917819	-0.919121	0.020624	33.5255	-0.918280	-1.794682E+12	-1.149164E-14	NaN
74	1.000000	0.162725	7.36577e+06	-42339.1	955.818	-29783.6	0.000000	0.000000	6.162803	-0.056377	NaN	0.000000	0.001579	0.001685	28.131	0.072045	0.001794	40.1555	-23.2809	-164.672	-0.047759	0.161410	-0.909806	-0.911122	-0.056377	40.1555	-0.908753	-1.334518E+12	4.224536E-14	NaN
74	1.000000	0.170724	7.36577e+06	-42339.1	955.819	-29783.6	0.000000	0.000000	6.170804	-0.014322	NaN	0.000000	0.001561	0.001703	28.1316	0.108568	0.001810	59.9801	-167.824	-164.9	0.018275	0.169389	-0.901808	-0.903142	-0.014322	59.9801	-0.901628	-1.069227E+12	1.339443E-14	NaN
74	1.000000	0.178714	7.36577e+06	-42339.1	955.819	-29783.6	0.000000	0.000000	6.178797	0.043159	NaN	0.000000	0.001548	0.001704	28.1317	0.049257	0.001871	26.3269	-3.450494	-163.855	-0.068563	0.177423	-0.893817	-0.895109	0.043159	26.3269	-0.895047	-8.712211E+11	-4.953908E-14	NaN
74	1.000000	0.186735	7.36577e+06	-42339.1	955.818	-29783.6	0.000000	0.000000	6.186817	0.035656	NaN	0.000000	0.001600	0.001739	28.1317	0.088231	0.002040	43.2481	-27.8206	-163.641	-0.002579	0.185465	-0.885796	-0.887066	0.035656	43.2481	-0.886415	-6.659571E+11	-5.354043E-14	NaN
74	1.000000	0.194734	7.36577e+06	-42339.1	955.818	-29783.6	0.000000	0.000000	6.194814	-0.021552	NaN	0.000000	0.001568	0.001683	28.1327	0.033150	0.001991	16.6541	20.6342	-162.882	0.018031	0.193433	-0.877798	-0.879099	-0.021552	16.6541	-0.876827	-4.940779E+11	4.362121E-14	NaN
74	1.000000	0.202758	7.36577e+06	-42339.1	955.818	-29783.6	0.000000	0.000000	6.202837	-0.021598	NaN	0.000000	0.001556	0.001677	28.1335	0.051989	0.002061	25.2261	-158.445	-165.187	0.028115	0.201402	-0.869774	-0.871130	-0.021598	25.2261	-0.869132	-3.887723E+11	5.555477E-14	NaN
74	1.000000	0.210722	7.36577e+06	-42339.1	955.819	-29783.6	0.000000	0.000000	6.210804	0.036925	NaN	0.000000	0.001578	0.001664	28.1317	0.031783	0.002016	15.7654	-152.987	-165.701	-0.026520	0.209414	-0.861809	-0.863118	0.036925	15.7654	-0.863566	-3.268762E+11	-1.129640E-13	NaN
74	1.000000	0.218736	7.36577e+06	-42339.1	955.819	-29783.6	0.000000	0.000000	6.218816	-0.021139	NaN	0.000000	0.001538	0.001692	28.1317	0.021473	0.001989	10.7984	-50.6017	-165.46	-0.024470	0.217448	-0.853795	-0.855083	-0.021139	10.7984	-0.852327	-2.302750E+11	9.179853E-14	NaN
74	1.000000	0.226735	7.36577e+06	-42339.1	955.818	-29783.6	0.000000	0.000000	6.226817	0.048134	NaN	0.000000	0.001560	0.001675	28.1322	0.079431	0.002018	39.361	-176.287	-170.91	0.030760	0.225421	-0.845797	-0.847111	0.048134	39.361	-0.846714	-1.933040E+11	-2.490076E-13	NaN
74	1.000000	0.234712	7.36577e+06	-42339.1	955.819	-29783.6	0.000000	0.000000	6.234792	-0.014889	NaN	0.000000	0.001554	0.001665	28.132	0.010104	0.001926	5.246973	62.6161	-162.066	0.031192	0.233457	-0.837820	-0.839074	-0.014889	5.246973	-0.835692	-1.370633E+11	1.086251E-13	NaN
74	1.000000	0.242751	7.36577e+06	-42339.1	955.818	-29783.6	0.000000	0.000000	6.242831	-0.020810	NaN	0.000000	0.001572	0.001717	28.1318	0.201340	0.001995	100.915	47.7157	-160.387	0.037853	0.241430	-0.829780	-0.831102	-0.020810	100.915	-0.829626	-1.134253E+11	1.834653E-13	NaN
74	1.000000	0.250774	7.36577e+06	-42339.1	955.818	-29783.6	0.000000	0.000000	6.250856	0.025952	NaN	0.000000	0.001541	0.001703	28.1329	0.103242	0.002018	51.1656	20.9403	-166.44	-0.006094	0.249482	-0.821758	-0.823050	0.025952	51.1656	-0.822138	-8.978453E+10	-2.890505E-13	NaN
74	1.000000	0.258728	7.36577e+06	-42339.1	955.818	-29783.6	0.000000	0.000000	6.258809	0.023370	NaN	0.000000	0.001592	0.001666	28.1329	0.068871	0.001971	34.9457	31.3366	-168.624	-0.020725	0.257400	-0.813804	-0.815132	0.023370	34.9457	-0.814305	-7.030329E+10	-3.324215E-13	NaN
74	1.000000	0.266765	7.36577e+06	-42339.1	955.818	-29783.6	0.000000	0.000000	6.266846	0.025410	NaN	0.000000	0.001605	0.001670	28.1331	0.085691	0.001938	44.2102	-29.0308	-164.525	-0.012363	0.265460	-0.805767	-0.807072	0.025410	44.2102	-0.806198	-5.457393E+10	-4.656042E-13	NaN
74	1.000000	0.274758	7.36577e+06	-42339.1	955.819	-29783.6	0.000000	0.000000	6.274837	-0.032994	NaN	0.000000	0.001618	0.001663	28.1328	0.028189	0.002048	13.7674	150.931	-165.581	-0.066039	0.273456	-0.797774	-0.799076	-0.032994	13.7674	-0.795977	-3.964994E+10	8.321311E-13	NaN
74	1.000000	0.282775	7.36577e+06	-42339.1	955.818	-29783.6	0.000000	0.000000	6.282854	-0.036843	NaN	0.000000	0.001631	0.001655	28.1326	0.024525	0.001923	12.7538	-82.5135	-166.876	-0.053890	0.281457	-0.789757	-0.791075	-0.036843	12.7538	-0.787590	-3.050388E+10	1.207800E-12	NaN
74	1.000000	0.290794	7.36577e+06	-42339.1	955.818	-29783.6	0.000000	0.000000	6.290875	0.034258	NaN	0.000000	0.001635	0.001676	28.1322	0.031750	0.001983	16.0108	-16.2585	-165.31	0.016078	0.289389	-0.781738	-0.783142	0.034258	16.0108	-0.783343	-2.670877E+10	-1.282659E-12	NaN
74	1.000000	0.298784	7.36577e+06	-42339.1	955.819	-29783.6	0.000000	0.000000	6.298864	-0.021041	NaN	0.000000	0.001650	0.001692	28.1318	0.102942	0.002137	48.1813	-131.48	-162.776	-0.024680	0.297487	-0.773748	-0.775045	-0.021041	48.1813	-0.773420	-1.957945E+10	1.074657E-12	NaN
74	1.000000	0.306749	7.36577e+06	-42339.1	955.819	-29783.6	0.000000	0.000000	6.306827	-0.055498	NaN	0.000000	0.001524	0.001691	28.1317	0.087378	0.001942	44.9976	127.966	-166.69	-0.061280	0.305469	-0.765783	-0.767062	-0.055498	44.9976	-0.764858	-1.497540E+10	3.705936E-12	NaN
74	1.000000	0.314774	7.36577e+06	-42339.1	955.819	-29783.6	0.000000	0.000000	6.314855	0.007945	NaN	0.000000	0.001560	0.001665	28.1317	0.044999	0.001893	23.7652	136.535	-165.643	0.006554	0.313472	-0.757758	-0.759060	0.007945	23.7652	-0.758008	-1.208386E+10	-6.575158E-13	NaN
74	1.000000	0.322794	7.36577e+06	-42339.1	955.818	-29783.6	0.000000	0.000000	6.322874	-0.012661	NaN	0.000000	0.001561	0.001676	28.1323	0.168321	0.002036	82.6777	-1.263996	-162.187	-0.142227	0.321496	-0.749738	-0.751036	-0.012661	82.6777	-0.749623	-9.291474E+9	1.362672E-12	NaN
74	1.000000	0.330786	7.36577e+06	-42339.1	955.819	-29783.6	0.000000	0.000000	6.330863	-0.097433	NaN	0.000000	0.001525	0.001648	28.1323	0.091423	0.001933	47.2986	-126.168	-165.212	-0.045344	0.329421	-0.741745	-0.743111	-0.097433	47.2986	-0.740200	-6.914852E+9	1.409046E-11	NaN
74	1.000000	0.338790	7.36577e+06	-42339.1	955.819	-29783.6	0.000000	0.000000	6.338870	-0.008077	NaN	0.000000	0.001550	0.001658	28.1314	0.117089	0.001938	60.4151	-131.397	-163.761	0.072182	0.337530	-0.733742	-0.735002	-0.008077	60.4151	-0.733641	-5.629018E+9	1.434820E-12	NaN
74	1.000000	0.346823	7.36577e+06	-42339.1	955.819	-29783.6	0.000000	0.000000	6.346902	-0.025609	NaN	0.000000	0.001542	0.001654	28.1321	0.060977	0.002039	29.9104	-107.6	-162.68	0.036784	0.345527	-0.725709	-0.727005	-0.025609	29.9104	-0.725067	-4.300913E+9	5.954371E-12	NaN
74	1.000000	0.354790	7.36577e+06	-42339.1	955.819	-29783.6	0.000000	0.000000	6.354871	0.023594	NaN	0.000000	0.001542	0.001659	28.1317	0.095815	0.001985	48.2582	116.05	-166.393	-0.049043	0.353555	-0.717742	-0.718977	0.023594	48.2582	-0.718108	-3.456790E+9	-6.825287E-12	NaN
74	1.000000	0.362808	7.36577e+06	-42339.1	955.818	-29783.6	0.000000	0.000000	6.362891	0.062648	NaN	0.000000	0.001543	0.001678	28.1317	0.051955	0.001982	26.207	-61.2078	-163.066	0.132273	0.361497	-0.709724	-0.711035	0.062648	26.207	-0.711517	-2.810263E+9	-2.229255E-11	NaN
74	1.000000	0.370777	7.36577e+06	-42339.1	955.818	-29783.6	0.000000	0.000000	6.370857	0.007056	NaN	0.000000	0.001535	0.001640	28.1304	0.040086	0.002107	19.0232	123.29	-165.993	0.006756	0.369526	-0.701755	-0.703005	0.007056	19.0232	-0.702033	-2.085913E+9	-3.382458E-12	NaN
74	1.000000	0.378767	7.36577e+06	-42339.1	955.819	-29783.6	0.000000	0.000000	6.378847	-0.016561	NaN	0.000000	0.001576	0.001641	28.1303	0.051853	0.001989	26.0746	73.0094	-165.442	0.004131	0.377554	-0.693765	-0.694977	-0.016561	26.0746	-0.693288	-1.584353E+9	1.045272E-11	NaN
74	1.000000	0.386846	7.36577e+06	-42339.1	955.819	-29783.6	0.000000	0.000000	6.386928	0.029776	NaN	0.000000	0.001583	0.001673	28.1303	0.076925	0.002098	36.6687	-63.9118	-165.081	0.025033	0.385445	-0.685685	-0.687087	0.029776	36.6687	-0.686294	-1.271355E+9	-2.342064E-11	NaN
74	1.000000	0.394796	7.36577e+06	-42339.1	955.819	-29783.6	0.000000	0.000000	6.394879	0.061813	NaN	0.000000	0.001600	0.001659	28.131	0.061878	0.002113	29.2888	-144.435	-165.405	0.041690	0.393502	-0.677736	-0.679030	0.061813	29.2888	-0.679318	-1.020668E+9	-6.056118E-11	NaN
74	1.000000	0.402823	7.36577e+06	-42339.1	955.818	-29783.6	0.000000	0.000000	6.402900	-0.086632	NaN	0.000000	0.001600	0.001697	28.1304	0.032284	0.002104	15.3403	-75.3286	-164.972	-0.107778	0.401465	-0.669708	-0.671067	-0.086632	15.3403	-0.665473	-6.598080E+8	1.312987E-10	NaN
74	1.000000	0.410803	7.36577e+06	-42339.1	955.819	-29783.6	0.000000	0.000000	6.410884	0.020531	NaN	0.000000	0.001584	0.001688	28.1314	0.045856	0.002095	21.8921	16.0537	-167.513	0.033968	0.409532	-0.661729	-0.662999	0.020531	21.8921	-0.662432	-5.994870E+8	-3.424701E-11	NaN
74	1.000000	0.418798	7.36577e+06	-42339.1	955.819	-29783.6	0.000000	0.000000	6.418876	-0.075046	NaN	0.000000	0.001592	0.001675	28.1315	0.059994	0.002016	29.7605	79.3191	-165.237	0.007473	0.417555	-0.653733	-0.654977	-0.075046	29.7605	-0.651842	-4.292286E+8	1.748393E-10	NaN
74	1.000000	0.426825	7.36577e+06	-42339.1	955.819	-29783.6	0.000000	0.000000	6.426904	-0.041113	NaN	0.000000	0.001620	0.001709	28.1315	0.039065	0.002020	19.3409	-126.897	-164.082	-0.010876	0.425525	-0.645706	-0.647007	-0.041113	19.3409	-0.644112	-3.362801E+8	1.222584E-10	NaN
74	1.000000	0.434823	7.36577e+06	-42339.1	955.818	-29783.6	0.000000	0.000000	6.434907	0.085370	NaN	0.000000	0.001614	0.001664	28.1318	0.034266	0.002027	16.9077	122.751	-164.654	0.032781	0.433511	-0.637708	-0.639020	0.085370	16.9077	-0.641495	-3.096004E+8	-2.757414E-10	NaN
74	1.000000	0.442854	7.36577e+06	-42339.1	955.817	-29783.6	0.000000	0.000000	6.442934	-0.012536	NaN	0.000000	0.001612	0.001668	28.1315	0.152280	0.001920	79.3169	-149.368	-166.243	-0.034551	0.441544	-0.629677	-0.630988	-0.012536	79.3169	-0.629559	-2.123059E+8	5.904477E-11	NaN
74	1.000000	0.450849	7.36577e+06	-42339.1	955.818	-29783.6	0.000000	0.000000	6.450931	0.035791	NaN	0.000000	0.001607	0.001647	28.1301	0.051471	0.001901	27.0751	-38.977	-167.841	-0.032018	0.449551	-0.621682	-0.622981	0.035791	27.0751	-0.622674	-1.707586E+8	-2.095992E-10	NaN
74	1.000000	0.458852	7.36577e+06	-42339.1	955.817	-29783.6	0.000000	0.000000	6.458933	0.029133	NaN	0.000000	0.001601	0.001631	28.1308	0.051750	0.001993	25.969	-153.144	-165.606	0.100308	0.457519	-0.613680	-0.615013	0.029133	25.969	-0.614521	-1.319192E+8	-2.208385E-10	NaN
74	1.000000	0.466868	7.36577e+06	-42339.1	955.818	-29783.6	0.000000	0.000000	6.466948	-0.007642	NaN	0.000000	0.001604	0.001662	28.1316	0.054242	0.001920	28.2465	77.4825	-164.147	0.004462	0.465556	-0.605664	-0.606975	-0.007642	28.2465	-0.605461	-9.900252E+7	7.718551E-11	NaN
74	1.000000	0.474867	7.36577e+06	-42339.1	955.819	-29783.6	0.000000	0.000000	6.474947	-0.026684	NaN	0.000000	0.001604	0.001652	28.1321	0.023843	0.002110	11.3021	-167.246	-165.017	-0.043730	0.473513	-0.597664	-0.599018	-0.026684	11.3021	-0.595893	-7.309566E+7	3.650542E-10	NaN
74	1.000000	0.482857	7.36577e+06	-42339.1	955.819	-29783.6	0.000000	0.000000	6.482935	-0.059550	NaN	0.000000	0.001590	0.001691	28.1317	0.063824	0.002095	30.4626	-51.9565	-164.129	-0.056779	0.481569	-0.589675	-0.590963	-0.059550	30.4626	-0.588208	-5.727488E+7	1.039722E-9	NaN
74	1.000000	0.490856	7.36577e+06	-42339.1	955.818	-29783.6	0.000000	0.000000	6.490937	0.018235	NaN	0.000000	0.001583	0.001630	28.1325	0.017461	0.002099	8.317940	37.4387	-165.955	0.031112	0.489573	-0.581675	-0.582958	0.018235	8.317940	-0.583320	-4.903806E+7	-3.718538E-10	NaN
74	1.000000	0.498881	7.36577e+06	-42339.1	955.819	-29783.6	0.000000	0.000000	6.498964	0.061999	NaN	0.000000	0.001591	0.001657	28.1327	0.143936	0.001977	72.8009	113.152	-163.423	0.013664	0.497563	-0.573650	-0.574969	0.061999	72.8009	-0.574289	-3.680283E+7	-1.684618E-9	NaN
74	1.000000	0.506851	7.36577e+06	-42339.1	955.818	-29783.6	0.000000	0.000000	6.506929	-0.054982	NaN	0.000000	0.001564	0.001660	28.1326	0.049143	0.001966	24.9919	-165.304	-164.26	-0.033205	0.505543	-0.565681	-0.566989	-0.054982	24.9919	-0.564031	-2.655390E+7	2.070567E-9	NaN
74	1.000000	0.514834	7.36577e+06	-42339.1	955.819	-29783.6	0.000000	0.000000	6.514917	0.047700	NaN	0.000000	0.001553	0.001692	28.133	0.097082	0.001953	49.7039	21.2015	-164.921	0.090063	0.513551	-0.557697	-0.558981	0.047700	49.7039	-0.558417	-2.220632E+7	-2.148020E-9	NaN
74	1.000000	0.522884	7.36577e+06	-42339.1	955.819	-29783.6	0.000000	0.000000	6.522967	0.054842	NaN	0.000000	0.001598	0.001665	28.1334	0.089225	0.001860	47.9636	-77.3368	-161.666	0.037692	0.521533	-0.549647	-0.550999	0.054842	47.9636	-0.550505	-1.725636E+7	-3.178054E-9	NaN
74	1.000000	0.530840	7.36577e+06	-42339.1	955.819	-29783.6	0.000000	0.000000	6.530921	0.005353	NaN	0.000000	0.001560	0.001653	28.1315	0.005819	0.001990	2.924149	-67.8471	-165.167	-0.036743	0.529553	-0.541692	-0.542979	0.005353	2.924149	-0.543065	-1.360980E+7	-3.933006E-10	NaN
74	1.000000	0.538895	7.36577e+06	-42339.1	955.818	-29783.6	0.000000	0.000000	6.538974	-0.021864	NaN	0.000000	0.001572	0.001685	28.1317	0.111215	0.002005	55.468	-167.44	-163.166	-0.063219	0.537555	-0.533637	-0.534976	-0.021864	55.468	-0.533341	-9.97627e+06	2.191602E-9	NaN
74	1.000000	0.546874	7.36577e+06	-42339.1	955.818	-29783.6	0.000000	0.000000	6.546953	-0.028104	NaN	0.000000	0.001575	0.001723	28.1317	0.114576	0.002059	55.6512	120.832	-164.676	-0.039918	0.545549	-0.525658	-0.526983	-0.028104	55.6512	-0.525279	-7.70885e+06	3.645638E-9	NaN
74	1.000000	0.554889	7.36577e+06	-42339.1	955.818	-29783.6	0.000000	0.000000	6.554968	-0.044786	NaN	0.000000	0.001581	0.001694	28.1316	0.055585	0.001962	28.3316	13.6588	-164.039	-0.029888	0.553587	-0.517642	-0.518945	-0.044786	28.3316	-0.516457	-5.8117e+06	7.706187E-9	NaN
74	1.000000	0.562870	7.36577e+06	-42339.1	955.819	-29783.6	0.000000	0.000000	6.562951	-0.005700	NaN	0.000000	0.001577	0.001666	28.132	0.087433	0.002003	43.6508	-50.1074	-167.939	0.005233	0.561539	-0.509661	-0.510993	-0.005700	43.6508	-0.509563	-4.65943e+06	1.223281E-9	NaN
74	1.000000	0.570892	7.36577e+06	-42339.1	955.819	-29783.6	0.000000	0.000000	6.570970	-0.055153	NaN	0.000000	0.001565	0.001697	28.1328	0.077825	0.001997	38.9784	-150.762	-165.136	-0.035593	0.569571	-0.501640	-0.502961	-0.055153	38.9784	-0.500579	-3.49212e+06	1.579355E-8	NaN
74	1.000000	0.578914	7.36577e+06	-42339.1	955.817	-29783.6	0.000000	0.000000	6.578995	0.011116	NaN	0.000000	0.001595	0.001688	28.1324	0.033773	0.002088	16.1752	-33.7655	-167.298	-0.020463	0.577585	-0.493618	-0.494947	0.011116	16.1752	-0.494133	-2.83878e+06	-3.915934E-9	NaN
74	1.000000	0.586886	7.36577e+06	-42339.1	955.818	-29783.6	0.000000	0.000000	6.586963	-0.093293	NaN	0.000000	0.001563	0.001646	28.1327	0.045720	0.002056	22.2388	-40.8542	-165.742	0.029149	0.585560	-0.485645	-0.486972	-0.093293	22.2388	-0.482499	-1.9521e+06	4.779097E-8	NaN
74	1.000000	0.594919	7.36577e+06	-42339.1	955.819	-29783.6	0.000000	0.000000	6.595000	0.004267	NaN	0.000000	0.001537	0.001648	28.1329	0.048109	0.001963	24.5037	-6.568265	-162.611	0.042378	0.593606	-0.477612	-0.478926	0.004267	24.5037	-0.477743	-1.67464e+06	-2.547783E-9	NaN
74	1.000000	0.602922	7.36577e+06	-42339.1	955.818	-29783.6	0.000000	0.000000	6.602999	-0.079221	NaN	0.000000	0.001559	0.001636	28.132	0.046493	0.001994	23.3172	-68.0086	-165.742	-0.067379	0.601569	-0.469610	-0.470962	-0.079221	23.3172	-0.467062	-1.18628e+06	6.678104E-8	NaN
74	1.000000	0.610902	7.36577e+06	-42339.1	955.819	-29783.6	0.000000	0.000000	6.610987	0.115132	NaN	0.000000	0.001566	0.001629	28.1301	0.084851	0.002035	41.7002	134.034	-164.385	0.066828	0.609624	-0.461630	-0.462908	0.115132	41.7002	-0.463700	-1.06414e+06	-1.081929E-7	NaN
74	1.000000	0.618933	7.36577e+06	-42339.1	955.818	-29783.6	0.000000	0.000000	6.619013	-0.010602	NaN	0.000000	0.001589	0.001664	28.13	0.079120	0.002046	38.6625	-119.972	-167.117	0.007316	0.617568	-0.453598	-0.454964	-0.010602	38.6625	-0.453393	-762258	1.390830E-8	NaN
74	1.000000	0.626921	7.36577e+06	-42339.1	955.818	-29783.6	0.000000	0.000000	6.627002	0.011163	NaN	0.000000	0.001568	0.001663	28.1306	0.041953	0.002015	20.8165	-126.618	-165.583	-0.015789	0.625587	-0.445611	-0.446945	0.011163	20.8165	-0.446013	-600032	-1.860373E-8	NaN
74	1.000000	0.634917	7.36577e+06	-42339.1	955.818	-29783.6	0.000000	0.000000	6.634998	0.015294	NaN	0.000000	0.001546	0.001633	28.1303	0.034619	0.001909	18.138	-32.1494	-167.292	0.100822	0.633635	-0.437615	-0.438897	0.015294	18.138	-0.438247	-466253	-3.280227E-8	NaN
74	1.000000	0.642900	7.36577e+06	-42339.1	955.819	-29783.6	0.000000	0.000000	6.642980	-0.025920	NaN	0.000000	0.001578	0.001710	28.1303	0.070984	0.001961	36.1993	-12.9748	-166.873	0.011069	0.641629	-0.429631	-0.430903	-0.025920	36.1993	-0.429094	-346136	7.488316E-8	NaN
74	1.000000	0.650927	7.36577e+06	-42339.1	955.819	-29783.6	0.000000	0.000000	6.651009	0.033324	NaN	0.000000	0.001586	0.001659	28.1313	0.144226	0.002007	71.8689	122.968	-165.964	-0.083461	0.649601	-0.421604	-0.422931	0.033324	71.8689	-0.421952	-274217	-1.215228E-7	NaN
74	1.000000	0.658940	7.36577e+06	-42339.1	955.818	-29783.6	0.000000	0.000000	6.659020	-0.021405	NaN	0.000000	0.001519	0.001650	28.1318	0.101316	0.001923	52.6838	-164.666	-162.754	-0.013336	0.657652	-0.413591	-0.414880	-0.021405	52.6838	-0.413287	-206594	1.036111E-7	NaN
74	1.000000	0.666947	7.36577e+06	-42339.1	955.818	-29783.6	0.000000	0.000000	6.667023	-0.101564	NaN	0.000000	0.001582	0.001651	28.1319	0.102958	0.001946	52.8963	117.176	-166.423	-0.105769	0.665634	-0.405584	-0.406898	-0.101564	52.8963	-0.404144	-153131	6.632492E-7	NaN
74	1.000000	0.674909	7.36577e+06	-42339.1	955.819	-29783.6	0.000000	0.000000	6.674986	-0.072220	NaN	0.000000	0.001599	0.001646	28.131	0.164886	0.002034	81.0796	7.476193	-166.433	-0.019711	0.673607	-0.397623	-0.398925	-0.072220	81.0796	-0.396955	-120933	5.971911E-7	NaN
74	1.000000	0.682945	7.36577e+06	-42339.1	955.818	-29783.6	0.000000	0.000000	6.683027	0.025244	NaN	0.000000	0.001610	0.001637	28.1313	0.040920	0.001972	20.7499	-176.165	-169.504	0.109908	0.681633	-0.389587	-0.390898	0.025244	20.7499	-0.390499	-97792.2	-2.581442E-7	NaN
74	1.000000	0.690933	7.36577e+06	-42339.1	955.819	-29783.6	0.000000	0.000000	6.691016	0.061577	NaN	0.000000	0.001597	0.001678	28.1302	0.090261	0.001898	47.5633	153.321	-165.612	0.113547	0.689663	-0.381599	-0.382868	0.061577	47.5633	-0.382570	-75292.9	-8.178328E-7	NaN
74	1.000000	0.698915	7.36577e+06	-42339.1	955.818	-29783.6	0.000000	0.000000	6.698998	0.052210	NaN	0.000000	0.001570	0.001643	28.13	0.046842	0.001986	23.5858	156.491	-165.603	0.032761	0.697634	-0.373617	-0.374898	0.052210	23.5858	-0.375277	-59162.9	-8.824822E-7	NaN
74	1.000000	0.706961	7.36577e+06	-42339.1	955.819	-29783.6	0.000000	0.000000	6.707044	0.073328	NaN	0.000000	0.001592	0.001647	28.1302	0.037340	0.001892	19.7342	35.8338	-166.598	-0.028221	0.705652	-0.365571	-0.366880	0.073328	19.7342	-0.368358	-47040.1	-1.558830E-6	NaN
74	1.000000	0.714961	7.36577e+06	-42339.1	955.818	-29783.6	0.000000	0.000000	6.715040	-0.015728	NaN	0.000000	0.001593	0.001650	28.1299	0.086261	0.001924	44.8309	40.6419	-168.384	0.063930	0.713633	-0.357571	-0.358899	-0.015728	44.8309	-0.357308	-32576.9	4.827961E-7	NaN
74	1.000000	0.722964	7.36577e+06	-42339.1	955.818	-29783.6	0.000000	0.000000	6.723044	0.005208	NaN	0.000000	0.001608	0.001649	28.1297	0.095207	0.001978	48.1382	-121.975	-164.879	0.016962	0.721668	-0.349568	-0.350864	0.005208	48.1382	-0.349649	-25229.6	-2.064253E-7	NaN
74	1.000000	0.730941	7.36577e+06	-42339.1	955.819	-29783.6	0.000000	0.000000	6.731021	0.007974	NaN	0.000000	0.001598	0.001685	28.1312	0.064081	0.002107	30.4078	-70.2746	-165.92	-0.014405	0.729660	-0.341591	-0.342871	0.007974	30.4078	-0.341788	-19391.1	-4.112053E-7	NaN
74	1.000000	0.738986	7.36577e+06	-42339.1	955.82	-29783.6	0.000000	0.000000	6.739066	-0.005212	NaN	0.000000	0.001596	0.001618	28.1317	0.036519	0.002044	17.8633	-162.067	-165.65	-0.005955	0.737636	-0.333546	-0.334896	-0.005212	17.8633	-0.333327	-14592.7	3.571324E-7	NaN
74	1.000000	0.746973	7.36577e+06	-42339.1	955.818	-29783.6	0.000000	0.000000	6.747053	-0.020089	NaN	0.000000	0.001602	0.001658	28.1323	0.045038	0.002018	22.3178	-142.446	-163.584	-0.035423	0.745629	-0.325559	-0.326903	-0.020089	22.3178	-0.324883	-10975.5	1.830351E-6	NaN
74	1.000000	0.754977	7.36577e+06	-42339.1	955.819	-29783.6	0.000000	0.000000	6.755058	0.006706	NaN	0.000000	0.001567	0.001630	28.1323	0.050177	0.001950	25.7292	-33.3327	-166.203	0.052494	0.753653	-0.317555	-0.318878	0.006706	25.7292	-0.317750	-8619.98	-7.779501E-7	NaN
74	1.000000	0.762962	7.36577e+06	-42339.1	955.819	-29783.6	0.000000	0.000000	6.763042	-0.024538	NaN	0.000000	0.001570	0.001625	28.1317	0.107910	0.002043	52.8086	-51.3807	-168.267	-0.028181	0.761621	-0.309569	-0.310911	-0.024538	52.8086	-0.309221	-6449.43	3.804654E-6	NaN
74	1.000000	0.770977	7.36577e+06	-42339.1	955.818	-29783.6	0.000000	0.000000	6.771058	0.009574	NaN	0.000000	0.001615	0.001631	28.1316	0.110454	0.002004	55.1075	18.8506	-165.53	-0.021318	0.769665	-0.301555	-0.302866	0.009574	55.1075	-0.301685	-4985.45	-1.920356E-6	NaN
74	1.000000	0.778981	7.36577e+06	-42339.1	955.819	-29783.6	0.000000	0.000000	6.779061	-0.015301	NaN	0.000000	0.001585	0.001626	28.1307	0.055173	0.002017	27.3518	-126.015	-166.093	0.005095	0.777676	-0.293550	-0.294856	-0.015301	27.3518	-0.293131	-3716.71	4.116817E-6	NaN
74	1.000000	0.786966	7.36577e+06	-42339.1	955.818	-29783.6	0.000000	0.000000	6.787044	-0.052641	NaN	0.000000	0.001625	0.001640	28.1311	0.034110	0.002000	17.0543	-118.26	-166.656	-0.139739	0.785639	-0.285566	-0.286893	-0.052641	17.0543	-0.283251	-2642.13	1.992352E-5	NaN
74	1.000000	0.795008	7.36577e+06	-42339.1	955.818	-29783.6	0.000000	0.000000	6.795087	-0.032901	NaN	0.000000	0.001580	0.001634	28.131	0.039673	0.002014	19.7028	132.386	-162.628	-0.012176	0.793696	-0.277524	-0.278836	-0.032901	19.7028	-0.276271	-2073.2	1.586957E-5	NaN
74	1.000000	0.802989	7.36577e+06	-42339.1	955.819	-29783.6	0.000000	0.000000	6.803068	-0.033085	NaN	0.000000	0.001574	0.001618	28.131	0.061821	0.002029	30.4634	-126.421	-168.715	-0.045406	0.801692	-0.269543	-0.270840	-0.033085	30.4634	-0.268729	-1592.97	2.076971E-5	NaN
74	1.000000	0.810984	7.36577e+06	-42339.1	955.817	-29783.6	0.000000	0.000000	6.811062	-0.039961	NaN	0.000000	0.001586	0.001668	28.1324	0.077980	0.002025	38.4993	-45.3724	-168.854	-0.079306	0.809642	-0.261548	-0.262890	-0.039961	38.4993	-0.260770	-1204.23	3.318428E-5	NaN
74	1.000000	0.819018	7.36577e+06	-42339.1	955.819	-29783.6	0.000000	0.000000	6.819098	-0.011006	NaN	0.000000	0.001586	0.001644	28.1321	0.041927	0.002120	19.7736	31.5543	-162.406	-0.025897	0.817707	-0.253513	-0.254824	-0.011006	19.7736	-0.253096	-917.865	1.199073E-5	NaN
74	1.000000	0.826974	7.36577e+06	-42339.1	955.819	-29783.6	0.000000	0.000000	6.827053	-0.016858	NaN	0.000000	0.001586	0.001663	28.1324	0.075772	0.001903	39.8213	-28.1907	-168.681	-0.001898	0.825693	-0.245558	-0.246839	-0.016858	39.8213	-0.245241	-693.73	2.429985E-5	NaN
74	1.000000	0.834982	7.36577e+06	-42339.1	955.819	-29783.6	0.000000	0.000000	6.835063	0.006207	NaN	0.000000	0.001668	0.001619	28.1324	0.064252	0.002130	30.1624	165.778	-165.187	0.059961	0.833722	-0.237550	-0.238809	0.006207	30.1624	-0.237704	-529.237	-1.172823E-5	NaN
74	1.000000	0.843017	7.36577e+06	-42339.1	955.819	-29783.6	0.000000	0.000000	6.843097	-0.015333	NaN	0.000000	0.001657	0.001661	28.1324	0.034183	0.001886	18.1273	123.766	-166.961	0.028070	0.841694	-0.229515	-0.230838	-0.015333	18.1273	-0.228881	-384.441	3.988285E-5	NaN
74	1.000000	0.851056	7.36577e+06	-42339.1	955.819	-29783.6	0.000000	0.000000	6.851138	0.022686	NaN	0.000000	0.001628	0.001653	28.1312	0.120133	0.001934	62.1155	99.3473	-166.313	0.060699	0.849675	-0.221475	-0.222857	0.022686	62.1155	-0.221749	-296.209	-7.658763E-5	NaN
74	1.000000	0.859020	7.36577e+06	-42339.1	955.818	-29783.6	0.000000	0.000000	6.859100	-0.021875	NaN	0.000000	0.001655	0.001651	28.1315	0.063174	0.001940	32.5558	-106.204	-166.24	0.003272	0.857681	-0.213511	-0.214851	-0.021875	32.5558	-0.213007	-214.497	0.000102	NaN
74	1.000000	0.867044	7.36577e+06	-42339.1	955.818	-29783.6	0.000000	0.000000	6.867125	0.013406	NaN	0.000000	0.001639	0.001666	28.1318	0.071855	0.001952	36.8016	-82.628	-165.11	0.062034	0.865608	-0.205487	-0.206923	0.013406	36.8016	-0.205761	-163.666	-8.190911E-5	NaN
74	1.000000	0.875014	7.36577e+06	-42339.1	955.819	-29783.6	0.000000	0.000000	6.875094	-0.009099	NaN	0.000000	0.001624	0.001668	28.1312	0.109275	0.002102	51.9775	139.027	-165.68	-0.024474	0.873756	-0.197518	-0.198776	-0.009099	51.9775	-0.197387	-119.307	7.626921E-5	NaN
74	1.000000	0.883021	7.36577e+06	-42339.1	955.819	-29783.6	0.000000	0.000000	6.883099	-0.052009	NaN	0.000000	0.001574	0.001632	28.1298	0.160795	0.001911	84.1554	-142.589	-164.797	-0.007105	0.881737	-0.189511	-0.190794	-0.052009	84.1554	-0.189047	-86.7151	0.000600	NaN
74	1.000000	0.891036	7.36577e+06	-42339.1	955.818	-29783.6	0.000000	0.000000	6.891116	0.006221	NaN	0.000000	0.001596	0.001673	28.1316	0.098102	0.002027	48.397	158.277	-165.557	-0.014698	0.889723	-0.181496	-0.182809	0.006221	48.397	-0.181592	-64.9409	-9.580218E-5	NaN
74	1.000000	0.899010	7.36577e+06	-42339.1	955.818	-29783.6	0.000000	0.000000	6.899090	-0.000881	NaN	0.000000	0.001599	0.001637	28.1321	0.112317	0.002118	53.0376	-141.055	-167.285	-0.028271	0.897769	-0.173522	-0.174762	-0.000881	53.0376	-0.173509	-47.2415	1.863914E-5	NaN
74	1.000000	0.907042	7.36577e+06	-42339.1	955.817	-29783.6	0.000000	0.000000	6.907121	-0.029748	NaN	0.000000	0.001595	0.001676	28.1308	0.062850	0.001941	32.3871	-154.139	-166.446	-0.035897	0.905699	-0.165490	-0.166833	-0.029748	32.3871	-0.164801	-33.3278	0.000893	NaN
74	1.000000	0.915044	7.36577e+06	-42339.1	955.819	-29783.6	0.000000	0.000000	6.915127	0.048457	NaN	0.000000	0.001586	0.001654	28.1316	0.048119	0.002039	23.6039	-44.5553	-167.162	0.040762	0.913741	-0.157487	-0.158791	0.048457	23.6039	-0.159027	-26.3435	-0.001839	NaN
74	1.000000	0.923039	7.36577e+06	-42339.1	955.818	-29783.6	0.000000	0.000000	6.923120	0.003493	NaN	0.000000	0.001602	0.001640	28.1312	0.086648	0.001998	43.3777	-43.3879	-164.573	-0.048269	0.921727	-0.149493	-0.150804	0.003493	43.3777	-0.149553	-17.7766	-0.000197	NaN
74	1.000000	0.931038	7.36577e+06	-42339.1	955.819	-29783.6	0.000000	0.000000	6.931119	0.019900	NaN	0.000000	0.001557	0.001627	28.1304	0.043946	0.001898	23.1553	81.0062	-162.49	-0.034714	0.929767	-0.141494	-0.142764	0.019900	23.1553	-0.142138	-12.9716	-0.001534	NaN
74	1.000000	0.939046	7.36577e+06	-42339.1	955.818	-29783.6	0.000000	0.000000	6.939128	0.038780	NaN	0.000000	0.001596	0.001632	28.1298	0.066140	0.002011	32.8818	73.5691	-165.534	-0.016306	0.937737	-0.133485	-0.134794	0.038780	32.8818	-0.134370	-9.252220	-0.004191	NaN
74	1.000000	0.947035	7.36577e+06	-42339.1	955.818	-29783.6	0.000000	0.000000	6.947119	0.092015	NaN	0.000000	0.001643	0.001640	28.1295	0.046253	0.002033	22.7562	151.185	-164.824	0.054656	0.945744	-0.125497	-0.126788	0.092015	22.7562	-0.128529	-7.134624	-0.012897	NaN
74	1.000000	0.955045	7.36577e+06	-42339.1	955.819	-29783.6	0.000000	0.000000	6.955125	-0.015768	NaN	0.000000	0.001563	0.001611	28.1298	0.021520	0.001968	10.9324	65.6213	-162.59	0.010095	0.953761	-0.117487	-0.118771	-0.015768	10.9324	-0.116405	-4.082966	0.003862	NaN
74	1.000000	0.963028	7.36577e+06	-42339.1	955.818	-29783.6	0.000000	0.000000	6.963109	0.004398	NaN	0.000000	0.001586	0.001675	28.1299	0.027705	0.001830	15.1436	113.599	-163.683	0.065819	0.961729	-0.109504	-0.110802	0.004398	15.1436	-0.109721	-2.964791	-0.001483	NaN
74	1.000000	0.971032	7.36577e+06	-42339.1	955.817	-29783.6	0.000000	0.000000	6.971115	0.046763	NaN	0.000000	0.001570	0.001662	28.1313	0.068649	0.002027	33.8701	-61.5692	-166.526	-0.076178	0.969755	-0.101499	-0.102777	0.046763	33.8701	-0.102535	-2.077729	-0.022507	NaN
74	1.000000	0.979056	7.36577e+06	-42339.1	955.817	-29783.6	0.000000	0.000000	6.979139	0.058873	NaN	0.000000	0.001573	0.001633	28.1309	0.016028	0.001899	8.438337	-93.5172	-164.936	0.053157	0.977730	-0.093476	-0.094801	0.058873	8.438337	-0.098708	-1.710181	-0.034425	NaN
74	1.000000	0.987037	7.36577e+06	-42339.1	955.817	-29783.6	0.000000	0.000000	6.987122	0.101302	NaN	0.000000	0.001564	0.001630	28.1307	0.053711	0.002076	25.8763	-64.8863	-163.97	0.107486	0.985758	-0.085494	-0.086774	0.101302	25.8763	-0.088430	-0.992689	-0.102048	NaN
74	1.000000	0.995072	7.36577e+06	-42339.1	955.818	-29783.6	0.000000	0.000000	6.995150	-0.037362	NaN	0.000000	0.001584	0.001622	28.131	0.129686	0.002041	63.542	-139.515	-164.596	-0.010787	0.993769	-0.077460	-0.078763	-0.037362	63.542	-0.077019	-0.520468	0.071785	NaN
74	1.000000	1.003070	7.36577e+06	-42339.1	955.818	-29783.6	0.000000	0.000000	7.003151	-0.003497	NaN	0.000000	0.001599	0.001590	28.1317	0.027960	0.002055	13.6031	110.335	-164.662	0.077489	1.001772	-0.069461	-0.070760	-0.003497	13.6031	-0.069269	-0.326022	0.010727	NaN
74	1.000000	1.011083	7.36577e+06	-42339.1	955.818	-29783.6	0.000000	0.000000	7.011159	-0.087761	NaN	0.000000	0.001585	0.001612	28.1302	0.173832	0.001902	91.3883	-148.275	-166.363	-0.097734	1.009758	-0.061449	-0.062774	-0.087761	91.3883	-0.060729	-0.188955	0.464455	NaN
74	1.000000	1.019063	7.36577e+06	-42339.1	955.817	-29783.6	0.000000	0.000000	7.019142	-0.049106	NaN	0.000000	0.001588	0.001695	28.1313	0.095413	0.002033	46.9213	99.7407	-167.793	-0.097333	1.017774	-0.053468	-0.054758	-0.049106	46.9213	-0.052684	-0.109890	0.446863	NaN
74	1.000000	1.027069	7.36577e+06	-42339.1	955.817	-29783.6	0.000000	0.000000	7.027152	0.039660	NaN	0.000000	0.001590	0.001633	28.131	0.069778	0.002046	34.0989	-112.139	-165.878	0.052013	1.025745	-0.045462	-0.046786	0.039660	34.0989	-0.046334	-0.070596	-0.561791	NaN
74	1.000000	1.035078	7.36577e+06	-42339.1	955.817	-29783.6	0.000000	0.000000	7.035159	0.012512	NaN	0.000000	0.001535	0.001613	28.1313	0.037355	0.001889	19.775	74.2104	-164.293	0.027144	1.033752	-0.037454	-0.038779	0.012512	19.775	-0.037928	-0.039148	-0.319618	NaN
74	1.000000	1.043068	7.36577e+06	-42339.1	955.819	-29783.6	0.000000	0.000000	7.043147	-0.015096	NaN	0.000000	0.001586	0.001684	28.1314	0.062986	0.001990	31.6438	-129.461	-164.016	0.025138	1.041797	-0.029464	-0.030735	-0.015096	31.6438	-0.029106	-0.021738	0.694481	NaN
74	1.000000	1.051084	7.36577e+06	-42339.1	955.817	-29783.6	0.000000	0.000000	7.051165	-0.005798	NaN	0.000000	0.001604	0.001622	28.1321	0.076971	0.001941	39.6571	-114.31	-166.379	0.061699	1.049774	-0.021447	-0.022758	-0.005798	39.6571	-0.021338	-0.013584	0.426865	NaN
74	1.000000	1.059075	7.36577e+06	-42339.1	955.818	-29783.6	0.000000	0.000000	7.059155	-0.011039	NaN	0.000000	0.001559	0.001648	28.132	0.124279	0.001961	63.361	-9.824816	-165.788	-0.035258	1.057734	-0.013457	-0.014797	-0.011039	63.361	-0.013326	-0.008291	1.331494	NaN
74	1.000000	1.067099	7.36577e+06	-42339.1	955.817	-29783.6	0.000000	0.000000	7.067178	-0.034610	NaN	0.000000	0.001549	0.001645	28.132	0.076516	0.002049	37.3488	26.4888	-164.27	-0.019724	1.065773	-0.005432	-0.006759	-0.034610	37.3488	-0.004737	-0.003251	10.6459	NaN
74	1.000000	1.075097	7.36577e+06	-42339.1	955.818	-29783.6	0.000000	0.000000	7.075252	1.810419	NaN	0.000000	0.001563	0.001651	28.1319	2.501135	0.001842	1358.12	12.6696	-171.19	0.821076	1.073755	0.002565	0.001223	1.810419	1358.12	0.001566	0.001207	1500.46	35721.9
74	2.000000	1.081693	7.36577e+06	-42339.1	955.818	-29783.6	0.000000	0.000000	7.082120	8.422860	NaN	0.000000	0.001526	0.001657	28.1321	8.169009	0.001743	4687.64	6.803597	-170.59	8.876841	1.081301	0.009162	0.008769	8.422860	4687.64	0.007814	0.006852	1229.32	51740.5
74	2.000000	1.083667	7.36577e+06	-42339.1	955.817	-29783.6	0.000000	0.000000	7.084305	13.5582	NaN	0.000000	0.001558	0.001667	28.1316	10.5207	0.001626	6468.59	5.231122	-172.855	12.8116	1.083340	0.011135	0.010809	13.5582	6468.59	0.009563	0.008700	1558.36	63360.1
74	2.000000	1.085625	7.36577e+06	-42339.1	955.818	-29783.6	0.000000	0.000000	7.086413	17.2229	NaN	0.000000	0.001557	0.001641	28.1305	13.4935	0.001847	7306.4	5.968472	-174.18	16.9002	1.085415	0.013093	0.012884	17.2229	7306.4	0.011325	0.010692	1610.83	64557.8
74	2.000000	1.087641	7.36577e+06	-42339.1	955.818	-29783.6	0.000000	0.000000	7.088734	24.6491	NaN	0.000000	0.001580	0.001628	28.1309	15.8211	0.001871	8457.83	8.901504	-177.595	23.783	1.087341	0.015109	0.014810	24.6491	8457.83	0.012923	0.012615	1953.95	68800
74	2.000000	1.089608	7.36577e+06	-42339.1	955.817	-29783.6	0.000000	0.000000	7.090905	29.5917	NaN	0.000000	0.001603	0.001619	28.131	16.975	0.001581	10737.2	4.443346	-177.233	28.7659	1.089274	0.017076	0.016742	29.5917	10737.2	0.015009	0.015298	1934.38	79314.2
74	2.000000	1.091607	7.36577e+06	-42339.1	955.817	-29783.6	0.000000	0.000000	7.093070	33.638	NaN	0.000000	0.001583	0.001632	28.1307	19.3512	0.001894	10218.5	4.112844	-173.981	32.3053	1.091365	0.019075	0.018833	33.638	10218.5	0.016606	0.017487	1923.57	70598.9
74	2.000000	1.093568	7.36577e+06	-42339.1	955.819	-29783.6	0.000000	0.000000	7.095318	40.6369	NaN	0.000000	0.001552	0.001637	28.1324	21.1035	0.001673	12615.9	4.964818	-178.894	38.4215	1.093260	0.021036	0.020729	40.6369	12615.9	0.018620	0.020421	1990	80660.1
74	2.000000	1.095628	7.36577e+06	-42339.1	955.818	-29783.6	0.000000	0.000000	7.097481	43.128	NaN	0.000000	0.001519	0.001669	28.1322	23.5958	0.001987	11875.6	6.319441	-176.965	42.7777	1.095278	0.023097	0.022746	43.128	11875.6	0.020373	0.023132	1864.44	71338.6
74	2.000000	1.097632	7.36577e+06	-42339.1	955.819	-29783.6	0.000000	0.000000	7.099740	49.3234	NaN	0.000000	0.001595	0.001649	28.1325	24.2922	0.001782	13635.6	2.901903	-174.95	49.3698	1.097213	0.025100	0.024681	49.3234	13635.6	0.022388	0.026434	1865.93	76624.6
74	2.000000	1.099621	7.36577e+06	-42339.1	955.819	-29783.6	0.000000	0.000000	7.101812	51.3585	NaN	0.000000	0.001559	0.001657	28.1307	26.463	0.001764	15004.3	7.624599	179.003	51.6466	1.099296	0.027089	0.026764	51.3585	15004.3	0.024522	0.030152	1703.31	78946.1
74	2.000000	1.101610	7.36577e+06	-42339.1	955.818	-29783.6	0.000000	0.000000	7.104021	56.6918	NaN	0.000000	0.001550	0.001685	28.1306	29.0565	0.001755	16559.5	4.032083	-179.728	57.6655	1.101287	0.029078	0.028755	56.6918	16559.5	0.026511	0.033822	1676.2	82266.7
74	2.000000	1.103617	7.36577e+06	-42339.1	955.818	-29783.6	0.000000	0.000000	7.106196	60.7836	NaN	0.000000	0.001569	0.001669	28.1307	30.4605	0.001785	17068.2	7.668437	177.836	62.4841	1.103298	0.031085	0.030766	60.7836	17068.2	0.028415	0.037522	1619.96	80504.7
74	2.000000	1.105560	7.36577e+06	-42339.1	955.818	-29783.6	0.000000	0.000000	7.108548	70.7486	NaN	0.000000	0.001537	0.001711	28.1294	32.937	0.001785	18454.1	5.774829	179.348	70.4778	1.105178	0.033029	0.032647	70.7486	18454.1	0.030153	0.041062	1722.97	83204.5
74	2.000000	1.107598	7.36577e+06	-42339.1	955.818	-29783.6	0.000000	0.000000	7.110843	77.0072	NaN	0.000000	0.001530	0.001705	28.13	34.7677	0.001777	19567.3	3.824585	-179.929	75.9992	1.107306	0.035066	0.034775	77.0072	19567.3	0.032115	0.045241	1702.17	84050.4
74	2.000000	1.109580	7.36577e+06	-42339.1	955.818	-29783.6	0.000000	0.000000	7.113204	86.2092	NaN	0.000000	0.001529	0.001669	28.1292	36.3257	0.001638	22183.6	7.983408	174.652	85.2409	1.109205	0.037049	0.036673	86.2092	22183.6	0.034134	0.049749	1732.88	90868.5
74	2.000000	1.111540	7.36577e+06	-42339.1	955.818	-29783.6	0.000000	0.000000	7.115323	90.0829	NaN	0.000000	0.001542	0.001681	28.1294	39.9445	0.001741	22949.6	2.419472	179.242	87.8496	1.111353	0.039008	0.038821	90.0829	22949.6	0.036064	0.054253	1660.43	90019.6
74	2.000000	1.113523	7.36577e+06	-42339.1	955.819	-29783.6	0.000000	0.000000	7.117732	100.458	NaN	0.000000	0.001559	0.001670	28.1315	41.3481	0.001819	22736	6.268404	176.651	98.9862	1.113231	0.040991	0.040699	100.458	22736	0.037678	0.058164	1727.13	86130.8
74	2.000000	1.115540	7.36577e+06	-42339.1	955.819	-29783.6	0.000000	0.000000	7.120051	107.784	NaN	0.000000	0.001568	0.001678	28.1305	44.4476	0.001776	25028.8	4.181320	177.377	106.574	1.115189	0.043009	0.042658	107.784	25028.8	0.039779	0.063459	1698.48	90775.5
74	2.000000	1.117642	7.36577e+06	-42339.1	955.819	-29783.6	0.000000	0.000000	7.122473	115.574	NaN	0.000000	0.001592	0.001685	28.1308	46.4521	0.001688	27523.6	1.974322	179.644	118.448	1.117259	0.045111	0.044727	115.574	27523.6	0.041961	0.069195	1670.27	95596
74	2.000000	1.119512	7.36577e+06	-42339.1	955.819	-29783.6	0.000000	0.000000	7.124656	123.21	NaN	0.000000	0.001580	0.001641	28.1305	48.8752	0.001773	27559.9	5.001914	176.32	122.492	1.119210	0.046980	0.046678	123.21	27559.9	0.043627	0.073739	1670.9	92726.3
74	2.000000	1.121545	7.36577e+06	-42339.1	955.818	-29783.6	0.000000	0.000000	7.127140	134.181	NaN	0.000000	0.001568	0.001667	28.1305	51.591	0.001891	27283.1	4.496647	176.232	133.519	1.121195	0.049013	0.048663	134.181	27283.1	0.045325	0.078512	1709.05	88960.7
74	2.000000	1.123582	7.36577e+06	-42339.1	955.819	-29783.6	0.000000	0.000000	7.129626	145.093	NaN	0.000000	0.001560	0.001642	28.1295	52.3001	0.001697	30821.6	3.764806	175.938	145.625	1.123266	0.051051	0.050734	145.093	30821.6	0.047520	0.084902	1708.93	96642.5
74	2.000000	1.125477	7.36577e+06	-42339.1	955.818	-29783.6	0.000000	0.000000	7.132077	158.632	NaN	0.000000	0.001583	0.001657	28.1292	54.746	0.001784	30691.5	4.067400	175.368	154.137	1.125223	0.052945	0.052691	158.632	30691.5	0.049068	0.089556	1771.32	93701.3
74	2.000000	1.127599	7.36577e+06	-42339.1	955.819	-29783.6	0.000000	0.000000	7.134669	170.054	NaN	0.000000	0.001568	0.001634	28.1296	58.1147	0.001847	31457.5	4.373205	175.102	170.316	1.127258	0.055067	0.054726	170.054	31457.5	0.051013	0.095570	1779.37	92968.7
74	2.000000	1.129493	7.36577e+06	-42339.1	955.819	-29783.6	0.000000	0.000000	7.136885	177.897	NaN	0.000000	0.001557	0.001630	28.1294	58.7273	0.001802	32588.1	6.542647	173.039	175.629	1.129199	0.056961	0.056667	177.897	32588.1	0.052867	0.101480	1753.03	93463.7
74	2.000000	1.131528	7.36577e+06	-42339.1	955.819	-29783.6	0.000000	0.000000	7.139377	189.031	NaN	0.000000	0.001600	0.001669	28.1291	61.6583	0.001777	34693.4	4.487611	174.278	187.734	1.131223	0.058996	0.058691	189.031	34693.4	0.054910	0.108190	1747.21	96366.4
74	2.000000	1.133490	7.36577e+06	-42339.1	955.819	-29783.6	0.000000	0.000000	7.141870	201.939	NaN	0.000000	0.001529	0.001650	28.132	61.6717	0.001786	34530.8	1.224163	177.52	198.718	1.133292	0.060958	0.060760	201.939	34530.8	0.056572	0.113804	1774.45	93519.6
74	2.000000	1.135407	7.36577e+06	-42339.1	955.819	-29783.6	0.000000	0.000000	7.144326	215.05	NaN	0.000000	0.001578	0.001630	28.1314	64.7312	0.001826	35448.1	4.127346	174.767	209.134	1.135156	0.062875	0.062624	215.05	35448.1	0.058325	0.119872	1793.99	93542.3
74	2.000000	1.137509	7.36577e+06	-42339.1	955.818	-29783.6	0.000000	0.000000	7.146933	227.345	NaN	0.000000	0.001579	0.001677	28.1318	66.502	0.001738	38270	6.560215	171.409	224.884	1.137156	0.064977	0.064624	227.345	38270	0.060522	0.127686	1780.51	97850
74	2.000000	1.139555	7.36577e+06	-42339.1	955.819	-29783.6	0.000000	0.000000	7.149507	240.177	NaN	0.000000	0.001574	0.001670	28.132	68.6746	0.001858	36971.3	5.283877	173.391	238.778	1.139159	0.067024	0.066627	240.177	36971.3	0.062151	0.133636	1797.25	92401
74	2.000000	1.141540	7.36577e+06	-42339.1	955.818	-29783.6	0.000000	0.000000	7.152019	253.015	NaN	0.000000	0.001554	0.001684	28.1316	69.9562	0.001815	38549.5	1.960527	176.255	252.138	1.141278	0.069009	0.068746	253.015	38549.5	0.064086	0.140867	1796.13	93840
74	2.000000	1.143426	7.36577e+06	-42339.1	955.819	-29783.6	0.000000	0.000000	7.154583	269.498	NaN	0.000000	0.001559	0.001693	28.1304	71.2621	0.001720	41435.6	4.324119	172.706	264.278	1.143168	0.070895	0.070637	269.498	41435.6	0.066017	0.148263	1817.71	98317.6
74	2.000000	1.145534	7.36577e+06	-42339.1	955.819	-29783.6	0.000000	0.000000	7.157195	281.765	NaN	0.000000	0.001582	0.001689	28.1304	75.0116	0.001912	39230.1	6.329209	171.754	280.813	1.145165	0.073003	0.072633	281.765	39230.1	0.067616	0.154526	1823.42	91178.5
74	2.000000	1.147529	7.36577e+06	-42339.1	955.819	-29783.6	0.000000	0.000000	7.159821	297.108	NaN	0.000000	0.001587	0.001680	28.1306	75.4281	0.001714	44002.7	3.291074	173.369	296.649	1.147271	0.074997	0.074740	297.108	44002.7	0.069933	0.163817	1813.66	99328.3
74	2.000000	1.149452	7.36577e+06	-42339.1	955.819	-29783.6	0.000000	0.000000	7.162485	315.138	NaN	0.000000	0.001599	0.001662	28.1307	76.2224	0.001674	45531	1.657719	175.624	310.105	1.149225	0.076921	0.076694	315.138	45531	0.071729	0.171194	1840.82	100539
74	2.000000	1.151511	7.36577e+06	-42339.1	955.818	-29783.6	0.000000	0.000000	7.165014	326.584	NaN	0.000000	0.001612	0.001660	28.1304	81.3514	0.001729	47054.9	3.232411	173.874	325.826	1.151130	0.078980	0.078599	326.584	47054.9	0.073774	0.179780	1816.57	101393
74	2.000000	1.153500	7.36577e+06	-42339.1	955.818	-29783.6	0.000000	0.000000	7.167571	340.412	NaN	0.000000	0.001583	0.001683	28.1318	81.1091	0.001762	46039.7	5.683387	171.232	340.421	1.153197	0.080968	0.080665	340.412	46039.7	0.075423	0.186845	1821.9	97311.7
74	2.000000	1.155449	7.36577e+06	-42339.1	955.819	-29783.6	0.000000	0.000000	7.170091	354.302	NaN	0.000000	0.001595	0.001650	28.1317	84.3246	0.001899	44405.4	4.872384	172.183	349.049	1.155087	0.082917	0.082555	354.302	44405.4	0.076933	0.193430	1831.68	92246
74	2.000000	1.157530	7.36577e+06	-42339.1	955.819	-29783.6	0.000000	0.000000	7.172669	366.382	NaN	0.000000	0.001559	0.001653	28.1313	85.1594	0.001765	48244.3	0.084411	176.915	365.915	1.157230	0.084998	0.084699	366.382	48244.3	0.079303	0.203975	1796.21	97595.7
74	2.000000	1.159473	7.36577e+06	-42339.1	955.818	-29783.6	0.000000	0.000000	7.175371	384.868	NaN	0.000000	0.001562	0.001666	28.1316	87.1962	0.001665	52385.8	2.590775	173.474	381.93	1.159219	0.086941	0.086688	384.868	52385.8	0.081431	0.213670	1801.23	103542
74	2.000000	1.161529	7.36577e+06	-42339.1	955.819	-29783.6	0.000000	0.000000	7.178098	401.189	NaN	0.000000	0.001527	0.001666	28.1315	90.7129	0.001828	49637.7	6.000339	170.092	401.494	1.161197	0.088997	0.088666	401.189	49637.7	0.082936	0.220652	1818.19	96545.2
74	2.000000	1.163384	7.36577e+06	-42339.1	955.818	-29783.6	0.000000	0.000000	7.180797	421.701	NaN	0.000000	0.001571	0.001652	28.1305	89.6141	0.001721	52059.8	3.089906	173.319	415.955	1.163232	0.090853	0.090700	421.701	52059.8	0.084778	0.229342	1838.75	99319.5
74	2.000000	1.165364	7.36577e+06	-42339.1	955.818	-29783.6	0.000000	0.000000	7.183248	433.184	NaN	0.000000	0.001588	0.001646	28.1312	93.5209	0.001792	52174.6	3.028677	173.353	425.58	1.165072	0.092832	0.092540	433.184	52174.6	0.086605	0.238120	1819.19	97686.6
74	2.000000	1.167428	7.36577e+06	-42339.1	955.819	-29783.6	0.000000	0.000000	7.186035	450.783	NaN	0.000000	0.001571	0.001650	28.1292	96.4806	0.001828	52790.6	4.968794	170.828	447.381	1.167283	0.094896	0.094751	450.783	52790.6	0.088492	0.247341	1822.52	96979.9
74	2.000000	1.169595	7.36577e+06	-42339.1	955.819	-29783.6	0.000000	0.000000	7.188742	463.888	NaN	0.000000	0.001614	0.001666	28.1291	96.9824	0.001725	56230	2.019231	174.005	469.749	1.169178	0.097064	0.096646	463.888	56230	0.090876	0.259229	1789.49	100902
74	2.000000	1.171456	7.36577e+06	-42339.1	955.818	-29783.6	0.000000	0.000000	7.191058	474.973	NaN	0.000000	0.001648	0.001684	28.1289	99.1146	0.001673	59241.3	3.084285	171.671	473.047	1.171356	0.098925	0.098824	474.973	59241.3	0.092911	0.269582	1761.89	104244
74	2.000000	1.173355	7.36577e+06	-42339.1	955.818	-29783.6	0.000000	0.000000	7.194050	501.573	NaN	0.000000	0.001665	0.001664	28.1301	100.798	0.001775	56787.1	5.785211	169.627	494.134	1.173170	0.100824	0.100638	501.573	56787.1	0.094199	0.276232	1815.76	98715.6
74	2.000000	1.175370	7.36577e+06	-42339.1	955.819	-29783.6	0.000000	0.000000	7.197049	525.535	NaN	0.000000	0.001639	0.001663	28.1306	102.462	0.001726	59361	2.011656	173.115	519.904	1.175045	0.102838	0.102513	525.535	59361	0.096198	0.286702	1833.04	101288
74	2.000000	1.177439	7.36577e+06	-42339.1	955.818	-29783.6	0.000000	0.000000	7.199939	545.487	NaN	0.000000	0.001666	0.001656	28.1301	104.76	0.001819	57583	2.294106	173.316	539.264	1.177090	0.104907	0.104558	545.487	57583	0.097802	0.295236	1847.63	96823.9
74	2.000000	1.179469	7.36577e+06	-42339.1	955.819	-29783.6	0.000000	0.000000	7.202589	560.567	NaN	0.000000	0.001633	0.001690	28.1302	106.675	0.001854	57551.2	4.078988	172.183	557.939	1.178963	0.106938	0.106432	560.567	57551.2	0.099633	0.305117	1837.22	95190.7