File: remote_trans/data/nanoindenter/0828-1/data/Data_2025-08-06,11h17m57s/2025-07-22_16-23-58_1_305.txt
2025-07-22, 16:23:58, 1
Index	Phase	Displacement	Time	Pos X	Pos Y	Pos Z	Rot A	Rot B	Piezo Z	Force A	Force B	Gripper	Voltage A	Voltage B	Temperature	Amplitude force	Amplitude pos	Stiffness	Phase shift	Phase excitation	Force A raw	Displacement raw	HMax	HMax raw	Real Force	Real Stiffness	Contact Depth	Area	Hardness	Reduced Mod.
[#]	[#]	[um]	[s]	[um]	[um]	[um]	[m°]	[m°]	[um]	[uN]	[uN]	[V]	[V]	[V]	[°C]	[uN]	[um]	[N/m]	[°]	[°]	[uN]	[um]	[um]	[um]	[uN]	[N/m]	[um]	[um^2]	[MPa]	[MPa]
305	1.000000	0.002561	7.36805e+06	-53889.1	955.817	-29745.4	0.000000	0.000000	6.002820	0.013241	NaN	0.000000	0.001602	0.001699	28.0785	0.077498	0.000948	81.7433	-41.0257	-174.917	0.089635	0.001267	-0.965546	-0.966840	0.013241	81.7433	-0.965667	-7.821116E+12	-1.693044E-15	NaN
305	1.000000	0.010502	7.36805e+06	-53889.1	955.818	-29745.4	0.000000	0.000000	6.010763	0.038270	NaN	0.000000	0.001614	0.001706	28.0788	0.173054	0.000937	184.76	179.477	-162.181	-0.027460	0.009180	-0.957604	-0.958926	0.038270	184.76	-0.957759	-6.118735E+12	-6.254512E-15	NaN
305	1.000000	0.018476	7.36805e+06	-53889.1	955.818	-29745.4	0.000000	0.000000	6.018736	0.029899	NaN	0.000000	0.001593	0.001705	28.0788	0.066064	0.001836	35.9917	44.1892	-164.601	0.094936	0.017157	-0.949631	-0.950950	0.029899	35.9917	-0.950254	-4.846734E+12	-6.168839E-15	NaN
305	1.000000	0.026516	7.36805e+06	-53889.1	955.819	-29745.4	0.000000	0.000000	6.026774	-0.002038	NaN	0.000000	0.001611	0.001700	28.0788	0.067415	0.001818	37.0745	154.229	-166.89	-0.036789	0.025186	-0.941591	-0.942921	-0.002038	37.0745	-0.941550	-3.698679E+12	5.509616E-16	NaN
305	1.000000	0.034481	7.36805e+06	-53889.1	955.818	-29745.4	0.000000	0.000000	6.034739	-0.005540	NaN	0.000000	0.001603	0.001695	28.0789	0.013961	0.001938	7.202196	151.584	-168.271	-0.071697	0.033182	-0.933626	-0.934924	-0.005540	7.202196	-0.933049	-2.840185E+12	1.950652E-15	NaN
305	1.000000	0.042491	7.36805e+06	-53889.1	955.819	-29745.4	0.000000	0.000000	6.042751	0.017362	NaN	0.000000	0.001636	0.001705	28.0788	0.034949	0.001930	18.1088	106.317	-167.243	0.119890	0.041168	-0.925616	-0.926939	0.017362	18.1088	-0.926335	-2.305283E+12	-7.531466E-15	NaN
305	1.000000	0.050479	7.36805e+06	-53889.1	955.818	-29745.4	0.000000	0.000000	6.050742	0.080858	NaN	0.000000	0.001655	0.001704	28.0788	0.031727	0.001998	15.8762	-3.247539	-168.301	0.124380	0.049167	-0.917627	-0.918940	0.080858	15.8762	-0.921447	-1.980356E+12	-4.083017E-14	NaN
305	1.000000	0.058507	7.36805e+06	-53889.1	955.819	-29745.4	0.000000	0.000000	6.058763	-0.056872	NaN	0.000000	0.001633	0.001680	28.0789	0.067496	0.001898	35.5606	-133.997	-163.935	0.023656	0.057198	-0.909600	-0.910909	-0.056872	35.5606	-0.908400	-1.319944E+12	4.308653E-14	NaN
305	1.000000	0.066499	7.36805e+06	-53889.1	955.818	-29745.4	0.000000	0.000000	6.066759	0.023241	NaN	0.000000	0.001640	0.001704	28.0788	0.078956	0.001944	40.622	42.1473	-166.177	0.032284	0.065162	-0.901607	-0.902945	0.023241	40.622	-0.902036	-1.082883E+12	-2.146223E-14	NaN
305	1.000000	0.074492	7.36805e+06	-53889.1	955.818	-29745.4	0.000000	0.000000	6.074750	-0.018613	NaN	0.000000	0.001635	0.001708	28.0792	0.082609	0.002014	41.0148	-125.941	-168.926	0.011527	0.073227	-0.893615	-0.894879	-0.018613	41.0148	-0.893275	-8.244750E+11	2.257569E-14	NaN
305	1.000000	0.082505	7.36805e+06	-53889.1	955.819	-29745.4	0.000000	0.000000	6.082767	0.081294	NaN	0.000000	0.001658	0.001698	28.0778	0.043919	0.001940	22.6338	165.09	-166.676	0.018527	0.081216	-0.885602	-0.886890	0.081294	22.6338	-0.888295	-7.061085E+11	-1.151293E-13	NaN
305	1.000000	0.090506	7.36805e+06	-53889.1	955.819	-29745.4	0.000000	0.000000	6.090765	-0.008888	NaN	0.000000	0.001637	0.001729	28.0778	0.091654	0.001967	46.5965	10.3944	-162.059	0.010097	0.089166	-0.877600	-0.878941	-0.008888	46.5965	-0.877457	-5.038719E+11	1.763879E-14	NaN
305	1.000000	0.098501	7.36805e+06	-53889.1	955.82	-29745.4	0.000000	0.000000	6.098761	0.033978	NaN	0.000000	0.001684	0.001703	28.0777	0.098881	0.002064	47.9095	-32.6546	-169.874	0.105022	0.097144	-0.869606	-0.870962	0.033978	47.9095	-0.870138	-4.011523E+11	-8.470012E-14	NaN
305	1.000000	0.106506	7.36805e+06	-53889.1	955.818	-29745.4	0.000000	0.000000	6.106766	0.020623	NaN	0.000000	0.001681	0.001667	28.0778	0.031908	0.002011	15.8652	-139.359	-167.495	-0.034451	0.105242	-0.861601	-0.862865	0.020623	15.8652	-0.862576	-3.169435E+11	-6.506727E-14	NaN
305	1.000000	0.114519	7.36805e+06	-53889.1	955.819	-29745.4	0.000000	0.000000	6.114780	0.043576	NaN	0.000000	0.001659	0.001678	28.0778	0.107102	0.002069	51.7567	46.7723	-167.91	0.046429	0.113198	-0.853587	-0.854909	0.043576	51.7567	-0.854219	-2.442638E+11	-1.783953E-13	NaN
305	1.000000	0.122518	7.36805e+06	-53889.1	955.819	-29745.4	0.000000	0.000000	6.122780	0.093432	NaN	0.000000	0.001635	0.001665	28.0776	0.061175	0.001994	30.6772	-64.3778	-164.663	0.108546	0.121279	-0.845589	-0.846827	0.093432	30.6772	-0.847873	-2.004185E+11	-4.661855E-13	NaN
305	1.000000	0.130529	7.36805e+06	-53889.1	955.818	-29745.4	0.000000	0.000000	6.130787	-0.008851	NaN	0.000000	0.001628	0.001677	28.0776	0.037706	0.001902	19.8205	-48.5747	-169.76	-0.007970	0.129177	-0.837578	-0.838929	-0.008851	19.8205	-0.837243	-1.438600E+11	6.152258E-14	NaN
305	1.000000	0.138518	7.36805e+06	-53889.1	955.818	-29745.4	0.000000	0.000000	6.138778	0.031226	NaN	0.000000	0.001639	0.001687	28.0772	0.194894	0.002032	95.8929	97.6517	-166.172	-0.010447	0.137195	-0.829589	-0.830911	0.031226	95.8929	-0.829833	-1.141614E+11	-2.735281E-13	NaN
305	1.000000	0.146541	7.36805e+06	-53889.1	955.818	-29745.4	0.000000	0.000000	6.146802	0.032333	NaN	0.000000	0.001641	0.001691	28.0773	0.064692	0.002163	29.9112	-4.212085	-167.734	0.103465	0.145203	-0.821565	-0.822904	0.032333	29.9112	-0.822376	-9.045431E+10	-3.574464E-13	NaN
305	1.000000	0.154552	7.36805e+06	-53889.1	955.818	-29745.4	0.000000	0.000000	6.154812	0.043617	NaN	0.000000	0.001602	0.001682	28.0773	0.044028	0.001965	22.4061	139.371	-166.583	-0.022615	0.153178	-0.813555	-0.814928	0.043617	22.4061	-0.815015	-7.187897E+10	-6.068079E-13	NaN
305	1.000000	0.162518	7.36805e+06	-53889.1	955.818	-29745.4	0.000000	0.000000	6.162776	-0.021881	NaN	0.000000	0.001632	0.001683	28.0775	0.085210	0.001992	42.7763	155.713	-166.493	-0.059190	0.161226	-0.805589	-0.806880	-0.021881	42.7763	-0.805205	-5.290697E+10	4.135669E-13	NaN
305	1.000000	0.170540	7.36805e+06	-53889.1	955.819	-29745.4	0.000000	0.000000	6.170801	0.049804	NaN	0.000000	0.001619	0.001707	28.0774	0.066623	0.002029	32.832	171.126	-165.464	0.030549	0.169231	-0.797567	-0.798875	0.049804	32.832	-0.798705	-4.317969E+10	-1.153406E-12	NaN
305	1.000000	0.178545	7.36805e+06	-53889.1	955.818	-29745.4	0.000000	0.000000	6.178804	-0.002001	NaN	0.000000	0.001643	0.001673	28.0777	0.058981	0.001979	29.803	-113.091	-166.144	0.033783	0.177203	-0.789562	-0.790903	-0.002001	29.803	-0.789511	-3.239269E+10	6.176497E-14	NaN
305	1.000000	0.186583	7.36805e+06	-53889.1	955.818	-29745.4	0.000000	0.000000	6.186843	0.012367	NaN	0.000000	0.001628	0.001674	28.0777	0.097639	0.001922	50.7907	60.6937	-168.03	0.012098	0.185217	-0.781523	-0.782890	0.012367	50.7907	-0.781706	-2.537541E+10	-4.873545E-13	NaN
305	1.000000	0.194562	7.36805e+06	-53889.1	955.818	-29745.4	0.000000	0.000000	6.194822	0.039352	NaN	0.000000	0.001616	0.001687	28.0774	0.100460	0.002039	49.2621	108.665	-168.154	0.017891	0.193201	-0.773545	-0.774906	0.039352	49.2621	-0.774144	-2.002826E+10	-1.964822E-12	NaN
305	1.000000	0.202545	7.36805e+06	-53889.1	955.819	-29745.4	0.000000	0.000000	6.202807	0.082378	NaN	0.000000	0.001605	0.001663	28.0776	0.057367	0.001904	30.1242	164.346	-165.368	0.070415	0.201201	-0.765562	-0.766905	0.082378	30.1242	-0.767613	-1.632476E+10	-5.046183E-12	NaN
305	1.000000	0.210559	7.36805e+06	-53889.1	955.819	-29745.4	0.000000	0.000000	6.210817	-0.013535	NaN	0.000000	0.001585	0.001693	28.0776	0.117226	0.002034	57.6442	-5.957203	-165.541	0.001409	0.209251	-0.757548	-0.758856	-0.013535	57.6442	-0.757372	-1.184534E+10	1.142603E-12	NaN
305	1.000000	0.218539	7.36805e+06	-53889.1	955.818	-29745.4	0.000000	0.000000	6.218799	0.033153	NaN	0.000000	0.001585	0.001687	28.079	0.035477	0.001965	18.0565	-43.8885	-167.512	0.100511	0.217260	-0.749568	-0.750846	0.033153	18.0565	-0.750945	-9.684546E+9	-3.423321E-12	NaN
305	1.000000	0.226576	7.36805e+06	-53889.1	955.818	-29745.4	0.000000	0.000000	6.226837	0.047080	NaN	0.000000	0.001603	0.001697	28.079	0.058887	0.001980	29.7446	-81.5333	-167.269	0.183670	0.225295	-0.741531	-0.742812	0.047080	29.7446	-0.742718	-7.482872E+9	-6.291658E-12	NaN
305	1.000000	0.234570	7.36805e+06	-53889.1	955.817	-29745.4	0.000000	0.000000	6.234830	0.010292	NaN	0.000000	0.001639	0.001706	28.0786	0.087559	0.001901	46.0636	-132.507	-165.897	-0.020563	0.233251	-0.733536	-0.734856	0.010292	46.0636	-0.733704	-5.640055E+9	-1.824785E-12	NaN
305	1.000000	0.242554	7.36805e+06	-53889.1	955.818	-29745.4	0.000000	0.000000	6.242812	-0.019690	NaN	0.000000	0.001634	0.001697	28.079	0.029672	0.002020	14.6874	-130.02	-167.462	0.081191	0.241226	-0.725553	-0.726880	-0.019690	14.6874	-0.724547	-4.231342E+9	4.653386E-12	NaN
305	1.000000	0.250552	7.36805e+06	-53889.1	955.819	-29745.4	0.000000	0.000000	6.250811	0.022625	NaN	0.000000	0.001661	0.001707	28.0787	0.032556	0.002013	16.1702	51.4994	-171.312	0.007941	0.249298	-0.717555	-0.718809	0.022625	16.1702	-0.718604	-3.511069E+9	-6.444001E-12	NaN
305	1.000000	0.258558	7.36805e+06	-53889.1	955.819	-29745.4	0.000000	0.000000	6.258819	0.054248	NaN	0.000000	0.001671	0.001728	28.0788	0.071359	0.001985	35.9559	-158.085	-161.44	0.010059	0.257271	-0.709549	-0.710836	0.054248	35.9559	-0.710680	-2.737371E+9	-1.981752E-11	NaN
305	1.000000	0.266585	7.36805e+06	-53889.1	955.818	-29745.4	0.000000	0.000000	6.266846	0.055467	NaN	0.000000	0.001662	0.001735	28.0787	0.013702	0.002086	6.569338	-150.056	-163.528	0.047372	0.265288	-0.701522	-0.702818	0.055467	6.569338	-0.707854	-2.504723E+9	-2.214494E-11	NaN
305	1.000000	0.274594	7.36805e+06	-53889.1	955.819	-29745.4	0.000000	0.000000	6.274850	-0.055811	NaN	0.000000	0.001630	0.001715	28.0787	0.095285	0.001976	48.2127	177.432	-165.09	-0.056305	0.273281	-0.693513	-0.694826	-0.055811	48.2127	-0.692645	-1.552601E+9	3.594707E-11	NaN
305	1.000000	0.282540	7.36805e+06	-53889.1	955.819	-29745.4	0.000000	0.000000	6.282800	0.010348	NaN	0.000000	0.001651	0.001693	28.0788	0.039165	0.002143	18.2718	93.9031	-167.092	-0.069207	0.281276	-0.685566	-0.686831	0.010348	18.2718	-0.685991	-1.259283E+9	-8.217524E-12	NaN
305	1.000000	0.290590	7.36805e+06	-53889.1	955.819	-29745.4	0.000000	0.000000	6.290851	0.046211	NaN	0.000000	0.001679	0.001679	28.0788	0.027757	0.001953	14.2093	-137.009	-166.519	0.047525	0.289254	-0.677517	-0.678853	0.046211	14.2093	-0.679956	-1.041362E+9	-4.437575E-11	NaN
305	1.000000	0.298587	7.36805e+06	-53889.1	955.819	-29745.4	0.000000	0.000000	6.298846	0.001845	NaN	0.000000	0.001631	0.001709	28.0787	0.110179	0.002000	55.079	-57.273	-164.222	-0.028519	0.297267	-0.669520	-0.670840	0.001845	55.079	-0.669545	-7.501677E+8	-2.459110E-12	NaN
305	1.000000	0.306608	7.36805e+06	-53889.1	955.819	-29745.4	0.000000	0.000000	6.306868	0.032179	NaN	0.000000	0.001626	0.001728	28.079	0.076024	0.001944	39.1096	-33.539	-165.719	0.065245	0.305302	-0.661498	-0.662805	0.032179	39.1096	-0.662116	-5.935318E+8	-5.421576E-11	NaN
305	1.000000	0.314613	7.36805e+06	-53889.1	955.82	-29745.4	0.000000	0.000000	6.314871	-0.021860	NaN	0.000000	0.001632	0.001707	28.0789	0.114862	0.002026	56.6941	29.1223	-168.052	0.056140	0.313294	-0.653493	-0.654812	-0.021860	56.6941	-0.653204	-4.480794E+8	4.878526E-11	NaN
305	1.000000	0.322609	7.36805e+06	-53889.1	955.819	-29745.4	0.000000	0.000000	6.322869	0.027071	NaN	0.000000	0.001641	0.001652	28.0792	0.054650	0.002131	25.6504	49.5043	-170.175	0.111952	0.321333	-0.645497	-0.646774	0.027071	25.6504	-0.646289	-3.602082E+8	-7.515243E-11	NaN
305	1.000000	0.330632	7.36805e+06	-53889.1	955.819	-29745.4	0.000000	0.000000	6.330891	0.007431	NaN	0.000000	0.001612	0.001691	28.0788	0.143574	0.002038	70.4372	127.382	-162.618	0.056118	0.329286	-0.637475	-0.638821	0.007431	70.4372	-0.637554	-2.733533E+8	-2.718347E-11	NaN
305	1.000000	0.338618	7.36805e+06	-53889.1	955.819	-29745.4	0.000000	0.000000	6.338879	0.045883	NaN	0.000000	0.001612	0.001655	28.0789	0.058386	0.001995	29.2648	-78.9816	-166.166	0.056592	0.337285	-0.629489	-0.630822	0.045883	29.2648	-0.630664	-2.198605E+8	-2.086894E-10	NaN
305	1.000000	0.346655	7.36805e+06	-53889.1	955.819	-29745.4	0.000000	0.000000	6.346916	0.032552	NaN	0.000000	0.001652	0.001690	28.0789	0.033298	0.002006	16.5973	-140.711	-170.811	0.010451	0.345345	-0.621451	-0.622761	0.032552	16.5973	-0.622922	-1.721053E+8	-1.891396E-10	NaN
305	1.000000	0.354608	7.36805e+06	-53889.1	955.819	-29745.4	0.000000	0.000000	6.354866	-0.023660	NaN	0.000000	0.001627	0.001663	28.0778	0.125865	0.001964	64.0754	134.849	-167.514	0.065777	0.353266	-0.613498	-0.614840	-0.023660	64.0754	-0.613221	-1.265986E+8	1.868922E-10	NaN
305	1.000000	0.362605	7.36805e+06	-53889.1	955.817	-29745.4	0.000000	0.000000	6.362862	-0.035328	NaN	0.000000	0.001630	0.001680	28.078	0.042139	0.002072	20.3356	-123.268	-166.224	-0.066093	0.361293	-0.605502	-0.606814	-0.035328	20.3356	-0.604199	-9.512175E+7	3.713944E-10	NaN
305	1.000000	0.370617	7.36805e+06	-53889.1	955.819	-29745.4	0.000000	0.000000	6.370877	0.021984	NaN	0.000000	0.001626	0.001697	28.0777	0.047454	0.002144	22.1325	-32.5267	-165.541	0.077495	0.369324	-0.597489	-0.598783	0.021984	22.1325	-0.598234	-7.873044E+7	-2.792304E-10	NaN
305	1.000000	0.378624	7.36805e+06	-53889.1	955.819	-29745.4	0.000000	0.000000	6.378883	0.004600	NaN	0.000000	0.001608	0.001660	28.0777	0.095130	0.001929	49.3156	156.433	-169.833	-0.015016	0.377311	-0.589482	-0.590796	0.004600	49.3156	-0.589552	-5.977138E+7	-7.696755E-11	NaN
305	1.000000	0.386621	7.36805e+06	-53889.1	955.819	-29745.4	0.000000	0.000000	6.386883	0.084220	NaN	0.000000	0.001621	0.001655	28.0775	0.081519	0.001937	42.0813	14.0421	-165.363	0.002534	0.385294	-0.581486	-0.582812	0.084220	42.0813	-0.582987	-4.852220E+7	-1.735696E-9	NaN
305	1.000000	0.394652	7.36805e+06	-53889.1	955.819	-29745.4	0.000000	0.000000	6.394913	0.039360	NaN	0.000000	0.001724	0.001689	28.0777	0.067770	0.001982	34.1984	-87.1654	-163.35	0.025113	0.393371	-0.573454	-0.574735	0.039360	34.1984	-0.574317	-3.683604E+7	-1.068520E-9	NaN
305	1.000000	0.402598	7.36805e+06	-53889.1	955.819	-29745.4	0.000000	0.000000	6.402858	0.016850	NaN	0.000000	0.001718	0.001732	28.0777	0.106932	0.002018	52.9888	-91.1687	-169.361	-0.044908	0.401284	-0.565508	-0.566822	0.016850	52.9888	-0.565747	-2.804471E+7	-6.008261E-10	NaN
305	1.000000	0.410644	7.36805e+06	-53889.1	955.818	-29745.4	0.000000	0.000000	6.410900	-0.058636	NaN	0.000000	0.001720	0.001709	28.0777	0.047664	0.002037	23.4011	-99.6074	-167.698	0.031728	0.409330	-0.557463	-0.558777	-0.058636	23.4011	-0.555584	-2.028934E+7	2.889987E-9	NaN
305	1.000000	0.418622	7.36805e+06	-53889.1	955.818	-29745.4	0.000000	0.000000	6.418883	0.046415	NaN	0.000000	0.001672	0.001662	28.0779	0.094664	0.001941	48.771	60.7439	-169.94	0.114664	0.417339	-0.549484	-0.550768	0.046415	48.771	-0.550198	-1.708829E+7	-2.716182E-9	NaN
305	1.000000	0.426668	7.36805e+06	-53889.1	955.819	-29745.4	0.000000	0.000000	6.426927	0.000139	NaN	0.000000	0.001632	0.001690	28.0778	0.008602	0.002031	4.234352	-166.867	-168.234	-0.035181	0.425370	-0.541439	-0.542737	0.000139	4.234352	-0.541464	-1.293165E+7	-1.074102E-11	NaN
305	1.000000	0.434645	7.36805e+06	-53889.1	955.818	-29745.4	0.000000	0.000000	6.434904	0.013448	NaN	0.000000	0.001627	0.001698	28.0777	0.031616	0.001845	17.1358	156.804	-162.501	0.027221	0.433303	-0.533462	-0.534804	0.013448	17.1358	-0.534050	-1.020493E+7	-1.317798E-9	NaN
305	1.000000	0.442669	7.36805e+06	-53889.1	955.819	-29745.4	0.000000	0.000000	6.442931	0.087734	NaN	0.000000	0.001607	0.001657	28.0776	0.086714	0.002088	41.5255	-125.742	-164.013	0.107830	0.441352	-0.525438	-0.526755	0.087734	41.5255	-0.527022	-8.15105e+06	-1.076356E-8	NaN
305	1.000000	0.450661	7.36805e+06	-53889.1	955.819	-29745.4	0.000000	0.000000	6.450920	-0.003224	NaN	0.000000	0.001615	0.001676	28.0782	0.048877	0.002205	22.1671	-96.7729	-166.267	0.109230	0.449304	-0.517446	-0.518803	-0.003224	22.1671	-0.517337	-5.97788e+06	5.393885E-10	NaN
305	1.000000	0.458652	7.36805e+06	-53889.1	955.819	-29745.4	0.000000	0.000000	6.458914	0.077620	NaN	0.000000	0.001598	0.001690	28.0777	0.032762	0.001970	16.6334	4.808998	-168.53	0.043182	0.457391	-0.509454	-0.510716	0.077620	16.6334	-0.512954	-5.19464e+06	-1.494236E-8	NaN
305	1.000000	0.466668	7.36805e+06	-53889.1	955.818	-29745.4	0.000000	0.000000	6.466927	-0.009392	NaN	0.000000	0.001648	0.001691	28.0778	0.128544	0.001951	65.882	16.9821	-167.175	-0.014194	0.465365	-0.501438	-0.502741	-0.009392	65.882	-0.501331	-3.5776e+06	2.625355E-9	NaN
305	1.000000	0.474664	7.36805e+06	-53889.1	955.819	-29745.4	0.000000	0.000000	6.474923	-0.000810	NaN	0.000000	0.001633	0.001676	28.0779	0.108342	0.002010	53.8979	-50.3586	-166.657	0.037720	0.473365	-0.493443	-0.494741	-0.000810	53.8979	-0.493431	-2.77544e+06	2.918596E-10	NaN
305	1.000000	0.482696	7.36805e+06	-53889.1	955.819	-29745.4	0.000000	0.000000	6.482956	0.035091	NaN	0.000000	0.001671	0.001670	28.0775	0.054315	0.002033	26.7184	-90.3671	-167.7	0.133496	0.481330	-0.485411	-0.486776	0.035091	26.7184	-0.486396	-2.21317e+06	-1.585545E-8	NaN
305	1.000000	0.490662	7.36805e+06	-53889.1	955.818	-29745.4	0.000000	0.000000	6.490918	-0.063690	NaN	0.000000	0.001645	0.001675	28.0788	0.089046	0.001939	45.9247	-74.8135	-164.388	-0.044707	0.489371	-0.477445	-0.478736	-0.063690	45.9247	-0.476405	-1.60391e+06	3.970925E-8	NaN
305	1.000000	0.498655	7.36805e+06	-53889.1	955.819	-29745.4	0.000000	0.000000	6.498916	0.043275	NaN	0.000000	0.001665	0.001703	28.079	0.045707	0.001968	23.2218	34.9159	-167.476	0.048352	0.497396	-0.469451	-0.470711	0.043275	23.2218	-0.470849	-1.34064e+06	-3.227951E-8	NaN
305	1.000000	0.506691	7.36805e+06	-53889.1	955.82	-29745.4	0.000000	0.000000	6.506949	-0.024895	NaN	0.000000	0.001631	0.001679	28.0793	0.106754	0.001998	53.4257	86.6448	-167.003	-0.078535	0.505382	-0.461416	-0.462724	-0.024895	53.4257	-0.461066	-977233	2.547473E-8	NaN
305	1.000000	0.514679	7.36805e+06	-53889.1	955.819	-29745.4	0.000000	0.000000	6.514938	0.002497	NaN	0.000000	0.001611	0.001704	28.0791	0.076651	0.001988	38.5574	16.9316	-165.349	0.033005	0.513379	-0.453427	-0.454728	0.002497	38.5574	-0.453476	-764314	-3.266754E-9	NaN
305	1.000000	0.522674	7.36805e+06	-53889.1	955.818	-29745.4	0.000000	0.000000	6.522935	0.044150	NaN	0.000000	0.001655	0.001671	28.0791	0.182642	0.002094	87.201	30.7223	-165.979	0.065309	0.521381	-0.445432	-0.446726	0.044150	87.201	-0.445812	-596131	-7.406082E-8	NaN
305	1.000000	0.530707	7.36805e+06	-53889.1	955.817	-29745.4	0.000000	0.000000	6.530966	0.001319	NaN	0.000000	0.001664	0.001691	28.0794	0.059639	0.002011	29.6522	-172.361	-165.297	0.010990	0.529411	-0.437399	-0.438696	0.001319	29.6522	-0.437433	-454064	-2.905661E-9	NaN
305	1.000000	0.538691	7.36805e+06	-53889.1	955.817	-29745.4	0.000000	0.000000	6.538949	-0.009593	NaN	0.000000	0.001696	0.001706	28.0791	0.113103	0.001935	58.4531	-178.223	-164.731	-0.112587	0.537440	-0.429416	-0.430666	-0.009593	58.4531	-0.429293	-348384	2.753666E-8	NaN
305	1.000000	0.546716	7.36805e+06	-53889.1	955.818	-29745.4	0.000000	0.000000	6.546975	0.008509	NaN	0.000000	0.001701	0.001709	28.0794	0.081609	0.002151	37.9379	-141.941	-164.646	0.031819	0.545343	-0.421391	-0.422764	0.008509	37.9379	-0.421559	-270719	-3.143103E-8	NaN
305	1.000000	0.554689	7.36805e+06	-53889.1	955.818	-29745.4	0.000000	0.000000	6.554952	0.093861	NaN	0.000000	0.001660	0.001697	28.0791	0.078177	0.002061	37.9241	63.3492	-166.011	0.043671	0.553421	-0.413417	-0.414686	0.093861	37.9241	-0.415273	-220465	-4.257411E-7	NaN
305	1.000000	0.562686	7.36805e+06	-53889.1	955.82	-29745.4	0.000000	0.000000	6.562947	0.043919	NaN	0.000000	0.001622	0.001659	28.0791	0.054741	0.002007	27.2737	-51.604	-167.034	-0.003602	0.561369	-0.405420	-0.406737	0.043919	27.2737	-0.406628	-166121	-2.643780E-7	NaN
305	1.000000	0.570705	7.36805e+06	-53889.1	955.819	-29745.4	0.000000	0.000000	6.570965	0.016882	NaN	0.000000	0.001666	0.001690	28.0793	0.071415	0.002165	32.9875	-100.891	-167.501	0.020877	0.569342	-0.397401	-0.398765	0.016882	32.9875	-0.397785	-124280	-1.358397E-7	NaN
305	1.000000	0.578707	7.36805e+06	-53889.1	955.819	-29745.4	0.000000	0.000000	6.578969	0.087652	NaN	0.000000	0.001670	0.001685	28.079	0.012017	0.002025	5.934552	17.4094	-167.082	-0.014192	0.577417	-0.389400	-0.390689	0.087652	5.934552	-0.400477	-135768	-6.456029E-7	NaN
305	1.000000	0.586726	7.36805e+06	-53889.1	955.818	-29745.4	0.000000	0.000000	6.586989	0.102228	NaN	0.000000	0.001640	0.001717	28.0792	0.085018	0.001894	44.8823	-129.994	-166.619	0.095495	0.585381	-0.381381	-0.382726	0.102228	44.8823	-0.383089	-76594.4	-1.334664E-6	NaN
305	1.000000	0.594729	7.36805e+06	-53889.1	955.818	-29745.4	0.000000	0.000000	6.594992	0.090278	NaN	0.000000	0.001654	0.001692	28.0791	0.091552	0.002036	44.9562	-16.849	-165.663	0.031315	0.593426	-0.373378	-0.374681	0.090278	44.9562	-0.374884	-58398.3	-1.545899E-6	NaN
305	1.000000	0.602731	7.36805e+06	-53889.1	955.819	-29745.4	0.000000	0.000000	6.602991	0.017638	NaN	0.000000	0.001657	0.001693	28.0793	0.103492	0.002002	51.6869	141.8	-167.065	0.021291	0.601377	-0.365376	-0.366730	0.017638	51.6869	-0.365632	-42970	-4.104669E-7	NaN
305	1.000000	0.610728	7.36805e+06	-53889.1	955.818	-29745.4	0.000000	0.000000	6.610987	0.004760	NaN	0.000000	0.001646	0.001705	28.0793	0.091197	0.001970	46.288	-162.415	-170.871	0.044609	0.609390	-0.357379	-0.358717	0.004760	46.288	-0.357456	-32738.1	-1.454037E-7	NaN
305	1.000000	0.618723	7.36805e+06	-53889.1	955.818	-29745.4	0.000000	0.000000	6.618985	0.070234	NaN	0.000000	0.001656	0.001694	28.0791	0.093241	0.002156	43.2379	87.5935	-165.632	0.072222	0.617476	-0.349384	-0.350631	0.070234	43.2379	-0.350602	-26045.8	-2.696552E-6	NaN
305	1.000000	0.626704	7.36805e+06	-53889.1	955.818	-29745.4	0.000000	0.000000	6.626961	-0.047259	NaN	0.000000	0.001643	0.001656	28.0779	0.016953	0.001920	8.828986	53.7704	-166.233	0.020629	0.625401	-0.341403	-0.342705	-0.047259	8.828986	-0.337389	-16728.8	2.825003E-6	NaN
305	1.000000	0.634745	7.36805e+06	-53889.1	955.819	-29745.4	0.000000	0.000000	6.635006	0.037967	NaN	0.000000	0.001646	0.001698	28.0778	0.074528	0.001957	38.0906	126.556	-166.362	0.013128	0.633387	-0.333361	-0.334719	0.037967	38.0906	-0.334109	-14981.8	-2.534225E-6	NaN
305	1.000000	0.642709	7.36805e+06	-53889.1	955.819	-29745.4	0.000000	0.000000	6.642969	0.026376	NaN	0.000000	0.001643	0.001688	28.078	0.053978	0.002028	26.6117	30.9906	-165.64	-0.013192	0.641403	-0.325398	-0.326704	0.026376	26.6117	-0.326141	-11452.2	-2.303179E-6	NaN
305	1.000000	0.650741	7.36805e+06	-53889.1	955.819	-29745.4	0.000000	0.000000	6.651004	0.109575	NaN	0.000000	0.001671	0.001692	28.078	0.064750	0.001929	33.5596	5.985155	-163.257	0.026831	0.649419	-0.317366	-0.318687	0.109575	33.5596	-0.319815	-9245.07	-1.185227E-5	NaN
305	1.000000	0.658763	7.36805e+06	-53889.1	955.819	-29745.4	0.000000	0.000000	6.659023	0.031669	NaN	0.000000	0.001630	0.001659	28.0777	0.027764	0.002023	13.7267	34.934	-167.657	-0.002372	0.657397	-0.309344	-0.310710	0.031669	13.7267	-0.311074	-6869.92	-4.609882E-6	NaN
305	1.000000	0.666782	7.36805e+06	-53889.1	955.819	-29745.4	0.000000	0.000000	6.667042	0.031436	NaN	0.000000	0.001645	0.001692	28.078	0.103141	0.001939	53.2015	-10.1046	-168.256	-0.044295	0.665501	-0.301325	-0.302606	0.031436	53.2015	-0.301768	-4999.63	-6.287612E-6	NaN
305	1.000000	0.674751	7.36805e+06	-53889.1	955.818	-29745.4	0.000000	0.000000	6.675008	-0.052900	NaN	0.000000	0.001589	0.001683	28.0778	0.069498	0.002015	34.4856	130.504	-165.924	-0.038630	0.673409	-0.293355	-0.294698	-0.052900	34.4856	-0.292205	-3600.07	1.469407E-5	NaN
305	1.000000	0.682795	7.36805e+06	-53889.1	955.818	-29745.4	0.000000	0.000000	6.683057	0.060035	NaN	0.000000	0.001687	0.001703	28.0779	0.065472	0.002016	32.4772	8.285838	-166.033	0.026586	0.681455	-0.285311	-0.286651	0.060035	32.4772	-0.286698	-2976.95	-2.016663E-5	NaN
305	1.000000	0.690760	7.36805e+06	-53889.1	955.82	-29745.4	0.000000	0.000000	6.691021	0.053149	NaN	0.000000	0.001674	0.001720	28.0777	0.037641	0.001917	19.6395	80.455	-164.321	0.038787	0.689454	-0.277346	-0.278653	0.053149	19.6395	-0.279376	-2309.7	-2.301128E-5	NaN
305	1.000000	0.698774	7.36805e+06	-53889.1	955.819	-29745.4	0.000000	0.000000	6.699036	0.070423	NaN	0.000000	0.001607	0.001662	28.0778	0.081456	0.001948	41.8085	-21.7291	-165.623	0.055435	0.697439	-0.269333	-0.270667	0.070423	41.8085	-0.270596	-1700.6	-4.141065E-5	NaN
305	1.000000	0.706776	7.36805e+06	-53889.1	955.818	-29745.4	0.000000	0.000000	6.707035	-0.000158	NaN	0.000000	0.001588	0.001645	28.078	0.061726	0.001967	31.3738	96.4459	-167.661	-0.000711	0.705466	-0.261331	-0.262640	-0.000158	31.3738	-0.261327	-1228.14	1.285422E-7	NaN
305	1.000000	0.714749	7.36805e+06	-53889.1	955.819	-29745.4	0.000000	0.000000	6.715012	0.088126	NaN	0.000000	0.001600	0.001681	28.078	0.048988	0.001967	24.8989	82.9956	-165.378	0.075896	0.713432	-0.253357	-0.254674	0.088126	24.8989	-0.256012	-1017.86	-8.657964E-5	NaN
305	1.000000	0.722764	7.36805e+06	-53889.1	955.819	-29745.4	0.000000	0.000000	6.723022	-0.033186	NaN	0.000000	0.001620	0.001673	28.0777	0.068515	0.001942	35.285	-108.937	-168.074	0.048236	0.721520	-0.245343	-0.246587	-0.033186	35.285	-0.244637	-678.911	4.888160E-5	NaN
305	1.000000	0.730752	7.36805e+06	-53889.1	955.818	-29745.4	0.000000	0.000000	6.731013	0.045952	NaN	0.000000	0.001632	0.001669	28.0776	0.015489	0.002073	7.473298	-155.39	-163.187	0.018775	0.729495	-0.237354	-0.238612	0.045952	7.473298	-0.241966	-616.919	-7.448660E-5	NaN
305	1.000000	0.738804	7.36805e+06	-53889.1	955.818	-29745.4	0.000000	0.000000	6.739063	0.012335	NaN	0.000000	0.001599	0.001687	28.0779	0.038547	0.001923	20.0414	144.002	-170.885	-0.029110	0.737471	-0.229303	-0.230636	0.012335	20.0414	-0.229764	-397.005	-3.106916E-5	NaN
305	1.000000	0.746763	7.36805e+06	-53889.1	955.818	-29745.4	0.000000	0.000000	6.747025	0.067800	NaN	0.000000	0.001636	0.001678	28.0777	0.058326	0.002002	29.1274	-77.4085	-165.368	0.097597	0.745407	-0.221344	-0.222700	0.067800	29.1274	-0.223089	-311.137	-0.000218	NaN
305	1.000000	0.754783	7.36805e+06	-53889.1	955.818	-29745.4	0.000000	0.000000	6.755039	-0.077743	NaN	0.000000	0.001620	0.001664	28.0778	0.137376	0.002038	67.4148	-62.4505	-165.336	0.019606	0.753437	-0.213323	-0.214669	-0.077743	67.4148	-0.212459	-210.168	0.000370	NaN
305	1.000000	0.762815	7.36805e+06	-53889.1	955.818	-29745.4	0.000000	0.000000	6.763073	-0.014444	NaN	0.000000	0.001618	0.001693	28.0792	0.072871	0.001913	38.1012	99.4168	-165.287	-0.000320	0.761475	-0.205292	-0.206632	-0.014444	38.1012	-0.205007	-159.103	9.078592E-5	NaN
305	1.000000	0.770756	7.36805e+06	-53889.1	955.819	-29745.4	0.000000	0.000000	6.771017	0.072203	NaN	0.000000	0.001598	0.001703	28.0791	0.022031	0.001979	11.1305	-157.892	-166.968	0.062605	0.769512	-0.197351	-0.198595	0.072203	11.1305	-0.202216	-143.238	-0.000504	NaN
305	1.000000	0.778774	7.36805e+06	-53889.1	955.818	-29745.4	0.000000	0.000000	6.779034	0.038790	NaN	0.000000	0.001599	0.001682	28.0792	0.039347	0.002196	17.9196	-127.222	-167.804	0.074885	0.777498	-0.189333	-0.190609	0.038790	17.9196	-0.190956	-93.3241	-0.000416	NaN
305	1.000000	0.786799	7.36805e+06	-53889.1	955.819	-29745.4	0.000000	0.000000	6.787059	0.028343	NaN	0.000000	0.001631	0.001679	28.0789	0.143571	0.001827	78.5757	-90.018	-165.111	0.040394	0.785431	-0.181308	-0.182675	0.028343	78.5757	-0.181579	-64.9058	-0.000437	NaN
305	1.000000	0.794803	7.36805e+06	-53889.1	955.819	-29745.4	0.000000	0.000000	6.795065	0.068639	NaN	0.000000	0.001646	0.001656	28.0789	0.080933	0.002046	39.5505	8.108263	-162.525	0.038696	0.793467	-0.173304	-0.174639	0.068639	39.5505	-0.174605	-49.3397	-0.001391	NaN
305	1.000000	0.802817	7.36805e+06	-53889.1	955.819	-29745.4	0.000000	0.000000	6.803077	0.010684	NaN	0.000000	0.001606	0.001668	28.0788	0.138898	0.002024	68.6235	-168.964	-170.597	0.088207	0.801483	-0.165289	-0.166624	0.010684	68.6235	-0.165406	-34.1531	-0.000313	NaN
305	1.000000	0.810843	7.36805e+06	-53889.1	955.819	-29745.4	0.000000	0.000000	6.811104	0.050184	NaN	0.000000	0.001587	0.001660	28.0789	0.012337	0.001869	6.600249	-98.5716	-165.972	0.113917	0.809488	-0.157264	-0.158618	0.050184	6.600249	-0.162966	-30.939	-0.001622	NaN
305	1.000000	0.818779	7.36805e+06	-53889.1	955.819	-29745.4	0.000000	0.000000	6.819037	-0.014615	NaN	0.000000	0.001617	0.001686	28.0794	0.081752	0.001955	41.8107	-150.595	-164.376	-0.041219	0.817559	-0.149328	-0.150547	-0.014615	41.8107	-0.149066	-17.4159	0.000839	NaN
305	1.000000	0.826828	7.36805e+06	-53889.1	955.819	-29745.4	0.000000	0.000000	6.827089	0.041705	NaN	0.000000	0.001656	0.001658	28.0791	0.025785	0.002040	12.639	119.351	-164.773	0.092598	0.825518	-0.141279	-0.142589	0.041705	12.639	-0.143754	-13.9016	-0.003000	NaN
305	1.000000	0.834826	7.36805e+06	-53889.1	955.818	-29745.4	0.000000	0.000000	6.835085	0.017555	NaN	0.000000	0.001594	0.001681	28.0791	0.035319	0.002067	17.0886	-162.001	-166.443	0.069765	0.833540	-0.133281	-0.134567	0.017555	17.0886	-0.134051	-9.123207	-0.001924	NaN
305	1.000000	0.842822	7.36805e+06	-53889.1	955.819	-29745.4	0.000000	0.000000	6.843082	0.036083	NaN	0.000000	0.001611	0.001637	28.079	0.078136	0.001913	40.8458	72.13	-167.095	0.065444	0.841522	-0.125285	-0.126585	0.036083	40.8458	-0.125947	-6.348936	-0.005683	NaN
305	1.000000	0.850827	7.36805e+06	-53889.1	955.818	-29745.4	0.000000	0.000000	6.851084	-0.041602	NaN	0.000000	0.001649	0.001662	28.0788	0.035719	0.002036	17.5409	168.337	-163.005	-0.000828	0.849532	-0.117280	-0.118574	-0.041602	17.5409	-0.115501	-3.912262	0.010634	NaN
305	1.000000	0.858821	7.36805e+06	-53889.1	955.819	-29745.4	0.000000	0.000000	6.859080	0.001173	NaN	0.000000	0.001611	0.001667	28.0793	0.058507	0.001899	30.8115	73.9509	-168.704	0.083584	0.857500	-0.109286	-0.110607	0.001173	30.8115	-0.109315	-2.906669	-0.000403	NaN
305	1.000000	0.866839	7.36805e+06	-53889.1	955.82	-29745.4	0.000000	0.000000	6.867099	0.033453	NaN	0.000000	0.001666	0.001662	28.079	0.005374	0.001961	2.740354	-19.3545	-162.834	0.046883	0.865528	-0.101268	-0.102579	0.033453	2.740354	-0.110423	-3.067533	-0.010905	NaN
305	1.000000	0.874844	7.36805e+06	-53889.1	955.819	-29745.4	0.000000	0.000000	6.875103	-0.007823	NaN	0.000000	0.001639	0.001673	28.0792	0.048999	0.001985	24.6847	109.028	-165.538	-0.009291	0.873515	-0.093263	-0.094592	-0.007823	24.6847	-0.093025	-1.271031	0.006155	NaN
305	1.000000	0.882823	7.36805e+06	-53889.1	955.819	-29745.4	0.000000	0.000000	6.883085	0.092090	NaN	0.000000	0.001628	0.001646	28.0789	0.070347	0.002037	34.5355	-161.609	-167.726	0.086903	0.881567	-0.085284	-0.086539	0.092090	34.5355	-0.087284	-0.932301	-0.098777	NaN
305	1.000000	0.890849	7.36805e+06	-53889.1	955.818	-29745.4	0.000000	0.000000	6.891109	0.024513	NaN	0.000000	0.001611	0.001692	28.0789	0.021291	0.002021	10.5353	108.468	-164.038	0.018608	0.889560	-0.077257	-0.078546	0.024513	10.5353	-0.079002	-0.584324	-0.041951	NaN
305	1.000000	0.898842	7.36805e+06	-53889.1	955.821	-29745.4	0.000000	0.000000	6.899102	0.023228	NaN	0.000000	0.001619	0.001709	28.0779	0.046681	0.001941	24.0534	77.7277	-167.056	-0.010608	0.897498	-0.069265	-0.070609	0.023228	24.0534	-0.069989	-0.340879	-0.068141	NaN
305	1.000000	0.906857	7.36805e+06	-53889.1	955.819	-29745.4	0.000000	0.000000	6.907115	-0.012654	NaN	0.000000	0.001640	0.001667	28.0778	0.080940	0.001944	41.6435	6.156547	-166.876	-0.007893	0.905605	-0.061250	-0.062501	-0.012654	41.6435	-0.061022	-0.192623	0.065692	NaN
305	1.000000	0.914850	7.36805e+06	-53889.1	955.818	-29745.4	0.000000	0.000000	6.915110	0.021140	NaN	0.000000	0.001604	0.001680	28.0779	0.028230	0.001964	14.3714	-163.108	-167.31	0.137181	0.913569	-0.053256	-0.054538	0.021140	14.3714	-0.054359	-0.123275	-0.171484	NaN
305	1.000000	0.922853	7.36805e+06	-53889.1	955.818	-29745.4	0.000000	0.000000	6.923111	-0.013498	NaN	0.000000	0.001603	0.001669	28.0776	0.044065	0.002175	20.2616	40.8184	-166.8	0.017764	0.921601	-0.045254	-0.046505	-0.013498	20.2616	-0.044754	-0.063165	0.213700	NaN
305	1.000000	0.930822	7.36805e+06	-53889.1	955.819	-29745.4	0.000000	0.000000	6.931085	0.080138	NaN	0.000000	0.001605	0.001687	28.0778	0.055745	0.002054	27.1435	161.913	-165.871	0.087661	0.929581	-0.037284	-0.038526	0.080138	27.1435	-0.039498	-0.043665	-1.835308	NaN
305	1.000000	0.938901	7.36805e+06	-53889.1	955.818	-29745.4	0.000000	0.000000	6.939162	0.042892	NaN	0.000000	0.001615	0.001675	28.0777	0.065230	0.002085	31.2816	112.524	-165.391	0.107937	0.937514	-0.029206	-0.030593	0.042892	31.2816	-0.030234	-0.023361	-1.836030	NaN
305	1.000000	0.946849	7.36805e+06	-53889.1	955.819	-29745.4	0.000000	0.000000	6.947109	0.017499	NaN	0.000000	0.001593	0.001668	28.0776	0.056040	0.002006	27.9416	-117.142	-166.682	0.052354	0.945541	-0.021257	-0.022566	0.017499	27.9416	-0.021727	-0.013897	-1.259238	NaN
305	1.000000	0.954844	7.36805e+06	-53889.1	955.818	-29745.4	0.000000	0.000000	6.955102	-0.020473	NaN	0.000000	0.001601	0.001681	28.0779	0.064338	0.001990	32.3283	-156.692	-167.989	-0.104871	0.953576	-0.013262	-0.014530	-0.020473	32.3283	-0.012787	-0.007980	2.565593	NaN
305	1.000000	0.962876	7.36805e+06	-53889.1	955.818	-29745.4	0.000000	0.000000	6.963139	0.087221	NaN	0.000000	0.001601	0.001651	28.0779	0.050874	0.001897	26.8125	157.534	-167.234	0.039457	0.961581	-0.005230	-0.006525	0.087221	26.8125	-0.007670	-0.005038	-17.3135	NaN
305	1.000000	0.970847	7.36805e+06	-53889.1	955.818	-29745.4	0.000000	0.000000	6.971147	0.986361	NaN	0.000000	0.001608	0.001696	28.078	1.377471	0.001928	714.285	8.362375	-166.116	0.255622	0.969535	0.002741	0.001428	0.986361	714.285	0.001705	0.001318	748.619	17978.7
305	1.000000	0.978775	7.36805e+06	-53889.1	955.819	-29745.4	0.000000	0.000000	6.979328	7.149261	NaN	0.000000	0.001623	0.001687	28.0777	7.385121	0.001722	4288.78	13.7718	-173.632	5.645902	0.977535	0.010669	0.009428	7.149261	4288.78	0.009418	0.008542	836.936	42395.8
305	2.000000	0.981536	7.36805e+06	-53889.1	955.818	-29745.4	0.000000	0.000000	6.982220	10.35	NaN	0.000000	0.001616	0.001716	28.0779	9.958967	0.001640	6072.46	11.1685	-177.707	10.3037	0.981213	0.013429	0.013107	10.35	6072.46	0.012151	0.011671	886.795	51354.6
305	2.000000	0.983491	7.36805e+06	-53889.1	955.818	-29745.4	0.000000	0.000000	6.984274	12.7418	NaN	0.000000	0.001623	0.001662	28.078	11.875	0.001652	7188.77	6.099026	-173.888	12.3295	0.983162	0.015385	0.015055	12.7418	7188.77	0.014055	0.014046	907.121	55417.2
305	2.000000	0.985450	7.36805e+06	-53889.1	955.819	-29745.4	0.000000	0.000000	6.986336	15.2428	NaN	0.000000	0.001614	0.001676	28.078	14.8194	0.001743	8500.56	7.170815	-176.995	14.7356	0.985166	0.017343	0.017059	15.2428	8500.56	0.015998	0.016640	916.043	60207
305	2.000000	0.987456	7.36805e+06	-53889.1	955.818	-29745.4	0.000000	0.000000	6.988551	20.3348	NaN	0.000000	0.001610	0.001662	28.0779	15.9974	0.001804	8869.88	8.724720	-177.681	19.7439	0.987148	0.019349	0.019041	20.3348	8869.88	0.017630	0.018954	1072.84	58862.5
305	2.000000	0.989478	7.36805e+06	-53889.1	955.817	-29745.4	0.000000	0.000000	6.990644	22.0662	NaN	0.000000	0.001624	0.001693	28.0778	18.1163	0.001748	10365.6	4.580659	-175.65	21.7148	0.989146	0.021371	0.021040	22.0662	10365.6	0.019775	0.022189	994.452	63576.5
305	2.000000	0.991463	7.36805e+06	-53889.1	955.818	-29745.4	0.000000	0.000000	6.992789	25.9303	NaN	0.000000	0.001618	0.001662	28.0783	19.4337	0.001867	10406.3	1.980782	-172.067	24.9366	0.991125	0.023357	0.023018	25.9303	10406.3	0.021488	0.024934	1039.94	60210.4
305	2.000000	0.993473	7.36805e+06	-53889.1	955.817	-29745.4	0.000000	0.000000	6.994874	27.7631	NaN	0.000000	0.001649	0.001668	28.0791	21.2125	0.001822	11643.2	8.058244	-179.236	29.5067	0.993199	0.025367	0.025092	27.7631	11643.2	0.023578	0.028480	974.829	63034
305	2.000000	0.995403	7.36805e+06	-53889.1	955.818	-29745.4	0.000000	0.000000	6.997013	32.859	NaN	0.000000	0.001618	0.001669	28.0791	22.803	0.001855	12292	3.321433	-175.474	32.0582	0.995133	0.027296	0.027026	32.859	12292	0.025291	0.031547	1041.58	63228.6
305	2.000000	0.997434	7.36805e+06	-53889.1	955.817	-29745.4	0.000000	0.000000	6.999220	37.1395	NaN	0.000000	0.001646	0.001695	28.0792	24.2752	0.001821	13332.7	2.022410	-175.663	37.7126	0.997162	0.029327	0.029055	37.1395	13332.7	0.027238	0.035213	1054.71	64914.1
305	2.000000	0.999453	7.36805e+06	-53889.1	955.818	-29745.4	0.000000	0.000000	7.001453	42.3393	NaN	0.000000	0.001612	0.001699	28.0791	26.2226	0.001886	13906.8	4.845301	-178.182	42.7381	0.999145	0.031346	0.031038	42.3393	13906.8	0.029063	0.038824	1090.54	64483.9
305	2.000000	1.001393	7.36805e+06	-53889.1	955.818	-29745.4	0.000000	0.000000	7.003546	46.0479	NaN	0.000000	0.001633	0.001657	28.0798	28.1518	0.001800	15638.4	8.329112	177.415	44.2282	1.001097	0.033286	0.032990	46.0479	15638.4	0.031078	0.043008	1070.69	68895.7
305	2.000000	1.003418	7.36805e+06	-53889.1	955.818	-29745.4	0.000000	0.000000	7.005861	53.1018	NaN	0.000000	0.001629	0.001695	28.0791	28.933	0.001824	15858.2	2.438415	-176.081	53.4049	1.003063	0.035311	0.034956	53.1018	15858.2	0.032800	0.046747	1135.94	67011.4
305	2.000000	1.005399	7.36805e+06	-53889.1	955.817	-29745.4	0.000000	0.000000	7.008055	58.2871	NaN	0.000000	0.001652	0.001716	28.0791	31.9085	0.001938	16468.7	8.890284	176.811	57.08	1.005060	0.037292	0.036953	58.2871	16468.7	0.034638	0.050906	1144.99	66687.9
305	2.000000	1.007454	7.36805e+06	-53889.1	955.817	-29745.4	0.000000	0.000000	7.010332	63.6751	NaN	0.000000	0.001623	0.001693	28.0792	32.6195	0.001927	16924.7	4.789936	-178.356	66.6332	1.007047	0.039347	0.038941	63.6751	16924.7	0.036526	0.055358	1150.25	65721.2
305	2.000000	1.009334	7.36805e+06	-53889.1	955.818	-29745.4	0.000000	0.000000	7.012536	71.552	NaN	0.000000	0.001628	0.001709	28.079	34.7673	0.001823	19070.2	3.303785	-179.22	67.5748	1.009082	0.041227	0.040976	71.552	19070.2	0.038413	0.059992	1192.69	71134.8
305	2.000000	1.011430	7.36805e+06	-53889.1	955.819	-29745.4	0.000000	0.000000	7.014881	77.6028	NaN	0.000000	0.001614	0.001710	28.0797	36.5076	0.001764	20701.4	7.252440	176.887	77.8172	1.011035	0.043323	0.042929	77.6028	20701.4	0.040512	0.065357	1187.36	73981.8
305	2.000000	1.013358	7.36805e+06	-53889.1	955.819	-29745.4	0.000000	0.000000	7.017172	86.4212	NaN	0.000000	0.001616	0.001703	28.0792	38.529	0.001825	21109.3	6.016551	176.123	84.3526	1.013139	0.045251	0.045032	86.4212	21109.3	0.042181	0.069786	1238.37	73006.6
305	2.000000	1.015353	7.36805e+06	-53889.1	955.817	-29745.4	0.000000	0.000000	7.019532	95.287	NaN	0.000000	0.001645	0.001678	28.0792	40.7425	0.001864	21857.5	3.638631	178.946	93.6716	1.015042	0.047247	0.046935	95.287	21857.5	0.043977	0.074710	1275.43	73061
305	2.000000	1.017430	7.36805e+06	-53889.1	955.816	-29745.4	0.000000	0.000000	7.021971	104.123	NaN	0.000000	0.001636	0.001709	28.0793	41.6588	0.001849	22529.3	7.080941	175.701	105.814	1.017072	0.049323	0.048965	104.123	22529.3	0.045857	0.080038	1300.91	72756.5
305	2.000000	1.019426	7.36805e+06	-53889.1	955.819	-29745.4	0.000000	0.000000	7.024206	109.919	NaN	0.000000	0.001685	0.001703	28.0791	43.9845	0.001672	26305.1	5.115154	175.872	111.944	1.019115	0.051319	0.051008	109.919	26305.1	0.048185	0.086886	1265.09	81533.8
305	2.000000	1.021397	7.36805e+06	-53889.1	955.818	-29745.4	0.000000	0.000000	7.026587	119.895	NaN	0.000000	0.001668	0.001708	28.0798	45.8013	0.001818	25196.6	2.325168	179.478	117.552	1.021038	0.053290	0.052931	119.895	25196.6	0.049721	0.091554	1309.56	76080.9
305	2.000000	1.023347	7.36805e+06	-53889.1	955.818	-29745.4	0.000000	0.000000	7.029010	131.383	NaN	0.000000	0.001620	0.001755	28.0793	47.6467	0.001770	26917.1	4.365865	176.528	127.873	1.022936	0.055240	0.054830	131.383	26917.1	0.051579	0.097357	1349.5	78816.5
305	2.000000	1.025382	7.36805e+06	-53889.1	955.817	-29745.4	0.000000	0.000000	7.031150	133.927	NaN	0.000000	0.001647	0.001719	28.0794	50.3362	0.001766	28505.3	3.206168	176.911	133.487	1.025074	0.057275	0.056968	133.927	28505.3	0.053752	0.104361	1283.3	80617.5
305	2.000000	1.027303	7.36805e+06	-53889.1	955.819	-29745.4	0.000000	0.000000	7.033469	143.618	NaN	0.000000	0.001624	0.001715	28.0784	51.4567	0.001823	28224	3.138468	176.841	138.897	1.026978	0.059197	0.058871	143.618	28224	0.055380	0.109765	1308.41	77832.1
305	2.000000	1.029323	7.36805e+06	-53889.1	955.819	-29745.4	0.000000	0.000000	7.035934	154.421	NaN	0.000000	0.001606	0.001711	28.0781	53.1468	0.001669	31847.4	3.194808	175.859	152.039	1.028959	0.061216	0.060852	154.421	31847.4	0.057580	0.117273	1316.76	84966.4
305	2.000000	1.031387	7.36805e+06	-53889.1	955.819	-29745.4	0.000000	0.000000	7.038413	164.514	NaN	0.000000	0.001609	0.001684	28.078	56.2212	0.001804	31156.9	5.875119	174.775	163.371	1.030990	0.063280	0.062883	164.514	31156.9	0.059320	0.123382	1333.38	81040.6
305	2.000000	1.033327	7.36805e+06	-53889.1	955.818	-29745.4	0.000000	0.000000	7.040598	170.463	NaN	0.000000	0.001610	0.001724	28.078	57.2418	0.001837	31161.7	1.319400	178.11	167.587	1.033040	0.065220	0.064934	170.463	31161.7	0.061118	0.129847	1312.8	79009.4
305	2.000000	1.035441	7.36805e+06	-53889.1	955.82	-29745.4	0.000000	0.000000	7.043123	180.454	NaN	0.000000	0.001610	0.001716	28.0782	60.0841	0.001830	32829.5	5.325795	174.355	182.449	1.035006	0.067335	0.066900	180.454	32829.5	0.063212	0.137578	1311.65	80865.4
305	2.000000	1.037372	7.36805e+06	-53889.1	955.818	-29745.4	0.000000	0.000000	7.045488	191.01	NaN	0.000000	0.001650	0.001702	28.0781	61.2467	0.002013	30421.1	4.180881	175.834	190.595	1.037090	0.069266	0.068983	191.01	30421.1	0.064557	0.142652	1338.99	73588.2
305	2.000000	1.039334	7.36805e+06	-53889.1	955.819	-29745.4	0.000000	0.000000	7.047832	200.3	NaN	0.000000	0.001615	0.001704	28.0777	62.3019	0.001821	34221	3.619447	176.057	199.038	1.039011	0.071227	0.070904	200.3	34221	0.066837	0.151461	1322.45	80336.9
305	2.000000	1.041354	7.36805e+06	-53889.1	955.818	-29745.4	0.000000	0.000000	7.050414	213.965	NaN	0.000000	0.001675	0.001728	28.0781	65.2871	0.001846	35372.4	6.720589	172.57	212.857	1.041020	0.073247	0.072914	213.965	35372.4	0.068711	0.158882	1346.69	81077.6
305	2.000000	1.043356	7.36805e+06	-53889.1	955.818	-29745.4	0.000000	0.000000	7.052890	225.506	NaN	0.000000	0.001636	0.001703	28.0779	66.349	0.001864	35601.9	5.612955	174.107	224.386	1.042972	0.075249	0.074865	225.506	35601.9	0.070499	0.166123	1357.47	79805.4
305	2.000000	1.045389	7.36805e+06	-53889.1	955.818	-29745.4	0.000000	0.000000	7.055299	234.645	NaN	0.000000	0.001630	0.001705	28.0781	69.37	0.001788	38805.2	5.916613	171.838	233.613	1.045077	0.077282	0.076970	234.645	38805.2	0.072747	0.175442	1337.45	84643.9
305	2.000000	1.047301	7.36805e+06	-53889.1	955.819	-29745.4	0.000000	0.000000	7.057776	248.377	NaN	0.000000	0.001657	0.001714	28.0782	70.2669	0.001902	36944.8	5.335175	173.56	245.714	1.047077	0.079195	0.078970	248.377	36944.8	0.074152	0.181388	1369.31	79254.2
305	2.000000	1.049261	7.36805e+06	-53889.1	955.818	-29745.4	0.000000	0.000000	7.060162	258.731	NaN	0.000000	0.001682	0.001717	28.0779	72.9281	0.001845	39530.7	5.108418	172.931	253.771	1.049024	0.081154	0.080917	258.731	39530.7	0.076245	0.190417	1358.76	82766.6
305	2.000000	1.051294	7.36805e+06	-53889.1	955.819	-29745.4	0.000000	0.000000	7.062580	268.094	NaN	0.000000	0.001652	0.001742	28.0781	75.702	0.001881	40255.6	7.047909	170.334	264.696	1.051066	0.083187	0.082959	268.094	40255.6	0.078192	0.199000	1347.21	82446.6
305	2.000000	1.053222	7.36805e+06	-53889.1	955.819	-29745.4	0.000000	0.000000	7.065228	285.587	NaN	0.000000	0.001637	0.001715	28.0778	76.2491	0.001841	41418.6	6.832122	170.758	279.682	1.053042	0.085116	0.084935	285.587	41418.6	0.079944	0.206876	1380.48	83198.1
305	2.000000	1.055338	7.36805e+06	-53889.1	955.818	-29745.4	0.000000	0.000000	7.067769	295.941	NaN	0.000000	0.001654	0.001691	28.078	78.0436	0.001808	43165.4	2.293841	174.289	294.376	1.055160	0.087231	0.087054	295.941	43165.4	0.082089	0.216711	1365.6	84716.6
305	2.000000	1.057361	7.36805e+06	-53889.1	955.818	-29745.4	0.000000	0.000000	7.070486	312.799	NaN	0.000000	0.001663	0.001676	28.078	79.9153	0.001927	41477.3	7.952062	169.031	313.113	1.057029	0.089254	0.088922	312.799	41477.3	0.083598	0.223759	1397.93	80111.3
305	2.000000	1.059300	7.36805e+06	-53889.1	955.817	-29745.4	0.000000	0.000000	7.072877	323.784	NaN	0.000000	0.001637	0.001721	28.0779	81.3641	0.001877	43355.5	2.097344	175.142	320.381	1.058971	0.091193	0.090864	323.784	43355.5	0.085592	0.233233	1388.24	82020.5
305	2.000000	1.061288	7.36805e+06	-53889.1	955.819	-29745.4	0.000000	0.000000	7.075607	341.817	NaN	0.000000	0.001627	0.001701	28.0791	82.634	0.001760	46960.9	5.178547	171.265	336.527	1.060921	0.093181	0.092814	341.817	46960.9	0.087722	0.243558	1403.43	86937.7
305	2.000000	1.063254	7.36805e+06	-53889.1	955.818	-29745.4	0.000000	0.000000	7.078127	355.283	NaN	0.000000	0.001662	0.001712	28.0789	84.2882	0.001786	47189	4.655892	171.959	351.626	1.063013	0.095148	0.094906	355.283	47189	0.089501	0.252339	1407.96	85826.5
305	2.000000	1.065259	7.36805e+06	-53889.1	955.818	-29745.4	0.000000	0.000000	7.080759	370.537	NaN	0.000000	0.001639	0.001737	28.079	85.3855	0.001694	50402.8	3.207302	173.411	366.629	1.064930	0.097152	0.096823	370.537	50402.8	0.091639	0.263085	1408.43	89780.1
305	2.000000	1.067248	7.36805e+06	-53889.1	955.818	-29745.4	0.000000	0.000000	7.083234	382.372	NaN	0.000000	0.001634	0.001697	28.0791	86.3998	0.001762	49021.3	3.331747	173.349	377.983	1.066961	0.099141	0.098854	382.372	49021.3	0.093291	0.271533	1408.2	85950
305	2.000000	1.069230	7.36805e+06	-53889.1	955.819	-29745.4	0.000000	0.000000	7.085746	395.242	NaN	0.000000	0.001628	0.001695	28.0791	88.9735	0.001828	48669.9	2.269552	174.416	389.765	1.068909	0.101123	0.100802	395.242	48669.9	0.095033	0.280574	1408.69	83947.8
305	2.000000	1.071252	7.36805e+06	-53889.1	955.819	-29745.4	0.000000	0.000000	7.088609	415.669	NaN	0.000000	0.001653	0.001658	28.0791	91.7546	0.001833	50044.4	4.861249	171.407	411.907	1.070986	0.103146	0.102879	415.669	50044.4	0.096916	0.290508	1430.83	84830
305	2.000000	1.073287	7.36806e+06	-53889.1	955.818	-29745.4	0.000000	0.000000	7.090997	424.25	NaN	0.000000	0.001651	0.001705	28.0792	92.0062	0.001799	51140.4	4.113983	172.235	421.324	1.072955	0.105181	0.104848	424.25	51140.4	0.098959	0.301463	1407.3	85098.1
305	2.000000	1.075326	7.36806e+06	-53889.1	955.82	-29745.4	0.000000	0.000000	7.093527	436.211	NaN	0.000000	0.001659	0.001712	28.079	95.5086	0.001773	53878.4	4.517592	171.085	434.04	1.075020	0.107219	0.106913	436.211	53878.4	0.101147	0.313407	1391.83	87929.3
305	2.000000	1.077289	7.36806e+06	-53889.1	955.819	-29745.4	0.000000	0.000000	7.096158	452.425	NaN	0.000000	0.001652	0.001712	28.0788	95.8038	0.001696	56485	3.592202	172.246	451.438	1.077011	0.109183	0.108904	452.425	56485	0.103176	0.324677	1393.46	90569.2
305	2.000000	1.078397	7.36806e+06	-53889.1	955.818	-29745.4	0.000000	0.000000	7.097431	456.453	NaN	0.000000	0.001666	0.001740	28.0788	97.6689	0.001754	55686.3	3.522296	172.224	460.162	1.078021	0.110290	0.109914	456.453	55686.3	0.104142	0.330113	1382.72	88550.3