File: remote_trans/data/nanoindenter/0828-1/data/Data_2025-08-06,11h17m57s/2025-07-22_16-23-58_1_545.txt
2025-07-22, 16:23:58, 1
Index	Phase	Displacement	Time	Pos X	Pos Y	Pos Z	Rot A	Rot B	Piezo Z	Force A	Force B	Gripper	Voltage A	Voltage B	Temperature	Amplitude force	Amplitude pos	Stiffness	Phase shift	Phase excitation	Force A raw	Displacement raw	HMax	HMax raw	Real Force	Real Stiffness	Contact Depth	Area	Hardness	Reduced Mod.
[#]	[#]	[um]	[s]	[um]	[um]	[um]	[m°]	[m°]	[um]	[uN]	[uN]	[V]	[V]	[V]	[°C]	[uN]	[um]	[N/m]	[°]	[°]	[uN]	[um]	[um]	[um]	[uN]	[N/m]	[um]	[um^2]	[MPa]	[MPa]
545	1.000000	0.002539	7.37038e+06	-49839.1	1005.82	-29757.6	0.000000	0.000000	6.002788	0.039894	NaN	0.000000	0.001646	0.001666	28.0824	0.045951	0.001021	44.9957	-105.26	-171.154	0.064606	0.001263	-1.104422	-1.105697	0.039894	44.9957	-1.105087	-5.866105E+14	-6.800789E-17	NaN
545	1.000000	0.012605	7.37038e+06	-49839.1	1005.82	-29757.6	0.000000	0.000000	6.012853	0.001902	NaN	0.000000	0.001605	0.001689	28.0822	0.066416	0.001216	54.6211	-1.674588	18.1681	0.020367	0.011158	-1.094356	-1.095802	0.001902	54.6211	-1.094382	-4.213535E+14	-4.514869E-18	NaN
545	1.000000	0.022517	7.37038e+06	-49839.1	1005.82	-29757.6	0.000000	0.000000	6.022765	-0.001693	NaN	0.000000	0.001604	0.001670	28.0822	0.049755	0.001741	28.5757	79.8347	-161.919	-0.048393	0.021195	-1.084443	-1.085766	-0.001693	28.5757	-1.084399	-3.094566E+14	5.472331E-18	NaN
545	1.000000	0.032516	7.37038e+06	-49839.1	1005.82	-29757.6	0.000000	0.000000	6.032764	-0.009365	NaN	0.000000	0.001620	0.001712	28.0821	0.044807	0.001940	23.0988	-162.036	17.8185	-0.025511	0.031180	-1.074444	-1.075781	-0.009365	23.0988	-1.074140	-2.253262E+14	4.156183E-17	NaN
545	1.000000	0.042479	7.37038e+06	-49839.1	1005.82	-29757.6	0.000000	0.000000	6.042726	-0.018023	NaN	0.000000	0.001622	0.001723	28.0827	0.012086	0.002107	5.735664	75.169	-165.116	0.019495	0.041155	-1.064481	-1.065806	-0.018023	5.735664	-1.062125	-1.553716E+14	1.159999E-16	NaN
545	1.000000	0.052509	7.37038e+06	-49839.1	1005.82	-29757.6	0.000000	0.000000	6.052757	0.006410	NaN	0.000000	0.001636	0.001724	28.0823	0.047841	0.002008	23.8287	4.236454	14.8565	-0.011943	0.051137	-1.054451	-1.055824	0.006410	23.8287	-1.054653	-1.232997E+14	-5.198975E-17	NaN
545	1.000000	0.062488	7.37038e+06	-49839.1	1005.82	-29757.6	0.000000	0.000000	6.062736	0.007012	NaN	0.000000	0.001620	0.001738	28.0825	0.103738	0.001908	54.3716	-48.9407	-163.52	0.024693	0.061187	-1.044473	-1.045774	0.007012	54.3716	-1.044570	-9.024185E+13	-7.770255E-17	NaN
545	1.000000	0.072527	7.37038e+06	-49839.1	1005.82	-29757.6	0.000000	0.000000	6.072776	0.028647	NaN	0.000000	0.001600	0.001726	28.0822	0.077006	0.002074	37.1264	-64.6614	15.7501	0.012906	0.071130	-1.034434	-1.035831	0.028647	37.1264	-1.035012	-6.712675E+13	-4.267647E-16	NaN
545	1.000000	0.082523	7.37038e+06	-49839.1	1005.82	-29757.6	0.000000	0.000000	6.082773	0.065859	NaN	0.000000	0.001630	0.001722	28.0828	0.056943	0.002117	26.899	-126.087	-165.108	0.033739	0.081220	-1.024438	-1.025741	0.065859	26.899	-1.026274	-5.121089E+13	-1.286039E-15	NaN
545	1.000000	0.092506	7.37038e+06	-49839.1	1005.82	-29757.6	0.000000	0.000000	6.092750	-0.101651	NaN	0.000000	0.001640	0.001761	28.0825	0.083725	0.001909	43.8675	-120.647	14.9183	-0.074973	0.091164	-1.014454	-1.015796	-0.101651	43.8675	-1.012716	-3.364663E+13	3.021147E-15	NaN
545	1.000000	0.102508	7.37038e+06	-49839.1	1005.82	-29757.6	0.000000	0.000000	6.102757	0.044305	NaN	0.000000	0.001627	0.001727	28.0824	0.097047	0.001966	49.3548	-172.898	-162.989	-0.017069	0.101239	-1.004453	-1.005722	0.044305	49.3548	-1.005126	-2.659374E+13	-1.666010E-15	NaN
545	1.000000	0.112519	7.37038e+06	-49839.1	1005.82	-29757.6	0.000000	0.000000	6.112769	0.061810	NaN	0.000000	0.001619	0.001726	28.0823	0.027228	0.002148	12.6762	-88.4171	12.8672	0.038112	0.111170	-0.994442	-0.995790	0.061810	12.6762	-0.998099	-2.138832E+13	-2.889909E-15	NaN
545	1.000000	0.122502	7.37038e+06	-49839.1	1005.82	-29757.6	0.000000	0.000000	6.122749	-0.000224	NaN	0.000000	0.001585	0.001759	28.0833	0.056706	0.002022	28.0456	-118.02	-163.312	0.006839	0.121196	-0.984459	-0.985765	-0.000224	28.0456	-0.984453	-1.400875E+13	1.602150E-17	NaN
545	1.000000	0.132551	7.37038e+06	-49839.1	1005.82	-29757.6	0.000000	0.000000	6.132799	0.005181	NaN	0.000000	0.001689	0.001744	28.0837	0.104603	0.002010	52.0409	-122.687	13.2102	-0.006532	0.131227	-0.974410	-0.975733	0.005181	52.0409	-0.974484	-1.028234E+13	-5.038817E-16	NaN
545	1.000000	0.142536	7.37038e+06	-49839.1	1005.82	-29757.6	0.000000	0.000000	6.142782	-0.045907	NaN	0.000000	0.001739	0.001723	28.0838	0.110200	0.001925	57.2589	13.3344	-162.13	-0.088246	0.141219	-0.964424	-0.965741	-0.045907	57.2589	-0.963823	-7.385957E+12	6.215420E-15	NaN
545	1.000000	0.152576	7.37038e+06	-49839.1	1005.82	-29757.6	0.000000	0.000000	6.152825	0.035497	NaN	0.000000	0.001712	0.001759	28.0839	0.016141	0.002008	8.036765	-141.395	16.7624	0.064722	0.151163	-0.954385	-0.955797	0.035497	8.036765	-0.957697	-6.106951E+12	-5.812569E-15	NaN
545	1.000000	0.162533	7.37038e+06	-49839.1	1005.82	-29757.6	0.000000	0.000000	6.162782	0.012015	NaN	0.000000	0.001696	0.001760	28.0837	0.042041	0.001996	21.0676	-136.479	-164.16	0.044635	0.161261	-0.944427	-0.945700	0.012015	21.0676	-0.944855	-4.098581E+12	-2.931592E-15	NaN
545	1.000000	0.172577	7.37038e+06	-49839.1	1005.82	-29757.6	0.000000	0.000000	6.172825	0.006163	NaN	0.000000	0.001639	0.001742	28.0835	0.060340	0.001865	32.3604	-118.99	10.4993	0.056568	0.171181	-0.934383	-0.935779	0.006163	32.3604	-0.934526	-2.973573E+12	-2.072658E-15	NaN
545	1.000000	0.182547	7.37038e+06	-49839.1	1005.82	-29757.6	0.000000	0.000000	6.182795	0.010142	NaN	0.000000	0.001605	0.001735	28.0834	0.043060	0.002049	21.0124	98.5496	-164.014	-0.001386	0.181278	-0.924414	-0.925683	0.010142	21.0124	-0.924776	-2.196267E+12	-4.617818E-15	NaN
545	1.000000	0.192549	7.37038e+06	-49839.1	1005.82	-29757.6	0.000000	0.000000	6.192797	0.002417	NaN	0.000000	0.001634	0.001733	28.0838	0.073391	0.002008	36.5471	74.8047	13.978	0.006580	0.191219	-0.914412	-0.915742	0.002417	36.5471	-0.914461	-1.593736E+12	-1.516581E-15	NaN
545	1.000000	0.202594	7.37038e+06	-49839.1	1005.82	-29757.6	0.000000	0.000000	6.202842	0.013074	NaN	0.000000	0.001621	0.001737	28.0836	0.093594	0.001949	48.0218	161.797	-161.752	0.054707	0.201256	-0.904367	-0.905705	0.013074	48.0218	-0.904571	-1.171724E+12	-1.115773E-14	NaN
545	1.000000	0.212597	7.37038e+06	-49839.1	1005.82	-29757.6	0.000000	0.000000	6.212846	0.021717	NaN	0.000000	0.001567	0.001722	28.0838	0.031647	0.002130	14.8567	-99.9207	13.811	0.074220	0.211214	-0.894364	-0.895747	0.021717	14.8567	-0.895460	-8.825027E+11	-2.460825E-14	NaN
545	1.000000	0.222574	7.37038e+06	-49839.1	1005.82	-29757.6	0.000000	0.000000	6.222822	0.008122	NaN	0.000000	0.001619	0.001790	28.0839	0.087537	0.001894	46.2128	-24.0782	-163.545	0.013174	0.221297	-0.884387	-0.885664	0.008122	46.2128	-0.884519	-6.277865E+11	-1.293768E-14	NaN
545	1.000000	0.232560	7.37038e+06	-49839.1	1005.82	-29757.6	0.000000	0.000000	6.232808	0.006710	NaN	0.000000	0.001620	0.001724	28.0839	0.043463	0.001926	22.5641	-117.181	13.0158	0.013826	0.231178	-0.874401	-0.875783	0.006710	22.5641	-0.874624	-4.613123E+11	-1.454485E-14	NaN
545	1.000000	0.242566	7.37038e+06	-49839.1	1005.82	-29757.6	0.000000	0.000000	6.242811	-0.047007	NaN	0.000000	0.001591	0.001750	28.0837	0.098516	0.002092	47.0944	-20.5962	-161.818	-0.058110	0.241226	-0.864395	-0.865735	-0.047007	47.0944	-0.863647	-3.276978E+11	1.434451E-13	NaN
545	1.000000	0.252562	7.37038e+06	-49839.1	1005.82	-29757.6	0.000000	0.000000	6.252809	-0.028580	NaN	0.000000	0.001661	0.001731	28.0839	0.035727	0.002024	17.6546	59.4616	13.6485	0.038456	0.251234	-0.854399	-0.855727	-0.028580	17.6546	-0.853184	-2.365137E+11	1.208369E-13	NaN
545	1.000000	0.262632	7.37038e+06	-49839.1	1005.82	-29757.6	0.000000	0.000000	6.262880	0.022705	NaN	0.000000	0.001668	0.001712	28.0828	0.123511	0.001984	62.2661	-113.068	-164.105	0.080950	0.261326	-0.844329	-0.845635	0.022705	62.2661	-0.844602	-1.809832E+11	-1.254516E-13	NaN
545	1.000000	0.272621	7.37038e+06	-49839.1	1005.82	-29757.6	0.000000	0.000000	6.272869	0.015756	NaN	0.000000	0.001587	0.001747	28.0826	0.029938	0.001997	14.9951	-59.6478	14.0859	-0.029012	0.271225	-0.834340	-0.835736	0.015756	14.9951	-0.835128	-1.346739E+11	-1.169932E-13	NaN
545	1.000000	0.282580	7.37038e+06	-49839.1	1005.82	-29757.6	0.000000	0.000000	6.282831	0.066650	NaN	0.000000	0.001645	0.001719	28.0825	0.079025	0.002006	39.3953	-108.042	-160.772	0.039535	0.281281	-0.824380	-0.825679	0.066650	39.3953	-0.825649	-1.001861E+11	-6.652622E-13	NaN
545	1.000000	0.292616	7.37038e+06	-49839.1	1005.82	-29757.6	0.000000	0.000000	6.292865	0.022236	NaN	0.000000	0.001636	0.001743	28.0827	0.075019	0.002043	36.7181	120.548	15.9886	0.020560	0.291264	-0.814344	-0.815697	0.022236	36.7181	-0.814799	-7.139488E+10	-3.114488E-13	NaN
545	1.000000	0.302596	7.37038e+06	-49839.1	1005.82	-29757.6	0.000000	0.000000	6.302843	-0.029664	NaN	0.000000	0.001669	0.001739	28.0827	0.040951	0.002011	20.3611	-115.846	-163.077	-0.016736	0.301288	-0.804365	-0.805672	-0.029664	20.3611	-0.803272	-4.980518E+10	5.956072E-13	NaN
545	1.000000	0.312608	7.37038e+06	-49839.1	1005.82	-29757.6	0.000000	0.000000	6.312857	0.034635	NaN	0.000000	0.001628	0.001757	28.0826	0.017321	0.002049	8.453793	-74.8419	16.0441	-0.038283	0.311210	-0.794353	-0.795751	0.034635	8.453793	-0.797426	-4.148711E+10	-8.348268E-13	NaN
545	1.000000	0.322618	7.37038e+06	-49839.1	1005.82	-29757.6	0.000000	0.000000	6.322865	-0.016465	NaN	0.000000	0.001613	0.001734	28.0826	0.036483	0.002066	17.6547	60.4855	-164.731	-0.025987	0.321349	-0.784343	-0.785611	-0.016465	17.6547	-0.783644	-2.696116E+10	6.106995E-13	NaN
545	1.000000	0.332604	7.37038e+06	-49839.1	1005.82	-29757.6	0.000000	0.000000	6.332850	-0.051952	NaN	0.000000	0.001629	0.001721	28.0832	0.053811	0.001878	28.6564	11.4982	15.5958	0.071077	0.331235	-0.774357	-0.775726	-0.051952	28.6564	-0.772997	-1.932191E+10	2.688775E-12	NaN
545	1.000000	0.342624	7.37038e+06	-49839.1	1005.82	-29757.6	0.000000	0.000000	6.342872	0.020661	NaN	0.000000	0.001668	0.001731	28.0826	0.058475	0.002047	28.5669	-73.0999	-166.927	-0.000483	0.341301	-0.764337	-0.765659	0.020661	28.5669	-0.764879	-1.498552E+10	-1.378728E-12	NaN
545	1.000000	0.352618	7.37038e+06	-49839.1	1005.82	-29757.6	0.000000	0.000000	6.352870	0.098866	NaN	0.000000	0.001635	0.001728	28.0828	0.072268	0.002084	34.6766	78.9294	14.3124	0.131857	0.351286	-0.754342	-0.755675	0.098866	34.6766	-0.756481	-1.151913E+10	-8.582802E-12	NaN
545	1.000000	0.362589	7.37038e+06	-49839.1	1005.82	-29757.6	0.000000	0.000000	6.362836	-0.023051	NaN	0.000000	0.001636	0.001732	28.0826	0.111567	0.001892	58.9565	-138.257	-161.92	0.039393	0.361323	-0.744371	-0.745638	-0.023051	58.9565	-0.744078	-7.808973E+9	2.951881E-12	NaN
545	1.000000	0.372617	7.37038e+06	-49839.1	1005.82	-29757.6	0.000000	0.000000	6.372865	0.003844	NaN	0.000000	0.001646	0.001735	28.0831	0.114642	0.001963	58.4027	-86.1159	16.0341	-0.037742	0.371273	-0.734344	-0.735688	0.003844	58.4027	-0.734393	-5.763361E+9	-6.669525E-13	NaN
545	1.000000	0.382632	7.37038e+06	-49839.1	1005.82	-29757.6	0.000000	0.000000	6.382880	0.024998	NaN	0.000000	0.001633	0.001765	28.0825	0.052596	0.002076	25.3294	-50.4539	-164.777	0.034511	0.381329	-0.724329	-0.725632	0.024998	25.3294	-0.725069	-4.301257E+9	-5.811865E-12	NaN
545	1.000000	0.392626	7.37038e+06	-49839.1	1005.82	-29757.6	0.000000	0.000000	6.392871	-0.057217	NaN	0.000000	0.001681	0.001724	28.0827	0.079205	0.002007	39.4585	-49.5473	13.9684	-0.057254	0.391255	-0.714335	-0.715706	-0.057217	39.4585	-0.713247	-2.967302E+9	1.928264E-11	NaN
545	1.000000	0.402637	7.37038e+06	-49839.1	1005.82	-29757.6	0.000000	0.000000	6.402882	-0.064354	NaN	0.000000	0.001634	0.001756	28.0836	0.093769	0.002060	45.5165	-62.5103	-165.961	0.014565	0.401332	-0.704323	-0.705629	-0.064354	45.5165	-0.703263	-2.168142E+9	2.968183E-11	NaN
545	1.000000	0.412607	7.37038e+06	-49839.1	1005.82	-29757.6	0.000000	0.000000	6.412855	0.010105	NaN	0.000000	0.001671	0.001754	28.0837	0.062039	0.001831	33.887	52.2547	15.8319	0.023842	0.411293	-0.694354	-0.695667	0.010105	33.887	-0.694577	-1.649918E+9	-6.124667E-12	NaN
545	1.000000	0.422633	7.37038e+06	-49839.1	1005.82	-29757.6	0.000000	0.000000	6.422882	0.034420	NaN	0.000000	0.001618	0.001750	28.0836	0.047942	0.001905	25.1717	38.5026	-165.828	0.004412	0.421318	-0.684328	-0.685643	0.034420	25.1717	-0.685353	-1.234257E+9	-2.788735E-11	NaN
545	1.000000	0.432662	7.37038e+06	-49839.1	1005.82	-29757.6	0.000000	0.000000	6.432913	0.081163	NaN	0.000000	0.001637	0.001756	28.0838	0.034286	0.002045	16.7648	-176.968	16.6821	0.048864	0.431294	-0.674299	-0.675667	0.081163	16.7648	-0.677930	-9.769862E+8	-8.307437E-11	NaN
545	1.000000	0.442662	7.37038e+06	-49839.1	1005.82	-29757.6	0.000000	0.000000	6.442909	-0.003303	NaN	0.000000	0.001623	0.001705	28.0838	0.093108	0.002004	46.4606	-167.994	-163.342	0.018173	0.441364	-0.664299	-0.665597	-0.003303	46.4606	-0.664246	-6.347682E+8	5.203334E-12	NaN
545	1.000000	0.452690	7.37038e+06	-49839.1	1005.82	-29757.6	0.000000	0.000000	6.452937	-0.024361	NaN	0.000000	0.001654	0.001744	28.0834	0.043777	0.001939	22.58	70.9697	15.1259	-0.003330	0.451335	-0.654271	-0.655625	-0.024361	22.58	-0.653462	-4.517366E+8	5.392832E-11	NaN
545	1.000000	0.462678	7.37038e+06	-49839.1	1005.82	-29757.6	0.000000	0.000000	6.462927	0.024753	NaN	0.000000	0.001601	0.001768	28.0836	0.090779	0.002029	44.7308	23.2579	-165.661	0.072519	0.461405	-0.644283	-0.645556	0.024753	44.7308	-0.644698	-3.425559E+8	-7.226013E-11	NaN
545	1.000000	0.472665	7.37038e+06	-49839.1	1005.82	-29757.6	0.000000	0.000000	6.472912	-0.009082	NaN	0.000000	0.001616	0.001706	28.0834	0.056868	0.001941	29.3007	15.8022	15.9208	-0.001776	0.471305	-0.634296	-0.635656	-0.009082	29.3007	-0.634063	-2.448025E+8	3.709884E-11	NaN
545	1.000000	0.482676	7.37038e+06	-49839.1	1005.82	-29757.6	0.000000	0.000000	6.482925	0.033473	NaN	0.000000	0.001607	0.001720	28.0839	0.063540	0.002094	30.3415	51.9498	-162.785	0.067411	0.481404	-0.624284	-0.625557	0.033473	30.3415	-0.625112	-1.844506E+8	-1.814747E-10	NaN
545	1.000000	0.492677	7.37038e+06	-49839.1	1005.82	-29757.6	0.000000	0.000000	6.492924	-0.029268	NaN	0.000000	0.001586	0.001730	28.0835	0.022561	0.001916	11.7778	-59.5337	14.0419	0.038062	0.491286	-0.614283	-0.615674	-0.029268	11.7778	-0.612420	-1.234240E+8	2.371347E-10	NaN
545	1.000000	0.502673	7.37038e+06	-49839.1	1005.82	-29757.6	0.000000	0.000000	6.502916	-0.124496	NaN	0.000000	0.001613	0.001717	28.0837	0.057775	0.001875	30.8128	74.4869	-166.291	-0.032773	0.501355	-0.604287	-0.605606	-0.124496	30.8128	-0.601257	-8.665044E+7	1.436763E-9	NaN
545	1.000000	0.512719	7.37038e+06	-49839.1	1005.82	-29757.6	0.000000	0.000000	6.512963	-0.080328	NaN	0.000000	0.001637	0.001706	28.0838	0.096616	0.002067	46.7492	65.0804	16.1531	-0.069140	0.511336	-0.594242	-0.595625	-0.080328	46.7492	-0.592953	-6.658435E+7	1.206404E-9	NaN
545	1.000000	0.522695	7.37038e+06	-49839.1	1005.82	-29757.6	0.000000	0.000000	6.522942	-0.017735	NaN	0.000000	0.001587	0.001699	28.0839	0.031021	0.002138	14.5068	-89.2405	-164.665	0.047631	0.521431	-0.584266	-0.585530	-0.017735	14.5068	-0.583349	-4.908411E+7	3.613217E-10	NaN
545	1.000000	0.532688	7.37038e+06	-49839.1	1005.82	-29757.6	0.000000	0.000000	6.532938	0.056627	NaN	0.000000	0.001598	0.001678	28.083	0.050564	0.001960	25.8032	22.5793	13.9926	-0.010487	0.531339	-0.574273	-0.575622	0.056627	25.8032	-0.575919	-3.876002E+7	-1.460970E-9	NaN
545	1.000000	0.542701	7.37038e+06	-49839.1	1005.82	-29757.6	0.000000	0.000000	6.542946	-0.061185	NaN	0.000000	0.001669	0.001712	28.0832	0.006646	0.001969	3.374758	60.3722	-162.271	0.010978	0.541438	-0.564259	-0.565522	-0.061185	3.374758	-0.550662	-1.734288E+7	3.527985E-9	NaN
545	1.000000	0.552708	7.37038e+06	-49839.1	1005.82	-29757.6	0.000000	0.000000	6.552955	-0.022210	NaN	0.000000	0.001631	0.001678	28.0828	0.054300	0.001999	27.1695	71.18	14.1865	0.053766	0.551313	-0.554253	-0.555647	-0.022210	27.1695	-0.553640	-1.907032E+7	1.164638E-9	NaN
545	1.000000	0.562703	7.37038e+06	-49839.1	1005.82	-29757.6	0.000000	0.000000	6.562950	-0.015027	NaN	0.000000	0.001668	0.001736	28.0827	0.031152	0.001948	15.9934	-82.6558	-167.084	0.058036	0.561393	-0.544258	-0.545567	-0.015027	15.9934	-0.543553	-1.382369E+7	1.087034E-9	NaN
545	1.000000	0.572691	7.37038e+06	-49839.1	1005.82	-29757.6	0.000000	0.000000	6.572939	-0.005002	NaN	0.000000	0.001648	0.001756	28.0825	0.035286	0.001992	17.7142	173.546	15.2772	-0.000658	0.571335	-0.534269	-0.535626	-0.005002	17.7142	-0.534058	-1.020731E+7	4.900127E-10	NaN
545	1.000000	0.582735	7.37038e+06	-49839.1	1005.82	-29757.6	0.000000	0.000000	6.582981	-0.033027	NaN	0.000000	0.001613	0.001743	28.0844	0.014839	0.001911	7.764791	-86.5768	-166.803	-0.004006	0.581407	-0.524226	-0.525554	-0.033027	7.764791	-0.521036	-6.72979e+06	4.907652E-9	NaN
545	1.000000	0.592709	7.37038e+06	-49839.1	1005.82	-29757.6	0.000000	0.000000	6.592960	0.069268	NaN	0.000000	0.001632	0.001710	28.0862	0.065719	0.002026	32.4396	47.334	14.2805	-0.000500	0.591362	-0.514251	-0.515599	0.069268	32.4396	-0.515853	-5.70037e+06	-1.215146E-8	NaN
545	1.000000	0.602751	7.37038e+06	-49839.1	1005.82	-29757.6	0.000000	0.000000	6.603000	0.027228	NaN	0.000000	0.001705	0.001741	28.0835	0.070487	0.001907	36.9617	120.672	-163.945	0.034894	0.601401	-0.504209	-0.505559	0.027228	36.9617	-0.504762	-3.99415e+06	-6.816921E-9	NaN
545	1.000000	0.612736	7.37038e+06	-49839.1	1005.82	-29757.6	0.000000	0.000000	6.612983	-0.002856	NaN	0.000000	0.001626	0.001742	28.0825	0.026336	0.002034	12.9472	116.945	17.081	0.037807	0.611381	-0.494225	-0.495579	-0.002856	12.9472	-0.494060	-2.83207e+06	1.008476E-9	NaN
545	1.000000	0.622748	7.37038e+06	-49839.1	1005.82	-29757.6	0.000000	0.000000	6.622995	-0.012704	NaN	0.000000	0.001645	0.001714	28.0829	0.084588	0.002018	41.9265	-123.496	-164.431	0.016236	0.621408	-0.484213	-0.485552	-0.012704	41.9265	-0.483986	-2.04787e+06	6.203392E-9	NaN
545	1.000000	0.632745	7.37038e+06	-49839.1	1005.82	-29757.6	0.000000	0.000000	6.632992	-0.021995	NaN	0.000000	0.001658	0.001738	28.0827	0.069792	0.002094	33.3289	-156.1	13.2899	0.032824	0.631343	-0.474216	-0.475617	-0.021995	33.3289	-0.473721	-1.47086e+06	1.495396E-8	NaN
545	1.000000	0.642764	7.37038e+06	-49839.1	1005.82	-29757.6	0.000000	0.000000	6.643013	0.051777	NaN	0.000000	0.001617	0.001706	28.0828	0.054502	0.001931	28.2198	21.5316	-164.677	-0.016349	0.641479	-0.464197	-0.465482	0.051777	28.2198	-0.465573	-1.13056e+06	-4.579766E-8	NaN
545	1.000000	0.652736	7.37038e+06	-49839.1	1005.82	-29757.6	0.000000	0.000000	6.652981	-0.067758	NaN	0.000000	0.001676	0.001763	28.0825	0.140843	0.002011	70.0271	108.629	16.3731	-0.106802	0.651373	-0.454225	-0.455588	-0.067758	70.0271	-0.453499	-764898	8.858393E-8	NaN
545	1.000000	0.662790	7.37038e+06	-49839.1	1005.82	-29757.6	0.000000	0.000000	6.663036	-0.044780	NaN	0.000000	0.001690	0.001772	28.083	0.058783	0.001885	31.1914	6.692931	-166.482	-0.036616	0.661427	-0.444171	-0.445534	-0.044780	31.1914	-0.443094	-545775	8.204808E-8	NaN
545	1.000000	0.672775	7.37038e+06	-49839.1	1005.82	-29757.6	0.000000	0.000000	6.673024	0.038168	NaN	0.000000	0.001699	0.001777	28.084	0.060638	0.002033	29.8298	-158.319	15.8361	0.110783	0.671410	-0.434186	-0.435550	0.038168	29.8298	-0.435145	-421512	-9.055073E-8	NaN
545	1.000000	0.682776	7.37038e+06	-49839.1	1005.82	-29757.6	0.000000	0.000000	6.683025	0.024475	NaN	0.000000	0.001699	0.001728	28.0841	0.039516	0.001999	19.7694	108.424	-162.668	-0.012020	0.681415	-0.424185	-0.425546	0.024475	19.7694	-0.425113	-304011	-8.050845E-8	NaN
545	1.000000	0.692756	7.37038e+06	-49839.1	1005.82	-29757.6	0.000000	0.000000	6.693003	-0.033124	NaN	0.000000	0.001698	0.001737	28.0839	0.076885	0.001891	40.6647	-137.832	17.4634	-0.091606	0.691422	-0.414204	-0.415539	-0.033124	40.6647	-0.413593	-208678	1.587348E-7	NaN
545	1.000000	0.702768	7.37038e+06	-49839.1	1005.82	-29757.6	0.000000	0.000000	6.703017	0.033414	NaN	0.000000	0.001642	0.001791	28.0842	0.055383	0.002029	27.2966	-83.5527	-159.014	-0.005545	0.701470	-0.404193	-0.405491	0.033414	27.2966	-0.405111	-158063	-2.113977E-7	NaN
545	1.000000	0.712766	7.37038e+06	-49839.1	1005.82	-29757.6	0.000000	0.000000	6.713012	-0.058506	NaN	0.000000	0.001620	0.001724	28.0839	0.160004	0.001921	83.2924	106.078	17.7062	-0.004617	0.711326	-0.394194	-0.395634	-0.058506	83.2924	-0.393668	-108543	5.390144E-7	NaN
545	1.000000	0.722800	7.37038e+06	-49839.1	1005.82	-29757.6	0.000000	0.000000	6.723049	0.044042	NaN	0.000000	0.001616	0.001756	28.0841	0.033945	0.002094	16.2096	10.1813	-165.162	0.108955	0.721474	-0.384161	-0.385487	0.044042	16.2096	-0.386199	-84870.9	-5.189282E-7	NaN
545	1.000000	0.732781	7.37038e+06	-49839.1	1005.82	-29757.6	0.000000	0.000000	6.733028	-0.009273	NaN	0.000000	0.001614	0.001736	28.0841	0.067040	0.002056	32.5991	-24.7041	13.9461	0.014504	0.731373	-0.374180	-0.375587	-0.009273	32.5991	-0.373967	-56651.7	1.636821E-7	NaN
545	1.000000	0.742785	7.37038e+06	-49839.1	1005.82	-29757.6	0.000000	0.000000	6.743034	0.018422	NaN	0.000000	0.001587	0.001769	28.0841	0.102057	0.002002	50.9827	160.885	-163.844	-0.045278	0.741503	-0.364175	-0.365458	0.018422	50.9827	-0.364446	-41311.1	-4.459278E-7	NaN
545	1.000000	0.752803	7.37038e+06	-49839.1	1005.82	-29757.6	0.000000	0.000000	6.753052	0.042732	NaN	0.000000	0.001611	0.001763	28.084	0.074402	0.002193	33.9282	126.914	14.161	-0.028843	0.751413	-0.354158	-0.355548	0.042732	33.9282	-0.355102	-30267.7	-1.411787E-6	NaN
545	1.000000	0.762775	7.37038e+06	-49839.1	1005.82	-29757.6	0.000000	0.000000	6.763020	-0.062133	NaN	0.000000	0.001584	0.001730	28.0838	0.052374	0.002003	26.1505	-149.674	-166.445	-0.072636	0.761508	-0.344186	-0.345452	-0.062133	26.1505	-0.342404	-19795.8	3.138713E-6	NaN
545	1.000000	0.772846	7.37038e+06	-49839.1	1005.82	-29757.6	0.000000	0.000000	6.773090	-0.073282	NaN	0.000000	0.001621	0.001726	28.084	0.103377	0.001948	53.0699	-21.8083	15.6509	-0.065825	0.771448	-0.334115	-0.335513	-0.073282	53.0699	-0.333079	-14471.5	5.063877E-6	NaN
545	1.000000	0.782819	7.37038e+06	-49839.1	1005.82	-29757.6	0.000000	0.000000	6.783067	0.001732	NaN	0.000000	0.001576	0.001747	28.084	0.048376	0.001958	24.7017	-114.597	-162.307	0.108637	0.781514	-0.324141	-0.325446	0.001732	24.7017	-0.324194	-10722.6	-1.614955E-7	NaN
545	1.000000	0.792797	7.37038e+06	-49839.1	1005.82	-29757.6	0.000000	0.000000	6.793045	0.010622	NaN	0.000000	0.001588	0.001749	28.0839	0.030293	0.002117	14.3069	178.926	15.252	-0.014549	0.791406	-0.314164	-0.315554	0.010622	14.3069	-0.314721	-7777.23	-1.365763E-6	NaN
545	1.000000	0.802787	7.37038e+06	-49839.1	1005.82	-29757.6	0.000000	0.000000	6.803037	0.032393	NaN	0.000000	0.001592	0.001738	28.084	0.118486	0.001975	59.9799	-82.7459	-165.366	0.070894	0.801486	-0.304173	-0.305475	0.032393	59.9799	-0.304578	-5504.22	-5.885092E-6	NaN
545	1.000000	0.812813	7.37038e+06	-49839.1	1005.82	-29757.6	0.000000	0.000000	6.813060	0.002875	NaN	0.000000	0.001586	0.001720	28.0828	0.038956	0.001932	20.1647	-55.2546	15.1853	-0.065843	0.811487	-0.294148	-0.295474	0.002875	20.1647	-0.294255	-3863.33	-7.441567E-7	NaN
545	1.000000	0.822814	7.37038e+06	-49839.1	1005.82	-29757.6	0.000000	0.000000	6.823064	0.053884	NaN	0.000000	0.001593	0.001736	28.0828	0.080126	0.001910	41.9559	121.287	-164.598	0.019826	0.821481	-0.284147	-0.285480	0.053884	41.9559	-0.285110	-2817.86	-1.912230E-5	NaN
545	1.000000	0.832813	7.37038e+06	-49839.1	1005.82	-29757.6	0.000000	0.000000	6.833062	0.014366	NaN	0.000000	0.001590	0.001731	28.0828	0.123348	0.002012	61.3174	88.1306	15.0944	-0.028032	0.831422	-0.274147	-0.275539	0.014366	61.3174	-0.274323	-1937.08	-7.416385E-6	NaN
545	1.000000	0.842822	7.37038e+06	-49839.1	1005.82	-29757.6	0.000000	0.000000	6.843069	-0.013182	NaN	0.000000	0.001612	0.001780	28.0829	0.082318	0.001986	41.4536	176.919	-162.002	-0.071290	0.841541	-0.264138	-0.265419	-0.013182	41.4536	-0.263900	-1344.6	9.803464E-6	NaN
545	1.000000	0.852866	7.37038e+06	-49839.1	1005.82	-29757.6	0.000000	0.000000	6.853116	0.043180	NaN	0.000000	0.001583	0.001716	28.0828	0.073052	0.001985	36.8054	93.5653	12.9243	-0.003969	0.851511	-0.254094	-0.255450	0.043180	36.8054	-0.254974	-981.114	-4.401136E-5	NaN
545	1.000000	0.862836	7.37038e+06	-49839.1	1005.82	-29757.6	0.000000	0.000000	6.863083	-0.015066	NaN	0.000000	0.001601	0.001774	28.0828	0.032045	0.001961	16.342	153.772	-166.503	0.053096	0.861553	-0.244125	-0.245407	-0.015066	16.342	-0.243433	-650.261	2.316957E-5	NaN
545	1.000000	0.872855	7.37038e+06	-49839.1	1005.82	-29757.6	0.000000	0.000000	6.873104	0.035766	NaN	0.000000	0.001604	0.001738	28.0829	0.067915	0.001931	35.1753	22.7777	16.3379	0.031780	0.871502	-0.234106	-0.235459	0.035766	35.1753	-0.234868	-477.73	-7.486673E-5	NaN
545	1.000000	0.882826	7.37038e+06	-49839.1	1005.82	-29757.6	0.000000	0.000000	6.883078	0.089377	NaN	0.000000	0.001662	0.001717	28.0829	0.006333	0.002021	3.133882	37.1107	-166.379	-0.052880	0.881544	-0.224135	-0.225417	0.089377	3.133882	-0.245524	-700.801	-0.000128	NaN
545	1.000000	0.892862	7.37038e+06	-49839.1	1005.82	-29757.6	0.000000	0.000000	6.893108	-0.047924	NaN	0.000000	0.001697	0.001750	28.0829	0.124935	0.001832	68.1995	-33.4316	16.8696	0.032639	0.891489	-0.214099	-0.215472	-0.047924	68.1995	-0.213571	-219.036	0.000219	NaN
545	1.000000	0.902824	7.37038e+06	-49839.1	1005.82	-29757.6	0.000000	0.000000	6.903074	0.060308	NaN	0.000000	0.001624	0.001758	28.0831	0.060242	0.001977	30.4754	138.843	-164.688	0.061672	0.901532	-0.204137	-0.205429	0.060308	30.4754	-0.205621	-162.812	-0.000370	NaN
545	1.000000	0.912880	7.37038e+06	-49839.1	1005.82	-29757.6	0.000000	0.000000	6.913128	0.013285	NaN	0.000000	0.001625	0.001739	28.0829	0.069851	0.001989	35.1128	94.7907	18.0945	0.066112	0.911497	-0.194081	-0.195464	0.013285	35.1128	-0.194365	-106.334	-0.000125	NaN
545	1.000000	0.922889	7.37038e+06	-49839.1	1005.82	-29757.6	0.000000	0.000000	6.923139	0.051308	NaN	0.000000	0.001644	0.001782	28.083	0.068836	0.001864	36.9327	92.4425	-162.873	-0.037986	0.921526	-0.184072	-0.185435	0.051308	36.9327	-0.185113	-74.4808	-0.000689	NaN
545	1.000000	0.932858	7.37038e+06	-49839.1	1005.82	-29757.6	0.000000	0.000000	6.933107	0.014128	NaN	0.000000	0.001659	0.001758	28.0829	0.058838	0.001977	29.7622	168.551	15.2889	0.106390	0.931486	-0.174102	-0.175474	0.014128	29.7622	-0.174458	-49.053	-0.000288	NaN
545	1.000000	0.942885	7.37038e+06	-49839.1	1005.82	-29757.6	0.000000	0.000000	6.943131	-0.035648	NaN	0.000000	0.001690	0.001754	28.084	0.108978	0.002073	52.5828	-116.652	-165.894	0.004637	0.941594	-0.164076	-0.165367	-0.035648	52.5828	-0.163568	-31.7037	0.001124	NaN
545	1.000000	0.952893	7.37038e+06	-49839.1	1005.82	-29757.6	0.000000	0.000000	6.953142	0.033998	NaN	0.000000	0.001648	0.001743	28.084	0.066707	0.002069	32.2364	-86.6065	16.3795	0.000992	0.951499	-0.154067	-0.155462	0.033998	32.2364	-0.154858	-22.1837	-0.001533	NaN
545	1.000000	0.962881	7.37038e+06	-49839.1	1005.82	-29757.6	0.000000	0.000000	6.963129	-0.001462	NaN	0.000000	0.001660	0.001722	28.0846	0.075138	0.001971	38.1123	97.5862	-166.376	0.008614	0.961544	-0.144079	-0.145416	-0.001462	38.1123	-0.144051	-14.0793	0.000104	NaN
545	1.000000	0.972866	7.37038e+06	-49839.1	1005.82	-29757.6	0.000000	0.000000	6.973115	0.034317	NaN	0.000000	0.001622	0.001713	28.0842	0.118796	0.001859	63.8938	-122.729	15.6085	0.018229	0.971525	-0.134095	-0.135436	0.034317	63.8938	-0.134498	-9.304487	-0.003688	NaN
545	1.000000	0.982892	7.37038e+06	-49839.1	1005.82	-29757.6	0.000000	0.000000	6.983141	0.038025	NaN	0.000000	0.001628	0.001728	28.0843	0.054700	0.001981	27.6102	-21.8231	-165.195	0.028596	0.981571	-0.124069	-0.125390	0.038025	27.6102	-0.125102	-6.109575	-0.006224	NaN
545	1.000000	0.992897	7.37038e+06	-49839.1	1005.82	-29757.6	0.000000	0.000000	6.993143	-0.038687	NaN	0.000000	0.001685	0.001768	28.0844	0.076510	0.001958	39.0713	-176.856	17.954	0.016485	0.991530	-0.114064	-0.115431	-0.038687	39.0713	-0.113321	-3.526664	0.010970	NaN
545	1.000000	1.002883	7.37038e+06	-49839.1	1005.82	-29757.6	0.000000	0.000000	7.003131	-0.008082	NaN	0.000000	0.001612	0.001748	28.0842	0.048923	0.002118	23.0992	-51.7266	-163.408	-0.059913	1.001550	-0.104077	-0.105411	-0.008082	23.0992	-0.103815	-2.215637	0.003648	NaN
545	1.000000	1.012878	7.37038e+06	-49839.1	1005.82	-29757.6	0.000000	0.000000	7.013121	-0.103431	NaN	0.000000	0.001685	0.001707	28.0844	0.236779	0.001945	121.711	0.095770	15.4944	0.006301	1.011563	-0.094083	-0.095398	-0.103431	121.711	-0.093446	-1.299683	0.079582	NaN
545	1.000000	1.022880	7.37038e+06	-49839.1	1005.82	-29757.6	0.000000	0.000000	7.023128	0.010957	NaN	0.000000	0.001722	0.001746	28.0838	0.068340	0.001819	37.5681	-152.365	-168.588	9.715915E-5	1.021599	-0.084081	-0.085362	0.010957	37.5681	-0.084300	-0.790126	-0.013868	NaN
545	1.000000	1.032907	7.37038e+06	-49839.1	1005.82	-29757.6	0.000000	0.000000	7.033153	-0.035047	NaN	0.000000	0.001716	0.001738	28.084	0.057770	0.001969	29.3379	-177.266	17.8764	0.077553	1.031540	-0.074054	-0.075420	-0.035047	29.3379	-0.073158	-0.413574	0.084742	NaN
545	1.000000	1.042909	7.37038e+06	-49839.1	1005.82	-29757.6	0.000000	0.000000	7.043154	-0.072120	NaN	0.000000	0.001729	0.001720	28.0837	0.060919	0.001947	31.2953	105.557	-165.78	-0.087357	1.041575	-0.064051	-0.065386	-0.072120	31.2953	-0.062323	-0.209715	0.343897	NaN
545	1.000000	1.052931	7.37038e+06	-49839.1	1005.82	-29757.6	0.000000	0.000000	7.053178	-0.008743	NaN	0.000000	0.001740	0.001734	28.084	0.041881	0.001967	21.2866	-117.589	15.7323	-0.030038	1.051526	-0.054030	-0.055435	-0.008743	21.2866	-0.053722	-0.118014	0.074087	NaN
545	1.000000	1.062902	7.37038e+06	-49839.1	1005.82	-29757.6	0.000000	0.000000	7.063152	0.033641	NaN	0.000000	0.001717	0.001749	28.0837	0.101783	0.002065	49.2869	161.505	-163.359	0.000820	1.061592	-0.044058	-0.045369	0.033641	49.2869	-0.044570	-0.062352	-0.539531	NaN
545	1.000000	1.072934	7.37038e+06	-49839.1	1005.82	-29757.6	0.000000	0.000000	7.073182	0.009917	NaN	0.000000	0.001776	0.001714	28.0839	0.058646	0.001952	30.04	130.743	14.8751	0.005889	1.071580	-0.034027	-0.035381	0.009917	30.04	-0.034275	-0.030492	-0.325238	NaN
545	1.000000	1.082901	7.37038e+06	-49839.1	1005.82	-29757.6	0.000000	0.000000	7.083150	0.019004	NaN	0.000000	0.001733	0.001753	28.0826	0.113105	0.002040	55.4336	-45.955	-164.066	0.034192	1.081580	-0.024059	-0.025381	0.019004	55.4336	-0.024317	-0.016193	-1.173591	NaN
545	1.000000	1.092907	7.37038e+06	-49839.1	1005.82	-29757.6	0.000000	0.000000	7.093153	-0.052391	NaN	0.000000	0.001738	0.001737	28.0824	0.038976	0.001914	20.3652	-90.9998	15.5749	-0.090842	1.091561	-0.014054	-0.015400	-0.052391	20.3652	-0.012124	-0.007600	6.893838	NaN
545	1.000000	1.102930	7.37038e+06	-49839.1	1005.82	-29757.6	0.000000	0.000000	7.103184	0.152473	NaN	0.000000	0.001740	0.001723	28.0826	0.348283	0.001988	175.235	26.7068	-163.385	-0.048913	1.101663	-0.004031	-0.005297	0.152473	175.235	-0.004684	-0.003217	-47.3958	NaN
545	2.000000	1.112625	7.37038e+06	-49839.1	1005.82	-29757.6	0.000000	0.000000	7.113199	7.936206	NaN	0.000000	0.001760	0.001712	28.0824	7.115321	0.001675	4246.82	11.5334	10.1575	7.729676	1.111525	0.005664	0.004564	7.936206	4246.82	0.004262	0.003470	2286.95	65865.7
545	2.000000	1.115506	7.37038e+06	-49839.1	1005.82	-29757.6	0.000000	0.000000	7.116164	9.964810	NaN	0.000000	0.001703	0.001703	28.0825	9.911148	0.001752	5656.26	7.508386	-172.01	9.810403	1.115236	0.008546	0.008275	9.964810	5656.26	0.007224	0.006257	1592.68	65333
545	2.000000	1.118004	7.37038e+06	-49839.1	1005.82	-29757.6	0.000000	0.000000	7.118817	13.7462	NaN	0.000000	0.001740	0.001680	28.0825	12.9032	0.001749	7377.23	8.515767	6.087794	13.5461	1.117656	0.011044	0.010695	13.7462	7377.23	0.009646	0.008791	1563.66	71886.4
545	2.000000	1.120509	7.37039e+06	-49839.1	1005.82	-29757.6	0.000000	0.000000	7.121564	19.6236	NaN	0.000000	0.001729	0.001727	28.0826	15.755	0.001841	8558.66	10.1783	-177.265	19.5488	1.120119	0.013549	0.013159	19.6236	8558.66	0.011829	0.011286	1738.75	73605.2
545	2.000000	1.122931	7.37039e+06	-49839.1	1005.82	-29757.6	0.000000	0.000000	7.124223	25.3797	NaN	0.000000	0.001710	0.001715	28.0824	18.4388	0.001715	10750.5	5.988346	3.554801	23.1809	1.122587	0.015970	0.015626	25.3797	10750.5	0.014200	0.014233	1783.14	82328.9
545	2.000000	1.125489	7.37039e+06	-49839.1	1005.82	-29757.6	0.000000	0.000000	7.126966	29.9058	NaN	0.000000	0.001730	0.001744	28.0824	21.1342	0.001625	13008.5	1.910346	-174.914	30.0298	1.125206	0.018528	0.018245	29.9058	13008.5	0.016804	0.017767	1683.24	89165.3
545	2.000000	1.127974	7.37039e+06	-49839.1	1005.82	-29757.6	0.000000	0.000000	7.129810	38.6255	NaN	0.000000	0.001726	0.001728	28.0824	23.6536	0.001710	13834.5	4.626200	4.463791	38.2462	1.127550	0.021013	0.020590	38.6255	13834.5	0.018919	0.020872	1850.55	87488.4
545	2.000000	1.130428	7.37039e+06	-49839.1	1005.82	-29757.6	0.000000	0.000000	7.132502	44.4304	NaN	0.000000	0.001719	0.001743	28.0825	26.3344	0.001930	13643.6	7.423756	-177.337	44.113	1.130038	0.023467	0.023078	44.4304	13643.6	0.021025	0.024178	1837.64	80166.5
545	2.000000	1.132914	7.37039e+06	-49839.1	1005.82	-29757.6	0.000000	0.000000	7.135255	50.8985	NaN	0.000000	0.001720	0.001777	28.0825	29.1094	0.001869	15576.7	5.825673	1.093834	49.3928	1.132592	0.025953	0.025631	50.8985	15576.7	0.023503	0.028348	1795.49	84525.8
545	2.000000	1.135482	7.37039e+06	-49839.1	1005.82	-29757.6	0.000000	0.000000	7.138011	55.4767	NaN	0.000000	0.001644	0.001739	28.0826	31.5161	0.001813	17387.9	6.443788	179.564	57.1263	1.135100	0.028522	0.028139	55.4767	17387.9	0.026129	0.033101	1675.99	87317.3
545	2.000000	1.137924	7.37039e+06	-49839.1	1005.82	-29757.6	0.000000	0.000000	7.140939	67.2999	NaN	0.000000	0.001671	0.001725	28.0827	33.1063	0.001694	19543.6	5.235927	-0.322345	65.2123	1.137585	0.030963	0.030624	67.2999	19543.6	0.028381	0.037454	1796.86	92262.9
545	2.000000	1.140355	7.37039e+06	-49839.1	1005.82	-29757.6	0.000000	0.000000	7.143841	78.7582	NaN	0.000000	0.001676	0.001737	28.084	35.1752	0.001685	20878.6	2.030355	-178.8	75.0515	1.140048	0.033394	0.033088	78.7582	20878.6	0.030565	0.041923	1878.63	93163.8
545	2.000000	1.142882	7.37039e+06	-49839.1	1005.82	-29757.6	0.000000	0.000000	7.146767	88.4354	NaN	0.000000	0.001649	0.001748	28.084	39.311	0.001861	21126.3	3.357936	0.832118	85.2215	1.142516	0.035922	0.035555	88.4354	21126.3	0.032782	0.046708	1893.38	89310.5
545	2.000000	1.145428	7.37039e+06	-49839.1	1005.82	-29757.6	0.000000	0.000000	7.149718	98.3189	NaN	0.000000	0.001688	0.001748	28.0838	41.6811	0.001770	23545.7	3.829713	179.157	97.8686	1.145151	0.038467	0.038191	98.3189	23545.7	0.035335	0.052529	1871.69	93860.7
545	2.000000	1.147918	7.37039e+06	-49839.1	1005.82	-29757.6	0.000000	0.000000	7.152694	110.13	NaN	0.000000	0.001686	0.001756	28.0847	44.3223	0.001660	26707.5	7.465928	-5.702768	109.344	1.147573	0.040957	0.040613	110.13	26707.5	0.037865	0.058626	1878.5	100777
545	2.000000	1.150369	7.37039e+06	-49839.1	1005.82	-29757.6	0.000000	0.000000	7.155747	124.753	NaN	0.000000	0.001665	0.001742	28.0841	46.5239	0.001888	24642.4	8.108991	175.645	123.072	1.150006	0.043409	0.043045	124.753	24642.4	0.039612	0.063029	1979.29	89678
545	2.000000	1.152929	7.37039e+06	-49839.1	1005.82	-29757.6	0.000000	0.000000	7.158638	132.806	NaN	0.000000	0.001683	0.001741	28.0842	48.6403	0.001650	29481.9	5.352231	-4.562669	131.626	1.152566	0.045969	0.045605	132.806	29481.9	0.042590	0.070894	1873.32	101164
545	2.000000	1.155438	7.37039e+06	-49839.1	1005.82	-29757.6	0.000000	0.000000	7.161766	147.876	NaN	0.000000	0.001688	0.001756	28.0841	52.1247	0.001707	30529.1	3.238505	177.191	148.263	1.155130	0.048477	0.048169	147.876	30529.1	0.044844	0.077146	1916.84	100423
545	2.000000	1.157984	7.37039e+06	-49839.1	1005.82	-29757.6	0.000000	0.000000	7.164776	159.167	NaN	0.000000	0.001627	0.001740	28.0844	55.0535	0.001714	32118.8	7.636118	-5.882490	162.916	1.157591	0.051023	0.050631	159.167	32118.8	0.047306	0.084269	1888.79	101088
545	2.000000	1.160278	7.37039e+06	-49839.1	1005.82	-29757.6	0.000000	0.000000	7.167630	172.756	NaN	0.000000	0.001658	0.001752	28.084	56.6808	0.001833	30930.4	1.270433	179.761	167.221	1.160047	0.053317	0.053086	172.756	30930.4	0.049128	0.089738	1925.11	94334.4
545	2.000000	1.162900	7.37039e+06	-49839.1	1005.82	-29757.6	0.000000	0.000000	7.170988	190.67	NaN	0.000000	0.001647	0.001706	28.0841	59.6216	0.001668	35735.4	4.575794	-4.806896	188.316	1.162527	0.055939	0.055566	190.67	35735.4	0.051938	0.098497	1935.8	104031
545	2.000000	1.165424	7.37039e+06	-49839.1	1005.82	-29757.6	0.000000	0.000000	7.173919	200.581	NaN	0.000000	0.001665	0.001761	28.0841	63.9482	0.001688	37880.6	6.380300	173.126	202.286	1.165124	0.058463	0.058163	200.581	37880.6	0.054492	0.106801	1878.09	105902
545	2.000000	1.167857	7.37039e+06	-49839.1	1005.82	-29757.6	0.000000	0.000000	7.177183	220.766	NaN	0.000000	0.001619	0.001738	28.0845	65.2428	0.001718	37980.8	3.257150	-4.172368	217.564	1.167529	0.060896	0.060568	220.766	37980.8	0.056537	0.113684	1941.94	102917
545	2.000000	1.170335	7.37039e+06	-49839.1	1005.82	-29757.6	0.000000	0.000000	7.180247	235.015	NaN	0.000000	0.001598	0.001710	28.0841	67.8775	0.001782	38087	5.365221	174.82	233.965	1.170020	0.063375	0.063059	235.015	38087	0.058747	0.121353	1936.62	99890.7
545	2.000000	1.172860	7.37039e+06	-49839.1	1005.82	-29757.6	0.000000	0.000000	7.183094	242.877	NaN	0.000000	0.001611	0.001729	28.0831	70.7213	0.001808	39122.9	4.956362	-6.502442	241.436	1.172658	0.065899	0.065698	242.877	39122.9	0.061243	0.130303	1863.94	99021.1
545	2.000000	1.175435	7.37039e+06	-49839.1	1005.82	-29757.6	0.000000	0.000000	7.186418	261.078	NaN	0.000000	0.001636	0.001651	28.083	73.3208	0.001801	40705.8	4.630065	174.381	264.915	1.175145	0.068474	0.068185	261.078	40705.8	0.063664	0.139272	1874.58	99654.5
545	2.000000	1.177855	7.37039e+06	-49839.1	1005.82	-29757.6	0.000000	0.000000	7.189948	288.055	NaN	0.000000	0.001614	0.001666	28.0831	75.2585	0.001872	40202.2	4.752274	-4.757338	283.741	1.177451	0.070895	0.070490	288.055	40202.2	0.065521	0.146346	1968.32	96013.7
545	2.000000	1.180296	7.37039e+06	-49839.1	1005.82	-29757.6	0.000000	0.000000	7.193169	307.053	NaN	0.000000	0.001619	0.001652	28.0827	77.3227	0.001701	45469.9	5.605413	172.099	302.152	1.180025	0.073335	0.073064	307.053	45469.9	0.068270	0.157122	1954.23	104804
545	2.000000	1.182842	7.37039e+06	-49839.1	1005.82	-29757.6	0.000000	0.000000	7.196334	322.084	NaN	0.000000	0.001629	0.001629	28.0832	81.1673	0.001848	43921.9	4.137426	-6.013667	319.061	1.182407	0.075881	0.075447	322.084	43921.9	0.070381	0.165643	1944.45	98597.9
545	2.000000	1.185281	7.37039e+06	-49839.1	1005.82	-29757.6	0.000000	0.000000	7.199525	340.371	NaN	0.000000	0.001599	0.001626	28.0831	83.3228	0.001713	48634	5.011228	172.986	335.791	1.185039	0.078320	0.078079	340.371	48634	0.073072	0.176806	1925.1	105673
545	2.000000	1.187890	7.37039e+06	-49839.1	1005.82	-29757.6	0.000000	0.000000	7.202957	360.38	NaN	0.000000	0.001638	0.001639	28.083	85.0038	0.001813	46874.4	3.656995	-5.707584	359.425	1.187614	0.080930	0.080653	360.38	46874.4	0.075164	0.185725	1940.4	99374.2
545	2.000000	1.190351	7.37039e+06	-49839.1	1005.82	-29757.6	0.000000	0.000000	7.206549	387.903	NaN	0.000000	0.001605	0.001655	28.083	88.0613	0.001862	47302	5.467690	173.03	387.931	1.189964	0.083390	0.083003	387.903	47302	0.077240	0.194780	1991.5	97922.2
545	2.000000	1.192806	7.37039e+06	-49839.1	1005.82	-29757.6	0.000000	0.000000	7.209912	409.985	NaN	0.000000	0.001603	0.001682	28.0831	89.1008	0.001777	50132.1	2.348910	-4.846653	406.425	1.192547	0.085845	0.085586	409.985	50132.1	0.079712	0.205822	1991.94	100959
545	2.000000	1.195360	7.37039e+06	-49839.1	1005.82	-29757.6	0.000000	0.000000	7.212766	417.28	NaN	0.000000	0.001628	0.001658	28.0833	92.6413	0.001816	51015.8	5.106435	171.42	416.346	1.195109	0.088399	0.088148	417.28	51015.8	0.082264	0.217525	1918.31	99936.4
545	2.000000	1.197806	7.37039e+06	-49839.1	1005.82	-29757.6	0.000000	0.000000	7.216286	443.375	NaN	0.000000	0.001648	0.001675	28.083	94.3072	0.001762	53530	4.144261	-7.268951	437.026	1.197394	0.090846	0.090434	443.375	53530	0.084634	0.228657	1939.04	102277
545	2.000000	1.200335	7.37039e+06	-49839.1	1005.82	-29757.6	0.000000	0.000000	7.219466	459.244	NaN	0.000000	0.001655	0.001670	28.0832	95.9163	0.001768	54249.4	5.323899	170.913	457.309	1.200148	0.093374	0.093188	459.244	54249.4	0.087025	0.240156	1912.27	101140
545	2.000000	1.202822	7.37039e+06	-49839.1	1005.82	-29757.6	0.000000	0.000000	7.222918	482.699	NaN	0.000000	0.001631	0.001654	28.0833	98.6649	0.001823	54120.3	1.952830	-4.864618	479.094	1.202419	0.095861	0.095459	482.699	54120.3	0.089172	0.250705	1925.37	98753.3
545	2.000000	1.205380	7.37039e+06	-49839.1	1005.82	-29757.6	0.000000	0.000000	7.226334	503.565	NaN	0.000000	0.001630	0.001685	28.0831	101.756	0.001671	60899.1	4.248590	171.755	505.798	1.205053	0.098419	0.098092	503.565	60899.1	0.092217	0.266030	1892.89	107874
545	2.000000	1.207757	7.37039e+06	-49839.1	1005.82	-29757.6	0.000000	0.000000	7.229923	533.037	NaN	0.000000	0.001648	0.001714	28.0842	103.134	0.001729	59657.2	4.146526	-8.053578	526.207	1.207515	0.100797	0.100554	533.037	59657.2	0.094095	0.275692	1933.45	103806
545	2.000000	1.210240	7.37039e+06	-49839.1	1005.82	-29757.6	0.000000	0.000000	7.233357	556.166	NaN	0.000000	0.001585	0.001706	28.0842	105.425	0.001800	58577.6	4.310899	172.055	550.36	1.209973	0.103279	0.103012	556.166	58577.6	0.096158	0.286492	1941.3	99988.1
545	2.000000	1.211378	7.37039e+06	-49839.1	1005.82	-29757.6	0.000000	0.000000	7.234897	565.946	NaN	0.000000	0.001612	0.001674	28.0843	106.298	0.001827	58190.5	-0.004746	176.99	564.481	1.211002	0.104417	0.104041	565.946	58190.5	0.097123	0.291607	1940.79	98452.5