File: remote_trans/data/nanoindenter/0828-1/data/Data_2025-08-06,11h17m57s/2025-07-22_16-23-58_1_711.txt
2025-07-22, 16:23:58, 1
Index	Phase	Displacement	Time	Pos X	Pos Y	Pos Z	Rot A	Rot B	Piezo Z	Force A	Force B	Gripper	Voltage A	Voltage B	Temperature	Amplitude force	Amplitude pos	Stiffness	Phase shift	Phase excitation	Force A raw	Displacement raw	HMax	HMax raw	Real Force	Real Stiffness	Contact Depth	Area	Hardness	Reduced Mod.
[#]	[#]	[um]	[s]	[um]	[um]	[um]	[m°]	[m°]	[um]	[uN]	[uN]	[V]	[V]	[V]	[°C]	[uN]	[um]	[N/m]	[°]	[°]	[uN]	[um]	[um]	[um]	[uN]	[N/m]	[um]	[um^2]	[MPa]	[MPa]
711	1.000000	0.002605	7.37201e+06	-41539.1	1005.82	-29785.9	0.000000	0.000000	6.002829	-0.022203	NaN	0.000000	0.001607	0.001665	28.0841	0.052254	0.001082	48.2951	123.22	-165.951	-0.064650	0.001260	-1.091295	-1.092640	-0.022203	48.2951	-1.090951	-3.789457E+14	5.859117E-17	NaN
711	1.000000	0.012613	7.37201e+06	-41539.1	1005.82	-29785.9	0.000000	0.000000	6.012838	-0.004282	NaN	0.000000	0.001667	0.001662	28.0838	0.043833	0.001352	32.4119	86.4898	17.2681	-0.003130	0.011198	-1.081288	-1.082702	-0.004282	32.4119	-1.081189	-2.802103E+14	1.528026E-17	NaN
711	1.000000	0.022510	7.37201e+06	-41539.1	1005.82	-29785.9	0.000000	0.000000	6.022736	0.029972	NaN	0.000000	0.001658	0.001664	28.0839	0.076734	0.001767	43.4335	68.0303	-169.531	0.048034	0.021214	-1.071390	-1.072687	0.029972	43.4335	-1.071908	-2.102919E+14	-1.425249E-16	NaN
711	1.000000	0.032524	7.37201e+06	-41539.1	1005.82	-29785.9	0.000000	0.000000	6.032749	-0.007334	NaN	0.000000	0.001652	0.001681	28.0836	0.120413	0.001858	64.8063	67.9277	14.9318	0.043209	0.031127	-1.061376	-1.062773	-0.007334	64.8063	-1.061292	-1.514179E+14	4.843670E-17	NaN
711	1.000000	0.042535	7.37201e+06	-41539.1	1005.82	-29785.9	0.000000	0.000000	6.042760	-0.001801	NaN	0.000000	0.001691	0.001688	28.0837	0.049519	0.001984	24.961	-179.916	-163.855	0.057078	0.041191	-1.051366	-1.052709	-0.001801	24.961	-1.051312	-1.111849E+14	1.619658E-17	NaN
711	1.000000	0.052517	7.37201e+06	-41539.1	1005.82	-29785.9	0.000000	0.000000	6.052742	-0.001039	NaN	0.000000	0.001674	0.001688	28.0838	0.025517	0.001954	13.0588	-68.2218	9.375936	-0.006738	0.051134	-1.041384	-1.042766	-0.001039	13.0588	-1.041324	-8.161505E+13	1.273593E-17	NaN
711	1.000000	0.062518	7.37201e+06	-41539.1	1005.82	-29785.9	0.000000	0.000000	6.062745	0.022663	NaN	0.000000	0.001669	0.001708	28.084	0.016841	0.002018	8.344896	135.734	-168.465	0.081943	0.061215	-1.031382	-1.032686	0.022663	8.344896	-1.033419	-6.389443E+13	-3.546954E-16	NaN
711	1.000000	0.072537	7.37201e+06	-41539.1	1005.82	-29785.9	0.000000	0.000000	6.072761	-0.030785	NaN	0.000000	0.001696	0.001702	28.0837	0.063573	0.001973	32.2246	98.1671	15.351	-0.031163	0.071173	-1.021364	-1.022727	-0.030785	32.2246	-1.020647	-4.301876E+13	7.156232E-16	NaN
711	1.000000	0.082552	7.37201e+06	-41539.1	1005.82	-29785.9	0.000000	0.000000	6.082775	-0.073732	NaN	0.000000	0.001708	0.001696	28.0839	0.065406	0.001975	33.1161	-173.094	-167.435	-0.065450	0.081179	-1.011348	-1.012721	-0.073732	33.1161	-1.009678	-3.062317E+13	2.407707E-15	NaN
711	1.000000	0.092532	7.37201e+06	-41539.1	1005.82	-29785.9	0.000000	0.000000	6.092756	-0.044294	NaN	0.000000	0.001677	0.001694	28.0839	0.036126	0.002048	17.6413	-170.619	16.2649	-0.085722	0.091134	-1.001368	-1.002766	-0.044294	17.6413	-0.999485	-2.232735E+13	1.983833E-15	NaN
711	1.000000	0.102583	7.37201e+06	-41539.1	1005.82	-29785.9	0.000000	0.000000	6.102809	0.024991	NaN	0.000000	0.001667	0.001673	28.084	0.079173	0.002127	37.2189	71.293	-163.825	-0.059416	0.101220	-0.991317	-0.992680	0.024991	37.2189	-0.991821	-1.760502E+13	-1.419560E-15	NaN
711	1.000000	0.112569	7.37201e+06	-41539.1	1005.82	-29785.9	0.000000	0.000000	6.112797	0.056615	NaN	0.000000	0.001699	0.001692	28.0836	0.083511	0.002027	41.1911	91.9181	7.726023	0.114315	0.111162	-0.981332	-0.982738	0.056615	41.1911	-0.982362	-1.312912E+13	-4.312183E-15	NaN
711	1.000000	0.122567	7.37201e+06	-41539.1	1005.82	-29785.9	0.000000	0.000000	6.122794	0.036256	NaN	0.000000	0.001674	0.001722	28.0837	0.102059	0.002035	50.1511	174.532	-163.155	0.072425	0.121261	-0.971333	-0.972639	0.036256	50.1511	-0.971876	-9.482862E+12	-3.823304E-15	NaN
711	1.000000	0.132580	7.37201e+06	-41539.1	1005.82	-29785.9	0.000000	0.000000	6.132804	-0.039831	NaN	0.000000	0.001676	0.001659	28.0837	0.046903	0.002071	22.6517	-108.369	12.8687	-0.063859	0.131189	-0.961320	-0.962712	-0.039831	22.6517	-0.960001	-6.559678E+12	6.072114E-15	NaN
711	1.000000	0.142553	7.37201e+06	-41539.1	1005.82	-29785.9	0.000000	0.000000	6.142777	-0.014788	NaN	0.000000	0.001703	0.001689	28.0828	0.039754	0.001988	19.9962	-22.8888	-165.846	0.033916	0.141266	-0.951348	-0.952634	-0.014788	19.9962	-0.950793	-4.928599E+12	3.000367E-15	NaN
711	1.000000	0.152558	7.37201e+06	-41539.1	1005.82	-29785.9	0.000000	0.000000	6.152781	-0.063462	NaN	0.000000	0.001711	0.001733	28.0828	0.047896	0.001954	24.5177	-70.4133	14.1432	-0.074769	0.151200	-0.941342	-0.942700	-0.063462	24.5177	-0.939401	-3.459837E+12	1.834257E-14	NaN
711	1.000000	0.162549	7.37201e+06	-41539.1	1005.82	-29785.9	0.000000	0.000000	6.162773	-0.020375	NaN	0.000000	0.001752	0.001723	28.0826	0.127342	0.002009	63.373	107.415	-165.055	-0.029324	0.161274	-0.931352	-0.932627	-0.020375	63.373	-0.931110	-2.674142E+12	7.619310E-15	NaN
711	1.000000	0.172607	7.37201e+06	-41539.1	1005.82	-29785.9	0.000000	0.000000	6.172833	0.032386	NaN	0.000000	0.001716	0.001663	28.0826	0.020307	0.002081	9.758181	-92.1742	11.6419	0.050034	0.171190	-0.921294	-0.922711	0.032386	9.758181	-0.923783	-2.129492E+12	-1.520823E-14	NaN
711	1.000000	0.182584	7.37201e+06	-41539.1	1005.82	-29785.9	0.000000	0.000000	6.182811	0.025844	NaN	0.000000	0.001713	0.001695	28.0828	0.042770	0.002003	21.3493	62.0501	-167.181	0.021371	0.181272	-0.911316	-0.912628	0.025844	21.3493	-0.912224	-1.486614E+12	-1.738428E-14	NaN
711	1.000000	0.192598	7.37201e+06	-41539.1	1005.82	-29785.9	0.000000	0.000000	6.192824	0.026402	NaN	0.000000	0.001588	0.001694	28.0828	0.065622	0.001991	32.9547	50.0396	12.8257	-0.020875	0.191249	-0.901302	-0.902651	0.026402	32.9547	-0.901903	-1.078409E+12	-2.448233E-14	NaN
711	1.000000	0.202572	7.37201e+06	-41539.1	1005.82	-29785.9	0.000000	0.000000	6.202798	0.013609	NaN	0.000000	0.001628	0.001749	28.0825	0.083662	0.002145	39.007	-128.663	-166.503	-0.008113	0.201259	-0.891328	-0.892642	0.013609	39.007	-0.891590	-7.823619E+11	-1.739422E-14	NaN
711	1.000000	0.212558	7.37201e+06	-41539.1	1005.82	-29785.9	0.000000	0.000000	6.212782	-0.020599	NaN	0.000000	0.001639	0.001702	28.0825	0.012629	0.002122	5.951841	177.678	13.3898	-0.100578	0.211273	-0.881343	-0.882627	-0.020599	5.951841	-0.878747	-5.245203E+11	3.927302E-14	NaN
711	1.000000	0.222592	7.37201e+06	-41539.1	1005.82	-29785.9	0.000000	0.000000	6.222816	-0.048986	NaN	0.000000	0.001605	0.001706	28.0824	0.029933	0.002039	14.6821	25.1387	-167.104	0.015840	0.221210	-0.871308	-0.872691	-0.048986	14.6821	-0.868806	-3.848443E+11	1.272869E-13	NaN
711	1.000000	0.232615	7.37201e+06	-41539.1	1005.82	-29785.9	0.000000	0.000000	6.232840	-0.006780	NaN	0.000000	0.001597	0.001695	28.0826	0.040985	0.002002	20.4731	137.144	16.4148	-0.035966	0.231256	-0.861285	-0.862644	-0.006780	20.4731	-0.861037	-3.021006E+11	2.244286E-14	NaN
711	1.000000	0.242580	7.37201e+06	-41539.1	1005.82	-29785.9	0.000000	0.000000	6.242804	-0.026219	NaN	0.000000	0.001612	0.001678	28.0826	0.014990	0.002004	7.479131	-94.1696	-165.002	0.035139	0.241296	-0.851320	-0.852604	-0.026219	7.479131	-0.848691	-2.055957E+11	1.275254E-13	NaN
711	1.000000	0.252609	7.37201e+06	-41539.1	1005.82	-29785.9	0.000000	0.000000	6.252835	0.014999	NaN	0.000000	0.001636	0.001690	28.0827	0.079312	0.001980	40.0643	0.147998	10.5159	0.009199	0.251269	-0.841291	-0.842631	0.014999	40.0643	-0.841572	-1.646591E+11	-9.109359E-14	NaN
711	1.000000	0.262634	7.37201e+06	-41539.1	1005.82	-29785.9	0.000000	0.000000	6.262860	0.020940	NaN	0.000000	0.001630	0.001672	28.0827	0.102062	0.001874	54.4567	-63.0608	-168.959	0.084640	0.261258	-0.831267	-0.832642	0.020940	54.4567	-0.831555	-1.204654E+11	-1.738218E-13	NaN
711	1.000000	0.272629	7.37201e+06	-41539.1	1005.82	-29785.9	0.000000	0.000000	6.272851	-0.073481	NaN	0.000000	0.001613	0.001671	28.0838	0.112595	0.002078	54.1757	79.1307	15.6794	-0.056515	0.271290	-0.821271	-0.822611	-0.073481	54.1757	-0.820254	-8.465556E+10	8.679938E-13	NaN
711	1.000000	0.282615	7.37201e+06	-41539.1	1005.82	-29785.9	0.000000	0.000000	6.282841	0.008914	NaN	0.000000	0.001636	0.001698	28.0837	0.060175	0.001905	31.5861	-84.7354	-165.137	-0.003444	0.281255	-0.811285	-0.812645	0.008914	31.5861	-0.811497	-6.439893E+10	-1.384221E-13	NaN
711	1.000000	0.292592	7.37201e+06	-41539.1	1005.82	-29785.9	0.000000	0.000000	6.292816	-0.031710	NaN	0.000000	0.001647	0.001697	28.0837	0.110585	0.002074	53.3281	117.912	13.43	-0.048906	0.291255	-0.801308	-0.802645	-0.031710	53.3281	-0.800862	-4.619200E+10	6.864834E-13	NaN
711	1.000000	0.302635	7.37201e+06	-41539.1	1005.82	-29785.9	0.000000	0.000000	6.302857	-0.083680	NaN	0.000000	0.001610	0.001689	28.0837	0.025912	0.002063	12.5599	132.971	-165.401	-0.049263	0.301286	-0.791265	-0.792614	-0.083680	12.5599	-0.786268	-2.926834E+10	2.859066E-12	NaN
711	1.000000	0.312652	7.37201e+06	-41539.1	1005.82	-29785.9	0.000000	0.000000	6.312877	0.000342	NaN	0.000000	0.001614	0.001672	28.0837	0.143259	0.002020	70.9102	42.2029	13.597	-0.124650	0.311279	-0.781248	-0.782621	0.000342	70.9102	-0.781252	-2.501752E+10	-1.368364E-14	NaN
711	1.000000	0.322633	7.37201e+06	-41539.1	1005.82	-29785.9	0.000000	0.000000	6.322858	-0.008219	NaN	0.000000	0.001642	0.001688	28.0838	0.010822	0.001951	5.545907	-46.8617	-168.511	-0.048319	0.321317	-0.771267	-0.772583	-0.008219	5.545907	-0.770156	-1.767764E+10	4.649113E-13	NaN
711	1.000000	0.332629	7.37201e+06	-41539.1	1005.82	-29785.9	0.000000	0.000000	6.332853	-0.025181	NaN	0.000000	0.001636	0.001700	28.0838	0.072906	0.002076	35.1209	-178.884	14.3378	-0.084210	0.331279	-0.761272	-0.762622	-0.025181	35.1209	-0.760734	-1.316087E+10	1.913311E-12	NaN
711	1.000000	0.342657	7.37201e+06	-41539.1	1005.82	-29785.9	0.000000	0.000000	6.342882	-0.007069	NaN	0.000000	0.001639	0.001715	28.0836	0.058727	0.002133	27.5268	-60.5749	-167.943	-0.068110	0.341308	-0.751243	-0.752593	-0.007069	27.5268	-0.751051	-9.716729E+9	7.275428E-13	NaN
711	1.000000	0.352641	7.37201e+06	-41539.1	1005.82	-29785.9	0.000000	0.000000	6.352865	-0.042877	NaN	0.000000	0.001661	0.001700	28.0836	0.130886	0.002185	59.9029	-158.842	14.3546	0.009583	0.351304	-0.741259	-0.742597	-0.042877	59.9029	-0.740722	-7.028958E+9	6.100069E-12	NaN
711	1.000000	0.362647	7.37201e+06	-41539.1	1005.82	-29785.9	0.000000	0.000000	6.362873	0.022238	NaN	0.000000	0.001644	0.001723	28.0834	0.018990	0.001949	9.745235	162.524	-165.299	-0.006639	0.361383	-0.731254	-0.732517	0.022238	9.745235	-0.732965	-5.510819E+9	-4.035357E-12	NaN
711	1.000000	0.372692	7.37201e+06	-41539.1	1005.82	-29785.9	0.000000	0.000000	6.372918	0.006852	NaN	0.000000	0.001626	0.001705	28.0837	0.088221	0.002015	43.7835	80.8577	15.8682	0.039771	0.371317	-0.721208	-0.722583	0.006852	43.7835	-0.721325	-3.824251E+9	-1.791845E-12	NaN
711	1.000000	0.382661	7.37201e+06	-41539.1	1005.82	-29785.9	0.000000	0.000000	6.382885	-0.025321	NaN	0.000000	0.001653	0.001703	28.0834	0.038904	0.001993	19.5168	-129.779	-165.256	-0.024122	0.381418	-0.711240	-0.712482	-0.025321	19.5168	-0.710267	-2.702016E+9	9.371203E-12	NaN
711	1.000000	0.392652	7.37201e+06	-41539.1	1005.82	-29785.9	0.000000	0.000000	6.392876	-0.025794	NaN	0.000000	0.001638	0.001667	28.0836	0.020814	0.002000	10.4048	-97.2547	16.0462	-0.065459	0.391271	-0.701248	-0.702629	-0.025794	10.4048	-0.699389	-1.919493E+9	1.343807E-11	NaN
711	1.000000	0.402651	7.37201e+06	-41539.1	1005.82	-29785.9	0.000000	0.000000	6.402877	0.001131	NaN	0.000000	0.001634	0.001703	28.0841	0.053305	0.001995	26.7132	146.536	-165.304	-0.010276	0.401363	-0.691249	-0.692537	0.001131	26.7132	-0.691281	-1.487368E+9	-7.604330E-13	NaN
711	1.000000	0.412678	7.37201e+06	-41539.1	1005.82	-29785.9	0.000000	0.000000	6.412907	0.070323	NaN	0.000000	0.001651	0.001708	28.0824	0.037439	0.001865	20.0711	-177.898	15.7126	0.040940	0.411360	-0.681222	-0.682540	0.070323	20.0711	-0.683850	-1.177190E+9	-5.973818E-11	NaN
711	1.000000	0.422694	7.37201e+06	-41539.1	1005.82	-29785.9	0.000000	0.000000	6.422921	0.050196	NaN	0.000000	0.001646	0.001717	28.0822	0.034730	0.002083	16.6733	-90.2377	-163.865	-0.033080	0.421367	-0.671206	-0.672533	0.050196	16.6733	-0.673464	-8.487861E+8	-5.913903E-11	NaN
711	1.000000	0.432685	7.37201e+06	-41539.1	1005.82	-29785.9	0.000000	0.000000	6.432909	-0.031491	NaN	0.000000	0.001596	0.001772	28.0823	0.040335	0.001968	20.4913	169.404	15.5563	-0.034979	0.431284	-0.661215	-0.662616	-0.031491	20.4913	-0.660063	-5.563264E+8	5.660444E-11	NaN
711	1.000000	0.442711	7.37201e+06	-41539.1	1005.82	-29785.9	0.000000	0.000000	6.442937	0.011498	NaN	0.000000	0.001595	0.001769	28.0823	0.077328	0.001914	40.3941	-4.704367	-165.819	-0.125490	0.441425	-0.651189	-0.652475	0.011498	40.3941	-0.651403	-4.233173E+8	-2.716236E-11	NaN
711	1.000000	0.452679	7.37201e+06	-41539.1	1005.82	-29785.9	0.000000	0.000000	6.452906	0.043723	NaN	0.000000	0.001615	0.001746	28.0821	0.033613	0.001984	16.9455	153.454	14.0106	0.107987	0.451347	-0.641221	-0.642553	0.043723	16.9455	-0.643156	-3.262792E+8	-1.340051E-10	NaN
711	1.000000	0.462713	7.37201e+06	-41539.1	1005.82	-29785.9	0.000000	0.000000	6.462939	0.015506	NaN	0.000000	0.001609	0.001743	28.0822	0.147381	0.001878	78.4604	79.7403	-166.284	0.015153	0.461436	-0.631187	-0.632465	0.015506	78.4604	-0.631335	-2.245734E+8	-6.904616E-11	NaN
711	1.000000	0.472705	7.37201e+06	-41539.1	1005.82	-29785.9	0.000000	0.000000	6.472931	0.017294	NaN	0.000000	0.001602	0.001716	28.0822	0.033517	0.002061	16.2625	24.1683	17.0408	0.050736	0.471341	-0.621195	-0.622559	0.017294	16.2625	-0.621993	-1.671174E+8	-1.034863E-10	NaN
711	1.000000	0.482698	7.37201e+06	-41539.1	1005.82	-29785.9	0.000000	0.000000	6.482924	0.014397	NaN	0.000000	0.001596	0.001702	28.0824	0.060042	0.002038	29.4612	38.9281	-166.218	0.011974	0.481388	-0.611202	-0.612512	0.014397	29.4612	-0.611569	-1.201424E+8	-1.198311E-10	NaN
711	1.000000	0.492734	7.37201e+06	-41539.1	1005.82	-29785.9	0.000000	0.000000	6.492961	0.028998	NaN	0.000000	0.001616	0.001701	28.0823	0.066517	0.001975	33.6788	84.7879	15.7763	-0.019284	0.491411	-0.601166	-0.602489	0.028998	33.6788	-0.601812	-8.818918E+7	-3.288203E-10	NaN
711	1.000000	0.502709	7.37201e+06	-41539.1	1005.82	-29785.9	0.000000	0.000000	6.502935	0.030168	NaN	0.000000	0.001603	0.001708	28.0824	0.097160	0.002027	47.9421	130.54	-166.757	-0.069200	0.501383	-0.591192	-0.592517	0.030168	47.9421	-0.591664	-6.391453E+7	-4.720118E-10	NaN
711	1.000000	0.512745	7.37201e+06	-41539.1	1005.82	-29785.9	0.000000	0.000000	6.512969	-0.025779	NaN	0.000000	0.001630	0.001712	28.0825	0.116643	0.001987	58.6886	167.995	14.9051	-0.006561	0.511343	-0.581156	-0.582557	-0.025779	58.6886	-0.580826	-4.530308E+7	5.690390E-10	NaN
711	1.000000	0.522738	7.37201e+06	-41539.1	1005.82	-29785.9	0.000000	0.000000	6.522962	-0.039311	NaN	0.000000	0.001633	0.001716	28.0823	0.074446	0.002019	36.8691	-69.6442	-161.203	-0.088925	0.521390	-0.571162	-0.572510	-0.039311	36.8691	-0.570363	-3.248204E+7	1.210227E-9	NaN
711	1.000000	0.532714	7.37201e+06	-41539.1	1005.82	-29785.9	0.000000	0.000000	6.532938	-0.030995	NaN	0.000000	0.001619	0.001718	28.0825	0.040941	0.002125	19.2655	-155.44	13.1532	0.003510	0.531333	-0.561186	-0.562568	-0.030995	19.2655	-0.559980	-2.333980E+7	1.327977E-9	NaN
711	1.000000	0.542742	7.37201e+06	-41539.1	1005.82	-29785.9	0.000000	0.000000	6.542966	-0.031919	NaN	0.000000	0.001662	0.001688	28.0821	0.059647	0.002141	27.8565	152.156	-163.946	0.075227	0.541413	-0.551159	-0.552487	-0.031919	27.8565	-0.550299	-1.714355E+7	1.861846E-9	NaN
711	1.000000	0.552753	7.37201e+06	-41539.1	1005.82	-29785.9	0.000000	0.000000	6.552979	-0.003469	NaN	0.000000	0.001660	0.001708	28.0838	0.066491	0.002119	31.3829	-60.2085	13.9313	0.044755	0.551343	-0.541147	-0.542557	-0.003469	31.3829	-0.541064	-1.276773E+7	2.716867E-10	NaN
711	1.000000	0.562728	7.37201e+06	-41539.1	1005.82	-29785.9	0.000000	0.000000	6.562955	0.034921	NaN	0.000000	0.001613	0.001689	28.0836	0.041751	0.002006	20.8146	-36.2229	-169.012	0.099639	0.561390	-0.531172	-0.532510	0.034921	20.8146	-0.532430	-9.68996e+06	-3.603808E-9	NaN
711	1.000000	0.572719	7.37201e+06	-41539.1	1005.82	-29785.9	0.000000	0.000000	6.572945	0.014784	NaN	0.000000	0.001638	0.001701	28.0836	0.063246	0.002022	31.2809	-110.144	14.9331	0.051599	0.571353	-0.521181	-0.522547	0.014784	31.2809	-0.521536	-6.83837e+06	-2.161929E-9	NaN
711	1.000000	0.582738	7.37201e+06	-41539.1	1005.82	-29785.9	0.000000	0.000000	6.582960	-0.065376	NaN	0.000000	0.001636	0.001703	28.0838	0.120048	0.001994	60.2041	-72.4978	-164.222	-0.052901	0.581447	-0.511163	-0.512453	-0.065376	60.2041	-0.510348	-4.77821e+06	1.368204E-8	NaN
711	1.000000	0.592765	7.37201e+06	-41539.1	1005.82	-29785.9	0.000000	0.000000	6.592994	0.069257	NaN	0.000000	0.001637	0.001744	28.0838	0.105859	0.001926	54.9691	86.319	12.7883	0.106455	0.591394	-0.501135	-0.502507	0.069257	54.9691	-0.502080	-3.66462e+06	-1.889884E-8	NaN
711	1.000000	0.602746	7.37201e+06	-41539.1	1005.82	-29785.9	0.000000	0.000000	6.602970	-0.029038	NaN	0.000000	0.001628	0.001720	28.0839	0.164744	0.001947	84.6248	-81.6303	-166.877	-0.014100	0.601485	-0.491154	-0.492415	-0.029038	84.6248	-0.490897	-2.55816e+06	1.135096E-8	NaN
711	1.000000	0.612756	7.37201e+06	-41539.1	1005.82	-29785.9	0.000000	0.000000	6.612980	-0.015044	NaN	0.000000	0.001610	0.001748	28.0837	0.092049	0.002073	44.3951	-169.876	17.6679	-0.068674	0.611455	-0.481145	-0.482446	-0.015044	44.3951	-0.480890	-1.8535e+06	8.116612E-9	NaN
711	1.000000	0.622726	7.37201e+06	-41539.1	1005.82	-29785.9	0.000000	0.000000	6.622953	0.021698	NaN	0.000000	0.001609	0.001701	28.0838	0.086356	0.002086	41.3938	-99.1121	-166.508	-0.017982	0.621487	-0.471174	-0.472414	0.021698	41.3938	-0.471567	-1.37208e+06	-1.581419E-8	NaN
711	1.000000	0.632753	7.37201e+06	-41539.1	1005.82	-29785.9	0.000000	0.000000	6.632979	0.002854	NaN	0.000000	0.001579	0.001749	28.0834	0.084072	0.002012	41.7912	-57.5489	15.1841	0.017973	0.631351	-0.461147	-0.462549	0.002854	41.7912	-0.461198	-981425	-2.907667E-9	NaN
711	1.000000	0.642760	7.37201e+06	-41539.1	1005.82	-29785.9	0.000000	0.000000	6.642986	0.015437	NaN	0.000000	0.001584	0.001736	28.0837	0.036741	0.002117	17.3576	-154.084	-163.178	-0.007167	0.641508	-0.451140	-0.452392	0.015437	17.3576	-0.451807	-724087	-2.131871E-8	NaN
711	1.000000	0.652769	7.37201e+06	-41539.1	1005.82	-29785.9	0.000000	0.000000	6.652995	0.015723	NaN	0.000000	0.001594	0.001719	28.0835	0.086482	0.002036	42.4796	169.768	12.0266	-0.022616	0.651387	-0.441131	-0.442513	0.015723	42.4796	-0.441409	-516709	-3.042968E-8	NaN
711	1.000000	0.662791	7.37201e+06	-41539.1	1005.82	-29785.9	0.000000	0.000000	6.663015	-0.035786	NaN	0.000000	0.001596	0.001730	28.0838	0.052660	0.001951	26.985	93.1642	-163.825	-0.049839	0.661424	-0.431109	-0.432476	-0.035786	26.985	-0.430114	-357831	1.000080E-7	NaN
711	1.000000	0.672811	7.37201e+06	-41539.1	1005.82	-29785.9	0.000000	0.000000	6.673034	-0.044265	NaN	0.000000	0.001618	0.001723	28.0835	0.018397	0.001894	9.712939	132.905	15.5937	0.006462	0.671383	-0.421090	-0.422517	-0.044265	9.712939	-0.417672	-238443	1.856403E-7	NaN
711	1.000000	0.682788	7.37201e+06	-41539.1	1005.82	-29785.9	0.000000	0.000000	6.683012	-0.042409	NaN	0.000000	0.001607	0.001743	28.0822	0.103075	0.001919	53.7141	-113.575	-165.455	-0.089005	0.681404	-0.411112	-0.412496	-0.042409	53.7141	-0.410520	-188711	2.247295E-7	NaN
711	1.000000	0.692815	7.37201e+06	-41539.1	1005.82	-29785.9	0.000000	0.000000	6.693040	-0.013812	NaN	0.000000	0.001634	0.001714	28.0825	0.051915	0.001996	26.0129	132.469	12.7994	0.029210	0.691364	-0.401085	-0.402537	-0.013812	26.0129	-0.400687	-136708	1.010312E-7	NaN
711	1.000000	0.702784	7.37201e+06	-41539.1	1005.82	-29785.9	0.000000	0.000000	6.703008	-0.026592	NaN	0.000000	0.001586	0.001750	28.0825	0.062668	0.002084	30.0719	84.4157	-169.363	-0.061171	0.701471	-0.391117	-0.392430	-0.026592	30.0719	-0.390453	-97645.6	2.723294E-7	NaN
711	1.000000	0.712816	7.37201e+06	-41539.1	1005.82	-29785.9	0.000000	0.000000	6.713042	0.020995	NaN	0.000000	0.001594	0.001717	28.0822	0.110054	0.001896	58.0571	168.106	14.4952	0.013218	0.711397	-0.381084	-0.382504	0.020995	58.0571	-0.381356	-72333.3	-2.902471E-7	NaN
711	1.000000	0.722801	7.37201e+06	-41539.1	1005.82	-29785.9	0.000000	0.000000	6.723027	0.008779	NaN	0.000000	0.001590	0.001745	28.0823	0.086977	0.002002	43.4443	104.116	-167.673	-0.038114	0.721482	-0.371099	-0.372419	0.008779	43.4443	-0.371250	-51776.2	-1.695520E-7	NaN
711	1.000000	0.732801	7.37201e+06	-41539.1	1005.82	-29785.9	0.000000	0.000000	6.733028	0.027421	NaN	0.000000	0.001588	0.001747	28.0824	0.059915	0.002141	27.9809	-179.454	18.0211	-0.013770	0.731463	-0.361099	-0.362438	0.027421	27.9809	-0.361834	-37874.8	-7.239787E-7	NaN
711	1.000000	0.742814	7.37201e+06	-41539.1	1005.82	-29785.9	0.000000	0.000000	6.743038	-0.034663	NaN	0.000000	0.001592	0.001720	28.0824	0.086407	0.002027	42.6322	-109.115	-165.858	-0.024754	0.741534	-0.351086	-0.352366	-0.034663	42.6322	-0.350477	-25937	1.336420E-6	NaN
711	1.000000	0.752810	7.37201e+06	-41539.1	1005.82	-29785.9	0.000000	0.000000	6.753038	0.063371	NaN	0.000000	0.001591	0.001714	28.0823	0.111196	0.002051	54.2271	-94.6304	16.2804	0.060468	0.751440	-0.341090	-0.342460	0.063371	54.2271	-0.341967	-19507.9	-3.248462E-6	NaN
711	1.000000	0.762838	7.37201e+06	-41539.1	1005.82	-29785.9	0.000000	0.000000	6.763061	-0.056660	NaN	0.000000	0.001560	0.001749	28.0823	0.085426	0.001969	43.3778	-135.57	-165.882	-0.030246	0.761496	-0.331062	-0.332405	-0.056660	43.3778	-0.330082	-13081.5	4.331296E-6	NaN
711	1.000000	0.772823	7.37201e+06	-41539.1	1005.82	-29785.9	0.000000	0.000000	6.773048	-0.011986	NaN	0.000000	0.001586	0.001748	28.0823	0.089449	0.002001	44.6949	136.715	15.9397	0.013674	0.771433	-0.321077	-0.322467	-0.011986	44.6949	-0.320876	-9583.64	1.250671E-6	NaN
711	1.000000	0.782853	7.37201e+06	-41539.1	1005.82	-29785.9	0.000000	0.000000	6.783076	-0.073398	NaN	0.000000	0.001591	0.001742	28.0821	0.105591	0.001972	53.5502	135.635	-162.461	-0.031525	0.781465	-0.311047	-0.312435	-0.073398	53.5502	-0.310019	-6627.32	1.107511E-5	NaN
711	1.000000	0.792839	7.37201e+06	-41539.1	1005.82	-29785.9	0.000000	0.000000	6.793060	-0.099900	NaN	0.000000	0.001539	0.001730	28.0824	0.081867	0.002075	39.4608	3.952023	15.5185	-0.085797	0.791432	-0.301061	-0.302468	-0.099900	39.4608	-0.299163	-4572.65	2.184727E-5	NaN
711	1.000000	0.802860	7.37201e+06	-41539.1	1005.82	-29785.9	0.000000	0.000000	6.803085	-0.008563	NaN	0.000000	0.001543	0.001707	28.0825	0.014016	0.002031	6.901614	175.077	-170.25	-0.030478	0.801530	-0.291041	-0.292370	-0.008563	6.901614	-0.290110	-3349.29	2.556793E-6	NaN
711	1.000000	0.812823	7.37201e+06	-41539.1	1005.82	-29785.9	0.000000	0.000000	6.813050	0.024919	NaN	0.000000	0.001598	0.001725	28.0824	0.076879	0.001969	39.0537	-45.9158	17.0095	-0.090698	0.811497	-0.281077	-0.282403	0.024919	39.0537	-0.281556	-2491.3	-1.000246E-5	NaN
711	1.000000	0.822847	7.37201e+06	-41539.1	1005.82	-29785.9	0.000000	0.000000	6.823068	-0.089664	NaN	0.000000	0.001585	0.001710	28.0837	0.117442	0.002035	57.7044	-82.4563	-167.573	-0.109847	0.821510	-0.271054	-0.272390	-0.089664	57.7044	-0.269888	-1659	5.404694E-5	NaN
711	1.000000	0.832849	7.37201e+06	-41539.1	1005.82	-29785.9	0.000000	0.000000	6.833072	-0.058161	NaN	0.000000	0.001576	0.001721	28.0838	0.059725	0.002080	28.7204	14.0001	13.9914	0.003539	0.831504	-0.261051	-0.262396	-0.058161	28.7204	-0.259532	-1152.79	5.045227E-5	NaN
711	1.000000	0.842837	7.37201e+06	-41539.1	1005.82	-29785.9	0.000000	0.000000	6.843062	-0.004415	NaN	0.000000	0.001581	0.001730	28.0838	0.119826	0.001883	63.6196	-32.7791	-165.589	-0.027758	0.841553	-0.251063	-0.252347	-0.004415	63.6196	-0.251011	-852.315	5.179860E-6	NaN
711	1.000000	0.852862	7.37201e+06	-41539.1	1005.82	-29785.9	0.000000	0.000000	6.853085	-0.056668	NaN	0.000000	0.001632	0.001697	28.0838	0.014274	0.001966	7.259407	138.62	17.5877	-0.027118	0.851501	-0.241038	-0.242399	-0.056668	7.259407	-0.235183	-483.201	0.000117	NaN
711	1.000000	0.862856	7.37201e+06	-41539.1	1005.82	-29785.9	0.000000	0.000000	6.863081	-0.014418	NaN	0.000000	0.001619	0.001712	28.0838	0.111084	0.002036	54.5731	159.186	-166.735	-0.061852	0.861574	-0.231044	-0.232327	-0.014418	54.5731	-0.230846	-412.921	3.491735E-5	NaN
711	1.000000	0.872888	7.37201e+06	-41539.1	1005.82	-29785.9	0.000000	0.000000	6.873111	-0.058174	NaN	0.000000	0.001620	0.001710	28.084	0.004289	0.001837	2.334805	-66.3771	13.6441	-0.007314	0.871549	-0.221013	-0.222351	-0.058174	2.334805	-0.202326	-143.83	0.000404	NaN
711	1.000000	0.882899	7.37201e+06	-41539.1	1005.82	-29785.9	0.000000	0.000000	6.883123	-0.030454	NaN	0.000000	0.001636	0.001733	28.0838	0.087323	0.002004	43.5652	48.8022	-163.851	0.012649	0.881518	-0.211002	-0.212383	-0.030454	43.5652	-0.210477	-195.23	0.000156	NaN
711	1.000000	0.892864	7.37201e+06	-41539.1	1005.82	-29785.9	0.000000	0.000000	6.893090	0.008024	NaN	0.000000	0.001646	0.001745	28.084	0.064264	0.002148	29.9209	-63.7252	15.7785	-0.031638	0.891525	-0.201036	-0.202375	0.008024	29.9209	-0.201237	-138.043	-5.812826E-5	NaN
711	1.000000	0.902882	7.37201e+06	-41539.1	1005.82	-29785.9	0.000000	0.000000	6.903108	0.014657	NaN	0.000000	0.001660	0.001717	28.0836	0.142249	0.002090	68.0776	136.381	-165.106	-0.025393	0.901605	-0.191018	-0.192295	0.014657	68.0776	-0.191180	-94.1272	-0.000156	NaN
711	1.000000	0.912886	7.37201e+06	-41539.1	1005.82	-29785.9	0.000000	0.000000	6.913112	0.009361	NaN	0.000000	0.001602	0.001755	28.0837	0.111547	0.001943	57.4021	-5.881072	12.4499	0.067582	0.911524	-0.181014	-0.182376	0.009361	57.4021	-0.181137	-63.795	-0.000147	NaN
711	1.000000	0.922881	7.37201e+06	-41539.1	1005.82	-29785.9	0.000000	0.000000	6.923107	0.001405	NaN	0.000000	0.001624	0.001694	28.0836	0.031614	0.001943	16.2663	78.971	-164.698	0.039577	0.921583	-0.171019	-0.172317	0.001405	16.2663	-0.171084	-42.8957	-3.275185E-5	NaN
711	1.000000	0.932891	7.37201e+06	-41539.1	1005.82	-29785.9	0.000000	0.000000	6.933117	0.020463	NaN	0.000000	0.001665	0.001726	28.0836	0.089353	0.002145	41.6568	-88.2063	15.1608	0.047835	0.931498	-0.161009	-0.162402	0.020463	41.6568	-0.161378	-29.0021	-0.000706	NaN
711	1.000000	0.942909	7.37201e+06	-41539.1	1005.82	-29785.9	0.000000	0.000000	6.943138	0.068854	NaN	0.000000	0.001675	0.001725	28.0835	0.074173	0.002151	34.4765	-108.662	-164.289	-0.025927	0.941645	-0.150991	-0.152256	0.068854	34.4765	-0.152489	-20.102	-0.003425	NaN
711	1.000000	0.952873	7.37201e+06	-41539.1	1005.82	-29785.9	0.000000	0.000000	6.953100	0.025338	NaN	0.000000	0.001621	0.001758	28.0833	0.060572	0.001947	31.1151	122.244	14.3996	-0.046694	0.951517	-0.141027	-0.142383	0.025338	31.1151	-0.141638	-12.6955	-0.001996	NaN
711	1.000000	0.962902	7.37201e+06	-41539.1	1005.82	-29785.9	0.000000	0.000000	6.963129	0.023608	NaN	0.000000	0.001641	0.001681	28.0822	0.062552	0.002026	30.8718	34.0977	-165.607	-0.068718	0.961612	-0.130998	-0.132289	0.023608	30.8718	-0.131572	-8.174390	-0.002888	NaN
711	1.000000	0.972880	7.37201e+06	-41539.1	1005.82	-29785.9	0.000000	0.000000	6.973103	-0.062336	NaN	0.000000	0.001626	0.001761	28.0823	0.112083	0.001915	58.528	45.4877	13.0251	-0.019304	0.971553	-0.121020	-0.122348	-0.062336	58.528	-0.120221	-4.881454	0.012770	NaN
711	1.000000	0.982931	7.37201e+06	-41539.1	1005.82	-29785.9	0.000000	0.000000	6.983156	-0.008282	NaN	0.000000	0.001662	0.001703	28.0825	0.049617	0.001921	25.826	173.072	-164.94	-0.004733	0.981592	-0.110969	-0.112308	-0.008282	25.826	-0.110729	-3.113262	0.002660	NaN
711	1.000000	0.992920	7.37201e+06	-41539.1	1005.82	-29785.9	0.000000	0.000000	6.993144	-0.024866	NaN	0.000000	0.001653	0.001775	28.0823	0.106359	0.001986	53.5482	-171.318	15.4502	0.001449	0.991568	-0.100980	-0.102332	-0.024866	53.5482	-0.100632	-1.886952	0.013178	NaN
711	1.000000	1.002921	7.37201e+06	-41539.1	1005.82	-29785.9	0.000000	0.000000	7.003149	0.041236	NaN	0.000000	0.001701	0.001723	28.0823	0.049046	0.002034	24.1165	-160.522	-163.798	0.061589	1.001605	-0.090979	-0.092295	0.041236	24.1165	-0.092261	-1.220440	-0.033788	NaN
711	1.000000	1.012926	7.37201e+06	-41539.1	1005.82	-29785.9	0.000000	0.000000	7.013151	-0.012512	NaN	0.000000	0.001691	0.001758	28.0824	0.053608	0.002007	26.7102	21.099	11.7042	-0.064085	1.011570	-0.080974	-0.082330	-0.012512	26.7102	-0.080623	-0.641546	0.019504	NaN
711	1.000000	1.022918	7.37201e+06	-41539.1	1005.82	-29785.9	0.000000	0.000000	7.023142	-0.019461	NaN	0.000000	0.001699	0.001732	28.0825	0.061272	0.002076	29.5173	-63.0746	-166.598	-0.025251	1.021610	-0.070982	-0.072290	-0.019461	29.5173	-0.070488	-0.351514	0.055363	NaN
711	1.000000	1.032952	7.37201e+06	-41539.1	1005.82	-29785.9	0.000000	0.000000	7.033176	-0.036581	NaN	0.000000	0.001680	0.001711	28.0823	0.135772	0.002017	67.3088	11.5795	14.1881	-0.033593	1.031544	-0.060948	-0.062356	-0.036581	67.3088	-0.060540	-0.186627	0.196012	NaN
711	1.000000	1.042937	7.37201e+06	-41539.1	1005.82	-29785.9	0.000000	0.000000	7.043165	0.058628	NaN	0.000000	0.001640	0.001690	28.0822	0.088045	0.002055	42.8411	-91.3039	-166.858	0.063045	1.041589	-0.050964	-0.052312	0.058628	42.8411	-0.051990	-0.104757	-0.559651	NaN
711	1.000000	1.052911	7.37201e+06	-41539.1	1005.82	-29785.9	0.000000	0.000000	7.053137	0.017562	NaN	0.000000	0.001644	0.001719	28.0823	0.049786	0.002077	23.9687	141.012	17.2935	-0.100698	1.051546	-0.040989	-0.042354	0.017562	23.9687	-0.041539	-0.050372	-0.348650	NaN
711	1.000000	1.062935	7.37201e+06	-41539.1	1005.82	-29785.9	0.000000	0.000000	7.063159	-0.043510	NaN	0.000000	0.001639	0.001744	28.0822	0.142607	0.001880	75.836	132.089	-163.525	-0.064244	1.061658	-0.030965	-0.032242	-0.043510	75.836	-0.030535	-0.023819	1.826678	NaN
711	1.000000	1.072965	7.37201e+06	-41539.1	1005.82	-29785.9	0.000000	0.000000	7.073190	-0.020932	NaN	0.000000	0.001643	0.001704	28.082	0.031053	0.001939	16.0127	-37.2941	14.5749	-0.015074	1.071586	-0.020935	-0.022315	-0.020932	16.0127	-0.019954	-0.012527	1.670858	NaN
711	1.000000	1.082937	7.37201e+06	-41539.1	1005.82	-29785.9	0.000000	0.000000	7.083161	-0.031860	NaN	0.000000	0.001619	0.001733	28.0821	0.062771	0.002038	30.8011	-15.9084	-164.291	-0.103248	1.081674	-0.010963	-0.012226	-0.031860	30.8011	-0.010188	-0.006495	4.905634	NaN
711	1.000000	1.092952	7.37201e+06	-41539.1	1005.82	-29785.9	0.000000	0.000000	7.093185	0.202359	NaN	0.000000	0.001616	0.001737	28.0835	0.495864	0.002105	235.532	6.783666	20.5619	0.038150	1.091615	-0.000949	-0.002285	0.202359	235.532	-0.001593	-0.001155	-175.194	NaN
711	2.000000	1.102346	7.37201e+06	-41539.1	1005.82	-29785.9	0.000000	0.000000	7.102928	8.674271	NaN	0.000000	0.001619	0.001689	28.0835	8.129132	0.001763	4610.6	14.5895	-175.416	8.460923	1.101590	0.008445	0.007689	8.674271	4610.6	0.007034	0.006068	1429.57	54077.5
711	2.000000	1.105030	7.37201e+06	-41539.1	1005.82	-29785.9	0.000000	0.000000	7.105686	10.4685	NaN	0.000000	0.001593	0.001704	28.0836	11.0206	0.001581	6972	5.971464	7.225943	9.907995	1.104578	0.011130	0.010677	10.4685	6972	0.010004	0.009186	1139.66	66462.3
711	2.000000	1.107500	7.37201e+06	-41539.1	1005.82	-29785.9	0.000000	0.000000	7.108343	15.0097	NaN	0.000000	0.001598	0.001688	28.0838	14.2602	0.001882	7579.08	8.191654	-175.375	15.2008	1.107122	0.013600	0.013222	15.0097	7579.08	0.012115	0.011628	1290.85	64215.8
711	2.000000	1.109966	7.37201e+06	-41539.1	1005.82	-29785.9	0.000000	0.000000	7.110815	15.1725	NaN	0.000000	0.001637	0.001699	28.0833	15.7258	0.001943	8092.29	8.462655	5.001869	14.6926	1.109609	0.016066	0.015709	15.1725	8092.29	0.014660	0.014834	1022.81	60703.3
711	2.000000	1.112453	7.37201e+06	-41539.1	1005.82	-29785.9	0.000000	0.000000	7.113537	20.9	NaN	0.000000	0.001614	0.001741	28.0838	18.1916	0.001827	9958.51	6.191712	-173.273	22.0808	1.112062	0.018552	0.018162	20.9	9958.51	0.016978	0.018015	1160.16	67788.2
711	2.000000	1.114907	7.37201e+06	-41539.1	1005.82	-29785.9	0.000000	0.000000	7.116141	24.541	NaN	0.000000	0.001646	0.001737	28.0835	20.8478	0.001881	11085.9	3.819706	6.589313	22.7861	1.114555	0.021007	0.020655	24.541	11085.9	0.019346	0.021525	1140.09	69034.5
711	2.000000	1.117451	7.37201e+06	-41539.1	1005.82	-29785.9	0.000000	0.000000	7.118904	29.8725	NaN	0.000000	0.001587	0.001724	28.0838	23.4618	0.001788	13120.9	6.690382	-179.284	30.0217	1.117066	0.023551	0.023166	29.8725	13120.9	0.021843	0.025522	1170.48	75038.1
711	2.000000	1.119902	7.37201e+06	-41539.1	1005.82	-29785.9	0.000000	0.000000	7.121656	37.1873	NaN	0.000000	0.001576	0.001720	28.0837	25.6473	0.001699	15097.5	4.247358	3.822867	36.8963	1.119574	0.026002	0.025674	37.1873	15097.5	0.024154	0.029495	1260.8	80316.2
711	2.000000	1.122405	7.37201e+06	-41539.1	1005.82	-29785.9	0.000000	0.000000	7.124355	41.9449	NaN	0.000000	0.001592	0.001729	28.0835	28.0067	0.001790	15648.5	6.774559	-179.915	42.0094	1.122078	0.028505	0.028178	41.9449	15648.5	0.026495	0.033791	1241.29	77775.7
711	2.000000	1.124878	7.37201e+06	-41539.1	1005.82	-29785.9	0.000000	0.000000	7.127062	47.6681	NaN	0.000000	0.001584	0.001738	28.0835	30.9929	0.001804	17182.8	6.263947	-0.695727	45.5088	1.124534	0.030978	0.030633	47.6681	17182.8	0.028897	0.038489	1238.5	80020.6
711	2.000000	1.127364	7.37201e+06	-41539.1	1005.82	-29785.9	0.000000	0.000000	7.129741	52.3557	NaN	0.000000	0.001647	0.001730	28.0833	33.5338	0.001758	19076.1	3.346895	-179.416	50.6428	1.127138	0.033464	0.033237	52.3557	19076.1	0.031406	0.043707	1197.87	83365.2
711	2.000000	1.129899	7.37201e+06	-41539.1	1005.82	-29785.9	0.000000	0.000000	7.132783	64.6803	NaN	0.000000	0.001617	0.001706	28.084	34.9753	0.001889	18515.7	3.161284	2.491284	62.1552	1.129486	0.035999	0.035585	64.6803	18515.7	0.033379	0.048039	1346.41	77182.2
711	2.000000	1.132460	7.37201e+06	-41539.1	1005.82	-29785.9	0.000000	0.000000	7.135571	70.1911	NaN	0.000000	0.001593	0.001735	28.0833	37.9356	0.001850	20504.4	6.847867	179.046	72.7491	1.132010	0.038560	0.038110	70.1911	20504.4	0.035993	0.054083	1297.84	80554.8
711	2.000000	1.134891	7.37201e+06	-41539.1	1005.82	-29785.9	0.000000	0.000000	7.138332	78.2407	NaN	0.000000	0.001591	0.001720	28.0824	39.2762	0.001800	21818.3	4.336217	0.205365	78.9113	1.134509	0.040990	0.040609	78.2407	21818.3	0.038301	0.059711	1310.33	81576.9
711	2.000000	1.137366	7.37201e+06	-41539.1	1005.82	-29785.9	0.000000	0.000000	7.141063	84.4766	NaN	0.000000	0.001555	0.001724	28.0821	42.8244	0.001805	23721.4	5.442501	177.349	84.2522	1.137131	0.043466	0.043230	84.4766	23721.4	0.040795	0.066099	1278.04	84298.2
711	2.000000	1.139859	7.37201e+06	-41539.1	1005.82	-29785.9	0.000000	0.000000	7.144301	102.587	NaN	0.000000	0.001653	0.001715	28.0821	43.8594	0.001673	26215.6	3.160819	-0.363390	99.0578	1.139472	0.045959	0.045572	102.587	26215.6	0.043024	0.072076	1423.3	89214.7
711	2.000000	1.142332	7.37201e+06	-41539.1	1005.82	-29785.9	0.000000	0.000000	7.146882	105.22	NaN	0.000000	0.001625	0.001731	28.0821	46.3456	0.001808	25634.2	1.384441	-179.238	101.696	1.142058	0.048432	0.048158	105.22	25634.2	0.045353	0.078593	1338.8	83541.4
711	2.000000	1.144771	7.37201e+06	-41539.1	1005.82	-29785.9	0.000000	0.000000	7.150001	121.784	NaN	0.000000	0.001630	0.001712	28.0822	48.7638	0.001659	29386.8	2.580791	-2.147684	115.756	1.144469	0.050871	0.050569	121.784	29386.8	0.047763	0.085623	1422.33	91755.3
711	2.000000	1.147329	7.37201e+06	-41539.1	1005.82	-29785.9	0.000000	0.000000	7.152933	130.871	NaN	0.000000	0.001653	0.001714	28.0823	52.4636	0.001823	28773.2	4.728468	176.707	128.405	1.147071	0.053429	0.053171	130.871	28773.2	0.050018	0.092468	1415.32	86450.3
711	2.000000	1.149931	7.37201e+06	-41539.1	1005.82	-29785.9	0.000000	0.000000	7.155929	140.446	NaN	0.000000	0.001666	0.001696	28.0822	54.2981	0.001686	32210.2	6.626494	-6.302548	140.566	1.149587	0.056031	0.055687	140.446	32210.2	0.052761	0.101137	1388.67	92536.1
711	2.000000	1.152349	7.37201e+06	-41539.1	1005.82	-29785.9	0.000000	0.000000	7.158643	147.682	NaN	0.000000	0.001668	0.001729	28.0822	55.9552	0.001825	30653.6	-0.942184	-178.238	147.233	1.152123	0.058448	0.058223	147.682	30653.6	0.054835	0.107941	1368.17	85243.4
711	2.000000	1.154820	7.37201e+06	-41539.1	1005.82	-29785.9	0.000000	0.000000	7.161624	160.075	NaN	0.000000	0.001627	0.001751	28.0821	60.07	0.001865	32204.7	3.667602	-3.221706	157.066	1.154509	0.060919	0.060608	160.075	32204.7	0.057191	0.115930	1380.78	86416
711	2.000000	1.157444	7.37201e+06	-41539.1	1005.82	-29785.9	0.000000	0.000000	7.164837	174.397	NaN	0.000000	0.001588	0.001741	28.0821	63.0276	0.001945	32397.7	8.495915	173	179.512	1.157065	0.063544	0.063165	174.397	32397.7	0.059507	0.124046	1405.9	84041.9
711	2.000000	1.159806	7.37201e+06	-41539.1	1005.82	-29785.9	0.000000	0.000000	7.167710	186.841	NaN	0.000000	0.001601	0.001767	28.0821	63.223	0.001786	35394.5	1.734452	-1.858346	182.1	1.159553	0.065906	0.065652	186.841	35394.5	0.061947	0.132881	1406.08	88711
711	2.000000	1.162356	7.37201e+06	-41539.1	1005.82	-29785.9	0.000000	0.000000	7.171124	207.857	NaN	0.000000	0.001605	0.001754	28.0824	64.9328	0.001744	37236	1.979354	177.827	207.707	1.162019	0.068456	0.068118	207.857	37236	0.064269	0.141560	1468.34	90420.4
711	2.000000	1.164744	7.37201e+06	-41539.1	1005.82	-29785.9	0.000000	0.000000	7.173669	211.69	NaN	0.000000	0.001614	0.001742	28.0821	67.8135	0.001830	37065	-0.600928	0.101384	205.42	1.164330	0.070843	0.070429	211.69	37065	0.066560	0.150377	1407.73	87326.8
711	2.000000	1.167318	7.37201e+06	-41539.1	1005.82	-29785.9	0.000000	0.000000	7.177262	236.484	NaN	0.000000	0.001613	0.001722	28.0827	70.6824	0.001754	40290.8	2.009907	177.005	234.099	1.167022	0.073418	0.073122	236.484	40290.8	0.069016	0.160106	1477.04	91997.3
711	2.000000	1.169823	7.37201e+06	-41539.1	1005.82	-29785.9	0.000000	0.000000	7.180360	250.886	NaN	0.000000	0.001611	0.001754	28.0833	72.7222	0.001796	40496.2	4.462537	-5.456125	245.892	1.169405	0.075923	0.075505	250.886	40496.2	0.071277	0.169320	1481.73	89915.2
711	2.000000	1.172294	7.37201e+06	-41539.1	1005.82	-29785.9	0.000000	0.000000	7.183445	265.838	NaN	0.000000	0.001640	0.001770	28.084	74.9256	0.001760	42573.7	3.569681	174.633	264.063	1.172033	0.078394	0.078133	265.838	42573.7	0.073711	0.179510	1480.91	91805.8
711	2.000000	1.174787	7.37201e+06	-41539.1	1005.82	-29785.9	0.000000	0.000000	7.186430	277.809	NaN	0.000000	0.001657	0.001728	28.0833	77.7057	0.001634	47557.4	1.941824	-4.624763	272.616	1.174459	0.080887	0.080559	277.809	47557.4	0.076506	0.191555	1450.28	99275.9
711	2.000000	1.177334	7.37201e+06	-41539.1	1005.82	-29785.9	0.000000	0.000000	7.189704	295.51	NaN	0.000000	0.001603	0.001763	28.0838	82.2209	0.001829	44964.7	1.134232	177.137	295.843	1.177058	0.083434	0.083158	295.51	44964.7	0.078505	0.200394	1474.64	91770.5
711	2.000000	1.179813	7.37201e+06	-41539.1	1005.82	-29785.9	0.000000	0.000000	7.193022	315.914	NaN	0.000000	0.001636	0.001736	28.0834	84.2172	0.001796	46904.6	5.068844	-7.653997	311.62	1.179500	0.085913	0.085600	315.914	46904.6	0.080861	0.211056	1496.83	93280.2
711	2.000000	1.182248	7.37201e+06	-41539.1	1005.82	-29785.9	0.000000	0.000000	7.196355	337.768	NaN	0.000000	0.001651	0.001747	28.0839	85.5	0.001783	47949.8	1.430463	176.811	333.718	1.181872	0.088348	0.087972	337.768	47949.8	0.083065	0.221256	1526.6	93135
711	2.000000	1.184721	7.37201e+06	-41539.1	1005.82	-29785.9	0.000000	0.000000	7.199142	345.426	NaN	0.000000	0.001641	0.001702	28.0833	88.3615	0.001824	48436.8	4.701917	-7.654653	338.506	1.184478	0.090820	0.090578	345.426	48436.8	0.085472	0.232657	1484.7	91746.7
711	2.000000	1.187146	7.37201e+06	-41539.1	1005.82	-29785.9	0.000000	0.000000	7.202643	371.596	NaN	0.000000	0.001631	0.001737	28.0838	90.9322	0.001804	50416.6	5.546069	171.985	362.957	1.186880	0.093246	0.092979	371.596	50416.6	0.087718	0.243537	1525.83	93339.3
711	2.000000	1.189736	7.37201e+06	-41539.1	1005.82	-29785.9	0.000000	0.000000	7.206204	395.217	NaN	0.000000	0.001636	0.001708	28.0836	92.28	0.001770	52136.8	5.939903	-8.301930	388.091	1.189344	0.095836	0.095444	395.217	52136.8	0.090150	0.255582	1546.34	94222.1
711	2.000000	1.192331	7.37201e+06	-41539.1	1005.82	-29785.9	0.000000	0.000000	7.209443	410.894	NaN	0.000000	0.001650	0.001714	28.0839	93.6053	0.001765	53027.1	3.344242	174.195	413.206	1.191983	0.098431	0.098083	410.894	53027.1	0.092619	0.268084	1532.71	93569.8
711	2.000000	1.194727	7.37201e+06	-41539.1	1005.82	-29785.9	0.000000	0.000000	7.212589	429.142	NaN	0.000000	0.001650	0.001728	28.0835	97.3567	0.001706	57078.3	2.935364	-5.996450	423.336	1.194408	0.100826	0.100508	429.142	57078.3	0.095188	0.281386	1525.1	98309.1
711	2.000000	1.197237	7.37201e+06	-41539.1	1005.82	-29785.9	0.000000	0.000000	7.215915	448.988	NaN	0.000000	0.001663	0.001737	28.0837	100.725	0.001752	57506.1	4.386546	172.401	445.914	1.196927	0.103337	0.103026	448.988	57506.1	0.097481	0.293520	1529.67	96976.9
711	2.000000	1.199868	7.37201e+06	-41539.1	1005.82	-29785.9	0.000000	0.000000	7.219622	475.175	NaN	0.000000	0.001609	0.001744	28.0836	103.448	0.001828	56592.7	7.781209	-11.0447	474.593	1.199338	0.105968	0.105438	475.175	56592.7	0.099671	0.305324	1556.3	93573.7
711	2.000000	1.200738	7.37201e+06	-41539.1	1005.82	-29785.9	0.000000	0.000000	7.220664	479.351	NaN	0.000000	0.001627	0.001752	28.0836	105.044	0.001893	55487.6	6.830840	-10.3453	473.482	1.200429	0.106838	0.106528	479.351	55487.6	0.100359	0.309081	1550.89	91187.1