File: remote_trans/data/nanoindenter/0828-1/data/Data_2025-08-06,11h17m57s/2025-07-22_16-23-58_1_1147.txt
2025-07-22, 16:23:58, 1
Index	Phase	Displacement	Time	Pos X	Pos Y	Pos Z	Rot A	Rot B	Piezo Z	Force A	Force B	Gripper	Voltage A	Voltage B	Temperature	Amplitude force	Amplitude pos	Stiffness	Phase shift	Phase excitation	Force A raw	Displacement raw	HMax	HMax raw	Real Force	Real Stiffness	Contact Depth	Area	Hardness	Reduced Mod.
[#]	[#]	[um]	[s]	[um]	[um]	[um]	[m°]	[m°]	[um]	[uN]	[uN]	[V]	[V]	[V]	[°C]	[uN]	[um]	[N/m]	[°]	[°]	[uN]	[um]	[um]	[um]	[uN]	[N/m]	[um]	[um^2]	[MPa]	[MPa]
1147	1.000000	0.001800	7.37627e+06	-57489.1	1055.82	-29736.2	0.000000	0.000000	6.002785	0.021438	NaN	0.000000	0.001561	0.001668	28.0806	0.107169	0.000953	112.463	144.986	-162.287	-0.018129	0.000617	-1.736125	-1.737307	0.021438	112.463	-1.736268	-1.542182E+23	-1.390108E-25	NaN
1147	1.000000	0.013811	7.37627e+06	-57489.1	1055.82	-29736.2	0.000000	0.000000	6.014792	-0.060810	NaN	0.000000	0.001564	0.001681	28.0808	0.040985	0.001685	24.3269	-74.8141	-166.503	-0.012023	0.012595	-1.724114	-1.725330	-0.060810	24.3269	-1.722239	-1.004234E+23	6.055359E-25	NaN
1147	1.000000	0.025830	7.37627e+06	-57489.1	1055.82	-29736.2	0.000000	0.000000	6.026814	0.018833	NaN	0.000000	0.001563	0.001736	28.0806	0.065591	0.001905	34.44	88.4362	-165.109	0.028229	0.024500	-1.712095	-1.713425	0.018833	34.44	-1.712505	-7.456766E+22	-2.525663E-25	NaN
1147	1.000000	0.037775	7.37627e+06	-57489.1	1055.82	-29736.2	0.000000	0.000000	6.038760	0.032413	NaN	0.000000	0.001596	0.001754	28.0791	0.082161	0.002003	41.0284	143.506	-168.655	0.048418	0.036425	-1.700150	-1.701500	0.032413	41.0284	-1.700742	-5.203541E+22	-6.229025E-25	NaN
1147	1.000000	0.049747	7.37627e+06	-57489.1	1055.82	-29736.2	0.000000	0.000000	6.050735	0.081223	NaN	0.000000	0.001559	0.001703	28.0792	0.027687	0.001983	13.9602	120.502	-165.258	0.087340	0.048484	-1.688177	-1.689441	0.081223	13.9602	-1.692541	-4.049001E+22	-2.006004E-24	NaN
1147	1.000000	0.061787	7.37627e+06	-57489.1	1055.82	-29736.2	0.000000	0.000000	6.062776	0.124335	NaN	0.000000	0.001555	0.001705	28.0797	0.037432	0.002101	17.8201	-71.1401	-166.916	0.115355	0.060454	-1.676138	-1.677471	0.124335	17.8201	-1.681371	-2.877006E+22	-4.321689E-24	NaN
1147	1.000000	0.073769	7.37627e+06	-57489.1	1055.82	-29736.2	0.000000	0.000000	6.074754	0.037450	NaN	0.000000	0.001573	0.001699	28.0793	0.087022	0.002129	40.8784	-8.607385	-165.978	0.039171	0.072499	-1.664156	-1.665425	0.037450	40.8784	-1.664843	-1.735039E+22	-2.158476E-24	NaN
1147	1.000000	0.085805	7.37627e+06	-57489.1	1055.82	-29736.2	0.000000	0.000000	6.086791	0.062460	NaN	0.000000	0.001572	0.001743	28.0795	0.101302	0.001995	50.7779	168.841	-164.269	0.023716	0.084429	-1.652120	-1.653496	0.062460	50.7779	-1.653042	-1.209124E+22	-5.165725E-24	NaN
1147	1.000000	0.097753	7.37627e+06	-57489.1	1055.82	-29736.2	0.000000	0.000000	6.098736	-0.016895	NaN	0.000000	0.001561	0.001723	28.0794	0.009812	0.001996	4.915156	-18.6087	-168.639	-0.029305	0.096492	-1.640172	-1.641433	-0.016895	4.915156	-1.637594	-7.535504E+21	2.242067E-24	NaN
1147	1.000000	0.109798	7.37627e+06	-57489.1	1055.82	-29736.2	0.000000	0.000000	6.110784	0.069419	NaN	0.000000	0.001591	0.001699	28.0794	0.077365	0.002067	37.4231	118.046	-164.609	0.014458	0.108456	-1.628127	-1.629469	0.069419	37.4231	-1.629518	-5.885122E+21	-1.179572E-23	NaN
1147	1.000000	0.121812	7.37627e+06	-57489.1	1055.82	-29736.2	0.000000	0.000000	6.122799	0.096285	NaN	0.000000	0.001584	0.001714	28.0795	0.064563	0.001915	33.7128	-54.308	-163.177	0.062953	0.120471	-1.616113	-1.617454	0.096285	33.7128	-1.618255	-4.168671E+21	-2.309731E-23	NaN
1147	1.000000	0.133794	7.37627e+06	-57489.1	1055.82	-29736.2	0.000000	0.000000	6.134781	0.079994	NaN	0.000000	0.001582	0.001681	28.0793	0.056141	0.002077	27.0287	127.711	-163.904	0.058157	0.132518	-1.604131	-1.605407	0.079994	27.0287	-1.606350	-2.895241E+21	-2.762957E-23	NaN
1147	1.000000	0.145810	7.37627e+06	-57489.1	1055.82	-29736.2	0.000000	0.000000	6.146793	0.001105	NaN	0.000000	0.001555	0.001728	28.0793	0.157384	0.001989	79.1452	147.375	-164.892	0.035249	0.144502	-1.592115	-1.593423	0.001105	79.1452	-1.592126	-1.872798E+21	-5.901047E-25	NaN
1147	1.000000	0.157810	7.37627e+06	-57489.1	1055.82	-29736.2	0.000000	0.000000	6.158794	0.011828	NaN	0.000000	0.001556	0.001701	28.0793	0.151544	0.001923	78.8178	-100.742	-165.925	-0.003433	0.156499	-1.580115	-1.581426	0.011828	78.8178	-1.580228	-1.300823E+21	-9.092895E-24	NaN
1147	1.000000	0.169814	7.37627e+06	-57489.1	1055.82	-29736.2	0.000000	0.000000	6.170797	-0.033997	NaN	0.000000	0.001568	0.001706	28.0805	0.034160	0.002001	17.0702	-47.1654	-164.24	0.065834	0.168462	-1.568111	-1.569462	-0.033997	17.0702	-1.566617	-8.572834E+20	3.965651E-23	NaN
1147	1.000000	0.181813	7.37627e+06	-57489.1	1055.82	-29736.2	0.000000	0.000000	6.182799	0.063731	NaN	0.000000	0.001596	0.001684	28.0808	0.042622	0.002124	20.0696	81.2975	-164.628	0.012734	0.180508	-1.556112	-1.557417	0.063731	20.0696	-1.558494	-6.683912E+20	-9.534959E-23	NaN
1147	1.000000	0.193814	7.37627e+06	-57489.1	1055.82	-29736.2	0.000000	0.000000	6.194801	0.086923	NaN	0.000000	0.001607	0.001714	28.0808	0.148998	0.001881	79.2284	160.552	-164.016	0.061848	0.192488	-1.544111	-1.545437	0.086923	79.2284	-1.544934	-4.411302E+20	-1.970463E-22	NaN
1147	1.000000	0.205795	7.37627e+06	-57489.1	1055.82	-29736.2	0.000000	0.000000	6.206781	0.055749	NaN	0.000000	0.001565	0.001696	28.0806	0.058552	0.002087	28.0593	108.433	-165.062	0.136727	0.204500	-1.532130	-1.533425	0.055749	28.0593	-1.533620	-3.118659E+20	-1.787597E-22	NaN
1147	1.000000	0.217807	7.37627e+06	-57489.1	1055.82	-29736.2	0.000000	0.000000	6.218793	0.067001	NaN	0.000000	0.001547	0.001754	28.0807	0.071454	0.002088	34.2184	95.2409	-164.754	0.044577	0.216520	-1.520118	-1.521405	0.067001	34.2184	-1.521587	-2.156586E+20	-3.106827E-22	NaN
1147	1.000000	0.229847	7.37627e+06	-57489.1	1055.82	-29736.2	0.000000	0.000000	6.230830	-0.002512	NaN	0.000000	0.001523	0.001698	28.0805	0.050366	0.002012	25.0268	-123.511	-166.257	0.030428	0.228558	-1.508078	-1.509367	-0.002512	25.0268	-1.508003	-1.421979E+20	1.766741E-23	NaN
1147	1.000000	0.241830	7.37627e+06	-57489.1	1055.82	-29736.2	0.000000	0.000000	6.242816	0.068107	NaN	0.000000	0.001557	0.001729	28.0804	0.138968	0.001920	72.3863	151.586	-169.812	0.138461	0.240529	-1.496095	-1.497396	0.068107	72.3863	-1.496801	-1.008574E+20	-6.752818E-22	NaN
1147	1.000000	0.253852	7.37627e+06	-57489.1	1055.82	-29736.2	0.000000	0.000000	6.254837	0.035298	NaN	0.000000	0.001491	0.001744	28.0807	0.034909	0.001959	17.8222	-69.2996	-162.147	0.106193	0.252483	-1.484073	-1.485442	0.035298	17.8222	-1.485558	-7.144152E+19	-4.940773E-22	NaN
1147	1.000000	0.265840	7.37627e+06	-57489.1	1055.82	-29736.2	0.000000	0.000000	6.266823	-0.012618	NaN	0.000000	0.001527	0.001723	28.0808	0.012082	0.001948	6.201517	102.162	-166.822	-0.029528	0.264527	-1.472085	-1.473398	-0.012618	6.201517	-1.470559	-4.509409E+19	2.798105E-22	NaN
1147	1.000000	0.277866	7.37627e+06	-57489.1	1055.82	-29736.2	0.000000	0.000000	6.278849	-0.034751	NaN	0.000000	0.001560	0.001724	28.0809	0.114883	0.002025	56.7418	-58.9478	-164.715	-0.040786	0.276570	-1.460058	-1.461355	-0.034751	56.7418	-1.459599	-3.221652E+19	1.078660E-21	NaN
1147	1.000000	0.289892	7.37627e+06	-57489.1	1055.82	-29736.2	0.000000	0.000000	6.290877	0.039397	NaN	0.000000	0.001565	0.001711	28.0803	0.064664	0.001987	32.5475	-151.652	-163.754	0.104560	0.288603	-1.448033	-1.449322	0.039397	32.5475	-1.448941	-2.322905E+19	-1.696032E-21	NaN
1147	1.000000	0.301866	7.37627e+06	-57489.1	1055.82	-29736.2	0.000000	0.000000	6.302850	0.010775	NaN	0.000000	0.001579	0.001699	28.0801	0.127933	0.001992	64.2093	101.479	-163.555	0.060962	0.300615	-1.436059	-1.437310	0.010775	64.2093	-1.436185	-1.570334E+19	-6.861868E-22	NaN
1147	1.000000	0.313877	7.37627e+06	-57489.1	1055.82	-29736.2	0.000000	0.000000	6.314862	0.022551	NaN	0.000000	0.001575	0.001692	28.0792	0.070123	0.002130	32.9152	-103.196	-164.867	0.005166	0.312565	-1.424048	-1.425360	0.022551	32.9152	-1.424562	-1.099076E+19	-2.051772E-21	NaN
1147	1.000000	0.325885	7.37627e+06	-57489.1	1055.82	-29736.2	0.000000	0.000000	6.326867	-0.026092	NaN	0.000000	0.001552	0.001654	28.0789	0.050233	0.001819	27.6223	-67.6907	-166.4	0.022356	0.324583	-1.412040	-1.413342	-0.026092	27.6223	-1.411332	-7.321633E+18	3.563738E-21	NaN
1147	1.000000	0.337885	7.37627e+06	-57489.1	1055.82	-29736.2	0.000000	0.000000	6.338868	-0.019541	NaN	0.000000	0.001553	0.001682	28.0793	0.123343	0.002016	61.1875	-162.357	-165.533	0.016551	0.336587	-1.400040	-1.401338	-0.019541	61.1875	-1.399800	-5.138127E+18	3.803197E-21	NaN
1147	1.000000	0.349896	7.37628e+06	-57489.1	1055.82	-29736.2	0.000000	0.000000	6.350882	0.065997	NaN	0.000000	0.001573	0.001709	28.079	0.065564	0.002080	31.5149	-165.56	-162.538	0.047738	0.348583	-1.388029	-1.389342	0.065997	31.5149	-1.389600	-3.755974E+18	-1.757131E-20	NaN
1147	1.000000	0.361881	7.37628e+06	-57489.1	1055.82	-29736.2	0.000000	0.000000	6.362867	0.049199	NaN	0.000000	0.001553	0.001698	28.0791	0.041938	0.002019	20.774	-175.407	-165.423	-0.120550	0.360558	-1.376043	-1.377367	0.049199	20.774	-1.377820	-2.615449E+18	-1.881092E-20	NaN
1147	1.000000	0.373874	7.37628e+06	-57489.1	1055.82	-29736.2	0.000000	0.000000	6.374858	0.013590	NaN	0.000000	0.001566	0.001681	28.0794	0.024380	0.002026	12.0323	78.6909	-164.749	0.029567	0.372626	-1.364051	-1.365299	0.013590	12.0323	-1.364898	-1.758344E+18	-7.729084E-21	NaN
1147	1.000000	0.385900	7.37628e+06	-57489.1	1055.82	-29736.2	0.000000	0.000000	6.386890	0.158780	NaN	0.000000	0.001590	0.001657	28.0788	0.086810	0.002072	41.9066	89.9826	-165.122	0.122817	0.384594	-1.352025	-1.353331	0.158780	41.9066	-1.354867	-1.291823E+18	-1.229115E-19	NaN
1147	1.000000	0.397885	7.37628e+06	-57489.1	1055.82	-29736.2	0.000000	0.000000	6.398869	0.003896	NaN	0.000000	0.001575	0.001673	28.0791	0.056666	0.002114	26.8005	27.6512	-164.666	-0.008648	0.396595	-1.340040	-1.341330	0.003896	26.8005	-1.340149	-8.216865E+17	-4.741050E-21	NaN
1147	1.000000	0.409920	7.37628e+06	-57489.1	1055.82	-29736.2	0.000000	0.000000	6.410904	0.012959	NaN	0.000000	0.001580	0.001641	28.0791	0.013508	0.001952	6.919214	114.153	-165.373	-0.028905	0.408652	-1.328005	-1.329273	0.012959	6.919214	-1.329410	-5.905907E+17	-2.194252E-20	NaN
1147	1.000000	0.421941	7.37628e+06	-57489.1	1055.82	-29736.2	0.000000	0.000000	6.422926	0.024407	NaN	0.000000	0.001552	0.001667	28.0791	0.064938	0.001894	34.2899	47.5694	-168.057	0.033484	0.420618	-1.315984	-1.317307	0.024407	34.2899	-1.316518	-3.972729E+17	-6.143589E-20	NaN
1147	1.000000	0.433928	7.37628e+06	-57489.1	1055.82	-29736.2	0.000000	0.000000	6.434912	0.008534	NaN	0.000000	0.001570	0.001676	28.0791	0.055200	0.002043	27.0244	73.6417	-164.032	0.101847	0.432673	-1.303997	-1.305252	0.008534	27.0244	-1.304234	-2.722548E+17	-3.134613E-20	NaN
1147	1.000000	0.445934	7.37628e+06	-57489.1	1055.82	-29736.2	0.000000	0.000000	6.446917	-0.019000	NaN	0.000000	0.001565	0.001679	28.0805	0.008613	0.001988	4.331817	40.4804	-164.8	-0.025392	0.444651	-1.291991	-1.293274	-0.019000	4.331817	-1.288702	-1.688110E+17	1.125543E-19	NaN
1147	1.000000	0.457926	7.37628e+06	-57489.1	1055.82	-29736.2	0.000000	0.000000	6.458910	0.010726	NaN	0.000000	0.001578	0.001672	28.0807	0.053290	0.001973	27.0162	-100.451	-165.269	0.008756	0.456599	-1.279999	-1.281326	0.010726	27.0162	-1.280297	-1.303334E+17	-8.229397E-20	NaN
1147	1.000000	0.469925	7.37628e+06	-57489.1	1055.82	-29736.2	0.000000	0.000000	6.470911	0.060455	NaN	0.000000	0.001596	0.001655	28.0803	0.032756	0.002061	15.8961	-76.9685	-162.836	0.091191	0.468626	-1.268000	-1.269299	0.060455	15.8961	-1.270853	-9.745261E+16	-6.203527E-19	NaN
1147	1.000000	0.481937	7.37628e+06	-57489.1	1055.82	-29736.2	0.000000	0.000000	6.482924	0.063814	NaN	0.000000	0.001582	0.001656	28.0801	0.018402	0.001901	9.679523	-42.043	-160.448	-0.001078	0.480604	-1.255988	-1.257321	0.063814	9.679523	-1.260932	-7.180230E+16	-8.887452E-19	NaN
1147	1.000000	0.493983	7.37628e+06	-57489.1	1055.82	-29736.2	0.000000	0.000000	6.494967	-0.001822	NaN	0.000000	0.001558	0.001663	28.0803	0.062826	0.002071	30.342	-9.826438	-164.779	-0.031629	0.492679	-1.243942	-1.245246	-0.001822	30.342	-1.243897	-4.248872E+16	4.287992E-20	NaN
1147	1.000000	0.505954	7.37628e+06	-57489.1	1055.82	-29736.2	0.000000	0.000000	6.506934	-0.092167	NaN	0.000000	0.001538	0.001691	28.0803	0.122213	0.002094	58.3619	-143.08	-170.52	-0.115337	0.504701	-1.231971	-1.233224	-0.092167	58.3619	-1.230786	-2.837001E+16	3.248746E-18	NaN
1147	1.000000	0.517966	7.37628e+06	-57489.1	1055.82	-29736.2	0.000000	0.000000	6.518948	-0.040289	NaN	0.000000	0.001584	0.001682	28.0803	0.097260	0.002043	47.6108	-134.467	-167.502	0.003633	0.516683	-1.219959	-1.221242	-0.040289	47.6108	-1.219324	-1.992793E+16	2.021713E-18	NaN
1147	1.000000	0.529966	7.37628e+06	-57489.1	1055.82	-29736.2	0.000000	0.000000	6.530951	0.015815	NaN	0.000000	0.001558	0.001689	28.0803	0.094654	0.002138	44.2699	-118.012	-164.643	0.031258	0.528640	-1.207959	-1.209285	0.015815	44.2699	-1.208227	-1.415472E+16	-1.117263E-18	NaN
1147	1.000000	0.541941	7.37628e+06	-57489.1	1055.82	-29736.2	0.000000	0.000000	6.542925	0.003473	NaN	0.000000	0.001556	0.001691	28.0805	0.079565	0.001945	40.9093	32.6632	-166.609	-0.051684	0.540636	-1.195983	-1.197289	0.003473	40.9093	-1.196047	-9.723313E+15	-3.571913E-19	NaN
1147	1.000000	0.553977	7.37628e+06	-57489.1	1055.82	-29736.2	0.000000	0.000000	6.554958	-0.076026	NaN	0.000000	0.001549	0.001682	28.0805	0.014327	0.002099	6.824211	-71.6722	-165.01	-0.110823	0.552693	-1.183947	-1.185232	-0.076026	6.824211	-1.175592	-5.173850E+15	1.469434E-17	NaN
1147	1.000000	0.565979	7.37628e+06	-57489.1	1055.82	-29736.2	0.000000	0.000000	6.566963	-0.000181	NaN	0.000000	0.001561	0.001701	28.0804	0.065577	0.002080	31.5216	-127.368	-167.895	-0.062169	0.564646	-1.171946	-1.173279	-0.000181	31.5216	-1.171941	-4.622726E+15	3.919705E-20	NaN
1147	1.000000	0.577992	7.37628e+06	-57489.1	1055.82	-29736.2	0.000000	0.000000	6.578974	-0.050141	NaN	0.000000	0.001529	0.001705	28.0792	0.057003	0.002001	28.486	29.5287	-167.368	-0.013036	0.576720	-1.159933	-1.161205	-0.050141	28.486	-1.158613	-3.063910E+15	1.636497E-17	NaN
1147	1.000000	0.589970	7.37628e+06	-57489.1	1055.82	-29736.2	0.000000	0.000000	6.590953	-0.022363	NaN	0.000000	0.001549	0.001701	28.0789	0.014475	0.001943	7.448633	126.405	-169.573	0.053026	0.588723	-1.147955	-1.149201	-0.022363	7.448633	-1.145703	-2.056896E+15	1.087214E-17	NaN
1147	1.000000	0.601987	7.37628e+06	-57489.1	1055.82	-29736.2	0.000000	0.000000	6.602971	-0.008098	NaN	0.000000	0.001555	0.001678	28.079	0.095364	0.001963	48.5822	-132.829	-164.634	0.021209	0.600615	-1.135938	-1.137310	-0.008098	48.5822	-1.135813	-1.515589E+15	5.343043E-18	NaN
1147	1.000000	0.613992	7.37628e+06	-57489.1	1055.82	-29736.2	0.000000	0.000000	6.614981	0.114870	NaN	0.000000	0.001525	0.001659	28.0792	0.071012	0.001890	37.5728	113.321	-167.073	0.032926	0.612715	-1.123933	-1.125210	0.114870	37.5728	-1.126225	-1.127174E+15	-1.019100E-16	NaN
1147	1.000000	0.626017	7.37628e+06	-57489.1	1055.82	-29736.2	0.000000	0.000000	6.627000	-0.003259	NaN	0.000000	0.001574	0.001652	28.0793	0.080636	0.001822	44.2552	-56.0534	-163.737	0.051708	0.624696	-1.111908	-1.113229	-0.003259	44.2552	-1.111853	-7.230302E+14	4.507468E-18	NaN
1147	1.000000	0.637990	7.37628e+06	-57489.1	1055.82	-29736.2	0.000000	0.000000	6.638972	-0.053105	NaN	0.000000	0.001534	0.001662	28.0792	0.081002	0.002051	39.5021	154.694	-166.572	-0.049454	0.636742	-1.099935	-1.101183	-0.053105	39.5021	-1.098926	-4.849039E+14	1.095166E-16	NaN
1147	1.000000	0.650035	7.37628e+06	-57489.1	1055.82	-29736.2	0.000000	0.000000	6.651018	-0.014916	NaN	0.000000	0.001541	0.001645	28.0791	0.079851	0.002023	39.4789	-116.384	-167.426	0.060464	0.648705	-1.087890	-1.089219	-0.014916	39.4789	-1.087606	-3.417212E+14	4.364977E-17	NaN
1147	1.000000	0.662046	7.37628e+06	-57489.1	1055.82	-29736.2	0.000000	0.000000	6.663028	-0.045040	NaN	0.000000	0.001565	0.001654	28.0793	0.045024	0.002006	22.449	70.9759	-164.726	-0.030601	0.660710	-1.075879	-1.077215	-0.045040	22.449	-1.074374	-2.269620E+14	1.984475E-16	NaN
1147	1.000000	0.674041	7.37628e+06	-57489.1	1055.82	-29736.2	0.000000	0.000000	6.675025	0.013599	NaN	0.000000	0.001572	0.001690	28.079	0.041922	0.001953	21.4613	120.829	-165.432	0.026158	0.672741	-1.063884	-1.065184	0.013599	21.4613	-1.064359	-1.664937E+14	-8.167586E-17	NaN
1147	1.000000	0.686024	7.37628e+06	-57489.1	1055.82	-29736.2	0.000000	0.000000	6.687010	0.058533	NaN	0.000000	0.001556	0.001691	28.0792	0.042982	0.001941	22.1445	60.9719	-165.09	0.110941	0.684648	-1.051901	-1.053276	0.058533	22.1445	-1.053884	-1.203977E+14	-4.861673E-16	NaN
1147	1.000000	0.698046	7.37628e+06	-57489.1	1055.82	-29736.2	0.000000	0.000000	6.699027	-0.067318	NaN	0.000000	0.001539	0.001715	28.0792	0.068643	0.002014	34.0765	-148.692	-163.989	0.023298	0.696782	-1.039879	-1.041143	-0.067318	34.0765	-1.038398	-7.454530E+13	9.030419E-16	NaN
1147	1.000000	0.710043	7.37628e+06	-57489.1	1055.82	-29736.2	0.000000	0.000000	6.711028	0.044523	NaN	0.000000	0.001562	0.001669	28.0792	0.024006	0.002110	11.3748	-36.1159	-169.074	0.106725	0.708733	-1.027882	-1.029192	0.044523	11.3748	-1.030818	-5.894937E+13	-7.552698E-16	NaN
1147	1.000000	0.722022	7.37628e+06	-57489.1	1055.82	-29736.2	0.000000	0.000000	6.723006	-0.003992	NaN	0.000000	0.001510	0.001696	28.0807	0.063403	0.001887	33.6033	-148.145	-163.542	0.039101	0.720771	-1.015903	-1.017154	-0.003992	33.6033	-1.015814	-3.703573E+13	1.077947E-16	NaN
1147	1.000000	0.734014	7.37628e+06	-57489.1	1055.82	-29736.2	0.000000	0.000000	6.734998	-0.003265	NaN	0.000000	0.001548	0.001711	28.0804	0.060688	0.001986	30.555	-163.268	-164.109	0.066043	0.732755	-1.003911	-1.005169	-0.003265	30.555	-1.003830	-2.554684E+13	1.277900E-16	NaN
1147	1.000000	0.746038	7.37628e+06	-57489.1	1055.82	-29736.2	0.000000	0.000000	6.747024	0.043209	NaN	0.000000	0.001568	0.001713	28.0805	0.150663	0.001865	80.7768	9.805902	-166.808	0.051344	0.744753	-0.991887	-0.993171	0.043209	80.7768	-0.992288	-1.786166E+13	-2.419107E-15	NaN
1147	1.000000	0.758049	7.37628e+06	-57489.1	1055.82	-29736.2	0.000000	0.000000	6.759032	-0.033826	NaN	0.000000	0.001531	0.001696	28.0805	0.064869	0.001987	32.6548	-102.28	-164.68	0.017180	0.756768	-0.979875	-0.981157	-0.033826	32.6548	-0.979099	-1.186494E+13	2.850902E-15	NaN
1147	1.000000	0.770055	7.37628e+06	-57489.1	1055.82	-29736.2	0.000000	0.000000	6.771038	-0.036109	NaN	0.000000	0.001579	0.001677	28.0802	0.055827	0.002005	27.8374	-12.3059	-165.405	0.033744	0.768781	-0.967870	-0.969144	-0.036109	27.8374	-0.966897	-8.125310E+12	4.444034E-15	NaN
1147	1.000000	0.782100	7.37628e+06	-57489.1	1055.82	-29736.2	0.000000	0.000000	6.783086	0.043205	NaN	0.000000	0.001603	0.001717	28.0803	0.144032	0.002097	68.6731	21.6204	-167.119	0.018193	0.780812	-0.955825	-0.957113	0.043205	68.6731	-0.956297	-5.847052E+12	-7.389130E-15	NaN
1147	1.000000	0.794079	7.37628e+06	-57489.1	1055.82	-29736.2	0.000000	0.000000	6.795065	0.051907	NaN	0.000000	0.001508	0.001712	28.0804	0.111026	0.002061	53.8643	163.858	-164.161	0.056213	0.792765	-0.943846	-0.945160	0.051907	53.8643	-0.944569	-4.062281E+12	-1.277782E-14	NaN
1147	1.000000	0.806043	7.37628e+06	-57489.1	1055.82	-29736.2	0.000000	0.000000	6.807027	-0.000759	NaN	0.000000	0.001514	0.001683	28.0805	0.092470	0.001959	47.2068	38.5402	-168.133	0.012241	0.804763	-0.931882	-0.933162	-0.000759	47.2068	-0.931870	-2.737989E+12	2.772325E-16	NaN
1147	1.000000	0.818078	7.37628e+06	-57489.1	1055.82	-29736.2	0.000000	0.000000	6.819062	0.004077	NaN	0.000000	0.001525	0.001661	28.0804	0.020294	0.002005	10.1239	-123.659	-168.539	-0.014961	0.816783	-0.919846	-0.921142	0.004077	10.1239	-0.920149	-1.902005E+12	-2.143587E-15	NaN
1147	1.000000	0.830097	7.37628e+06	-57489.1	1055.82	-29736.2	0.000000	0.000000	6.831082	0.011043	NaN	0.000000	0.001545	0.001698	28.0803	0.153303	0.001949	78.6393	-150.694	-165.747	0.039187	0.828750	-0.907828	-0.909175	0.011043	78.6393	-0.907933	-1.300891E+12	-8.488708E-15	NaN
1147	1.000000	0.842091	7.37628e+06	-57489.1	1055.82	-29736.2	0.000000	0.000000	6.843075	-0.006351	NaN	0.000000	0.001525	0.001706	28.0799	0.082534	0.001965	42.0083	140.515	-163.875	-0.030042	0.840766	-0.895834	-0.897159	-0.006351	42.0083	-0.895721	-8.896834E+11	7.138213E-15	NaN
1147	1.000000	0.854109	7.37628e+06	-57489.1	1055.82	-29736.2	0.000000	0.000000	6.855092	-0.016278	NaN	0.000000	0.001552	0.001709	28.079	0.118915	0.002088	56.9444	42.1199	-167.086	-0.039372	0.852843	-0.883816	-0.885082	-0.016278	56.9444	-0.883602	-6.101160E+11	2.668094E-14	NaN
1147	1.000000	0.866081	7.37628e+06	-57489.1	1055.82	-29736.2	0.000000	0.000000	6.867067	0.050461	NaN	0.000000	0.001548	0.001693	28.0792	0.088317	0.002041	43.2726	164.329	-166.314	-0.008158	0.864839	-0.871844	-0.873086	0.050461	43.2726	-0.872718	-4.347261E+11	-1.160746E-13	NaN
1147	1.000000	0.878119	7.37628e+06	-57489.1	1055.82	-29736.2	0.000000	0.000000	6.879104	0.026546	NaN	0.000000	0.001560	0.001721	28.0788	0.039694	0.002108	18.83	-89.5446	-165.885	-0.001680	0.876798	-0.859806	-0.861127	0.026546	18.83	-0.860863	-3.004730E+11	-8.834761E-14	NaN
1147	1.000000	0.890098	7.37628e+06	-57489.1	1055.82	-29736.2	0.000000	0.000000	6.891084	0.034879	NaN	0.000000	0.001547	0.001713	28.079	0.067538	0.002041	33.0872	-160.037	-167.282	-0.036892	0.888796	-0.847826	-0.849129	0.034879	33.0872	-0.848617	-2.051212E+11	-1.700413E-13	NaN
1147	1.000000	0.902129	7.37628e+06	-57489.1	1055.82	-29736.2	0.000000	0.000000	6.903116	0.059947	NaN	0.000000	0.001528	0.001720	28.0791	0.031997	0.002076	15.4113	152.966	-165.894	0.035488	0.900772	-0.835796	-0.837152	0.059947	15.4113	-0.838713	-1.506111E+11	-3.980258E-13	NaN
1147	1.000000	0.914161	7.37628e+06	-57489.1	1055.82	-29736.2	0.000000	0.000000	6.915146	0.010088	NaN	0.000000	0.001510	0.001711	28.0792	0.090204	0.001931	46.7153	36.5349	-166.298	-0.016869	0.912831	-0.823764	-0.825094	0.010088	46.7153	-0.823926	-9.493783E+10	-1.062635E-13	NaN
1147	1.000000	0.926115	7.37628e+06	-57489.1	1055.82	-29736.2	0.000000	0.000000	6.927100	0.026029	NaN	0.000000	0.001544	0.001679	28.079	0.086073	0.002024	42.5233	-123.758	-167.599	0.019761	0.924792	-0.811809	-0.813133	0.026029	42.5233	-0.812269	-6.597021E+10	-3.945509E-13	NaN
1147	1.000000	0.938144	7.37628e+06	-57489.1	1055.82	-29736.2	0.000000	0.000000	6.939130	0.052209	NaN	0.000000	0.001516	0.001690	28.0792	0.024153	0.001807	13.3672	-55.2671	-170.082	0.058260	0.936823	-0.799781	-0.801102	0.052209	13.3672	-0.802710	-4.893791E+10	-1.066846E-12	NaN
1147	1.000000	0.950139	7.37628e+06	-57489.1	1055.82	-29736.2	0.000000	0.000000	6.951122	-0.009101	NaN	0.000000	0.001521	0.001710	28.0791	0.098753	0.002173	45.4546	-66.5006	-166.821	-0.012650	0.948830	-0.787786	-0.789095	-0.009101	45.4546	-0.787636	-3.054731E+10	2.979281E-13	NaN
1147	1.000000	0.962159	7.37628e+06	-57489.1	1055.82	-29736.2	0.000000	0.000000	6.963144	0.041382	NaN	0.000000	0.001554	0.001670	28.0788	0.068348	0.002090	32.697	27.1911	-164.753	0.095208	0.960854	-0.775766	-0.777071	0.041382	32.697	-0.776715	-2.170668E+10	-1.906409E-12	NaN
1147	1.000000	0.974129	7.37628e+06	-57489.1	1055.82	-29736.2	0.000000	0.000000	6.975115	0.052775	NaN	0.000000	0.001592	0.001700	28.0793	0.095117	0.001969	48.3012	-30.3425	-166.229	0.007620	0.972838	-0.763796	-0.765087	0.052775	48.3012	-0.764616	-1.486241E+10	-3.550933E-12	NaN
1147	1.000000	0.986179	7.37628e+06	-57489.1	1055.82	-29736.2	0.000000	0.000000	6.987166	0.059297	NaN	0.000000	0.001607	0.001679	28.0798	0.059666	0.001975	30.2103	-165.812	-166.446	0.057013	0.984886	-0.751746	-0.753039	0.059297	30.2103	-0.753218	-1.039958E+10	-5.701873E-12	NaN
1147	1.000000	0.998136	7.37628e+06	-57489.1	1055.82	-29736.2	0.000000	0.000000	6.999119	-0.024817	NaN	0.000000	0.001590	0.001658	28.0804	0.064631	0.001975	32.7273	-15.5586	-161.831	-0.062179	0.996845	-0.739789	-0.741080	-0.024817	32.7273	-0.739220	-6.705596E+9	3.700995E-12	NaN
1147	1.000000	1.010152	7.37628e+06	-57489.1	1055.82	-29736.2	0.000000	0.000000	7.011135	-0.007067	NaN	0.000000	0.001605	0.001655	28.0804	0.059545	0.002054	28.9854	85.6166	-168.761	0.024072	1.008875	-0.727773	-0.729050	-0.007067	28.9854	-0.727590	-4.655481E+9	1.517957E-12	NaN
1147	1.000000	1.022160	7.37628e+06	-57489.1	1055.82	-29736.2	0.000000	0.000000	7.023142	-0.051421	NaN	0.000000	0.001642	0.001661	28.0801	0.064698	0.002023	31.9819	17.1548	-166.343	-0.015324	1.020877	-0.715765	-0.717048	-0.051421	31.9819	-0.714559	-3.092127E+9	1.662961E-11	NaN
1147	1.000000	1.034162	7.37628e+06	-57489.1	1055.82	-29736.2	0.000000	0.000000	7.035144	-0.038793	NaN	0.000000	0.001578	0.001650	28.0802	0.102740	0.001962	52.3515	179.72	-166.108	-0.041031	1.032805	-0.703763	-0.705120	-0.038793	52.3515	-0.703207	-2.164359E+9	1.792377E-11	NaN
1147	1.000000	1.046199	7.37628e+06	-57489.1	1055.82	-29736.2	0.000000	0.000000	7.047186	0.087731	NaN	0.000000	0.001576	0.001688	28.0801	0.094139	0.002072	45.4297	82.8052	-167.438	0.119970	1.044879	-0.691726	-0.693045	0.087731	45.4297	-0.693175	-1.578699E+9	-5.557146E-11	NaN
1147	1.000000	1.058163	7.37628e+06	-57489.1	1055.82	-29736.2	0.000000	0.000000	7.059148	0.030123	NaN	0.000000	0.001539	0.001675	28.0801	0.067378	0.002011	33.5047	-90.6024	-164.16	0.087174	1.056875	-0.679762	-0.681050	0.030123	33.5047	-0.680436	-1.057239E+9	-2.849218E-11	NaN
1147	1.000000	1.070177	7.37628e+06	-57489.1	1055.82	-29736.2	0.000000	0.000000	7.071163	0.040459	NaN	0.000000	0.001555	0.001662	28.0803	0.009002	0.001990	4.524594	23.8014	-167.753	0.036408	1.068893	-0.667747	-0.669032	0.040459	4.524594	-0.674454	-8.756691E+8	-4.620341E-11	NaN
1147	1.000000	1.082199	7.37628e+06	-57489.1	1055.82	-29736.2	0.000000	0.000000	7.083186	0.078939	NaN	0.000000	0.001583	0.001666	28.0803	0.020795	0.002032	10.2356	178.783	-164.626	0.065046	1.080882	-0.655726	-0.657042	0.078939	10.2356	-0.661510	-5.823072E+8	-1.355618E-10	NaN
1147	1.000000	1.094206	7.37628e+06	-57489.1	1055.82	-29736.2	0.000000	0.000000	7.095189	-0.028210	NaN	0.000000	0.001548	0.001649	28.08	0.044621	0.001997	22.3393	-3.971628	-169.745	-0.013683	1.092858	-0.643719	-0.645067	-0.028210	22.3393	-0.642771	-3.223381E+8	8.751744E-11	NaN
1147	1.000000	1.106213	7.37628e+06	-57489.1	1055.82	-29736.2	0.000000	0.000000	7.107197	0.005911	NaN	0.000000	0.001608	0.001636	28.0804	0.107794	0.002050	52.5746	135.212	-166.914	0.053257	1.104936	-0.631712	-0.632989	0.005911	52.5746	-0.631796	-2.278710E+8	-2.594203E-11	NaN
1147	1.000000	1.118191	7.37628e+06	-57489.1	1055.82	-29736.2	0.000000	0.000000	7.119174	-0.021412	NaN	0.000000	0.001592	0.001660	28.0803	0.075540	0.002036	37.1053	-43.5219	-163.37	0.011699	1.116945	-0.619734	-0.620980	-0.021412	37.1053	-0.619301	-1.534700E+8	1.395182E-10	NaN
1147	1.000000	1.130198	7.37628e+06	-57489.1	1055.82	-29736.2	0.000000	0.000000	7.131181	-0.010380	NaN	0.000000	0.001589	0.001637	28.079	0.132494	0.002043	64.8639	-143.54	-162.678	0.005286	1.128905	-0.607727	-0.609019	-0.010380	64.8639	-0.607607	-1.059702E+8	9.795158E-11	NaN
1147	1.000000	1.142206	7.37628e+06	-57489.1	1055.82	-29736.2	0.000000	0.000000	7.143190	0.015139	NaN	0.000000	0.001620	0.001644	28.079	0.094389	0.001940	48.6556	88.4535	-165.055	0.001244	1.140901	-0.595719	-0.597024	0.015139	48.6556	-0.595952	-7.323269E+7	-2.067289E-10	NaN
1147	1.000000	1.154228	7.37628e+06	-57489.1	1055.82	-29736.2	0.000000	0.000000	7.155212	0.008769	NaN	0.000000	0.001600	0.001651	28.0793	0.061106	0.001930	31.6672	82.8053	-164.602	0.017291	1.152899	-0.583697	-0.585026	0.008769	31.6672	-0.583904	-4.995740E+7	-1.755368E-10	NaN
1147	1.000000	1.166216	7.37628e+06	-57489.1	1055.82	-29736.2	0.000000	0.000000	7.167202	0.052034	NaN	0.000000	0.001637	0.001617	28.0792	0.133367	0.001978	67.4307	-0.296183	-166.449	0.047644	1.164878	-0.571709	-0.573047	0.052034	67.4307	-0.572287	-3.453292E+7	-1.506796E-9	NaN
1147	1.000000	1.178234	7.37628e+06	-57489.1	1055.82	-29736.2	0.000000	0.000000	7.179220	0.048168	NaN	0.000000	0.001612	0.001618	28.0791	0.068419	0.002056	33.2786	151.961	-170.281	0.008932	1.176945	-0.559691	-0.560980	0.048168	33.2786	-0.560777	-2.393974E+7	-2.012068E-9	NaN
1147	1.000000	1.190227	7.37628e+06	-57489.1	1055.82	-29736.2	0.000000	0.000000	7.191211	0.002715	NaN	0.000000	0.001647	0.001627	28.079	0.077718	0.001962	39.6069	154.905	-164.445	0.024675	1.188930	-0.547698	-0.548995	0.002715	39.6069	-0.547750	-1.580455E+7	-1.717593E-10	NaN
1147	1.000000	1.202263	7.37628e+06	-57489.1	1055.82	-29736.2	0.000000	0.000000	7.203247	0.019263	NaN	0.000000	0.001632	0.001648	28.0792	0.009431	0.002248	4.194590	4.897981	-165.025	0.039264	1.200881	-0.535662	-0.537044	0.019263	4.194590	-0.539107	-1.199410E+7	-1.606074E-9	NaN
1147	1.000000	1.214238	7.37628e+06	-57489.1	1055.82	-29736.2	0.000000	0.000000	7.215224	0.043451	NaN	0.000000	0.001592	0.001649	28.079	0.075912	0.002098	36.1817	55.1719	-165.087	0.042854	1.212931	-0.523687	-0.524994	0.043451	36.1817	-0.524588	-7.54017e+06	-5.762620E-9	NaN
1147	1.000000	1.226248	7.37628e+06	-57489.1	1055.82	-29736.2	0.000000	0.000000	7.227233	0.029795	NaN	0.000000	0.001558	0.001659	28.0789	0.023095	0.001987	11.6211	-127.587	-167.893	-0.028614	1.224983	-0.511677	-0.512942	0.029795	11.6211	-0.513600	-5.30333e+06	-5.618221E-9	NaN
1147	1.000000	1.238227	7.37628e+06	-57489.1	1055.82	-29736.2	0.000000	0.000000	7.239210	-0.027020	NaN	0.000000	0.001566	0.001628	28.0788	0.031454	0.002037	15.4419	125.486	-165.326	-0.039552	1.236991	-0.499698	-0.500934	-0.027020	15.4419	-0.498386	-3.25457e+06	8.302044E-9	NaN
1147	1.000000	1.250243	7.37628e+06	-57489.1	1055.82	-29736.2	0.000000	0.000000	7.251226	0.001967	NaN	0.000000	0.001513	0.001621	28.0789	0.034039	0.001941	17.5393	-106.899	-166.699	0.044548	1.248956	-0.487682	-0.488969	0.001967	17.5393	-0.487766	-2.31299e+06	-8.503238E-10	NaN
1147	1.000000	1.262287	7.37628e+06	-57489.1	1055.82	-29736.2	0.000000	0.000000	7.263272	0.021359	NaN	0.000000	0.001511	0.001642	28.0805	0.085574	0.002035	42.0588	-28.8853	-163.65	-0.052419	1.261044	-0.475638	-0.476881	0.021359	42.0588	-0.476019	-1.58406e+06	-1.348400E-8	NaN
1147	1.000000	1.274308	7.37628e+06	-57489.1	1055.82	-29736.2	0.000000	0.000000	7.275290	-0.044638	NaN	0.000000	0.001537	0.001663	28.0802	0.054501	0.002080	26.2042	-136.569	-163.015	-0.015029	1.273007	-0.463617	-0.464918	-0.044638	26.2042	-0.462339	-1.01832e+06	4.383493E-8	NaN
1147	1.000000	1.286294	7.37628e+06	-57489.1	1055.82	-29736.2	0.000000	0.000000	7.287278	-0.000447	NaN	0.000000	0.001582	0.001644	28.0803	0.018770	0.001895	9.907321	155.539	-163.963	0.000225	1.284963	-0.451631	-0.452962	-0.000447	9.907321	-0.451597	-719170	6.209814E-10	NaN
1147	1.000000	1.298268	7.37628e+06	-57489.1	1055.82	-29736.2	0.000000	0.000000	7.299250	-0.041023	NaN	0.000000	0.001551	0.001660	28.0803	0.083908	0.001997	42.009	156.858	-162.428	-0.026130	1.297008	-0.439657	-0.440917	-0.041023	42.009	-0.438924	-476627	8.606924E-8	NaN
1147	1.000000	1.310291	7.37628e+06	-57489.1	1055.82	-29736.2	0.000000	0.000000	7.311275	0.022041	NaN	0.000000	0.001534	0.001650	28.0801	0.089363	0.002049	43.606	-131.578	-165.608	0.033550	1.308954	-0.427634	-0.428971	0.022041	43.606	-0.428013	-334158	-6.596021E-8	NaN
1147	1.000000	1.322297	7.37628e+06	-57489.1	1055.82	-29736.2	0.000000	0.000000	7.323278	-0.065311	NaN	0.000000	0.001525	0.001638	28.0802	0.046129	0.002012	22.9267	21.1005	-162.546	-0.076095	1.320961	-0.415628	-0.416964	-0.065311	22.9267	-0.413492	-207984	3.140187E-7	NaN
1147	1.000000	1.334294	7.37628e+06	-57489.1	1055.82	-29736.2	0.000000	0.000000	7.335280	0.049236	NaN	0.000000	0.001555	0.001627	28.0803	0.113689	0.001945	58.4514	152.391	-161.812	0.027480	1.332994	-0.403631	-0.404931	0.049236	58.4514	-0.404262	-153724	-3.202904E-7	NaN
1147	1.000000	1.346276	7.37628e+06	-57489.1	1055.82	-29736.2	0.000000	0.000000	7.347261	0.033920	NaN	0.000000	0.001533	0.001642	28.0803	0.128323	0.002071	61.9707	79.1198	-162.833	0.087852	1.344960	-0.391649	-0.392965	0.033920	61.9707	-0.392059	-102947	-3.294942E-7	NaN
1147	1.000000	1.358318	7.37628e+06	-57489.1	1055.82	-29736.2	0.000000	0.000000	7.359302	0.015255	NaN	0.000000	0.001518	0.001654	28.0805	0.173255	0.001943	89.1761	-172.005	-167.266	0.056896	1.357040	-0.379607	-0.380885	0.015255	89.1761	-0.379735	-68563.1	-2.224923E-7	NaN
1147	1.000000	1.370333	7.37628e+06	-57489.1	1055.82	-29736.2	0.000000	0.000000	7.371314	-0.067202	NaN	0.000000	0.001576	0.001620	28.0802	0.100053	0.001926	51.9517	-121.661	-165.747	-0.093879	1.369019	-0.367592	-0.368906	-0.067202	51.9517	-0.366622	-44406.9	1.513328E-6	NaN
1147	1.000000	1.382307	7.37628e+06	-57489.1	1055.82	-29736.2	0.000000	0.000000	7.383291	0.006481	NaN	0.000000	0.001583	0.001603	28.0803	0.069577	0.002048	33.9649	-21.3654	-165.876	0.097139	1.381018	-0.355618	-0.356907	0.006481	33.9649	-0.355761	-30939.9	-2.094781E-7	NaN
1147	1.000000	1.394314	7.37628e+06	-57489.1	1055.82	-29736.2	0.000000	0.000000	7.395297	-0.024205	NaN	0.000000	0.001585	0.001616	28.0801	0.069354	0.001997	34.7292	53.5453	-162.802	-0.032061	1.392995	-0.343611	-0.344930	-0.024205	34.7292	-0.343088	-20255.4	1.195013E-6	NaN
1147	1.000000	1.406373	7.37628e+06	-57489.1	1055.82	-29736.2	0.000000	0.000000	7.407356	-0.027392	NaN	0.000000	0.001572	0.001595	28.079	0.016528	0.001941	8.513486	4.424676	-166.681	-0.059123	1.405036	-0.331552	-0.332889	-0.027392	8.513486	-0.329139	-12671.8	2.161617E-6	NaN
1147	1.000000	1.418341	7.37628e+06	-57489.1	1055.82	-29736.2	0.000000	0.000000	7.419325	-0.018126	NaN	0.000000	0.001566	0.001615	28.0793	0.100160	0.002020	49.5894	46.1347	-161.054	-0.030467	1.417010	-0.319583	-0.320915	-0.018126	49.5894	-0.319309	-9088.04	1.994438E-6	NaN
1147	1.000000	1.430335	7.37628e+06	-57489.1	1055.82	-29736.2	0.000000	0.000000	7.431318	-0.023375	NaN	0.000000	0.001611	0.001622	28.0791	0.090311	0.002074	43.5453	168.706	-166.687	-0.038427	1.429028	-0.307590	-0.308897	-0.023375	43.5453	-0.307187	-6017.27	3.884640E-6	NaN
1147	1.000000	1.442330	7.37628e+06	-57489.1	1055.82	-29736.2	0.000000	0.000000	7.443313	-0.024271	NaN	0.000000	0.001603	0.001636	28.0792	0.061449	0.001973	31.1464	19.1008	-165.006	-0.060977	1.441012	-0.295595	-0.296913	-0.024271	31.1464	-0.295010	-3964.97	6.121372E-6	NaN
1147	1.000000	1.454355	7.37628e+06	-57489.1	1055.82	-29736.2	0.000000	0.000000	7.455337	-0.036490	NaN	0.000000	0.001588	0.001633	28.079	0.114597	0.001940	59.0799	-105.277	-165.808	0.004117	1.453015	-0.283570	-0.284909	-0.036490	59.0799	-0.283107	-2628.99	1.387996E-5	NaN
1147	1.000000	1.466364	7.37628e+06	-57489.1	1055.82	-29736.2	0.000000	0.000000	7.467346	-0.032434	NaN	0.000000	0.001626	0.001631	28.0789	0.043732	0.001924	22.73	-152.326	-166.393	-0.001563	1.465023	-0.271561	-0.272902	-0.032434	22.73	-0.270491	-1694.36	1.914217E-5	NaN
1147	1.000000	1.478373	7.37628e+06	-57489.1	1055.82	-29736.2	0.000000	0.000000	7.479356	-0.015570	NaN	0.000000	0.001679	0.001621	28.079	0.059858	0.001970	30.3818	-100.216	-164.759	0.035310	1.477053	-0.259552	-0.260872	-0.015570	30.3818	-0.259168	-1138.04	1.368124E-5	NaN
1147	1.000000	1.490348	7.37628e+06	-57489.1	1055.82	-29736.2	0.000000	0.000000	7.491333	0.016074	NaN	0.000000	0.001654	0.001633	28.079	0.142245	0.002017	70.5305	10.5286	-164.27	0.007454	1.488973	-0.247577	-0.248952	0.016074	70.5305	-0.247748	-758.745	-2.118533E-5	NaN
1147	1.000000	1.502394	7.37628e+06	-57489.1	1055.82	-29736.2	0.000000	0.000000	7.503378	0.001849	NaN	0.000000	0.001611	0.001628	28.079	0.085962	0.001976	43.504	60.6302	-166.803	0.021011	1.501022	-0.235531	-0.236903	0.001849	43.504	-0.235563	-489.869	-3.775108E-6	NaN
1147	1.000000	1.514360	7.37628e+06	-57489.1	1055.82	-29736.2	0.000000	0.000000	7.515342	-0.042173	NaN	0.000000	0.001577	0.001669	28.0793	0.023293	0.001990	11.7039	170.57	-167.513	0.013171	1.513074	-0.223565	-0.224851	-0.042173	11.7039	-0.220863	-286.719	0.000147	NaN
1147	1.000000	1.526390	7.37628e+06	-57489.1	1055.82	-29736.2	0.000000	0.000000	7.527374	-0.015349	NaN	0.000000	0.001587	0.001646	28.0794	0.008439	0.001994	4.231805	77.2825	-166.778	-0.034682	1.525133	-0.211534	-0.212792	-0.015349	4.231805	-0.208814	-183.484	8.365380E-5	NaN
1147	1.000000	1.538396	7.37628e+06	-57489.1	1055.82	-29736.2	0.000000	0.000000	7.539381	0.041800	NaN	0.000000	0.001617	0.001631	28.0805	0.141236	0.002088	67.6311	108.927	-165.534	-0.032467	1.537119	-0.199529	-0.200806	0.041800	67.6311	-0.199993	-131.699	-0.000317	NaN
1147	1.000000	1.550408	7.37628e+06	-57489.1	1055.82	-29736.2	0.000000	0.000000	7.551394	0.049088	NaN	0.000000	0.001590	0.001625	28.0803	0.059406	0.001923	30.8999	-7.212008	-162.823	0.039772	1.549080	-0.187517	-0.188845	0.049088	30.8999	-0.188709	-85.5914	-0.000574	NaN
1147	1.000000	1.562440	7.37628e+06	-57489.1	1055.82	-29736.2	0.000000	0.000000	7.563423	-0.031480	NaN	0.000000	0.001583	0.001648	28.0801	0.082160	0.002046	40.1637	5.630340	-160.726	0.036415	1.561145	-0.175485	-0.176780	-0.031480	40.1637	-0.174897	-49.9126	0.000631	NaN
1147	1.000000	1.574383	7.37628e+06	-57489.1	1055.82	-29736.2	0.000000	0.000000	7.575364	-0.070623	NaN	0.000000	0.001596	0.001654	28.0804	0.043172	0.001932	22.3483	4.336814	-165.656	-0.025049	1.573070	-0.163542	-0.164855	-0.070623	22.3483	-0.161172	-28.7595	0.002456	NaN
1147	1.000000	1.586423	7.37628e+06	-57489.1	1055.82	-29736.2	0.000000	0.000000	7.587406	-0.009051	NaN	0.000000	0.001576	0.001653	28.0803	0.040385	0.001932	20.9041	-64.3214	-164.52	0.034591	1.585078	-0.151502	-0.152846	-0.009051	20.9041	-0.151177	-19.0302	0.000476	NaN
1147	1.000000	1.598429	7.37628e+06	-57489.1	1055.82	-29736.2	0.000000	0.000000	7.599414	0.027582	NaN	0.000000	0.001526	0.001635	28.0803	0.033038	0.002087	15.8326	122.074	-166.284	-0.010307	1.597089	-0.139495	-0.140836	0.027582	15.8326	-0.140802	-12.2465	-0.002252	NaN
1147	1.000000	1.610433	7.37628e+06	-57489.1	1055.82	-29736.2	0.000000	0.000000	7.611417	0.005274	NaN	0.000000	0.001541	0.001643	28.0804	0.040703	0.001918	21.2261	-99.689	-166.396	0.007150	1.609097	-0.127492	-0.128828	0.005274	21.2261	-0.127678	-6.866307	-0.000768	NaN
1147	1.000000	1.622440	7.37628e+06	-57489.1	1055.82	-29736.2	0.000000	0.000000	7.623424	0.005203	NaN	0.000000	0.001601	0.001666	28.0805	0.139099	0.001992	69.813	98.6775	-164.528	0.032704	1.621150	-0.115484	-0.116775	0.005203	69.813	-0.115540	-3.919506	-0.001327	NaN
1147	1.000000	1.634454	7.37628e+06	-57489.1	1055.82	-29736.2	0.000000	0.000000	7.635441	0.077090	NaN	0.000000	0.001507	0.001713	28.0803	0.052907	0.001837	28.8044	165.064	-163.476	0.109462	1.633152	-0.103471	-0.104772	0.077090	28.8044	-0.105479	-2.407127	-0.032026	NaN
1147	1.000000	1.646434	7.37628e+06	-57489.1	1055.82	-29736.2	0.000000	0.000000	7.647418	0.012244	NaN	0.000000	0.001564	0.001635	28.0804	0.021449	0.002018	10.6311	2.812512	-162.418	0.008095	1.645137	-0.091491	-0.092788	0.012244	10.6311	-0.092355	-1.226546	-0.009982	NaN
1147	1.000000	1.658462	7.37628e+06	-57489.1	1055.82	-29736.2	0.000000	0.000000	7.659447	0.028141	NaN	0.000000	0.001543	0.001655	28.0804	0.036631	0.001989	18.4133	-143.811	-165.892	0.035514	1.657133	-0.079463	-0.080792	0.028141	18.4133	-0.080609	-0.641031	-0.043900	NaN
1147	1.000000	1.670434	7.37628e+06	-57489.1	1055.82	-29736.2	0.000000	0.000000	7.671420	0.055579	NaN	0.000000	0.001527	0.001659	28.0789	0.009913	0.002060	4.812977	-2.533250	-165.645	0.037548	1.669124	-0.067491	-0.068801	0.055579	4.812977	-0.076152	-0.494533	-0.112386	NaN
1147	1.000000	1.682470	7.37628e+06	-57489.1	1055.82	-29736.2	0.000000	0.000000	7.683451	-0.060808	NaN	0.000000	0.001527	0.001681	28.0791	0.094364	0.001904	49.5713	-125.269	-169.478	-0.036378	1.681112	-0.055455	-0.056812	-0.060808	49.5713	-0.054535	-0.124761	0.487391	NaN
1147	1.000000	1.694474	7.37628e+06	-57489.1	1055.82	-29736.2	0.000000	0.000000	7.695458	-0.008930	NaN	0.000000	0.001546	0.001659	28.0793	0.051480	0.001966	26.1887	73.8826	-166.063	0.036166	1.693098	-0.043451	-0.044827	-0.008930	26.1887	-0.043195	-0.056596	0.157779	NaN
1147	1.000000	1.706460	7.37628e+06	-57489.1	1055.82	-29736.2	0.000000	0.000000	7.707444	-0.002332	NaN	0.000000	0.001492	0.001719	28.0794	0.045796	0.001984	23.0872	125.424	-166.731	0.007818	1.705151	-0.031465	-0.032773	-0.002332	23.0872	-0.031389	-0.025178	0.092621	NaN
1147	1.000000	1.718470	7.37628e+06	-57489.1	1055.82	-29736.2	0.000000	0.000000	7.719455	0.023194	NaN	0.000000	0.001547	0.001649	28.0791	0.047539	0.001968	24.1567	127.465	-163.573	0.049814	1.717152	-0.019455	-0.020773	0.023194	24.1567	-0.020175	-0.012690	-1.827752	NaN
1147	1.000000	1.730490	7.37628e+06	-57489.1	1055.82	-29736.2	0.000000	0.000000	7.731471	-0.071976	NaN	0.000000	0.001543	0.001653	28.0794	0.055224	0.002030	27.2044	-49.3644	-168.379	-0.080464	1.729099	-0.007435	-0.008826	-0.071976	27.2044	-0.005451	-0.003698	19.4625	NaN
1147	1.000000	1.742375	7.37628e+06	-57489.1	1055.82	-29736.2	0.000000	0.000000	7.743695	8.179730	NaN	0.000000	0.001513	0.001689	28.0791	8.517365	0.001655	5146.28	12.2952	-172.949	7.055457	1.741100	0.004450	0.003175	8.179730	5146.28	0.003258	0.002598	3148.38	92244.5
1147	2.000000	1.746004	7.37628e+06	-57489.1	1055.82	-29736.2	0.000000	0.000000	7.747532	13.2161	NaN	0.000000	0.001588	0.001641	28.0792	12.0842	0.001672	7225.84	4.385370	-171.916	12.6268	1.745690	0.008079	0.007765	13.2161	7225.84	0.006707	0.005746	2299.92	87089.6
1147	2.000000	1.748953	7.37628e+06	-57489.1	1055.82	-29736.2	0.000000	0.000000	7.750632	16.9059	NaN	0.000000	0.001588	0.001687	28.0791	15.6751	0.001762	8894.72	5.732820	-172.302	16.2277	1.748673	0.011028	0.010748	16.9059	8894.72	0.009602	0.008743	1933.68	86911.8
1147	2.000000	1.751950	7.37628e+06	-57489.1	1055.82	-29736.2	0.000000	0.000000	7.753951	24.7297	NaN	0.000000	0.001576	0.001717	28.0794	19.1966	0.001812	10591.7	3.893423	-173.629	23.5031	1.751560	0.014025	0.013635	24.7297	10591.7	0.012274	0.011820	2092.21	89008.8
1147	2.000000	1.754943	7.37628e+06	-57489.1	1055.82	-29736.2	0.000000	0.000000	7.757120	29.0002	NaN	0.000000	0.001553	0.001685	28.0806	22.2768	0.001716	12978.9	2.501872	-174.977	28.2545	1.754638	0.017018	0.016713	29.0002	12978.9	0.015343	0.015745	1841.87	94502
1147	2.000000	1.757921	7.37628e+06	-57489.1	1055.82	-29736.2	0.000000	0.000000	7.760444	37.4225	NaN	0.000000	0.001557	0.001691	28.0792	25.519	0.001818	14036.7	3.694678	-176.735	37.6011	1.757654	0.019996	0.019730	37.4225	14036.7	0.017996	0.019491	1919.98	91858.9
1147	2.000000	1.760897	7.37628e+06	-57489.1	1055.82	-29736.2	0.000000	0.000000	7.763699	44.1977	NaN	0.000000	0.001578	0.001700	28.0804	28.0977	0.001835	15311.2	1.648384	-174.696	42.8637	1.760631	0.022972	0.022706	44.1977	15311.2	0.020807	0.023826	1855.03	90627.2
1147	2.000000	1.763957	7.37628e+06	-57489.1	1055.82	-29736.2	0.000000	0.000000	7.767007	50.2148	NaN	0.000000	0.001566	0.001709	28.0802	31.2547	0.001900	16452.5	7.191842	-179.795	50.1249	1.763608	0.026032	0.025683	50.2148	16452.5	0.023743	0.028768	1745.48	88622.9
1147	2.000000	1.766885	7.37628e+06	-57489.1	1055.82	-29736.2	0.000000	0.000000	7.770355	60.4178	NaN	0.000000	0.001607	0.001663	28.0806	32.8951	0.001743	18875.4	7.260914	178.199	59.0046	1.766565	0.028960	0.028640	60.4178	18875.4	0.026560	0.033914	1781.48	93643.4
1147	2.000000	1.769876	7.37628e+06	-57489.1	1055.82	-29736.2	0.000000	0.000000	7.773595	66.4789	NaN	0.000000	0.001589	0.001693	28.0808	35.3079	0.001777	19874.3	3.846688	-179.826	62.5658	1.769507	0.031951	0.031582	66.4789	19874.3	0.029442	0.039595	1678.98	91252.6
1147	2.000000	1.772947	7.37628e+06	-57489.1	1055.82	-29736.2	0.000000	0.000000	7.777214	79.7934	NaN	0.000000	0.001532	0.001709	28.0805	37.9126	0.001854	20444.8	3.861288	-177.914	81.3677	1.772617	0.035022	0.034692	79.7934	20444.8	0.032095	0.045198	1765.44	87861.5
1147	2.000000	1.775857	7.37628e+06	-57489.1	1055.82	-29736.2	0.000000	0.000000	7.780352	85.3233	NaN	0.000000	0.001586	0.001697	28.0804	41.4774	0.001803	23009.8	4.564098	177.931	84.3562	1.775600	0.037932	0.037675	85.3233	23009.8	0.035151	0.052099	1637.71	92102.5
1147	2.000000	1.778844	7.37628e+06	-57489.1	1055.82	-29736.2	0.000000	0.000000	7.783778	96.0055	NaN	0.000000	0.001598	0.001691	28.0804	43.2502	0.001860	23248.6	2.304949	-178.774	93.9917	1.778495	0.040919	0.040570	96.0055	23248.6	0.037822	0.058521	1640.53	87803.9
1147	2.000000	1.781935	7.37628e+06	-57489.1	1055.82	-29736.2	0.000000	0.000000	7.787351	107.707	NaN	0.000000	0.001600	0.001718	28.0808	45.5781	0.001727	26384.6	4.026426	178.743	109.075	1.781490	0.044010	0.043565	107.707	26384.6	0.040949	0.066503	1619.59	93476.7
1147	2.000000	1.784907	7.37628e+06	-57489.1	1055.82	-29736.2	0.000000	0.000000	7.790875	121.139	NaN	0.000000	0.001545	0.001693	28.0814	49.6791	0.001877	26471.7	6.927521	175.613	123.067	1.784558	0.046982	0.046633	121.139	26471.7	0.043550	0.073525	1647.59	89194.3
1147	2.000000	1.787871	7.37628e+06	-57489.1	1055.82	-29736.2	0.000000	0.000000	7.794368	133.981	NaN	0.000000	0.001591	0.001637	28.0802	51.9133	0.001814	28615	4.367180	177.145	133.733	1.787464	0.049946	0.049539	133.981	28615	0.046435	0.081712	1639.67	91458.5
1147	2.000000	1.790899	7.37628e+06	-57489.1	1055.82	-29736.2	0.000000	0.000000	7.797849	145.003	NaN	0.000000	0.001614	0.001687	28.0805	54.3196	0.001716	31659.1	1.248814	179.392	144.358	1.790535	0.052975	0.052610	145.003	31659.1	0.049539	0.090995	1593.53	95887.9
1147	2.000000	1.793843	7.37628e+06	-57489.1	1055.82	-29736.2	0.000000	0.000000	7.801408	159.942	NaN	0.000000	0.001555	0.001670	28.0791	57.6538	0.001776	32458.7	5.072210	175.339	155.473	1.793560	0.055918	0.055636	159.942	32458.7	0.052223	0.099407	1608.97	94058.2
1147	2.000000	1.796914	7.37628e+06	-57489.1	1055.82	-29736.2	0.000000	0.000000	7.805007	172.781	NaN	0.000000	0.001567	0.001709	28.0793	59.9508	0.001833	32709.2	5.166139	175.256	174.042	1.796551	0.058989	0.058626	172.781	32709.2	0.055027	0.108582	1591.25	90690.8
1147	2.000000	1.799843	7.37628e+06	-57489.1	1055.82	-29736.2	0.000000	0.000000	7.808650	190.135	NaN	0.000000	0.001595	0.001691	28.0797	62.3083	0.001738	35842.7	5.198476	173.77	188.579	1.799512	0.061918	0.061587	190.135	35842.7	0.057940	0.118524	1604.19	95119.7
1147	2.000000	1.802798	7.37628e+06	-57489.1	1055.82	-29736.2	0.000000	0.000000	7.812320	207.514	NaN	0.000000	0.001568	0.001706	28.0792	64.945	0.001839	35314.2	5.181906	174.496	204.441	1.802531	0.064873	0.064606	207.514	35314.2	0.060466	0.127486	1627.74	90363.3
1147	2.000000	1.805867	7.37628e+06	-57489.1	1055.82	-29736.2	0.000000	0.000000	7.815981	221.909	NaN	0.000000	0.001567	0.001753	28.0795	68.2492	0.001937	35232.3	1.891744	178.335	222.155	1.805439	0.067942	0.067514	221.909	35232.3	0.063218	0.137602	1612.7	86776.5
1147	2.000000	1.808907	7.37628e+06	-57489.1	1055.82	-29736.2	0.000000	0.000000	7.819110	224.084	NaN	0.000000	0.001584	0.001727	28.0794	69.9872	0.001729	40473.2	2.079198	176.131	226.341	1.808749	0.070982	0.070824	224.084	40473.2	0.066829	0.151430	1479.79	95024.3
1147	2.000000	1.811824	7.37628e+06	-57489.1	1055.82	-29736.2	0.000000	0.000000	7.823097	250.09	NaN	0.000000	0.001569	0.001722	28.079	73.8974	0.001943	38030	8.103673	171.763	249.06	1.811438	0.073899	0.073513	250.09	38030	0.068967	0.159910	1563.95	86888.4
1147	2.000000	1.814838	7.37628e+06	-57489.1	1055.82	-29736.2	0.000000	0.000000	7.827063	273.198	NaN	0.000000	0.001592	0.001714	28.0795	75.8442	0.001811	41883.3	8.870295	170.013	272.064	1.814477	0.076914	0.076552	273.198	41883.3	0.072021	0.172408	1584.6	92158.4
1147	2.000000	1.817811	7.37628e+06	-57489.1	1055.82	-29736.2	0.000000	0.000000	7.830546	285.619	NaN	0.000000	0.001567	0.001697	28.0789	77.9738	0.001803	43240.6	1.345624	176.573	284.734	1.817646	0.079886	0.079721	285.619	43240.6	0.074932	0.184726	1546.17	91918
1147	2.000000	1.820833	7.37628e+06	-57489.1	1055.82	-29736.2	0.000000	0.000000	7.834639	311.635	NaN	0.000000	0.001585	0.001702	28.0789	80.5118	0.001750	46016.9	7.509968	170.266	310.782	1.820501	0.082908	0.082576	311.635	46016.9	0.077829	0.197385	1578.81	94630.9
1147	2.000000	1.823882	7.37628e+06	-57489.1	1055.82	-29736.2	0.000000	0.000000	7.838419	329.404	NaN	0.000000	0.001591	0.001704	28.079	82.8759	0.001783	46494.1	6.262148	171.723	328.849	1.823515	0.085957	0.085590	329.404	46494.1	0.080644	0.210060	1568.14	92682.8
1147	2.000000	1.826830	7.37628e+06	-57489.1	1055.82	-29736.2	0.000000	0.000000	7.842256	351.007	NaN	0.000000	0.001556	0.001710	28.0796	84.3793	0.001743	48403.9	5.257798	172.361	350.528	1.826515	0.088905	0.088590	351.007	48403.9	0.083466	0.223140	1573.03	93619.1
1147	2.000000	1.829759	7.37628e+06	-57489.1	1055.82	-29736.2	0.000000	0.000000	7.845544	359.735	NaN	0.000000	0.001573	0.001664	28.0807	87.9501	0.001823	48243.9	1.997751	175.099	354.627	1.829502	0.091834	0.091577	359.735	48243.9	0.086242	0.236362	1521.97	90662.2
1147	2.000000	1.832760	7.37628e+06	-57489.1	1055.82	-29736.2	0.000000	0.000000	7.849702	387.859	NaN	0.000000	0.001584	0.001699	28.0803	92.4974	0.001803	51295.6	5.040614	172.027	384.556	1.832463	0.094835	0.094538	387.859	51295.6	0.089164	0.250665	1547.32	93606.5
1147	2.000000	1.835774	7.37628e+06	-57489.1	1055.82	-29736.2	0.000000	0.000000	7.853587	409.011	NaN	0.000000	0.001593	0.001716	28.0803	95.7597	0.001796	53332.8	5.598050	170.694	406.693	1.835529	0.097849	0.097604	409.011	53332.8	0.092097	0.265418	1541.01	94580.7
1147	2.000000	1.838776	7.37628e+06	-57489.1	1055.82	-29736.2	0.000000	0.000000	7.857595	433.483	NaN	0.000000	0.001590	0.001676	28.0803	98.8686	0.001835	53881.4	4.869358	171.886	431.082	1.838384	0.100851	0.100459	433.483	53881.4	0.094817	0.279447	1551.22	93124.2
1147	2.000000	1.841733	7.37628e+06	-57489.1	1055.82	-29736.2	0.000000	0.000000	7.861287	451.344	NaN	0.000000	0.001601	0.001655	28.0806	101.261	0.001762	57455.1	5.957004	170.501	449.424	1.841479	0.103808	0.103554	451.344	57455.1	0.097917	0.295849	1525.59	96508.7