File: remote_trans/data/nanoindenter/0828-1/data/Data_2025-08-06,11h17m57s/2025-07-22_16-23-58_1_200.txt
2025-07-22, 16:23:58, 1
Index	Phase	Displacement	Time	Pos X	Pos Y	Pos Z	Rot A	Rot B	Piezo Z	Force A	Force B	Gripper	Voltage A	Voltage B	Temperature	Amplitude force	Amplitude pos	Stiffness	Phase shift	Phase excitation	Force A raw	Displacement raw	HMax	HMax raw	Real Force	Real Stiffness	Contact Depth	Area	Hardness	Reduced Mod.
[#]	[#]	[um]	[s]	[um]	[um]	[um]	[m°]	[m°]	[um]	[uN]	[uN]	[V]	[V]	[V]	[°C]	[uN]	[um]	[N/m]	[°]	[°]	[uN]	[um]	[um]	[um]	[uN]	[N/m]	[um]	[um^2]	[MPa]	[MPa]
200	1.000000	0.002368	7.367e+06	-48639.1	955.818	-29762.1	0.000000	0.000000	6.002818	0.048921	NaN	0.000000	0.001598	0.001662	28.0791	0.124891	0.001011	123.52	-166.1	-167.751	0.011882	0.001086	-0.220764	-0.222046	0.048921	123.52	-0.221061	-288.814	-0.000169	NaN
200	1.000000	0.006323	7.367e+06	-48639.1	955.818	-29762.1	0.000000	0.000000	6.006776	0.094288	NaN	0.000000	0.001607	0.001691	28.0791	0.061883	0.001041	59.4217	-78.7994	-167.939	0.064251	0.005020	-0.216808	-0.218111	0.094288	59.4217	-0.217998	-258.014	-0.000365	NaN
200	1.000000	0.010323	7.367e+06	-48639.1	955.818	-29762.1	0.000000	0.000000	6.010774	0.052621	NaN	0.000000	0.001625	0.001700	28.0789	0.093424	0.000937	99.732	-92.4743	-173.413	0.006403	0.009031	-0.212808	-0.214100	0.052621	99.732	-0.213204	-216.068	-0.000244	NaN
200	1.000000	0.014347	7.367e+06	-48639.1	955.819	-29762.1	0.000000	0.000000	6.014797	0.022307	NaN	0.000000	0.001634	0.001678	28.0792	0.117091	0.001692	69.2102	161.69	-164.343	-0.047790	0.013213	-0.208784	-0.209918	0.022307	69.2102	-0.209026	-184.94	-0.000121	NaN
200	1.000000	0.018310	7.367e+06	-48639.1	955.818	-29762.1	0.000000	0.000000	6.018760	0.032137	NaN	0.000000	0.001598	0.001689	28.0791	0.103211	0.001769	58.3371	-151.75	-162.673	-0.037891	0.017012	-0.204822	-0.206120	0.032137	58.3371	-0.205235	-160.469	-0.000200	NaN
200	1.000000	0.022325	7.367e+06	-48639.1	955.818	-29762.1	0.000000	0.000000	6.022774	0.030061	NaN	0.000000	0.001614	0.001672	28.079	0.023572	0.001670	14.1185	-116.577	-163.481	0.048231	0.020955	-0.200807	-0.202177	0.030061	14.1185	-0.202404	-144.255	-0.000208	NaN
200	1.000000	0.026325	7.367e+06	-48639.1	955.818	-29762.1	0.000000	0.000000	6.026774	0.022909	NaN	0.000000	0.001630	0.001696	28.0791	0.120654	0.001971	61.2038	127.797	-165.351	-0.012049	0.024987	-0.196807	-0.198144	0.022909	61.2038	-0.197088	-117.957	-0.000194	NaN
200	1.000000	0.030308	7.367e+06	-48639.1	955.818	-29762.1	0.000000	0.000000	6.030757	0.012308	NaN	0.000000	0.001607	0.001698	28.0792	0.045227	0.001967	22.9913	92.6123	-163.818	0.086439	0.028980	-0.192823	-0.194152	0.012308	22.9913	-0.193225	-101.801	-0.000121	NaN
200	1.000000	0.034285	7.367e+06	-48639.1	955.818	-29762.1	0.000000	0.000000	6.034733	-0.006110	NaN	0.000000	0.001585	0.001711	28.079	0.042384	0.001798	23.5737	2.671897	-164.205	0.086833	0.032978	-0.188846	-0.190153	-0.006110	23.5737	-0.188652	-85.405	7.153678E-5	NaN
200	1.000000	0.038310	7.367e+06	-48639.1	955.818	-29762.1	0.000000	0.000000	6.038759	0.003145	NaN	0.000000	0.001591	0.001713	28.079	0.144084	0.001898	75.9255	45.038	-167.418	-0.007744	0.036981	-0.184822	-0.186150	0.003145	75.9255	-0.184853	-73.7307	-4.265053E-5	NaN
200	1.000000	0.042288	7.367e+06	-48639.1	955.818	-29762.1	0.000000	0.000000	6.042735	-0.029787	NaN	0.000000	0.001596	0.001672	28.079	0.093246	0.001950	47.8104	149.222	-166.721	0.001542	0.041025	-0.180844	-0.182107	-0.029787	47.8104	-0.180377	-61.9259	0.000481	NaN
200	1.000000	0.046300	7.367e+06	-48639.1	955.818	-29762.1	0.000000	0.000000	6.046751	0.046655	NaN	0.000000	0.001577	0.001686	28.0789	0.036865	0.001869	19.7267	-155.286	-165.7	0.015013	0.044988	-0.176831	-0.178144	0.046655	19.7267	-0.178605	-57.7704	-0.000808	NaN
200	1.000000	0.050310	7.367e+06	-48639.1	955.818	-29762.1	0.000000	0.000000	6.050758	-0.006813	NaN	0.000000	0.001609	0.001683	28.0794	0.115266	0.001895	60.8211	-66.1627	-165.823	0.021355	0.048969	-0.172822	-0.174162	-0.006813	60.8211	-0.172738	-45.816	0.000149	NaN
200	1.000000	0.054295	7.367e+06	-48639.1	955.818	-29762.1	0.000000	0.000000	6.054743	-0.012252	NaN	0.000000	0.001584	0.001685	28.0793	0.056636	0.002114	26.7904	22.4039	-166.064	-0.007154	0.053048	-0.168837	-0.170083	-0.012252	26.7904	-0.168494	-38.6733	0.000317	NaN
200	1.000000	0.058317	7.367e+06	-48639.1	955.817	-29762.1	0.000000	0.000000	6.058767	0.013295	NaN	0.000000	0.001563	0.001702	28.0791	0.018121	0.002182	8.306306	44.9741	-166.543	0.058503	0.057007	-0.164814	-0.166124	0.013295	8.306306	-0.166014	-35.0025	-0.000380	NaN
200	1.000000	0.062288	7.367e+06	-48639.1	955.818	-29762.1	0.000000	0.000000	6.062739	0.058984	NaN	0.000000	0.001593	0.001713	28.0791	0.084381	0.002013	41.9248	-164.279	-166.621	-0.056138	0.060955	-0.160844	-0.162177	0.058984	41.9248	-0.161899	-29.6246	-0.001991	NaN
200	1.000000	0.066298	7.367e+06	-48639.1	955.819	-29762.1	0.000000	0.000000	6.066748	0.021813	NaN	0.000000	0.001577	0.001693	28.0791	0.113034	0.002008	56.301	-1.055999	-168.139	0.042045	0.064992	-0.156833	-0.158139	0.021813	56.301	-0.157124	-24.3608	-0.000895	NaN
200	1.000000	0.070312	7.367e+06	-48639.1	955.818	-29762.1	0.000000	0.000000	6.070763	0.055006	NaN	0.000000	0.001605	0.001689	28.0795	0.037733	0.002036	18.5291	15.9782	-167.335	0.061304	0.068995	-0.152820	-0.154136	0.055006	18.5291	-0.155046	-22.3569	-0.002460	NaN
200	1.000000	0.074303	7.367e+06	-48639.1	955.818	-29762.1	0.000000	0.000000	6.074751	-0.010716	NaN	0.000000	0.001572	0.001694	28.0793	0.049302	0.002123	23.225	143.59	-167.182	-0.109556	0.073002	-0.148829	-0.150129	-0.010716	23.225	-0.148483	-16.9931	0.000631	NaN
200	1.000000	0.078287	7.367e+06	-48639.1	955.819	-29762.1	0.000000	0.000000	6.078738	0.054889	NaN	0.000000	0.001546	0.001689	28.0789	0.023304	0.002009	11.5984	138.617	-164.326	0.053561	0.077007	-0.144845	-0.146124	0.054889	11.5984	-0.148394	-16.9296	-0.003242	NaN
200	1.000000	0.082327	7.367e+06	-48639.1	955.819	-29762.1	0.000000	0.000000	6.082775	-0.016532	NaN	0.000000	0.001591	0.001699	28.0789	0.040413	0.001962	20.5974	-52.3696	-165.86	-0.092997	0.081037	-0.140804	-0.142095	-0.016532	20.5974	-0.140202	-11.9335	0.001385	NaN
200	1.000000	0.086272	7.367e+06	-48639.1	955.817	-29762.1	0.000000	0.000000	6.086721	0.003425	NaN	0.000000	0.001609	0.001692	28.0791	0.053732	0.001998	26.8969	-153.163	-169.272	-0.074125	0.084983	-0.136859	-0.138148	0.003425	26.8969	-0.136955	-10.363	-0.000330	NaN
200	1.000000	0.090342	7.367e+06	-48639.1	955.818	-29762.1	0.000000	0.000000	6.090789	-0.051092	NaN	0.000000	0.001623	0.001669	28.0792	0.036851	0.001970	18.7097	-95.8078	-164.924	-0.042152	0.089041	-0.132789	-0.134090	-0.051092	18.7097	-0.130741	-7.877506	0.006486	NaN
200	1.000000	0.094293	7.367e+06	-48639.1	955.819	-29762.1	0.000000	0.000000	6.094741	0.005080	NaN	0.000000	0.001606	0.001678	28.0792	0.003381	0.002080	1.625435	12.0128	-167.458	-0.033016	0.093022	-0.128839	-0.130109	0.005080	1.625435	-0.131183	-8.034058	-0.000632	NaN
200	1.000000	0.098331	7.367e+06	-48639.1	955.818	-29762.1	0.000000	0.000000	6.098780	0.010179	NaN	0.000000	0.001591	0.001673	28.0792	0.033675	0.001913	17.6009	119.719	-168.164	-0.000815	0.097039	-0.124800	-0.126092	0.010179	17.6009	-0.125234	-6.146368	-0.001656	NaN
200	1.000000	0.102291	7.367e+06	-48639.1	955.818	-29762.1	0.000000	0.000000	6.102737	-0.054547	NaN	0.000000	0.001593	0.001680	28.0787	0.060382	0.001949	30.984	-41.7046	-164.841	-0.102705	0.101049	-0.120840	-0.122082	-0.054547	30.984	-0.119520	-4.724803	0.011545	NaN
200	1.000000	0.106338	7.367e+06	-48639.1	955.818	-29762.1	0.000000	0.000000	6.106788	0.022060	NaN	0.000000	0.001603	0.001699	28.0791	0.113429	0.001948	58.2206	96.0583	-165.738	0.067753	0.104980	-0.116793	-0.118152	0.022060	58.2206	-0.117077	-4.214435	-0.005234	NaN
200	1.000000	0.110306	7.367e+06	-48639.1	955.818	-29762.1	0.000000	0.000000	6.110759	0.112704	NaN	0.000000	0.001648	0.001697	28.079	0.131781	0.001976	66.6952	29.188	-164.837	0.152219	0.108965	-0.112825	-0.114166	0.112704	66.6952	-0.114093	-3.659050	-0.030801	NaN
200	1.000000	0.114332	7.367e+06	-48639.1	955.819	-29762.1	0.000000	0.000000	6.114787	0.156586	NaN	0.000000	0.001625	0.001652	28.0784	0.187955	0.001966	95.5957	67.1073	-166.594	0.112402	0.112983	-0.108799	-0.110148	0.156586	95.5957	-0.110028	-3.009276	-0.052034	NaN
200	1.000000	0.118304	7.367e+06	-48639.1	955.818	-29762.1	0.000000	0.000000	6.118759	0.152992	NaN	0.000000	0.001592	0.001685	28.0779	0.162263	0.002054	79.0021	19.3403	-165.634	0.140141	0.117031	-0.104828	-0.106100	0.152992	79.0021	-0.106280	-2.504611	-0.061084	NaN
200	1.000000	0.122337	7.367e+06	-48639.1	955.818	-29762.1	0.000000	0.000000	6.122799	0.309760	NaN	0.000000	0.001565	0.001693	28.0776	0.120419	0.001970	61.1404	0.423647	-166.386	0.260689	0.121063	-0.100794	-0.102068	0.309760	61.1404	-0.104594	-2.303520	-0.134472	NaN
200	1.000000	0.126301	7.367e+06	-48639.1	955.819	-29762.1	0.000000	0.000000	6.126758	0.218175	NaN	0.000000	0.001597	0.001695	28.079	0.219774	0.002106	104.368	-2.019015	-167.166	0.184734	0.125071	-0.096831	-0.098061	0.218175	104.368	-0.098399	-1.683155	-0.129623	NaN
200	1.000000	0.130342	7.367e+06	-48639.1	955.817	-29762.1	0.000000	0.000000	6.130800	0.241913	NaN	0.000000	0.001584	0.001702	28.0777	0.121501	0.002068	58.7464	9.867081	-165.441	0.220964	0.129053	-0.092790	-0.094079	0.241913	58.7464	-0.095878	-1.476998	-0.163787	NaN
200	1.000000	0.134336	7.367e+06	-48639.1	955.818	-29762.1	0.000000	0.000000	6.134799	0.348128	NaN	0.000000	0.001585	0.001701	28.0777	0.126042	0.001942	64.9131	13.2872	-166.109	0.303967	0.133000	-0.088795	-0.090132	0.348128	64.9131	-0.092818	-1.257119	-0.276925	NaN
200	1.000000	0.138338	7.367e+06	-48639.1	955.82	-29762.1	0.000000	0.000000	6.138800	0.344065	NaN	0.000000	0.001533	0.001699	28.078	0.267729	0.001888	141.819	40.4106	-170.427	0.398880	0.136977	-0.084794	-0.086154	0.344065	141.819	-0.086613	-0.898527	-0.382921	NaN
200	1.000000	0.142373	7.367e+06	-48639.1	955.819	-29762.1	0.000000	0.000000	6.142839	0.433506	NaN	0.000000	0.001571	0.001688	28.0777	0.274907	0.001939	141.778	27.502	-169.186	0.460039	0.140999	-0.080758	-0.082133	0.433506	141.778	-0.083052	-0.736596	-0.588526	NaN
200	1.000000	0.146318	7.367e+06	-48639.1	955.819	-29762.1	0.000000	0.000000	6.146788	0.514438	NaN	0.000000	0.001577	0.001725	28.0775	0.334215	0.001943	171.967	21.6918	-165.192	0.472866	0.145003	-0.076813	-0.078128	0.514438	171.967	-0.079057	-0.586173	-0.877621	NaN
200	1.000000	0.150359	7.367e+06	-48639.1	955.819	-29762.1	0.000000	0.000000	6.150836	0.703560	NaN	0.000000	0.001556	0.001724	28.0778	0.376724	0.002037	184.921	26.2504	-167.341	0.640618	0.149035	-0.072773	-0.074097	0.703560	184.921	-0.075626	-0.479387	-1.467622	NaN
200	1.000000	0.154325	7.367e+06	-48639.1	955.819	-29762.1	0.000000	0.000000	6.154804	0.756198	NaN	0.000000	0.001560	0.001734	28.0783	0.282151	0.002038	138.437	38.9038	-165.405	0.791924	0.152995	-0.068807	-0.070137	0.756198	138.437	-0.072903	-0.407272	-1.856740	NaN
200	1.000000	0.158362	7.367e+06	-48639.1	955.819	-29762.1	0.000000	0.000000	6.158846	0.866815	NaN	0.000000	0.001548	0.001712	28.0778	0.284828	0.002062	138.131	16.3816	-165.385	0.899723	0.157025	-0.064769	-0.066106	0.866815	138.131	-0.069476	-0.330235	-2.624841	NaN
200	1.000000	0.162344	7.367e+06	-48639.1	955.817	-29762.1	0.000000	0.000000	6.162834	1.019889	NaN	0.000000	0.001552	0.001722	28.0777	0.333284	0.002087	159.691	18.7981	-164.839	0.991223	0.161039	-0.060788	-0.062092	1.019889	159.691	-0.065578	-0.258565	-3.944419	NaN
200	1.000000	0.166360	7.367e+06	-48639.1	955.819	-29762.1	0.000000	0.000000	6.166855	1.130674	NaN	0.000000	0.001568	0.001718	28.0781	0.445222	0.001909	233.222	25.5113	-168.259	0.991157	0.165009	-0.056771	-0.058123	1.130674	233.222	-0.060408	-0.185000	-6.111748	NaN
200	1.000000	0.170348	7.367e+06	-48639.1	955.818	-29762.1	0.000000	0.000000	6.170848	1.245831	NaN	0.000000	0.001543	0.001715	28.0777	0.385477	0.001854	207.882	16.9458	-166.503	1.203437	0.169052	-0.052783	-0.054080	1.245831	207.882	-0.057278	-0.150225	-8.293076	NaN
200	1.000000	0.174357	7.367e+06	-48639.1	955.818	-29762.1	0.000000	0.000000	6.174863	1.400080	NaN	0.000000	0.001577	0.001724	28.0781	0.470854	0.002044	230.314	25.7709	-167.368	1.339828	0.173062	-0.048775	-0.050069	1.400080	230.314	-0.053334	-0.114918	-12.1833	NaN
200	1.000000	0.178366	7.367e+06	-48639.1	955.818	-29762.1	0.000000	0.000000	6.178875	1.477204	NaN	0.000000	0.001561	0.001681	28.0778	0.608859	0.002065	294.875	16.2438	-166.578	1.466013	0.176989	-0.044765	-0.046143	1.477204	294.875	-0.048523	-0.082308	-17.9472	NaN
200	1.000000	0.182352	7.367e+06	-48639.1	955.817	-29762.1	0.000000	0.000000	6.182864	1.553968	NaN	0.000000	0.001555	0.001692	28.0779	0.625550	0.002084	300.115	29.3951	-166.37	1.558771	0.181028	-0.040780	-0.042103	1.553968	300.115	-0.044663	-0.062762	-24.7597	NaN
200	1.000000	0.186326	7.367e+06	-48639.1	955.819	-29762.1	0.000000	0.000000	6.186840	1.591584	NaN	0.000000	0.001561	0.001700	28.0776	0.523369	0.002004	261.225	20.6672	-169.383	1.573467	0.185048	-0.036806	-0.038084	1.591584	261.225	-0.041375	-0.049797	-31.9614	NaN
200	1.000000	0.190335	7.367e+06	-48639.1	955.818	-29762.1	0.000000	0.000000	6.190854	1.733681	NaN	0.000000	0.001586	0.001705	28.0776	0.594972	0.002098	283.656	25.2959	-168.021	1.618033	0.189034	-0.032797	-0.034097	1.733681	283.656	-0.037381	-0.037694	-45.994	NaN
200	1.000000	0.194389	7.367e+06	-48639.1	955.819	-29762.1	0.000000	0.000000	6.194911	1.782292	NaN	0.000000	0.001604	0.001664	28.0785	0.708987	0.001978	358.36	21.6785	-168.862	1.779308	0.193082	-0.028742	-0.030049	1.782292	358.36	-0.032473	-0.027036	-65.9232	NaN
200	1.000000	0.198388	7.367e+06	-48639.1	955.819	-29762.1	0.000000	0.000000	6.198916	1.938777	NaN	0.000000	0.001546	0.001649	28.0778	0.678205	0.001904	356.272	21.9015	-170.594	1.970305	0.197030	-0.024744	-0.026102	1.938777	356.272	-0.028825	-0.021354	-90.7916	NaN
200	1.000000	0.202360	7.367e+06	-48639.1	955.818	-29762.1	0.000000	0.000000	6.202900	2.221082	NaN	0.000000	0.001567	0.001684	28.0778	0.765802	0.001872	409.058	26.5272	-169.453	2.205327	0.201049	-0.020771	-0.022083	2.221082	409.058	-0.024843	-0.016712	-132.901	NaN
200	1.000000	0.206375	7.367e+06	-48639.1	955.818	-29762.1	0.000000	0.000000	6.206921	2.349582	NaN	0.000000	0.001578	0.001686	28.0777	0.722495	0.001901	380.041	15.2949	-165.109	2.333022	0.204978	-0.016756	-0.018153	2.349582	380.041	-0.021393	-0.013628	-172.413	NaN
200	1.000000	0.210369	7.367e+06	-48639.1	955.818	-29762.1	0.000000	0.000000	6.210923	2.559113	NaN	0.000000	0.001543	0.001673	28.0777	0.742091	0.001901	390.367	20.6309	-167.312	2.492569	0.209031	-0.012762	-0.014101	2.559113	390.367	-0.017679	-0.010950	-233.702	NaN
200	1.000000	0.214368	7.367e+06	-48639.1	955.818	-29762.1	0.000000	0.000000	6.214926	2.674472	NaN	0.000000	0.001561	0.001680	28.078	0.761627	0.001964	387.845	18.1383	-167.804	2.709662	0.213035	-0.008764	-0.010097	2.674472	387.845	-0.013936	-0.008646	-309.344	NaN
200	1.000000	0.218356	7.367e+06	-48639.1	955.818	-29762.1	0.000000	0.000000	6.218919	2.785471	NaN	0.000000	0.001561	0.001683	28.0778	0.843291	0.002063	408.861	24.8619	-163.787	2.697803	0.217116	-0.004775	-0.006015	2.785471	408.861	-0.009885	-0.006321	-440.636	NaN
200	1.000000	0.222383	7.367e+06	-48639.1	955.818	-29762.1	0.000000	0.000000	6.222945	2.760018	NaN	0.000000	0.001576	0.001695	28.078	0.950622	0.001953	486.638	15.9623	-165.37	2.717536	0.221095	-0.000749	-0.002037	2.760018	486.638	-0.005002	-0.003418	-807.446	NaN
200	1.000000	0.226366	7.367e+06	-48639.1	955.817	-29762.1	0.000000	0.000000	6.226936	2.957743	NaN	0.000000	0.001551	0.001720	28.0777	0.926098	0.001879	492.787	20.3301	-167.827	2.959248	0.225093	0.003235	0.001962	2.957743	492.787	-0.001267	-0.000924	-3200.63	NaN
200	1.000000	0.230355	7.367e+06	-48639.1	955.818	-29762.1	0.000000	0.000000	6.230928	3.030205	NaN	0.000000	0.001595	0.001704	28.0777	1.018613	0.002061	494.273	26.6005	-169.838	3.098547	0.229103	0.007223	0.005971	3.030205	494.273	0.002625	0.002067	1466	9932.77
200	1.000000	0.234382	7.367e+06	-48639.1	955.818	-29762.1	0.000000	0.000000	6.234963	3.212174	NaN	0.000000	0.001606	0.001713	28.0781	0.954806	0.001971	484.305	21.743	-168.09	3.198274	0.233094	0.011251	0.009962	3.212174	484.305	0.006276	0.005328	602.839	6061.68
200	1.000000	0.238380	7.367e+06	-48639.1	955.819	-29762.1	0.000000	0.000000	6.238970	3.439108	NaN	0.000000	0.001573	0.001695	28.0775	0.977683	0.002009	486.665	14.9484	-170.856	3.487312	0.237071	0.015248	0.013940	3.439108	486.665	0.009948	0.009124	376.933	4654.92
200	1.000000	0.242379	7.367e+06	-48639.1	955.818	-29762.1	0.000000	0.000000	6.242975	3.583293	NaN	0.000000	0.001578	0.001684	28.0776	1.060465	0.001974	537.217	19.3027	-167.522	3.573850	0.241139	0.019247	0.018007	3.583293	537.217	0.014245	0.014292	250.726	4105.65
200	1.000000	0.246390	7.367e+06	-48639.1	955.818	-29762.1	0.000000	0.000000	6.246998	3.871636	NaN	0.000000	0.001640	0.001666	28.0781	1.021475	0.002024	504.695	12.5747	-166.174	3.829867	0.245069	0.023259	0.021938	3.871636	504.695	0.017505	0.018773	206.24	3365.43
200	1.000000	0.250418	7.367e+06	-48639.1	955.818	-29762.1	0.000000	0.000000	6.251026	3.877397	NaN	0.000000	0.001588	0.001668	28.0786	1.186916	0.002007	591.518	17.4689	-169.286	3.821762	0.249063	0.027286	0.025932	3.877397	591.518	0.022370	0.026405	146.846	3325.84
200	1.000000	0.254388	7.367e+06	-48639.1	955.819	-29762.1	0.000000	0.000000	6.255004	4.089433	NaN	0.000000	0.001588	0.001679	28.079	1.355747	0.002083	650.963	19.6585	-167.424	4.065701	0.253057	0.031256	0.029926	4.089433	650.963	0.026544	0.033885	120.685	3230.9
200	1.000000	0.258395	7.367e+06	-48639.1	955.818	-29762.1	0.000000	0.000000	6.259019	4.265119	NaN	0.000000	0.001603	0.001705	28.079	1.131197	0.001947	581.077	15.0159	-165.583	4.242414	0.257082	0.035264	0.033950	4.265119	581.077	0.029759	0.040245	105.978	2646.37
200	1.000000	0.262330	7.367e+06	-48639.1	955.818	-29762.1	0.000000	0.000000	6.262967	4.590795	NaN	0.000000	0.001606	0.001701	28.079	1.360879	0.002025	672.108	19.0793	-167.927	4.384193	0.261095	0.039198	0.037963	4.590795	672.108	0.034076	0.049615	92.5276	2756.79
200	1.000000	0.266358	7.367e+06	-48639.1	955.818	-29762.1	0.000000	0.000000	6.267008	4.893063	NaN	0.000000	0.001597	0.001730	28.0789	1.357963	0.002005	677.316	20.7524	-167.388	4.771739	0.265103	0.043227	0.041971	4.893063	677.316	0.037809	0.058488	83.6595	2558.78
200	1.000000	0.270404	7.367e+06	-48639.1	955.819	-29762.1	0.000000	0.000000	6.271055	4.916091	NaN	0.000000	0.001605	0.001723	28.0791	1.382852	0.001872	738.548	17.9067	-166.932	4.875171	0.269111	0.047273	0.045980	4.916091	738.548	0.042280	0.070054	70.1753	2549.38
200	1.000000	0.274412	7.367e+06	-48639.1	955.818	-29762.1	0.000000	0.000000	6.275074	5.189632	NaN	0.000000	0.001604	0.001701	28.0793	1.508864	0.001997	755.697	14.2482	-169.497	5.241131	0.273120	0.051280	0.049988	5.189632	755.697	0.046130	0.080827	64.2068	2428.53
200	1.000000	0.278400	7.367e+06	-48639.1	955.818	-29762.1	0.000000	0.000000	6.279077	5.540959	NaN	0.000000	0.001604	0.001692	28.0788	1.571418	0.001956	803.195	17.0225	-168.445	5.431309	0.277068	0.055269	0.053937	5.540959	803.195	0.050095	0.092707	59.7685	2410.12
200	1.000000	0.282414	7.367e+06	-48639.1	955.818	-29762.1	0.000000	0.000000	6.283109	5.989634	NaN	0.000000	0.001605	0.001714	28.0789	1.649625	0.002003	823.424	16.785	-168.806	5.886735	0.281106	0.059282	0.057975	5.989634	823.424	0.053827	0.104608	57.2579	2326.03
200	1.000000	0.286382	7.367e+06	-48639.1	955.819	-29762.1	0.000000	0.000000	6.287085	6.193183	NaN	0.000000	0.001607	0.001721	28.079	1.682201	0.002019	833.35	15.6883	-168.292	6.058354	0.285096	0.063251	0.061964	6.193183	833.35	0.057677	0.117610	52.6586	2220.13
200	1.000000	0.290407	7.367e+06	-48639.1	955.818	-29762.1	0.000000	0.000000	6.291120	6.440612	NaN	0.000000	0.001620	0.001725	28.0792	1.790854	0.001883	950.844	12.4715	-170.949	6.412088	0.289109	0.067275	0.065978	6.440612	950.844	0.062195	0.133797	48.137	2374.97
200	1.000000	0.294384	7.367e+06	-48639.1	955.818	-29762.1	0.000000	0.000000	6.295118	6.962287	NaN	0.000000	0.001599	0.001740	28.079	1.791401	0.002034	880.586	17.1306	-168.037	6.865109	0.293084	0.071252	0.069953	6.962287	880.586	0.065322	0.145582	47.8237	2108.58
200	1.000000	0.298401	7.367e+06	-48639.1	955.819	-29762.1	0.000000	0.000000	6.299151	7.321549	NaN	0.000000	0.001573	0.001720	28.079	1.866946	0.002057	907.644	13.3468	-166.669	7.136902	0.297070	0.075269	0.073939	7.321549	907.644	0.069220	0.160928	45.4959	2067.16
200	1.000000	0.302371	7.367e+06	-48639.1	955.818	-29762.1	0.000000	0.000000	6.303132	7.609674	NaN	0.000000	0.001565	0.001715	28.079	1.980948	0.002133	928.661	19.528	-167.074	7.393952	0.301090	0.079239	0.077958	7.609674	928.661	0.073094	0.176899	43.017	2017.28
200	1.000000	0.306400	7.367e+06	-48639.1	955.818	-29762.1	0.000000	0.000000	6.307176	7.973885	NaN	0.000000	0.001567	0.001702	28.0791	2.092843	0.001846	1133.7	12.7772	-167.459	7.905590	0.305093	0.083268	0.081962	7.973885	1133.7	0.077993	0.198114	40.2489	2327.09
200	1.000000	0.310450	7.367e+06	-48639.1	955.819	-29762.1	0.000000	0.000000	6.311250	8.561283	NaN	0.000000	0.001561	0.001683	28.0791	2.125433	0.002061	1031.42	22.2189	-168.587	8.487227	0.309058	0.087318	0.085927	8.561283	1031.42	0.081093	0.212115	40.3614	2046.08
200	1.000000	0.314419	7.367e+06	-48639.1	955.818	-29762.1	0.000000	0.000000	6.315226	8.731806	NaN	0.000000	0.001533	0.001675	28.0792	2.202171	0.002064	1066.9	22.354	-169.977	8.749243	0.313128	0.091287	0.089997	8.731806	1066.9	0.085149	0.231112	37.7817	2027.62
200	1.000000	0.318324	7.367e+06	-48639.1	955.819	-29762.1	0.000000	0.000000	6.319152	9.216436	NaN	0.000000	0.001557	0.001685	28.0789	2.138445	0.001953	1094.78	12.5592	-166.366	9.171604	0.317118	0.095193	0.093987	9.216436	1094.78	0.088879	0.249251	36.9765	2003.46
200	2.000000	0.320065	7.367e+06	-48639.1	955.818	-29762.1	0.000000	0.000000	6.320869	8.658633	NaN	0.000000	0.001571	0.001705	28.0788	2.311006	0.002055	1124.59	8.989704	-165.784	8.765314	0.319753	0.096933	0.096621	8.658633	1124.59	0.091159	0.260653	33.219	2012.5
200	2.000000	0.321060	7.367e+06	-48639.1	955.818	-29762.1	0.000000	0.000000	6.321855	8.409891	NaN	0.000000	0.001587	0.001695	28.0788	2.267712	0.001889	1200.65	13.437	-168.603	8.483020	0.320747	0.097929	0.097615	8.409891	1200.65	0.092676	0.268373	31.3366	2117.49
200	2.000000	0.322042	7.367e+06	-48639.1	955.818	-29762.1	0.000000	0.000000	6.322836	8.385145	NaN	0.000000	0.001584	0.001693	28.0794	2.387095	0.001936	1232.9	14.1672	-168.962	8.400437	0.321725	0.098911	0.098593	8.385145	1232.9	0.093810	0.274214	30.5788	2151.08
200	2.000000	0.323058	7.367e+06	-48639.1	955.818	-29762.1	0.000000	0.000000	6.323854	8.446244	NaN	0.000000	0.001592	0.001704	28.0788	2.228697	0.001968	1132.39	9.689576	-166.726	8.462521	0.322708	0.099927	0.099577	8.446244	1132.39	0.094333	0.276924	30.5002	1966.02
200	2.000000	0.324017	7.367e+06	-48639.1	955.818	-29762.1	0.000000	0.000000	6.324822	8.683953	NaN	0.000000	0.001567	0.001703	28.0789	2.445628	0.002006	1219.33	14.9913	-171.972	8.605460	0.323707	0.100885	0.100575	8.683953	1219.33	0.095544	0.283253	30.6579	2093.19
200	2.000000	0.325025	7.367e+06	-48639.1	955.818	-29762.1	0.000000	0.000000	6.325827	8.588695	NaN	0.000000	0.001579	0.001712	28.079	2.445729	0.001919	1274.39	11.2918	-168.126	8.616690	0.324723	0.101893	0.101591	8.588695	1274.39	0.096839	0.290096	29.6064	2161.75
200	2.000000	0.325983	7.367e+06	-48639.1	955.818	-29762.1	0.000000	0.000000	6.326789	8.697406	NaN	0.000000	0.001603	0.001698	28.0788	2.349452	0.002056	1142.62	11.5588	-166.506	8.489384	0.325687	0.102851	0.102555	8.697406	1142.62	0.097142	0.291711	29.8152	1932.85
200	2.000000	0.326993	7.367e+06	-48639.1	955.818	-29762.1	0.000000	0.000000	6.327802	8.755294	NaN	0.000000	0.001602	0.001701	28.0788	2.494942	0.002030	1229.22	14.618	-168.866	8.847720	0.326697	0.103862	0.103566	8.755294	1229.22	0.098520	0.299091	29.2731	2053.52
200	2.000000	0.328007	7.367e+06	-48639.1	955.819	-29762.1	0.000000	0.000000	6.328818	8.811472	NaN	0.000000	0.001588	0.001668	28.0788	2.383675	0.002047	1164.74	12.9495	-168.741	8.682427	0.327658	0.104876	0.104527	8.811472	1164.74	0.099202	0.302778	29.1021	1933.93
200	2.000000	0.328989	7.367e+06	-48639.1	955.818	-29762.1	0.000000	0.000000	6.329807	8.995296	NaN	0.000000	0.001575	0.001687	28.079	2.356435	0.001972	1194.72	12.8668	-167.724	9.030759	0.328655	0.105857	0.105524	8.995296	1194.72	0.100211	0.308269	29.18	1965.95
200	2.000000	0.329981	7.367e+06	-48639.1	955.818	-29762.1	0.000000	0.000000	6.330796	8.892437	NaN	0.000000	0.001609	0.001686	28.0788	2.625263	0.002137	1228.7	15.7354	-169.291	8.984531	0.329675	0.106850	0.106543	8.892437	1228.7	0.101422	0.314925	28.2367	2000.4
200	2.000000	0.330981	7.367e+06	-48639.1	955.818	-29762.1	0.000000	0.000000	6.331799	8.989604	NaN	0.000000	0.001624	0.001693	28.079	2.561570	0.001976	1296.34	4.825386	-166.436	8.845573	0.330676	0.107849	0.107544	8.989604	1296.34	0.102648	0.321729	27.9416	2088.07
200	2.000000	0.331987	7.367e+06	-48639.1	955.818	-29762.1	0.000000	0.000000	6.332804	8.968866	NaN	0.000000	0.001609	0.001690	28.0795	2.510449	0.001976	1270.3	12.7215	-171.062	9.006706	0.331646	0.108855	0.108514	8.968866	1270.3	0.103560	0.326834	27.4417	2030.1
200	2.000000	0.332961	7.367e+06	-48639.1	955.819	-29762.1	0.000000	0.000000	6.333783	9.080105	NaN	0.000000	0.001636	0.001707	28.0788	2.448483	0.002042	1199.15	15.0061	-167.946	9.040449	0.332651	0.109829	0.109520	9.080105	1199.15	0.104150	0.330157	27.5024	1906.72
200	2.000000	0.334002	7.367e+06	-48639.1	955.818	-29762.1	0.000000	0.000000	6.334821	9.005569	NaN	0.000000	0.001686	0.001689	28.0789	2.398515	0.001963	1221.86	11.2189	-165.589	9.060804	0.333681	0.110870	0.110550	9.005569	1221.86	0.105343	0.336920	26.7291	1923.24
200	2.000000	0.334975	7.367e+06	-48639.1	955.818	-29762.1	0.000000	0.000000	6.335793	8.987663	NaN	0.000000	0.001643	0.001705	28.079	2.393036	0.002077	1152.02	14.2019	-170.743	9.028698	0.334667	0.111843	0.111536	8.987663	1152.02	0.105992	0.340632	26.3852	1803.39
200	2.000000	0.335967	7.367e+06	-48639.1	955.819	-29762.1	0.000000	0.000000	6.336790	9.116793	NaN	0.000000	0.001636	0.001709	28.0786	2.434931	0.002063	1180.46	11.9724	-167.283	9.049389	0.335604	0.112835	0.112473	9.116793	1180.46	0.107043	0.346676	26.2977	1831.73
200	2.000000	0.336995	7.367e+06	-48639.1	955.818	-29762.1	0.000000	0.000000	6.337813	8.987006	NaN	0.000000	0.001689	0.001692	28.0778	2.382003	0.001956	1217.88	7.181096	-164.464	9.049817	0.336637	0.113864	0.113506	8.987006	1217.88	0.108329	0.354145	25.3767	1869.77
200	2.000000	0.337964	7.367e+06	-48639.1	955.818	-29762.1	0.000000	0.000000	6.338785	9.047550	NaN	0.000000	0.001633	0.001718	28.0776	2.406151	0.001948	1235.33	14.7955	-170.563	9.039697	0.337622	0.114833	0.114490	9.047550	1235.33	0.109340	0.360064	25.1276	1880.9
200	2.000000	0.338975	7.367e+06	-48639.1	955.818	-29762.1	0.000000	0.000000	6.339797	9.083387	NaN	0.000000	0.001624	0.001661	28.0778	2.444960	0.002078	1176.54	10.3522	-167.656	8.994454	0.338695	0.115843	0.115563	9.083387	1176.54	0.110053	0.364271	24.9358	1781.01
200	2.000000	0.339932	7.367e+06	-48639.1	955.818	-29762.1	0.000000	0.000000	6.340752	9.033987	NaN	0.000000	0.001605	0.001678	28.0775	2.459801	0.002003	1227.87	15.0588	-169.791	8.952264	0.339682	0.116800	0.116550	9.033987	1227.87	0.111282	0.371571	24.3129	1840.36
200	2.000000	0.340979	7.367e+06	-48639.1	955.818	-29762.1	0.000000	0.000000	6.341803	9.120983	NaN	0.000000	0.001634	0.001681	28.0776	2.599107	0.001980	1312.55	12.8272	-168.026	9.115763	0.340646	0.117848	0.117514	9.120983	1312.55	0.112636	0.379694	24.022	1946.14
200	2.000000	0.341965	7.367e+06	-48639.1	955.818	-29762.1	0.000000	0.000000	6.342787	9.094121	NaN	0.000000	0.001655	0.001700	28.0777	2.589240	0.002155	1201.32	13.127	-165.029	9.128895	0.341598	0.118833	0.118466	9.094121	1201.32	0.113156	0.382834	23.7548	1773.89
200	2.000000	0.342979	7.367e+06	-48639.1	955.819	-29762.1	0.000000	0.000000	6.343801	9.091220	NaN	0.000000	0.001639	0.001689	28.0774	2.585597	0.002184	1183.81	14.6819	-168.261	9.080781	0.342644	0.119847	0.119512	9.091220	1183.81	0.114088	0.388496	23.4011	1735.25
200	2.000000	0.343956	7.367e+06	-48639.1	955.817	-29762.1	0.000000	0.000000	6.344785	9.248957	NaN	0.000000	0.001682	0.001709	28.0776	2.495296	0.002049	1218.07	13.3946	-168.114	9.272351	0.343680	0.120824	0.120548	9.248957	1218.07	0.115130	0.394871	23.4227	1771
200	2.000000	0.344951	7.367e+06	-48639.1	955.818	-29762.1	0.000000	0.000000	6.345783	9.312849	NaN	0.000000	0.001650	0.001701	28.0774	2.649872	0.002084	1271.69	17.4193	-169.445	9.268066	0.344632	0.121820	0.121500	9.312849	1271.69	0.116327	0.402261	23.1512	1831.89
200	2.000000	0.345918	7.367e+06	-48639.1	955.818	-29762.1	0.000000	0.000000	6.346756	9.477679	NaN	0.000000	0.001661	0.001669	28.0776	2.586375	0.001974	1310.45	10.9397	-167.645	9.292827	0.345682	0.122786	0.122550	9.477679	1310.45	0.117362	0.408698	23.19	1872.81
200	2.000000	0.346964	7.367e+06	-48639.1	955.818	-29762.1	0.000000	0.000000	6.347795	9.295007	NaN	0.000000	0.001652	0.001697	28.0774	2.421160	0.001977	1224.79	10.0345	-167.21	9.462493	0.346701	0.123833	0.123570	9.295007	1224.79	0.118141	0.413577	22.4747	1740.03
200	2.000000	0.347949	7.367e+06	-48639.1	955.818	-29762.1	0.000000	0.000000	6.348783	9.376684	NaN	0.000000	0.001638	0.001687	28.0772	2.542917	0.002134	1191.8	14.1652	-168.397	9.361168	0.347623	0.124818	0.124492	9.376684	1191.8	0.118917	0.418463	22.4074	1683.25
200	2.000000	0.348973	7.367e+06	-48639.1	955.819	-29762.1	0.000000	0.000000	6.349815	9.579771	NaN	0.000000	0.001690	0.001699	28.0776	2.514035	0.002087	1204.86	17.471	-174.624	9.716287	0.348625	0.125841	0.125493	9.579771	1204.86	0.119878	0.424554	22.5643	1689.45
200	2.000000	0.349944	7.367e+06	-48639.1	955.819	-29762.1	0.000000	0.000000	6.350779	9.397303	NaN	0.000000	0.001670	0.001689	28.0772	2.494420	0.001897	1315.25	11.578	-170.777	9.575164	0.349644	0.126812	0.126513	9.397303	1315.25	0.121454	0.434628	21.6215	1822.73
200	2.000000	0.350956	7.367e+06	-48639.1	955.818	-29762.1	0.000000	0.000000	6.351793	9.432875	NaN	0.000000	0.001687	0.001652	28.0774	2.685663	0.002083	1289.42	14.97	-171.368	9.541531	0.350661	0.127825	0.127530	9.432875	1289.42	0.122338	0.440333	21.4221	1775.33
200	2.000000	0.351944	7.367e+06	-48639.1	955.819	-29762.1	0.000000	0.000000	6.352786	9.563008	NaN	0.000000	0.001658	0.001650	28.0778	2.535932	0.002000	1267.95	14.8924	-166.531	9.601804	0.351603	0.128813	0.128471	9.563008	1267.95	0.123156	0.445640	21.459	1735.33
200	2.000000	0.352950	7.367e+06	-48639.1	955.818	-29762.1	0.000000	0.000000	6.353794	9.603770	NaN	0.000000	0.001653	0.001658	28.0773	2.423012	0.001963	1234.32	13.856	-170.164	9.579730	0.352588	0.129819	0.129456	9.603770	1234.32	0.123983	0.451040	21.2925	1679.16
200	2.000000	0.353944	7.367e+06	-48639.1	955.818	-29762.1	0.000000	0.000000	6.354786	9.568515	NaN	0.000000	0.001609	0.001672	28.0773	2.538140	0.001840	1379.11	9.126265	-168.002	9.574033	0.353618	0.130812	0.130487	9.568515	1379.11	0.125609	0.461740	20.7227	1854.27
200	2.000000	0.354925	7.367e+06	-48639.1	955.819	-29762.1	0.000000	0.000000	6.355770	9.635633	NaN	0.000000	0.001628	0.001707	28.0774	2.580022	0.001983	1300.81	14.3671	-166.547	9.552363	0.354614	0.131794	0.131483	9.635633	1300.81	0.126238	0.465914	20.6811	1741.14
200	2.000000	0.355967	7.367e+06	-48639.1	955.818	-29762.1	0.000000	0.000000	6.356811	9.621618	NaN	0.000000	0.001578	0.001700	28.0774	2.461733	0.001970	1249.88	14.1291	-166.909	9.658762	0.355646	0.132836	0.132515	9.621618	1249.88	0.127062	0.471409	20.4104	1663.2
200	2.000000	0.356927	7.367e+06	-48639.1	955.818	-29762.1	0.000000	0.000000	6.357768	9.533994	NaN	0.000000	0.001583	0.001689	28.0772	2.406482	0.002008	1198.34	14.6381	-166.28	9.544702	0.356666	0.133796	0.133535	9.533994	1198.34	0.127829	0.476547	20.0064	1586
200	2.000000	0.357914	7.367e+06	-48639.1	955.818	-29762.1	0.000000	0.000000	6.358758	9.618861	NaN	0.000000	0.001620	0.001716	28.0771	2.660684	0.001999	1330.83	10.5103	-166.375	9.493900	0.357649	0.134783	0.134518	9.618861	1330.83	0.129362	0.486903	19.7552	1742.51
200	2.000000	0.358927	7.367e+06	-48639.1	955.817	-29762.1	0.000000	0.000000	6.359774	9.700434	NaN	0.000000	0.001581	0.001692	28.0775	2.429541	0.001978	1228.55	10.6188	-166.445	9.781429	0.358679	0.135795	0.135548	9.700434	1228.55	0.129874	0.490383	19.7813	1602.87
200	2.000000	0.359906	7.367e+06	-48639.1	955.818	-29762.1	0.000000	0.000000	6.360747	9.536948	NaN	0.000000	0.001601	0.001713	28.0773	2.492930	0.002144	1162.55	14.6141	-168.054	9.707927	0.359699	0.136775	0.136568	9.536948	1162.55	0.130622	0.495496	19.2473	1508.91
200	2.000000	0.360949	7.367e+06	-48639.1	955.818	-29762.1	0.000000	0.000000	6.361796	9.691645	NaN	0.000000	0.001598	0.001692	28.0773	2.677734	0.002044	1309.75	15.0913	-169.949	9.723640	0.360647	0.137818	0.137516	9.691645	1309.75	0.132268	0.506829	19.1221	1680.85
200	2.000000	0.361948	7.367e+06	-48639.1	955.819	-29762.1	0.000000	0.000000	6.362795	9.691741	NaN	0.000000	0.001585	0.001700	28.0775	2.620031	0.001915	1368.12	14.6017	-170.066	9.770976	0.361603	0.138816	0.138472	9.691741	1368.12	0.133503	0.515416	18.8037	1741.08
200	2.000000	0.362930	7.367e+06	-48639.1	955.819	-29762.1	0.000000	0.000000	6.363776	9.672827	NaN	0.000000	0.001578	0.001719	28.0773	2.436973	0.001852	1315.88	10.139	-165.38	9.685476	0.362593	0.139799	0.139461	9.672827	1315.88	0.134285	0.520891	18.5698	1665.77
200	2.000000	0.363919	7.367e+06	-48639.1	955.818	-29762.1	0.000000	0.000000	6.364770	9.793949	NaN	0.000000	0.001574	0.001679	28.0773	2.557805	0.001944	1315.82	15.8595	-168.262	9.828998	0.363593	0.140788	0.140462	9.793949	1315.82	0.135205	0.527364	18.5715	1655.45
200	2.000000	0.364948	7.367e+06	-48639.1	955.818	-29762.1	0.000000	0.000000	6.365800	9.816254	NaN	0.000000	0.001584	0.001678	28.077	2.491575	0.001957	1272.87	14.8992	-167.435	9.822444	0.364629	0.141816	0.141498	9.816254	1272.87	0.136032	0.533218	18.4095	1592.59
200	2.000000	0.365931	7.367e+06	-48639.1	955.818	-29762.1	0.000000	0.000000	6.366787	9.912948	NaN	0.000000	0.001618	0.001710	28.0774	2.608092	0.002043	1276.87	15.5871	-168.61	9.847547	0.365582	0.142799	0.142451	9.912948	1276.87	0.136976	0.539937	18.3595	1587.63
200	2.000000	0.366931	7.367e+06	-48639.1	955.818	-29762.1	0.000000	0.000000	6.367789	9.972111	NaN	0.000000	0.001600	0.001719	28.0772	2.592775	0.001905	1361.07	11.2247	-168.724	10.1535	0.366613	0.143799	0.143482	9.972111	1361.07	0.138304	0.549456	18.1491	1677.6
200	2.000000	0.367930	7.367e+06	-48639.1	955.819	-29762.1	0.000000	0.000000	6.368787	9.942333	NaN	0.000000	0.001604	0.001720	28.0773	2.631629	0.002008	1310.59	13.2122	-165.164	9.901016	0.367645	0.144798	0.144513	9.942333	1310.59	0.139109	0.555263	17.9056	1606.91
200	2.000000	0.368918	7.367e+06	-48639.1	955.818	-29762.1	0.000000	0.000000	6.369772	9.850580	NaN	0.000000	0.001605	0.001698	28.0774	2.659122	0.002061	1290.3	16.8161	-169.85	9.969353	0.368604	0.145786	0.145472	9.850580	1290.3	0.140061	0.562175	17.5223	1572.27
200	2.000000	0.369919	7.367e+06	-48639.1	955.818	-29762.1	0.000000	0.000000	6.370772	9.829655	NaN	0.000000	0.001629	0.001716	28.0774	2.656199	0.002037	1304.08	9.648752	-167.977	9.954461	0.369653	0.146787	0.146522	9.829655	1304.08	0.141134	0.570018	17.2445	1578.1
200	2.000000	0.370927	7.367e+06	-48639.1	955.818	-29762.1	0.000000	0.000000	6.371790	10.095	NaN	0.000000	0.001627	0.001660	28.0783	2.680820	0.001935	1385.43	12.6913	-168.263	10.0584	0.370634	0.147795	0.147503	10.095	1385.43	0.142330	0.578819	17.4407	1663.75
200	2.000000	0.371938	7.367e+06	-48639.1	955.818	-29762.1	0.000000	0.000000	6.372791	9.850566	NaN	0.000000	0.001605	0.001685	28.0785	2.737867	0.001958	1398.42	15.4314	-171.125	10.0255	0.371599	0.148806	0.148468	9.850566	1398.42	0.143523	0.587663	16.7623	1666.66
200	2.000000	0.372911	7.367e+06	-48639.1	955.818	-29762.1	0.000000	0.000000	6.373774	10.0794	NaN	0.000000	0.001601	0.001684	28.0787	2.809701	0.001947	1442.73	10.5887	-168.614	10.1747	0.372654	0.149780	0.149522	10.0794	1442.73	0.144540	0.595252	16.9331	1708.47
200	2.000000	0.373955	7.367e+06	-48639.1	955.818	-29762.1	0.000000	0.000000	6.374810	9.890290	NaN	0.000000	0.001598	0.001690	28.0783	2.614746	0.001930	1354.44	13.0017	-169.028	9.995432	0.373656	0.150823	0.150525	9.890290	1354.44	0.145347	0.601310	16.4479	1595.83
200	2.000000	0.374907	7.367e+06	-48639.1	955.818	-29762.1	0.000000	0.000000	6.375771	10.1081	NaN	0.000000	0.001602	0.001657	28.0786	2.692877	0.002010	1339.87	15.6356	-170.188	9.957915	0.374565	0.151775	0.151434	10.1081	1339.87	0.146117	0.607121	16.6492	1571.08
200	2.000000	0.375935	7.367e+06	-48639.1	955.818	-29762.1	0.000000	0.000000	6.376795	10.0088	NaN	0.000000	0.001591	0.001677	28.0785	2.713156	0.002058	1318.29	11.1261	-166.34	10.1294	0.375618	0.152804	0.152486	10.0088	1318.29	0.147109	0.614648	16.2839	1536.28
200	2.000000	0.376909	7.367e+06	-48639.1	955.818	-29762.1	0.000000	0.000000	6.377774	10.1197	NaN	0.000000	0.001624	0.001652	28.0785	2.721739	0.002053	1326.05	10.8208	-165.075	10.0895	0.376549	0.153778	0.153417	10.1197	1326.05	0.148054	0.621856	16.2734	1536.34
200	2.000000	0.377920	7.367e+06	-48639.1	955.817	-29762.1	0.000000	0.000000	6.378788	10.1996	NaN	0.000000	0.001631	0.001648	28.0785	2.674309	0.001944	1375.69	15.7578	-169.482	10.1948	0.377542	0.154789	0.154411	10.1996	1375.69	0.149228	0.630869	16.1675	1582.43
200	2.000000	0.378950	7.36701e+06	-48639.1	955.818	-29762.1	0.000000	0.000000	6.379816	10.15	NaN	0.000000	0.001616	0.001674	28.0783	2.601310	0.002022	1286.51	12.1326	-167.749	10.2674	0.378595	0.155818	0.155463	10.15	1286.51	0.149901	0.636067	15.9575	1473.79
200	2.000000	0.379892	7.36701e+06	-48639.1	955.818	-29762.1	0.000000	0.000000	6.380758	10.1687	NaN	0.000000	0.001596	0.001654	28.0788	2.782662	0.002110	1319.07	12.3291	-167.986	10.154	0.379628	0.156760	0.156496	10.1687	1319.07	0.150979	0.644431	15.7793	1501.25
200	2.000000	0.380931	7.36701e+06	-48639.1	955.818	-29762.1	0.000000	0.000000	6.381801	10.2391	NaN	0.000000	0.001620	0.001664	28.0784	2.993112	0.001966	1522.8	15.1694	-170.786	10.4184	0.380571	0.157800	0.157440	10.2391	1522.8	0.152757	0.658352	15.5527	1714.7
200	2.000000	0.381932	7.36701e+06	-48639.1	955.818	-29762.1	0.000000	0.000000	6.382800	10.201	NaN	0.000000	0.001600	0.001652	28.0784	2.693889	0.001993	1351.69	12.8008	-166.342	10.2225	0.381594	0.158801	0.158462	10.201	1351.69	0.153140	0.661374	15.424	1518.54
200	2.000000	0.382899	7.36701e+06	-48639.1	955.818	-29762.1	0.000000	0.000000	6.383770	10.279	NaN	0.000000	0.001618	0.001711	28.0788	2.788528	0.002044	1364.09	15.7553	-171.676	10.2637	0.382598	0.159767	0.159466	10.279	1364.09	0.154116	0.669091	15.3626	1523.61
200	2.000000	0.383891	7.36701e+06	-48639.1	955.818	-29762.1	0.000000	0.000000	6.384762	10.2693	NaN	0.000000	0.001610	0.001676	28.0785	2.836708	0.002027	1399.76	14.4961	-170.178	10.3057	0.383565	0.160760	0.160434	10.2693	1399.76	0.155257	0.678178	15.1426	1552.94
200	2.000000	0.384926	7.36701e+06	-48639.1	955.818	-29762.1	0.000000	0.000000	6.385800	10.3438	NaN	0.000000	0.001599	0.001698	28.0788	2.766065	0.002082	1328.85	18.7579	-170.24	10.3604	0.384594	0.161795	0.161463	10.3438	1328.85	0.155957	0.683776	15.1274	1468.23
200	2.000000	0.385896	7.36701e+06	-48639.1	955.818	-29762.1	0.000000	0.000000	6.386762	10.1594	NaN	0.000000	0.001588	0.001684	28.0786	2.659986	0.002031	1309.61	12.7884	-170.333	10.214	0.385597	0.162765	0.162466	10.1594	1309.61	0.156946	0.691737	14.6868	1438.61
200	2.000000	0.386915	7.36701e+06	-48639.1	955.818	-29762.1	0.000000	0.000000	6.387793	10.4328	NaN	0.000000	0.001594	0.001663	28.0786	2.861537	0.002089	1369.95	16.0983	-170.767	10.4607	0.386585	0.163784	0.163453	10.4328	1369.95	0.158072	0.700847	14.886	1495.09
200	2.000000	0.387928	7.36701e+06	-48639.1	955.819	-29762.1	0.000000	0.000000	6.388798	10.2458	NaN	0.000000	0.001584	0.001683	28.0785	2.772100	0.002017	1374.3	17.4572	-168.473	10.4013	0.387573	0.164796	0.164441	10.2458	1374.3	0.159205	0.710076	14.4291	1490.06
200	2.000000	0.388876	7.36701e+06	-48639.1	955.818	-29762.1	0.000000	0.000000	6.389747	10.2794	NaN	0.000000	0.001633	0.001649	28.0786	2.703174	0.002004	1348.75	13.1325	-168.806	10.1558	0.388604	0.165745	0.165472	10.2794	1348.75	0.160029	0.716826	14.3401	1455.45
200	2.000000	0.389923	7.36701e+06	-48639.1	955.819	-29762.1	0.000000	0.000000	6.390795	10.2987	NaN	0.000000	0.001651	0.001652	28.0788	2.756326	0.001925	1432.12	15.2627	-170.111	10.2905	0.389580	0.166792	0.166449	10.2987	1432.12	0.161399	0.728118	14.1442	1533.39
200	2.000000	0.390905	7.36701e+06	-48639.1	955.818	-29762.1	0.000000	0.000000	6.391775	10.2483	NaN	0.000000	0.001606	0.001672	28.0785	2.619414	0.001966	1332.04	9.443730	-163.433	10.2786	0.390594	0.167773	0.167462	10.2483	1332.04	0.162003	0.733129	13.9788	1421.34
200	2.000000	0.391911	7.36701e+06	-48639.1	955.817	-29762.1	0.000000	0.000000	6.392789	10.4261	NaN	0.000000	0.001612	0.001640	28.0784	2.810697	0.001938	1450.62	11.263	-170.914	10.4869	0.391581	0.168780	0.168449	10.4261	1450.62	0.163389	0.744690	14.0006	1535.81
200	2.000000	0.392871	7.36701e+06	-48639.1	955.818	-29762.1	0.000000	0.000000	6.393751	10.4913	NaN	0.000000	0.001626	0.001685	28.0787	2.897789	0.002043	1418.65	13.1366	-166.941	10.4807	0.392591	0.169739	0.169460	10.4913	1418.65	0.164193	0.751429	13.9618	1495.22
200	2.000000	0.393888	7.36701e+06	-48639.1	955.819	-29762.1	0.000000	0.000000	6.394769	10.5023	NaN	0.000000	0.001640	0.001674	28.0786	2.757370	0.001996	1381.63	12.3374	-166.494	10.5458	0.393625	0.170757	0.170494	10.5023	1381.63	0.165056	0.758703	13.8424	1449.2
200	2.000000	0.394910	7.36701e+06	-48639.1	955.817	-29762.1	0.000000	0.000000	6.395787	10.4238	NaN	0.000000	0.001654	0.001695	28.0786	2.860638	0.002035	1405.43	14.2599	-168.942	10.5213	0.394623	0.171778	0.171492	10.4238	1405.43	0.166216	0.768537	13.5631	1464.7
200	2.000000	0.395920	7.36701e+06	-48639.1	955.819	-29762.1	0.000000	0.000000	6.396795	10.3839	NaN	0.000000	0.001597	0.001677	28.0784	2.839305	0.002027	1400.86	15.2382	-169.448	10.5305	0.395645	0.172788	0.172514	10.3839	1400.86	0.167229	0.777175	13.3611	1451.8
200	2.000000	0.396900	7.36701e+06	-48639.1	955.818	-29762.1	0.000000	0.000000	6.397781	10.5221	NaN	0.000000	0.001647	0.001707	28.0784	2.721127	0.001774	1533.93	12.0019	-167.787	10.4795	0.396575	0.173769	0.173443	10.5221	1533.93	0.168624	0.789157	13.3333	1577.6
200	2.000000	0.397873	7.36701e+06	-48639.1	955.819	-29762.1	0.000000	0.000000	6.398758	10.6142	NaN	0.000000	0.001654	0.001678	28.0785	2.788424	0.001979	1408.71	11.13	-167.029	10.6595	0.397620	0.174741	0.174488	10.6142	1408.71	0.169090	0.793181	13.3818	1445.14
200	2.000000	0.398912	7.36701e+06	-48639.1	955.819	-29762.1	0.000000	0.000000	6.399800	10.7009	NaN	0.000000	0.001644	0.001676	28.0785	2.858736	0.001938	1475.44	14.7401	-171.139	10.9014	0.398587	0.175780	0.175455	10.7009	1475.44	0.170341	0.804022	13.3092	1503.35
200	2.000000	0.399905	7.36701e+06	-48639.1	955.818	-29762.1	0.000000	0.000000	6.400787	10.5371	NaN	0.000000	0.001633	0.001658	28.0788	3.046669	0.002000	1523.68	15.5994	-172.307	10.5591	0.399601	0.176774	0.176469	10.5371	1523.68	0.171587	0.814903	12.9305	1542.11
200	2.000000	0.400897	7.36701e+06	-48639.1	955.818	-29762.1	0.000000	0.000000	6.401779	10.5371	NaN	0.000000	0.001622	0.001674	28.0785	2.928735	0.001926	1520.88	12.1973	-167.377	10.5119	0.400602	0.177765	0.177470	10.5371	1520.88	0.172569	0.823529	12.7951	1531.19
200	2.000000	0.401900	7.36701e+06	-48639.1	955.819	-29762.1	0.000000	0.000000	6.402788	10.6768	NaN	0.000000	0.001606	0.001692	28.0787	2.954257	0.001986	1487.31	11.4441	-166.414	10.7466	0.401528	0.178769	0.178396	10.6768	1487.31	0.173385	0.830730	12.8523	1490.89
200	2.000000	0.402886	7.36701e+06	-48639.1	955.818	-29762.1	0.000000	0.000000	6.403775	10.6957	NaN	0.000000	0.001630	0.001650	28.0787	3.101027	0.002045	1516.34	17.9669	-170.595	10.6375	0.402627	0.179755	0.179496	10.6957	1516.34	0.174465	0.840308	12.7283	1511.3
200	2.000000	0.403930	7.36701e+06	-48639.1	955.819	-29762.1	0.000000	0.000000	6.404817	10.6789	NaN	0.000000	0.001644	0.001677	28.0788	2.940456	0.002056	1429.85	13.2986	-165.533	10.7315	0.403563	0.180798	0.180431	10.6789	1429.85	0.175197	0.846835	12.6103	1419.6
200	2.000000	0.404858	7.36701e+06	-48639.1	955.818	-29762.1	0.000000	0.000000	6.405748	10.7481	NaN	0.000000	0.001624	0.001674	28.0773	3.011600	0.002087	1443.22	10.3184	-168.254	10.7113	0.404521	0.181726	0.181390	10.7481	1443.22	0.176141	0.855291	12.5666	1425.77
200	2.000000	0.405887	7.36701e+06	-48639.1	955.818	-29762.1	0.000000	0.000000	6.406773	10.6544	NaN	0.000000	0.001658	0.001678	28.0775	3.033672	0.002021	1500.72	13.2487	-167.85	10.6269	0.405588	0.182755	0.182457	10.6544	1500.72	0.177430	0.866909	12.2901	1472.61
200	2.000000	0.406897	7.36701e+06	-48639.1	955.818	-29762.1	0.000000	0.000000	6.407786	10.7159	NaN	0.000000	0.001669	0.001673	28.0777	2.930118	0.002047	1431.5	14.9678	-168.614	10.7346	0.406565	0.183766	0.183433	10.7159	1431.5	0.178152	0.873441	12.2686	1399.42
200	2.000000	0.407914	7.36701e+06	-48639.1	955.818	-29762.1	0.000000	0.000000	6.408816	11.0192	NaN	0.000000	0.001636	0.001671	28.0775	2.870832	0.001947	1474.69	12.0316	-168.093	11.0847	0.407590	0.184783	0.184458	11.0192	1474.69	0.179179	0.882788	12.4823	1433.99
200	2.000000	0.408865	7.36701e+06	-48639.1	955.818	-29762.1	0.000000	0.000000	6.409765	10.9835	NaN	0.000000	0.001637	0.001659	28.0776	3.093431	0.001989	1555.23	14.2136	-169.897	11.0995	0.408592	0.185733	0.185461	10.9835	1555.23	0.180436	0.894301	12.2816	1502.54
200	2.000000	0.409888	7.36701e+06	-48639.1	955.818	-29762.1	0.000000	0.000000	6.410785	10.9151	NaN	0.000000	0.001640	0.001693	28.0774	2.918156	0.002019	1445.51	13.1494	-167.078	10.8453	0.409586	0.186757	0.186454	10.9151	1445.51	0.181093	0.900346	12.1232	1391.84
200	2.000000	0.410869	7.36701e+06	-48639.1	955.818	-29762.1	0.000000	0.000000	6.411768	10.9568	NaN	0.000000	0.001649	0.001666	28.0774	3.059008	0.002089	1464.11	11.415	-167.631	11.0083	0.410516	0.187738	0.187384	10.9568	1464.11	0.182125	0.909880	12.0421	1402.35
200	2.000000	0.411880	7.36701e+06	-48639.1	955.818	-29762.1	0.000000	0.000000	6.412788	11.1742	NaN	0.000000	0.001671	0.001706	28.0773	3.093848	0.002022	1530.44	15.4386	-170.604	11.2426	0.411615	0.188749	0.188484	11.1742	1530.44	0.183273	0.920546	12.1386	1457.36
200	2.000000	0.412862	7.36701e+06	-48639.1	955.818	-29762.1	0.000000	0.000000	6.413768	11.122	NaN	0.000000	0.001657	0.001707	28.0775	3.065513	0.001902	1612.15	14.2265	-171.513	11.1328	0.412586	0.189730	0.189455	11.122	1612.15	0.184556	0.932553	11.9264	1525.26
200	2.000000	0.413880	7.36701e+06	-48639.1	955.818	-29762.1	0.000000	0.000000	6.414789	11.1943	NaN	0.000000	0.001661	0.001674	28.0775	3.110682	0.001988	1564.78	16.8116	-173.025	11.1097	0.413555	0.190748	0.190424	11.1943	1564.78	0.185383	0.940328	11.9047	1474.3
200	2.000000	0.414891	7.36701e+06	-48639.1	955.818	-29762.1	0.000000	0.000000	6.415801	11.2294	NaN	0.000000	0.001669	0.001691	28.0772	2.992967	0.001999	1497.45	15.3311	-167.683	11.2292	0.414563	0.191759	0.191432	11.2294	1497.45	0.186135	0.947430	11.8525	1405.57
200	2.000000	0.415875	7.36701e+06	-48639.1	955.819	-29762.1	0.000000	0.000000	6.416783	11.1792	NaN	0.000000	0.001697	0.001657	28.0774	3.057501	0.001928	1585.46	12.3231	-167.091	11.2202	0.415544	0.192743	0.192412	11.1792	1585.46	0.187455	0.959958	11.6455	1478.44
200	2.000000	0.416875	7.36701e+06	-48639.1	955.818	-29762.1	0.000000	0.000000	6.417795	11.47	NaN	0.000000	0.001692	0.001652	28.0777	3.071879	0.001980	1551.53	13.7629	-167.772	11.5761	0.416588	0.193743	0.193457	11.47	1551.53	0.188199	0.967055	11.8608	1441.48
200	2.000000	0.417390	7.36701e+06	-48639.1	955.819	-29762.1	0.000000	0.000000	6.418303	11.3027	NaN	0.000000	0.001691	0.001661	28.0775	3.074752	0.001997	1539.54	13.108	12.2746	11.3719	0.417053	0.194258	0.193921	11.3027	1539.54	0.188752	0.972352	11.6241	1426.44