File: remote_trans/data/nanoindenter/0828-1/data/Data_2025-08-06,11h17m57s/2025-07-22_16-23-58_1_173.txt
2025-07-22, 16:23:58, 1
Index	Phase	Displacement	Time	Pos X	Pos Y	Pos Z	Rot A	Rot B	Piezo Z	Force A	Force B	Gripper	Voltage A	Voltage B	Temperature	Amplitude force	Amplitude pos	Stiffness	Phase shift	Phase excitation	Force A raw	Displacement raw	HMax	HMax raw	Real Force	Real Stiffness	Contact Depth	Area	Hardness	Reduced Mod.
[#]	[#]	[um]	[s]	[um]	[um]	[um]	[m°]	[m°]	[um]	[uN]	[uN]	[V]	[V]	[V]	[°C]	[uN]	[um]	[N/m]	[°]	[°]	[uN]	[um]	[um]	[um]	[uN]	[N/m]	[um]	[um^2]	[MPa]	[MPa]
173	1.000000	0.002276	7.36673e+06	-47289.1	955.818	-29767.1	0.000000	0.000000	6.002806	0.070255	NaN	0.000000	0.001577	0.001642	28.0817	0.060625	0.001055	57.4372	-91.6044	-163.596	-0.006829	0.001046	-0.939895	-0.941125	0.070255	57.4372	-0.940812	-3.614875E+12	-1.943484E-14	NaN
173	1.000000	0.010262	7.36673e+06	-47289.1	955.82	-29767.1	0.000000	0.000000	6.010789	0.021340	NaN	0.000000	0.001640	0.001663	28.0807	0.056017	0.000941	59.5353	-148.222	-163.933	-0.017627	0.008950	-0.931909	-0.933221	0.021340	59.5353	-0.932178	-2.764312E+12	-7.719700E-15	NaN
173	1.000000	0.018222	7.36673e+06	-47289.1	955.819	-29767.1	0.000000	0.000000	6.018752	0.076819	NaN	0.000000	0.001583	0.001633	28.0808	0.021432	0.001695	12.6447	-134.513	-166.416	0.062813	0.016964	-0.923948	-0.925207	0.076819	12.6447	-0.928505	-2.466130E+12	-3.114942E-14	NaN
173	1.000000	0.026245	7.36673e+06	-47289.1	955.818	-29767.1	0.000000	0.000000	6.026774	0.058349	NaN	0.000000	0.001639	0.001657	28.0807	0.054096	0.001859	29.1021	-17.4309	-162.113	0.033218	0.024938	-0.915926	-0.917233	0.058349	29.1021	-0.917429	-1.747823E+12	-3.338361E-14	NaN
173	1.000000	0.034236	7.36673e+06	-47289.1	955.819	-29767.1	0.000000	0.000000	6.034764	0.034660	NaN	0.000000	0.001591	0.001611	28.0804	0.079673	0.001948	40.8982	-146.696	-162.863	0.071505	0.032906	-0.907935	-0.909264	0.034660	40.8982	-0.908571	-1.326958E+12	-2.612007E-14	NaN
173	1.000000	0.042235	7.36673e+06	-47289.1	955.818	-29767.1	0.000000	0.000000	6.042764	0.043395	NaN	0.000000	0.001585	0.001652	28.0801	0.098408	0.001812	54.2955	-34.2526	-162.547	0.042272	0.040926	-0.899935	-0.901245	0.043395	54.2955	-0.900535	-1.033461E+12	-4.198971E-14	NaN
173	1.000000	0.050236	7.36673e+06	-47289.1	955.818	-29767.1	0.000000	0.000000	6.050765	0.038753	NaN	0.000000	0.001558	0.001642	28.0804	0.064496	0.001946	33.1378	76.9045	-163.125	0.077692	0.048869	-0.891934	-0.893302	0.038753	33.1378	-0.892812	-8.126798E+11	-4.768600E-14	NaN
173	1.000000	0.058235	7.36673e+06	-47289.1	955.818	-29767.1	0.000000	0.000000	6.058760	-0.020218	NaN	0.000000	0.001567	0.001640	28.0805	0.040296	0.002029	19.8618	48.256	-163.94	-0.045871	0.056888	-0.883936	-0.885283	-0.020218	19.8618	-0.883173	-6.020200E+11	3.358323E-14	NaN
173	1.000000	0.066230	7.36673e+06	-47289.1	955.818	-29767.1	0.000000	0.000000	6.066759	0.070024	NaN	0.000000	0.001541	0.001648	28.0806	0.111340	0.002075	53.6705	-89.8953	-163.012	0.087675	0.064895	-0.875941	-0.877276	0.070024	53.6705	-0.876920	-4.955074E+11	-1.413168E-13	NaN
173	1.000000	0.074204	7.36673e+06	-47289.1	955.818	-29767.1	0.000000	0.000000	6.074733	0.040956	NaN	0.000000	0.001595	0.001644	28.0812	0.043399	0.001967	22.0622	172.176	-163.482	0.001491	0.072911	-0.867966	-0.869260	0.040956	22.0622	-0.869359	-3.915321E+11	-1.046041E-13	NaN
173	1.000000	0.082249	7.36673e+06	-47289.1	955.818	-29767.1	0.000000	0.000000	6.082777	0.019661	NaN	0.000000	0.001542	0.001648	28.0807	0.066025	0.001952	33.8316	128.253	-164.702	0.005928	0.080973	-0.859922	-0.861198	0.019661	33.8316	-0.860358	-2.957741E+11	-6.647158E-14	NaN
173	1.000000	0.090230	7.36673e+06	-47289.1	955.818	-29767.1	0.000000	0.000000	6.090758	0.038305	NaN	0.000000	0.001545	0.001625	28.0801	0.054028	0.001914	28.2241	-7.786746	-165.142	0.053739	0.088962	-0.851941	-0.853209	0.038305	28.2241	-0.852959	-2.348548E+11	-1.631010E-13	NaN
173	1.000000	0.098232	7.36673e+06	-47289.1	955.819	-29767.1	0.000000	0.000000	6.098761	0.062479	NaN	0.000000	0.001569	0.001709	28.0814	0.054492	0.001951	27.9271	-99.175	-165.248	0.077310	0.096993	-0.843939	-0.845178	0.062479	27.9271	-0.845617	-1.867994E+11	-3.344688E-13	NaN
173	1.000000	0.106237	7.36673e+06	-47289.1	955.818	-29767.1	0.000000	0.000000	6.106766	0.060019	NaN	0.000000	0.001558	0.001671	28.0802	0.035401	0.001975	17.9236	16.3394	-163.651	0.079042	0.104928	-0.835934	-0.837243	0.060019	17.9236	-0.838446	-1.493602E+11	-4.018384E-13	NaN
173	1.000000	0.114255	7.36673e+06	-47289.1	955.819	-29767.1	0.000000	0.000000	6.114785	0.084197	NaN	0.000000	0.001555	0.001673	28.0817	0.028857	0.002051	14.0687	117.837	-167.656	0.039239	0.112966	-0.827916	-0.829205	0.084197	14.0687	-0.832405	-1.237016E+11	-6.806474E-13	NaN
173	1.000000	0.122241	7.36673e+06	-47289.1	955.818	-29767.1	0.000000	0.000000	6.122768	0.019687	NaN	0.000000	0.001588	0.001649	28.0813	0.039686	0.001920	20.6678	72.3819	-162.852	-0.039560	0.120937	-0.819930	-0.821234	0.019687	20.6678	-0.820644	-8.569332E+10	-2.297326E-13	NaN
173	1.000000	0.130269	7.36673e+06	-47289.1	955.818	-29767.1	0.000000	0.000000	6.130798	0.059825	NaN	0.000000	0.001581	0.001645	28.0813	0.017709	0.001961	9.029496	-134.837	-167.408	0.045482	0.129003	-0.811902	-0.813168	0.059825	9.029496	-0.816871	-7.616963E+10	-7.854134E-13	NaN
173	1.000000	0.138266	7.36673e+06	-47289.1	955.819	-29767.1	0.000000	0.000000	6.138792	-0.020661	NaN	0.000000	0.001547	0.001658	28.0817	0.045851	0.001910	24.0092	84.2464	-163.608	0.061841	0.136949	-0.803905	-0.805222	-0.020661	24.0092	-0.803259	-4.978515E+10	4.150091E-13	NaN
173	1.000000	0.146275	7.36673e+06	-47289.1	955.817	-29767.1	0.000000	0.000000	6.146805	0.089058	NaN	0.000000	0.001552	0.001667	28.0821	0.068033	0.001984	34.2888	-168.591	-165.874	0.056269	0.144949	-0.795896	-0.797222	0.089058	34.2888	-0.797844	-4.203345E+10	-2.118753E-12	NaN
173	1.000000	0.154257	7.36673e+06	-47289.1	955.819	-29767.1	0.000000	0.000000	6.154787	0.076659	NaN	0.000000	0.001569	0.001686	28.0819	0.100487	0.001963	51.188	85.4104	-162.362	0.123067	0.152921	-0.787914	-0.789250	0.076659	51.188	-0.789037	-3.191579E+10	-2.401925E-12	NaN
173	1.000000	0.162259	7.36673e+06	-47289.1	955.818	-29767.1	0.000000	0.000000	6.162787	0.029256	NaN	0.000000	0.001615	0.001659	28.0822	0.024583	0.002103	11.6875	-16.0981	-164.218	-0.004134	0.160977	-0.779911	-0.781194	0.029256	11.6875	-0.781789	-2.544116E+10	-1.149935E-12	NaN
173	1.000000	0.170253	7.36673e+06	-47289.1	955.818	-29767.1	0.000000	0.000000	6.170782	0.061710	NaN	0.000000	0.001602	0.001649	28.0813	0.125579	0.002189	57.3712	152.286	-166.07	0.018365	0.168965	-0.771918	-0.773206	0.061710	57.3712	-0.772725	-1.915813E+10	-3.221069E-12	NaN
173	1.000000	0.178273	7.36673e+06	-47289.1	955.818	-29767.1	0.000000	0.000000	6.178800	0.021697	NaN	0.000000	0.001580	0.001664	28.0825	0.136125	0.002106	64.643	138.474	-163.006	-0.043945	0.176978	-0.763898	-0.765192	0.021697	64.643	-0.764150	-1.464704E+10	-1.481339E-12	NaN
173	1.000000	0.186263	7.36673e+06	-47289.1	955.818	-29767.1	0.000000	0.000000	6.186795	0.125246	NaN	0.000000	0.001595	0.001692	28.0814	0.019146	0.001986	9.641388	-38.7266	-164.443	0.007631	0.184938	-0.755908	-0.757233	0.125246	9.641388	-0.765651	-1.535189E+10	-8.158349E-12	NaN
173	1.000000	0.194281	7.36673e+06	-47289.1	955.818	-29767.1	0.000000	0.000000	6.194812	0.114661	NaN	0.000000	0.001591	0.001617	28.0819	0.085003	0.001994	42.6245	-63.2335	-164.675	0.104907	0.193029	-0.747890	-0.749142	0.114661	42.6245	-0.749908	-9.374832E+9	-1.223071E-11	NaN
173	1.000000	0.202292	7.36673e+06	-47289.1	955.817	-29767.1	0.000000	0.000000	6.202826	0.158720	NaN	0.000000	0.001556	0.001635	28.0824	0.028178	0.001967	14.3283	27.4066	-166.735	0.148252	0.200946	-0.739878	-0.741225	0.158720	14.3283	-0.748186	-8.882427E+9	-1.786897E-11	NaN
173	1.000000	0.210273	7.36673e+06	-47289.1	955.818	-29767.1	0.000000	0.000000	6.210802	0.062535	NaN	0.000000	0.001567	0.001651	28.0814	0.038819	0.001966	19.7498	-127.359	-168.755	0.045115	0.208950	-0.731898	-0.733221	0.062535	19.7498	-0.734272	-5.741529E+9	-1.089171E-11	NaN
173	1.000000	0.218297	7.36673e+06	-47289.1	955.82	-29767.1	0.000000	0.000000	6.218825	0.020834	NaN	0.000000	0.001565	0.001648	28.0816	0.014814	0.002101	7.050035	142.206	-170.585	-0.025224	0.217002	-0.723874	-0.725169	0.020834	7.050035	-0.726090	-4.441331E+9	-4.691044E-12	NaN
173	1.000000	0.226277	7.36673e+06	-47289.1	955.819	-29767.1	0.000000	0.000000	6.226808	0.086803	NaN	0.000000	0.001643	0.001646	28.0831	0.081607	0.001936	42.1582	-79.9745	-168.035	0.022054	0.224987	-0.715893	-0.717183	0.086803	42.1582	-0.717438	-3.384734E+9	-2.564550E-11	NaN
173	1.000000	0.234292	7.36673e+06	-47289.1	955.818	-29767.1	0.000000	0.000000	6.234822	0.078875	NaN	0.000000	0.001650	0.001653	28.0812	0.064697	0.001881	34.3971	19.8789	-167.139	0.055914	0.233053	-0.707879	-0.709118	0.078875	34.3971	-0.709598	-2.645869E+9	-2.981050E-11	NaN
173	1.000000	0.242325	7.36673e+06	-47289.1	955.818	-29767.1	0.000000	0.000000	6.242854	0.045020	NaN	0.000000	0.001640	0.001624	28.0829	0.082415	0.001988	41.4594	79.4413	-164.477	0.035009	0.240987	-0.699846	-0.701184	0.045020	41.4594	-0.700660	-1.997766E+9	-2.253510E-11	NaN
173	1.000000	0.250291	7.36673e+06	-47289.1	955.818	-29767.1	0.000000	0.000000	6.250820	0.069255	NaN	0.000000	0.001654	0.001613	28.0831	0.035916	0.002121	16.9373	176.264	-165.853	0.067432	0.248956	-0.691880	-0.693215	0.069255	16.9373	-0.694947	-1.669215E+9	-4.148975E-11	NaN
173	1.000000	0.258314	7.36673e+06	-47289.1	955.818	-29767.1	0.000000	0.000000	6.258841	0.014855	NaN	0.000000	0.001665	0.001617	28.0817	0.065011	0.002053	31.6699	-118.584	-164.698	0.054551	0.256990	-0.683857	-0.685181	0.014855	31.6699	-0.684208	-1.190561E+9	-1.247694E-11	NaN
173	1.000000	0.266284	7.36673e+06	-47289.1	955.818	-29767.1	0.000000	0.000000	6.266812	0.031078	NaN	0.000000	0.001628	0.001628	28.08	0.050306	0.001988	25.3005	-102.591	-163.1	0.015502	0.265021	-0.675887	-0.677150	0.031078	25.3005	-0.676808	-9.430688E+8	-3.295382E-11	NaN
173	1.000000	0.274318	7.36673e+06	-47289.1	955.817	-29767.1	0.000000	0.000000	6.274847	0.050580	NaN	0.000000	0.001649	0.001661	28.0796	0.067309	0.002174	30.9676	-65.0972	-167.192	-0.023486	0.273038	-0.667853	-0.669133	0.050580	30.9676	-0.669078	-7.392050E+8	-6.842464E-11	NaN
173	1.000000	0.282297	7.36673e+06	-47289.1	955.819	-29767.1	0.000000	0.000000	6.282825	0.031393	NaN	0.000000	0.001650	0.001630	28.0799	0.136863	0.001909	71.7108	-53.1145	-167.993	-0.013326	0.280964	-0.659874	-0.661206	0.031393	71.7108	-0.660202	-5.587815E+8	-5.618079E-11	NaN
173	1.000000	0.290339	7.36673e+06	-47289.1	955.818	-29767.1	0.000000	0.000000	6.290867	0.042831	NaN	0.000000	0.001655	0.001622	28.0801	0.115649	0.001929	59.9584	-112.959	-166.426	0.037958	0.289044	-0.651832	-0.653126	0.042831	59.9584	-0.652368	-4.364058E+8	-9.814497E-11	NaN
173	1.000000	0.298330	7.36673e+06	-47289.1	955.818	-29767.1	0.000000	0.000000	6.298859	0.049922	NaN	0.000000	0.001635	0.001661	28.0799	0.028732	0.002038	14.1006	-32.9698	-166.416	0.050366	0.297051	-0.643841	-0.645120	0.049922	14.1006	-0.646496	-3.625731E+8	-1.376873E-10	NaN
173	1.000000	0.306365	7.36673e+06	-47289.1	955.819	-29767.1	0.000000	0.000000	6.306895	0.086316	NaN	0.000000	0.001541	0.001625	28.0808	0.049501	0.001863	26.5683	24.7339	-165.021	0.114149	0.305069	-0.635806	-0.637102	0.086316	26.5683	-0.638243	-2.793669E+8	-3.089697E-10	NaN
173	1.000000	0.314341	7.36673e+06	-47289.1	955.818	-29767.1	0.000000	0.000000	6.314869	0.020986	NaN	0.000000	0.001631	0.001657	28.0801	0.060499	0.001843	32.8234	-118.406	-161.718	0.023195	0.313040	-0.627830	-0.629131	0.020986	32.8234	-0.628309	-2.040812E+8	-1.028337E-10	NaN
173	1.000000	0.322373	7.36673e+06	-47289.1	955.818	-29767.1	0.000000	0.000000	6.322903	0.068465	NaN	0.000000	0.001635	0.001662	28.0806	0.074368	0.002080	35.7525	-115.196	-164.549	0.030517	0.320974	-0.619798	-0.621197	0.068465	35.7525	-0.621234	-1.631517E+8	-4.196383E-10	NaN
173	1.000000	0.330320	7.36673e+06	-47289.1	955.818	-29767.1	0.000000	0.000000	6.330846	-0.009347	NaN	0.000000	0.001625	0.001663	28.0802	0.082368	0.002063	39.9294	-115.442	-166.136	0.028463	0.329065	-0.611851	-0.613105	-0.009347	39.9294	-0.611675	-1.205487E+8	7.753426E-11	NaN
173	1.000000	0.338351	7.36673e+06	-47289.1	955.818	-29767.1	0.000000	0.000000	6.338881	0.090336	NaN	0.000000	0.001654	0.001664	28.0808	0.041570	0.002091	19.8832	73.0828	-164.366	0.010959	0.337060	-0.603820	-0.605111	0.090336	19.8832	-0.607227	-1.047031E+8	-8.627841E-10	NaN
173	1.000000	0.346343	7.36673e+06	-47289.1	955.818	-29767.1	0.000000	0.000000	6.346871	0.033119	NaN	0.000000	0.001578	0.001613	28.0789	0.069230	0.002146	32.2533	-87.9094	-165.432	0.074599	0.345076	-0.595828	-0.597095	0.033119	32.2533	-0.596598	-7.474800E+7	-4.430696E-10	NaN
173	1.000000	0.354361	7.36673e+06	-47289.1	955.817	-29767.1	0.000000	0.000000	6.354890	0.059267	NaN	0.000000	0.001581	0.001634	28.08	0.049773	0.002016	24.6842	-74.8147	-167.52	0.040588	0.353056	-0.587810	-0.589115	0.059267	24.6842	-0.589611	-5.988230E+7	-9.897251E-10	NaN
173	1.000000	0.362392	7.36673e+06	-47289.1	955.819	-29767.1	0.000000	0.000000	6.362920	0.035224	NaN	0.000000	0.001578	0.001664	28.0797	0.071509	0.001917	37.3088	108.458	-165.649	0.031021	0.361097	-0.579779	-0.581074	0.035224	37.3088	-0.580487	-4.481696E+7	-7.859577E-10	NaN
173	1.000000	0.370353	7.36673e+06	-47289.1	955.819	-29767.1	0.000000	0.000000	6.370883	0.065455	NaN	0.000000	0.001563	0.001649	28.0795	0.021000	0.002027	10.3593	-103.099	-163.842	0.071477	0.369098	-0.571817	-0.573073	0.065455	10.3593	-0.576556	-3.955389E+7	-1.654841E-9	NaN
173	1.000000	0.378342	7.36673e+06	-47289.1	955.817	-29767.1	0.000000	0.000000	6.378870	0.026013	NaN	0.000000	0.001550	0.001649	28.08	0.011880	0.002041	5.820810	-88.9409	-169.356	0.031561	0.377024	-0.563829	-0.565147	0.026013	5.820810	-0.567180	-2.935392E+7	-8.861980E-10	NaN
173	1.000000	0.386343	7.36673e+06	-47289.1	955.817	-29767.1	0.000000	0.000000	6.386870	-0.008886	NaN	0.000000	0.001553	0.001639	28.081	0.034776	0.001993	17.4527	-147.963	-163.01	0.025979	0.385057	-0.555827	-0.557114	-0.008886	17.4527	-0.555446	-2.020023E+7	4.398877E-10	NaN
173	1.000000	0.394367	7.36673e+06	-47289.1	955.817	-29767.1	0.000000	0.000000	6.394892	-0.041371	NaN	0.000000	0.001545	0.001653	28.0831	0.024341	0.002126	11.4502	134.293	-166.695	0.020198	0.393051	-0.547803	-0.549120	-0.041371	11.4502	-0.545094	-1.452032E+7	2.849160E-9	NaN
173	1.000000	0.402375	7.36673e+06	-47289.1	955.817	-29767.1	0.000000	0.000000	6.402905	0.088638	NaN	0.000000	0.001565	0.001627	28.0823	0.134871	0.001781	75.7474	179.987	-165.86	0.084760	0.401109	-0.539796	-0.541062	0.088638	75.7474	-0.540674	-1.260959E+7	-7.029433E-9	NaN
173	1.000000	0.410365	7.36673e+06	-47289.1	955.819	-29767.1	0.000000	0.000000	6.410891	-0.020655	NaN	0.000000	0.001622	0.001615	28.0816	0.088210	0.001829	48.2186	-75.9739	-164.147	0.076054	0.409121	-0.531805	-0.533050	-0.020655	48.2186	-0.531484	-9.40119e+06	2.197107E-9	NaN
173	1.000000	0.418362	7.36673e+06	-47289.1	955.818	-29767.1	0.000000	0.000000	6.418888	-0.013486	NaN	0.000000	0.001625	0.001649	28.082	0.103313	0.001947	53.0652	-72.5855	-167.632	-0.051497	0.417082	-0.523809	-0.525089	-0.013486	53.0652	-0.523619	-7.30987e+06	1.844911E-9	NaN
173	1.000000	0.426389	7.36673e+06	-47289.1	955.818	-29767.1	0.000000	0.000000	6.426919	0.076547	NaN	0.000000	0.001613	0.001665	28.0809	0.062952	0.002023	31.1128	131.553	-167.016	0.043602	0.425082	-0.515782	-0.517089	0.076547	31.1128	-0.517627	-6.03373e+06	-1.268648E-8	NaN
173	1.000000	0.434402	7.36673e+06	-47289.1	955.817	-29767.1	0.000000	0.000000	6.434931	0.043887	NaN	0.000000	0.001540	0.001670	28.0803	0.041623	0.001985	20.9699	-89.4866	-168.021	0.043996	0.433069	-0.507769	-0.509102	0.043887	20.9699	-0.509338	-4.62591e+06	-9.487148E-9	NaN
173	1.000000	0.442367	7.36673e+06	-47289.1	955.819	-29767.1	0.000000	0.000000	6.442896	0.050577	NaN	0.000000	0.001603	0.001657	28.0818	0.051530	0.002063	24.9793	-125.694	-169.419	0.162429	0.441126	-0.499804	-0.501045	0.050577	24.9793	-0.501322	-3.57653e+06	-1.414131E-8	NaN
173	1.000000	0.450403	7.36673e+06	-47289.1	955.818	-29767.1	0.000000	0.000000	6.450930	0.018431	NaN	0.000000	0.001538	0.001641	28.0802	0.013083	0.002067	6.329576	-101.568	-167.698	0.025158	0.449082	-0.491768	-0.493089	0.018431	6.329576	-0.493952	-2.82228e+06	-6.530410E-9	NaN
173	1.000000	0.458416	7.36673e+06	-47289.1	955.818	-29767.1	0.000000	0.000000	6.458946	0.085227	NaN	0.000000	0.001539	0.001664	28.081	0.030641	0.001968	15.5695	143.818	-166.591	0.052295	0.457139	-0.483755	-0.485031	0.085227	15.5695	-0.487860	-2.32e+06	-3.673578E-8	NaN
173	1.000000	0.466403	7.36673e+06	-47289.1	955.818	-29767.1	0.000000	0.000000	6.466930	0.006889	NaN	0.000000	0.001557	0.001661	28.0814	0.051841	0.001925	26.9358	-32.2015	-164.437	0.028201	0.465098	-0.475768	-0.477072	0.006889	26.9358	-0.475960	-1.58106e+06	-4.357086E-9	NaN
173	1.000000	0.474393	7.36673e+06	-47289.1	955.819	-29767.1	0.000000	0.000000	6.474921	0.026057	NaN	0.000000	0.001493	0.001646	28.0831	0.023173	0.002005	11.5592	-20.3463	-164.018	-0.002654	0.473104	-0.467778	-0.469067	0.026057	11.5592	-0.469469	-1.28219e+06	-2.032252E-8	NaN
173	1.000000	0.482368	7.36673e+06	-47289.1	955.818	-29767.1	0.000000	0.000000	6.482893	-0.024076	NaN	0.000000	0.001561	0.001623	28.083	0.188850	0.001945	97.1164	175.795	-165.175	-0.023549	0.481047	-0.459803	-0.461124	-0.024076	97.1164	-0.459617	-932482	2.581957E-8	NaN
173	1.000000	0.490420	7.36673e+06	-47289.1	955.818	-29767.1	0.000000	0.000000	6.490948	0.045609	NaN	0.000000	0.001492	0.001686	28.0809	0.034485	0.002082	16.5659	62.4781	-166.241	-0.005034	0.489117	-0.451751	-0.453053	0.045609	16.5659	-0.453816	-772783	-5.901908E-8	NaN
173	1.000000	0.498419	7.36673e+06	-47289.1	955.818	-29767.1	0.000000	0.000000	6.498945	-0.004656	NaN	0.000000	0.001545	0.001649	28.0826	0.089320	0.002077	43.0073	59.8583	-166.673	0.028334	0.497094	-0.443752	-0.445077	-0.004656	43.0073	-0.443671	-556101	8.372793E-9	NaN
173	1.000000	0.506384	7.36673e+06	-47289.1	955.818	-29767.1	0.000000	0.000000	6.506911	0.006420	NaN	0.000000	0.001566	0.001668	28.0805	0.033014	0.002004	16.4739	-20.3361	-164.707	0.072594	0.505131	-0.435786	-0.437040	0.006420	16.4739	-0.436079	-434505	-1.477565E-8	NaN
173	1.000000	0.514421	7.36673e+06	-47289.1	955.818	-29767.1	0.000000	0.000000	6.514952	0.105480	NaN	0.000000	0.001545	0.001635	28.0789	0.104742	0.002006	52.2154	148.652	-168.042	-0.056451	0.513106	-0.427750	-0.429065	0.105480	52.2154	-0.429265	-348068	-3.030450E-7	NaN
173	1.000000	0.522426	7.36673e+06	-47289.1	955.818	-29767.1	0.000000	0.000000	6.522953	0.018835	NaN	0.000000	0.001603	0.001634	28.0805	0.021575	0.002040	10.5745	-12.3216	-166.236	-0.083645	0.521059	-0.419745	-0.421112	0.018835	10.5745	-0.421081	-266525	-7.066892E-8	NaN
173	1.000000	0.530391	7.36673e+06	-47289.1	955.819	-29767.1	0.000000	0.000000	6.530918	0.009793	NaN	0.000000	0.001628	0.001655	28.0793	0.023626	0.002028	11.6522	48.6899	-162.549	0.034652	0.529069	-0.411779	-0.413102	0.009793	11.6522	-0.412410	-200751	-4.878060E-8	NaN
173	1.000000	0.538407	7.36673e+06	-47289.1	955.818	-29767.1	0.000000	0.000000	6.538935	0.033322	NaN	0.000000	0.001584	0.001659	28.0788	0.060080	0.001972	30.4726	-62.3102	-165.03	0.049037	0.537162	-0.403764	-0.405009	0.033322	30.4726	-0.404584	-155356	-2.144897E-7	NaN
173	1.000000	0.546435	7.36673e+06	-47289.1	955.819	-29767.1	0.000000	0.000000	6.546963	0.049730	NaN	0.000000	0.001586	0.001672	28.0798	0.051502	0.001966	26.1913	62.7273	-167.31	0.059769	0.545134	-0.395736	-0.397036	0.049730	26.1913	-0.397160	-121752	-4.084538E-7	NaN
173	1.000000	0.554470	7.36673e+06	-47289.1	955.818	-29767.1	0.000000	0.000000	6.554999	0.045118	NaN	0.000000	0.001597	0.001651	28.0801	0.039291	0.002098	18.726	-147.56	-166.938	0.054817	0.553126	-0.387700	-0.389045	0.045118	18.726	-0.389507	-94650	-4.766835E-7	NaN
173	1.000000	0.562426	7.36673e+06	-47289.1	955.818	-29767.1	0.000000	0.000000	6.562953	0.019465	NaN	0.000000	0.001589	0.001629	28.0804	0.009119	0.001889	4.827587	80.856	-162.6	0.048530	0.561138	-0.379745	-0.381033	0.019465	4.827587	-0.382769	-75788.9	-2.568291E-7	NaN
173	1.000000	0.570437	7.36673e+06	-47289.1	955.818	-29767.1	0.000000	0.000000	6.570966	0.053600	NaN	0.000000	0.001567	0.001668	28.0787	0.069885	0.001877	37.2313	-65.2713	-164.796	0.092321	0.569209	-0.371734	-0.372962	0.053600	37.2313	-0.372814	-54529.4	-9.829624E-7	NaN
173	1.000000	0.578409	7.36673e+06	-47289.1	955.818	-29767.1	0.000000	0.000000	6.578935	-0.012478	NaN	0.000000	0.001567	0.001663	28.0797	0.105426	0.001920	54.9207	-93.9108	-165.933	0.010124	0.577138	-0.363762	-0.365033	-0.012478	54.9207	-0.363592	-40154.2	3.107606E-7	NaN
173	1.000000	0.586464	7.36673e+06	-47289.1	955.818	-29767.1	0.000000	0.000000	6.586990	0.003033	NaN	0.000000	0.001625	0.001678	28.0801	0.039129	0.002034	19.2417	96.5193	-162.552	-0.089302	0.585098	-0.355707	-0.357073	0.003033	19.2417	-0.355825	-31006.3	-9.780901E-8	NaN
173	1.000000	0.594470	7.36673e+06	-47289.1	955.818	-29767.1	0.000000	0.000000	6.594996	0.006787	NaN	0.000000	0.001629	0.001680	28.0782	0.045038	0.001961	22.9617	44.5184	-163.233	0.021887	0.593102	-0.347701	-0.349069	0.006787	22.9617	-0.347923	-23814.5	-2.850041E-7	NaN
173	1.000000	0.602498	7.36673e+06	-47289.1	955.818	-29767.1	0.000000	0.000000	6.603023	-0.026164	NaN	0.000000	0.001525	0.001695	28.0788	0.068465	0.002118	32.3217	-135.536	-167.646	-0.065951	0.601107	-0.339673	-0.341064	-0.026164	32.3217	-0.339066	-17698.6	1.478300E-6	NaN
173	1.000000	0.610463	7.36673e+06	-47289.1	955.818	-29767.1	0.000000	0.000000	6.610992	0.048533	NaN	0.000000	0.001560	0.001691	28.0795	0.110094	0.001885	58.4201	102.73	-162.768	0.031881	0.609119	-0.331708	-0.333052	0.048533	58.4201	-0.332331	-14111.3	-3.439308E-6	NaN
173	1.000000	0.618438	7.36673e+06	-47289.1	955.818	-29767.1	0.000000	0.000000	6.618964	-0.016937	NaN	0.000000	0.001542	0.001669	28.0786	0.042182	0.001915	22.0215	-42.8915	-162.041	-0.065526	0.617130	-0.323732	-0.325040	-0.016937	22.0215	-0.323156	-10352.6	1.636003E-6	NaN
173	1.000000	0.626482	7.36673e+06	-47289.1	955.818	-29767.1	0.000000	0.000000	6.627012	0.079780	NaN	0.000000	0.001577	0.001655	28.0801	0.006625	0.002123	3.120226	-26.3132	-168.321	0.051459	0.625131	-0.315689	-0.317040	0.079780	3.120226	-0.334866	-15368.2	-5.191270E-6	NaN
173	1.000000	0.634472	7.36673e+06	-47289.1	955.819	-29767.1	0.000000	0.000000	6.634996	-0.051175	NaN	0.000000	0.001556	0.001640	28.0795	0.048398	0.001868	25.9144	-107.234	-164.261	-0.042395	0.633134	-0.307699	-0.309037	-0.051175	25.9144	-0.306218	-5821.36	8.790886E-6	NaN
173	1.000000	0.642488	7.36673e+06	-47289.1	955.818	-29767.1	0.000000	0.000000	6.643014	-0.018845	NaN	0.000000	0.001585	0.001677	28.08	0.066291	0.002061	32.1658	109.965	-169.512	0.067709	0.641154	-0.299683	-0.301017	-0.018845	32.1658	-0.299243	-4585.31	4.109840E-6	NaN
173	1.000000	0.650501	7.36673e+06	-47289.1	955.818	-29767.1	0.000000	0.000000	6.651030	0.047923	NaN	0.000000	0.001527	0.001671	28.0789	0.019073	0.001891	10.0854	157.639	-163.239	0.042994	0.649173	-0.291670	-0.292998	0.047923	10.0854	-0.295233	-3995.53	-1.199416E-5	NaN
173	1.000000	0.658472	7.36673e+06	-47289.1	955.818	-29767.1	0.000000	0.000000	6.658999	0.006785	NaN	0.000000	0.001547	0.001670	28.0794	0.162629	0.002051	79.2942	-128.795	-163.458	-0.004913	0.657166	-0.283699	-0.285005	0.006785	79.2942	-0.283763	-2689.47	-2.522965E-6	NaN
173	1.000000	0.666535	7.36673e+06	-47289.1	955.819	-29767.1	0.000000	0.000000	6.667062	0.010632	NaN	0.000000	0.001539	0.001686	28.0794	0.051004	0.002068	24.6662	-20.4979	-164.477	0.056290	0.665170	-0.275636	-0.277001	0.010632	24.6662	-0.275959	-2050.78	-5.184230E-6	NaN
173	1.000000	0.674465	7.36673e+06	-47289.1	955.817	-29767.1	0.000000	0.000000	6.674993	0.043999	NaN	0.000000	0.001545	0.001673	28.0797	0.060131	0.002045	29.4087	-114.061	-165.646	0.107925	0.673147	-0.267706	-0.269024	0.043999	29.4087	-0.268828	-1598.53	-2.752443E-5	NaN
173	1.000000	0.682483	7.36673e+06	-47289.1	955.819	-29767.1	0.000000	0.000000	6.683011	0.029632	NaN	0.000000	0.001569	0.001656	28.0805	0.056856	0.001971	28.8388	-32.5023	-168.932	0.018987	0.681190	-0.259688	-0.260981	0.029632	28.8388	-0.260458	-1191.09	-2.487786E-5	NaN
173	1.000000	0.690514	7.36673e+06	-47289.1	955.819	-29767.1	0.000000	0.000000	6.691043	0.060004	NaN	0.000000	0.001547	0.001690	28.0808	0.065584	0.001883	34.8341	133.077	-165.566	0.035763	0.689153	-0.251657	-0.253017	0.060004	34.8341	-0.252949	-913.078	-6.571615E-5	NaN
173	1.000000	0.698495	7.36673e+06	-47289.1	955.82	-29767.1	0.000000	0.000000	6.699025	0.068348	NaN	0.000000	0.001580	0.001661	28.08	0.006397	0.002063	3.101402	-37.818	-163.358	0.028052	0.697169	-0.243676	-0.245002	0.068348	3.101402	-0.260204	-1180.44	-5.790073E-5	NaN
173	1.000000	0.706504	7.36673e+06	-47289.1	955.818	-29767.1	0.000000	0.000000	6.707029	-0.038264	NaN	0.000000	0.001581	0.001658	28.0812	0.090879	0.001961	46.3483	175.154	-164.84	-0.080152	0.705171	-0.235667	-0.237000	-0.038264	46.3483	-0.235048	-480.833	7.957828E-5	NaN
173	1.000000	0.714484	7.36673e+06	-47289.1	955.817	-29767.1	0.000000	0.000000	6.715012	0.047163	NaN	0.000000	0.001586	0.001622	28.0812	0.074579	0.001917	38.9074	-162.316	-160.036	0.029681	0.713201	-0.227687	-0.228970	0.047163	38.9074	-0.228596	-380.484	-0.000124	NaN
173	1.000000	0.722491	7.36673e+06	-47289.1	955.819	-29767.1	0.000000	0.000000	6.723020	0.054042	NaN	0.000000	0.001569	0.001652	28.0809	0.059104	0.001942	30.433	74.1253	-166.099	0.025205	0.721187	-0.219680	-0.220984	0.054042	30.433	-0.221012	-288.294	-0.000187	NaN
173	1.000000	0.730514	7.36673e+06	-47289.1	955.819	-29767.1	0.000000	0.000000	6.731041	0.003090	NaN	0.000000	0.001574	0.001610	28.0814	0.037494	0.002116	17.7199	161.884	-165.272	0.044485	0.729211	-0.211657	-0.212959	0.003090	17.7199	-0.211788	-204.991	-1.507221E-5	NaN
173	1.000000	0.738537	7.36673e+06	-47289.1	955.818	-29767.1	0.000000	0.000000	6.739066	0.046109	NaN	0.000000	0.001536	0.001593	28.0817	0.116010	0.002114	54.8833	80.5047	-165.259	-0.023436	0.737175	-0.203633	-0.204996	0.046109	54.8833	-0.204263	-154.717	-0.000298	NaN
173	1.000000	0.746520	7.36673e+06	-47289.1	955.819	-29767.1	0.000000	0.000000	6.747046	-0.022443	NaN	0.000000	0.001570	0.001650	28.0802	0.110555	0.001973	56.0309	72.6778	-167.2	-0.081484	0.745191	-0.195650	-0.196980	-0.022443	56.0309	-0.195350	-110.408	0.000203	NaN
173	1.000000	0.754520	7.36673e+06	-47289.1	955.819	-29767.1	0.000000	0.000000	6.755050	0.081482	NaN	0.000000	0.001568	0.001668	28.0811	0.041715	0.002000	20.8601	-154.333	-167.006	0.014795	0.753200	-0.187651	-0.188970	0.081482	20.8601	-0.190580	-91.9844	-0.000886	NaN
173	1.000000	0.762537	7.36673e+06	-47289.1	955.819	-29767.1	0.000000	0.000000	6.763066	0.058701	NaN	0.000000	0.001583	0.001653	28.0803	0.091727	0.002012	45.5813	41.3438	-169.449	0.011866	0.761261	-0.179634	-0.180909	0.058701	45.5813	-0.180599	-62.4683	-0.000940	NaN
173	1.000000	0.770499	7.36673e+06	-47289.1	955.819	-29767.1	0.000000	0.000000	6.771024	-0.019766	NaN	0.000000	0.001552	0.001652	28.0802	0.069155	0.002084	33.1875	-179.778	-164.171	0.003432	0.769195	-0.171672	-0.172975	-0.019766	33.1875	-0.171225	-43.1386	0.000458	NaN
173	1.000000	0.778529	7.36673e+06	-47289.1	955.819	-29767.1	0.000000	0.000000	6.779056	0.015285	NaN	0.000000	0.001612	0.001645	28.0808	0.042271	0.002140	19.7508	-134.474	-162.335	0.052138	0.777182	-0.163642	-0.164989	0.015285	19.7508	-0.164223	-32.5569	-0.000469	NaN
173	1.000000	0.786506	7.36673e+06	-47289.1	955.818	-29767.1	0.000000	0.000000	6.787034	0.038925	NaN	0.000000	0.001551	0.001653	28.0806	0.020127	0.002004	10.0448	123.867	-164.659	0.045583	0.785232	-0.155665	-0.156939	0.038925	10.0448	-0.158571	-25.8551	-0.001505	NaN
173	1.000000	0.794529	7.36673e+06	-47289.1	955.817	-29767.1	0.000000	0.000000	6.795059	0.078122	NaN	0.000000	0.001576	0.001643	28.0814	0.055478	0.001949	28.4639	-59.0973	-165.31	0.068574	0.793213	-0.147642	-0.148958	0.078122	28.4639	-0.149701	-17.8872	-0.004368	NaN
173	1.000000	0.802521	7.36673e+06	-47289.1	955.817	-29767.1	0.000000	0.000000	6.803049	0.031697	NaN	0.000000	0.001569	0.001679	28.0804	0.045647	0.002102	21.7151	173.938	-165.74	0.053028	0.801229	-0.139650	-0.140941	0.031697	21.7151	-0.140744	-12.216	-0.002595	NaN
173	1.000000	0.810552	7.36673e+06	-47289.1	955.819	-29767.1	0.000000	0.000000	6.811078	0.001831	NaN	0.000000	0.001514	0.001678	28.0809	0.137976	0.001989	69.3783	88.572	-165.998	0.021891	0.809246	-0.131619	-0.132925	0.001831	69.3783	-0.131639	-8.198937	-0.000223	NaN
173	1.000000	0.818559	7.36673e+06	-47289.1	955.819	-29767.1	0.000000	0.000000	6.819085	-0.010820	NaN	0.000000	0.001548	0.001644	28.0808	0.117399	0.001982	59.2222	105.777	-162.977	-0.008667	0.817218	-0.123612	-0.124953	-0.010820	59.2222	-0.123475	-5.671925	0.001908	NaN
173	1.000000	0.826545	7.36673e+06	-47289.1	955.818	-29767.1	0.000000	0.000000	6.827073	0.034637	NaN	0.000000	0.001580	0.001672	28.0788	0.102076	0.001887	54.0988	-27.2181	-165.791	0.053324	0.825237	-0.115626	-0.116934	0.034637	54.0988	-0.116106	-4.025820	-0.008604	NaN
173	1.000000	0.834556	7.36673e+06	-47289.1	955.818	-29767.1	0.000000	0.000000	6.835081	-0.030991	NaN	0.000000	0.001572	0.001677	28.0779	0.005653	0.001981	2.853710	16.8123	-167.182	0.036649	0.833219	-0.107615	-0.108952	-0.030991	2.853710	-0.099470	-1.778346	0.017427	NaN
173	1.000000	0.842568	7.36673e+06	-47289.1	955.819	-29767.1	0.000000	0.000000	6.843093	-0.031919	NaN	0.000000	0.001578	0.001691	28.0788	0.061217	0.001940	31.5598	-67.8437	-167.181	0.014001	0.841163	-0.099603	-0.101008	-0.031919	31.5598	-0.098844	-1.722157	0.018535	NaN
173	1.000000	0.850570	7.36673e+06	-47289.1	955.818	-29767.1	0.000000	0.000000	6.851097	0.005740	NaN	0.000000	0.001570	0.001703	28.079	0.046022	0.002042	22.5389	-148.985	-165.306	-0.000963	0.849258	-0.091601	-0.092913	0.005740	22.5389	-0.091792	-1.190256	-0.004823	NaN
173	1.000000	0.858565	7.36673e+06	-47289.1	955.818	-29767.1	0.000000	0.000000	6.859091	-0.004668	NaN	0.000000	0.001560	0.001716	28.0779	0.087257	0.002023	43.1394	155.844	-165.856	-0.002991	0.857336	-0.083606	-0.084835	-0.004668	43.1394	-0.083525	-0.756500	0.006171	NaN
173	1.000000	0.866548	7.36673e+06	-47289.1	955.818	-29767.1	0.000000	0.000000	6.867074	-0.006358	NaN	0.000000	0.001565	0.001711	28.0808	0.022462	0.001913	11.7393	146.664	-167.017	0.014114	0.865265	-0.075623	-0.076906	-0.006358	11.7393	-0.075217	-0.467874	0.013589	NaN
173	1.000000	0.874587	7.36673e+06	-47289.1	955.818	-29767.1	0.000000	0.000000	6.875111	-0.052866	NaN	0.000000	0.001558	0.001697	28.0804	0.020514	0.001954	10.4974	-112.973	-166.076	-0.017115	0.873248	-0.067584	-0.068923	-0.052866	10.4974	-0.063807	-0.230862	0.228994	NaN
173	1.000000	0.882588	7.36673e+06	-47289.1	955.819	-29767.1	0.000000	0.000000	6.883116	0.036769	NaN	0.000000	0.001556	0.001714	28.0797	0.069326	0.002024	34.2534	-56.2523	-168.867	0.046203	0.881208	-0.059583	-0.060963	0.036769	34.2534	-0.060388	-0.184760	-0.199010	NaN
173	1.000000	0.890584	7.36673e+06	-47289.1	955.818	-29767.1	0.000000	0.000000	6.891111	0.018251	NaN	0.000000	0.001539	0.001723	28.0795	0.048163	0.001918	25.1082	146.254	-167.437	0.025071	0.889264	-0.051587	-0.052907	0.018251	25.1082	-0.052132	-0.105790	-0.172518	NaN
173	1.000000	0.898596	7.36673e+06	-47289.1	955.818	-29767.1	0.000000	0.000000	6.899123	0.005121	NaN	0.000000	0.001566	0.001721	28.0801	0.080174	0.002160	37.1107	-21.661	-162.773	-0.069514	0.897233	-0.043575	-0.044938	0.005121	37.1107	-0.043678	-0.058555	-0.087454	NaN
173	1.000000	0.906585	7.36673e+06	-47289.1	955.818	-29767.1	0.000000	0.000000	6.907115	0.078895	NaN	0.000000	0.001550	0.001706	28.0782	0.069443	0.001930	35.9761	-151.708	-166.997	0.018632	0.905293	-0.035586	-0.036878	0.078895	35.9761	-0.037231	-0.037305	-2.114872	NaN
173	1.000000	0.914601	7.36673e+06	-47289.1	955.817	-29767.1	0.000000	0.000000	6.915125	-0.046328	NaN	0.000000	0.001531	0.001713	28.0789	0.132881	0.001973	67.3582	-51.749	-169.271	0.015216	0.913277	-0.027570	-0.028894	-0.046328	67.3582	-0.027054	-0.019119	2.423123	NaN
173	1.000000	0.922595	7.36673e+06	-47289.1	955.819	-29767.1	0.000000	0.000000	6.923122	-0.002074	NaN	0.000000	0.001561	0.001714	28.0789	0.054902	0.001981	27.7154	147.575	-167.681	-0.034956	0.921322	-0.019575	-0.020849	-0.002074	27.7154	-0.019519	-0.012212	0.169852	NaN
173	1.000000	0.930587	7.36673e+06	-47289.1	955.818	-29767.1	0.000000	0.000000	6.931114	0.000820	NaN	0.000000	0.001546	0.001719	28.0783	0.022399	0.001983	11.295	85.0746	-166.872	-0.067366	0.929312	-0.011584	-0.012859	0.000820	11.295	-0.011638	-0.007322	-0.111978	NaN
173	1.000000	0.938588	7.36673e+06	-47289.1	955.818	-29767.1	0.000000	0.000000	6.939115	0.006511	NaN	0.000000	0.001542	0.001728	28.0797	0.069518	0.001988	34.9768	-139.394	-164.055	0.019583	0.937284	-0.003583	-0.004886	0.006511	34.9768	-0.003722	-0.002598	-2.505878	NaN
173	1.000000	0.946610	7.36673e+06	-47289.1	955.819	-29767.1	0.000000	0.000000	6.947153	0.398106	NaN	0.000000	0.001577	0.001712	28.0813	0.516255	0.002010	256.892	11.0247	-164.072	0.057581	0.945275	0.004439	0.003104	0.398106	256.892	0.003277	0.002614	152.273	4590.25
173	1.000000	0.954584	7.36673e+06	-47289.1	955.817	-29767.1	0.000000	0.000000	6.955394	6.895677	NaN	0.000000	0.001581	0.001692	28.0811	7.096135	0.001665	4262.32	12.9842	-171.258	5.760159	0.953260	0.012413	0.011089	6.895677	4262.32	0.011200	0.010546	653.873	37920.8
173	2.000000	0.958212	7.36673e+06	-47289.1	955.818	-29767.1	0.000000	0.000000	6.959147	9.914712	NaN	0.000000	0.001552	0.001699	28.0813	10.1786	0.001540	6610.33	2.044763	-169.373	9.823508	0.957894	0.016042	0.015723	9.914712	6610.33	0.014917	0.015175	653.377	49027.3
173	2.000000	0.960138	7.36673e+06	-47289.1	955.818	-29767.1	0.000000	0.000000	6.961227	13.6765	NaN	0.000000	0.001538	0.001677	28.0815	12.7338	0.001689	7537.25	6.702053	-173.368	12.9437	0.959886	0.017967	0.017715	13.6765	7537.25	0.016607	0.017488	782.061	52073.7
173	2.000000	0.962131	7.36673e+06	-47289.1	955.818	-29767.1	0.000000	0.000000	6.963410	18.2954	NaN	0.000000	0.001572	0.001713	28.0824	15.829	0.001745	9068.56	4.958489	-174.027	17.6121	0.961821	0.019960	0.019650	18.2954	9068.56	0.018447	0.020161	907.481	58352.5
173	2.000000	0.964178	7.36673e+06	-47289.1	955.818	-29767.1	0.000000	0.000000	6.965526	19.9855	NaN	0.000000	0.001586	0.001717	28.0797	17.9674	0.001757	10226.5	7.808135	-177.281	19.0886	0.963842	0.022007	0.021672	19.9855	10226.5	0.020541	0.023400	854.078	61078.8
173	2.000000	0.966106	7.36673e+06	-47289.1	955.818	-29767.1	0.000000	0.000000	6.967659	24.9659	NaN	0.000000	0.001543	0.001696	28.0805	19.9021	0.001769	11253.4	5.364480	-175.662	23.6163	0.965798	0.023935	0.023627	24.9659	11253.4	0.022271	0.026238	951.523	63473.6
173	2.000000	0.968101	7.36673e+06	-47289.1	955.818	-29767.1	0.000000	0.000000	6.969869	30.2094	NaN	0.000000	0.001531	0.001717	28.08	22.2422	0.001688	13178.8	7.452175	-179.92	29.2218	0.967748	0.025930	0.025578	30.2094	13178.8	0.024211	0.029595	1020.75	69990.4
173	2.000000	0.970120	7.36673e+06	-47289.1	955.818	-29767.1	0.000000	0.000000	6.972083	34.9489	NaN	0.000000	0.001578	0.001694	28.0811	23.4188	0.001692	13838.2	3.271141	-176.303	34.7531	0.969772	0.027949	0.027601	34.9489	13838.2	0.026055	0.032963	1060.25	69636.9
173	2.000000	0.972111	7.36673e+06	-47289.1	955.818	-29767.1	0.000000	0.000000	6.974190	37.7676	NaN	0.000000	0.001533	0.001682	28.0807	26.5982	0.001811	14686.3	8.187991	179.281	37.3285	0.971755	0.029940	0.029584	37.7676	14686.3	0.028011	0.036722	1028.46	70019.6
173	2.000000	0.974100	7.36673e+06	-47289.1	955.818	-29767.1	0.000000	0.000000	6.976447	44.2614	NaN	0.000000	0.001534	0.001678	28.0812	28.0811	0.001670	16813.1	0.801005	-175.493	43.2546	0.973829	0.031930	0.031658	44.2614	16813.1	0.029955	0.040651	1088.82	76187.9
173	2.000000	0.976113	7.36673e+06	-47289.1	955.818	-29767.1	0.000000	0.000000	6.978682	49.6639	NaN	0.000000	0.001562	0.001709	28.0817	30.1677	0.001756	17180.4	7.723248	177.587	49.6774	0.975787	0.033943	0.033616	49.6639	17180.4	0.031775	0.044502	1115.99	74407.2
173	2.000000	0.978104	7.36673e+06	-47289.1	955.819	-29767.1	0.000000	0.000000	6.980866	54.3934	NaN	0.000000	0.001529	0.001713	28.0814	31.6806	0.001902	16652.2	1.591961	-175.604	53.6335	0.977791	0.035933	0.035620	54.3934	16652.2	0.033483	0.048272	1126.8	69246.3
173	2.000000	0.980088	7.36673e+06	-47289.1	955.82	-29767.1	0.000000	0.000000	6.983227	63.5389	NaN	0.000000	0.001498	0.001678	28.0815	33.3414	0.001759	18959.8	6.845011	177.671	62.8769	0.979748	0.037917	0.037577	63.5389	18959.8	0.035404	0.052690	1205.91	75464.7
173	2.000000	0.982072	7.36673e+06	-47289.1	955.819	-29767.1	0.000000	0.000000	6.985484	70.1705	NaN	0.000000	0.001542	0.001690	28.0813	35.2703	0.001696	20797.3	4.639021	178.242	68.3628	0.981760	0.039902	0.039589	70.1705	20797.3	0.037371	0.057411	1222.25	79301.8
173	2.000000	0.984094	7.36673e+06	-47289.1	955.82	-29767.1	0.000000	0.000000	6.987729	75.6188	NaN	0.000000	0.001516	0.001704	28.0806	36.8649	0.001726	21361.3	2.898841	-179.619	73.4758	0.983755	0.041923	0.041585	75.6188	21361.3	0.039268	0.062150	1216.72	78285.5
173	2.000000	0.986027	7.36673e+06	-47289.1	955.819	-29767.1	0.000000	0.000000	6.989925	82.0203	NaN	0.000000	0.001557	0.001688	28.0803	39.1548	0.001848	21187.6	2.696609	179.636	79.418	0.985739	0.043856	0.043568	82.0203	21187.6	0.040952	0.066513	1233.15	75058.8
173	2.000000	0.988084	7.36673e+06	-47289.1	955.82	-29767.1	0.000000	0.000000	6.992361	91.2139	NaN	0.000000	0.001547	0.001683	28.0793	41.5985	0.001890	22010.4	6.230833	177.399	90.6287	0.987684	0.045913	0.045513	91.2139	22010.4	0.042805	0.071479	1276.09	75216.2
173	2.000000	0.990002	7.36673e+06	-47289.1	955.819	-29767.1	0.000000	0.000000	6.994703	101.555	NaN	0.000000	0.001534	0.001700	28.0789	42.7298	0.001741	24548.1	4.799884	177.296	98.5785	0.989707	0.047831	0.047536	101.555	24548.1	0.044728	0.076817	1322.03	80920.9
173	2.000000	0.992068	7.36673e+06	-47289.1	955.819	-29767.1	0.000000	0.000000	6.997135	110.444	NaN	0.000000	0.001551	0.001691	28.0786	45.6831	0.001820	25094.1	4.514160	177.628	109.15	0.991667	0.049897	0.049496	110.444	25094.1	0.046596	0.082183	1343.88	79974.8
173	2.000000	0.994039	7.36673e+06	-47289.1	955.82	-29767.1	0.000000	0.000000	6.999474	119.407	NaN	0.000000	0.001545	0.001673	28.0796	48.1699	0.001913	25176.4	6.221911	177.226	116.071	0.993639	0.051868	0.051468	119.407	25176.4	0.048311	0.087263	1368.36	77866.5
173	2.000000	0.995977	7.36673e+06	-47289.1	955.819	-29767.1	0.000000	0.000000	7.001727	127.058	NaN	0.000000	0.001581	0.001697	28.0803	49.3564	0.001756	28102.8	7.987352	172.781	124.608	0.995692	0.053806	0.053521	127.058	28102.8	0.050415	0.093701	1356	83878.6
173	2.000000	0.998097	7.36673e+06	-47289.1	955.818	-29767.1	0.000000	0.000000	7.003922	128.874	NaN	0.000000	0.001560	0.001669	28.0792	51.1921	0.001738	29454.8	3.030312	177.507	132.161	0.997810	0.055926	0.055639	128.874	29454.8	0.052645	0.100762	1279	84777.5
173	2.000000	0.999989	7.36673e+06	-47289.1	955.819	-29767.1	0.000000	0.000000	7.006391	142.934	NaN	0.000000	0.001573	0.001700	28.0806	52.1614	0.001817	28713.4	5.867531	175.437	141.19	0.999712	0.057818	0.057541	142.934	28713.4	0.054084	0.105454	1355.41	80784
173	2.000000	1.002077	7.36673e+06	-47289.1	955.819	-29767.1	0.000000	0.000000	7.008839	151.672	NaN	0.000000	0.001553	0.001709	28.0806	55.126	0.001799	30638.6	3.050276	177.376	151.923	1.001721	0.059906	0.059550	151.672	30638.6	0.056194	0.112514	1348.03	83452.6
173	2.000000	1.004100	7.36673e+06	-47289.1	955.819	-29767.1	0.000000	0.000000	7.011120	157.943	NaN	0.000000	0.001554	0.001694	28.0787	57.5928	0.001910	30154.4	5.276910	175.818	158.597	1.003785	0.061929	0.061614	157.943	30154.4	0.058001	0.118736	1330.2	79952.6
173	2.000000	1.005994	7.36673e+06	-47289.1	955.818	-29767.1	0.000000	0.000000	7.013693	174.437	NaN	0.000000	0.001581	0.001690	28.0796	58.3412	0.001646	35437.3	4.683331	174.098	171.449	1.005649	0.063824	0.063478	174.437	35437.3	0.060132	0.126281	1381.34	91109.6
173	2.000000	1.007969	7.36673e+06	-47289.1	955.819	-29767.1	0.000000	0.000000	7.016051	183.79	NaN	0.000000	0.001626	0.001692	28.079	61.2022	0.001773	34517.9	4.673970	174.459	179.506	1.007740	0.065798	0.065569	183.79	34517.9	0.061804	0.132358	1388.58	86684.7
173	2.000000	1.010033	7.36673e+06	-47289.1	955.82	-29767.1	0.000000	0.000000	7.018653	196.857	NaN	0.000000	0.001605	0.001688	28.0794	62.5697	0.001834	34110.4	6.421083	173.248	195.363	1.009653	0.067862	0.067483	196.857	34110.4	0.063534	0.138784	1418.44	83654.7
173	2.000000	1.012104	7.36673e+06	-47289.1	955.82	-29767.1	0.000000	0.000000	7.021010	203.811	NaN	0.000000	0.001638	0.001700	28.0796	65.6865	0.001841	35671.4	7.186062	171.96	209.016	1.011696	0.069933	0.069525	203.811	35671.4	0.065648	0.146836	1388.02	85050.6
173	2.000000	1.014024	7.36673e+06	-47289.1	955.82	-29767.1	0.000000	0.000000	7.023540	218.638	NaN	0.000000	0.001661	0.001695	28.0795	66.172	0.001751	37787.1	4.519315	174.141	216.222	1.013672	0.071854	0.071502	218.638	37787.1	0.067514	0.154123	1418.6	87939.5
173	2.000000	1.016059	7.36673e+06	-47289.1	955.819	-29767.1	0.000000	0.000000	7.025949	227.753	NaN	0.000000	0.001659	0.001754	28.0804	66.8742	0.001757	38064.9	1.071137	177.794	229.211	1.015718	0.073888	0.073547	227.753	38064.9	0.069401	0.161659	1408.84	86496.3
173	2.000000	1.017965	7.36673e+06	-47289.1	955.818	-29767.1	0.000000	0.000000	7.028463	242.558	NaN	0.000000	0.001665	0.001712	28.0797	69.8821	0.001859	37595	5.281783	174.55	238.954	1.017655	0.075794	0.075485	242.558	37595	0.070955	0.167994	1443.85	83802.4
173	2.000000	1.019988	7.36673e+06	-47289.1	955.819	-29767.1	0.000000	0.000000	7.031154	258.797	NaN	0.000000	0.001636	0.001673	28.0801	71.5111	0.001816	39368.8	7.760343	170.731	255.139	1.019649	0.077817	0.077479	258.797	39368.8	0.072886	0.176028	1470.21	85730.5
173	2.000000	1.021959	7.36673e+06	-47289.1	955.819	-29767.1	0.000000	0.000000	7.033370	264.744	NaN	0.000000	0.001650	0.001721	28.0813	73.7974	0.001766	41790.2	6.098568	171.616	261.449	1.021662	0.079788	0.079492	264.744	41790.2	0.075037	0.185180	1429.66	88726
173	2.000000	1.024042	7.36673e+06	-47289.1	955.82	-29767.1	0.000000	0.000000	7.036180	282.44	NaN	0.000000	0.001653	0.001719	28.0793	76.3737	0.001871	40813.5	6.462555	171.595	281.921	1.023813	0.081871	0.081642	282.44	40813.5	0.076681	0.192321	1468.59	85028.4
173	2.000000	1.026032	7.36673e+06	-47289.1	955.82	-29767.1	0.000000	0.000000	7.038689	295.054	NaN	0.000000	0.001663	0.001691	28.0813	77.5492	0.001735	44696	6.029659	171.872	295.693	1.025712	0.083861	0.083541	295.054	44696	0.078910	0.202210	1459.15	90811.4
173	2.000000	1.027981	7.36673e+06	-47289.1	955.82	-29767.1	0.000000	0.000000	7.041268	310.382	NaN	0.000000	0.001695	0.001679	28.0797	80.1368	0.001822	43971.2	4.884547	173.226	307.314	1.027674	0.085810	0.085503	310.382	43971.2	0.080516	0.209475	1481.71	87775.9
173	2.000000	1.029992	7.36673e+06	-47289.1	955.82	-29767.1	0.000000	0.000000	7.043792	322.854	NaN	0.000000	0.001664	0.001725	28.0803	80.689	0.001882	42882.8	3.869337	173.596	320.033	1.029699	0.087821	0.087528	322.854	42882.8	0.082175	0.217109	1487.05	84084.7
173	2.000000	1.031956	7.36673e+06	-47289.1	955.82	-29767.1	0.000000	0.000000	7.046129	331.949	NaN	0.000000	0.001730	0.001664	28.0804	83.1579	0.001883	44167.9	2.850924	174.416	328.987	1.031740	0.089785	0.089570	331.949	44167.9	0.084148	0.226355	1466.5	84817.3
173	2.000000	1.033953	7.36673e+06	-47289.1	955.82	-29767.1	0.000000	0.000000	7.049064	354.738	NaN	0.000000	0.001685	0.001691	28.0804	85.1125	0.001903	44722.8	5.348276	172.329	350.181	1.033580	0.091782	0.091409	354.738	44722.8	0.085833	0.234393	1513.43	84397.5
173	2.000000	1.036070	7.36673e+06	-47289.1	955.82	-29767.1	0.000000	0.000000	7.051754	368.687	NaN	0.000000	0.001705	0.001680	28.0811	85.5416	0.001793	47697.4	5.786241	172.226	370.199	1.035582	0.093900	0.093411	368.687	47697.4	0.088102	0.245422	1502.25	87965.2
173	2.000000	1.038015	7.36673e+06	-47289.1	955.82	-29767.1	0.000000	0.000000	7.054327	383.96	NaN	0.000000	0.001722	0.001693	28.0817	90.0414	0.001898	47451.8	5.550785	171.692	382.442	1.037663	0.095844	0.095492	383.96	47451.8	0.089775	0.253706	1513.4	86071.6
173	2.000000	1.039991	7.36673e+06	-47289.1	955.82	-29767.1	0.000000	0.000000	7.056846	397.187	NaN	0.000000	0.001694	0.001676	28.0794	89.8778	0.001814	49539.9	5.081632	171.65	395.331	1.039703	0.097820	0.097532	397.187	49539.9	0.091807	0.263938	1504.85	88100.2
173	2.000000	1.041985	7.36673e+06	-47289.1	955.819	-29767.1	0.000000	0.000000	7.059270	407.639	NaN	0.000000	0.001730	0.001684	28.0804	91.573	0.001818	50358.4	0.962572	175.557	405.296	1.041723	0.099814	0.099552	407.639	50358.4	0.093743	0.273867	1488.46	87917.5
173	2.000000	1.044030	7.36673e+06	-47289.1	955.82	-29767.1	0.000000	0.000000	7.062054	425.58	NaN	0.000000	0.001728	0.001617	28.0803	94.6927	0.001774	53372	5.066212	171.215	425.081	1.043679	0.101860	0.101508	425.58	53372	0.095879	0.285019	1493.16	91337.6
173	2.000000	1.046043	7.36674e+06	-47289.1	955.821	-29767.1	0.000000	0.000000	7.064794	443.288	NaN	0.000000	0.001718	0.001679	28.0799	95.9774	0.001888	50834.8	4.324782	172.082	442.634	1.045696	0.103872	0.103526	443.288	50834.8	0.097332	0.292723	1514.36	85843.2
173	2.000000	1.047944	7.36674e+06	-47289.1	955.82	-29767.1	0.000000	0.000000	7.067414	460.776	NaN	0.000000	0.001670	0.001731	28.0797	97.3125	0.001742	55863.2	5.189422	170.747	457.472	1.047734	0.105773	0.105564	460.776	55863.2	0.099587	0.304869	1511.39	92436.2
173	2.000000	1.049956	7.36674e+06	-47289.1	955.819	-29767.1	0.000000	0.000000	7.070150	478.394	NaN	0.000000	0.001664	0.001672	28.0798	97.4577	0.001782	54678.2	5.637884	170.76	473.745	1.049515	0.107785	0.107344	478.394	54678.2	0.101223	0.313827	1524.39	89174.8
173	2.000000	1.051998	7.36674e+06	-47289.1	955.82	-29767.1	0.000000	0.000000	7.072557	487.274	NaN	0.000000	0.001648	0.001676	28.0797	100.307	0.001645	60965.4	4.045805	171.142	486.795	1.051705	0.109827	0.109534	487.274	60965.4	0.103832	0.328366	1483.94	97202.6
173	2.000000	1.054058	7.36674e+06	-47289.1	955.82	-29767.1	0.000000	0.000000	7.075384	505.931	NaN	0.000000	0.001696	0.001687	28.0818	102.618	0.001786	57462.9	0.984054	174.944	505.432	1.053624	0.111887	0.111453	505.931	57462.9	0.105284	0.336585	1503.13	90492.6
173	2.000000	1.054912	7.36674e+06	-47289.1	955.82	-29767.1	0.000000	0.000000	7.076706	517.314	NaN	0.000000	0.001672	0.001686	28.1286	105.019	0.001822	57633.8	5.630394	170.58	513.702	1.054524	0.112741	0.112353	517.314	57633.8	0.106009	0.340729	1518.25	90208.1