File: remote_trans/data/nanoindenter/0828-1/data/Data_2025-08-06,11h17m57s/2025-07-22_16-23-58_1_1068.txt
2025-07-22, 16:23:58, 1
Index	Phase	Displacement	Time	Pos X	Pos Y	Pos Z	Rot A	Rot B	Piezo Z	Force A	Force B	Gripper	Voltage A	Voltage B	Temperature	Amplitude force	Amplitude pos	Stiffness	Phase shift	Phase excitation	Force A raw	Displacement raw	HMax	HMax raw	Real Force	Real Stiffness	Contact Depth	Area	Hardness	Reduced Mod.
[#]	[#]	[um]	[s]	[um]	[um]	[um]	[m°]	[m°]	[um]	[uN]	[uN]	[V]	[V]	[V]	[°C]	[uN]	[um]	[N/m]	[°]	[°]	[uN]	[um]	[um]	[um]	[uN]	[N/m]	[um]	[um^2]	[MPa]	[MPa]
1068	1.000000	0.002489	7.37549e+06	-53539.1	1055.82	-29745.9	0.000000	0.000000	6.002794	0.033347	NaN	0.000000	0.001644	0.001692	28.0839	0.120607	0.000979	123.251	-62.5491	-160.845	-0.029012	0.001230	-1.052010	-1.053269	0.033347	123.251	-1.052213	-1.143301E+14	-2.916757E-16	NaN
1068	1.000000	0.010471	7.37549e+06	-53539.1	1055.82	-29745.9	0.000000	0.000000	6.010778	0.064370	NaN	0.000000	0.001640	0.001672	28.084	0.143317	0.000932	153.73	-141.07	-166.902	0.069994	0.009136	-1.044027	-1.045363	0.064370	153.73	-1.044341	-8.960678E+13	-7.183654E-16	NaN
1068	1.000000	0.018463	7.37549e+06	-53539.1	1055.82	-29745.9	0.000000	0.000000	6.018767	0.010547	NaN	0.000000	0.001668	0.001663	28.0838	0.062353	0.001746	35.704	26.1639	-166.579	-0.039788	0.017163	-1.036035	-1.037336	0.010547	35.704	-1.036257	-6.976403E+13	-1.511830E-16	NaN
1068	1.000000	0.026484	7.37549e+06	-53539.1	1055.82	-29745.9	0.000000	0.000000	6.026784	-0.084512	NaN	0.000000	0.001610	0.001698	28.0841	0.088041	0.001846	47.6971	-26.3078	-163.926	-0.029577	0.025174	-1.028015	-1.029325	-0.084512	47.6971	-1.026686	-5.186799E+13	1.629364E-15	NaN
1068	1.000000	0.034448	7.37549e+06	-53539.1	1055.82	-29745.9	0.000000	0.000000	6.034751	-0.000717	NaN	0.000000	0.001600	0.001698	28.084	0.060870	0.001932	31.5088	130.87	-165.935	-0.052426	0.033177	-1.020051	-1.021322	-0.000717	31.5088	-1.020034	-4.220957E+13	1.698736E-17	NaN
1068	1.000000	0.042390	7.37549e+06	-53539.1	1055.82	-29745.9	0.000000	0.000000	6.042695	0.037778	NaN	0.000000	0.001597	0.001703	28.0844	0.025198	0.001975	12.7588	-152.65	-165.916	-0.000598	0.041177	-1.012109	-1.013322	0.037778	12.7588	-1.014330	-3.537130E+13	-1.068048E-15	NaN
1068	1.000000	0.050427	7.37549e+06	-53539.1	1055.82	-29745.9	0.000000	0.000000	6.050728	-0.063738	NaN	0.000000	0.001659	0.001673	28.0832	0.101235	0.002070	48.8968	161.152	-165.539	-0.066355	0.049133	-1.004071	-1.005366	-0.063738	48.8968	-1.003094	-2.497010E+13	2.552557E-15	NaN
1068	1.000000	0.058454	7.37549e+06	-53539.1	1055.82	-29745.9	0.000000	0.000000	6.058760	0.040090	NaN	0.000000	0.001662	0.001731	28.0828	0.117921	0.002069	56.9982	171.322	-165.793	0.037099	0.057127	-0.996044	-0.997372	0.040090	56.9982	-0.996572	-2.039909E+13	-1.965277E-15	NaN
1068	1.000000	0.066456	7.37549e+06	-53539.1	1055.82	-29745.9	0.000000	0.000000	6.066760	0.004432	NaN	0.000000	0.001619	0.001733	28.0831	0.123716	0.002060	60.0665	144.948	-165.123	-0.026681	0.065125	-0.988042	-0.989374	0.004432	60.0665	-0.988098	-1.568531E+13	-2.825536E-16	NaN
1068	1.000000	0.074438	7.37549e+06	-53539.1	1055.82	-29745.9	0.000000	0.000000	6.074741	-0.007447	NaN	0.000000	0.001668	0.001694	28.0829	0.070104	0.002007	34.9263	126.748	-165.711	-0.015945	0.073129	-0.980061	-0.981369	-0.007447	34.9263	-0.979901	-1.216413E+13	6.122305E-16	NaN
1068	1.000000	0.082442	7.37549e+06	-53539.1	1055.82	-29745.9	0.000000	0.000000	6.082744	-0.040195	NaN	0.000000	0.001641	0.001706	28.0826	0.118169	0.001878	62.9341	179.086	-167.346	-0.056606	0.081165	-0.972057	-0.973334	-0.040195	62.9341	-0.971578	-9.395671E+12	4.278075E-15	NaN
1068	1.000000	0.090455	7.37549e+06	-53539.1	1055.82	-29745.9	0.000000	0.000000	6.090760	0.050155	NaN	0.000000	0.001611	0.001756	28.0828	0.083256	0.001979	42.0669	-151.342	-168.499	0.064131	0.089136	-0.964044	-0.965362	0.050155	42.0669	-0.964938	-7.646097E+12	-6.559618E-15	NaN
1068	1.000000	0.098460	7.37549e+06	-53539.1	1055.82	-29746	0.000000	0.000000	6.098763	-0.009269	NaN	0.000000	0.001632	0.001701	28.0831	0.023257	0.002010	11.5706	-130.072	-164.155	-0.012252	0.097138	-0.956039	-0.957361	-0.009269	11.5706	-0.955438	-5.693225E+12	1.627998E-15	NaN
1068	1.000000	0.106449	7.37549e+06	-53539.1	1055.82	-29746	0.000000	0.000000	6.106755	0.059289	NaN	0.000000	0.001617	0.001676	28.0829	0.070667	0.002085	33.8905	-19.2648	-164.998	-0.066688	0.105186	-0.948050	-0.949312	0.059289	33.8905	-0.949362	-4.714392E+12	-1.257608E-14	NaN
1068	1.000000	0.114475	7.37549e+06	-53539.1	1055.82	-29746	0.000000	0.000000	6.114777	-0.044477	NaN	0.000000	0.001614	0.001725	28.0831	0.052848	0.002013	26.2498	123.172	-163.952	-0.061067	0.113165	-0.940023	-0.941333	-0.044477	26.2498	-0.938753	-3.390843E+12	1.311689E-14	NaN
1068	1.000000	0.122453	7.37549e+06	-53539.1	1055.82	-29746	0.000000	0.000000	6.122755	-0.035344	NaN	0.000000	0.001619	0.001721	28.0829	0.057554	0.001991	28.901	29.7877	-163.135	0.032501	0.121186	-0.932046	-0.933312	-0.035344	28.901	-0.931129	-2.675683E+12	1.320950E-14	NaN
1068	1.000000	0.130499	7.37549e+06	-53539.1	1055.82	-29746	0.000000	0.000000	6.130804	0.029056	NaN	0.000000	0.001615	0.001728	28.0829	0.049050	0.001966	24.9434	70.4363	-166.168	0.026414	0.129143	-0.924000	-0.925356	0.029056	24.9434	-0.924873	-2.202927E+12	-1.318987E-14	NaN
1068	1.000000	0.138470	7.37549e+06	-53539.1	1055.82	-29746	0.000000	0.000000	6.138772	-0.020076	NaN	0.000000	0.001616	0.001699	28.0829	0.017741	0.001980	8.960664	147.38	-164.052	-0.042231	0.137174	-0.916029	-0.917325	-0.020076	8.960664	-0.914349	-1.588167E+12	1.264077E-14	NaN
1068	1.000000	0.146476	7.37549e+06	-53539.1	1055.82	-29746	0.000000	0.000000	6.146777	-0.043687	NaN	0.000000	0.001586	0.001705	28.0829	0.077020	0.001902	40.5013	-34.5876	-162.558	-0.025305	0.145166	-0.908023	-0.909333	-0.043687	40.5013	-0.907214	-1.272137E+12	3.434167E-14	NaN
1068	1.000000	0.154479	7.37549e+06	-53539.1	1055.82	-29746	0.000000	0.000000	6.154782	0.002287	NaN	0.000000	0.001595	0.001698	28.083	0.031531	0.002046	15.4102	-76.0268	-164.591	0.022348	0.153110	-0.900020	-0.901389	0.002287	15.4102	-0.900131	-1.020562E+12	-2.240623E-15	NaN
1068	1.000000	0.162494	7.37549e+06	-53539.1	1055.82	-29746	0.000000	0.000000	6.162799	0.041653	NaN	0.000000	0.001644	0.001691	28.0829	0.032817	0.001939	16.9233	143.245	-164.583	0.018557	0.161211	-0.892005	-0.893288	0.041653	16.9233	-0.893851	-8.393932E+11	-4.962256E-14	NaN
1068	1.000000	0.170466	7.37549e+06	-53539.1	1055.82	-29746	0.000000	0.000000	6.170769	-0.024335	NaN	0.000000	0.001639	0.001706	28.0826	0.059992	0.002071	28.9721	-109.02	-165.038	-0.015879	0.169202	-0.884033	-0.885297	-0.024335	28.9721	-0.883403	-6.063491E+11	4.013407E-14	NaN
1068	1.000000	0.178483	7.37549e+06	-53539.1	1055.82	-29746	0.000000	0.000000	6.178785	-0.050831	NaN	0.000000	0.001613	0.001721	28.0825	0.121486	0.001901	63.9082	-34.4039	-163.679	-0.116512	0.177204	-0.876016	-0.877295	-0.050831	63.9082	-0.875419	-4.728808E+11	1.074919E-13	NaN
1068	1.000000	0.186516	7.37549e+06	-53539.1	1055.82	-29746	0.000000	0.000000	6.186821	0.015402	NaN	0.000000	0.001598	0.001689	28.0833	0.131277	0.002038	64.4148	-129.232	-166.084	0.047882	0.185153	-0.867982	-0.869345	0.015402	64.4148	-0.868162	-3.771997E+11	-4.083226E-14	NaN
1068	1.000000	0.194491	7.37549e+06	-53539.1	1055.82	-29746	0.000000	0.000000	6.194793	-0.043437	NaN	0.000000	0.001626	0.001680	28.084	0.070831	0.002070	34.2196	-175.453	-165.09	0.020306	0.193172	-0.860008	-0.861327	-0.043437	34.2196	-0.859056	-2.840126E+11	1.529415E-13	NaN
1068	1.000000	0.202478	7.37549e+06	-53539.1	1055.82	-29746	0.000000	0.000000	6.202781	-0.015786	NaN	0.000000	0.001608	0.001676	28.0841	0.123893	0.001975	62.7339	104.666	-164.056	-0.035883	0.201207	-0.852021	-0.853292	-0.015786	62.7339	-0.851832	-2.267479E+11	6.961936E-14	NaN
1068	1.000000	0.210507	7.37549e+06	-53539.1	1055.82	-29746	0.000000	0.000000	6.210811	0.003005	NaN	0.000000	0.001639	0.001680	28.0838	0.102836	0.002020	50.9037	-63.3436	-162.333	-0.071260	0.209183	-0.843991	-0.845316	0.003005	50.9037	-0.844036	-1.778119E+11	-1.689964E-14	NaN
1068	1.000000	0.218492	7.37549e+06	-53539.1	1055.82	-29746	0.000000	0.000000	6.218793	-0.066294	NaN	0.000000	0.001621	0.001712	28.0849	0.061837	0.002018	30.6378	128.121	-164.815	0.078490	0.217191	-0.836007	-0.837308	-0.066294	30.6378	-0.834384	-1.315837E+11	5.038139E-13	NaN
1068	1.000000	0.226508	7.37549e+06	-53539.1	1055.82	-29746	0.000000	0.000000	6.226808	-0.079548	NaN	0.000000	0.001622	0.001731	28.084	0.029133	0.002048	14.2219	-105.304	-165.026	-0.013461	0.225205	-0.827991	-0.829294	-0.079548	14.2219	-0.823796	-9.455374E+10	8.412963E-13	NaN
1068	1.000000	0.234531	7.37549e+06	-53539.1	1055.82	-29746	0.000000	0.000000	6.234835	-0.001756	NaN	0.000000	0.001620	0.001701	28.084	0.022703	0.001986	11.4322	83.7543	-165.233	-0.059357	0.233229	-0.819967	-0.821270	-0.001756	11.4322	-0.819852	-8.359995E+10	2.100507E-14	NaN
1068	1.000000	0.242535	7.37549e+06	-53539.1	1055.82	-29746	0.000000	0.000000	6.242835	-0.085836	NaN	0.000000	0.001657	0.001723	28.084	0.197446	0.001844	107.072	21.8482	-163.797	-0.148412	0.241235	-0.811964	-0.813264	-0.085836	107.072	-0.811363	-6.412999E+10	1.338463E-12	NaN
1068	1.000000	0.250553	7.37549e+06	-53539.1	1055.82	-29746	0.000000	0.000000	6.250856	-0.024074	NaN	0.000000	0.001615	0.001721	28.0842	0.060779	0.002055	29.5795	-59.4484	-164.025	0.004772	0.249206	-0.803946	-0.805293	-0.024074	29.5795	-0.803335	-4.990370E+10	4.824067E-13	NaN
1068	1.000000	0.258521	7.37549e+06	-53539.1	1055.82	-29746	0.000000	0.000000	6.258820	-0.111101	NaN	0.000000	0.001641	0.001679	28.0842	0.086470	0.001945	44.4597	26.3815	-165.672	-0.146511	0.257227	-0.795977	-0.797271	-0.111101	44.4597	-0.794103	-3.739434E+10	2.971058E-12	NaN
1068	1.000000	0.266538	7.37549e+06	-53539.1	1055.82	-29746	0.000000	0.000000	6.266843	0.024602	NaN	0.000000	0.001675	0.001695	28.0839	0.110144	0.002028	54.3166	-168.277	-166.969	-0.015650	0.265200	-0.787961	-0.789299	0.024602	54.3166	-0.788300	-3.118885E+10	-7.888148E-13	NaN
1068	1.000000	0.274526	7.37549e+06	-53539.1	1055.82	-29746	0.000000	0.000000	6.274829	-0.014983	NaN	0.000000	0.001664	0.001670	28.0838	0.118548	0.002081	56.9564	-115.653	-163.039	7.849155E-5	0.273209	-0.779973	-0.781290	-0.014983	56.9564	-0.779776	-2.388820E+10	6.271949E-13	NaN
1068	1.000000	0.282546	7.37549e+06	-53539.1	1055.82	-29746	0.000000	0.000000	6.282852	0.060818	NaN	0.000000	0.001706	0.001669	28.0839	0.028134	0.002025	13.8948	-2.457018	-167.256	0.031467	0.281273	-0.771953	-0.773225	0.060818	13.8948	-0.775236	-2.072438E+10	-2.934626E-12	NaN
1068	1.000000	0.290556	7.3755e+06	-53539.1	1055.82	-29746	0.000000	0.000000	6.290857	-0.075108	NaN	0.000000	0.001694	0.001678	28.0841	0.027326	0.001963	13.9182	87.4051	-166.784	-0.098741	0.289208	-0.763943	-0.765291	-0.075108	13.9182	-0.759895	-1.281972E+10	5.858746E-12	NaN
1068	1.000000	0.298505	7.3755e+06	-53539.1	1055.82	-29746	0.000000	0.000000	6.298809	-0.007424	NaN	0.000000	0.001630	0.001674	28.0842	0.047284	0.002034	23.241	-57.3242	-167.791	-0.001735	0.297268	-0.755993	-0.757231	-0.007424	23.241	-0.755754	-1.125975E+10	6.593254E-13	NaN
1068	1.000000	0.306535	7.3755e+06	-53539.1	1055.82	-29746	0.000000	0.000000	6.306837	-0.039238	NaN	0.000000	0.001647	0.001674	28.0839	0.024816	0.002085	11.9007	164.975	-165.779	-0.026855	0.305217	-0.747964	-0.749282	-0.039238	11.9007	-0.745491	-8.162729E+9	4.806956E-12	NaN
1068	1.000000	0.314543	7.3755e+06	-53539.1	1055.82	-29746	0.000000	0.000000	6.314844	-0.064323	NaN	0.000000	0.001639	0.001649	28.0839	0.020899	0.002079	10.0538	-3.039443	-163.231	-0.019887	0.313230	-0.739956	-0.741268	-0.064323	10.0538	-0.735157	-5.903160E+9	1.089635E-11	NaN
1068	1.000000	0.322581	7.3755e+06	-53539.1	1055.82	-29746	0.000000	0.000000	6.322885	0.004282	NaN	0.000000	0.001667	0.001682	28.0833	0.032767	0.002047	16.0067	59.3726	-163.987	-0.047052	0.321236	-0.731918	-0.733263	0.004282	16.0067	-0.732119	-5.366367E+9	-7.978880E-13	NaN
1068	1.000000	0.330554	7.3755e+06	-53539.1	1055.82	-29746	0.000000	0.000000	6.330854	-0.082841	NaN	0.000000	0.001645	0.001677	28.0828	0.040931	0.002074	19.735	17.5507	-163.331	-0.051740	0.329251	-0.723945	-0.725247	-0.082841	19.735	-0.720796	-3.761259E+9	2.202484E-11	NaN
1068	1.000000	0.338548	7.3755e+06	-53539.1	1055.82	-29746	0.000000	0.000000	6.338848	-0.095803	NaN	0.000000	0.001662	0.001680	28.0827	0.043268	0.001993	21.7114	-97.4006	-166.589	-0.114060	0.337283	-0.715950	-0.717216	-0.095803	21.7114	-0.712641	-2.911299E+9	3.290740E-11	NaN
1068	1.000000	0.346608	7.3755e+06	-53539.1	1055.82	-29746	0.000000	0.000000	6.346909	-0.062025	NaN	0.000000	0.001636	0.001695	28.0829	0.073367	0.001997	36.7364	-175.72	-162.249	-0.072397	0.345291	-0.707891	-0.709208	-0.062025	36.7364	-0.706625	-2.409813E+9	2.573854E-11	NaN
1068	1.000000	0.354601	7.3755e+06	-53539.1	1055.82	-29746	0.000000	0.000000	6.354905	0.014049	NaN	0.000000	0.001670	0.001687	28.0825	0.053155	0.002079	25.5621	171.126	-163.572	0.046316	0.353272	-0.699898	-0.701227	0.014049	25.5621	-0.700310	-1.975911E+9	-7.110374E-12	NaN
1068	1.000000	0.362580	7.3755e+06	-53539.1	1055.82	-29746	0.000000	0.000000	6.362882	-0.028169	NaN	0.000000	0.001616	0.001651	28.0825	0.018518	0.002047	9.046675	-124.349	-163.63	-0.043403	0.361232	-0.691919	-0.693267	-0.028169	9.046675	-0.689583	-1.410020E+9	1.997754E-11	NaN
1068	1.000000	0.370562	7.3755e+06	-53539.1	1055.82	-29746	0.000000	0.000000	6.370864	-0.034103	NaN	0.000000	0.001669	0.001632	28.0825	0.142215	0.001980	71.8349	178.434	-161.84	-0.083887	0.369273	-0.683937	-0.685226	-0.034103	71.8349	-0.683581	-1.167265E+9	2.921577E-11	NaN
1068	1.000000	0.378574	7.3755e+06	-53539.1	1055.82	-29746	0.000000	0.000000	6.378879	0.036973	NaN	0.000000	0.001641	0.001683	28.0828	0.095226	0.002062	46.1796	-86.9503	-166.142	0.014441	0.377270	-0.675925	-0.677228	0.036973	46.1796	-0.676525	-9.347130E+8	-3.955559E-11	NaN
1068	1.000000	0.386578	7.3755e+06	-53539.1	1055.82	-29746	0.000000	0.000000	6.386881	-0.017730	NaN	0.000000	0.001652	0.001683	28.083	0.074364	0.002045	36.3617	9.593945	-167.461	-0.029908	0.385272	-0.667921	-0.669227	-0.017730	36.3617	-0.667555	-7.045750E+8	2.516404E-11	NaN
1068	1.000000	0.394595	7.3755e+06	-53539.1	1055.82	-29746	0.000000	0.000000	6.394900	0.026678	NaN	0.000000	0.001613	0.001665	28.083	0.031911	0.002053	15.5404	-30.3126	-163.533	-0.054546	0.393320	-0.659903	-0.661179	0.026678	15.5404	-0.661191	-5.764767E+8	-4.627748E-11	NaN
1068	1.000000	0.402577	7.3755e+06	-53539.1	1055.82	-29746	0.000000	0.000000	6.402882	0.039944	NaN	0.000000	0.001614	0.001668	28.0831	0.093525	0.001927	48.5233	-15.2176	-163.665	0.000286	0.401219	-0.651922	-0.653279	0.039944	48.5233	-0.652539	-4.387756E+8	-9.103407E-11	NaN
1068	1.000000	0.410577	7.3755e+06	-53539.1	1055.82	-29746	0.000000	0.000000	6.410880	-0.016655	NaN	0.000000	0.001678	0.001663	28.0827	0.039995	0.002022	19.7807	-78.4722	-165.351	0.026732	0.409266	-0.643922	-0.645232	-0.016655	19.7807	-0.643290	-3.276634E+8	5.083097E-11	NaN
1068	1.000000	0.418593	7.3755e+06	-53539.1	1055.82	-29746	0.000000	0.000000	6.418898	0.022100	NaN	0.000000	0.001648	0.001689	28.0827	0.040542	0.001949	20.8016	141.337	-163.16	0.089139	0.417296	-0.635906	-0.637203	0.022100	20.8016	-0.636702	-2.660965E+8	-8.305258E-11	NaN
1068	1.000000	0.426641	7.3755e+06	-53539.1	1055.82	-29746	0.000000	0.000000	6.426943	-0.028117	NaN	0.000000	0.001640	0.001683	28.0824	0.201203	0.002056	97.8605	-153.091	-162.934	0.003423	0.425272	-0.627858	-0.629227	-0.028117	97.8605	-0.627643	-1.998230E+8	1.407085E-10	NaN
1068	1.000000	0.434603	7.3755e+06	-53539.1	1055.82	-29746	0.000000	0.000000	6.434904	-0.053622	NaN	0.000000	0.001653	0.001685	28.0824	0.060283	0.001990	30.29	14.3558	-165.631	-0.070764	0.433255	-0.619896	-0.621244	-0.053622	30.29	-0.618568	-1.499504E+8	3.575972E-10	NaN
1068	1.000000	0.442591	7.3755e+06	-53539.1	1055.82	-29746	0.000000	0.000000	6.442895	0.003360	NaN	0.000000	0.001684	0.001665	28.0828	0.058600	0.001913	30.6405	172.684	-164.641	-0.004186	0.441316	-0.611908	-0.613183	0.003360	30.6405	-0.611990	-1.217554E+8	-2.759520E-11	NaN
1068	1.000000	0.450600	7.3755e+06	-53539.1	1055.82	-29746	0.000000	0.000000	6.450902	-0.049169	NaN	0.000000	0.001655	0.001673	28.0826	0.085282	0.002022	42.1869	-18.5899	-166.648	-0.031333	0.449263	-0.603899	-0.605236	-0.049169	42.1869	-0.603024	-9.164475E+7	5.365133E-10	NaN
1068	1.000000	0.458652	7.3755e+06	-53539.1	1055.82	-29746	0.000000	0.000000	6.458957	0.032260	NaN	0.000000	0.001703	0.001635	28.083	0.018097	0.002022	8.949039	-41.7499	-163.785	0.026436	0.457332	-0.595846	-0.597167	0.032260	8.949039	-0.598550	-7.952257E+7	-4.056647E-10	NaN
1068	1.000000	0.466587	7.3755e+06	-53539.1	1055.82	-29746	0.000000	0.000000	6.466890	-0.023410	NaN	0.000000	0.001649	0.001633	28.0838	0.027694	0.002022	13.6971	133.089	-163.837	-0.017840	0.465282	-0.587911	-0.589217	-0.023410	13.6971	-0.586629	-5.447404E+7	4.297397E-10	NaN
1068	1.000000	0.474639	7.3755e+06	-53539.1	1055.82	-29746	0.000000	0.000000	6.474942	-0.024508	NaN	0.000000	0.001669	0.001661	28.0839	0.046548	0.001966	23.676	-28.6958	-168.472	0.024283	0.473307	-0.579860	-0.581192	-0.024508	23.676	-0.579083	-4.286189E+7	5.717853E-10	NaN
1068	1.000000	0.482600	7.3755e+06	-53539.1	1055.82	-29746	0.000000	0.000000	6.482903	-0.009270	NaN	0.000000	0.001662	0.001650	28.0838	0.070131	0.002090	33.5548	47.942	-162.858	-0.011189	0.481334	-0.571899	-0.573165	-0.009270	33.5548	-0.571692	-3.388510E+7	2.735598E-10	NaN
1068	1.000000	0.490621	7.3755e+06	-53539.1	1055.82	-29746	0.000000	0.000000	6.490925	0.005190	NaN	0.000000	0.001656	0.001676	28.0839	0.019067	0.002052	9.291686	-88.4928	-162.921	-0.006380	0.489343	-0.563878	-0.565156	0.005190	9.291686	-0.564297	-2.677966E+7	-1.938218E-10	NaN
1068	1.000000	0.498623	7.3755e+06	-53539.1	1055.82	-29746	0.000000	0.000000	6.498923	-0.076707	NaN	0.000000	0.001667	0.001677	28.0837	0.034334	0.001956	17.5558	170.61	-164.375	0.014478	0.497314	-0.555876	-0.557184	-0.076707	17.5558	-0.552599	-1.844797E+7	4.158007E-9	NaN
1068	1.000000	0.506615	7.3755e+06	-53539.1	1055.82	-29746	0.000000	0.000000	6.506918	-0.007286	NaN	0.000000	0.001673	0.001663	28.0837	0.092968	0.002083	44.6399	-72.4436	-163.495	0.015218	0.505305	-0.547884	-0.549194	-0.007286	44.6399	-0.547762	-1.581065E+7	4.608249E-10	NaN
1068	1.000000	0.514619	7.3755e+06	-53539.1	1055.82	-29746	0.000000	0.000000	6.514921	-0.040331	NaN	0.000000	0.001638	0.001581	28.0838	0.038394	0.002104	18.2457	-157.81	-164.5	-0.100717	0.513332	-0.539879	-0.541167	-0.040331	18.2457	-0.538222	-1.165976E+7	3.458996E-9	NaN
1068	1.000000	0.522634	7.3755e+06	-53539.1	1055.82	-29746	0.000000	0.000000	6.522936	-0.031530	NaN	0.000000	0.001645	0.001602	28.0836	0.010600	0.002025	5.234120	120.094	-166.582	0.021345	0.521327	-0.531865	-0.533172	-0.031530	5.234120	-0.527347	-8.23613e+06	3.828235E-9	NaN
1068	1.000000	0.530647	7.3755e+06	-53539.1	1055.82	-29746	0.000000	0.000000	6.530946	-0.099339	NaN	0.000000	0.001652	0.001623	28.0837	0.055520	0.002067	26.8645	151.328	-168.12	-0.105930	0.529351	-0.523852	-0.525148	-0.099339	26.8645	-0.521079	-6.73907e+06	1.474070E-8	NaN
1068	1.000000	0.538660	7.3755e+06	-53539.1	1055.82	-29746	0.000000	0.000000	6.538961	-0.051515	NaN	0.000000	0.001646	0.001597	28.0836	0.064261	0.002046	31.4046	161.312	-165.008	-0.039341	0.537350	-0.515839	-0.517148	-0.051515	31.4046	-0.514609	-5.47752e+06	9.404866E-9	NaN
1068	1.000000	0.546670	7.3755e+06	-53539.1	1055.82	-29746	0.000000	0.000000	6.546973	-0.016116	NaN	0.000000	0.001654	0.001568	28.0842	0.056368	0.002087	27.0109	169.373	-162.519	-0.021620	0.545359	-0.507829	-0.509140	-0.016116	27.0109	-0.507381	-4.34444e+06	3.709537E-9	NaN
1068	1.000000	0.554648	7.3755e+06	-53539.1	1055.82	-29746	0.000000	0.000000	6.554952	0.003372	NaN	0.000000	0.001665	0.001607	28.0841	0.029493	0.001912	15.4252	-156.781	-163.488	0.008742	0.553371	-0.499850	-0.501128	0.003372	15.4252	-0.500014	-3.4294e+06	-9.834082E-10	NaN
1068	1.000000	0.562681	7.3755e+06	-53539.1	1055.82	-29746	0.000000	0.000000	6.562983	-0.039593	NaN	0.000000	0.001648	0.001595	28.0838	0.022066	0.001999	11.0369	132.846	-166.426	0.063649	0.561311	-0.491818	-0.493188	-0.039593	11.0369	-0.489127	-2.41654e+06	1.638437E-8	NaN
1068	1.000000	0.570665	7.3755e+06	-53539.1	1055.82	-29746	0.000000	0.000000	6.570963	-0.124638	NaN	0.000000	0.001661	0.001607	28.0838	0.052864	0.001959	26.9856	-153.673	-164.046	-0.058630	0.569387	-0.483834	-0.485112	-0.124638	26.9856	-0.480370	-1.82266e+06	6.838223E-8	NaN
1068	1.000000	0.578662	7.3755e+06	-53539.1	1055.82	-29746	0.000000	0.000000	6.578962	-0.080249	NaN	0.000000	0.001687	0.001599	28.0838	0.077056	0.002022	38.1041	-93.9247	-165.253	-0.009750	0.577375	-0.475837	-0.477124	-0.080249	38.1041	-0.474257	-1.49656e+06	5.362247E-8	NaN
1068	1.000000	0.586674	7.3755e+06	-53539.1	1055.82	-29746	0.000000	0.000000	6.586978	0.018644	NaN	0.000000	0.001682	0.001543	28.084	0.138548	0.001949	71.097	141.321	-167.842	-0.064502	0.585362	-0.467825	-0.469137	0.018644	71.097	-0.468022	-1.22365e+06	-1.523599E-8	NaN
1068	1.000000	0.594676	7.3755e+06	-53539.1	1055.82	-29746	0.000000	0.000000	6.594980	0.017699	NaN	0.000000	0.001672	0.001624	28.084	0.144361	0.002014	71.676	-179.901	-162.721	-0.016125	0.593391	-0.459823	-0.461107	0.017699	71.676	-0.460008	-944346	-1.874252E-8	NaN
1068	1.000000	0.602698	7.3755e+06	-53539.1	1055.82	-29746	0.000000	0.000000	6.603001	-0.008771	NaN	0.000000	0.001647	0.001598	28.0828	0.109653	0.001928	56.8857	-25.7353	-165.414	0.033534	0.601375	-0.451801	-0.453124	-0.008771	56.8857	-0.451685	-721216	1.216102E-8	NaN
1068	1.000000	0.610700	7.3755e+06	-53539.1	1055.82	-29746	0.000000	0.000000	6.611002	-0.031695	NaN	0.000000	0.001608	0.001603	28.0828	0.038547	0.002025	19.0403	163.188	-164.307	0.033148	0.609407	-0.443799	-0.445092	-0.031695	19.0403	-0.442550	-536221	5.910795E-8	NaN
1068	1.000000	0.618701	7.3755e+06	-53539.1	1055.82	-29746	0.000000	0.000000	6.619004	-0.007141	NaN	0.000000	0.001644	0.001575	28.0827	0.104822	0.002034	51.5326	-61.4386	-159.477	-0.008618	0.617393	-0.435798	-0.437106	-0.007141	51.5326	-0.435694	-429096	1.664176E-8	NaN
1068	1.000000	0.626672	7.3755e+06	-53539.1	1055.82	-29746	0.000000	0.000000	6.626974	-0.042276	NaN	0.000000	0.001644	0.001623	28.0827	0.050425	0.002011	25.0696	-139.864	-167.998	0.008910	0.625373	-0.427827	-0.429126	-0.042276	25.0696	-0.426562	-318713	1.326450E-7	NaN
1068	1.000000	0.634698	7.3755e+06	-53539.1	1055.82	-29746	0.000000	0.000000	6.635002	-0.007485	NaN	0.000000	0.001673	0.001650	28.0826	0.036380	0.001909	19.0581	146.236	-165.295	0.004455	0.633366	-0.419800	-0.421132	-0.007485	19.0581	-0.419506	-253167	2.956456E-8	NaN
1068	1.000000	0.642694	7.3755e+06	-53539.1	1055.82	-29746	0.000000	0.000000	6.642998	0.001326	NaN	0.000000	0.001672	0.001619	28.0828	0.080631	0.001969	40.9509	170.579	-165.64	0.061670	0.641370	-0.411804	-0.413128	0.001326	40.9509	-0.411829	-196970	-6.731806E-9	NaN
1068	1.000000	0.650722	7.3755e+06	-53539.1	1055.82	-29746	0.000000	0.000000	6.651024	-0.040099	NaN	0.000000	0.001690	0.001596	28.0829	0.077618	0.002010	38.6069	-47.8371	-163.622	-0.057537	0.649359	-0.403777	-0.405140	-0.040099	38.6069	-0.402998	-147480	2.718949E-7	NaN
1068	1.000000	0.658683	7.3755e+06	-53539.1	1055.82	-29746	0.000000	0.000000	6.658990	0.090587	NaN	0.000000	0.001648	0.001595	28.0828	0.054899	0.002062	26.6265	-113.914	-165.716	0.072691	0.657370	-0.395816	-0.397128	0.090587	26.6265	-0.398367	-126678	-7.150919E-7	NaN
1068	1.000000	0.666708	7.3755e+06	-53539.1	1055.82	-29746	0.000000	0.000000	6.667012	0.026061	NaN	0.000000	0.001654	0.001598	28.0827	0.015517	0.001951	7.953078	142.091	-163.633	-0.047091	0.665389	-0.387791	-0.389110	0.026061	7.953078	-0.390249	-96989.7	-2.686956E-7	NaN
1068	1.000000	0.674710	7.3755e+06	-53539.1	1055.82	-29746	0.000000	0.000000	6.675015	0.038023	NaN	0.000000	0.001626	0.001613	28.0828	0.046114	0.001894	24.3429	-87.5673	-162.629	-0.010127	0.673349	-0.379789	-0.381150	0.038023	24.3429	-0.380961	-71395.9	-5.325601E-7	NaN
1068	1.000000	0.682707	7.3755e+06	-53539.1	1055.82	-29746	0.000000	0.000000	6.683012	0.026741	NaN	0.000000	0.001628	0.001629	28.0829	0.043073	0.002019	21.3363	49.2636	-163.872	0.094656	0.681378	-0.371792	-0.373121	0.026741	21.3363	-0.372732	-54380.9	-4.917285E-7	NaN
1068	1.000000	0.690712	7.3755e+06	-53539.1	1055.82	-29746	0.000000	0.000000	6.691015	-0.004978	NaN	0.000000	0.001627	0.001613	28.0829	0.047914	0.002045	23.4326	176.738	-162.582	-0.011449	0.689407	-0.363787	-0.365092	-0.004978	23.4326	-0.363627	-40201.6	1.238331E-7	NaN
1068	1.000000	0.698684	7.3755e+06	-53539.1	1055.82	-29746	0.000000	0.000000	6.698988	0.009877	NaN	0.000000	0.001655	0.001590	28.0828	0.011232	0.002089	5.376449	94.3174	-161.371	-0.045607	0.697363	-0.355815	-0.357135	0.009877	5.376449	-0.357193	-32452.4	-3.043674E-7	NaN
1068	1.000000	0.706705	7.3755e+06	-53539.1	1055.82	-29746	0.000000	0.000000	6.707010	0.035046	NaN	0.000000	0.001652	0.001609	28.0829	0.052538	0.001991	26.3877	141.223	-168.305	0.061176	0.705385	-0.347794	-0.349114	0.035046	26.3877	-0.348790	-24515.2	-1.429579E-6	NaN
1068	1.000000	0.714730	7.3755e+06	-53539.1	1055.82	-29746	0.000000	0.000000	6.715033	-0.024886	NaN	0.000000	0.001637	0.001624	28.0826	0.135132	0.001989	67.9386	-170.522	-162.933	-0.025117	0.713422	-0.339768	-0.341077	-0.024886	67.9386	-0.339494	-17954.5	1.386060E-6	NaN
1068	1.000000	0.722717	7.3755e+06	-53539.1	1055.82	-29746	0.000000	0.000000	6.723020	-0.000814	NaN	0.000000	0.001643	0.001619	28.0828	0.037863	0.001996	18.9714	119.939	-163.334	-0.065552	0.721375	-0.331782	-0.333124	-0.000814	18.9714	-0.331750	-13837.8	5.883595E-8	NaN
1068	1.000000	0.730740	7.3755e+06	-53539.1	1055.82	-29746	0.000000	0.000000	6.731043	-0.033889	NaN	0.000000	0.001665	0.001631	28.0827	0.081995	0.001910	42.9271	99.6855	-164.354	-0.013804	0.729466	-0.323758	-0.325033	-0.033889	42.9271	-0.323166	-10356.3	3.272288E-6	NaN
1068	1.000000	0.738735	7.3755e+06	-53539.1	1055.82	-29746	0.000000	0.000000	6.739037	-0.046371	NaN	0.000000	0.001623	0.001599	28.084	0.045263	0.001944	23.2806	2.886255	-166.068	-0.034840	0.737411	-0.315764	-0.317088	-0.046371	23.2806	-0.314270	-7659	6.054454E-6	NaN
1068	1.000000	0.746734	7.3755e+06	-53539.1	1055.82	-29746	0.000000	0.000000	6.747038	0.003838	NaN	0.000000	0.001610	0.001589	28.084	0.098731	0.001968	50.1715	-121.645	-164.589	0.022515	0.745484	-0.307765	-0.309015	0.003838	50.1715	-0.307822	-6148.98	-6.241770E-7	NaN
1068	1.000000	0.754752	7.3755e+06	-53539.1	1055.82	-29746	0.000000	0.000000	6.755056	0.003380	NaN	0.000000	0.001640	0.001607	28.0841	0.134606	0.002044	65.8411	20.9272	-164.931	-0.034033	0.753419	-0.299746	-0.301079	0.003380	65.8411	-0.299785	-4671.26	-7.235256E-7	NaN
1068	1.000000	0.762735	7.3755e+06	-53539.1	1055.82	-29746	0.000000	0.000000	6.763040	0.028483	NaN	0.000000	0.001652	0.001600	28.0841	0.032327	0.001955	16.5351	146.58	-166.492	0.043319	0.761453	-0.291764	-0.293046	0.028483	16.5351	-0.293055	-3707.08	-7.683463E-6	NaN
1068	1.000000	0.770748	7.3755e+06	-53539.1	1055.82	-29746	0.000000	0.000000	6.771050	-0.028603	NaN	0.000000	0.001646	0.001606	28.084	0.063777	0.001862	34.2442	115.353	-166.456	-0.012817	0.769442	-0.283751	-0.285057	-0.028603	34.2442	-0.283125	-2630.6	1.087311E-5	NaN
1068	1.000000	0.778751	7.3755e+06	-53539.1	1055.82	-29746	0.000000	0.000000	6.779055	0.014389	NaN	0.000000	0.001607	0.001578	28.0841	0.039400	0.002021	19.4936	-112.639	-163.319	0.013305	0.777434	-0.275748	-0.277065	0.014389	19.4936	-0.276302	-2075.39	-6.932981E-6	NaN
1068	1.000000	0.786736	7.3755e+06	-53539.1	1055.82	-29746	0.000000	0.000000	6.787040	0.018650	NaN	0.000000	0.001625	0.001611	28.0839	0.024116	0.002093	11.5244	153.679	-162.907	0.013046	0.785417	-0.267763	-0.269081	0.018650	11.5244	-0.268977	-1606.89	-1.160619E-5	NaN
1068	1.000000	0.794705	7.3755e+06	-53539.1	1055.82	-29746	0.000000	0.000000	6.795007	-0.045513	NaN	0.000000	0.001607	0.001600	28.0842	0.051068	0.002087	24.467	-139.602	-165.105	-0.027094	0.793481	-0.259794	-0.261017	-0.045513	24.467	-0.258398	-1107.52	4.109420E-5	NaN
1068	1.000000	0.802749	7.3755e+06	-53539.1	1055.82	-29746	0.000000	0.000000	6.803050	-0.055114	NaN	0.000000	0.001640	0.001612	28.0842	0.053525	0.001988	26.9252	-85.0819	-163.377	-0.100470	0.801394	-0.251750	-0.253105	-0.055114	26.9252	-0.250215	-828.492	6.652373E-5	NaN
1068	1.000000	0.810775	7.3755e+06	-53539.1	1055.82	-29746	0.000000	0.000000	6.811079	0.016781	NaN	0.000000	0.001626	0.001597	28.0841	0.024373	0.001913	12.7436	112.858	-161.945	0.032750	0.809425	-0.243724	-0.245073	0.016781	12.7436	-0.244712	-680.727	-2.465201E-5	NaN
1068	1.000000	0.818755	7.3755e+06	-53539.1	1055.82	-29746	0.000000	0.000000	6.819059	0.009130	NaN	0.000000	0.001602	0.001583	28.0842	0.030260	0.001902	15.9117	-8.152712	-165.594	0.053925	0.817461	-0.235744	-0.237038	0.009130	15.9117	-0.236174	-500.807	-1.822969E-5	NaN
1068	1.000000	0.826756	7.3755e+06	-53539.1	1055.82	-29746	0.000000	0.000000	6.827060	0.008807	NaN	0.000000	0.001623	0.001586	28.0839	0.099269	0.002021	49.1259	-86.9271	-167.507	-0.054987	0.825493	-0.227743	-0.229006	0.008807	49.1259	-0.227877	-370.643	-2.376259E-5	NaN
1068	1.000000	0.834761	7.3755e+06	-53539.1	1055.82	-29746	0.000000	0.000000	6.835064	-0.005041	NaN	0.000000	0.001607	0.001578	28.0842	0.075997	0.002047	37.1179	170.757	-169.065	-0.063278	0.833470	-0.219738	-0.221029	-0.005041	37.1179	-0.219636	-274.066	1.839238E-5	NaN
1068	1.000000	0.842777	7.3755e+06	-53539.1	1055.82	-29746	0.000000	0.000000	6.843079	-0.050554	NaN	0.000000	0.001600	0.001586	28.084	0.115916	0.001970	58.8537	152.631	-168.078	-0.103809	0.841476	-0.211721	-0.213023	-0.050554	58.8537	-0.211077	-199.64	0.000253	NaN
1068	1.000000	0.850787	7.3755e+06	-53539.1	1055.82	-29746	0.000000	0.000000	6.851092	0.017277	NaN	0.000000	0.001602	0.001623	28.0838	0.082125	0.002004	40.9752	-179.753	-163.906	0.024264	0.849448	-0.203711	-0.205050	0.017277	40.9752	-0.204028	-153.351	-0.000113	NaN
1068	1.000000	0.858804	7.3755e+06	-53539.1	1055.82	-29746	0.000000	0.000000	6.859105	-0.063191	NaN	0.000000	0.001622	0.001647	28.0843	0.068281	0.001961	34.8227	-77.0392	-165.364	-0.054715	0.857463	-0.195694	-0.197035	-0.063191	34.8227	-0.194333	-106.207	0.000595	NaN
1068	1.000000	0.866809	7.3755e+06	-53539.1	1055.82	-29746	0.000000	0.000000	6.867113	-0.001443	NaN	0.000000	0.001604	0.001626	28.0839	0.040730	0.002022	20.14	87.9084	-165.464	0.008284	0.865482	-0.187689	-0.189016	-0.001443	20.14	-0.187636	-82.1201	1.757480E-5	NaN
1068	1.000000	0.874801	7.3755e+06	-53539.1	1055.82	-29746	0.000000	0.000000	6.875106	0.043125	NaN	0.000000	0.001582	0.001646	28.0829	0.067611	0.002090	32.3572	147.065	-166.299	-0.029567	0.873445	-0.179698	-0.181053	0.043125	32.3572	-0.180698	-62.7092	-0.000688	NaN
1068	1.000000	0.882798	7.3755e+06	-53539.1	1055.82	-29746	0.000000	0.000000	6.883103	0.030142	NaN	0.000000	0.001622	0.001624	28.0827	0.086623	0.002078	41.6834	-91.9657	-163.742	0.010540	0.881568	-0.171701	-0.172931	0.030142	41.6834	-0.172243	-44.9233	-0.000671	NaN
1068	1.000000	0.890760	7.3755e+06	-53539.1	1055.82	-29746	0.000000	0.000000	6.891065	0.054341	NaN	0.000000	0.001619	0.001621	28.0827	0.121028	0.002128	56.8761	-149.708	-163.714	-0.037009	0.889478	-0.163739	-0.165021	0.054341	56.8761	-0.164456	-32.8655	-0.001653	NaN
1068	1.000000	0.898797	7.3755e+06	-53539.1	1055.82	-29746	0.000000	0.000000	6.899100	-0.001839	NaN	0.000000	0.001605	0.001608	28.0831	0.109720	0.001949	56.2894	49.3254	-168.455	-0.005138	0.897457	-0.155702	-0.157042	-0.001839	56.2894	-0.155677	-22.9487	8.015536E-5	NaN
1068	1.000000	0.906837	7.3755e+06	-53539.1	1055.82	-29746	0.000000	0.000000	6.907140	-0.020932	NaN	0.000000	0.001611	0.001601	28.0828	0.162634	0.002054	79.1662	-9.793331	-162.297	0.029311	0.905502	-0.147662	-0.148997	-0.020932	79.1662	-0.147463	-16.2771	0.001286	NaN
1068	1.000000	0.914807	7.3755e+06	-53539.1	1055.82	-29746	0.000000	0.000000	6.915160	1.209904	NaN	0.000000	0.001593	0.001593	28.083	1.003016	0.001940	517.051	14.2142	-166.089	0.950046	0.913487	-0.139692	-0.141012	1.209904	517.051	-0.141447	-12.5917	-0.096087	NaN
1068	1.000000	0.922812	7.3755e+06	-53539.1	1055.82	-29746	0.000000	0.000000	6.923259	3.477770	NaN	0.000000	0.001607	0.001620	28.0828	1.355771	0.001992	680.722	11.5529	-166.678	3.080945	0.921516	-0.131687	-0.132982	3.477770	680.722	-0.135518	-9.731401	-0.357376	NaN
1068	1.000000	0.930826	7.3755e+06	-53539.1	1055.82	-29746	0.000000	0.000000	6.931379	6.063072	NaN	0.000000	0.001617	0.001598	28.083	1.904806	0.002011	947.301	11.9458	-165.708	5.780879	0.929448	-0.123673	-0.125051	6.063072	947.301	-0.128473	-7.116580	-0.851964	NaN
1068	1.000000	0.938819	7.3755e+06	-53539.1	1055.82	-29746	0.000000	0.000000	6.939416	7.119922	NaN	0.000000	0.001612	0.001594	28.083	1.983172	0.002012	985.584	14.6762	-167.545	7.027878	0.937526	-0.115679	-0.116973	7.119922	985.584	-0.121097	-5.083720	-1.400534	NaN
1068	1.000000	0.946843	7.3755e+06	-53539.1	1055.82	-29746	0.000000	0.000000	6.947344	4.799015	NaN	0.000000	0.001627	0.001617	28.0828	1.878138	0.001954	961.057	26.7326	-168.406	5.797537	0.945515	-0.107655	-0.108984	4.799015	961.057	-0.111400	-3.215937	-1.492260	NaN
1068	1.000000	0.954842	7.3755e+06	-53539.1	1055.82	-29746	0.000000	0.000000	6.955250	2.544409	NaN	0.000000	0.001578	0.001626	28.0834	1.574778	0.002101	749.471	27.93	-167.603	2.618774	0.953547	-0.099657	-0.100952	2.544409	749.471	-0.102203	-2.043261	-1.245269	NaN
1068	1.000000	0.962815	7.3755e+06	-53539.1	1055.82	-29746	0.000000	0.000000	6.963204	2.078914	NaN	0.000000	0.001582	0.001639	28.0829	1.323156	0.001873	706.469	24.0749	-166.176	2.084739	0.961518	-0.091684	-0.092980	2.078914	706.469	-0.093891	-1.330645	-1.562335	NaN
1068	1.000000	0.970815	7.3755e+06	-53539.1	1055.82	-29746	0.000000	0.000000	6.971185	1.609949	NaN	0.000000	0.001638	0.001633	28.0831	1.229660	0.001920	640.493	29.4383	-166.334	1.661604	0.969494	-0.083683	-0.085004	1.609949	640.493	-0.085569	-0.848042	-1.898430	NaN
1068	1.000000	0.978823	7.3755e+06	-53539.1	1055.82	-29746	0.000000	0.000000	6.979189	1.523339	NaN	0.000000	0.001632	0.001638	28.083	1.169906	0.001935	604.515	22.7827	-163.785	1.454879	0.977500	-0.075676	-0.076998	1.523339	604.515	-0.077566	-0.537418	-2.834554	NaN
1068	1.000000	0.986837	7.3755e+06	-53539.1	1055.82	-29746	0.000000	0.000000	6.987216	1.830872	NaN	0.000000	0.001634	0.001634	28.0828	1.155160	0.002033	568.158	19.0694	-167.39	1.855886	0.985534	-0.067662	-0.068965	1.830872	568.158	-0.070078	-0.342761	-5.341538	NaN
1068	1.000000	0.994842	7.3755e+06	-53539.1	1055.82	-29746	0.000000	0.000000	6.995219	1.797034	NaN	0.000000	0.001594	0.001644	28.0831	1.181154	0.002147	550.021	27.8693	-169.607	1.827548	0.993581	-0.059657	-0.060918	1.797034	550.021	-0.062107	-0.206791	-8.690112	NaN
1068	1.000000	1.002816	7.3755e+06	-53539.1	1055.82	-29746	0.000000	0.000000	7.003193	1.792318	NaN	0.000000	0.001630	0.001628	28.0828	1.209200	0.002016	599.935	19.3278	-164.31	1.733304	1.001522	-0.051683	-0.052977	1.792318	599.935	-0.053923	-0.119653	-14.9793	NaN
1068	1.000000	1.010855	7.3755e+06	-53539.1	1055.82	-29746	0.000000	0.000000	7.011218	1.445088	NaN	0.000000	0.001646	0.001635	28.0845	1.030387	0.002070	497.801	29.2152	-167.053	1.662655	1.009551	-0.043644	-0.044948	1.445088	497.801	-0.045821	-0.068093	-21.2221	NaN
1068	1.000000	1.018871	7.3755e+06	-53539.1	1055.82	-29746	0.000000	0.000000	7.019235	1.455031	NaN	0.000000	0.001645	0.001657	28.0843	1.340572	0.002062	650.239	22.8238	-167.901	1.559948	1.017526	-0.035628	-0.036973	1.455031	650.239	-0.037306	-0.037499	-38.802	NaN
1068	1.000000	1.026837	7.3755e+06	-53539.1	1055.82	-29746	0.000000	0.000000	7.027214	1.772496	NaN	0.000000	0.001602	0.001647	28.0843	1.583197	0.001985	797.463	20.5058	-164.264	1.771139	1.025525	-0.027661	-0.028974	1.772496	797.463	-0.029328	-0.022046	-80.3989	NaN
1068	1.000000	1.034874	7.3755e+06	-53539.1	1055.82	-29746	0.000000	0.000000	7.035275	2.370613	NaN	0.000000	0.001620	0.001635	28.0843	1.898988	0.002102	903.238	24.6771	-166.728	2.308715	1.033546	-0.019625	-0.020952	2.370613	903.238	-0.021593	-0.013788	-171.93	NaN
1068	1.000000	1.042859	7.3755e+06	-53539.1	1055.82	-29746	0.000000	0.000000	7.043271	2.645193	NaN	0.000000	0.001628	0.001638	28.0842	2.119071	0.001959	1081.63	21.4902	-168.196	2.721996	1.041469	-0.011640	-0.013030	2.645193	1081.63	-0.013474	-0.008377	-315.776	NaN
1068	1.000000	1.050883	7.3755e+06	-53539.1	1055.82	-29746	0.000000	0.000000	7.051317	3.179582	NaN	0.000000	0.001619	0.001652	28.0846	2.397141	0.001775	1350.5	20.0269	-166.492	3.236218	1.049551	-0.003616	-0.004948	3.179582	1350.5	-0.005382	-0.003655	-869.863	NaN
1068	1.000000	1.058874	7.3755e+06	-53539.1	1055.82	-29746	0.000000	0.000000	7.059364	4.546231	NaN	0.000000	0.001653	0.001645	28.0841	4.011644	0.001975	2031.1	20.4961	-168.317	4.060231	1.057530	0.004375	0.003032	4.546231	2031.1	0.002696	0.002126	2138.44	40246.5
1068	2.000000	1.064482	7.3755e+06	-53539.1	1055.82	-29746	0.000000	0.000000	7.065140	8.613998	NaN	0.000000	0.001631	0.001628	28.0841	8.626535	0.001715	5031.07	10.8208	-171.701	8.616187	1.064160	0.009984	0.009662	8.613998	5031.07	0.008699	0.007772	1108.38	52140.6
1068	2.000000	1.066456	7.3755e+06	-53539.1	1055.82	-29746	0.000000	0.000000	7.067159	9.729971	NaN	0.000000	0.001630	0.001640	28.0839	9.619351	0.001617	5949.59	7.349422	-169.24	9.594515	1.066163	0.011957	0.011664	9.729971	5949.59	0.010730	0.010005	972.557	54345.3
1068	2.000000	1.068447	7.3755e+06	-53539.1	1055.82	-29746	0.000000	0.000000	7.069293	13.176	NaN	0.000000	0.001611	0.001643	28.0842	13.3224	0.001870	7125.13	13.6093	-177.434	13.0221	1.068079	0.013948	0.013580	13.176	7125.13	0.012561	0.012170	1082.7	59010.6
1068	2.000000	1.070380	7.3755e+06	-53539.1	1055.82	-29746	0.000000	0.000000	7.071309	15.2194	NaN	0.000000	0.001617	0.001619	28.0841	14.8003	0.001716	8627.29	12.025	-178.264	14.6119	1.070113	0.015881	0.015614	15.2194	8627.29	0.014558	0.014700	1035.3	65010.3
1068	2.000000	1.072406	7.3755e+06	-53539.1	1055.82	-29746	0.000000	0.000000	7.073426	17.4211	NaN	0.000000	0.001624	0.001613	28.084	17.3165	0.001877	9223.27	11.8424	-177.19	17.3728	1.072099	0.017908	0.017600	17.4211	9223.27	0.016491	0.017325	1005.53	64020.3
1068	2.000000	1.074402	7.3755e+06	-53539.1	1055.82	-29746	0.000000	0.000000	7.075576	21.1715	NaN	0.000000	0.001648	0.001642	28.0845	19.046	0.001841	10343.1	9.682118	-176.138	20.5334	1.074027	0.019903	0.019528	21.1715	10343.1	0.018368	0.020042	1056.34	66750
1068	2.000000	1.076366	7.3755e+06	-53539.1	1055.82	-29746	0.000000	0.000000	7.077732	25.8366	NaN	0.000000	0.001613	0.001638	28.0841	21.466	0.001837	11687.6	9.487528	-177.733	25.5255	1.076045	0.021867	0.021546	25.8366	11687.6	0.020209	0.022872	1129.61	70606.6
1068	2.000000	1.078352	7.3755e+06	-53539.1	1055.82	-29746	0.000000	0.000000	7.079878	29.7388	NaN	0.000000	0.001628	0.001625	28.0843	23.5681	0.001842	12794.7	8.655730	-178.238	28.5573	1.078054	0.023853	0.023555	29.7388	12794.7	0.022110	0.025966	1145.29	72543.7
1068	2.000000	1.080380	7.3755e+06	-53539.1	1055.82	-29746	0.000000	0.000000	7.082057	33.3849	NaN	0.000000	0.001626	0.001637	28.0841	25.2933	0.001730	14618.2	8.485848	-179.144	33.5589	1.080095	0.025881	0.025597	33.3849	14618.2	0.024169	0.029521	1130.9	77733
1068	2.000000	1.082377	7.3755e+06	-53539.1	1055.82	-29746	0.000000	0.000000	7.084301	39.4145	NaN	0.000000	0.001607	0.001656	28.0839	28.2923	0.001864	15180.3	8.082505	-179.506	39.282	1.082021	0.027878	0.027522	39.4145	15180.3	0.025931	0.032730	1204.22	76661.4
1068	2.000000	1.084370	7.3755e+06	-53539.1	1055.82	-29746	0.000000	0.000000	7.086605	46.9697	NaN	0.000000	0.001657	0.001619	28.0838	30.7592	0.001939	15864.1	9.333015	179.444	46.8567	1.084074	0.029871	0.029575	46.9697	15864.1	0.027650	0.036014	1304.2	76375
1068	2.000000	1.086344	7.3755e+06	-53539.1	1055.82	-29746	0.000000	0.000000	7.088799	52.321	NaN	0.000000	0.001644	0.001625	28.0828	32.1172	0.001813	17714.6	4.634862	-177.02	52.02	1.086021	0.031845	0.031522	52.321	17714.6	0.029630	0.039980	1308.68	80943.8
1068	2.000000	1.088307	7.3755e+06	-53539.1	1055.82	-29746	0.000000	0.000000	7.091068	59.7285	NaN	0.000000	0.001627	0.001625	28.0829	34.4839	0.001735	19869.8	4.971718	-179.192	58.8913	1.088086	0.033809	0.033587	59.7285	19869.8	0.031554	0.044027	1356.65	86518.5
1068	2.000000	1.090309	7.3755e+06	-53539.1	1055.82	-29746	0.000000	0.000000	7.093319	65.7951	NaN	0.000000	0.001626	0.001614	28.0829	35.4592	0.001771	20021.5	5.097877	-179.493	63.0565	1.090020	0.035810	0.035521	65.7951	20021.5	0.033346	0.047964	1371.75	83523.9
1068	2.000000	1.092347	7.3755e+06	-53539.1	1055.82	-29746	0.000000	0.000000	7.095619	72.1705	NaN	0.000000	0.001644	0.001650	28.0827	39.3819	0.001865	21111.3	6.335885	178.335	71.9794	1.091944	0.037848	0.037445	72.1705	21111.3	0.035285	0.052411	1377.02	84251.5
1068	2.000000	1.094352	7.3755e+06	-53539.1	1055.82	-29746	0.000000	0.000000	7.098122	84.2895	NaN	0.000000	0.001632	0.001608	28.0836	40.9161	0.001941	21074.8	5.387174	-178.302	85.7238	1.094007	0.039853	0.039508	84.2895	21074.8	0.036853	0.056149	1501.16	81257.6
1068	2.000000	1.096321	7.3755e+06	-53539.1	1055.82	-29746	0.000000	0.000000	7.100415	92.1625	NaN	0.000000	0.001639	0.001610	28.0828	43.2197	0.001883	22946.7	5.293232	179.646	92.9835	1.096066	0.041822	0.041567	92.1625	22946.7	0.038810	0.060989	1511.14	84892.5
1068	2.000000	1.098279	7.3755e+06	-53539.1	1055.82	-29746	0.000000	0.000000	7.102664	99.2319	NaN	0.000000	0.001629	0.001623	28.0832	45.029	0.001754	25669.9	5.854275	177.451	96.3156	1.097923	0.043780	0.043425	99.2319	25669.9	0.040881	0.066325	1496.14	91066.3
1068	2.000000	1.100327	7.3755e+06	-53539.1	1055.82	-29746	0.000000	0.000000	7.105113	109.001	NaN	0.000000	0.001628	0.001611	28.0829	45.6995	0.001883	24274.1	7.292469	177.581	107.708	1.099984	0.045828	0.045485	109.001	24274.1	0.042460	0.070540	1545.24	83502.2
1068	2.000000	1.102375	7.3755e+06	-53539.1	1055.82	-29746	0.000000	0.000000	7.107209	110.155	NaN	0.000000	0.001623	0.001622	28.0829	48.6857	0.001811	26879.2	6.008402	176.217	110.497	1.102041	0.047876	0.047542	110.155	26879.2	0.044803	0.077028	1430.06	88484.1
1068	2.000000	1.104434	7.3755e+06	-53539.1	1055.82	-29746	0.000000	0.000000	7.109785	122.724	NaN	0.000000	0.001643	0.001618	28.0834	50.4407	0.001890	26682.2	4.947018	178.553	127.155	1.104072	0.049935	0.049574	122.724	26682.2	0.046485	0.081860	1499.2	85204
1068	2.000000	1.106339	7.3755e+06	-53539.1	1055.82	-29746	0.000000	0.000000	7.112225	135.728	NaN	0.000000	0.001611	0.001625	28.0827	52.4717	0.001763	29770.3	7.225035	174.691	136.899	1.105968	0.051840	0.051469	135.728	29770.3	0.048421	0.087594	1549.51	91900.8
1068	2.000000	1.108304	7.3755e+06	-53539.1	1055.82	-29746	0.000000	0.000000	7.114437	141.71	NaN	0.000000	0.001622	0.001627	28.0829	53.5883	0.001717	31213.7	5.114599	176.014	140.424	1.107990	0.053806	0.053491	141.71	31213.7	0.050401	0.093655	1513.1	93186.5
1068	2.000000	1.110345	7.3755e+06	-53539.1	1055.82	-29746	0.000000	0.000000	7.116832	150.338	NaN	0.000000	0.001604	0.001643	28.0828	54.7715	0.001745	31392.7	6.348901	175.568	151.577	1.110018	0.055846	0.055519	150.338	31392.7	0.052255	0.099509	1510.8	90922.2
1068	2.000000	1.112229	7.3755e+06	-53539.1	1055.82	-29746	0.000000	0.000000	7.119152	160.921	NaN	0.000000	0.001621	0.001662	28.083	58.2606	0.001757	33158.6	6.605462	174.105	157.297	1.111941	0.057731	0.057442	160.921	33158.6	0.054091	0.105476	1525.67	93280.8
1068	2.000000	1.114268	7.3755e+06	-53539.1	1055.82	-29746	0.000000	0.000000	7.121491	168.217	NaN	0.000000	0.001616	0.001653	28.0839	60.1801	0.001898	31700.1	4.615643	176.933	164.136	1.113987	0.059769	0.059488	168.217	31700.1	0.055790	0.111145	1513.49	86874
1068	2.000000	1.116241	7.3755e+06	-53539.1	1055.82	-29746	0.000000	0.000000	7.123864	177.964	NaN	0.000000	0.001606	0.001672	28.083	61.3185	0.001826	33572.1	3.911939	177.037	173.751	1.116012	0.061742	0.061514	177.964	33572.1	0.057766	0.117920	1509.19	89321.9
1068	2.000000	1.118300	7.3755e+06	-53539.1	1055.82	-29746	0.000000	0.000000	7.126422	190.093	NaN	0.000000	0.001619	0.001707	28.0843	64.8771	0.001921	33768.9	8.012127	172.851	189.489	1.118008	0.063801	0.063509	190.093	33768.9	0.059579	0.124304	1529.26	87507.9
1068	2.000000	1.120245	7.3755e+06	-53539.1	1055.82	-29746	0.000000	0.000000	7.128668	197.415	NaN	0.000000	0.001639	0.001713	28.0843	64.8405	0.001892	34267.9	4.187181	175.996	194.174	1.120037	0.065746	0.065538	197.415	34267.9	0.061425	0.130968	1507.35	86512.3
1068	2.000000	1.122278	7.3755e+06	-53539.1	1055.82	-29746	0.000000	0.000000	7.131499	216.819	NaN	0.000000	0.001618	0.001750	28.0846	66.963	0.001805	37089.8	8.610150	171.268	214.932	1.121960	0.067779	0.067462	216.819	37089.8	0.063395	0.138261	1568.18	91133.3
1068	2.000000	1.124339	7.3755e+06	-53539.1	1055.82	-29746	0.000000	0.000000	7.133822	223.177	NaN	0.000000	0.001612	0.001717	28.0846	67.1557	0.001625	41331.1	1.430323	177.486	221.337	1.124012	0.069840	0.069513	223.177	41331.1	0.065790	0.147387	1514.22	98360.4
1068	2.000000	1.126275	7.3755e+06	-53539.1	1055.82	-29746	0.000000	0.000000	7.136180	233.438	NaN	0.000000	0.001627	0.001748	28.0843	70.6496	0.001822	38772.9	8.694118	171.558	230.982	1.125942	0.071776	0.071443	233.438	38772.9	0.067261	0.153124	1524.5	90527.3
1068	2.000000	1.128305	7.3755e+06	-53539.1	1055.82	-29746	0.000000	0.000000	7.138794	247.646	NaN	0.000000	0.001576	0.001726	28.0843	71.8527	0.001756	40924.9	6.787742	172.502	247.124	1.127993	0.073806	0.073494	247.646	40924.9	0.069268	0.161121	1537.02	93150.3
1068	2.000000	1.130212	7.3755e+06	-53539.1	1055.82	-29746	0.000000	0.000000	7.141101	257.356	NaN	0.000000	0.001608	0.001700	28.0844	71.6919	0.001727	41515.5	3.313920	175.758	253.976	1.129933	0.075714	0.075434	257.356	41515.5	0.071064	0.168445	1527.83	92417.7
1068	2.000000	1.132283	7.3755e+06	-53539.1	1055.82	-29746	0.000000	0.000000	7.143746	271.307	NaN	0.000000	0.001608	0.001729	28.0844	74.9226	0.001743	42993.9	7.575703	170.775	269.435	1.131867	0.077785	0.077369	271.307	42993.9	0.073052	0.176723	1535.21	93440
1068	2.000000	1.134326	7.3755e+06	-53539.1	1055.82	-29746	0.000000	0.000000	7.146317	284.146	NaN	0.000000	0.001595	0.001702	28.0843	76.9261	0.001775	43334.5	4.007035	174.64	285.013	1.134029	0.079827	0.079530	284.146	43334.5	0.074910	0.184631	1538.99	92141.5
1068	2.000000	1.136259	7.3755e+06	-53539.1	1055.82	-29746	0.000000	0.000000	7.148931	300.717	NaN	0.000000	0.001595	0.001723	28.0845	78.9169	0.001806	43698.7	6.092407	173.429	298.777	1.135850	0.081760	0.081352	300.717	43698.7	0.076599	0.191962	1566.55	91124.4
1068	2.000000	1.138167	7.3755e+06	-53539.1	1055.82	-29746	0.000000	0.000000	7.151318	312.352	NaN	0.000000	0.001580	0.001727	28.0842	81.0879	0.001786	45389.4	5.865684	172.745	306.324	1.137907	0.083668	0.083408	312.352	45389.4	0.078507	0.200403	1558.62	92635.1
1068	2.000000	1.140155	7.3755e+06	-53539.1	1055.82	-29746	0.000000	0.000000	7.153605	319.638	NaN	0.000000	0.001636	0.001739	28.0844	81.6802	0.001823	44806.8	4.141128	174.064	312.154	1.139922	0.085656	0.085423	319.638	44806.8	0.080306	0.208518	1532.91	89649
1068	2.000000	1.142207	7.3755e+06	-53539.1	1055.82	-29746	0.000000	0.000000	7.156293	335.073	NaN	0.000000	0.001593	0.001723	28.0842	84.0031	0.001707	49208.4	2.998641	174.75	331.381	1.141939	0.087709	0.087440	335.073	49208.4	0.082602	0.219094	1529.35	96050
1068	2.000000	1.144372	7.3755e+06	-53539.1	1055.82	-29746	0.000000	0.000000	7.158775	342.783	NaN	0.000000	0.001581	0.001701	28.0844	87.2763	0.001856	47012.6	5.932184	172.587	344.314	1.144031	0.089873	0.089532	342.783	47012.6	0.084405	0.227571	1506.27	90038.7
1068	2.000000	1.146217	7.3755e+06	-53539.1	1055.82	-29746	0.000000	0.000000	7.161342	360.337	NaN	0.000000	0.001618	0.001710	28.0847	89.2189	0.001757	50777.6	10.3473	167.676	358.831	1.145907	0.091719	0.091409	360.337	50777.6	0.086396	0.237108	1519.72	95273.6
1068	2.000000	1.148285	7.3755e+06	-53539.1	1055.82	-29746	0.000000	0.000000	7.163891	372.035	NaN	0.000000	0.001636	0.001691	28.0845	91.6027	0.001778	51516.5	8.112328	169.368	373.052	1.147883	0.093786	0.093384	372.035	51516.5	0.088370	0.246740	1507.8	94754.4
1068	2.000000	1.150284	7.3755e+06	-53539.1	1055.82	-29746	0.000000	0.000000	7.166668	390.947	NaN	0.000000	0.001602	0.001701	28.0847	91.4509	0.001766	51791.2	3.152651	174.62	391.92	1.149950	0.095785	0.095451	390.947	51791.2	0.090124	0.255448	1530.43	93621.9
1068	2.000000	1.152252	7.3755e+06	-53539.1	1055.82	-29746	0.000000	0.000000	7.169061	401.287	NaN	0.000000	0.001602	0.001676	28.0829	95.1818	0.001852	51388	5.323926	172.065	398.916	1.152045	0.097753	0.097546	401.287	51388	0.091897	0.264396	1517.75	91307.7
1068	2.000000	1.154260	7.3755e+06	-53539.1	1055.82	-29746	0.000000	0.000000	7.171836	419.93	NaN	0.000000	0.001645	0.001709	28.083	96.4001	0.001762	54726.1	5.661810	171.794	417.948	1.153973	0.099762	0.099474	419.93	54726.1	0.094007	0.275232	1525.73	95305.5
1068	2.000000	1.156255	7.3755e+06	-53539.1	1055.82	-29746	0.000000	0.000000	7.174383	433.363	NaN	0.000000	0.001639	0.001712	28.0832	97.4634	0.001826	53376.9	4.478048	173.37	433.978	1.155962	0.101756	0.101463	433.363	53376.9	0.095667	0.283902	1526.45	91525.5
1068	2.000000	1.158255	7.3755e+06	-53539.1	1055.82	-29746	0.000000	0.000000	7.176547	437.348	NaN	0.000000	0.001630	0.001690	28.0832	99.6419	0.001667	59780.2	2.902194	173.244	437.013	1.157976	0.103756	0.103477	437.348	59780.2	0.098269	0.297743	1468.88	100094
1068	2.000000	1.160251	7.3755e+06	-53539.1	1055.82	-29746	0.000000	0.000000	7.179577	462.475	NaN	0.000000	0.001618	0.001679	28.0832	100.416	0.001750	57370	5.345903	171.258	461.174	1.159959	0.105752	0.105460	462.475	57370	0.099706	0.305518	1513.74	94828.7
1068	2.000000	1.162198	7.3755e+06	-53539.1	1055.82	-29746	0.000000	0.000000	7.182520	486.696	NaN	0.000000	0.001672	0.001725	28.083	102.857	0.001739	59155.5	5.623577	171.257	483.057	1.161783	0.107699	0.107285	486.696	59155.5	0.101529	0.315513	1542.55	96218.7