File: remote_trans/data/nanoindenter/0828-1/data/Data_2025-08-06,11h17m57s/2025-07-22_16-23-58_1_363.txt
2025-07-22, 16:23:58, 1
Index	Phase	Displacement	Time	Pos X	Pos Y	Pos Z	Rot A	Rot B	Piezo Z	Force A	Force B	Gripper	Voltage A	Voltage B	Temperature	Amplitude force	Amplitude pos	Stiffness	Phase shift	Phase excitation	Force A raw	Displacement raw	HMax	HMax raw	Real Force	Real Stiffness	Contact Depth	Area	Hardness	Reduced Mod.
[#]	[#]	[um]	[s]	[um]	[um]	[um]	[m°]	[m°]	[um]	[uN]	[uN]	[V]	[V]	[V]	[°C]	[uN]	[um]	[N/m]	[°]	[°]	[uN]	[um]	[um]	[um]	[uN]	[N/m]	[um]	[um^2]	[MPa]	[MPa]
363	1.000000	0.002335	7.36861e+06	-56789.1	955.818	-29738.4	0.000000	0.000000	6.002815	-0.030271	NaN	0.000000	0.001647	0.001691	28.0825	0.134521	0.001064	126.465	-67.2604	-164.291	0.028320	0.001082	-1.091578	-1.092830	-0.030271	126.465	-1.091398	-3.842250E+14	7.878497E-17	NaN
363	1.000000	0.012354	7.36861e+06	-56789.1	955.82	-29738.4	0.000000	0.000000	6.012833	-0.071713	NaN	0.000000	0.001685	0.001680	28.0819	0.095083	0.001346	70.6224	-150.215	12.4061	-0.065243	0.010974	-1.081559	-1.082938	-0.071713	70.6224	-1.080797	-2.768387E+14	2.590441E-16	NaN
363	1.000000	0.022265	7.36861e+06	-56789.1	955.819	-29738.4	0.000000	0.000000	6.022746	-0.010411	NaN	0.000000	0.001659	0.001701	28.0821	0.100821	0.001673	60.2699	78.6681	-164.948	0.004604	0.020976	-1.071648	-1.072936	-0.010411	60.2699	-1.071518	-2.077706E+14	5.010733E-17	NaN
363	1.000000	0.032258	7.36861e+06	-56789.1	955.819	-29738.4	0.000000	0.000000	6.032738	-0.030883	NaN	0.000000	0.001682	0.001691	28.0812	0.025377	0.001868	13.5868	164.894	17.5528	-0.027816	0.030887	-1.061655	-1.063025	-0.030883	13.5868	-1.059950	-1.452607E+14	2.126034E-16	NaN
363	1.000000	0.042280	7.36861e+06	-56789.1	955.818	-29738.4	0.000000	0.000000	6.042761	-0.033751	NaN	0.000000	0.001664	0.001658	28.0814	0.065413	0.001845	35.4469	-126.235	-168.834	0.007279	0.040931	-1.051632	-1.052982	-0.033751	35.4469	-1.050918	-1.098384E+14	3.072768E-16	NaN
363	1.000000	0.052303	7.36861e+06	-56789.1	955.818	-29738.4	0.000000	0.000000	6.052785	-0.002488	NaN	0.000000	0.001706	0.001695	28.0813	0.084766	0.001890	44.8564	-24.7078	15.5789	0.047031	0.050915	-1.041610	-1.042997	-0.002488	44.8564	-1.041568	-8.223405E+13	3.025669E-17	NaN
363	1.000000	0.062271	7.36861e+06	-56789.1	955.818	-29738.4	0.000000	0.000000	6.062754	0.033341	NaN	0.000000	0.001680	0.001707	28.0815	0.034087	0.001896	17.9819	107.439	-164.692	-0.058990	0.060985	-1.031641	-1.032928	0.033341	17.9819	-1.033032	-6.313341E+13	-5.281096E-16	NaN
363	1.000000	0.072257	7.36861e+06	-56789.1	955.818	-29738.4	0.000000	0.000000	6.072740	0.023274	NaN	0.000000	0.001656	0.001707	28.081	0.022734	0.001940	11.7168	98.7203	14.8949	-0.030189	0.070930	-1.021655	-1.022982	0.023274	11.7168	-1.023145	-4.647969E+13	-5.007344E-16	NaN
363	1.000000	0.082292	7.36861e+06	-56789.1	955.819	-29738.4	0.000000	0.000000	6.082773	-0.009617	NaN	0.000000	0.001673	0.001676	28.0813	0.143551	0.001891	75.918	-56.5167	-165.111	-0.035597	0.080989	-1.011621	-1.012924	-0.009617	75.918	-1.011526	-3.242781E+13	2.965738E-16	NaN
363	1.000000	0.092297	7.36861e+06	-56789.1	955.818	-29738.4	0.000000	0.000000	6.092776	-0.088684	NaN	0.000000	0.001678	0.001741	28.0811	0.043218	0.002144	20.1583	-114.419	8.709524	-0.068379	0.090935	-1.001615	-1.002977	-0.088684	20.1583	-0.998315	-2.153223E+13	4.118642E-15	NaN
363	1.000000	0.102304	7.36861e+06	-56789.1	955.818	-29738.4	0.000000	0.000000	6.102785	-0.029519	NaN	0.000000	0.001648	0.001688	28.0811	0.034161	0.002004	17.0487	13.6328	-164.668	-0.106033	0.100982	-0.991608	-0.992930	-0.029519	17.0487	-0.990309	-1.679882E+13	1.757212E-15	NaN
363	1.000000	0.112252	7.36861e+06	-56789.1	955.82	-29738.4	0.000000	0.000000	6.112734	-0.008794	NaN	0.000000	0.001696	0.001737	28.0811	0.026135	0.002040	12.811	-78.1924	13.1142	0.023862	0.110940	-0.981660	-0.982972	-0.008794	12.811	-0.981145	-1.264277E+13	6.956086E-16	NaN
363	1.000000	0.122303	7.36861e+06	-56789.1	955.818	-29738.4	0.000000	0.000000	6.122786	0.015924	NaN	0.000000	0.001651	0.001691	28.0812	0.038516	0.002064	18.6652	-129.496	-167.507	-0.008939	0.120922	-0.971609	-0.972990	0.015924	18.6652	-0.972249	-9.593425E+12	-1.659836E-15	NaN
363	1.000000	0.132316	7.36861e+06	-56789.1	955.819	-29738.4	0.000000	0.000000	6.132795	-0.063518	NaN	0.000000	0.001686	0.001727	28.0812	0.062283	0.001935	32.1936	-61.7357	13.5594	-0.007718	0.130933	-0.961597	-0.962980	-0.063518	32.1936	-0.960117	-6.583295E+12	9.648362E-15	NaN
363	1.000000	0.142298	7.36861e+06	-56789.1	955.819	-29738.4	0.000000	0.000000	6.142776	-0.080381	NaN	0.000000	0.001591	0.001684	28.0812	0.017686	0.001978	8.941166	-32.6129	-164.98	-0.089178	0.140960	-0.951615	-0.952952	-0.080381	8.941166	-0.944872	-4.100740E+12	1.960165E-14	NaN
363	1.000000	0.152312	7.36861e+06	-56789.1	955.818	-29738.4	0.000000	0.000000	6.152793	-0.017668	NaN	0.000000	0.001597	0.001741	28.0813	0.069106	0.001935	35.7166	1.902023	12.838	0.116844	0.150910	-0.941601	-0.943003	-0.017668	35.7166	-0.941230	-3.662094E+12	4.824430E-15	NaN
363	1.000000	0.162323	7.36861e+06	-56789.1	955.819	-29738.4	0.000000	0.000000	6.162806	0.036232	NaN	0.000000	0.001600	0.001733	28.0811	0.084745	0.001991	42.5538	-172.095	-165.232	-0.022456	0.161005	-0.931589	-0.932907	0.036232	42.5538	-0.932228	-2.768634E+12	-1.308657E-14	NaN
363	1.000000	0.172302	7.36861e+06	-56789.1	955.818	-29738.4	0.000000	0.000000	6.172786	0.034898	NaN	0.000000	0.001587	0.001700	28.0825	0.039164	0.001937	20.2202	-131.184	12.5563	0.020782	0.170977	-0.921610	-0.922936	0.034898	20.2202	-0.922905	-2.072142E+12	-1.684132E-14	NaN
363	1.000000	0.182300	7.36861e+06	-56789.1	955.818	-29738.4	0.000000	0.000000	6.182783	0.018872	NaN	0.000000	0.001613	0.001716	28.0824	0.051157	0.001979	25.8558	-50.8014	-168.147	-0.033691	0.180991	-0.911613	-0.912922	0.018872	25.8558	-0.912160	-1.483667E+12	-1.272013E-14	NaN
363	1.000000	0.192298	7.36861e+06	-56789.1	955.818	-29738.4	0.000000	0.000000	6.192781	0.016423	NaN	0.000000	0.001622	0.001702	28.0827	0.086070	0.001969	43.707	114.542	10.5336	0.022239	0.190947	-0.901614	-0.902966	0.016423	43.707	-0.901896	-1.078171E+12	-1.523241E-14	NaN
363	1.000000	0.202293	7.36861e+06	-56789.1	955.819	-29738.4	0.000000	0.000000	6.202775	0.001783	NaN	0.000000	0.001585	0.001700	28.0825	0.080611	0.002009	40.1283	-108.836	-168.601	-0.059778	0.200996	-0.891619	-0.892916	0.001783	40.1283	-0.891653	-7.838874E+11	-2.274737E-15	NaN
363	1.000000	0.212336	7.36861e+06	-56789.1	955.819	-29738.4	0.000000	0.000000	6.212821	0.055988	NaN	0.000000	0.001591	0.001686	28.0824	0.051173	0.002111	24.2406	-169.303	12.3336	-0.021244	0.210972	-0.881576	-0.882940	0.055988	24.2406	-0.883308	-6.045669E+11	-9.260825E-14	NaN
363	1.000000	0.222351	7.36861e+06	-56789.1	955.819	-29738.4	0.000000	0.000000	6.222832	-0.017852	NaN	0.000000	0.001607	0.001707	28.0822	0.190436	0.002125	89.6375	137.728	-166.676	0.013899	0.220975	-0.871562	-0.872938	-0.017852	89.6375	-0.871412	-4.173994E+11	4.277014E-14	NaN
363	1.000000	0.232321	7.36861e+06	-56789.1	955.818	-29738.4	0.000000	0.000000	6.232804	0.004988	NaN	0.000000	0.001638	0.001741	28.0826	0.033270	0.002038	16.3241	24.8042	15.9962	0.004758	0.230957	-0.861591	-0.862955	0.004988	16.3241	-0.861820	-3.095678E+11	-1.611286E-14	NaN
363	1.000000	0.242338	7.36861e+06	-56789.1	955.817	-29738.4	0.000000	0.000000	6.242818	-0.045827	NaN	0.000000	0.001637	0.001699	28.0825	0.072572	0.001926	37.6733	157.857	-165.165	-0.007931	0.241009	-0.851575	-0.852903	-0.045827	37.6733	-0.850662	-2.186289E+11	2.096090E-13	NaN
363	1.000000	0.252383	7.36861e+06	-56789.1	955.819	-29738.4	0.000000	0.000000	6.252863	-0.043591	NaN	0.000000	0.001634	0.001702	28.0826	0.070185	0.001996	35.1674	139.499	17.0947	-0.046231	0.250993	-0.841530	-0.842920	-0.043591	35.1674	-0.840600	-1.597423E+11	2.728857E-13	NaN
363	1.000000	0.262383	7.36861e+06	-56789.1	955.818	-29738.4	0.000000	0.000000	6.262865	-0.017193	NaN	0.000000	0.001615	0.001689	28.0825	0.059996	0.002022	29.6693	-42.4247	-162.858	0.019790	0.261080	-0.831529	-0.832832	-0.017193	29.6693	-0.831094	-1.187457E+11	1.447889E-13	NaN
363	1.000000	0.272379	7.36861e+06	-56789.1	955.818	-29738.4	0.000000	0.000000	6.272859	-0.042086	NaN	0.000000	0.001591	0.001708	28.0827	0.088214	0.001924	45.8511	37.8425	16.406	-0.055680	0.270993	-0.821534	-0.822919	-0.042086	45.8511	-0.820845	-8.623268E+10	4.880562E-13	NaN
363	1.000000	0.282357	7.36861e+06	-56789.1	955.818	-29738.4	0.000000	0.000000	6.282836	-0.056517	NaN	0.000000	0.001625	0.001687	28.0826	0.101355	0.001875	54.0581	-111.096	-165.02	-0.064553	0.281037	-0.811556	-0.812875	-0.056517	54.0581	-0.810772	-6.295624E+10	8.977145E-13	NaN
363	1.000000	0.292370	7.36861e+06	-56789.1	955.818	-29738.4	0.000000	0.000000	6.292850	-0.055567	NaN	0.000000	0.001585	0.001720	28.0825	0.059248	0.001997	29.6687	-136.109	12.5993	-0.018576	0.291036	-0.801542	-0.802876	-0.055567	29.6687	-0.800137	-4.515728E+10	1.230512E-12	NaN
363	1.000000	0.302371	7.36861e+06	-56789.1	955.817	-29738.4	0.000000	0.000000	6.302853	-0.001413	NaN	0.000000	0.001630	0.001727	28.0824	0.138157	0.001948	70.9063	-158.229	-166.939	-0.040301	0.301040	-0.791541	-0.792873	-0.001413	70.9063	-0.791526	-3.449959E+10	4.096512E-14	NaN
363	1.000000	0.312370	7.36861e+06	-56789.1	955.819	-29738.4	0.000000	0.000000	6.312850	-0.049991	NaN	0.000000	0.001640	0.001721	28.0811	0.055817	0.002039	27.374	-171.319	14.9205	-0.072071	0.311023	-0.781542	-0.782889	-0.049991	27.374	-0.780172	-2.418654E+10	2.066904E-12	NaN
363	1.000000	0.322393	7.36861e+06	-56789.1	955.819	-29738.4	0.000000	0.000000	6.322874	-0.029321	NaN	0.000000	0.001563	0.001745	28.081	0.026326	0.001899	13.8598	-27.9712	-166.351	-0.021973	0.321106	-0.771519	-0.772807	-0.029321	13.8598	-0.769933	-1.755461E+10	1.670278E-12	NaN
363	1.000000	0.332420	7.36861e+06	-56789.1	955.818	-29738.4	0.000000	0.000000	6.332901	-0.022924	NaN	0.000000	0.001609	0.001730	28.0811	0.124632	0.001936	64.3673	-96.9229	13.7408	0.037195	0.331007	-0.761492	-0.762905	-0.022924	64.3673	-0.761225	-1.336505E+10	1.715185E-12	NaN
363	1.000000	0.342408	7.36861e+06	-56789.1	955.818	-29738.4	0.000000	0.000000	6.342890	-0.013639	NaN	0.000000	0.001604	0.001733	28.0814	0.100253	0.001997	50.1926	-27.2284	-164.228	0.023977	0.341140	-0.751504	-0.752773	-0.013639	50.1926	-0.751300	-9.793078E+9	1.392685E-12	NaN
363	1.000000	0.352396	7.36861e+06	-56789.1	955.818	-29738.4	0.000000	0.000000	6.352877	-0.033925	NaN	0.000000	0.001602	0.001732	28.0811	0.098855	0.001899	52.0505	79.6561	12.9669	-0.052240	0.350995	-0.741516	-0.742917	-0.033925	52.0505	-0.741027	-7.096574E+9	4.780481E-12	NaN
363	1.000000	0.362380	7.36861e+06	-56789.1	955.819	-29738.4	0.000000	0.000000	6.362860	-0.045024	NaN	0.000000	0.001584	0.001700	28.0812	0.056610	0.002028	27.9155	123.66	-167.191	0.017246	0.361115	-0.731533	-0.732797	-0.045024	27.9155	-0.730323	-5.072361E+9	8.876297E-12	NaN
363	1.000000	0.372423	7.36861e+06	-56789.1	955.819	-29738.4	0.000000	0.000000	6.372900	-0.099180	NaN	0.000000	0.001574	0.001738	28.0811	0.066755	0.002024	32.9846	-46.3559	12.7404	0.020536	0.371064	-0.721490	-0.722849	-0.099180	32.9846	-0.719235	-3.581260E+9	2.769411E-11	NaN
363	1.000000	0.382390	7.36861e+06	-56789.1	955.819	-29738.4	0.000000	0.000000	6.382870	-0.048007	NaN	0.000000	0.001569	0.001721	28.0812	0.024423	0.001927	12.6722	177.243	-167.632	0.023289	0.381075	-0.711522	-0.712838	-0.048007	12.6722	-0.708681	-2.570669E+9	1.867504E-11	NaN
363	1.000000	0.392402	7.36861e+06	-56789.1	955.818	-29738.4	0.000000	0.000000	6.392883	-0.022224	NaN	0.000000	0.001612	0.001744	28.081	0.100314	0.002043	49.0905	152.774	14.1548	0.070418	0.391029	-0.701510	-0.702883	-0.022224	49.0905	-0.701171	-2.030120E+9	1.094700E-11	NaN
363	1.000000	0.402433	7.36861e+06	-56789.1	955.819	-29738.4	0.000000	0.000000	6.402915	0.001816	NaN	0.000000	0.001570	0.001740	28.0809	0.098653	0.001907	51.7358	-22.5054	-164.488	0.009535	0.401078	-0.691480	-0.692834	0.001816	51.7358	-0.691506	-1.497961E+9	-1.212556E-12	NaN
363	1.000000	0.412447	7.36861e+06	-56789.1	955.819	-29738.4	0.000000	0.000000	6.412927	-0.036430	NaN	0.000000	0.001596	0.001753	28.0809	0.082715	0.001990	41.5722	118.642	14.5726	-0.060066	0.411028	-0.681466	-0.682885	-0.036430	41.5722	-0.680809	-1.069704E+9	3.405604E-11	NaN
363	1.000000	0.422409	7.36861e+06	-56789.1	955.819	-29738.4	0.000000	0.000000	6.422889	-0.061039	NaN	0.000000	0.001578	0.001749	28.081	0.052513	0.002020	25.9939	-42.6436	-165.445	0.018052	0.421127	-0.671503	-0.672786	-0.061039	25.9939	-0.669742	-7.548443E+8	8.086241E-11	NaN
363	1.000000	0.432412	7.36861e+06	-56789.1	955.818	-29738.4	0.000000	0.000000	6.432893	-0.031713	NaN	0.000000	0.001601	0.001718	28.0809	0.089214	0.001865	47.8432	-7.988277	16.2699	-0.029493	0.431075	-0.661500	-0.662837	-0.031713	47.8432	-0.661003	-5.730659E+8	5.533941E-11	NaN
363	1.000000	0.442439	7.36861e+06	-56789.1	955.818	-29738.4	0.000000	0.000000	6.442918	-0.072510	NaN	0.000000	0.001600	0.001687	28.0822	0.092381	0.002050	45.0598	88.9724	-165.294	-0.069560	0.441101	-0.651474	-0.652812	-0.072510	45.0598	-0.650267	-4.084055E+8	1.775442E-10	NaN
363	1.000000	0.452411	7.36861e+06	-56789.1	955.818	-29738.4	0.000000	0.000000	6.452891	-0.050393	NaN	0.000000	0.001643	0.001714	28.0822	0.022322	0.001981	11.2693	-47.2202	13.3443	-0.069915	0.451112	-0.641502	-0.642800	-0.050393	11.2693	-0.638148	-2.785322E+8	1.809229E-10	NaN
363	1.000000	0.462446	7.36861e+06	-56789.1	955.818	-29738.4	0.000000	0.000000	6.462926	-0.037726	NaN	0.000000	0.001582	0.001725	28.0823	0.095997	0.001953	49.16	101.919	-166.046	-0.071294	0.461127	-0.631467	-0.632785	-0.037726	49.16	-0.630891	-2.214426E+8	1.703657E-10	NaN
363	1.000000	0.472437	7.36861e+06	-56789.1	955.818	-29738.4	0.000000	0.000000	6.472918	-0.026806	NaN	0.000000	0.001645	0.001693	28.0822	0.126294	0.001888	66.8862	-38.4574	15.9	-0.057783	0.471096	-0.621475	-0.622816	-0.026806	66.8862	-0.621175	-1.628463E+8	1.646116E-10	NaN
363	1.000000	0.482452	7.36861e+06	-56789.1	955.818	-29738.4	0.000000	0.000000	6.482935	0.013455	NaN	0.000000	0.001613	0.001696	28.0822	0.048124	0.001989	24.1998	150.471	-162.353	0.055997	0.481212	-0.611460	-0.612700	0.013455	24.1998	-0.611877	-1.213217E+8	-1.109063E-10	NaN
363	1.000000	0.492431	7.36861e+06	-56789.1	955.819	-29738.4	0.000000	0.000000	6.492914	0.015497	NaN	0.000000	0.001620	0.001701	28.0822	0.054706	0.002073	26.3846	64.2416	12.7421	0.009460	0.491097	-0.601481	-0.602815	0.015497	26.3846	-0.601922	-8.849677E+7	-1.751085E-10	NaN
363	1.000000	0.502457	7.36861e+06	-56789.1	955.819	-29738.4	0.000000	0.000000	6.502941	0.036050	NaN	0.000000	0.001648	0.001731	28.0822	0.125131	0.002015	62.0899	138.248	-164.813	0.096999	0.501109	-0.591455	-0.592803	0.036050	62.0899	-0.591891	-6.437672E+7	-5.599848E-10	NaN
363	1.000000	0.512450	7.36861e+06	-56789.1	955.818	-29738.4	0.000000	0.000000	6.512934	0.028031	NaN	0.000000	0.001614	0.001703	28.0819	0.076044	0.001894	40.1416	-141.707	12.5951	0.051094	0.511128	-0.581462	-0.582784	0.028031	40.1416	-0.581986	-4.700327E+7	-5.963651E-10	NaN
363	1.000000	0.522456	7.36861e+06	-56789.1	955.817	-29738.4	0.000000	0.000000	6.522940	0.062730	NaN	0.000000	0.001634	0.001718	28.082	0.056571	0.002059	27.474	5.435754	-167.31	0.084177	0.521149	-0.571457	-0.572763	0.062730	27.474	-0.573169	-3.551495E+7	-1.766293E-9	NaN
363	1.000000	0.532467	7.36862e+06	-56789.1	955.818	-29738.4	0.000000	0.000000	6.532948	-0.018115	NaN	0.000000	0.001612	0.001719	28.0821	0.052949	0.002126	24.9083	11.7613	16.5635	0.032960	0.531068	-0.561446	-0.562845	-0.018115	24.9083	-0.560900	-2.403432E+7	7.536989E-10	NaN
363	1.000000	0.542493	7.36862e+06	-56789.1	955.818	-29738.4	0.000000	0.000000	6.542974	-0.025764	NaN	0.000000	0.001610	0.001711	28.0821	0.017034	0.001985	8.581504	0.913132	-166.206	0.024358	0.541169	-0.551420	-0.552743	-0.025764	8.581504	-0.549168	-1.653601E+7	1.558070E-9	NaN
363	1.000000	0.552505	7.36862e+06	-56789.1	955.818	-29738.4	0.000000	0.000000	6.552984	-0.072372	NaN	0.000000	0.001612	0.001739	28.0822	0.142465	0.001966	72.4597	170.078	11.8408	-0.029150	0.551150	-0.541407	-0.542762	-0.072372	72.4597	-0.540658	-1.260340E+7	5.742291E-9	NaN
363	1.000000	0.562513	7.36862e+06	-56789.1	955.819	-29738.4	0.000000	0.000000	6.562991	-0.104342	NaN	0.000000	0.001618	0.001717	28.082	0.051473	0.001975	26.0573	46.1536	-168.776	-0.056326	0.561229	-0.531399	-0.532684	-0.104342	26.0573	-0.528396	-8.51719e+06	1.225078E-8	NaN
363	1.000000	0.572485	7.36862e+06	-56789.1	955.818	-29738.4	0.000000	0.000000	6.572965	-0.045871	NaN	0.000000	0.001586	0.001680	28.0824	0.175034	0.002044	85.6247	172.444	14.6874	-0.033419	0.571120	-0.521427	-0.522793	-0.045871	85.6247	-0.521025	-6.72754e+06	6.818409E-9	NaN
363	1.000000	0.582521	7.36862e+06	-56789.1	955.817	-29738.4	0.000000	0.000000	6.583004	0.025351	NaN	0.000000	0.001579	0.001737	28.0808	0.034960	0.002003	17.45	29.8744	-167.298	0.027920	0.581173	-0.511392	-0.512739	0.025351	17.45	-0.512481	-5.1165e+06	-4.954854E-9	NaN
363	1.000000	0.592484	7.36862e+06	-56789.1	955.818	-29738.4	0.000000	0.000000	6.592965	-0.033936	NaN	0.000000	0.001538	0.001740	28.0809	0.111372	0.001822	61.1344	-113.834	14.2642	-0.085074	0.591116	-0.501428	-0.502797	-0.033936	61.1344	-0.501012	-3.54106e+06	9.583503E-9	NaN
363	1.000000	0.602513	7.36862e+06	-56789.1	955.819	-29738.4	0.000000	0.000000	6.602993	-0.038659	NaN	0.000000	0.001615	0.001775	28.0809	0.031890	0.002102	15.1711	-58.0413	-165.243	0.007047	0.601161	-0.491399	-0.492752	-0.038659	15.1711	-0.489488	-2.4448e+06	1.581264E-8	NaN
363	1.000000	0.612516	7.36862e+06	-56789.1	955.819	-29738.4	0.000000	0.000000	6.612999	0.018107	NaN	0.000000	0.001645	0.001721	28.0812	0.042381	0.002027	20.9045	41.6618	12.0991	0.061329	0.611129	-0.481396	-0.482783	0.018107	20.9045	-0.482046	-1.92381e+06	-9.411943E-9	NaN
363	1.000000	0.622515	7.36862e+06	-56789.1	955.818	-29738.4	0.000000	0.000000	6.622999	0.038356	NaN	0.000000	0.001612	0.001741	28.0809	0.054081	0.001901	28.4535	-30.7446	-165.084	0.035020	0.621253	-0.471397	-0.472659	0.038356	28.4535	-0.472408	-1.40986e+06	-2.720548E-8	NaN
363	1.000000	0.632549	7.36862e+06	-56789.1	955.818	-29738.4	0.000000	0.000000	6.633030	-0.029800	NaN	0.000000	0.001625	0.001677	28.0809	0.103851	0.001950	53.2698	-156.411	14.9761	0.013331	0.631123	-0.461363	-0.462790	-0.029800	53.2698	-0.460944	-973377	3.061487E-8	NaN
363	1.000000	0.642546	7.36862e+06	-56789.1	955.817	-29738.4	0.000000	0.000000	6.643030	0.028981	NaN	0.000000	0.001622	0.001728	28.0812	0.062906	0.001912	32.9017	121.76	-166.414	-0.020315	0.641217	-0.451366	-0.452695	0.028981	32.9017	-0.452026	-729246	-3.974087E-8	NaN
363	1.000000	0.652522	7.36862e+06	-56789.1	955.819	-29738.4	0.000000	0.000000	6.653005	0.016755	NaN	0.000000	0.001605	0.001732	28.0807	0.041895	0.001915	21.8825	-42.8357	13.6861	0.030751	0.651170	-0.441390	-0.442742	0.016755	21.8825	-0.441964	-526114	-3.184719E-8	NaN
363	1.000000	0.662525	7.36862e+06	-56789.1	955.819	-29738.4	0.000000	0.000000	6.663007	0.000565	NaN	0.000000	0.001622	0.001753	28.0807	0.046072	0.002058	22.3908	54.0529	-165.966	-0.011151	0.661225	-0.431388	-0.432687	0.000565	22.3908	-0.431407	-373213	-1.514940E-9	NaN
363	1.000000	0.672556	7.36862e+06	-56789.1	955.819	-29738.4	0.000000	0.000000	6.673037	-0.015013	NaN	0.000000	0.001617	0.001702	28.0808	0.012086	0.001888	6.400791	-110.014	11.6439	0.034366	0.671162	-0.421357	-0.422751	-0.015013	6.400791	-0.419598	-253927	5.912163E-8	NaN
363	1.000000	0.682548	7.36862e+06	-56789.1	955.819	-29738.4	0.000000	0.000000	6.683029	-0.021988	NaN	0.000000	0.001625	0.001711	28.0811	0.093008	0.002047	45.4456	-125.584	-167.537	-0.056472	0.681196	-0.411365	-0.412716	-0.021988	45.4456	-0.411002	-191711	1.146912E-7	NaN
363	1.000000	0.692517	7.36862e+06	-56789.1	955.819	-29738.4	0.000000	0.000000	6.692999	0.006978	NaN	0.000000	0.001641	0.001762	28.0807	0.022223	0.002123	10.4696	163.358	13.2482	-0.020760	0.691219	-0.401395	-0.402694	0.006978	10.4696	-0.401895	-142238	-4.905801E-8	NaN
363	1.000000	0.702555	7.36862e+06	-56789.1	955.818	-29738.4	0.000000	0.000000	6.703037	-0.006708	NaN	0.000000	0.001639	0.001772	28.081	0.084230	0.002025	41.5852	26.1704	-167.017	-0.031963	0.701222	-0.391358	-0.392690	-0.006708	41.5852	-0.391237	-100196	6.694954E-8	NaN
363	1.000000	0.712553	7.36862e+06	-56789.1	955.818	-29738.4	0.000000	0.000000	6.713036	0.031342	NaN	0.000000	0.001666	0.001716	28.0809	0.041989	0.001903	22.0601	165.919	12.8017	-0.023375	0.711167	-0.381359	-0.382745	0.031342	22.0601	-0.382425	-74933.6	-4.182702E-7	NaN
363	1.000000	0.722536	7.36862e+06	-56789.1	955.819	-29738.4	0.000000	0.000000	6.723015	-0.051759	NaN	0.000000	0.001651	0.001722	28.0822	0.047682	0.002007	23.7545	94.0931	-163.941	-0.062146	0.721267	-0.371377	-0.372645	-0.051759	23.7545	-0.369743	-49251.6	1.050914E-6	NaN
363	1.000000	0.732545	7.36862e+06	-56789.1	955.818	-29738.4	0.000000	0.000000	6.733028	0.038248	NaN	0.000000	0.001674	0.001721	28.0821	0.021472	0.002084	10.3045	88.9527	11.2908	-0.037193	0.731147	-0.361368	-0.362765	0.038248	10.3045	-0.364151	-40908	-9.349703E-7	NaN
363	1.000000	0.742559	7.36862e+06	-56789.1	955.819	-29738.4	0.000000	0.000000	6.743041	0.001906	NaN	0.000000	0.001708	0.001726	28.0821	0.129050	0.001944	66.3864	113.186	-167.624	0.079609	0.741285	-0.351353	-0.352627	0.001906	66.3864	-0.351375	-26727.1	-7.131740E-8	NaN
363	1.000000	0.752557	7.36862e+06	-56789.1	955.819	-29738.4	0.000000	0.000000	6.753039	-0.013520	NaN	0.000000	0.001679	0.001728	28.0822	0.080826	0.001931	41.867	102.524	13.3574	0.047274	0.751244	-0.341355	-0.342668	-0.013520	41.867	-0.341113	-18957.2	7.131853E-7	NaN
363	1.000000	0.762569	7.36862e+06	-56789.1	955.819	-29738.4	0.000000	0.000000	6.763047	-0.101659	NaN	0.000000	0.001711	0.001731	28.0823	0.044796	0.002110	21.232	91.868	-168.008	-0.112201	0.761271	-0.331343	-0.332641	-0.101659	21.232	-0.327752	-12092.4	8.406813E-6	NaN
363	1.000000	0.772576	7.36862e+06	-56789.1	955.818	-29738.4	0.000000	0.000000	6.773057	-0.018211	NaN	0.000000	0.001689	0.001728	28.0821	0.131234	0.001916	68.5034	5.994187	10.5431	-0.069818	0.771193	-0.321337	-0.322719	-0.018211	68.5034	-0.321137	-9668.8	1.883432E-6	NaN
363	1.000000	0.782590	7.36862e+06	-56789.1	955.818	-29738.4	0.000000	0.000000	6.783069	-0.089717	NaN	0.000000	0.001715	0.001732	28.0822	0.099253	0.002023	49.0636	166.855	-165.547	-0.015468	0.781277	-0.311322	-0.312635	-0.089717	49.0636	-0.309950	-6611.84	1.356922E-5	NaN
363	1.000000	0.792582	7.36862e+06	-56789.1	955.818	-29738.4	0.000000	0.000000	6.793063	-0.020586	NaN	0.000000	0.001695	0.001740	28.0823	0.066137	0.002104	31.4358	-69.6722	13.993	0.041802	0.791260	-0.301331	-0.302653	-0.020586	31.4358	-0.300840	-4843.18	4.250493E-6	NaN
363	1.000000	0.802576	7.36862e+06	-56789.1	955.818	-29738.4	0.000000	0.000000	6.803053	-0.112198	NaN	0.000000	0.001717	0.001756	28.082	0.099645	0.001937	51.4406	-66.4866	-163.677	-0.049944	0.801235	-0.291337	-0.292677	-0.112198	51.4406	-0.289701	-3302.33	3.397556E-5	NaN
363	1.000000	0.812594	7.36862e+06	-56789.1	955.818	-29738.4	0.000000	0.000000	6.813075	-0.028551	NaN	0.000000	0.001714	0.001793	28.0821	0.037917	0.001920	19.748	100.163	12.249	-0.044710	0.811275	-0.281318	-0.282638	-0.028551	19.748	-0.280234	-2379.57	1.199849E-5	NaN
363	1.000000	0.822622	7.36862e+06	-56789.1	955.818	-29738.4	0.000000	0.000000	6.823101	-0.074864	NaN	0.000000	0.001698	0.001739	28.0821	0.112919	0.001849	61.0735	112.606	-165.939	-0.005957	0.821324	-0.271291	-0.272589	-0.074864	61.0735	-0.270371	-1687.28	4.436952E-5	NaN
363	1.000000	0.832590	7.36862e+06	-56789.1	955.818	-29738.4	0.000000	0.000000	6.833071	-0.016541	NaN	0.000000	0.001710	0.001730	28.0823	0.068804	0.002039	33.7365	98.2177	15.2267	-0.013998	0.831225	-0.261323	-0.262688	-0.016541	33.7365	-0.260955	-1212.13	1.364599E-5	NaN
363	1.000000	0.842619	7.36862e+06	-56789.1	955.818	-29738.4	0.000000	0.000000	6.843096	-0.113962	NaN	0.000000	0.001686	0.001695	28.0821	0.098303	0.001991	49.3794	157.621	-165.246	-0.036479	0.841281	-0.251294	-0.252632	-0.113962	49.3794	-0.249563	-809.472	0.000141	NaN
363	1.000000	0.852573	7.36862e+06	-56789.1	955.818	-29738.4	0.000000	0.000000	6.853054	-0.016179	NaN	0.000000	0.001706	0.001720	28.0807	0.096287	0.001890	50.9506	-30.9392	11.8702	-0.084990	0.851214	-0.241340	-0.242698	-0.016179	50.9506	-0.241101	-598.062	2.705257E-5	NaN
363	1.000000	0.862609	7.36862e+06	-56789.1	955.818	-29738.4	0.000000	0.000000	6.863089	-0.060737	NaN	0.000000	0.001710	0.001704	28.0813	0.120417	0.001964	61.3201	-77.417	-167.41	0.009926	0.861284	-0.231303	-0.232628	-0.060737	61.3201	-0.230560	-408.657	0.000149	NaN
363	1.000000	0.872605	7.36862e+06	-56789.1	955.819	-29738.4	0.000000	0.000000	6.873088	0.035998	NaN	0.000000	0.001691	0.001662	28.0807	0.027058	0.001942	13.9295	-143.664	13.1464	0.006726	0.871233	-0.221308	-0.222679	0.035998	13.9295	-0.223246	-312.929	-0.000115	NaN
363	1.000000	0.882605	7.36862e+06	-56789.1	955.818	-29738.4	0.000000	0.000000	6.883085	-0.040871	NaN	0.000000	0.001651	0.001725	28.0809	0.049165	0.001992	24.6768	78.7333	-166.48	-0.045473	0.881334	-0.211308	-0.212578	-0.040871	24.6768	-0.210066	-192.257	0.000213	NaN
363	1.000000	0.892639	7.36862e+06	-56789.1	955.818	-29738.4	0.000000	0.000000	6.893120	-0.010958	NaN	0.000000	0.001660	0.001738	28.0807	0.066052	0.001930	34.2288	46.2929	11.0451	0.006217	0.891270	-0.201274	-0.202642	-0.010958	34.2288	-0.201033	-136.984	7.999551E-5	NaN
363	1.000000	0.902633	7.36862e+06	-56789.1	955.817	-29738.4	0.000000	0.000000	6.903113	-0.039642	NaN	0.000000	0.001630	0.001734	28.0808	0.117903	0.002000	58.9503	-2.103624	-163.887	-0.073543	0.901323	-0.191279	-0.192589	-0.039642	58.9503	-0.190775	-92.6754	0.000428	NaN
363	1.000000	0.912622	7.36862e+06	-56789.1	955.818	-29738.4	0.000000	0.000000	6.913101	-0.074379	NaN	0.000000	0.001590	0.001673	28.0807	0.012096	0.002074	5.831736	109.038	14.1984	0.001906	0.911290	-0.181291	-0.182622	-0.074379	5.831736	-0.171725	-44.0061	0.001690	NaN
363	1.000000	0.922630	7.36862e+06	-56789.1	955.818	-29738.4	0.000000	0.000000	6.923111	-0.028045	NaN	0.000000	0.001575	0.001706	28.0807	0.111039	0.002052	54.1131	64.2989	-164.286	-0.074512	0.921304	-0.171282	-0.172608	-0.028045	54.1131	-0.170894	-42.5715	0.000659	NaN
363	1.000000	0.932662	7.36862e+06	-56789.1	955.819	-29738.4	0.000000	0.000000	6.933143	-0.026357	NaN	0.000000	0.001618	0.001716	28.0809	0.032799	0.001929	17.0003	-38.0594	15.498	0.010100	0.931293	-0.161250	-0.162619	-0.026357	17.0003	-0.160088	-27.5134	0.000958	NaN
363	1.000000	0.942653	7.36862e+06	-56789.1	955.817	-29738.4	0.000000	0.000000	6.943133	-0.033858	NaN	0.000000	0.001559	0.001716	28.081	0.023404	0.001996	11.7233	138.344	-166.035	-0.004465	0.941337	-0.151260	-0.152576	-0.033858	11.7233	-0.149094	-17.4363	0.001942	NaN
363	1.000000	0.952647	7.36862e+06	-56789.1	955.819	-29738.4	0.000000	0.000000	6.953124	-0.128289	NaN	0.000000	0.001611	0.001710	28.0808	0.015650	0.001892	8.270437	-59.0711	17.1095	-0.131363	0.951280	-0.141265	-0.142633	-0.128289	8.270437	-0.129631	-7.496213	0.017114	NaN
363	1.000000	0.962671	7.36862e+06	-56789.1	955.818	-29738.4	0.000000	0.000000	6.963152	-0.045097	NaN	0.000000	0.001570	0.001696	28.0808	0.083935	0.001914	43.8641	78.4758	-164.447	-0.035912	0.961292	-0.131241	-0.132620	-0.045097	43.8641	-0.130470	-7.782708	0.005795	NaN
363	1.000000	0.972619	7.36862e+06	-56789.1	955.818	-29738.4	0.000000	0.000000	6.973099	-0.065114	NaN	0.000000	0.001587	0.001734	28.0808	0.037721	0.002059	18.3186	99.9232	14.4949	-0.091961	0.971303	-0.121293	-0.122609	-0.065114	18.3186	-0.118627	-4.532036	0.014368	NaN
363	1.000000	0.982653	7.36862e+06	-56789.1	955.817	-29738.4	0.000000	0.000000	6.983137	0.050266	NaN	0.000000	0.001609	0.001726	28.0809	0.077253	0.002006	38.5073	89.7935	-164.098	0.009017	0.981390	-0.111259	-0.112522	0.050266	38.5073	-0.112238	-3.348292	-0.015013	NaN
363	1.000000	0.992676	7.36862e+06	-56789.1	955.817	-29738.4	0.000000	0.000000	6.993156	-0.026314	NaN	0.000000	0.001584	0.001694	28.0821	0.142716	0.002071	68.9051	-122.544	19.1544	-0.001347	0.991372	-0.101237	-0.102540	-0.026314	68.9051	-0.100950	-1.917729	0.013721	NaN
363	1.000000	1.002660	7.36862e+06	-56789.1	955.818	-29738.4	0.000000	0.000000	7.003143	0.016569	NaN	0.000000	0.001583	0.001705	28.082	0.068342	0.001988	34.3821	155.115	-164.197	0.029512	1.001368	-0.091252	-0.092544	0.016569	34.3821	-0.091614	-1.178952	-0.014054	NaN
363	1.000000	1.012673	7.36862e+06	-56789.1	955.818	-29738.4	0.000000	0.000000	7.013155	0.009568	NaN	0.000000	0.001561	0.001728	28.0824	0.112376	0.002008	55.9548	106.673	17.0502	0.010349	1.011281	-0.081240	-0.082632	0.009568	55.9548	-0.081368	-0.669477	-0.014292	NaN
363	1.000000	1.022695	7.36862e+06	-56789.1	955.818	-29738.4	0.000000	0.000000	7.023174	-0.075715	NaN	0.000000	0.001502	0.001723	28.0821	0.043091	0.002036	21.1674	89.0195	-166.623	-0.085376	1.021366	-0.071217	-0.072547	-0.075715	21.1674	-0.068534	-0.311479	0.243082	NaN
363	1.000000	1.032680	7.36862e+06	-56789.1	955.819	-29738.4	0.000000	0.000000	7.033160	-0.059075	NaN	0.000000	0.001515	0.001704	28.0822	0.040551	0.001897	21.3787	-108.145	13.0704	-0.059744	1.031310	-0.061232	-0.062602	-0.059075	21.3787	-0.059160	-0.170344	0.346799	NaN
363	1.000000	1.042669	7.36862e+06	-56789.1	955.817	-29738.4	0.000000	0.000000	7.043148	-0.069715	NaN	0.000000	0.001546	0.001715	28.0821	0.100524	0.001827	55.0213	156.46	-162.054	-0.042079	1.041390	-0.051243	-0.052522	-0.069715	55.0213	-0.050293	-0.093131	0.748575	NaN
363	1.000000	1.052714	7.36862e+06	-56789.1	955.818	-29738.4	0.000000	0.000000	7.053196	0.005814	NaN	0.000000	0.001581	0.001722	28.0822	0.082913	0.002101	39.462	21.2806	13.4675	0.010154	1.051302	-0.041199	-0.042610	0.005814	39.462	-0.041309	-0.049567	-0.117288	NaN
363	1.000000	1.062677	7.36862e+06	-56789.1	955.817	-29738.4	0.000000	0.000000	7.063157	-0.059068	NaN	0.000000	0.001532	0.001712	28.0819	0.125676	0.002154	58.3327	168.591	-166.174	-0.012699	1.061361	-0.031235	-0.032552	-0.059068	58.3327	-0.030475	-0.023728	2.489368	NaN
363	1.000000	1.072695	7.36862e+06	-56789.1	955.818	-29738.4	0.000000	0.000000	7.073175	-0.067550	NaN	0.000000	0.001577	0.001717	28.0823	0.057488	0.002101	27.3588	-11.4065	10.9546	-0.031962	1.071306	-0.021217	-0.022607	-0.067550	27.3588	-0.019365	-0.012102	5.581843	NaN
363	1.000000	1.082718	7.36862e+06	-56789.1	955.816	-29738.4	0.000000	0.000000	7.083199	-0.022979	NaN	0.000000	0.001584	0.001707	28.0819	0.140741	0.001957	71.9233	-94.1929	-165.248	-0.011169	1.081343	-0.011194	-0.012569	-0.022979	71.9233	-0.010955	-0.006932	3.314710	NaN
363	1.000000	1.092681	7.36862e+06	-56789.1	955.818	-29738.4	0.000000	0.000000	7.093183	0.491163	NaN	0.000000	0.001568	0.001707	28.0823	0.822258	0.002012	408.654	18.2724	10.5795	0.201492	1.091289	-0.001232	-0.002624	0.491163	408.654	-0.002133	-0.001531	-320.746	NaN
363	2.000000	1.102120	7.36862e+06	-56789.1	955.817	-29738.4	0.000000	0.000000	7.103024	10.2668	NaN	0.000000	0.001545	0.001722	28.082	7.372703	0.001646	4480.29	2.184547	-168.141	8.922725	1.101317	0.008207	0.007404	10.2668	4480.29	0.006489	0.005533	1855.41	55027.9
363	2.000000	1.104759	7.36862e+06	-56789.1	955.818	-29738.4	0.000000	0.000000	7.105739	12.0958	NaN	0.000000	0.001563	0.001693	28.0828	10.1922	0.001733	5881.13	8.409403	3.991214	10.7902	1.104440	0.010847	0.010527	12.0958	5881.13	0.009304	0.008418	1436.84	58562.5
363	2.000000	1.107263	7.36862e+06	-56789.1	955.818	-29738.4	0.000000	0.000000	7.108356	14.8594	NaN	0.000000	0.001576	0.001702	28.082	12.2859	0.001847	6650.48	3.704244	-171.299	15.0406	1.106945	0.013350	0.013032	14.8594	6650.48	0.011674	0.011102	1338.39	57665.7
363	2.000000	1.109765	7.36862e+06	-56789.1	955.818	-29738.4	0.000000	0.000000	7.111018	18.7454	NaN	0.000000	0.001640	0.001678	28.0809	14.5722	0.001802	8085.85	9.171170	3.080894	19.1333	1.109358	0.015853	0.015445	18.7454	8085.85	0.014114	0.014122	1327.41	62166.2
363	2.000000	1.112229	7.36862e+06	-56789.1	955.818	-29738.4	0.000000	0.000000	7.113496	19.0928	NaN	0.000000	0.001673	0.001717	28.0809	15.947	0.001816	8781.29	6.155659	-175.777	18.9845	1.111979	0.018316	0.018067	19.0928	8781.29	0.016686	0.017599	1084.86	60475.9
363	2.000000	1.114731	7.36862e+06	-56789.1	955.817	-29738.4	0.000000	0.000000	7.116199	23.9783	NaN	0.000000	0.001625	0.001718	28.0811	18.79	0.001876	10018.2	9.151219	0.489253	23.2966	1.114373	0.020818	0.020461	23.9783	10018.2	0.019023	0.021031	1140.16	63115.4
363	2.000000	1.117247	7.36862e+06	-56789.1	955.817	-29738.4	0.000000	0.000000	7.119019	31.356	NaN	0.000000	0.001664	0.001699	28.0811	21.3047	0.001749	12182.8	11.1207	175.908	32.3056	1.116952	0.023334	0.023040	31.356	12182.8	0.021404	0.024797	1264.52	70684.5
363	2.000000	1.119730	7.36862e+06	-56789.1	955.818	-29738.4	0.000000	0.000000	7.121625	34.3644	NaN	0.000000	0.001655	0.001746	28.0811	22.4279	0.001726	12997.8	2.643918	3.384272	32.8113	1.119416	0.025817	0.025504	34.3644	12997.8	0.023834	0.028929	1187.88	69819
363	2.000000	1.122252	7.36862e+06	-56789.1	955.819	-29738.4	0.000000	0.000000	7.124290	37.8134	NaN	0.000000	0.001697	0.001722	28.0808	24.6331	0.001835	13425.1	4.149272	-176.135	40.2076	1.121839	0.028340	0.027927	37.8134	13425.1	0.026227	0.033286	1136	67229.4
363	2.000000	1.124683	7.36862e+06	-56789.1	955.818	-29738.4	0.000000	0.000000	7.127075	46.441	NaN	0.000000	0.001693	0.001733	28.0819	27.1866	0.001686	16123	6.011790	-0.700727	45.5879	1.124309	0.030770	0.030397	46.441	16123	0.028610	0.037912	1224.98	75654
363	2.000000	1.127169	7.36862e+06	-56789.1	955.818	-29738.4	0.000000	0.000000	7.129696	49.6958	NaN	0.000000	0.001661	0.001712	28.081	30.5471	0.001783	17130	4.111376	179.895	47.5988	1.126876	0.033257	0.032963	49.6958	17130	0.031081	0.043015	1155.32	75460.8
363	2.000000	1.129659	7.36862e+06	-56789.1	955.818	-29738.4	0.000000	0.000000	7.132462	56.4079	NaN	0.000000	0.001786	0.001710	28.0823	32.5362	0.001829	17789.8	3.718507	1.008408	53.5189	1.129386	0.035747	0.035474	56.4079	17789.8	0.033368	0.048015	1174.79	74174.7
363	2.000000	1.132160	7.36862e+06	-56789.1	955.817	-29738.4	0.000000	0.000000	7.135294	64.4526	NaN	0.000000	0.001789	0.001691	28.081	34.7957	0.001772	19641.5	7.379130	175.878	62.8115	1.131883	0.038248	0.037971	64.4526	19641.5	0.035786	0.053593	1202.63	77516.5
363	2.000000	1.134654	7.36862e+06	-56789.1	955.818	-29738.4	0.000000	0.000000	7.138062	71.1061	NaN	0.000000	0.001759	0.001698	28.0813	36.4287	0.001808	20147.6	4.839051	-1.546859	69.4975	1.134327	0.040742	0.040414	71.1061	20147.6	0.038095	0.059198	1201.15	75655.6
363	2.000000	1.137181	7.36862e+06	-56789.1	955.818	-29738.4	0.000000	0.000000	7.140944	79.7469	NaN	0.000000	0.001753	0.001715	28.0811	39.7852	0.001932	20597	9.936296	174.308	79.5319	1.136826	0.043269	0.042914	79.7469	20597	0.040365	0.064975	1227.36	73825.5
363	2.000000	1.139660	7.36862e+06	-56789.1	955.818	-29738.4	0.000000	0.000000	7.143831	89.6573	NaN	0.000000	0.001780	0.001708	28.0811	40.5647	0.001801	22527.5	7.337711	-4.177483	87.4327	1.139285	0.045748	0.045373	89.6573	22527.5	0.042763	0.071363	1256.35	77045.7
363	2.000000	1.142158	7.36862e+06	-56789.1	955.817	-29738.4	0.000000	0.000000	7.146658	97.6548	NaN	0.000000	0.001717	0.001724	28.0822	43.1963	0.001887	22897.5	4.507327	177.779	96.1562	1.141858	0.048246	0.047946	97.6548	22897.5	0.045047	0.077721	1256.49	75040.2
363	2.000000	1.144687	7.36862e+06	-56789.1	955.819	-29738.4	0.000000	0.000000	7.149358	101.836	NaN	0.000000	0.001741	0.001721	28.0828	44.6581	0.001732	25778.2	2.662882	-1.304508	102.056	1.144467	0.050774	0.050554	101.836	25778.2	0.047811	0.085769	1187.34	80419.4
363	2.000000	1.147187	7.36862e+06	-56789.1	955.818	-29738.4	0.000000	0.000000	7.152426	115.625	NaN	0.000000	0.001757	0.001708	28.0825	48.1584	0.001827	26362.1	4.946401	176.232	117.837	1.146877	0.053275	0.052964	115.625	26362.1	0.049985	0.092368	1251.78	79248.7
363	2.000000	1.149644	7.36862e+06	-56789.1	955.817	-29738.4	0.000000	0.000000	7.155255	124.66	NaN	0.000000	0.001721	0.001676	28.0824	49.8282	0.001854	26873.8	6.862282	-5.427265	122.361	1.149308	0.055732	0.055396	124.66	26873.8	0.052253	0.099504	1252.81	77836.1
363	2.000000	1.152144	7.36862e+06	-56789.1	955.817	-29738.4	0.000000	0.000000	7.158148	134.233	NaN	0.000000	0.001750	0.001687	28.0824	50.9814	0.001744	29225	1.317976	179.152	132.872	1.151817	0.058231	0.057904	134.233	29225	0.054786	0.107780	1245.43	81331.5
363	2.000000	1.154635	7.36862e+06	-56789.1	955.817	-29738.4	0.000000	0.000000	7.161253	149.158	NaN	0.000000	0.001755	0.001697	28.0826	53.1412	0.001767	30072.9	2.269512	-2.236675	146.839	1.154254	0.060722	0.060342	149.158	30072.9	0.057003	0.115280	1293.88	80923
363	2.000000	1.157201	7.36862e+06	-56789.1	955.818	-29738.4	0.000000	0.000000	7.164112	156.265	NaN	0.000000	0.001777	0.001706	28.0823	56.4948	0.001807	31263.6	3.818949	176.133	159.134	1.156912	0.063288	0.062999	156.265	31263.6	0.059539	0.124162	1258.56	81062.2
363	2.000000	1.159607	7.36862e+06	-56789.1	955.816	-29738.4	0.000000	0.000000	7.167378	177.157	NaN	0.000000	0.001705	0.001703	28.0823	57.3264	0.001702	33684.2	5.477118	-6.107962	173.155	1.159191	0.065695	0.065279	177.157	33684.2	0.061750	0.132160	1340.47	84654.3
363	2.000000	1.162089	7.36862e+06	-56789.1	955.816	-29738.4	0.000000	0.000000	7.170245	186.508	NaN	0.000000	0.001677	0.001703	28.0824	59.687	0.001677	35600.6	4.667665	173.619	183.431	1.161813	0.068177	0.067900	186.508	35600.6	0.064248	0.141479	1318.27	86473.9
363	2.000000	1.164576	7.36862e+06	-56789.1	955.817	-29738.4	0.000000	0.000000	7.173224	198.471	NaN	0.000000	0.001690	0.001727	28.0826	63.7587	0.001831	34826.2	7.120978	-8.046265	193.577	1.164256	0.070664	0.070344	198.471	34826.2	0.066390	0.149712	1325.68	82233.9
363	2.000000	1.167118	7.36862e+06	-56789.1	955.817	-29738.4	0.000000	0.000000	7.176200	209.014	NaN	0.000000	0.001682	0.001726	28.0823	65.3816	0.001848	35374.8	0.045294	178.752	207.936	1.166946	0.073206	0.073034	209.014	35374.8	0.068775	0.159139	1313.4	81017.6
363	2.000000	1.169613	7.36862e+06	-56789.1	955.817	-29738.4	0.000000	0.000000	7.179590	230.79	NaN	0.000000	0.001760	0.001703	28.0824	67.2648	0.001749	38459.2	3.674557	-5.153892	227.696	1.169223	0.075701	0.075310	230.79	38459.2	0.071200	0.169004	1365.59	85472.3
363	2.000000	1.172204	7.36862e+06	-56789.1	955.817	-29738.4	0.000000	0.000000	7.182264	232.796	NaN	0.000000	0.001782	0.001747	28.0826	69.4143	0.001823	38084	0.704453	177.531	234.501	1.171964	0.078292	0.078052	232.796	38084	0.073707	0.179494	1296.96	82127.9
363	2.000000	1.174634	7.36862e+06	-56789.1	955.817	-29738.4	0.000000	0.000000	7.185559	253.814	NaN	0.000000	0.001770	0.001719	28.0824	72.7533	0.001778	40907.8	3.534067	-6.050878	252.008	1.174226	0.080722	0.080314	253.814	40907.8	0.076069	0.189647	1338.35	85823.5
363	2.000000	1.177087	7.36862e+06	-56789.1	955.817	-29738.4	0.000000	0.000000	7.188778	272.432	NaN	0.000000	0.001747	0.001689	28.081	74.4136	0.001839	40464.5	1.006714	176.938	270.153	1.176794	0.083175	0.082882	272.432	40464.5	0.078125	0.198703	1371.05	82936.5
363	2.000000	1.179618	7.36862e+06	-56789.1	955.818	-29738.4	0.000000	0.000000	7.192005	289.363	NaN	0.000000	0.001753	0.001688	28.081	76.3073	0.001719	44396.1	6.611244	-9.489164	286.791	1.179345	0.085705	0.085433	289.363	44396.1	0.080817	0.210852	1372.35	88334.3
363	2.000000	1.182061	7.36862e+06	-56789.1	955.818	-29738.4	0.000000	0.000000	7.195026	303.417	NaN	0.000000	0.001747	0.001675	28.0811	78.5042	0.001804	43519.5	5.586874	171.223	297.783	1.181713	0.088148	0.087801	303.417	43519.5	0.082919	0.220576	1375.56	84659.8
363	2.000000	1.184483	7.36862e+06	-56789.1	955.817	-29738.4	0.000000	0.000000	7.198249	322.894	NaN	0.000000	0.001715	0.001702	28.081	81.7869	0.001780	45956.1	3.135273	-6.423487	314.019	1.184190	0.090570	0.090277	322.894	45956.1	0.085301	0.231839	1392.75	87201.3
363	2.000000	1.187009	7.36862e+06	-56789.1	955.817	-29738.4	0.000000	0.000000	7.201299	335.625	NaN	0.000000	0.001733	0.001715	28.0811	85.0858	0.001749	48653.2	3.263805	172.941	329.493	1.186827	0.093097	0.092915	335.625	48653.2	0.087923	0.244541	1372.47	89889.3
363	2.000000	1.189507	7.36862e+06	-56789.1	955.816	-29738.4	0.000000	0.000000	7.204542	353.732	NaN	0.000000	0.001724	0.001718	28.0811	86.1849	0.001837	46909.4	2.015005	-5.343018	344.57	1.189262	0.095594	0.095350	353.732	46909.4	0.089939	0.254523	1389.79	84951.3
363	2.000000	1.191949	7.36862e+06	-56789.1	955.817	-29738.4	0.000000	0.000000	7.208041	379.426	NaN	0.000000	0.001743	0.001662	28.0813	88.9204	0.001834	48495.7	3.802000	173.276	371.741	1.191713	0.098036	0.097800	379.426	48495.7	0.092169	0.265781	1427.59	85943.9
363	2.000000	1.194496	7.36862e+06	-56789.1	955.818	-29738.4	0.000000	0.000000	7.211473	400.913	NaN	0.000000	0.001713	0.001630	28.081	93.355	0.001811	51537	6.176831	-10.1964	394.528	1.194179	0.100584	0.100267	400.913	51537	0.094749	0.279095	1436.47	89128.4
363	2.000000	1.196993	7.36862e+06	-56789.1	955.818	-29738.4	0.000000	0.000000	7.214623	416.805	NaN	0.000000	0.001646	0.001697	28.0811	94.2641	0.001694	55641.3	2.175710	173.642	410.769	1.196709	0.103080	0.102797	416.805	55641.3	0.097462	0.293416	1420.52	93848.8
363	2.000000	1.199708	7.36862e+06	-56789.1	955.818	-29738.4	0.000000	0.000000	7.218078	434.785	NaN	0.000000	0.001687	0.001702	28.081	98.8342	0.001935	51083.1	9.233312	-12.3988	436.216	1.199170	0.105796	0.105258	434.785	51083.1	0.099413	0.303921	1430.58	84658.4
363	2.000000	1.200514	7.36862e+06	-56789.1	955.818	-29738.4	0.000000	0.000000	7.219393	447.174	NaN	0.000000	0.001610	0.001701	28.0809	98.7594	0.001787	55274.4	6.316823	-10.4737	439.826	1.200109	0.106601	0.106197	447.174	55274.4	0.100534	0.310038	1442.32	90696.4