File: remote_trans/data/nanoindenter/0828-1/data/Data_2025-08-06,11h17m57s/2025-07-22_16-23-58_1_559.txt
2025-07-22, 16:23:58, 1
Index	Phase	Displacement	Time	Pos X	Pos Y	Pos Z	Rot A	Rot B	Piezo Z	Force A	Force B	Gripper	Voltage A	Voltage B	Temperature	Amplitude force	Amplitude pos	Stiffness	Phase shift	Phase excitation	Force A raw	Displacement raw	HMax	HMax raw	Real Force	Real Stiffness	Contact Depth	Area	Hardness	Reduced Mod.
[#]	[#]	[um]	[s]	[um]	[um]	[um]	[m°]	[m°]	[um]	[uN]	[uN]	[V]	[V]	[V]	[°C]	[uN]	[um]	[N/m]	[°]	[°]	[uN]	[um]	[um]	[um]	[uN]	[N/m]	[um]	[um^2]	[MPa]	[MPa]
559	1.000000	0.002300	7.37052e+06	-49139.1	1005.82	-29759.9	0.000000	0.000000	6.002783	0.033496	NaN	0.000000	0.001588	0.001679	28.0825	0.021837	0.001002	21.7883	-105.865	-166.715	0.041825	0.001019	-1.155094	-1.156376	0.033496	21.7883	-1.156247	-2.848203E+15	-1.176039E-17	NaN
559	1.000000	0.012350	7.37052e+06	-49139.1	1005.82	-29759.9	0.000000	0.000000	6.012833	0.034638	NaN	0.000000	0.001593	0.001678	28.0825	0.072675	0.001284	56.5871	60.7006	25.0399	0.056073	0.010960	-1.145044	-1.146434	0.034638	56.5871	-1.145503	-2.044242E+15	-1.694394E-17	NaN
559	1.000000	0.022259	7.37052e+06	-49139.1	1005.82	-29759.9	0.000000	0.000000	6.022747	0.134878	NaN	0.000000	0.001590	0.001673	28.0837	0.061547	0.001663	37.0076	54.0876	-164.627	0.089274	0.020999	-1.135135	-1.136396	0.134878	37.0076	-1.137868	-1.614928E+15	-8.351923E-17	NaN
559	1.000000	0.032286	7.37052e+06	-49139.1	1005.82	-29759.9	0.000000	0.000000	6.032768	-0.002209	NaN	0.000000	0.001588	0.001668	28.0826	0.004748	0.001823	2.605180	-92.3335	17.2211	-0.008727	0.030916	-1.125108	-1.126478	-0.002209	2.605180	-1.124472	-1.067754E+15	2.068687E-18	NaN
559	1.000000	0.042237	7.37052e+06	-49139.1	1005.82	-29759.9	0.000000	0.000000	6.042721	0.037246	NaN	0.000000	0.001560	0.001647	28.0827	0.119892	0.002047	58.5709	11.3496	-162.936	0.017404	0.040964	-1.115157	-1.116430	0.037246	58.5709	-1.115634	-8.126217E+14	-4.583460E-17	NaN
559	1.000000	0.052296	7.37052e+06	-49139.1	1005.82	-29759.9	0.000000	0.000000	6.052779	0.035392	NaN	0.000000	0.001577	0.001639	28.0824	0.049139	0.002007	24.4835	64.6957	13.9324	0.035806	0.050887	-1.105098	-1.106507	0.035392	24.4835	-1.106182	-6.068094E+14	-5.832550E-17	NaN
559	1.000000	0.062270	7.37052e+06	-49139.1	1005.82	-29759.9	0.000000	0.000000	6.062756	0.103487	NaN	0.000000	0.001601	0.001673	28.0824	0.048359	0.001927	25.0953	-46.8811	-166.628	0.013000	0.060945	-1.095124	-1.096450	0.103487	25.0953	-1.098217	-4.743847E+14	-2.181501E-16	NaN
559	1.000000	0.072253	7.37052e+06	-49139.1	1005.82	-29759.9	0.000000	0.000000	6.072734	-0.026113	NaN	0.000000	0.001647	0.001673	28.0823	0.044911	0.002073	21.6698	137.5	17.7675	-0.002837	0.070902	-1.085141	-1.086492	-0.026113	21.6698	-1.084238	-3.079158E+14	8.480603E-17	NaN
559	1.000000	0.082303	7.37052e+06	-49139.1	1005.82	-29759.9	0.000000	0.000000	6.082785	-0.010622	NaN	0.000000	0.001644	0.001656	28.0824	0.091316	0.002096	43.559	-107.232	-165.792	0.004205	0.080943	-1.075091	-1.076451	-0.010622	43.559	-1.074908	-2.307422E+14	4.603579E-17	NaN
559	1.000000	0.092282	7.37052e+06	-49139.1	1005.82	-29759.9	0.000000	0.000000	6.092766	0.046698	NaN	0.000000	0.001636	0.001721	28.0825	0.053030	0.002127	24.9274	102.173	16.9783	0.147892	0.090911	-1.065112	-1.066483	0.046698	24.9274	-1.066517	-1.779893E+14	-2.623635E-16	NaN
559	1.000000	0.102297	7.37052e+06	-49139.1	1005.82	-29759.9	0.000000	0.000000	6.102779	-0.004818	NaN	0.000000	0.001647	0.001704	28.0824	0.019359	0.001987	9.740897	-13.1376	-164.007	0.013787	0.100989	-1.055097	-1.056405	-0.004818	9.740897	-1.054726	-1.235780E+14	3.898785E-17	NaN
559	1.000000	0.112256	7.37052e+06	-49139.1	1005.82	-29759.9	0.000000	0.000000	6.112737	-0.023491	NaN	0.000000	0.001551	0.001638	28.0825	0.046547	0.002173	21.4173	-111.123	13.9701	-0.065842	0.110898	-1.045138	-1.046496	-0.023491	21.4173	-1.044315	-8.953455E+13	2.623661E-16	NaN
559	1.000000	0.122302	7.37052e+06	-49139.1	1005.82	-29759.9	0.000000	0.000000	6.122787	0.076648	NaN	0.000000	0.001530	0.001688	28.0823	0.036986	0.001933	19.131	-47.4359	-161.58	0.036223	0.121002	-1.035093	-1.036393	0.076648	19.131	-1.038098	-7.385590E+13	-1.037806E-15	NaN
559	1.000000	0.132324	7.37052e+06	-49139.1	1005.82	-29759.9	0.000000	0.000000	6.132805	-0.014295	NaN	0.000000	0.001585	0.001682	28.0822	0.120316	0.001872	64.2684	-127.038	17.1254	0.040389	0.130941	-1.025070	-1.026454	-0.014295	64.2684	-1.024903	-4.908181E+13	2.912514E-16	NaN
559	1.000000	0.142309	7.37052e+06	-49139.1	1005.82	-29759.9	0.000000	0.000000	6.142792	0.037015	NaN	0.000000	0.001557	0.001680	28.0811	0.082497	0.001913	43.1283	52.2893	-162.996	0.016469	0.140913	-1.015086	-1.016482	0.037015	43.1283	-1.015729	-3.693909E+13	-1.002057E-15	NaN
559	1.000000	0.152324	7.37052e+06	-49139.1	1005.82	-29759.9	0.000000	0.000000	6.152805	-0.020528	NaN	0.000000	0.001579	0.001684	28.0818	0.056360	0.001968	28.6441	-42.1417	13.4145	0.049156	0.150965	-1.005070	-1.006430	-0.020528	28.6441	-1.004533	-2.610889E+13	7.862499E-16	NaN
559	1.000000	0.162299	7.37052e+06	-49139.1	1005.82	-29759.9	0.000000	0.000000	6.162784	0.073504	NaN	0.000000	0.001571	0.001693	28.0811	0.119957	0.001966	61.0235	-60.5499	-162.58	0.042147	0.160980	-0.995096	-0.996414	0.073504	61.0235	-0.995999	-2.004007E+13	-3.667853E-15	NaN
559	1.000000	0.172305	7.37052e+06	-49139.1	1005.82	-29759.9	0.000000	0.000000	6.172787	0.008517	NaN	0.000000	0.001553	0.001661	28.0811	0.058738	0.001987	29.5616	122.667	13.1222	0.077410	0.170907	-0.985089	-0.986488	0.008517	29.5616	-0.985305	-1.438396E+13	-5.921092E-16	NaN
559	1.000000	0.182327	7.37052e+06	-49139.1	1005.82	-29759.9	0.000000	0.000000	6.182807	-0.040133	NaN	0.000000	0.001633	0.001670	28.0813	0.049074	0.001968	24.933	87.3218	-168.261	-0.070599	0.181046	-0.975067	-0.976348	-0.040133	24.933	-0.973860	-1.008516E+13	3.979398E-15	NaN
559	1.000000	0.192328	7.37052e+06	-49139.1	1005.82	-29759.9	0.000000	0.000000	6.192808	-0.042729	NaN	0.000000	0.001636	0.001682	28.0813	0.102389	0.002118	48.3403	74.1998	14.3995	-0.072026	0.190957	-0.965066	-0.966437	-0.042729	48.3403	-0.964403	-7.520138E+12	5.682004E-15	NaN
559	1.000000	0.202311	7.37052e+06	-49139.1	1005.82	-29759.9	0.000000	0.000000	6.202795	0.058115	NaN	0.000000	0.001663	0.001679	28.0812	0.117665	0.001950	60.3541	34.1208	-162.443	-0.027611	0.200984	-0.955083	-0.956410	0.058115	60.3541	-0.955806	-5.758591E+12	-1.009179E-14	NaN
559	1.000000	0.212341	7.37052e+06	-49139.1	1005.82	-29759.9	0.000000	0.000000	6.212825	0.047576	NaN	0.000000	0.001647	0.001674	28.0809	0.019372	0.001952	9.926495	-86.1644	15.8735	0.049896	0.210951	-0.945053	-0.946443	0.047576	9.926495	-0.948647	-4.610890E+12	-1.031817E-14	NaN
559	1.000000	0.222354	7.37052e+06	-49139.1	1005.82	-29759.9	0.000000	0.000000	6.222834	-0.034995	NaN	0.000000	0.001584	0.001684	28.0814	0.028165	0.001908	14.7638	-19.4196	-164.409	-0.025698	0.221048	-0.935041	-0.936347	-0.034995	14.7638	-0.933263	-2.859108E+12	1.223989E-14	NaN
559	1.000000	0.232344	7.37052e+06	-49139.1	1005.82	-29759.9	0.000000	0.000000	6.232827	0.035952	NaN	0.000000	0.001594	0.001689	28.0812	0.076277	0.002020	37.7693	9.501464	14.5046	0.040889	0.230951	-0.925051	-0.926444	0.035952	37.7693	-0.925764	-2.264788E+12	-1.587435E-14	NaN
559	1.000000	0.242359	7.37052e+06	-49139.1	1005.82	-29759.9	0.000000	0.000000	6.242841	-0.016476	NaN	0.000000	0.001582	0.001629	28.081	0.028834	0.001958	14.7296	-132.162	-162.261	-0.030643	0.241057	-0.915035	-0.916337	-0.016476	14.7296	-0.914196	-1.580641E+12	1.042383E-14	NaN
559	1.000000	0.252337	7.37052e+06	-49139.1	1005.82	-29759.9	0.000000	0.000000	6.252820	0.027261	NaN	0.000000	0.001592	0.001675	28.0811	0.119915	0.002026	59.1796	-69.4113	17.815	0.018051	0.250987	-0.905057	-0.906407	0.027261	59.1796	-0.905403	-1.202434E+12	-2.267146E-14	NaN
559	1.000000	0.262345	7.37052e+06	-49139.1	1005.82	-29759.9	0.000000	0.000000	6.262828	0.022968	NaN	0.000000	0.001565	0.001653	28.0811	0.076700	0.001981	38.7099	-66.2787	-164.579	-0.027061	0.261048	-0.895050	-0.896346	0.022968	38.7099	-0.895495	-8.834484E+11	-2.599762E-14	NaN
559	1.000000	0.272370	7.37052e+06	-49139.1	1005.82	-29759.9	0.000000	0.000000	6.272851	-0.025993	NaN	0.000000	0.001633	0.001678	28.082	0.045413	0.001990	22.8202	80.8584	15.2322	0.018433	0.271030	-0.885024	-0.886364	-0.025993	22.8202	-0.884170	-6.209984E+11	4.185758E-14	NaN
559	1.000000	0.282356	7.37052e+06	-49139.1	1005.82	-29759.9	0.000000	0.000000	6.282838	0.000285	NaN	0.000000	0.001570	0.001701	28.0822	0.050931	0.001965	25.9151	150.728	-164.427	-0.133845	0.281075	-0.875039	-0.876319	0.000285	25.9151	-0.875047	-4.674305E+11	-6.099134E-16	NaN
559	1.000000	0.292365	7.37052e+06	-49139.1	1005.82	-29759.9	0.000000	0.000000	6.292850	0.077101	NaN	0.000000	0.001591	0.001647	28.0826	0.147866	0.002036	72.6243	29.3488	15.5852	0.059333	0.291005	-0.865030	-0.866389	0.077101	72.6243	-0.865826	-3.507241E+11	-2.198347E-13	NaN
559	1.000000	0.302376	7.37052e+06	-49139.1	1005.82	-29759.9	0.000000	0.000000	6.302858	-0.021433	NaN	0.000000	0.001581	0.001665	28.0823	0.074866	0.001826	41.0078	-18.8719	-159.561	-0.020330	0.301073	-0.855018	-0.856321	-0.021433	41.0078	-0.854626	-2.473834E+11	8.663755E-14	NaN
559	1.000000	0.312371	7.37052e+06	-49139.1	1005.82	-29759.9	0.000000	0.000000	6.312853	-0.013579	NaN	0.000000	0.001648	0.001686	28.0823	0.043114	0.002067	20.8598	-76.8223	15.0504	0.021995	0.310995	-0.845023	-0.846399	-0.013579	20.8598	-0.844535	-1.806009E+11	7.518895E-14	NaN
559	1.000000	0.322378	7.37052e+06	-49139.1	1005.82	-29759.9	0.000000	0.000000	6.322864	0.090885	NaN	0.000000	0.001577	0.001676	28.0822	0.092127	0.001976	46.6165	-13.2669	-161.686	0.008984	0.321095	-0.835016	-0.836300	0.090885	46.6165	-0.836478	-1.404684E+11	-6.470143E-13	NaN
559	1.000000	0.332369	7.37052e+06	-49139.1	1005.82	-29759.9	0.000000	0.000000	6.332851	0.016408	NaN	0.000000	0.001578	0.001678	28.0823	0.075589	0.002022	37.3897	113.392	11.7121	0.026363	0.331020	-0.825026	-0.826374	0.016408	37.3897	-0.825355	-9.926914E+10	-1.652904E-13	NaN
559	1.000000	0.342374	7.37052e+06	-49139.1	1005.82	-29759.9	0.000000	0.000000	6.342858	0.058413	NaN	0.000000	0.001593	0.001662	28.0817	0.036605	0.001973	18.5571	-108.049	-165.756	-0.060488	0.341070	-0.815020	-0.816324	0.058413	18.5571	-0.817381	-7.739198E+10	-7.547659E-13	NaN
559	1.000000	0.352411	7.37052e+06	-49139.1	1005.82	-29759.9	0.000000	0.000000	6.352895	0.033343	NaN	0.000000	0.001596	0.001666	28.082	0.123131	0.002098	58.6795	137.17	15.3748	0.061017	0.351015	-0.804983	-0.806379	0.033343	58.6795	-0.805409	-5.324490E+10	-6.262207E-13	NaN
559	1.000000	0.362384	7.37052e+06	-49139.1	1005.82	-29759.9	0.000000	0.000000	6.362867	0.036079	NaN	0.000000	0.001575	0.001683	28.0821	0.029119	0.001985	14.667	8.356823	-166.276	0.082128	0.361106	-0.795011	-0.796288	0.036079	14.667	-0.796856	-4.075442E+10	-8.852776E-13	NaN
559	1.000000	0.372381	7.37052e+06	-49139.1	1005.82	-29759.9	0.000000	0.000000	6.372862	-0.016569	NaN	0.000000	0.001608	0.001679	28.082	0.115603	0.002005	57.6683	157.887	13.3985	0.159557	0.371028	-0.785013	-0.786367	-0.016569	57.6683	-0.784798	-2.795243E+10	5.927601E-13	NaN
559	1.000000	0.382411	7.37052e+06	-49139.1	1005.82	-29759.9	0.000000	0.000000	6.382896	0.060403	NaN	0.000000	0.001613	0.001659	28.0821	0.095719	0.001854	51.6359	148.504	-163.877	0.060725	0.381102	-0.774983	-0.776293	0.060403	51.6359	-0.775860	-2.113346E+10	-2.858166E-12	NaN
559	1.000000	0.392397	7.37052e+06	-49139.1	1005.82	-29759.9	0.000000	0.000000	6.392878	-0.022881	NaN	0.000000	0.001612	0.001675	28.0819	0.057953	0.002135	27.1468	123.09	15.3903	-0.023827	0.391029	-0.764997	-0.766366	-0.022881	27.1468	-0.764365	-1.474612E+10	1.551629E-12	NaN
559	1.000000	0.402404	7.37052e+06	-49139.1	1005.82	-29759.9	0.000000	0.000000	6.402887	0.037379	NaN	0.000000	0.001586	0.001672	28.0823	0.045555	0.001936	23.5342	78.0599	-161.891	-0.015050	0.401076	-0.754990	-0.756318	0.037379	23.5342	-0.756182	-1.141168E+10	-3.275516E-12	NaN
559	1.000000	0.412431	7.37052e+06	-49139.1	1005.82	-29759.9	0.000000	0.000000	6.412915	0.055909	NaN	0.000000	0.001570	0.001664	28.0808	0.037852	0.001868	20.2613	141.308	17.3631	0.054784	0.411090	-0.744964	-0.746304	0.055909	20.2613	-0.747033	-8.567022E+9	-6.526112E-12	NaN
559	1.000000	0.422413	7.37052e+06	-49139.1	1005.82	-29759.9	0.000000	0.000000	6.422897	0.055170	NaN	0.000000	0.001525	0.001689	28.0807	0.035081	0.002108	16.6387	71.7489	-162.969	0.089044	0.421129	-0.734982	-0.736266	0.055170	16.6387	-0.737468	-6.347051E+9	-8.692296E-12	NaN
559	1.000000	0.432432	7.37052e+06	-49139.1	1005.82	-29759.9	0.000000	0.000000	6.432914	-0.006092	NaN	0.000000	0.001591	0.001655	28.0811	0.021303	0.002038	10.4514	30.1468	14.3833	-0.030588	0.431099	-0.724962	-0.726295	-0.006092	10.4514	-0.724525	-4.228428E+9	1.440746E-12	NaN
559	1.000000	0.442436	7.37052e+06	-49139.1	1005.82	-29759.9	0.000000	0.000000	6.442920	0.051136	NaN	0.000000	0.001620	0.001667	28.0808	0.059782	0.001968	30.3832	-163.496	-166.099	0.094951	0.441088	-0.714958	-0.716306	0.051136	30.3832	-0.716221	-3.257794E+9	-1.569640E-11	NaN
559	1.000000	0.452445	7.37052e+06	-49139.1	1005.82	-29759.9	0.000000	0.000000	6.452928	0.018414	NaN	0.000000	0.001600	0.001653	28.0808	0.069795	0.001964	35.5322	-132.678	14.2157	0.026961	0.451044	-0.704949	-0.706350	0.018414	35.5322	-0.705338	-2.314258E+9	-7.956797E-12	NaN
559	1.000000	0.462431	7.37052e+06	-49139.1	1005.82	-29759.9	0.000000	0.000000	6.462914	0.004831	NaN	0.000000	0.001585	0.001701	28.0807	0.070035	0.002168	32.3022	-138.031	-165.713	0.074593	0.461162	-0.694963	-0.696232	0.004831	32.3022	-0.695075	-1.675950E+9	-2.882354E-12	NaN
559	1.000000	0.472440	7.37052e+06	-49139.1	1005.82	-29759.9	0.000000	0.000000	6.472922	0.007119	NaN	0.000000	0.001561	0.001686	28.0811	0.020462	0.001982	10.3246	131.63	16.2173	0.000905	0.471101	-0.684954	-0.686293	0.007119	10.3246	-0.685471	-1.238848E+9	-5.746452E-12	NaN
559	1.000000	0.482424	7.37052e+06	-49139.1	1005.82	-29759.9	0.000000	0.000000	6.482909	0.071974	NaN	0.000000	0.001568	0.001628	28.0809	0.100736	0.002039	49.3995	-124.954	-163.126	-0.073626	0.481165	-0.674970	-0.676229	0.071974	49.3995	-0.676063	-9.211868E+8	-7.813132E-11	NaN
559	1.000000	0.492446	7.37052e+06	-49139.1	1005.82	-29759.9	0.000000	0.000000	6.492930	0.044889	NaN	0.000000	0.001577	0.001656	28.0808	0.062773	0.002057	30.519	-100.703	14.3828	-0.050079	0.491083	-0.664948	-0.666312	0.044889	30.519	-0.666051	-6.719410E+8	-6.680462E-11	NaN
559	1.000000	0.502448	7.37052e+06	-49139.1	1005.82	-29759.9	0.000000	0.000000	6.502932	0.062139	NaN	0.000000	0.001612	0.001655	28.0813	0.046276	0.001983	23.3371	169.291	-163.626	0.018208	0.501161	-0.654947	-0.656233	0.062139	23.3371	-0.656944	-5.041939E+8	-1.232441E-10	NaN
559	1.000000	0.512471	7.37052e+06	-49139.1	1005.82	-29759.9	0.000000	0.000000	6.512953	0.018669	NaN	0.000000	0.001574	0.001683	28.081	0.023117	0.002040	11.3313	-122.779	16.6798	0.056353	0.511101	-0.644924	-0.646293	0.018669	11.3313	-0.646159	-3.587366E+8	-5.204191E-11	NaN
559	1.000000	0.522461	7.37052e+06	-49139.1	1005.82	-29759.9	0.000000	0.000000	6.522943	-0.011384	NaN	0.000000	0.001592	0.001672	28.0811	0.020119	0.002060	9.768496	153.185	-166.592	0.068993	0.521164	-0.634933	-0.636230	-0.011384	9.768496	-0.634059	-2.447680E+8	4.650990E-11	NaN
559	1.000000	0.532467	7.37052e+06	-49139.1	1005.82	-29759.9	0.000000	0.000000	6.532952	0.061671	NaN	0.000000	0.001581	0.001653	28.081	0.069741	0.001958	35.627	32.2357	17.8906	0.049123	0.531119	-0.624927	-0.626275	0.061671	35.627	-0.626225	-1.910636E+8	-3.227755E-10	NaN
559	1.000000	0.542481	7.37052e+06	-49139.1	1005.82	-29759.9	0.000000	0.000000	6.542963	8.060398E-5	NaN	0.000000	0.001582	0.001667	28.0813	0.158731	0.001974	80.4169	-85.699	-166.667	-0.020250	0.541177	-0.614913	-0.616218	8.060398E-5	80.4169	-0.614914	-1.335689E+8	-6.034636E-13	NaN
559	1.000000	0.552487	7.37052e+06	-49139.1	1005.82	-29759.9	0.000000	0.000000	6.552972	0.090409	NaN	0.000000	0.001595	0.001684	28.0821	0.037773	0.001968	19.1951	-57.8754	18.292	0.015215	0.551151	-0.604908	-0.606243	0.090409	19.1951	-0.608440	-1.088054E+8	-8.309250E-10	NaN
559	1.000000	0.562466	7.37052e+06	-49139.1	1005.82	-29759.9	0.000000	0.000000	6.562949	0.029343	NaN	0.000000	0.001623	0.001670	28.0822	0.067287	0.002028	33.1796	157.054	-165.498	0.038762	0.561190	-0.594928	-0.596204	0.029343	33.1796	-0.595591	-7.239849E+7	-4.052924E-10	NaN
559	1.000000	0.572488	7.37052e+06	-49139.1	1005.82	-29759.9	0.000000	0.000000	6.572971	0.048583	NaN	0.000000	0.001638	0.001706	28.0823	0.132447	0.002090	63.3721	-32.2794	15.4426	0.054694	0.571128	-0.584907	-0.586267	0.048583	63.3721	-0.585482	-5.252410E+7	-9.249669E-10	NaN
559	1.000000	0.582490	7.37052e+06	-49139.1	1005.82	-29759.9	0.000000	0.000000	6.582972	-0.005248	NaN	0.000000	0.001600	0.001686	28.0822	0.044346	0.002045	21.6881	-64.3544	-161.774	0.062047	0.581179	-0.574904	-0.576215	-0.005248	21.6881	-0.574722	-3.731331E+7	1.406407E-10	NaN
559	1.000000	0.592459	7.37052e+06	-49139.1	1005.82	-29759.9	0.000000	0.000000	6.592940	-0.024748	NaN	0.000000	0.001610	0.001661	28.0822	0.040195	0.002031	19.7957	98.7506	14.5571	-0.054247	0.591112	-0.564935	-0.566282	-0.024748	19.7957	-0.563998	-2.652567E+7	9.329773E-10	NaN
559	1.000000	0.602517	7.37052e+06	-49139.1	1005.82	-29759.9	0.000000	0.000000	6.602998	-0.033416	NaN	0.000000	0.001601	0.001670	28.0823	0.047011	0.002065	22.7621	60.1214	-163.459	0.026877	0.601168	-0.554877	-0.556226	-0.033416	22.7621	-0.553776	-1.915317E+7	1.744666E-9	NaN
559	1.000000	0.612491	7.37052e+06	-49139.1	1005.82	-29759.9	0.000000	0.000000	6.612971	-0.048582	NaN	0.000000	0.001621	0.001678	28.0825	0.059480	0.001989	29.902	19.1375	16.8425	-0.038330	0.611145	-0.544903	-0.546249	-0.048582	29.902	-0.543685	-1.388197E+7	3.499630E-9	NaN
559	1.000000	0.622513	7.37052e+06	-49139.1	1005.82	-29759.9	0.000000	0.000000	6.622994	-0.006413	NaN	0.000000	0.001596	0.001655	28.0822	0.053092	0.002060	25.7687	118.624	-165.725	0.055533	0.621230	-0.534882	-0.536164	-0.006413	25.7687	-0.534695	-1.041733E+7	6.156494E-10	NaN
559	1.000000	0.632501	7.37052e+06	-49139.1	1005.82	-29759.9	0.000000	0.000000	6.632984	0.003041	NaN	0.000000	0.001654	0.001687	28.0825	0.067022	0.002029	33.0389	17.2268	19.7476	-0.085600	0.631104	-0.524893	-0.526290	0.003041	33.0389	-0.524962	-7.63097e+06	-3.985553E-10	NaN
559	1.000000	0.642498	7.37052e+06	-49139.1	1005.82	-29759.9	0.000000	0.000000	6.642979	-0.026492	NaN	0.000000	0.001620	0.001669	28.0823	0.069743	0.001993	34.9978	175.829	-164.029	-0.055121	0.641193	-0.514896	-0.516201	-0.026492	34.9978	-0.514328	-5.42851e+06	4.880156E-9	NaN
559	1.000000	0.652522	7.37052e+06	-49139.1	1005.82	-29759.9	0.000000	0.000000	6.653004	-0.016028	NaN	0.000000	0.001642	0.001671	28.0824	0.015240	0.001998	7.627676	173.152	15.0235	-0.009981	0.651150	-0.504872	-0.506244	-0.016028	7.627676	-0.503296	-3.81053e+06	4.206356E-9	NaN
559	1.000000	0.662538	7.37052e+06	-49139.1	1005.82	-29759.9	0.000000	0.000000	6.663024	0.080920	NaN	0.000000	0.001629	0.001651	28.0822	0.140461	0.002108	66.6271	-64.316	-164.955	0.107660	0.661226	-0.494856	-0.496168	0.080920	66.6271	-0.495767	-2.99185e+06	-2.704666E-8	NaN
559	1.000000	0.672528	7.37052e+06	-49139.1	1005.82	-29759.9	0.000000	0.000000	6.673008	-0.033304	NaN	0.000000	0.001676	0.001651	28.0823	0.060777	0.001986	30.5982	-102.659	16.6383	-0.036197	0.671183	-0.484866	-0.486211	-0.033304	30.5982	-0.484050	-2.05213e+06	1.622908E-8	NaN
559	1.000000	0.682547	7.37052e+06	-49139.1	1005.82	-29759.9	0.000000	0.000000	6.683028	-0.011633	NaN	0.000000	0.001677	0.001626	28.0817	0.032296	0.001920	16.8239	123.859	-163.87	-0.063587	0.681156	-0.474847	-0.476238	-0.011633	16.8239	-0.474329	-1.50002e+06	7.754947E-9	NaN
559	1.000000	0.692557	7.37052e+06	-49139.1	1005.82	-29759.9	0.000000	0.000000	6.693043	0.082565	NaN	0.000000	0.001655	0.001593	28.0814	0.063809	0.002014	31.6882	172.971	17.3619	0.084802	0.691197	-0.464837	-0.466197	0.082565	31.6882	-0.466791	-1.17595e+06	-7.021151E-8	NaN
559	1.000000	0.702533	7.37052e+06	-49139.1	1005.82	-29759.9	0.000000	0.000000	6.703017	0.050401	NaN	0.000000	0.001713	0.001661	28.081	0.068618	0.001900	36.1141	31.4977	-165.805	0.073017	0.701199	-0.454862	-0.456196	0.050401	36.1141	-0.455908	-826979	-6.094620E-8	NaN
559	1.000000	0.712526	7.37052e+06	-49139.1	1005.82	-29759.9	0.000000	0.000000	6.713011	0.071450	NaN	0.000000	0.001671	0.001659	28.081	0.091320	0.002023	45.1347	121.367	16.6505	0.107788	0.711180	-0.444868	-0.446214	0.071450	45.1347	-0.446055	-600854	-1.189138E-7	NaN
559	1.000000	0.722552	7.37052e+06	-49139.1	1005.82	-29759.9	0.000000	0.000000	6.723034	0.020384	NaN	0.000000	0.001625	0.001620	28.0812	0.045556	0.002113	21.5609	122.264	-164.751	-0.067169	0.721211	-0.434843	-0.436183	0.020384	21.5609	-0.435552	-427119	-4.772437E-8	NaN
559	1.000000	0.732528	7.37052e+06	-49139.1	1005.82	-29759.9	0.000000	0.000000	6.733014	0.094075	NaN	0.000000	0.001680	0.001613	28.0811	0.059155	0.002096	28.2283	-5.885592	14.2092	0.024180	0.731185	-0.424866	-0.426209	0.094075	28.2283	-0.427365	-327173	-2.875384E-7	NaN
559	1.000000	0.742563	7.37052e+06	-49139.1	1005.82	-29759.9	0.000000	0.000000	6.743044	-0.018075	NaN	0.000000	0.001665	0.001606	28.0809	0.114650	0.002066	55.4851	-16.0815	-165.613	0.004279	0.741263	-0.414832	-0.416131	-0.018075	55.4851	-0.414587	-215573	8.384454E-8	NaN
559	1.000000	0.752554	7.37052e+06	-49139.1	1005.82	-29759.9	0.000000	0.000000	6.753038	0.063597	NaN	0.000000	0.001688	0.001627	28.0811	0.075336	0.002009	37.4953	-117.478	20.4724	-0.005862	0.751204	-0.404840	-0.406191	0.063597	37.4953	-0.406112	-163338	-3.893586E-7	NaN
559	1.000000	0.762582	7.37052e+06	-49139.1	1005.82	-29759.9	0.000000	0.000000	6.763066	0.029448	NaN	0.000000	0.001657	0.001589	28.0809	0.015631	0.002049	7.629622	-109.28	-163.299	0.053037	0.761208	-0.394812	-0.396186	0.029448	7.629622	-0.397707	-123959	-2.375652E-7	NaN
559	1.000000	0.772567	7.37052e+06	-49139.1	1005.82	-29759.9	0.000000	0.000000	6.773051	0.041845	NaN	0.000000	0.001688	0.001614	28.0809	0.011936	0.001934	6.171677	49.6257	13.1834	0.097928	0.771163	-0.384827	-0.386231	0.041845	6.171677	-0.389912	-95920.4	-4.362449E-7	NaN
559	1.000000	0.782578	7.37052e+06	-49139.1	1005.82	-29759.9	0.000000	0.000000	6.783065	0.107254	NaN	0.000000	0.001700	0.001611	28.0807	0.030113	0.001957	15.3879	160.583	-165.802	0.112851	0.781244	-0.374816	-0.376151	0.107254	15.3879	-0.380044	-69265.1	-1.548460E-6	NaN
559	1.000000	0.792551	7.37052e+06	-49139.1	1005.82	-29759.9	0.000000	0.000000	6.793035	0.049354	NaN	0.000000	0.001675	0.001643	28.0809	0.059132	0.002186	27.0494	151.345	14.4114	0.069181	0.791230	-0.364843	-0.366164	0.049354	27.0494	-0.366212	-43806.1	-1.126638E-6	NaN
559	1.000000	0.802580	7.37052e+06	-49139.1	1005.82	-29759.9	0.000000	0.000000	6.803063	0.010184	NaN	0.000000	0.001629	0.001637	28.0808	0.085244	0.001847	46.1522	-85.7844	-164.608	-0.068498	0.801253	-0.354814	-0.356141	0.010184	46.1522	-0.354980	-30144	-3.378372E-7	NaN
559	1.000000	0.812606	7.37052e+06	-49139.1	1005.82	-29759.9	0.000000	0.000000	6.813088	-0.013099	NaN	0.000000	0.001601	0.001667	28.0809	0.156349	0.001944	80.4062	53.2031	15.4795	0.042999	0.811210	-0.344788	-0.346185	-0.013099	80.4062	-0.344666	-21354.9	6.134164E-7	NaN
559	1.000000	0.822571	7.37052e+06	-49139.1	1005.82	-29759.9	0.000000	0.000000	6.823054	0.010772	NaN	0.000000	0.001635	0.001647	28.0822	0.061642	0.001923	32.0473	-45.4616	-166.535	0.010285	0.821284	-0.334823	-0.336110	0.010772	32.0473	-0.335075	-15477	-6.959938E-7	NaN
559	1.000000	0.832587	7.37052e+06	-49139.1	1005.82	-29759.9	0.000000	0.000000	6.833069	0.000422	NaN	0.000000	0.001606	0.001643	28.0828	0.056178	0.002069	27.1579	-31.4537	11.4039	-0.028469	0.831244	-0.324807	-0.326150	0.000422	27.1579	-0.324819	-10951.6	-3.855904E-8	NaN
559	1.000000	0.842586	7.37052e+06	-49139.1	1005.82	-29759.9	0.000000	0.000000	6.843070	0.051962	NaN	0.000000	0.001634	0.001688	28.0823	0.034617	0.001899	18.2328	-69.2433	-166.979	0.072921	0.841284	-0.314809	-0.316111	0.051962	18.2328	-0.316946	-8387.9	-6.194936E-6	NaN
559	1.000000	0.852623	7.37052e+06	-49139.1	1005.82	-29759.9	0.000000	0.000000	6.853103	-0.048843	NaN	0.000000	0.001619	0.001635	28.0822	0.101025	0.002084	48.473	-58.4692	14.1434	0.072868	0.851282	-0.304772	-0.306113	-0.048843	48.473	-0.304016	-5399.39	9.046073E-6	NaN
559	1.000000	0.862621	7.37052e+06	-49139.1	1005.82	-29759.9	0.000000	0.000000	6.863104	0.022921	NaN	0.000000	0.001649	0.001676	28.0823	0.018706	0.002023	9.247829	28.4542	-164.857	0.021951	0.861296	-0.294773	-0.296098	0.022921	9.247829	-0.296632	-4192.19	-5.467537E-6	NaN
559	1.000000	0.872576	7.37052e+06	-49139.1	1005.82	-29759.9	0.000000	0.000000	6.873057	-0.023393	NaN	0.000000	0.001625	0.001662	28.0824	0.092568	0.001988	46.5624	-148.709	14.8955	-0.074627	0.871243	-0.284818	-0.286151	-0.023393	46.5624	-0.284441	-2753.37	8.496222E-6	NaN
559	1.000000	0.882609	7.37052e+06	-49139.1	1005.82	-29759.9	0.000000	0.000000	6.883096	0.109360	NaN	0.000000	0.001622	0.001685	28.0821	0.203062	0.002021	100.475	-46.9938	-165.178	0.089486	0.881280	-0.274785	-0.276115	0.109360	100.475	-0.275601	-2025.38	-5.399467E-5	NaN
559	1.000000	0.892633	7.37052e+06	-49139.1	1005.82	-29759.9	0.000000	0.000000	6.893111	-0.097915	NaN	0.000000	0.001687	0.001684	28.0823	0.044003	0.002099	20.9648	62.2605	16.3266	-0.032613	0.891284	-0.264761	-0.266110	-0.097915	20.9648	-0.261258	-1225.16	7.991964E-5	NaN
559	1.000000	0.902622	7.37052e+06	-49139.1	1005.82	-29759.9	0.000000	0.000000	6.903106	0.034963	NaN	0.000000	0.001676	0.001709	28.0824	0.115451	0.001994	57.8956	28.3317	-163.251	0.045656	0.901312	-0.254772	-0.256082	0.034963	57.8956	-0.255225	-989.866	-3.532113E-5	NaN
559	1.000000	0.912601	7.37052e+06	-49139.1	1005.82	-29759.9	0.000000	0.000000	6.913081	-0.041083	NaN	0.000000	0.001680	0.001726	28.0823	0.044463	0.001857	23.9468	83.4175	15.4919	0.020181	0.911239	-0.244794	-0.246155	-0.041083	23.9468	-0.243507	-651.977	6.301259E-5	NaN
559	1.000000	0.922617	7.37052e+06	-49139.1	1005.82	-29759.9	0.000000	0.000000	6.923101	0.056569	NaN	0.000000	0.001586	0.001721	28.0822	0.086660	0.002018	42.9525	21.4176	-167.461	-0.015357	0.921334	-0.234778	-0.236061	0.056569	42.9525	-0.235765	-493.47	-0.000115	NaN
559	1.000000	0.932641	7.37052e+06	-49139.1	1005.82	-29759.9	0.000000	0.000000	6.933124	0.007198	NaN	0.000000	0.001609	0.001739	28.0825	0.163848	0.001900	86.2476	-37.512	16.8447	0.051518	0.931275	-0.224753	-0.226119	0.007198	86.2476	-0.224816	-331.439	-2.171769E-5	NaN
559	1.000000	0.942627	7.37052e+06	-49139.1	1005.82	-29759.9	0.000000	0.000000	6.943108	-0.020258	NaN	0.000000	0.001608	0.001739	28.0822	0.070828	0.002012	35.2025	-173.145	-164.683	0.004276	0.941363	-0.214767	-0.216032	-0.020258	35.2025	-0.214335	-225.329	8.990502E-5	NaN
559	1.000000	0.952652	7.37052e+06	-49139.1	1005.82	-29759.9	0.000000	0.000000	6.953136	0.069072	NaN	0.000000	0.001601	0.001665	28.082	0.090173	0.002026	44.5143	-153.143	13.8072	0.041226	0.951305	-0.204743	-0.206089	0.069072	44.5143	-0.205906	-164.563	-0.000420	NaN
559	1.000000	0.962672	7.37052e+06	-49139.1	1005.82	-29759.9	0.000000	0.000000	6.963157	0.063616	NaN	0.000000	0.001591	0.001640	28.0811	0.088716	0.001965	45.1586	87.5855	-164.303	0.074766	0.961317	-0.194722	-0.196078	0.063616	45.1586	-0.195779	-112.226	-0.000567	NaN
559	1.000000	0.972673	7.37052e+06	-49139.1	1005.82	-29759.9	0.000000	0.000000	6.973157	0.040408	NaN	0.000000	0.001624	0.001666	28.0813	0.026366	0.001987	13.2722	32.2534	15.0813	-0.017308	0.971264	-0.184721	-0.186130	0.040408	13.2722	-0.187005	-80.1415	-0.000504	NaN
559	1.000000	0.982643	7.37052e+06	-49139.1	1005.82	-29759.9	0.000000	0.000000	6.983125	0.018364	NaN	0.000000	0.001590	0.001693	28.081	0.031376	0.001958	16.0257	-91.5813	-166.088	0.018666	0.981388	-0.174751	-0.176006	0.018364	16.0257	-0.175611	-51.3418	-0.000358	NaN
559	1.000000	0.992660	7.37052e+06	-49139.1	1005.82	-29759.9	0.000000	0.000000	6.993142	0.011304	NaN	0.000000	0.001580	0.001686	28.0808	0.014300	0.001943	7.359539	94.862	17.1916	0.137236	0.991310	-0.164734	-0.166084	0.011304	7.359539	-0.165886	-34.8219	-0.000325	NaN
559	1.000000	1.002661	7.37052e+06	-49139.1	1005.82	-29759.9	0.000000	0.000000	7.003144	0.028000	NaN	0.000000	0.001618	0.001686	28.0809	0.042219	0.001898	22.2457	99.7343	-167.029	-0.057102	1.001331	-0.154733	-0.156063	0.028000	22.2457	-0.155677	-22.9484	-0.001220	NaN
559	1.000000	1.012663	7.37052e+06	-49139.1	1005.82	-29759.9	0.000000	0.000000	7.013148	0.079691	NaN	0.000000	0.001633	0.001657	28.0811	0.036490	0.002006	18.1908	110.682	16.8052	0.129811	1.011357	-0.144731	-0.146037	0.079691	18.1908	-0.148017	-16.6623	-0.004783	NaN
559	1.000000	1.022648	7.37052e+06	-49139.1	1005.82	-29759.9	0.000000	0.000000	7.023130	-0.006217	NaN	0.000000	0.001634	0.001653	28.081	0.072588	0.002078	34.9371	127.807	-167.85	-0.009811	1.021343	-0.134746	-0.136052	-0.006217	34.9371	-0.134612	-9.351604	0.000665	NaN
559	1.000000	1.032686	7.37052e+06	-49139.1	1005.82	-29759.9	0.000000	0.000000	7.033170	0.060487	NaN	0.000000	0.001592	0.001680	28.0811	0.060698	0.001964	30.9063	45.5931	15.0896	0.016964	1.031309	-0.124709	-0.126086	0.060487	30.9063	-0.126176	-6.415335	-0.009429	NaN
559	1.000000	1.042668	7.37052e+06	-49139.1	1005.82	-29759.9	0.000000	0.000000	7.043152	0.032189	NaN	0.000000	0.001535	0.001638	28.0811	0.041296	0.001995	20.6984	-168.434	-168.293	-0.042310	1.041379	-0.114726	-0.116015	0.032189	20.6984	-0.115892	-3.985298	-0.008077	NaN
559	1.000000	1.052674	7.37052e+06	-49139.1	1005.82	-29759.9	0.000000	0.000000	7.053157	0.006651	NaN	0.000000	0.001595	0.001672	28.0807	0.083684	0.001959	42.7234	-172.337	15.8103	-0.006135	1.051332	-0.104720	-0.106062	0.006651	42.7234	-0.104837	-2.331532	-0.002853	NaN
559	1.000000	1.062692	7.37052e+06	-49139.1	1005.82	-29759.9	0.000000	0.000000	7.063173	-0.028689	NaN	0.000000	0.001578	0.001661	28.0808	0.048549	0.002018	24.0592	14.6121	-166.102	0.052001	1.061425	-0.094702	-0.095969	-0.028689	24.0592	-0.093808	-1.324813	0.021655	NaN
559	1.000000	1.072661	7.37052e+06	-49139.1	1005.82	-29759.9	0.000000	0.000000	7.073144	0.026642	NaN	0.000000	0.001508	0.001664	28.0808	0.021387	0.001952	10.9577	125.765	14.2516	0.041161	1.071306	-0.084733	-0.086088	0.026642	10.9577	-0.086556	-0.895703	-0.029744	NaN
559	1.000000	1.082705	7.37052e+06	-49139.1	1005.82	-29759.9	0.000000	0.000000	7.083186	-0.021510	NaN	0.000000	0.001551	0.001673	28.0809	0.042849	0.002035	21.06	-76.2933	-163.836	-0.063860	1.081423	-0.074690	-0.075971	-0.021510	21.06	-0.073924	-0.433080	0.049667	NaN
559	1.000000	1.092692	7.37052e+06	-49139.1	1005.82	-29759.9	0.000000	0.000000	7.093176	0.029338	NaN	0.000000	0.001658	0.001673	28.0822	0.123769	0.002007	61.6611	-17.3828	14.79	0.075497	1.091323	-0.064702	-0.066071	0.029338	61.6611	-0.065059	-0.250153	-0.117279	NaN
559	1.000000	1.102701	7.37052e+06	-49139.1	1005.82	-29759.9	0.000000	0.000000	7.103183	0.002302	NaN	0.000000	0.001617	0.001683	28.0822	0.075578	0.001913	39.5016	-122.086	-166.343	0.020237	1.101407	-0.054693	-0.055988	0.002302	39.5016	-0.054737	-0.126490	-0.018196	NaN
559	1.000000	1.112703	7.37052e+06	-49139.1	1005.82	-29759.9	0.000000	0.000000	7.113182	-0.064523	NaN	0.000000	0.001634	0.001677	28.0825	0.019808	0.002152	9.203289	13.8032	12.9801	-0.081299	1.111335	-0.044691	-0.046059	-0.064523	9.203289	-0.039433	-0.043467	1.484434	NaN
559	1.000000	1.122705	7.37052e+06	-49139.1	1005.82	-29759.9	0.000000	0.000000	7.123186	-0.021511	NaN	0.000000	0.001635	0.001672	28.0823	0.064006	0.002103	30.4295	151.434	-166.418	0.010699	1.121368	-0.034689	-0.036026	-0.021511	30.4295	-0.034159	-0.030256	0.710968	NaN
559	1.000000	1.132713	7.37052e+06	-49139.1	1005.82	-29759.9	0.000000	0.000000	7.133198	0.061467	NaN	0.000000	0.001644	0.001672	28.0822	0.021565	0.002080	10.3658	19.9403	13.6384	0.023370	1.131379	-0.024681	-0.026015	0.061467	10.3658	-0.029128	-0.021768	-2.823705	NaN
559	1.000000	1.142710	7.37052e+06	-49139.1	1005.82	-29759.9	0.000000	0.000000	7.143193	0.009752	NaN	0.000000	0.001610	0.001664	28.0824	0.150896	0.002092	72.1415	116.53	-167.55	0.016108	1.141444	-0.014684	-0.015950	0.009752	72.1415	-0.014785	-0.009147	-1.066134	NaN
559	1.000000	1.152730	7.37052e+06	-49139.1	1005.82	-29759.9	0.000000	0.000000	7.153221	0.223651	NaN	0.000000	0.001680	0.001673	28.0824	0.511442	0.002006	254.989	16.6275	10.3841	-0.022042	1.151346	-0.004664	-0.006048	0.223651	254.989	-0.005322	-0.003618	-61.8169	NaN
559	2.000000	1.162145	7.37052e+06	-49139.1	1005.82	-29759.9	0.000000	0.000000	7.162972	8.395631	NaN	0.000000	0.001644	0.001693	28.0823	8.856341	0.001803	4911.25	12.5254	-173.766	7.790073	1.161345	0.004751	0.003951	8.395631	4911.25	0.003469	0.002778	3021.68	85126.1
559	2.000000	1.164820	7.37052e+06	-49139.1	1005.82	-29759.9	0.000000	0.000000	7.165795	11.9886	NaN	0.000000	0.001610	0.001680	28.0822	11.4207	0.001467	7787.54	6.175641	5.940308	11.3344	1.164440	0.007425	0.007046	11.9886	7787.54	0.006271	0.005323	2252.12	97518
559	2.000000	1.167292	7.37052e+06	-49139.1	1005.82	-29759.9	0.000000	0.000000	7.168344	13.8631	NaN	0.000000	0.001551	0.001707	28.0825	14.1496	0.001693	8355.51	9.149721	-178.414	13.6077	1.166994	0.009897	0.009599	13.8631	8355.51	0.008653	0.007723	1795.14	86869.1
559	2.000000	1.169713	7.37052e+06	-49139.1	1005.82	-29759.9	0.000000	0.000000	7.171017	20.0025	NaN	0.000000	0.001552	0.001666	28.0823	17.1419	0.001777	9644.66	6.412870	3.213223	18.3743	1.169335	0.012318	0.011940	20.0025	9644.66	0.010763	0.010042	1991.94	87934
559	2.000000	1.172261	7.37052e+06	-49139.1	1005.82	-29759.9	0.000000	0.000000	7.173704	23.3846	NaN	0.000000	0.001540	0.001691	28.083	19.9374	0.001855	10750.6	8.928494	-178.663	23.6488	1.171894	0.014867	0.014499	23.3846	10750.6	0.013235	0.013004	1798.31	86133.8
559	2.000000	1.174741	7.37052e+06	-49139.1	1005.82	-29759.9	0.000000	0.000000	7.176340	27.1527	NaN	0.000000	0.001550	0.001668	28.0823	21.9661	0.001696	12950.8	11.3551	-4.449370	26.2657	1.174296	0.017347	0.016902	27.1527	12950.8	0.015775	0.016332	1662.5	92585.8
559	2.000000	1.177250	7.37052e+06	-49139.1	1005.82	-29759.9	0.000000	0.000000	7.179098	33.2248	NaN	0.000000	0.001513	0.001671	28.0834	24.7367	0.001900	13022.7	11.6058	175.225	34.1659	1.176919	0.019856	0.019525	33.2248	13022.7	0.017942	0.019411	1711.61	85397.7
559	2.000000	1.179780	7.37052e+06	-49139.1	1005.82	-29759.9	0.000000	0.000000	7.181782	36.9689	NaN	0.000000	0.001550	0.001649	28.0813	26.5728	0.001799	14769.1	5.715327	-0.396001	36.2462	1.179386	0.022386	0.021992	36.9689	14769.1	0.020508	0.023347	1583.45	88309.9
559	2.000000	1.182262	7.37052e+06	-49139.1	1005.82	-29759.9	0.000000	0.000000	7.184581	44.679	NaN	0.000000	0.001579	0.001660	28.0821	30.1528	0.001950	15463.8	10.0992	176.1	45.8954	1.181924	0.024868	0.024530	44.679	15463.8	0.022701	0.026966	1656.87	86036.3
559	2.000000	1.184718	7.37052e+06	-49139.1	1005.82	-29759.9	0.000000	0.000000	7.187284	50.6686	NaN	0.000000	0.001602	0.001662	28.081	31.1763	0.001831	17022.9	3.818312	1.015754	49.4488	1.184374	0.027324	0.026980	50.6686	17022.9	0.025092	0.031183	1624.9	88074.7
559	2.000000	1.187248	7.37052e+06	-49139.1	1005.82	-29759.9	0.000000	0.000000	7.190059	56.6509	NaN	0.000000	0.001570	0.001688	28.0825	33.6917	0.001704	19777.8	3.838994	179.523	58.0504	1.186879	0.029854	0.029484	56.6509	19777.8	0.027705	0.036122	1568.32	95074.6
559	2.000000	1.189623	7.37052e+06	-49139.1	1005.82	-29759.9	0.000000	0.000000	7.192766	64.7164	NaN	0.000000	0.001619	0.001670	28.0805	36.5076	0.001763	20704.7	4.739429	-2.433877	60.5636	1.189375	0.032229	0.031981	64.7164	20704.7	0.029885	0.040505	1597.74	93991.5
559	2.000000	1.192202	7.37052e+06	-49139.1	1005.82	-29759.9	0.000000	0.000000	7.195595	70.7991	NaN	0.000000	0.001626	0.001715	28.0812	39.8797	0.001932	20646.2	4.787699	178.013	70.2834	1.191915	0.034808	0.034521	70.7991	20646.2	0.032236	0.045507	1555.8	88425.3
559	2.000000	1.194709	7.37052e+06	-49139.1	1005.82	-29759.9	0.000000	0.000000	7.198580	82.4439	NaN	0.000000	0.001615	0.001683	28.0809	41.3391	0.001797	23009.6	4.809290	-2.624738	79.9413	1.194289	0.037314	0.036894	82.4439	23009.6	0.034627	0.050881	1620.32	93197.3
559	2.000000	1.197225	7.37052e+06	-49139.1	1005.82	-29759.9	0.000000	0.000000	7.201344	88.4698	NaN	0.000000	0.001610	0.001657	28.0823	44.037	0.001815	24256.7	4.244013	177.366	89.9335	1.196932	0.039831	0.039538	88.4698	24256.7	0.037095	0.056737	1559.3	93040.6
559	2.000000	1.199719	7.37052e+06	-49139.1	1005.82	-29759.9	0.000000	0.000000	7.204370	101.397	NaN	0.000000	0.001631	0.001678	28.081	47.0078	0.001801	26103.9	7.338824	-6.210649	102.259	1.199264	0.042325	0.041870	101.397	26103.9	0.039411	0.062516	1621.93	95385.6
559	2.000000	1.202234	7.37052e+06	-49139.1	1005.82	-29759.9	0.000000	0.000000	7.207252	110.317	NaN	0.000000	0.001649	0.001692	28.0812	49.4964	0.001834	26985.4	8.489528	172.809	112.696	1.201856	0.044840	0.044461	110.317	26985.4	0.041774	0.068693	1605.96	94069
559	2.000000	1.204749	7.37052e+06	-49139.1	1005.82	-29759.9	0.000000	0.000000	7.209982	115.57	NaN	0.000000	0.001628	0.001654	28.081	50.3882	0.001771	28451.4	1.473861	-1.722468	114.833	1.204547	0.047354	0.047152	115.57	28451.4	0.044308	0.075634	1528	94518.6
559	2.000000	1.207172	7.37052e+06	-49139.1	1005.82	-29759.9	0.000000	0.000000	7.213182	134.46	NaN	0.000000	0.001621	0.001678	28.082	53.9418	0.001800	29972.8	10.8157	168.331	134.528	1.206899	0.049777	0.049505	134.46	29972.8	0.046413	0.081649	1646.82	95835.4
559	2.000000	1.209605	7.37052e+06	-49139.1	1005.82	-29759.9	0.000000	0.000000	7.215958	142.792	NaN	0.000000	0.001642	0.001657	28.081	55.885	0.001839	30382.4	5.198139	-6.180042	137.459	1.209284	0.052210	0.051890	142.792	30382.4	0.048686	0.088394	1615.41	93365.2
559	2.000000	1.212184	7.37052e+06	-49139.1	1005.82	-29759.9	0.000000	0.000000	7.219190	158.678	NaN	0.000000	0.001602	0.001599	28.0819	58.2422	0.001627	35790.2	1.845161	176.74	159.58	1.211842	0.054790	0.054448	158.678	35790.2	0.051465	0.096994	1635.96	104994
559	2.000000	1.214679	7.37052e+06	-49139.1	1005.82	-29759.9	0.000000	0.000000	7.222102	168.812	NaN	0.000000	0.001573	0.001622	28.0823	60.3566	0.001820	33168.2	2.712295	-3.530913	167.155	1.214421	0.057284	0.057027	168.812	33168.2	0.053467	0.103431	1632.13	94226
559	2.000000	1.217088	7.37052e+06	-49139.1	1005.82	-29759.9	0.000000	0.000000	7.225232	186.323	NaN	0.000000	0.001575	0.001609	28.0821	61.6474	0.001719	35858.1	1.740976	176.365	181.239	1.216808	0.059694	0.059414	186.323	35858.1	0.055797	0.111170	1676.02	98257.7
559	2.000000	1.219577	7.37052e+06	-49139.1	1005.82	-29759.9	0.000000	0.000000	7.228271	199.722	NaN	0.000000	0.001643	0.001608	28.0821	64.108	0.001779	36037.7	2.073749	-3.247462	194.38	1.219240	0.062183	0.061846	199.722	36037.7	0.058026	0.118827	1680.78	95515.5
559	2.000000	1.222119	7.37052e+06	-49139.1	1005.82	-29759.9	0.000000	0.000000	7.231289	211.299	NaN	0.000000	0.001660	0.001616	28.0825	68.1798	0.001711	39852.7	5.551515	171.708	207.482	1.221787	0.064725	0.064393	211.299	39852.7	0.060748	0.128506	1644.28	101571
559	2.000000	1.224623	7.37052e+06	-49139.1	1005.82	-29759.9	0.000000	0.000000	7.234384	225.689	NaN	0.000000	0.001584	0.001604	28.0821	69.4697	0.001768	39289.1	5.178355	-7.869597	221.039	1.224313	0.067228	0.066919	225.689	39289.1	0.062920	0.136488	1653.55	97162.6
559	2.000000	1.227151	7.37052e+06	-49139.1	1005.82	-29759.9	0.000000	0.000000	7.237527	240.605	NaN	0.000000	0.001585	0.001599	28.0822	71.4403	0.001661	43008.1	3.283345	173.155	239.808	1.226797	0.069757	0.069403	240.605	43008.1	0.065561	0.146503	1642.32	102660
559	2.000000	1.229502	7.37052e+06	-49139.1	1005.82	-29759.9	0.000000	0.000000	7.240490	255.505	NaN	0.000000	0.001607	0.001594	28.0823	74.2728	0.001783	41660.5	0.936841	-4.722023	248.289	1.229245	0.072108	0.071851	255.505	41660.5	0.067508	0.154099	1658.05	96961
559	2.000000	1.232157	7.37052e+06	-49139.1	1005.82	-29759.9	0.000000	0.000000	7.243748	270.173	NaN	0.000000	0.001622	0.001633	28.0822	79.3377	0.001832	43300	8.869217	167.516	268.683	1.231854	0.074763	0.074460	270.173	43300	0.070083	0.164428	1643.11	97560.5
559	2.000000	1.234669	7.37052e+06	-49139.1	1005.82	-29759.9	0.000000	0.000000	7.246790	283.058	NaN	0.000000	0.001620	0.001633	28.0824	79.6006	0.001749	45517.8	3.528203	-7.335569	281.894	1.234466	0.077275	0.077072	283.058	45517.8	0.072611	0.174872	1618.66	99447.6
559	2.000000	1.237121	7.37052e+06	-49139.1	1005.82	-29759.9	0.000000	0.000000	7.250052	302.772	NaN	0.000000	0.001595	0.001621	28.0822	81.8015	0.001724	47456.4	7.319074	168.823	302.537	1.236735	0.079727	0.079340	302.772	47456.4	0.074942	0.184771	1638.64	100868
559	2.000000	1.239553	7.37052e+06	-49139.1	1005.82	-29759.9	0.000000	0.000000	7.253350	323.836	NaN	0.000000	0.001574	0.001618	28.0822	85.1228	0.001863	45686.3	6.676904	-9.460761	316.771	1.239073	0.082158	0.081678	323.836	45686.3	0.076842	0.193029	1677.65	95005.2
559	2.000000	1.242009	7.37052e+06	-49139.1	1005.82	-29759.9	0.000000	0.000000	7.256546	341.826	NaN	0.000000	0.001619	0.001610	28.082	86.9773	0.001871	46478.9	4.324488	172.553	334.877	1.241806	0.084615	0.084412	341.826	46478.9	0.079099	0.203059	1683.39	94236.4
559	2.000000	1.244641	7.37052e+06	-49139.1	1005.82	-29759.9	0.000000	0.000000	7.259849	358.156	NaN	0.000000	0.001588	0.001564	28.0823	88.05	0.001777	49537.1	4.877899	-8.461916	354.984	1.244248	0.087247	0.086853	358.156	49537.1	0.081824	0.215485	1662.09	97497.9
559	2.000000	1.247088	7.37052e+06	-49139.1	1005.82	-29759.9	0.000000	0.000000	7.262889	372.583	NaN	0.000000	0.001602	0.001733	28.0809	91.1787	0.001841	49527.5	4.288514	171.536	369.239	1.246751	0.089693	0.089357	372.583	49527.5	0.084051	0.225897	1649.35	95206.1
559	2.000000	1.249591	7.37052e+06	-49139.1	1005.82	-29759.9	0.000000	0.000000	7.266192	392.026	NaN	0.000000	0.001568	0.001678	28.0809	93.0683	0.001898	49034.7	3.580254	-7.848257	388.279	1.249278	0.092197	0.091883	392.026	49034.7	0.086201	0.236164	1659.98	92187
559	2.000000	1.252080	7.37052e+06	-49139.1	1005.82	-29759.9	0.000000	0.000000	7.269396	409.424	NaN	0.000000	0.001556	0.001700	28.0811	94.5594	0.001693	55848.8	3.933913	170.996	406.979	1.251862	0.094686	0.094467	409.424	55848.8	0.089187	0.250781	1632.6	101892
559	2.000000	1.254653	7.37052e+06	-49139.1	1005.82	-29759.9	0.000000	0.000000	7.272916	432.445	NaN	0.000000	0.001588	0.001722	28.081	97.7002	0.001832	53328.5	8.591589	-13.5677	429.288	1.254309	0.097259	0.096915	432.445	53328.5	0.091177	0.260746	1658.49	95416.5
559	2.000000	1.257140	7.37052e+06	-49139.1	1005.82	-29759.9	0.000000	0.000000	7.276388	456.392	NaN	0.000000	0.001597	0.001687	28.0805	100.329	0.001776	56488.7	5.922702	169.069	459.185	1.256716	0.099746	0.099322	456.392	56488.7	0.093686	0.273573	1668.27	98673
559	2.000000	1.259582	7.37052e+06	-49139.1	1005.82	-29759.9	0.000000	0.000000	7.279577	474.571	NaN	0.000000	0.001587	0.001700	28.0807	103.926	0.001834	56660.4	3.214473	-8.468679	469.184	1.259222	0.102188	0.101827	474.571	56660.4	0.095906	0.285162	1664.22	96940.9
559	2.000000	1.260611	7.37052e+06	-49139.1	1005.82	-29759.9	0.000000	0.000000	7.280961	483.202	NaN	0.000000	0.001573	0.001719	28.0811	105.106	0.001955	53766.4	7.831710	-12.5298	481.498	1.260142	0.103217	0.102748	483.202	53766.4	0.096477	0.288176	1676.76	91507.2