File: remote_trans/data/nanoindenter/0828-1/data/Data_2025-08-06,11h17m57s/2025-07-22_16-23-58_1_1167.txt
2025-07-22, 16:23:58, 1
Index	Phase	Displacement	Time	Pos X	Pos Y	Pos Z	Rot A	Rot B	Piezo Z	Force A	Force B	Gripper	Voltage A	Voltage B	Temperature	Amplitude force	Amplitude pos	Stiffness	Phase shift	Phase excitation	Force A raw	Displacement raw	HMax	HMax raw	Real Force	Real Stiffness	Contact Depth	Area	Hardness	Reduced Mod.
[#]	[#]	[um]	[s]	[um]	[um]	[um]	[m°]	[m°]	[um]	[uN]	[uN]	[V]	[V]	[V]	[°C]	[uN]	[um]	[N/m]	[°]	[°]	[uN]	[um]	[um]	[um]	[uN]	[N/m]	[um]	[um^2]	[MPa]	[MPa]
1167	1.000000	0.002699	7.37646e+06	-57239.1	1105.82	-29737.1	0.000000	0.000000	6.002781	0.017083	NaN	0.000000	0.001640	0.001702	28.0824	0.090637	0.001033	87.783	-107.201	-162.361	-0.013012	0.001450	-1.066746	-1.067995	0.017083	87.783	-1.066892	-1.800648E+14	-9.486965E-17	NaN
1167	1.000000	0.010705	7.37646e+06	-57239.1	1105.82	-29737.1	0.000000	0.000000	6.010785	-0.004065	NaN	0.000000	0.001622	0.001648	28.082	0.100785	0.001143	88.1606	-120.325	-164.675	-0.026561	0.009321	-1.058740	-1.060125	-0.004065	88.1606	-1.058706	-1.397744E+14	2.908393E-17	NaN
1167	1.000000	0.018665	7.37646e+06	-57239.1	1105.82	-29737.1	0.000000	0.000000	6.018747	0.040319	NaN	0.000000	0.001602	0.001721	28.0822	0.080913	0.001618	49.9927	102.514	-170.14	0.044574	0.017392	-1.050780	-1.052053	0.040319	49.9927	-1.051385	-1.114367E+14	-3.618143E-16	NaN
1167	1.000000	0.026729	7.37646e+06	-57239.1	1105.82	-29737.1	0.000000	0.000000	6.026810	0.010355	NaN	0.000000	0.001589	0.001712	28.0825	0.076289	0.001718	44.4043	139.029	-163.606	-0.005010	0.025339	-1.042716	-1.044106	0.010355	44.4043	-1.042891	-8.567287E+13	-1.208674E-16	NaN
1167	1.000000	0.034671	7.37646e+06	-57239.1	1105.82	-29737.1	0.000000	0.000000	6.034749	-0.060527	NaN	0.000000	0.001634	0.001705	28.0823	0.148110	0.002035	72.7894	69.3649	-166.047	0.025599	0.033359	-1.034774	-1.036086	-0.060527	72.7894	-1.034150	-6.535833E+13	9.260782E-16	NaN
1167	1.000000	0.042665	7.37646e+06	-57239.1	1105.82	-29737.1	0.000000	0.000000	6.042751	0.133899	NaN	0.000000	0.001623	0.001727	28.082	0.097622	0.001902	51.3386	118.353	-166.785	0.018008	0.041385	-1.026780	-1.028060	0.133899	51.3386	-1.028736	-5.526841E+13	-2.422708E-15	NaN
1167	1.000000	0.050673	7.37646e+06	-57239.1	1105.82	-29737.1	0.000000	0.000000	6.050754	0.013850	NaN	0.000000	0.001640	0.001735	28.0819	0.084641	0.001976	42.8264	154.895	-166.758	7.414131E-6	0.049343	-1.018772	-1.020102	0.013850	42.8264	-1.019015	-4.089740E+13	-3.386596E-16	NaN
1167	1.000000	0.058646	7.37646e+06	-57239.1	1105.82	-29737.1	0.000000	0.000000	6.058725	-0.032424	NaN	0.000000	0.001623	0.001708	28.0826	0.028004	0.002112	13.2572	158.838	-166.927	-0.016022	0.057325	-1.010799	-1.012120	-0.032424	13.2572	-1.008965	-2.995344E+13	1.082474E-15	NaN
1167	1.000000	0.066659	7.37646e+06	-57239.1	1105.82	-29737.1	0.000000	0.000000	6.066740	0.031017	NaN	0.000000	0.001616	0.001685	28.0822	0.107716	0.002007	53.6627	-170.191	-167.41	-0.001286	0.065329	-1.002787	-1.004116	0.031017	53.6627	-1.003220	-2.506806E+13	-1.237328E-15	NaN
1167	1.000000	0.074679	7.37646e+06	-57239.1	1105.82	-29737.1	0.000000	0.000000	6.074760	0.030549	NaN	0.000000	0.001617	0.001703	28.082	0.049029	0.001838	26.6812	-127.03	-164.186	0.010024	0.073321	-0.994767	-0.996125	0.030549	26.6812	-0.995625	-1.980913E+13	-1.542150E-15	NaN
1167	1.000000	0.082661	7.37646e+06	-57239.1	1105.82	-29737.1	0.000000	0.000000	6.082741	-0.024460	NaN	0.000000	0.001628	0.001726	28.0817	0.026353	0.002087	12.6269	54.7092	-163.164	-0.041638	0.081386	-0.986784	-0.988059	-0.024460	12.6269	-0.985331	-1.439546E+13	1.699123E-15	NaN
1167	1.000000	0.090667	7.37646e+06	-57239.1	1105.82	-29737.1	0.000000	0.000000	6.090748	0.014617	NaN	0.000000	0.001594	0.001712	28.0806	0.028473	0.001954	14.5724	127.253	-167.413	-0.032709	0.089381	-0.978778	-0.980064	0.014617	14.5724	-0.979530	-1.202500E+13	-1.215582E-15	NaN
1167	1.000000	0.098664	7.37646e+06	-57239.1	1105.82	-29737.1	0.000000	0.000000	6.098745	0.009348	NaN	0.000000	0.001607	0.001704	28.0818	0.152827	0.002048	74.6245	69.0128	-165.788	0.019659	0.097392	-0.970781	-0.972053	0.009348	74.6245	-0.970875	-9.193081E+12	-1.016820E-15	NaN
1167	1.000000	0.106692	7.37646e+06	-57239.1	1105.82	-29737.1	0.000000	0.000000	6.106774	0.040298	NaN	0.000000	0.001625	0.001715	28.0807	0.063444	0.002081	30.4905	-40.1965	-167.047	0.007238	0.105360	-0.962753	-0.964085	0.040298	30.4905	-0.963745	-7.367987E+12	-5.469387E-15	NaN
1167	1.000000	0.114668	7.37646e+06	-57239.1	1105.82	-29737.1	0.000000	0.000000	6.114749	0.024928	NaN	0.000000	0.001633	0.001707	28.0807	0.011878	0.001961	6.056859	100.628	-167.272	0.047140	0.113330	-0.954777	-0.956115	0.024928	6.056859	-0.957864	-6.138668E+12	-4.060792E-15	NaN
1167	1.000000	0.122698	7.37646e+06	-57239.1	1105.82	-29737.1	0.000000	0.000000	6.122779	0.007769	NaN	0.000000	0.001601	0.001706	28.0806	0.042197	0.001889	22.3394	80.8187	-165.162	0.108981	0.121316	-0.946747	-0.948130	0.007769	22.3394	-0.947008	-4.382021E+12	-1.772994E-15	NaN
1167	1.000000	0.130706	7.37646e+06	-57239.1	1105.82	-29737.1	0.000000	0.000000	6.130786	-0.014499	NaN	0.000000	0.001633	0.001714	28.0804	0.045290	0.002023	22.3827	124.221	-164.981	-0.003696	0.129412	-0.938739	-0.940033	-0.014499	22.3827	-0.938253	-3.338614E+12	4.342841E-15	NaN
1167	1.000000	0.138675	7.37646e+06	-57239.1	1105.82	-29737.1	0.000000	0.000000	6.138755	0.001258	NaN	0.000000	0.001617	0.001693	28.0809	0.048199	0.002098	22.9781	54.2741	-168.608	-0.083863	0.137345	-0.930770	-0.932100	0.001258	22.9781	-0.930811	-2.649396E+12	-4.746895E-16	NaN
1167	1.000000	0.146684	7.37646e+06	-57239.1	1105.82	-29737.1	0.000000	0.000000	6.146763	-0.034860	NaN	0.000000	0.001609	0.001712	28.0806	0.035098	0.002024	17.3444	108.284	-166.149	-0.044213	0.145422	-0.922762	-0.924023	-0.034860	17.3444	-0.921254	-1.968513E+12	1.770885E-14	NaN
1167	1.000000	0.154680	7.37646e+06	-57239.1	1105.82	-29737.1	0.000000	0.000000	6.154763	0.058476	NaN	0.000000	0.001600	0.001691	28.081	0.041617	0.002026	20.5428	-121.776	-168.662	0.017463	0.153423	-0.914766	-0.916022	0.058476	20.5428	-0.916900	-1.719311E+12	-3.401143E-14	NaN
1167	1.000000	0.162699	7.37646e+06	-57239.1	1105.82	-29737.1	0.000000	0.000000	6.162778	-0.019135	NaN	0.000000	0.001640	0.001680	28.0806	0.041145	0.001937	21.2434	-106.601	-167.015	-0.013472	0.161413	-0.906747	-0.908032	-0.019135	21.2434	-0.906071	-1.227694E+12	1.558641E-14	NaN
1167	1.000000	0.170698	7.37646e+06	-57239.1	1105.82	-29737.1	0.000000	0.000000	6.170779	-0.010535	NaN	0.000000	0.001622	0.001728	28.0807	0.033503	0.001987	16.8626	44.7226	-166.242	-0.005679	0.169398	-0.898747	-0.900047	-0.010535	16.8626	-0.898278	-9.633832E+11	1.093559E-14	NaN
1167	1.000000	0.178709	7.37647e+06	-57239.1	1105.82	-29737.1	0.000000	0.000000	6.178786	-0.078471	NaN	0.000000	0.001644	0.001713	28.0807	0.073639	0.002030	36.2745	-71.9818	-167.446	-0.013318	0.177408	-0.890737	-0.892037	-0.078471	36.2745	-0.889114	-7.243387E+11	1.083344E-13	NaN
1167	1.000000	0.186712	7.37647e+06	-57239.1	1105.82	-29737.1	0.000000	0.000000	6.186792	-0.021125	NaN	0.000000	0.001633	0.001711	28.0805	0.060336	0.001929	31.2709	-177.256	-164.341	0.012980	0.185384	-0.882733	-0.884061	-0.021125	31.2709	-0.882227	-5.845449E+11	3.613977E-14	NaN
1167	1.000000	0.194725	7.37647e+06	-57239.1	1105.82	-29737.1	0.000000	0.000000	6.194806	0.013181	NaN	0.000000	0.001645	0.001695	28.0808	0.047687	0.001907	25.0015	42.7471	-165.008	0.034097	0.193386	-0.874720	-0.876059	0.013181	25.0015	-0.875115	-4.684277E+11	-2.813843E-14	NaN
1167	1.000000	0.202737	7.37647e+06	-57239.1	1105.82	-29737.1	0.000000	0.000000	6.202820	0.069418	NaN	0.000000	0.001610	0.001694	28.0804	0.116428	0.001970	59.1059	133.445	-165.367	0.026237	0.201419	-0.866708	-0.868026	0.069418	59.1059	-0.867589	-3.705308E+11	-1.873464E-13	NaN
1167	1.000000	0.210756	7.37647e+06	-57239.1	1105.82	-29737.1	0.000000	0.000000	6.210834	-0.063024	NaN	0.000000	0.001662	0.001714	28.0807	0.026330	0.002076	12.6819	-24.4968	-168.07	-0.055741	0.209486	-0.858689	-0.859960	-0.063024	12.6819	-0.854962	-2.499900E+11	2.521076E-13	NaN
1167	1.000000	0.218724	7.37647e+06	-57239.1	1105.82	-29737.1	0.000000	0.000000	6.218804	-0.010117	NaN	0.000000	0.001650	0.001696	28.0805	0.109213	0.002046	53.3773	-172.048	-165.704	0.047610	0.217425	-0.850721	-0.852020	-0.010117	53.3773	-0.850579	-2.180610E+11	4.639551E-14	NaN
1167	1.000000	0.226756	7.37647e+06	-57239.1	1105.82	-29737.1	0.000000	0.000000	6.226835	-0.045901	NaN	0.000000	0.001640	0.001712	28.0817	0.029287	0.002023	14.477	-146.367	-163.289	-0.019600	0.225435	-0.842689	-0.844010	-0.045901	14.477	-0.840311	-1.583088E+11	2.899428E-13	NaN
1167	1.000000	0.234736	7.37647e+06	-57239.1	1105.82	-29737.1	0.000000	0.000000	6.234819	0.062684	NaN	0.000000	0.001628	0.001709	28.0818	0.009795	0.002101	4.661679	-0.697181	-162.63	0.029523	0.233366	-0.834709	-0.836079	0.062684	4.661679	-0.844794	-1.820689E+11	-3.442865E-13	NaN
1167	1.000000	0.242749	7.37647e+06	-57239.1	1105.82	-29737.1	0.000000	0.000000	6.242828	-0.044242	NaN	0.000000	0.001587	0.001702	28.0819	0.022128	0.001907	11.6044	86.2412	-162.537	-0.036007	0.241419	-0.826696	-0.828026	-0.044242	11.6044	-0.823837	-9.467426E+10	4.673099E-13	NaN
1167	1.000000	0.250761	7.37647e+06	-57239.1	1105.82	-29737.1	0.000000	0.000000	6.250843	0.022762	NaN	0.000000	0.001589	0.001699	28.0822	0.058211	0.001927	30.2138	14.2803	-165.274	0.017935	0.249400	-0.818684	-0.820046	0.022762	30.2138	-0.819249	-8.203987E+10	-2.774540E-13	NaN
1167	1.000000	0.258766	7.37647e+06	-57239.1	1105.82	-29737.1	0.000000	0.000000	6.258846	-0.001648	NaN	0.000000	0.001644	0.001705	28.0819	0.090433	0.001993	45.3866	126.658	-163.196	0.009860	0.257432	-0.810679	-0.812013	-0.001648	45.3866	-0.810652	-6.272168E+10	2.627464E-14	NaN
1167	1.000000	0.266750	7.37647e+06	-57239.1	1105.82	-29737.1	0.000000	0.000000	6.266833	0.073130	NaN	0.000000	0.001573	0.001698	28.0818	0.131589	0.001980	66.4551	134.016	-166.691	0.030590	0.265475	-0.802695	-0.803970	0.073130	66.4551	-0.803521	-5.019369E+10	-1.456948E-12	NaN
1167	1.000000	0.274765	7.37647e+06	-57239.1	1105.82	-29737.1	0.000000	0.000000	6.274847	0.047669	NaN	0.000000	0.001592	0.001708	28.0818	0.136116	0.002001	68.0168	-159.714	-163.606	0.057606	0.273421	-0.794680	-0.796024	0.047669	68.0168	-0.795206	-3.870583E+10	-1.231567E-12	NaN
1167	1.000000	0.282755	7.37647e+06	-57239.1	1105.82	-29737.1	0.000000	0.000000	6.282835	-0.012274	NaN	0.000000	0.001625	0.001661	28.0817	0.100147	0.002019	49.6062	-77.0927	-166.345	0.022247	0.281473	-0.786690	-0.787972	-0.012274	49.6062	-0.786504	-2.948503E+10	4.162896E-13	NaN
1167	1.000000	0.290784	7.37647e+06	-57239.1	1105.82	-29737.1	0.000000	0.000000	6.290866	0.034619	NaN	0.000000	0.001634	0.001680	28.082	0.085152	0.002101	40.5278	-43.9776	-165.507	-0.043927	0.289440	-0.778661	-0.780005	0.034619	40.5278	-0.779302	-2.353655E+10	-1.470873E-12	NaN
1167	1.000000	0.298741	7.37647e+06	-57239.1	1105.82	-29737.1	0.000000	0.000000	6.298820	-0.056004	NaN	0.000000	0.001644	0.001648	28.0819	0.065798	0.001964	33.4963	-113.681	-166.945	0.002434	0.297460	-0.770704	-0.771985	-0.056004	33.4963	-0.769450	-1.729118E+10	3.238860E-12	NaN
1167	1.000000	0.306800	7.37647e+06	-57239.1	1105.82	-29737.1	0.000000	0.000000	6.306881	0.023643	NaN	0.000000	0.001608	0.001664	28.0822	0.031803	0.002070	15.364	-172.088	-166.228	0.025822	0.305442	-0.762645	-0.764003	0.023643	15.364	-0.763799	-1.448723E+10	-1.631964E-12	NaN
1167	1.000000	0.314776	7.37647e+06	-57239.1	1105.82	-29737.1	0.000000	0.000000	6.314858	0.020823	NaN	0.000000	0.001628	0.001656	28.0821	0.115178	0.002078	55.4353	-9.426306	-166.223	-0.065943	0.313491	-0.754669	-0.755954	0.020823	55.4353	-0.754950	-1.097988E+10	-1.896472E-12	NaN
1167	1.000000	0.322774	7.37647e+06	-57239.1	1105.82	-29737.1	0.000000	0.000000	6.322852	-0.043033	NaN	0.000000	0.001643	0.001633	28.0821	0.098115	0.001915	51.2328	-50.7362	-165.501	-0.054255	0.321472	-0.746672	-0.747973	-0.043033	51.2328	-0.746042	-8.304840E+9	5.181670E-12	NaN
1167	1.000000	0.330791	7.37647e+06	-57239.1	1105.82	-29737.1	0.000000	0.000000	6.330872	0.009713	NaN	0.000000	0.001663	0.001676	28.0821	0.044368	0.001939	22.8818	142.067	-167.336	-0.020124	0.329488	-0.738654	-0.739958	0.009713	22.8818	-0.738973	-6.653680E+9	-1.459780E-12	NaN
1167	1.000000	0.338817	7.37647e+06	-57239.1	1105.82	-29737.1	0.000000	0.000000	6.338899	0.019998	NaN	0.000000	0.001657	0.001678	28.0818	0.047347	0.001992	23.7657	36.9784	-166.132	-0.013560	0.337506	-0.730628	-0.731939	0.019998	23.7657	-0.731259	-5.223542E+9	-3.828375E-12	NaN
1167	1.000000	0.346795	7.37647e+06	-57239.1	1105.82	-29737.1	0.000000	0.000000	6.346876	0.019163	NaN	0.000000	0.001645	0.001715	28.0823	0.081026	0.002003	40.4544	55.305	-170.572	0.013168	0.345502	-0.722650	-0.723943	0.019163	40.4544	-0.723006	-4.031448E+9	-4.753305E-12	NaN
1167	1.000000	0.354780	7.37647e+06	-57239.1	1105.82	-29737.1	0.000000	0.000000	6.354862	0.039959	NaN	0.000000	0.001626	0.001718	28.082	0.075321	0.001920	39.2325	-28.9136	-166.058	-0.001886	0.353513	-0.714665	-0.715932	0.039959	39.2325	-0.715429	-3.177785E+9	-1.257461E-11	NaN
1167	1.000000	0.362788	7.37647e+06	-57239.1	1105.82	-29737.1	0.000000	0.000000	6.362869	0.018086	NaN	0.000000	0.001641	0.001692	28.0809	0.096673	0.002017	47.9267	4.638970	-165.037	0.027176	0.361468	-0.706657	-0.707977	0.018086	47.9267	-0.706940	-2.433820E+9	-7.431169E-12	NaN
1167	1.000000	0.370798	7.37647e+06	-57239.1	1105.82	-29737.1	0.000000	0.000000	6.370879	0.015776	NaN	0.000000	0.001639	0.001694	28.0808	0.020180	0.001993	10.1275	72.5652	-168.417	-0.000501	0.369498	-0.698647	-0.699947	0.015776	10.1275	-0.699815	-1.945412E+9	-8.109266E-12	NaN
1167	1.000000	0.378838	7.37647e+06	-57239.1	1105.82	-29737.1	0.000000	0.000000	6.378920	0.037871	NaN	0.000000	0.001655	0.001717	28.0807	0.080215	0.002105	38.1005	-150.231	-166.715	0.072100	0.377530	-0.690607	-0.691916	0.037871	38.1005	-0.691353	-1.490741E+9	-2.540436E-11	NaN
1167	1.000000	0.386793	7.37647e+06	-57239.1	1105.82	-29737.1	0.000000	0.000000	6.386874	0.002233	NaN	0.000000	0.001659	0.001743	28.0809	0.079311	0.002062	38.4648	-75.6599	-164.727	0.015301	0.385533	-0.682652	-0.683912	0.002233	38.4648	-0.682695	-1.135181E+9	-1.966673E-12	NaN
1167	1.000000	0.394814	7.37647e+06	-57239.1	1105.82	-29737.1	0.000000	0.000000	6.394895	-0.008488	NaN	0.000000	0.001651	0.001706	28.0805	0.123133	0.001952	63.0906	51.9174	-165.181	0.087744	0.393509	-0.674631	-0.675936	-0.008488	63.0906	-0.674530	-8.777660E+8	9.670022E-12	NaN
1167	1.000000	0.402808	7.37647e+06	-57239.1	1105.82	-29737.1	0.000000	0.000000	6.402887	-0.014329	NaN	0.000000	0.001588	0.001721	28.0807	0.105274	0.002053	51.2762	-23.6228	-165.021	0.009197	0.401520	-0.666638	-0.667925	-0.014329	51.2762	-0.666428	-6.799782E+8	2.107326E-11	NaN
1167	1.000000	0.410843	7.37647e+06	-57239.1	1105.82	-29737.1	0.000000	0.000000	6.410924	0.004124	NaN	0.000000	0.001628	0.001715	28.0805	0.057375	0.001945	29.5011	-38.6644	-166.845	-0.015130	0.409501	-0.658602	-0.659944	0.004124	29.5011	-0.658707	-5.330310E+8	-7.736255E-12	NaN
1167	1.000000	0.418828	7.37647e+06	-57239.1	1105.82	-29737.1	0.000000	0.000000	6.418911	0.043207	NaN	0.000000	0.001610	0.001711	28.0808	0.036910	0.002041	18.0839	-139.547	-169.327	0.084852	0.417491	-0.650617	-0.651955	0.043207	18.0839	-0.652409	-4.369729E+8	-9.887759E-11	NaN
1167	1.000000	0.426831	7.37647e+06	-57239.1	1105.82	-29737.1	0.000000	0.000000	6.426912	0.025685	NaN	0.000000	0.001619	0.001720	28.0808	0.075606	0.002013	37.5499	-33.7629	-165.61	-0.037147	0.425510	-0.642615	-0.643935	0.025685	37.5499	-0.643128	-3.259835E+8	-7.879179E-11	NaN
1167	1.000000	0.434836	7.37647e+06	-57239.1	1105.82	-29737.1	0.000000	0.000000	6.434918	0.040602	NaN	0.000000	0.001623	0.001703	28.0805	0.022776	0.001958	11.6348	-8.111493	-165.209	-0.007273	0.433538	-0.634610	-0.635907	0.040602	11.6348	-0.637227	-2.705430E+8	-1.500759E-10	NaN
1167	1.000000	0.442814	7.37647e+06	-57239.1	1105.82	-29737.1	0.000000	0.000000	6.442893	-0.034889	NaN	0.000000	0.001617	0.001708	28.0806	0.029526	0.002084	14.1656	165.549	-163.657	-0.049702	0.441561	-0.626631	-0.627885	-0.034889	14.1656	-0.624784	-1.825485E+8	1.911229E-10	NaN
1167	1.000000	0.450820	7.37647e+06	-57239.1	1105.82	-29737.1	0.000000	0.000000	6.450901	0.024526	NaN	0.000000	0.001617	0.001715	28.0806	0.027343	0.001931	14.1578	84.2683	-163.024	-0.004050	0.449516	-0.618625	-0.619929	0.024526	14.1578	-0.619925	-1.565296E+8	-1.566834E-10	NaN
1167	1.000000	0.458817	7.37647e+06	-57239.1	1105.82	-29737.1	0.000000	0.000000	6.458902	0.111219	NaN	0.000000	0.001596	0.001734	28.0809	0.094416	0.002028	46.5449	144.413	-165.69	0.130239	0.457502	-0.610628	-0.611943	0.111219	46.5449	-0.612420	-1.234255E+8	-9.011048E-10	NaN
1167	1.000000	0.466855	7.37647e+06	-57239.1	1105.82	-29737.1	0.000000	0.000000	6.466933	-0.057965	NaN	0.000000	0.001634	0.001683	28.0806	0.050054	0.002034	24.6064	110.467	-163.233	-0.000222	0.465575	-0.602590	-0.603870	-0.057965	24.6064	-0.600824	-8.546816E+7	6.782073E-10	NaN
1167	1.000000	0.474838	7.37647e+06	-57239.1	1105.82	-29737.1	0.000000	0.000000	6.474917	-0.051194	NaN	0.000000	0.001599	0.001673	28.0807	0.036339	0.001952	18.617	-137.126	-165.21	0.002762	0.473602	-0.594607	-0.595844	-0.051194	18.617	-0.592544	-6.572634E+7	7.788934E-10	NaN
1167	1.000000	0.482826	7.37647e+06	-57239.1	1105.82	-29737.1	0.000000	0.000000	6.482909	0.051121	NaN	0.000000	0.001623	0.001696	28.0807	0.056419	0.002025	27.8641	-111.353	-168.764	0.012890	0.481554	-0.586619	-0.587891	0.051121	27.8641	-0.587995	-5.688855E+7	-8.986199E-10	NaN
1167	1.000000	0.490850	7.37647e+06	-57239.1	1105.82	-29737.1	0.000000	0.000000	6.490929	-0.029405	NaN	0.000000	0.001589	0.001716	28.0806	0.026892	0.002111	12.739	-59.5852	-167.633	-0.003271	0.489556	-0.578595	-0.579889	-0.029405	12.739	-0.576864	-3.994243E+7	7.361960E-10	NaN
1167	1.000000	0.498867	7.37647e+06	-57239.1	1105.82	-29737.1	0.000000	0.000000	6.498948	0.003867	NaN	0.000000	0.001613	0.001737	28.0818	0.076157	0.001987	38.3241	89.1192	-164.891	0.014600	0.497572	-0.570578	-0.571873	0.003867	38.3241	-0.570653	-3.278393E+7	-1.179494E-10	NaN
1167	1.000000	0.506889	7.37647e+06	-57239.1	1105.82	-29737.1	0.000000	0.000000	6.506972	0.063779	NaN	0.000000	0.001604	0.001719	28.082	0.027483	0.001973	13.9296	161.987	-167.062	0.097505	0.505588	-0.562556	-0.563857	0.063779	13.9296	-0.565990	-2.826255E+7	-2.256645E-9	NaN
1167	1.000000	0.514858	7.37647e+06	-57239.1	1105.82	-29737.1	0.000000	0.000000	6.514938	-0.014233	NaN	0.000000	0.001622	0.001674	28.0822	0.050826	0.001950	26.0709	143.243	-167.612	0.028955	0.513558	-0.554587	-0.555887	-0.014233	26.0709	-0.554178	-1.940019E+7	7.336440E-10	NaN
1167	1.000000	0.522856	7.37647e+06	-57239.1	1105.82	-29737.1	0.000000	0.000000	6.522938	0.039350	NaN	0.000000	0.001630	0.001691	28.0821	0.044480	0.002009	22.1405	109.995	-167.84	0.021117	0.521529	-0.546589	-0.547917	0.039350	22.1405	-0.547922	-1.589165E+7	-2.476171E-9	NaN
1167	1.000000	0.530879	7.37647e+06	-57239.1	1105.82	-29737.1	0.000000	0.000000	6.530960	0.010130	NaN	0.000000	0.001598	0.001695	28.0822	0.145038	0.001984	73.0874	-22.42	-165.447	0.081830	0.529485	-0.538566	-0.539960	0.010130	73.0874	-0.538670	-1.182793E+7	-8.564616E-10	NaN
1167	1.000000	0.538889	7.37647e+06	-57239.1	1105.82	-29737.1	0.000000	0.000000	6.538970	0.019292	NaN	0.000000	0.001608	0.001682	28.0819	0.031736	0.002042	15.5419	-2.649648	-167.44	0.033821	0.537587	-0.530557	-0.531858	0.019292	15.5419	-0.531488	-9.40228e+06	-2.051825E-9	NaN
1167	1.000000	0.546873	7.37647e+06	-57239.1	1105.82	-29737.1	0.000000	0.000000	6.546956	0.064734	NaN	0.000000	0.001602	0.001676	28.0821	0.046245	0.001885	24.5319	-83.1471	-165.49	0.117289	0.545579	-0.522572	-0.523866	0.064734	24.5319	-0.524551	-7.53136e+06	-8.595252E-9	NaN
1167	1.000000	0.554865	7.37647e+06	-57239.1	1105.82	-29737.1	0.000000	0.000000	6.554947	0.029805	NaN	0.000000	0.001637	0.001706	28.082	0.066968	0.002102	31.8648	122.844	-163.373	-0.018271	0.553579	-0.514580	-0.515866	0.029805	31.8648	-0.515282	-5.59698e+06	-5.325276E-9	NaN
1167	1.000000	0.562893	7.37647e+06	-57239.1	1105.82	-29737.1	0.000000	0.000000	6.562973	-0.013689	NaN	0.000000	0.001650	0.001679	28.082	0.029466	0.001957	15.0546	-152.591	-167.977	-0.032372	0.561566	-0.506553	-0.507880	-0.013689	15.0546	-0.505871	-4.13885e+06	3.307544E-9	NaN
1167	1.000000	0.570895	7.37647e+06	-57239.1	1105.82	-29737.1	0.000000	0.000000	6.570977	0.013819	NaN	0.000000	0.001640	0.001687	28.0823	0.059825	0.001780	33.6123	30.4171	-167.451	-0.010344	0.569601	-0.498550	-0.499845	0.013819	33.6123	-0.498858	-3.30435e+06	-4.182128E-9	NaN
1167	1.000000	0.578879	7.37647e+06	-57239.1	1105.82	-29737.1	0.000000	0.000000	6.578957	-0.048005	NaN	0.000000	0.001674	0.001705	28.0823	0.094951	0.001959	48.4701	-4.218545	-167.187	-0.005718	0.577556	-0.490567	-0.491889	-0.048005	48.4701	-0.489824	-2.47133e+06	1.942494E-8	NaN
1167	1.000000	0.586913	7.37647e+06	-57239.1	1105.82	-29737.1	0.000000	0.000000	6.586994	0.004759	NaN	0.000000	0.001639	0.001705	28.0823	0.180003	0.002164	83.1865	-177.113	-168.922	-0.093403	0.585576	-0.482532	-0.483870	0.004759	83.1865	-0.482575	-1.95688e+06	-2.432071E-9	NaN
1167	1.000000	0.594858	7.37647e+06	-57239.1	1105.82	-29737.1	0.000000	0.000000	6.594938	-0.020511	NaN	0.000000	0.001575	0.001692	28.0819	0.115695	0.002105	54.9646	23.0823	-164.736	-0.035009	0.593546	-0.474587	-0.475899	-0.020511	54.9646	-0.474307	-1.49896e+06	1.368346E-8	NaN
1167	1.000000	0.602882	7.37647e+06	-57239.1	1105.82	-29737.1	0.000000	0.000000	6.602961	-0.054791	NaN	0.000000	0.001571	0.001697	28.0822	0.080477	0.002013	39.976	-42.2422	-166.149	-0.100751	0.601579	-0.466563	-0.467866	-0.054791	39.976	-0.465535	-1.12916e+06	4.852406E-8	NaN
1167	1.000000	0.610903	7.37647e+06	-57239.1	1105.82	-29737.1	0.000000	0.000000	6.610985	0.039886	NaN	0.000000	0.001573	0.001702	28.082	0.018980	0.002040	9.305527	-89.3701	-169.955	0.002923	0.609644	-0.458542	-0.459801	0.039886	9.305527	-0.461757	-999320	-3.991345E-8	NaN
1167	1.000000	0.618920	7.37647e+06	-57239.1	1105.82	-29737.1	0.000000	0.000000	6.619003	0.057459	NaN	0.000000	0.001568	0.001693	28.0821	0.067334	0.002064	32.6161	-134.583	-166.444	0.045606	0.617548	-0.450525	-0.451897	0.057459	32.6161	-0.451847	-725008	-7.925251E-8	NaN
1167	1.000000	0.626900	7.37647e+06	-57239.1	1105.82	-29737.1	0.000000	0.000000	6.626980	-0.017087	NaN	0.000000	0.001629	0.001707	28.0822	0.024352	0.002027	12.0145	158.087	-167.186	0.019706	0.625680	-0.442545	-0.443765	-0.017087	12.0145	-0.441478	-517873	3.299512E-8	NaN
1167	1.000000	0.634920	7.37647e+06	-57239.1	1105.82	-29737.1	0.000000	0.000000	6.635000	-0.007291	NaN	0.000000	0.001586	0.001694	28.0813	0.062981	0.002062	30.5485	119.008	-163.309	0.037420	0.633672	-0.434525	-0.435773	-0.007291	30.5485	-0.434346	-410690	1.775325E-8	NaN
1167	1.000000	0.642910	7.37647e+06	-57239.1	1105.82	-29737.1	0.000000	0.000000	6.642988	-0.069274	NaN	0.000000	0.001636	0.001693	28.0809	0.018403	0.001980	9.292638	-174.757	-166.428	-0.058474	0.641599	-0.426535	-0.427846	-0.069274	9.292638	-0.420944	-265342	2.610738E-7	NaN
1167	1.000000	0.650913	7.37647e+06	-57239.1	1105.82	-29737.1	0.000000	0.000000	6.650997	0.086023	NaN	0.000000	0.001616	0.001696	28.0809	0.025807	0.001941	13.2928	177.827	-163.72	0.018829	0.649578	-0.418532	-0.419867	0.086023	13.2928	-0.423385	-287348	-2.993707E-7	NaN
1167	1.000000	0.658923	7.37647e+06	-57239.1	1105.82	-29737.1	0.000000	0.000000	6.659003	-0.027280	NaN	0.000000	0.001610	0.001689	28.081	0.103406	0.002031	50.9072	161.456	-169.279	-0.024526	0.657617	-0.410522	-0.411828	-0.027280	50.9072	-0.410120	-186255	1.464685E-7	NaN
1167	1.000000	0.666916	7.37647e+06	-57239.1	1105.82	-29737.1	0.000000	0.000000	6.666999	0.077364	NaN	0.000000	0.001648	0.001680	28.081	0.038653	0.001963	19.6923	75.6721	-167.577	0.006672	0.665643	-0.402530	-0.403802	0.077364	19.6923	-0.405476	-159966	-4.836286E-7	NaN
1167	1.000000	0.674933	7.37647e+06	-57239.1	1105.82	-29737.1	0.000000	0.000000	6.675020	0.138863	NaN	0.000000	0.001662	0.001694	28.0811	0.038254	0.001929	19.8293	14.3859	-166.127	0.098604	0.673565	-0.394512	-0.395881	0.138863	19.8293	-0.399764	-132626	-1.047033E-6	NaN
1167	1.000000	0.682905	7.37647e+06	-57239.1	1105.82	-29737.1	0.000000	0.000000	6.682985	-0.006282	NaN	0.000000	0.001624	0.001676	28.0811	0.048747	0.001843	26.4514	-91.6442	-160.212	-0.015606	0.681651	-0.386540	-0.387795	-0.006282	26.4514	-0.386362	-85329.5	7.362547E-8	NaN
1167	1.000000	0.690911	7.37647e+06	-57239.1	1105.82	-29737.1	0.000000	0.000000	6.690992	0.017753	NaN	0.000000	0.001610	0.001685	28.0807	0.106015	0.001995	53.1484	160.136	-163.102	-0.031073	0.689573	-0.378534	-0.379872	0.017753	53.1484	-0.378785	-66442.5	-2.671876E-7	NaN
1167	1.000000	0.698931	7.37647e+06	-57239.1	1105.82	-29737.1	0.000000	0.000000	6.699012	0.023568	NaN	0.000000	0.001673	0.001691	28.0809	0.052068	0.002073	25.116	98.7113	-164.978	-0.033405	0.697658	-0.370514	-0.371788	0.023568	25.116	-0.371218	-51721	-4.556688E-7	NaN
1167	1.000000	0.706909	7.37647e+06	-57239.1	1105.82	-29737.1	0.000000	0.000000	6.706992	0.048643	NaN	0.000000	0.001636	0.001695	28.0808	0.093052	0.001994	46.6749	145.624	-164.15	0.020653	0.705601	-0.362536	-0.363844	0.048643	46.6749	-0.363318	-39790.1	-1.222500E-6	NaN
1167	1.000000	0.714949	7.37647e+06	-57239.1	1105.82	-29737.1	0.000000	0.000000	6.715030	0.016566	NaN	0.000000	0.001660	0.001727	28.0808	0.065353	0.001897	34.4471	117.637	-164.392	0.048316	0.713634	-0.354497	-0.355811	0.016566	34.4471	-0.354857	-30021.3	-5.518208E-7	NaN
1167	1.000000	0.722972	7.37647e+06	-57239.1	1105.82	-29737.1	0.000000	0.000000	6.723053	0.025651	NaN	0.000000	0.001631	0.001715	28.0819	0.149049	0.002032	73.36	-162.107	-162.696	0.014214	0.721663	-0.346473	-0.347782	0.025651	73.36	-0.346736	-22887.1	-1.120761E-6	NaN
1167	1.000000	0.730956	7.37647e+06	-57239.1	1105.82	-29737.1	0.000000	0.000000	6.731041	0.105977	NaN	0.000000	0.001653	0.001706	28.0808	0.111885	0.002012	55.6183	7.399092	-163.369	0.062509	0.729624	-0.338489	-0.339821	0.105977	55.6183	-0.339918	-18212.3	-5.818994E-6	NaN
1167	1.000000	0.738978	7.37647e+06	-57239.1	1105.82	-29737.1	0.000000	0.000000	6.739060	0.025250	NaN	0.000000	0.001698	0.001704	28.0807	0.106497	0.002059	51.7236	-142.803	-167.441	-0.003881	0.737608	-0.330467	-0.331837	0.025250	51.7236	-0.330833	-13416.8	-1.881936E-6	NaN
1167	1.000000	0.746953	7.37647e+06	-57239.1	1105.82	-29737.1	0.000000	0.000000	6.747034	-0.001923	NaN	0.000000	0.001662	0.001735	28.0807	0.090442	0.001942	46.5605	-95.2204	-168.422	-0.026631	0.745709	-0.322492	-0.323736	-0.001923	46.5605	-0.322461	-10112	1.901644E-7	NaN
1167	1.000000	0.755005	7.37647e+06	-57239.1	1105.82	-29737.1	0.000000	0.000000	6.755086	-6.652785E-5	NaN	0.000000	0.001684	0.001678	28.0806	0.020691	0.001991	10.3941	175.793	-167.662	-0.005936	0.753680	-0.314440	-0.315766	-6.652785E-5	10.3941	-0.314435	-7702.09	8.637641E-9	NaN
1167	1.000000	0.762957	7.37647e+06	-57239.1	1105.82	-29737.1	0.000000	0.000000	6.763037	-0.006728	NaN	0.000000	0.001644	0.001693	28.0807	0.111608	0.002022	55.2014	90.8553	-169.661	0.064381	0.761686	-0.306488	-0.307759	-0.006728	55.2014	-0.306397	-5857.06	1.148771E-6	NaN
1167	1.000000	0.770992	7.37647e+06	-57239.1	1105.82	-29737.1	0.000000	0.000000	6.771075	0.050575	NaN	0.000000	0.001654	0.001721	28.0814	0.097694	0.002037	47.964	136.441	-163.366	0.072537	0.769663	-0.298453	-0.299782	0.050575	47.964	-0.299244	-4585.38	-1.102956E-5	NaN
1167	1.000000	0.778977	7.37647e+06	-57239.1	1105.82	-29737.1	0.000000	0.000000	6.779056	-0.052782	NaN	0.000000	0.001685	0.001742	28.0822	0.055404	0.001948	28.4363	122.391	-163.207	0.051173	0.777675	-0.290468	-0.291770	-0.052782	28.4363	-0.289076	-3231.86	1.633166E-5	NaN
1167	1.000000	0.786986	7.37647e+06	-57239.1	1105.82	-29737.1	0.000000	0.000000	6.787066	-0.001146	NaN	0.000000	0.001692	0.001723	28.0817	0.052847	0.002086	25.3323	102.936	-165.501	-0.082027	0.785633	-0.282459	-0.283812	-0.001146	25.3323	-0.282426	-2567.62	4.461665E-7	NaN
1167	1.000000	0.794975	7.37647e+06	-57239.1	1105.82	-29737.1	0.000000	0.000000	6.795057	0.050103	NaN	0.000000	0.001681	0.001743	28.0818	0.077566	0.002051	37.8185	97.517	-168.424	0.018931	0.793660	-0.274470	-0.275785	0.050103	37.8185	-0.275464	-2015.7	-2.485619E-5	NaN
1167	1.000000	0.802977	7.37647e+06	-57239.1	1105.82	-29737.1	0.000000	0.000000	6.803057	-0.024036	NaN	0.000000	0.001699	0.001699	28.0819	0.058901	0.002027	29.0592	168.373	-166.124	-0.116927	0.801698	-0.266468	-0.267747	-0.024036	29.0592	-0.265848	-1439.86	1.669324E-5	NaN
1167	1.000000	0.810963	7.37647e+06	-57239.1	1105.82	-29737.1	0.000000	0.000000	6.811045	0.044444	NaN	0.000000	0.001649	0.001717	28.082	0.053800	0.002055	26.1785	131.328	-166.544	-0.022555	0.809659	-0.258483	-0.259787	0.044444	26.1785	-0.259756	-1161.92	-3.825024E-5	NaN
1167	1.000000	0.818978	7.37647e+06	-57239.1	1105.82	-29737.1	0.000000	0.000000	6.819060	0.028401	NaN	0.000000	0.001646	0.001709	28.0822	0.022525	0.001891	11.9098	-12.8093	-166.104	0.013597	0.817653	-0.250467	-0.251792	0.028401	11.9098	-0.252256	-890.87	-3.188050E-5	NaN
1167	1.000000	0.826996	7.37647e+06	-57239.1	1105.82	-29737.1	0.000000	0.000000	6.827078	0.028668	NaN	0.000000	0.001592	0.001673	28.0819	0.052887	0.001983	26.6681	23.1438	-164.1	0.022036	0.825749	-0.242449	-0.243697	0.028668	26.6681	-0.243256	-646.128	-4.436912E-5	NaN
1167	1.000000	0.834967	7.37647e+06	-57239.1	1105.82	-29737.1	0.000000	0.000000	6.835050	0.040075	NaN	0.000000	0.001621	0.001723	28.0823	0.050194	0.002073	24.2075	-69.654	-164.246	0.001603	0.833629	-0.234478	-0.235816	0.040075	24.2075	-0.235719	-492.653	-8.134532E-5	NaN
1167	1.000000	0.843006	7.37647e+06	-57239.1	1105.82	-29737.1	0.000000	0.000000	6.843086	-0.007779	NaN	0.000000	0.001636	0.001703	28.0819	0.059683	0.001998	29.8715	-93.3189	-168.684	-0.089206	0.841619	-0.226439	-0.227826	-0.007779	29.8715	-0.226244	-349.198	2.227777E-5	NaN
1167	1.000000	0.851018	7.37647e+06	-57239.1	1105.82	-29737.1	0.000000	0.000000	6.851099	0.015916	NaN	0.000000	0.001595	0.001716	28.0817	0.039713	0.002093	18.9712	18.0927	-168.634	0.013111	0.849697	-0.218427	-0.219748	0.015916	18.9712	-0.219057	-268.282	-5.932608E-5	NaN
1167	1.000000	0.858985	7.37647e+06	-57239.1	1105.82	-29737.1	0.000000	0.000000	6.859067	0.022629	NaN	0.000000	0.001593	0.001716	28.0819	0.018247	0.002058	8.868402	-162.894	-164.003	0.068285	0.857708	-0.210460	-0.211737	0.022629	8.868402	-0.212373	-209.504	-0.000108	NaN
1167	1.000000	0.867007	7.37647e+06	-57239.1	1105.82	-29737.1	0.000000	0.000000	6.867088	0.002305	NaN	0.000000	0.001586	0.001734	28.082	0.068133	0.002073	32.8614	-93.3816	-163.707	0.039747	0.865667	-0.202438	-0.203778	0.002305	32.8614	-0.202490	-144.727	-1.592722E-5	NaN
1167	1.000000	0.875009	7.37647e+06	-57239.1	1105.82	-29737.1	0.000000	0.000000	6.875095	0.114394	NaN	0.000000	0.001608	0.001716	28.082	0.065424	0.002047	31.9655	51.18	-166.103	0.036277	0.873673	-0.194436	-0.195772	0.114394	31.9655	-0.197120	-118.102	-0.000969	NaN
1167	1.000000	0.883012	7.37647e+06	-57239.1	1105.82	-29737.1	0.000000	0.000000	6.883094	0.031672	NaN	0.000000	0.001602	0.001722	28.0819	0.099024	0.001999	49.544	125.393	-169.393	-0.061024	0.881695	-0.186433	-0.187750	0.031672	49.544	-0.186913	-79.8572	-0.000397	NaN
1167	1.000000	0.891015	7.37647e+06	-57239.1	1105.82	-29737.1	0.000000	0.000000	6.891097	0.041823	NaN	0.000000	0.001665	0.001687	28.082	0.081492	0.001980	41.1524	-75.7314	-166.455	-0.025316	0.889647	-0.178430	-0.179798	0.041823	41.1524	-0.179193	-59.118	-0.000707	NaN
1167	1.000000	0.899007	7.37647e+06	-57239.1	1105.82	-29737.1	0.000000	0.000000	6.899089	0.034663	NaN	0.000000	0.001637	0.001699	28.0821	0.062280	0.002007	31.0241	-165.756	-166.636	0.016159	0.897718	-0.170438	-0.171727	0.034663	31.0241	-0.171276	-43.2254	-0.000802	NaN
1167	1.000000	0.907034	7.37647e+06	-57239.1	1105.82	-29737.1	0.000000	0.000000	6.907114	-0.015976	NaN	0.000000	0.001610	0.001744	28.0818	0.087197	0.001909	45.6839	-54.2276	-163.782	-0.011558	0.905673	-0.162411	-0.163773	-0.015976	45.6839	-0.162149	-29.9275	0.000534	NaN
1167	1.000000	0.915011	7.37647e+06	-57239.1	1105.82	-29737.1	0.000000	0.000000	6.915092	0.002829	NaN	0.000000	0.001610	0.001734	28.0805	0.162840	0.002078	78.3724	-162.597	-168.735	-0.089530	0.913740	-0.154434	-0.155705	0.002829	78.3724	-0.154461	-21.8211	-0.000130	NaN
1167	1.000000	0.923005	7.37647e+06	-57239.1	1105.82	-29737.1	0.000000	0.000000	6.923087	0.041891	NaN	0.000000	0.001619	0.001740	28.0807	0.058777	0.002008	29.267	160.183	-168.7	0.109529	0.921702	-0.146440	-0.147743	0.041891	29.267	-0.147514	-16.3119	-0.002568	NaN
1167	1.000000	0.931024	7.37647e+06	-57239.1	1105.82	-29737.1	0.000000	0.000000	6.931105	0.019079	NaN	0.000000	0.001633	0.001762	28.0811	0.099030	0.001868	53.0262	109.963	-163.737	0.022289	0.929710	-0.138421	-0.139735	0.019079	53.0262	-0.138691	-11.1772	-0.001707	NaN
1167	1.000000	0.939022	7.37647e+06	-57239.1	1105.82	-29737.1	0.000000	0.000000	6.939102	-0.008598	NaN	0.000000	0.001597	0.001757	28.0811	0.032048	0.002090	15.3312	21.0709	-166.948	0.002415	0.937699	-0.130423	-0.131746	-0.008598	15.3312	-0.130002	-7.621777	0.001128	NaN
1167	1.000000	0.947052	7.37647e+06	-57239.1	1105.82	-29737.1	0.000000	0.000000	6.947132	-0.005148	NaN	0.000000	0.001650	0.001749	28.0811	0.070120	0.001803	38.899	-9.572428	-168.005	-0.067008	0.945681	-0.122394	-0.123764	-0.005148	38.899	-0.122294	-5.372480	0.000958	NaN
1167	1.000000	0.955051	7.37647e+06	-57239.1	1105.82	-29737.1	0.000000	0.000000	6.955132	0.018467	NaN	0.000000	0.001634	0.001724	28.0807	0.067946	0.001994	34.0679	-159.535	-161.965	-0.067091	0.953756	-0.114394	-0.115689	0.018467	34.0679	-0.114801	-3.784410	-0.004880	NaN
1167	1.000000	0.963046	7.37647e+06	-57239.1	1105.82	-29737.1	0.000000	0.000000	6.963129	0.044644	NaN	0.000000	0.001641	0.001755	28.0807	0.114704	0.001870	61.3492	71.3503	-168.751	0.012041	0.961720	-0.106399	-0.107725	0.044644	61.3492	-0.106945	-2.588085	-0.017250	NaN
1167	1.000000	0.971041	7.37647e+06	-57239.1	1105.82	-29737.1	0.000000	0.000000	6.971125	0.072487	NaN	0.000000	0.001647	0.001688	28.0807	0.047197	0.001885	25.0382	-161.197	-168.195	0.055211	0.969712	-0.098404	-0.099734	0.072487	25.0382	-0.100575	-1.881506	-0.038526	NaN
1167	1.000000	0.979058	7.37647e+06	-57239.1	1105.82	-29737.1	0.000000	0.000000	6.979137	-0.040522	NaN	0.000000	0.001661	0.001720	28.0806	0.016074	0.001998	8.045897	-120.545	-165.943	-0.000482	0.977752	-0.090387	-0.091693	-0.040522	8.045897	-0.086610	-0.898335	0.045107	NaN
1167	1.000000	0.987039	7.37647e+06	-57239.1	1105.82	-29737.1	0.000000	0.000000	6.987117	-0.068873	NaN	0.000000	0.001604	0.001707	28.081	0.056504	0.002045	27.6282	-172.835	-167.85	-0.003579	0.985758	-0.082406	-0.083688	-0.068873	27.6282	-0.080536	-0.638375	0.107887	NaN
1167	1.000000	0.995050	7.37647e+06	-57239.1	1105.82	-29737.1	0.000000	0.000000	6.995133	0.062325	NaN	0.000000	0.001609	0.001735	28.0806	0.053540	0.002004	26.7182	155.09	-166.97	0.079479	0.993773	-0.074395	-0.075672	0.062325	26.7182	-0.076145	-0.494328	-0.126080	NaN
1167	1.000000	1.003060	7.37647e+06	-57239.1	1105.82	-29737.1	0.000000	0.000000	7.003142	0.033283	NaN	0.000000	0.001610	0.001720	28.0809	0.068731	0.001941	35.4101	18.5826	-166.597	-0.021734	1.001722	-0.066385	-0.067723	0.033283	35.4101	-0.067090	-0.284540	-0.116970	NaN
1167	1.000000	1.011055	7.37647e+06	-57239.1	1105.82	-29737.1	0.000000	0.000000	7.011135	-0.011391	NaN	0.000000	0.001614	0.001738	28.0806	0.103610	0.002124	48.7883	-108.918	-167.703	0.002506	1.009762	-0.058390	-0.059683	-0.011391	48.7883	-0.058215	-0.159958	0.071211	NaN
1167	1.000000	1.019070	7.37647e+06	-57239.1	1105.82	-29737.1	0.000000	0.000000	7.019151	0.008625	NaN	0.000000	0.001644	0.001759	28.0807	0.066928	0.002066	32.4022	60.5217	-164.889	0.063387	1.017712	-0.050375	-0.051733	0.008625	32.4022	-0.050575	-0.094973	-0.090814	NaN
1167	1.000000	1.027069	7.37647e+06	-57239.1	1105.82	-29737.1	0.000000	0.000000	7.027152	0.049634	NaN	0.000000	0.001687	0.001753	28.0809	0.123236	0.002050	60.1265	173.927	-167.862	0.071513	1.025747	-0.042376	-0.043699	0.049634	60.1265	-0.042995	-0.055805	-0.889422	NaN
1167	1.000000	1.035078	7.37647e+06	-57239.1	1105.82	-29737.1	0.000000	0.000000	7.035158	-0.001024	NaN	0.000000	0.001658	0.001726	28.0806	0.070979	0.001948	36.435	-46.3572	-164.544	0.034096	1.033812	-0.034368	-0.035633	-0.001024	36.435	-0.034347	-0.030640	0.033415	NaN
1167	1.000000	1.043098	7.37647e+06	-57239.1	1105.82	-29737.1	0.000000	0.000000	7.043176	-0.046733	NaN	0.000000	0.001642	0.001788	28.0816	0.043275	0.001922	22.5132	-149.041	-166.065	-0.078020	1.041793	-0.026348	-0.027652	-0.046733	22.5132	-0.024791	-0.016660	2.805153	NaN
1167	1.000000	1.051053	7.37647e+06	-57239.1	1105.82	-29737.1	0.000000	0.000000	7.051133	-0.005048	NaN	0.000000	0.001667	0.001722	28.082	0.077871	0.002011	38.7187	36.248	-162.917	-0.000992	1.049773	-0.018392	-0.019672	-0.005048	38.7187	-0.018295	-0.011360	0.444374	NaN
1167	1.000000	1.059084	7.37647e+06	-57239.1	1105.82	-29737.1	0.000000	0.000000	7.059165	0.014495	NaN	0.000000	0.001659	0.001709	28.0819	0.022808	0.002034	11.2158	138.124	-166.615	0.064498	1.057783	-0.010362	-0.011662	0.014495	11.2158	-0.011331	-0.007147	-2.028197	NaN
1167	1.000000	1.067097	7.37647e+06	-57239.1	1105.82	-29737.1	0.000000	0.000000	7.067177	-0.019258	NaN	0.000000	0.001683	0.001752	28.0819	0.076032	0.002024	37.5635	-150.535	-168.613	-0.060639	1.065812	-0.002348	-0.003634	-0.019258	37.5635	-0.001963	-0.001414	13.6204	NaN
1167	1.000000	1.075051	7.37647e+06	-57239.1	1105.82	-29737.1	0.000000	0.000000	7.075331	4.847871	NaN	0.000000	0.001616	0.001755	28.0819	6.087340	0.001885	3228.85	11.9418	-171.875	3.309334	1.073799	0.005606	0.004354	4.847871	3228.85	0.004480	0.003663	1323.3	48738.7
1167	2.000000	1.079698	7.37647e+06	-57239.1	1105.82	-29737.1	0.000000	0.000000	7.080162	9.330318	NaN	0.000000	0.001611	0.001719	28.0822	10.5565	0.001670	6322.88	10.2447	-176.367	9.545011	1.079381	0.010253	0.009936	9.330318	6322.88	0.009146	0.008248	1131.27	63609.8
1167	2.000000	1.081655	7.37647e+06	-57239.1	1105.82	-29737.1	0.000000	0.000000	7.082278	13.1872	NaN	0.000000	0.001635	0.001718	28.0818	12.2498	0.001609	7614.93	8.976099	-176.588	12.7659	1.081311	0.012210	0.011866	13.1872	7614.93	0.010911	0.010212	1291.39	68848
1167	2.000000	1.083659	7.37647e+06	-57239.1	1105.82	-29737.1	0.000000	0.000000	7.084350	14.8422	NaN	0.000000	0.001614	0.001700	28.082	14.7099	0.001788	8224.89	9.712376	-178.023	14.7945	1.083328	0.014214	0.013883	14.8422	8224.89	0.012861	0.012537	1183.83	67111.9
1167	2.000000	1.085689	7.37647e+06	-57239.1	1105.82	-29737.1	0.000000	0.000000	7.086495	17.6414	NaN	0.000000	0.001595	0.001716	28.0819	16.1788	0.001665	9716.02	8.127859	-177.632	17.5528	1.085330	0.016243	0.015885	17.6414	9716.02	0.014882	0.015128	1166.15	72172.5
1167	2.000000	1.087598	7.37647e+06	-57239.1	1105.82	-29737.1	0.000000	0.000000	7.088510	20.204	NaN	0.000000	0.001613	0.001715	28.0819	18.1244	0.001789	10130	5.620647	-176.422	19.7942	1.087332	0.018153	0.017886	20.204	10130	0.016657	0.017559	1150.64	69844.5
1167	2.000000	1.089630	7.37647e+06	-57239.1	1105.82	-29737.1	0.000000	0.000000	7.090679	23.5268	NaN	0.000000	0.001644	0.001724	28.0823	20.8475	0.001825	11422.7	8.447167	179.366	22.9194	1.089354	0.020185	0.019908	23.5268	11422.7	0.018640	0.020450	1150.43	72977.8
1167	2.000000	1.091624	7.37647e+06	-57239.1	1105.82	-29737.1	0.000000	0.000000	7.092842	27.6547	NaN	0.000000	0.001630	0.001706	28.0821	21.8773	0.001814	12061.2	7.537054	-178.098	28.2698	1.091279	0.022179	0.021834	27.6547	12061.2	0.020459	0.023269	1188.47	72239.5
1167	2.000000	1.093627	7.37647e+06	-57239.1	1105.82	-29737.1	0.000000	0.000000	7.094979	30.9	NaN	0.000000	0.001584	0.001721	28.0824	24.6634	0.001800	13702.6	9.118305	177.854	31.6057	1.093303	0.024182	0.023858	30.9	13702.6	0.022491	0.026608	1161.31	76748.4
1167	2.000000	1.095578	7.37647e+06	-57239.1	1105.82	-29737.1	0.000000	0.000000	7.097238	38.3865	NaN	0.000000	0.001591	0.001721	28.0822	26.4174	0.001798	14689.6	2.222354	-175.909	36.5925	1.095266	0.026133	0.025820	38.3865	14689.6	0.024173	0.029528	1300	78102.4
1167	2.000000	1.097636	7.37647e+06	-57239.1	1105.82	-29737.1	0.000000	0.000000	7.099370	40.1978	NaN	0.000000	0.001624	0.001657	28.0819	27.6229	0.001763	15664.7	0.802811	-175.088	40.5708	1.097269	0.028191	0.027824	40.1978	15664.7	0.026266	0.033359	1205.01	78358.8
1167	2.000000	1.099560	7.37647e+06	-57239.1	1105.82	-29737.1	0.000000	0.000000	7.101517	45.6032	NaN	0.000000	0.001613	0.001699	28.0822	31.3781	0.001884	16655.6	6.047574	178.701	45.0538	1.099311	0.030115	0.029866	45.6032	16655.6	0.028061	0.036822	1238.49	79301.6
1167	2.000000	1.101592	7.37647e+06	-57239.1	1105.82	-29737.1	0.000000	0.000000	7.103835	52.5547	NaN	0.000000	0.001604	0.001721	28.082	32.3681	0.001803	17952.6	4.894519	179.234	51.5664	1.101264	0.032147	0.031819	52.5547	17952.6	0.029951	0.040642	1293.1	81360.2
1167	2.000000	1.103536	7.37647e+06	-57239.1	1105.82	-29737.1	0.000000	0.000000	7.105965	57.0774	NaN	0.000000	0.001632	0.001708	28.0824	34.6334	0.001874	18479.5	5.108748	178.653	54.6968	1.103212	0.034091	0.033767	57.0774	18479.5	0.031774	0.044502	1282.58	80034
1167	2.000000	1.105593	7.37647e+06	-57239.1	1105.82	-29737.1	0.000000	0.000000	7.108304	63.9328	NaN	0.000000	0.001587	0.001713	28.081	36.683	0.001811	20258.3	4.531746	178.935	65.0825	1.105286	0.036148	0.035841	63.9328	20258.3	0.033781	0.048945	1306.21	83660.5
1167	2.000000	1.107581	7.37647e+06	-57239.1	1105.82	-29737.1	0.000000	0.000000	7.110519	69.4527	NaN	0.000000	0.001602	0.001659	28.0809	38.2651	0.001783	21464.8	6.812857	175.86	68.9397	1.107282	0.038136	0.037837	69.4527	21464.8	0.035709	0.053410	1300.36	84857
1167	2.000000	1.109570	7.37647e+06	-57239.1	1105.82	-29737.1	0.000000	0.000000	7.112799	76.5352	NaN	0.000000	0.001569	0.001710	28.0807	40.2977	0.001823	22100.8	6.468410	176.926	76.5941	1.109163	0.040125	0.039718	76.5352	22100.8	0.037528	0.057795	1324.25	83991.7
1167	2.000000	1.111532	7.37647e+06	-57239.1	1105.82	-29737.1	0.000000	0.000000	7.115170	86.4532	NaN	0.000000	0.001602	0.001690	28.0808	41.1065	0.001762	23327.5	4.998346	176.988	84.3291	1.111233	0.042087	0.041788	86.4532	23327.5	0.039307	0.062250	1388.8	85422.2
1167	2.000000	1.113533	7.37647e+06	-57239.1	1105.82	-29737.1	0.000000	0.000000	7.117473	93.8202	NaN	0.000000	0.001607	0.001711	28.0808	42.7254	0.001676	25491.2	0.201723	-178.613	91.7812	1.113223	0.044088	0.043777	93.8202	25491.2	0.041327	0.067503	1389.86	89639.9
1167	2.000000	1.115627	7.37647e+06	-57239.1	1105.82	-29737.1	0.000000	0.000000	7.119676	96.4466	NaN	0.000000	0.001617	0.001701	28.0807	46.7048	0.001779	26260.4	6.387101	174.397	97.039	1.115284	0.046182	0.045839	96.4466	26260.4	0.043427	0.073185	1317.84	88687.4
1167	2.000000	1.117552	7.37647e+06	-57239.1	1105.82	-29737.1	0.000000	0.000000	7.122222	111.544	NaN	0.000000	0.001609	0.001732	28.081	47.5021	0.001700	27945.7	4.282304	176.027	111.377	1.117169	0.048107	0.047723	111.544	27945.7	0.045114	0.077910	1431.69	91472.7
1167	2.000000	1.119513	7.37647e+06	-57239.1	1105.82	-29737.1	0.000000	0.000000	7.124413	117.143	NaN	0.000000	0.001578	0.001730	28.0807	49.9326	0.001914	26091.2	2.218214	179.494	115.45	1.119208	0.050068	0.049763	117.143	26091.2	0.046700	0.082487	1420.13	82999.2
1167	2.000000	1.121533	7.37647e+06	-57239.1	1105.82	-29737.1	0.000000	0.000000	7.126695	123.522	NaN	0.000000	0.001572	0.001707	28.0806	50.8932	0.001817	28009.8	2.499993	177.239	121.312	1.121296	0.052088	0.051851	123.522	28009.8	0.048780	0.088680	1392.91	85935.3
1167	2.000000	1.123476	7.37647e+06	-57239.1	1105.82	-29737.1	0.000000	0.000000	7.129078	134.181	NaN	0.000000	0.001549	0.001721	28.0806	53.7823	0.001836	29300.8	2.997513	177.02	130.909	1.123145	0.054031	0.053700	134.181	29300.8	0.050597	0.094266	1423.42	87191.7
1167	2.000000	1.125543	7.37647e+06	-57239.1	1105.82	-29737.1	0.000000	0.000000	7.131453	141.696	NaN	0.000000	0.001607	0.001756	28.0806	56.7998	0.001981	28666.3	9.546060	171.97	140.547	1.125119	0.056098	0.055674	141.696	28666.3	0.052391	0.099945	1417.74	82844.4
1167	2.000000	1.127539	7.37647e+06	-57239.1	1105.82	-29737.1	0.000000	0.000000	7.133985	154.706	NaN	0.000000	0.001616	0.001752	28.0809	57.4398	0.001875	30638.1	3.484684	176.346	153.171	1.127130	0.058094	0.057685	154.706	30638.1	0.054307	0.106189	1456.9	85900.6
1167	2.000000	1.129505	7.37647e+06	-57239.1	1105.82	-29737.1	0.000000	0.000000	7.136176	160.168	NaN	0.000000	0.001600	0.001721	28.0808	59.7666	0.001812	32977.4	3.680756	175.299	158.324	1.129364	0.060060	0.059919	160.168	32977.4	0.056417	0.113276	1413.96	89520.1
1167	2.000000	1.131528	7.37647e+06	-57239.1	1105.82	-29737.1	0.000000	0.000000	7.138739	173.311	NaN	0.000000	0.001634	0.001742	28.0809	61.1168	0.001784	34254.3	7.812171	171.219	172.877	1.131135	0.062083	0.061690	173.311	34254.3	0.058288	0.119742	1447.37	90440.8
1167	2.000000	1.133553	7.37647e+06	-57239.1	1105.82	-29737.1	0.000000	0.000000	7.140975	178.425	NaN	0.000000	0.001672	0.001736	28.0807	63.9797	0.001972	32448	6.244144	173.825	178.277	1.133134	0.064108	0.063689	178.425	32448	0.059984	0.125750	1418.89	83600.3
1167	2.000000	1.135550	7.37647e+06	-57239.1	1105.82	-29737.1	0.000000	0.000000	7.143501	191.283	NaN	0.000000	0.001648	0.001753	28.0807	65.5483	0.001851	35408.8	6.922056	171.576	193.109	1.135164	0.066105	0.065719	191.283	35408.8	0.062053	0.133274	1435.27	88616.1
1167	2.000000	1.137466	7.37647e+06	-57239.1	1105.82	-29737.1	0.000000	0.000000	7.145735	199.038	NaN	0.000000	0.001643	0.001736	28.0808	65.8625	0.001791	36771.6	3.968130	174.371	194.782	1.137166	0.068020	0.067720	199.038	36771.6	0.063961	0.140393	1417.72	89663.1
1167	2.000000	1.139470	7.37647e+06	-57239.1	1105.82	-29737.1	0.000000	0.000000	7.148374	214.459	NaN	0.000000	0.001656	0.001722	28.082	68.3569	0.001758	38891	5.106101	172.368	212.018	1.139264	0.070025	0.069819	214.459	38891	0.065889	0.147769	1451.31	92433.7
1167	2.000000	1.141414	7.37647e+06	-57239.1	1105.82	-29737.1	0.000000	0.000000	7.150643	222.351	NaN	0.000000	0.001686	0.001734	28.0823	68.1669	0.001689	40365.5	1.776213	175.692	215.98	1.141064	0.071969	0.071619	222.351	40365.5	0.067837	0.155402	1430.81	93552.6
1167	2.000000	1.143527	7.37647e+06	-57239.1	1105.82	-29737.1	0.000000	0.000000	7.153252	234.405	NaN	0.000000	0.001649	0.001733	28.0821	71.2412	0.001758	40518.5	6.561542	170.467	232.549	1.143176	0.074082	0.073731	234.405	40518.5	0.069743	0.163043	1437.69	91680.2
1167	2.000000	1.145597	7.37647e+06	-57239.1	1105.82	-29737.1	0.000000	0.000000	7.155902	248.519	NaN	0.000000	0.001644	0.001747	28.082	73.481	0.001742	42188.4	5.125053	172.764	252.026	1.145161	0.076151	0.075716	248.519	42188.4	0.071733	0.171210	1451.54	93153.9
1167	2.000000	1.147502	7.37647e+06	-57239.1	1105.82	-29737.1	0.000000	0.000000	7.158285	260.134	NaN	0.000000	0.001638	0.001742	28.0821	75.5482	0.001857	40673.8	4.533899	172.672	257.586	1.147191	0.078057	0.077746	260.134	40673.8	0.073260	0.177601	1464.71	88178.9
1167	2.000000	1.149431	7.37647e+06	-57239.1	1105.82	-29737.1	0.000000	0.000000	7.160552	268.347	NaN	0.000000	0.001656	0.001728	28.0819	77.6287	0.001826	42501.4	4.131477	172.871	262.691	1.149158	0.079986	0.079713	268.347	42501.4	0.075250	0.186099	1441.96	90012.7
1167	2.000000	1.151510	7.37647e+06	-57239.1	1105.82	-29737.1	0.000000	0.000000	7.163566	291.054	NaN	0.000000	0.001652	0.001727	28.0818	79.5034	0.001851	42950.6	8.483692	168.024	289.817	1.151171	0.082065	0.081726	291.054	42950.6	0.076982	0.193646	1503.02	89173.9
1167	2.000000	1.153483	7.37647e+06	-57239.1	1105.82	-29737.1	0.000000	0.000000	7.165854	298.734	NaN	0.000000	0.001660	0.001721	28.0821	80.6276	0.001774	45452.1	3.938730	172.933	295.2	1.153137	0.084038	0.083692	298.734	45452.1	0.079108	0.203100	1470.88	92145.1
1167	2.000000	1.155634	7.37647e+06	-57239.1	1105.82	-29737.1	0.000000	0.000000	7.168451	309.555	NaN	0.000000	0.001614	0.001724	28.0822	83.9041	0.001772	47350.9	8.925187	168.008	314.819	1.155109	0.086189	0.085664	309.555	47350.9	0.081286	0.213001	1453.3	93736.8
1167	2.000000	1.157445	7.37647e+06	-57239.1	1105.82	-29737.1	0.000000	0.000000	7.171099	329.908	NaN	0.000000	0.001601	0.001756	28.0819	84.5571	0.001723	49089.5	6.771924	169.86	327.139	1.157053	0.088000	0.087608	329.908	49089.5	0.082959	0.220763	1494.4	95455.1
1167	2.000000	1.159445	7.37647e+06	-57239.1	1105.82	-29737.1	0.000000	0.000000	7.173467	338.845	NaN	0.000000	0.001625	0.001743	28.0818	86.5529	0.001712	50557.7	4.664969	171.23	335.043	1.159222	0.090000	0.089777	338.845	50557.7	0.084973	0.230275	1471.48	96258.1
1167	2.000000	1.161382	7.37647e+06	-57239.1	1105.82	-29737.1	0.000000	0.000000	7.176055	354.656	NaN	0.000000	0.001579	0.001739	28.0817	88.1022	0.001778	49542.3	5.616574	170	349.337	1.161129	0.091937	0.091684	354.656	49542.3	0.086568	0.237939	1490.53	92793.3
1167	2.000000	1.163433	7.37647e+06	-57239.1	1105.82	-29737.1	0.000000	0.000000	7.178781	371.073	NaN	0.000000	0.001619	0.001722	28.082	90.6454	0.001753	51697	4.790362	170.905	366.676	1.163133	0.093988	0.093688	371.073	51697	0.088605	0.247897	1496.88	94864.4
1167	2.000000	1.165509	7.37647e+06	-57239.1	1105.82	-29737.1	0.000000	0.000000	7.181303	381.903	NaN	0.000000	0.001647	0.001711	28.082	93.4268	0.001901	49152.2	6.214703	170.588	380.621	1.165123	0.096064	0.095678	381.903	49152.2	0.090236	0.256013	1491.73	88753.4
1167	2.000000	1.167711	7.37647e+06	-57239.1	1105.82	-29737.1	0.000000	0.000000	7.183571	383.518	NaN	0.000000	0.001649	0.001687	28.0818	95.0178	0.001793	52995.5	7.278545	169.028	399.296	1.167324	0.098266	0.097879	383.518	52995.5	0.092838	0.269206	1424.63	93319
1167	2.000000	1.169482	7.37647e+06	-57239.1	1105.82	-29737.1	0.000000	0.000000	7.186297	406.746	NaN	0.000000	0.001629	0.001688	28.0819	96.3765	0.001915	50321.9	3.380871	172.832	404.643	1.169208	0.100037	0.099762	406.746	50321.9	0.093974	0.275065	1478.73	87662.2
1167	2.000000	1.171475	7.37647e+06	-57239.1	1105.82	-29737.1	0.000000	0.000000	7.188960	423.024	NaN	0.000000	0.001596	0.001698	28.0818	96.9095	0.001874	51704.6	2.978769	172.673	421.122	1.171144	0.102029	0.101698	423.024	51704.6	0.095893	0.285093	1483.81	88472.6
1167	2.000000	1.173426	7.37647e+06	-57239.1	1105.82	-29737.1	0.000000	0.000000	7.191580	439.279	NaN	0.000000	0.001650	0.001715	28.0808	99.0957	0.001855	53412.4	5.629931	169.96	436.206	1.173165	0.103980	0.103719	439.279	53412.4	0.097812	0.295289	1487.62	89803.2
1167	2.000000	1.175385	7.37647e+06	-57239.1	1105.82	-29737.1	0.000000	0.000000	7.194445	461.302	NaN	0.000000	0.001654	0.001713	28.0805	100.129	0.001778	56317.3	5.762648	170.319	452.377	1.174995	0.105939	0.105550	461.302	56317.3	0.099796	0.306007	1507.49	93014.2
1167	2.000000	1.176888	7.37647e+06	-57239.1	1105.82	-29737.1	0.000000	0.000000	7.196215	467.771	NaN	0.000000	0.001652	0.001725	28.0805	101.102	0.001749	57805	3.639176	-8.266788	461.093	1.176572	0.107443	0.107127	467.771	57805	0.101374	0.314659	1486.6	94149.6