File: remote_trans/data/nanoindenter/0828-1/data/Data_2025-08-06,11h17m57s/2025-07-22_16-23-58_1_1089.txt
2025-07-22, 16:23:58, 1
Index	Phase	Displacement	Time	Pos X	Pos Y	Pos Z	Rot A	Rot B	Piezo Z	Force A	Force B	Gripper	Voltage A	Voltage B	Temperature	Amplitude force	Amplitude pos	Stiffness	Phase shift	Phase excitation	Force A raw	Displacement raw	HMax	HMax raw	Real Force	Real Stiffness	Contact Depth	Area	Hardness	Reduced Mod.
[#]	[#]	[um]	[s]	[um]	[um]	[um]	[m°]	[m°]	[um]	[uN]	[uN]	[V]	[V]	[V]	[°C]	[uN]	[um]	[N/m]	[°]	[°]	[uN]	[um]	[um]	[um]	[uN]	[N/m]	[um]	[um^2]	[MPa]	[MPa]
1089	1.000000	0.002708	7.3757e+06	-54589.1	1055.82	-29743.2	0.000000	0.000000	6.002809	-0.028657	NaN	0.000000	0.001597	0.001640	28.0838	0.047357	0.001060	44.6911	62.1232	-167.485	0.056128	0.001384	-1.146462	-1.147786	-0.028657	44.6911	-1.145981	-2.074630E+15	1.381297E-17	NaN
1089	1.000000	0.012761	7.3757e+06	-54589.1	1055.82	-29743.2	0.000000	0.000000	6.012859	-0.130679	NaN	0.000000	0.001565	0.001625	28.084	0.023631	0.001250	18.9112	149.175	17.0113	-0.153759	0.011333	-1.136409	-1.137837	-0.130679	18.9112	-1.131226	-1.315428E+15	9.934344E-17	NaN
1089	1.000000	0.022663	7.3757e+06	-54589.1	1055.82	-29743.2	0.000000	0.000000	6.022765	-0.029552	NaN	0.000000	0.001586	0.001644	28.0836	0.063158	0.001717	36.773	123.088	-166.246	-0.029184	0.021335	-1.126507	-1.127835	-0.029552	36.773	-1.125904	-1.116029E+15	2.647943E-17	NaN
1089	1.000000	0.032612	7.37571e+06	-54589.1	1055.82	-29743.2	0.000000	0.000000	6.032713	-0.030826	NaN	0.000000	0.001565	0.001618	28.0838	0.105898	0.001986	53.3173	121.443	13.7508	-0.054383	0.031320	-1.116558	-1.117850	-0.030826	53.3173	-1.116125	-8.250385E+14	3.736343E-17	NaN
1089	1.000000	0.042659	7.37571e+06	-54589.1	1055.82	-29743.2	0.000000	0.000000	6.042760	-0.045897	NaN	0.000000	0.001563	0.001602	28.084	0.114672	0.001968	58.2637	62.297	-164.001	-0.059542	0.041350	-1.106510	-1.107820	-0.045897	58.2637	-1.105920	-6.019011E+14	7.625396E-17	NaN
1089	1.000000	0.052666	7.37571e+06	-54589.1	1055.82	-29743.2	0.000000	0.000000	6.052767	-0.033691	NaN	0.000000	0.001546	0.001628	28.0842	0.045223	0.001859	24.3274	-119.912	16.0473	-0.069560	0.051301	-1.096504	-1.097868	-0.033691	24.3274	-1.095465	-4.357050E+14	7.732514E-17	NaN
1089	1.000000	0.062666	7.37571e+06	-54589.1	1055.82	-29743.2	0.000000	0.000000	6.062769	0.010915	NaN	0.000000	0.001592	0.001625	28.084	0.051487	0.002044	25.1952	-148.355	-162.004	-0.107903	0.061353	-1.086504	-1.087817	0.010915	25.1952	-1.086828	-3.335990E+14	-3.271896E-17	NaN
1089	1.000000	0.072644	7.37571e+06	-54589.1	1055.82	-29743.2	0.000000	0.000000	6.072746	-0.002105	NaN	0.000000	0.001600	0.001600	28.0837	0.027764	0.001931	14.3813	-21.5397	14.2849	0.046790	0.071291	-1.076526	-1.077879	-0.002105	14.3813	-1.076416	-2.417609E+14	8.706776E-18	NaN
1089	1.000000	0.082633	7.37571e+06	-54589.1	1055.82	-29743.2	0.000000	0.000000	6.082738	0.049612	NaN	0.000000	0.001575	0.001631	28.0841	0.047378	0.001896	24.9891	-130.475	-165.258	0.025279	0.081355	-1.066537	-1.067815	0.049612	24.9891	-1.068026	-1.864930E+14	-2.660244E-16	NaN
1089	1.000000	0.092679	7.37571e+06	-54589.1	1055.82	-29743.2	0.000000	0.000000	6.092779	-0.054518	NaN	0.000000	0.001590	0.001622	28.0838	0.071555	0.001871	38.2487	67.6026	15.6822	-0.044396	0.091311	-1.056491	-1.057859	-0.054518	38.2487	-1.055422	-1.262684E+14	4.317641E-16	NaN
1089	1.000000	0.102682	7.37571e+06	-54589.1	1055.82	-29743.2	0.000000	0.000000	6.102786	0.048297	NaN	0.000000	0.001584	0.001624	28.0836	0.042465	0.002102	20.2008	-112.814	-167.732	0.017634	0.101414	-1.046488	-1.047755	0.048297	20.2008	-1.048281	-1.012303E+14	-4.771001E-16	NaN
1089	1.000000	0.112666	7.37571e+06	-54589.1	1055.82	-29743.2	0.000000	0.000000	6.112766	-0.080099	NaN	0.000000	0.001611	0.001611	28.0825	0.088732	0.002067	42.9224	-82.6135	12.3126	-0.095784	0.111287	-1.036503	-1.037883	-0.080099	42.9224	-1.035104	-6.731719E+13	1.189881E-15	NaN
1089	1.000000	0.122692	7.37571e+06	-54589.1	1055.82	-29743.2	0.000000	0.000000	6.122794	-0.036251	NaN	0.000000	0.001590	0.001648	28.0824	0.058792	0.002024	29.0416	-179.101	-167.213	0.006758	0.121401	-1.026477	-1.027769	-0.036251	29.0416	-1.025541	-5.006126E+13	7.241275E-16	NaN
1089	1.000000	0.132686	7.37571e+06	-54589.1	1055.82	-29743.2	0.000000	0.000000	6.132791	0.059353	NaN	0.000000	0.001595	0.001645	28.0826	0.057352	0.001931	29.7004	111.462	16.8871	0.026260	0.131265	-1.016484	-1.017904	0.059353	29.7004	-1.017983	-3.961045E+13	-1.498420E-15	NaN
1089	1.000000	0.142665	7.37571e+06	-54589.1	1055.82	-29743.2	0.000000	0.000000	6.142768	-0.003707	NaN	0.000000	0.001622	0.001645	28.0824	0.082697	0.002067	40.0124	47.2348	-162.954	-0.058970	0.141383	-1.006505	-1.007787	-0.003707	40.0124	-1.006435	-2.769487E+13	1.338693E-16	NaN
1089	1.000000	0.152659	7.37571e+06	-54589.1	1055.82	-29743.2	0.000000	0.000000	6.152763	0.024257	NaN	0.000000	0.001600	0.001674	28.0826	0.064973	0.001929	33.6799	-72.8627	16.3816	-0.046732	0.151300	-0.996511	-0.997870	0.024257	33.6799	-0.997051	-2.070453E+13	-1.171560E-15	NaN
1089	1.000000	0.162707	7.37571e+06	-54589.1	1055.82	-29743.2	0.000000	0.000000	6.162809	-0.011194	NaN	0.000000	0.001567	0.001674	28.0825	0.079552	0.001994	39.8897	-67.585	-165.08	-0.106330	0.161362	-0.986463	-0.987808	-0.011194	39.8897	-0.986252	-1.481271E+13	7.556791E-16	NaN
1089	1.000000	0.172664	7.37571e+06	-54589.1	1055.82	-29743.2	0.000000	0.000000	6.172768	0.041302	NaN	0.000000	0.001582	0.001654	28.0827	0.030803	0.002046	15.0539	69.046	14.9756	-0.025199	0.171323	-0.976506	-0.977847	0.041302	15.0539	-0.978564	-1.166977E+13	-3.539220E-15	NaN
1089	1.000000	0.182680	7.37571e+06	-54589.1	1055.82	-29743.2	0.000000	0.000000	6.182783	0.004654	NaN	0.000000	0.001593	0.001672	28.0826	0.035960	0.001976	18.1949	54.3709	-165.341	-0.019424	0.181426	-0.966490	-0.967743	0.004654	18.1949	-0.966682	-8.071182E+12	-5.766564E-16	NaN
1089	1.000000	0.192691	7.37571e+06	-54589.1	1055.82	-29743.2	0.000000	0.000000	6.192792	-0.036577	NaN	0.000000	0.001553	0.001637	28.0829	0.082205	0.001913	42.9756	31.0997	14.3373	-0.077625	0.191299	-0.956479	-0.957871	-0.036577	42.9756	-0.955841	-5.764881E+12	6.344875E-15	NaN
1089	1.000000	0.202723	7.37571e+06	-54589.1	1055.82	-29743.2	0.000000	0.000000	6.202825	-0.019247	NaN	0.000000	0.001593	0.001685	28.0823	0.097743	0.002022	48.3296	-164.112	-162.756	-0.062296	0.201382	-0.946446	-0.947788	-0.019247	48.3296	-0.946148	-4.266477E+12	4.511301E-15	NaN
1089	1.000000	0.212663	7.37571e+06	-54589.1	1055.82	-29743.2	0.000000	0.000000	6.212766	0.005854	NaN	0.000000	0.001575	0.001686	28.0826	0.061619	0.001961	31.4164	5.220685	19.0048	0.003066	0.211343	-0.936507	-0.937826	0.005854	31.4164	-0.936647	-3.176092E+12	-1.843272E-15	NaN
1089	1.000000	0.222703	7.37571e+06	-54589.1	1055.82	-29743.2	0.000000	0.000000	6.222806	0.013452	NaN	0.000000	0.001566	0.001690	28.0827	0.060100	0.001937	31.0193	79.771	-165.969	0.018429	0.221447	-0.926467	-0.927723	0.013452	31.0193	-0.926792	-2.338298E+12	-5.753093E-15	NaN
1089	1.000000	0.232725	7.37571e+06	-54589.1	1055.82	-29743.2	0.000000	0.000000	6.232825	-0.070904	NaN	0.000000	0.001565	0.001683	28.0827	0.048883	0.001987	24.5994	126.96	18.1187	0.005624	0.231362	-0.916444	-0.917808	-0.070904	24.5994	-0.914283	-1.584902E+12	4.473743E-14	NaN
1089	1.000000	0.242724	7.37571e+06	-54589.1	1055.82	-29743.2	0.000000	0.000000	6.242827	-0.014385	NaN	0.000000	0.001585	0.001692	28.0825	0.065482	0.001912	34.2462	-156.932	-162.341	-0.019572	0.241439	-0.906445	-0.907731	-0.014385	34.2462	-0.906130	-1.229960E+12	1.169517E-14	NaN
1089	1.000000	0.252726	7.37571e+06	-54589.1	1055.82	-29743.2	0.000000	0.000000	6.252825	-0.097158	NaN	0.000000	0.001648	0.001676	28.0838	0.106875	0.002034	52.538	-73.505	11.7045	-0.064746	0.251365	-0.896444	-0.897805	-0.097158	52.538	-0.895057	-8.715015E+11	1.114840E-13	NaN
1089	1.000000	0.262719	7.37571e+06	-54589.1	1055.82	-29743.2	0.000000	0.000000	6.262818	-0.096975	NaN	0.000000	0.001648	0.001661	28.0843	0.023452	0.001940	12.0916	-81.4878	-166.617	-0.091762	0.261421	-0.886451	-0.887749	-0.096975	12.0916	-0.880436	-5.528441E+11	1.754116E-13	NaN
1089	1.000000	0.272727	7.37571e+06	-54589.1	1055.82	-29743.2	0.000000	0.000000	6.272827	-0.064574	NaN	0.000000	0.001600	0.001688	28.0838	0.011410	0.001922	5.935575	25.1246	17.8537	-0.059880	0.271401	-0.876443	-0.877769	-0.064574	5.935575	-0.868284	-3.786363E+11	1.705425E-13	NaN
1089	1.000000	0.282749	7.37571e+06	-54589.1	1055.82	-29743.2	0.000000	0.000000	6.282851	-0.033870	NaN	0.000000	0.001671	0.001684	28.0837	0.134793	0.001953	69.0085	-21.748	-167.18	0.004225	0.281397	-0.866421	-0.867773	-0.033870	69.0085	-0.866052	-3.532093E+11	9.589207E-14	NaN
1089	1.000000	0.292738	7.37571e+06	-54589.1	1055.82	-29743.2	0.000000	0.000000	6.292839	-0.046923	NaN	0.000000	0.001624	0.001687	28.0839	0.027313	0.002017	13.5414	-170.986	15.6384	-0.048557	0.291334	-0.856432	-0.857836	-0.046923	13.5414	-0.853833	-2.413444E+11	1.944233E-13	NaN
1089	1.000000	0.302769	7.37571e+06	-54589.1	1055.82	-29743.2	0.000000	0.000000	6.302870	-0.039096	NaN	0.000000	0.001607	0.001656	28.0838	0.075260	0.002213	34.0086	-34.7625	-165.719	-0.035839	0.301429	-0.846401	-0.847741	-0.039096	34.0086	-0.845539	-1.863461E+11	2.098042E-13	NaN
1089	1.000000	0.312766	7.37571e+06	-54589.1	1055.82	-29743.2	0.000000	0.000000	6.312865	-0.071733	NaN	0.000000	0.001610	0.001662	28.0841	0.084766	0.002086	40.6287	26.1655	15.2712	-0.068342	0.311396	-0.836404	-0.837774	-0.071733	40.6287	-0.835080	-1.344717E+11	5.334423E-13	NaN
1089	1.000000	0.322772	7.37571e+06	-54589.1	1055.82	-29743.2	0.000000	0.000000	6.322871	-0.084479	NaN	0.000000	0.001594	0.001649	28.0839	0.016810	0.002027	8.292483	98.4835	-164.095	-0.075926	0.321444	-0.826398	-0.827725	-0.084479	8.292483	-0.818758	-8.079141E+10	1.045638E-12	NaN
1089	1.000000	0.332759	7.37571e+06	-54589.1	1055.82	-29743.2	0.000000	0.000000	6.332858	-0.088585	NaN	0.000000	0.001600	0.001662	28.0841	0.037479	0.001975	18.9808	-37.8297	12.8559	-0.050660	0.331400	-0.816411	-0.817770	-0.088585	18.9808	-0.812910	-6.730607E+10	1.316154E-12	NaN
1089	1.000000	0.342769	7.37571e+06	-54589.1	1055.82	-29743.2	0.000000	0.000000	6.342870	-0.038863	NaN	0.000000	0.001574	0.001637	28.0836	0.060897	0.002143	28.4212	84.6146	-165.868	0.049693	0.341463	-0.806401	-0.807707	-0.038863	28.4212	-0.805375	-5.318883E+10	7.306663E-13	NaN
1089	1.000000	0.352743	7.37571e+06	-54589.1	1055.82	-29743.2	0.000000	0.000000	6.352848	0.060908	NaN	0.000000	0.001607	0.001696	28.0836	0.045753	0.001959	23.3536	-75.9246	15.4489	0.101498	0.351431	-0.796427	-0.797738	0.060908	23.3536	-0.798383	-4.274736E+10	-1.424846E-12	NaN
1089	1.000000	0.362767	7.37571e+06	-54589.1	1055.82	-29743.2	0.000000	0.000000	6.362869	-0.021751	NaN	0.000000	0.001596	0.001685	28.0835	0.156508	0.002061	75.9289	158.645	-166.114	-0.022761	0.361494	-0.786403	-0.787676	-0.021751	75.9289	-0.786188	-2.919498E+10	7.450237E-13	NaN
1089	1.000000	0.372796	7.37571e+06	-54589.1	1055.82	-29743.2	0.000000	0.000000	6.372897	-0.043131	NaN	0.000000	0.001594	0.001641	28.0838	0.045427	0.001914	23.7295	-155.663	16.3861	-0.009290	0.371431	-0.776374	-0.777739	-0.043131	23.7295	-0.775010	-2.057871E+10	2.095917E-12	NaN
1089	1.000000	0.382763	7.37571e+06	-54589.1	1055.82	-29743.2	0.000000	0.000000	6.382865	-0.031899	NaN	0.000000	0.001592	0.001666	28.0835	0.113941	0.001925	59.2014	-156.146	-165.04	0.042884	0.381481	-0.766406	-0.767688	-0.031899	59.2014	-0.766002	-1.552185E+10	2.055095E-12	NaN
1089	1.000000	0.392817	7.37571e+06	-54589.1	1055.82	-29743.2	0.000000	0.000000	6.392918	-0.030022	NaN	0.000000	0.001590	0.001689	28.0822	0.069922	0.002039	34.2881	143.813	11.8825	-0.015804	0.391419	-0.756353	-0.757751	-0.030022	34.2881	-0.755696	-1.123950E+10	2.671140E-12	NaN
1089	1.000000	0.402796	7.37571e+06	-54589.1	1055.82	-29743.2	0.000000	0.000000	6.402900	0.030531	NaN	0.000000	0.001589	0.001714	28.0824	0.043161	0.001995	21.6397	33.5359	-164.779	0.000823	0.401495	-0.746373	-0.747675	0.030531	21.6397	-0.747432	-8.674705E+9	-3.519506E-12	NaN
1089	1.000000	0.412818	7.37571e+06	-54589.1	1055.82	-29743.2	0.000000	0.000000	6.412921	0.015796	NaN	0.000000	0.001600	0.001681	28.0823	0.059785	0.002017	29.6457	-5.853223	17.034	0.094600	0.411453	-0.736352	-0.737717	0.015796	29.6457	-0.736752	-6.205976E+9	-2.545254E-12	NaN
1089	1.000000	0.422808	7.37571e+06	-54589.1	1055.82	-29743.2	0.000000	0.000000	6.422909	-0.038671	NaN	0.000000	0.001571	0.001659	28.0823	0.095716	0.001928	49.6418	-26.7606	-163.573	-0.083150	0.421532	-0.726362	-0.727638	-0.038671	49.6418	-0.725778	-4.397988E+9	8.792907E-12	NaN
1089	1.000000	0.432790	7.37571e+06	-54589.1	1055.82	-29743.2	0.000000	0.000000	6.432890	-0.072805	NaN	0.000000	0.001559	0.001691	28.0822	0.140207	0.002111	66.4036	-7.642678	17.3106	-0.100852	0.431445	-0.716380	-0.717725	-0.072805	66.4036	-0.715557	-3.190619E+9	2.281856E-11	NaN
1089	1.000000	0.442823	7.37571e+06	-54589.1	1055.82	-29743.2	0.000000	0.000000	6.442924	-0.057118	NaN	0.000000	0.001565	0.001688	28.0825	0.058931	0.002046	28.8032	-156.307	-161.613	-0.045246	0.441494	-0.706347	-0.707675	-0.057118	28.8032	-0.704859	-2.279718E+9	2.505468E-11	NaN
1089	1.000000	0.452806	7.37571e+06	-54589.1	1055.82	-29743.2	0.000000	0.000000	6.452911	0.033292	NaN	0.000000	0.001545	0.001661	28.0821	0.070581	0.001867	37.8064	72.8512	17.1213	0.011343	0.451437	-0.696363	-0.697732	0.033292	37.8064	-0.697024	-1.781894E+9	-1.868362E-11	NaN
1089	1.000000	0.462820	7.37571e+06	-54589.1	1055.82	-29743.2	0.000000	0.000000	6.462924	0.033390	NaN	0.000000	0.001535	0.001705	28.0823	0.094595	0.002006	47.1444	-43.4924	-166.354	-0.010467	0.461546	-0.686350	-0.687624	0.033390	47.1444	-0.686881	-1.295051E+9	-2.578244E-11	NaN
1089	1.000000	0.472822	7.37571e+06	-54589.1	1055.82	-29743.2	0.000000	0.000000	6.472922	-0.062736	NaN	0.000000	0.001575	0.001632	28.0822	0.084450	0.002094	40.3306	-8.744677	14.2794	-0.047023	0.471490	-0.676348	-0.677680	-0.062736	40.3306	-0.675181	-8.959581E+8	7.002126E-11	NaN
1089	1.000000	0.482821	7.37571e+06	-54589.1	1055.82	-29743.2	0.000000	0.000000	6.482924	0.004406	NaN	0.000000	0.001533	0.001643	28.0824	0.085832	0.002058	41.7077	-97.7008	-163.186	0.010430	0.481484	-0.666349	-0.667686	0.004406	41.7077	-0.666428	-6.799841E+8	-6.479148E-12	NaN
1089	1.000000	0.492846	7.37571e+06	-54589.1	1055.82	-29743.2	0.000000	0.000000	6.492946	-0.061688	NaN	0.000000	0.001583	0.001672	28.0821	0.088796	0.002081	42.6659	35.2685	20.7161	-0.029353	0.491483	-0.656324	-0.657686	-0.061688	42.6659	-0.655239	-4.778012E+8	1.291089E-10	NaN
1089	1.000000	0.502827	7.37571e+06	-54589.1	1055.82	-29743.2	0.000000	0.000000	6.502930	-0.001739	NaN	0.000000	0.001579	0.001698	28.0828	0.082809	0.001877	44.1195	-164.818	-164.162	-0.004561	0.501518	-0.646343	-0.647651	-0.001739	44.1195	-0.646313	-3.604834E+8	4.823880E-12	NaN
1089	1.000000	0.512815	7.37571e+06	-54589.1	1055.82	-29743.2	0.000000	0.000000	6.512915	-0.066725	NaN	0.000000	0.001669	0.001667	28.0822	0.107503	0.002053	52.3688	85.9324	16.5243	-0.039807	0.511469	-0.636355	-0.637701	-0.066725	52.3688	-0.635400	-2.553617E+8	2.612973E-10	NaN
1089	1.000000	0.522829	7.37571e+06	-54589.1	1055.82	-29743.2	0.000000	0.000000	6.522930	-0.059778	NaN	0.000000	0.001657	0.001695	28.0836	0.052784	0.002057	25.6547	166.871	-164.379	-0.011241	0.521504	-0.626341	-0.627666	-0.059778	25.6547	-0.624593	-1.814482E+8	3.294512E-10	NaN
1089	1.000000	0.532838	7.37571e+06	-54589.1	1055.82	-29743.2	0.000000	0.000000	6.532941	0.020937	NaN	0.000000	0.001635	0.001660	28.0833	0.108576	0.001996	54.4054	75.2345	15.4292	0.038269	0.531503	-0.616332	-0.617667	0.020937	54.4054	-0.616621	-1.409868E+8	-1.485023E-10	NaN
1089	1.000000	0.542843	7.37571e+06	-54589.1	1055.82	-29743.2	0.000000	0.000000	6.542945	-0.008014	NaN	0.000000	0.001642	0.001692	28.0833	0.122377	0.001997	61.2848	-154.165	-162.24	-0.037573	0.541531	-0.606327	-0.607639	-0.008014	61.2848	-0.606229	-1.014428E+8	7.900412E-11	NaN
1089	1.000000	0.552837	7.37571e+06	-54589.1	1055.82	-29743.2	0.000000	0.000000	6.552941	0.022572	NaN	0.000000	0.001637	0.001660	28.0833	0.052414	0.001886	27.7849	-55.2322	17.0659	-0.059244	0.551490	-0.596333	-0.597679	0.022572	27.7849	-0.596942	-7.556829E+7	-2.986929E-10	NaN
1089	1.000000	0.562862	7.37571e+06	-54589.1	1055.82	-29743.2	0.000000	0.000000	6.562962	-0.079081	NaN	0.000000	0.001633	0.001673	28.0833	0.036259	0.002012	18.0207	147.992	-165.709	-0.093735	0.561554	-0.586308	-0.587616	-0.079081	18.0207	-0.583017	-4.856820E+7	1.628240E-9	NaN
1089	1.000000	0.572867	7.37571e+06	-54589.1	1055.82	-29743.2	0.000000	0.000000	6.572968	-0.035898	NaN	0.000000	0.001661	0.001671	28.0834	0.054042	0.002088	25.8814	-49.5936	11.5058	-0.103819	0.571535	-0.576303	-0.577634	-0.035898	25.8814	-0.575262	-3.795974E+7	9.456891E-10	NaN
1089	1.000000	0.582861	7.37571e+06	-54589.1	1055.82	-29743.2	0.000000	0.000000	6.582961	-0.053730	NaN	0.000000	0.001680	0.001720	28.0833	0.027185	0.001966	13.8305	6.555019	-162.885	-0.136604	0.581562	-0.566309	-0.567608	-0.053730	13.8305	-0.563395	-2.602178E+7	2.064821E-9	NaN
1089	1.000000	0.592896	7.37571e+06	-54589.1	1055.82	-29743.2	0.000000	0.000000	6.592998	-0.014084	NaN	0.000000	0.001655	0.001682	28.0836	0.139744	0.002167	64.4889	-179.315	16.3368	-0.021009	0.591469	-0.556274	-0.557701	-0.014084	64.4889	-0.556110	-2.063275E+7	6.826185E-10	NaN
1089	1.000000	0.602884	7.37571e+06	-54589.1	1055.82	-29743.2	0.000000	0.000000	6.602986	-0.021205	NaN	0.000000	0.001637	0.001664	28.0836	0.095482	0.002029	47.0642	-107.701	-165.714	-0.038901	0.601517	-0.546286	-0.547653	-0.021205	47.0642	-0.545948	-1.492164E+7	1.421105E-9	NaN
1089	1.000000	0.612891	7.37571e+06	-54589.1	1055.82	-29743.2	0.000000	0.000000	6.612992	-0.041205	NaN	0.000000	0.001594	0.001665	28.0838	0.072758	0.002025	35.9345	-75.6482	17.2232	-0.077267	0.611540	-0.536279	-0.537630	-0.041205	35.9345	-0.535419	-1.066105E+7	3.864994E-9	NaN
1089	1.000000	0.622861	7.37571e+06	-54589.1	1055.82	-29743.2	0.000000	0.000000	6.622966	0.049629	NaN	0.000000	0.001580	0.001622	28.0837	0.008123	0.001936	4.195114	60.6139	-164.949	-0.013615	0.621586	-0.526308	-0.527584	0.049629	4.195114	-0.535181	-1.058037E+7	-4.690630E-9	NaN
1089	1.000000	0.632895	7.37571e+06	-54589.1	1055.82	-29743.2	0.000000	0.000000	6.632997	-0.040982	NaN	0.000000	0.001591	0.001663	28.0845	0.069887	0.002071	33.7408	138.176	17.8713	-0.031218	0.631508	-0.516274	-0.517662	-0.040982	33.7408	-0.515363	-5.61165e+06	7.303019E-9	NaN
1089	1.000000	0.642915	7.37571e+06	-54589.1	1055.82	-29743.2	0.000000	0.000000	6.643017	-0.030089	NaN	0.000000	0.001592	0.001635	28.0837	0.075059	0.001945	38.5864	55.046	-164.309	-0.089890	0.641586	-0.506254	-0.507583	-0.030089	38.5864	-0.505670	-4.11222e+06	7.317049E-9	NaN
1089	1.000000	0.652913	7.37571e+06	-54589.1	1055.82	-29743.2	0.000000	0.000000	6.653015	-0.002377	NaN	0.000000	0.001612	0.001658	28.0841	0.097050	0.001898	51.1317	94.6549	11.3906	0.007008	0.651542	-0.496257	-0.497628	-0.002377	51.1317	-0.496222	-3.03597e+06	7.830078E-10	NaN
1089	1.000000	0.662882	7.37571e+06	-54589.1	1055.82	-29743.2	0.000000	0.000000	6.662986	0.022995	NaN	0.000000	0.001637	0.001640	28.0825	0.089885	0.001825	49.2532	161.229	-160.991	-0.014057	0.661646	-0.486287	-0.487524	0.022995	49.2532	-0.486638	-2.23044e+06	-1.030965E-8	NaN
1089	1.000000	0.672921	7.37571e+06	-54589.1	1055.82	-29743.2	0.000000	0.000000	6.673021	-0.067162	NaN	0.000000	0.001587	0.001637	28.0826	0.049851	0.002010	24.7968	71.574	18.7727	-0.085479	0.671537	-0.476248	-0.477633	-0.067162	24.7968	-0.474217	-1.49461e+06	4.493594E-8	NaN
1089	1.000000	0.682923	7.37571e+06	-54589.1	1055.82	-29743.2	0.000000	0.000000	6.683027	0.006131	NaN	0.000000	0.001575	0.001645	28.0823	0.042930	0.001950	22.0109	170.253	-166.106	-0.030077	0.681603	-0.466246	-0.467566	0.006131	22.0109	-0.466455	-1.16325e+06	-5.270750E-9	NaN
1089	1.000000	0.692914	7.37571e+06	-54589.1	1055.82	-29743.2	0.000000	0.000000	6.693016	-0.020221	NaN	0.000000	0.001586	0.001667	28.0826	0.046310	0.002070	22.3748	-78.0473	11.6837	0.027585	0.691517	-0.456256	-0.457653	-0.020221	22.3748	-0.455578	-818175	2.471463E-8	NaN
1089	1.000000	0.702952	7.37571e+06	-54589.1	1055.82	-29743.2	0.000000	0.000000	6.703052	-0.071482	NaN	0.000000	0.001607	0.001683	28.0827	0.143353	0.002044	70.1298	144.716	-163.698	-0.033558	0.701620	-0.446218	-0.447550	-0.071482	70.1298	-0.445453	-589228	1.213140E-7	NaN
1089	1.000000	0.712934	7.37571e+06	-54589.1	1055.82	-29743.2	0.000000	0.000000	6.713036	-0.019949	NaN	0.000000	0.001633	0.001700	28.0824	0.079858	0.001994	40.0396	-144.383	15.3399	-0.017990	0.711576	-0.436236	-0.437594	-0.019949	40.0396	-0.435862	-431451	4.623598E-8	NaN
1089	1.000000	0.722921	7.37571e+06	-54589.1	1055.82	-29743.2	0.000000	0.000000	6.723021	-0.052255	NaN	0.000000	0.001603	0.001677	28.0827	0.084805	0.001921	44.1354	-70.117	-164.628	-0.112695	0.721595	-0.426249	-0.427575	-0.052255	44.1354	-0.425361	-306476	1.705023E-7	NaN
1089	1.000000	0.732916	7.37571e+06	-54589.1	1055.82	-29743.2	0.000000	0.000000	6.733017	-0.043457	NaN	0.000000	0.001614	0.001645	28.0828	0.056061	0.001935	28.97	-77.7945	12.1522	0.020180	0.731598	-0.416254	-0.417571	-0.043457	28.97	-0.415129	-219426	1.980492E-7	NaN
1089	1.000000	0.742929	7.37571e+06	-54589.1	1055.82	-29743.2	0.000000	0.000000	6.743034	0.029780	NaN	0.000000	0.001622	0.001685	28.0829	0.051517	0.002077	24.8027	-165.285	-159.191	0.023468	0.741636	-0.406240	-0.407533	0.029780	24.8027	-0.407141	-168937	-1.762763E-7	NaN
1089	1.000000	0.752929	7.37571e+06	-54589.1	1055.82	-29743.2	0.000000	0.000000	6.753031	-0.027735	NaN	0.000000	0.001603	0.001669	28.0826	0.031428	0.001928	16.3025	-146.089	15.366	-0.031440	0.751616	-0.396241	-0.397554	-0.027735	16.3025	-0.394965	-113274	2.448473E-7	NaN
1089	1.000000	0.762931	7.37571e+06	-54589.1	1055.82	-29743.2	0.000000	0.000000	6.763033	-0.020651	NaN	0.000000	0.001617	0.001719	28.0825	0.009254	0.001961	4.718199	165.05	-162.745	0.002505	0.761623	-0.386239	-0.387547	-0.020651	4.718199	-0.382956	-76259.3	2.708027E-7	NaN
1089	1.000000	0.772936	7.37571e+06	-54589.1	1055.82	-29743.2	0.000000	0.000000	6.773037	-0.045657	NaN	0.000000	0.001671	0.001718	28.0825	0.062442	0.001874	33.3191	21.0518	19.1424	-0.047624	0.771626	-0.376234	-0.377544	-0.045657	33.3191	-0.375206	-59024.8	7.735164E-7	NaN
1089	1.000000	0.782949	7.37571e+06	-54589.1	1055.82	-29743.2	0.000000	0.000000	6.783050	-0.036806	NaN	0.000000	0.001719	0.001713	28.0825	0.083564	0.002024	41.2799	121.182	-163.572	-0.076679	0.781633	-0.366221	-0.367537	-0.036806	41.2799	-0.365552	-42857.2	8.588094E-7	NaN
1089	1.000000	0.792935	7.37571e+06	-54589.1	1055.82	-29743.2	0.000000	0.000000	6.793037	-0.016710	NaN	0.000000	0.001731	0.001712	28.0827	0.055747	0.001921	29.0133	143.797	14.3903	-0.031539	0.791545	-0.356235	-0.357625	-0.016710	29.0133	-0.355803	-30983.1	5.393153E-7	NaN
1089	1.000000	0.802970	7.37571e+06	-54589.1	1055.82	-29743.2	0.000000	0.000000	6.803072	-0.022310	NaN	0.000000	0.001687	0.001681	28.0837	0.025994	0.002078	12.5098	110.153	-168.532	0.010570	0.801637	-0.346199	-0.347533	-0.022310	12.5098	-0.344862	-21495.5	1.037906E-6	NaN
1089	1.000000	0.812979	7.37571e+06	-54589.1	1055.82	-29743.2	0.000000	0.000000	6.813079	-0.066665	NaN	0.000000	0.001687	0.001721	28.084	0.072512	0.001994	36.366	-73.2983	15.6584	-0.078308	0.811648	-0.336191	-0.337521	-0.066665	36.366	-0.334816	-15342.6	4.345068E-6	NaN
1089	1.000000	0.822977	7.37571e+06	-54589.1	1055.82	-29743.2	0.000000	0.000000	6.823077	-0.068914	NaN	0.000000	0.001701	0.001680	28.0838	0.101500	0.001973	51.4405	-50.0312	-161.664	-0.041312	0.821630	-0.326193	-0.327540	-0.068914	51.4405	-0.325188	-11089.2	6.214519E-6	NaN
1089	1.000000	0.832951	7.37571e+06	-54589.1	1055.82	-29743.2	0.000000	0.000000	6.833052	-0.038309	NaN	0.000000	0.001653	0.001675	28.0838	0.108893	0.002005	54.3202	108.473	17.249	-0.011427	0.831653	-0.316219	-0.317517	-0.038309	54.3202	-0.315690	-8037.54	4.766197E-6	NaN
1089	1.000000	0.842990	7.37571e+06	-54589.1	1055.82	-29743.2	0.000000	0.000000	6.843094	0.028592	NaN	0.000000	0.001697	0.001702	28.0838	0.024159	0.002000	12.0805	147.362	-162.49	0.007568	0.841650	-0.306180	-0.307520	0.028592	12.0805	-0.307955	-6176.96	-4.628752E-6	NaN
1089	1.000000	0.852989	7.37571e+06	-54589.1	1055.82	-29743.2	0.000000	0.000000	6.853089	-0.072495	NaN	0.000000	0.001701	0.001682	28.0841	0.099428	0.001974	50.3632	159.262	17.2321	-0.037408	0.851603	-0.296181	-0.297567	-0.072495	50.3632	-0.295101	-3977.41	1.822666E-5	NaN
1089	1.000000	0.862995	7.37571e+06	-54589.1	1055.82	-29743.2	0.000000	0.000000	6.863095	-0.047858	NaN	0.000000	0.001647	0.001687	28.0841	0.086528	0.002080	41.6019	159.453	-165.685	-0.045852	0.861710	-0.286175	-0.287460	-0.047858	41.6019	-0.285312	-2837.67	1.686534E-5	NaN
1089	1.000000	0.873024	7.37571e+06	-54589.1	1055.82	-29743.2	0.000000	0.000000	6.873124	-0.065955	NaN	0.000000	0.001687	0.001725	28.0841	0.067006	0.002004	33.4437	-39.8791	15.8204	-0.021753	0.871623	-0.276146	-0.277547	-0.065955	33.4437	-0.274667	-1960.44	3.364286E-5	NaN
1089	1.000000	0.882989	7.37571e+06	-54589.1	1055.82	-29743.2	0.000000	0.000000	6.883090	-0.042656	NaN	0.000000	0.001590	0.001717	28.0842	0.058121	0.002080	27.9396	-166.648	-165.873	-0.007986	0.881704	-0.266180	-0.267466	-0.042656	27.9396	-0.265035	-1399.36	3.048226E-5	NaN
1089	1.000000	0.893007	7.37571e+06	-54589.1	1055.82	-29743.2	0.000000	0.000000	6.893107	-0.067176	NaN	0.000000	0.001591	0.001653	28.0841	0.041768	0.002026	20.617	-12.8955	14.904	-0.068404	0.891593	-0.256163	-0.257577	-0.067176	20.617	-0.253719	-938.405	7.158508E-5	NaN
1089	1.000000	0.903022	7.37571e+06	-54589.1	1055.82	-29743.2	0.000000	0.000000	6.903126	0.012865	NaN	0.000000	0.001598	0.001704	28.0841	0.097005	0.001977	49.0616	154.162	-165.673	-0.032365	0.901686	-0.246147	-0.247483	0.012865	49.0616	-0.246344	-721.65	-1.782759E-5	NaN
1089	1.000000	0.912989	7.37571e+06	-54589.1	1055.82	-29743.2	0.000000	0.000000	6.913090	-0.061457	NaN	0.000000	0.001589	0.001701	28.0839	0.032055	0.002064	15.5308	-5.585434	18.0075	-0.103927	0.911597	-0.236181	-0.237573	-0.061457	15.5308	-0.233213	-449.941	0.000137	NaN
1089	1.000000	0.923017	7.37571e+06	-54589.1	1055.82	-29743.2	0.000000	0.000000	6.923118	-0.048127	NaN	0.000000	0.001613	0.001684	28.0841	0.082181	0.001967	41.7794	46.7545	-161.742	0.026406	0.921694	-0.226152	-0.227475	-0.048127	41.7794	-0.225288	-337.221	0.000143	NaN
1089	1.000000	0.933006	7.37571e+06	-54589.1	1055.82	-29743.2	0.000000	0.000000	6.933103	-0.140565	NaN	0.000000	0.001619	0.001689	28.0827	0.036295	0.001997	18.1764	142.095	13.5111	-0.091147	0.931630	-0.216164	-0.217540	-0.140565	18.1764	-0.210364	-194.408	0.000723	NaN
1089	1.000000	0.943025	7.37571e+06	-54589.1	1055.82	-29743.2	0.000000	0.000000	6.943125	-0.072557	NaN	0.000000	0.001566	0.001667	28.0827	0.018283	0.001922	9.513852	2.712040	-165.32	0.001505	0.941734	-0.206145	-0.207436	-0.072557	9.513852	-0.200425	-133.871	0.000542	NaN
1089	1.000000	0.953030	7.37571e+06	-54589.1	1055.82	-29743.2	0.000000	0.000000	6.953132	-0.028708	NaN	0.000000	0.001596	0.001668	28.0828	0.037197	0.002122	17.5287	-73.9753	17.4876	-0.054872	0.951672	-0.196139	-0.197497	-0.028708	17.5287	-0.194911	-108.575	0.000264	NaN
1089	1.000000	0.963042	7.37571e+06	-54589.1	1055.82	-29743.2	0.000000	0.000000	6.963140	-0.103113	NaN	0.000000	0.001577	0.001678	28.0829	0.056542	0.002074	27.2627	30.0821	-160.403	-0.094582	0.961712	-0.186128	-0.187458	-0.103113	27.2627	-0.183291	-69.3884	0.001486	NaN
1089	1.000000	0.973011	7.37571e+06	-54589.1	1055.82	-29743.2	0.000000	0.000000	6.973113	-0.008333	NaN	0.000000	0.001594	0.001597	28.0828	0.032288	0.001973	16.3666	-72.5504	13.714	-0.040593	0.971645	-0.176159	-0.177525	-0.008333	16.3666	-0.175777	-51.6797	0.000161	NaN
1089	1.000000	0.983006	7.37571e+06	-54589.1	1055.82	-29743.2	0.000000	0.000000	6.983106	-0.078465	NaN	0.000000	0.001584	0.001721	28.0828	0.022283	0.001818	12.2539	15.0657	-161.858	-0.030559	0.981744	-0.166164	-0.167426	-0.078465	12.2539	-0.161361	-28.9824	0.002707	NaN
1089	1.000000	0.993071	7.37571e+06	-54589.1	1055.82	-29743.2	0.000000	0.000000	6.993170	-0.102152	NaN	0.000000	0.001590	0.001684	28.083	0.038994	0.002085	18.7028	9.090121	14.1631	-0.096448	0.991745	-0.156099	-0.157425	-0.102152	18.7028	-0.152002	-19.6981	0.005186	NaN
1089	1.000000	1.003039	7.37571e+06	-54589.1	1055.82	-29743.2	0.000000	0.000000	7.003140	-0.054957	NaN	0.000000	0.001593	0.001676	28.0828	0.029897	0.002010	14.8774	-163.993	-163.181	0.069388	1.001730	-0.146130	-0.147440	-0.054957	14.8774	-0.143360	-13.6695	0.004020	NaN
1089	1.000000	1.013044	7.37571e+06	-54589.1	1055.82	-29743.2	0.000000	0.000000	7.013147	-0.000240	NaN	0.000000	0.001570	0.001640	28.0829	0.016782	0.002080	8.067609	-59.1853	14.7203	-0.067799	1.011638	-0.136125	-0.137531	-0.000240	8.067609	-0.136103	-9.984099	2.404982E-5	NaN
1089	1.000000	1.023054	7.37571e+06	-54589.1	1055.82	-29743.2	0.000000	0.000000	7.023151	-0.121284	NaN	0.000000	0.001582	0.001671	28.0828	0.031161	0.001979	15.7442	-77.2875	-166.689	-0.051875	1.021720	-0.126116	-0.127450	-0.121284	15.7442	-0.120339	-4.908093	0.024711	NaN
1089	1.000000	1.033064	7.37571e+06	-54589.1	1055.82	-29743.2	0.000000	0.000000	7.033165	-0.033805	NaN	0.000000	0.001579	0.001707	28.0831	0.029004	0.002051	14.1387	103.168	15.73	-0.010587	1.031654	-0.116106	-0.117516	-0.033805	14.1387	-0.114313	-3.697541	0.009143	NaN
1089	1.000000	1.043079	7.37571e+06	-54589.1	1055.82	-29743.2	0.000000	0.000000	7.043180	-0.057272	NaN	0.000000	0.001592	0.001665	28.0827	0.104191	0.001930	53.9911	70.0564	-164.748	-0.049570	1.041779	-0.106091	-0.107391	-0.057272	53.9911	-0.105295	-2.385288	0.024010	NaN
1089	1.000000	1.053052	7.37571e+06	-54589.1	1055.82	-29743.2	0.000000	0.000000	7.053154	-0.004287	NaN	0.000000	0.001591	0.001693	28.0828	0.038680	0.002008	19.2608	-66.7429	15.6426	-0.006727	1.051702	-0.096118	-0.097468	-0.004287	19.2608	-0.095951	-1.482614	0.002892	NaN
1089	1.000000	1.063099	7.37571e+06	-54589.1	1055.82	-29743.2	0.000000	0.000000	7.063199	-0.065213	NaN	0.000000	0.001600	0.001697	28.0827	0.094572	0.001970	48.017	136.589	-162.651	-0.060829	1.061814	-0.086071	-0.087356	-0.065213	48.017	-0.085052	-0.824016	0.079141	NaN
1089	1.000000	1.073061	7.37571e+06	-54589.1	1055.82	-29743.2	0.000000	0.000000	7.073164	0.001148	NaN	0.000000	0.001604	0.001671	28.084	0.042387	0.002166	19.5651	-117.638	14.6414	0.012847	1.071708	-0.076109	-0.077462	0.001148	19.5651	-0.076153	-0.494565	-0.002322	NaN
1089	1.000000	1.083080	7.37571e+06	-54589.1	1055.82	-29743.2	0.000000	0.000000	7.083180	-0.077329	NaN	0.000000	0.001614	0.001672	28.0839	0.019818	0.001989	9.961791	-173.162	-161.182	-0.061374	1.081728	-0.066089	-0.067442	-0.077329	9.961791	-0.060267	-0.183301	0.421870	NaN
1089	1.000000	1.093106	7.37571e+06	-54589.1	1055.82	-29743.2	0.000000	0.000000	7.093209	0.008972	NaN	0.000000	0.001581	0.001670	28.084	0.014975	0.001955	7.658942	-70.092	15.5009	0.016941	1.091651	-0.056064	-0.057519	0.008972	7.658942	-0.056942	-0.146872	-0.061089	NaN
1089	1.000000	1.103110	7.37571e+06	-54589.1	1055.82	-29743.2	0.000000	0.000000	7.103213	0.012981	NaN	0.000000	0.001619	0.001674	28.0839	0.142540	0.001992	71.5742	-2.389794	-169.297	0.048155	1.101798	-0.046060	-0.047372	0.012981	71.5742	-0.046196	-0.069911	-0.185683	NaN
1089	1.000000	1.113060	7.37571e+06	-54589.1	1055.82	-29743.2	0.000000	0.000000	7.113165	0.033042	NaN	0.000000	0.001589	0.001650	28.084	0.064964	0.002002	32.4479	-132.822	14.9439	-0.063876	1.111724	-0.036109	-0.037446	0.033042	32.4479	-0.036873	-0.036397	-0.907822	NaN
1089	1.000000	1.123041	7.37571e+06	-54589.1	1055.82	-29743.2	0.000000	0.000000	7.123141	-0.077277	NaN	0.000000	0.001610	0.001678	28.0838	0.072129	0.002055	35.1036	142.918	-163.319	-0.008247	1.121747	-0.026129	-0.027423	-0.077277	35.1036	-0.024478	-0.016350	4.726444	NaN
1089	1.000000	1.133089	7.37571e+06	-54589.1	1055.82	-29743.2	0.000000	0.000000	7.133192	0.001881	NaN	0.000000	0.001567	0.001704	28.0841	0.141985	0.001950	72.7999	83.0533	14.2373	-0.028117	1.131689	-0.016080	-0.017481	0.001881	72.7999	-0.016100	-0.009945	-0.189154	NaN
1089	1.000000	1.143098	7.37571e+06	-54589.1	1055.82	-29743.2	0.000000	0.000000	7.143201	0.008554	NaN	0.000000	0.001593	0.001702	28.0842	0.023654	0.002092	11.3072	-60.5228	-166.733	0.088459	1.141804	-0.006071	-0.007366	0.008554	11.3072	-0.006639	-0.004424	-1.933633	NaN
1089	1.000000	1.153070	7.37571e+06	-54589.1	1055.82	-29743.2	0.000000	0.000000	7.153471	7.261775	NaN	0.000000	0.001611	0.001698	28.0842	7.512917	0.001585	4741.32	13.1932	7.154135	5.858586	1.151649	0.003900	0.002479	7.261775	4741.32	0.002751	0.002171	3344.19	92960
1089	2.000000	1.156724	7.37571e+06	-54589.1	1055.82	-29743.2	0.000000	0.000000	7.157276	10.916	NaN	0.000000	0.001607	0.001773	28.084	11.3985	0.001776	6417.09	8.314408	-173.387	10.8087	1.156400	0.007555	0.007230	10.916	6417.09	0.006279	0.005331	2047.64	80298.3
1089	2.000000	1.159171	7.37571e+06	-54589.1	1055.82	-29743.2	0.000000	0.000000	7.159852	14.0498	NaN	0.000000	0.001610	0.001707	28.0849	13.8091	0.001766	7818.09	10.1024	4.847507	13.6969	1.158818	0.010001	0.009648	14.0498	7818.09	0.008653	0.007723	1819.23	81279.9
1089	2.000000	1.161664	7.37571e+06	-54589.1	1055.82	-29743.2	0.000000	0.000000	7.162631	21.0059	NaN	0.000000	0.001530	0.001711	28.084	16.5614	0.001832	9041.27	9.012863	-176.401	20.9481	1.161257	0.012494	0.012088	21.0059	9041.27	0.010751	0.010029	2094.6	82486.3
1089	2.000000	1.164097	7.37571e+06	-54589.1	1055.82	-29743.2	0.000000	0.000000	7.165166	23.4829	NaN	0.000000	0.001595	0.001725	28.0847	19.6275	0.001753	11193.5	7.627739	3.431266	22.4157	1.163696	0.014927	0.014526	23.4829	11193.5	0.013354	0.013153	1785.41	89172.6
1089	2.000000	1.166619	7.37571e+06	-54589.1	1055.82	-29743.2	0.000000	0.000000	7.167819	26.6712	NaN	0.000000	0.001657	0.001713	28.0837	22.5645	0.001872	12051	4.857060	-175.756	25.3084	1.166293	0.017449	0.017123	26.6712	12051	0.015789	0.016353	1631.01	86100.1
1089	2.000000	1.169061	7.37571e+06	-54589.1	1055.82	-29743.2	0.000000	0.000000	7.170527	33.1486	NaN	0.000000	0.001686	0.001703	28.0832	23.7373	0.001740	13642	0.225211	8.581582	30.5008	1.168760	0.019891	0.019590	33.1486	13642	0.018068	0.019597	1691.48	89033.3
1089	2.000000	1.171592	7.37571e+06	-54589.1	1055.82	-29743.2	0.000000	0.000000	7.173437	42.337	NaN	0.000000	0.001688	0.001681	28.0827	26.7955	0.001806	14836.7	5.378459	-176.682	42.0498	1.171253	0.022423	0.022083	42.337	14836.7	0.020282	0.022988	1841.69	89404.5
1089	2.000000	1.174079	7.37571e+06	-54589.1	1055.82	-29743.2	0.000000	0.000000	7.176125	47.2412	NaN	0.000000	0.001674	0.001725	28.0841	29.4338	0.001803	16322.4	4.015627	2.036900	43.6729	1.173730	0.024909	0.024560	47.2412	16322.4	0.022738	0.027029	1747.8	90707.6
1089	2.000000	1.176573	7.37571e+06	-54589.1	1055.82	-29743.2	0.000000	0.000000	7.178797	51.5555	NaN	0.000000	0.001664	0.001760	28.0828	32.2025	0.001790	17994.9	5.088604	-178.43	49.6065	1.176215	0.027403	0.027045	51.5555	17994.9	0.025255	0.031481	1637.69	92661.7
1089	2.000000	1.179051	7.37571e+06	-54589.1	1055.82	-29743.2	0.000000	0.000000	7.181742	62.9207	NaN	0.000000	0.001650	0.001732	28.0843	33.5759	0.001709	19643.2	2.970561	1.609794	57.6189	1.178711	0.029881	0.029541	62.9207	19643.2	0.027479	0.035680	1763.48	95010.9
1089	2.000000	1.181568	7.37571e+06	-54589.1	1055.82	-29743.2	0.000000	0.000000	7.184644	72.2796	NaN	0.000000	0.001655	0.001699	28.0828	36.9078	0.001739	21224.6	8.186453	176.622	70.9807	1.181142	0.032398	0.031972	72.2796	21224.6	0.029844	0.040421	1788.15	96451
1089	2.000000	1.184075	7.37571e+06	-54589.1	1055.82	-29743.2	0.000000	0.000000	7.187386	77.979	NaN	0.000000	0.001639	0.001738	28.0831	39.3412	0.001770	22231	3.878766	1.317681	76.1093	1.183741	0.034905	0.034571	77.979	22231	0.032275	0.045590	1710.42	95125.2
1089	2.000000	1.186562	7.37571e+06	-54589.1	1055.82	-29743.2	0.000000	0.000000	7.190062	82.5638	NaN	0.000000	0.001671	0.001682	28.083	43.7127	0.001923	22734.2	6.858403	177.877	81.7099	1.186200	0.037393	0.037030	82.5638	22734.2	0.034669	0.050978	1619.6	91994.4
1089	2.000000	1.189013	7.37571e+06	-54589.1	1055.82	-29743.2	0.000000	0.000000	7.193171	98.5904	NaN	0.000000	0.001622	0.001707	28.0846	45.6384	0.001845	24739.6	6.888270	-3.507666	94.313	1.188629	0.039843	0.039460	98.5904	24739.6	0.036854	0.056152	1755.79	95386
1089	2.000000	1.191650	7.37571e+06	-54589.1	1055.82	-29743.2	0.000000	0.000000	7.196078	105.141	NaN	0.000000	0.001666	0.001707	28.0829	47.2828	0.001783	26515.2	6.832883	177.655	109.479	1.191180	0.042481	0.042010	105.141	26515.2	0.039507	0.062759	1675.3	96700.7
1089	2.000000	1.194097	7.37571e+06	-54589.1	1055.82	-29743.2	0.000000	0.000000	7.198820	112.325	NaN	0.000000	0.001651	0.001715	28.0831	50.1833	0.001829	27437.8	4.331839	-2.011701	112.953	1.193881	0.044927	0.044711	112.325	27437.8	0.041857	0.068915	1629.9	95491.4
1089	2.000000	1.196518	7.37571e+06	-54589.1	1055.82	-29743.2	0.000000	0.000000	7.201840	126.879	NaN	0.000000	0.001633	0.001695	28.083	52.3554	0.001801	29073.9	2.618261	178.683	124.911	1.196305	0.047348	0.047135	126.879	29073.9	0.044075	0.074983	1692.1	97005.1
1089	2.000000	1.199070	7.37571e+06	-54589.1	1055.82	-29743.2	0.000000	0.000000	7.204763	135.905	NaN	0.000000	0.001615	0.001668	28.0835	54.2041	0.001636	33125.5	5.106866	-4.395950	133.822	1.198726	0.049900	0.049556	135.905	33125.5	0.046823	0.082848	1640.42	105147
1089	2.000000	1.201530	7.37571e+06	-54589.1	1055.82	-29743.2	0.000000	0.000000	7.207692	147.296	NaN	0.000000	0.001672	0.001699	28.0838	56.3936	0.001705	33084.1	6.126874	173.952	145.152	1.201264	0.052360	0.052095	147.296	33084.1	0.049021	0.089411	1647.4	101087
1089	2.000000	1.203964	7.37571e+06	-54589.1	1055.82	-29743.2	0.000000	0.000000	7.210535	157.236	NaN	0.000000	0.001637	0.001723	28.0841	58.8706	0.001822	32312	3.610344	-3.360355	149.698	1.203627	0.054794	0.054457	157.236	32312	0.051145	0.095984	1638.15	95287.9
1089	2.000000	1.206545	7.37571e+06	-54589.1	1055.82	-29743.2	0.000000	0.000000	7.213635	169.874	NaN	0.000000	0.001633	0.001726	28.0843	60.9983	0.001838	33192.9	3.240215	177.052	168.715	1.206220	0.057375	0.057051	169.874	33192.9	0.053537	0.103658	1638.79	94192.7
1089	2.000000	1.209049	7.37571e+06	-54589.1	1055.82	-29743.2	0.000000	0.000000	7.216463	177.719	NaN	0.000000	0.001664	0.001698	28.0847	63.0935	0.001864	33843.5	7.420653	-6.830409	176.122	1.208714	0.059880	0.059544	177.719	33843.5	0.055941	0.111658	1591.64	92534.5
1089	2.000000	1.211547	7.37571e+06	-54589.1	1055.82	-29743.2	0.000000	0.000000	7.219457	189.788	NaN	0.000000	0.001635	0.001667	28.0842	64.6158	0.001785	36202	3.773734	175.985	187.461	1.211300	0.062377	0.062130	189.788	36202	0.058445	0.120292	1577.73	95364.6
1089	2.000000	1.214021	7.37571e+06	-54589.1	1055.82	-29743.2	0.000000	0.000000	7.222614	206.385	NaN	0.000000	0.001658	0.001712	28.0844	67.1385	0.001807	37147.3	6.061941	-6.127424	203.686	1.213630	0.064852	0.064460	206.385	37147.3	0.060685	0.128275	1608.93	94760.9
1089	2.000000	1.216500	7.37571e+06	-54589.1	1055.82	-29743.2	0.000000	0.000000	7.225346	212.554	NaN	0.000000	0.001651	0.001671	28.0844	69.7297	0.001814	38443.6	6.201552	172.88	210.109	1.216259	0.067330	0.067090	212.554	38443.6	0.063183	0.137470	1546.19	94731.2
1089	2.000000	1.219075	7.37571e+06	-54589.1	1055.82	-29743.2	0.000000	0.000000	7.228550	227.847	NaN	0.000000	0.001667	0.001670	28.0842	70.6912	0.001824	38749.6	2.654426	-3.288289	227.071	1.218852	0.069905	0.069682	227.847	38749.6	0.065495	0.146246	1557.97	92575.8
1089	2.000000	1.221476	7.37571e+06	-54589.1	1055.82	-29743.2	0.000000	0.000000	7.231585	243.27	NaN	0.000000	0.001641	0.001712	28.0841	73.5299	0.001812	40572.9	5.939179	172.62	240.382	1.221267	0.072306	0.072097	243.27	40572.9	0.067809	0.155290	1566.56	94067
1089	2.000000	1.224042	7.37571e+06	-54589.1	1055.82	-29743.2	0.000000	0.000000	7.234419	249.772	NaN	0.000000	0.001662	0.001699	28.0846	75.8407	0.001769	42875.4	4.868170	-6.646798	248.439	1.223623	0.074872	0.074454	249.772	42875.4	0.070503	0.166139	1503.39	96104.8
1089	2.000000	1.226562	7.37571e+06	-54589.1	1055.82	-29743.2	0.000000	0.000000	7.237624	266.434	NaN	0.000000	0.001643	0.001702	28.0843	79.164	0.001878	42162.7	4.833946	173.706	265.975	1.226257	0.077392	0.077087	266.434	42162.7	0.072653	0.175046	1522.08	92071.7
1089	2.000000	1.228977	7.37571e+06	-54589.1	1055.82	-29743.2	0.000000	0.000000	7.240859	286.362	NaN	0.000000	0.001650	0.001660	28.0842	79.9688	0.001793	44594.4	3.520187	-5.752300	281.742	1.228691	0.079807	0.079521	286.362	44594.4	0.074991	0.184981	1548.06	94730.5
1089	2.000000	1.231482	7.37571e+06	-54589.1	1055.82	-29743.2	0.000000	0.000000	7.243964	300.941	NaN	0.000000	0.001657	0.001713	28.0841	81.8049	0.001756	46582.8	3.286583	174.564	297.954	1.231197	0.082312	0.082027	300.941	46582.8	0.077467	0.195782	1537.13	96186.1
1089	2.000000	1.233949	7.37571e+06	-54589.1	1055.82	-29743.2	0.000000	0.000000	7.247338	322.995	NaN	0.000000	0.001669	0.001716	28.0843	84.1477	0.001686	49900.2	1.295329	-3.954136	316.499	1.233600	0.084779	0.084431	322.995	49900.2	0.079925	0.206787	1561.97	100257
1089	2.000000	1.236597	7.37571e+06	-54589.1	1055.82	-29743.2	0.000000	0.000000	7.250476	334.911	NaN	0.000000	0.001661	0.001669	28.0828	87.9652	0.001683	52263.2	6.312395	170.164	337.525	1.236233	0.087427	0.087063	334.911	52263.2	0.082621	0.219185	1527.99	101992
1089	2.000000	1.238929	7.37571e+06	-54589.1	1055.82	-29743.2	0.000000	0.000000	7.253665	355.729	NaN	0.000000	0.001694	0.001681	28.0826	88.7199	0.001727	51385.6	3.098448	-6.239784	349.168	1.238607	0.089760	0.089437	355.729	51385.6	0.084568	0.228343	1557.87	98247.2
1089	2.000000	1.241478	7.37571e+06	-54589.1	1055.82	-29743.2	0.000000	0.000000	7.257208	379.903	NaN	0.000000	0.001670	0.001688	28.0824	92.3181	0.001810	51014.9	8.630999	168.57	379.856	1.241139	0.092309	0.091969	379.903	51014.9	0.086723	0.238691	1591.61	95400.9
1089	2.000000	1.243922	7.37571e+06	-54589.1	1055.82	-29743.2	0.000000	0.000000	7.260313	395.974	NaN	0.000000	0.001665	0.001683	28.0827	94.2947	0.001866	50536	1.654681	-4.408721	390.391	1.243590	0.094752	0.094420	395.974	50536	0.088875	0.249234	1588.76	92484.7
1089	2.000000	1.246471	7.37571e+06	-54589.1	1055.82	-29743.2	0.000000	0.000000	7.263739	417.287	NaN	0.000000	0.001652	0.001687	28.0827	96.3273	0.001670	57694.6	-0.507769	176.822	414.043	1.246161	0.097301	0.096991	417.287	57694.6	0.091877	0.264296	1578.87	102533
1089	2.000000	1.249008	7.37571e+06	-54589.1	1055.82	-29743.2	0.000000	0.000000	7.267156	438.706	NaN	0.000000	0.001654	0.001706	28.0826	99.6901	0.001811	55059.2	6.032596	-9.504921	435.274	1.248605	0.099838	0.099435	438.706	55059.2	0.093862	0.274482	1598.31	96016.7
1089	2.000000	1.251420	7.37571e+06	-54589.1	1055.82	-29743.2	0.000000	0.000000	7.270465	460.489	NaN	0.000000	0.001636	0.001713	28.0828	102.11	0.001769	57713.6	4.194844	171.359	454.724	1.251166	0.102250	0.101996	460.489	57713.6	0.096266	0.287059	1604.16	98416
1089	2.000000	1.253028	7.37571e+06	-54589.1	1055.82	-29743.2	0.000000	0.000000	7.272502	470.925	NaN	0.000000	0.001664	0.001696	28.083	106.729	0.001817	58730.4	6.490645	-11.1088	469.294	1.252655	0.103858	0.103486	470.925	58730.4	0.097845	0.295463	1593.85	98715.2