File: remote_trans/data/nanoindenter/0828-1/data/Data_2025-08-06,11h17m57s/2025-07-22_16-23-58_1_294.txt
2025-07-22, 16:23:58, 1
Index	Phase	Displacement	Time	Pos X	Pos Y	Pos Z	Rot A	Rot B	Piezo Z	Force A	Force B	Gripper	Voltage A	Voltage B	Temperature	Amplitude force	Amplitude pos	Stiffness	Phase shift	Phase excitation	Force A raw	Displacement raw	HMax	HMax raw	Real Force	Real Stiffness	Contact Depth	Area	Hardness	Reduced Mod.
[#]	[#]	[um]	[s]	[um]	[um]	[um]	[m°]	[m°]	[um]	[uN]	[uN]	[V]	[V]	[V]	[°C]	[uN]	[um]	[N/m]	[°]	[°]	[uN]	[um]	[um]	[um]	[uN]	[N/m]	[um]	[um^2]	[MPa]	[MPa]
294	1.000000	0.003135	7.36794e+06	-53339.1	955.817	-29746.8	0.000000	0.000000	6.002810	-0.078868	NaN	0.000000	0.001611	0.001603	28.0807	0.043273	0.000891	48.5876	6.212450	-162.31	0.027340	0.001907	-1.141896	-1.143124	-0.078868	48.5876	-1.140679	-1.761334E+15	4.477763E-17	NaN
294	1.000000	0.013151	7.36794e+06	-53339.1	955.819	-29746.8	0.000000	0.000000	6.012831	0.023881	NaN	0.000000	0.001635	0.001619	28.0805	0.041302	0.001220	33.8613	-85.6696	19.1998	0.061665	0.011735	-1.131880	-1.133296	0.023881	33.8613	-1.132409	-1.364373E+15	-1.750346E-17	NaN
294	1.000000	0.023053	7.36794e+06	-53339.1	955.819	-29746.8	0.000000	0.000000	6.022733	0.028684	NaN	0.000000	0.001666	0.001617	28.0803	0.112788	0.001739	64.8645	129.419	-166.81	0.058385	0.021752	-1.121978	-1.123279	0.028684	64.8645	-1.122309	-9.987461E+14	-2.872020E-17	NaN
294	1.000000	0.033058	7.36794e+06	-53339.1	955.817	-29746.8	0.000000	0.000000	6.032738	0.013675	NaN	0.000000	0.001695	0.001577	28.0804	0.018054	0.001855	9.733414	-104.067	13.3025	0.007243	0.031710	-1.111972	-1.113321	0.013675	9.733414	-1.113026	-7.497173E+14	-1.824040E-17	NaN
294	1.000000	0.043088	7.36794e+06	-53339.1	955.818	-29746.8	0.000000	0.000000	6.042768	0.018933	NaN	0.000000	0.001674	0.001597	28.0809	0.085557	0.002003	42.7076	-111.2	-170.133	0.022496	0.041770	-1.101942	-1.103261	0.018933	42.7076	-1.102275	-5.377800E+14	-3.520645E-17	NaN
294	1.000000	0.053058	7.36794e+06	-53339.1	955.817	-29746.8	0.000000	0.000000	6.052737	0.008699	NaN	0.000000	0.001692	0.001601	28.0804	0.069271	0.001856	37.3174	-24.0455	14.9597	-0.015223	0.051722	-1.091973	-1.093309	0.008699	37.3174	-1.092148	-3.932378E+14	-2.212188E-17	NaN
294	1.000000	0.063094	7.36794e+06	-53339.1	955.818	-29746.8	0.000000	0.000000	6.062775	0.053200	NaN	0.000000	0.001679	0.001604	28.0793	0.043921	0.001865	23.5473	-162.991	-165.836	0.007735	0.061725	-1.081937	-1.083306	0.053200	23.5473	-1.083631	-3.021944E+14	-1.760443E-16	NaN
294	1.000000	0.073069	7.36794e+06	-53339.1	955.818	-29746.8	0.000000	0.000000	6.072748	-0.008333	NaN	0.000000	0.001660	0.001621	28.0794	0.080085	0.001992	40.1981	-112.491	16.4795	0.021982	0.071687	-1.071961	-1.073344	-0.008333	40.1981	-1.071806	-2.096288E+14	3.975009E-17	NaN
294	1.000000	0.083084	7.36794e+06	-53339.1	955.817	-29746.8	0.000000	0.000000	6.082764	0.033596	NaN	0.000000	0.001659	0.001628	28.0794	0.038604	0.001996	19.3399	-86.2343	-164.241	-0.048800	0.081804	-1.061947	-1.063227	0.033596	19.3399	-1.063250	-1.608764E+14	-2.088297E-16	NaN
294	1.000000	0.093081	7.36794e+06	-53339.1	955.818	-29746.8	0.000000	0.000000	6.092763	0.062221	NaN	0.000000	0.001676	0.001673	28.0791	0.073571	0.002036	36.1428	-24.7456	13.6237	0.024402	0.091719	-1.051950	-1.053312	0.062221	36.1428	-1.053241	-1.180257E+14	-5.271785E-16	NaN
294	1.000000	0.103090	7.36794e+06	-53339.1	955.818	-29746.8	0.000000	0.000000	6.102771	0.038041	NaN	0.000000	0.001683	0.001626	28.079	0.121939	0.002046	59.5951	-4.778916	-165.102	0.078988	0.101774	-1.041940	-1.043257	0.038041	59.5951	-1.042419	-8.443001E+13	-4.505635E-16	NaN
294	1.000000	0.113094	7.36794e+06	-53339.1	955.817	-29746.8	0.000000	0.000000	6.112773	-0.000413	NaN	0.000000	0.001640	0.001626	28.0792	0.084034	0.002011	41.7919	-120.377	13.0452	0.037398	0.111736	-1.031937	-1.033295	-0.000413	41.7919	-1.031929	-6.101378E+13	6.770280E-18	NaN
294	1.000000	0.123148	7.36794e+06	-53339.1	955.818	-29746.8	0.000000	0.000000	6.122826	-0.026062	NaN	0.000000	0.001586	0.001589	28.0795	0.092147	0.001998	46.1217	86.7735	-164.845	0.001675	0.121744	-1.021883	-1.023287	-0.026062	46.1217	-1.021459	-4.411454E+13	5.907864E-16	NaN
294	1.000000	0.133104	7.36794e+06	-53339.1	955.817	-29746.8	0.000000	0.000000	6.132782	-0.030614	NaN	0.000000	0.001556	0.001635	28.0792	0.045804	0.001839	24.9049	-113.343	13.8437	0.015173	0.131768	-1.011927	-1.013263	-0.030614	24.9049	-1.011005	-3.190836E+13	9.594233E-16	NaN
294	1.000000	0.143123	7.36794e+06	-53339.1	955.818	-29746.8	0.000000	0.000000	6.142801	-0.028953	NaN	0.000000	0.001599	0.001619	28.0792	0.033747	0.002018	16.7194	-77.3795	-166.662	0.029947	0.141786	-1.001908	-1.003244	-0.028953	16.7194	-1.000609	-2.311908E+13	1.252348E-15	NaN
294	1.000000	0.153109	7.36794e+06	-53339.1	955.819	-29746.8	0.000000	0.000000	6.152786	-0.057392	NaN	0.000000	0.001594	0.001621	28.0794	0.045983	0.002014	22.8264	-62.3068	15.0437	-0.030849	0.151729	-0.991921	-0.993302	-0.057392	22.8264	-0.990036	-1.665683E+13	3.445578E-15	NaN
294	1.000000	0.163133	7.36794e+06	-53339.1	955.819	-29746.8	0.000000	0.000000	6.162814	0.062188	NaN	0.000000	0.001640	0.001626	28.0795	0.025391	0.002012	12.621	-138.829	-166.509	0.033117	0.161793	-0.981898	-0.983238	0.062188	12.621	-0.985594	-1.451323E+13	-4.284901E-15	NaN
294	1.000000	0.173117	7.36794e+06	-53339.1	955.818	-29746.8	0.000000	0.000000	6.172795	-0.036271	NaN	0.000000	0.001666	0.001614	28.0793	0.055745	0.002028	27.4913	-48.7888	17.8546	-0.083379	0.171773	-0.971913	-0.973257	-0.036271	27.4913	-0.970924	-9.206938E+12	3.939569E-15	NaN
294	1.000000	0.183168	7.36794e+06	-53339.1	955.818	-29746.8	0.000000	0.000000	6.182849	0.039738	NaN	0.000000	0.001665	0.001613	28.0792	0.067121	0.002022	33.1876	91.3418	-165.456	0.094781	0.181844	-0.961862	-0.963186	0.039738	33.1876	-0.962760	-7.146325E+12	-5.560552E-15	NaN
294	1.000000	0.193102	7.36794e+06	-53339.1	955.817	-29746.8	0.000000	0.000000	6.192779	-0.062585	NaN	0.000000	0.001651	0.001603	28.0794	0.049034	0.002028	24.1771	-99.6536	13.2362	0.014692	0.191728	-0.951929	-0.953303	-0.062585	24.1771	-0.949987	-4.806789E+12	1.302013E-14	NaN
294	1.000000	0.203120	7.36794e+06	-53339.1	955.818	-29746.8	0.000000	0.000000	6.202798	-0.037439	NaN	0.000000	0.001635	0.001603	28.0806	0.051785	0.001928	26.857	102.781	-167.825	0.010509	0.201850	-0.941911	-0.943181	-0.037439	26.857	-0.940865	-3.620856E+12	1.033972E-14	NaN
294	1.000000	0.213158	7.36794e+06	-53339.1	955.818	-29746.8	0.000000	0.000000	6.212839	0.066155	NaN	0.000000	0.001632	0.001598	28.0804	0.044899	0.001972	22.7659	-165.118	13.3716	0.006415	0.211789	-0.931873	-0.933242	0.066155	22.7659	-0.934053	-2.930149E+12	-2.257747E-14	NaN
294	1.000000	0.223168	7.36794e+06	-53339.1	955.818	-29746.8	0.000000	0.000000	6.222843	-0.105797	NaN	0.000000	0.001642	0.001584	28.0805	0.062644	0.002054	30.4926	81.2669	-166.548	-0.069458	0.221846	-0.921863	-0.923185	-0.105797	30.4926	-0.919260	-1.850210E+12	5.718120E-14	NaN
294	1.000000	0.233151	7.36794e+06	-53339.1	955.818	-29746.8	0.000000	0.000000	6.232830	0.010099	NaN	0.000000	0.001609	0.001638	28.081	0.070085	0.002053	34.1433	167.84	11.5415	0.048441	0.231809	-0.911880	-0.913221	0.010099	34.1433	-0.912102	-1.480995E+12	-6.819266E-15	NaN
294	1.000000	0.243123	7.36794e+06	-53339.1	955.818	-29746.8	0.000000	0.000000	6.242802	-0.001790	NaN	0.000000	0.001659	0.001592	28.0804	0.062440	0.001981	31.5252	-150.396	-167.198	0.052801	0.241804	-0.901908	-0.903227	-0.001790	31.5252	-0.901865	-1.077130E+12	1.661408E-15	NaN
294	1.000000	0.253177	7.36794e+06	-53339.1	955.818	-29746.8	0.000000	0.000000	6.252855	-0.027295	NaN	0.000000	0.001677	0.001600	28.0805	0.048546	0.001931	25.1354	172.209	13.5844	0.012879	0.251782	-0.891854	-0.893249	-0.027295	25.1354	-0.891040	-7.690721E+11	3.549039E-14	NaN
294	1.000000	0.263172	7.36794e+06	-53339.1	955.818	-29746.8	0.000000	0.000000	6.262851	-0.000336	NaN	0.000000	0.001650	0.001587	28.0804	0.092105	0.002002	46.0059	-116.88	-163.057	-0.039034	0.261876	-0.881859	-0.883155	-0.000336	46.0059	-0.881853	-5.777913E+11	5.822225E-16	NaN
294	1.000000	0.273146	7.36794e+06	-53339.1	955.818	-29746.8	0.000000	0.000000	6.272825	-0.011085	NaN	0.000000	0.001625	0.001567	28.0806	0.086919	0.002016	43.1111	-157.401	16.4745	-0.030695	0.271797	-0.871885	-0.873234	-0.011085	43.1111	-0.871692	-4.210513E+11	2.632731E-14	NaN
294	1.000000	0.283156	7.36794e+06	-53339.1	955.818	-29746.8	0.000000	0.000000	6.282835	0.018561	NaN	0.000000	0.001616	0.001600	28.0803	0.072825	0.002024	35.9753	-67.2066	-165.955	0.028658	0.281910	-0.861875	-0.863121	0.018561	35.9753	-0.862262	-3.138620E+11	-5.913720E-14	NaN
294	1.000000	0.293161	7.36794e+06	-53339.1	955.818	-29746.8	0.000000	0.000000	6.292841	0.013770	NaN	0.000000	0.001635	0.001600	28.0805	0.044254	0.002006	22.0593	59.5904	15.1191	-0.010851	0.291858	-0.851870	-0.853173	0.013770	22.0593	-0.852338	-2.303520E+11	-5.977820E-14	NaN
294	1.000000	0.303160	7.36794e+06	-53339.1	955.817	-29746.8	0.000000	0.000000	6.302837	-0.029676	NaN	0.000000	0.001694	0.001604	28.0805	0.059148	0.002044	28.9328	-36.1693	-166.917	0.015750	0.301843	-0.841871	-0.843187	-0.029676	28.9328	-0.841102	-1.622636E+11	1.828883E-13	NaN
294	1.000000	0.313186	7.36794e+06	-53339.1	955.818	-29746.8	0.000000	0.000000	6.312864	-0.035686	NaN	0.000000	0.001737	0.001598	28.0802	0.069112	0.001902	36.3324	77.7901	15.1395	-0.077314	0.311820	-0.831844	-0.833211	-0.035686	36.3324	-0.831108	-1.187952E+11	3.004017E-13	NaN
294	1.000000	0.323228	7.36794e+06	-53339.1	955.818	-29746.8	0.000000	0.000000	6.322904	-0.057545	NaN	0.000000	0.001709	0.001592	28.0803	0.098892	0.002012	49.1609	119.723	-168.618	-0.068974	0.321939	-0.821803	-0.823092	-0.057545	49.1609	-0.820925	-8.644898E+10	6.656547E-13	NaN
294	1.000000	0.333173	7.36794e+06	-53339.1	955.818	-29746.8	0.000000	0.000000	6.332854	0.044741	NaN	0.000000	0.001678	0.001595	28.0791	0.034516	0.002171	15.9019	-23.4824	15.4455	0.021072	0.331806	-0.811858	-0.813225	0.044741	15.9019	-0.813968	-6.956634E+10	-6.431388E-13	NaN
294	1.000000	0.343214	7.36794e+06	-53339.1	955.818	-29746.8	0.000000	0.000000	6.342892	-0.029341	NaN	0.000000	0.001690	0.001563	28.0791	0.076518	0.002109	36.2793	-78.7577	-164.588	0.018240	0.341903	-0.801817	-0.803128	-0.029341	36.2793	-0.801210	-4.669737E+10	6.283180E-13	NaN
294	1.000000	0.353209	7.36794e+06	-53339.1	955.817	-29746.8	0.000000	0.000000	6.352888	-0.012594	NaN	0.000000	0.001685	0.001573	28.079	0.056610	0.001933	29.2923	156.362	12.6538	0.013126	0.351877	-0.791822	-0.793154	-0.012594	29.2923	-0.791499	-3.447005E+10	3.653687E-13	NaN
294	1.000000	0.363202	7.36794e+06	-53339.1	955.819	-29746.8	0.000000	0.000000	6.362879	-0.039010	NaN	0.000000	0.001673	0.001582	28.0792	0.007890	0.002180	3.619174	-126.378	-167.129	-0.111023	0.361906	-0.781829	-0.783125	-0.039010	3.619174	-0.773745	-1.977976E+10	1.972205E-12	NaN
294	1.000000	0.373183	7.36794e+06	-53339.1	955.819	-29746.8	0.000000	0.000000	6.372859	-0.072289	NaN	0.000000	0.001681	0.001573	28.0791	0.073990	0.002081	35.5481	-53.1547	17.0598	-0.114605	0.371833	-0.771848	-0.773198	-0.072289	35.5481	-0.770322	-1.777006E+10	4.068038E-12	NaN
294	1.000000	0.383228	7.36794e+06	-53339.1	955.819	-29746.8	0.000000	0.000000	6.382907	-0.004858	NaN	0.000000	0.001675	0.001604	28.0793	0.089800	0.001978	45.4036	12.4613	-169.486	-0.031019	0.381893	-0.761803	-0.763138	-0.004858	45.4036	-0.761722	-1.357476E+10	3.578520E-13	NaN
294	1.000000	0.393208	7.36794e+06	-53339.1	955.818	-29746.8	0.000000	0.000000	6.392885	-0.061329	NaN	0.000000	0.001684	0.001599	28.079	0.097393	0.002153	45.2316	143.299	12.5883	-0.116477	0.391857	-0.751823	-0.753174	-0.061329	45.2316	-0.750806	-9.642418E+9	6.360350E-12	NaN
294	1.000000	0.403209	7.36794e+06	-53339.1	955.818	-29746.8	0.000000	0.000000	6.402888	-0.000666	NaN	0.000000	0.001673	0.001616	28.0792	0.033628	0.001898	17.7165	-75.0164	-164.561	-0.018678	0.401927	-0.741821	-0.743104	-0.000666	17.7165	-0.741793	-7.269073E+9	9.158749E-14	NaN
294	1.000000	0.413245	7.36794e+06	-53339.1	955.818	-29746.8	0.000000	0.000000	6.412923	-0.028363	NaN	0.000000	0.001710	0.001610	28.0792	0.122755	0.001917	64.0424	-42.4097	13.854	-0.042266	0.411855	-0.731786	-0.733175	-0.028363	64.0424	-0.731453	-5.255518E+9	5.396882E-12	NaN
294	1.000000	0.423210	7.36794e+06	-53339.1	955.817	-29746.8	0.000000	0.000000	6.422888	-0.026734	NaN	0.000000	0.001714	0.001596	28.0794	0.121025	0.002008	60.2719	79.1836	-163.295	-0.004216	0.421873	-0.721821	-0.723158	-0.026734	60.2719	-0.721488	-3.843869E+9	6.954894E-12	NaN
294	1.000000	0.433255	7.36794e+06	-53339.1	955.818	-29746.8	0.000000	0.000000	6.432938	0.092566	NaN	0.000000	0.001704	0.001599	28.079	0.127924	0.002105	60.7749	-157.851	15.1807	0.157200	0.431871	-0.711775	-0.713160	0.092566	60.7749	-0.712918	-2.936723E+9	-3.152022E-11	NaN
294	1.000000	0.443232	7.36794e+06	-53339.1	955.819	-29746.8	0.000000	0.000000	6.442910	-0.037068	NaN	0.000000	0.001691	0.001617	28.0793	0.076812	0.002041	37.6252	-166.995	-167.431	-0.047037	0.441954	-0.701799	-0.703077	-0.037068	37.6252	-0.701060	-2.023032E+9	1.832299E-11	NaN
294	1.000000	0.453236	7.36794e+06	-53339.1	955.818	-29746.8	0.000000	0.000000	6.452916	0.007719	NaN	0.000000	0.001721	0.001609	28.0793	0.035091	0.002005	17.498	-148.786	12.3321	0.039088	0.451856	-0.691795	-0.693175	0.007719	17.498	-0.692125	-1.527434E+9	-5.053673E-12	NaN
294	1.000000	0.463229	7.36794e+06	-53339.1	955.818	-29746.8	0.000000	0.000000	6.462905	-0.091567	NaN	0.000000	0.001699	0.001614	28.0793	0.138000	0.001941	71.1077	-150.303	-166.262	-0.115534	0.461943	-0.681801	-0.683088	-0.091567	71.1077	-0.680836	-1.070617E+9	8.552712E-11	NaN
294	1.000000	0.473223	7.36794e+06	-53339.1	955.817	-29746.8	0.000000	0.000000	6.472900	-0.044772	NaN	0.000000	0.001704	0.001624	28.0803	0.110618	0.001873	59.0578	77.1258	15.5359	-0.142746	0.471898	-0.671808	-0.673132	-0.044772	59.0578	-0.671240	-7.913278E+8	5.657890E-11	NaN
294	1.000000	0.483224	7.36794e+06	-53339.1	955.818	-29746.8	0.000000	0.000000	6.482901	-0.047289	NaN	0.000000	0.001693	0.001676	28.0804	0.014608	0.001937	7.543145	155.63	-163.305	0.002123	0.481919	-0.661807	-0.663112	-0.047289	7.543145	-0.657105	-5.067709E+8	9.331351E-11	NaN
294	1.000000	0.493238	7.36794e+06	-53339.1	955.817	-29746.8	0.000000	0.000000	6.492920	0.052790	NaN	0.000000	0.001703	0.001649	28.0804	0.019685	0.002039	9.654720	-123.64	13.3106	0.024927	0.491902	-0.651792	-0.653129	0.052790	9.654720	-0.655893	-4.877619E+8	-1.082297E-10	NaN
294	1.000000	0.503268	7.36794e+06	-53339.1	955.818	-29746.8	0.000000	0.000000	6.502946	-0.013364	NaN	0.000000	0.001707	0.001648	28.0806	0.033779	0.001915	17.6404	23.271	-166.039	-0.094107	0.501947	-0.641763	-0.643084	-0.013364	17.6404	-0.641195	-3.066779E+8	4.357711E-11	NaN
294	1.000000	0.513280	7.36794e+06	-53339.1	955.818	-29746.8	0.000000	0.000000	6.512960	0.024026	NaN	0.000000	0.001678	0.001601	28.0805	0.065680	0.002047	32.0826	-70.5872	16.3836	0.007460	0.511887	-0.631751	-0.633144	0.024026	32.0826	-0.632313	-2.316225E+8	-1.037304E-10	NaN
294	1.000000	0.523309	7.36794e+06	-53339.1	955.818	-29746.8	0.000000	0.000000	6.522986	-0.031689	NaN	0.000000	0.001696	0.001644	28.0806	0.119780	0.001989	60.2236	146.465	-165.556	-0.118198	0.521944	-0.621722	-0.623087	-0.031689	60.2236	-0.621328	-1.636368E+8	1.936561E-10	NaN
294	1.000000	0.533279	7.36794e+06	-53339.1	955.818	-29746.8	0.000000	0.000000	6.532962	0.092889	NaN	0.000000	0.001679	0.001617	28.0806	0.031661	0.001946	16.2688	17.5676	15.4766	0.048761	0.531918	-0.611752	-0.613113	0.092889	16.2688	-0.616034	-1.383906E+8	-6.712064E-10	NaN
294	1.000000	0.543265	7.36794e+06	-53339.1	955.818	-29746.8	0.000000	0.000000	6.542946	0.040733	NaN	0.000000	0.001660	0.001609	28.0804	0.083697	0.002041	41.0076	-91.0353	-164.301	0.035844	0.541937	-0.601766	-0.603094	0.040733	41.0076	-0.602511	-9.016376E+7	-4.517705E-10	NaN
294	1.000000	0.553280	7.36794e+06	-53339.1	955.819	-29746.8	0.000000	0.000000	6.552962	0.072847	NaN	0.000000	0.001700	0.001586	28.0804	0.072052	0.001995	36.1163	-177.538	14.0572	0.004787	0.551911	-0.591751	-0.593120	0.072847	36.1163	-0.593263	-6.724365E+7	-1.083330E-9	NaN
294	1.000000	0.563302	7.36794e+06	-53339.1	955.819	-29746.8	0.000000	0.000000	6.562980	-0.035149	NaN	0.000000	0.001675	0.001611	28.0805	0.095592	0.002008	47.6145	-124.552	-163.916	-0.099819	0.562028	-0.581728	-0.583003	-0.035149	47.6145	-0.581175	-4.580771E+7	7.673233E-10	NaN
294	1.000000	0.573318	7.36794e+06	-53339.1	955.819	-29746.8	0.000000	0.000000	6.572997	0.001273	NaN	0.000000	0.001711	0.001598	28.0806	0.051636	0.001958	26.3728	-46.8381	16.1718	-0.017044	0.572004	-0.571713	-0.573027	0.001273	26.3728	-0.571749	-3.394656E+7	-3.751008E-11	NaN
294	1.000000	0.583288	7.36794e+06	-53339.1	955.818	-29746.8	0.000000	0.000000	6.582964	-0.061758	NaN	0.000000	0.001677	0.001621	28.0804	0.063877	0.001967	32.4764	-166.795	-163.304	-0.062971	0.581954	-0.561743	-0.563077	-0.061758	32.4764	-0.560317	-2.359178E+7	2.617787E-9	NaN
294	1.000000	0.593317	7.36794e+06	-53339.1	955.817	-29746.8	0.000000	0.000000	6.592996	-0.002574	NaN	0.000000	0.001671	0.001561	28.0805	0.045359	0.001964	23.0944	69.4913	13.5277	0.016595	0.591962	-0.551714	-0.553069	-0.002574	23.0944	-0.551630	-1.788668E+7	1.439137E-10	NaN
294	1.000000	0.603301	7.36794e+06	-53339.1	955.818	-29746.8	0.000000	0.000000	6.602982	0.058562	NaN	0.000000	0.001638	0.001618	28.0804	0.036664	0.001977	18.5452	39.6665	-166.024	0.058086	0.601997	-0.541730	-0.543034	0.058562	18.5452	-0.544098	-1.406641E+7	-4.163271E-9	NaN
294	1.000000	0.613290	7.36794e+06	-53339.1	955.818	-29746.8	0.000000	0.000000	6.612970	0.024656	NaN	0.000000	0.001706	0.001617	28.0791	0.018539	0.001983	9.348835	95.6465	18.2813	0.000567	0.611972	-0.531741	-0.533058	0.024656	9.348835	-0.533719	-1.009730E+7	-2.441795E-9	NaN
294	1.000000	0.623340	7.36794e+06	-53339.1	955.818	-29746.8	0.000000	0.000000	6.623018	-0.034764	NaN	0.000000	0.001725	0.001619	28.0791	0.082707	0.002027	40.7939	158.951	-167.427	-0.050389	0.621985	-0.521691	-0.523046	-0.034764	40.7939	-0.521052	-6.73322e+06	5.163113E-9	NaN
294	1.000000	0.633319	7.36794e+06	-53339.1	955.818	-29746.8	0.000000	0.000000	6.632999	0.025164	NaN	0.000000	0.001701	0.001600	28.0792	0.103799	0.002051	50.6038	173.422	16.7944	0.062878	0.631966	-0.511712	-0.513065	0.025164	50.6038	-0.512085	-5.05187e+06	-4.981198E-9	NaN
294	1.000000	0.643329	7.36794e+06	-53339.1	955.817	-29746.8	0.000000	0.000000	6.643007	-0.026071	NaN	0.000000	0.001717	0.001574	28.0795	0.013096	0.001819	7.200671	133.078	-166.305	-0.138929	0.642024	-0.501701	-0.503007	-0.026071	7.200671	-0.498986	-3.31796e+06	7.857416E-9	NaN
294	1.000000	0.653349	7.36794e+06	-53339.1	955.818	-29746.8	0.000000	0.000000	6.653027	-0.015035	NaN	0.000000	0.001694	0.001593	28.0791	0.092631	0.001931	47.9759	33.2092	12.5026	0.029985	0.651960	-0.491682	-0.493071	-0.015035	47.9759	-0.491447	-2.60383e+06	5.774229E-9	NaN
294	1.000000	0.663347	7.36794e+06	-53339.1	955.818	-29746.8	0.000000	0.000000	6.663027	0.014902	NaN	0.000000	0.001710	0.001612	28.079	0.035062	0.001886	18.5932	-79.7932	-165.647	0.059754	0.661992	-0.481684	-0.483039	0.014902	18.5932	-0.482285	-1.93869e+06	-7.686553E-9	NaN
294	1.000000	0.673349	7.36794e+06	-53339.1	955.819	-29746.8	0.000000	0.000000	6.673030	0.041308	NaN	0.000000	0.001687	0.001591	28.0791	0.074878	0.002173	34.4649	-98.1368	12.8788	0.116974	0.671971	-0.471682	-0.473060	0.041308	34.4649	-0.472581	-1.41773e+06	-2.913643E-8	NaN
294	1.000000	0.683322	7.36794e+06	-53339.1	955.818	-29746.8	0.000000	0.000000	6.683003	0.061363	NaN	0.000000	0.001749	0.001598	28.0791	0.062294	0.001828	34.07	106.172	-162.099	0.038656	0.682004	-0.461709	-0.463027	0.061363	34.07	-0.463060	-1.04233e+06	-5.887120E-8	NaN
294	1.000000	0.693353	7.36794e+06	-53339.1	955.818	-29746.8	0.000000	0.000000	6.693032	0.001601	NaN	0.000000	0.001722	0.001584	28.079	0.053287	0.001975	26.9774	-150.734	16.5057	0.002934	0.692041	-0.451678	-0.452990	0.001601	26.9774	-0.451722	-722095	-2.217514E-9	NaN
294	1.000000	0.703346	7.36794e+06	-53339.1	955.817	-29746.8	0.000000	0.000000	6.703022	-0.075030	NaN	0.000000	0.001702	0.001617	28.079	0.048682	0.001940	25.0919	99.935	-165.043	-0.018023	0.702018	-0.441685	-0.443012	-0.075030	25.0919	-0.439442	-484722	1.547897E-7	NaN
294	1.000000	0.713356	7.36794e+06	-53339.1	955.818	-29746.8	0.000000	0.000000	6.713036	0.026847	NaN	0.000000	0.001753	0.001597	28.0789	0.039633	0.001985	19.9635	-149.744	9.418903	0.032783	0.711961	-0.431675	-0.433070	0.026847	19.9635	-0.432683	-389055	-6.900509E-8	NaN
294	1.000000	0.723357	7.36794e+06	-53339.1	955.819	-29746.8	0.000000	0.000000	6.723036	0.004854	NaN	0.000000	0.001750	0.001581	28.0792	0.120036	0.001937	61.9734	-168.524	-168.621	-0.035273	0.722073	-0.421674	-0.422958	0.004854	61.9734	-0.421733	-272260	-1.782797E-8	NaN
294	1.000000	0.733364	7.36794e+06	-53339.1	955.818	-29746.8	0.000000	0.000000	6.733043	0.002483	NaN	0.000000	0.001725	0.001614	28.0791	0.012936	0.001932	6.693963	36.8488	14.4689	-0.043117	0.731978	-0.411667	-0.413053	0.002483	6.693963	-0.411945	-197720	-1.255905E-8	NaN
294	1.000000	0.743370	7.36794e+06	-53339.1	955.818	-29746.8	0.000000	0.000000	6.743045	-0.096859	NaN	0.000000	0.001745	0.001569	28.0801	0.041987	0.001954	21.4929	79.8009	-165.387	-0.109833	0.742110	-0.401661	-0.402921	-0.096859	21.4929	-0.398281	-126320	7.667739E-7	NaN
294	1.000000	0.753376	7.36794e+06	-53339.1	955.818	-29746.8	0.000000	0.000000	6.753057	0.038352	NaN	0.000000	0.001723	0.001577	28.0801	0.048356	0.001961	24.659	-48.5128	14.7397	-0.029395	0.751983	-0.391655	-0.393048	0.038352	24.659	-0.392821	-105561	-3.633143E-7	NaN
294	1.000000	0.763386	7.36794e+06	-53339.1	955.819	-29746.8	0.000000	0.000000	6.763068	0.069255	NaN	0.000000	0.001748	0.001584	28.0812	0.063186	0.002153	29.3495	-65.7213	-164.738	0.123045	0.762103	-0.381645	-0.382928	0.069255	29.3495	-0.383415	-77422.8	-8.945012E-7	NaN
294	1.000000	0.773369	7.36794e+06	-53339.1	955.818	-29746.8	0.000000	0.000000	6.773047	-0.005902	NaN	0.000000	0.001776	0.001596	28.0803	0.111400	0.001910	58.3149	-30.9154	13.1686	-0.033309	0.772042	-0.371662	-0.372989	-0.005902	58.3149	-0.371586	-52356	1.127299E-7	NaN
294	1.000000	0.783387	7.36794e+06	-53339.1	955.819	-29746.8	0.000000	0.000000	6.783067	0.032655	NaN	0.000000	0.001771	0.001599	28.0804	0.047596	0.002078	22.9095	-17.8041	-166.006	-0.057137	0.782072	-0.361644	-0.362959	0.032655	22.9095	-0.362713	-38998.2	-8.373357E-7	NaN
294	1.000000	0.793378	7.36794e+06	-53339.1	955.816	-29746.8	0.000000	0.000000	6.793058	0.018144	NaN	0.000000	0.001749	0.001639	28.0804	0.042683	0.001912	22.3234	-68.9103	16.7679	0.009532	0.792068	-0.351652	-0.352963	0.018144	22.3234	-0.352262	-27530.7	-6.590368E-7	NaN
294	1.000000	0.803369	7.36794e+06	-53339.1	955.817	-29746.8	0.000000	0.000000	6.803048	0.007918	NaN	0.000000	0.001761	0.001641	28.0804	0.107521	0.002017	53.2989	171.509	-168.177	0.061344	0.802037	-0.341662	-0.342994	0.007918	53.2989	-0.341773	-19381.7	-4.085513E-7	NaN
294	1.000000	0.813378	7.36794e+06	-53339.1	955.818	-29746.8	0.000000	0.000000	6.813059	0.039776	NaN	0.000000	0.001762	0.001574	28.0803	0.110347	0.002029	54.3967	11.5357	11.7275	-0.043815	0.812041	-0.331653	-0.332990	0.039776	54.3967	-0.332201	-14049.7	-2.831105E-6	NaN
294	1.000000	0.823409	7.36794e+06	-53339.1	955.818	-29746.8	0.000000	0.000000	6.823085	-0.067537	NaN	0.000000	0.001776	0.001597	28.0804	0.032726	0.002027	16.1435	-171.029	-165.089	-0.074660	0.822096	-0.321622	-0.322935	-0.067537	16.1435	-0.318484	-8837.25	7.642301E-6	NaN
294	1.000000	0.833388	7.36794e+06	-53339.1	955.818	-29746.8	0.000000	0.000000	6.833067	-0.011883	NaN	0.000000	0.001703	0.001575	28.0805	0.087124	0.001910	45.6122	-174.916	14.2623	0.053904	0.832025	-0.311643	-0.313006	-0.011883	45.6122	-0.311447	-6957.71	1.707861E-6	NaN
294	1.000000	0.843383	7.36794e+06	-53339.1	955.817	-29746.8	0.000000	0.000000	6.843063	0.027447	NaN	0.000000	0.001676	0.001593	28.0804	0.081141	0.002128	38.1295	-82.9608	-167.072	0.012489	0.842114	-0.301648	-0.302917	0.027447	38.1295	-0.302188	-5072.02	-5.411461E-6	NaN
294	1.000000	0.853406	7.36794e+06	-53339.1	955.818	-29746.8	0.000000	0.000000	6.853084	-0.031890	NaN	0.000000	0.001623	0.001604	28.0804	0.054592	0.002062	26.4718	157.94	13.8215	-0.059518	0.852082	-0.291625	-0.292949	-0.031890	26.4718	-0.290721	-3420.6	9.322977E-6	NaN
294	1.000000	0.863427	7.36794e+06	-53339.1	955.817	-29746.8	0.000000	0.000000	6.863105	-0.023705	NaN	0.000000	0.001660	0.001625	28.0804	0.086935	0.002015	43.1407	-28.2168	-166.47	0.005266	0.862122	-0.281604	-0.282909	-0.023705	43.1407	-0.281192	-2460.04	9.635925E-6	NaN
294	1.000000	0.873414	7.36794e+06	-53339.1	955.819	-29746.8	0.000000	0.000000	6.873095	0.062968	NaN	0.000000	0.001700	0.001610	28.0806	0.019303	0.002010	9.602437	-62.3804	16.7585	0.012931	0.872056	-0.271617	-0.272975	0.062968	9.602437	-0.276535	-2092.35	-3.009454E-5	NaN
294	1.000000	0.883434	7.36794e+06	-53339.1	955.818	-29746.8	0.000000	0.000000	6.883115	0.054865	NaN	0.000000	0.001665	0.001621	28.0793	0.078631	0.002039	38.5667	-148.975	-165.105	-0.050165	0.882085	-0.261597	-0.262946	0.054865	38.5667	-0.262664	-1287.37	-4.261789E-5	NaN
294	1.000000	0.893406	7.36794e+06	-53339.1	955.819	-29746.8	0.000000	0.000000	6.893088	0.057997	NaN	0.000000	0.001706	0.001606	28.0792	0.050621	0.002038	24.8426	32.5443	13.7412	0.067182	0.892086	-0.251624	-0.252945	0.057997	24.8426	-0.253375	-927.016	-6.256260E-5	NaN
294	1.000000	0.903431	7.36794e+06	-53339.1	955.818	-29746.8	0.000000	0.000000	6.903108	-0.040923	NaN	0.000000	0.001680	0.001596	28.0795	0.078866	0.001889	41.747	149.725	-166.029	0.057227	0.902079	-0.241600	-0.242952	-0.040923	41.747	-0.240865	-593.001	6.901008E-5	NaN
294	1.000000	0.913411	7.36794e+06	-53339.1	955.818	-29746.8	0.000000	0.000000	6.913091	0.035837	NaN	0.000000	0.001683	0.001588	28.0793	0.078817	0.001947	40.4723	19.1778	16.257	0.061450	0.912059	-0.231620	-0.232971	0.035837	40.4723	-0.232284	-435.05	-8.237394E-5	NaN
294	1.000000	0.923420	7.36794e+06	-53339.1	955.818	-29746.8	0.000000	0.000000	6.923103	0.096717	NaN	0.000000	0.001650	0.001618	28.0794	0.098900	0.002005	49.3164	45.7036	-163.821	0.030282	0.922120	-0.221611	-0.222911	0.096717	49.3164	-0.223082	-311.055	-0.000311	NaN
294	1.000000	0.933424	7.36794e+06	-53339.1	955.818	-29746.8	0.000000	0.000000	6.933105	0.037939	NaN	0.000000	0.001668	0.001629	28.0791	0.067962	0.001980	34.3321	-11.3347	13.0258	0.081733	0.932018	-0.211606	-0.213013	0.037939	34.3321	-0.212435	-209.986	-0.000181	NaN
294	1.000000	0.943421	7.36794e+06	-53339.1	955.817	-29746.8	0.000000	0.000000	6.943103	0.058706	NaN	0.000000	0.001686	0.001583	28.0792	0.034685	0.002014	17.2261	83.8033	-165.125	-0.007772	0.942148	-0.201609	-0.202883	0.058706	17.2261	-0.204165	-154.148	-0.000381	NaN
294	1.000000	0.953448	7.36794e+06	-53339.1	955.818	-29746.8	0.000000	0.000000	6.953125	-0.059642	NaN	0.000000	0.001667	0.001600	28.0792	0.024590	0.001913	12.8567	125.938	12.3725	-0.052280	0.952049	-0.191582	-0.192982	-0.059642	12.8567	-0.188103	-83.6158	0.000713	NaN
294	1.000000	0.963476	7.36794e+06	-53339.1	955.818	-29746.8	0.000000	0.000000	6.963156	0.010603	NaN	0.000000	0.001695	0.001602	28.0793	0.069664	0.002045	34.067	-55.8283	-168.303	0.041899	0.962162	-0.181554	-0.182869	0.010603	34.067	-0.181788	-65.4385	-0.000162	NaN
294	1.000000	0.973458	7.36794e+06	-53339.1	955.818	-29746.8	0.000000	0.000000	6.973140	0.073991	NaN	0.000000	0.001720	0.001622	28.0793	0.022082	0.002087	10.5805	-145.447	10.1223	0.037738	0.972131	-0.171573	-0.172899	0.073991	10.5805	-0.176818	-53.8473	-0.001374	NaN
294	1.000000	0.983486	7.36794e+06	-53339.1	955.819	-29746.8	0.000000	0.000000	6.983165	-0.007437	NaN	0.000000	0.001706	0.001620	28.0795	0.094068	0.002022	46.5247	-170.609	-164.039	0.008430	0.982192	-0.161545	-0.162839	-0.007437	46.5247	-0.161425	-29.0577	0.000256	NaN
294	1.000000	0.993453	7.36794e+06	-53339.1	955.817	-29746.8	0.000000	0.000000	6.993131	-0.021299	NaN	0.000000	0.001662	0.001625	28.0792	0.031591	0.001903	16.6026	164.17	12.9021	-0.073561	0.992139	-0.151578	-0.152892	-0.021299	16.6026	-0.150615	-18.5875	0.001146	NaN
294	1.000000	1.003472	7.36794e+06	-53339.1	955.818	-29746.8	0.000000	0.000000	7.003151	0.009074	NaN	0.000000	0.001645	0.001634	28.0794	0.075472	0.002018	37.4023	-82.892	-163.08	0.049120	1.002166	-0.141559	-0.142865	0.009074	37.4023	-0.141741	-12.7521	-0.000712	NaN
294	1.000000	1.013504	7.36794e+06	-53339.1	955.817	-29746.8	0.000000	0.000000	7.013181	-0.049649	NaN	0.000000	0.001694	0.001594	28.0793	0.074967	0.001955	38.3425	163.897	12.4946	-0.046048	1.012089	-0.131527	-0.132942	-0.049649	38.3425	-0.130556	-7.812663	0.006355	NaN
294	1.000000	1.023514	7.36794e+06	-53339.1	955.818	-29746.8	0.000000	0.000000	7.023194	0.023977	NaN	0.000000	0.001678	0.001588	28.081	0.121928	0.001902	64.0986	-88.1516	-165.962	0.082956	1.022180	-0.121517	-0.122851	0.023977	64.0986	-0.121797	-5.250811	-0.004566	NaN
294	1.000000	1.033473	7.36794e+06	-53339.1	955.818	-29746.8	0.000000	0.000000	7.033151	-0.039803	NaN	0.000000	0.001638	0.001616	28.0805	0.048440	0.001947	24.8802	29.6776	12.0878	-0.088970	1.032162	-0.111557	-0.112869	-0.039803	24.8802	-0.110358	-3.057780	0.013017	NaN
294	1.000000	1.043481	7.36794e+06	-53339.1	955.818	-29746.8	0.000000	0.000000	7.043161	0.044757	NaN	0.000000	0.001655	0.001595	28.0808	0.060600	0.002125	28.5239	10.1986	-166.001	-0.048451	1.042192	-0.101550	-0.102839	0.044757	28.5239	-0.102727	-2.097932	-0.021334	NaN
294	1.000000	1.053479	7.36794e+06	-53339.1	955.817	-29746.8	0.000000	0.000000	7.053157	-0.002826	NaN	0.000000	0.001656	0.001610	28.0803	0.046652	0.001998	23.3535	13.0898	13.9244	0.018106	1.052150	-0.091552	-0.092881	-0.002826	23.3535	-0.091462	-1.169392	0.002417	NaN
294	1.000000	1.063482	7.36794e+06	-53339.1	955.818	-29746.8	0.000000	0.000000	7.063165	0.085802	NaN	0.000000	0.001663	0.001620	28.0812	0.059963	0.001919	31.2418	-21.1303	-160.749	-0.010892	1.062209	-0.081548	-0.082822	0.085802	31.2418	-0.083608	-0.760053	-0.112890	NaN
294	1.000000	1.073495	7.36794e+06	-53339.1	955.819	-29746.8	0.000000	0.000000	7.073174	-0.010741	NaN	0.000000	0.001695	0.001640	28.0803	0.057920	0.002038	28.4201	78.3596	14.5445	0.053596	1.072153	-0.071535	-0.072877	-0.010741	28.4201	-0.071252	-0.368368	0.029157	NaN
294	1.000000	1.083522	7.36794e+06	-53339.1	955.818	-29746.8	0.000000	0.000000	7.083203	0.046694	NaN	0.000000	0.001681	0.001631	28.0807	0.063532	0.002067	30.738	-81.8907	-163.705	-0.025793	1.082132	-0.061509	-0.062899	0.046694	30.738	-0.062649	-0.214200	-0.217991	NaN
294	1.000000	1.093505	7.36794e+06	-53339.1	955.817	-29746.8	0.000000	0.000000	7.093182	-0.043350	NaN	0.000000	0.001693	0.001594	28.0805	0.071128	0.001997	35.6184	-114.44	16.251	-0.024224	1.092118	-0.051526	-0.052913	-0.043350	35.6184	-0.050613	-0.095225	0.455235	NaN
294	1.000000	1.103513	7.36794e+06	-53339.1	955.818	-29746.8	0.000000	0.000000	7.103191	-0.022815	NaN	0.000000	0.001665	0.001624	28.0809	0.102385	0.001999	51.2221	23.9065	-164.818	-0.049000	1.102207	-0.041517	-0.042824	-0.022815	51.2221	-0.041183	-0.049131	0.464373	NaN
294	1.000000	1.113485	7.36794e+06	-53339.1	955.818	-29746.8	0.000000	0.000000	7.113165	0.016573	NaN	0.000000	0.001679	0.001621	28.0804	0.096063	0.002011	47.7754	121.725	14.2003	0.043955	1.112132	-0.031546	-0.032899	0.016573	47.7754	-0.031806	-0.025875	-0.640498	NaN
294	1.000000	1.123536	7.36794e+06	-53339.1	955.819	-29746.8	0.000000	0.000000	7.123226	0.286286	NaN	0.000000	0.001642	0.001656	28.0805	0.398158	0.002006	198.515	11.0817	-165.792	0.118616	1.122227	-0.021495	-0.022804	0.286286	198.515	-0.022577	-0.014608	-19.5982	NaN
294	1.000000	1.133500	7.36794e+06	-53339.1	955.818	-29746.8	0.000000	0.000000	7.133199	0.473728	NaN	0.000000	0.001686	0.001660	28.0805	0.681943	0.001965	347.049	34.8266	11.1824	0.482033	1.132172	-0.011531	-0.012859	0.473728	347.049	-0.012554	-0.007846	-60.3786	NaN
294	1.000000	1.143512	7.36794e+06	-53339.1	955.818	-29746.8	0.000000	0.000000	7.143213	0.524836	NaN	0.000000	0.001645	0.001642	28.0805	0.735822	0.002037	361.2	32.3833	-165.448	0.467864	1.142151	-0.001519	-0.002880	0.524836	361.2	-0.002608	-0.001857	-282.685	NaN
294	1.000000	1.153491	7.36794e+06	-53339.1	955.818	-29746.8	0.000000	0.000000	7.153450	6.805352	NaN	0.000000	0.001665	0.001645	28.0792	7.786457	0.001830	4253.89	16.3229	7.256563	5.877504	1.152126	0.008460	0.007095	6.805352	4253.89	0.007260	0.006293	1081.46	48993.7
294	2.000000	1.157105	7.36794e+06	-53339.1	955.819	-29746.8	0.000000	0.000000	7.157211	10.3744	NaN	0.000000	0.001637	0.001660	28.0792	11.6942	0.001652	7076.89	11.3962	-177.545	10.0144	1.156817	0.012074	0.011786	10.3744	7076.89	0.010975	0.010285	1008.67	63754.1
294	2.000000	1.159597	7.36794e+06	-53339.1	955.818	-29746.8	0.000000	0.000000	7.159935	16.0142	NaN	0.000000	0.001680	0.001691	28.0794	13.9579	0.001689	8261.94	8.130751	5.666837	14.0035	1.159208	0.014566	0.014177	16.0142	8261.94	0.013112	0.012850	1246.25	66589.3
294	2.000000	1.162073	7.36794e+06	-53339.1	955.818	-29746.8	0.000000	0.000000	7.162506	18.3229	NaN	0.000000	0.001658	0.001656	28.0792	16.5898	0.001635	10147.7	5.611579	-175.02	17.8981	1.161785	0.017042	0.016754	18.3229	10147.7	0.015688	0.016214	1130.06	72810.7
294	2.000000	1.164564	7.36794e+06	-53339.1	955.82	-29746.8	0.000000	0.000000	7.165111	21.0873	NaN	0.000000	0.001665	0.001657	28.0791	19.6757	0.001820	10811.2	8.837681	2.215036	21.6672	1.164242	0.019533	0.019211	21.0873	10811.2	0.018070	0.019600	1075.86	70552.6
294	2.000000	1.167047	7.36794e+06	-53339.1	955.82	-29746.8	0.000000	0.000000	7.167851	27.3525	NaN	0.000000	0.001717	0.001669	28.0792	22.5651	0.001769	12755.2	6.964958	-178.637	26.2764	1.166657	0.022017	0.021626	27.3525	12755.2	0.020408	0.023188	1179.61	76530.1
294	2.000000	1.169561	7.36794e+06	-53339.1	955.818	-29746.8	0.000000	0.000000	7.170557	32.0278	NaN	0.000000	0.001621	0.001654	28.0793	24.7489	0.001794	13792.9	8.265594	0.899766	31.4037	1.169183	0.024530	0.024152	32.0278	13792.9	0.022788	0.027114	1181.21	76529.5
294	2.000000	1.172010	7.36794e+06	-53339.1	955.818	-29746.8	0.000000	0.000000	7.173160	35.7842	NaN	0.000000	0.001643	0.001634	28.0791	27.7443	0.001922	14432.3	11.6606	175.906	34.7651	1.171754	0.026979	0.026723	35.7842	14432.3	0.025119	0.031233	1145.73	74611.1
294	2.000000	1.174511	7.36794e+06	-53339.1	955.819	-29746.8	0.000000	0.000000	7.175961	43.0361	NaN	0.000000	0.001636	0.001629	28.0792	29.2288	0.001773	16489.3	3.365683	2.764875	40.8313	1.174137	0.029481	0.029106	43.0361	16489.3	0.027523	0.035766	1203.26	79659.8
294	2.000000	1.177022	7.36794e+06	-53339.1	955.818	-29746.8	0.000000	0.000000	7.178753	49.8883	NaN	0.000000	0.001701	0.001626	28.0793	32.8793	0.001779	18482.5	7.605451	177.92	50.5258	1.176716	0.031991	0.031685	49.8883	18482.5	0.029967	0.040675	1226.5	83727.8
294	2.000000	1.179524	7.36794e+06	-53339.1	955.818	-29746.8	0.000000	0.000000	7.181509	56.0464	NaN	0.000000	0.001667	0.001680	28.0793	34.5657	0.001733	19951.3	7.365979	-2.186920	54.1472	1.179104	0.034493	0.034073	56.0464	19951.3	0.032387	0.045836	1222.77	85141.8
294	2.000000	1.182040	7.36794e+06	-53339.1	955.818	-29746.8	0.000000	0.000000	7.184308	62.9554	NaN	0.000000	0.001642	0.001666	28.0792	37.0968	0.001747	21230.1	8.330638	176.486	64.2515	1.181766	0.037009	0.036735	62.9554	21230.1	0.034785	0.051246	1228.48	85682.8
294	2.000000	1.184461	7.36794e+06	-53339.1	955.818	-29746.8	0.000000	0.000000	7.187180	73.9217	NaN	0.000000	0.001671	0.001650	28.0792	40.8362	0.001858	21983.9	7.529566	-2.603227	71.5806	1.184137	0.039430	0.039106	73.9217	21983.9	0.036908	0.056282	1313.42	84662.9
294	2.000000	1.187056	7.36794e+06	-53339.1	955.819	-29746.8	0.000000	0.000000	7.190091	81.5927	NaN	0.000000	0.001707	0.001652	28.0792	43.4502	0.001829	23760.4	5.589874	177.638	83.2482	1.186696	0.042025	0.041666	81.5927	23760.4	0.039450	0.062615	1303.09	86753.9
294	2.000000	1.189517	7.36794e+06	-53339.1	955.818	-29746.8	0.000000	0.000000	7.193148	96.0822	NaN	0.000000	0.001671	0.001665	28.0806	45.6717	0.001880	24290.8	9.868167	-5.510151	94.5953	1.189120	0.044486	0.044089	96.0822	24290.8	0.041519	0.068014	1412.68	85097.2
294	2.000000	1.192000	7.36794e+06	-53339.1	955.818	-29746.8	0.000000	0.000000	7.196029	105.758	NaN	0.000000	0.001714	0.001629	28.0806	49.0981	0.001812	27089.2	8.056195	174.676	104.794	1.191655	0.046969	0.046624	105.758	27089.2	0.044041	0.074888	1412.22	90440.8
294	2.000000	1.194469	7.36794e+06	-53339.1	955.818	-29746.8	0.000000	0.000000	7.199105	120.523	NaN	0.000000	0.001678	0.001635	28.0805	51.5485	0.001924	26787.2	5.496457	-3.539006	118.26	1.194081	0.049438	0.049050	120.523	26787.2	0.046063	0.080635	1494.68	86186.4
294	2.000000	1.197015	7.36794e+06	-53339.1	955.818	-29746.8	0.000000	0.000000	7.202006	129.138	NaN	0.000000	0.001700	0.001650	28.0805	52.9848	0.001692	31319.9	0.897547	179.2	129.798	1.196776	0.051984	0.051745	129.138	31319.9	0.048892	0.089019	1450.69	95907.5
294	2.000000	1.199471	7.36794e+06	-53339.1	955.819	-29746.8	0.000000	0.000000	7.205346	150.633	NaN	0.000000	0.001707	0.001649	28.0804	55.8379	0.001757	31787.4	8.251939	-8.082276	148.273	1.199091	0.054440	0.054060	150.633	31787.4	0.050886	0.095172	1582.75	94139.8
294	2.000000	1.201992	7.36794e+06	-53339.1	955.82	-29746.8	0.000000	0.000000	7.208501	166.056	NaN	0.000000	0.001695	0.001679	28.0805	58.0552	0.001753	33126.7	5.177872	174.76	167.285	1.201653	0.056961	0.056623	166.056	33126.7	0.053201	0.102565	1619.03	94504.3
294	2.000000	1.204471	7.36794e+06	-53339.1	955.819	-29746.8	0.000000	0.000000	7.211766	185.184	NaN	0.000000	0.001684	0.001707	28.0803	61.2567	0.001758	34836.5	4.954133	-5.139492	182.358	1.204044	0.059440	0.059013	185.184	34836.5	0.055453	0.110010	1683.34	95960.4
294	2.000000	1.206944	7.36794e+06	-53339.1	955.819	-29746.8	0.000000	0.000000	7.214814	199.141	NaN	0.000000	0.001702	0.001663	28.0804	64.362	0.001798	35801.4	3.275150	175.838	196.967	1.206728	0.061913	0.061697	199.141	35801.4	0.057742	0.117834	1690.01	95287.7
294	2.000000	1.209608	7.36794e+06	-53339.1	955.818	-29746.8	0.000000	0.000000	7.218178	216.167	NaN	0.000000	0.001704	0.001649	28.0803	65.9817	0.001782	37032.9	3.763570	-4.263477	219.334	1.209275	0.064577	0.064244	216.167	37032.9	0.060199	0.126525	1708.5	95120.3
294	2.000000	1.211959	7.36794e+06	-53339.1	955.819	-29746.8	0.000000	0.000000	7.221222	233.029	NaN	0.000000	0.001715	0.001654	28.0803	68.3549	0.001693	40384.6	2.760502	174.838	231.191	1.211726	0.066928	0.066695	233.029	40384.6	0.062600	0.135297	1722.35	100310
294	2.000000	1.214451	7.36794e+06	-53339.1	955.821	-29746.8	0.000000	0.000000	7.224649	255.746	NaN	0.000000	0.001694	0.001658	28.0802	70.3921	0.001693	41572.1	-0.755262	-1.312520	252.756	1.214078	0.069420	0.069047	255.746	41572.1	0.064806	0.143603	1780.92	100229
294	2.000000	1.216913	7.36794e+06	-53339.1	955.819	-29746.8	0.000000	0.000000	7.227832	273.272	NaN	0.000000	0.001708	0.001624	28.0806	75.7613	0.001808	41909.3	6.294308	171.058	269.677	1.216692	0.071882	0.071661	273.272	41909.3	0.066992	0.152067	1797.05	98189.9
294	2.000000	1.219460	7.36794e+06	-53339.1	955.819	-29746.8	0.000000	0.000000	7.231469	299.77	NaN	0.000000	0.001722	0.001627	28.0802	76.7018	0.001670	45927.5	4.832006	-7.749795	296.104	1.219098	0.074429	0.074067	299.77	45927.5	0.069534	0.162197	1848.18	104189
294	2.000000	1.221975	7.36794e+06	-53339.1	955.82	-29746.8	0.000000	0.000000	7.234630	315.485	NaN	0.000000	0.001674	0.001667	28.0803	78.5124	0.001843	42590.1	3.708883	174.563	316.051	1.221635	0.076944	0.076604	315.485	42590.1	0.071389	0.169783	1858.17	94435.5
294	2.000000	1.224508	7.36794e+06	-53339.1	955.819	-29746.8	0.000000	0.000000	7.237846	332.096	NaN	0.000000	0.001690	0.001616	28.079	82.0851	0.001881	43643	4.409311	-6.721678	333.248	1.224076	0.079477	0.079045	332.096	43643	0.073770	0.179761	1847.43	94046
294	2.000000	1.226862	7.36794e+06	-53339.1	955.82	-29746.8	0.000000	0.000000	7.241216	356.797	NaN	0.000000	0.001660	0.001679	28.0793	83.5819	0.001811	46153	2.919759	174.563	352.56	1.226535	0.081831	0.081504	356.797	46153	0.076033	0.189492	1882.91	96867.4
294	2.000000	1.229447	7.36794e+06	-53339.1	955.819	-29746.8	0.000000	0.000000	7.244566	375.384	NaN	0.000000	0.001681	0.001669	28.0792	85.3768	0.001860	45894	4.958138	-6.565950	371.184	1.229044	0.084416	0.084013	375.384	45894	0.078282	0.199400	1882.57	93900.3
294	2.000000	1.232078	7.36794e+06	-53339.1	955.819	-29746.8	0.000000	0.000000	7.247512	383.045	NaN	0.000000	0.001655	0.001659	28.0791	88.5021	0.001871	47295.6	5.365498	171.997	390.251	1.231586	0.087047	0.086555	383.045	47295.6	0.080973	0.211567	1810.51	93944.2
294	2.000000	1.234354	7.36794e+06	-53339.1	955.82	-29746.8	0.000000	0.000000	7.250459	399.346	NaN	0.000000	0.001677	0.001626	28.0791	89.9339	0.001808	49744	5.080658	-8.352776	392.811	1.234114	0.089323	0.089083	399.346	49744	0.083302	0.222370	1795.86	96377.5
294	2.000000	1.236991	7.36794e+06	-53339.1	955.82	-29746.8	0.000000	0.000000	7.254285	428.267	NaN	0.000000	0.001673	0.001627	28.0793	92.7916	0.001900	48844.2	7.458712	170.171	429.637	1.236551	0.091960	0.091520	428.267	48844.2	0.085384	0.232237	1844.1	92602.1
294	2.000000	1.239424	7.36794e+06	-53339.1	955.819	-29746.8	0.000000	0.000000	7.257837	455.477	NaN	0.000000	0.001643	0.001635	28.0793	93.2289	0.001793	51983.2	4.783426	-7.938037	451.534	1.238976	0.094393	0.093945	455.477	51983.2	0.087821	0.244044	1866.37	96139.6
294	2.000000	1.241985	7.36794e+06	-53339.1	955.819	-29746.8	0.000000	0.000000	7.261180	474.472	NaN	0.000000	0.001653	0.001657	28.0791	95.3751	0.001843	51745.4	6.031067	171.448	474.65	1.241459	0.096954	0.096428	474.472	51745.4	0.090077	0.255216	1859.1	93581.7
294	2.000000	1.244423	7.36794e+06	-53339.1	955.82	-29746.8	0.000000	0.000000	7.264252	489.899	NaN	0.000000	0.001716	0.001654	28.0794	97.7361	0.001840	53103.3	7.020429	-10.9226	488.32	1.244210	0.099393	0.099180	489.899	53103.3	0.092474	0.267338	1832.5	93834.9
294	2.000000	1.246923	7.36794e+06	-53339.1	955.819	-29746.8	0.000000	0.000000	7.268171	524.386	NaN	0.000000	0.001750	0.001693	28.0791	99.6477	0.001795	55521.7	4.704392	172.022	524.26	1.246557	0.101892	0.101526	524.386	55521.7	0.094809	0.279405	1876.79	95966.3
294	2.000000	1.249514	7.36794e+06	-53339.1	955.819	-29746.8	0.000000	0.000000	7.270874	527.106	NaN	0.000000	0.001741	0.001650	28.0794	101.62	0.001777	57197.6	6.584394	-10.425	528.638	1.249249	0.104483	0.104218	527.106	57197.6	0.097572	0.294003	1792.86	96377.4
294	2.000000	1.251885	7.36794e+06	-53339.1	955.819	-29746.8	0.000000	0.000000	7.274386	554.856	NaN	0.000000	0.001744	0.001670	28.0793	102.409	0.001745	58689.9	2.908562	172.972	553.895	1.251599	0.106854	0.106568	554.856	58689.9	0.099764	0.305832	1814.25	96960.5
294	2.000000	1.253333	7.36794e+06	-53339.1	955.82	-29746.8	0.000000	0.000000	7.276227	564.432	NaN	0.000000	0.001766	0.001647	28.0792	104.709	0.001750	59836.6	0.785461	-5.298579	556.956	1.253164	0.108302	0.108133	564.432	59836.6	0.101227	0.313850	1798.41	97584.2