File: remote_trans/data/nanoindenter/0828-1/data/Data_2025-08-06,11h17m57s/2025-07-22_16-23-58_1_1156.txt
2025-07-22, 16:23:58, 1
Index	Phase	Displacement	Time	Pos X	Pos Y	Pos Z	Rot A	Rot B	Piezo Z	Force A	Force B	Gripper	Voltage A	Voltage B	Temperature	Amplitude force	Amplitude pos	Stiffness	Phase shift	Phase excitation	Force A raw	Displacement raw	HMax	HMax raw	Real Force	Real Stiffness	Contact Depth	Area	Hardness	Reduced Mod.
[#]	[#]	[um]	[s]	[um]	[um]	[um]	[m°]	[m°]	[um]	[uN]	[uN]	[V]	[V]	[V]	[°C]	[uN]	[um]	[N/m]	[°]	[°]	[uN]	[um]	[um]	[um]	[uN]	[N/m]	[um]	[um^2]	[MPa]	[MPa]
1156	1.000000	0.002242	7.37636e+06	-57789.1	1105.82	-29736.3	0.000000	0.000000	6.002799	-0.071381	NaN	0.000000	0.001675	0.001682	28.0834	0.120690	0.000828	145.829	160.66	-164.623	-0.013649	0.000987	-1.043604	-1.044858	-0.071381	145.829	-1.043236	-8.659340E+13	8.243190E-16	NaN
1156	1.000000	0.010214	7.37636e+06	-57789.1	1105.82	-29736.3	0.000000	0.000000	6.010775	0.023965	NaN	0.000000	0.001686	0.001649	28.0822	0.188211	0.000968	194.342	-126.94	-162.59	-0.033196	0.008904	-1.035631	-1.036942	0.023965	194.342	-1.035724	-6.862194E+13	-3.492345E-16	NaN
1156	1.000000	0.018205	7.37636e+06	-57789.1	1105.82	-29736.3	0.000000	0.000000	6.018766	0.029629	NaN	0.000000	0.001671	0.001629	28.082	0.070623	0.001716	41.1458	-161.086	-168.201	-0.058042	0.016865	-1.027641	-1.028980	0.029629	41.1458	-1.028181	-5.432596E+13	-5.453981E-16	NaN
1156	1.000000	0.026217	7.37636e+06	-57789.1	1105.82	-29736.3	0.000000	0.000000	6.026778	0.017553	NaN	0.000000	0.001694	0.001639	28.0821	0.017939	0.001813	9.893477	170.103	-166.114	0.019484	0.024899	-1.019628	-1.020946	0.017553	9.893477	-1.020959	-4.343661E+13	-4.041139E-16	NaN
1156	1.000000	0.034190	7.37636e+06	-57789.1	1105.82	-29736.3	0.000000	0.000000	6.034748	-0.051766	NaN	0.000000	0.001680	0.001652	28.0819	0.078671	0.001937	40.6081	160.384	-164.467	-0.014154	0.032918	-1.011655	-1.012927	-0.051766	40.6081	-1.010699	-3.160742E+13	1.637789E-15	NaN
1156	1.000000	0.042248	7.37636e+06	-57789.1	1105.82	-29736.3	0.000000	0.000000	6.042806	-0.045687	NaN	0.000000	0.001669	0.001627	28.0821	0.064341	0.001920	33.5097	-54.59	-166.039	-0.044893	0.040883	-1.003597	-1.004962	-0.045687	33.5097	-1.002574	-2.457122E+13	1.859376E-15	NaN
1156	1.000000	0.050197	7.37636e+06	-57789.1	1105.82	-29736.3	0.000000	0.000000	6.050757	-0.004081	NaN	0.000000	0.001595	0.001652	28.082	0.118024	0.001978	59.6544	124.721	-165.378	-0.072041	0.048915	-0.995648	-0.996931	-0.004081	59.6544	-0.995597	-1.979169E+13	2.062097E-16	NaN
1156	1.000000	0.058188	7.37636e+06	-57789.1	1105.82	-29736.3	0.000000	0.000000	6.058744	-0.083299	NaN	0.000000	0.001619	0.001685	28.0825	0.099702	0.002003	49.7758	13.45	-167.318	-0.053276	0.056893	-0.987658	-0.988953	-0.083299	49.7758	-0.986403	-1.488192E+13	5.597331E-15	NaN
1156	1.000000	0.066203	7.37636e+06	-57789.1	1105.82	-29736.3	0.000000	0.000000	6.066764	0.022460	NaN	0.000000	0.001586	0.001652	28.0819	0.045108	0.001982	22.7645	141.353	-165.786	-0.029233	0.064949	-0.979643	-0.980896	0.022460	22.7645	-0.980383	-1.234708E+13	-1.819084E-15	NaN
1156	1.000000	0.074230	7.37636e+06	-57789.1	1105.82	-29736.3	0.000000	0.000000	6.074791	0.010265	NaN	0.000000	0.001588	0.001651	28.0818	0.079315	0.002024	39.1833	7.517984	-163.484	-0.028843	0.072926	-0.971615	-0.972920	0.010265	39.1833	-0.971811	-9.463964E+12	-1.084597E-15	NaN
1156	1.000000	0.082183	7.37636e+06	-57789.1	1105.82	-29736.3	0.000000	0.000000	6.082742	-0.021421	NaN	0.000000	0.001612	0.001664	28.0813	0.093457	0.002033	45.9617	-173.311	-166.569	-0.070964	0.080891	-0.963662	-0.964954	-0.021421	45.9617	-0.963313	-7.269876E+12	2.946516E-15	NaN
1156	1.000000	0.090191	7.37636e+06	-57789.1	1105.82	-29736.3	0.000000	0.000000	6.090749	-0.044438	NaN	0.000000	0.001617	0.001684	28.0809	0.089786	0.001912	46.9475	136.441	-164.397	-0.040345	0.088998	-0.955654	-0.956848	-0.044438	46.9475	-0.954944	-5.606610E+12	7.926039E-15	NaN
1156	1.000000	0.098209	7.37636e+06	-57789.1	1105.82	-29736.3	0.000000	0.000000	6.098771	0.035557	NaN	0.000000	0.001642	0.001686	28.0814	0.130141	0.001974	65.9401	-148.993	-164.807	-0.021582	0.096904	-0.947636	-0.948941	0.035557	65.9401	-0.948041	-4.524810E+12	-7.858150E-15	NaN
1156	1.000000	0.106184	7.37636e+06	-57789.1	1105.82	-29736.3	0.000000	0.000000	6.106742	-0.051569	NaN	0.000000	0.001639	0.001655	28.0807	0.072536	0.001874	38.6983	103.96	-165.889	-0.011336	0.104851	-0.939661	-0.940994	-0.051569	38.6983	-0.938662	-3.381286E+12	1.525119E-14	NaN
1156	1.000000	0.114193	7.37636e+06	-57789.1	1105.82	-29736.3	0.000000	0.000000	6.114752	-0.022309	NaN	0.000000	0.001649	0.001659	28.0808	0.105301	0.001959	53.7563	169.959	-165.427	0.018106	0.112924	-0.931652	-0.932921	-0.022309	53.7563	-0.931341	-2.693350E+12	8.283102E-15	NaN
1156	1.000000	0.122216	7.37636e+06	-57789.1	1105.82	-29736.3	0.000000	0.000000	6.122774	-0.056627	NaN	0.000000	0.001611	0.001665	28.0809	0.063608	0.001966	32.3503	-94.6936	-164.1	-0.024333	0.120903	-0.923629	-0.924942	-0.056627	32.3503	-0.922316	-2.034595E+12	2.783188E-14	NaN
1156	1.000000	0.130218	7.37636e+06	-57789.1	1105.82	-29736.3	0.000000	0.000000	6.130776	-0.068056	NaN	0.000000	0.001642	0.001638	28.0808	0.025198	0.002021	12.4694	82.2642	-167.436	-0.033780	0.128933	-0.915627	-0.916912	-0.068056	12.4694	-0.911534	-1.455041E+12	4.677265E-14	NaN
1156	1.000000	0.138209	7.37636e+06	-57789.1	1105.82	-29736.3	0.000000	0.000000	6.138767	-0.052716	NaN	0.000000	0.001616	0.001649	28.0808	0.066954	0.001899	35.2503	-160.723	-161.21	-0.067371	0.136910	-0.907636	-0.908935	-0.052716	35.2503	-0.906515	-1.244762E+12	4.235016E-14	NaN
1156	1.000000	0.146231	7.37636e+06	-57789.1	1105.82	-29736.3	0.000000	0.000000	6.146787	-0.093744	NaN	0.000000	0.001553	0.001660	28.0807	0.024501	0.001896	12.9257	133.4	-166.306	-0.078327	0.144891	-0.899614	-0.900954	-0.093744	12.9257	-0.894175	-8.479013E+11	1.105603E-13	NaN
1156	1.000000	0.154231	7.37636e+06	-57789.1	1105.82	-29736.3	0.000000	0.000000	6.154788	-0.057967	NaN	0.000000	0.001645	0.001664	28.0813	0.048229	0.002093	23.0466	125.579	-168.319	-0.097249	0.152915	-0.891615	-0.892930	-0.057967	23.0466	-0.889728	-7.383133E+11	7.851267E-14	NaN
1156	1.000000	0.162211	7.37636e+06	-57789.1	1105.82	-29736.3	0.000000	0.000000	6.162770	-0.029616	NaN	0.000000	0.001646	0.001668	28.0809	0.093020	0.001916	48.5371	161.036	-165.187	-0.084047	0.160926	-0.883634	-0.884919	-0.029616	48.5371	-0.883176	-6.020856E+11	4.918901E-14	NaN
1156	1.000000	0.170256	7.37636e+06	-57789.1	1105.82	-29736.3	0.000000	0.000000	6.170815	-0.026541	NaN	0.000000	0.001682	0.001631	28.081	0.075555	0.002046	36.935	-81.7089	-163.885	-0.040393	0.168905	-0.875590	-0.876940	-0.026541	36.935	-0.875051	-4.674864E+11	5.677298E-14	NaN
1156	1.000000	0.178266	7.37636e+06	-57789.1	1105.82	-29736.3	0.000000	0.000000	6.178825	-0.022852	NaN	0.000000	0.001675	0.001619	28.081	0.133062	0.001938	68.6679	-89.931	-166.161	-0.078885	0.176925	-0.867579	-0.868921	-0.022852	68.6679	-0.867330	-3.675467E+11	6.217565E-14	NaN
1156	1.000000	0.186248	7.37636e+06	-57789.1	1105.82	-29736.3	0.000000	0.000000	6.186807	-0.043669	NaN	0.000000	0.001622	0.001668	28.0812	0.074716	0.002049	36.473	-76.8327	-166.136	0.028539	0.184927	-0.859597	-0.860919	-0.043669	36.473	-0.858699	-2.808726E+11	1.554762E-13	NaN
1156	1.000000	0.194236	7.37636e+06	-57789.1	1105.82	-29736.3	0.000000	0.000000	6.194794	-0.037239	NaN	0.000000	0.001666	0.001643	28.0816	0.014581	0.001996	7.304579	146.135	-162.263	-0.097131	0.192900	-0.851609	-0.852945	-0.037239	7.304579	-0.847786	-1.998717E+11	1.863153E-13	NaN
1156	1.000000	0.202257	7.37636e+06	-57789.1	1105.82	-29736.3	0.000000	0.000000	6.202815	-0.043345	NaN	0.000000	0.001639	0.001650	28.0812	0.161186	0.001926	83.6699	67.398	-167.39	-0.008144	0.200955	-0.843589	-0.844890	-0.043345	83.6699	-0.843200	-1.732377E+11	2.502075E-13	NaN
1156	1.000000	0.210242	7.37636e+06	-57789.1	1105.82	-29736.3	0.000000	0.000000	6.210803	0.035688	NaN	0.000000	0.001636	0.001672	28.0813	0.138863	0.001905	72.8953	99.6797	-161.469	0.006407	0.208924	-0.835603	-0.836921	0.035688	72.8953	-0.835971	-1.382610E+11	-2.581224E-13	NaN
1156	1.000000	0.218260	7.37636e+06	-57789.1	1105.82	-29736.3	0.000000	0.000000	6.218820	-0.010498	NaN	0.000000	0.001654	0.001673	28.0819	0.028148	0.001972	14.2709	12.9507	-165.459	-0.055814	0.216951	-0.827585	-0.828894	-0.010498	14.2709	-0.827033	-1.046094E+11	1.003542E-13	NaN
1156	1.000000	0.226244	7.37636e+06	-57789.1	1105.82	-29736.3	0.000000	0.000000	6.226804	-0.004353	NaN	0.000000	0.001584	0.001674	28.0823	0.061657	0.001910	32.2837	127.777	-160.65	0.084395	0.224995	-0.819601	-0.820850	-0.004353	32.2837	-0.819500	-8.268559E+10	5.265005E-14	NaN
1156	1.000000	0.234277	7.37636e+06	-57789.1	1105.82	-29736.3	0.000000	0.000000	6.234834	-0.071090	NaN	0.000000	0.001596	0.001641	28.0824	0.086582	0.001883	45.9822	170.924	-163.703	0.010351	0.232932	-0.811568	-0.812913	-0.071090	45.9822	-0.810409	-6.224712E+10	1.142063E-12	NaN
1156	1.000000	0.242270	7.37636e+06	-57789.1	1105.82	-29736.3	0.000000	0.000000	6.242827	-0.051806	NaN	0.000000	0.001622	0.001665	28.0823	0.041141	0.002108	19.5191	-138.32	-166.736	-0.061441	0.240930	-0.803576	-0.804915	-0.051806	19.5191	-0.801585	-4.724736E+10	1.096484E-12	NaN
1156	1.000000	0.250277	7.37636e+06	-57789.1	1105.82	-29736.3	0.000000	0.000000	6.250835	-0.061621	NaN	0.000000	0.001604	0.001675	28.0825	0.056660	0.001962	28.8788	-85.708	-165.153	-0.080692	0.248981	-0.795568	-0.796864	-0.061621	28.8788	-0.793968	-3.723597E+10	1.654883E-12	NaN
1156	1.000000	0.258271	7.37636e+06	-57789.1	1105.82	-29736.3	0.000000	0.000000	6.258831	0.006240	NaN	0.000000	0.001604	0.001664	28.0819	0.124822	0.001959	63.708	-177.845	-166.963	-0.089796	0.256912	-0.787574	-0.788933	0.006240	63.708	-0.787648	-3.055858E+10	-2.041917E-13	NaN
1156	1.000000	0.266288	7.37636e+06	-57789.1	1105.82	-29736.3	0.000000	0.000000	6.266849	0.025387	NaN	0.000000	0.001608	0.001679	28.0823	0.048688	0.001873	25.9991	51.5574	-164.831	0.025493	0.264954	-0.779557	-0.780892	0.025387	25.9991	-0.780289	-2.427529E+10	-1.045802E-12	NaN
1156	1.000000	0.274286	7.37636e+06	-57789.1	1105.82	-29736.3	0.000000	0.000000	6.274843	-0.072938	NaN	0.000000	0.001612	0.001712	28.0824	0.078981	0.002072	38.1166	19.4243	-161.745	-0.027672	0.272957	-0.771560	-0.772888	-0.072938	38.1166	-0.770124	-1.766030E+10	4.130034E-12	NaN
1156	1.000000	0.282290	7.37636e+06	-57789.1	1105.82	-29736.3	0.000000	0.000000	6.282850	-0.013799	NaN	0.000000	0.001676	0.001656	28.0824	0.044969	0.002039	22.0503	167.141	-163.763	-0.031495	0.280964	-0.763555	-0.764881	-0.013799	22.0503	-0.763085	-1.416685E+10	9.740137E-13	NaN
1156	1.000000	0.290266	7.37636e+06	-57789.1	1105.82	-29736.3	0.000000	0.000000	6.290826	0.002497	NaN	0.000000	0.001709	0.001643	28.0825	0.054884	0.001953	28.1003	115.537	-165.696	0.028593	0.288958	-0.755579	-0.756887	0.002497	28.1003	-0.755646	-1.122174E+10	-2.225166E-13	NaN
1156	1.000000	0.298303	7.37636e+06	-57789.1	1105.82	-29736.3	0.000000	0.000000	6.298861	-0.043331	NaN	0.000000	0.001704	0.001644	28.0822	0.078123	0.002014	38.7885	-73.3344	-166.118	-0.044269	0.297006	-0.747543	-0.748839	-0.043331	38.7885	-0.746705	-8.479277E+9	5.110220E-12	NaN
1156	1.000000	0.306285	7.37636e+06	-57789.1	1105.82	-29736.3	0.000000	0.000000	6.306843	-0.034853	NaN	0.000000	0.001616	0.001668	28.0826	0.123557	0.002039	60.5961	158.667	-168.512	-0.056219	0.304988	-0.739560	-0.740857	-0.034853	60.5961	-0.739129	-6.686415E+9	5.212538E-12	NaN
1156	1.000000	0.314304	7.37636e+06	-57789.1	1105.82	-29736.3	0.000000	0.000000	6.314858	-0.142941	NaN	0.000000	0.001601	0.001659	28.0822	0.045150	0.001892	23.8671	-19.1723	-165.069	-0.123069	0.313014	-0.731541	-0.732831	-0.142941	23.8671	-0.727049	-4.577086E+9	3.122970E-11	NaN
1156	1.000000	0.322311	7.37636e+06	-57789.1	1105.82	-29736.3	0.000000	0.000000	6.322870	-0.007630	NaN	0.000000	0.001655	0.001617	28.0823	0.038528	0.002004	19.222	128.212	-166.028	0.039347	0.320982	-0.723535	-0.724863	-0.007630	19.222	-0.723237	-4.060807E+9	1.878906E-12	NaN
1156	1.000000	0.330325	7.37636e+06	-57789.1	1105.82	-29736.3	0.000000	0.000000	6.330883	-0.047109	NaN	0.000000	0.001659	0.001653	28.0823	0.017703	0.001944	9.106311	-104.101	-167.281	-0.061699	0.328962	-0.715520	-0.716884	-0.047109	9.106311	-0.711641	-2.821213E+9	1.669818E-11	NaN
1156	1.000000	0.338344	7.37636e+06	-57789.1	1105.82	-29736.3	0.000000	0.000000	6.338903	-0.032630	NaN	0.000000	0.001699	0.001649	28.0823	0.084022	0.001919	43.7871	7.860139	-163.831	-0.103413	0.337006	-0.707501	-0.708840	-0.032630	43.7871	-0.706942	-2.433975E+9	1.340620E-11	NaN
1156	1.000000	0.346343	7.37636e+06	-57789.1	1105.82	-29736.3	0.000000	0.000000	6.346904	0.025496	NaN	0.000000	0.001728	0.001656	28.0828	0.022597	0.002045	11.0508	-146.889	-168.139	-0.017518	0.344995	-0.699502	-0.700850	0.025496	11.0508	-0.701233	-2.034070E+9	-1.253430E-11	NaN
1156	1.000000	0.354285	7.37636e+06	-57789.1	1105.82	-29736.3	0.000000	0.000000	6.354844	-0.020399	NaN	0.000000	0.001725	0.001679	28.082	0.045507	0.002119	21.4738	-47.7627	-168.061	-0.001608	0.353016	-0.691560	-0.692829	-0.020399	21.4738	-0.690848	-1.467256E+9	1.390270E-11	NaN
1156	1.000000	0.362326	7.37636e+06	-57789.1	1105.82	-29736.3	0.000000	0.000000	6.362886	-0.006379	NaN	0.000000	0.001714	0.001654	28.0812	0.060923	0.002029	30.0316	-113.305	-164.365	-0.004318	0.360996	-0.683519	-0.684849	-0.006379	30.0316	-0.683360	-1.159181E+9	5.503033E-12	NaN
1156	1.000000	0.370321	7.37636e+06	-57789.1	1105.82	-29736.3	0.000000	0.000000	6.370879	-0.035196	NaN	0.000000	0.001705	0.001681	28.0812	0.057925	0.002019	28.6954	-63.9047	-166.331	-0.009454	0.368999	-0.675524	-0.676846	-0.035196	28.6954	-0.674604	-8.798297E+8	4.000272E-11	NaN
1156	1.000000	0.378326	7.37636e+06	-57789.1	1105.82	-29736.3	0.000000	0.000000	6.378886	-0.009848	NaN	0.000000	0.001727	0.001658	28.0812	0.062828	0.002111	29.7559	50.3507	-167.386	0.005699	0.377016	-0.667519	-0.668830	-0.009848	29.7559	-0.667271	-6.982793E+8	1.410262E-11	NaN
1156	1.000000	0.386334	7.37636e+06	-57789.1	1105.82	-29736.3	0.000000	0.000000	6.386891	-0.064589	NaN	0.000000	0.001690	0.001673	28.0816	0.049215	0.002090	23.5427	50.3204	-168.79	-0.056561	0.385001	-0.659512	-0.660844	-0.064589	23.5427	-0.657454	-5.123780E+8	1.260570E-10	NaN
1156	1.000000	0.394325	7.37636e+06	-57789.1	1105.82	-29736.3	0.000000	0.000000	6.394881	-0.089633	NaN	0.000000	0.001692	0.001657	28.0811	0.112699	0.001729	65.1686	164.3	-162.515	-0.151328	0.393085	-0.651520	-0.652760	-0.089633	65.1686	-0.650489	-4.112787E+8	2.179370E-10	NaN
1156	1.000000	0.402347	7.37636e+06	-57789.1	1105.82	-29736.3	0.000000	0.000000	6.402906	-0.026392	NaN	0.000000	0.001585	0.001681	28.0815	0.078553	0.002072	37.9128	-47.7554	-168.029	0.023539	0.400978	-0.643498	-0.644867	-0.026392	37.9128	-0.642976	-3.244244E+8	8.135129E-11	NaN
1156	1.000000	0.410345	7.37636e+06	-57789.1	1105.82	-29736.3	0.000000	0.000000	6.410902	-0.064808	NaN	0.000000	0.001585	0.001654	28.0813	0.084824	0.002022	41.95	61.0145	-165.96	-0.044894	0.409000	-0.635500	-0.636845	-0.064808	41.95	-0.634342	-2.469655E+8	2.624153E-10	NaN
1156	1.000000	0.418338	7.37636e+06	-57789.1	1105.82	-29736.3	0.000000	0.000000	6.418894	-0.092286	NaN	0.000000	0.001646	0.001664	28.0815	0.066324	0.002102	31.5593	155.106	-165.864	-0.037684	0.417037	-0.627507	-0.628808	-0.092286	31.5593	-0.625314	-1.856338E+8	4.971386E-10	NaN
1156	1.000000	0.426340	7.37636e+06	-57789.1	1105.82	-29736.3	0.000000	0.000000	6.426898	-0.031036	NaN	0.000000	0.001636	0.001632	28.0814	0.077119	0.002030	37.9946	-34.6607	-166.721	-0.044060	0.425076	-0.619505	-0.620769	-0.031036	37.9946	-0.618893	-1.515004E+8	2.048600E-10	NaN
1156	1.000000	0.434377	7.37636e+06	-57789.1	1105.82	-29736.3	0.000000	0.000000	6.434934	-0.072107	NaN	0.000000	0.001620	0.001617	28.0812	0.066028	0.001860	35.5022	103.574	-167.488	0.014339	0.433071	-0.611468	-0.612775	-0.072107	35.5022	-0.609945	-1.141179E+8	6.318644E-10	NaN
1156	1.000000	0.442348	7.37636e+06	-57789.1	1105.82	-29736.3	0.000000	0.000000	6.442905	-0.078020	NaN	0.000000	0.001594	0.001635	28.0814	0.023597	0.001947	12.1177	80.4617	-164.523	-0.029128	0.441005	-0.603497	-0.604840	-0.078020	12.1177	-0.598668	-7.982145E+7	9.774270E-10	NaN
1156	1.000000	0.450364	7.37636e+06	-57789.1	1105.82	-29736.3	0.000000	0.000000	6.450924	0.005131	NaN	0.000000	0.001628	0.001678	28.0811	0.021490	0.001999	10.7477	85.8665	-166.21	-0.044911	0.449031	-0.595481	-0.596814	0.005131	10.7477	-0.595839	-7.297071E+7	-7.031757E-11	NaN
1156	1.000000	0.458348	7.37636e+06	-57789.1	1105.82	-29736.3	0.000000	0.000000	6.458906	-0.047841	NaN	0.000000	0.001624	0.001682	28.0813	0.051727	0.002077	24.9088	-111.809	-163.957	-0.030683	0.457050	-0.587497	-0.588795	-0.047841	24.9088	-0.586056	-5.349161E+7	8.943684E-10	NaN
1156	1.000000	0.466356	7.37636e+06	-57789.1	1105.82	-29736.3	0.000000	0.000000	6.466914	-0.046113	NaN	0.000000	0.001642	0.001673	28.0812	0.052323	0.001970	26.5631	58.2549	-167.757	-0.106617	0.465032	-0.579489	-0.580813	-0.046113	26.5631	-0.578187	-4.165832E+7	1.106945E-9	NaN
1156	1.000000	0.474414	7.37636e+06	-57789.1	1105.82	-29736.3	0.000000	0.000000	6.474974	-0.017435	NaN	0.000000	0.001642	0.001685	28.0813	0.112651	0.001886	59.7162	50.5262	-165.646	-0.031439	0.473073	-0.571431	-0.572772	-0.017435	59.7162	-0.571212	-3.337158E+7	5.224557E-10	NaN
1156	1.000000	0.482343	7.37636e+06	-57789.1	1105.82	-29736.3	0.000000	0.000000	6.482901	-0.053022	NaN	0.000000	0.001648	0.001669	28.0812	0.085598	0.002018	42.4068	-144.689	-164.948	0.001969	0.481095	-0.563502	-0.564750	-0.053022	42.4068	-0.562564	-2.534244E+7	2.092209E-9	NaN
1156	1.000000	0.490378	7.37636e+06	-57789.1	1105.82	-29736.3	0.000000	0.000000	6.490937	-0.018774	NaN	0.000000	0.001615	0.001668	28.0812	0.104304	0.001976	52.7972	147.737	-169.071	0.001977	0.489067	-0.555467	-0.556778	-0.018774	52.7972	-0.555201	-2.004318E+7	9.366995E-10	NaN
1156	1.000000	0.498387	7.37636e+06	-57789.1	1105.82	-29736.3	0.000000	0.000000	6.498943	-0.092981	NaN	0.000000	0.001645	0.001667	28.0823	0.044839	0.002085	21.5005	11.2088	-167.652	-0.025906	0.497085	-0.547458	-0.548760	-0.092981	21.5005	-0.544215	-1.411877E+7	6.585606E-9	NaN
1156	1.000000	0.506344	7.37636e+06	-57789.1	1105.82	-29736.3	0.000000	0.000000	6.506902	-0.051096	NaN	0.000000	0.001643	0.001637	28.0823	0.064047	0.001944	32.9476	152.055	-166.094	-0.071946	0.505057	-0.539501	-0.540788	-0.051096	32.9476	-0.538338	-1.170335E+7	4.365945E-9	NaN
1156	1.000000	0.514387	7.37636e+06	-57789.1	1105.82	-29736.3	0.000000	0.000000	6.514944	-0.087503	NaN	0.000000	0.001631	0.001633	28.0824	0.037184	0.002018	18.4227	-130.982	-167.123	-0.111206	0.513095	-0.531458	-0.532750	-0.087503	18.4227	-0.527896	-8.38196e+06	1.043943E-8	NaN
1156	1.000000	0.522351	7.37636e+06	-57789.1	1105.82	-29736.3	0.000000	0.000000	6.522909	-0.051713	NaN	0.000000	0.001621	0.001711	28.0821	0.078485	0.002007	39.1094	17.9975	-168.315	-0.033493	0.521089	-0.523495	-0.524756	-0.051713	39.1094	-0.522503	-7.05344e+06	7.331534E-9	NaN
1156	1.000000	0.530397	7.37636e+06	-57789.1	1105.82	-29736.3	0.000000	0.000000	6.530954	-0.066849	NaN	0.000000	0.001613	0.001692	28.0822	0.035278	0.001958	18.0141	-10.7649	-168.655	-0.105070	0.529085	-0.515449	-0.516761	-0.066849	18.0141	-0.512665	-5.14675e+06	1.298862E-8	NaN
1156	1.000000	0.538409	7.37636e+06	-57789.1	1105.82	-29736.3	0.000000	0.000000	6.538968	-0.022779	NaN	0.000000	0.001595	0.001708	28.0823	0.060629	0.001875	32.3406	-27.258	-163.662	-0.000667	0.537098	-0.507436	-0.508747	-0.022779	32.3406	-0.506908	-4.27898e+06	5.323438E-9	NaN
1156	1.000000	0.546411	7.37636e+06	-57789.1	1105.82	-29736.3	0.000000	0.000000	6.546974	0.061269	NaN	0.000000	0.001631	0.001690	28.0824	0.145495	0.002057	70.7408	16.0371	-167.93	0.082890	0.545127	-0.499434	-0.500718	0.061269	70.7408	-0.500084	-3.43703e+06	-1.782601E-8	NaN
1156	1.000000	0.554385	7.37636e+06	-57789.1	1105.82	-29736.3	0.000000	0.000000	6.554944	-0.027192	NaN	0.000000	0.001626	0.001661	28.0826	0.017029	0.002030	8.389503	60.8958	-170.736	-0.024787	0.553109	-0.491460	-0.492736	-0.027192	8.389503	-0.489029	-2.40895e+06	1.128796E-8	NaN
1156	1.000000	0.562377	7.37636e+06	-57789.1	1105.82	-29736.3	0.000000	0.000000	6.562935	-0.041805	NaN	0.000000	0.001626	0.001671	28.0824	0.035366	0.002133	16.5788	120.671	-165.984	-0.045925	0.561120	-0.483469	-0.484726	-0.041805	16.5788	-0.481577	-1.89498e+06	2.206084E-8	NaN
1156	1.000000	0.570392	7.37636e+06	-57789.1	1105.82	-29736.3	0.000000	0.000000	6.570952	-0.018822	NaN	0.000000	0.001601	0.001699	28.0824	0.053205	0.001900	28.0054	83.8275	-167.544	-0.088632	0.569074	-0.475453	-0.476771	-0.018822	28.0054	-0.474949	-1.53032e+06	1.229919E-8	NaN
1156	1.000000	0.578404	7.37636e+06	-57789.1	1105.82	-29736.3	0.000000	0.000000	6.578964	0.002348	NaN	0.000000	0.001632	0.001698	28.0826	0.111449	0.001978	56.3471	-14.7322	-167.046	0.011812	0.577137	-0.467441	-0.468708	0.002348	56.3471	-0.467472	-1.20212e+06	-1.953445E-9	NaN
1156	1.000000	0.586446	7.37636e+06	-57789.1	1105.82	-29736.3	0.000000	0.000000	6.587004	-0.045777	NaN	0.000000	0.001642	0.001691	28.0826	0.079317	0.002037	38.9462	-78.0994	-168.744	0.014994	0.585091	-0.459399	-0.460754	-0.045777	38.9462	-0.458518	-899874	5.087098E-8	NaN
1156	1.000000	0.594409	7.37636e+06	-57789.1	1105.82	-29736.3	0.000000	0.000000	6.594968	-0.028165	NaN	0.000000	0.001618	0.001686	28.0825	0.042928	0.002058	20.8627	139.229	-163.745	-0.014122	0.593145	-0.451436	-0.452700	-0.028165	20.8627	-0.450423	-692317	4.068249E-8	NaN
1156	1.000000	0.602398	7.37636e+06	-57789.1	1105.82	-29736.3	0.000000	0.000000	6.602959	0.020699	NaN	0.000000	0.001612	0.001664	28.0824	0.026613	0.002114	12.5895	75.4601	-167.047	-0.006523	0.601101	-0.443447	-0.444744	0.020699	12.5895	-0.444680	-574619	-3.602288E-8	NaN
1156	1.000000	0.610408	7.37636e+06	-57789.1	1105.82	-29736.3	0.000000	0.000000	6.610968	0.001373	NaN	0.000000	0.001637	0.001669	28.0826	0.086011	0.002120	40.5789	-81.887	-166.794	0.022127	0.609134	-0.435437	-0.436711	0.001373	40.5789	-0.435463	-425884	-3.223131E-9	NaN
1156	1.000000	0.618436	7.37636e+06	-57789.1	1105.82	-29736.3	0.000000	0.000000	6.618997	0.009304	NaN	0.000000	0.001646	0.001672	28.0828	0.101967	0.002017	50.5448	-170.24	-163.389	0.032967	0.617112	-0.427409	-0.428733	0.009304	50.5448	-0.427547	-329116	-2.826954E-8	NaN
1156	1.000000	0.626427	7.37636e+06	-57789.1	1105.82	-29736.3	0.000000	0.000000	6.626987	-0.017053	NaN	0.000000	0.001635	0.001704	28.0826	0.040599	0.001949	20.8321	133.657	-166.512	-0.090257	0.625089	-0.419418	-0.420756	-0.017053	20.8321	-0.418804	-247428	6.891981E-8	NaN
1156	1.000000	0.634447	7.37636e+06	-57789.1	1105.82	-29736.3	0.000000	0.000000	6.635006	-0.018660	NaN	0.000000	0.001631	0.001693	28.0813	0.103923	0.002021	51.4154	-170.395	-166.397	-0.128941	0.633129	-0.411398	-0.412716	-0.018660	51.4154	-0.411126	-192492	9.694021E-8	NaN
1156	1.000000	0.642451	7.37636e+06	-57789.1	1105.82	-29736.3	0.000000	0.000000	6.643010	-0.040264	NaN	0.000000	0.001624	0.001675	28.0813	0.076580	0.001895	40.4175	-170.317	-163.155	-0.016157	0.641106	-0.403394	-0.404739	-0.040264	40.4175	-0.402647	-145789	2.761819E-7	NaN
1156	1.000000	0.650452	7.37636e+06	-57789.1	1105.82	-29736.3	0.000000	0.000000	6.651011	-0.032533	NaN	0.000000	0.001624	0.001690	28.0815	0.078264	0.001932	40.513	99.7906	-165.137	-0.025524	0.649119	-0.395393	-0.396726	-0.032533	40.513	-0.394791	-112629	2.888513E-7	NaN
1156	1.000000	0.658459	7.37636e+06	-57789.1	1105.82	-29736.3	0.000000	0.000000	6.659019	-0.003970	NaN	0.000000	0.001653	0.001649	28.0814	0.078044	0.001964	39.7329	103.728	-168.364	-0.094566	0.657163	-0.387386	-0.388682	-0.003970	39.7329	-0.387311	-88041.3	4.509501E-8	NaN
1156	1.000000	0.666440	7.37636e+06	-57789.1	1105.82	-29736.3	0.000000	0.000000	6.666999	-0.010219	NaN	0.000000	0.001646	0.001676	28.0817	0.089436	0.001875	47.698	-173.639	-166.817	-0.065823	0.665095	-0.379405	-0.380751	-0.010219	47.698	-0.379245	-67460.1	1.514830E-7	NaN
1156	1.000000	0.674468	7.37636e+06	-57789.1	1105.82	-29736.3	0.000000	0.000000	6.675024	-0.096447	NaN	0.000000	0.001634	0.001666	28.0815	0.086336	0.002045	42.2217	89.1503	-165.236	-0.130041	0.673144	-0.371378	-0.372701	-0.096447	42.2217	-0.369664	-49123.9	1.963347E-6	NaN
1156	1.000000	0.682487	7.37636e+06	-57789.1	1105.82	-29736.3	0.000000	0.000000	6.683045	-0.041514	NaN	0.000000	0.001649	0.001678	28.0813	0.083566	0.002026	41.2504	-80.3555	-167.301	0.000547	0.681179	-0.363358	-0.364667	-0.041514	41.2504	-0.362603	-38856.2	1.068402E-6	NaN
1156	1.000000	0.690458	7.37636e+06	-57789.1	1105.82	-29736.3	0.000000	0.000000	6.691018	0.001410	NaN	0.000000	0.001645	0.001665	28.0813	0.080921	0.001946	41.5914	-41.4496	-165.403	0.036135	0.689079	-0.355387	-0.356766	0.001410	41.5914	-0.355413	-30582.4	-4.611116E-8	NaN
1156	1.000000	0.698474	7.37636e+06	-57789.1	1105.82	-29736.3	0.000000	0.000000	6.699033	-0.030127	NaN	0.000000	0.001623	0.001652	28.0813	0.073719	0.002055	35.8656	-63.554	-165.083	0.033562	0.697176	-0.347371	-0.348669	-0.030127	35.8656	-0.346741	-22891	1.316087E-6	NaN
1156	1.000000	0.706442	7.37636e+06	-57789.1	1105.82	-29736.3	0.000000	0.000000	6.707000	-0.040517	NaN	0.000000	0.001630	0.001674	28.0814	0.026690	0.002164	12.3356	123.276	-168.967	-0.075915	0.705170	-0.339403	-0.340675	-0.040517	12.3356	-0.336940	-16478.3	2.458818E-6	NaN
1156	1.000000	0.714459	7.37636e+06	-57789.1	1105.82	-29736.3	0.000000	0.000000	6.715018	-0.034482	NaN	0.000000	0.001650	0.001702	28.0815	0.150545	0.001960	76.8187	61.1504	-170.521	-0.053062	0.713162	-0.331386	-0.332683	-0.034482	76.8187	-0.331049	-13514.9	2.551383E-6	NaN
1156	1.000000	0.722475	7.37636e+06	-57789.1	1105.82	-29736.3	0.000000	0.000000	6.723033	-0.048251	NaN	0.000000	0.001635	0.001699	28.0815	0.083111	0.001980	41.9813	135.796	-167.068	-0.122434	0.721169	-0.323370	-0.324676	-0.048251	41.9813	-0.322508	-10128	4.764100E-6	NaN
1156	1.000000	0.730466	7.37636e+06	-57789.1	1105.82	-29736.3	0.000000	0.000000	6.731024	-0.035110	NaN	0.000000	0.001609	0.001689	28.081	0.118353	0.002054	57.6126	29.8858	-166.537	-0.025826	0.729183	-0.315379	-0.316662	-0.035110	57.6126	-0.314922	-7830.69	4.483682E-6	NaN
1156	1.000000	0.738477	7.37636e+06	-57789.1	1105.82	-29736.3	0.000000	0.000000	6.739034	-0.054521	NaN	0.000000	0.001625	0.001690	28.0813	0.070066	0.002069	33.8573	47.315	-165.63	-0.079633	0.737183	-0.307368	-0.308662	-0.054521	33.8573	-0.306161	-5810.01	9.383906E-6	NaN
1156	1.000000	0.746451	7.37636e+06	-57789.1	1105.82	-29736.3	0.000000	0.000000	6.747009	-0.034082	NaN	0.000000	0.001663	0.001664	28.0813	0.016756	0.001909	8.775673	-65.5578	-165.63	-0.025154	0.745155	-0.299394	-0.300690	-0.034082	8.775673	-0.296482	-4170.63	8.171954E-6	NaN
1156	1.000000	0.754492	7.37636e+06	-57789.1	1105.82	-29736.3	0.000000	0.000000	6.755049	-0.073653	NaN	0.000000	0.001664	0.001707	28.0813	0.108313	0.002009	53.9173	-61.0945	-167.05	-0.012834	0.753134	-0.291353	-0.292712	-0.073653	53.9173	-0.290329	-3374.65	2.182537E-5	NaN
1156	1.000000	0.762486	7.37636e+06	-57789.1	1105.82	-29736.3	0.000000	0.000000	6.763046	0.005020	NaN	0.000000	0.001631	0.001691	28.0814	0.068237	0.001986	34.3574	133.44	-166.065	0.015429	0.761162	-0.283359	-0.284683	0.005020	34.3574	-0.283469	-2662.16	-1.885537E-6	NaN
1156	1.000000	0.770501	7.37636e+06	-57789.1	1105.82	-29736.3	0.000000	0.000000	6.771059	-0.051254	NaN	0.000000	0.001653	0.001666	28.0826	0.022877	0.001937	11.8073	-171.514	-164.962	-0.087526	0.769173	-0.275344	-0.276673	-0.051254	11.8073	-0.272088	-1791.7	2.860619E-5	NaN
1156	1.000000	0.778495	7.37636e+06	-57789.1	1105.82	-29736.3	0.000000	0.000000	6.779051	-0.099592	NaN	0.000000	0.001655	0.001690	28.0825	0.048574	0.002041	23.7943	-133.699	-163.845	-0.106908	0.777204	-0.267350	-0.268641	-0.099592	23.7943	-0.264211	-1359.38	7.326298E-5	NaN
1156	1.000000	0.786481	7.37636e+06	-57789.1	1105.82	-29736.3	0.000000	0.000000	6.787037	-0.100628	NaN	0.000000	0.001613	0.001723	28.0827	0.016923	0.002021	8.373175	155.068	-167.843	-0.026104	0.785242	-0.259364	-0.260603	-0.100628	8.373175	-0.250351	-832.508	0.000121	NaN
1156	1.000000	0.794483	7.37636e+06	-57789.1	1105.82	-29736.3	0.000000	0.000000	6.795043	-0.017993	NaN	0.000000	0.001630	0.001725	28.0833	0.052275	0.001865	28.0246	19.6487	-162.199	-0.046780	0.793182	-0.251362	-0.252663	-0.017993	28.0246	-0.250880	-848.351	2.120972E-5	NaN
1156	1.000000	0.802507	7.37636e+06	-57789.1	1105.82	-29736.3	0.000000	0.000000	6.803066	-0.017195	NaN	0.000000	0.001651	0.001720	28.0824	0.067924	0.001948	34.8718	-124.342	-166.25	0.034462	0.801160	-0.243338	-0.244685	-0.017195	34.8718	-0.242968	-639.511	2.688766E-5	NaN
1156	1.000000	0.810508	7.37636e+06	-57789.1	1105.82	-29736.3	0.000000	0.000000	6.811068	-0.016310	NaN	0.000000	0.001617	0.001771	28.0825	0.017095	0.002087	8.189127	-36.8169	-166.998	-0.044205	0.809168	-0.235337	-0.236678	-0.016310	8.189127	-0.233843	-460.329	3.543107E-5	NaN
1156	1.000000	0.818514	7.37636e+06	-57789.1	1105.82	-29736.3	0.000000	0.000000	6.819073	-0.033372	NaN	0.000000	0.001634	0.001734	28.0826	0.090013	0.001945	46.2809	177.573	-160.88	-0.050332	0.817175	-0.227331	-0.228670	-0.033372	46.2809	-0.226790	-356.238	9.367828E-5	NaN
1156	1.000000	0.826520	7.37636e+06	-57789.1	1105.82	-29736.3	0.000000	0.000000	6.827077	-0.066446	NaN	0.000000	0.001695	0.001748	28.0825	0.088288	0.002107	41.9039	-4.328398	-163.996	-0.019508	0.825203	-0.219325	-0.220642	-0.066446	41.9039	-0.218136	-259.328	0.000256	NaN
1156	1.000000	0.834507	7.37636e+06	-57789.1	1105.82	-29736.3	0.000000	0.000000	6.835067	-0.005795	NaN	0.000000	0.001671	0.001684	28.0826	0.101656	0.002048	49.6432	-137.448	-163.434	0.001687	0.833192	-0.211338	-0.212653	-0.005795	49.6432	-0.211251	-200.935	2.883830E-5	NaN
1156	1.000000	0.842524	7.37636e+06	-57789.1	1105.82	-29736.3	0.000000	0.000000	6.843082	-0.049331	NaN	0.000000	0.001693	0.001676	28.0825	0.043511	0.002131	20.4194	-125.979	-167.075	-0.040335	0.841199	-0.203321	-0.204646	-0.049331	20.4194	-0.201509	-139.468	0.000354	NaN
1156	1.000000	0.850536	7.37636e+06	-57789.1	1105.82	-29736.3	0.000000	0.000000	6.851093	-0.051400	NaN	0.000000	0.001695	0.001701	28.0826	0.030169	0.002005	15.0468	16.5369	-165.62	-0.025723	0.849238	-0.195310	-0.196607	-0.051400	15.0468	-0.192748	-99.9587	0.000514	NaN
1156	1.000000	0.858518	7.37636e+06	-57789.1	1105.82	-29736.3	0.000000	0.000000	6.859073	-0.101460	NaN	0.000000	0.001701	0.001712	28.0824	0.039236	0.001942	20.205	112.843	-166.903	-0.068927	0.857196	-0.187328	-0.188649	-0.101460	20.205	-0.183561	-70.1219	0.001447	NaN
1156	1.000000	0.866559	7.37636e+06	-57789.1	1105.82	-29736.3	0.000000	0.000000	6.867117	-0.036486	NaN	0.000000	0.001711	0.001715	28.0823	0.027318	0.001856	14.7208	-84.7396	-166.692	-0.011525	0.865228	-0.179287	-0.180617	-0.036486	14.7208	-0.177428	-55.1561	0.000662	NaN
1156	1.000000	0.874516	7.37636e+06	-57789.1	1105.82	-29736.3	0.000000	0.000000	6.875073	-0.074070	NaN	0.000000	0.001695	0.001744	28.0827	0.044848	0.002100	21.3559	140.611	-169.797	-0.019953	0.873230	-0.171329	-0.172615	-0.074070	21.3559	-0.168728	-39.0381	0.001897	NaN
1156	1.000000	0.882548	7.37636e+06	-57789.1	1105.82	-29736.3	0.000000	0.000000	6.883109	0.012640	NaN	0.000000	0.001671	0.001710	28.0825	0.122919	0.002027	60.6274	-90.266	-166.839	0.004139	0.881192	-0.163297	-0.164653	0.012640	60.6274	-0.163454	-31.5573	-0.000401	NaN
1156	1.000000	0.890560	7.37636e+06	-57789.1	1105.82	-29736.3	0.000000	0.000000	6.891119	-0.032020	NaN	0.000000	0.001689	0.001698	28.0826	0.077989	0.001904	40.9666	129.479	-169.216	-0.002879	0.889219	-0.155285	-0.156626	-0.032020	40.9666	-0.154699	-22.0371	0.001453	NaN
1156	1.000000	0.898545	7.37636e+06	-57789.1	1105.82	-29736.3	0.000000	0.000000	6.899102	-0.068899	NaN	0.000000	0.001626	0.001746	28.0823	0.011896	0.002065	5.760087	37.0897	-168.522	-0.069526	0.897259	-0.147300	-0.148586	-0.068899	5.760087	-0.138329	-11.0028	0.006262	NaN
1156	1.000000	0.906534	7.37636e+06	-57789.1	1105.82	-29736.3	0.000000	0.000000	6.907090	-0.107398	NaN	0.000000	0.001641	0.001714	28.0812	0.039241	0.001934	20.2867	159.097	-167.278	-0.076737	0.905220	-0.139311	-0.140625	-0.107398	20.2867	-0.135340	-9.655627	0.011123	NaN
1156	1.000000	0.914590	7.37636e+06	-57789.1	1105.82	-29736.3	0.000000	0.000000	6.915150	-0.020492	NaN	0.000000	0.001622	0.001688	28.081	0.132988	0.001880	70.7478	-140.211	-168.469	0.004048	0.913223	-0.131255	-0.132622	-0.020492	70.7478	-0.131037	-7.982278	0.002567	NaN
1156	1.000000	0.922556	7.37636e+06	-57789.1	1105.82	-29736.3	0.000000	0.000000	6.923115	-0.037893	NaN	0.000000	0.001640	0.001698	28.0811	0.109971	0.002098	52.4071	-12.9416	-167.828	-0.112241	0.921278	-0.123289	-0.124567	-0.037893	52.4071	-0.122746	-5.485374	0.006908	NaN
1156	1.000000	0.930546	7.37636e+06	-57789.1	1105.82	-29736.3	0.000000	0.000000	6.931107	0.030692	NaN	0.000000	0.001625	0.001688	28.0814	0.074234	0.002158	34.396	169.81	-163.416	0.010717	0.929280	-0.115299	-0.116565	0.030692	34.396	-0.115969	-3.999741	-0.007674	NaN
1156	1.000000	0.938563	7.37636e+06	-57789.1	1105.82	-29736.3	0.000000	0.000000	6.939122	-0.034196	NaN	0.000000	0.001634	0.001708	28.0813	0.137323	0.002051	66.9393	161.764	-168.221	-0.118149	0.937251	-0.107282	-0.108594	-0.034196	66.9393	-0.106899	-2.582276	0.013243	NaN
1156	1.000000	0.946531	7.37636e+06	-57789.1	1105.82	-29736.3	0.000000	0.000000	6.947089	-0.045039	NaN	0.000000	0.001673	0.001730	28.0813	0.077468	0.002046	37.8662	-136.159	-167.999	-0.026776	0.945272	-0.099314	-0.100573	-0.045039	37.8662	-0.098422	-1.685160	0.026727	NaN
1156	1.000000	0.954582	7.37636e+06	-57789.1	1105.82	-29736.3	0.000000	0.000000	6.955139	-0.061023	NaN	0.000000	0.001643	0.001709	28.0812	0.118029	0.002071	56.9828	-25.8797	-165.6	-0.061062	0.953249	-0.091263	-0.092596	-0.061023	56.9828	-0.090460	-1.108146	0.055067	NaN
1156	1.000000	0.962585	7.37636e+06	-57789.1	1105.82	-29736.3	0.000000	0.000000	6.963144	-0.024443	NaN	0.000000	0.001613	0.001697	28.0811	0.049319	0.002007	24.5781	-130.562	-166.231	-0.058112	0.961316	-0.083260	-0.084529	-0.024443	24.5781	-0.082515	-0.714569	0.034207	NaN
1156	1.000000	0.970572	7.37636e+06	-57789.1	1105.82	-29736.3	0.000000	0.000000	6.971131	-0.016267	NaN	0.000000	0.001650	0.001696	28.0812	0.039464	0.002057	19.1894	156.529	-165.169	0.030928	0.969248	-0.075274	-0.076597	-0.016267	19.1894	-0.074638	-0.452002	0.035990	NaN
1156	1.000000	0.978579	7.37636e+06	-57789.1	1105.82	-29736.3	0.000000	0.000000	6.979138	-0.030490	NaN	0.000000	0.001663	0.001677	28.0813	0.130976	0.002015	65.0019	177.33	-166.374	-0.016568	0.977225	-0.067266	-0.068620	-0.030490	65.0019	-0.066914	-0.281402	0.108351	NaN
1156	1.000000	0.986583	7.37636e+06	-57789.1	1105.82	-29736.3	0.000000	0.000000	6.987140	-0.071456	NaN	0.000000	0.001668	0.001687	28.0816	0.084485	0.002020	41.8304	140.314	-169.544	-0.081488	0.985277	-0.059262	-0.060568	-0.071456	41.8304	-0.057981	-0.157473	0.453770	NaN
1156	1.000000	0.994583	7.37636e+06	-57789.1	1105.82	-29736.3	0.000000	0.000000	6.995143	-0.019144	NaN	0.000000	0.001664	0.001700	28.0812	0.147605	0.001927	76.5968	-82.2016	-165.648	0.029035	0.993230	-0.051262	-0.052615	-0.019144	76.5968	-0.051074	-0.098325	0.194699	NaN
1156	1.000000	1.002628	7.37636e+06	-57789.1	1105.82	-29736.3	0.000000	0.000000	7.003186	-0.061290	NaN	0.000000	0.001670	0.001734	28.0814	0.067873	0.002128	31.8884	-150.677	-166.739	-0.023019	1.001276	-0.043217	-0.044569	-0.061290	31.8884	-0.041775	-0.051217	1.196670	NaN
1156	1.000000	1.010607	7.37636e+06	-57789.1	1105.82	-29736.3	0.000000	0.000000	7.011167	-0.002591	NaN	0.000000	0.001663	0.001713	28.0808	0.059609	0.002042	29.1944	71.1519	-167.226	0.042623	1.009293	-0.035238	-0.036552	-0.002591	29.1944	-0.035172	-0.032400	0.079983	NaN
1156	1.000000	1.018605	7.37636e+06	-57789.1	1105.82	-29736.3	0.000000	0.000000	7.019164	-0.032132	NaN	0.000000	0.001631	0.001727	28.0814	0.104287	0.002039	51.1458	148.96	-166.525	-0.059645	1.017302	-0.027240	-0.028543	-0.032132	51.1458	-0.026769	-0.018786	1.710455	NaN
1156	1.000000	1.026605	7.37636e+06	-57789.1	1105.82	-29736.3	0.000000	0.000000	7.027163	-0.050114	NaN	0.000000	0.001657	0.001729	28.0813	0.050985	0.001991	25.6093	44.6653	-165.147	6.562853E-5	1.025293	-0.019240	-0.020552	-0.050114	25.6093	-0.017772	-0.011012	4.550924	NaN
1156	1.000000	1.034607	7.37636e+06	-57789.1	1105.82	-29736.3	0.000000	0.000000	7.035167	0.002386	NaN	0.000000	0.001645	0.001726	28.0811	0.057268	0.001956	29.2809	-97.8407	-164.062	-0.020295	1.033254	-0.011239	-0.012591	0.002386	29.2809	-0.011300	-0.007129	-0.334737	NaN
1156	1.000000	1.042615	7.37636e+06	-57789.1	1105.82	-29736.3	0.000000	0.000000	7.043188	0.314945	NaN	0.000000	0.001624	0.001741	28.083	0.536671	0.001935	277.342	12.3103	-166.481	0.117810	1.041309	-0.003230	-0.004536	0.314945	277.342	-0.004082	-0.002832	-111.211	NaN
1156	2.000000	1.049995	7.37636e+06	-57789.1	1105.82	-29736.3	0.000000	0.000000	7.050902	8.430470	NaN	0.000000	0.001603	0.001711	28.0824	8.727227	0.001739	5017.36	8.654761	-171.629	8.027000	1.049251	0.004150	0.003406	8.430470	5017.36	0.002890	0.002287	3685.57	95846.3
1156	2.000000	1.052107	7.37636e+06	-57789.1	1105.82	-29736.3	0.000000	0.000000	7.053170	12.2305	NaN	0.000000	0.001648	0.001693	28.0826	11.3878	0.001646	6918.79	5.688748	-174.943	11.2631	1.051852	0.006262	0.006007	12.2305	6918.79	0.004936	0.004075	3001.18	99021.1
1156	2.000000	1.054160	7.37636e+06	-57789.1	1105.82	-29736.3	0.000000	0.000000	7.055375	15.9166	NaN	0.000000	0.001609	0.001699	28.0825	13.8531	0.001654	8377.39	8.349068	-176.616	15.3116	1.053763	0.008315	0.007917	15.9166	8377.39	0.006890	0.005925	2686.21	99432
1156	2.000000	1.056120	7.37636e+06	-57789.1	1105.82	-29736.3	0.000000	0.000000	7.057494	19.7816	NaN	0.000000	0.001631	0.001709	28.0824	16.0156	0.001763	9083.42	7.240110	-176.993	19.9973	1.055828	0.010275	0.009983	19.7816	9083.42	0.008642	0.007711	2565.51	94510.4
1156	2.000000	1.058079	7.37636e+06	-57789.1	1105.82	-29736.3	0.000000	0.000000	7.059701	25.8186	NaN	0.000000	0.001627	0.001700	28.0827	18.6399	0.001739	10718	3.212322	-176.05	24.0929	1.057799	0.012234	0.011954	25.8186	10718	0.010427	0.009660	2672.76	99632
1156	2.000000	1.060082	7.37636e+06	-57789.1	1105.82	-29736.3	0.000000	0.000000	7.061883	30.1637	NaN	0.000000	0.001667	0.001720	28.0824	20.0309	0.001562	12826	3.581973	-178.824	29.2234	1.059774	0.014237	0.013928	30.1637	12826	0.012473	0.012061	2500.86	106700
1156	2.000000	1.062050	7.37636e+06	-57789.1	1105.82	-29736.3	0.000000	0.000000	7.064100	36.217	NaN	0.000000	0.001657	0.001685	28.0827	22.4759	0.001605	14004	4.369922	-178.563	35.0016	1.061761	0.016205	0.015916	36.217	14004	0.014265	0.014318	2529.51	106926
1156	2.000000	1.064112	7.37636e+06	-57789.1	1105.82	-29736.3	0.000000	0.000000	7.066375	41.3929	NaN	0.000000	0.001617	0.001718	28.0825	25.3133	0.001735	14589.4	5.237113	-179.244	41.6671	1.063742	0.018267	0.017897	41.3929	14589.4	0.016139	0.016835	2458.8	102733
1156	2.000000	1.066066	7.37636e+06	-57789.1	1105.82	-29736.3	0.000000	0.000000	7.068509	45.7775	NaN	0.000000	0.001664	0.001697	28.0825	27.3002	0.001834	14883.9	9.505667	177.135	45.8461	1.065749	0.020221	0.019904	45.7775	14883.9	0.017914	0.019370	2363.36	97707.7
1156	2.000000	1.067993	7.37636e+06	-57789.1	1105.82	-29736.3	0.000000	0.000000	7.070565	48.8979	NaN	0.000000	0.001652	0.001707	28.083	28.6826	0.001807	15876.3	5.327022	179.802	46.3199	1.067709	0.022148	0.021863	48.8979	15876.3	0.019838	0.022288	2193.93	97160.3
1156	2.000000	1.070075	7.37636e+06	-57789.1	1105.82	-29736.3	0.000000	0.000000	7.072841	53.6229	NaN	0.000000	0.001621	0.001669	28.0824	30.4542	0.001814	16792	8.637590	176.417	55.1056	1.069777	0.024230	0.023932	53.6229	16792	0.021835	0.025508	2102.21	96058.8
1156	2.000000	1.072026	7.37636e+06	-57789.1	1105.82	-29736.3	0.000000	0.000000	7.075035	59.5139	NaN	0.000000	0.001606	0.001685	28.0831	32.6123	0.001737	18775.1	2.967424	179.96	57.8173	1.071658	0.026181	0.025813	59.5139	18775.1	0.023803	0.028874	2061.13	100948
1156	2.000000	1.074031	7.37636e+06	-57789.1	1105.82	-29736.3	0.000000	0.000000	7.077417	68.6845	NaN	0.000000	0.001614	0.001700	28.0824	35.5514	0.001827	19461.2	5.864476	177.158	66.5542	1.073677	0.028186	0.027831	68.6845	19461.2	0.025539	0.032004	2146.14	99390
1156	2.000000	1.075979	7.37636e+06	-57789.1	1105.82	-29736.3	0.000000	0.000000	7.079678	76.2882	NaN	0.000000	0.001604	0.001677	28.0826	36.7109	0.001741	21087.6	2.323036	179.756	73.6045	1.075723	0.030134	0.029878	76.2882	21087.6	0.027420	0.035567	2144.94	102160
1156	2.000000	1.078017	7.37636e+06	-57789.1	1105.82	-29736.3	0.000000	0.000000	7.082091	85.3973	NaN	0.000000	0.001624	0.001753	28.0826	39.5374	0.001817	21758.7	4.864442	177.854	84.0299	1.077607	0.032172	0.031762	85.3973	21758.7	0.029229	0.039160	2180.72	100458
1156	2.000000	1.080025	7.37636e+06	-57789.1	1105.82	-29736.3	0.000000	0.000000	7.084248	89.0131	NaN	0.000000	0.001649	0.001735	28.0824	40.4957	0.001743	23227.4	3.327089	177.582	87.4686	1.079732	0.034180	0.033886	89.0131	23227.4	0.031306	0.043494	2046.56	101756
1156	2.000000	1.081995	7.37636e+06	-57789.1	1105.82	-29736.3	0.000000	0.000000	7.086498	95.8175	NaN	0.000000	0.001627	0.001720	28.0815	43.0064	0.001721	24992.6	2.987651	177.555	93.624	1.081736	0.036150	0.035890	95.8175	24992.6	0.033275	0.047805	2004.33	104435
1156	2.000000	1.084108	7.37636e+06	-57789.1	1105.82	-29736.3	0.000000	0.000000	7.088952	104.121	NaN	0.000000	0.001599	0.001722	28.0816	45.8774	0.001842	24904.3	5.540489	175.654	105.512	1.083717	0.038263	0.037872	104.121	24904.3	0.035127	0.052042	2000.71	99740.2
1156	2.000000	1.086014	7.37636e+06	-57789.1	1105.82	-29736.3	0.000000	0.000000	7.091246	113.541	NaN	0.000000	0.001601	0.001734	28.0815	47.9596	0.001889	25391.6	6.109444	174.739	113.58	1.085789	0.040169	0.039944	113.541	25391.6	0.036815	0.056056	2025.49	97983.1
1156	2.000000	1.088086	7.37637e+06	-57789.1	1105.82	-29736.3	0.000000	0.000000	7.093680	122.337	NaN	0.000000	0.001602	0.001728	28.0816	49.5217	0.001828	27089.6	4.836762	175.616	124.021	1.087717	0.042241	0.041872	122.337	27089.6	0.038854	0.061100	2002.23	100128
1156	2.000000	1.089993	7.37637e+06	-57789.1	1105.82	-29736.3	0.000000	0.000000	7.096057	133.769	NaN	0.000000	0.001607	0.001735	28.0813	51.1058	0.001838	27809	8.135215	171.849	133.277	1.089681	0.044148	0.043836	133.769	27809	0.040540	0.065431	2044.41	99326.6
1156	2.000000	1.092013	7.37637e+06	-57789.1	1105.82	-29736.3	0.000000	0.000000	7.098338	140.12	NaN	0.000000	0.001608	0.001721	28.0813	52.3857	0.001703	30757.1	4.433148	174.454	139.19	1.091737	0.046168	0.045892	140.12	30757.1	0.042751	0.071331	1964.38	105216
1156	2.000000	1.093999	7.37637e+06	-57789.1	1105.82	-29736.3	0.000000	0.000000	7.100689	148.972	NaN	0.000000	0.001574	0.001700	28.0813	54.475	0.001712	31828	3.868776	174.93	146.059	1.093647	0.048154	0.047802	148.972	31828	0.044644	0.076579	1945.33	105082
1156	2.000000	1.096007	7.37637e+06	-57789.1	1105.82	-29736.3	0.000000	0.000000	7.103213	161.524	NaN	0.000000	0.001588	0.001702	28.0816	56.3062	0.001860	30273.3	4.797840	174.226	160.122	1.095666	0.050162	0.049821	161.524	30273.3	0.046160	0.080915	1996.23	97234.4
1156	2.000000	1.098024	7.37637e+06	-57789.1	1105.82	-29736.3	0.000000	0.000000	7.105388	165.368	NaN	0.000000	0.001621	0.001710	28.0819	58.1811	0.001830	31796.3	3.684427	175.317	165.859	1.097775	0.052179	0.051930	165.368	31796.3	0.048278	0.087165	1897.18	98396.4
1156	2.000000	1.100007	7.37637e+06	-57789.1	1105.82	-29736.3	0.000000	0.000000	7.108008	180.846	NaN	0.000000	0.001619	0.001726	28.0814	58.1577	0.001668	34866	2.555901	175.689	179.711	1.099683	0.054162	0.053838	180.846	34866	0.050271	0.093254	1939.29	104314
1156	2.000000	1.101929	7.37637e+06	-57789.1	1105.82	-29736.3	0.000000	0.000000	7.110003	182.61	NaN	0.000000	0.001624	0.001723	28.0815	61.5802	0.001722	35753.6	4.885922	172.184	178.053	1.101720	0.056084	0.055875	182.61	35753.6	0.052253	0.099505	1835.19	103555
1156	2.000000	1.103937	7.37637e+06	-57789.1	1105.82	-29736.3	0.000000	0.000000	7.112527	195.164	NaN	0.000000	0.001609	0.001712	28.0815	63.1277	0.001751	36044	2.492259	175.223	189.876	1.103657	0.058092	0.057812	195.164	36044	0.054031	0.105277	1853.81	101494
1156	2.000000	1.105978	7.37637e+06	-57789.1	1105.82	-29736.3	0.000000	0.000000	7.115191	210.323	NaN	0.000000	0.001608	0.001707	28.0814	65.6032	0.001830	35851.3	5.278592	172.411	208.868	1.105700	0.060132	0.059855	210.323	35851.3	0.055732	0.110952	1895.63	98335.7
1156	2.000000	1.107992	7.37637e+06	-57789.1	1105.82	-29736.3	0.000000	0.000000	7.117704	222.413	NaN	0.000000	0.001573	0.001728	28.0815	67.5187	0.001841	36666.6	4.863057	172.96	222.189	1.107695	0.062147	0.061849	222.413	36666.6	0.057598	0.117335	1895.54	97798
1156	2.000000	1.109891	7.37637e+06	-57789.1	1105.82	-29736.3	0.000000	0.000000	7.120398	241.736	NaN	0.000000	0.001606	0.001669	28.0817	68.6107	0.001791	38302.3	6.894670	171.022	237.05	1.109598	0.064046	0.063753	241.736	38302.3	0.059313	0.123356	1959.66	99636.4
1156	2.000000	1.111949	7.37637e+06	-57789.1	1105.82	-29736.3	0.000000	0.000000	7.122780	249.606	NaN	0.000000	0.001623	0.001679	28.0818	70.0071	0.001657	42252.2	3.152105	173.463	246.66	1.111656	0.066104	0.065811	249.606	42252.2	0.061673	0.131877	1892.71	106301
1156	2.000000	1.114020	7.37637e+06	-57789.1	1105.82	-29736.3	0.000000	0.000000	7.125340	261.508	NaN	0.000000	0.001626	0.001694	28.0816	73.9753	0.001819	40677.2	9.115695	168.484	262.912	1.113648	0.068175	0.067803	261.508	40677.2	0.063353	0.138106	1893.53	100004
1156	2.000000	1.115989	7.37637e+06	-57789.1	1105.82	-29736.3	0.000000	0.000000	7.127965	277.455	NaN	0.000000	0.001627	0.001706	28.0826	74.7325	0.001905	39220.6	2.791827	175.306	277.751	1.115625	0.070144	0.069780	277.455	39220.6	0.064838	0.143726	1930.45	94519.2
1156	2.000000	1.117978	7.37637e+06	-57789.1	1105.82	-29736.3	0.000000	0.000000	7.130560	292.195	NaN	0.000000	0.001590	0.001673	28.0828	76.3072	0.001821	41914.7	1.292011	176.201	290.439	1.117685	0.072133	0.071840	292.195	41914.7	0.066904	0.151723	1925.85	98313.7
1156	2.000000	1.119962	7.37637e+06	-57789.1	1105.82	-29736.3	0.000000	0.000000	7.132846	299.521	NaN	0.000000	0.001580	0.001723	28.0828	76.98	0.001648	46698.8	1.138866	174.925	298.248	1.119725	0.074117	0.073880	299.521	46698.8	0.069307	0.161280	1857.16	106240
1156	2.000000	1.121906	7.37637e+06	-57789.1	1105.82	-29736.3	0.000000	0.000000	7.135624	319.773	NaN	0.000000	0.001598	0.001751	28.0829	80.6702	0.001753	46015.4	5.230359	171.009	315.548	1.121615	0.076061	0.075770	319.773	46015.4	0.070849	0.167560	1908.41	102705
1156	2.000000	1.124020	7.37637e+06	-57789.1	1105.82	-29736.3	0.000000	0.000000	7.138208	331.202	NaN	0.000000	0.001614	0.001738	28.0831	82.1675	0.001658	49544.5	7.356199	169.264	328.977	1.123530	0.078175	0.077685	331.202	49544.5	0.073161	0.177185	1869.24	107536
1156	2.000000	1.125892	7.37637e+06	-57789.1	1105.82	-29736.3	0.000000	0.000000	7.140929	351.854	NaN	0.000000	0.001635	0.001736	28.0827	84.0823	0.001750	48049.1	4.379759	171.401	348.134	1.125610	0.080047	0.079765	351.854	48049.1	0.074555	0.183108	1921.57	102590
1156	2.000000	1.127999	7.37637e+06	-57789.1	1105.82	-29736.3	0.000000	0.000000	7.143694	367.836	NaN	0.000000	0.001622	0.001723	28.0828	87.0231	0.001785	48761.4	3.258914	172.913	368.037	1.127610	0.082154	0.081765	367.836	48761.4	0.076496	0.191511	1920.7	101801
1156	2.000000	1.129988	7.37637e+06	-57789.1	1105.82	-29736.3	0.000000	0.000000	7.146376	384.683	NaN	0.000000	0.001649	0.001738	28.0827	87.5616	0.001778	49247	3.652136	172.288	386.779	1.129772	0.084143	0.083927	384.683	49247	0.078284	0.199411	1929.1	100758
1156	2.000000	1.131887	7.37637e+06	-57789.1	1105.82	-29736.3	0.000000	0.000000	7.149458	413.436	NaN	0.000000	0.001621	0.001711	28.0829	90.3743	0.001772	50987.8	5.216487	170.575	408.75	1.131549	0.086041	0.085704	413.436	50987.8	0.079960	0.206947	1997.79	102402
1156	2.000000	1.134001	7.37637e+06	-57789.1	1105.82	-29736.3	0.000000	0.000000	7.151928	422.067	NaN	0.000000	0.001641	0.001731	28.083	93.2113	0.001804	51681	4.907313	170.78	421.921	1.133704	0.088156	0.087859	422.067	51681	0.082031	0.216442	1950.02	101492
1156	2.000000	1.135877	7.37637e+06	-57789.1	1105.82	-29736.3	0.000000	0.000000	7.154354	435.455	NaN	0.000000	0.001623	0.001746	28.0825	94.3847	0.001780	53035.1	5.275280	169.961	431.227	1.135763	0.090032	0.089918	435.455	53035.1	0.083874	0.225058	1934.85	102138
1156	2.000000	1.137849	7.37637e+06	-57789.1	1105.82	-29736.3	0.000000	0.000000	7.157332	459.9	NaN	0.000000	0.001613	0.001719	28.0826	97.1263	0.001761	55142.9	3.937947	171.151	455.172	1.137535	0.092004	0.091690	459.9	55142.9	0.085749	0.233988	1965.48	104152
1156	2.000000	1.139902	7.37637e+06	-57789.1	1105.82	-29736.3	0.000000	0.000000	7.160013	475.143	NaN	0.000000	0.001616	0.001769	28.0826	98.416	0.001732	56828.7	6.911452	168.083	473.527	1.139685	0.094057	0.093839	475.143	56828.7	0.087787	0.243874	1948.32	105138
1156	2.000000	1.141847	7.37637e+06	-57789.1	1105.82	-29736.3	0.000000	0.000000	7.162703	493.26	NaN	0.000000	0.001620	0.001703	28.0829	101.67	0.001800	56483	7.484343	167.409	487.364	1.141540	0.096002	0.095694	493.26	56483	0.089452	0.252098	1956.62	102779
1156	2.000000	1.143896	7.37637e+06	-57789.1	1105.82	-29736.3	0.000000	0.000000	7.165353	507.888	NaN	0.000000	0.001663	0.001719	28.0825	104.091	0.001942	53605.2	6.903932	168.596	504.62	1.143468	0.098050	0.097623	507.888	53605.2	0.090944	0.259573	1956.63	96128.2
1156	2.000000	1.145860	7.37637e+06	-57789.1	1105.82	-29736.3	0.000000	0.000000	7.168507	536.8	NaN	0.000000	0.001663	0.001763	28.0825	103.795	0.001875	55355.5	3.303526	172.484	532.675	1.145565	0.100015	0.099720	536.8	55355.5	0.092742	0.268713	1997.67	97564
1156	2.000000	1.147855	7.37637e+06	-57789.1	1105.82	-29736.3	0.000000	0.000000	7.171049	550.096	NaN	0.000000	0.001675	0.001726	28.0828	105.61	0.001780	59339.3	3.941491	171.124	544.778	1.147488	0.102010	0.101643	550.096	59339.3	0.095057	0.280703	1959.71	102327
1156	2.000000	1.148397	7.37637e+06	-57789.1	1105.82	-29736.3	0.000000	0.000000	7.171780	554.681	NaN	0.000000	0.001689	0.001754	28.0824	106.691	0.001885	56600	4.308866	-8.992699	551.21	1.148083	0.102552	0.102238	554.681	56600	0.095202	0.281459	1970.73	97472.3