File: remote_trans/data/nanoindenter/0828-1/data/Data_2025-08-06,11h17m57s/2025-07-22_16-23-58_1_467.txt
2025-07-22, 16:23:58, 1
Index	Phase	Displacement	Time	Pos X	Pos Y	Pos Z	Rot A	Rot B	Piezo Z	Force A	Force B	Gripper	Voltage A	Voltage B	Temperature	Amplitude force	Amplitude pos	Stiffness	Phase shift	Phase excitation	Force A raw	Displacement raw	HMax	HMax raw	Real Force	Real Stiffness	Contact Depth	Area	Hardness	Reduced Mod.
[#]	[#]	[um]	[s]	[um]	[um]	[um]	[m°]	[m°]	[um]	[uN]	[uN]	[V]	[V]	[V]	[°C]	[uN]	[um]	[N/m]	[°]	[°]	[uN]	[um]	[um]	[um]	[uN]	[N/m]	[um]	[um^2]	[MPa]	[MPa]
467	1.000000	0.002641	7.36962e+06	-53739.1	1005.82	-29745.5	0.000000	0.000000	6.002790	0.050613	NaN	0.000000	0.001603	0.001736	28.0829	0.080992	0.000982	82.4792	27.5811	-178.839	0.065667	0.001348	-1.110850	-1.112142	0.050613	82.4792	-1.111310	-7.110051E+14	-7.118515E-17	NaN
467	1.000000	0.012674	7.36962e+06	-53739.1	1005.82	-29745.5	0.000000	0.000000	6.012823	0.044133	NaN	0.000000	0.001570	0.001724	28.0824	0.077624	0.001198	64.7897	-172.53	20.0128	0.031024	0.011295	-1.100817	-1.102196	0.044133	64.7897	-1.101328	-5.222685E+14	-8.450230E-17	NaN
467	1.000000	0.022591	7.36962e+06	-53739.1	1005.82	-29745.5	0.000000	0.000000	6.022738	-0.005124	NaN	0.000000	0.001581	0.001740	28.081	0.050276	0.001710	29.4061	-139.543	-163.715	0.034940	0.021285	-1.090899	-1.092205	-0.005124	29.4061	-1.090769	-3.768198E+14	1.359792E-17	NaN
467	1.000000	0.032608	7.36962e+06	-53739.1	1005.82	-29745.5	0.000000	0.000000	6.032755	-0.010650	NaN	0.000000	0.001569	0.001736	28.0811	0.058961	0.002041	28.8875	105.729	12.9299	0.069410	0.031231	-1.080883	-1.082259	-0.010650	28.8875	-1.080607	-2.752107E+14	3.869917E-17	NaN
467	1.000000	0.042597	7.36962e+06	-53739.1	1005.82	-29745.5	0.000000	0.000000	6.042744	0.007422	NaN	0.000000	0.001594	0.001688	28.0814	0.006198	0.001933	3.206933	-8.066947	-164.523	0.008429	0.041307	-1.070894	-1.072184	0.007422	3.206933	-1.072630	-2.150399E+14	-3.451266E-17	NaN
467	1.000000	0.052623	7.36962e+06	-53739.1	1005.82	-29745.5	0.000000	0.000000	6.052770	-0.003109	NaN	0.000000	0.001590	0.001689	28.081	0.050746	0.002021	25.1085	-57.6183	14.1574	-0.018088	0.051234	-1.060868	-1.062257	-0.003109	25.1085	-1.060775	-1.490181E+14	2.086302E-17	NaN
467	1.000000	0.062585	7.36962e+06	-53739.1	1005.82	-29745.5	0.000000	0.000000	6.062731	-0.032497	NaN	0.000000	0.001612	0.001689	28.0812	0.016261	0.001973	8.243736	-116.052	-162.351	-0.106478	0.061283	-1.050906	-1.052208	-0.032497	8.243736	-1.047949	-1.001947E+14	3.243350E-16	NaN
467	1.000000	0.072604	7.36962e+06	-53739.1	1005.82	-29745.5	0.000000	0.000000	6.072751	-0.012454	NaN	0.000000	0.001614	0.001689	28.081	0.072921	0.001900	38.3801	98.484	13.1081	0.064599	0.071270	-1.040887	-1.042220	-0.012454	38.3801	-1.040643	-7.991272E+13	1.558423E-16	NaN
467	1.000000	0.082636	7.36962e+06	-53739.1	1005.82	-29745.5	0.000000	0.000000	6.082784	0.011501	NaN	0.000000	0.001615	0.001692	28.0816	0.112751	0.002052	54.938	-31.7604	-167.476	-0.053243	0.081306	-1.030855	-1.032185	0.011501	54.938	-1.031012	-5.930502E+13	-1.939333E-16	NaN
467	1.000000	0.092602	7.36962e+06	-53739.1	1005.82	-29745.5	0.000000	0.000000	6.092751	0.032611	NaN	0.000000	0.001607	0.001700	28.081	0.093330	0.002168	43.0407	178.236	15.4332	0.036012	0.091221	-1.020888	-1.022270	0.032611	43.0407	-1.021456	-4.411114E+13	-7.392843E-16	NaN
467	1.000000	0.102628	7.36962e+06	-53739.1	1005.82	-29745.5	0.000000	0.000000	6.102775	-0.026337	NaN	0.000000	0.001602	0.001670	28.0814	0.047910	0.002039	23.5024	98.2438	-163.377	-0.108480	0.101303	-1.010862	-1.012188	-0.026337	23.5024	-1.010022	-3.095117E+13	8.509126E-16	NaN
467	1.000000	0.112642	7.36962e+06	-53739.1	1005.82	-29745.5	0.000000	0.000000	6.112790	0.011590	NaN	0.000000	0.001618	0.001721	28.0815	0.192051	0.002180	88.1002	164.064	16.6509	0.076130	0.111212	-1.000848	-1.002278	0.011590	88.1002	-1.000947	-2.336251E+13	-4.961046E-16	NaN
467	1.000000	0.122596	7.36962e+06	-53739.1	1005.82	-29745.5	0.000000	0.000000	6.122744	0.014041	NaN	0.000000	0.001599	0.001706	28.0817	0.083091	0.002016	41.2101	162.653	-164.733	-0.010142	0.121349	-0.990895	-0.992142	0.014041	41.2101	-0.991150	-1.724264E+13	-8.143229E-16	NaN
467	1.000000	0.132642	7.36962e+06	-53739.1	1005.82	-29745.5	0.000000	0.000000	6.132790	0.017730	NaN	0.000000	0.001544	0.001678	28.0813	0.081032	0.001971	41.1217	9.827823	19.8282	-0.008960	0.131305	-0.980849	-0.982185	0.017730	41.1217	-0.981172	-1.265335E+13	-1.401200E-15	NaN
467	1.000000	0.142635	7.36962e+06	-53739.1	1005.82	-29745.5	0.000000	0.000000	6.142780	-0.067126	NaN	0.000000	0.001573	0.001686	28.0816	0.141688	0.001990	71.2009	-13.2021	-163.971	-0.018680	0.141253	-0.970855	-0.972238	-0.067126	71.2009	-0.970148	-8.987957E+12	7.468440E-15	NaN
467	1.000000	0.152646	7.36962e+06	-53739.1	1005.82	-29745.5	0.000000	0.000000	6.152794	0.025117	NaN	0.000000	0.001608	0.001664	28.0826	0.070367	0.001801	39.0703	5.550378	15.5542	-0.029825	0.151289	-0.960845	-0.962202	0.025117	39.0703	-0.961327	-6.835282E+12	-3.674613E-15	NaN
467	1.000000	0.162636	7.36962e+06	-53739.1	1005.82	-29745.5	0.000000	0.000000	6.162783	-0.006798	NaN	0.000000	0.001512	0.001692	28.0826	0.059001	0.001955	30.1727	-159.047	-164.535	0.027467	0.161308	-0.950855	-0.952183	-0.006798	30.1727	-0.950686	-4.912264E+12	1.383896E-15	NaN
467	1.000000	0.172649	7.36963e+06	-53739.1	1005.82	-29745.5	0.000000	0.000000	6.172794	-0.048988	NaN	0.000000	0.001546	0.001726	28.0824	0.070555	0.002029	34.7776	34.0156	14.9645	-0.032346	0.171292	-0.940842	-0.942199	-0.048988	34.7776	-0.939785	-3.501403E+12	1.399083E-14	NaN
467	1.000000	0.182633	7.36963e+06	-53739.1	1005.82	-29745.5	0.000000	0.000000	6.182778	-0.053495	NaN	0.000000	0.001551	0.001720	28.0825	0.045199	0.002218	20.3774	53.7811	-168.139	-0.081936	0.181382	-0.930858	-0.932108	-0.053495	20.3774	-0.928889	-2.495777E+12	2.143427E-14	NaN
467	1.000000	0.192667	7.36963e+06	-53739.1	1005.82	-29745.5	0.000000	0.000000	6.192813	-0.023093	NaN	0.000000	0.001466	0.001726	28.0826	0.023486	0.002044	11.4892	55.6524	15.6187	0.027359	0.191319	-0.920824	-0.922171	-0.023093	11.4892	-0.919316	-1.853421E+12	1.245972E-14	NaN
467	1.000000	0.202673	7.36963e+06	-53739.1	1005.82	-29745.5	0.000000	0.000000	6.202820	-0.016123	NaN	0.000000	0.001513	0.001692	28.0824	0.061543	0.001886	32.6313	23.4374	-163.879	-0.002169	0.201384	-0.910818	-0.912106	-0.016123	32.6313	-0.910447	-1.406707E+12	1.146152E-14	NaN
467	1.000000	0.212681	7.36963e+06	-53739.1	1005.82	-29745.5	0.000000	0.000000	6.212827	-0.025944	NaN	0.000000	0.001534	0.001717	28.0823	0.088204	0.002093	42.1431	-116.189	12.9616	-0.032321	0.211315	-0.900810	-0.902176	-0.025944	42.1431	-0.900348	-1.027468E+12	2.525002E-14	NaN
467	1.000000	0.222650	7.36963e+06	-53739.1	1005.82	-29745.5	0.000000	0.000000	6.222794	-0.063524	NaN	0.000000	0.001540	0.001711	28.0822	0.148818	0.002058	72.3172	59.2037	-166.045	-0.067276	0.221400	-0.890841	-0.892091	-0.063524	72.3172	-0.890182	-7.488208E+11	8.483226E-14	NaN
467	1.000000	0.232695	7.36963e+06	-53739.1	1005.82	-29745.5	0.000000	0.000000	6.232839	-0.066930	NaN	0.000000	0.001516	0.001701	28.0822	0.099176	0.001974	50.2379	-35.2747	19.3508	-0.083420	0.231309	-0.880796	-0.882181	-0.066930	50.2379	-0.879797	-5.419523E+11	1.234982E-13	NaN
467	1.000000	0.242682	7.36963e+06	-53739.1	1005.82	-29745.5	0.000000	0.000000	6.242824	-0.130825	NaN	0.000000	0.001541	0.001758	28.0822	0.055008	0.001932	28.4776	31.586	-162.847	-0.099383	0.241390	-0.870809	-0.872101	-0.130825	28.4776	-0.867364	-3.679367E+11	3.555648E-13	NaN
467	1.000000	0.252711	7.36963e+06	-53739.1	1005.82	-29745.5	0.000000	0.000000	6.252858	-0.012983	NaN	0.000000	0.001553	0.001718	28.0822	0.022781	0.001794	12.6993	-26.4103	14.4987	-0.029492	0.251368	-0.860780	-0.862123	-0.012983	12.6993	-0.860013	-2.926178E+11	4.436920E-14	NaN
467	1.000000	0.262683	7.36963e+06	-53739.1	1005.82	-29745.5	0.000000	0.000000	6.262830	-0.004727	NaN	0.000000	0.001518	0.001741	28.0825	0.066355	0.001937	34.2554	76.9057	-164.88	0.026950	0.261389	-0.850808	-0.852102	-0.004727	34.2554	-0.850704	-2.189127E+11	2.159082E-14	NaN
467	1.000000	0.272715	7.36963e+06	-53739.1	1005.82	-29745.5	0.000000	0.000000	6.272860	-0.066305	NaN	0.000000	0.001536	0.001739	28.0826	0.028262	0.001899	14.8792	-53.8831	12.2298	0.023472	0.271305	-0.840775	-0.842186	-0.066305	14.8792	-0.837433	-1.447161E+11	4.581698E-13	NaN
467	1.000000	0.282701	7.36963e+06	-53739.1	1005.82	-29745.5	0.000000	0.000000	6.282847	-0.049412	NaN	0.000000	0.001525	0.001733	28.0826	0.124544	0.002032	61.2941	166.745	-165.62	-0.066187	0.281365	-0.830789	-0.832125	-0.049412	61.2941	-0.830185	-1.154216E+11	4.281004E-13	NaN
467	1.000000	0.292692	7.36963e+06	-53739.1	1005.82	-29745.5	0.000000	0.000000	6.292841	0.024065	NaN	0.000000	0.001543	0.001716	28.0817	0.078699	0.002011	39.1245	-26.2665	14.3238	-0.033844	0.291290	-0.820799	-0.822201	0.024065	39.1245	-0.821260	-8.735652E+10	-2.754780E-13	NaN
467	1.000000	0.302723	7.36963e+06	-53739.1	1005.82	-29745.5	0.000000	0.000000	6.302869	-0.028667	NaN	0.000000	0.001489	0.001689	28.0814	0.086281	0.002022	42.6724	-132.184	-162.844	-0.000807	0.301393	-0.810768	-0.812097	-0.028667	42.6724	-0.810264	-6.196530E+10	4.626283E-13	NaN
467	1.000000	0.312713	7.36963e+06	-53739.1	1005.82	-29745.5	0.000000	0.000000	6.312858	-0.053979	NaN	0.000000	0.001543	0.001733	28.0815	0.032415	0.002118	15.3061	-150.404	14.9787	-0.007543	0.311363	-0.800778	-0.802128	-0.053979	15.3061	-0.798133	-4.241430E+10	1.272662E-12	NaN
467	1.000000	0.322745	7.36963e+06	-53739.1	1005.82	-29745.5	0.000000	0.000000	6.322892	-0.017648	NaN	0.000000	0.001512	0.001736	28.0816	0.057355	0.002054	27.9185	-115.597	-163.149	-0.001565	0.321459	-0.790746	-0.792032	-0.017648	27.9185	-0.790272	-3.317220E+10	5.320056E-13	NaN
467	1.000000	0.332725	7.36963e+06	-53739.1	1005.82	-29745.5	0.000000	0.000000	6.332872	-0.022850	NaN	0.000000	0.001542	0.001713	28.0818	0.065298	0.001971	33.1212	-38.0075	15.7926	-0.024885	0.331400	-0.780765	-0.782091	-0.022850	33.1212	-0.780248	-2.424382E+10	9.425088E-13	NaN
467	1.000000	0.342738	7.36963e+06	-53739.1	1005.82	-29745.5	0.000000	0.000000	6.342886	0.027561	NaN	0.000000	0.001486	0.001742	28.0811	0.034203	0.001923	17.7909	-145.156	-163.101	-0.042036	0.341398	-0.770753	-0.772092	0.027561	17.7909	-0.771915	-1.867848E+10	-1.475567E-12	NaN
467	1.000000	0.352740	7.36963e+06	-53739.1	1005.82	-29745.5	0.000000	0.000000	6.352888	0.030472	NaN	0.000000	0.001540	0.001732	28.0813	0.038957	0.001821	21.3973	116.503	14.4163	0.105393	0.351390	-0.760751	-0.762101	0.030472	21.3973	-0.761819	-1.361595E+10	-2.237943E-12	NaN
467	1.000000	0.362716	7.36963e+06	-53739.1	1005.82	-29745.5	0.000000	0.000000	6.362863	-0.002327	NaN	0.000000	0.001527	0.001723	28.0812	0.090852	0.001897	47.9027	141.152	-166.049	0.027969	0.361413	-0.750775	-0.752078	-0.002327	47.9027	-0.750739	-9.622209E+9	2.418461E-13	NaN
467	1.000000	0.372726	7.36963e+06	-53739.1	1005.82	-29745.5	0.000000	0.000000	6.372873	0.004929	NaN	0.000000	0.001528	0.001697	28.0815	0.111868	0.001870	59.8197	71.111	14.6293	0.013039	0.371313	-0.740765	-0.742178	0.004929	59.8197	-0.740827	-7.052118E+9	-6.988941E-13	NaN
467	1.000000	0.382745	7.36963e+06	-53739.1	1005.82	-29745.5	0.000000	0.000000	6.382890	-0.052073	NaN	0.000000	0.001491	0.001720	28.0811	0.037003	0.001951	18.9618	8.716146	-164.181	-0.005688	0.381410	-0.730746	-0.732080	-0.052073	18.9618	-0.728686	-4.818413E+9	1.080699E-11	NaN
467	1.000000	0.392747	7.36963e+06	-53739.1	1005.82	-29745.5	0.000000	0.000000	6.392893	-0.041956	NaN	0.000000	0.001490	0.001693	28.0811	0.043673	0.002039	21.4167	-141.463	13.4721	-0.007171	0.391388	-0.720744	-0.722103	-0.041956	21.4167	-0.719275	-3.585747E+9	1.170070E-11	NaN
467	1.000000	0.402766	7.36963e+06	-53739.1	1005.82	-29745.5	0.000000	0.000000	6.402915	0.037018	NaN	0.000000	0.001517	0.001679	28.081	0.098199	0.002056	47.7666	32.6115	-162.987	-0.026192	0.401448	-0.710725	-0.712043	0.037018	47.7666	-0.711306	-2.791693E+9	-1.326018E-11	NaN
467	1.000000	0.412760	7.36963e+06	-53739.1	1005.82	-29745.5	0.000000	0.000000	6.412904	-0.076804	NaN	0.000000	0.001520	0.001707	28.0813	0.021394	0.002092	10.2246	-82.0873	15.6376	-0.112078	0.411447	-0.700730	-0.702044	-0.076804	10.2246	-0.695097	-1.677097E+9	4.579572E-11	NaN
467	1.000000	0.422758	7.36963e+06	-53739.1	1005.82	-29745.5	0.000000	0.000000	6.422905	-0.000767	NaN	0.000000	0.001543	0.001728	28.0816	0.035071	0.002103	16.678	-58.4987	-165.533	-0.012752	0.421429	-0.690733	-0.692062	-0.000767	16.678	-0.690698	-1.460368E+9	5.254590E-13	NaN
467	1.000000	0.432768	7.36963e+06	-53739.1	1005.82	-29745.5	0.000000	0.000000	6.432913	-0.043034	NaN	0.000000	0.001506	0.001722	28.0825	0.031832	0.002093	15.2108	116.146	15.3612	0.002547	0.431431	-0.680723	-0.682060	-0.043034	15.2108	-0.678601	-9.978709E+8	4.312550E-11	NaN
467	1.000000	0.442790	7.36963e+06	-53739.1	1005.82	-29745.5	0.000000	0.000000	6.442936	-0.035230	NaN	0.000000	0.001519	0.001724	28.0826	0.018062	0.002028	8.907043	78.2126	-164.462	-0.049463	0.441458	-0.670700	-0.672033	-0.035230	8.907043	-0.667734	-7.085520E+8	4.972066E-11	NaN
467	1.000000	0.452766	7.36963e+06	-53739.1	1005.82	-29745.5	0.000000	0.000000	6.452912	-0.021399	NaN	0.000000	0.001512	0.001709	28.0825	0.104097	0.001951	53.3687	-33.0268	15.3332	0.033313	0.451383	-0.660725	-0.662107	-0.021399	53.3687	-0.660424	-5.627071E+8	3.802903E-11	NaN
467	1.000000	0.462797	7.36963e+06	-53739.1	1005.82	-29745.5	0.000000	0.000000	6.462946	0.044784	NaN	0.000000	0.001522	0.001743	28.0825	0.190197	0.002031	93.6659	145.897	-163.317	0.020677	0.461434	-0.650694	-0.652057	0.044784	93.6659	-0.651052	-4.186620E+8	-1.069696E-10	NaN
467	1.000000	0.472763	7.36963e+06	-53739.1	1005.82	-29745.5	0.000000	0.000000	6.472912	0.027755	NaN	0.000000	0.001504	0.001753	28.0827	0.109165	0.002004	54.4661	160.735	18.7739	0.046289	0.471431	-0.640727	-0.642060	0.027755	54.4661	-0.641110	-3.058527E+8	-9.074712E-11	NaN
467	1.000000	0.482796	7.36963e+06	-53739.1	1005.82	-29745.5	0.000000	0.000000	6.482941	-0.052917	NaN	0.000000	0.001497	0.001723	28.0826	0.111833	0.001942	57.5881	128.312	-163.178	-0.003626	0.481456	-0.630695	-0.632035	-0.052917	57.5881	-0.630006	-2.153275E+8	2.457507E-10	NaN
467	1.000000	0.492783	7.36963e+06	-53739.1	1005.82	-29745.5	0.000000	0.000000	6.492929	-0.034082	NaN	0.000000	0.001540	0.001738	28.0827	0.110146	0.002017	54.5974	96.9736	16.5846	-0.040708	0.491426	-0.620708	-0.622065	-0.034082	54.5974	-0.620239	-1.580972E+8	2.155770E-10	NaN
467	1.000000	0.502794	7.36963e+06	-53739.1	1005.82	-29745.5	0.000000	0.000000	6.502941	-0.016678	NaN	0.000000	0.001565	0.001713	28.0826	0.032122	0.002051	15.6582	-65.9471	-163.976	0.034674	0.501459	-0.610697	-0.612032	-0.016678	15.6582	-0.609898	-1.139486E+8	1.463681E-10	NaN
467	1.000000	0.512785	7.36963e+06	-53739.1	1005.82	-29745.5	0.000000	0.000000	6.512933	0.024633	NaN	0.000000	0.001556	0.001723	28.083	0.026936	0.001947	13.8367	179.206	15.3905	-0.043400	0.511456	-0.600706	-0.602034	0.024633	13.8367	-0.602041	-8.883230E+7	-2.772932E-10	NaN
467	1.000000	0.522816	7.36963e+06	-53739.1	1005.82	-29745.5	0.000000	0.000000	6.522963	0.002273	NaN	0.000000	0.001569	0.001725	28.0827	0.050362	0.002067	24.3645	5.447083	-160.857	0.038203	0.521492	-0.590675	-0.591999	0.002273	24.3645	-0.590745	-6.207760E+7	-3.661029E-11	NaN
467	1.000000	0.532813	7.36963e+06	-53739.1	1005.82	-29745.5	0.000000	0.000000	6.532958	-0.062528	NaN	0.000000	0.001521	0.001715	28.0826	0.077522	0.002059	37.6462	74.7492	12.7368	-0.039505	0.531475	-0.580677	-0.582015	-0.062528	37.6462	-0.579432	-4.333940E+7	1.442756E-9	NaN
467	1.000000	0.542807	7.36963e+06	-53739.1	1005.82	-29745.5	0.000000	0.000000	6.542956	0.036924	NaN	0.000000	0.001540	0.001698	28.0828	0.107028	0.002077	51.5177	-41.1328	-161.169	-0.005328	0.541483	-0.570684	-0.572007	0.036924	51.5177	-0.571222	-3.338173E+7	-1.106111E-9	NaN
467	1.000000	0.552831	7.36963e+06	-53739.1	1005.82	-29745.5	0.000000	0.000000	6.552980	0.057982	NaN	0.000000	0.001573	0.001696	28.0828	0.072071	0.001947	37.0189	125.717	16.1205	-0.028827	0.551449	-0.560660	-0.562042	0.057982	37.0189	-0.561835	-2.476031E+7	-2.341746E-9	NaN
467	1.000000	0.562824	7.36963e+06	-53739.1	1005.82	-29745.5	0.000000	0.000000	6.562970	-0.032161	NaN	0.000000	0.001593	0.001724	28.0814	0.049169	0.002000	24.5801	-65.9893	-166.929	-0.056727	0.561526	-0.550667	-0.551964	-0.032161	24.5801	-0.549685	-1.681111E+7	1.913065E-9	NaN
467	1.000000	0.572810	7.36963e+06	-53739.1	1005.82	-29745.5	0.000000	0.000000	6.572958	0.012862	NaN	0.000000	0.001538	0.001709	28.0813	0.095011	0.001973	48.1581	-150.618	16.0704	0.014691	0.571510	-0.540681	-0.541981	0.012862	48.1581	-0.540881	-1.269329E+7	-1.013312E-9	NaN
467	1.000000	0.582796	7.36963e+06	-53739.1	1005.82	-29745.5	0.000000	0.000000	6.582944	-0.003169	NaN	0.000000	0.001536	0.001731	28.0816	0.027442	0.002065	13.291	106.157	-164.669	0.022731	0.581549	-0.530694	-0.531942	-0.003169	13.291	-0.530515	-9.11451e+06	3.477055E-10	NaN
467	1.000000	0.592817	7.36963e+06	-53739.1	1005.82	-29745.5	0.000000	0.000000	6.592964	-0.014721	NaN	0.000000	0.001513	0.001731	28.0813	0.105873	0.001956	54.126	-136.224	14.2892	0.020619	0.591499	-0.520673	-0.521992	-0.014721	54.126	-0.520469	-6.60883e+06	2.227461E-9	NaN
467	1.000000	0.602861	7.36963e+06	-53739.1	1005.82	-29745.5	0.000000	0.000000	6.603005	-0.078352	NaN	0.000000	0.001527	0.001754	28.0813	0.130444	0.002021	64.5587	-64.1637	-164.389	-0.077971	0.601567	-0.510630	-0.511924	-0.078352	64.5587	-0.509720	-4.68287e+06	1.673167E-8	NaN
467	1.000000	0.612812	7.36963e+06	-53739.1	1005.82	-29745.5	0.000000	0.000000	6.612959	-0.011068	NaN	0.000000	0.001522	0.001762	28.0813	0.096693	0.001969	49.1112	123.131	14.6299	0.019349	0.611479	-0.500679	-0.502011	-0.011068	49.1112	-0.500510	-3.48442e+06	3.176449E-9	NaN
467	1.000000	0.622833	7.36963e+06	-53739.1	1005.82	-29745.5	0.000000	0.000000	6.622978	-0.052640	NaN	0.000000	0.001559	0.001751	28.0816	0.149064	0.002043	72.965	-14.9837	-167.586	-0.085035	0.621574	-0.490658	-0.491917	-0.052640	72.965	-0.490117	-2.49472e+06	2.110066E-8	NaN
467	1.000000	0.632867	7.36963e+06	-53739.1	1005.82	-29745.5	0.000000	0.000000	6.633014	-0.012244	NaN	0.000000	0.001545	0.001719	28.0815	0.006509	0.001977	3.292354	-55.1579	14.5474	-0.033522	0.631493	-0.480624	-0.481998	-0.012244	3.292354	-0.477835	-1.67961e+06	7.289997E-9	NaN
467	1.000000	0.642829	7.36963e+06	-53739.1	1005.82	-29745.5	0.000000	0.000000	6.642977	0.018900	NaN	0.000000	0.001543	0.001714	28.0815	0.156542	0.001983	78.9434	72.856	-164.027	0.022914	0.641536	-0.470662	-0.471954	0.018900	78.9434	-0.470841	-1.3403e+06	-1.410122E-8	NaN
467	1.000000	0.652862	7.36963e+06	-53739.1	1005.82	-29745.5	0.000000	0.000000	6.653009	-0.005170	NaN	0.000000	0.001571	0.001679	28.0817	0.044528	0.001906	23.3653	-141.193	13.8141	0.002904	0.651481	-0.460629	-0.462010	-0.005170	23.3653	-0.460463	-958354	5.394301E-9	NaN
467	1.000000	0.662866	7.36963e+06	-53739.1	1005.82	-29745.5	0.000000	0.000000	6.663015	0.045539	NaN	0.000000	0.001550	0.001724	28.0815	0.130931	0.001961	66.7776	78.4128	-165.02	0.028925	0.661569	-0.450625	-0.451922	0.045539	66.7776	-0.451136	-708500	-6.427592E-8	NaN
467	1.000000	0.672880	7.36963e+06	-53739.1	1005.82	-29745.5	0.000000	0.000000	6.673028	0.009404	NaN	0.000000	0.001562	0.001741	28.0813	0.040498	0.002118	19.1167	-169.428	13.5297	-0.020532	0.671520	-0.440611	-0.441971	0.009404	19.1167	-0.440980	-509550	-1.845524E-8	NaN
467	1.000000	0.682859	7.36963e+06	-53739.1	1005.82	-29745.5	0.000000	0.000000	6.683004	-0.047481	NaN	0.000000	0.001551	0.001707	28.0813	0.100594	0.001968	51.1114	111.114	-164.886	0.013922	0.681569	-0.430632	-0.431921	-0.047481	51.1114	-0.429935	-355747	1.334681E-7	NaN
467	1.000000	0.692876	7.36963e+06	-53739.1	1005.82	-29745.5	0.000000	0.000000	6.693022	-0.040703	NaN	0.000000	0.001543	0.001697	28.0816	0.086446	0.002013	42.9419	140.205	14.573	-0.082673	0.691514	-0.420615	-0.421977	-0.040703	42.9419	-0.419904	-256477	1.587011E-7	NaN
467	1.000000	0.702878	7.36963e+06	-53739.1	1005.82	-29745.5	0.000000	0.000000	6.703027	0.023871	NaN	0.000000	0.001545	0.001742	28.0824	0.035244	0.002091	16.8534	-88.0094	-165.457	0.098640	0.701555	-0.410613	-0.411936	0.023871	16.8534	-0.411675	-195980	-1.218033E-7	NaN
467	1.000000	0.712880	7.36963e+06	-53739.1	1005.82	-29745.5	0.000000	0.000000	6.713026	-0.027604	NaN	0.000000	0.001544	0.001721	28.0825	0.095165	0.001867	50.9781	10.4448	14.8651	0.008761	0.711594	-0.400611	-0.401897	-0.027604	50.9781	-0.400205	-134560	2.051403E-7	NaN
467	1.000000	0.722866	7.36963e+06	-53739.1	1005.82	-29745.5	0.000000	0.000000	6.723016	0.063321	NaN	0.000000	0.001557	0.001693	28.0827	0.084347	0.002124	39.707	-66.0769	-160.945	0.002532	0.721598	-0.390625	-0.391892	0.063321	39.707	-0.391821	-102142	-6.199326E-7	NaN
467	1.000000	0.732904	7.36963e+06	-53739.1	1005.82	-29745.5	0.000000	0.000000	6.733050	-0.035911	NaN	0.000000	0.001548	0.001681	28.0824	0.082281	0.002209	37.2466	-117.513	15.5646	-0.032057	0.731462	-0.380586	-0.382029	-0.035911	37.2466	-0.379863	-68853.5	5.215599E-7	NaN
467	1.000000	0.742907	7.36963e+06	-53739.1	1005.82	-29745.5	0.000000	0.000000	6.743052	-0.071200	NaN	0.000000	0.001548	0.001770	28.0824	0.088526	0.002125	41.6515	43.2281	-166.601	-0.023945	0.741588	-0.370584	-0.371903	-0.071200	41.6515	-0.369302	-48536.3	1.466933E-6	NaN
467	1.000000	0.752916	7.36963e+06	-53739.1	1005.82	-29745.5	0.000000	0.000000	6.753064	0.006386	NaN	0.000000	0.001537	0.001734	28.0825	0.091765	0.002031	45.1715	101.847	15.0256	-0.012722	0.751545	-0.360575	-0.361945	0.006386	45.1715	-0.360681	-36449	-1.752031E-7	NaN
467	1.000000	0.762882	7.36963e+06	-53739.1	1005.82	-29745.5	0.000000	0.000000	6.763030	0.006494	NaN	0.000000	0.001540	0.001693	28.0825	0.037300	0.002072	17.9998	-135.344	-163.485	0.021283	0.761584	-0.350609	-0.351907	0.006494	17.9998	-0.350879	-26288.2	-2.470464E-7	NaN
467	1.000000	0.772904	7.36963e+06	-53739.1	1005.82	-29745.5	0.000000	0.000000	6.773050	-0.013210	NaN	0.000000	0.001573	0.001703	28.0825	0.053327	0.001933	27.5836	162.07	16.8691	0.048500	0.771564	-0.340587	-0.341927	-0.013210	27.5836	-0.340228	-18402.5	7.178331E-7	NaN
467	1.000000	0.782922	7.36963e+06	-53739.1	1005.82	-29745.5	0.000000	0.000000	6.783072	0.048861	NaN	0.000000	0.001580	0.001759	28.0823	0.106053	0.001967	53.9129	33.7899	-166.443	0.056669	0.781624	-0.330569	-0.331867	0.048861	53.9129	-0.331248	-13605.9	-3.591195E-6	NaN
467	1.000000	0.792924	7.36963e+06	-53739.1	1005.82	-29745.5	0.000000	0.000000	6.793069	-0.049654	NaN	0.000000	0.001568	0.001731	28.0825	0.025342	0.002030	12.4851	129.568	14.6452	-0.038786	0.791542	-0.320567	-0.321948	-0.049654	12.4851	-0.317584	-8571.46	5.792994E-6	NaN
467	1.000000	0.802910	7.36963e+06	-53739.1	1005.82	-29745.5	0.000000	0.000000	6.803056	-0.019319	NaN	0.000000	0.001581	0.001731	28.0824	0.051053	0.002059	24.7968	177.945	-165.515	-0.062670	0.801588	-0.310581	-0.311902	-0.019319	24.7968	-0.309997	-6622.23	2.917316E-6	NaN
467	1.000000	0.812928	7.36963e+06	-53739.1	1005.82	-29745.5	0.000000	0.000000	6.813074	-0.038291	NaN	0.000000	0.001553	0.001768	28.0826	0.125963	0.001960	64.2691	-169.981	16.8427	-0.071479	0.811548	-0.300563	-0.301943	-0.038291	64.2691	-0.300116	-4724.52	8.104757E-6	NaN
467	1.000000	0.822929	7.36963e+06	-53739.1	1005.82	-29745.5	0.000000	0.000000	6.823076	-0.013427	NaN	0.000000	0.001592	0.001708	28.0824	0.048779	0.001974	24.7166	-80.9054	-163.658	-0.033979	0.821637	-0.290562	-0.291854	-0.013427	24.7166	-0.290154	-3354.37	4.002787E-6	NaN
467	1.000000	0.832909	7.36963e+06	-53739.1	1005.82	-29745.5	0.000000	0.000000	6.833055	-0.029140	NaN	0.000000	0.001547	0.001720	28.0824	0.065921	0.002030	32.4774	64.637	13.4157	-0.046845	0.831491	-0.280582	-0.281999	-0.029140	32.4774	-0.279909	-2352.84	1.238510E-5	NaN
467	1.000000	0.842931	7.36963e+06	-53739.1	1005.82	-29745.5	0.000000	0.000000	6.843077	-0.034185	NaN	0.000000	0.001555	0.001747	28.0811	0.162392	0.002075	78.2524	-121.061	-165.289	-0.034238	0.841633	-0.270560	-0.271858	-0.034185	78.2524	-0.270232	-1679.07	2.035955E-5	NaN
467	1.000000	0.852916	7.36963e+06	-53739.1	1005.82	-29745.5	0.000000	0.000000	6.853061	-0.061330	NaN	0.000000	0.001567	0.001715	28.0815	0.032907	0.002008	16.3857	106.228	12.5948	-0.060110	0.851596	-0.260575	-0.261895	-0.061330	16.3857	-0.257768	-1083.11	5.662431E-5	NaN
467	1.000000	0.862951	7.36963e+06	-53739.1	1005.82	-29745.5	0.000000	0.000000	6.863098	-0.016374	NaN	0.000000	0.001536	0.001705	28.0811	0.029296	0.002057	14.2391	-53.6521	-162.268	0.081382	0.861629	-0.250540	-0.251861	-0.016374	14.2391	-0.249677	-812.787	2.014549E-5	NaN
467	1.000000	0.872934	7.36963e+06	-53739.1	1005.82	-29745.5	0.000000	0.000000	6.873080	-0.026992	NaN	0.000000	0.001579	0.001717	28.0815	0.067821	0.001932	35.0952	19.2882	15.1404	-0.001850	0.871617	-0.240557	-0.241873	-0.026992	35.0952	-0.239980	-574.438	4.698852E-5	NaN
467	1.000000	0.882981	7.36963e+06	-53739.1	1005.82	-29745.5	0.000000	0.000000	6.883129	0.019157	NaN	0.000000	0.001574	0.001702	28.0812	0.112989	0.002111	53.5259	-85.863	-164.518	0.032088	0.881677	-0.230509	-0.231814	0.019157	53.5259	-0.230778	-411.902	-4.650882E-5	NaN
467	1.000000	0.892907	7.36963e+06	-53739.1	1005.82	-29745.5	0.000000	0.000000	6.893052	-0.051942	NaN	0.000000	0.001559	0.001709	28.0813	0.153031	0.002015	75.9555	74.1762	11.4181	-0.019216	0.891549	-0.220584	-0.221942	-0.051942	75.9555	-0.220071	-278.489	0.000187	NaN
467	1.000000	0.902963	7.36963e+06	-53739.1	1005.82	-29745.5	0.000000	0.000000	6.903110	0.004434	NaN	0.000000	0.001587	0.001661	28.0812	0.031779	0.001956	16.2472	-174.042	-161.627	-0.045500	0.901656	-0.210528	-0.211835	0.004434	16.2472	-0.210732	-197.095	-2.249517E-5	NaN
467	1.000000	0.912972	7.36963e+06	-53739.1	1005.82	-29745.5	0.000000	0.000000	6.913118	-0.038885	NaN	0.000000	0.001575	0.001727	28.0812	0.092046	0.002009	45.8101	-23.324	16.1908	-0.001909	0.911596	-0.200519	-0.201894	-0.038885	45.8101	-0.199882	-131.149	0.000296	NaN
467	1.000000	0.922976	7.36963e+06	-53739.1	1005.82	-29745.5	0.000000	0.000000	6.923122	-0.024078	NaN	0.000000	0.001591	0.001708	28.0811	0.072481	0.002287	31.6978	85.9619	-166.007	-0.019840	0.921663	-0.190515	-0.191828	-0.024078	31.6978	-0.189945	-89.7655	0.000268	NaN
467	1.000000	0.932962	7.36963e+06	-53739.1	1005.82	-29745.5	0.000000	0.000000	6.933112	0.060578	NaN	0.000000	0.001515	0.001707	28.0812	0.031096	0.002067	15.0407	154.474	15.5258	-0.100437	0.931593	-0.180529	-0.181898	0.060578	15.0407	-0.183550	-70.09	-0.000864	NaN
467	1.000000	0.942969	7.36963e+06	-53739.1	1005.82	-29745.5	0.000000	0.000000	6.943118	0.038803	NaN	0.000000	0.001528	0.001691	28.0814	0.055951	0.001872	29.895	29.1525	-163.851	0.016030	0.941650	-0.170521	-0.171841	0.038803	29.895	-0.171495	-43.6045	-0.000890	NaN
467	1.000000	0.952990	7.36963e+06	-53739.1	1005.82	-29745.5	0.000000	0.000000	6.953139	0.039710	NaN	0.000000	0.001577	0.001718	28.0814	0.055960	0.001971	28.391	-51.7367	15.3996	-0.033558	0.951659	-0.160500	-0.161832	0.039710	28.391	-0.161549	-29.2057	-0.001360	NaN
467	1.000000	0.962994	7.36963e+06	-53739.1	1005.82	-29745.5	0.000000	0.000000	6.963139	-0.061145	NaN	0.000000	0.001551	0.001693	28.0814	0.022029	0.001965	11.2122	-65.378	-161.051	0.074364	0.961698	-0.150497	-0.151793	-0.061145	11.2122	-0.146407	-15.5645	0.003928	NaN
467	1.000000	0.972974	7.36963e+06	-53739.1	1005.82	-29745.5	0.000000	0.000000	6.973119	-0.047817	NaN	0.000000	0.001612	0.001712	28.0829	0.023244	0.001997	11.6373	67.1626	18.1488	-0.008250	0.971645	-0.140517	-0.141845	-0.047817	11.6373	-0.137435	-10.5826	0.004518	NaN
467	1.000000	0.982977	7.36963e+06	-53739.1	1005.82	-29745.5	0.000000	0.000000	6.983124	-0.008599	NaN	0.000000	0.001556	0.001700	28.0827	0.071143	0.002047	34.7538	128.101	-166.034	0.024778	0.981697	-0.130513	-0.131793	-0.008599	34.7538	-0.130328	-7.733524	0.001112	NaN
467	1.000000	0.992978	7.36963e+06	-53739.1	1005.82	-29745.5	0.000000	0.000000	6.993123	-0.056518	NaN	0.000000	0.001602	0.001695	28.0826	0.061338	0.001995	30.7473	-62.736	15.3262	-0.030444	0.991618	-0.120512	-0.121873	-0.056518	30.7473	-0.119134	-4.640545	0.012179	NaN
467	1.000000	1.002990	7.36963e+06	-53739.1	1005.82	-29745.5	0.000000	0.000000	7.003133	-0.095145	NaN	0.000000	0.001590	0.001642	28.0826	0.086768	0.001969	44.0752	153.427	-167.037	-0.111104	1.001659	-0.110501	-0.111831	-0.095145	44.0752	-0.108882	-2.846022	0.033431	NaN
467	1.000000	1.012989	7.36963e+06	-53739.1	1005.82	-29745.5	0.000000	0.000000	7.013138	0.020685	NaN	0.000000	0.001562	0.001688	28.0829	0.066799	0.001963	34.0322	-152.155	16.9704	0.004114	1.011646	-0.100501	-0.101845	0.020685	34.0322	-0.100957	-1.918389	-0.010782	NaN
467	1.000000	1.023008	7.36963e+06	-53739.1	1005.82	-29745.5	0.000000	0.000000	7.023153	-0.044496	NaN	0.000000	0.001562	0.001717	28.0826	0.027723	0.001962	14.1281	-78.0599	-165.986	0.010774	1.021709	-0.090483	-0.091782	-0.044496	14.1281	-0.088121	-0.976047	0.045588	NaN
467	1.000000	1.032997	7.36963e+06	-53739.1	1005.82	-29745.5	0.000000	0.000000	7.033141	-0.083305	NaN	0.000000	0.001584	0.001737	28.0827	0.057359	0.002123	27.0116	-17.5966	15.7582	-0.081265	1.031612	-0.080494	-0.081879	-0.083305	27.0116	-0.078181	-0.557083	0.149538	NaN
467	1.000000	1.043019	7.36963e+06	-53739.1	1005.82	-29745.5	0.000000	0.000000	7.043162	-0.117072	NaN	0.000000	0.001569	0.001711	28.0827	0.119926	0.002045	58.6421	-56.4048	-165.22	-0.160378	1.041663	-0.070471	-0.071828	-0.117072	58.6421	-0.068974	-0.320115	0.365718	NaN
467	1.000000	1.053023	7.36963e+06	-53739.1	1005.82	-29745.5	0.000000	0.000000	7.053166	-0.114979	NaN	0.000000	0.001595	0.001737	28.0828	0.078007	0.001953	39.9393	171.983	16.7655	-0.084021	1.051689	-0.060467	-0.061802	-0.114979	39.9393	-0.058308	-0.160957	0.714348	NaN
467	1.000000	1.063027	7.36963e+06	-53739.1	1005.82	-29745.5	0.000000	0.000000	7.063174	-0.008662	NaN	0.000000	0.001556	0.001760	28.0826	0.128930	0.001900	67.8544	122.142	-163.66	0.037917	1.061755	-0.050464	-0.051736	-0.008662	67.8544	-0.050368	-0.093620	0.092527	NaN
467	1.000000	1.073009	7.36963e+06	-53739.1	1005.82	-29745.5	0.000000	0.000000	7.073156	-0.018083	NaN	0.000000	0.001638	0.001716	28.0825	0.042292	0.002066	20.4696	49.1351	16.6397	-0.028683	1.071681	-0.040482	-0.041810	-0.018083	20.4696	-0.039819	-0.044653	0.404963	NaN
467	1.000000	1.083041	7.36963e+06	-53739.1	1005.82	-29745.5	0.000000	0.000000	7.083188	-0.014113	NaN	0.000000	0.001661	0.001701	28.083	0.075778	0.001963	38.5944	-169.06	-166.748	-0.040868	1.081683	-0.030450	-0.031808	-0.014113	38.5944	-0.030176	-0.023274	0.606405	NaN
467	1.000000	1.093023	7.36963e+06	-53739.1	1005.82	-29745.5	0.000000	0.000000	7.093170	-0.004939	NaN	0.000000	0.001646	0.001758	28.0825	0.063128	0.001950	32.3707	-71.9321	14.0266	-0.088196	1.091679	-0.020468	-0.021812	-0.004939	32.3707	-0.020353	-0.012824	0.385142	NaN
467	1.000000	1.103025	7.36963e+06	-53739.1	1005.82	-29745.5	0.000000	0.000000	7.103173	0.004483	NaN	0.000000	0.001683	0.001715	28.0825	0.073858	0.002006	36.8181	5.544037	-166.253	-0.060651	1.101694	-0.010465	-0.011797	0.004483	36.8181	-0.010557	-0.006705	-0.668526	NaN
467	1.000000	1.113030	7.36963e+06	-53739.1	1005.82	-29745.5	0.000000	0.000000	7.113319	3.436493	NaN	0.000000	0.001663	0.001727	28.0813	4.410348	0.001868	2360.52	8.637132	12.2735	1.946649	1.111648	-0.000461	-0.001842	3.436493	2360.52	-0.001553	-0.001127	-3050.39	NaN
467	2.000000	1.118717	7.36963e+06	-53739.1	1005.82	-29745.5	0.000000	0.000000	7.119292	10.394	NaN	0.000000	0.001667	0.001706	28.0822	10.2263	0.001667	6135.91	6.149822	-170.81	9.537174	1.118412	0.005226	0.004921	10.394	6135.91	0.003956	0.003200	3247.79	99095.6
467	2.000000	1.121245	7.36963e+06	-53739.1	1005.82	-29745.5	0.000000	0.000000	7.121973	14.1196	NaN	0.000000	0.001628	0.001726	28.0812	13.136	0.001629	8061.82	9.614532	4.263737	13.6618	1.120890	0.007754	0.007400	14.1196	8061.82	0.006441	0.005487	2573.27	99434.6
467	2.000000	1.123699	7.36963e+06	-53739.1	1005.82	-29745.5	0.000000	0.000000	7.124575	17.7286	NaN	0.000000	0.001643	0.001722	28.0814	15.537	0.001552	10008.6	5.578144	-175.01	18.1396	1.123419	0.010208	0.009928	17.7286	10008.6	0.008879	0.007963	2226.47	102475
467	2.000000	1.126186	7.36963e+06	-53739.1	1005.82	-29745.5	0.000000	0.000000	7.127253	22.3663	NaN	0.000000	0.001604	0.001748	28.0814	18.4166	0.001646	11190	6.261236	4.007899	22.8024	1.125828	0.012695	0.012338	22.3663	11190	0.011196	0.010541	2121.77	99576.7
467	2.000000	1.128681	7.36963e+06	-53739.1	1005.82	-29745.5	0.000000	0.000000	7.129865	25.2106	NaN	0.000000	0.001602	0.001725	28.0817	21.5463	0.001910	11282.7	9.244082	-177.741	25.4883	1.128374	0.015190	0.014883	25.2106	11282.7	0.013514	0.013355	1887.74	89200.7
467	2.000000	1.131148	7.36963e+06	-53739.1	1005.82	-29745.5	0.000000	0.000000	7.132632	32.4988	NaN	0.000000	0.001548	0.001697	28.0811	23.5189	0.001859	12652.8	3.557298	5.966074	29.9162	1.130802	0.017657	0.017311	32.4988	12652.8	0.015731	0.016272	1997.22	90623.1
467	2.000000	1.133671	7.36963e+06	-53739.1	1005.82	-29745.5	0.000000	0.000000	7.135458	39.8729	NaN	0.000000	0.001568	0.001719	28.081	25.7514	0.001791	14376.3	9.411443	179.384	40.2076	1.133349	0.020180	0.019859	39.8729	14376.3	0.018100	0.019644	2029.77	93714.2
467	2.000000	1.136087	7.36963e+06	-53739.1	1005.82	-29745.5	0.000000	0.000000	7.138076	44.7718	NaN	0.000000	0.001538	0.001744	28.0812	27.7761	0.001782	15586.6	4.473261	3.080801	42.5674	1.135799	0.022596	0.022309	44.7718	15586.6	0.020442	0.023242	1926.36	93409.5
467	2.000000	1.138583	7.36963e+06	-53739.1	1005.82	-29745.5	0.000000	0.000000	7.140913	53.0686	NaN	0.000000	0.001557	0.001738	28.0818	30.7952	0.001815	16967.1	3.485290	-177.191	50.2501	1.138300	0.025093	0.024809	53.0686	16967.1	0.022747	0.027044	1962.33	94264.4
467	2.000000	1.141106	7.36963e+06	-53739.1	1005.82	-29745.5	0.000000	0.000000	7.143740	60.4652	NaN	0.000000	0.001577	0.001713	28.0811	32.926	0.001864	17664	4.580135	2.173157	57.8217	1.140768	0.027615	0.027277	60.4652	17664	0.025048	0.031103	1944.05	91508.7
467	2.000000	1.143613	7.36963e+06	-53739.1	1005.82	-29745.5	0.000000	0.000000	7.146591	68.8195	NaN	0.000000	0.001568	0.001733	28.0817	35.315	0.001764	20018.6	6.598397	178.192	68.7721	1.143317	0.030123	0.029827	68.8195	20018.6	0.027544	0.035808	1921.93	96653.8
467	2.000000	1.146131	7.36963e+06	-53739.1	1005.82	-29745.5	0.000000	0.000000	7.149301	73.4864	NaN	0.000000	0.001594	0.001733	28.0812	38.5155	0.001818	21184.3	6.195933	-2.639958	73.3893	1.145880	0.032641	0.032389	73.4864	21184.3	0.030039	0.040825	1800.05	95791.3
467	2.000000	1.148656	7.36963e+06	-53739.1	1005.82	-29745.5	0.000000	0.000000	7.152218	83.0274	NaN	0.000000	0.001565	0.001749	28.0818	40.5786	0.001835	22114	3.316161	-179.711	82.9387	1.148268	0.035165	0.034777	83.0274	22114	0.032349	0.045754	1814.66	94455.5
467	2.000000	1.151093	7.36963e+06	-53739.1	1005.82	-29745.5	0.000000	0.000000	7.155032	92.1762	NaN	0.000000	0.001563	0.001740	28.0823	42.2835	0.001777	23799.1	7.228708	-2.806495	89.6715	1.150630	0.037603	0.037139	92.1762	23799.1	0.034698	0.051045	1805.79	96240.4
467	2.000000	1.153576	7.36963e+06	-53739.1	1005.82	-29745.5	0.000000	0.000000	7.157830	99.8191	NaN	0.000000	0.001596	0.001746	28.0836	44.1993	0.001723	25656	2.803439	179.481	97.4973	1.153326	0.040086	0.039835	99.8191	25656	0.037168	0.056914	1753.86	98254.6
467	2.000000	1.156155	7.36963e+06	-53739.1	1005.82	-29745.5	0.000000	0.000000	7.160727	107.578	NaN	0.000000	0.001548	0.001745	28.0824	46.9849	0.001799	26119.6	4.981413	-2.352149	109.637	1.155750	0.042664	0.042260	107.578	26119.6	0.039575	0.062934	1709.37	95125.2
467	2.000000	1.158594	7.36963e+06	-53739.1	1005.82	-29745.5	0.000000	0.000000	7.163569	117.351	NaN	0.000000	0.001574	0.001734	28.0826	50.2569	0.001879	26747.2	5.918797	177.017	116.57	1.158226	0.045104	0.044735	117.351	26747.2	0.041813	0.068798	1705.73	93167.3
467	2.000000	1.161059	7.36963e+06	-53739.1	1005.82	-29745.5	0.000000	0.000000	7.166638	132.062	NaN	0.000000	0.001566	0.001760	28.0826	51.8601	0.001835	28255.1	5.295190	-3.079935	129.13	1.160691	0.047568	0.047201	132.062	28255.1	0.044063	0.074950	1762.02	94294.4
467	2.000000	1.163592	7.36963e+06	-53739.1	1005.82	-29745.5	0.000000	0.000000	7.169705	145.035	NaN	0.000000	0.001547	0.001745	28.0835	53.6084	0.001755	30550.8	3.808346	176.451	144.198	1.163309	0.050102	0.049819	145.035	30550.8	0.046541	0.082023	1768.22	97460.3
467	2.000000	1.166125	7.36963e+06	-53739.1	1005.82	-29745.5	0.000000	0.000000	7.172601	153.864	NaN	0.000000	0.001571	0.001792	28.0825	56.4176	0.001737	32474.6	6.575282	-6.114120	154.302	1.165692	0.052634	0.052201	153.864	32474.6	0.049081	0.089593	1717.36	99123.9
467	2.000000	1.168546	7.36963e+06	-53739.1	1005.82	-29745.5	0.000000	0.000000	7.175677	169.785	NaN	0.000000	0.001563	0.001723	28.0826	59.8297	0.001953	30628.2	3.806163	177.373	168.002	1.168257	0.055055	0.054767	169.785	30628.2	0.050897	0.095207	1783.32	90690
467	2.000000	1.171072	7.36963e+06	-53739.1	1005.82	-29745.5	0.000000	0.000000	7.178746	182.974	NaN	0.000000	0.001554	0.001726	28.0825	61.9879	0.001786	34712.3	6.837398	-7.228506	180.753	1.170791	0.057581	0.057301	182.974	34712.3	0.053628	0.103956	1760.12	98363.1
467	2.000000	1.173573	7.36963e+06	-53739.1	1005.82	-29745.5	0.000000	0.000000	7.181900	198.865	NaN	0.000000	0.001541	0.001696	28.083	63.4484	0.001747	36315.4	4.732159	174.799	197.713	1.173254	0.060082	0.059764	198.865	36315.4	0.055975	0.111773	1779.19	99242
467	2.000000	1.176090	7.36963e+06	-53739.1	1005.82	-29745.5	0.000000	0.000000	7.185148	216.624	NaN	0.000000	0.001593	0.001720	28.0825	66.4263	0.001798	36952	4.938654	-5.064853	214.175	1.175648	0.062600	0.062158	216.624	36952	0.058203	0.119443	1813.63	97685.9
467	2.000000	1.178518	7.36963e+06	-53739.1	1005.82	-29745.5	0.000000	0.000000	7.188028	227.644	NaN	0.000000	0.001563	0.001762	28.0828	69.1555	0.001828	37823	5.367719	173.895	224.847	1.178348	0.065027	0.064858	227.644	37823	0.060513	0.127654	1783.29	96719.1
467	2.000000	1.181170	7.36963e+06	-53739.1	1005.82	-29745.5	0.000000	0.000000	7.191322	243.244	NaN	0.000000	0.001562	0.001759	28.0826	71.3565	0.001829	39011	7.263498	-7.421858	246.719	1.180706	0.067679	0.067215	243.244	39011	0.063003	0.136795	1778.17	96366.3
467	2.000000	1.183503	7.36963e+06	-53739.1	1005.82	-29745.5	0.000000	0.000000	7.194422	261.884	NaN	0.000000	0.001579	0.001763	28.0813	71.9513	0.001779	40453.5	4.382551	175.345	258.48	1.183192	0.070012	0.069702	261.884	40453.5	0.065157	0.144948	1806.75	97078.7
467	2.000000	1.186123	7.36963e+06	-53739.1	1005.82	-29745.5	0.000000	0.000000	7.197469	272.277	NaN	0.000000	0.001548	0.001799	28.0813	76.2108	0.001896	40195.1	7.043780	-7.356826	274.847	1.185660	0.072632	0.072169	272.277	40195.1	0.067552	0.154271	1764.93	93498.4
467	2.000000	1.188494	7.36963e+06	-53739.1	1005.82	-29745.5	0.000000	0.000000	7.200612	291.028	NaN	0.000000	0.001554	0.001791	28.0816	77.629	0.001849	41982.1	2.423532	176.064	286.961	1.188237	0.075003	0.074747	291.028	41982.1	0.069804	0.163291	1782.27	94919.9
467	2.000000	1.191033	7.36963e+06	-53739.1	1005.82	-29745.5	0.000000	0.000000	7.203905	309.357	NaN	0.000000	0.001544	0.001762	28.0816	78.8467	0.001745	45175.4	5.356999	-6.957698	305.422	1.190648	0.077543	0.077157	309.357	45175.4	0.072407	0.174015	1777.76	98942.1
467	2.000000	1.193545	7.36963e+06	-53739.1	1005.82	-29745.5	0.000000	0.000000	7.207179	327.893	NaN	0.000000	0.001560	0.001696	28.0815	80.524	0.001748	46055.8	5.844843	172.243	325.312	1.193216	0.080054	0.079725	327.893	46055.8	0.074715	0.183793	1784.03	98150.4
467	2.000000	1.195958	7.36963e+06	-53739.1	1005.81	-29745.5	0.000000	0.000000	7.210190	342.416	NaN	0.000000	0.001545	0.001716	28.0812	84.0735	0.001880	44727.9	6.251406	-7.148357	334.682	1.195643	0.082467	0.082152	342.416	44727.9	0.076726	0.192518	1778.62	93135.6
467	2.000000	1.198494	7.36963e+06	-53739.1	1005.82	-29745.5	0.000000	0.000000	7.213558	362.645	NaN	0.000000	0.001596	0.001726	28.0812	84.6727	0.001642	51578.2	1.061533	175.925	357.91	1.198195	0.085004	0.084704	362.645	51578.2	0.079730	0.205907	1761.21	103849
467	2.000000	1.200992	7.36963e+06	-53739.1	1005.82	-29745.5	0.000000	0.000000	7.216885	382.809	NaN	0.000000	0.001545	0.001699	28.0815	87.3188	0.001731	50443.8	5.351000	-7.533211	376.256	1.200676	0.087501	0.087185	382.809	50443.8	0.081809	0.215416	1777.07	99298.5
467	2.000000	1.203448	7.36963e+06	-53739.1	1005.82	-29745.5	0.000000	0.000000	7.220060	400.284	NaN	0.000000	0.001593	0.001723	28.0813	89.4254	0.001789	49995.8	7.031765	170.775	395.187	1.203170	0.089957	0.089679	400.284	49995.8	0.083953	0.225430	1775.65	96205.7
467	2.000000	1.206053	7.36963e+06	-53739.1	1005.82	-29745.5	0.000000	0.000000	7.223322	416.251	NaN	0.000000	0.001568	0.001736	28.0817	92.2871	0.001789	51594.6	6.287512	-8.774845	413.775	1.205711	0.092563	0.092220	416.251	51594.6	0.086512	0.237667	1751.41	96692.6
467	2.000000	1.208510	7.36963e+06	-53739.1	1005.82	-29745.5	0.000000	0.000000	7.226577	435.643	NaN	0.000000	0.001554	0.001740	28.0813	94.8566	0.001743	54426.1	4.990582	171.741	433.646	1.208290	0.095020	0.094799	435.643	54426.1	0.089016	0.249933	1743.04	99464.7
467	2.000000	1.211143	7.36963e+06	-53739.1	1005.82	-29745.5	0.000000	0.000000	7.230120	457.769	NaN	0.000000	0.001578	0.001733	28.0816	96.5824	0.001789	54001	4.967981	-7.734996	457.817	1.210786	0.097653	0.097295	457.769	54001	0.091295	0.261343	1751.6	96509.4
467	2.000000	1.213434	7.36963e+06	-53739.1	1005.82	-29745.5	0.000000	0.000000	7.233172	476.299	NaN	0.000000	0.001588	0.001735	28.0814	98.3343	0.001897	51837.2	1.101109	175.889	470.612	1.213204	0.099943	0.099714	476.299	51837.2	0.093052	0.270303	1762.1	91094
467	2.000000	1.215463	7.36963e+06	-53739.1	1005.82	-29745.5	0.000000	0.000000	7.235055	472.754	NaN	0.000000	0.001562	0.001734	28.0814	101.276	0.001761	57497.7	3.065710	173.165	468.096	1.215362	0.101972	0.101871	472.754	57497.7	0.095805	0.284629	1660.95	98465.5