File: remote_trans/data/nanoindenter/0828-1/data/Data_2025-08-06,11h17m57s/2025-07-22_16-23-58_1_737.txt
2025-07-22, 16:23:58, 1
Index	Phase	Displacement	Time	Pos X	Pos Y	Pos Z	Rot A	Rot B	Piezo Z	Force A	Force B	Gripper	Voltage A	Voltage B	Temperature	Amplitude force	Amplitude pos	Stiffness	Phase shift	Phase excitation	Force A raw	Displacement raw	HMax	HMax raw	Real Force	Real Stiffness	Contact Depth	Area	Hardness	Reduced Mod.
[#]	[#]	[um]	[s]	[um]	[um]	[um]	[m°]	[m°]	[um]	[uN]	[uN]	[V]	[V]	[V]	[°C]	[uN]	[um]	[N/m]	[°]	[°]	[uN]	[um]	[um]	[um]	[uN]	[N/m]	[um]	[um^2]	[MPa]	[MPa]
737	1.000000	0.002834	7.37226e+06	-40239.1	1005.82	-29790.8	0.000000	0.000000	6.002772	0.060016	NaN	0.000000	0.001643	0.001742	28.0824	0.008078	0.000922	8.759962	-39.1143	-156.575	0.006775	0.001582	-1.025014	-1.026267	0.060016	8.759962	-1.030152	-5.774701E+13	-1.039290E-15	NaN
737	1.000000	0.010825	7.37226e+06	-40239.1	1005.82	-29790.8	0.000000	0.000000	6.010762	0.036646	NaN	0.000000	0.001624	0.001723	28.0822	0.033123	0.001053	31.4588	36.6452	-165.928	0.053614	0.009506	-1.017023	-1.018342	0.036646	31.4588	-1.017897	-3.950518E+13	-9.276319E-16	NaN
737	1.000000	0.018811	7.37226e+06	-40239.1	1005.82	-29790.8	0.000000	0.000000	6.018748	0.045574	NaN	0.000000	0.001614	0.001776	28.0821	0.039528	0.001700	23.2548	-92.9416	-166.65	-0.042993	0.017512	-1.009037	-1.010336	0.045574	23.2548	-1.010507	-3.142003E+13	-1.450485E-15	NaN
737	1.000000	0.026826	7.37226e+06	-40239.1	1005.82	-29790.8	0.000000	0.000000	6.026763	0.018797	NaN	0.000000	0.001624	0.001742	28.0814	0.108889	0.001884	57.7996	123.221	-165.277	-0.052783	0.025426	-1.001022	-1.002422	0.018797	57.7996	-1.001266	-2.359444E+13	-7.966756E-16	NaN
737	1.000000	0.034826	7.37226e+06	-40239.1	1005.82	-29790.8	0.000000	0.000000	6.034763	0.040522	NaN	0.000000	0.001655	0.001707	28.0812	0.073601	0.001869	39.3856	108.059	-162.747	0.055983	0.033421	-0.993023	-0.994427	0.040522	39.3856	-0.993794	-1.871592E+13	-2.165109E-15	NaN
737	1.000000	0.042814	7.37226e+06	-40239.1	1005.82	-29790.8	0.000000	0.000000	6.042751	0.025185	NaN	0.000000	0.001642	0.001735	28.0812	0.136177	0.002034	66.9601	12.3204	-164.5	0.015928	0.041517	-0.985034	-0.986331	0.025185	66.9601	-0.985316	-1.438873E+13	-1.750358E-15	NaN
737	1.000000	0.050811	7.37226e+06	-40239.1	1005.82	-29790.8	0.000000	0.000000	6.050746	-0.022976	NaN	0.000000	0.001595	0.001737	28.081	0.052151	0.001971	26.456	105.456	-167.678	0.072628	0.049503	-0.977037	-0.978345	-0.022976	26.456	-0.976386	-1.090727E+13	2.106473E-15	NaN
737	1.000000	0.058842	7.37226e+06	-40239.1	1005.82	-29790.8	0.000000	0.000000	6.058778	0.015119	NaN	0.000000	0.001584	0.001754	28.0809	0.058017	0.001918	30.2513	-138.72	-163.441	-0.014831	0.057512	-0.969007	-0.970336	0.015119	30.2513	-0.969382	-8.776645E+12	-1.722660E-15	NaN
737	1.000000	0.066847	7.37226e+06	-40239.1	1005.82	-29790.8	0.000000	0.000000	6.066784	0.016973	NaN	0.000000	0.001618	0.001724	28.0811	0.024124	0.002086	11.5626	-119.223	-168.679	0.037174	0.065533	-0.961001	-0.962316	0.016973	11.5626	-0.962102	-7.001703E+12	-2.424134E-15	NaN
737	1.000000	0.074812	7.37226e+06	-40239.1	1005.82	-29790.8	0.000000	0.000000	6.074748	0.029581	NaN	0.000000	0.001625	0.001753	28.081	0.059675	0.002047	29.1496	96.5153	-167.777	0.017681	0.073532	-0.953037	-0.954316	0.029581	29.1496	-0.953798	-5.410562E+12	-5.467329E-15	NaN
737	1.000000	0.082813	7.37226e+06	-40239.1	1005.82	-29790.8	0.000000	0.000000	6.082748	-0.025378	NaN	0.000000	0.001609	0.001714	28.0818	0.075698	0.001962	38.5876	15.8499	-163.587	-0.035104	0.081503	-0.945035	-0.946345	-0.025378	38.5876	-0.944542	-4.058895E+12	6.252346E-15	NaN
737	1.000000	0.090801	7.37226e+06	-40239.1	1005.82	-29790.8	0.000000	0.000000	6.090737	0.026228	NaN	0.000000	0.001645	0.001762	28.0808	0.096921	0.002084	46.5138	-23.6235	-164.111	0.024656	0.089503	-0.937048	-0.938345	0.026228	46.5138	-0.937471	-3.258445E+12	-8.049231E-15	NaN
737	1.000000	0.098807	7.37226e+06	-40239.1	1005.82	-29790.8	0.000000	0.000000	6.098745	0.058144	NaN	0.000000	0.001619	0.001754	28.0811	0.018009	0.002066	8.718683	-111.295	-165.255	0.070050	0.097522	-0.929041	-0.930326	0.058144	8.718683	-0.934043	-2.929283E+12	-1.984932E-14	NaN
737	1.000000	0.106843	7.37226e+06	-40239.1	1005.82	-29790.8	0.000000	0.000000	6.106782	0.071944	NaN	0.000000	0.001601	0.001744	28.081	0.001410	0.001971	0.715437	-24.6167	-163.105	0.075456	0.105528	-0.921005	-0.922320	0.071944	0.715437	-0.996425	-2.030648E+13	-3.542930E-15	NaN
737	1.000000	0.114858	7.37226e+06	-40239.1	1005.82	-29790.8	0.000000	0.000000	6.114794	0.012827	NaN	0.000000	0.001636	0.001721	28.0809	0.029228	0.001894	15.4338	-35.6811	-166.67	0.107356	0.113544	-0.912991	-0.914304	0.012827	15.4338	-0.913614	-1.552294E+12	-8.263012E-15	NaN
737	1.000000	0.122828	7.37226e+06	-40239.1	1005.82	-29790.8	0.000000	0.000000	6.122764	0.017824	NaN	0.000000	0.001643	0.001731	28.0815	0.037548	0.002069	18.149	-157.08	-163.697	0.029016	0.121546	-0.905020	-0.906302	0.017824	18.149	-0.905757	-1.215756E+12	-1.466119E-14	NaN
737	1.000000	0.130845	7.37226e+06	-40239.1	1005.82	-29790.8	0.000000	0.000000	6.130779	-0.039403	NaN	0.000000	0.001636	0.001769	28.0809	0.052392	0.002039	25.6978	127.258	-165.958	0.027730	0.129535	-0.897003	-0.898314	-0.039403	25.6978	-0.895853	-8.933591E+11	4.410608E-14	NaN
737	1.000000	0.138852	7.37226e+06	-40239.1	1005.82	-29790.8	0.000000	0.000000	6.138788	0.023931	NaN	0.000000	0.001633	0.001733	28.0814	0.045737	0.002029	22.5444	25.9832	-166.197	0.072138	0.137492	-0.888997	-0.890356	0.023931	22.5444	-0.889793	-7.397991E+11	-3.234766E-14	NaN
737	1.000000	0.146856	7.37226e+06	-40239.1	1005.82	-29790.8	0.000000	0.000000	6.146792	0.019715	NaN	0.000000	0.001629	0.001729	28.081	0.083452	0.001963	42.5135	68.2087	-165.813	-0.032441	0.145534	-0.880992	-0.882314	0.019715	42.5135	-0.881340	-5.686332E+11	-3.467054E-14	NaN
737	1.000000	0.154839	7.37226e+06	-40239.1	1005.82	-29790.8	0.000000	0.000000	6.154777	0.057659	NaN	0.000000	0.001628	0.001727	28.081	0.098388	0.002070	47.5206	-21.4932	-166.694	0.033996	0.153533	-0.873009	-0.874315	0.057659	47.5206	-0.873919	-4.512978E+11	-1.277622E-13	NaN
737	1.000000	0.162830	7.37226e+06	-40239.1	1005.82	-29790.8	0.000000	0.000000	6.162765	-0.011987	NaN	0.000000	0.001621	0.001739	28.0824	0.086884	0.001982	43.84	-63.2912	-162.786	-0.054006	0.161510	-0.865019	-0.866338	-0.011987	43.84	-0.864814	-3.398349E+11	3.527356E-14	NaN
737	1.000000	0.170866	7.37226e+06	-40239.1	1005.82	-29790.8	0.000000	0.000000	6.170804	0.061723	NaN	0.000000	0.001653	0.001709	28.0822	0.102839	0.002001	51.4054	153.063	-162.426	0.041901	0.169532	-0.856982	-0.858317	0.061723	51.4054	-0.857883	-2.738162E+11	-2.254167E-13	NaN
737	1.000000	0.178877	7.37226e+06	-40239.1	1005.82	-29790.8	0.000000	0.000000	6.178816	0.102991	NaN	0.000000	0.001652	0.001719	28.0827	0.086761	0.002056	42.2016	144.253	-168.182	0.063129	0.177549	-0.848972	-0.850300	0.102991	42.2016	-0.850802	-2.195830E+11	-4.690286E-13	NaN
737	1.000000	0.186877	7.37226e+06	-40239.1	1005.82	-29790.8	0.000000	0.000000	6.186816	0.088139	NaN	0.000000	0.001655	0.001735	28.0822	0.086661	0.002130	40.6926	74.695	-167.228	0.014807	0.185528	-0.840971	-0.842320	0.088139	40.6926	-0.842596	-1.700031E+11	-5.184558E-13	NaN
737	1.000000	0.194844	7.37226e+06	-40239.1	1005.82	-29790.8	0.000000	0.000000	6.194784	0.098353	NaN	0.000000	0.001674	0.001742	28.0823	0.159413	0.001988	80.1685	-52.5277	-166.616	0.041450	0.193595	-0.833004	-0.834253	0.098353	80.1685	-0.833924	-1.297083E+11	-7.582656E-13	NaN
737	1.000000	0.202866	7.37226e+06	-40239.1	1005.82	-29790.8	0.000000	0.000000	6.202803	0.027681	NaN	0.000000	0.001648	0.001723	28.0824	0.182260	0.002001	91.1059	57.3104	-162.793	-0.037677	0.201574	-0.824982	-0.826274	0.027681	91.1059	-0.825210	-9.882076E+10	-2.801126E-13	NaN
737	1.000000	0.210891	7.37226e+06	-40239.1	1005.82	-29790.8	0.000000	0.000000	6.210827	0.029301	NaN	0.000000	0.001633	0.001717	28.0823	0.054122	0.001990	27.2002	8.473089	-162.017	0.028843	0.209557	-0.816957	-0.818291	0.029301	27.2002	-0.817765	-7.832625E+10	-3.740886E-13	NaN
737	1.000000	0.218858	7.37226e+06	-40239.1	1005.82	-29790.8	0.000000	0.000000	6.218792	-0.029682	NaN	0.000000	0.001634	0.001708	28.0825	0.045490	0.002009	22.6442	-53.8014	-163.908	0.037331	0.217576	-0.808990	-0.810272	-0.029682	22.6442	-0.808007	-5.774738E+10	5.139991E-13	NaN
737	1.000000	0.226889	7.37226e+06	-40239.1	1005.82	-29790.8	0.000000	0.000000	6.226828	0.090596	NaN	0.000000	0.001648	0.001682	28.0823	0.073137	0.001999	36.595	163.813	-165.72	0.086183	0.225523	-0.800960	-0.802325	0.090596	36.595	-0.802816	-4.910114E+10	-1.845091E-12	NaN
737	1.000000	0.234901	7.37226e+06	-40239.1	1005.82	-29790.8	0.000000	0.000000	6.234837	0.029570	NaN	0.000000	0.001650	0.001719	28.0824	0.078263	0.002189	35.7511	-41.9573	-162.957	0.041486	0.233540	-0.792948	-0.794309	0.029570	35.7511	-0.793568	-3.677356E+10	-8.040986E-13	NaN
737	1.000000	0.242893	7.37226e+06	-40239.1	1005.82	-29790.8	0.000000	0.000000	6.242831	0.081240	NaN	0.000000	0.001677	0.001693	28.0825	0.051495	0.002113	24.3741	-171.202	-161.098	0.067018	0.241586	-0.784956	-0.786262	0.081240	24.3741	-0.787456	-3.037548E+10	-2.674523E-12	NaN
737	1.000000	0.250889	7.37226e+06	-40239.1	1005.82	-29790.8	0.000000	0.000000	6.250829	0.119470	NaN	0.000000	0.001677	0.001754	28.0823	0.055993	0.001943	28.8129	-47.2319	-166.787	0.121494	0.249549	-0.776960	-0.778300	0.119470	28.8129	-0.780069	-2.410873E+10	-4.955483E-12	NaN
737	1.000000	0.258888	7.37226e+06	-40239.1	1005.82	-29790.8	0.000000	0.000000	6.258824	0.018411	NaN	0.000000	0.001600	0.001757	28.0824	0.069293	0.001837	37.713	77.2929	-170.001	-0.066365	0.257560	-0.768961	-0.770288	0.018411	37.713	-0.769327	-1.722468E+10	-1.068866E-12	NaN
737	1.000000	0.266927	7.37226e+06	-40239.1	1005.82	-29790.8	0.000000	0.000000	6.266864	0.045845	NaN	0.000000	0.001606	0.001741	28.0823	0.030703	0.001924	15.9565	-103.894	-165.144	0.017511	0.265546	-0.760922	-0.762303	0.045845	15.9565	-0.763076	-1.416289E+10	-3.237001E-12	NaN
737	1.000000	0.274884	7.37226e+06	-40239.1	1005.82	-29790.8	0.000000	0.000000	6.274823	0.092179	NaN	0.000000	0.001620	0.001756	28.0827	0.130931	0.002163	60.5183	55.8704	-165.929	0.001615	0.273610	-0.752964	-0.754238	0.092179	60.5183	-0.754107	-1.069339E+10	-8.620159E-12	NaN
737	1.000000	0.282905	7.37226e+06	-40239.1	1005.82	-29790.8	0.000000	0.000000	6.282844	0.089250	NaN	0.000000	0.001647	0.001730	28.0823	0.046500	0.001840	25.2729	11.8023	-163.413	0.039066	0.281538	-0.744943	-0.746310	0.089250	25.2729	-0.747592	-8.718439E+9	-1.023692E-11	NaN
737	1.000000	0.290914	7.37226e+06	-40239.1	1005.82	-29790.8	0.000000	0.000000	6.290848	-0.028089	NaN	0.000000	0.001605	0.001708	28.0819	0.082559	0.001978	41.7395	160.138	-163.967	0.083796	0.289583	-0.736935	-0.738265	-0.028089	41.7395	-0.736430	-6.143632E+9	4.571971E-12	NaN
737	1.000000	0.298905	7.37226e+06	-40239.1	1005.82	-29790.8	0.000000	0.000000	6.298843	0.052065	NaN	0.000000	0.001625	0.001684	28.0811	0.082688	0.002103	39.3197	-71.0827	-167.214	0.016036	0.297653	-0.728943	-0.730195	0.052065	39.3197	-0.729936	-5.011186E+9	-1.038974E-11	NaN
737	1.000000	0.306922	7.37226e+06	-40239.1	1005.82	-29790.8	0.000000	0.000000	6.306861	0.071918	NaN	0.000000	0.001636	0.001674	28.081	0.065370	0.002037	32.0954	-141.314	-163.512	0.022319	0.305623	-0.720926	-0.722225	0.071918	32.0954	-0.722607	-3.981233E+9	-1.806413E-11	NaN
737	1.000000	0.314925	7.37226e+06	-40239.1	1005.82	-29790.8	0.000000	0.000000	6.314865	0.094922	NaN	0.000000	0.001643	0.001667	28.0809	0.045426	0.002040	22.2683	155.393	-165.928	0.065817	0.313616	-0.712923	-0.714232	0.094922	22.2683	-0.716120	-3.247505E+9	-2.922926E-11	NaN
737	1.000000	0.322915	7.37226e+06	-40239.1	1005.82	-29790.8	0.000000	0.000000	6.322851	0.016159	NaN	0.000000	0.001634	0.001662	28.0811	0.029716	0.001925	15.4332	-94.7478	-163.256	-0.010906	0.321621	-0.704933	-0.706228	0.016159	15.4332	-0.705719	-2.342137E+9	-6.899058E-12	NaN
737	1.000000	0.330911	7.37226e+06	-40239.1	1005.82	-29790.8	0.000000	0.000000	6.330848	0.029004	NaN	0.000000	0.001621	0.001705	28.0811	0.025465	0.001919	13.2725	4.459073	-166.451	-0.006201	0.329630	-0.696937	-0.698218	0.029004	13.2725	-0.698576	-1.871042E+9	-1.550138E-11	NaN
737	1.000000	0.338927	7.37227e+06	-40239.1	1005.82	-29790.8	0.000000	0.000000	6.338870	0.166060	NaN	0.000000	0.001627	0.001713	28.081	0.035594	0.001940	18.3514	-145.848	-163.663	0.086816	0.337649	-0.688921	-0.690199	0.166060	18.3514	-0.695708	-1.709640E+9	-9.713179E-11	NaN
737	1.000000	0.346957	7.37227e+06	-40239.1	1005.82	-29790.8	0.000000	0.000000	6.346892	-0.023604	NaN	0.000000	0.001645	0.001662	28.0812	0.073204	0.002042	35.8449	-100.481	-167.419	-0.003336	0.345598	-0.680891	-0.682250	-0.023604	35.8449	-0.680397	-1.055938E+9	2.235340E-11	NaN
737	1.000000	0.354938	7.37227e+06	-40239.1	1005.82	-29790.8	0.000000	0.000000	6.354874	0.011108	NaN	0.000000	0.001618	0.001670	28.0813	0.081751	0.001967	41.5715	-8.193649	-164.962	-0.008650	0.353619	-0.672910	-0.674229	0.011108	41.5715	-0.673111	-8.393824E+8	-1.323405E-11	NaN
737	1.000000	0.362907	7.37227e+06	-40239.1	1005.82	-29790.8	0.000000	0.000000	6.362845	0.061158	NaN	0.000000	0.001628	0.001681	28.081	0.072370	0.002060	35.1379	120.245	-168.103	0.110862	0.361573	-0.664941	-0.666275	0.061158	35.1379	-0.666246	-6.760952E+8	-9.045797E-11	NaN
737	1.000000	0.370951	7.37227e+06	-40239.1	1005.82	-29790.8	0.000000	0.000000	6.370889	0.063493	NaN	0.000000	0.001656	0.001696	28.0815	0.048206	0.002068	23.3093	-130.54	-166.494	0.187929	0.369668	-0.656898	-0.658180	0.063493	23.3093	-0.658941	-5.369790E+8	-1.182404E-10	NaN
737	1.000000	0.378949	7.37227e+06	-40239.1	1005.82	-29790.8	0.000000	0.000000	6.378888	0.103014	NaN	0.000000	0.001687	0.001686	28.0811	0.119375	0.001978	60.3587	-73.2572	-166.096	0.102807	0.377647	-0.648900	-0.650201	0.103014	60.3587	-0.650180	-4.072853E+8	-2.529274E-10	NaN
737	1.000000	0.386984	7.37227e+06	-40239.1	1005.82	-29790.8	0.000000	0.000000	6.386921	0.030603	NaN	0.000000	0.001700	0.001688	28.0813	0.075180	0.001940	38.7453	103.131	-161.981	0.030729	0.385671	-0.640864	-0.642177	0.030603	38.7453	-0.641456	-3.092225E+8	-9.896851E-11	NaN
737	1.000000	0.394968	7.37227e+06	-40239.1	1005.82	-29790.8	0.000000	0.000000	6.394904	-0.007954	NaN	0.000000	0.001679	0.001684	28.0812	0.072921	0.002036	35.8235	63.5264	-165.357	0.030683	0.393635	-0.632880	-0.634214	-0.007954	35.8235	-0.632713	-2.345737E+8	3.391003E-11	NaN
737	1.000000	0.402959	7.37227e+06	-40239.1	1005.82	-29790.8	0.000000	0.000000	6.402896	0.036836	NaN	0.000000	0.001678	0.001698	28.0809	0.048542	0.002090	23.2306	142.085	-163.31	-0.012702	0.401649	-0.624889	-0.626199	0.036836	23.2306	-0.626079	-1.901786E+8	-1.936916E-10	NaN
737	1.000000	0.410975	7.37227e+06	-40239.1	1005.82	-29790.8	0.000000	0.000000	6.410911	0.010269	NaN	0.000000	0.001656	0.001685	28.0813	0.091655	0.002099	43.6611	-52.86	-165.892	0.094349	0.409725	-0.616873	-0.618123	0.010269	43.6611	-0.617049	-1.429128E+8	-7.185848E-11	NaN
737	1.000000	0.418945	7.37227e+06	-40239.1	1005.82	-29790.8	0.000000	0.000000	6.418882	0.039259	NaN	0.000000	0.001664	0.001731	28.0811	0.054405	0.002117	25.7003	148.014	-164.927	0.038209	0.417677	-0.608903	-0.610171	0.039259	25.7003	-0.610049	-1.144955E+8	-3.428841E-10	NaN
737	1.000000	0.426945	7.37227e+06	-40239.1	1005.82	-29790.8	0.000000	0.000000	6.426882	0.053478	NaN	0.000000	0.001678	0.001712	28.0813	0.080664	0.001885	42.798	-176.921	-166.203	-0.053792	0.425665	-0.600904	-0.602183	0.053478	42.798	-0.601841	-8.826937E+7	-6.058484E-10	NaN
737	1.000000	0.434983	7.37227e+06	-40239.1	1005.82	-29790.8	0.000000	0.000000	6.434920	0.030414	NaN	0.000000	0.001661	0.001706	28.0823	0.041936	0.001896	22.1235	7.365838	-164.668	0.051475	0.433682	-0.592865	-0.594166	0.030414	22.1235	-0.593896	-6.860761E+7	-4.433059E-10	NaN
737	1.000000	0.442985	7.37227e+06	-40239.1	1005.82	-29790.8	0.000000	0.000000	6.442927	0.147228	NaN	0.000000	0.001655	0.001694	28.0824	0.083585	0.002141	39.0315	-161.947	-166.052	0.131682	0.441647	-0.584863	-0.586201	0.147228	39.0315	-0.587692	-5.634350E+7	-2.613050E-9	NaN
737	1.000000	0.450957	7.37227e+06	-40239.1	1005.82	-29790.8	0.000000	0.000000	6.450892	-0.000789	NaN	0.000000	0.001653	0.001684	28.0827	0.084988	0.001973	43.0771	-128.494	-166.963	0.079095	0.449698	-0.576892	-0.578150	-0.000789	43.0771	-0.576878	-3.996024E+7	1.975350E-11	NaN
737	1.000000	0.458988	7.37227e+06	-40239.1	1005.82	-29790.8	0.000000	0.000000	6.458927	0.082627	NaN	0.000000	0.001693	0.001710	28.0823	0.038427	0.002028	18.9463	-125.517	-168.001	0.109788	0.457666	-0.568860	-0.570183	0.082627	18.9463	-0.572131	-3.436112E+7	-2.404661E-9	NaN
737	1.000000	0.466980	7.37227e+06	-40239.1	1005.82	-29790.8	0.000000	0.000000	6.466919	0.086234	NaN	0.000000	0.001666	0.001687	28.0827	0.086561	0.002027	42.7052	144.88	-164.392	0.130851	0.465703	-0.560868	-0.562145	0.086234	42.7052	-0.562383	-2.519617E+7	-3.422499E-9	NaN
737	1.000000	0.475005	7.37227e+06	-40239.1	1005.82	-29790.8	0.000000	0.000000	6.474942	0.034275	NaN	0.000000	0.001590	0.001726	28.0823	0.029118	0.002074	14.0371	-122.675	-166.437	0.043065	0.473753	-0.552843	-0.554096	0.034275	14.0371	-0.554674	-1.970975E+7	-1.739003E-9	NaN
737	1.000000	0.482988	7.37227e+06	-40239.1	1005.82	-29790.8	0.000000	0.000000	6.482926	0.055722	NaN	0.000000	0.001616	0.001715	28.0824	0.160181	0.001860	86.1167	100.602	-169.304	0.041565	0.481619	-0.544860	-0.546229	0.055722	86.1167	-0.545345	-1.463746E+7	-3.806777E-9	NaN
737	1.000000	0.491018	7.37227e+06	-40239.1	1005.82	-29790.8	0.000000	0.000000	6.490955	0.045251	NaN	0.000000	0.001607	0.001660	28.0827	0.029533	0.002027	14.571	53.3056	-165.775	0.046100	0.489723	-0.536831	-0.538125	0.045251	14.571	-0.539160	-1.201447E+7	-3.766375E-9	NaN
737	1.000000	0.498982	7.37227e+06	-40239.1	1005.82	-29790.8	0.000000	0.000000	6.498920	0.066387	NaN	0.000000	0.001598	0.001711	28.0825	0.040604	0.002161	18.7915	25.7204	-167.424	0.021708	0.497689	-0.528866	-0.530159	0.066387	18.7915	-0.531516	-9.41079e+06	-7.054326E-9	NaN
737	1.000000	0.506974	7.37227e+06	-40239.1	1005.82	-29790.8	0.000000	0.000000	6.506912	0.077413	NaN	0.000000	0.001616	0.001721	28.0831	0.071192	0.002031	35.0598	166.386	-164.178	0.099879	0.505722	-0.520875	-0.522126	0.077413	35.0598	-0.522531	-7.05971e+06	-1.096552E-8	NaN
737	1.000000	0.515036	7.37227e+06	-40239.1	1005.82	-29790.8	0.000000	0.000000	6.514972	0.013261	NaN	0.000000	0.001626	0.001685	28.0825	0.022317	0.002029	10.9984	66.4939	-165.451	0.047950	0.513687	-0.512812	-0.514161	0.013261	10.9984	-0.513717	-5.32315e+06	-2.491132E-9	NaN
737	1.000000	0.523042	7.37227e+06	-40239.1	1005.82	-29790.8	0.000000	0.000000	6.522978	0.010944	NaN	0.000000	0.001591	0.001718	28.0827	0.041209	0.001960	21.0203	-45.1266	-166.97	0.058971	0.521686	-0.504807	-0.506162	0.010944	21.0203	-0.505197	-4.05033e+06	-2.701950E-9	NaN
737	1.000000	0.531020	7.37227e+06	-40239.1	1005.82	-29790.8	0.000000	0.000000	6.530955	-0.021700	NaN	0.000000	0.001630	0.001727	28.0827	0.105239	0.001932	54.4853	140.692	-164.34	0.005011	0.529721	-0.496828	-0.498127	-0.021700	54.4853	-0.496529	-3.06609e+06	7.077522E-9	NaN
737	1.000000	0.538987	7.37227e+06	-40239.1	1005.82	-29790.8	0.000000	0.000000	6.538922	-0.007104	NaN	0.000000	0.001638	0.001671	28.0824	0.161696	0.002068	78.1827	-177.613	-161.922	-0.039874	0.537697	-0.488862	-0.490151	-0.007104	78.1827	-0.488794	-2.39073e+06	2.971347E-9	NaN
737	1.000000	0.546992	7.37227e+06	-40239.1	1005.82	-29790.8	0.000000	0.000000	6.546927	-0.005669	NaN	0.000000	0.001613	0.001685	28.0826	0.088675	0.002057	43.1128	19.2503	-166.434	-0.060835	0.545663	-0.480857	-0.482185	-0.005669	43.1128	-0.480758	-1.8456e+06	3.071693E-9	NaN
737	1.000000	0.555046	7.37227e+06	-40239.1	1005.82	-29790.8	0.000000	0.000000	6.554983	0.028729	NaN	0.000000	0.001605	0.001683	28.0826	0.065437	0.001974	33.1524	-97.8092	-164.872	-0.038328	0.553750	-0.472802	-0.474098	0.028729	33.1524	-0.473452	-1.45816e+06	-1.970242E-8	NaN
737	1.000000	0.563011	7.37227e+06	-40239.1	1005.82	-29790.8	0.000000	0.000000	6.562950	0.066590	NaN	0.000000	0.001591	0.001728	28.0826	0.051468	0.001972	26.0968	-9.185130	-163.661	0.061959	0.561703	-0.464837	-0.466146	0.066590	26.0968	-0.466751	-1.17441e+06	-5.670029E-8	NaN
737	1.000000	0.571008	7.37227e+06	-40239.1	1005.82	-29790.8	0.000000	0.000000	6.570946	0.046372	NaN	0.000000	0.001628	0.001684	28.0814	0.034646	0.001988	17.43	3.182755	-166.095	0.009133	0.569661	-0.456840	-0.458187	0.046372	17.43	-0.458835	-909182	-5.100449E-8	NaN
737	1.000000	0.579032	7.37227e+06	-40239.1	1005.82	-29790.8	0.000000	0.000000	6.578969	0.028200	NaN	0.000000	0.001625	0.001686	28.0812	0.085828	0.001928	44.5163	15.0326	-165.934	0.016657	0.577721	-0.448816	-0.450128	0.028200	44.5163	-0.449291	-667366	-4.225632E-8	NaN
737	1.000000	0.587014	7.37227e+06	-40239.1	1005.82	-29790.8	0.000000	0.000000	6.586951	0.022512	NaN	0.000000	0.001587	0.001694	28.0812	0.051744	0.001957	26.44	68.9674	-166.829	-0.000266	0.585734	-0.440834	-0.442114	0.022512	26.44	-0.441472	-517776	-4.347907E-8	NaN
737	1.000000	0.595056	7.37227e+06	-40239.1	1005.82	-29790.8	0.000000	0.000000	6.594995	0.095093	NaN	0.000000	0.001602	0.001665	28.0813	0.027431	0.002167	12.6597	146.839	-163.651	0.098039	0.593756	-0.432793	-0.434092	0.095093	12.6597	-0.438426	-468974	-2.027682E-7	NaN
737	1.000000	0.603042	7.37227e+06	-40239.1	1005.82	-29790.8	0.000000	0.000000	6.602981	0.071818	NaN	0.000000	0.001588	0.001659	28.0815	0.031397	0.002003	15.6754	5.150885	-166.579	0.049173	0.601704	-0.424806	-0.426144	0.071818	15.6754	-0.428242	-336658	-2.133271E-7	NaN
737	1.000000	0.611043	7.37227e+06	-40239.1	1005.82	-29790.8	0.000000	0.000000	6.610979	0.010535	NaN	0.000000	0.001599	0.001672	28.0815	0.019321	0.002097	9.213001	110.824	-165.971	0.035094	0.609707	-0.416805	-0.418141	0.010535	9.213001	-0.417663	-238371	-4.419428E-8	NaN
737	1.000000	0.619030	7.37227e+06	-40239.1	1005.82	-29790.8	0.000000	0.000000	6.618967	0.015545	NaN	0.000000	0.001587	0.001657	28.0816	0.062868	0.002078	30.2527	-37.2364	-165.181	-0.018448	0.617757	-0.408818	-0.410091	0.015545	30.2527	-0.409203	-180746	-8.600240E-8	NaN
737	1.000000	0.627053	7.37227e+06	-40239.1	1005.82	-29790.8	0.000000	0.000000	6.626989	0.019386	NaN	0.000000	0.001610	0.001686	28.0811	0.069077	0.002038	33.9022	70.4747	-163.355	-0.044186	0.625738	-0.400795	-0.402110	0.019386	33.9022	-0.401224	-139139	-1.393301E-7	NaN
737	1.000000	0.635051	7.37227e+06	-40239.1	1005.82	-29790.8	0.000000	0.000000	6.634991	0.086717	NaN	0.000000	0.001587	0.001692	28.0815	0.047435	0.001935	24.516	-140.686	-166.296	0.110705	0.633772	-0.392797	-0.394076	0.086717	24.516	-0.395450	-115095	-7.534391E-7	NaN
737	1.000000	0.643074	7.37227e+06	-40239.1	1005.82	-29790.8	0.000000	0.000000	6.643012	0.059568	NaN	0.000000	0.001577	0.001699	28.0817	0.042366	0.002117	20.0127	-69.9429	-164.74	0.056673	0.641755	-0.384774	-0.386093	0.059568	20.0127	-0.387007	-87162	-6.834148E-7	NaN
737	1.000000	0.651070	7.37227e+06	-40239.1	1005.82	-29790.8	0.000000	0.000000	6.651007	0.039131	NaN	0.000000	0.001633	0.001672	28.0813	0.047855	0.001934	24.7492	112.035	-169.873	0.025587	0.649734	-0.376778	-0.378115	0.039131	24.7492	-0.377964	-64663.8	-6.051388E-7	NaN
737	1.000000	0.659070	7.37227e+06	-40239.1	1005.82	-29790.8	0.000000	0.000000	6.659007	0.034335	NaN	0.000000	0.001601	0.001666	28.0815	0.061572	0.002000	30.7931	25.083	-165.853	-0.007060	0.657757	-0.368778	-0.370091	0.034335	30.7931	-0.369615	-49043.1	-7.000965E-7	NaN
737	1.000000	0.667058	7.37227e+06	-40239.1	1005.82	-29790.8	0.000000	0.000000	6.666995	0.026124	NaN	0.000000	0.001596	0.001704	28.0814	0.103278	0.002018	51.1746	130.628	-161.969	-0.077356	0.665800	-0.360790	-0.362048	0.026124	51.1746	-0.361173	-37050.5	-7.050867E-7	NaN
737	1.000000	0.675067	7.37227e+06	-40239.1	1005.82	-29790.8	0.000000	0.000000	6.675004	0.038058	NaN	0.000000	0.001619	0.001664	28.0814	0.071673	0.001982	36.1644	12.9216	-160.61	-0.031605	0.673755	-0.352781	-0.354094	0.038058	36.1644	-0.353570	-28759.4	-1.323315E-6	NaN
737	1.000000	0.683083	7.37227e+06	-40239.1	1005.82	-29790.8	0.000000	0.000000	6.683021	0.051701	NaN	0.000000	0.001592	0.001668	28.0814	0.119704	0.001983	60.3578	-43.7993	-167.485	0.125195	0.681763	-0.344765	-0.346085	0.051701	60.3578	-0.345407	-21891.8	-2.361663E-6	NaN
737	1.000000	0.691074	7.37227e+06	-40239.1	1005.82	-29790.8	0.000000	0.000000	6.691014	0.107296	NaN	0.000000	0.001632	0.001675	28.0814	0.044407	0.002199	20.1965	42.076	-165.26	0.082475	0.689809	-0.336775	-0.338039	0.107296	20.1965	-0.340759	-18733.3	-5.727560E-6	NaN
737	1.000000	0.699093	7.37227e+06	-40239.1	1005.82	-29790.8	0.000000	0.000000	6.699030	0.051086	NaN	0.000000	0.001628	0.001692	28.0817	0.153364	0.002004	76.5232	-92.4104	-167.545	0.083088	0.697748	-0.328756	-0.330100	0.051086	76.5232	-0.329256	-12722.1	-4.015507E-6	NaN
737	1.000000	0.707091	7.37227e+06	-40239.1	1005.82	-29790.8	0.000000	0.000000	6.707028	0.044587	NaN	0.000000	0.001623	0.001714	28.0826	0.097706	0.001939	50.3838	-4.906627	-164.612	0.061544	0.705764	-0.320758	-0.322084	0.044587	50.3838	-0.321421	-9762.23	-4.567306E-6	NaN
737	1.000000	0.715080	7.37227e+06	-40239.1	1005.82	-29790.8	0.000000	0.000000	6.715017	0.035712	NaN	0.000000	0.001628	0.001700	28.0833	0.129840	0.001954	66.4322	166.911	-164.098	0.056732	0.713770	-0.312769	-0.314078	0.035712	66.4322	-0.313172	-7378.23	-4.840176E-6	NaN
737	1.000000	0.723099	7.37227e+06	-40239.1	1005.82	-29790.8	0.000000	0.000000	6.723038	0.085824	NaN	0.000000	0.001578	0.001696	28.0826	0.088196	0.002161	40.8129	-131.156	-165.777	0.074224	0.721768	-0.304749	-0.306081	0.085824	40.8129	-0.306327	-5843	-1.468840E-5	NaN
737	1.000000	0.731076	7.37227e+06	-40239.1	1005.82	-29790.8	0.000000	0.000000	6.731015	0.070863	NaN	0.000000	0.001657	0.001677	28.0826	0.096675	0.001974	48.9723	-21.8539	-164.11	0.101617	0.729752	-0.296772	-0.298096	0.070863	48.9723	-0.297857	-4372.39	-1.620689E-5	NaN
737	1.000000	0.739092	7.37227e+06	-40239.1	1005.82	-29790.8	0.000000	0.000000	6.739031	0.085982	NaN	0.000000	0.001682	0.001712	28.083	0.054770	0.002000	27.3823	176.931	-162.835	-0.033305	0.737814	-0.288757	-0.290034	0.085982	27.3823	-0.291112	-3466.96	-2.480035E-5	NaN
737	1.000000	0.747092	7.37227e+06	-40239.1	1005.82	-29790.8	0.000000	0.000000	6.747026	-0.042113	NaN	0.000000	0.001692	0.001692	28.0826	0.060928	0.002079	29.3126	25.99	-166.975	-0.137152	0.745808	-0.280756	-0.282040	-0.042113	29.3126	-0.279679	-2334.12	1.804239E-5	NaN
737	1.000000	0.755108	7.37227e+06	-40239.1	1005.82	-29790.8	0.000000	0.000000	6.755046	0.076824	NaN	0.000000	0.001691	0.001713	28.0829	0.020639	0.002105	9.803898	8.951461	-167.153	0.018346	0.753822	-0.272741	-0.274026	0.076824	9.803898	-0.278618	-2249.61	-3.414989E-5	NaN
737	1.000000	0.763115	7.37227e+06	-40239.1	1005.82	-29790.8	0.000000	0.000000	6.763053	0.057167	NaN	0.000000	0.001681	0.001689	28.0824	0.082154	0.001977	41.5467	-34.506	-163.699	0.024433	0.761822	-0.264733	-0.266026	0.057167	41.5467	-0.265765	-1435.7	-3.981827E-5	NaN
737	1.000000	0.771115	7.37227e+06	-40239.1	1005.82	-29790.8	0.000000	0.000000	6.771049	-0.028108	NaN	0.000000	0.001680	0.001711	28.0826	0.018274	0.002038	8.967768	114.012	-163.076	-0.092681	0.769840	-0.256734	-0.258009	-0.028108	8.967768	-0.254383	-960.758	2.925603E-5	NaN
737	1.000000	0.779123	7.37227e+06	-40239.1	1005.82	-29790.8	0.000000	0.000000	6.779059	0.025781	NaN	0.000000	0.001687	0.001699	28.083	0.129667	0.001822	71.1598	60.1613	-166.486	0.034529	0.777789	-0.248725	-0.250059	0.025781	71.1598	-0.248997	-793.323	-3.249787E-5	NaN
737	1.000000	0.787147	7.37227e+06	-40239.1	1005.82	-29790.8	0.000000	0.000000	6.787085	0.061495	NaN	0.000000	0.001671	0.001681	28.0826	0.058198	0.001976	29.4456	-120.825	-165.574	0.078071	0.785808	-0.240701	-0.242040	0.061495	29.4456	-0.242267	-623.63	-9.860873E-5	NaN
737	1.000000	0.795140	7.37227e+06	-40239.1	1005.82	-29790.8	0.000000	0.000000	6.795073	-0.041520	NaN	0.000000	0.001688	0.001671	28.0828	0.069750	0.002044	34.1263	153.277	-161.077	-0.028283	0.793838	-0.232709	-0.234010	-0.041520	34.1263	-0.231796	-427.416	9.714188E-5	NaN
737	1.000000	0.803121	7.37227e+06	-40239.1	1005.82	-29790.8	0.000000	0.000000	6.803057	0.027412	NaN	0.000000	0.001642	0.001688	28.0826	0.040469	0.001951	20.7384	-32.9067	-165.483	0.045038	0.801822	-0.224728	-0.226027	0.027412	20.7384	-0.225719	-342.572	-8.001943E-5	NaN
737	1.000000	0.811131	7.37227e+06	-40239.1	1005.82	-29790.8	0.000000	0.000000	6.811071	0.110783	NaN	0.000000	0.001616	0.001639	28.0826	0.033227	0.002062	16.1141	158.916	-168.416	0.108335	0.809853	-0.216717	-0.217995	0.110783	16.1141	-0.221874	-297.566	-0.000372	NaN
737	1.000000	0.819129	7.37227e+06	-40239.1	1005.82	-29790.8	0.000000	0.000000	6.819062	-0.059108	NaN	0.000000	0.001605	0.001681	28.0827	0.092393	0.002120	43.5836	168.126	-163.078	-0.078073	0.817793	-0.208720	-0.210055	-0.059108	43.5836	-0.207703	-176.016	0.000336	NaN
737	1.000000	0.827098	7.37227e+06	-40239.1	1005.82	-29790.8	0.000000	0.000000	6.827033	-0.028893	NaN	0.000000	0.001626	0.001690	28.0823	0.063421	0.002051	30.9154	62.8649	-164.45	-0.008202	0.825871	-0.200750	-0.201977	-0.028893	30.9154	-0.200049	-131.978	0.000219	NaN
737	1.000000	0.835138	7.37227e+06	-40239.1	1005.82	-29790.8	0.000000	0.000000	6.835074	0.009540	NaN	0.000000	0.001592	0.001719	28.083	0.094789	0.002043	46.3984	61.4097	-165.735	-0.011466	0.833784	-0.192710	-0.194064	0.009540	46.3984	-0.192864	-100.407	-9.501381E-5	NaN
737	1.000000	0.843161	7.37227e+06	-40239.1	1005.82	-29790.8	0.000000	0.000000	6.843098	0.027765	NaN	0.000000	0.001582	0.001742	28.0812	0.047264	0.001909	24.7604	129.581	-166.625	0.012629	0.841807	-0.184687	-0.186041	0.027765	24.7604	-0.185528	-75.6882	-0.000367	NaN
737	1.000000	0.851159	7.37227e+06	-40239.1	1005.82	-29790.8	0.000000	0.000000	6.851096	0.021140	NaN	0.000000	0.001624	0.001645	28.0814	0.171360	0.001882	91.0461	-170.045	-163.932	0.084930	0.849833	-0.176689	-0.178015	0.021140	91.0461	-0.176863	-53.943	-0.000392	NaN
737	1.000000	0.859118	7.37227e+06	-40239.1	1005.82	-29790.8	0.000000	0.000000	6.859057	0.080790	NaN	0.000000	0.001654	0.001689	28.0813	0.111052	0.001951	56.9098	-11.229	-163.222	0.048052	0.857821	-0.168730	-0.170028	0.080790	56.9098	-0.169795	-40.7424	-0.001983	NaN
737	1.000000	0.867194	7.37227e+06	-40239.1	1005.82	-29790.8	0.000000	0.000000	6.867129	-0.014268	NaN	0.000000	0.001593	0.001717	28.0813	0.136956	0.001995	68.6651	-15.8597	-164.927	0.016977	0.865820	-0.160654	-0.162028	-0.014268	68.6651	-0.160498	-27.9789	0.000510	NaN
737	1.000000	0.875168	7.37227e+06	-40239.1	1005.82	-29790.8	0.000000	0.000000	6.875107	0.085820	NaN	0.000000	0.001605	0.001698	28.0816	0.096065	0.001919	50.0575	132.843	-167.642	0.053345	0.873837	-0.152681	-0.154011	0.085820	50.0575	-0.153966	-21.3774	-0.004015	NaN
737	1.000000	0.883147	7.37227e+06	-40239.1	1005.82	-29790.8	0.000000	0.000000	6.883083	0.022286	NaN	0.000000	0.001606	0.001735	28.0812	0.017358	0.001982	8.758954	-91.0239	-165.009	0.030355	0.881820	-0.144702	-0.146029	0.022286	8.758954	-0.146610	-15.6993	-0.001420	NaN
737	1.000000	0.891156	7.37227e+06	-40239.1	1005.82	-29790.8	0.000000	0.000000	6.891094	0.058452	NaN	0.000000	0.001636	0.001723	28.0815	0.089995	0.002043	44.0495	-163.925	-163.104	0.009503	0.889829	-0.136692	-0.138020	0.058452	44.0495	-0.137687	-10.6994	-0.005463	NaN
737	1.000000	0.899166	7.37227e+06	-40239.1	1005.82	-29790.8	0.000000	0.000000	6.899104	0.060821	NaN	0.000000	0.001641	0.001754	28.0812	0.031844	0.002081	15.3039	-41.4162	-168.301	0.021744	0.897857	-0.128682	-0.129992	0.060821	15.3039	-0.131663	-8.207528	-0.007410	NaN
737	1.000000	0.907143	7.37227e+06	-40239.1	1005.82	-29790.8	0.000000	0.000000	6.907078	-0.029082	NaN	0.000000	0.001608	0.001694	28.0813	0.057726	0.001958	29.4785	110.906	-165.223	-0.018727	0.905886	-0.120705	-0.121962	-0.029082	29.4785	-0.119965	-4.823688	0.006029	NaN
737	1.000000	0.915129	7.37227e+06	-40239.1	1005.82	-29790.8	0.000000	0.000000	6.915067	0.074079	NaN	0.000000	0.001629	0.001725	28.0814	0.026479	0.001947	13.6007	-153.714	-166.897	0.094799	0.913901	-0.112720	-0.113947	0.074079	13.6007	-0.116805	-4.160640	-0.017805	NaN
737	1.000000	0.923169	7.37227e+06	-40239.1	1005.82	-29790.8	0.000000	0.000000	6.923106	0.022523	NaN	0.000000	0.001672	0.001712	28.0811	0.040320	0.001938	20.8035	18.1444	-168.746	0.063131	0.921822	-0.104679	-0.106026	0.022523	20.8035	-0.105491	-2.408606	-0.009351	NaN
737	1.000000	0.931172	7.37227e+06	-40239.1	1005.82	-29790.8	0.000000	0.000000	6.931107	-0.025407	NaN	0.000000	0.001671	0.001711	28.0814	0.030350	0.001969	15.4169	-89.7146	-162.964	0.023761	0.929871	-0.096676	-0.097977	-0.025407	15.4169	-0.095440	-1.443522	0.017600	NaN
737	1.000000	0.939182	7.37227e+06	-40239.1	1005.82	-29790.8	0.000000	0.000000	6.939119	0.030227	NaN	0.000000	0.001699	0.001714	28.0811	0.087666	0.002095	41.8375	64.476	-160.532	-0.025774	0.937869	-0.088666	-0.089980	0.030227	41.8375	-0.089208	-1.035589	-0.029188	NaN
737	1.000000	0.947177	7.37227e+06	-40239.1	1005.82	-29790.8	0.000000	0.000000	6.947116	0.077658	NaN	0.000000	0.001613	0.001705	28.0815	0.047426	0.002063	22.991	-115.31	-168.031	0.101146	0.945876	-0.080671	-0.081972	0.077658	22.991	-0.083205	-0.742973	-0.104524	NaN
737	1.000000	0.955168	7.37227e+06	-40239.1	1005.82	-29790.8	0.000000	0.000000	6.955107	0.072132	NaN	0.000000	0.001607	0.001737	28.0813	0.041874	0.001941	21.5698	-134.002	-166.213	0.096105	0.953855	-0.072680	-0.073994	0.072132	21.5698	-0.075188	-0.467067	-0.154436	NaN
737	1.000000	0.963200	7.37227e+06	-40239.1	1005.82	-29790.8	0.000000	0.000000	6.963137	0.039796	NaN	0.000000	0.001652	0.001705	28.0815	0.082888	0.002135	38.8147	-137.943	-162.294	0.022226	0.961900	-0.064648	-0.065948	0.039796	38.8147	-0.065417	-0.255940	-0.155489	NaN
737	1.000000	0.971186	7.37227e+06	-40239.1	1005.82	-29790.8	0.000000	0.000000	6.971121	0.008072	NaN	0.000000	0.001616	0.001752	28.0811	0.029946	0.001923	15.5735	-69.0102	-169.286	0.019233	0.969889	-0.056663	-0.057959	0.008072	15.5735	-0.057051	-0.147955	-0.054558	NaN
737	1.000000	0.979207	7.37227e+06	-40239.1	1005.82	-29790.8	0.000000	0.000000	6.979145	0.061126	NaN	0.000000	0.001619	0.001694	28.0824	0.060731	0.001924	31.5593	-177.767	-164.32	0.082144	0.977964	-0.048641	-0.049884	0.061126	31.5593	-0.050094	-0.091849	-0.665498	NaN
737	1.000000	0.987204	7.37227e+06	-40239.1	1005.82	-29790.8	0.000000	0.000000	6.987139	-0.016417	NaN	0.000000	0.001605	0.001712	28.0827	0.097232	0.002030	47.9054	-4.830102	-164.383	0.048929	0.985910	-0.040645	-0.041938	-0.016417	47.9054	-0.040388	-0.046465	0.353317	NaN
737	1.000000	0.995195	7.37227e+06	-40239.1	1005.82	-29790.8	0.000000	0.000000	6.995136	0.134747	NaN	0.000000	0.001631	0.001710	28.0824	0.097860	0.002046	47.8268	-88.9442	-164.996	0.115356	0.993881	-0.032654	-0.033968	0.134747	47.8268	-0.034767	-0.031522	-4.274661	NaN
737	1.000000	1.003194	7.37227e+06	-40239.1	1005.82	-29790.8	0.000000	0.000000	7.003129	-0.019173	NaN	0.000000	0.001601	0.001720	28.0829	0.167683	0.002009	83.4489	121.801	-163.36	-0.012879	1.001906	-0.024654	-0.025943	-0.019173	83.4489	-0.024482	-0.016354	1.172371	NaN
737	1.000000	1.011234	7.37227e+06	-40239.1	1005.82	-29790.8	0.000000	0.000000	7.011170	0.009229	NaN	0.000000	0.001629	0.001706	28.0825	0.048944	0.002102	23.2817	78.9165	-164.679	0.050695	1.009884	-0.016614	-0.017964	0.009229	23.2817	-0.016911	-0.010454	-0.882796	NaN
737	1.000000	1.019216	7.37227e+06	-40239.1	1005.82	-29790.8	0.000000	0.000000	7.019152	-0.000252	NaN	0.000000	0.001624	0.001726	28.0825	0.078759	0.001882	41.8529	69.4436	-165.97	-0.065036	1.017926	-0.008632	-0.009922	-0.000252	41.8529	-0.008628	-0.005597	0.045013	NaN
737	1.000000	1.027179	7.37227e+06	-40239.1	1005.82	-29790.8	0.000000	0.000000	7.027255	3.417977	NaN	0.000000	0.001605	0.001731	28.0825	4.082351	0.001833	2227.45	6.546269	-163.699	2.170914	1.025884	-0.000669	-0.001964	3.417977	2227.45	-0.001820	-0.001314	-2600.97	NaN
737	2.000000	1.032757	7.37227e+06	-40239.1	1005.82	-29790.8	0.000000	0.000000	7.033099	9.889420	NaN	0.000000	0.001588	0.001742	28.0825	10.0831	0.001656	6090.05	7.915902	-174.124	9.312966	1.032484	0.004909	0.004636	9.889420	6090.05	0.003691	0.002970	3329.91	102100
737	2.000000	1.034709	7.37227e+06	-40239.1	1005.82	-29790.8	0.000000	0.000000	7.035267	15.1287	NaN	0.000000	0.001601	0.001759	28.0831	13.1474	0.001796	7321.58	7.135493	-174.634	14.3893	1.034476	0.006861	0.006628	15.1287	7321.58	0.005311	0.004419	3423.32	100624
737	2.000000	1.036681	7.37227e+06	-40239.1	1005.82	-29790.8	0.000000	0.000000	7.037445	20.1572	NaN	0.000000	0.001635	0.001740	28.0825	14.4802	0.001704	8496.46	3.910718	-173.281	18.5626	1.036411	0.008833	0.008562	20.1572	8496.46	0.007054	0.006087	3311.46	99496.1
737	2.000000	1.038687	7.37227e+06	-40239.1	1005.82	-29790.8	0.000000	0.000000	7.039491	21.1357	NaN	0.000000	0.001626	0.001719	28.0825	16.5889	0.001649	10058.1	8.076389	-178.124	21.0916	1.038429	0.010838	0.010581	21.1357	10058.1	0.009262	0.008373	2524.18	100425
737	2.000000	1.040750	7.37227e+06	-40239.1	1005.82	-29790.8	0.000000	0.000000	7.041635	23.0955	NaN	0.000000	0.001639	0.001688	28.0824	18.6483	0.001883	9904.85	5.435522	-173.358	24.4517	1.040463	0.012902	0.012615	23.0955	9904.85	0.011153	0.010491	2201.42	88350.6
737	2.000000	1.042712	7.37227e+06	-40239.1	1005.82	-29790.8	0.000000	0.000000	7.043814	28.3926	NaN	0.000000	0.001622	0.001651	28.0825	20.8312	0.001904	10941.9	5.533318	-175.488	28.6677	1.042408	0.014864	0.014560	28.3926	10941.9	0.012918	0.012608	2251.95	89031
737	2.000000	1.044699	7.37227e+06	-40239.1	1005.82	-29790.8	0.000000	0.000000	7.045992	33.0236	NaN	0.000000	0.001591	0.001675	28.0828	22.9347	0.001873	12246.5	3.429681	-174.849	32.4197	1.044370	0.016851	0.016522	33.0236	12246.5	0.014829	0.015058	2193.15	91181.7
737	2.000000	1.046630	7.37227e+06	-40239.1	1005.82	-29790.8	0.000000	0.000000	7.047994	34.7633	NaN	0.000000	0.001582	0.001677	28.0824	23.9909	0.001814	13225.6	5.536475	-178.231	32.1591	1.046293	0.018782	0.018445	34.7633	13225.6	0.016810	0.017776	1955.66	90630.7
737	2.000000	1.048695	7.37227e+06	-40239.1	1005.82	-29790.8	0.000000	0.000000	7.050316	41.0255	NaN	0.000000	0.001575	0.001663	28.0832	25.7298	0.001825	14099.5	5.510500	-177.949	41.3625	1.048367	0.020847	0.020519	41.0255	14099.5	0.018664	0.020487	2002.54	89999.5
737	2.000000	1.050714	7.37227e+06	-40239.1	1005.82	-29790.8	0.000000	0.000000	7.052501	45.0344	NaN	0.000000	0.001569	0.001663	28.0826	27.5159	0.001838	14968.5	5.096285	-177.426	44.5391	1.050353	0.022866	0.022505	45.0344	14968.5	0.020610	0.023510	1915.58	89192.6
737	2.000000	1.052677	7.37227e+06	-40239.1	1005.82	-29790.8	0.000000	0.000000	7.054829	53.9284	NaN	0.000000	0.001594	0.001678	28.081	29.2791	0.001748	16753.6	4.194727	-178.404	53.8039	1.052285	0.024829	0.024437	53.9284	16753.6	0.022415	0.026480	2036.59	94064.1
737	2.000000	1.054633	7.37227e+06	-40239.1	1005.82	-29790.8	0.000000	0.000000	7.057099	61.5748	NaN	0.000000	0.001620	0.001663	28.0814	31.3666	0.001829	17145.1	5.223432	-179.537	60.1375	1.054328	0.026785	0.026480	61.5748	17145.1	0.024091	0.029383	2095.62	91383.5
737	2.000000	1.056671	7.37227e+06	-40239.1	1005.82	-29790.8	0.000000	0.000000	7.059033	59.0432	NaN	0.000000	0.001610	0.001676	28.0811	32.0656	0.001639	19561.7	4.614969	179.339	58.4731	1.056354	0.028823	0.028505	59.0432	19561.7	0.026559	0.033913	1741	97049.9
737	2.000000	1.058644	7.37227e+06	-40239.1	1005.82	-29790.8	0.000000	0.000000	7.061382	68.1857	NaN	0.000000	0.001578	0.001659	28.0815	34.8837	0.001882	18533.3	1.834030	-177.1	67.564	1.058335	0.030796	0.030487	68.1857	18533.3	0.028037	0.036773	1854.25	88300.7
737	2.000000	1.060681	7.37227e+06	-40239.1	1005.82	-29790.8	0.000000	0.000000	7.063675	74.438	NaN	0.000000	0.001586	0.001671	28.0811	37.2909	0.001798	20737.2	7.150390	176.789	73.89	1.060384	0.032833	0.032536	74.438	20737.2	0.030140	0.041035	1814.01	93529
737	2.000000	1.062638	7.37227e+06	-40239.1	1005.82	-29790.8	0.000000	0.000000	7.066167	87.4276	NaN	0.000000	0.001610	0.001713	28.0814	38.0813	0.001699	22409.1	6.616299	176.419	85.6236	1.062256	0.034790	0.034408	87.4276	22409.1	0.031864	0.044696	1956.07	96842.3
737	2.000000	1.064662	7.37227e+06	-40239.1	1005.82	-29790.8	0.000000	0.000000	7.068223	88.2361	NaN	0.000000	0.001578	0.001694	28.0814	40.7809	0.001847	22078.5	6.692797	177.921	89.4079	1.064289	0.036814	0.036441	88.2361	22078.5	0.033816	0.049025	1799.8	91102.8
737	2.000000	1.066593	7.37227e+06	-40239.1	1005.82	-29790.8	0.000000	0.000000	7.070480	96.1543	NaN	0.000000	0.001578	0.001713	28.0813	41.3183	0.001770	23337.9	2.364725	-179.988	93.0726	1.066324	0.038745	0.038476	96.1543	23337.9	0.035655	0.053282	1804.62	92372.6
737	2.000000	1.068564	7.37227e+06	-40239.1	1005.82	-29790.8	0.000000	0.000000	7.072591	99.5727	NaN	0.000000	0.001603	0.001665	28.0825	43.3346	0.001819	23824.4	1.203408	-178.621	95.653	1.068282	0.040716	0.040434	99.5727	23824.4	0.037581	0.057926	1718.96	90439.2
737	2.000000	1.070654	7.37227e+06	-40239.1	1005.82	-29790.8	0.000000	0.000000	7.075015	107.678	NaN	0.000000	0.001600	0.001675	28.081	46.1532	0.001875	24610.4	5.869304	177.119	107.288	1.070252	0.042806	0.042404	107.678	24610.4	0.039525	0.062805	1714.48	89720.9
737	2.000000	1.072577	7.37227e+06	-40239.1	1005.82	-29790.8	0.000000	0.000000	7.077369	118.184	NaN	0.000000	0.001561	0.001668	28.0813	47.0072	0.001859	25286.3	5.290738	176.772	116.61	1.072321	0.044729	0.044473	118.184	25286.3	0.041223	0.067228	1757.96	89100.9
737	2.000000	1.074643	7.37227e+06	-40239.1	1005.82	-29790.8	0.000000	0.000000	7.079590	121.962	NaN	0.000000	0.001609	0.001676	28.0811	50.3591	0.001885	26713	6.799900	174.536	123.147	1.074351	0.046795	0.046503	121.962	26713	0.043370	0.073029	1670.06	90312.9
737	2.000000	1.076585	7.37227e+06	-40239.1	1005.82	-29790.8	0.000000	0.000000	7.082148	136.948	NaN	0.000000	0.001576	0.001662	28.081	50.7755	0.001767	28732.6	4.427661	176.583	134.889	1.076270	0.048736	0.048421	136.948	28732.6	0.045162	0.078047	1754.69	93965.8
737	2.000000	1.078582	7.37227e+06	-40239.1	1005.82	-29790.8	0.000000	0.000000	7.084448	144.312	NaN	0.000000	0.001594	0.001674	28.0819	53.2204	0.001770	30066.7	4.535364	176.276	141.925	1.078204	0.050733	0.050355	144.312	30066.7	0.047134	0.083760	1722.93	94916.3
737	2.000000	1.080666	7.37227e+06	-40239.1	1005.82	-29790.8	0.000000	0.000000	7.086900	153.267	NaN	0.000000	0.001587	0.001674	28.0811	55.5566	0.001813	30639.7	3.852561	177.41	154.897	1.080286	0.052818	0.052437	153.267	30639.7	0.049066	0.089549	1711.55	93546.6
737	2.000000	1.082569	7.37227e+06	-40239.1	1005.82	-29790.8	0.000000	0.000000	7.089299	165.331	NaN	0.000000	0.001579	0.001662	28.0813	56.453	0.001798	31402.6	3.008024	178.294	163.089	1.082294	0.054721	0.054446	165.331	31402.6	0.050772	0.094815	1743.71	93175.1
737	2.000000	1.084530	7.37227e+06	-40239.1	1005.82	-29790.8	0.000000	0.000000	7.091520	171.666	NaN	0.000000	0.001595	0.001711	28.0812	60.0452	0.001900	31596	3.693712	176.749	166.919	1.084241	0.056682	0.056392	171.666	31596	0.052607	0.100641	1705.72	90995.1
737	2.000000	1.086606	7.37227e+06	-40239.1	1005.82	-29790.8	0.000000	0.000000	7.093618	172.198	NaN	0.000000	0.001609	0.001684	28.0825	60.4293	0.001899	31821.8	2.326450	177.827	170.04	1.086317	0.058758	0.058469	172.198	31821.8	0.054699	0.107491	1601.99	88677.2
737	2.000000	1.088588	7.37227e+06	-40239.1	1005.82	-29790.8	0.000000	0.000000	7.096186	186.451	NaN	0.000000	0.001597	0.001708	28.0825	63.4226	0.001804	35151.4	5.555513	173.61	186.586	1.088380	0.060740	0.060532	186.451	35151.4	0.056762	0.114453	1629.07	94929.7
737	2.000000	1.090607	7.37227e+06	-40239.1	1005.82	-29790.8	0.000000	0.000000	7.098951	204.592	NaN	0.000000	0.001605	0.001664	28.0822	64.5997	0.001863	34672.5	2.946883	177.18	203.313	1.090189	0.062759	0.062340	204.592	34672.5	0.058334	0.119901	1706.35	91484.4
737	2.000000	1.092577	7.37227e+06	-40239.1	1005.82	-29790.8	0.000000	0.000000	7.101332	214.602	NaN	0.000000	0.001621	0.001650	28.0824	66.2831	0.001707	38819.2	3.978243	174.573	213.826	1.092251	0.064729	0.064402	214.602	38819.2	0.060583	0.127907	1677.8	99168.5
737	2.000000	1.094560	7.37227e+06	-40239.1	1005.82	-29790.8	0.000000	0.000000	7.103820	226.9	NaN	0.000000	0.001588	0.001698	28.0823	69.2698	0.001850	37448.4	6.691918	172.182	223.401	1.094199	0.066711	0.066350	226.9	37448.4	0.062167	0.133694	1697.16	93573.1
737	2.000000	1.096567	7.37227e+06	-40239.1	1005.82	-29790.8	0.000000	0.000000	7.106254	237.306	NaN	0.000000	0.001580	0.001691	28.0824	69.9534	0.001821	38421.8	5.668851	173.49	235.315	1.096281	0.068718	0.068433	237.306	38421.8	0.064086	0.140867	1684.6	93529
737	2.000000	1.098492	7.37227e+06	-40239.1	1005.82	-29790.8	0.000000	0.000000	7.108774	251.771	NaN	0.000000	0.001585	0.001645	28.0824	72.4083	0.001771	40879.3	5.392341	172.751	245.491	1.098255	0.070644	0.070407	251.771	40879.3	0.066025	0.148293	1697.79	96987.5
737	2.000000	1.100659	7.37227e+06	-40239.1	1005.82	-29790.8	0.000000	0.000000	7.111300	260.513	NaN	0.000000	0.001601	0.001629	28.0822	74.2684	0.001718	43240.2	4.839243	173.096	260.395	1.100312	0.072811	0.072464	260.513	43240.2	0.068292	0.157209	1657.11	99637.3
737	2.000000	1.102561	7.37227e+06	-40239.1	1005.82	-29790.8	0.000000	0.000000	7.113754	273.936	NaN	0.000000	0.001562	0.001688	28.0833	75.7482	0.001857	40793.4	4.825675	173.898	272.997	1.102222	0.074713	0.074373	273.936	40793.4	0.069676	0.162774	1682.92	92378.5
737	2.000000	1.104559	7.37227e+06	-40239.1	1005.82	-29790.8	0.000000	0.000000	7.116264	286.401	NaN	0.000000	0.001577	0.001694	28.0824	77.5638	0.001777	43645.2	3.076771	174.735	282.832	1.104260	0.076711	0.076411	286.401	43645.2	0.071789	0.171442	1670.54	96305.5
737	2.000000	1.106588	7.37227e+06	-40239.1	1005.82	-29790.8	0.000000	0.000000	7.118911	301.431	NaN	0.000000	0.001608	0.001678	28.0823	78.4051	0.001799	43574.2	3.324691	175.018	299.994	1.106214	0.078739	0.078366	301.431	43574.2	0.073551	0.178833	1685.54	94140.9
737	2.000000	1.108550	7.37227e+06	-40239.1	1005.82	-29790.8	0.000000	0.000000	7.121522	317.23	NaN	0.000000	0.001617	0.001674	28.0823	80.2143	0.001792	44773.4	2.742625	174.879	315.464	1.108270	0.080701	0.080421	317.23	44773.4	0.075387	0.186691	1699.22	94674.3
737	2.000000	1.110555	7.37227e+06	-40239.1	1005.82	-29790.8	0.000000	0.000000	7.124032	329.524	NaN	0.000000	0.001613	0.001669	28.0823	82.1415	0.001731	47462.4	4.236823	173.417	325.551	1.110230	0.082707	0.082381	329.524	47462.4	0.077500	0.195926	1681.88	97966.2
737	2.000000	1.112594	7.37227e+06	-40239.1	1005.82	-29790.8	0.000000	0.000000	7.126682	344.392	NaN	0.000000	0.001590	0.001710	28.0838	84.2109	0.001733	48603.9	5.282327	172.088	346.497	1.112303	0.084745	0.084455	344.392	48603.9	0.079431	0.204555	1683.62	98183.8
737	2.000000	1.114584	7.37227e+06	-40239.1	1005.82	-29790.8	0.000000	0.000000	7.128401	337.788	NaN	0.000000	0.001598	0.001657	28.0824	86.9527	0.001786	48676.9	2.879650	173.975	336.443	1.114486	0.086736	0.086638	337.788	48676.9	0.081531	0.214132	1577.48	96106.9
737	2.000000	1.116627	7.37227e+06	-40239.1	1005.82	-29790.8	0.000000	0.000000	7.131774	370.173	NaN	0.000000	0.001613	0.001677	28.0823	88.448	0.001718	51480.8	6.123991	170.798	371.021	1.116178	0.088778	0.088329	370.173	51480.8	0.083385	0.222760	1661.76	99655.3
737	2.000000	1.118548	7.37227e+06	-40239.1	1005.82	-29790.8	0.000000	0.000000	7.134058	378.965	NaN	0.000000	0.001624	0.001654	28.0823	89.3268	0.001755	50887.8	3.401013	173.544	378.296	1.118288	0.090700	0.090440	378.965	50887.8	0.085115	0.230950	1640.9	96744.8
737	2.000000	1.120580	7.37227e+06	-40239.1	1005.82	-29790.8	0.000000	0.000000	7.136926	399.311	NaN	0.000000	0.001616	0.001699	28.0813	92.9984	0.001871	49708.3	8.843341	168.712	398.001	1.120196	0.092732	0.092348	399.311	49708.3	0.086707	0.238614	1673.46	92972.5
737	2.000000	1.122567	7.37227e+06	-40239.1	1005.82	-29790.8	0.000000	0.000000	7.139443	412.225	NaN	0.000000	0.001609	0.001636	28.0818	93.1471	0.001765	52776.2	4.447341	172.561	413.134	1.122240	0.094719	0.094392	412.225	52776.2	0.088861	0.249164	1654.43	96598.1
737	2.000000	1.124470	7.37227e+06	-40239.1	1005.82	-29790.8	0.000000	0.000000	7.141899	425.706	NaN	0.000000	0.001617	0.001652	28.0812	94.7628	0.001784	53120.5	2.116313	174.569	419.946	1.124210	0.096621	0.096362	425.706	53120.5	0.090611	0.257892	1650.71	95568.9
737	2.000000	1.126512	7.37227e+06	-40239.1	1005.82	-29790.8	0.000000	0.000000	7.144704	444.247	NaN	0.000000	0.001636	0.001678	28.0813	95.6666	0.001832	52219.4	4.470420	172.693	442.196	1.126158	0.098664	0.098310	444.247	52219.4	0.092283	0.266366	1667.81	92441.3
737	2.000000	1.128533	7.37227e+06	-40239.1	1005.82	-29790.8	0.000000	0.000000	7.147406	460.827	NaN	0.000000	0.001596	0.001667	28.0815	97.8416	0.001750	55898.2	2.898790	173.381	458.297	1.128202	0.100684	0.100354	460.827	55898.2	0.094501	0.277802	1658.83	96895.5
737	2.000000	1.130566	7.37227e+06	-40239.1	1005.82	-29790.8	0.000000	0.000000	7.150090	476.663	NaN	0.000000	0.001642	0.001645	28.0813	100.334	0.001727	58099.6	6.693463	169.819	474.341	1.130244	0.102718	0.102396	476.663	58099.6	0.096564	0.288641	1651.41	98802.4