File: remote_trans/data/nanoindenter/0828-1/data/Data_2025-08-06,11h17m57s/2025-07-22_16-23-58_1_7.txt
2025-07-22, 16:23:58, 1
Index	Phase	Displacement	Time	Pos X	Pos Y	Pos Z	Rot A	Rot B	Piezo Z	Force A	Force B	Gripper	Voltage A	Voltage B	Temperature	Amplitude force	Amplitude pos	Stiffness	Phase shift	Phase excitation	Force A raw	Displacement raw	HMax	HMax raw	Real Force	Real Stiffness	Contact Depth	Area	Hardness	Reduced Mod.
[#]	[#]	[um]	[s]	[um]	[um]	[um]	[m°]	[m°]	[um]	[uN]	[uN]	[V]	[V]	[V]	[°C]	[uN]	[um]	[N/m]	[°]	[°]	[uN]	[um]	[um]	[um]	[uN]	[N/m]	[um]	[um^2]	[MPa]	[MPa]
7.000000	1.000000	0.002678	7.36511e+06	-38989.1	955.818	-29796.1	0.000000	0.000000	6.002805	0.048109	NaN	0.000000	0.001525	0.001737	28.1257	0.057576	0.000977	58.912	13.3032	-167.294	0.100785	0.001486	-1.133714	-1.134906	0.048109	58.912	-1.134326	-1.447595E+15	-3.323357E-17	NaN
7.000000	1.000000	0.012759	7.36511e+06	-38989.1	955.819	-29796.1	0.000000	0.000000	6.012887	0.072843	NaN	0.000000	0.001543	0.001730	28.0861	0.070697	0.001220	57.9593	-158.338	18.0903	-0.048668	0.011319	-1.123633	-1.125073	0.072843	57.9593	-1.124576	-1.071169E+15	-6.800330E-17	NaN
7.000000	1.000000	0.022647	7.36511e+06	-38989.1	955.818	-29796.1	0.000000	0.000000	6.022775	0.063942	NaN	0.000000	0.001554	0.001729	28.0835	0.047961	0.001654	28.989	-56.3941	-164.087	0.095292	0.021335	-1.113745	-1.115058	0.063942	28.989	-1.115399	-8.067585E+14	-7.925740E-17	NaN
7.000000	1.000000	0.032633	7.36511e+06	-38989.1	955.818	-29796.1	0.000000	0.000000	6.032761	0.072855	NaN	0.000000	0.001570	0.001770	28.118	0.045345	0.001935	23.4363	176.094	16.8305	0.082323	0.031280	-1.103759	-1.105112	0.072855	23.4363	-1.106091	-6.050967E+14	-1.204020E-16	NaN
7.000000	1.000000	0.042609	7.36511e+06	-38989.1	955.818	-29796.1	0.000000	0.000000	6.042734	0.001125	NaN	0.000000	0.001538	0.001721	28.1251	0.057680	0.001922	30.0111	165.96	-167.251	0.019309	0.041303	-1.093783	-1.095089	0.001125	30.0111	-1.093811	-4.139814E+14	-2.718371E-18	NaN
7.000000	1.000000	0.052663	7.36511e+06	-38989.1	955.819	-29796.1	0.000000	0.000000	6.052790	0.029692	NaN	0.000000	0.001554	0.001715	28.0852	0.043702	0.002061	21.2031	-169.756	16.0084	0.022401	0.051277	-1.083729	-1.085115	0.029692	21.2031	-1.084779	-3.131150E+14	-9.482748E-17	NaN
7.000000	1.000000	0.062644	7.36511e+06	-38989.1	955.819	-29796.1	0.000000	0.000000	6.062771	0.051128	NaN	0.000000	0.001581	0.001760	28.085	0.024263	0.001960	12.382	-103.936	-162.929	-0.008335	0.061314	-1.073748	-1.075078	0.051128	12.382	-1.076845	-2.449888E+14	-2.086934E-16	NaN
7.000000	1.000000	0.072628	7.36511e+06	-38989.1	955.82	-29796.1	0.000000	0.000000	6.072755	0.063219	NaN	0.000000	0.001595	0.001722	28.1194	0.094669	0.001998	47.3825	-5.241070	14.9079	0.090758	0.071273	-1.063764	-1.065119	0.063219	47.3825	-1.064765	-1.685980E+14	-3.749717E-16	NaN
7.000000	1.000000	0.082642	7.36511e+06	-38989.1	955.817	-29796.1	0.000000	0.000000	6.082770	0.070085	NaN	0.000000	0.001557	0.001725	28.1273	0.029965	0.002040	14.6899	-146.71	-164.256	0.093473	0.081356	-1.053750	-1.055036	0.070085	14.6899	-1.057328	-1.339417E+14	-5.232527E-16	NaN
7.000000	1.000000	0.092632	7.36511e+06	-38989.1	955.817	-29796.1	0.000000	0.000000	6.092759	0.044090	NaN	0.000000	0.001593	0.001713	28.0875	0.005107	0.001952	2.615951	-141.837	15.6827	0.089683	0.091311	-1.043760	-1.045081	0.044090	2.615951	-1.056401	-1.301513E+14	-3.387634E-16	NaN
7.000000	1.000000	0.102680	7.36511e+06	-38989.1	955.819	-29796.1	0.000000	0.000000	6.102804	-0.011254	NaN	0.000000	0.001623	0.001740	28.0837	0.098199	0.002060	47.6617	141.485	-163.924	-0.042564	0.101328	-1.033712	-1.035064	-0.011254	47.6617	-1.033535	-6.412553E+13	1.755073E-16	NaN
7.000000	1.000000	0.112644	7.36511e+06	-38989.1	955.817	-29796.1	0.000000	0.000000	6.112769	-0.002521	NaN	0.000000	0.001600	0.001798	28.1186	0.088729	0.002054	43.2046	-172.774	18.3614	-0.018499	0.111309	-1.023748	-1.025083	-0.002521	43.2046	-1.023704	-4.729258E+13	5.330631E-17	NaN
7.000000	1.000000	0.122657	7.36511e+06	-38989.1	955.819	-29796.1	0.000000	0.000000	6.122779	-0.073060	NaN	0.000000	0.001637	0.001775	28.1266	0.116450	0.002007	58.0341	152.728	-163.176	0.006272	0.121343	-1.013735	-1.015049	-0.073060	58.0341	-1.012791	-3.372421E+13	2.166385E-15	NaN
7.000000	1.000000	0.132671	7.36511e+06	-38989.1	955.818	-29796.1	0.000000	0.000000	6.132799	0.073964	NaN	0.000000	0.001605	0.001750	28.086	0.021270	0.001934	10.9985	-112.877	15.7472	0.056840	0.131328	-1.003721	-1.005064	0.073964	10.9985	-1.008765	-2.976833E+13	-2.484641E-15	NaN
7.000000	1.000000	0.142655	7.36511e+06	-38989.1	955.818	-29796.1	0.000000	0.000000	6.142786	0.127160	NaN	0.000000	0.001614	0.001707	28.0854	0.063357	0.002026	31.2655	174.593	-164.424	0.151324	0.141407	-0.993737	-0.994985	0.127160	31.2655	-0.996787	-2.053578E+13	-6.192142E-15	NaN
7.000000	1.000000	0.152666	7.36511e+06	-38989.1	955.819	-29796.1	0.000000	0.000000	6.152789	-0.041008	NaN	0.000000	0.001628	0.001754	28.1193	0.085340	0.002034	41.9514	23.2446	16.2324	-0.014823	0.151312	-0.983726	-0.985080	-0.041008	41.9514	-0.982993	-1.338850E+13	3.062935E-15	NaN
7.000000	1.000000	0.162665	7.36511e+06	-38989.1	955.819	-29796.1	0.000000	0.000000	6.162792	0.062540	NaN	0.000000	0.001646	0.001736	28.1272	0.073098	0.001948	37.5229	43.059	-163.747	0.042880	0.161363	-0.973727	-0.975029	0.062540	37.5229	-0.974978	-1.044094E+13	-5.989856E-15	NaN
7.000000	1.000000	0.172722	7.36511e+06	-38989.1	955.818	-29796.1	0.000000	0.000000	6.172850	0.069995	NaN	0.000000	0.001629	0.001708	28.0878	0.034173	0.002002	17.0673	111.074	15.4809	0.074528	0.171303	-0.963670	-0.965089	0.069995	17.0673	-0.966746	-8.087296E+12	-8.654903E-15	NaN
7.000000	1.000000	0.182677	7.36511e+06	-38989.1	955.818	-29796.1	0.000000	0.000000	6.182803	0.039112	NaN	0.000000	0.001659	0.001715	28.085	0.105669	0.002024	52.2184	6.333759	-165.609	0.013489	0.181330	-0.953715	-0.955062	0.039112	52.2184	-0.954277	-5.491703E+12	-7.121980E-15	NaN
7.000000	1.000000	0.192686	7.36511e+06	-38989.1	955.819	-29796.1	0.000000	0.000000	6.192810	-0.009163	NaN	0.000000	0.001653	0.001712	28.1171	0.084564	0.001971	42.8998	-156.67	16.4632	0.020943	0.191328	-0.943706	-0.945064	-0.009163	42.8998	-0.943546	-3.935296E+12	2.328445E-15	NaN
7.000000	1.000000	0.202704	7.36511e+06	-38989.1	955.818	-29796.1	0.000000	0.000000	6.202831	0.046868	NaN	0.000000	0.001637	0.001671	28.1252	0.155704	0.001988	78.31	-171.022	-162.5	0.004995	0.201394	-0.933688	-0.934998	0.046868	78.31	-0.934137	-2.937807E+12	-1.595348E-14	NaN
7.000000	1.000000	0.212692	7.36511e+06	-38989.1	955.818	-29796.1	0.000000	0.000000	6.212818	0.033094	NaN	0.000000	0.001641	0.001711	28.0854	0.031218	0.002066	15.1071	-24.4746	15.9452	0.085042	0.211371	-0.923700	-0.925021	0.033094	15.1071	-0.925343	-2.235334E+12	-1.480480E-14	NaN
7.000000	1.000000	0.222689	7.36511e+06	-38989.1	955.819	-29796.1	0.000000	0.000000	6.222814	-0.004296	NaN	0.000000	0.001542	0.001708	28.0843	0.058209	0.002026	28.7341	48.1412	-165.81	0.005623	0.221360	-0.913703	-0.915033	-0.004296	28.7341	-0.913591	-1.551191E+12	2.769202E-15	NaN
7.000000	1.000000	0.232719	7.36511e+06	-38989.1	955.819	-29796.1	0.000000	0.000000	6.232842	-0.045500	NaN	0.000000	0.001541	0.001698	28.1178	0.083756	0.001896	44.1719	79.4245	16.81	0.020793	0.231356	-0.903673	-0.905036	-0.045500	44.1719	-0.902900	-1.112385E+12	4.090276E-14	NaN
7.000000	1.000000	0.242703	7.36511e+06	-38989.1	955.819	-29796.1	0.000000	0.000000	6.242829	0.014808	NaN	0.000000	0.001503	0.001722	28.1269	0.030339	0.002021	15.014	-169.762	-164.689	-0.007015	0.241403	-0.893689	-0.894989	0.014808	15.014	-0.894429	-8.546328E+11	-1.732656E-14	NaN
7.000000	1.000000	0.252728	7.36511e+06	-38989.1	955.818	-29796.1	0.000000	0.000000	6.252857	0.078298	NaN	0.000000	0.001509	0.001735	28.0863	0.076510	0.002115	36.1777	43.6776	15.6628	0.093655	0.251352	-0.883664	-0.885040	0.078298	36.1777	-0.885287	-6.429820E+11	-1.217728E-13	NaN
7.000000	1.000000	0.262736	7.36511e+06	-38989.1	955.818	-29796.1	0.000000	0.000000	6.262862	0.024550	NaN	0.000000	0.001568	0.001705	28.0818	0.086766	0.002017	43.0222	171.94	-166.531	0.046327	0.261405	-0.873656	-0.874987	0.024550	43.0222	-0.874084	-4.536228E+11	-5.411983E-14	NaN
7.000000	1.000000	0.272715	7.36511e+06	-38989.1	955.817	-29796.1	0.000000	0.000000	6.272843	0.061479	NaN	0.000000	0.001559	0.001712	28.1157	0.117309	0.002041	57.4745	29.8918	19.5138	0.085177	0.271390	-0.863677	-0.865002	0.061479	57.4745	-0.864479	-3.363085E+11	-1.828065E-13	NaN
7.000000	1.000000	0.282722	7.36511e+06	-38989.1	955.817	-29796.1	0.000000	0.000000	6.282847	-0.004653	NaN	0.000000	0.001517	0.001700	28.1245	0.097895	0.001934	50.6129	89.7205	-161.031	-0.035156	0.281435	-0.853670	-0.854957	-0.004653	50.6129	-0.853601	-2.396060E+11	1.941910E-14	NaN
7.000000	1.000000	0.292742	7.36511e+06	-38989.1	955.819	-29796.1	0.000000	0.000000	6.292871	0.092405	NaN	0.000000	0.001523	0.001690	28.0852	0.062992	0.001982	31.7884	86.7312	17.1835	0.086961	0.291380	-0.843650	-0.845012	0.092405	31.7884	-0.845831	-1.880497E+11	-4.913841E-13	NaN
7.000000	1.000000	0.302748	7.36511e+06	-38989.1	955.818	-29796.1	0.000000	0.000000	6.302873	-0.010000	NaN	0.000000	0.001525	0.001687	28.083	0.173870	0.002154	80.7368	-56.5117	-163.143	0.036559	0.301430	-0.833644	-0.834962	-0.010000	80.7368	-0.833551	-1.282069E+11	7.799916E-14	NaN
7.000000	1.000000	0.312737	7.36511e+06	-38989.1	955.819	-29796.1	0.000000	0.000000	6.312865	0.076715	NaN	0.000000	0.001534	0.001678	28.1166	0.030078	0.001833	16.4126	80.186	16.0627	0.089978	0.311379	-0.823655	-0.825013	0.076715	16.4126	-0.827161	-1.050258E+11	-7.304395E-13	NaN
7.000000	1.000000	0.322745	7.36511e+06	-38989.1	955.818	-29796.1	0.000000	0.000000	6.322869	-0.045845	NaN	0.000000	0.001536	0.001720	28.1268	0.081818	0.001933	42.3243	-178.046	-165.69	0.050002	0.321446	-0.813647	-0.814946	-0.045845	42.3243	-0.812834	-6.714630E+10	6.827619E-13	NaN
7.000000	1.000000	0.332769	7.36511e+06	-38989.1	955.817	-29796.1	0.000000	0.000000	6.332896	0.050016	NaN	0.000000	0.001534	0.001716	28.0879	0.039474	0.001996	19.7767	31.0853	14.1673	0.056428	0.331386	-0.803623	-0.805006	0.050016	19.7767	-0.805520	-5.342993E+10	-9.361108E-13	NaN
7.000000	1.000000	0.342769	7.36511e+06	-38989.1	955.818	-29796.1	0.000000	0.000000	6.342894	0.005294	NaN	0.000000	0.001576	0.001718	28.0823	0.054131	0.001959	27.627	49.7473	-165.645	0.058686	0.341438	-0.793623	-0.794954	0.005294	27.627	-0.793767	-3.700334E+10	-1.430552E-13	NaN
7.000000	1.000000	0.352699	7.36511e+06	-38989.1	955.817	-29796.1	0.000000	0.000000	6.352829	0.123311	NaN	0.000000	0.001542	0.001699	28.1168	0.111546	0.002031	54.9202	-176.13	14.7924	0.114089	0.351388	-0.783693	-0.785004	0.123311	54.9202	-0.785377	-2.846326E+10	-4.332298E-12	NaN
7.000000	1.000000	0.362765	7.36511e+06	-38989.1	955.818	-29796.1	0.000000	0.000000	6.362894	0.079961	NaN	0.000000	0.001507	0.001742	28.1297	0.109694	0.001903	57.6413	86.2329	-164.406	0.041356	0.361476	-0.773627	-0.774916	0.079961	57.6413	-0.774667	-2.035880E+10	-3.927597E-12	NaN
7.000000	1.000000	0.372783	7.36511e+06	-38989.1	955.818	-29796.1	0.000000	0.000000	6.372908	-0.004114	NaN	0.000000	0.001511	0.001739	28.0878	0.022991	0.001924	11.9467	-74.878	14.4551	0.062937	0.371448	-0.763609	-0.764945	-0.004114	11.9467	-0.763350	-1.428495E+10	2.880080E-13	NaN
7.000000	1.000000	0.382770	7.36511e+06	-38989.1	955.818	-29796.1	0.000000	0.000000	6.382897	0.048806	NaN	0.000000	0.001543	0.001710	28.0846	0.096575	0.001965	49.1583	98.0693	-166.578	0.037879	0.381479	-0.753622	-0.754913	0.048806	49.1583	-0.754367	-1.078078E+10	-4.527161E-12	NaN
7.000000	1.000000	0.392764	7.36511e+06	-38989.1	955.818	-29796.1	0.000000	0.000000	6.392888	-0.020470	NaN	0.000000	0.001514	0.001735	28.1185	0.058794	0.001976	29.7527	-111.285	20.6488	-0.018407	0.391442	-0.743628	-0.744950	-0.020470	29.7527	-0.743112	-7.576091E+9	2.701879E-12	NaN
7.000000	1.000000	0.402797	7.36511e+06	-38989.1	955.817	-29796.1	0.000000	0.000000	6.402921	-0.013174	NaN	0.000000	0.001513	0.001732	28.1293	0.077613	0.001993	38.933	25.5027	-163.694	0.095751	0.401480	-0.733595	-0.734912	-0.013174	38.933	-0.733342	-5.576311E+9	2.362575E-12	NaN
7.000000	1.000000	0.412784	7.36511e+06	-38989.1	955.819	-29796.1	0.000000	0.000000	6.412910	0.012905	NaN	0.000000	0.001504	0.001724	28.0877	0.066648	0.001973	33.7879	146.927	16.0879	0.069331	0.411402	-0.723608	-0.724990	0.012905	33.7879	-0.723894	-4.145486E+9	-3.113090E-12	NaN
7.000000	1.000000	0.422797	7.36511e+06	-38989.1	955.818	-29796.1	0.000000	0.000000	6.422923	0.020314	NaN	0.000000	0.001473	0.001716	28.0848	0.095623	0.001946	49.1466	-21.3661	-163.319	0.075585	0.421431	-0.713595	-0.714961	0.020314	49.1466	-0.713905	-3.029259E+9	-6.705785E-12	NaN
7.000000	1.000000	0.432806	7.36511e+06	-38989.1	955.818	-29796.1	0.000000	0.000000	6.432933	0.054866	NaN	0.000000	0.001535	0.001729	28.1192	0.030601	0.002057	14.8782	161.637	18.4631	0.061079	0.431435	-0.703586	-0.704957	0.054866	14.8782	-0.706352	-2.389229E+9	-2.296374E-11	NaN
7.000000	1.000000	0.442794	7.36511e+06	-38989.1	955.818	-29796.1	0.000000	0.000000	6.442924	0.127182	NaN	0.000000	0.001532	0.001740	28.1271	0.082998	0.001966	42.2178	-83.6519	-162.704	0.161516	0.441467	-0.693598	-0.694925	0.127182	42.2178	-0.695858	-1.717727E+9	-7.404064E-11	NaN
7.000000	1.000000	0.452823	7.36511e+06	-38989.1	955.818	-29796.1	0.000000	0.000000	6.452948	-0.005429	NaN	0.000000	0.001535	0.001730	28.0874	0.082027	0.001890	43.4117	16.0529	16.8714	0.028761	0.451425	-0.683569	-0.684967	-0.005429	43.4117	-0.683476	-1.163412E+9	4.666037E-12	NaN
7.000000	1.000000	0.462817	7.36511e+06	-38989.1	955.818	-29796.1	0.000000	0.000000	6.462944	0.042675	NaN	0.000000	0.001533	0.001747	28.0846	0.066656	0.001963	33.9495	-69.7779	-163.147	0.084633	0.461493	-0.673575	-0.674899	0.042675	33.9495	-0.674518	-8.774289E+8	-4.863632E-11	NaN
7.000000	1.000000	0.472809	7.36511e+06	-38989.1	955.818	-29796.1	0.000000	0.000000	6.472934	0.006951	NaN	0.000000	0.001509	0.001769	28.118	0.077156	0.001980	38.9596	56.5192	16.3999	0.083583	0.471450	-0.663584	-0.664942	0.006951	38.9596	-0.663717	-6.242803E+8	-1.113461E-11	NaN
7.000000	1.000000	0.482803	7.36511e+06	-38989.1	955.818	-29796.1	0.000000	0.000000	6.482929	0.029574	NaN	0.000000	0.001570	0.001788	28.1274	0.080408	0.001975	40.7131	-85.5754	-167.43	0.082678	0.481484	-0.653590	-0.654908	0.029574	40.7131	-0.654134	-4.614279E+8	-6.409234E-11	NaN
7.000000	1.000000	0.492827	7.36511e+06	-38989.1	955.817	-29796.1	0.000000	0.000000	6.492953	0.032790	NaN	0.000000	0.001499	0.001783	28.0889	0.083593	0.001975	42.3246	-93.7096	14.9884	-0.032830	0.491454	-0.643565	-0.644938	0.032790	42.3246	-0.644147	-3.366451E+8	-9.740224E-11	NaN
7.000000	1.000000	0.502805	7.36511e+06	-38989.1	955.818	-29796.1	0.000000	0.000000	6.502932	0.046487	NaN	0.000000	0.001533	0.001814	28.0823	0.037655	0.002007	18.7629	134.659	-166.567	-0.032420	0.501552	-0.633587	-0.634840	0.046487	18.7629	-0.635445	-2.557308E+8	-1.817803E-10	NaN
7.000000	1.000000	0.512817	7.36511e+06	-38989.1	955.817	-29796.1	0.000000	0.000000	6.512944	0.054598	NaN	0.000000	0.001502	0.001794	28.1163	0.027523	0.002036	13.5175	-53.5913	12.9876	0.083807	0.511412	-0.623575	-0.624980	0.054598	13.5175	-0.626604	-1.933677E+8	-2.823554E-10	NaN
7.000000	1.000000	0.522877	7.36511e+06	-38989.1	955.818	-29796.1	0.000000	0.000000	6.523002	0.004777	NaN	0.000000	0.001524	0.001773	28.1267	0.076097	0.002034	37.4055	-29.0289	-164.955	0.073483	0.521495	-0.613515	-0.614897	0.004777	37.4055	-0.613611	-1.281695E+8	-3.726904E-11	NaN
7.000000	1.000000	0.532831	7.36511e+06	-38989.1	955.818	-29796.1	0.000000	0.000000	6.532958	0.043292	NaN	0.000000	0.001553	0.001792	28.0854	0.094187	0.001980	47.5771	-45.1668	15.4827	0.096173	0.531487	-0.603561	-0.604906	0.043292	47.5771	-0.604244	-9.525595E+7	-4.544801E-10	NaN
7.000000	1.000000	0.542830	7.36511e+06	-38989.1	955.818	-29796.1	0.000000	0.000000	6.542957	0.048515	NaN	0.000000	0.001514	0.001803	28.0835	0.089285	0.002097	42.5821	-77.2332	-164.283	0.118038	0.541536	-0.593562	-0.594856	0.048515	42.5821	-0.594417	-6.974995E+7	-6.955608E-10	NaN
7.000000	1.000000	0.552844	7.36511e+06	-38989.1	955.817	-29796.1	0.000000	0.000000	6.552969	-0.021297	NaN	0.000000	0.001548	0.001799	28.1162	0.106431	0.001973	53.9306	146.821	16.1892	-0.015007	0.551520	-0.583548	-0.584872	-0.021297	53.9306	-0.583252	-4.893225E+7	4.352445E-10	NaN
7.000000	1.000000	0.562843	7.36511e+06	-38989.1	955.818	-29796.1	0.000000	0.000000	6.562968	-0.008769	NaN	0.000000	0.001528	0.001771	28.1279	0.027881	0.001954	14.2652	132.274	-164.956	0.027000	0.561568	-0.573549	-0.574824	-0.008769	14.2652	-0.573088	-3.542362E+7	2.475382E-10	NaN
7.000000	1.000000	0.572857	7.36511e+06	-38989.1	955.818	-29796.1	0.000000	0.000000	6.572983	0.031011	NaN	0.000000	0.001565	0.001766	28.0886	0.025873	0.002012	12.8607	-117.963	10.0864	0.026528	0.571478	-0.563535	-0.564914	0.031011	12.8607	-0.565344	-2.768725E+7	-1.120037E-9	NaN
7.000000	1.000000	0.582866	7.36511e+06	-38989.1	955.818	-29796.1	0.000000	0.000000	6.582991	-0.017011	NaN	0.000000	0.001570	0.001781	28.0832	0.065047	0.001937	33.5868	-65.3397	-165.265	-0.111159	0.581551	-0.553526	-0.554841	-0.017011	33.5868	-0.553146	-1.877251E+7	9.061592E-10	NaN
7.000000	1.000000	0.592865	7.36511e+06	-38989.1	955.817	-29796.1	0.000000	0.000000	6.592988	-0.043721	NaN	0.000000	0.001519	0.001767	28.1147	0.038787	0.002022	19.1797	-89.1729	16.0923	-0.000701	0.591486	-0.543527	-0.544906	-0.043721	19.1797	-0.541818	-1.307865E+7	3.342916E-9	NaN
7.000000	1.000000	0.602861	7.36511e+06	-38989.1	955.818	-29796.1	0.000000	0.000000	6.602987	0.028387	NaN	0.000000	0.001579	0.001775	28.127	0.081996	0.001929	42.509	-70.7892	-165.28	0.029223	0.601561	-0.533532	-0.534831	0.028387	42.509	-0.534032	-1.019905E+7	-2.783331E-9	NaN
7.000000	1.000000	0.612855	7.36511e+06	-38989.1	955.818	-29796.1	0.000000	0.000000	6.612982	0.050875	NaN	0.000000	0.001581	0.001808	28.0881	0.059672	0.002024	29.4866	50.4897	16.7585	0.024039	0.611516	-0.523537	-0.524876	0.050875	29.4866	-0.524831	-7.59921e+06	-6.694786E-9	NaN
7.000000	1.000000	0.622872	7.36511e+06	-38989.1	955.817	-29796.1	0.000000	0.000000	6.622996	-0.004243	NaN	0.000000	0.001539	0.001802	28.0838	0.046607	0.001989	23.4276	157.851	-164.919	-0.056756	0.621617	-0.513521	-0.514775	-0.004243	23.4276	-0.513385	-5.26682e+06	8.055882E-10	NaN
7.000000	1.000000	0.632887	7.36511e+06	-38989.1	955.818	-29796.1	0.000000	0.000000	6.633015	0.056334	NaN	0.000000	0.001521	0.001788	28.1161	0.079130	0.001948	40.6248	56.8169	15.0039	0.088743	0.631479	-0.503505	-0.504913	0.056334	40.6248	-0.504545	-3.96642e+06	-1.420262E-8	NaN
7.000000	1.000000	0.642883	7.36511e+06	-38989.1	955.818	-29796.1	0.000000	0.000000	6.643012	0.084956	NaN	0.000000	0.001524	0.001823	28.1282	0.055576	0.001983	28.0294	-35.7714	-167.403	0.127232	0.641638	-0.493509	-0.494754	0.084956	28.0294	-0.495782	-2.99333e+06	-2.838167E-8	NaN
7.000000	1.000000	0.652898	7.36511e+06	-38989.1	955.819	-29796.1	0.000000	0.000000	6.653024	0.023486	NaN	0.000000	0.001512	0.001801	28.0885	0.086507	0.001981	43.675	-93.4384	13.574	0.106587	0.651502	-0.483494	-0.484891	0.023486	43.675	-0.483897	-2.04204e+06	-1.150130E-8	NaN
7.000000	1.000000	0.662881	7.36511e+06	-38989.1	955.818	-29796.1	0.000000	0.000000	6.663009	0.065245	NaN	0.000000	0.001532	0.001798	28.0832	0.069579	0.002083	33.402	134.763	-165.451	0.074455	0.661597	-0.473511	-0.474795	0.065245	33.402	-0.474976	-1.53165e+06	-4.259807E-8	NaN
7.000000	1.000000	0.672866	7.36511e+06	-38989.1	955.818	-29796.1	0.000000	0.000000	6.672993	0.044038	NaN	0.000000	0.001578	0.001802	28.1149	0.031090	0.002058	15.1101	-120.648	15.5222	-0.048635	0.671530	-0.463526	-0.464862	0.044038	15.1101	-0.465712	-1.13563e+06	-3.877830E-8	NaN
7.000000	1.000000	0.682877	7.36511e+06	-38989.1	955.817	-29796.1	0.000000	0.000000	6.682999	-0.057308	NaN	0.000000	0.001601	0.001763	28.1273	0.156764	0.001969	79.6222	-146.08	-164.214	-0.068084	0.681624	-0.453516	-0.454768	-0.057308	79.6222	-0.452976	-752029	7.620450E-8	NaN
7.000000	1.000000	0.692902	7.36511e+06	-38989.1	955.817	-29796.1	0.000000	0.000000	6.693028	0.007288	NaN	0.000000	0.001563	0.001793	28.0878	0.084740	0.002033	41.6769	135.346	15.1121	0.071770	0.691577	-0.443490	-0.444815	0.007288	41.6769	-0.443621	-555195	-1.312772E-8	NaN
7.000000	1.000000	0.702908	7.36511e+06	-38989.1	955.817	-29796.1	0.000000	0.000000	6.703034	0.031548	NaN	0.000000	0.001568	0.001772	28.0843	0.068805	0.002001	34.3844	102.436	-166.037	0.092316	0.701607	-0.433484	-0.434785	0.031548	34.3844	-0.434172	-408374	-7.725256E-8	NaN
7.000000	1.000000	0.712919	7.36511e+06	-38989.1	955.818	-29796.1	0.000000	0.000000	6.713045	0.019577	NaN	0.000000	0.001556	0.001802	28.1154	0.025885	0.001952	13.2597	159.121	14.8552	-0.006025	0.711555	-0.423473	-0.424837	0.019577	13.2597	-0.424581	-298774	-6.552510E-8	NaN
7.000000	1.000000	0.722918	7.36511e+06	-38989.1	955.817	-29796.1	0.000000	0.000000	6.723044	0.023643	NaN	0.000000	0.001545	0.001786	28.1283	0.050772	0.001903	26.6757	82.9728	-168.515	0.006998	0.721629	-0.413474	-0.414763	0.023643	26.6757	-0.414138	-212431	-1.112969E-7	NaN
7.000000	1.000000	0.732924	7.36511e+06	-38989.1	955.819	-29796.1	0.000000	0.000000	6.733050	0.016668	NaN	0.000000	0.001536	0.001794	28.0879	0.046491	0.002019	23.0228	-65.8941	13.813	-0.027857	0.731584	-0.403468	-0.404808	0.016668	23.0228	-0.404011	-152463	-1.093230E-7	NaN
7.000000	1.000000	0.742930	7.36511e+06	-38989.1	955.819	-29796.1	0.000000	0.000000	6.743051	-0.089860	NaN	0.000000	0.001541	0.001785	28.0823	0.042458	0.002005	21.1745	-53.7955	-170.014	-0.022814	0.741661	-0.393462	-0.394731	-0.089860	21.1745	-0.390279	-97087.3	9.255624E-7	NaN
7.000000	1.000000	0.752940	7.36511e+06	-38989.1	955.818	-29796.1	0.000000	0.000000	6.753067	0.050090	NaN	0.000000	0.001530	0.001801	28.1127	0.117168	0.002072	56.5479	-113.235	14.4702	0.032135	0.751576	-0.383452	-0.384816	0.050090	56.5479	-0.384116	-79236.4	-6.321584E-7	NaN
7.000000	1.000000	0.762942	7.36511e+06	-38989.1	955.818	-29796.1	0.000000	0.000000	6.763070	0.067976	NaN	0.000000	0.001523	0.001773	28.1262	0.066822	0.001958	34.1213	26.9714	-167.169	0.004097	0.761630	-0.373450	-0.374763	0.067976	34.1213	-0.374944	-58515.4	-1.161677E-6	NaN
7.000000	1.000000	0.772957	7.36511e+06	-38989.1	955.818	-29796.1	0.000000	0.000000	6.773083	0.017058	NaN	0.000000	0.001531	0.001777	28.0857	0.022093	0.001874	11.7909	7.510160	11.1466	0.043112	0.771578	-0.363435	-0.364814	0.017058	11.7909	-0.364520	-41411.6	-4.119041E-7	NaN
7.000000	1.000000	0.782963	7.36511e+06	-38989.1	955.817	-29796.1	0.000000	0.000000	6.783089	0.008998	NaN	0.000000	0.001550	0.001744	28.0822	0.051598	0.002042	25.2707	171.216	-165.512	0.059223	0.781614	-0.353429	-0.354778	0.008998	25.2707	-0.353696	-28880.5	-3.115727E-7	NaN
7.000000	1.000000	0.792921	7.36511e+06	-38989.1	955.818	-29796.1	0.000000	0.000000	6.793048	0.043314	NaN	0.000000	0.001526	0.001744	28.1141	0.041250	0.001994	20.6876	119.059	17.0887	0.088890	0.791608	-0.343471	-0.344784	0.043314	20.6876	-0.345041	-21625	-2.002941E-6	NaN
7.000000	1.000000	0.802957	7.36511e+06	-38989.1	955.817	-29796.1	0.000000	0.000000	6.803084	0.047430	NaN	0.000000	0.001561	0.001775	28.1275	0.026980	0.002051	13.1525	-179.738	-165.04	0.045411	0.801583	-0.333435	-0.334809	0.047430	13.1525	-0.336140	-16041.3	-2.956761E-6	NaN
7.000000	1.000000	0.812948	7.36511e+06	-38989.1	955.817	-29796.1	0.000000	0.000000	6.813071	-0.031185	NaN	0.000000	0.001538	0.001719	28.0865	0.027229	0.002051	13.2762	-84.9329	14.0967	0.003821	0.811633	-0.323444	-0.324759	-0.031185	13.2762	-0.321683	-9849.09	3.166280E-6	NaN
7.000000	1.000000	0.822923	7.36511e+06	-38989.1	955.818	-29796.1	0.000000	0.000000	6.823049	0.016482	NaN	0.000000	0.001537	0.001761	28.0808	0.124868	0.001850	67.4999	-98.9102	-165.211	0.022204	0.821583	-0.313469	-0.314809	0.016482	67.4999	-0.313652	-7499.74	-2.197730E-6	NaN
7.000000	1.000000	0.832957	7.36512e+06	-38989.1	955.818	-29796.1	0.000000	0.000000	6.833084	0.044704	NaN	0.000000	0.001522	0.001716	28.1122	0.097468	0.001894	51.4595	91.389	14.0451	0.100074	0.831619	-0.303435	-0.304773	0.044704	51.4595	-0.304087	-5412.46	-8.259431E-6	NaN
7.000000	1.000000	0.842983	7.36512e+06	-38989.1	955.818	-29796.1	0.000000	0.000000	6.843111	0.069461	NaN	0.000000	0.001501	0.001751	28.1269	0.059568	0.002053	29.013	-28.0652	-166.488	0.057030	0.841640	-0.293409	-0.294752	0.069461	29.013	-0.295204	-3991.54	-1.740209E-5	NaN
7.000000	1.000000	0.852958	7.36512e+06	-38989.1	955.818	-29796.1	0.000000	0.000000	6.853087	0.080036	NaN	0.000000	0.001554	0.001731	28.0858	0.036524	0.002069	17.6501	96.0377	12.9191	0.048910	0.851602	-0.283434	-0.284790	0.080036	17.6501	-0.286835	-2991.11	-2.675790E-5	NaN
7.000000	1.000000	0.862988	7.36512e+06	-38989.1	955.819	-29796.1	0.000000	0.000000	6.863117	0.086077	NaN	0.000000	0.001565	0.001705	28.0825	0.111690	0.001971	56.6572	-169.602	-165.254	0.081772	0.861673	-0.273404	-0.274719	0.086077	56.6572	-0.274543	-1952.01	-4.409665E-5	NaN
7.000000	1.000000	0.872981	7.36512e+06	-38989.1	955.818	-29796.1	0.000000	0.000000	6.873109	0.067743	NaN	0.000000	0.001578	0.001700	28.1142	0.059704	0.001988	30.0309	-46.5834	15.0409	0.063672	0.871602	-0.263411	-0.264790	0.067743	30.0309	-0.265103	-1402.68	-4.829522E-5	NaN
7.000000	1.000000	0.882988	7.36512e+06	-38989.1	955.818	-29796.1	0.000000	0.000000	6.883113	0.006233	NaN	0.000000	0.001568	0.001723	28.1287	0.084749	0.001890	44.8306	33.3852	-166.579	0.023160	0.881681	-0.253404	-0.254711	0.006233	44.8306	-0.253509	-931.41	-6.692071E-6	NaN
7.000000	1.000000	0.892991	7.36512e+06	-38989.1	955.818	-29796.1	0.000000	0.000000	6.893118	0.042716	NaN	0.000000	0.001549	0.001748	28.0889	0.126810	0.002097	60.4695	-154.566	18.2147	0.013102	0.891652	-0.243401	-0.244740	0.042716	60.4695	-0.243931	-661.95	-6.452999E-5	NaN
7.000000	1.000000	0.903017	7.36512e+06	-38989.1	955.818	-29796.1	0.000000	0.000000	6.903144	0.056716	NaN	0.000000	0.001545	0.001741	28.0831	0.143613	0.002003	71.7164	-14.76	-161.41	0.051589	0.901648	-0.233375	-0.234744	0.056716	71.7164	-0.233968	-462.421	-0.000123	NaN
7.000000	1.000000	0.912997	7.36512e+06	-38989.1	955.817	-29796.1	0.000000	0.000000	6.913124	0.056975	NaN	0.000000	0.001534	0.001771	28.1137	0.051037	0.001894	26.9494	-92.5847	17.5721	0.067994	0.911667	-0.223395	-0.224725	0.056975	26.9494	-0.224981	-333.453	-0.000171	NaN
7.000000	1.000000	0.922986	7.36512e+06	-38989.1	955.819	-29796.1	0.000000	0.000000	6.923112	0.030933	NaN	0.000000	0.001546	0.001775	28.1277	0.075052	0.002010	37.3426	-26.8924	-162.059	0.068994	0.921671	-0.213406	-0.214721	0.030933	37.3426	-0.214028	-222.773	-0.000139	NaN
7.000000	1.000000	0.932961	7.36512e+06	-38989.1	955.819	-29796.1	0.000000	0.000000	6.933089	0.065529	NaN	0.000000	0.001588	0.001795	28.0872	0.063008	0.001898	33.1968	-125.048	16.5721	0.029863	0.931680	-0.203431	-0.204712	0.065529	33.1968	-0.204911	-158.531	-0.000413	NaN
7.000000	1.000000	0.942998	7.36512e+06	-38989.1	955.819	-29796.1	0.000000	0.000000	6.943122	-0.021451	NaN	0.000000	0.001537	0.001794	28.0843	0.038324	0.001987	19.2875	-75.0073	-165.253	0.032930	0.941650	-0.193394	-0.194742	-0.021451	19.2875	-0.192560	-99.242	0.000216	NaN
7.000000	1.000000	0.952996	7.36512e+06	-38989.1	955.818	-29796.1	0.000000	0.000000	6.953123	0.040248	NaN	0.000000	0.001520	0.001791	28.1139	0.079400	0.001891	41.9966	-90.365	17.8632	0.103142	0.951644	-0.183396	-0.184748	0.040248	41.9966	-0.184115	-71.6468	-0.000562	NaN
7.000000	1.000000	0.962986	7.36512e+06	-38989.1	955.817	-29796.1	0.000000	0.000000	6.963115	0.085131	NaN	0.000000	0.001509	0.001723	28.1292	0.102629	0.002013	50.9733	29.7817	-164.268	0.024323	0.961693	-0.173406	-0.174699	0.085131	50.9733	-0.174658	-49.4436	-0.001722	NaN
7.000000	1.000000	0.973023	7.36512e+06	-38989.1	955.818	-29796.1	0.000000	0.000000	6.973149	0.031271	NaN	0.000000	0.001569	0.001728	28.0895	0.014623	0.001959	7.465741	-92.8215	12.2687	0.028662	0.971690	-0.163369	-0.164702	0.031271	7.465741	-0.166511	-35.7099	-0.000876	NaN
7.000000	1.000000	0.983027	7.36512e+06	-38989.1	955.817	-29796.1	0.000000	0.000000	6.983152	-0.001462	NaN	0.000000	0.001500	0.001688	28.0823	0.038398	0.002064	18.6008	71.8685	-161.621	-0.065409	0.981735	-0.153365	-0.154657	-0.001462	18.6008	-0.153306	-20.7984	7.027820E-5	NaN
7.000000	1.000000	0.993017	7.36512e+06	-38989.1	955.817	-29796.1	0.000000	0.000000	6.993144	0.054272	NaN	0.000000	0.001504	0.001723	28.1131	0.151720	0.002107	72.0239	-159.71	12.079	0.100613	0.991649	-0.143375	-0.144743	0.054272	72.0239	-0.143940	-14.0129	-0.003873	NaN
7.000000	1.000000	1.003027	7.36512e+06	-38989.1	955.817	-29796.1	0.000000	0.000000	7.003156	0.097137	NaN	0.000000	0.001495	0.001708	28.1284	0.045047	0.001910	23.5809	99.5548	-161.637	0.032020	1.001712	-0.133365	-0.134680	0.097137	23.5809	-0.136455	-10.1391	-0.009580	NaN
7.000000	1.000000	1.013059	7.36512e+06	-38989.1	955.818	-29796.1	0.000000	0.000000	7.013185	0.032599	NaN	0.000000	0.001531	0.001706	28.0869	0.017758	0.001907	9.312213	-73.4801	17.823	-0.004650	1.011649	-0.123333	-0.124743	0.032599	9.312213	-0.125959	-6.352282	-0.005132	NaN
7.000000	1.000000	1.023053	7.36512e+06	-38989.1	955.817	-29796.1	0.000000	0.000000	7.023180	0.043870	NaN	0.000000	0.001560	0.001697	28.0818	0.043193	0.002004	21.5586	133.892	-168.106	0.117058	1.021799	-0.113339	-0.114593	0.043870	21.5586	-0.114865	-3.796037	-0.011557	NaN
7.000000	1.000000	1.033061	7.36512e+06	-38989.1	955.817	-29796.1	0.000000	0.000000	7.033189	0.079834	NaN	0.000000	0.001533	0.001709	28.1123	0.122271	0.001948	62.7525	90.9652	13.5811	0.050713	1.031657	-0.103331	-0.104735	0.079834	62.7525	-0.104285	-2.268317	-0.035195	NaN
7.000000	1.000000	1.043047	7.36512e+06	-38989.1	955.818	-29796.1	0.000000	0.000000	7.043175	0.077357	NaN	0.000000	0.001511	0.001735	28.1282	0.036927	0.002089	17.6764	-56.6345	-164.032	0.108375	1.041753	-0.093345	-0.094639	0.077357	17.6764	-0.096627	-1.535759	-0.050370	NaN
7.000000	1.000000	1.053019	7.36512e+06	-38989.1	955.818	-29796.1	0.000000	0.000000	7.053148	0.074710	NaN	0.000000	0.001518	0.001716	28.0884	0.111830	0.001962	56.9874	20.7182	14.3616	0.045696	1.051710	-0.083373	-0.084682	0.074710	56.9874	-0.084356	-0.792608	-0.094258	NaN
7.000000	1.000000	1.063036	7.36512e+06	-38989.1	955.817	-29796.1	0.000000	0.000000	7.063165	0.081124	NaN	0.000000	0.001498	0.001722	28.0817	0.075728	0.001918	39.4895	159.421	-167.095	0.125571	1.061762	-0.073356	-0.074630	0.081124	39.4895	-0.074897	-0.459037	-0.176726	NaN
7.000000	1.000000	1.073043	7.36512e+06	-38989.1	955.817	-29796.1	0.000000	0.000000	7.073170	0.028744	NaN	0.000000	0.001536	0.001684	28.1115	0.128014	0.001963	65.2146	-140.395	16.6804	0.056292	1.071664	-0.063349	-0.064728	0.028744	65.2146	-0.063679	-0.228967	-0.125536	NaN
7.000000	1.000000	1.083091	7.36512e+06	-38989.1	955.818	-29796.1	0.000000	0.000000	7.083219	0.052816	NaN	0.000000	0.001520	0.001707	28.127	0.028560	0.002008	14.22	-84.9629	-160.756	-0.016873	1.081757	-0.053301	-0.054635	0.052816	14.22	-0.056086	-0.138628	-0.380987	NaN
7.000000	1.000000	1.093071	7.36512e+06	-38989.1	955.817	-29796.1	0.000000	0.000000	7.093196	-0.013098	NaN	0.000000	0.001523	0.001722	28.0866	0.039535	0.001996	19.8048	119.666	13.8622	-0.087002	1.091705	-0.043321	-0.044687	-0.013098	19.8048	-0.042825	-0.055141	0.237539	NaN
7.000000	1.000000	1.103072	7.36512e+06	-38989.1	955.817	-29796.1	0.000000	0.000000	7.103201	0.095699	NaN	0.000000	0.001517	0.001704	28.0824	0.023407	0.001894	12.3599	-75.0248	-167.088	0.040020	1.101794	-0.033320	-0.034598	0.095699	12.3599	-0.039127	-0.042550	-2.249113	NaN
7.000000	1.000000	1.113074	7.36512e+06	-38989.1	955.817	-29796.1	0.000000	0.000000	7.113199	-0.004074	NaN	0.000000	0.001495	0.001741	28.1119	0.126234	0.001962	64.3355	-34.9116	14.0869	0.040138	1.111720	-0.023318	-0.024672	-0.004074	64.3355	-0.023270	-0.015218	0.267715	NaN
7.000000	1.000000	1.123102	7.36512e+06	-38989.1	955.818	-29796.1	0.000000	0.000000	7.123229	0.048376	NaN	0.000000	0.001493	0.001718	28.1288	0.118391	0.001998	59.2663	-175.93	-163.261	0.066120	1.121790	-0.013290	-0.014602	0.048376	59.2663	-0.013902	-0.008626	-5.608078	NaN
7.000000	1.000000	1.133115	7.36512e+06	-38989.1	955.818	-29796.1	0.000000	0.000000	7.133241	0.023598	NaN	0.000000	0.001523	0.001725	28.0884	0.019622	0.002004	9.793538	134.402	14.1795	-0.006386	1.131683	-0.003277	-0.004710	0.023598	9.793538	-0.005084	-0.003470	-6.801353	NaN
7.000000	1.000000	1.142966	7.36512e+06	-38989.1	955.818	-29796.1	0.000000	0.000000	7.143402	7.544612	NaN	0.000000	0.001530	0.001716	28.0806	6.878744	0.001660	4142.78	8.387136	-167.864	5.655126	1.141723	0.006574	0.005331	7.544612	4142.78	0.005208	0.004324	1744.64	57557.2
7.000000	2.000000	1.146245	7.36512e+06	-38989.1	955.818	-29796.1	0.000000	0.000000	7.146801	10.5079	NaN	0.000000	0.001549	0.001705	28.1124	10.759	0.001688	6373.47	6.299271	7.962857	10.1505	1.145835	0.009852	0.009443	10.5079	6373.47	0.008616	0.007684	1367.59	66430.7
7.000000	2.000000	1.148689	7.36512e+06	-38989.1	955.818	-29796.1	0.000000	0.000000	7.149444	15.3369	NaN	0.000000	0.001559	0.001710	28.1292	14.0801	0.001774	7937.83	4.916530	-171.582	15.6461	1.148349	0.012297	0.011957	15.3369	7937.83	0.010848	0.010139	1512.7	72024.9
7.000000	2.000000	1.151186	7.36512e+06	-38989.1	955.818	-29796.1	0.000000	0.000000	7.152146	20.3013	NaN	0.000000	0.001527	0.001711	28.0879	17.0436	0.001809	9421.34	8.231119	4.049978	18.4986	1.150802	0.014794	0.014410	20.3013	9421.34	0.013178	0.012932	1569.84	75692.2
7.000000	2.000000	1.153622	7.36512e+06	-38989.1	955.818	-29796.1	0.000000	0.000000	7.154802	25.6827	NaN	0.000000	0.001553	0.001737	28.0829	19.7135	0.001868	10551.5	8.976981	-176.537	25.0788	1.153334	0.017230	0.016942	25.6827	10551.5	0.015404	0.015828	1622.57	76624.4
7.000000	2.000000	1.156162	7.36512e+06	-38989.1	955.819	-29796.1	0.000000	0.000000	7.157546	30.6333	NaN	0.000000	0.001541	0.001731	28.1123	21.5528	0.001820	11844	4.217577	5.523454	28.7904	1.155799	0.019770	0.019407	30.6333	11844	0.017830	0.019247	1591.6	77999.2
7.000000	2.000000	1.158631	7.36512e+06	-38989.1	955.818	-29796.1	0.000000	0.000000	7.160091	32.4832	NaN	0.000000	0.001536	0.001738	28.1302	24.7309	0.001874	13199	7.371351	-178.821	32.1228	1.158383	0.022239	0.021991	32.4832	13199	0.020393	0.023163	1402.36	79234.5
7.000000	2.000000	1.161131	7.36512e+06	-38989.1	955.818	-29796.1	0.000000	0.000000	7.163093	44.7	NaN	0.000000	0.001570	0.001749	28.0901	25.7166	0.001711	15030	2.392364	5.445144	42.4831	1.160758	0.024739	0.024366	44.7	15030	0.022509	0.026639	1678.02	84134.8
7.000000	2.000000	1.163594	7.36512e+06	-38989.1	955.819	-29796.1	0.000000	0.000000	7.165797	50.572	NaN	0.000000	0.001518	0.001705	28.084	27.8822	0.001639	17016.3	2.663847	-177.951	49.229	1.163345	0.027202	0.026953	50.572	17016.3	0.024973	0.030966	1633.14	88347.5
7.000000	2.000000	1.166126	7.36512e+06	-38989.1	955.818	-29796.1	0.000000	0.000000	7.168376	51.727	NaN	0.000000	0.001537	0.001717	28.1118	31.6869	0.001829	17320.2	6.025302	-0.796244	50.0898	1.165877	0.029733	0.029485	51.727	17320.2	0.027494	0.035709	1448.58	83741.2
7.000000	2.000000	1.168687	7.36512e+06	-38989.1	955.818	-29796.1	0.000000	0.000000	7.171345	61.6321	NaN	0.000000	0.001590	0.001684	28.1298	34.6508	0.001808	19168.2	7.514522	177.501	64.3327	1.168352	0.032295	0.031960	61.6321	19168.2	0.029884	0.040503	1521.68	87018.9
7.000000	2.000000	1.171102	7.36512e+06	-38989.1	955.818	-29796.1	0.000000	0.000000	7.174243	73.3835	NaN	0.000000	0.001582	0.001683	28.0897	36.7677	0.001780	20660.1	7.236559	-2.555309	71.4504	1.170730	0.034710	0.034338	73.3835	20660.1	0.032046	0.045092	1627.42	88890.9
7.000000	2.000000	1.173553	7.36512e+06	-38989.1	955.818	-29796.1	0.000000	0.000000	7.177017	81.2353	NaN	0.000000	0.001569	0.001690	28.0839	38.8087	0.001769	21943.6	7.696739	176.285	79.2822	1.173206	0.037161	0.036814	81.2353	21943.6	0.034385	0.050323	1614.27	89371.1
7.000000	2.000000	1.176065	7.36512e+06	-38989.1	955.818	-29796.1	0.000000	0.000000	7.179876	89.714	NaN	0.000000	0.001610	0.001702	28.1125	40.726	0.001753	23230.9	3.268976	0.102437	87.4254	1.175734	0.039673	0.039342	89.714	23230.9	0.036776	0.055963	1603.1	89719.8
7.000000	2.000000	1.178597	7.36512e+06	-38989.1	955.818	-29796.1	0.000000	0.000000	7.182754	98.1165	NaN	0.000000	0.001584	0.001739	28.1305	44.494	0.001819	24465.6	5.702457	177.457	98.0788	1.178389	0.042205	0.041997	98.1165	24465.6	0.039198	0.061971	1583.27	89791.5
7.000000	2.000000	1.181105	7.36512e+06	-38989.1	955.818	-29796.1	0.000000	0.000000	7.185753	110.08	NaN	0.000000	0.001550	0.001706	28.0891	46.143	0.001795	25705.5	6.425736	-4.158455	108.914	1.180786	0.044713	0.044394	110.08	25705.5	0.041501	0.067965	1619.66	90086.2
7.000000	2.000000	1.183604	7.36512e+06	-38989.1	955.818	-29796.1	0.000000	0.000000	7.188746	122.102	NaN	0.000000	0.001543	0.001721	28.0806	47.7716	0.001730	27611.5	9.271981	173.452	124.131	1.183218	0.047212	0.046825	122.102	27611.5	0.043895	0.074481	1639.37	92435.8
7.000000	2.000000	1.186101	7.36512e+06	-38989.1	955.819	-29796.1	0.000000	0.000000	7.191315	123.831	NaN	0.000000	0.001574	0.001680	28.1096	50.782	0.001785	28455.5	3.609577	-1.964157	121.606	1.185755	0.049709	0.049363	123.831	28455.5	0.046445	0.081743	1514.88	90931.4
7.000000	2.000000	1.188540	7.36512e+06	-38989.1	955.819	-29796.1	0.000000	0.000000	7.194405	139.675	NaN	0.000000	0.001539	0.001682	28.1283	52.4812	0.001694	30986.4	1.662229	178.655	136.4	1.188319	0.052148	0.051927	139.675	30986.4	0.048767	0.088641	1575.74	95088.2
7.000000	2.000000	1.191168	7.36512e+06	-38989.1	955.819	-29796.1	0.000000	0.000000	7.197372	147.936	NaN	0.000000	0.001601	0.001689	28.0875	55.4285	0.001868	29678.6	6.293984	-4.613725	149.591	1.190781	0.054776	0.054389	147.936	29678.6	0.051037	0.095646	1546.7	87676.3
7.000000	2.000000	1.193606	7.36512e+06	-38989.1	955.818	-29796.1	0.000000	0.000000	7.200427	162.958	NaN	0.000000	0.001581	0.001703	28.0817	57.4453	0.001922	29880.9	4.292361	176.89	163.728	1.193318	0.057214	0.056926	162.958	29880.9	0.053123	0.102312	1592.76	85350.1
7.000000	2.000000	1.196131	7.36512e+06	-38989.1	955.817	-29796.1	0.000000	0.000000	7.203413	174.176	NaN	0.000000	0.001605	0.001711	28.1104	58.7822	0.001696	34649.7	6.167632	-5.637766	177.012	1.195645	0.059739	0.059253	174.176	34649.7	0.055968	0.111750	1558.62	94699.9
7.000000	2.000000	1.198506	7.36512e+06	-38989.1	955.818	-29796.1	0.000000	0.000000	7.206145	182.842	NaN	0.000000	0.001583	0.001731	28.1292	64.2311	0.001869	34367.9	4.856801	174.716	177.688	1.198395	0.062114	0.062003	182.842	34367.9	0.058124	0.119167	1534.34	90959.6
7.000000	2.000000	1.201115	7.36512e+06	-38989.1	955.817	-29796.1	0.000000	0.000000	7.209678	205.34	NaN	0.000000	0.001626	0.001731	28.089	65.0071	0.001772	36677	5.858114	-5.486216	205.426	1.200688	0.064723	0.064296	205.34	36677	0.060524	0.127695	1608.05	93773.4
7.000000	2.000000	1.203646	7.36512e+06	-38989.1	955.817	-29796.1	0.000000	0.000000	7.212710	217.542	NaN	0.000000	0.001635	0.001718	28.082	67.2625	0.001793	37514.8	4.025332	175.888	222.166	1.203225	0.067253	0.066832	217.542	37514.8	0.062904	0.136428	1594.55	92794.7
7.000000	2.000000	1.206051	7.36512e+06	-38989.1	955.816	-29796.1	0.000000	0.000000	7.215777	233.629	NaN	0.000000	0.001653	0.001714	28.1096	69.4116	0.001729	40150.9	6.749129	-7.867335	230.614	1.205572	0.069659	0.069180	233.629	40150.9	0.065295	0.145477	1605.95	96177.2
7.000000	2.000000	1.208616	7.36512e+06	-38989.1	955.818	-29796.1	0.000000	0.000000	7.218900	247.233	NaN	0.000000	0.001663	0.001743	28.128	73.0082	0.001833	39834.8	5.746094	173.502	248.37	1.208144	0.072224	0.071752	247.233	39834.8	0.067569	0.154339	1601.88	92639.9
7.000000	2.000000	1.211176	7.36512e+06	-38989.1	955.817	-29796.1	0.000000	0.000000	7.221935	258.778	NaN	0.000000	0.001652	0.001730	28.0877	74.8078	0.001800	41567	4.697859	-6.636548	259.344	1.210872	0.074784	0.074480	258.778	41567	0.070115	0.164555	1572.59	93619.5
7.000000	2.000000	1.213591	7.36512e+06	-38989.1	955.816	-29796.1	0.000000	0.000000	7.224995	274.487	NaN	0.000000	0.001640	0.001772	28.0824	76.7924	0.001741	44111.4	6.084684	171.714	277.235	1.213325	0.077199	0.076933	274.487	44111.4	0.072532	0.174539	1572.63	96466.6
7.000000	2.000000	1.215985	7.36512e+06	-38989.1	955.818	-29796.1	0.000000	0.000000	7.228552	302.764	NaN	0.000000	0.001604	0.001742	28.1111	80.06	0.001878	42621.8	7.987092	-9.182028	296.825	1.215528	0.079593	0.079136	302.764	42621.8	0.074265	0.181871	1664.72	91311
7.000000	2.000000	1.218489	7.36512e+06	-38989.1	955.818	-29796.1	0.000000	0.000000	7.231306	308.85	NaN	0.000000	0.001621	0.001744	28.1309	81.6983	0.001844	44311.3	1.997449	176.254	305.089	1.218223	0.082097	0.081831	308.85	44311.3	0.076869	0.193149	1599.02	92117.3
7.000000	2.000000	1.220941	7.36512e+06	-38989.1	955.817	-29796.1	0.000000	0.000000	7.234743	332.821	NaN	0.000000	0.001569	0.001709	28.0902	83.665	0.001799	46501.3	4.936224	-7.170639	324.076	1.220673	0.084549	0.084281	332.821	46501.3	0.079181	0.203428	1636.06	94196.1
7.000000	2.000000	1.223456	7.36512e+06	-38989.1	955.817	-29796.1	0.000000	0.000000	7.238169	354.999	NaN	0.000000	0.001555	0.001720	28.0814	84.9168	0.001773	47902.4	4.719197	174.062	350.432	1.223137	0.087064	0.086745	354.999	47902.4	0.081505	0.214014	1658.77	94604.1
7.000000	2.000000	1.226034	7.36512e+06	-38989.1	955.817	-29796.1	0.000000	0.000000	7.241340	369.438	NaN	0.000000	0.001603	0.001701	28.1104	87.6066	0.001934	45298.9	2.721091	-4.029296	365.671	1.225740	0.089642	0.089348	369.438	45298.9	0.083525	0.223417	1653.58	87559.4
7.000000	2.000000	1.228459	7.36512e+06	-38989.1	955.817	-29796.1	0.000000	0.000000	7.244554	388.642	NaN	0.000000	0.001548	0.001693	28.1298	89.304	0.001753	50938.2	2.043496	175.368	384.911	1.228185	0.092066	0.091793	388.642	50938.2	0.086344	0.236855	1640.84	95625.8
7.000000	2.000000	1.230960	7.36512e+06	-38989.1	955.818	-29796.1	0.000000	0.000000	7.248025	412.234	NaN	0.000000	0.001537	0.001714	28.0907	91.7687	0.001742	52680.8	8.781321	-11.0751	403.39	1.230586	0.094568	0.094194	412.234	52680.8	0.088699	0.248362	1659.81	96579
7.000000	2.000000	1.233419	7.36512e+06	-38989.1	955.818	-29796.1	0.000000	0.000000	7.251138	428.151	NaN	0.000000	0.001575	0.001725	28.0833	95.6979	0.001813	52794.7	6.509324	170.72	422.551	1.233114	0.097027	0.096722	428.151	52794.7	0.090945	0.259575	1649.43	94674.2
7.000000	2.000000	1.235865	7.36512e+06	-38989.1	955.818	-29796.1	0.000000	0.000000	7.254687	454.991	NaN	0.000000	0.001610	0.001713	28.1115	96.9195	0.001766	54885.1	4.016046	-7.717000	443.355	1.235597	0.099473	0.099205	454.991	54885.1	0.093256	0.271352	1676.76	96263.4
7.000000	2.000000	1.238532	7.36512e+06	-38989.1	955.818	-29796.1	0.000000	0.000000	7.258303	478.105	NaN	0.000000	0.001586	0.001741	28.1309	101.051	0.001934	52249.2	5.332763	172.051	479.388	1.238190	0.102140	0.101798	478.105	52249.2	0.095277	0.281853	1696.29	89916.9
7.000000	2.000000	1.241087	7.36512e+06	-38989.1	955.818	-29796.1	0.000000	0.000000	7.261920	503.936	NaN	0.000000	0.001589	0.001705	28.0915	102.009	0.001773	57536.2	6.409695	-9.098142	503.577	1.240572	0.104695	0.104180	503.936	57536.2	0.098126	0.296971	1696.92	96462.2
7.000000	2.000000	1.242467	7.36512e+06	-38989.1	955.817	-29796.1	0.000000	0.000000	7.263497	508.729	NaN	0.000000	0.001583	0.001736	28.1301	101.693	0.001703	59719.4	-2.335102	178.55	503.638	1.242132	0.106075	0.105740	508.729	59719.4	0.099686	0.305409	1665.73	98729.6