File: remote_trans/data/nanoindenter/0828-1/data/Data_2025-08-06,11h17m57s/2025-07-22_16-23-58_1_781.txt
2025-07-22, 16:23:58, 1
Index	Phase	Displacement	Time	Pos X	Pos Y	Pos Z	Rot A	Rot B	Piezo Z	Force A	Force B	Gripper	Voltage A	Voltage B	Temperature	Amplitude force	Amplitude pos	Stiffness	Phase shift	Phase excitation	Force A raw	Displacement raw	HMax	HMax raw	Real Force	Real Stiffness	Contact Depth	Area	Hardness	Reduced Mod.
[#]	[#]	[um]	[s]	[um]	[um]	[um]	[m°]	[m°]	[um]	[uN]	[uN]	[V]	[V]	[V]	[°C]	[uN]	[um]	[N/m]	[°]	[°]	[uN]	[um]	[um]	[um]	[uN]	[N/m]	[um]	[um^2]	[MPa]	[MPa]
781	1.000000	0.002816	7.37269e+06	-39189.1	1055.82	-29794.8	0.000000	0.000000	6.002834	0.088773	NaN	0.000000	0.001709	0.001705	28.0832	0.030029	0.000918	32.7032	14.7088	-167.897	0.046611	0.001478	-1.063154	-1.064493	0.088773	32.7032	-1.065190	-1.708308E+14	-5.196553E-16	NaN
781	1.000000	0.010746	7.37269e+06	-39189.1	1055.82	-29794.8	0.000000	0.000000	6.010760	0.015713	NaN	0.000000	0.001673	0.001704	28.0832	0.164600	0.001022	161.112	-171.162	-169.648	-0.026254	0.009498	-1.055225	-1.056472	0.015713	161.112	-1.055298	-1.257850E+14	-1.249193E-16	NaN
781	1.000000	0.018754	7.37269e+06	-39189.1	1055.82	-29794.8	0.000000	0.000000	6.018768	0.009228	NaN	0.000000	0.001676	0.001708	28.0832	0.027034	0.001805	14.9794	-100.803	-164.004	0.027149	0.017448	-1.047217	-1.048522	0.009228	14.9794	-1.047679	-9.935881E+13	-9.287233E-17	NaN
781	1.000000	0.026758	7.37269e+06	-39189.1	1055.82	-29794.8	0.000000	0.000000	6.026771	-0.004180	NaN	0.000000	0.001693	0.001711	28.0833	0.039345	0.001866	21.0852	-156.242	-164.243	-0.017884	0.025413	-1.039213	-1.040558	-0.004180	21.0852	-1.039064	-7.609932E+13	5.493436E-17	NaN
781	1.000000	0.034753	7.37269e+06	-39189.1	1055.82	-29794.8	0.000000	0.000000	6.034766	-0.024137	NaN	0.000000	0.001732	0.001705	28.083	0.095231	0.002000	47.6214	46.9043	-167.11	-0.055884	0.033434	-1.031217	-1.032537	-0.024137	47.6214	-1.030837	-5.898507E+13	4.092084E-16	NaN
781	1.000000	0.042744	7.37269e+06	-39189.1	1055.82	-29794.8	0.000000	0.000000	6.042756	-0.047557	NaN	0.000000	0.001712	0.001702	28.0834	0.103316	0.001877	55.0385	-72.5107	-166.363	-0.039522	0.041446	-1.023226	-1.024524	-0.047557	55.0385	-1.022578	-4.567134E+13	1.041286E-15	NaN
781	1.000000	0.050731	7.37269e+06	-39189.1	1055.82	-29794.8	0.000000	0.000000	6.050742	-0.055708	NaN	0.000000	0.001694	0.001729	28.0831	0.076225	0.001929	39.5121	167.207	-163.569	-0.011839	0.049425	-1.015240	-1.016546	-0.055708	39.5121	-1.014182	-3.521006E+13	1.582152E-15	NaN
781	1.000000	0.058745	7.37269e+06	-39189.1	1055.82	-29794.8	0.000000	0.000000	6.058759	0.008107	NaN	0.000000	0.001697	0.001685	28.0836	0.018682	0.002086	8.956630	85.2468	-167.219	-0.043714	0.057423	-1.007226	-1.008548	0.008107	8.956630	-1.007905	-2.898559E+13	-2.797001E-16	NaN
781	1.000000	0.066735	7.37269e+06	-39189.1	1055.82	-29794.8	0.000000	0.000000	6.066748	-0.017418	NaN	0.000000	0.001689	0.001730	28.0832	0.084580	0.001981	42.6932	-132.451	-165.575	-0.026133	0.065445	-0.999236	-1.000526	-0.017418	42.6932	-0.998930	-2.194638E+13	7.936417E-16	NaN
781	1.000000	0.074742	7.37269e+06	-39189.1	1055.82	-29794.8	0.000000	0.000000	6.074759	0.068095	NaN	0.000000	0.001702	0.001714	28.0828	0.121992	0.002099	58.1301	35.6308	-169.283	-0.005973	0.073432	-0.991228	-0.992538	0.068095	58.1301	-0.992107	-1.776170E+13	-3.833832E-15	NaN
781	1.000000	0.082729	7.37269e+06	-39189.1	1055.82	-29794.8	0.000000	0.000000	6.082738	-0.108406	NaN	0.000000	0.001676	0.001754	28.0834	0.141926	0.001964	72.2672	-147.456	-166.076	-0.034748	0.081412	-0.983242	-0.984559	-0.108406	72.2672	-0.982117	-1.302961E+13	8.319935E-15	NaN
781	1.000000	0.090763	7.37269e+06	-39189.1	1055.82	-29794.8	0.000000	0.000000	6.090778	0.041343	NaN	0.000000	0.001714	0.001726	28.083	0.093476	0.002020	46.2754	18.0397	-165.733	0.060100	0.089483	-0.975208	-0.976488	0.041343	46.2754	-0.975878	-1.073675E+13	-3.850570E-15	NaN
781	1.000000	0.098739	7.37269e+06	-39189.1	1055.82	-29794.8	0.000000	0.000000	6.098751	-0.033611	NaN	0.000000	0.001651	0.001719	28.0834	0.050984	0.002132	23.9115	-14.0016	-165.439	-0.041055	0.097391	-0.967232	-0.968579	-0.033611	23.9115	-0.966177	-7.945862E+12	4.230030E-15	NaN
781	1.000000	0.106726	7.37269e+06	-39189.1	1055.82	-29794.8	0.000000	0.000000	6.106740	0.030074	NaN	0.000000	0.001681	0.001734	28.0834	0.012343	0.001880	6.564567	-118.489	-164.17	-0.006658	0.105472	-0.959245	-0.960499	0.030074	6.564567	-0.962681	-7.128749E+12	-4.218736E-15	NaN
781	1.000000	0.114741	7.37269e+06	-39189.1	1055.82	-29794.8	0.000000	0.000000	6.114753	-0.053320	NaN	0.000000	0.001708	0.001726	28.0845	0.102873	0.001916	53.6782	29.1643	-164.397	-0.068902	0.113456	-0.951230	-0.952515	-0.053320	53.6782	-0.950485	-4.881598E+12	1.092273E-14	NaN
781	1.000000	0.122744	7.37269e+06	-39189.1	1055.82	-29794.8	0.000000	0.000000	6.122756	-0.037353	NaN	0.000000	0.001730	0.001709	28.085	0.057858	0.001890	30.6176	55.0219	-169.475	0.068474	0.121487	-0.943226	-0.944483	-0.037353	30.6176	-0.942311	-3.787213E+12	9.862805E-15	NaN
781	1.000000	0.130772	7.37269e+06	-39189.1	1055.82	-29794.8	0.000000	0.000000	6.130788	0.041309	NaN	0.000000	0.001690	0.001756	28.0843	0.086698	0.001945	44.5638	53.4891	-166.693	-0.034562	0.129461	-0.935198	-0.936510	0.041309	44.5638	-0.935894	-3.102635E+12	-1.331415E-14	NaN
781	1.000000	0.138775	7.37269e+06	-39189.1	1055.82	-29794.8	0.000000	0.000000	6.138786	-0.057181	NaN	0.000000	0.001717	0.001737	28.0847	0.052330	0.002054	25.4827	116.563	-165.484	0.027830	0.137452	-0.927196	-0.928519	-0.057181	25.4827	-0.925513	-2.247147E+12	2.544623E-14	NaN
781	1.000000	0.146806	7.37269e+06	-39189.1	1055.82	-29794.8	0.000000	0.000000	6.146819	-0.011451	NaN	0.000000	0.001711	0.001734	28.0844	0.079506	0.002024	39.2731	41.4612	-170.109	0.011065	0.145456	-0.919165	-0.920514	-0.011451	39.2731	-0.918946	-1.832214E+12	6.249869E-15	NaN
781	1.000000	0.154762	7.37269e+06	-39189.1	1055.82	-29794.8	0.000000	0.000000	6.154775	-0.006544	NaN	0.000000	0.001719	0.001707	28.0844	0.038453	0.001936	19.8578	-84.8043	-167.961	0.061581	0.153474	-0.911209	-0.912497	-0.006544	19.8578	-0.910961	-1.429381E+12	4.578116E-15	NaN
781	1.000000	0.162791	7.37269e+06	-39189.1	1055.82	-29794.8	0.000000	0.000000	6.162806	0.049285	NaN	0.000000	0.001710	0.001729	28.0844	0.024230	0.002121	11.4212	23.9704	-166.393	-0.011005	0.161482	-0.903180	-0.904488	0.049285	11.4212	-0.906417	-1.240960E+12	-3.971556E-14	NaN
781	1.000000	0.170805	7.37269e+06	-39189.1	1055.82	-29794.8	0.000000	0.000000	6.170815	-0.093003	NaN	0.000000	0.001686	0.001715	28.0846	0.046843	0.002022	23.1651	82.4792	-166.296	-0.016384	0.169420	-0.895166	-0.896550	-0.093003	23.1651	-0.892154	-7.962274E+11	1.168050E-13	NaN
781	1.000000	0.178795	7.37269e+06	-39189.1	1055.82	-29794.8	0.000000	0.000000	6.178809	0.004598	NaN	0.000000	0.001715	0.001728	28.0846	0.020618	0.001878	10.9807	34.0448	-166.625	-0.090579	0.177511	-0.887175	-0.888460	0.004598	10.9807	-0.887489	-6.886124E+11	-6.676584E-15	NaN
781	1.000000	0.186795	7.37269e+06	-39189.1	1055.82	-29794.8	0.000000	0.000000	6.186808	-0.010839	NaN	0.000000	0.001724	0.001702	28.0845	0.030856	0.001994	15.4723	-46.2124	-163.293	-0.039522	0.185475	-0.879176	-0.880496	-0.010839	15.4723	-0.878651	-5.229478E+11	2.072630E-14	NaN
781	1.000000	0.194762	7.37269e+06	-39189.1	1055.82	-29794.8	0.000000	0.000000	6.194775	-0.006029	NaN	0.000000	0.001698	0.001732	28.0846	0.099050	0.002054	48.2336	105.864	-163.198	-0.036283	0.193533	-0.871209	-0.872438	-0.006029	48.2336	-0.871115	-4.135482E+11	1.457798E-14	NaN
781	1.000000	0.202804	7.37269e+06	-39189.1	1055.82	-29794.8	0.000000	0.000000	6.202819	0.033974	NaN	0.000000	0.001689	0.001757	28.0844	0.031996	0.002118	15.1054	-96.9469	-162.549	0.024560	0.201500	-0.863167	-0.864470	0.033974	15.1054	-0.864854	-3.402581E+11	-9.984800E-14	NaN
781	1.000000	0.210808	7.37269e+06	-39189.1	1055.82	-29794.8	0.000000	0.000000	6.210826	0.095714	NaN	0.000000	0.001668	0.001765	28.0844	0.082845	0.002010	41.2104	122.239	-168.572	0.021881	0.209475	-0.855163	-0.856495	0.095714	41.2104	-0.856905	-2.655952E+11	-3.603748E-13	NaN
781	1.000000	0.218816	7.37269e+06	-39189.1	1055.82	-29794.8	0.000000	0.000000	6.218826	-0.095033	NaN	0.000000	0.001673	0.001756	28.0845	0.073076	0.002000	36.5403	-82.8088	-167.652	-0.066981	0.217438	-0.847155	-0.848533	-0.095033	36.5403	-0.845204	-1.844103E+11	5.153371E-13	NaN
781	1.000000	0.226804	7.37269e+06	-39189.1	1055.82	-29794.8	0.000000	0.000000	6.226818	-0.000728	NaN	0.000000	0.001656	0.001760	28.0845	0.057859	0.002060	28.0861	108.413	-165.985	0.062852	0.225493	-0.839166	-0.840478	-0.000728	28.0861	-0.839147	-1.526641E+11	4.767259E-15	NaN
781	1.000000	0.234819	7.37269e+06	-39189.1	1055.82	-29794.8	0.000000	0.000000	6.234829	-0.074111	NaN	0.000000	0.001688	0.001705	28.0847	0.083619	0.002012	41.569	-57.9452	-166.148	-0.020583	0.233500	-0.831152	-0.832470	-0.074111	41.569	-0.829815	-1.140969E+11	6.495413E-13	NaN
781	1.000000	0.242818	7.37269e+06	-39189.1	1055.82	-29794.8	0.000000	0.000000	6.242832	0.011480	NaN	0.000000	0.001672	0.001702	28.0847	0.036950	0.002140	17.2668	-4.346664	-164.167	0.014686	0.241483	-0.823152	-0.824488	0.011480	17.2668	-0.823651	-9.412784E+10	-1.219634E-13	NaN
781	1.000000	0.250830	7.37269e+06	-39189.1	1055.82	-29794.8	0.000000	0.000000	6.250843	-0.011171	NaN	0.000000	0.001648	0.001738	28.0832	0.063504	0.001989	31.9266	52.0626	-167.307	0.016142	0.249463	-0.815141	-0.816508	-0.011171	31.9266	-0.814878	-7.157299E+10	1.560826E-13	NaN
781	1.000000	0.258811	7.37269e+06	-39189.1	1055.82	-29794.8	0.000000	0.000000	6.258824	0.000193	NaN	0.000000	0.001657	0.001706	28.0834	0.047111	0.002109	22.3357	-169.369	-169.139	0.059924	0.257454	-0.807160	-0.808516	0.000193	22.3357	-0.807167	-5.625051E+10	-3.436025E-15	NaN
781	1.000000	0.266811	7.37269e+06	-39189.1	1055.82	-29794.8	0.000000	0.000000	6.266824	-0.016095	NaN	0.000000	0.001632	0.001731	28.0832	0.065365	0.001891	34.5661	172.596	-162.939	0.013435	0.265524	-0.799159	-0.800446	-0.016095	34.5661	-0.798810	-4.332220E+10	3.715088E-13	NaN
781	1.000000	0.274862	7.37269e+06	-39189.1	1055.82	-29794.8	0.000000	0.000000	6.274875	-0.023069	NaN	0.000000	0.001698	0.001701	28.0832	0.092594	0.001920	48.2329	77.9077	-167.379	0.011048	0.273508	-0.791108	-0.792463	-0.023069	48.2329	-0.790750	-3.367152E+10	6.851248E-13	NaN
781	1.000000	0.282819	7.37269e+06	-39189.1	1055.82	-29794.8	0.000000	0.000000	6.282833	0.009514	NaN	0.000000	0.001657	0.001768	28.0831	0.099921	0.001923	51.9518	-26.3099	-167.506	0.022174	0.281507	-0.783151	-0.784463	0.009514	51.9518	-0.783289	-2.666360E+10	-3.568056E-13	NaN
781	1.000000	0.290854	7.37269e+06	-39189.1	1055.82	-29794.8	0.000000	0.000000	6.290868	-0.001470	NaN	0.000000	0.001710	0.001730	28.0833	0.090450	0.002035	44.4382	-42.8243	-164.005	-0.079581	0.289523	-0.775117	-0.776448	-0.001470	44.4382	-0.775092	-2.063128E+10	7.124900E-14	NaN
781	1.000000	0.298826	7.37269e+06	-39189.1	1055.82	-29794.8	0.000000	0.000000	6.298839	-0.008725	NaN	0.000000	0.001668	0.001709	28.083	0.062837	0.002032	30.9243	44.7028	-165.812	-0.028323	0.297537	-0.767145	-0.768433	-0.008725	30.9243	-0.766933	-1.598109E+10	5.459443E-13	NaN
781	1.000000	0.306842	7.37269e+06	-39189.1	1055.82	-29794.8	0.000000	0.000000	6.306857	0.047837	NaN	0.000000	0.001656	0.001711	28.0831	0.048357	0.002053	23.5515	33.5012	-166.861	0.031625	0.305542	-0.759129	-0.760428	0.047837	23.5515	-0.760652	-1.312734E+10	-3.644068E-12	NaN
781	1.000000	0.314846	7.37269e+06	-39189.1	1055.82	-29794.8	0.000000	0.000000	6.314861	0.034590	NaN	0.000000	0.001657	0.001710	28.083	0.029645	0.001930	15.3603	-30.1372	-166.787	0.100402	0.313488	-0.751125	-0.752482	0.034590	15.3603	-0.752814	-1.026873E+10	-3.368451E-12	NaN
781	1.000000	0.322856	7.37269e+06	-39189.1	1055.82	-29794.8	0.000000	0.000000	6.322867	-0.052943	NaN	0.000000	0.001627	0.001718	28.0829	0.100518	0.001834	54.8111	11.2587	-167.695	-0.113159	0.321546	-0.743115	-0.744425	-0.052943	54.8111	-0.742390	-7.406433E+9	7.148302E-12	NaN
781	1.000000	0.330871	7.37269e+06	-39189.1	1055.82	-29794.8	0.000000	0.000000	6.330885	-0.004829	NaN	0.000000	0.001651	0.001751	28.083	0.071884	0.001885	38.1392	-130.093	-164.643	0.039104	0.329534	-0.735099	-0.736437	-0.004829	38.1392	-0.735004	-5.874919E+9	8.219610E-13	NaN
781	1.000000	0.338850	7.37269e+06	-39189.1	1055.82	-29794.8	0.000000	0.000000	6.338863	-0.008156	NaN	0.000000	0.001653	0.001750	28.0829	0.049352	0.001925	25.6416	-30.9763	-168.894	0.001729	0.337564	-0.727120	-0.728406	-0.008156	25.6416	-0.726882	-4.553095E+9	1.791283E-12	NaN
781	1.000000	0.346835	7.37269e+06	-39189.1	1055.82	-29794.8	0.000000	0.000000	6.346850	0.033101	NaN	0.000000	0.001668	0.001729	28.083	0.019064	0.001850	10.3053	-177.637	-165.881	0.019190	0.345533	-0.719136	-0.720437	0.033101	10.3053	-0.721545	-3.850709E+9	-8.596148E-12	NaN
781	1.000000	0.354877	7.37269e+06	-39189.1	1055.82	-29794.8	0.000000	0.000000	6.354890	-0.003349	NaN	0.000000	0.001659	0.001741	28.083	0.034159	0.002026	16.8617	-112.093	-166.041	0.028058	0.353579	-0.711094	-0.712391	-0.003349	16.8617	-0.710945	-2.760218E+9	1.213276E-12	NaN
781	1.000000	0.362849	7.37269e+06	-39189.1	1055.82	-29794.8	0.000000	0.000000	6.362863	-0.001407	NaN	0.000000	0.001634	0.001734	28.0829	0.052250	0.002003	26.0902	-105.001	-167.824	0.062541	0.361553	-0.703122	-0.704417	-0.001407	26.0902	-0.703081	-2.155775E+9	6.528001E-13	NaN
781	1.000000	0.370859	7.37269e+06	-39189.1	1055.82	-29794.8	0.000000	0.000000	6.370873	0.019087	NaN	0.000000	0.001630	0.001736	28.0831	0.068499	0.001952	35.097	-124.737	-169.822	-0.041525	0.369514	-0.695112	-0.696456	0.019087	35.097	-0.695520	-1.699564E+9	-1.123069E-11	NaN
781	1.000000	0.378883	7.37269e+06	-39189.1	1055.82	-29794.8	0.000000	0.000000	6.378895	-0.039704	NaN	0.000000	0.001650	0.001708	28.083	0.033688	0.002092	16.1039	120.577	-168.625	-0.043157	0.377603	-0.687088	-0.688368	-0.039704	16.1039	-0.685239	-1.229821E+9	3.228421E-11	NaN
781	1.000000	0.386907	7.37269e+06	-39189.1	1055.82	-29794.8	0.000000	0.000000	6.386920	-0.016837	NaN	0.000000	0.001660	0.001674	28.0846	0.168464	0.002085	80.7958	-162.602	-166.531	-0.041926	0.385577	-0.679063	-0.680393	-0.016837	80.7958	-0.678907	-1.007527E+9	1.671096E-11	NaN
781	1.000000	0.394879	7.37269e+06	-39189.1	1055.82	-29794.8	0.000000	0.000000	6.394893	0.030359	NaN	0.000000	0.001651	0.001739	28.0843	0.046174	0.001996	23.1293	123.466	-164.877	-0.027818	0.393600	-0.671092	-0.672371	0.030359	23.1293	-0.672077	-8.124740E+8	-3.736635E-11	NaN
781	1.000000	0.402873	7.37269e+06	-39189.1	1055.82	-29794.8	0.000000	0.000000	6.402888	0.037324	NaN	0.000000	0.001692	0.001743	28.0844	0.148037	0.002042	72.4919	-129.402	-168.5	0.062894	0.401618	-0.663098	-0.664352	0.037324	72.4919	-0.663484	-6.197004E+8	-6.022960E-11	NaN
781	1.000000	0.410878	7.37269e+06	-39189.1	1055.82	-29794.8	0.000000	0.000000	6.410890	-0.037309	NaN	0.000000	0.001665	0.001762	28.0846	0.070959	0.002072	34.2458	40.0646	-165.2	-0.017682	0.409541	-0.655092	-0.656429	-0.037309	34.2458	-0.654275	-4.634842E+8	8.049587E-11	NaN
781	1.000000	0.418907	7.37269e+06	-39189.1	1055.82	-29794.8	0.000000	0.000000	6.418921	-0.010847	NaN	0.000000	0.001669	0.001744	28.0839	0.050323	0.001960	25.6765	153.726	-165.567	0.049446	0.417568	-0.647063	-0.648403	-0.010847	25.6765	-0.646746	-3.654493E+8	2.968054E-11	NaN
781	1.000000	0.426900	7.37269e+06	-39189.1	1055.82	-29794.8	0.000000	0.000000	6.426913	0.004000	NaN	0.000000	0.001648	0.001732	28.0843	0.056852	0.001965	28.9358	69.5795	-165.316	-0.105516	0.425636	-0.639071	-0.640335	0.004000	28.9358	-0.639175	-2.877174E+8	-1.390284E-11	NaN
781	1.000000	0.434889	7.37269e+06	-39189.1	1055.82	-29794.8	0.000000	0.000000	6.434901	-0.048949	NaN	0.000000	0.001750	0.001732	28.084	0.067388	0.001891	35.6329	172.185	-165.427	-0.016096	0.433576	-0.631082	-0.632395	-0.048949	35.6329	-0.630051	-2.156396E+8	2.269927E-10	NaN
781	1.000000	0.442920	7.37269e+06	-39189.1	1055.82	-29794.8	0.000000	0.000000	6.442935	0.021781	NaN	0.000000	0.001695	0.001723	28.0843	0.061999	0.002041	30.3713	-10.5159	-165.203	0.019066	0.441539	-0.623050	-0.624431	0.021781	30.3713	-0.623588	-1.757702E+8	-1.239174E-10	NaN
781	1.000000	0.450905	7.37269e+06	-39189.1	1055.82	-29794.8	0.000000	0.000000	6.450917	-0.023895	NaN	0.000000	0.001735	0.001739	28.0844	0.098099	0.001966	49.8879	16.651	-166.452	-0.026595	0.449636	-0.615066	-0.616334	-0.023895	49.8879	-0.614707	-1.326953E+8	1.800773E-10	NaN
781	1.000000	0.458950	7.37269e+06	-39189.1	1055.82	-29794.8	0.000000	0.000000	6.458964	-0.000267	NaN	0.000000	0.001694	0.001728	28.0842	0.167210	0.002105	79.4365	79.2066	-165.15	0.018009	0.457627	-0.607021	-0.608344	-0.000267	79.4365	-0.607018	-1.040118E+8	2.566588E-12	NaN
781	1.000000	0.466933	7.37269e+06	-39189.1	1055.82	-29794.8	0.000000	0.000000	6.466949	0.051034	NaN	0.000000	0.001764	0.001748	28.084	0.071752	0.002034	35.2749	173.913	-164.514	0.060912	0.465566	-0.599037	-0.600405	0.051034	35.2749	-0.600122	-8.358832E+7	-6.105347E-10	NaN
781	1.000000	0.474893	7.37269e+06	-39189.1	1055.82	-29794.8	0.000000	0.000000	6.474905	-0.024814	NaN	0.000000	0.001726	0.001686	28.0843	0.037894	0.001995	18.9912	72.9386	-166.59	-0.120989	0.473614	-0.591078	-0.592356	-0.024814	18.9912	-0.590098	-6.081579E+7	4.080165E-10	NaN
781	1.000000	0.482923	7.37269e+06	-39189.1	1055.82	-29794.8	0.000000	0.000000	6.482934	-0.044361	NaN	0.000000	0.001726	0.001768	28.084	0.140161	0.001987	70.5357	-105.808	-164.058	0.045334	0.481620	-0.583048	-0.584351	-0.044361	70.5357	-0.582576	-4.789361E+7	9.262354E-10	NaN
781	1.000000	0.490905	7.37269e+06	-39189.1	1055.82	-29794.8	0.000000	0.000000	6.490920	0.023952	NaN	0.000000	0.001707	0.001715	28.084	0.079582	0.001985	40.1001	-16.6146	-167.443	-0.011927	0.489616	-0.575065	-0.576354	0.023952	40.1001	-0.575513	-3.826350E+7	-6.259827E-10	NaN
781	1.000000	0.498918	7.37269e+06	-39189.1	1055.82	-29794.8	0.000000	0.000000	6.498934	0.049342	NaN	0.000000	0.001736	0.001722	28.0843	0.047424	0.001939	24.4532	-10.4439	-167.39	-0.018597	0.497649	-0.567052	-0.568321	0.049342	24.4532	-0.568566	-3.067706E+7	-1.608444E-9	NaN
781	1.000000	0.506907	7.37269e+06	-39189.1	1055.82	-29794.8	0.000000	0.000000	6.506920	-0.010848	NaN	0.000000	0.001722	0.001708	28.0839	0.111508	0.002141	52.0856	-149.26	-166.269	0.019949	0.505647	-0.559063	-0.560323	-0.010848	52.0856	-0.558907	-2.255593E+7	4.809510E-10	NaN
781	1.000000	0.514929	7.37269e+06	-39189.1	1055.82	-29794.8	0.000000	0.000000	6.514944	0.037916	NaN	0.000000	0.001708	0.001743	28.0841	0.018829	0.001911	9.852867	0.656372	-166.798	0.086131	0.513682	-0.551042	-0.552289	0.037916	9.852867	-0.553928	-1.924620E+7	-1.970064E-9	NaN
781	1.000000	0.522920	7.37269e+06	-39189.1	1055.82	-29794.8	0.000000	0.000000	6.522933	-0.017457	NaN	0.000000	0.001721	0.001738	28.0826	0.096357	0.002073	46.4736	162.733	-165.331	-0.050845	0.521647	-0.543051	-0.544323	-0.017457	46.4736	-0.542769	-1.348195E+7	1.294847E-9	NaN
781	1.000000	0.530937	7.37269e+06	-39189.1	1055.82	-29794.8	0.000000	0.000000	6.530949	-0.047437	NaN	0.000000	0.001659	0.001721	28.0828	0.039788	0.002115	18.8163	122.165	-164.812	-0.000762	0.529602	-0.535033	-0.536369	-0.047437	18.8163	-0.533143	-9.91308e+06	4.785256E-9	NaN
781	1.000000	0.538946	7.37269e+06	-39189.1	1055.82	-29794.8	0.000000	0.000000	6.538958	-0.038159	NaN	0.000000	0.001678	0.001697	28.0828	0.086710	0.001982	43.7494	144.595	-165.744	-0.009970	0.537604	-0.527025	-0.528367	-0.038159	43.7494	-0.526371	-7.98283e+06	4.780113E-9	NaN
781	1.000000	0.546961	7.3727e+06	-39189.1	1055.82	-29794.8	0.000000	0.000000	6.546973	-0.042121	NaN	0.000000	0.001721	0.001694	28.083	0.105412	0.001951	54.0188	128.065	-167.232	-0.048876	0.545679	-0.519010	-0.520291	-0.042121	54.0188	-0.518425	-6.19001e+06	6.804646E-9	NaN
781	1.000000	0.554935	7.3727e+06	-39189.1	1055.82	-29794.8	0.000000	0.000000	6.554950	0.055226	NaN	0.000000	0.001738	0.001678	28.0832	0.057893	0.001925	30.076	-121.028	-163.092	0.088622	0.553635	-0.511036	-0.512335	0.055226	30.076	-0.512413	-5.10533e+06	-1.081730E-8	NaN
781	1.000000	0.562938	7.3727e+06	-39189.1	1055.82	-29794.8	0.000000	0.000000	6.562954	0.052159	NaN	0.000000	0.001760	0.001736	28.0827	0.064136	0.002027	31.6372	79.7395	-166.831	-0.015404	0.561693	-0.503033	-0.504277	0.052159	31.6372	-0.504269	-3.93147e+06	-1.326706E-8	NaN
781	1.000000	0.570926	7.3727e+06	-39189.1	1055.82	-29794.8	0.000000	0.000000	6.570940	0.000360	NaN	0.000000	0.001713	0.001717	28.0826	0.119002	0.001987	59.9039	114.063	-167.149	0.000257	0.569664	-0.495044	-0.496307	0.000360	59.9039	-0.495049	-2.92358e+06	-1.231050E-10	NaN
781	1.000000	0.578979	7.3727e+06	-39189.1	1055.82	-29794.8	0.000000	0.000000	6.578995	0.046791	NaN	0.000000	0.001716	0.001706	28.0827	0.123823	0.002040	60.6938	-151.262	-166.791	0.008239	0.577637	-0.486992	-0.488334	0.046791	60.6938	-0.487570	-2.2984e+06	-2.035825E-8	NaN
781	1.000000	0.586922	7.3727e+06	-39189.1	1055.82	-29794.8	0.000000	0.000000	6.586935	-0.022260	NaN	0.000000	0.001708	0.001731	28.0828	0.111908	0.001894	59.0896	-141.437	-166.036	0.004050	0.585660	-0.479049	-0.480311	-0.022260	59.0896	-0.478766	-1.73082e+06	1.286087E-8	NaN
781	1.000000	0.594966	7.3727e+06	-39189.1	1055.82	-29794.8	0.000000	0.000000	6.594977	-0.072957	NaN	0.000000	0.001714	0.001747	28.0828	0.038084	0.002031	18.7521	-27.6945	-165.916	-0.047962	0.593625	-0.471004	-0.472346	-0.072957	18.7521	-0.468086	-1.2262e+06	5.949862E-8	NaN
781	1.000000	0.602981	7.3727e+06	-39189.1	1055.82	-29794.8	0.000000	0.000000	6.602993	-0.027011	NaN	0.000000	0.001703	0.001746	28.0827	0.093654	0.002085	44.9105	1.584508	-167.084	-0.048249	0.601679	-0.462990	-0.464292	-0.027011	44.9105	-0.462539	-1.02491e+06	2.635424E-8	NaN
781	1.000000	0.610960	7.3727e+06	-39189.1	1055.82	-29794.8	0.000000	0.000000	6.610973	-0.003087	NaN	0.000000	0.001679	0.001714	28.083	0.108156	0.002053	52.6925	172.585	-166.687	0.003747	0.609645	-0.455011	-0.456326	-0.003087	52.6925	-0.454967	-802143	3.848838E-9	NaN
781	1.000000	0.618956	7.3727e+06	-39189.1	1055.82	-29794.8	0.000000	0.000000	6.618969	-0.008742	NaN	0.000000	0.001730	0.001765	28.0826	0.099049	0.002060	48.076	115.029	-164.175	-0.065227	0.617674	-0.447015	-0.448297	-0.008742	48.076	-0.446879	-617125	1.416547E-8	NaN
781	1.000000	0.626957	7.3727e+06	-39189.1	1055.82	-29794.8	0.000000	0.000000	6.626976	0.134879	NaN	0.000000	0.001702	0.001695	28.0826	0.117857	0.001892	62.301	53.176	-166.008	0.050554	0.625655	-0.439014	-0.440315	0.134879	62.301	-0.440638	-503919	-2.676605E-7	NaN
781	1.000000	0.634962	7.3727e+06	-39189.1	1055.82	-29794.8	0.000000	0.000000	6.634978	0.042882	NaN	0.000000	0.001720	0.001727	28.0825	0.051900	0.001969	26.3595	-100.338	-167.917	0.139818	0.633680	-0.431008	-0.432291	0.042882	26.3595	-0.432228	-383335	-1.118645E-7	NaN
781	1.000000	0.642983	7.3727e+06	-39189.1	1055.82	-29794.8	0.000000	0.000000	6.642996	-0.000876	NaN	0.000000	0.001712	0.001678	28.0836	0.070655	0.001938	36.4615	-65.206	-162.879	0.011168	0.641692	-0.422988	-0.424279	-0.000876	36.4615	-0.422970	-283479	3.091249E-9	NaN
781	1.000000	0.650982	7.3727e+06	-39189.1	1055.82	-29794.8	0.000000	0.000000	6.650999	0.074377	NaN	0.000000	0.001721	0.001734	28.0828	0.120446	0.001982	60.77	-133.286	-162.909	0.028032	0.649638	-0.414989	-0.416332	0.074377	60.77	-0.415907	-225076	-3.304515E-7	NaN
781	1.000000	0.658996	7.3727e+06	-39189.1	1055.82	-29794.8	0.000000	0.000000	6.659012	0.059925	NaN	0.000000	0.001718	0.001692	28.0842	0.101426	0.002154	47.0945	-158.697	-164.926	0.040732	0.657699	-0.406974	-0.408272	0.059925	47.0945	-0.407929	-173356	-3.456765E-7	NaN
781	1.000000	0.666995	7.3727e+06	-39189.1	1055.82	-29794.8	0.000000	0.000000	6.667010	0.036959	NaN	0.000000	0.001684	0.001714	28.0841	0.034002	0.001871	18.173	159.087	-168.171	0.049596	0.665714	-0.398976	-0.400257	0.036959	18.173	-0.400501	-135877	-2.720032E-7	NaN
781	1.000000	0.675003	7.3727e+06	-39189.1	1055.82	-29794.8	0.000000	0.000000	6.675016	-0.033482	NaN	0.000000	0.001718	0.001719	28.0838	0.148733	0.001888	78.7703	65.6425	-168.929	-0.025648	0.673723	-0.390967	-0.392247	-0.033482	78.7703	-0.390648	-98274.5	3.407037E-7	NaN
781	1.000000	0.682994	7.3727e+06	-39189.1	1055.82	-29794.8	0.000000	0.000000	6.683011	0.085666	NaN	0.000000	0.001710	0.001702	28.0838	0.045325	0.002036	22.2575	-143.444	-163.963	0.028228	0.681637	-0.382977	-0.384334	0.085666	22.2575	-0.385863	-83936.9	-1.020601E-6	NaN
781	1.000000	0.690991	7.3727e+06	-39189.1	1055.82	-29794.8	0.000000	0.000000	6.691005	0.010825	NaN	0.000000	0.001671	0.001710	28.0838	0.007657	0.002117	3.616881	-55.2457	-166.927	-0.009359	0.689708	-0.374980	-0.376263	0.010825	3.616881	-0.377224	-63100.9	-1.715489E-7	NaN
781	1.000000	0.699000	7.3727e+06	-39189.1	1055.82	-29794.8	0.000000	0.000000	6.699015	0.034887	NaN	0.000000	0.001677	0.001746	28.0839	0.042742	0.002022	21.1366	-162.904	-162.17	0.067342	0.697695	-0.366971	-0.368276	0.034887	21.1366	-0.368208	-46807.8	-7.453284E-7	NaN
781	1.000000	0.707006	7.3727e+06	-39189.1	1055.82	-29794.8	0.000000	0.000000	6.707020	0.003362	NaN	0.000000	0.001719	0.001694	28.0841	0.054660	0.002242	24.3751	129.106	-163.015	0.062212	0.705677	-0.358965	-0.360294	0.003362	24.3751	-0.359068	-34543.9	-9.733103E-8	NaN
781	1.000000	0.715011	7.3727e+06	-39189.1	1055.82	-29794.8	0.000000	0.000000	6.715023	-0.053707	NaN	0.000000	0.001713	0.001717	28.0838	0.063733	0.002034	31.3393	-89.6095	-167.518	-0.017906	0.713701	-0.350959	-0.352270	-0.053707	31.3393	-0.349674	-25250.7	2.126939E-6	NaN
781	1.000000	0.723027	7.3727e+06	-39189.1	1055.82	-29794.8	0.000000	0.000000	6.723040	-0.013649	NaN	0.000000	0.001730	0.001714	28.0842	0.113390	0.001967	57.6522	127.714	-166.858	0.051272	0.721722	-0.342944	-0.344249	-0.013649	57.6522	-0.342766	-20037.8	6.811682E-7	NaN
781	1.000000	0.730994	7.3727e+06	-39189.1	1055.82	-29794.8	0.000000	0.000000	6.731008	0.011992	NaN	0.000000	0.001733	0.001717	28.0839	0.053419	0.002077	25.7228	-165.861	-169.585	-0.036665	0.729760	-0.334977	-0.336211	0.011992	25.7228	-0.335326	-15608.3	-7.683053E-7	NaN
781	1.000000	0.739024	7.3727e+06	-39189.1	1055.82	-29794.8	0.000000	0.000000	6.739038	-0.006048	NaN	0.000000	0.001736	0.001736	28.0842	0.009953	0.001987	5.008746	172.098	-165.26	-0.006304	0.737703	-0.326946	-0.328268	-0.006048	5.008746	-0.326041	-11413.4	5.298837E-7	NaN
781	1.000000	0.747028	7.3727e+06	-39189.1	1055.82	-29794.8	0.000000	0.000000	6.747040	-0.028307	NaN	0.000000	0.001733	0.001689	28.0841	0.059628	0.002013	29.6206	129.341	-166.382	-0.006040	0.745716	-0.318943	-0.320255	-0.028307	29.6206	-0.318226	-8760.27	3.231307E-6	NaN
781	1.000000	0.755054	7.3727e+06	-39189.1	1055.82	-29794.8	0.000000	0.000000	6.755068	-0.007101	NaN	0.000000	0.001726	0.001711	28.0842	0.063919	0.002028	31.518	52.8508	-165.034	-0.012026	0.753678	-0.310916	-0.312293	-0.007101	31.518	-0.310747	-6793.79	1.045195E-6	NaN
781	1.000000	0.763032	7.3727e+06	-39189.1	1055.82	-29794.8	0.000000	0.000000	6.763045	-0.000820	NaN	0.000000	0.001685	0.001693	28.0845	0.050559	0.001871	27.0264	-11.9424	-168.81	-0.057735	0.761719	-0.302939	-0.304252	-0.000820	27.0264	-0.302916	-5200.06	1.576958E-7	NaN
781	1.000000	0.771050	7.3727e+06	-39189.1	1055.82	-29794.8	0.000000	0.000000	6.771063	-0.008790	NaN	0.000000	0.001731	0.001717	28.0841	0.107962	0.001976	54.6297	-62.3216	-166.199	0.063783	0.769753	-0.294921	-0.296218	-0.008790	54.6297	-0.294800	-3936.41	2.233086E-6	NaN
781	1.000000	0.779024	7.3727e+06	-39189.1	1055.82	-29794.8	0.000000	0.000000	6.779040	0.054520	NaN	0.000000	0.001763	0.001716	28.0841	0.045272	0.002048	22.1064	120.12	-164.459	-0.005712	0.777726	-0.286947	-0.288244	0.054520	22.1064	-0.288796	-3200.81	-1.703316E-5	NaN
781	1.000000	0.787060	7.3727e+06	-39189.1	1055.82	-29794.8	0.000000	0.000000	6.787072	-0.032949	NaN	0.000000	0.001735	0.001690	28.0841	0.082597	0.001999	41.3268	-54.4449	-165.811	-0.061804	0.785722	-0.278910	-0.280248	-0.032949	41.3268	-0.278312	-2225.85	1.480303E-5	NaN
781	1.000000	0.795024	7.3727e+06	-39189.1	1055.82	-29794.8	0.000000	0.000000	6.795035	-0.060281	NaN	0.000000	0.001767	0.001717	28.0829	0.050482	0.002077	24.3089	-13.886	-166.532	-0.032217	0.793745	-0.270946	-0.272226	-0.060281	24.3089	-0.269086	-1613.07	3.737049E-5	NaN
781	1.000000	0.803049	7.3727e+06	-39189.1	1055.82	-29794.8	0.000000	0.000000	6.803065	0.060879	NaN	0.000000	0.001728	0.001738	28.0831	0.051002	0.002059	24.7758	102.629	-163.845	0.044210	0.801767	-0.262921	-0.264204	0.060879	24.7758	-0.264764	-1386.08	-4.392186E-5	NaN
781	1.000000	0.811049	7.3727e+06	-39189.1	1055.82	-29794.8	0.000000	0.000000	6.811064	0.027375	NaN	0.000000	0.001743	0.001742	28.0829	0.106522	0.001982	53.7332	-56.873	-167.939	0.051415	0.809791	-0.254921	-0.256180	0.027375	53.7332	-0.255303	-992.625	-2.757829E-5	NaN
781	1.000000	0.819080	7.3727e+06	-39189.1	1055.82	-29794.8	0.000000	0.000000	6.819092	-0.038934	NaN	0.000000	0.001758	0.001706	28.0832	0.071522	0.002008	35.6135	152.9	-164.477	-0.067692	0.817749	-0.246890	-0.248222	-0.038934	35.6135	-0.246071	-714.627	5.448181E-5	NaN
781	1.000000	0.827069	7.3727e+06	-39189.1	1055.82	-29794.8	0.000000	0.000000	6.827081	-0.024529	NaN	0.000000	0.001770	0.001700	28.083	0.085731	0.001954	43.8853	-41.0135	-166.644	-0.067218	0.825730	-0.238902	-0.240241	-0.024529	43.8853	-0.238483	-544.298	4.506533E-5	NaN
781	1.000000	0.835062	7.3727e+06	-39189.1	1055.82	-29794.8	0.000000	0.000000	6.835075	-0.019801	NaN	0.000000	0.001766	0.001725	28.0828	0.077839	0.002050	37.9677	-54.6946	-168.306	0.005957	0.833667	-0.230909	-0.232304	-0.019801	37.9677	-0.230518	-408.025	4.852902E-5	NaN
781	1.000000	0.843039	7.3727e+06	-39189.1	1055.82	-29794.8	0.000000	0.000000	6.843051	-0.032579	NaN	0.000000	0.001763	0.001722	28.083	0.023664	0.001835	12.8971	5.814092	-168.066	-0.031045	0.841743	-0.222932	-0.224228	-0.032579	12.8971	-0.221037	-288.564	0.000113	NaN
781	1.000000	0.851077	7.3727e+06	-39189.1	1055.82	-29794.8	0.000000	0.000000	6.851089	-0.051794	NaN	0.000000	0.001762	0.001717	28.0826	0.071219	0.001971	36.1363	52.7529	-166.856	-0.062866	0.849742	-0.214893	-0.216229	-0.051794	36.1363	-0.213819	-221.052	0.000234	NaN
781	1.000000	0.859088	7.3727e+06	-39189.1	1055.82	-29794.8	0.000000	0.000000	6.859103	0.016931	NaN	0.000000	0.001792	0.001708	28.083	0.069573	0.002024	34.3729	177.49	-166.073	-0.012752	0.857801	-0.206882	-0.208170	0.016931	34.3729	-0.207252	-173.071	-9.782511E-5	NaN
781	1.000000	0.867085	7.3727e+06	-39189.1	1055.82	-29794.8	0.000000	0.000000	6.867097	-0.054878	NaN	0.000000	0.001783	0.001695	28.0828	0.037900	0.001940	19.5328	-112.996	-166.232	-0.105147	0.865755	-0.198885	-0.200216	-0.054878	19.5328	-0.196778	-116.578	0.000471	NaN
781	1.000000	0.875081	7.3727e+06	-39189.1	1055.82	-29794.8	0.000000	0.000000	6.875091	-0.085632	NaN	0.000000	0.001769	0.001696	28.0827	0.129297	0.002012	64.2472	144.605	-167.791	-0.050772	0.873753	-0.190890	-0.192217	-0.085632	64.2472	-0.189890	-89.5754	0.000956	NaN
781	1.000000	0.883069	7.3727e+06	-39189.1	1055.82	-29794.8	0.000000	0.000000	6.883080	-0.053730	NaN	0.000000	0.001797	0.001726	28.0827	0.133718	0.001939	68.9539	85.709	-165.843	-0.015051	0.881804	-0.182902	-0.184166	-0.053730	68.9539	-0.182317	-66.8043	0.000804	NaN
781	1.000000	0.891076	7.3727e+06	-39189.1	1055.82	-29794.8	0.000000	0.000000	6.891087	-0.057265	NaN	0.000000	0.001761	0.001694	28.0831	0.080189	0.001930	41.55	88.1893	-166.798	-0.034504	0.889812	-0.174895	-0.176159	-0.057265	41.55	-0.173861	-47.9064	0.001195	NaN
781	1.000000	0.899102	7.3727e+06	-39189.1	1055.82	-29794.8	0.000000	0.000000	6.899116	-0.001941	NaN	0.000000	0.001770	0.001723	28.0829	0.086778	0.001991	43.5879	161.566	-164.424	0.033274	0.897746	-0.166869	-0.168224	-0.001941	43.5879	-0.166835	-36.1797	5.364783E-5	NaN
781	1.000000	0.907117	7.3727e+06	-39189.1	1055.82	-29794.8	0.000000	0.000000	6.907130	-0.014705	NaN	0.000000	0.001772	0.001720	28.0833	0.120997	0.001948	62.1116	114.975	-170.651	-0.049156	0.905793	-0.158854	-0.160177	-0.014705	62.1116	-0.158677	-25.9675	0.000566	NaN
781	1.000000	0.915118	7.3727e+06	-39189.1	1055.82	-29794.8	0.000000	0.000000	6.915130	-0.054427	NaN	0.000000	0.001756	0.001713	28.0832	0.131619	0.001923	68.4351	17.0517	-168.307	-0.046700	0.913752	-0.150852	-0.152218	-0.054427	68.4351	-0.150256	-18.3092	0.002973	NaN
781	1.000000	0.923094	7.3727e+06	-39189.1	1055.82	-29794.8	0.000000	0.000000	6.923108	0.012603	NaN	0.000000	0.001691	0.001702	28.083	0.066382	0.001982	33.4954	144.354	-164.717	-0.025118	0.921772	-0.142877	-0.144198	0.012603	33.4954	-0.143159	-13.5523	-0.000930	NaN
781	1.000000	0.931104	7.3727e+06	-39189.1	1055.82	-29794.8	0.000000	0.000000	6.931117	-0.012339	NaN	0.000000	0.001708	0.001728	28.0848	0.043503	0.002102	20.6948	146.778	-163.364	-0.022112	0.929823	-0.134867	-0.136148	-0.012339	20.6948	-0.134420	-9.272660	0.001331	NaN
781	1.000000	0.939094	7.3727e+06	-39189.1	1055.82	-29794.8	0.000000	0.000000	6.939104	-0.074120	NaN	0.000000	0.001702	0.001725	28.0843	0.039360	0.002108	18.6709	68.6259	-168.854	-0.086560	0.937815	-0.126877	-0.128155	-0.074120	18.6709	-0.123900	-5.783292	0.012816	NaN
781	1.000000	0.947103	7.3727e+06	-39189.1	1055.82	-29794.8	0.000000	0.000000	6.947116	-0.017401	NaN	0.000000	0.001723	0.001707	28.0844	0.087817	0.001936	45.3556	105.632	-167.845	-0.051601	0.945823	-0.118868	-0.120148	-0.017401	45.3556	-0.118580	-4.522126	0.003848	NaN
781	1.000000	0.955125	7.3727e+06	-39189.1	1055.82	-29794.8	0.000000	0.000000	6.955138	0.003255	NaN	0.000000	0.001698	0.001697	28.0845	0.042189	0.001910	22.0919	-28.1278	-167.808	-0.004958	0.953772	-0.110846	-0.112198	0.003255	22.0919	-0.110956	-3.147723	-0.001034	NaN
781	1.000000	0.963111	7.3727e+06	-39189.1	1055.82	-29794.8	0.000000	0.000000	6.963121	-0.080710	NaN	0.000000	0.001673	0.001715	28.0844	0.056776	0.001983	28.6328	113.309	-165.577	-0.057682	0.961820	-0.102860	-0.104151	-0.080710	28.6328	-0.100746	-1.897894	0.042526	NaN
781	1.000000	0.971098	7.3727e+06	-39189.1	1055.82	-29794.8	0.000000	0.000000	6.971113	0.035682	NaN	0.000000	0.001681	0.001760	28.0853	0.017577	0.001944	9.039559	94.5362	-166.471	0.046170	0.969755	-0.094872	-0.096216	0.035682	9.039559	-0.097833	-1.634760	-0.021827	NaN
781	1.000000	0.979138	7.3727e+06	-39189.1	1055.82	-29794.8	0.000000	0.000000	6.979150	-0.048139	NaN	0.000000	0.001638	0.001749	28.0843	0.074769	0.002010	37.1973	82.5089	-161.665	0.047349	0.977805	-0.086833	-0.088166	-0.048139	37.1973	-0.085862	-0.861962	0.055848	NaN
781	1.000000	0.987152	7.3727e+06	-39189.1	1055.82	-29794.8	0.000000	0.000000	6.987167	0.023696	NaN	0.000000	0.001639	0.001749	28.0842	0.084735	0.001966	43.1023	81.5715	-169.295	0.002149	0.985799	-0.078819	-0.080171	0.023696	43.1023	-0.079231	-0.592114	-0.040020	NaN
781	1.000000	0.995146	7.3727e+06	-39189.1	1055.82	-29794.8	0.000000	0.000000	6.995160	0.008335	NaN	0.000000	0.001725	0.001710	28.0841	0.012064	0.001906	6.329801	-54.9033	-167.531	0.004409	0.993862	-0.070825	-0.072108	0.008335	6.329801	-0.071812	-0.381182	-0.021867	NaN
781	1.000000	1.003127	7.3727e+06	-39189.1	1055.82	-29794.8	0.000000	0.000000	7.003140	-0.013828	NaN	0.000000	0.001686	0.001703	28.084	0.048604	0.001985	24.4865	-130.492	-162.95	-0.030111	1.001818	-0.062844	-0.064153	-0.013828	24.4865	-0.062420	-0.211046	0.065519	NaN
781	1.000000	1.011145	7.3727e+06	-39189.1	1055.82	-29794.8	0.000000	0.000000	7.011158	0.004038	NaN	0.000000	0.001671	0.001699	28.0848	0.046134	0.001961	23.523	-13.1315	-167.786	-0.083848	1.009796	-0.054826	-0.056175	0.004038	23.523	-0.054955	-0.128381	-0.031449	NaN
781	1.000000	1.019127	7.3727e+06	-39189.1	1055.82	-29794.8	0.000000	0.000000	7.019142	0.023891	NaN	0.000000	0.001689	0.001706	28.0842	0.060460	0.001816	33.2951	-163.769	-167.209	0.080829	1.017824	-0.046843	-0.048146	0.023891	33.2951	-0.047381	-0.075983	-0.314429	NaN
781	1.000000	1.027167	7.3727e+06	-39189.1	1055.82	-29794.8	0.000000	0.000000	7.027179	-0.038718	NaN	0.000000	0.001694	0.001717	28.0844	0.066919	0.001953	34.2631	156.592	-163.459	-0.130235	1.025837	-0.038804	-0.040133	-0.038718	34.2631	-0.037956	-0.039224	0.987098	NaN
781	1.000000	1.035131	7.3727e+06	-39189.1	1055.82	-29794.8	0.000000	0.000000	7.035145	-0.000148	NaN	0.000000	0.001668	0.001707	28.0842	0.051420	0.002022	25.4258	85.0656	-169.017	0.051065	1.033830	-0.030839	-0.032140	-0.000148	25.4258	-0.030835	-0.024286	0.006076	NaN
781	1.000000	1.043132	7.3727e+06	-39189.1	1055.82	-29794.8	0.000000	0.000000	7.043146	0.021115	NaN	0.000000	0.001650	0.001698	28.0842	0.169972	0.001896	89.6502	-76.0803	-166.261	-0.041348	1.041839	-0.022839	-0.024132	0.021115	89.6502	-0.023015	-0.014990	-1.408597	NaN
781	1.000000	1.051149	7.3727e+06	-39189.1	1055.82	-29794.8	0.000000	0.000000	7.051160	-0.044605	NaN	0.000000	0.001664	0.001714	28.0844	0.031344	0.002034	15.4087	73.4494	-163.89	-0.006154	1.049859	-0.014822	-0.016112	-0.044605	15.4087	-0.012651	-0.007901	5.645249	NaN
781	1.000000	1.059146	7.3727e+06	-39189.1	1055.82	-29794.8	0.000000	0.000000	7.059160	0.016527	NaN	0.000000	0.001664	0.001706	28.0842	0.174481	0.002002	87.1568	-16.7777	-166.267	-0.060542	1.057848	-0.006825	-0.008123	0.016527	87.1568	-0.006967	-0.004621	-3.576747	NaN
781	1.000000	1.067132	7.3727e+06	-39189.1	1055.82	-29794.8	0.000000	0.000000	7.067371	5.488255	NaN	0.000000	0.001735	0.001750	28.0833	5.787302	0.001851	3126.37	15.015	-176.122	4.246921	1.065808	0.001161	-0.000162	5.488255	3126.37	-0.000156	-0.000116	-47292.7	NaN
781	2.000000	1.071753	7.3727e+06	-39189.1	1055.82	-29794.8	0.000000	0.000000	7.072227	11.2188	NaN	0.000000	0.001659	0.001728	28.0828	8.992674	0.001551	5799.67	-0.735257	-169.841	10.9874	1.071375	0.005782	0.005404	11.2188	5799.67	0.004331	0.003531	3176.91	89167.1
781	2.000000	1.073643	7.3727e+06	-39189.1	1055.82	-29794.8	0.000000	0.000000	7.074256	14.5902	NaN	0.000000	0.001673	0.001730	28.0829	12.0809	0.001747	6914.65	5.060594	-174.339	13.4022	1.073307	0.007672	0.007337	14.5902	6914.65	0.006090	0.005150	2833.06	88032.1
781	2.000000	1.075704	7.3727e+06	-39189.1	1055.82	-29794.8	0.000000	0.000000	7.076487	18.7445	NaN	0.000000	0.001643	0.001730	28.0826	12.8904	0.001658	7774.25	6.853091	-175.833	19.4268	1.075362	0.009733	0.009391	18.7445	7774.25	0.007925	0.006965	2691.26	85108.5
781	2.000000	1.077655	7.3727e+06	-39189.1	1055.82	-29794.8	0.000000	0.000000	7.078464	19.3687	NaN	0.000000	0.001679	0.001709	28.0829	15.2468	0.001739	8769.85	7.821214	-178.221	19.3714	1.077354	0.011684	0.011383	19.3687	8769.85	0.010028	0.009212	2102.5	83480.2
781	2.000000	1.079651	7.3727e+06	-39189.1	1055.82	-29794.8	0.000000	0.000000	7.080711	25.4836	NaN	0.000000	0.001682	0.001718	28.0832	17.1835	0.001799	9553.11	4.610235	-175.687	24.7695	1.079339	0.013680	0.013368	25.4836	9553.11	0.011679	0.011108	2294.12	82812.5
781	2.000000	1.081606	7.3727e+06	-39189.1	1055.82	-29794.8	0.000000	0.000000	7.082851	29.9731	NaN	0.000000	0.001666	0.001734	28.0829	19.0194	0.001745	10896.3	1.202499	-174.269	28.7045	1.081289	0.015635	0.015319	29.9731	10896.3	0.013572	0.013428	2232.11	85910.4
781	2.000000	1.083598	7.3727e+06	-39189.1	1055.82	-29794.8	0.000000	0.000000	7.084986	33.4354	NaN	0.000000	0.001714	0.001751	28.0827	21.877	0.001944	11255.2	7.135477	-179.578	32.6101	1.083361	0.017628	0.017390	33.4354	11255.2	0.015400	0.015822	2113.24	81751.9
781	2.000000	1.085670	7.3727e+06	-39189.1	1055.82	-29794.8	0.000000	0.000000	7.087161	35.9663	NaN	0.000000	0.001683	0.001717	28.0829	22.9453	0.001917	11969.9	7.548075	-179.319	38.1413	1.085321	0.019699	0.019350	35.9663	11969.9	0.017446	0.018686	1924.74	80002
781	2.000000	1.087582	7.3727e+06	-39189.1	1055.82	-29794.8	0.000000	0.000000	7.089553	47.628	NaN	0.000000	0.001712	0.001720	28.083	24.3385	0.001827	13325	7.735838	177.492	45.7469	1.087264	0.021612	0.021294	47.628	13325	0.018931	0.020890	2279.92	84230.3
781	2.000000	1.089662	7.3727e+06	-39189.1	1055.82	-29794.8	0.000000	0.000000	7.091636	47.6976	NaN	0.000000	0.001701	0.001679	28.083	26.4549	0.001748	15133	8.964019	178.501	48.9789	1.089233	0.023691	0.023263	47.6976	15133	0.021327	0.024671	1933.34	88024.3
781	2.000000	1.091587	7.3727e+06	-39189.1	1055.82	-29794.8	0.000000	0.000000	7.093773	52.8669	NaN	0.000000	0.001713	0.001679	28.083	27.0696	0.001850	14629.7	2.174474	-176.759	51.3103	1.091304	0.025616	0.025334	52.8669	14629.7	0.022906	0.027316	1935.35	80872
781	2.000000	1.093580	7.3727e+06	-39189.1	1055.82	-29794.8	0.000000	0.000000	7.095922	56.6697	NaN	0.000000	0.001698	0.001716	28.0832	30.488	0.001786	17074.2	6.171800	176.574	55.3682	1.093279	0.027609	0.027309	56.6697	17074.2	0.025120	0.031235	1814.32	88266.5
781	2.000000	1.095626	7.3727e+06	-39189.1	1055.82	-29794.8	0.000000	0.000000	7.098336	65.6229	NaN	0.000000	0.001704	0.001693	28.0833	31.0991	0.001781	17456.9	3.126480	-179.518	65.8705	1.095360	0.029655	0.029389	65.6229	17456.9	0.026836	0.034440	1905.4	85942.3
781	2.000000	1.097621	7.3727e+06	-39189.1	1055.82	-29794.8	0.000000	0.000000	7.100581	71.6956	NaN	0.000000	0.001698	0.001732	28.083	33.7402	0.001859	18146.2	2.159883	-178.521	73.413	1.097366	0.031650	0.031396	71.6956	18146.2	0.028687	0.038067	1883.43	84974.3
781	2.000000	1.099606	7.3727e+06	-39189.1	1055.82	-29794.8	0.000000	0.000000	7.102872	79.1445	NaN	0.000000	0.001692	0.001715	28.0831	35.3995	0.001766	20045.1	5.358975	178.228	79.9568	1.099218	0.033635	0.033248	79.1445	20045.1	0.030674	0.042153	1877.57	89200.6
781	2.000000	1.101584	7.3727e+06	-39189.1	1055.82	-29794.8	0.000000	0.000000	7.105137	86.1367	NaN	0.000000	0.001755	0.001717	28.083	37.075	0.001784	20776.2	5.594617	177.215	85.5774	1.101297	0.035613	0.035327	86.1367	20776.2	0.032504	0.046093	1868.74	88413.6
781	2.000000	1.103572	7.3727e+06	-39189.1	1055.82	-29794.8	0.000000	0.000000	7.107559	96.6936	NaN	0.000000	0.001688	0.001723	28.0841	39.0029	0.001800	21667.4	1.371387	-179.187	94.9984	1.103270	0.037601	0.037300	96.6936	21667.4	0.034254	0.050024	1932.94	88509.7
781	2.000000	1.105581	7.3727e+06	-39189.1	1055.82	-29794.8	0.000000	0.000000	7.109547	96.1743	NaN	0.000000	0.001697	0.001735	28.085	40.9092	0.001810	22597.6	4.751523	176.496	94.2228	1.105322	0.039610	0.039351	96.1743	22597.6	0.036418	0.055100	1745.45	87954.8
781	2.000000	1.107617	7.3727e+06	-39189.1	1055.82	-29794.8	0.000000	0.000000	7.112134	109.585	NaN	0.000000	0.001734	0.001721	28.0846	43.4688	0.001816	23932.3	5.174447	177.315	112.597	1.107201	0.041646	0.041230	109.585	23932.3	0.038212	0.059489	1842.1	89647.6
781	2.000000	1.109548	7.3727e+06	-39189.1	1055.82	-29794.8	0.000000	0.000000	7.114369	117.003	NaN	0.000000	0.001736	0.001693	28.0844	44.5878	0.001874	23790.8	-1.810433	-176.509	114.798	1.109271	0.043577	0.043300	117.003	23790.8	0.039889	0.063741	1835.6	86094.2
781	2.000000	1.111514	7.3727e+06	-39189.1	1055.82	-29794.8	0.000000	0.000000	7.116799	128.292	NaN	0.000000	0.001700	0.001691	28.0842	46.4783	0.001814	25619.8	1.921079	178.976	126.065	1.111218	0.045543	0.045247	128.292	25619.8	0.041787	0.068729	1866.63	89284.9
781	2.000000	1.113565	7.3727e+06	-39189.1	1055.82	-29794.8	0.000000	0.000000	7.119039	132.882	NaN	0.000000	0.001720	0.001715	28.0844	49.0718	0.001906	25746.3	2.964622	177.138	131.536	1.113314	0.047594	0.047343	132.882	25746.3	0.043723	0.074005	1795.6	86468.6
781	2.000000	1.115485	7.3727e+06	-39189.1	1055.82	-29794.8	0.000000	0.000000	7.121352	142.466	NaN	0.000000	0.001705	0.001708	28.0844	49.3079	0.001742	28304	3.471888	176.368	138.126	1.115200	0.049514	0.049229	142.466	28304	0.045739	0.079699	1787.55	91600
781	2.000000	1.117497	7.3727e+06	-39189.1	1055.82	-29794.8	0.000000	0.000000	7.123941	156.467	NaN	0.000000	0.001689	0.001736	28.0845	51.3607	0.001732	29645.8	3.485991	176.139	154.367	1.117192	0.051527	0.051221	156.467	29645.8	0.047568	0.085046	1839.81	92877.6
781	2.000000	1.119524	7.3727e+06	-39189.1	1055.82	-29794.8	0.000000	0.000000	7.126115	160.069	NaN	0.000000	0.001708	0.001716	28.0843	54.0736	0.001812	29840.8	5.773006	173.401	157.037	1.119284	0.053553	0.053313	160.069	29840.8	0.049530	0.090966	1759.65	90394.6
781	2.000000	1.121525	7.3727e+06	-39189.1	1055.82	-29794.8	0.000000	0.000000	7.128693	174.101	NaN	0.000000	0.001690	0.001714	28.0844	55.0364	0.001774	31027.5	0.826853	178.197	173.194	1.121196	0.055554	0.055226	174.101	31027.5	0.051346	0.096619	1801.94	91198.8
781	2.000000	1.123553	7.3727e+06	-39189.1	1055.82	-29794.8	0.000000	0.000000	7.131067	182.528	NaN	0.000000	0.001716	0.001713	28.0843	56.9387	0.001763	32289.3	-0.220452	179.376	180.699	1.123264	0.057583	0.057294	182.528	32289.3	0.053343	0.103026	1771.67	91909.2
781	2.000000	1.125521	7.3727e+06	-39189.1	1055.82	-29794.8	0.000000	0.000000	7.133632	197.073	NaN	0.000000	0.001684	0.001745	28.0841	58.338	0.001738	33558.8	6.263869	172.526	196.583	1.125236	0.059550	0.059265	197.073	33558.8	0.055146	0.108979	1808.37	92877.1
781	2.000000	1.127518	7.3727e+06	-39189.1	1055.82	-29794.8	0.000000	0.000000	7.135988	205.775	NaN	0.000000	0.001687	0.001726	28.0844	61.0306	0.001747	34926	3.811354	174.495	204.761	1.127264	0.061547	0.061293	205.775	34926	0.057129	0.115714	1778.31	93805.8
781	2.000000	1.129514	7.3727e+06	-39189.1	1055.82	-29794.8	0.000000	0.000000	7.138265	212.612	NaN	0.000000	0.001692	0.001736	28.0846	62.8032	0.001724	36433.1	4.303624	173.77	210.85	1.129262	0.063544	0.063292	212.612	36433.1	0.059167	0.122838	1730.84	94973.8
781	2.000000	1.131607	7.3727e+06	-39189.1	1055.82	-29794.8	0.000000	0.000000	7.140864	224.938	NaN	0.000000	0.001690	0.001750	28.0847	65.2359	0.001798	36282	8.738497	169.133	228.077	1.131198	0.065637	0.065227	224.938	36282	0.060987	0.129371	1738.7	92160.8
781	2.000000	1.133601	7.3727e+06	-39189.1	1055.82	-29794.8	0.000000	0.000000	7.143287	235.393	NaN	0.000000	0.001729	0.001726	28.0841	66.3895	0.001696	39133.3	4.491997	172.254	237.597	1.133290	0.067630	0.067319	235.393	39133.3	0.063119	0.137229	1715.34	96515.6
781	2.000000	1.135516	7.3727e+06	-39189.1	1055.82	-29794.8	0.000000	0.000000	7.145863	251.477	NaN	0.000000	0.001743	0.001719	28.0842	66.8692	0.001695	39442.8	3.572190	173.922	249.643	1.135196	0.069545	0.069225	251.477	39442.8	0.064763	0.143441	1753.17	95149.1
781	2.000000	1.137466	7.3727e+06	-39189.1	1055.82	-29794.8	0.000000	0.000000	7.148324	263.888	NaN	0.000000	0.001719	0.001705	28.0834	70.3907	0.001711	41142.3	4.985472	171.506	261.865	1.137170	0.071496	0.071200	263.888	41142.3	0.066685	0.150865	1749.17	96776.1
781	2.000000	1.139566	7.3727e+06	-39189.1	1055.82	-29794.8	0.000000	0.000000	7.150861	274.525	NaN	0.000000	0.001720	0.001707	28.0831	73.2131	0.001774	41276.2	6.225050	171.236	272.365	1.139216	0.073596	0.073245	274.525	41276.2	0.068607	0.158469	1732.35	94732.9
781	2.000000	1.141486	7.3727e+06	-39189.1	1055.82	-29794.8	0.000000	0.000000	7.153420	290.078	NaN	0.000000	0.001717	0.001678	28.0831	75.1675	0.001826	41170.2	5.116164	172.658	288.652	1.141162	0.075516	0.075192	290.078	41170.2	0.070231	0.165031	1757.72	92592
781	2.000000	1.143481	7.3727e+06	-39189.1	1055.82	-29794.8	0.000000	0.000000	7.155767	298.636	NaN	0.000000	0.001694	0.001668	28.0829	77.7513	0.001809	42976.4	5.938844	170.763	295.099	1.143223	0.077511	0.077253	298.636	42976.4	0.072299	0.173565	1720.6	94247.9
781	2.000000	1.145547	7.3727e+06	-39189.1	1055.82	-29794.8	0.000000	0.000000	7.158011	302.993	NaN	0.000000	0.001685	0.001707	28.0831	77.7193	0.001691	45974	2.103567	173.394	303.199	1.145325	0.079576	0.079354	302.993	45974	0.074633	0.183444	1651.69	98069.4
781	2.000000	1.147467	7.3727e+06	-39189.1	1055.82	-29794.8	0.000000	0.000000	7.160619	319.728	NaN	0.000000	0.001735	0.001668	28.0828	80.7771	0.001765	45775.2	0.999852	175.161	317.314	1.147184	0.081496	0.081213	319.728	45775.2	0.076258	0.190470	1678.62	95827.3
781	2.000000	1.149579	7.3727e+06	-39189.1	1055.82	-29794.8	0.000000	0.000000	7.163257	332.54	NaN	0.000000	0.001778	0.001630	28.083	84.0978	0.001891	44480.8	7.489588	169.012	336.098	1.149171	0.083608	0.083201	332.54	44480.8	0.078001	0.198149	1678.23	91295.7
781	2.000000	1.151523	7.3727e+06	-39189.1	1055.82	-29794.8	0.000000	0.000000	7.165950	350.752	NaN	0.000000	0.001777	0.001695	28.083	85.0668	0.001844	46124.1	4.007742	172.275	350.693	1.151148	0.085552	0.085177	350.752	46124.1	0.079849	0.206444	1699.02	92747
781	2.000000	1.153471	7.3727e+06	-39189.1	1055.82	-29794.8	0.000000	0.000000	7.168784	372.304	NaN	0.000000	0.001791	0.001692	28.0832	85.8524	0.001869	45933.4	3.302322	173.631	368.401	1.153128	0.087501	0.087157	372.304	45933.4	0.081422	0.213629	1742.76	90797
781	2.000000	1.155474	7.3727e+06	-39189.1	1055.82	-29794.8	0.000000	0.000000	7.171255	383.709	NaN	0.000000	0.001789	0.001676	28.0834	87.8898	0.001825	48161.1	7.483383	168.583	381.148	1.155147	0.089503	0.089176	383.709	48161.1	0.083528	0.223428	1717.37	93089.6
781	2.000000	1.157460	7.3727e+06	-39189.1	1055.82	-29794.8	0.000000	0.000000	7.173710	395.107	NaN	0.000000	0.001745	0.001674	28.083	88.7741	0.001788	49655.2	1.901250	173.81	392.146	1.157190	0.091489	0.091219	395.107	49655.2	0.085522	0.232896	1696.49	94006.1
781	2.000000	1.159614	7.3727e+06	-39189.1	1055.82	-29794.8	0.000000	0.000000	7.176583	412.621	NaN	0.000000	0.001785	0.001672	28.0829	92.197	0.001795	51358.3	7.357350	168.23	416.603	1.159241	0.093643	0.093271	412.621	51358.3	0.087618	0.243047	1697.7	95178.4
781	2.000000	1.161601	7.3727e+06	-39189.1	1055.82	-29794.8	0.000000	0.000000	7.179359	431.824	NaN	0.000000	0.001731	0.001699	28.0829	92.2917	0.001724	53520.2	3.352662	171.966	437.845	1.161198	0.095630	0.095227	431.824	53520.2	0.089579	0.252727	1708.66	97267
781	2.000000	1.163467	7.3727e+06	-39189.1	1055.82	-29794.8	0.000000	0.000000	7.182090	452.854	NaN	0.000000	0.001750	0.001716	28.0835	95.4752	0.001790	53336	3.986631	171.918	449.722	1.163053	0.097496	0.097083	452.854	53336	0.091128	0.260501	1738.4	95474.9
781	2.000000	1.165504	7.3727e+06	-39189.1	1055.82	-29794.8	0.000000	0.000000	7.184755	468.154	NaN	0.000000	0.001760	0.001683	28.0831	96.0722	0.001717	55969.4	5.544982	169.514	467.111	1.165207	0.099533	0.099236	468.154	55969.4	0.093260	0.271372	1725.13	98161.5
781	2.000000	1.167486	7.3727e+06	-39189.1	1055.82	-29794.8	0.000000	0.000000	7.187079	476.464	NaN	0.000000	0.001757	0.001710	28.0831	99.4774	0.001809	54984.9	4.081057	170.691	474.773	1.167273	0.101515	0.101302	476.464	54984.9	0.095016	0.280489	1698.69	94854.7
781	2.000000	1.168955	7.3727e+06	-39189.1	1055.82	-29794.8	0.000000	0.000000	7.189325	495.379	NaN	0.000000	0.001720	0.001709	28.0832	99.6223	0.001754	56803.1	3.367333	-8.854984	490.395	1.168627	0.102984	0.102656	495.379	56803.1	0.096443	0.287998	1720.08	96705.3