File: remote_trans/data/nanoindenter/0828-1/data/Data_2025-08-06,11h17m57s/2025-07-22_16-23-58_1_723.txt
2025-07-22, 16:23:58, 1
Index	Phase	Displacement	Time	Pos X	Pos Y	Pos Z	Rot A	Rot B	Piezo Z	Force A	Force B	Gripper	Voltage A	Voltage B	Temperature	Amplitude force	Amplitude pos	Stiffness	Phase shift	Phase excitation	Force A raw	Displacement raw	HMax	HMax raw	Real Force	Real Stiffness	Contact Depth	Area	Hardness	Reduced Mod.
[#]	[#]	[um]	[s]	[um]	[um]	[um]	[m°]	[m°]	[um]	[uN]	[uN]	[V]	[V]	[V]	[°C]	[uN]	[um]	[N/m]	[°]	[°]	[uN]	[um]	[um]	[um]	[uN]	[N/m]	[um]	[um^2]	[MPa]	[MPa]
723	1.000000	0.002821	7.37213e+06	-40939.1	1005.82	-29788.1	0.000000	0.000000	6.002811	-0.038562	NaN	0.000000	0.001620	0.001726	28.0835	0.054822	0.000959	57.1903	-64.1166	-167.464	-0.074239	0.001497	-1.071433	-1.072757	-0.038562	57.1903	-1.070928	-2.040103E+14	1.890208E-16	NaN
723	1.000000	0.010802	7.37213e+06	-40939.1	1005.82	-29788.1	0.000000	0.000000	6.010792	-0.036854	NaN	0.000000	0.001644	0.001728	28.0836	0.023411	0.000995	23.5174	-65.7576	-164.92	-0.040341	0.009493	-1.063452	-1.064761	-0.036854	23.5174	-1.062277	-1.561070E+14	2.360806E-16	NaN
723	1.000000	0.018753	7.37213e+06	-40939.1	1005.82	-29788.1	0.000000	0.000000	6.018742	-0.043849	NaN	0.000000	0.001581	0.001728	28.0833	0.080076	0.001748	45.8175	-144.446	-167.888	-0.101079	0.017523	-1.055502	-1.056732	-0.043849	45.8175	-1.054784	-1.238005E+14	3.541932E-16	NaN
723	1.000000	0.026779	7.37213e+06	-40939.1	1005.82	-29788.1	0.000000	0.000000	6.026770	0.002973	NaN	0.000000	0.001601	0.001717	28.0834	0.075249	0.001868	40.2814	-114.388	-163.852	-0.015978	0.025405	-1.047476	-1.048849	0.002973	40.2814	-1.047531	-9.890598E+13	-3.006313E-17	NaN
723	1.000000	0.034741	7.37213e+06	-40939.1	1005.82	-29788.1	0.000000	0.000000	6.034734	0.031377	NaN	0.000000	0.001588	0.001753	28.0834	0.005031	0.002031	2.477113	-126.403	-163.785	0.108056	0.033500	-1.039514	-1.040754	0.031377	2.477113	-1.049014	-1.035516E+14	-3.030091E-16	NaN
723	1.000000	0.042765	7.37213e+06	-40939.1	1005.82	-29788.1	0.000000	0.000000	6.042757	0.028560	NaN	0.000000	0.001568	0.001736	28.0829	0.033047	0.001853	17.8369	-42.5904	-165.539	-0.007528	0.041423	-1.031490	-1.032832	0.028560	17.8369	-1.032691	-6.247021E+13	-4.571712E-16	NaN
723	1.000000	0.050759	7.37213e+06	-40939.1	1005.82	-29788.1	0.000000	0.000000	6.050750	-0.003905	NaN	0.000000	0.001607	0.001715	28.0824	0.020170	0.001887	10.6872	-69.4207	-163.411	0.072431	0.049465	-1.023496	-1.024789	-0.003905	10.6872	-1.023222	-4.659096E+13	8.381509E-17	NaN
723	1.000000	0.058762	7.37213e+06	-40939.1	1005.82	-29788.1	0.000000	0.000000	6.058753	-0.004864	NaN	0.000000	0.001593	0.001701	28.0821	0.108632	0.002036	53.3631	117.704	-164.627	-0.042626	0.057463	-1.015492	-1.016792	-0.004864	53.3631	-1.015424	-3.659133E+13	1.329157E-16	NaN
723	1.000000	0.066748	7.37213e+06	-40939.1	1005.82	-29788.1	0.000000	0.000000	6.066736	-0.066012	NaN	0.000000	0.001580	0.001738	28.0822	0.118247	0.001867	63.3265	-147.344	-164.221	0.000843	0.065462	-1.007507	-1.008793	-0.066012	63.3265	-1.006725	-2.794505E+13	2.362214E-15	NaN
723	1.000000	0.074774	7.37213e+06	-40939.1	1005.82	-29788.1	0.000000	0.000000	6.074764	-0.018435	NaN	0.000000	0.001524	0.001721	28.0824	0.132698	0.001949	68.0909	21.5446	-165.586	-0.017551	0.073524	-0.999481	-1.000731	-0.018435	68.0909	-0.999278	-2.218436E+13	8.309923E-16	NaN
723	1.000000	0.082779	7.37213e+06	-40939.1	1005.82	-29788.1	0.000000	0.000000	6.082771	0.017701	NaN	0.000000	0.001545	0.001729	28.0822	0.106393	0.001936	54.9482	75.0748	-166.394	0.040599	0.081414	-0.991475	-0.992841	0.017701	54.9482	-0.991717	-1.754836E+13	-1.008720E-15	NaN
723	1.000000	0.090749	7.37213e+06	-40939.1	1005.82	-29788.1	0.000000	0.000000	6.090741	0.012458	NaN	0.000000	0.001588	0.001717	28.0824	0.055143	0.002017	27.345	161.162	-164.784	-0.010511	0.089477	-0.983506	-0.984778	0.012458	27.345	-0.983848	-1.374812E+13	-9.061256E-16	NaN
723	1.000000	0.098763	7.37213e+06	-40939.1	1005.82	-29788.1	0.000000	0.000000	6.098753	-0.019936	NaN	0.000000	0.001558	0.001722	28.082	0.029894	0.002081	14.3626	-179.739	-164.731	-0.068264	0.097473	-0.975492	-0.976782	-0.019936	14.3626	-0.974451	-1.027175E+13	1.940838E-15	NaN
723	1.000000	0.106752	7.37213e+06	-40939.1	1005.82	-29788.1	0.000000	0.000000	6.106744	0.013629	NaN	0.000000	0.001539	0.001708	28.0821	0.028100	0.002124	13.2297	35.0447	-165.032	0.013579	0.105532	-0.967503	-0.968723	0.013629	13.2297	-0.968276	-8.480522E+12	-1.607147E-15	NaN
723	1.000000	0.114766	7.37213e+06	-40939.1	1005.82	-29788.1	0.000000	0.000000	6.114758	0.026993	NaN	0.000000	0.001563	0.001742	28.0821	0.088964	0.001991	44.6757	171.169	-162.409	0.022549	0.113447	-0.959489	-0.960807	0.026993	44.6757	-0.959942	-6.547680E+12	-4.122550E-15	NaN
723	1.000000	0.122792	7.37213e+06	-40939.1	1005.82	-29788.1	0.000000	0.000000	6.122785	0.049181	NaN	0.000000	0.001556	0.001685	28.082	0.030637	0.001904	16.0886	-151.113	-163.407	0.002096	0.121435	-0.951463	-0.952820	0.049181	16.0886	-0.953755	-5.403469E+12	-9.101669E-15	NaN
723	1.000000	0.130775	7.37213e+06	-40939.1	1005.82	-29788.1	0.000000	0.000000	6.130764	-0.038485	NaN	0.000000	0.001563	0.001729	28.0826	0.097821	0.002042	47.8997	-65.5313	-163.683	-0.014122	0.129447	-0.943480	-0.944807	-0.038485	47.8997	-0.942877	-3.854396E+12	9.984796E-15	NaN
723	1.000000	0.138766	7.37213e+06	-40939.1	1005.82	-29788.1	0.000000	0.000000	6.138756	-0.021490	NaN	0.000000	0.001525	0.001767	28.0821	0.036838	0.001940	18.9854	134.281	-164.441	0.097784	0.137521	-0.935489	-0.936734	-0.021490	18.9854	-0.934640	-2.984129E+12	7.201450E-15	NaN
723	1.000000	0.146823	7.37213e+06	-40939.1	1005.82	-29788.1	0.000000	0.000000	6.146811	-0.065584	NaN	0.000000	0.001566	0.001730	28.0822	0.160012	0.001967	81.3375	-124.87	-165.267	-0.038421	0.145484	-0.927432	-0.928770	-0.065584	81.3375	-0.926827	-2.340862E+12	2.801705E-14	NaN
723	1.000000	0.154831	7.37213e+06	-40939.1	1005.82	-29788.1	0.000000	0.000000	6.154825	0.046535	NaN	0.000000	0.001558	0.001736	28.0821	0.064238	0.002053	31.2911	-17.7708	-164.107	-0.040635	0.153498	-0.919423	-0.920757	0.046535	31.2911	-0.920539	-1.925209E+12	-2.417155E-14	NaN
723	1.000000	0.162759	7.37213e+06	-40939.1	1005.82	-29788.1	0.000000	0.000000	6.162752	0.033692	NaN	0.000000	0.001535	0.001728	28.082	0.092404	0.002009	46.0014	143.464	-167.219	0.043933	0.161507	-0.911495	-0.912748	0.033692	46.0014	-0.912045	-1.478352E+12	-2.279025E-14	NaN
723	1.000000	0.170788	7.37213e+06	-40939.1	1005.82	-29788.1	0.000000	0.000000	6.170781	0.033832	NaN	0.000000	0.001539	0.001725	28.0826	0.078741	0.002034	38.7073	8.468901	-163.008	0.054802	0.169443	-0.903466	-0.904812	0.033832	38.7073	-0.904122	-1.155465E+12	-2.928012E-14	NaN
723	1.000000	0.178795	7.37213e+06	-40939.1	1005.82	-29788.1	0.000000	0.000000	6.178786	-0.028411	NaN	0.000000	0.001576	0.001707	28.0822	0.030883	0.002008	15.383	-46.2545	-166.286	-0.073183	0.177549	-0.895459	-0.896706	-0.028411	15.383	-0.894074	-8.452485E+11	3.361225E-14	NaN
723	1.000000	0.186780	7.37213e+06	-40939.1	1005.82	-29788.1	0.000000	0.000000	6.186770	-0.028893	NaN	0.000000	0.001581	0.001728	28.0836	0.114578	0.002070	55.3547	107.401	-164.262	0.069187	0.185545	-0.887474	-0.888710	-0.028893	55.3547	-0.887083	-6.799541E+11	4.249295E-14	NaN
723	1.000000	0.194820	7.37213e+06	-40939.1	1005.82	-29788.1	0.000000	0.000000	6.194811	-0.004917	NaN	0.000000	0.001568	0.001726	28.0833	0.096994	0.001999	48.5192	156.328	-163.703	0.070204	0.193497	-0.879435	-0.880758	-0.004917	48.5192	-0.879359	-5.346072E+11	9.197602E-15	NaN
723	1.000000	0.202803	7.37213e+06	-40939.1	1005.82	-29788.1	0.000000	0.000000	6.202795	-0.003065	NaN	0.000000	0.001560	0.001702	28.0833	0.022024	0.001916	11.4968	-100.721	-161.834	-0.031845	0.201549	-0.871451	-0.872706	-0.003065	11.4968	-0.871251	-4.153099E+11	7.380282E-15	NaN
723	1.000000	0.210821	7.37213e+06	-40939.1	1005.82	-29788.1	0.000000	0.000000	6.210811	-0.035381	NaN	0.000000	0.001553	0.001726	28.0837	0.037673	0.002048	18.3912	44.7197	-162.781	-0.036112	0.209508	-0.863434	-0.864746	-0.035381	18.3912	-0.861991	-3.112174E+11	1.136858E-13	NaN
723	1.000000	0.218825	7.37213e+06	-40939.1	1005.82	-29788.1	0.000000	0.000000	6.218817	0.020080	NaN	0.000000	0.001564	0.001756	28.0834	0.111021	0.002024	54.8618	-121.225	-165.394	-0.000829	0.217536	-0.855430	-0.856719	0.020080	54.8618	-0.855705	-2.558443E+11	-7.848402E-14	NaN
723	1.000000	0.226825	7.37213e+06	-40939.1	1005.82	-29788.1	0.000000	0.000000	6.226813	-0.073434	NaN	0.000000	0.001573	0.001746	28.0838	0.063239	0.002023	31.2613	92.9958	-166.064	-0.037717	0.225513	-0.847430	-0.848742	-0.073434	31.2613	-0.845668	-1.871002E+11	3.924862E-13	NaN
723	1.000000	0.234852	7.37213e+06	-40939.1	1005.82	-29788.1	0.000000	0.000000	6.234843	-0.014397	NaN	0.000000	0.001588	0.001688	28.0834	0.057588	0.001916	30.0542	-65.3723	-164.05	-0.046856	0.233549	-0.839402	-0.840705	-0.014397	30.0542	-0.839043	-1.521700E+11	9.461151E-14	NaN
723	1.000000	0.242832	7.37213e+06	-40939.1	1005.82	-29788.1	0.000000	0.000000	6.242825	0.022234	NaN	0.000000	0.001592	0.001753	28.0834	0.048320	0.002118	22.813	154.407	-166.917	0.010830	0.241520	-0.831422	-0.832735	0.022234	22.813	-0.832153	-1.227351E+11	-1.811552E-13	NaN
723	1.000000	0.250845	7.37213e+06	-40939.1	1005.82	-29788.1	0.000000	0.000000	6.250838	0.028210	NaN	0.000000	0.001572	0.001744	28.0833	0.044087	0.002017	21.8613	-161.003	-165.575	0.009743	0.249551	-0.823410	-0.824704	0.028210	21.8613	-0.824377	-9.628621E+10	-2.929813E-13	NaN
723	1.000000	0.258847	7.37213e+06	-40939.1	1005.82	-29788.1	0.000000	0.000000	6.258838	-0.010155	NaN	0.000000	0.001573	0.001751	28.0833	0.101230	0.002094	48.3322	163.989	-164.564	-0.004202	0.257517	-0.815408	-0.816738	-0.010155	48.3322	-0.815250	-7.240903E+10	1.402430E-13	NaN
723	1.000000	0.266842	7.37213e+06	-40939.1	1005.82	-29788.1	0.000000	0.000000	6.266834	0.018986	NaN	0.000000	0.001577	0.001736	28.0836	0.051495	0.001936	26.6021	-117.421	-166.412	-0.038166	0.265556	-0.807413	-0.808699	0.018986	26.6021	-0.807948	-5.764060E+10	-3.293796E-13	NaN
723	1.000000	0.274839	7.37213e+06	-40939.1	1005.82	-29788.1	0.000000	0.000000	6.274829	-0.028388	NaN	0.000000	0.001554	0.001781	28.083	0.019971	0.001955	10.2162	20.718	-164.08	-0.033980	0.273585	-0.799416	-0.800670	-0.028388	10.2162	-0.797332	-4.136602E+10	6.862645E-13	NaN
723	1.000000	0.282867	7.37213e+06	-40939.1	1005.82	-29788.1	0.000000	0.000000	6.282857	-0.029692	NaN	0.000000	0.001582	0.001764	28.0834	0.056757	0.002077	27.3327	23.2497	-162.315	-0.094262	0.281547	-0.791388	-0.792707	-0.029692	27.3327	-0.790573	-3.348600E+10	8.867105E-13	NaN
723	1.000000	0.290867	7.37213e+06	-40939.1	1005.82	-29788.1	0.000000	0.000000	6.290859	-0.002075	NaN	0.000000	0.001548	0.001726	28.0833	0.107344	0.002014	53.3055	-160.697	-163.948	0.029858	0.289535	-0.783387	-0.784720	-0.002075	53.3055	-0.783358	-2.672149E+10	7.764231E-14	NaN
723	1.000000	0.298864	7.37213e+06	-40939.1	1005.82	-29788.1	0.000000	0.000000	6.298857	0.057136	NaN	0.000000	0.001521	0.001711	28.0834	0.022437	0.002028	11.0658	-142.563	-164.253	-0.004774	0.297541	-0.775391	-0.776713	0.057136	11.0658	-0.779264	-2.350853E+10	-2.430457E-12	NaN
723	1.000000	0.306872	7.37213e+06	-40939.1	1005.82	-29788.1	0.000000	0.000000	6.306863	-0.020858	NaN	0.000000	0.001544	0.001724	28.0835	0.039302	0.001954	20.1154	-134.428	-166.238	0.043988	0.305577	-0.767382	-0.768678	-0.020858	20.1154	-0.766605	-1.581750E+10	1.318697E-12	NaN
723	1.000000	0.314866	7.37213e+06	-40939.1	1005.82	-29788.1	0.000000	0.000000	6.314859	0.021891	NaN	0.000000	0.001580	0.001755	28.0834	0.061946	0.001983	31.2427	-87.139	-164.254	0.060213	0.313576	-0.759388	-0.760679	0.021891	31.2427	-0.759914	-1.282713E+10	-1.706638E-12	NaN
723	1.000000	0.322855	7.37213e+06	-40939.1	1005.82	-29788.1	0.000000	0.000000	6.322846	-0.015463	NaN	0.000000	0.001560	0.001733	28.0825	0.068796	0.002013	34.1776	110.112	-161.796	0.021878	0.321486	-0.751399	-0.752769	-0.015463	34.1776	-0.751060	-9.719574E+9	1.590914E-12	NaN
723	1.000000	0.330853	7.37213e+06	-40939.1	1005.82	-29788.1	0.000000	0.000000	6.330843	-0.033853	NaN	0.000000	0.001563	0.001722	28.0821	0.130212	0.001967	66.1898	150.069	-160.877	0.021531	0.329625	-0.743402	-0.744630	-0.033853	66.1898	-0.743018	-7.553702E+9	4.481613E-12	NaN
723	1.000000	0.338875	7.37213e+06	-40939.1	1005.82	-29788.1	0.000000	0.000000	6.338867	0.022692	NaN	0.000000	0.001607	0.001730	28.0822	0.013254	0.001807	7.334668	-55.2042	-164.265	0.004047	0.337589	-0.735380	-0.736666	0.022692	7.334668	-0.737700	-6.393377E+9	-3.549253E-12	NaN
723	1.000000	0.346899	7.37213e+06	-40939.1	1005.82	-29788.1	0.000000	0.000000	6.346890	-0.009334	NaN	0.000000	0.001575	0.001711	28.082	0.034023	0.002072	16.4212	-43.3762	-164.595	-0.058998	0.345531	-0.727356	-0.728723	-0.009334	16.4212	-0.726929	-4.559862E+9	2.046965E-12	NaN
723	1.000000	0.354876	7.37213e+06	-40939.1	1005.82	-29788.1	0.000000	0.000000	6.354870	0.077615	NaN	0.000000	0.001581	0.001706	28.0821	0.004339	0.002165	2.004005	24.3926	-164.85	0.049920	0.353565	-0.719379	-0.720689	0.077615	2.004005	-0.748427	-8.949529E+9	-8.672575E-12	NaN
723	1.000000	0.362883	7.37213e+06	-40939.1	1005.82	-29788.1	0.000000	0.000000	6.362871	-0.064473	NaN	0.000000	0.001604	0.001725	28.0822	0.065436	0.002038	32.1107	-58.8637	-162.163	0.017736	0.361552	-0.711372	-0.712703	-0.064473	32.1107	-0.709866	-2.668231E+9	2.416327E-11	NaN
723	1.000000	0.370894	7.37213e+06	-40939.1	1005.82	-29788.1	0.000000	0.000000	6.370883	-0.032301	NaN	0.000000	0.001618	0.001682	28.0821	0.056987	0.001851	30.7813	89.6648	-162.911	-0.127918	0.369547	-0.703361	-0.704707	-0.032301	30.7813	-0.702574	-2.121691E+9	1.522425E-11	NaN
723	1.000000	0.378875	7.37213e+06	-40939.1	1005.82	-29788.1	0.000000	0.000000	6.378863	-0.071365	NaN	0.000000	0.001617	0.001740	28.0824	0.065851	0.001974	33.3538	-143.623	-163.416	0.069372	0.377546	-0.695380	-0.696709	-0.071365	33.3538	-0.693775	-1.608800E+9	4.435944E-11	NaN
723	1.000000	0.386894	7.37213e+06	-40939.1	1005.82	-29788.1	0.000000	0.000000	6.386889	0.078538	NaN	0.000000	0.001581	0.001741	28.082	0.063197	0.001973	32.0355	-165.356	-165.411	0.054500	0.385647	-0.687361	-0.688608	0.078538	32.0355	-0.689199	-1.393078E+9	-5.637699E-11	NaN
723	1.000000	0.394905	7.37213e+06	-40939.1	1005.82	-29788.1	0.000000	0.000000	6.394895	-0.033748	NaN	0.000000	0.001593	0.001710	28.0821	0.012952	0.002016	6.425859	-177.199	-167.372	-0.087295	0.393658	-0.679350	-0.680596	-0.033748	6.425859	-0.675411	-9.024618E+8	3.739546E-11	NaN
723	1.000000	0.402910	7.37213e+06	-40939.1	1005.82	-29788.1	0.000000	0.000000	6.402901	-0.007023	NaN	0.000000	0.001537	0.001701	28.0819	0.104461	0.002010	51.9598	-121.473	-167.517	0.034212	0.401651	-0.671345	-0.672604	-0.007023	51.9598	-0.671243	-7.914209E+8	8.873588E-12	NaN
723	1.000000	0.410937	7.37213e+06	-40939.1	1005.82	-29788.1	0.000000	0.000000	6.410930	0.047259	NaN	0.000000	0.001583	0.001721	28.0819	0.046125	0.001956	23.5867	-86.4834	-164.468	0.064069	0.409579	-0.663318	-0.664675	0.047259	23.5867	-0.664821	-6.463816E+8	-7.311385E-11	NaN
723	1.000000	0.418933	7.37213e+06	-40939.1	1005.82	-29788.1	0.000000	0.000000	6.418921	-0.080941	NaN	0.000000	0.001567	0.001716	28.082	0.045541	0.001872	24.3272	128.129	-164.34	-0.074609	0.417637	-0.655321	-0.656618	-0.080941	24.3272	-0.652826	-4.427639E+8	1.828088E-10	NaN
723	1.000000	0.426918	7.37213e+06	-40939.1	1005.82	-29788.1	0.000000	0.000000	6.426909	-0.016360	NaN	0.000000	0.001614	0.001693	28.0819	0.086994	0.001855	46.886	-126.9	-166.173	0.026221	0.425584	-0.647337	-0.648671	-0.016360	46.886	-0.647075	-3.692617E+8	4.430446E-11	NaN
723	1.000000	0.434926	7.37213e+06	-40939.1	1005.82	-29788.1	0.000000	0.000000	6.434915	-0.036797	NaN	0.000000	0.001605	0.001708	28.0823	0.077602	0.001918	40.4571	18.0581	-163.273	-0.044102	0.433628	-0.639329	-0.640627	-0.036797	40.4571	-0.638647	-2.829584E+8	1.300444E-10	NaN
723	1.000000	0.442951	7.37213e+06	-40939.1	1005.82	-29788.1	0.000000	0.000000	6.442945	0.086948	NaN	0.000000	0.001590	0.001743	28.0824	0.099637	0.002080	47.9074	-162.278	-163.32	0.100997	0.441550	-0.631304	-0.632705	0.086948	47.9074	-0.632665	-2.342185E+8	-3.712264E-10	NaN
723	1.000000	0.450918	7.37213e+06	-40939.1	1005.82	-29788.1	0.000000	0.000000	6.450907	-0.050263	NaN	0.000000	0.001575	0.001740	28.082	0.067110	0.002053	32.6966	-111.942	-165.475	-0.048557	0.449649	-0.623337	-0.624606	-0.050263	32.6966	-0.622184	-1.681303E+8	2.989516E-10	NaN
723	1.000000	0.458921	7.37213e+06	-40939.1	1005.82	-29788.1	0.000000	0.000000	6.458913	0.018867	NaN	0.000000	0.001593	0.001720	28.0834	0.141446	0.001830	77.2893	-73.0085	-164.894	0.073900	0.457631	-0.615334	-0.616624	0.018867	77.2893	-0.615517	-1.361427E+8	-1.385851E-10	NaN
723	1.000000	0.466952	7.37213e+06	-40939.1	1005.82	-29788.1	0.000000	0.000000	6.466943	0.001656	NaN	0.000000	0.001623	0.001740	28.083	0.084758	0.001975	42.92	63.0823	-163.911	-0.016034	0.465624	-0.607303	-0.608630	0.001656	42.92	-0.607332	-1.050513E+8	-1.576657E-11	NaN
723	1.000000	0.474956	7.37213e+06	-40939.1	1005.82	-29788.1	0.000000	0.000000	6.474947	0.010370	NaN	0.000000	0.001595	0.001745	28.0833	0.074053	0.002201	33.6458	78.2366	-162.515	-0.027549	0.473636	-0.599299	-0.600619	0.010370	33.6458	-0.599530	-8.203329E+7	-1.264148E-10	NaN
723	1.000000	0.482907	7.37213e+06	-40939.1	1005.82	-29788.1	0.000000	0.000000	6.482898	-0.007587	NaN	0.000000	0.001599	0.001754	28.083	0.071002	0.001930	36.7808	174.31	-165.105	0.035321	0.481668	-0.591347	-0.592587	-0.007587	36.7808	-0.591193	-6.296629E+7	1.204927E-10	NaN
723	1.000000	0.490949	7.37213e+06	-40939.1	1005.82	-29788.1	0.000000	0.000000	6.490938	-0.053100	NaN	0.000000	0.001612	0.001734	28.0829	0.089347	0.002107	42.4071	126.936	-166.43	-0.051661	0.489616	-0.583306	-0.584639	-0.053100	42.4071	-0.582367	-4.757610E+7	1.116112E-9	NaN
723	1.000000	0.498971	7.37213e+06	-40939.1	1005.82	-29788.1	0.000000	0.000000	6.498962	0.009153	NaN	0.000000	0.001609	0.001717	28.0829	0.059786	0.001975	30.2694	108.267	-167.206	0.055310	0.497673	-0.575284	-0.576581	0.009153	30.2694	-0.575511	-3.826078E+7	-2.392165E-10	NaN
723	1.000000	0.506939	7.37213e+06	-40939.1	1005.82	-29788.1	0.000000	0.000000	6.506929	-0.039304	NaN	0.000000	0.001603	0.001735	28.0829	0.131533	0.002052	64.0976	44.4451	-164.398	0.035704	0.505675	-0.567316	-0.568579	-0.039304	64.0976	-0.566856	-2.905222E+7	1.352876E-9	NaN
723	1.000000	0.514946	7.37213e+06	-40939.1	1005.82	-29788.1	0.000000	0.000000	6.514938	0.007987	NaN	0.000000	0.001624	0.001700	28.0831	0.083735	0.001989	42.0998	-6.831223	-165.892	-0.073161	0.513566	-0.559309	-0.560688	0.007987	42.0998	-0.559451	-2.295004E+7	-3.479987E-10	NaN
723	1.000000	0.522937	7.37213e+06	-40939.1	1005.82	-29788.1	0.000000	0.000000	6.522927	-0.016603	NaN	0.000000	0.001623	0.001738	28.083	0.126105	0.001925	65.518	179.08	-164.851	-0.018796	0.521622	-0.551318	-0.552633	-0.016603	65.518	-0.551128	-1.760268E+7	9.431805E-10	NaN
723	1.000000	0.530945	7.37213e+06	-40939.1	1005.82	-29788.1	0.000000	0.000000	6.530936	-0.016340	NaN	0.000000	0.001615	0.001728	28.0832	0.067017	0.001976	33.917	-84.9717	-162.545	-0.025628	0.529628	-0.543310	-0.544627	-0.016340	33.917	-0.542948	-1.355938E+7	1.205102E-9	NaN
723	1.000000	0.538963	7.37213e+06	-40939.1	1005.82	-29788.1	0.000000	0.000000	6.538954	0.002861	NaN	0.000000	0.001562	0.001753	28.083	0.068184	0.002107	32.3557	109.068	-163.9	0.000445	0.537651	-0.535292	-0.536603	0.002861	32.3557	-0.535358	-1.064039E+7	-2.688673E-10	NaN
723	1.000000	0.546960	7.37213e+06	-40939.1	1005.82	-29788.1	0.000000	0.000000	6.546950	-0.021946	NaN	0.000000	0.001571	0.001725	28.083	0.048040	0.002010	23.8967	105.566	-167.586	0.021438	0.545650	-0.527295	-0.528605	-0.021946	23.8967	-0.526606	-8.0432e+06	2.728549E-9	NaN
723	1.000000	0.554984	7.37213e+06	-40939.1	1005.82	-29788.1	0.000000	0.000000	6.554976	0.025984	NaN	0.000000	0.001582	0.001702	28.0832	0.050103	0.002092	23.9523	54.7502	-163.852	0.022885	0.553606	-0.519271	-0.520648	0.025984	23.9523	-0.520085	-6.52792e+06	-3.980396E-9	NaN
723	1.000000	0.562994	7.37213e+06	-40939.1	1005.82	-29788.1	0.000000	0.000000	6.562984	-0.024155	NaN	0.000000	0.001545	0.001684	28.0829	0.149568	0.002076	72.0507	-123.039	-162.015	-0.044077	0.561701	-0.511261	-0.512554	-0.024155	72.0507	-0.511010	-4.88066e+06	4.949078E-9	NaN
723	1.000000	0.570958	7.37213e+06	-40939.1	1005.82	-29788.1	0.000000	0.000000	6.570949	-0.015669	NaN	0.000000	0.001598	0.001705	28.0831	0.058641	0.001851	31.6871	-168.43	-163.948	-0.028702	0.569697	-0.503297	-0.504558	-0.015669	31.6871	-0.502926	-3.76552e+06	4.161198E-9	NaN
723	1.000000	0.578971	7.37213e+06	-40939.1	1005.82	-29788.1	0.000000	0.000000	6.578963	0.009034	NaN	0.000000	0.001553	0.001687	28.0832	0.077445	0.001928	40.173	62.85	-166.496	0.026657	0.577649	-0.495284	-0.496606	0.009034	40.173	-0.495452	-2.96175e+06	-3.050284E-9	NaN
723	1.000000	0.587001	7.37213e+06	-40939.1	1005.82	-29788.1	0.000000	0.000000	6.586990	-0.059903	NaN	0.000000	0.001615	0.001663	28.0835	0.049806	0.002074	24.0137	-32.4794	-164.458	-0.056258	0.585693	-0.487254	-0.488562	-0.059903	24.0137	-0.485383	-2.14213e+06	2.796411E-8	NaN
723	1.000000	0.594962	7.37213e+06	-40939.1	1005.82	-29788.1	0.000000	0.000000	6.594954	0.010742	NaN	0.000000	0.001601	0.001692	28.0821	0.061149	0.001929	31.6992	-161.511	-168.379	-0.044675	0.593703	-0.479293	-0.480552	0.010742	31.6992	-0.479547	-1.77494e+06	-6.052226E-9	NaN
723	1.000000	0.602987	7.37213e+06	-40939.1	1005.82	-29788.1	0.000000	0.000000	6.602978	-0.004126	NaN	0.000000	0.001617	0.001690	28.082	0.103687	0.002016	51.437	-6.644268	-164.002	-0.006203	0.601730	-0.471268	-0.472525	-0.004126	51.437	-0.471207	-1.35625e+06	3.042385E-9	NaN
723	1.000000	0.610994	7.37213e+06	-40939.1	1005.82	-29788.1	0.000000	0.000000	6.610988	0.067018	NaN	0.000000	0.001572	0.001721	28.0818	0.033146	0.002107	15.7323	85.5606	-161.624	0.085262	0.609693	-0.463261	-0.464562	0.067018	15.7323	-0.466456	-1.16327e+06	-5.761175E-8	NaN
723	1.000000	0.619009	7.37213e+06	-40939.1	1005.82	-29788.1	0.000000	0.000000	6.618997	-0.068031	NaN	0.000000	0.001561	0.001708	28.082	0.078525	0.001982	39.6118	-135.634	-167.769	-0.005203	0.617772	-0.455246	-0.456483	-0.068031	39.6118	-0.453958	-776349	8.762925E-8	NaN
723	1.000000	0.627042	7.37213e+06	-40939.1	1005.82	-29788.1	0.000000	0.000000	6.627037	0.082285	NaN	0.000000	0.001556	0.001714	28.0825	0.118932	0.001972	60.3123	-62.4802	-162.687	0.104587	0.625698	-0.447213	-0.448557	0.082285	60.3123	-0.448236	-644907	-1.275918E-7	NaN
723	1.000000	0.635035	7.37213e+06	-40939.1	1005.82	-29788.1	0.000000	0.000000	6.635023	-0.074305	NaN	0.000000	0.001566	0.001713	28.0819	0.100120	0.002086	47.9924	128.833	-167.997	-0.041090	0.633710	-0.439220	-0.440545	-0.074305	47.9924	-0.438058	-463397	1.603495E-7	NaN
723	1.000000	0.642991	7.37213e+06	-40939.1	1005.82	-29788.1	0.000000	0.000000	6.642981	-0.035278	NaN	0.000000	0.001589	0.001658	28.0819	0.056523	0.001980	28.5417	-158.255	-167.441	-0.012701	0.641681	-0.431264	-0.432573	-0.035278	28.5417	-0.430337	-360434	9.787549E-8	NaN
723	1.000000	0.651027	7.37213e+06	-40939.1	1005.82	-29788.1	0.000000	0.000000	6.651017	-0.028416	NaN	0.000000	0.001572	0.001688	28.082	0.081442	0.001890	43.0953	148.425	-164.785	-0.000388	0.649734	-0.423227	-0.424521	-0.028416	43.0953	-0.422733	-281294	1.010200E-7	NaN
723	1.000000	0.658971	7.37213e+06	-40939.1	1005.82	-29788.1	0.000000	0.000000	6.658959	-0.086775	NaN	0.000000	0.001567	0.001723	28.0819	0.063982	0.002071	30.8938	154.081	-163.257	-0.155242	0.657698	-0.415284	-0.416557	-0.086775	30.8938	-0.413177	-205855	4.215360E-7	NaN
723	1.000000	0.667004	7.37213e+06	-40939.1	1005.82	-29788.1	0.000000	0.000000	6.666995	-0.006879	NaN	0.000000	0.001614	0.001749	28.082	0.064722	0.002091	30.948	112.623	-161.038	-0.068605	0.665662	-0.407251	-0.408592	-0.006879	30.948	-0.407084	-168625	4.079641E-8	NaN
723	1.000000	0.675021	7.37213e+06	-40939.1	1005.82	-29788.1	0.000000	0.000000	6.675010	-0.072350	NaN	0.000000	0.001606	0.001754	28.0818	0.025115	0.002057	12.2075	-124.387	-166.636	-0.100258	0.673724	-0.399233	-0.400531	-0.072350	12.2075	-0.394788	-112619	6.424271E-7	NaN
723	1.000000	0.683024	7.37213e+06	-40939.1	1005.82	-29788.1	0.000000	0.000000	6.683013	-0.050097	NaN	0.000000	0.001572	0.001705	28.0822	0.028813	0.002108	13.667	131.136	-166.677	-0.030910	0.681749	-0.391231	-0.392505	-0.050097	13.667	-0.388481	-91503.6	5.474844E-7	NaN
723	1.000000	0.691016	7.37213e+06	-40939.1	1005.82	-29788.1	0.000000	0.000000	6.691005	-0.056523	NaN	0.000000	0.001596	0.001710	28.0822	0.087148	0.001903	45.7845	-117.433	-167.477	-0.040173	0.689693	-0.383239	-0.384562	-0.056523	45.7845	-0.382313	-74656.1	7.571162E-7	NaN
723	1.000000	0.698994	7.37213e+06	-40939.1	1005.82	-29788.1	0.000000	0.000000	6.698984	-0.033100	NaN	0.000000	0.001592	0.001711	28.0819	0.087621	0.002008	43.6295	126.407	-167.619	-0.022539	0.697742	-0.375261	-0.376512	-0.033100	43.6295	-0.374692	-58028.7	5.704057E-7	NaN
723	1.000000	0.707034	7.37213e+06	-40939.1	1005.82	-29788.1	0.000000	0.000000	6.707025	0.002643	NaN	0.000000	0.001613	0.001724	28.0819	0.074528	0.002001	37.2412	128.022	-164.178	-0.092645	0.705719	-0.367221	-0.368536	0.002643	37.2412	-0.367274	-45379.1	-5.825155E-8	NaN
723	1.000000	0.715051	7.37213e+06	-40939.1	1005.82	-29788.1	0.000000	0.000000	6.715043	0.013706	NaN	0.000000	0.001581	0.001746	28.082	0.089414	0.002042	43.7875	171.477	-165.898	0.001729	0.713726	-0.359204	-0.360529	0.013706	43.7875	-0.359438	-34972.4	-3.918981E-7	NaN
723	1.000000	0.723028	7.37213e+06	-40939.1	1005.82	-29788.1	0.000000	0.000000	6.723020	0.006194	NaN	0.000000	0.001568	0.001757	28.0822	0.015105	0.002043	7.394540	72.6212	-165.332	0.036146	0.721751	-0.351226	-0.352504	0.006194	7.394540	-0.351855	-27158.7	-2.280751E-7	NaN
723	1.000000	0.731040	7.37213e+06	-40939.1	1005.82	-29788.1	0.000000	0.000000	6.731032	0.020797	NaN	0.000000	0.001572	0.001737	28.0831	0.083386	0.002052	40.6308	-13.2393	-166.864	-0.073544	0.729702	-0.343215	-0.344552	0.020797	40.6308	-0.343599	-20604.9	-1.009329E-6	NaN
723	1.000000	0.739051	7.37213e+06	-40939.1	1005.82	-29788.1	0.000000	0.000000	6.739041	-0.015633	NaN	0.000000	0.001572	0.001744	28.0834	0.075575	0.001944	38.8849	-65.5602	-163.039	-0.017772	0.737698	-0.335204	-0.336557	-0.015633	38.8849	-0.334903	-15387.3	1.015969E-6	NaN
723	1.000000	0.747049	7.37213e+06	-40939.1	1005.82	-29788.1	0.000000	0.000000	6.747040	-0.005392	NaN	0.000000	0.001579	0.001731	28.0833	0.071993	0.001851	38.8927	63.6528	-165.47	-0.029073	0.745747	-0.327206	-0.328507	-0.005392	38.8927	-0.327102	-11829.8	4.557749E-7	NaN
723	1.000000	0.755051	7.37213e+06	-40939.1	1005.82	-29788.1	0.000000	0.000000	6.755042	0.003127	NaN	0.000000	0.001628	0.001733	28.0829	0.093307	0.002048	45.5532	-101.669	-164.536	0.031872	0.753747	-0.319204	-0.320508	0.003127	45.5532	-0.319255	-9071.46	-3.446972E-7	NaN
723	1.000000	0.763052	7.37213e+06	-40939.1	1005.82	-29788.1	0.000000	0.000000	6.763043	0.009157	NaN	0.000000	0.001635	0.001732	28.0831	0.076243	0.002006	38.0138	-70.4606	-165.161	-0.082700	0.761788	-0.311203	-0.312467	0.009157	38.0138	-0.311384	-6942.66	-1.318974E-6	NaN
723	1.000000	0.771077	7.37213e+06	-40939.1	1005.82	-29788.1	0.000000	0.000000	6.771067	-0.038127	NaN	0.000000	0.001653	0.001736	28.0832	0.002699	0.002009	1.343330	39.1444	-168.441	-0.012289	0.769727	-0.303178	-0.304527	-0.038127	1.343330	-0.281891	-2520.44	1.512722E-5	NaN
723	1.000000	0.779043	7.37213e+06	-40939.1	1005.82	-29788.1	0.000000	0.000000	6.779033	-0.033598	NaN	0.000000	0.001645	0.001719	28.0833	0.067721	0.001947	34.7853	92.884	-164.51	-0.027856	0.777777	-0.295212	-0.296477	-0.033598	34.7853	-0.294487	-3894.31	8.627501E-6	NaN
723	1.000000	0.787088	7.37213e+06	-40939.1	1005.82	-29788.1	0.000000	0.000000	6.787079	-0.005360	NaN	0.000000	0.001627	0.001714	28.0833	0.070952	0.002056	34.5127	90.2483	-163.915	0.028877	0.785702	-0.287167	-0.288552	-0.005360	34.5127	-0.287051	-3013.51	1.778555E-6	NaN
723	1.000000	0.795073	7.37213e+06	-40939.1	1005.82	-29788.1	0.000000	0.000000	6.795063	-0.024418	NaN	0.000000	0.001630	0.001707	28.0833	0.065570	0.002046	32.055	93.9458	-163.26	0.001013	0.793780	-0.279182	-0.280475	-0.024418	32.055	-0.278611	-2249.04	1.085691E-5	NaN
723	1.000000	0.803072	7.37213e+06	-40939.1	1005.82	-29788.1	0.000000	0.000000	6.803066	0.046443	NaN	0.000000	0.001627	0.001707	28.0826	0.081111	0.001998	40.5973	14.793	-164.337	-0.065054	0.801768	-0.271182	-0.272487	0.046443	40.5973	-0.272040	-1788.68	-2.596508E-5	NaN
723	1.000000	0.811066	7.37213e+06	-40939.1	1005.82	-29788.1	0.000000	0.000000	6.811058	0.008918	NaN	0.000000	0.001618	0.001741	28.083	0.070090	0.001958	35.7952	-89.8827	-165.156	-0.010968	0.809751	-0.263189	-0.264504	0.008918	35.7952	-0.263376	-1320.02	-6.755812E-6	NaN
723	1.000000	0.819095	7.37213e+06	-40939.1	1005.82	-29788.1	0.000000	0.000000	6.819086	-0.018816	NaN	0.000000	0.001627	0.001707	28.083	0.109546	0.001971	55.5766	150.98	-167.027	-0.047550	0.817801	-0.255160	-0.256453	-0.018816	55.5766	-0.254906	-978.732	1.922472E-5	NaN
723	1.000000	0.827064	7.37213e+06	-40939.1	1005.82	-29788.1	0.000000	0.000000	6.827055	-0.030261	NaN	0.000000	0.001636	0.001680	28.083	0.078474	0.001978	39.6638	98.0133	-163.769	0.010405	0.825763	-0.247190	-0.248492	-0.030261	39.6638	-0.246618	-728.748	4.152473E-5	NaN
723	1.000000	0.835095	7.37213e+06	-40939.1	1005.82	-29788.1	0.000000	0.000000	6.835085	-0.036556	NaN	0.000000	0.001619	0.001693	28.0833	0.024166	0.002073	11.6571	121.234	-164.027	-0.065979	0.833763	-0.239159	-0.240492	-0.036556	11.6571	-0.236807	-512.393	7.134386E-5	NaN
723	1.000000	0.843085	7.37213e+06	-40939.1	1005.82	-29788.1	0.000000	0.000000	6.843078	0.033134	NaN	0.000000	0.001650	0.001697	28.083	0.030081	0.002014	14.9342	82.1913	-167.866	0.024189	0.841795	-0.231169	-0.232460	0.033134	14.9342	-0.232833	-443.797	-7.466074E-5	NaN
723	1.000000	0.851100	7.37213e+06	-40939.1	1005.82	-29788.1	0.000000	0.000000	6.851090	-0.026859	NaN	0.000000	0.001625	0.001689	28.083	0.069984	0.001967	35.5778	168.093	-165.688	0.029165	0.849836	-0.223155	-0.224419	-0.026859	35.5778	-0.222589	-305.481	8.792427E-5	NaN
723	1.000000	0.859107	7.37213e+06	-40939.1	1005.82	-29788.1	0.000000	0.000000	6.859100	0.037510	NaN	0.000000	0.001632	0.001663	28.0829	0.048780	0.001962	24.8678	-95.0702	-165.995	0.044179	0.857780	-0.215148	-0.216475	0.037510	24.8678	-0.216279	-242.142	-0.000155	NaN
723	1.000000	0.867115	7.37213e+06	-40939.1	1005.82	-29788.1	0.000000	0.000000	6.867107	0.028564	NaN	0.000000	0.001648	0.001672	28.0817	0.113404	0.002001	56.6876	126.556	-169.471	0.020645	0.865788	-0.207140	-0.208467	0.028564	56.6876	-0.207518	-174.803	-0.000163	NaN
723	1.000000	0.875093	7.37213e+06	-40939.1	1005.82	-29788.1	0.000000	0.000000	6.875085	0.023135	NaN	0.000000	0.001636	0.001673	28.0817	0.099516	0.002052	48.5054	18.3739	-168.456	-0.014924	0.873822	-0.199162	-0.200433	0.023135	48.5054	-0.199520	-129.36	-0.000179	NaN
723	1.000000	0.883108	7.37213e+06	-40939.1	1005.82	-29788.1	0.000000	0.000000	6.883097	-0.065968	NaN	0.000000	0.001637	0.001688	28.082	0.166537	0.001956	85.1304	26.2024	-166.645	-0.082168	0.881820	-0.191147	-0.192435	-0.065968	85.1304	-0.190566	-91.9328	0.000718	NaN
723	1.000000	0.891124	7.37213e+06	-40939.1	1005.82	-29788.1	0.000000	0.000000	6.891112	-0.067039	NaN	0.000000	0.001662	0.001679	28.0821	0.097579	0.002176	44.8475	166.713	-165.219	-0.072926	0.889800	-0.183131	-0.184455	-0.067039	44.8475	-0.182010	-66.0076	0.001016	NaN
723	1.000000	0.899089	7.37213e+06	-40939.1	1005.82	-29788.1	0.000000	0.000000	6.899079	-0.048753	NaN	0.000000	0.001621	0.001679	28.0815	0.039061	0.001964	19.8903	3.985458	-163.491	-0.072830	0.897853	-0.175165	-0.176402	-0.048753	19.8903	-0.173327	-46.9011	0.001039	NaN
723	1.000000	0.907115	7.37213e+06	-40939.1	1005.82	-29788.1	0.000000	0.000000	6.907106	-0.010321	NaN	0.000000	0.001678	0.001695	28.0818	0.054157	0.002022	26.785	-97.0229	-165.99	-0.045886	0.905776	-0.167140	-0.168478	-0.010321	26.785	-0.166851	-36.2022	0.000285	NaN
723	1.000000	0.915129	7.37213e+06	-40939.1	1005.82	-29788.1	0.000000	0.000000	6.915118	-0.052575	NaN	0.000000	0.001645	0.001696	28.0817	0.108632	0.002035	53.3826	-134.788	-165.934	0.015754	0.913754	-0.159126	-0.160500	-0.052575	53.3826	-0.158387	-25.6611	0.002049	NaN
723	1.000000	0.923125	7.37213e+06	-40939.1	1005.82	-29788.1	0.000000	0.000000	6.923116	-0.026522	NaN	0.000000	0.001685	0.001710	28.082	0.038787	0.001915	20.2499	116.037	-164.352	-0.003903	0.921769	-0.151129	-0.152486	-0.026522	20.2499	-0.150147	-18.2257	0.001455	NaN
723	1.000000	0.931104	7.37213e+06	-40939.1	1005.82	-29788.1	0.000000	0.000000	6.931095	-0.015656	NaN	0.000000	0.001664	0.001703	28.0821	0.106389	0.002071	51.378	-28.9485	-165.433	-0.047404	0.929819	-0.143151	-0.144435	-0.015656	51.378	-0.142922	-13.4155	0.001167	NaN
723	1.000000	0.939150	7.37213e+06	-40939.1	1005.82	-29788.1	0.000000	0.000000	6.939140	-0.051956	NaN	0.000000	0.001676	0.001688	28.0822	0.070855	0.001951	36.3231	135.01	-165.94	-0.046926	0.937845	-0.135104	-0.136409	-0.051956	36.3231	-0.134031	-9.115271	0.005700	NaN
723	1.000000	0.947165	7.37213e+06	-40939.1	1005.82	-29788.1	0.000000	0.000000	6.947156	-0.018845	NaN	0.000000	0.001690	0.001715	28.0823	0.074362	0.001924	38.6516	50.7981	-164.864	-0.005660	0.945848	-0.127090	-0.128407	-0.018845	38.6516	-0.126724	-6.576502	0.002865	NaN
723	1.000000	0.955111	7.37213e+06	-40939.1	1005.82	-29788.1	0.000000	0.000000	6.955101	-0.035809	NaN	0.000000	0.001667	0.001688	28.0821	0.077963	0.001920	40.6087	-161.568	-166.725	-0.093770	0.953869	-0.119143	-0.120385	-0.035809	40.6087	-0.118482	-4.501389	0.007955	NaN
723	1.000000	0.963140	7.37213e+06	-40939.1	1005.82	-29788.1	0.000000	0.000000	6.963128	-0.069109	NaN	0.000000	0.001636	0.001721	28.0821	0.056436	0.002198	25.681	103.446	-170.51	-0.050013	0.961824	-0.111115	-0.112431	-0.069109	25.681	-0.109097	-2.875983	0.024030	NaN
723	1.000000	0.971157	7.37213e+06	-40939.1	1005.82	-29788.1	0.000000	0.000000	6.971146	-0.062270	NaN	0.000000	0.001647	0.001708	28.0822	0.034703	0.002097	16.5488	-126.609	-168.006	0.066781	0.969770	-0.103098	-0.104484	-0.062270	16.5488	-0.100276	-1.853005	0.033605	NaN
723	1.000000	0.979140	7.37213e+06	-40939.1	1005.82	-29788.1	0.000000	0.000000	6.979127	-0.091702	NaN	0.000000	0.001660	0.001721	28.0822	0.056675	0.002105	26.9285	-38.1593	-164.372	-0.127921	0.977864	-0.095115	-0.096390	-0.091702	26.9285	-0.092561	-1.240059	0.073950	NaN
723	1.000000	0.987136	7.37213e+06	-40939.1	1005.82	-29788.1	0.000000	0.000000	6.987126	-0.026834	NaN	0.000000	0.001606	0.001712	28.0823	0.062038	0.002038	30.4439	150.617	-161.932	-0.017377	0.985835	-0.087119	-0.088420	-0.026834	30.4439	-0.086458	-0.890835	0.030122	NaN
723	1.000000	0.995158	7.37213e+06	-40939.1	1005.82	-29788.1	0.000000	0.000000	6.995148	-0.035984	NaN	0.000000	0.001615	0.001698	28.0823	0.122774	0.002085	58.8727	36.5435	-164.359	-0.013007	0.993843	-0.079097	-0.080412	-0.035984	58.8727	-0.078638	-0.572117	0.062896	NaN
723	1.000000	1.003167	7.37213e+06	-40939.1	1005.82	-29788.1	0.000000	0.000000	7.003158	-0.019344	NaN	0.000000	0.001595	0.001724	28.0836	0.022946	0.002134	10.753	-164.307	-162.918	-0.015437	1.001898	-0.071087	-0.072357	-0.019344	10.753	-0.069738	-0.335636	0.057634	NaN
723	1.000000	1.011172	7.37213e+06	-40939.1	1005.82	-29788.1	0.000000	0.000000	7.011165	0.044268	NaN	0.000000	0.001589	0.001711	28.0834	0.045745	0.001930	23.7023	95.4147	-166.285	-0.005444	1.009876	-0.063082	-0.064379	0.044268	23.7023	-0.064483	-0.241110	-0.183601	NaN
723	1.000000	1.019156	7.37213e+06	-40939.1	1005.82	-29788.1	0.000000	0.000000	7.019143	-0.094969	NaN	0.000000	0.001623	0.001705	28.0836	0.083566	0.001948	42.9044	154.884	-165.666	-0.051356	1.017808	-0.055099	-0.056447	-0.094969	42.9044	-0.053439	-0.115747	0.820492	NaN
723	1.000000	1.027201	7.37213e+06	-40939.1	1005.82	-29788.1	0.000000	0.000000	7.027192	-0.007681	NaN	0.000000	0.001675	0.001703	28.0836	0.075962	0.001973	38.4974	133.501	-165.133	-0.011899	1.025864	-0.047053	-0.048391	-0.007681	38.4974	-0.046904	-0.073477	0.104534	NaN
723	1.000000	1.035162	7.37213e+06	-40939.1	1005.82	-29788.1	0.000000	0.000000	7.035152	-0.028887	NaN	0.000000	0.001678	0.001732	28.0832	0.087453	0.001943	45.0182	3.631280	-167.794	-0.000790	1.033847	-0.039093	-0.040408	-0.028887	45.0182	-0.038612	-0.041049	0.703713	NaN
723	1.000000	1.043170	7.37213e+06	-40939.1	1005.82	-29788.1	0.000000	0.000000	7.043169	0.198158	NaN	0.000000	0.001711	0.001710	28.0835	0.331420	0.002083	159.088	15.9385	-165.144	0.176507	1.041854	-0.031085	-0.032401	0.198158	159.088	-0.032019	-0.026240	-7.551816	NaN
723	1.000000	1.051160	7.37213e+06	-40939.1	1005.82	-29788.1	0.000000	0.000000	7.051192	0.984790	NaN	0.000000	0.001720	0.001679	28.0831	0.818319	0.002010	407.053	16.9853	-165.739	0.782217	1.049823	-0.023095	-0.024432	0.984790	407.053	-0.024909	-0.016779	-58.6936	NaN
723	1.000000	1.059183	7.37213e+06	-40939.1	1005.82	-29788.1	0.000000	0.000000	7.059208	0.829741	NaN	0.000000	0.001695	0.001691	28.0833	0.841224	0.002040	412.331	22.4268	-168.576	0.998117	1.057846	-0.015072	-0.016409	0.829741	412.331	-0.016581	-0.010245	-80.9903	NaN
723	1.000000	1.067189	7.37213e+06	-40939.1	1005.82	-29788.1	0.000000	0.000000	7.067211	0.754670	NaN	0.000000	0.001684	0.001687	28.0829	1.169438	0.002052	569.963	19.5585	-166.016	0.686618	1.065818	-0.007066	-0.008436	0.754670	569.963	-0.008059	-0.005266	-143.308	NaN
723	1.000000	1.075140	7.37213e+06	-40939.1	1005.82	-29788.1	0.000000	0.000000	7.075353	5.413976	NaN	0.000000	0.001689	0.001714	28.0831	6.061922	0.001697	3572.04	10.4365	-169.714	4.085493	1.073854	0.000885	-0.000400	5.413976	3572.04	-0.000252	-0.000187	-28909.8	NaN
723	2.000000	1.079739	7.37213e+06	-40939.1	1005.82	-29788.1	0.000000	0.000000	7.080133	9.797504	NaN	0.000000	0.001716	0.001706	28.0833	10.0494	0.001581	6356.9	6.239519	-172.923	9.542893	1.079402	0.005484	0.005148	9.797504	6356.9	0.004328	0.003528	2776.79	97776
723	2.000000	1.081664	7.37213e+06	-40939.1	1005.82	-29788.1	0.000000	0.000000	7.082191	13.0168	NaN	0.000000	0.001691	0.001698	28.083	11.6176	0.001662	6988.46	7.206746	-174.287	11.7922	1.081463	0.007410	0.007209	13.0168	6988.46	0.006013	0.005077	2564.06	89612.2
723	2.000000	1.083703	7.37213e+06	-40939.1	1005.82	-29788.1	0.000000	0.000000	7.084300	14.7428	NaN	0.000000	0.001644	0.001701	28.0837	14.7663	0.001824	8094.84	10.434	-178.523	14.7961	1.083400	0.009448	0.009145	14.7428	8094.84	0.008082	0.007127	2068.55	87604
723	2.000000	1.085661	7.37213e+06	-40939.1	1005.82	-29788.1	0.000000	0.000000	7.086422	18.7292	NaN	0.000000	0.001604	0.001725	28.083	16.6323	0.001770	9396.27	6.239082	-175.245	18.2608	1.085367	0.011406	0.011112	18.7292	9396.27	0.009911	0.009083	2062.09	90079
723	2.000000	1.087628	7.37213e+06	-40939.1	1005.82	-29788.1	0.000000	0.000000	7.088664	25.4055	NaN	0.000000	0.001623	0.001786	28.0829	18.9693	0.001741	10897.3	7.436403	-179.192	23.9035	1.087315	0.013374	0.013061	25.4055	10897.3	0.011625	0.011044	2300.35	94738.3
723	2.000000	1.089656	7.37213e+06	-40939.1	1005.82	-29788.1	0.000000	0.000000	7.090756	26.9866	NaN	0.000000	0.001629	0.001714	28.0832	21.4451	0.001790	11982.1	6.329690	-178.823	26.828	1.089350	0.015401	0.015095	26.9866	11982.1	0.013712	0.013606	1983.4	93850.9
723	2.000000	1.091608	7.37213e+06	-40939.1	1005.82	-29788.1	0.000000	0.000000	7.093063	35.6278	NaN	0.000000	0.001641	0.001695	28.083	22.8344	0.001792	12739.7	2.291842	-174.965	33.9273	1.091295	0.017353	0.017040	35.6278	12739.7	0.015256	0.015628	2279.78	93107.1
723	2.000000	1.093617	7.37213e+06	-40939.1	1005.82	-29788.1	0.000000	0.000000	7.095251	39.9711	NaN	0.000000	0.001636	0.001695	28.0824	25.224	0.001823	13833.3	5.085163	-178.007	39.4365	1.093305	0.019363	0.019050	39.9711	13833.3	0.017195	0.018325	2181.18	93362.3
723	2.000000	1.095667	7.37213e+06	-40939.1	1005.82	-29788.1	0.000000	0.000000	7.097464	43.942	NaN	0.000000	0.001622	0.001739	28.082	27.306	0.001829	14932.5	6.173830	-179.338	45.2605	1.095361	0.021413	0.021106	43.942	14932.5	0.019206	0.021309	2062.1	93458.9
723	2.000000	1.097582	7.37213e+06	-40939.1	1005.82	-29788.1	0.000000	0.000000	7.099589	49.037	NaN	0.000000	0.001682	0.001653	28.0819	27.9784	0.001716	16307.9	1.565666	-176.721	47.6165	1.097331	0.023327	0.023076	49.037	16307.9	0.021072	0.024255	2021.73	95668.9
723	2.000000	1.099578	7.37213e+06	-40939.1	1005.82	-29788.1	0.000000	0.000000	7.101878	56.1779	NaN	0.000000	0.001638	0.001691	28.0821	30.9309	0.001808	17112.2	1.157842	-177.318	53.4689	1.099307	0.025324	0.025053	56.1779	17112.2	0.022861	0.027240	2062.35	94727.9
723	2.000000	1.101646	7.37213e+06	-40939.1	1005.82	-29788.1	0.000000	0.000000	7.104268	64.0068	NaN	0.000000	0.001660	0.001654	28.0821	32.347	0.001862	17367.8	4.315941	-179.309	65.1464	1.101259	0.027391	0.027004	64.0068	17367.8	0.024627	0.030341	2109.57	91096.4
723	2.000000	1.103565	7.37213e+06	-40939.1	1005.82	-29788.1	0.000000	0.000000	7.106467	70.8271	NaN	0.000000	0.001667	0.001655	28.0838	34.2695	0.001716	19967	2.884742	179.856	68.8931	1.103292	0.029311	0.029037	70.8271	19967	0.026650	0.034086	2077.88	98809.1
723	2.000000	1.105606	7.37213e+06	-40939.1	1005.82	-29788.1	0.000000	0.000000	7.108808	78.118	NaN	0.000000	0.001648	0.001677	28.0821	36.5876	0.001835	19936.6	6.241882	177.857	76.2734	1.105273	0.031351	0.031019	78.118	19936.6	0.028412	0.037518	2082.17	94038.8
723	2.000000	1.107605	7.37213e+06	-40939.1	1005.82	-29788.1	0.000000	0.000000	7.111166	86.8661	NaN	0.000000	0.001636	0.001701	28.0819	37.8189	0.001826	20715	1.984565	-179.735	85.7903	1.107263	0.033350	0.033009	86.8661	20715	0.030205	0.041170	2109.95	93275.7
723	2.000000	1.109580	7.37213e+06	-40939.1	1005.82	-29788.1	0.000000	0.000000	7.113393	93.0081	NaN	0.000000	0.001602	0.001689	28.0821	40.2651	0.001733	23233.8	3.668836	177.108	90.186	1.109320	0.035325	0.035066	93.0081	23233.8	0.032323	0.045695	2035.39	99301.8
723	2.000000	1.111544	7.37213e+06	-40939.1	1005.82	-29788.1	0.000000	0.000000	7.115503	96.5485	NaN	0.000000	0.001665	0.001721	28.082	41.0667	0.001789	22949	0.365908	-179.471	93.9837	1.111386	0.037289	0.037132	96.5485	22949	0.034134	0.049749	1940.72	94004.1
723	2.000000	1.113630	7.37213e+06	-40939.1	1005.82	-29788.1	0.000000	0.000000	7.117937	105.005	NaN	0.000000	0.001663	0.001694	28.0827	45.4814	0.001872	24292.4	9.000643	172.41	106.328	1.113206	0.039375	0.038952	105.005	24292.4	0.036134	0.054418	1929.59	95141.6
723	2.000000	1.115610	7.37213e+06	-40939.1	1005.82	-29788.1	0.000000	0.000000	7.120357	115.73	NaN	0.000000	0.001680	0.001700	28.082	45.532	0.001850	24611	2.192942	179.549	117.901	1.115316	0.041355	0.041061	115.73	24611	0.037828	0.058537	1977.06	92937
723	2.000000	1.117618	7.37213e+06	-40939.1	1005.82	-29788.1	0.000000	0.000000	7.122621	121.947	NaN	0.000000	0.001703	0.001663	28.0819	46.8233	0.001759	26624.4	4.439021	176.703	123.502	1.117273	0.043363	0.043018	121.947	26624.4	0.039928	0.063843	1910.12	96271.5
723	2.000000	1.119592	7.37213e+06	-40939.1	1005.82	-29788.1	0.000000	0.000000	7.125062	133.321	NaN	0.000000	0.001679	0.001702	28.0819	49.0749	0.001738	28243.6	3.274405	177.145	131.933	1.119261	0.045337	0.045007	133.321	28243.6	0.041797	0.068754	1939.11	98411
723	2.000000	1.121580	7.37213e+06	-40939.1	1005.82	-29788.1	0.000000	0.000000	7.127475	143.638	NaN	0.000000	0.001679	0.001711	28.0819	49.6849	0.001656	29998.4	1.622432	178.716	142.723	1.121193	0.047326	0.046938	143.638	29998.4	0.043735	0.074036	1940.13	100728
723	2.000000	1.123585	7.37213e+06	-40939.1	1005.82	-29788.1	0.000000	0.000000	7.129754	150.321	NaN	0.000000	0.001657	0.001719	28.0823	52.6207	0.001863	28238.1	1.604361	178.319	150.884	1.123208	0.049331	0.048953	150.321	28238.1	0.045338	0.078550	1913.69	92052.4
723	2.000000	1.125613	7.37213e+06	-40939.1	1005.82	-29788.1	0.000000	0.000000	7.132301	162.969	NaN	0.000000	0.001615	0.001692	28.0819	55.4499	0.001801	30783.1	8.773451	170.679	166.107	1.125315	0.051358	0.051061	162.969	30783.1	0.047387	0.084509	1928.42	96746.3
723	2.000000	1.127547	7.37213e+06	-40939.1	1005.82	-29788.1	0.000000	0.000000	7.134659	173.275	NaN	0.000000	0.001600	0.001699	28.0832	55.3705	0.001794	30860.8	3.015031	176.122	170.504	1.127250	0.053292	0.052996	173.275	30860.8	0.049081	0.089594	1934	94197.9
723	2.000000	1.129624	7.37213e+06	-40939.1	1005.82	-29788.1	0.000000	0.000000	7.137008	179.9	NaN	0.000000	0.001669	0.001723	28.0831	57.9546	0.001792	32339.8	3.546374	175.689	179.667	1.129381	0.055369	0.055126	179.9	32339.8	0.051197	0.096149	1871.06	95288.1
723	2.000000	1.131522	7.37213e+06	-40939.1	1005.82	-29788.1	0.000000	0.000000	7.139610	196.999	NaN	0.000000	0.001678	0.001719	28.0832	58.9048	0.001800	32718	3.764328	174.999	194.055	1.131143	0.057268	0.056888	196.999	32718	0.052752	0.101108	1948.39	94008.4
723	2.000000	1.133596	7.37213e+06	-40939.1	1005.82	-29788.1	0.000000	0.000000	7.141763	198.936	NaN	0.000000	0.001675	0.001712	28.0832	61.7198	0.001847	33412	5.335882	173.241	199.698	1.133308	0.059342	0.059053	198.936	33412	0.054876	0.108079	1840.65	92855
723	2.000000	1.135577	7.37213e+06	-40939.1	1005.82	-29788.1	0.000000	0.000000	7.144285	212.12	NaN	0.000000	0.001649	0.001741	28.0831	63.4623	0.001800	35264.1	6.427027	171.926	210.815	1.135193	0.061322	0.060938	212.12	35264.1	0.056811	0.114621	1850.62	95164.5
723	2.000000	1.137539	7.37213e+06	-40939.1	1005.82	-29788.1	0.000000	0.000000	7.146930	228.724	NaN	0.000000	0.001648	0.001669	28.0834	64.7564	0.001704	38006.9	3.874550	173.357	225.828	1.137238	0.063284	0.062983	228.724	38006.9	0.058771	0.121437	1883.48	99646.2
723	2.000000	1.139520	7.37213e+06	-40939.1	1005.82	-29788.1	0.000000	0.000000	7.149515	243.436	NaN	0.000000	0.001679	0.001712	28.0831	66.7224	0.001715	38901.7	2.693860	174.34	239.857	1.139257	0.065265	0.065002	243.436	38901.7	0.060572	0.127867	1903.83	99394.7
723	2.000000	1.141609	7.37213e+06	-40939.1	1005.82	-29788.1	0.000000	0.000000	7.152135	256.346	NaN	0.000000	0.001689	0.001720	28.0831	67.855	0.001786	37986.3	4.869365	174.129	256.964	1.141063	0.067354	0.066808	256.346	37986.3	0.062293	0.134158	1910.77	94752.8
723	2.000000	1.143539	7.37213e+06	-40939.1	1005.82	-29788.1	0.000000	0.000000	7.154188	259.354	NaN	0.000000	0.001649	0.001710	28.083	70.4773	0.001831	38485.9	4.922459	171.633	258.547	1.143419	0.069284	0.069164	259.354	38485.9	0.064230	0.141411	1834.04	93504.7
723	2.000000	1.145543	7.37213e+06	-40939.1	1005.82	-29788.1	0.000000	0.000000	7.156913	276.872	NaN	0.000000	0.001640	0.001660	28.0831	73.6297	0.001814	40582.1	10.1174	166.543	272.511	1.145258	0.071288	0.071003	276.872	40582.1	0.066172	0.148864	1859.9	96097.7
723	2.000000	1.147625	7.37213e+06	-40939.1	1005.82	-29788.1	0.000000	0.000000	7.159528	289.848	NaN	0.000000	0.001597	0.001697	28.0833	73.661	0.001731	42550.9	2.558516	174.45	293.321	1.147235	0.073371	0.072980	289.848	42550.9	0.068262	0.157089	1845.12	98086.3
723	2.000000	1.149536	7.37213e+06	-40939.1	1005.82	-29788.1	0.000000	0.000000	7.161907	301.232	NaN	0.000000	0.001565	0.001710	28.0832	78.6522	0.001913	41110.8	5.599230	171.38	301.222	1.149392	0.075281	0.075137	301.232	41110.8	0.069785	0.163216	1845.6	92971
723	2.000000	1.151529	7.37213e+06	-40939.1	1005.82	-29788.1	0.000000	0.000000	7.164237	309.44	NaN	0.000000	0.001578	0.001713	28.0833	78.6622	0.001663	47310.5	8.311282	166.992	307.351	1.151342	0.077275	0.077088	309.44	47310.5	0.072369	0.173858	1779.84	103665
723	2.000000	1.153594	7.37213e+06	-40939.1	1005.82	-29788.1	0.000000	0.000000	7.167132	329.629	NaN	0.000000	0.001579	0.001721	28.0831	80.3109	0.001698	47293.7	3.584235	172.744	332.998	1.153276	0.079339	0.079021	329.629	47293.7	0.074112	0.181215	1819	101503
723	2.000000	1.155555	7.37213e+06	-40939.1	1005.82	-29788.1	0.000000	0.000000	7.169598	341.914	NaN	0.000000	0.001566	0.001739	28.0833	82.4506	0.001789	46075.8	4.019785	172.209	339.965	1.155270	0.081300	0.081016	341.914	46075.8	0.075735	0.188196	1816.8	97038
723	2.000000	1.157476	7.37213e+06	-40939.1	1005.82	-29788.1	0.000000	0.000000	7.171992	353.416	NaN	0.000000	0.001566	0.001709	28.0835	84.0689	0.001731	48561.4	1.934913	173.791	350.522	1.157210	0.083221	0.082955	353.416	48561.4	0.077763	0.197093	1793.14	99937.6
723	2.000000	1.159566	7.37213e+06	-40939.1	1005.82	-29788.1	0.000000	0.000000	7.174913	373.648	NaN	0.000000	0.001579	0.001722	28.0832	87.0571	0.001799	48401.7	2.074290	173.962	375.84	1.159271	0.085312	0.085017	373.648	48401.7	0.079522	0.204964	1823	97677.7
723	2.000000	1.161507	7.37213e+06	-40939.1	1005.82	-29788.1	0.000000	0.000000	7.177584	391.406	NaN	0.000000	0.001552	0.001665	28.0822	88.0644	0.001855	47464.4	3.188564	173.116	388.599	1.161212	0.087253	0.086957	391.406	47464.4	0.081068	0.212002	1846.24	94182.7
723	2.000000	1.163618	7.37213e+06	-40939.1	1005.82	-29788.1	0.000000	0.000000	7.179960	397.859	NaN	0.000000	0.001611	0.001735	28.0818	90.2788	0.001741	51849.7	5.355399	170.174	403.734	1.163226	0.089363	0.088971	397.859	51849.7	0.083608	0.223807	1777.69	100134
723	2.000000	1.165488	7.37213e+06	-40939.1	1005.82	-29788.1	0.000000	0.000000	7.182431	412.482	NaN	0.000000	0.001579	0.001687	28.0826	91.4348	0.001757	52051.2	0.037102	175.212	406.41	1.165228	0.091233	0.090973	412.482	52051.2	0.085290	0.231787	1779.57	98777.8
723	2.000000	1.167480	7.37213e+06	-40939.1	1005.82	-29788.1	0.000000	0.000000	7.184574	416.151	NaN	0.000000	0.001588	0.001682	28.082	94.0694	0.001789	52585.6	6.413533	167.964	412.521	1.167344	0.093226	0.093090	416.151	52585.6	0.087290	0.241449	1723.56	97775
723	2.000000	1.169532	7.37213e+06	-40939.1	1005.82	-29788.1	0.000000	0.000000	7.187972	448.926	NaN	0.000000	0.001598	0.001730	28.0819	96.0212	0.001745	55012.3	4.355774	170.294	449.208	1.169286	0.095277	0.095031	448.926	55012.3	0.089157	0.250628	1791.2	100396
723	2.000000	1.171552	7.37213e+06	-40939.1	1005.82	-29788.1	0.000000	0.000000	7.190490	461.029	NaN	0.000000	0.001603	0.001703	28.0823	96.5465	0.001748	55220	3.881739	171.095	461.414	1.171317	0.097297	0.097062	461.029	55220	0.091036	0.260032	1772.97	98936.3
723	2.000000	1.173550	7.37213e+06	-40939.1	1005.82	-29788.1	0.000000	0.000000	7.193206	478.514	NaN	0.000000	0.001595	0.001684	28.0819	99.7684	0.001781	56024.8	1.996735	172.705	478.937	1.173199	0.099295	0.098945	478.514	56024.8	0.092889	0.269468	1775.78	98605.2
723	2.000000	1.175529	7.37213e+06	-40939.1	1005.82	-29788.1	0.000000	0.000000	7.195893	495.732	NaN	0.000000	0.001631	0.001700	28.082	101.781	0.001751	58138	4.541985	170.316	493.581	1.175221	0.101275	0.100966	495.732	58138	0.094879	0.279774	1771.9	100422
723	2.000000	1.176988	7.37213e+06	-40939.1	1005.82	-29788.1	0.000000	0.000000	7.197888	508.773	NaN	0.000000	0.001611	0.001725	28.082	103.419	0.001780	58101.3	2.901698	-8.187954	504.685	1.176538	0.102733	0.102283	508.773	58101.3	0.096165	0.286529	1775.64	99168.8