File: remote_trans/data/nanoindenter/0828-1/data/Data_2025-08-06,11h17m57s/2025-07-22_16-23-58_1_597.txt
2025-07-22, 16:23:58, 1
Index	Phase	Displacement	Time	Pos X	Pos Y	Pos Z	Rot A	Rot B	Piezo Z	Force A	Force B	Gripper	Voltage A	Voltage B	Temperature	Amplitude force	Amplitude pos	Stiffness	Phase shift	Phase excitation	Force A raw	Displacement raw	HMax	HMax raw	Real Force	Real Stiffness	Contact Depth	Area	Hardness	Reduced Mod.
[#]	[#]	[um]	[s]	[um]	[um]	[um]	[m°]	[m°]	[um]	[uN]	[uN]	[V]	[V]	[V]	[°C]	[uN]	[um]	[N/m]	[°]	[°]	[uN]	[um]	[um]	[um]	[uN]	[N/m]	[um]	[um^2]	[MPa]	[MPa]
597	1.000000	0.002382	7.37089e+06	-47239.1	1005.82	-29766.6	0.000000	0.000000	6.002816	-0.064040	NaN	0.000000	0.001489	0.001711	28.0815	0.050655	0.000958	52.8898	60.3768	-169.719	-0.063599	0.001119	-1.126334	-1.127597	-0.064040	52.8898	-1.125426	-1.099686E+15	5.823473E-17	NaN
597	1.000000	0.012433	7.37089e+06	-47239.1	1005.82	-29766.6	0.000000	0.000000	6.012872	0.034647	NaN	0.000000	0.001507	0.001725	28.0815	0.057637	0.001285	44.8541	-2.711341	19.739	0.020910	0.010987	-1.116283	-1.117729	0.034647	44.8541	-1.116862	-8.440491E+14	-4.104884E-17	NaN
597	1.000000	0.022333	7.37089e+06	-47239.1	1005.82	-29766.6	0.000000	0.000000	6.022772	0.028481	NaN	0.000000	0.001470	0.001731	28.0801	0.061185	0.001704	35.9072	139.826	-166.258	0.037621	0.021018	-1.106383	-1.107698	0.028481	35.9072	-1.106978	-6.219045E+14	-4.579682E-17	NaN
597	1.000000	0.032324	7.37089e+06	-47239.1	1005.82	-29766.6	0.000000	0.000000	6.032761	-0.001185	NaN	0.000000	0.001455	0.001742	28.0802	0.069377	0.001811	38.2994	114.269	13.3854	-0.030391	0.030951	-1.096392	-1.097765	-0.001185	38.2994	-1.096369	-4.480404E+14	2.644785E-18	NaN
597	1.000000	0.042304	7.37089e+06	-47239.1	1005.82	-29766.6	0.000000	0.000000	6.042738	-0.063084	NaN	0.000000	0.001449	0.001776	28.0804	0.051706	0.001985	26.0506	14.8614	-165.172	-0.071724	0.040997	-1.086412	-1.087719	-0.063084	26.0506	-1.084596	-3.113475E+14	2.026162E-16	NaN
597	1.000000	0.052314	7.37089e+06	-47239.1	1005.82	-29766.6	0.000000	0.000000	6.052751	-0.028045	NaN	0.000000	0.001514	0.001704	28.0803	0.066299	0.001957	33.8697	99.4704	14.1989	0.007621	0.051005	-1.076401	-1.077710	-0.028045	33.8697	-1.075780	-2.370517E+14	1.183061E-16	NaN
597	1.000000	0.062299	7.37089e+06	-47239.1	1005.82	-29766.6	0.000000	0.000000	6.062737	0.011545	NaN	0.000000	0.001487	0.001730	28.0801	0.122354	0.001964	62.3077	37.5265	-166.672	-0.001221	0.060977	-1.066417	-1.067738	0.011545	62.3077	-1.066556	-1.782030E+14	-6.478726E-17	NaN
597	1.000000	0.072308	7.37089e+06	-47239.1	1005.82	-29766.6	0.000000	0.000000	6.072743	-0.048600	NaN	0.000000	0.001521	0.001704	28.0803	0.101809	0.001951	52.1848	58.3109	19.1019	-0.042264	0.070925	-1.056408	-1.057791	-0.048600	52.1848	-1.055710	-1.273976E+14	3.814851E-16	NaN
597	1.000000	0.082298	7.37089e+06	-47239.1	1005.82	-29766.6	0.000000	0.000000	6.082737	0.041414	NaN	0.000000	0.001492	0.001763	28.0803	0.021543	0.001923	11.2031	138.047	-161.08	0.040246	0.080967	-1.046418	-1.047749	0.041414	11.2031	-1.049190	-1.041191E+14	-3.977546E-16	NaN
597	1.000000	0.092329	7.37089e+06	-47239.1	1005.82	-29766.6	0.000000	0.000000	6.092767	0.005924	NaN	0.000000	0.001505	0.001717	28.0802	0.036400	0.001962	18.5563	143.655	18.0275	-0.087179	0.090950	-1.036387	-1.037766	0.005924	18.5563	-1.036626	-7.056645E+13	-8.395136E-17	NaN
597	1.000000	0.102341	7.37089e+06	-47239.1	1005.82	-29766.6	0.000000	0.000000	6.102779	0.020833	NaN	0.000000	0.001511	0.001683	28.0803	0.069165	0.001884	36.72	47.8642	-163.598	0.060368	0.101007	-1.026375	-1.027709	0.020833	36.72	-1.026800	-5.205223E+13	-4.002349E-16	NaN
597	1.000000	0.112329	7.37089e+06	-47239.1	1005.82	-29766.6	0.000000	0.000000	6.112768	0.028928	NaN	0.000000	0.001530	0.001708	28.0803	0.069312	0.001974	35.1207	121.508	15.3122	0.040975	0.110960	-1.016387	-1.017756	0.028928	35.1207	-1.017004	-3.842768E+13	-7.527795E-16	NaN
597	1.000000	0.122351	7.37089e+06	-47239.1	1005.82	-29766.6	0.000000	0.000000	6.122790	0.029539	NaN	0.000000	0.001539	0.001698	28.0802	0.072462	0.001903	38.084	-7.859042	-166.66	-0.005366	0.121005	-1.006365	-1.007711	0.029539	38.084	-1.006947	-2.813738E+13	-1.049820E-15	NaN
597	1.000000	0.132350	7.37089e+06	-47239.1	1005.82	-29766.6	0.000000	0.000000	6.132787	0.011126	NaN	0.000000	0.001546	0.001662	28.0801	0.079803	0.001972	40.4703	168.163	15.3742	-0.016044	0.130971	-0.996366	-0.997745	0.011126	40.4703	-0.996572	-2.039945E+13	-5.454033E-16	NaN
597	1.000000	0.142379	7.37089e+06	-47239.1	1005.82	-29766.6	0.000000	0.000000	6.142817	0.014507	NaN	0.000000	0.001549	0.001681	28.0804	0.064090	0.001961	32.682	-131.237	-165.781	0.097140	0.141070	-0.986337	-0.987646	0.014507	32.682	-0.986670	-1.500575E+13	-9.667702E-16	NaN
597	1.000000	0.152343	7.37089e+06	-47239.1	1005.82	-29766.6	0.000000	0.000000	6.152776	-0.093326	NaN	0.000000	0.001528	0.001715	28.0804	0.130511	0.002028	64.3464	84.3763	12.9945	-0.075429	0.150987	-0.976373	-0.977729	-0.093326	64.3464	-0.975286	-1.054119E+13	8.853424E-15	NaN
597	1.000000	0.162385	7.37089e+06	-47239.1	1005.82	-29766.6	0.000000	0.000000	6.162823	0.012072	NaN	0.000000	0.001519	0.001662	28.0817	0.052672	0.001965	26.811	-130.859	-167.701	0.008379	0.161072	-0.966331	-0.967644	0.012072	26.811	-0.966668	-8.067859E+12	-1.496316E-15	NaN
597	1.000000	0.172352	7.37089e+06	-47239.1	1005.82	-29766.6	0.000000	0.000000	6.172789	0.010135	NaN	0.000000	0.001550	0.001709	28.0816	0.069762	0.001952	35.7355	-60.7802	15.5665	-0.003462	0.170998	-0.956364	-0.957718	0.010135	35.7355	-0.956577	-5.898174E+12	-1.718301E-15	NaN
597	1.000000	0.182382	7.37089e+06	-47239.1	1005.82	-29766.6	0.000000	0.000000	6.182821	0.031173	NaN	0.000000	0.001575	0.001690	28.0817	0.039737	0.001975	20.1233	-124.958	-167.47	-0.000851	0.181075	-0.946333	-0.947641	0.031173	20.1233	-0.947495	-4.448832E+12	-7.007051E-15	NaN
597	1.000000	0.192364	7.37089e+06	-47239.1	1005.82	-29766.6	0.000000	0.000000	6.192804	0.063349	NaN	0.000000	0.001553	0.001675	28.0818	0.064366	0.002008	32.0511	122.696	15.0268	-0.007654	0.191021	-0.936352	-0.937695	0.063349	32.0511	-0.937834	-3.295457E+12	-1.922326E-14	NaN
597	1.000000	0.202370	7.37089e+06	-47239.1	1005.82	-29766.6	0.000000	0.000000	6.202807	-0.015332	NaN	0.000000	0.001567	0.001658	28.0822	0.053056	0.001990	26.6663	7.250069	-167.209	0.029130	0.201078	-0.926346	-0.927638	-0.015332	26.6663	-0.925915	-2.275377E+12	6.738422E-15	NaN
597	1.000000	0.212384	7.37089e+06	-47239.1	1005.82	-29766.6	0.000000	0.000000	6.212825	0.083389	NaN	0.000000	0.001544	0.001683	28.0818	0.095800	0.001924	49.7877	114.291	14.0347	0.089425	0.210995	-0.916331	-0.917721	0.083389	49.7877	-0.917588	-1.756442E+12	-4.747585E-14	NaN
597	1.000000	0.222371	7.37089e+06	-47239.1	1005.82	-29766.6	0.000000	0.000000	6.222808	-0.002790	NaN	0.000000	0.001512	0.001723	28.0824	0.125477	0.002019	62.1493	-35.4489	-169.979	0.031563	0.221075	-0.906345	-0.907641	-0.002790	62.1493	-0.906311	-1.236900E+12	2.255988E-15	NaN
597	1.000000	0.232391	7.37089e+06	-47239.1	1005.82	-29766.6	0.000000	0.000000	6.232830	0.041388	NaN	0.000000	0.001529	0.001712	28.0817	0.114276	0.002041	55.9992	-100.797	13.6476	0.036145	0.231057	-0.896325	-0.897659	0.041388	55.9992	-0.896879	-9.223467E+11	-4.487248E-14	NaN
597	1.000000	0.242382	7.37089e+06	-47239.1	1005.82	-29766.6	0.000000	0.000000	6.242820	0.009580	NaN	0.000000	0.001539	0.001710	28.0821	0.093006	0.002090	44.5089	125.789	-162.92	-0.023541	0.241023	-0.886334	-0.887693	0.009580	44.5089	-0.886495	-6.676309E+11	-1.434889E-14	NaN
597	1.000000	0.252384	7.37089e+06	-47239.1	1005.82	-29766.6	0.000000	0.000000	6.252819	-0.069353	NaN	0.000000	0.001527	0.001664	28.0816	0.045615	0.002070	22.0368	47.8233	13.7126	-0.053926	0.251047	-0.876332	-0.877669	-0.069353	22.0368	-0.873971	-4.520306E+11	1.534264E-13	NaN
597	1.000000	0.262388	7.37089e+06	-47239.1	1005.82	-29766.6	0.000000	0.000000	6.262828	0.051997	NaN	0.000000	0.001529	0.001690	28.0821	0.107683	0.002141	50.2986	-66.9725	-164.083	0.013112	0.261089	-0.866328	-0.867627	0.051997	50.2986	-0.867103	-3.649599E+11	-1.424735E-13	NaN
597	1.000000	0.272424	7.37089e+06	-47239.1	1005.82	-29766.6	0.000000	0.000000	6.272858	-0.084982	NaN	0.000000	0.001509	0.001680	28.0815	0.084208	0.001963	42.8977	-74.7524	18.6329	-0.057242	0.271101	-0.856292	-0.857615	-0.084982	42.8977	-0.854806	-2.487787E+11	3.415984E-13	NaN
597	1.000000	0.282379	7.37089e+06	-47239.1	1005.82	-29766.6	0.000000	0.000000	6.282818	0.018830	NaN	0.000000	0.001498	0.001700	28.0817	0.032366	0.002113	15.3205	47.4407	-163.408	-0.013871	0.281108	-0.846336	-0.847608	0.018830	15.3205	-0.847258	-1.966110E+11	-9.577493E-14	NaN
597	1.000000	0.292403	7.37089e+06	-47239.1	1005.82	-29766.6	0.000000	0.000000	6.292841	0.004916	NaN	0.000000	0.001493	0.001702	28.0802	0.119637	0.001947	61.4612	179.455	15.0893	0.043655	0.291046	-0.836313	-0.837670	0.004916	61.4612	-0.836373	-1.400058E+11	-3.511028E-14	NaN
597	1.000000	0.302410	7.37089e+06	-47239.1	1005.82	-29766.6	0.000000	0.000000	6.302848	0.004208	NaN	0.000000	0.001532	0.001697	28.0803	0.091917	0.002016	45.5921	133.789	-164.025	0.021791	0.301183	-0.826306	-0.827533	0.004208	45.5921	-0.826375	-1.024816E+11	-4.106454E-14	NaN
597	1.000000	0.312417	7.37089e+06	-47239.1	1005.82	-29766.6	0.000000	0.000000	6.312851	-0.077860	NaN	0.000000	0.001522	0.001722	28.08	0.100920	0.002010	50.2034	55.9377	13.8506	0.061773	0.311021	-0.816299	-0.817695	-0.077860	50.2034	-0.815135	-7.215003E+10	1.079135E-12	NaN
597	1.000000	0.322414	7.37089e+06	-47239.1	1005.82	-29766.6	0.000000	0.000000	6.322850	-0.018854	NaN	0.000000	0.001551	0.001684	28.0802	0.084228	0.002023	41.6382	163.905	-162.213	-0.054580	0.321108	-0.806302	-0.807608	-0.018854	41.6382	-0.805962	-5.417336E+10	3.480254E-13	NaN
597	1.000000	0.332429	7.37089e+06	-47239.1	1005.82	-29766.6	0.000000	0.000000	6.332868	0.031543	NaN	0.000000	0.001569	0.001691	28.0803	0.067550	0.001942	34.785	89.9715	16.2428	0.073444	0.331077	-0.796287	-0.797639	0.031543	34.785	-0.796967	-4.089664E+10	-7.712796E-13	NaN
597	1.000000	0.342433	7.37089e+06	-47239.1	1005.82	-29766.6	0.000000	0.000000	6.342868	-0.044439	NaN	0.000000	0.001524	0.001723	28.08	0.066183	0.001970	33.5954	128.697	-169.171	-0.009438	0.341161	-0.786283	-0.787555	-0.044439	33.5954	-0.785291	-2.838720E+10	1.565461E-12	NaN
597	1.000000	0.352436	7.37089e+06	-47239.1	1005.82	-29766.6	0.000000	0.000000	6.352870	-0.078111	NaN	0.000000	0.001555	0.001705	28.0801	0.049723	0.002044	24.3263	172.483	15.4818	-0.025951	0.351080	-0.776280	-0.777636	-0.078111	24.3263	-0.773872	-1.985834E+10	3.933418E-12	NaN
597	1.000000	0.362464	7.37089e+06	-47239.1	1005.82	-29766.6	0.000000	0.000000	6.362901	-0.009983	NaN	0.000000	0.001529	0.001682	28.0801	0.034280	0.001888	18.1556	179.578	-164.905	-0.022993	0.361121	-0.766252	-0.767595	-0.009983	18.1556	-0.765839	-1.544290E+10	6.464249E-13	NaN
597	1.000000	0.372464	7.37089e+06	-47239.1	1005.82	-29766.6	0.000000	0.000000	6.372903	0.057518	NaN	0.000000	0.001519	0.001695	28.0803	0.050116	0.001994	25.1292	171.072	13.247	0.018783	0.371126	-0.756252	-0.757590	0.057518	25.1292	-0.757969	-1.206892E+10	-4.765825E-12	NaN
597	1.000000	0.382409	7.37089e+06	-47239.1	1005.82	-29766.6	0.000000	0.000000	6.382847	0.007322	NaN	0.000000	0.001529	0.001702	28.0802	0.031893	0.001909	16.7096	-84.1929	-164.632	-0.081816	0.381148	-0.746306	-0.747568	0.007322	16.7096	-0.746635	-8.460797E+9	-8.653684E-13	NaN
597	1.000000	0.392461	7.37089e+06	-47239.1	1005.82	-29766.6	0.000000	0.000000	6.392899	0.010916	NaN	0.000000	0.001516	0.001716	28.0801	0.138221	0.001981	69.7861	75.5918	17.4948	0.103457	0.391149	-0.736254	-0.737566	0.010916	69.7861	-0.736372	-6.132410E+9	-1.780100E-12	NaN
597	1.000000	0.402472	7.37089e+06	-47239.1	1005.82	-29766.6	0.000000	0.000000	6.402909	-0.011191	NaN	0.000000	0.001553	0.001680	28.0802	0.075685	0.001946	38.8915	-152.355	-166.667	-0.016725	0.401166	-0.726244	-0.727550	-0.011191	38.8915	-0.726028	-4.432712E+9	2.524699E-12	NaN
597	1.000000	0.412491	7.37089e+06	-47239.1	1005.82	-29766.6	0.000000	0.000000	6.412929	0.020096	NaN	0.000000	0.001549	0.001729	28.08	0.052586	0.001898	27.7022	-51.1861	14.2657	0.016747	0.411089	-0.716225	-0.717627	0.020096	27.7022	-0.716769	-3.314371E+9	-6.063300E-12	NaN
597	1.000000	0.422476	7.37089e+06	-47239.1	1005.82	-29766.6	0.000000	0.000000	6.422915	0.026504	NaN	0.000000	0.001508	0.001700	28.0799	0.025937	0.001876	13.8262	12.1136	-164.962	-0.055470	0.421164	-0.706239	-0.707552	0.026504	13.8262	-0.707677	-2.490836E+9	-1.064042E-11	NaN
597	1.000000	0.432449	7.37089e+06	-47239.1	1005.82	-29766.6	0.000000	0.000000	6.432886	0.010729	NaN	0.000000	0.001500	0.001702	28.0813	0.128486	0.002012	63.852	102.213	17.9044	0.007135	0.431118	-0.696267	-0.697597	0.010729	63.852	-0.696393	-1.746905E+9	-6.142003E-12	NaN
597	1.000000	0.442483	7.37089e+06	-47239.1	1005.82	-29766.6	0.000000	0.000000	6.442922	0.061958	NaN	0.000000	0.001498	0.001669	28.0814	0.043224	0.001853	23.3326	113.067	-168.374	0.095444	0.441260	-0.686233	-0.687455	0.061958	23.3326	-0.688225	-1.351004E+9	-4.586072E-11	NaN
597	1.000000	0.452483	7.37089e+06	-47239.1	1005.82	-29766.6	0.000000	0.000000	6.452921	0.008518	NaN	0.000000	0.001554	0.001695	28.0816	0.036964	0.001992	18.5533	108.779	14.5183	0.006675	0.451137	-0.676233	-0.677579	0.008518	18.5533	-0.676577	-9.362310E+8	-9.097668E-12	NaN
597	1.000000	0.462460	7.37089e+06	-47239.1	1005.82	-29766.6	0.000000	0.000000	6.462894	-0.082514	NaN	0.000000	0.001532	0.001678	28.0814	0.078521	0.002021	38.8456	-69.9814	-168.226	-0.074603	0.461193	-0.666255	-0.667523	-0.082514	38.8456	-0.664662	-6.431599E+8	1.282942E-10	NaN
597	1.000000	0.472497	7.37089e+06	-47239.1	1005.82	-29766.6	0.000000	0.000000	6.472930	-0.113213	NaN	0.000000	0.001532	0.001732	28.0816	0.069705	0.001948	35.7816	-161.89	15.4188	-0.090053	0.471160	-0.656219	-0.657556	-0.113213	35.7816	-0.653846	-4.572442E+8	2.475981E-10	NaN
597	1.000000	0.482466	7.37089e+06	-47239.1	1005.82	-29766.6	0.000000	0.000000	6.482902	-0.028154	NaN	0.000000	0.001533	0.001731	28.0814	0.020944	0.001978	10.5895	68.9922	-165.246	-0.063672	0.481207	-0.646250	-0.647509	-0.028154	10.5895	-0.644256	-3.378122E+8	8.334285E-11	NaN
597	1.000000	0.492479	7.37089e+06	-47239.1	1005.82	-29766.6	0.000000	0.000000	6.492916	-0.011931	NaN	0.000000	0.001549	0.001708	28.0817	0.038309	0.002005	19.1045	108.789	14.7435	0.080034	0.491151	-0.636237	-0.637564	-0.011931	19.1045	-0.635769	-2.583577E+8	4.618035E-11	NaN
597	1.000000	0.502490	7.37089e+06	-47239.1	1005.82	-29766.6	0.000000	0.000000	6.502927	-0.022993	NaN	0.000000	0.001539	0.001708	28.0814	0.137469	0.002090	65.778	-111.778	-163.467	-0.031199	0.501222	-0.626225	-0.627494	-0.022993	65.778	-0.625963	-1.894864E+8	1.213433E-10	NaN
597	1.000000	0.512511	7.37089e+06	-47239.1	1005.82	-29766.6	0.000000	0.000000	6.512949	0.021581	NaN	0.000000	0.001576	0.001745	28.0815	0.061614	0.002009	30.6762	86.3647	12.3277	0.016658	0.511121	-0.616205	-0.617595	0.021581	30.6762	-0.616732	-1.414854E+8	-1.525342E-10	NaN
597	1.000000	0.522511	7.37089e+06	-47239.1	1005.82	-29766.6	0.000000	0.000000	6.522949	-0.002969	NaN	0.000000	0.001552	0.001726	28.0815	0.084751	0.001947	43.5271	114.695	-162.077	0.004476	0.521217	-0.606205	-0.607499	-0.002969	43.5271	-0.606153	-1.012000E+8	2.933703E-11	NaN
597	1.000000	0.532506	7.37089e+06	-47239.1	1005.82	-29766.6	0.000000	0.000000	6.532942	-0.024664	NaN	0.000000	0.001539	0.001709	28.082	0.039139	0.002017	19.4049	65.6724	13.8706	-0.009880	0.531102	-0.596210	-0.597614	-0.024664	19.4049	-0.595257	-7.163420E+7	3.443053E-10	NaN
597	1.000000	0.542534	7.37089e+06	-47239.1	1005.82	-29766.6	0.000000	0.000000	6.542970	-0.028398	NaN	0.000000	0.001540	0.001741	28.0813	0.045728	0.002179	20.9875	66.3088	-166.945	-0.049266	0.541216	-0.586182	-0.587500	-0.028398	20.9875	-0.585167	-5.200227E+7	5.460893E-10	NaN
597	1.000000	0.552496	7.37089e+06	-47239.1	1005.82	-29766.6	0.000000	0.000000	6.552934	0.011178	NaN	0.000000	0.001504	0.001728	28.0819	0.077375	0.002021	38.2884	-124.087	15.1387	0.024638	0.551199	-0.576220	-0.577517	0.011178	38.2884	-0.576439	-3.940635E+7	-2.836678E-10	NaN
597	1.000000	0.562542	7.37089e+06	-47239.1	1005.82	-29766.6	0.000000	0.000000	6.562978	-0.033041	NaN	0.000000	0.001531	0.001736	28.0817	0.049683	0.001840	27.0013	170.137	-167.228	0.005702	0.561253	-0.566174	-0.567462	-0.033041	27.0013	-0.565256	-2.761008E+7	1.196711E-9	NaN
597	1.000000	0.572540	7.37089e+06	-47239.1	1005.82	-29766.6	0.000000	0.000000	6.572976	-0.029814	NaN	0.000000	0.001486	0.001816	28.0805	0.057825	0.002010	28.7624	65.2361	13.7037	0.004631	0.571159	-0.556176	-0.557556	-0.029814	28.7624	-0.555399	-2.017011E+7	1.478152E-9	NaN
597	1.000000	0.582522	7.37089e+06	-47239.1	1005.82	-29766.6	0.000000	0.000000	6.582960	0.014539	NaN	0.000000	0.001501	0.001809	28.08	0.046229	0.002068	22.359	-96.6664	-163.532	0.027890	0.581203	-0.546194	-0.547513	0.014539	22.359	-0.546682	-1.527520E+7	-9.518327E-10	NaN
597	1.000000	0.592547	7.37089e+06	-47239.1	1005.82	-29766.6	0.000000	0.000000	6.592982	-0.052604	NaN	0.000000	0.001543	0.001792	28.0801	0.034216	0.001837	18.6246	-170.869	15.3828	-0.018658	0.591129	-0.536169	-0.537587	-0.052604	18.6246	-0.534051	-1.020500E+7	5.154766E-9	NaN
597	1.000000	0.602579	7.37089e+06	-47239.1	1005.82	-29766.6	0.000000	0.000000	6.603016	-0.005480	NaN	0.000000	0.001525	0.001767	28.0799	0.049197	0.001944	25.3109	124.184	-164.733	0.024283	0.601213	-0.526137	-0.527502	-0.005480	25.3109	-0.525975	-7.88241e+06	6.951617E-10	NaN
597	1.000000	0.612529	7.37089e+06	-47239.1	1005.82	-29766.6	0.000000	0.000000	6.612967	0.030900	NaN	0.000000	0.001506	0.001794	28.08	0.039119	0.002030	19.2667	103.075	16.3703	0.018035	0.611170	-0.516187	-0.517545	0.030900	19.2667	-0.517390	-5.98812e+06	-5.160258E-9	NaN
597	1.000000	0.622567	7.37089e+06	-47239.1	1005.82	-29766.6	0.000000	0.000000	6.623001	-0.084338	NaN	0.000000	0.001508	0.001819	28.0801	0.016154	0.002056	7.857079	-121.105	-165.985	-0.044526	0.621269	-0.506149	-0.507447	-0.084338	7.857079	-0.498098	-3.22465e+06	2.615400E-8	NaN
597	1.000000	0.632555	7.37089e+06	-47239.1	1005.82	-29766.6	0.000000	0.000000	6.632995	0.047590	NaN	0.000000	0.001524	0.001824	28.0801	0.096354	0.001931	49.8885	67.3134	14.1425	0.010624	0.631187	-0.496161	-0.497529	0.047590	49.8885	-0.496876	-3.10045e+06	-1.534933E-8	NaN
597	1.000000	0.642563	7.37089e+06	-47239.1	1005.82	-29766.6	0.000000	0.000000	6.643000	-0.016430	NaN	0.000000	0.001542	0.001803	28.0801	0.046749	0.002031	23.0184	165.731	-161.381	-0.029619	0.641191	-0.486153	-0.487525	-0.016430	23.0184	-0.485618	-2.15839e+06	7.612241E-9	NaN
597	1.000000	0.652571	7.37089e+06	-47239.1	1005.82	-29766.6	0.000000	0.000000	6.653010	0.031449	NaN	0.000000	0.001515	0.001818	28.0799	0.042152	0.002049	20.568	73.1671	14.3967	0.041317	0.651209	-0.476145	-0.477507	0.031449	20.568	-0.477291	-1.65045e+06	-1.905462E-8	NaN
597	1.000000	0.662533	7.37089e+06	-47239.1	1005.82	-29766.6	0.000000	0.000000	6.662973	0.061494	NaN	0.000000	0.001505	0.001784	28.08	0.015153	0.001889	8.022665	131.959	-165.403	0.079034	0.661290	-0.466183	-0.467426	0.061494	8.022665	-0.471932	-1.38834e+06	-4.429288E-8	NaN
597	1.000000	0.672548	7.37089e+06	-47239.1	1005.82	-29766.6	0.000000	0.000000	6.672985	-0.006919	NaN	0.000000	0.001528	0.001832	28.08	0.181225	0.001936	93.599	52.9771	14.7709	-0.012561	0.671186	-0.456168	-0.457530	-0.006919	93.599	-0.456112	-832461	8.311617E-9	NaN
597	1.000000	0.682587	7.37089e+06	-47239.1	1005.82	-29766.6	0.000000	0.000000	6.683024	0.011269	NaN	0.000000	0.001526	0.001839	28.0796	0.099793	0.001980	50.4115	157.471	-160.002	0.047547	0.681240	-0.446129	-0.447476	0.011269	50.4115	-0.446297	-605583	-1.860815E-8	NaN
597	1.000000	0.692576	7.37089e+06	-47239.1	1005.82	-29766.6	0.000000	0.000000	6.693011	-0.050418	NaN	0.000000	0.001549	0.001802	28.08	0.044900	0.002027	22.1543	-94.9598	14.3108	-0.017926	0.691194	-0.436140	-0.437522	-0.050418	22.1543	-0.434433	-411853	1.224178E-7	NaN
597	1.000000	0.702589	7.37089e+06	-47239.1	1005.82	-29766.6	0.000000	0.000000	6.703027	0.016604	NaN	0.000000	0.001553	0.001796	28.0819	0.018473	0.002054	8.995254	-39.3066	-165.637	-0.063846	0.701285	-0.426127	-0.427431	0.016604	8.995254	-0.427511	-328729	-5.050854E-8	NaN
597	1.000000	0.712572	7.37089e+06	-47239.1	1005.82	-29766.6	0.000000	0.000000	6.713009	-0.021597	NaN	0.000000	0.001537	0.001822	28.0812	0.030066	0.001912	15.7229	139.626	9.039024	-0.048725	0.711227	-0.416143	-0.417489	-0.021597	15.7229	-0.415113	-219313	9.847530E-8	NaN
597	1.000000	0.722575	7.37089e+06	-47239.1	1005.82	-29766.6	0.000000	0.000000	6.723012	-0.003119	NaN	0.000000	0.001545	0.001820	28.0812	0.076587	0.002064	37.1036	-43.3025	-160.46	0.021218	0.721333	-0.406141	-0.407383	-0.003119	37.1036	-0.406078	-163154	1.911991E-8	NaN
597	1.000000	0.732605	7.37089e+06	-47239.1	1005.82	-29766.6	0.000000	0.000000	6.733043	0.004275	NaN	0.000000	0.001585	0.001852	28.0811	0.055125	0.001903	28.9672	-158.573	14.9781	-0.029907	0.731239	-0.396111	-0.397477	0.004275	28.9672	-0.396222	-118053	-3.621013E-8	NaN
597	1.000000	0.742613	7.37089e+06	-47239.1	1005.82	-29766.6	0.000000	0.000000	6.743048	-0.047974	NaN	0.000000	0.001558	0.001806	28.0815	0.121444	0.002021	60.0904	175.652	-159.415	-0.104937	0.741298	-0.386103	-0.387418	-0.047974	60.0904	-0.385504	-82948.8	5.783570E-7	NaN
597	1.000000	0.752612	7.37089e+06	-47239.1	1005.82	-29766.6	0.000000	0.000000	6.753048	-0.028680	NaN	0.000000	0.001538	0.001842	28.081	0.020538	0.002053	10.0057	52.7646	15.6836	-0.028053	0.751249	-0.376104	-0.377466	-0.028680	10.0057	-0.373955	-56629	5.064549E-7	NaN
597	1.000000	0.762619	7.37089e+06	-47239.1	1005.82	-29766.6	0.000000	0.000000	6.763056	-0.004181	NaN	0.000000	0.001571	0.001843	28.0813	0.023602	0.002098	11.2499	-3.364119	-166.139	0.057789	0.761297	-0.366097	-0.367419	-0.004181	11.2499	-0.365818	-43237.2	9.669957E-8	NaN
597	1.000000	0.772592	7.37089e+06	-47239.1	1005.82	-29766.6	0.000000	0.000000	6.773029	-0.011216	NaN	0.000000	0.001565	0.001855	28.0812	0.035443	0.002047	17.3141	102.028	14.227	0.017962	0.771248	-0.356123	-0.357468	-0.011216	17.3141	-0.355638	-30812.7	3.639902E-7	NaN
597	1.000000	0.782600	7.37089e+06	-47239.1	1005.82	-29766.6	0.000000	0.000000	6.783036	-0.029507	NaN	0.000000	0.001552	0.001812	28.0811	0.088962	0.001967	45.2284	-148.203	-162.027	-0.007301	0.781314	-0.346116	-0.347401	-0.029507	45.2284	-0.345626	-22053	1.337996E-6	NaN
597	1.000000	0.792607	7.37089e+06	-47239.1	1005.82	-29766.6	0.000000	0.000000	6.793046	0.025827	NaN	0.000000	0.001574	0.001829	28.0809	0.065865	0.002110	31.2115	157.92	15.5508	0.002761	0.791262	-0.336109	-0.337453	0.025827	31.2115	-0.336729	-16362.2	-1.578480E-6	NaN
597	1.000000	0.802621	7.37089e+06	-47239.1	1005.82	-29766.6	0.000000	0.000000	6.803059	0.014981	NaN	0.000000	0.001527	0.001829	28.0812	0.096584	0.001988	48.5921	123.906	-164.562	-0.060553	0.801343	-0.326095	-0.327373	0.014981	48.5921	-0.326326	-11524	-1.299955E-6	NaN
597	1.000000	0.812596	7.37089e+06	-47239.1	1005.82	-29766.6	0.000000	0.000000	6.813035	0.033059	NaN	0.000000	0.001529	0.001839	28.0813	0.053604	0.001863	28.7752	-123.31	13.1963	-0.001865	0.811235	-0.316120	-0.317480	0.033059	28.7752	-0.316982	-8398.01	-3.936520E-6	NaN
597	1.000000	0.822603	7.37089e+06	-47239.1	1005.82	-29766.6	0.000000	0.000000	6.823040	-0.007384	NaN	0.000000	0.001478	0.001839	28.0812	0.096142	0.001972	48.7562	172.551	-166.914	0.048711	0.821359	-0.306113	-0.307357	-0.007384	48.7562	-0.306000	-5778.11	1.278009E-6	NaN
597	1.000000	0.832653	7.37089e+06	-47239.1	1005.82	-29766.6	0.000000	0.000000	6.833089	-0.024447	NaN	0.000000	0.001497	0.001814	28.081	0.009541	0.002090	4.564014	127.112	15.1696	0.052415	0.831274	-0.296063	-0.297442	-0.024447	4.564014	-0.292045	-3580.35	6.828084E-6	NaN
597	1.000000	0.842649	7.37089e+06	-47239.1	1005.82	-29766.6	0.000000	0.000000	6.843087	0.010860	NaN	0.000000	0.001531	0.001793	28.0801	0.093080	0.002147	43.353	-51.1781	-170.397	0.019898	0.841353	-0.286067	-0.287363	0.010860	43.353	-0.286255	-2931.69	-3.704272E-6	NaN
597	1.000000	0.852652	7.37089e+06	-47239.1	1005.82	-29766.6	0.000000	0.000000	6.853089	0.000398	NaN	0.000000	0.001560	0.001791	28.08	0.043287	0.001861	23.2625	-121.181	12.8167	-0.082594	0.851310	-0.276064	-0.277406	0.000398	23.2625	-0.276077	-2059.21	-1.935004E-7	NaN
597	1.000000	0.862643	7.37089e+06	-47239.1	1005.82	-29766.6	0.000000	0.000000	6.863081	0.035105	NaN	0.000000	0.001510	0.001785	28.0799	0.079736	0.002098	38.0074	99.6307	-163.414	0.027160	0.861322	-0.266073	-0.267394	0.035105	38.0074	-0.266766	-1487.03	-2.360752E-5	NaN
597	1.000000	0.872633	7.37089e+06	-47239.1	1005.82	-29766.6	0.000000	0.000000	6.873070	-0.016390	NaN	0.000000	0.001527	0.001784	28.0797	0.040587	0.001925	21.085	132.813	13.7503	0.020367	0.871267	-0.256083	-0.257448	-0.016390	21.085	-0.255500	-999.555	1.639721E-5	NaN
597	1.000000	0.882651	7.37089e+06	-47239.1	1005.82	-29766.6	0.000000	0.000000	6.883085	-0.080277	NaN	0.000000	0.001523	0.001830	28.08	0.037997	0.001826	20.8104	-32.7554	-166.148	0.063043	0.881378	-0.246065	-0.247338	-0.080277	20.8104	-0.243172	-644.192	0.000125	NaN
597	1.000000	0.892674	7.37089e+06	-47239.1	1005.82	-29766.6	0.000000	0.000000	6.893113	0.036762	NaN	0.000000	0.001564	0.001810	28.0799	0.071869	0.001886	38.1109	-10.4228	11.784	0.037678	0.891223	-0.236042	-0.237493	0.036762	38.1109	-0.236765	-511.609	-7.185553E-5	NaN
597	1.000000	0.902646	7.37089e+06	-47239.1	1005.82	-29766.6	0.000000	0.000000	6.903084	0.012801	NaN	0.000000	0.001611	0.001856	28.0799	0.068207	0.002017	33.8117	-79.3161	-165.423	0.034990	0.901314	-0.226070	-0.227402	0.012801	33.8117	-0.226354	-350.609	-3.651114E-5	NaN
597	1.000000	0.912662	7.37089e+06	-47239.1	1005.82	-29766.6	0.000000	0.000000	6.913103	0.080206	NaN	0.000000	0.001582	0.001850	28.0799	0.002785	0.001929	1.443688	-79.7191	16.5456	0.026686	0.911316	-0.216053	-0.217399	0.080206	1.443688	-0.257720	-1081.3	-7.417540E-5	NaN
597	1.000000	0.922671	7.37089e+06	-47239.1	1005.82	-29766.6	0.000000	0.000000	6.923108	0.006291	NaN	0.000000	0.001591	0.001890	28.0799	0.121902	0.002040	59.7667	-61.4959	-165.38	0.083786	0.921337	-0.206045	-0.207378	0.006291	59.7667	-0.206124	-165.913	-3.792019E-5	NaN
597	1.000000	0.932649	7.37089e+06	-47239.1	1005.82	-29766.6	0.000000	0.000000	6.933088	0.037156	NaN	0.000000	0.001548	0.001857	28.0798	0.065776	0.002033	32.3483	-55.6087	13.3555	-0.039253	0.931279	-0.196067	-0.197437	0.037156	32.3483	-0.196928	-117.244	-0.000317	NaN
597	1.000000	0.942677	7.37089e+06	-47239.1	1005.82	-29766.6	0.000000	0.000000	6.943116	0.046721	NaN	0.000000	0.001577	0.001837	28.0799	0.136953	0.002070	66.1498	-126.611	-162.819	0.025850	0.941352	-0.186039	-0.187364	0.046721	66.1498	-0.186569	-78.8009	-0.000593	NaN
597	1.000000	0.952711	7.37089e+06	-47239.1	1005.82	-29766.6	0.000000	0.000000	6.953149	0.025828	NaN	0.000000	0.001576	0.001832	28.08	0.062097	0.002097	29.6186	-38.3903	13.3257	-0.064574	0.951310	-0.176005	-0.177405	0.025828	29.6186	-0.176659	-53.5111	-0.000483	NaN
597	1.000000	0.962708	7.37089e+06	-47239.1	1005.82	-29766.6	0.000000	0.000000	6.963147	0.035663	NaN	0.000000	0.001576	0.001862	28.08	0.156607	0.002098	74.6388	65.4481	-165.565	0.030655	0.961409	-0.166008	-0.167307	0.035663	74.6388	-0.166366	-35.5026	-0.001005	NaN
597	1.000000	0.972692	7.37089e+06	-47239.1	1005.82	-29766.6	0.000000	0.000000	6.973127	-0.055328	NaN	0.000000	0.001573	0.001865	28.0801	0.124893	0.001961	63.6848	-129.104	18.2528	-0.049327	0.971391	-0.156024	-0.157325	-0.055328	63.6848	-0.155373	-22.6611	0.002442	NaN
597	1.000000	0.982693	7.37089e+06	-47239.1	1005.82	-29766.6	0.000000	0.000000	6.983132	0.033400	NaN	0.000000	0.001596	0.001883	28.0814	0.114039	0.001969	57.9105	-144.147	-163.384	-0.020200	0.981384	-0.146023	-0.147331	0.033400	57.9105	-0.146455	-15.5967	-0.002141	NaN
597	1.000000	0.992681	7.37089e+06	-47239.1	1005.82	-29766.6	0.000000	0.000000	6.993120	0.030069	NaN	0.000000	0.001605	0.001814	28.0816	0.034263	0.001906	17.9736	-172.55	12.388	0.059841	0.991317	-0.136035	-0.137399	0.030069	17.9736	-0.137290	-10.5156	-0.002859	NaN
597	1.000000	1.002706	7.37089e+06	-47239.1	1005.82	-29766.6	0.000000	0.000000	7.003145	0.019873	NaN	0.000000	0.001581	0.001824	28.0814	0.128031	0.001948	65.7084	-52.6513	-167.049	-0.005432	1.001393	-0.126009	-0.127323	0.019873	65.7084	-0.126236	-6.432800	-0.003089	NaN
597	1.000000	1.012703	7.37089e+06	-47239.1	1005.82	-29766.6	0.000000	0.000000	7.013140	0.004367	NaN	0.000000	0.001494	0.001741	28.0818	0.059156	0.001974	29.9689	24.404	13.5507	-0.039104	1.011355	-0.116013	-0.117361	0.004367	29.9689	-0.116122	-4.028884	-0.001084	NaN
597	1.000000	1.022682	7.37089e+06	-47239.1	1005.82	-29766.6	0.000000	0.000000	7.023118	-0.034393	NaN	0.000000	0.001490	0.001780	28.0816	0.014187	0.002014	7.045280	69.0405	-165.648	0.002860	1.021414	-0.106033	-0.107302	-0.034393	7.045280	-0.102372	-2.060769	0.016689	NaN
597	1.000000	1.032749	7.37089e+06	-47239.1	1005.82	-29766.6	0.000000	0.000000	7.033186	-0.004717	NaN	0.000000	0.001563	0.001765	28.0815	0.061425	0.001992	30.8306	145.744	8.812707	0.045566	1.031336	-0.095967	-0.097380	-0.004717	30.8306	-0.095852	-1.474983	0.003198	NaN
597	1.000000	1.042705	7.3709e+06	-47239.1	1005.82	-29766.6	0.000000	0.000000	7.043142	-0.008223	NaN	0.000000	0.001560	0.001776	28.0813	0.188373	0.001999	94.2446	-139.725	-164.944	0.062590	1.041392	-0.086011	-0.087324	-0.008223	94.2446	-0.085945	-0.865949	0.009496	NaN
597	1.000000	1.052711	7.3709e+06	-47239.1	1005.82	-29766.6	0.000000	0.000000	7.053149	0.027352	NaN	0.000000	0.001596	0.001754	28.0815	0.072462	0.002041	35.5044	-124.126	18.0587	0.089120	1.051344	-0.076005	-0.077372	0.027352	35.5044	-0.076583	-0.507273	-0.053919	NaN
597	1.000000	1.062721	7.3709e+06	-47239.1	1005.82	-29766.6	0.000000	0.000000	7.063159	0.015873	NaN	0.000000	0.001594	0.001745	28.0813	0.096488	0.001864	51.7701	10.0798	-167.011	-0.052681	1.061420	-0.065995	-0.067296	0.015873	51.7701	-0.066225	-0.269415	-0.058915	NaN
597	1.000000	1.072734	7.3709e+06	-47239.1	1005.82	-29766.6	0.000000	0.000000	7.073169	-0.047572	NaN	0.000000	0.001644	0.001795	28.0813	0.067956	0.001972	34.464	-58.4365	13.1947	-0.074483	1.071386	-0.055982	-0.057330	-0.047572	34.464	-0.054947	-0.128314	0.370746	NaN
597	1.000000	1.082745	7.3709e+06	-47239.1	1005.82	-29766.6	0.000000	0.000000	7.083182	0.005886	NaN	0.000000	0.001618	0.001782	28.0814	0.018595	0.002071	8.980651	29.2996	-164.423	-0.006003	1.081399	-0.045971	-0.047317	0.005886	8.980651	-0.046463	-0.071236	-0.082628	NaN
597	1.000000	1.092734	7.3709e+06	-47239.1	1005.82	-29766.6	0.000000	0.000000	7.093169	-0.050356	NaN	0.000000	0.001574	0.001783	28.0814	0.053410	0.002036	26.2365	99.925	17.7559	-0.070268	1.091394	-0.035982	-0.037321	-0.050356	26.2365	-0.034542	-0.031048	1.621912	NaN
597	1.000000	1.102730	7.3709e+06	-47239.1	1005.82	-29766.6	0.000000	0.000000	7.103165	-0.036604	NaN	0.000000	0.001552	0.001801	28.0817	0.038762	0.002031	19.0856	165.772	-165.411	-0.048168	1.101407	-0.025986	-0.027309	-0.036604	19.0856	-0.024548	-0.016419	2.229383	NaN
597	1.000000	1.112755	7.3709e+06	-47239.1	1005.82	-29766.6	0.000000	0.000000	7.113191	-0.033576	NaN	0.000000	0.001559	0.001796	28.0803	0.055585	0.001952	28.4787	136.991	16.029	-0.062347	1.111321	-0.015961	-0.017394	-0.033576	28.4787	-0.015077	-0.009322	3.601887	NaN
597	1.000000	1.122781	7.3709e+06	-47239.1	1005.82	-29766.6	0.000000	0.000000	7.123222	0.083984	NaN	0.000000	0.001587	0.001764	28.0801	0.217218	0.002025	107.291	19.5256	-164.978	-0.013480	1.121432	-0.005935	-0.007283	0.083984	107.291	-0.006522	-0.004353	-19.2915	NaN
597	2.000000	1.132439	7.3709e+06	-47239.1	1005.82	-29766.6	0.000000	0.000000	7.133240	8.824563	NaN	0.000000	0.001625	0.001762	28.0804	8.367973	0.001682	4976.47	12.5465	4.540610	7.303134	1.131317	0.003724	0.002601	8.824563	4976.47	0.002394	0.001876	4704.68	104982
597	2.000000	1.135282	7.3709e+06	-47239.1	1005.82	-29766.6	0.000000	0.000000	7.136278	13.5851	NaN	0.000000	0.001615	0.001774	28.0805	10.5416	0.001505	7004.97	5.053328	-173.083	12.6832	1.134972	0.006566	0.006256	13.5851	7004.97	0.005112	0.004236	3207.37	98338.4
597	2.000000	1.137776	7.3709e+06	-47239.1	1005.82	-29766.6	0.000000	0.000000	7.138882	16.278	NaN	0.000000	0.001606	0.001797	28.0804	13.6919	0.001594	8587.17	7.012072	4.293180	15.882	1.137402	0.009060	0.008686	16.278	8587.17	0.007638	0.006673	2439.39	96042.6
597	2.000000	1.140247	7.3709e+06	-47239.1	1005.82	-29766.6	0.000000	0.000000	7.141558	21.2389	NaN	0.000000	0.001565	0.001798	28.0802	17.5144	0.001849	9473.65	7.287402	-177.007	20.9881	1.139953	0.011531	0.011237	21.2389	9473.65	0.009850	0.009015	2355.92	91160.1
597	2.000000	1.142711	7.3709e+06	-47239.1	1005.82	-29766.6	0.000000	0.000000	7.144095	23.0057	NaN	0.000000	0.001602	0.001740	28.0804	18.8946	0.001783	10597.3	8.316568	2.200021	21.6858	1.142369	0.013996	0.013653	23.0057	10597.3	0.012367	0.011933	1927.89	88632.4
597	2.000000	1.145223	7.3709e+06	-47239.1	1005.82	-29766.6	0.000000	0.000000	7.146861	29.1963	NaN	0.000000	0.001600	0.001730	28.0802	20.5832	0.001777	11582.6	1.772256	-173.31	28.0697	1.144888	0.016507	0.016173	29.1963	11582.6	0.014616	0.014777	1975.74	87052.1
597	2.000000	1.147727	7.3709e+06	-47239.1	1005.82	-29766.6	0.000000	0.000000	7.149545	33.56	NaN	0.000000	0.001594	0.001657	28.0803	23.5699	0.001695	13906.2	7.757091	-1.467607	33.9648	1.147427	0.019012	0.018711	33.56	13906.2	0.017202	0.018334	1830.46	93832.2
597	2.000000	1.150228	7.3709e+06	-47239.1	1005.82	-29766.6	0.000000	0.000000	7.152390	41.9651	NaN	0.000000	0.001568	0.001731	28.0802	26.0549	0.001708	15258.7	3.886160	-177.027	42.4841	1.149896	0.021512	0.021180	41.9651	15258.7	0.019449	0.021684	1935.3	94671.6
597	2.000000	1.152710	7.3709e+06	-47239.1	1005.82	-29766.6	0.000000	0.000000	7.155143	48.5547	NaN	0.000000	0.001617	0.001710	28.0806	27.8722	0.001711	16292.4	1.968668	3.470207	47.2291	1.152339	0.023994	0.023624	48.5547	16292.4	0.021759	0.025381	1913.01	93433.2
597	2.000000	1.155185	7.3709e+06	-47239.1	1005.82	-29766.6	0.000000	0.000000	7.157924	55.9673	NaN	0.000000	0.001578	0.001732	28.0802	29.9367	0.001681	17811	5.466492	179.197	55.5952	1.154839	0.026470	0.026123	55.9673	17811	0.024113	0.029421	1902.26	94870.1
597	2.000000	1.157695	7.3709e+06	-47239.1	1005.82	-29766.6	0.000000	0.000000	7.160783	64.4882	NaN	0.000000	0.001588	0.001726	28.0803	33.6654	0.001782	18895.9	6.702665	-3.065581	62.0332	1.157324	0.028979	0.028609	64.4882	18895.9	0.026419	0.033648	1916.55	94115.3
597	2.000000	1.160188	7.3709e+06	-47239.1	1005.82	-29766.6	0.000000	0.000000	7.163621	72.8704	NaN	0.000000	0.001598	0.001715	28.0804	35.9911	0.001825	19724.9	5.671566	178.081	72.0216	1.159845	0.031472	0.031129	72.8704	19724.9	0.028701	0.038094	1912.89	92332.9
597	2.000000	1.162719	7.3709e+06	-47239.1	1005.82	-29766.6	0.000000	0.000000	7.166503	81.4049	NaN	0.000000	0.001612	0.001778	28.0819	38.2011	0.001751	21814.7	2.871754	-0.200939	80.4233	1.162334	0.034003	0.033618	81.4049	21814.7	0.031204	0.043277	1881.01	95806.3
597	2.000000	1.165204	7.3709e+06	-47239.1	1005.82	-29766.6	0.000000	0.000000	7.169308	89.1976	NaN	0.000000	0.001593	0.001784	28.0814	40.2053	0.001746	23025.4	6.189410	177.044	89.3334	1.164842	0.036488	0.036126	89.1976	23025.4	0.033583	0.048497	1839.24	95526
597	2.000000	1.167741	7.3709e+06	-47239.1	1005.82	-29766.6	0.000000	0.000000	7.172240	98.8174	NaN	0.000000	0.001581	0.001794	28.0816	43.8847	0.001791	24505.1	4.592027	-2.191913	99.9214	1.167327	0.039025	0.038612	98.8174	24505.1	0.036000	0.054101	1826.54	96256.2
597	2.000000	1.170154	7.3709e+06	-47239.1	1005.82	-29766.6	0.000000	0.000000	7.175001	107.258	NaN	0.000000	0.001499	0.001773	28.0814	45.7697	0.001758	26035.7	0.731484	-179.698	106.177	1.169891	0.041438	0.041175	107.258	26035.7	0.038348	0.059829	1792.73	97248.8
597	2.000000	1.172632	7.3709e+06	-47239.1	1005.82	-29766.6	0.000000	0.000000	7.178064	121.497	NaN	0.000000	0.001503	0.001804	28.0816	47.6816	0.001767	26984.1	4.875854	-3.287760	119.089	1.172269	0.043916	0.043553	121.497	26984.1	0.040539	0.065430	1856.91	96381.6
597	2.000000	1.175161	7.3709e+06	-47239.1	1005.82	-29766.6	0.000000	0.000000	7.181009	131.613	NaN	0.000000	0.001520	0.001804	28.0813	50.0608	0.001823	27465.7	4.598528	175.732	129.968	1.174842	0.046445	0.046126	131.613	27465.7	0.042851	0.071603	1838.09	93777.1
597	2.000000	1.177586	7.3709e+06	-47239.1	1005.82	-29766.6	0.000000	0.000000	7.184019	145.842	NaN	0.000000	0.001478	0.001754	28.0813	52.7644	0.001850	28519.4	7.080967	-5.792030	141.446	1.177240	0.048870	0.048524	145.842	28519.4	0.045035	0.077686	1877.33	93485.3
597	2.000000	1.180174	7.3709e+06	-47239.1	1005.82	-29766.6	0.000000	0.000000	7.186998	155.358	NaN	0.000000	0.001491	0.001746	28.0813	53.8255	0.001664	32348.5	5.004400	175.644	156.58	1.179890	0.051458	0.051175	155.358	32348.5	0.047856	0.085901	1808.57	100839
597	2.000000	1.182664	7.3709e+06	-47239.1	1005.82	-29766.6	0.000000	0.000000	7.190134	171.042	NaN	0.000000	0.001426	0.001745	28.0813	55.9555	0.001835	30496.9	4.156775	-1.941494	169.31	1.182161	0.053948	0.053445	171.042	30496.9	0.049742	0.091618	1866.91	92053.4
597	2.000000	1.185128	7.3709e+06	-47239.1	1005.82	-29766.6	0.000000	0.000000	7.193207	185.894	NaN	0.000000	0.001486	0.001782	28.0812	57.8609	0.001691	34225.5	6.943125	173.73	185.165	1.184710	0.056412	0.055994	185.894	34225.5	0.052338	0.099777	1863.09	98993.7
597	2.000000	1.187653	7.3709e+06	-47239.1	1005.82	-29766.6	0.000000	0.000000	7.196142	195.844	NaN	0.000000	0.001451	0.001813	28.0814	61.102	0.001722	35477.5	0.832046	-1.227977	192.886	1.187313	0.058937	0.058598	195.844	35477.5	0.054797	0.107814	1816.49	98716.2
597	2.000000	1.190139	7.3709e+06	-47239.1	1005.82	-29766.6	0.000000	0.000000	7.199183	209.361	NaN	0.000000	0.001491	0.001798	28.0812	65.3255	0.001915	34116.4	1.718681	178.45	208.017	1.189828	0.061423	0.061112	209.361	34116.4	0.056820	0.114653	1826.03	92054
597	2.000000	1.192651	7.3709e+06	-47239.1	1005.82	-29766.6	0.000000	0.000000	7.202414	226.83	NaN	0.000000	0.001526	0.001793	28.0815	66.4377	0.001816	36591.4	4.064039	-4.466905	224.479	1.192348	0.063935	0.063632	226.83	36591.4	0.059286	0.123260	1840.26	95222.9
597	2.000000	1.195122	7.3709e+06	-47239.1	1005.82	-29766.6	0.000000	0.000000	7.205354	238.241	NaN	0.000000	0.001463	0.001789	28.0814	67.0293	0.001731	38715.2	-2.297807	-179.473	237.12	1.194912	0.066406	0.066196	238.241	38715.2	0.061791	0.132307	1800.66	97244
597	2.000000	1.197597	7.3709e+06	-47239.1	1005.82	-29766.6	0.000000	0.000000	7.208622	257.518	NaN	0.000000	0.001488	0.001802	28.0804	70.6967	0.001793	39434.4	1.333880	-2.576619	254.413	1.197284	0.068881	0.068568	257.518	39434.4	0.063984	0.140480	1833.13	96126
597	2.000000	1.200127	7.3709e+06	-47239.1	1005.82	-29766.6	0.000000	0.000000	7.211815	273.656	NaN	0.000000	0.001475	0.001760	28.0803	74.1215	0.001792	41357.1	5.588346	172.869	272.787	1.199857	0.071411	0.071141	273.656	41357.1	0.066448	0.149940	1825.1	97580.8
597	2.000000	1.202614	7.3709e+06	-47239.1	1005.82	-29766.6	0.000000	0.000000	7.214877	287.637	NaN	0.000000	0.001480	0.001768	28.0802	75.2448	0.001668	45118.3	6.086437	-8.795826	284.592	1.202275	0.073898	0.073559	287.637	45118.3	0.069117	0.160513	1791.98	102889
597	2.000000	1.205030	7.3709e+06	-47239.1	1005.82	-29766.6	0.000000	0.000000	7.218113	307.597	NaN	0.000000	0.001485	0.001825	28.0804	77.078	0.001788	43097.3	3.743913	175.204	301.192	1.204634	0.076314	0.075918	307.597	43097.3	0.070961	0.168019	1830.73	96060.4
597	2.000000	1.207679	7.3709e+06	-47239.1	1005.82	-29766.6	0.000000	0.000000	7.221174	317.607	NaN	0.000000	0.001515	0.001832	28.0805	80.9499	0.001898	42643.4	9.247000	-10.5326	320.267	1.207222	0.078964	0.078506	317.607	42643.4	0.073378	0.178099	1783.32	92319.8
597	2.000000	1.210140	7.3709e+06	-47239.1	1005.82	-29766.6	0.000000	0.000000	7.224418	336.649	NaN	0.000000	0.001524	0.001823	28.0802	82.6919	0.001794	46090.8	7.566932	170.374	339.244	1.209750	0.081424	0.081034	336.649	46090.8	0.075946	0.189114	1780.14	96833.6
597	2.000000	1.212582	7.3709e+06	-47239.1	1005.82	-29766.6	0.000000	0.000000	7.227789	359.244	NaN	0.000000	0.001481	0.001859	28.0803	83.1425	0.001706	48730	4.902087	-6.843508	353.541	1.212165	0.083866	0.083449	359.244	48730	0.078337	0.199647	1799.4	99641.1
597	2.000000	1.215126	7.3709e+06	-47239.1	1005.82	-29766.6	0.000000	0.000000	7.230685	367.82	NaN	0.000000	0.001477	0.001810	28.0805	84.904	0.001769	48001.4	1.811091	175.295	365.83	1.214907	0.086410	0.086192	367.82	48001.4	0.080663	0.210147	1750.3	95667.9
597	2.000000	1.217614	7.3709e+06	-47239.1	1005.82	-29766.6	0.000000	0.000000	7.233895	385.365	NaN	0.000000	0.001505	0.001862	28.0804	86.3234	0.001657	52094.9	-0.994051	-2.188937	384.09	1.217376	0.088898	0.088660	385.365	52094.9	0.083350	0.222595	1731.24	100881
597	2.000000	1.220200	7.3709e+06	-47239.1	1005.82	-29766.6	0.000000	0.000000	7.236997	397.919	NaN	0.000000	0.001517	0.001865	28.0806	92.1573	0.001910	48257.8	1.247297	176.572	400.934	1.219909	0.091484	0.091193	397.919	48257.8	0.085300	0.231834	1716.4	91569.8
597	2.000000	1.222585	7.3709e+06	-47239.1	1005.82	-29766.6	0.000000	0.000000	7.240389	422.423	NaN	0.000000	0.001466	0.001847	28.0805	93.2231	0.001684	55360.3	5.115251	-8.585430	416.384	1.222130	0.093869	0.093415	422.423	55360.3	0.088146	0.245637	1719.71	102053
597	2.000000	1.225013	7.3709e+06	-47239.1	1005.82	-29766.6	0.000000	0.000000	7.243231	432.494	NaN	0.000000	0.001508	0.001813	28.0815	94.5974	0.001713	55230.9	3.651643	172.744	426.654	1.224804	0.096297	0.096088	432.494	55230.9	0.090424	0.256954	1683.15	99546.8
597	2.000000	1.227532	7.3709e+06	-47239.1	1005.82	-29766.6	0.000000	0.000000	7.246647	454.305	NaN	0.000000	0.001483	0.001857	28.0805	97.2086	0.001830	53119.9	1.658626	-4.925033	447.916	1.227190	0.098816	0.098475	454.305	53119.9	0.092402	0.266971	1701.7	93928.7
597	2.000000	1.230041	7.3709e+06	-47239.1	1005.82	-29766.6	0.000000	0.000000	7.249896	472.305	NaN	0.000000	0.001508	0.001787	28.0818	100.112	0.001780	56234.8	4.685740	171.28	467.473	1.229737	0.101326	0.101021	472.305	56234.8	0.095027	0.280543	1683.54	97001.7
597	2.000000	1.231157	7.3709e+06	-47239.1	1005.82	-29766.6	0.000000	0.000000	7.251520	484.666	NaN	0.000000	0.001536	0.001856	28.0817	100.395	0.001809	55493	6.470066	170.89	486.103	1.230666	0.102441	0.101950	484.666	55493	0.095891	0.285080	1700.1	94957.1