File: remote_trans/data/nanoindenter/0828-1/data/Data_2025-08-06,11h17m57s/2025-07-22_16-23-58_1_1005.txt
2025-07-22, 16:23:58, 1
Index	Phase	Displacement	Time	Pos X	Pos Y	Pos Z	Rot A	Rot B	Piezo Z	Force A	Force B	Gripper	Voltage A	Voltage B	Temperature	Amplitude force	Amplitude pos	Stiffness	Phase shift	Phase excitation	Force A raw	Displacement raw	HMax	HMax raw	Real Force	Real Stiffness	Contact Depth	Area	Hardness	Reduced Mod.
[#]	[#]	[um]	[s]	[um]	[um]	[um]	[m°]	[m°]	[um]	[uN]	[uN]	[V]	[V]	[V]	[°C]	[uN]	[um]	[N/m]	[°]	[°]	[uN]	[um]	[um]	[um]	[uN]	[N/m]	[um]	[um^2]	[MPa]	[MPa]
1005	1.000000	0.002552	7.37488e+06	-50389.1	1055.82	-29755.8	0.000000	0.000000	6.002822	-0.007847	NaN	0.000000	0.001533	0.001761	28.0828	0.091871	0.000863	106.479	63.7432	-166.346	0.024995	0.001336	-1.110616	-1.111831	-0.007847	106.479	-1.110560	-6.947184E+14	1.129525E-17	NaN
1005	1.000000	0.012617	7.37488e+06	-50389.1	1055.82	-29755.8	0.000000	0.000000	6.012889	0.051116	NaN	0.000000	0.001521	0.001730	28.0827	0.053736	0.001277	42.0914	115.341	18.279	-0.030584	0.011131	-1.100551	-1.102036	0.051116	42.0914	-1.101462	-5.244330E+14	-9.746884E-17	NaN
1005	1.000000	0.022472	7.37488e+06	-50389.1	1055.82	-29755.8	0.000000	0.000000	6.022739	-0.069914	NaN	0.000000	0.001534	0.001737	28.0827	0.070365	0.001849	38.0656	-27.6639	-164.978	0.060775	0.021190	-1.090696	-1.091978	-0.069914	38.0656	-1.089318	-3.602925E+14	1.940484E-16	NaN
1005	1.000000	0.032503	7.37488e+06	-50389.1	1055.82	-29755.8	0.000000	0.000000	6.032774	0.023437	NaN	0.000000	0.001526	0.001809	28.083	0.142991	0.001979	72.2406	38.0994	17.5908	-0.009724	0.031128	-1.080665	-1.082039	0.023437	72.2406	-1.080908	-2.777873E+14	-8.437199E-17	NaN
1005	1.000000	0.042454	7.37488e+06	-50389.1	1055.82	-29755.8	0.000000	0.000000	6.042722	-0.037543	NaN	0.000000	0.001575	0.001770	28.0826	0.090877	0.001978	45.9479	-79.3264	-164.29	0.002438	0.041225	-1.070714	-1.071942	-0.037543	45.9479	-1.070101	-1.988596E+14	1.887940E-16	NaN
1005	1.000000	0.052484	7.37488e+06	-50389.1	1055.82	-29755.8	0.000000	0.000000	6.052756	0.040202	NaN	0.000000	0.001532	0.001788	28.0828	0.014078	0.002028	6.940962	4.689859	16.5076	-0.013458	0.051082	-1.060684	-1.062085	0.040202	6.940962	-1.065028	-1.699730E+14	-2.365179E-16	NaN
1005	1.000000	0.062455	7.37488e+06	-50389.1	1055.82	-29755.8	0.000000	0.000000	6.062728	0.065433	NaN	0.000000	0.001528	0.001750	28.0827	0.096080	0.002000	48.0312	134.454	-164.141	-0.037730	0.061213	-1.050712	-1.051955	0.065433	48.0312	-1.051734	-1.126486E+14	-5.808573E-16	NaN
1005	1.000000	0.072469	7.37488e+06	-50389.1	1055.82	-29755.8	0.000000	0.000000	6.072738	-0.018459	NaN	0.000000	0.001568	0.001787	28.0829	0.035704	0.001967	18.1531	175.23	15.4683	0.087782	0.071092	-1.040699	-1.042075	-0.018459	18.1531	-1.039936	-7.818278E+13	2.360996E-16	NaN
1005	1.000000	0.082474	7.37488e+06	-50389.1	1055.82	-29755.8	0.000000	0.000000	6.082747	0.064489	NaN	0.000000	0.001588	0.001781	28.0815	0.083207	0.001984	41.9447	-112.204	-166.285	0.064064	0.081192	-1.030694	-1.031975	0.064489	41.9447	-1.031847	-6.085822E+13	-1.059667E-15	NaN
1005	1.000000	0.092486	7.37488e+06	-50389.1	1055.82	-29755.8	0.000000	0.000000	6.092757	0.035126	NaN	0.000000	0.001582	0.001819	28.0814	0.045717	0.002044	22.3676	-14.0032	14.8863	0.004793	0.091173	-1.020682	-1.021995	0.035126	22.3676	-1.021859	-4.466527E+13	-7.864253E-16	NaN
1005	1.000000	0.102477	7.37488e+06	-50389.1	1055.82	-29755.8	0.000000	0.000000	6.102747	0.000388	NaN	0.000000	0.001580	0.001846	28.0815	0.005830	0.002027	2.876631	-20.7914	-160.93	-0.115715	0.101214	-1.010691	-1.011954	0.000388	2.876631	-1.010792	-3.169865E+13	-1.224795E-17	NaN
1005	1.000000	0.112502	7.37488e+06	-50389.1	1055.82	-29755.8	0.000000	0.000000	6.112770	-0.059683	NaN	0.000000	0.001604	0.001842	28.0815	0.118200	0.001942	60.8585	128.362	18.103	0.073507	0.111141	-1.000665	-1.002026	-0.059683	60.8585	-0.999930	-2.263719E+13	2.636485E-15	NaN
1005	1.000000	0.122494	7.37488e+06	-50389.1	1055.82	-29755.8	0.000000	0.000000	6.122761	-0.074358	NaN	0.000000	0.001584	0.001828	28.0816	0.099338	0.002164	45.8959	-76.196	-164.462	-0.032048	0.121168	-0.990673	-0.991999	-0.074358	45.8959	-0.989458	-1.636116E+13	4.544770E-15	NaN
1005	1.000000	0.132478	7.37488e+06	-50389.1	1055.82	-29755.8	0.000000	0.000000	6.132747	-0.012978	NaN	0.000000	0.001634	0.001780	28.0811	0.118806	0.002151	55.2207	87.8141	12.7872	-0.017542	0.131176	-0.980690	-0.981991	-0.012978	55.2207	-0.980514	-1.239740E+13	1.046810E-15	NaN
1005	1.000000	0.142499	7.37488e+06	-50389.1	1055.82	-29755.8	0.000000	0.000000	6.142770	0.012236	NaN	0.000000	0.001634	0.001760	28.0816	0.025086	0.002019	12.4234	-130.178	-163.034	0.073925	0.141228	-0.970668	-0.971940	0.012236	12.4234	-0.971407	-9.345895E+12	-1.309235E-15	NaN
1005	1.000000	0.152511	7.37488e+06	-50389.1	1055.82	-29755.8	0.000000	0.000000	6.152780	-0.039531	NaN	0.000000	0.001599	0.001793	28.0813	0.086850	0.002051	42.3406	-42.5768	17.2532	-0.018373	0.151080	-0.960656	-0.962088	-0.039531	42.3406	-0.959956	-6.550526E+12	6.034805E-15	NaN
1005	1.000000	0.162486	7.37488e+06	-50389.1	1055.82	-29755.8	0.000000	0.000000	6.162757	0.014954	NaN	0.000000	0.001575	0.001776	28.0814	0.083776	0.002094	40.0114	137.855	-163.782	-0.027301	0.161251	-0.950681	-0.951916	0.014954	40.0114	-0.950961	-4.954441E+12	-3.018288E-15	NaN
1005	1.000000	0.172515	7.37488e+06	-50389.1	1055.82	-29755.8	0.000000	0.000000	6.172785	0.009609	NaN	0.000000	0.001610	0.001789	28.0814	0.051836	0.001969	26.3193	-29.3739	16.1083	0.027547	0.171150	-0.940653	-0.942018	0.009609	26.3193	-0.940927	-3.627759E+12	-2.648688E-15	NaN
1005	1.000000	0.182526	7.37488e+06	-50389.1	1055.82	-29755.8	0.000000	0.000000	6.182797	0.010782	NaN	0.000000	0.001597	0.001827	28.0829	0.064789	0.001886	34.3567	-44.0797	-163.23	-0.004776	0.181212	-0.930641	-0.931955	0.010782	34.3567	-0.930876	-2.654760E+12	-4.061234E-15	NaN
1005	1.000000	0.192538	7.37488e+06	-50389.1	1055.82	-29755.8	0.000000	0.000000	6.192808	-0.006994	NaN	0.000000	0.001602	0.001775	28.0815	0.041999	0.002011	20.8842	151.101	15.4072	-0.004552	0.191177	-0.920630	-0.921990	-0.006994	20.8842	-0.920379	-1.915657E+12	3.650710E-15	NaN
1005	1.000000	0.202541	7.37488e+06	-50389.1	1055.82	-29755.8	0.000000	0.000000	6.202811	-0.000345	NaN	0.000000	0.001614	0.001785	28.0816	0.011501	0.002019	5.697302	-172.742	-164.39	0.043638	0.201268	-0.910627	-0.911900	-0.000345	5.697302	-0.910581	-1.412578E+12	2.441965E-16	NaN
1005	1.000000	0.212539	7.37488e+06	-50389.1	1055.82	-29755.8	0.000000	0.000000	6.212811	0.049683	NaN	0.000000	0.001576	0.001796	28.0821	0.082671	0.002003	41.2774	-88.6975	19.6186	0.045852	0.211154	-0.900628	-0.902013	0.049683	41.2774	-0.901531	-1.065991E+12	-4.660778E-14	NaN
1005	1.000000	0.222543	7.37488e+06	-50389.1	1055.82	-29755.8	0.000000	0.000000	6.222813	-0.002056	NaN	0.000000	0.001539	0.001758	28.0831	0.060534	0.002028	29.8535	-75.0204	-161.846	-0.090384	0.221304	-0.890625	-0.891863	-0.002056	29.8535	-0.890573	-7.579866E+11	2.712894E-15	NaN
1005	1.000000	0.232567	7.37488e+06	-50389.1	1055.82	-29755.8	0.000000	0.000000	6.232835	-0.061507	NaN	0.000000	0.001575	0.001763	28.0831	0.069541	0.001998	34.7977	84.3833	14.383	-0.011950	0.231200	-0.880600	-0.881968	-0.061507	34.7977	-0.879274	-5.332056E+11	1.153526E-13	NaN
1005	1.000000	0.242581	7.37488e+06	-50389.1	1055.82	-29755.8	0.000000	0.000000	6.242853	0.042470	NaN	0.000000	0.001535	0.001738	28.0828	0.076605	0.002011	38.0866	-130.019	-165.359	0.106824	0.241235	-0.870586	-0.871932	0.042470	38.0866	-0.871423	-4.175351E+11	-1.017160E-13	NaN
1005	1.000000	0.252595	7.37488e+06	-50389.1	1055.82	-29755.8	0.000000	0.000000	6.252865	-0.014701	NaN	0.000000	0.001553	0.001783	28.0828	0.125061	0.001931	64.7587	73.2684	14.0308	-0.005446	0.251196	-0.860572	-0.861971	-0.014701	64.7587	-0.860402	-2.961829E+11	4.963518E-14	NaN
1005	1.000000	0.262584	7.37488e+06	-50389.1	1055.82	-29755.8	0.000000	0.000000	6.262854	-0.003151	NaN	0.000000	0.001572	0.001768	28.0829	0.156945	0.002089	75.1336	-25.7498	-164.724	-0.124270	0.261259	-0.850584	-0.851909	-0.003151	75.1336	-0.850552	-2.178780E+11	1.446310E-14	NaN
1005	1.000000	0.272559	7.37488e+06	-50389.1	1055.82	-29755.8	0.000000	0.000000	6.272828	-0.027131	NaN	0.000000	0.001554	0.001788	28.0828	0.126919	0.002084	60.91	-133.247	11.9986	-0.014743	0.271172	-0.840609	-0.841996	-0.027131	60.91	-0.840274	-1.581289E+11	1.715722E-13	NaN
1005	1.000000	0.282568	7.37488e+06	-50389.1	1055.82	-29755.8	0.000000	0.000000	6.282838	0.003225	NaN	0.000000	0.001595	0.001815	28.0829	0.028665	0.001988	14.4193	-112.315	-164.216	0.013654	0.281201	-0.830599	-0.831967	0.003225	14.4193	-0.830767	-1.175384E+11	-2.744105E-14	NaN
1005	1.000000	0.292590	7.37488e+06	-50389.1	1055.82	-29755.8	0.000000	0.000000	6.292859	-0.015616	NaN	0.000000	0.001573	0.001813	28.0831	0.023087	0.001905	12.1208	-149.189	17.2343	-0.044214	0.291286	-0.820578	-0.821882	-0.015616	12.1208	-0.819611	-8.297410E+10	1.882040E-13	NaN
1005	1.000000	0.302585	7.37488e+06	-50389.1	1055.82	-29755.8	0.000000	0.000000	6.302854	-0.034578	NaN	0.000000	0.001540	0.001806	28.0829	0.035975	0.002024	17.77	149.171	-163.695	-0.035753	0.301280	-0.810582	-0.811888	-0.034578	17.77	-0.809123	-5.979558E+10	5.782759E-13	NaN
1005	1.000000	0.312579	7.37488e+06	-50389.1	1055.82	-29755.8	0.000000	0.000000	6.312847	-0.045037	NaN	0.000000	0.001553	0.001765	28.0828	0.051642	0.001990	25.949	-62.8309	13.1513	-0.034447	0.311209	-0.800589	-0.801959	-0.045037	25.949	-0.799287	-4.397255E+10	1.024199E-12	NaN
1005	1.000000	0.322610	7.37488e+06	-50389.1	1055.82	-29755.8	0.000000	0.000000	6.322878	-0.058351	NaN	0.000000	0.001574	0.001774	28.0832	0.120838	0.002025	59.6745	124.816	-160.264	0.003455	0.321239	-0.790558	-0.791929	-0.058351	59.6745	-0.789824	-3.271113E+10	1.783836E-12	NaN
1005	1.000000	0.332615	7.37488e+06	-50389.1	1055.82	-29755.8	0.000000	0.000000	6.332885	-0.001027	NaN	0.000000	0.001590	0.001776	28.083	0.043027	0.002006	21.4451	-163.978	16.4706	0.042459	0.331229	-0.780552	-0.781938	-0.001027	21.4451	-0.780517	-2.444844E+10	4.199247E-14	NaN
1005	1.000000	0.342609	7.37488e+06	-50389.1	1055.82	-29755.8	0.000000	0.000000	6.342878	-0.031736	NaN	0.000000	0.001545	0.001801	28.0828	0.025617	0.001998	12.8184	105.874	-163.533	-0.071406	0.341283	-0.770558	-0.771884	-0.031736	12.8184	-0.768702	-1.689079E+10	1.878906E-12	NaN
1005	1.000000	0.352616	7.37488e+06	-50389.1	1055.82	-29755.8	0.000000	0.000000	6.352888	0.058401	NaN	0.000000	0.001601	0.001777	28.0815	0.058742	0.001970	29.8247	177.652	13.339	0.029473	0.351240	-0.760552	-0.761927	0.058401	29.8247	-0.762020	-1.370201E+10	-4.262195E-12	NaN
1005	1.000000	0.362595	7.37488e+06	-50389.1	1055.82	-29755.8	0.000000	0.000000	6.362865	-0.009777	NaN	0.000000	0.001610	0.001777	28.0818	0.044350	0.001994	22.2445	-48.4336	-164.344	-0.011522	0.361273	-0.750572	-0.751894	-0.009777	22.2445	-0.750243	-9.473767E+9	1.031959E-12	NaN
1005	1.000000	0.372618	7.37488e+06	-50389.1	1055.82	-29755.8	0.000000	0.000000	6.372886	-0.045749	NaN	0.000000	0.001571	0.001812	28.0815	0.064113	0.002053	31.2362	-17.7079	17.3663	-0.042460	0.371255	-0.740550	-0.741913	-0.045749	31.2362	-0.739451	-6.754333E+9	6.773287E-12	NaN
1005	1.000000	0.382594	7.37488e+06	-50389.1	1055.82	-29755.8	0.000000	0.000000	6.382861	-0.061373	NaN	0.000000	0.001623	0.001804	28.0816	0.062403	0.001912	32.6389	-95.2839	-165.739	-0.077457	0.381294	-0.730574	-0.731873	-0.061373	32.6389	-0.729163	-4.891086E+9	1.254789E-11	NaN
1005	1.000000	0.392614	7.37488e+06	-50389.1	1055.82	-29755.8	0.000000	0.000000	6.392884	-0.001096	NaN	0.000000	0.001607	0.001768	28.0814	0.055497	0.002017	27.5085	-68.6015	15.2418	0.012938	0.391260	-0.720554	-0.721907	-0.001096	27.5085	-0.720524	-3.729188E+9	2.939418E-13	NaN
1005	1.000000	0.402651	7.37488e+06	-50389.1	1055.82	-29755.8	0.000000	0.000000	6.402921	-0.010820	NaN	0.000000	0.001603	0.001771	28.0816	0.066461	0.002045	32.492	176.733	-162.409	-0.052889	0.401359	-0.710517	-0.711808	-0.010820	32.492	-0.710267	-2.702031E+9	4.004448E-12	NaN
1005	1.000000	0.412659	7.37488e+06	-50389.1	1055.82	-29755.8	0.000000	0.000000	6.412926	-0.063524	NaN	0.000000	0.001606	0.001761	28.0814	0.079867	0.002005	39.8404	121.101	14.6537	-0.064858	0.411279	-0.700509	-0.701888	-0.063524	39.8404	-0.699313	-1.914898E+9	3.317354E-11	NaN
1005	1.000000	0.422584	7.37488e+06	-50389.1	1055.82	-29755.8	0.000000	0.000000	6.422854	0.008236	NaN	0.000000	0.001592	0.001781	28.0816	0.053122	0.001923	27.6262	88.8928	-166.129	0.058344	0.421347	-0.690584	-0.691821	0.008236	27.6262	-0.690807	-1.465378E+9	-5.620321E-12	NaN
1005	1.000000	0.432624	7.37488e+06	-50389.1	1055.82	-29755.8	0.000000	0.000000	6.432895	0.019347	NaN	0.000000	0.001625	0.001747	28.0819	0.034516	0.002062	16.7415	8.207274	13.5696	-0.000637	0.431296	-0.680544	-0.681872	0.019347	16.7415	-0.681410	-1.090165E+9	-1.774649E-11	NaN
1005	1.000000	0.442646	7.37488e+06	-50389.1	1055.82	-29755.8	0.000000	0.000000	6.442916	-0.010000	NaN	0.000000	0.001617	0.001782	28.0817	0.044032	0.001943	22.6629	-156.857	-163.338	-0.017365	0.441338	-0.670521	-0.671829	-0.010000	22.6629	-0.670190	-7.655875E+8	1.306161E-11	NaN
1005	1.000000	0.452684	7.37488e+06	-50389.1	1055.82	-29755.8	0.000000	0.000000	6.452954	0.013798	NaN	0.000000	0.001605	0.001787	28.082	0.039069	0.002046	19.0954	131.076	15.9263	-0.001852	0.451267	-0.660484	-0.661900	0.013798	19.0954	-0.661026	-5.734793E+8	-2.405991E-11	NaN
1005	1.000000	0.462626	7.37488e+06	-50389.1	1055.82	-29755.8	0.000000	0.000000	6.462897	0.008567	NaN	0.000000	0.001585	0.001794	28.0817	0.052110	0.002019	25.8063	178.332	-163.143	-0.031621	0.461332	-0.650541	-0.651835	0.008567	25.8063	-0.650790	-4.152113E+8	-2.063255E-11	NaN
1005	1.000000	0.472622	7.37488e+06	-50389.1	1055.82	-29755.8	0.000000	0.000000	6.472894	0.034073	NaN	0.000000	0.001590	0.001805	28.0822	0.059100	0.001892	31.234	136.744	15.5634	0.006049	0.471307	-0.640545	-0.641861	0.034073	31.234	-0.641363	-3.083146E+8	-1.105152E-10	NaN
1005	1.000000	0.482659	7.37488e+06	-50389.1	1055.82	-29755.8	0.000000	0.000000	6.482927	-0.044782	NaN	0.000000	0.001605	0.001759	28.0817	0.034548	0.002168	15.9341	-164.651	-166.219	0.010627	0.481336	-0.630508	-0.631831	-0.044782	15.9341	-0.628400	-2.046710E+8	2.188021E-10	NaN
1005	1.000000	0.492674	7.37488e+06	-50389.1	1055.82	-29755.8	0.000000	0.000000	6.492944	-0.025058	NaN	0.000000	0.001615	0.001804	28.0834	0.092348	0.001865	49.5261	154.94	15.9194	-0.037161	0.491349	-0.620493	-0.621818	-0.025058	49.5261	-0.620114	-1.574687E+8	1.591326E-10	NaN
1005	1.000000	0.502693	7.37488e+06	-50389.1	1055.82	-29755.8	0.000000	0.000000	6.502961	-0.054331	NaN	0.000000	0.001588	0.001788	28.0831	0.057650	0.002015	28.6076	151.693	-165.915	-0.022614	0.501343	-0.610475	-0.611825	-0.054331	28.6076	-0.609050	-1.109297E+8	4.897829E-10	NaN
1005	1.000000	0.512664	7.37488e+06	-50389.1	1055.82	-29755.8	0.000000	0.000000	6.512936	0.040035	NaN	0.000000	0.001603	0.001770	28.0834	0.046380	0.002044	22.6901	166.857	14.4392	0.050344	0.511344	-0.600503	-0.601823	0.040035	22.6901	-0.601827	-8.822970E+7	-4.537548E-10	NaN
1005	1.000000	0.522668	7.37488e+06	-50389.1	1055.82	-29755.8	0.000000	0.000000	6.522937	-0.031163	NaN	0.000000	0.001609	0.001781	28.0832	0.059730	0.001924	31.0433	-142.339	-166.341	-0.051701	0.521399	-0.590499	-0.591769	-0.031163	31.0433	-0.589746	-6.014105E+7	5.181583E-10	NaN
1005	1.000000	0.532662	7.37488e+06	-50389.1	1055.82	-29755.8	0.000000	0.000000	6.532931	-0.029425	NaN	0.000000	0.001594	0.001779	28.0834	0.053824	0.002006	26.8306	76.5582	16.7397	0.006001	0.531296	-0.580506	-0.581872	-0.029425	26.8306	-0.579683	-4.368712E+7	6.735292E-10	NaN
1005	1.000000	0.542703	7.37488e+06	-50389.1	1055.82	-29755.8	0.000000	0.000000	6.542971	-0.045546	NaN	0.000000	0.001566	0.001779	28.0832	0.089106	0.002052	43.4268	155.448	-164.375	-0.034721	0.541402	-0.570465	-0.571766	-0.045546	43.4268	-0.569678	-3.178203E+7	1.433070E-9	NaN
1005	1.000000	0.552656	7.37488e+06	-50389.1	1055.82	-29755.8	0.000000	0.000000	6.552926	0.002864	NaN	0.000000	0.001624	0.001810	28.0831	0.029721	0.001924	15.4466	100.85	16.2354	0.021611	0.551301	-0.560511	-0.561867	0.002864	15.4466	-0.560650	-2.384373E+7	-1.200980E-10	NaN
1005	1.000000	0.562700	7.37488e+06	-50389.1	1055.82	-29755.8	0.000000	0.000000	6.562971	0.007193	NaN	0.000000	0.001597	0.001776	28.083	0.065149	0.002097	31.0682	75.3252	-164.918	-0.024685	0.561430	-0.550467	-0.551737	0.007193	31.0682	-0.550641	-1.733136E+7	-4.150407E-10	NaN
1005	1.000000	0.572670	7.37488e+06	-50389.1	1055.82	-29755.8	0.000000	0.000000	6.572940	-0.023085	NaN	0.000000	0.001611	0.001791	28.0833	0.120391	0.001965	61.2535	-137.784	14.0142	0.021440	0.571326	-0.540497	-0.541842	-0.023085	61.2535	-0.540214	-1.242598E+7	1.857813E-9	NaN
1005	1.000000	0.582754	7.37488e+06	-50389.1	1055.82	-29755.8	0.000000	0.000000	6.583023	-0.025579	NaN	0.000000	0.001597	0.001806	28.0832	0.043390	0.002083	20.8297	93.0239	-165.921	-0.063063	0.581364	-0.530414	-0.531803	-0.025579	20.8297	-0.529493	-8.82125e+06	2.899665E-9	NaN
1005	1.000000	0.592695	7.37488e+06	-50389.1	1055.82	-29755.8	0.000000	0.000000	6.592964	-0.019761	NaN	0.000000	0.001612	0.001815	28.083	0.128244	0.002077	61.7441	71.3166	11.5077	-0.040602	0.591381	-0.520473	-0.521786	-0.019761	61.7441	-0.520233	-6.55898e+06	3.012851E-9	NaN
1005	1.000000	0.602713	7.37488e+06	-50389.1	1055.82	-29755.8	0.000000	0.000000	6.602984	0.010183	NaN	0.000000	0.001607	0.001764	28.083	0.019382	0.002178	8.899643	-88.0952	-167.765	-0.019181	0.601381	-0.510454	-0.511786	0.010183	8.899643	-0.511312	-4.92824e+06	-2.066317E-9	NaN
1005	1.000000	0.612737	7.37488e+06	-50389.1	1055.82	-29755.8	0.000000	0.000000	6.613009	0.034768	NaN	0.000000	0.001618	0.001788	28.0832	0.112471	0.001970	57.0871	-26.2888	16.2255	0.053042	0.611351	-0.500430	-0.501817	0.034768	57.0871	-0.500887	-3.5269e+06	-9.857829E-9	NaN
1005	1.000000	0.622712	7.37488e+06	-50389.1	1055.82	-29755.8	0.000000	0.000000	6.622983	0.023150	NaN	0.000000	0.001627	0.001757	28.0819	0.087743	0.002031	43.2126	-50.5058	-165.125	0.014425	0.621379	-0.490456	-0.491788	0.023150	43.2126	-0.490857	-2.5549e+06	-9.060912E-9	NaN
1005	1.000000	0.632735	7.37488e+06	-50389.1	1055.82	-29755.8	0.000000	0.000000	6.633005	0.002480	NaN	0.000000	0.001609	0.001771	28.0817	0.065777	0.001920	34.2661	-95.9341	16.5114	0.009803	0.631360	-0.480433	-0.481807	0.002480	34.2661	-0.480487	-1.82955e+06	-1.355409E-9	NaN
1005	1.000000	0.642708	7.37488e+06	-50389.1	1055.82	-29755.8	0.000000	0.000000	6.642977	-0.045838	NaN	0.000000	0.001589	0.001758	28.0816	0.064704	0.002089	30.9761	-12.1887	-161.947	-0.017868	0.641377	-0.470459	-0.471790	-0.045838	30.9761	-0.469349	-1.27727e+06	3.588726E-8	NaN
1005	1.000000	0.652737	7.37488e+06	-50389.1	1055.82	-29755.8	0.000000	0.000000	6.653006	-0.024937	NaN	0.000000	0.001597	0.001766	28.0834	0.089453	0.001936	46.1992	-73.0377	10.4108	0.025451	0.651345	-0.460431	-0.461822	-0.024937	46.1992	-0.460026	-944890	2.639107E-8	NaN
1005	1.000000	0.662731	7.37488e+06	-50389.1	1055.82	-29755.8	0.000000	0.000000	6.662996	-0.108107	NaN	0.000000	0.001628	0.001745	28.0856	0.065734	0.002027	32.4302	-105.851	-161.007	-0.107640	0.661421	-0.450437	-0.451746	-0.108107	32.4302	-0.447937	-638673	1.692678E-7	NaN
1005	1.000000	0.672736	7.37488e+06	-50389.1	1055.82	-29755.8	0.000000	0.000000	6.673005	-0.029790	NaN	0.000000	0.001593	0.001762	28.0825	0.075694	0.002019	37.4863	89.2859	13.4257	-0.045082	0.671426	-0.440432	-0.441742	-0.029790	37.4863	-0.439836	-490960	6.067764E-8	NaN
1005	1.000000	0.682737	7.37488e+06	-50389.1	1055.82	-29755.8	0.000000	0.000000	6.683007	0.011412	NaN	0.000000	0.001583	0.001757	28.0823	0.008385	0.001836	4.566182	-32.904	-168.756	0.062339	0.681370	-0.430431	-0.431798	0.011412	4.566182	-0.432305	-384294	-2.969519E-8	NaN
1005	1.000000	0.692743	7.37488e+06	-50389.1	1055.82	-29755.8	0.000000	0.000000	6.693011	-0.041582	NaN	0.000000	0.001594	0.001737	28.0822	0.012552	0.001989	6.311960	-165.102	14.2315	-0.080098	0.691386	-0.420425	-0.421781	-0.041582	6.311960	-0.415484	-221986	1.873189E-7	NaN
1005	1.000000	0.702749	7.37488e+06	-50389.1	1055.82	-29755.8	0.000000	0.000000	6.703021	0.032050	NaN	0.000000	0.001604	0.001781	28.0817	0.053043	0.002120	25.0182	62.9411	-169.323	0.060460	0.701486	-0.410418	-0.411681	0.032050	25.0182	-0.411379	-194092	-1.651273E-7	NaN
1005	1.000000	0.712732	7.37488e+06	-50389.1	1055.82	-29755.8	0.000000	0.000000	6.713002	-0.020853	NaN	0.000000	0.001590	0.001754	28.0816	0.089718	0.002094	42.8443	-66.6475	12.5022	-0.051977	0.711384	-0.400435	-0.401784	-0.020853	42.8443	-0.400070	-133965	1.556584E-7	NaN
1005	1.000000	0.722737	7.37488e+06	-50389.1	1055.82	-29755.8	0.000000	0.000000	6.723005	-0.037431	NaN	0.000000	0.001590	0.001741	28.0822	0.121245	0.001944	62.3789	176.755	-165.237	-0.049777	0.721478	-0.390431	-0.391689	-0.037431	62.3789	-0.389981	-96137.2	3.893491E-7	NaN
1005	1.000000	0.732751	7.37488e+06	-50389.1	1055.82	-29755.8	0.000000	0.000000	6.733020	-0.034038	NaN	0.000000	0.001568	0.001748	28.0818	0.095751	0.001939	49.386	118.389	16.1935	-0.041898	0.731382	-0.380416	-0.381785	-0.034038	49.386	-0.379899	-68935.4	4.937603E-7	NaN
1005	1.000000	0.742767	7.37488e+06	-50389.1	1055.82	-29755.8	0.000000	0.000000	6.743038	0.039877	NaN	0.000000	0.001569	0.001719	28.0821	0.101250	0.001836	55.1411	-134.147	-166.831	-0.041117	0.741431	-0.370401	-0.371737	0.039877	55.1411	-0.370943	-51251.6	-7.780717E-7	NaN
1005	1.000000	0.752785	7.37488e+06	-50389.1	1055.82	-29755.8	0.000000	0.000000	6.753055	-0.020891	NaN	0.000000	0.001600	0.001743	28.0817	0.119259	0.002015	59.1844	-123.219	14.5141	-0.060318	0.751428	-0.360382	-0.361739	-0.020891	59.1844	-0.360117	-35772	5.840047E-7	NaN
1005	1.000000	0.762781	7.37488e+06	-50389.1	1055.82	-29755.8	0.000000	0.000000	6.763051	-0.019299	NaN	0.000000	0.001622	0.001742	28.0838	0.088442	0.002040	43.348	19.036	-165.691	-0.027496	0.761471	-0.350386	-0.351696	-0.019299	43.348	-0.350052	-25571.8	7.547086E-7	NaN
1005	1.000000	0.772744	7.37488e+06	-50389.1	1055.82	-29755.8	0.000000	0.000000	6.773015	0.010237	NaN	0.000000	0.001685	0.001765	28.0829	0.083477	0.001913	43.6414	-112.858	15.2721	-0.018738	0.771429	-0.340423	-0.341738	0.010237	43.6414	-0.340599	-18633	-5.493912E-7	NaN
1005	1.000000	0.782778	7.37488e+06	-50389.1	1055.82	-29755.8	0.000000	0.000000	6.783047	-0.049324	NaN	0.000000	0.001677	0.001770	28.0831	0.044932	0.001893	23.7399	-123.052	-167.573	-0.070425	0.781476	-0.330389	-0.331692	-0.049324	23.7399	-0.328831	-12540.7	3.933079E-6	NaN
1005	1.000000	0.792801	7.37488e+06	-50389.1	1055.82	-29755.8	0.000000	0.000000	6.793068	-0.089718	NaN	0.000000	0.001616	0.001773	28.083	0.104978	0.001945	53.968	-78.5847	12.228	-0.055226	0.791434	-0.320366	-0.321733	-0.089718	53.968	-0.319119	-9029.71	9.935901E-6	NaN
1005	1.000000	0.802759	7.37488e+06	-50389.1	1055.82	-29755.8	0.000000	0.000000	6.803030	0.015451	NaN	0.000000	0.001615	0.001755	28.0831	0.061503	0.002178	28.2388	-94.2395	-166.398	0.031053	0.801484	-0.310408	-0.311684	0.015451	28.2388	-0.310818	-6810.3	-2.268818E-6	NaN
1005	1.000000	0.812800	7.37488e+06	-50389.1	1055.82	-29755.8	0.000000	0.000000	6.813074	0.083408	NaN	0.000000	0.001574	0.001775	28.0829	0.136673	0.001966	69.5343	-41.5693	14.645	0.031359	0.811402	-0.300367	-0.301766	0.083408	69.5343	-0.301267	-4914.62	-1.697137E-5	NaN
1005	1.000000	0.822812	7.37488e+06	-50389.1	1055.82	-29755.8	0.000000	0.000000	6.823082	-0.000887	NaN	0.000000	0.001591	0.001775	28.083	0.163476	0.001941	84.2312	15.8229	-163.297	-0.053119	0.821451	-0.290356	-0.291716	-0.000887	84.2312	-0.290348	-3376.88	2.626823E-7	NaN
1005	1.000000	0.832811	7.37488e+06	-50389.1	1055.82	-29755.8	0.000000	0.000000	6.833081	-0.008020	NaN	0.000000	0.001601	0.001779	28.083	0.072079	0.001990	36.2268	-115.289	15.2061	-0.114981	0.831446	-0.280356	-0.281722	-0.008020	36.2268	-0.280190	-2375.95	3.375624E-6	NaN
1005	1.000000	0.842823	7.37488e+06	-50389.1	1055.82	-29755.8	0.000000	0.000000	6.843094	0.018314	NaN	0.000000	0.001576	0.001725	28.0831	0.094583	0.002002	47.2505	-120.076	-168.839	-0.026523	0.841574	-0.270345	-0.271593	0.018314	47.2505	-0.270635	-1702.94	-1.075435E-5	NaN
1005	1.000000	0.852820	7.37488e+06	-50389.1	1055.82	-29755.8	0.000000	0.000000	6.853091	0.017978	NaN	0.000000	0.001570	0.001728	28.0829	0.063025	0.001915	32.9191	15.987	11.8771	-0.056258	0.851495	-0.260347	-0.261673	0.017978	32.9191	-0.260757	-1203.68	-1.493556E-5	NaN
1005	1.000000	0.862822	7.37488e+06	-50389.1	1055.82	-29755.8	0.000000	0.000000	6.863093	0.024280	NaN	0.000000	0.001611	0.001772	28.083	0.037536	0.001909	19.6612	132.828	-162.473	-0.002636	0.861528	-0.250346	-0.251640	0.024280	19.6612	-0.251272	-860.248	-2.822440E-5	NaN
1005	1.000000	0.872824	7.37488e+06	-50389.1	1055.82	-29755.8	0.000000	0.000000	6.873095	0.031640	NaN	0.000000	0.001557	0.001779	28.0829	0.040945	0.002004	20.4351	120.071	13.0625	0.080826	0.871427	-0.240344	-0.241740	0.031640	20.4351	-0.241505	-606.795	-5.214348E-5	NaN
1005	1.000000	0.882832	7.37488e+06	-50389.1	1055.82	-29755.8	0.000000	0.000000	6.883099	-0.085324	NaN	0.000000	0.001545	0.001752	28.0829	0.048971	0.001928	25.3985	163.663	-163.98	-0.062030	0.881515	-0.230335	-0.231652	-0.085324	25.3985	-0.227816	-369.813	0.000231	NaN
1005	1.000000	0.892812	7.37488e+06	-50389.1	1055.82	-29755.8	0.000000	0.000000	6.893082	0.000440	NaN	0.000000	0.001565	0.001767	28.0827	0.101764	0.001922	52.9347	-100.954	12.0032	-0.017924	0.891434	-0.220356	-0.221734	0.000440	52.9347	-0.220362	-281.489	-1.561561E-6	NaN
1005	1.000000	0.902851	7.37488e+06	-50389.1	1055.82	-29755.8	0.000000	0.000000	6.903119	-0.039151	NaN	0.000000	0.001588	0.001801	28.0817	0.102716	0.002031	50.5837	-80.0197	-166.768	-0.000470	0.901497	-0.210317	-0.211670	-0.039151	50.5837	-0.209736	-189.911	0.000206	NaN
1005	1.000000	0.912836	7.37488e+06	-50389.1	1055.82	-29755.8	0.000000	0.000000	6.913106	-0.000321	NaN	0.000000	0.001588	0.001762	28.0818	0.072770	0.001965	37.0249	17.287	15.3645	0.067471	0.911466	-0.200332	-0.201701	-0.000321	37.0249	-0.200325	-133.364	2.403371E-6	NaN
1005	1.000000	0.922866	7.37488e+06	-50389.1	1055.82	-29755.8	0.000000	0.000000	6.923136	0.001164	NaN	0.000000	0.001589	0.001788	28.0816	0.059693	0.002099	28.4323	140.289	-165.027	0.056664	0.921509	-0.190301	-0.191658	0.001164	28.4323	-0.190332	-91.112	-1.277177E-5	NaN
1005	1.000000	0.932835	7.37488e+06	-50389.1	1055.82	-29755.8	0.000000	0.000000	6.933107	0.053208	NaN	0.000000	0.001584	0.001760	28.0814	0.105531	0.001981	53.2581	-4.546628	11.3957	0.117141	0.931500	-0.180333	-0.181667	0.053208	53.2581	-0.181082	-63.6582	-0.000836	NaN
1005	1.000000	0.942838	7.37488e+06	-50389.1	1055.82	-29755.8	0.000000	0.000000	6.943107	-0.041522	NaN	0.000000	0.001568	0.001777	28.0817	0.110443	0.001907	57.9173	-119.827	-169.796	-0.119103	0.941539	-0.170329	-0.171629	-0.041522	57.9173	-0.169791	-40.7373	0.001019	NaN
1005	1.000000	0.952849	7.37488e+06	-50389.1	1055.82	-29755.8	0.000000	0.000000	6.953119	-0.015516	NaN	0.000000	0.001591	0.001750	28.0815	0.080921	0.002002	40.4123	168.244	13.7652	-0.039845	0.951509	-0.160318	-0.161658	-0.015516	40.4123	-0.160030	-27.449	0.000565	NaN
1005	1.000000	0.962860	7.37488e+06	-50389.1	1055.82	-29755.8	0.000000	0.000000	6.963131	0.027763	NaN	0.000000	0.001610	0.001764	28.0817	0.093261	0.002027	46.006	90.9271	-166.681	-0.022727	0.961551	-0.150308	-0.151617	0.027763	46.006	-0.150760	-18.7008	-0.001485	NaN
1005	1.000000	0.972889	7.37488e+06	-50389.1	1055.82	-29755.8	0.000000	0.000000	6.973159	-0.002819	NaN	0.000000	0.001583	0.001753	28.0816	0.110787	0.002013	55.0295	-164.597	12.7307	-0.006807	0.971541	-0.140278	-0.141626	-0.002819	55.0295	-0.140240	-11.9529	0.000236	NaN
1005	1.000000	0.982852	7.37488e+06	-50389.1	1055.82	-29755.8	0.000000	0.000000	6.983119	-0.053264	NaN	0.000000	0.001583	0.001732	28.082	0.036303	0.002121	17.1182	-70.075	-167.234	-0.044089	0.981570	-0.130316	-0.131597	-0.053264	17.1182	-0.127982	-6.961056	0.007652	NaN
1005	1.000000	0.992877	7.37488e+06	-50389.1	1055.82	-29755.8	0.000000	0.000000	6.993146	-0.022326	NaN	0.000000	0.001559	0.001762	28.0818	0.078769	0.001932	40.762	-79.9042	16.1391	-0.036305	0.991532	-0.120290	-0.121636	-0.022326	40.762	-0.119879	-4.804488	0.004647	NaN
1005	1.000000	1.002880	7.37488e+06	-50389.1	1055.82	-29755.8	0.000000	0.000000	7.003148	-0.038045	NaN	0.000000	0.001561	0.001750	28.0817	0.097056	0.002055	47.2366	-119.171	-166.856	-0.020848	1.001570	-0.110288	-0.111597	-0.038045	47.2366	-0.109684	-2.959379	0.012856	NaN
1005	1.000000	1.012863	7.37488e+06	-50389.1	1055.82	-29755.8	0.000000	0.000000	7.013133	0.003851	NaN	0.000000	0.001510	0.001756	28.0817	0.081415	0.001949	41.763	-29.2337	16.2278	0.007198	1.011509	-0.100305	-0.101659	0.003851	41.763	-0.100374	-1.862309	-0.002068	NaN
1005	1.000000	1.022862	7.37488e+06	-50389.1	1055.82	-29755.8	0.000000	0.000000	7.023132	0.004716	NaN	0.000000	0.001550	0.001730	28.0818	0.101507	0.001968	51.5846	55.6429	-169.168	-0.007062	1.021566	-0.090306	-0.091602	0.004716	51.5846	-0.090374	-1.103024	-0.004276	NaN
1005	1.000000	1.032878	7.37488e+06	-50389.1	1055.82	-29755.8	0.000000	0.000000	7.033147	-0.023050	NaN	0.000000	0.001537	0.001728	28.083	0.032132	0.002090	15.3731	127.162	12.5141	0.045849	1.031551	-0.080290	-0.081617	-0.023050	15.3731	-0.079165	-0.589864	0.039077	NaN
1005	1.000000	1.042878	7.37488e+06	-50389.1	1055.82	-29755.8	0.000000	0.000000	7.043149	0.018624	NaN	0.000000	0.001560	0.001723	28.0828	0.073719	0.001988	37.0887	-61.5375	-167.487	0.021668	1.041561	-0.070290	-0.071607	0.018624	37.0887	-0.070666	-0.355384	-0.052405	NaN
1005	1.000000	1.052882	7.37488e+06	-50389.1	1055.82	-29755.8	0.000000	0.000000	7.053157	0.121451	NaN	0.000000	0.001603	0.001748	28.0829	0.118581	0.001955	60.6402	10.5503	13.0217	0.083618	1.051532	-0.060286	-0.061635	0.121451	60.6402	-0.061788	-0.202531	-0.599667	NaN
1005	1.000000	1.062901	7.37488e+06	-50389.1	1055.82	-29755.8	0.000000	0.000000	7.063169	-0.041761	NaN	0.000000	0.001561	0.001734	28.0828	0.101044	0.002028	49.8196	92.5402	-167.378	-0.032065	1.061581	-0.050267	-0.051586	-0.041761	49.8196	-0.049638	-0.088979	0.469335	NaN
1005	1.000000	1.072873	7.37488e+06	-50389.1	1055.82	-29755.8	0.000000	0.000000	7.073141	-0.064315	NaN	0.000000	0.001564	0.001743	28.083	0.088577	0.001988	44.5598	-128.665	12.9952	0.023932	1.071530	-0.040294	-0.041637	-0.064315	44.5598	-0.039212	-0.042801	1.502672	NaN
1005	1.000000	1.082944	7.37488e+06	-50389.1	1055.82	-29755.8	0.000000	0.000000	7.083213	-0.014962	NaN	0.000000	0.001579	0.001742	28.0828	0.047305	0.002003	23.615	-109.008	-166.884	-0.020315	1.081641	-0.030224	-0.031526	-0.014962	23.615	-0.029749	-0.022645	0.660717	NaN
1005	1.000000	1.092897	7.37488e+06	-50389.1	1055.82	-29755.8	0.000000	0.000000	7.093164	-0.055852	NaN	0.000000	0.001582	0.001731	28.083	0.049941	0.002007	24.885	175.641	14.0471	-0.074676	1.091566	-0.020271	-0.021601	-0.055852	24.885	-0.018588	-0.011559	4.831830	NaN
1005	1.000000	1.102898	7.37488e+06	-50389.1	1055.82	-29755.8	0.000000	0.000000	7.103168	0.000997	NaN	0.000000	0.001556	0.001736	28.0829	0.124611	0.002103	59.2555	44.9476	-167.078	-0.040780	1.101581	-0.010270	-0.011586	0.000997	59.2555	-0.010282	-0.006549	-0.152269	NaN
1005	1.000000	1.112927	7.37488e+06	-50389.1	1055.82	-29755.8	0.000000	0.000000	7.113202	0.112444	NaN	0.000000	0.001527	0.001772	28.0831	0.107758	0.001959	55.0156	77.0066	14.3619	0.060493	1.111556	-0.000240	-0.001612	0.112444	55.0156	-0.001773	-0.001281	-87.7506	NaN
1005	2.000000	1.122333	7.37488e+06	-50389.1	1055.82	-29755.8	0.000000	0.000000	7.122954	8.540248	NaN	0.000000	0.001597	0.001749	28.083	8.258141	0.001646	5018.52	9.061291	-172.533	8.403044	1.121556	0.009165	0.008388	8.540248	5018.52	0.007889	0.006928	1232.67	55085.5
1005	2.000000	1.124965	7.37488e+06	-50389.1	1055.82	-29755.8	0.000000	0.000000	7.125734	12.126	NaN	0.000000	0.001570	0.001768	28.0837	10.8927	0.001691	6443.27	9.181283	4.897166	11.1787	1.124660	0.011798	0.011493	12.126	6443.27	0.010387	0.009614	1261.25	60037.5
1005	2.000000	1.127432	7.37488e+06	-50389.1	1055.82	-29755.8	0.000000	0.000000	7.128405	17.0973	NaN	0.000000	0.001578	0.001752	28.0829	13.153	0.001608	8181.27	6.981145	-177.17	16.9561	1.127121	0.014265	0.013954	17.0973	8181.27	0.012697	0.012336	1385.98	67299
1005	2.000000	1.129903	7.37488e+06	-50389.1	1055.82	-29755.8	0.000000	0.000000	7.130992	19.9058	NaN	0.000000	0.001581	0.001751	28.0832	15.6916	0.001767	8880.81	4.049508	5.870887	19.5807	1.129540	0.016736	0.016373	19.9058	8880.81	0.015055	0.015358	1296.09	65471.8
1005	2.000000	1.132389	7.37488e+06	-50389.1	1055.82	-29755.8	0.000000	0.000000	7.133610	23.1397	NaN	0.000000	0.001577	0.001746	28.0827	18.0707	0.001789	10101.8	5.797451	-177.449	22.9432	1.132131	0.019221	0.018964	23.1397	10101.8	0.017503	0.018770	1232.83	67366.5
1005	2.000000	1.134855	7.37488e+06	-50389.1	1055.82	-29755.8	0.000000	0.000000	7.136366	30.1722	NaN	0.000000	0.001574	0.001735	28.0821	20.7717	0.001725	12042.9	8.252675	-1.743517	27.8869	1.134542	0.021688	0.021375	30.1722	12042.9	0.019809	0.022242	1356.52	73775.5
1005	2.000000	1.137321	7.37488e+06	-50389.1	1055.82	-29755.8	0.000000	0.000000	7.138938	32.7634	NaN	0.000000	0.001580	0.001737	28.0817	22.6628	0.001757	12899.1	7.905889	178.598	30.7971	1.137039	0.024153	0.023872	32.7634	12899.1	0.022248	0.026199	1250.56	72810.1
1005	2.000000	1.139869	7.37488e+06	-50389.1	1055.82	-29755.8	0.000000	0.000000	7.141617	35.9404	NaN	0.000000	0.001590	0.001795	28.0819	25.3261	0.001865	13578.6	6.028552	0.281213	35.6613	1.139542	0.026701	0.026374	35.9404	13578.6	0.024716	0.030502	1178.31	71033.9
1005	2.000000	1.142342	7.37489e+06	-50389.1	1055.82	-29755.8	0.000000	0.000000	7.144483	45.4814	NaN	0.000000	0.001559	0.001753	28.0819	28.526	0.001868	15273.2	5.337591	179.614	44.6446	1.142028	0.029175	0.028860	45.4814	15273.2	0.026941	0.034642	1312.88	74972.3
1005	2.000000	1.144935	7.37489e+06	-50389.1	1055.82	-29755.8	0.000000	0.000000	7.147249	49.7061	NaN	0.000000	0.001580	0.001762	28.0818	29.7101	0.001751	16966.4	5.368994	-0.938557	50.7844	1.144572	0.031767	0.031404	49.7061	16966.4	0.029570	0.039857	1247.1	77644.4
1005	2.000000	1.147383	7.37489e+06	-50389.1	1055.82	-29755.8	0.000000	0.000000	7.150078	58.9777	NaN	0.000000	0.001557	0.001769	28.0815	31.871	0.001921	16591.6	4.052977	-178.664	59.223	1.147009	0.034215	0.033841	58.9777	16591.6	0.031549	0.044016	1339.92	72253.1
1005	2.000000	1.149842	7.37489e+06	-50389.1	1055.82	-29755.8	0.000000	0.000000	7.152873	67.1455	NaN	0.000000	0.001565	0.001769	28.0818	35.4504	0.001867	18990.3	7.717540	-4.250491	66.5816	1.149466	0.036675	0.036298	67.1455	18990.3	0.034023	0.049495	1356.6	77987.1
1005	2.000000	1.152328	7.37489e+06	-50389.1	1055.82	-29755.8	0.000000	0.000000	7.155635	73.8681	NaN	0.000000	0.001582	0.001781	28.082	37.4962	0.001792	20926.5	6.925590	175.413	74.6126	1.152067	0.039160	0.038900	73.8681	20926.5	0.036513	0.055327	1335.12	81283.1
1005	2.000000	1.154811	7.37489e+06	-50389.1	1055.82	-29755.8	0.000000	0.000000	7.158509	83.3512	NaN	0.000000	0.001609	0.001787	28.0819	38.4569	0.001751	21965.7	6.040423	-3.152991	78.9088	1.154389	0.041644	0.041222	83.3512	21965.7	0.038798	0.060958	1367.36	81283.7
1005	2.000000	1.157303	7.37489e+06	-50389.1	1055.82	-29755.8	0.000000	0.000000	7.161198	88.1578	NaN	0.000000	0.001569	0.001758	28.082	40.4535	0.001634	24755.2	0.703840	179.768	85.5448	1.157075	0.044135	0.043907	88.1578	24755.2	0.041465	0.067868	1298.96	86817.3
1005	2.000000	1.159851	7.37489e+06	-50389.1	1055.82	-29755.8	0.000000	0.000000	7.164097	96.6968	NaN	0.000000	0.001559	0.001778	28.082	44.7012	0.001857	24070.8	8.111249	-6.778118	97.2359	1.159492	0.046683	0.046325	96.6968	24070.8	0.043670	0.073858	1309.23	80921.9
1005	2.000000	1.162383	7.37489e+06	-50389.1	1055.82	-29755.8	0.000000	0.000000	7.167232	111.337	NaN	0.000000	0.001551	0.001771	28.0819	47.1859	0.001889	24974.9	6.397004	174.809	113.546	1.162026	0.049216	0.048859	111.337	24974.9	0.045872	0.080083	1390.27	80632
1005	2.000000	1.164856	7.37489e+06	-50389.1	1055.82	-29755.8	0.000000	0.000000	7.170217	123.81	NaN	0.000000	0.001553	0.001752	28.0819	48.2004	0.001850	26048.1	7.005175	-4.879324	124.816	1.164395	0.051689	0.051227	123.81	26048.1	0.048124	0.086702	1428	80823.1
1005	2.000000	1.167320	7.37489e+06	-50389.1	1055.82	-29755.8	0.000000	0.000000	7.173275	138.251	NaN	0.000000	0.001587	0.001728	28.0818	49.7231	0.001849	26892.3	5.299499	176.216	139.04	1.166922	0.054152	0.053754	138.251	26892.3	0.050297	0.093332	1481.28	80423.9
1005	2.000000	1.169881	7.37489e+06	-50389.1	1055.82	-29755.8	0.000000	0.000000	7.176205	147.225	NaN	0.000000	0.001602	0.001746	28.0834	53.279	0.001759	30292.7	7.218946	-6.856186	149.482	1.169408	0.056713	0.056241	147.225	30292.7	0.053068	0.102132	1441.52	86602.3
1005	2.000000	1.172312	7.37489e+06	-50389.1	1055.82	-29755.8	0.000000	0.000000	7.179141	159.5	NaN	0.000000	0.001612	0.001740	28.0832	56.2286	0.001841	30538.1	6.653151	173.094	157.149	1.172006	0.059144	0.058838	159.5	30538.1	0.055227	0.109251	1459.94	84411.5
1005	2.000000	1.174916	7.37489e+06	-50389.1	1055.82	-29755.8	0.000000	0.000000	7.182221	171.075	NaN	0.000000	0.001561	0.001751	28.0832	57.3673	0.001846	31071.5	3.980302	-3.775261	173.878	1.174439	0.061749	0.061272	171.075	31071.5	0.057619	0.117410	1457.07	82848
1005	2.000000	1.177334	7.37489e+06	-50389.1	1055.82	-29755.8	0.000000	0.000000	7.185075	181.672	NaN	0.000000	0.001566	0.001747	28.083	58.9566	0.001669	35326.8	1.949604	175.653	182.029	1.177043	0.064166	0.063876	181.672	35326.8	0.060309	0.126920	1431.39	90596.7
1005	2.000000	1.179730	7.37489e+06	-50389.1	1055.82	-29755.8	0.000000	0.000000	7.188255	200.733	NaN	0.000000	0.001587	0.001749	28.0834	61.6185	0.001750	35207	2.423565	-4.203350	195.764	1.179379	0.066563	0.066211	200.733	35207	0.062287	0.134135	1496.5	87827.6
1005	2.000000	1.182248	7.37489e+06	-50389.1	1055.82	-29755.8	0.000000	0.000000	7.191154	210.022	NaN	0.000000	0.001569	0.001746	28.0832	65.3143	0.001786	36572.4	2.940704	174.322	207.025	1.182081	0.069080	0.068914	210.022	36572.4	0.064773	0.143478	1463.79	88213
1005	2.000000	1.184815	7.37489e+06	-50389.1	1055.82	-29755.8	0.000000	0.000000	7.194354	225.399	NaN	0.000000	0.001605	0.001751	28.083	67.569	0.001768	38207.9	5.204437	-7.715991	223.112	1.184495	0.071648	0.071327	225.399	38207.9	0.067223	0.152976	1473.42	89251.3
1005	2.000000	1.187350	7.37489e+06	-50389.1	1055.82	-29755.8	0.000000	0.000000	7.197691	244.907	NaN	0.000000	0.001584	0.001740	28.0839	69.2285	0.001746	39659.2	2.902039	174.22	247.074	1.186951	0.074182	0.073783	244.907	39659.2	0.069551	0.162266	1509.29	89950.3
1005	2.000000	1.189759	7.37489e+06	-50389.1	1055.82	-29755.8	0.000000	0.000000	7.200551	255.862	NaN	0.000000	0.001592	0.001742	28.0832	73.7393	0.001921	38390.7	4.434574	-7.392735	251.251	1.189378	0.076592	0.076210	255.862	38390.7	0.071593	0.170630	1499.51	84912.4
1005	2.000000	1.192234	7.37489e+06	-50389.1	1055.82	-29755.8	0.000000	0.000000	7.203443	266.015	NaN	0.000000	0.001578	0.001731	28.0838	75.0487	0.001853	40504	5.557480	170.793	261.393	1.191951	0.079066	0.078784	266.015	40504	0.074141	0.181339	1466.95	86901.3
1005	2.000000	1.194804	7.37489e+06	-50389.1	1055.82	-29755.8	0.000000	0.000000	7.206930	288.316	NaN	0.000000	0.001559	0.001775	28.0832	76.7214	0.001749	43861.4	7.893174	-11.7454	285.411	1.194465	0.081637	0.081297	288.316	43861.4	0.076707	0.192435	1498.25	91351.1
1005	2.000000	1.197228	7.37489e+06	-50389.1	1055.82	-29755.8	0.000000	0.000000	7.210130	307.17	NaN	0.000000	0.001588	0.001766	28.0842	78.0455	0.001723	45302.9	2.294071	173.896	303.579	1.196920	0.084061	0.083752	307.17	45302.9	0.078976	0.202503	1516.86	91977.7
1005	2.000000	1.199756	7.37489e+06	-50389.1	1055.82	-29755.8	0.000000	0.000000	7.213319	323.272	NaN	0.000000	0.001579	0.001764	28.0831	80.6388	0.001668	48335.9	4.471318	-8.629948	319.136	1.199455	0.086589	0.086288	323.272	48335.9	0.081572	0.214323	1508.34	95391.3
1005	2.000000	1.202239	7.37489e+06	-50389.1	1055.82	-29755.8	0.000000	0.000000	7.216585	342.305	NaN	0.000000	0.001580	0.001762	28.0824	83.6082	0.001688	49541.7	2.839054	172.777	338.573	1.201903	0.089071	0.088736	342.305	49541.7	0.083889	0.225132	1520.46	95395
1005	2.000000	1.204744	7.37489e+06	-50389.1	1055.82	-29755.8	0.000000	0.000000	7.219980	363.937	NaN	0.000000	0.001602	0.001755	28.082	85.4398	0.001824	46843.4	1.994928	-5.187581	360.642	1.204390	0.091577	0.091223	363.937	46843.4	0.085750	0.233991	1555.35	88475.4
1005	2.000000	1.207275	7.37489e+06	-50389.1	1055.82	-29755.8	0.000000	0.000000	7.223032	376.625	NaN	0.000000	0.001593	0.001745	28.0823	87.7668	0.001766	49707.8	3.964696	171.684	377.887	1.206951	0.094107	0.093784	376.625	49707.8	0.088425	0.247009	1524.74	91377.9
1005	2.000000	1.209738	7.37489e+06	-50389.1	1055.82	-29755.8	0.000000	0.000000	7.225981	388.438	NaN	0.000000	0.001576	0.001760	28.082	89.711	0.001796	49947.1	1.336265	-5.695121	383.892	1.209376	0.096570	0.096209	388.438	49947.1	0.090737	0.258529	1502.49	89748.8
1005	2.000000	1.212323	7.37489e+06	-50389.1	1055.82	-29755.8	0.000000	0.000000	7.229477	410.592	NaN	0.000000	0.001564	0.001750	28.082	92.686	0.001848	50143.2	3.311518	172.174	411.881	1.211991	0.099155	0.098824	410.592	50143.2	0.093014	0.270110	1520.1	88148.6
1005	2.000000	1.214795	7.37489e+06	-50389.1	1055.82	-29755.8	0.000000	0.000000	7.232963	435.249	NaN	0.000000	0.001576	0.001756	28.0821	94.6138	0.001889	50093.3	7.275232	-11.5275	432.816	1.214413	0.101627	0.101245	435.249	50093.3	0.095111	0.280982	1549.03	86340.3
1005	2.000000	1.217150	7.37489e+06	-50389.1	1055.82	-29755.8	0.000000	0.000000	7.236137	455.169	NaN	0.000000	0.001607	0.001768	28.082	96.6181	0.001879	51425.3	6.711610	168.7	448.977	1.216860	0.103982	0.103693	455.169	51425.3	0.097344	0.292786	1554.61	86830.9
1005	2.000000	1.219650	7.37489e+06	-50389.1	1055.82	-29755.8	0.000000	0.000000	7.239830	484.188	NaN	0.000000	0.001605	0.001781	28.082	98.7853	0.001796	55003.5	6.389828	-10.759	475.236	1.219362	0.106482	0.106194	484.188	55003.5	0.099880	0.306464	1579.92	90776.6
1005	2.000000	1.220706	7.37489e+06	-50389.1	1055.82	-29755.8	0.000000	0.000000	7.240972	486.264	NaN	0.000000	0.001644	0.001742	28.0819	97.8538	0.001723	56776.7	0.290488	-5.607220	480.912	1.220503	0.107539	0.107335	486.264	56776.7	0.101116	0.313235	1552.39	92684.7