File: remote_trans/data/nanoindenter/0828-1/data/Data_2025-08-06,11h17m57s/2025-07-22_16-23-58_1_233.txt
2025-07-22, 16:23:58, 1
Index	Phase	Displacement	Time	Pos X	Pos Y	Pos Z	Rot A	Rot B	Piezo Z	Force A	Force B	Gripper	Voltage A	Voltage B	Temperature	Amplitude force	Amplitude pos	Stiffness	Phase shift	Phase excitation	Force A raw	Displacement raw	HMax	HMax raw	Real Force	Real Stiffness	Contact Depth	Area	Hardness	Reduced Mod.
[#]	[#]	[um]	[s]	[um]	[um]	[um]	[m°]	[m°]	[um]	[uN]	[uN]	[V]	[V]	[V]	[°C]	[uN]	[um]	[N/m]	[°]	[°]	[uN]	[um]	[um]	[um]	[uN]	[N/m]	[um]	[um^2]	[MPa]	[MPa]
233	1.000000	0.002896	7.36732e+06	-50289.1	955.82	-29756.3	0.000000	0.000000	6.002810	0.033521	NaN	0.000000	0.001701	0.001640	28.0802	0.157934	0.001004	157.252	134.909	-166.107	0.085416	0.001615	-1.210673	-1.211954	0.033521	157.252	-1.210833	-1.533902E+16	-2.185370E-18	NaN
233	1.000000	0.012943	7.36732e+06	-50289.1	955.818	-29756.3	0.000000	0.000000	6.012856	-0.021988	NaN	0.000000	0.001706	0.001679	28.0802	0.024630	0.001131	21.7813	-72.771	14.9542	0.065746	0.011516	-1.200626	-1.202053	-0.021988	21.7813	-1.199868	-1.093921E+16	2.010002E-18	NaN
233	1.000000	0.022872	7.36732e+06	-50289.1	955.819	-29756.3	0.000000	0.000000	6.022785	-0.012638	NaN	0.000000	0.001708	0.001616	28.0801	0.117902	0.001710	68.9424	133.068	-170.175	0.036548	0.021564	-1.190697	-1.192005	-0.012638	68.9424	-1.190559	-8.209488E+15	1.539470E-18	NaN
233	1.000000	0.032819	7.36732e+06	-50289.1	955.818	-29756.3	0.000000	0.000000	6.032732	-0.004965	NaN	0.000000	0.001706	0.001615	28.08	0.082591	0.001867	44.2362	-146.146	12.6719	-0.065367	0.031499	-1.180750	-1.182070	-0.004965	44.2362	-1.180666	-6.050478E+15	8.205693E-19	NaN
233	1.000000	0.042848	7.36732e+06	-50289.1	955.818	-29756.3	0.000000	0.000000	6.042766	0.107293	NaN	0.000000	0.001623	0.001579	28.0804	0.070957	0.001888	37.5918	7.831971	-164.738	0.079352	0.041455	-1.170721	-1.172114	0.107293	37.5918	-1.172862	-4.755864E+15	-2.256019E-17	NaN
233	1.000000	0.052850	7.36732e+06	-50289.1	955.819	-29756.3	0.000000	0.000000	6.052765	0.052957	NaN	0.000000	0.001584	0.001638	28.0801	0.099821	0.002005	49.7986	-26.3244	11.8998	0.039526	0.051515	-1.160719	-1.162054	0.052957	49.7986	-1.161517	-3.351159E+15	-1.580263E-17	NaN
233	1.000000	0.062848	7.36732e+06	-50289.1	955.818	-29756.4	0.000000	0.000000	6.062764	0.067801	NaN	0.000000	0.001575	0.001597	28.0801	0.047947	0.001931	24.8283	-144.776	-166.556	0.075259	0.061492	-1.150721	-1.152077	0.067801	24.8283	-1.152769	-2.558216E+15	-2.650308E-17	NaN
233	1.000000	0.072840	7.36732e+06	-50289.1	955.819	-29756.4	0.000000	0.000000	6.072755	0.022626	NaN	0.000000	0.001584	0.001629	28.0786	0.018106	0.002019	8.966492	-82.2786	16.9078	0.040673	0.071457	-1.140729	-1.142112	0.022626	8.966492	-1.142621	-1.870189E+15	-1.209818E-17	NaN
233	1.000000	0.082868	7.36732e+06	-50289.1	955.818	-29756.4	0.000000	0.000000	6.082782	0.031565	NaN	0.000000	0.001596	0.001660	28.0788	0.076625	0.001951	39.2797	58.2886	-162.048	0.002020	0.081537	-1.130701	-1.132032	0.031565	39.2797	-1.131304	-1.318591E+15	-2.393839E-17	NaN
233	1.000000	0.092857	7.36732e+06	-50289.1	955.818	-29756.4	0.000000	0.000000	6.092774	0.103191	NaN	0.000000	0.001578	0.001604	28.0785	0.051397	0.001890	27.1976	-135.924	13.7781	0.092850	0.091518	-1.120712	-1.122051	0.103191	27.1976	-1.123558	-1.038018E+15	-9.941129E-17	NaN
233	1.000000	0.102888	7.36732e+06	-50289.1	955.82	-29756.4	0.000000	0.000000	6.102805	0.087665	NaN	0.000000	0.001591	0.001583	28.0785	0.137754	0.001971	69.9074	163.108	-164.479	0.064728	0.101558	-1.110681	-1.112011	0.087665	69.9074	-1.111621	-7.178679E+14	-1.221187E-16	NaN
233	1.000000	0.112869	7.36732e+06	-50289.1	955.819	-29756.4	0.000000	0.000000	6.112783	0.029381	NaN	0.000000	0.001603	0.001608	28.0785	0.055530	0.002076	26.7422	135.192	16.2301	0.022110	0.111494	-1.100700	-1.102075	0.029381	26.7422	-1.101524	-5.254439E+14	-5.591744E-17	NaN
233	1.000000	0.122862	7.36732e+06	-50289.1	955.819	-29756.4	0.000000	0.000000	6.122778	0.062529	NaN	0.000000	0.001586	0.001618	28.0788	0.016940	0.002066	8.199089	-130.829	-166.057	0.028011	0.121553	-1.090707	-1.092016	0.062529	8.199089	-1.096427	-4.488454E+14	-1.393100E-16	NaN
233	1.000000	0.132872	7.36732e+06	-50289.1	955.818	-29756.4	0.000000	0.000000	6.132788	0.057148	NaN	0.000000	0.001660	0.001624	28.0786	0.100948	0.002017	50.0374	171.658	11.995	0.026262	0.131522	-1.080697	-1.082047	0.057148	50.0374	-1.081553	-2.833866E+14	-2.016615E-16	NaN
233	1.000000	0.142871	7.36732e+06	-50289.1	955.818	-29756.4	0.000000	0.000000	6.142787	0.057394	NaN	0.000000	0.001698	0.001631	28.079	0.050096	0.001990	25.1794	74.0843	-163.858	0.029574	0.141502	-1.070698	-1.072067	0.057394	25.1794	-1.072408	-2.135666E+14	-2.687386E-16	NaN
233	1.000000	0.152867	7.36732e+06	-50289.1	955.819	-29756.4	0.000000	0.000000	6.152778	-0.039936	NaN	0.000000	0.001639	0.001646	28.0789	0.083906	0.001904	44.0746	178.146	12.9023	-0.071739	0.151475	-1.060702	-1.062094	-0.039936	44.0746	-1.060023	-1.455878E+14	2.743109E-16	NaN
233	1.000000	0.162890	7.36732e+06	-50289.1	955.818	-29756.4	0.000000	0.000000	6.162807	0.083326	NaN	0.000000	0.001645	0.001589	28.079	0.059647	0.001980	30.1315	48.7147	-163.431	0.123729	0.161570	-1.050679	-1.051999	0.083326	30.1315	-1.052753	-1.162572E+14	-7.167373E-16	NaN
233	1.000000	0.172910	7.36732e+06	-50289.1	955.819	-29756.4	0.000000	0.000000	6.172824	0.029467	NaN	0.000000	0.001647	0.001622	28.0787	0.085040	0.002014	42.2211	53.799	15.9248	0.070917	0.171513	-1.040659	-1.042056	0.029467	42.2211	-1.041183	-8.125882E+13	-3.626265E-16	NaN
233	1.000000	0.182875	7.36732e+06	-50289.1	955.818	-29756.4	0.000000	0.000000	6.182791	0.064005	NaN	0.000000	0.001673	0.001655	28.0788	0.030171	0.002018	14.9485	-57.0218	-164.905	0.110269	0.181599	-1.030694	-1.031970	0.064005	14.9485	-1.033905	-6.486428E+13	-9.867458E-16	NaN
233	1.000000	0.192893	7.36732e+06	-50289.1	955.819	-29756.4	0.000000	0.000000	6.192807	0.017458	NaN	0.000000	0.001674	0.001597	28.079	0.073394	0.001922	38.1927	-113.485	13.6988	0.021857	0.191518	-1.020676	-1.022051	0.017458	38.1927	-1.021019	-4.351671E+13	-4.011698E-16	NaN
233	1.000000	0.202857	7.36732e+06	-50289.1	955.818	-29756.4	0.000000	0.000000	6.202774	0.084855	NaN	0.000000	0.001684	0.001635	28.0795	0.134227	0.001992	67.37	25.4632	-163.92	0.065353	0.201545	-1.010712	-1.012024	0.084855	67.37	-1.011657	-3.255975E+13	-2.606134E-15	NaN
233	1.000000	0.212913	7.36732e+06	-50289.1	955.818	-29756.4	0.000000	0.000000	6.212827	0.017630	NaN	0.000000	0.001648	0.001591	28.0804	0.083076	0.002036	40.8057	-83.464	14.424	-0.010212	0.211522	-1.000656	-1.002047	0.017630	40.8057	-1.000980	-2.338637E+13	-7.538656E-16	NaN
233	1.000000	0.222926	7.36732e+06	-50289.1	955.818	-29756.4	0.000000	0.000000	6.222842	0.056746	NaN	0.000000	0.001650	0.001597	28.0802	0.124839	0.002133	58.5209	133.442	-167.788	0.163350	0.221575	-0.990643	-0.991994	0.056746	58.5209	-0.991370	-1.736061E+13	-3.268659E-15	NaN
233	1.000000	0.232900	7.36732e+06	-50289.1	955.819	-29756.4	0.000000	0.000000	6.232814	0.012377	NaN	0.000000	0.001666	0.001618	28.0805	0.046626	0.002004	23.2711	40.4593	11.6918	0.046317	0.231546	-0.980669	-0.982023	0.012377	23.2711	-0.981068	-1.261227E+13	-9.813485E-16	NaN
233	1.000000	0.242906	7.36732e+06	-50289.1	955.818	-29756.4	0.000000	0.000000	6.242819	0.016360	NaN	0.000000	0.001641	0.001604	28.0802	0.098446	0.001935	50.8648	10.3063	-167.387	0.004461	0.241602	-0.970663	-0.971967	0.016360	50.8648	-0.970905	-9.201425E+12	-1.777945E-15	NaN
233	1.000000	0.252924	7.36732e+06	-50289.1	955.819	-29756.4	0.000000	0.000000	6.252840	0.062042	NaN	0.000000	0.001604	0.001611	28.0799	0.132545	0.001991	66.5622	-82.6847	12.6358	0.063047	0.251574	-0.960645	-0.961995	0.062042	66.5622	-0.961344	-6.838953E+12	-9.071811E-15	NaN
233	1.000000	0.262932	7.36732e+06	-50289.1	955.819	-29756.4	0.000000	0.000000	6.262845	0.009883	NaN	0.000000	0.001592	0.001641	28.0804	0.055276	0.002069	26.7169	166.243	-163.179	0.020441	0.261601	-0.950637	-0.951968	0.009883	26.7169	-0.950915	-4.947230E+12	-1.997719E-15	NaN
233	1.000000	0.272912	7.36732e+06	-50289.1	955.819	-29756.4	0.000000	0.000000	6.272828	0.061606	NaN	0.000000	0.001570	0.001648	28.0799	0.048463	0.001983	24.4434	86.2883	14.3976	0.020385	0.271546	-0.940657	-0.942023	0.061606	24.4434	-0.942547	-3.815027E+12	-1.614827E-14	NaN
233	1.000000	0.282942	7.36732e+06	-50289.1	955.817	-29756.4	0.000000	0.000000	6.282853	-0.045359	NaN	0.000000	0.001593	0.001603	28.0799	0.022567	0.001971	11.4466	32.9472	-168.922	-0.073541	0.281593	-0.930627	-0.931976	-0.045359	11.4466	-0.927655	-2.401876E+12	1.888468E-14	NaN
233	1.000000	0.292912	7.36732e+06	-50289.1	955.819	-29756.4	0.000000	0.000000	6.292830	0.121274	NaN	0.000000	0.001591	0.001639	28.0797	0.105055	0.002101	50.0053	107.985	15.771	0.103170	0.291510	-0.920657	-0.922059	0.121274	50.0053	-0.922476	-2.044734E+12	-5.931048E-14	NaN
233	1.000000	0.302936	7.36732e+06	-50289.1	955.818	-29756.4	0.000000	0.000000	6.302852	0.050308	NaN	0.000000	0.001608	0.001606	28.08	0.027812	0.002021	13.762	-106.498	-162.902	0.029439	0.301617	-0.910633	-0.911952	0.050308	13.762	-0.913374	-1.540761E+12	-3.265164E-14	NaN
233	1.000000	0.312923	7.36732e+06	-50289.1	955.818	-29756.4	0.000000	0.000000	6.312841	0.119670	NaN	0.000000	0.001571	0.001664	28.0796	0.030581	0.001928	15.8589	-33.7957	14.5948	0.073061	0.311577	-0.900646	-0.901992	0.119670	15.8589	-0.906306	-1.236693E+12	-9.676600E-14	NaN
233	1.000000	0.322971	7.36732e+06	-50289.1	955.819	-29756.4	0.000000	0.000000	6.322884	0.013875	NaN	0.000000	0.001562	0.001616	28.0796	0.022051	0.002110	10.4491	-107.345	-163.267	-0.004795	0.321613	-0.890598	-0.891956	0.013875	10.4491	-0.891594	-7.824697E+11	-1.773263E-14	NaN
233	1.000000	0.332946	7.36732e+06	-50289.1	955.819	-29756.4	0.000000	0.000000	6.332860	0.013968	NaN	0.000000	0.001573	0.001628	28.0797	0.062244	0.002081	29.9101	-168.548	16.1579	-0.045427	0.331629	-0.880623	-0.881940	0.013968	29.9101	-0.880973	-5.621697E+11	-2.484674E-14	NaN
233	1.000000	0.342970	7.36733e+06	-50289.1	955.818	-29756.4	0.000000	0.000000	6.342888	0.117717	NaN	0.000000	0.001574	0.001593	28.0785	0.047760	0.002019	23.6508	170.962	-163.698	0.092529	0.341659	-0.870599	-0.871910	0.117717	23.6508	-0.874332	-4.571353E+11	-2.575097E-13	NaN
233	1.000000	0.352992	7.36733e+06	-50289.1	955.817	-29756.4	0.000000	0.000000	6.352908	0.071003	NaN	0.000000	0.001597	0.001573	28.0783	0.006463	0.001995	3.240037	44.3654	13.4208	0.117933	0.351605	-0.860577	-0.861964	0.071003	3.240037	-0.877013	-4.969431E+11	-1.428804E-13	NaN
233	1.000000	0.362930	7.36733e+06	-50289.1	955.819	-29756.4	0.000000	0.000000	6.362846	0.077578	NaN	0.000000	0.001530	0.001586	28.0784	0.103797	0.002085	49.7725	131.66	-167.851	0.051788	0.361678	-0.850639	-0.851891	0.077578	49.7725	-0.851808	-2.265815E+11	-3.423824E-13	NaN
233	1.000000	0.372984	7.36733e+06	-50289.1	955.82	-29756.4	0.000000	0.000000	6.372901	0.085224	NaN	0.000000	0.001551	0.001601	28.0786	0.080942	0.001913	42.3037	10.1426	13.7064	0.059807	0.371590	-0.840585	-0.841979	0.085224	42.3037	-0.842096	-1.673740E+11	-5.091808E-13	NaN
233	1.000000	0.382986	7.36733e+06	-50289.1	955.819	-29756.4	0.000000	0.000000	6.382903	0.080228	NaN	0.000000	0.001542	0.001616	28.0785	0.061358	0.002091	29.344	-156.75	-166.19	0.104706	0.381638	-0.830583	-0.831931	0.080228	29.344	-0.832634	-1.245883E+11	-6.439464E-13	NaN
233	1.000000	0.392970	7.36733e+06	-50289.1	955.818	-29756.4	0.000000	0.000000	6.392883	-0.004703	NaN	0.000000	0.001564	0.001601	28.0787	0.055795	0.002026	27.5341	71.7771	14.5044	0.002953	0.391618	-0.820599	-0.821951	-0.004703	27.5341	-0.820471	-8.523171E+10	5.517914E-14	NaN
233	1.000000	0.402984	7.36733e+06	-50289.1	955.819	-29756.4	0.000000	0.000000	6.402899	0.037874	NaN	0.000000	0.001614	0.001682	28.0787	0.046298	0.001921	24.0981	83.1833	-166.86	0.047944	0.401672	-0.810585	-0.811897	0.037874	24.0981	-0.811764	-6.493809E+10	-5.832297E-13	NaN
233	1.000000	0.413002	7.36733e+06	-50289.1	955.819	-29756.4	0.000000	0.000000	6.412915	-0.012697	NaN	0.000000	0.001601	0.001694	28.0787	0.047560	0.002036	23.3575	12.767	15.6738	-0.008659	0.411637	-0.800567	-0.801932	-0.012697	23.3575	-0.800159	-4.518775E+10	2.809930E-13	NaN
233	1.000000	0.422982	7.36733e+06	-50289.1	955.818	-29756.4	0.000000	0.000000	6.422898	0.075436	NaN	0.000000	0.001570	0.001684	28.0784	0.123381	0.001887	65.3749	20.9426	-166.521	0.140292	0.421691	-0.790587	-0.791878	0.075436	65.3749	-0.791452	-3.441973E+10	-2.191643E-12	NaN
233	1.000000	0.432990	7.36733e+06	-50289.1	955.818	-29756.4	0.000000	0.000000	6.432908	0.123860	NaN	0.000000	0.001582	0.001691	28.0785	0.061720	0.001888	32.6888	-109.308	16.7466	0.079295	0.431651	-0.780579	-0.781918	0.123860	32.6888	-0.783421	-2.677394E+10	-4.626155E-12	NaN
233	1.000000	0.443001	7.36733e+06	-50289.1	955.818	-29756.4	0.000000	0.000000	6.442916	0.046690	NaN	0.000000	0.001564	0.001675	28.0786	0.059978	0.002069	28.9912	-43.5064	-165.733	0.024659	0.441699	-0.770568	-0.771870	0.046690	28.9912	-0.771776	-1.859712E+10	-2.510613E-12	NaN
233	1.000000	0.453009	7.36733e+06	-50289.1	955.818	-29756.4	0.000000	0.000000	6.452923	0.019389	NaN	0.000000	0.001554	0.001692	28.079	0.147530	0.002114	69.7963	161.502	18.8272	0.055531	0.451645	-0.760560	-0.761924	0.019389	69.7963	-0.760768	-1.317509E+10	-1.471620E-12	NaN
233	1.000000	0.463013	7.36733e+06	-50289.1	955.819	-29756.4	0.000000	0.000000	6.462926	-0.000626	NaN	0.000000	0.001578	0.001651	28.0786	0.047335	0.001927	24.5641	146.356	-164.311	-0.079471	0.461697	-0.750556	-0.751872	-0.000626	24.5641	-0.750537	-9.561575E+9	6.544354E-14	NaN
233	1.000000	0.473008	7.36733e+06	-50289.1	955.819	-29756.4	0.000000	0.000000	6.472923	0.053547	NaN	0.000000	0.001588	0.001694	28.079	0.059108	0.002063	28.6465	-173.399	12.464	0.105015	0.471612	-0.740561	-0.741957	0.053547	28.6465	-0.741963	-7.307849E+9	-7.327322E-12	NaN
233	1.000000	0.483035	7.36733e+06	-50289.1	955.819	-29756.4	0.000000	0.000000	6.482948	-0.004745	NaN	0.000000	0.001575	0.001694	28.08	0.031132	0.002082	14.9524	-131.711	-170.667	-0.008906	0.481723	-0.730534	-0.731846	-0.004745	14.9524	-0.730296	-5.068016E+9	9.363259E-13	NaN
233	1.000000	0.493045	7.36733e+06	-50289.1	955.818	-29756.4	0.000000	0.000000	6.492959	0.010281	NaN	0.000000	0.001577	0.001681	28.0803	0.081068	0.001957	41.4218	-100.709	16.3244	0.009844	0.491679	-0.720524	-0.721890	0.010281	41.4218	-0.720710	-3.751074E+9	-2.740749E-12	NaN
233	1.000000	0.503041	7.36733e+06	-50289.1	955.819	-29756.4	0.000000	0.000000	6.502955	0.025973	NaN	0.000000	0.001548	0.001702	28.0799	0.090424	0.001975	45.7867	-120.635	-169.127	0.106459	0.501725	-0.710528	-0.711844	0.025973	45.7867	-0.710954	-2.760988E+9	-9.406975E-12	NaN
233	1.000000	0.513025	7.36733e+06	-50289.1	955.818	-29756.4	0.000000	0.000000	6.512941	0.073994	NaN	0.000000	0.001622	0.001701	28.0802	0.084612	0.002128	39.7664	-28.3959	11.5204	0.064644	0.511681	-0.700544	-0.701888	0.073994	39.7664	-0.701940	-2.079775E+9	-3.557793E-11	NaN
233	1.000000	0.523025	7.36733e+06	-50289.1	955.818	-29756.4	0.000000	0.000000	6.522941	0.074416	NaN	0.000000	0.001643	0.001632	28.0799	0.026629	0.002032	13.1075	29.6108	-163.843	0.097111	0.521733	-0.690544	-0.691836	0.074416	13.1075	-0.694802	-1.661614E+9	-4.478538E-11	NaN
233	1.000000	0.533023	7.36733e+06	-50289.1	955.818	-29756.4	0.000000	0.000000	6.532941	0.098671	NaN	0.000000	0.001636	0.001671	28.0802	0.098705	0.001893	52.1438	-167.023	14.7599	0.006914	0.531682	-0.680546	-0.681887	0.098671	52.1438	-0.681965	-1.109367E+9	-8.894362E-11	NaN
233	1.000000	0.543048	7.36733e+06	-50289.1	955.819	-29756.4	0.000000	0.000000	6.542965	0.074244	NaN	0.000000	0.001618	0.001685	28.0797	0.036017	0.001892	19.0391	70.5123	-167.279	0.030841	0.541736	-0.670521	-0.671833	0.074244	19.0391	-0.673445	-8.482794E+8	-8.752271E-11	NaN
233	1.000000	0.553077	7.36733e+06	-50289.1	955.818	-29756.4	0.000000	0.000000	6.552990	0.007739	NaN	0.000000	0.001613	0.001707	28.0802	0.045970	0.001938	23.7145	-159.85	15.3918	-0.080588	0.551652	-0.660492	-0.661917	0.007739	23.7145	-0.660737	-5.682856E+8	-1.361870E-11	NaN
233	1.000000	0.563059	7.36733e+06	-50289.1	955.817	-29756.4	0.000000	0.000000	6.562975	0.062442	NaN	0.000000	0.001669	0.001583	28.08	0.114830	0.001925	59.6462	-172.384	-162.965	0.081299	0.561706	-0.650510	-0.651863	0.062442	59.6462	-0.651295	-4.218780E+8	-1.480091E-10	NaN
233	1.000000	0.573066	7.36733e+06	-50289.1	955.819	-29756.4	0.000000	0.000000	6.572981	0.021782	NaN	0.000000	0.001631	0.001573	28.0803	0.040776	0.001912	21.3214	-72.1415	12.862	0.044569	0.571717	-0.640503	-0.641852	0.021782	21.3214	-0.641269	-3.073951E+8	-7.085921E-11	NaN
233	1.000000	0.583033	7.36733e+06	-50289.1	955.819	-29756.4	0.000000	0.000000	6.582946	-0.006072	NaN	0.000000	0.001612	0.001611	28.08	0.151705	0.002139	70.9206	-119.074	-166.91	0.006573	0.581771	-0.630536	-0.631798	-0.006072	70.9206	-0.630471	-2.185227E+8	2.778855E-11	NaN
233	1.000000	0.593066	7.36733e+06	-50289.1	955.818	-29756.4	0.000000	0.000000	6.592981	0.037528	NaN	0.000000	0.001644	0.001604	28.08	0.084001	0.001991	42.1798	79.6079	15.0295	0.024508	0.591648	-0.620503	-0.621921	0.037528	42.1798	-0.621170	-1.628249E+8	-2.304837E-10	NaN
233	1.000000	0.603070	7.36733e+06	-50289.1	955.818	-29756.4	0.000000	0.000000	6.602986	0.072799	NaN	0.000000	0.001675	0.001602	28.08	0.071795	0.001911	37.572	96.2217	-161.866	0.096171	0.601743	-0.610499	-0.611826	0.072799	37.572	-0.611953	-1.216124E+8	-5.986144E-10	NaN
233	1.000000	0.613075	7.36733e+06	-50289.1	955.818	-29756.4	0.000000	0.000000	6.612988	-0.009207	NaN	0.000000	0.001665	0.001613	28.0796	0.036751	0.002011	18.2781	123.084	14.1597	0.022901	0.611695	-0.600494	-0.601874	-0.009207	18.2781	-0.600116	-8.357193E+7	1.101631E-10	NaN
233	1.000000	0.623061	7.36733e+06	-50289.1	955.819	-29756.4	0.000000	0.000000	6.622976	0.053670	NaN	0.000000	0.001648	0.001596	28.0786	0.072421	0.002218	32.6562	62.0121	-164.276	0.097077	0.621798	-0.590508	-0.591771	0.053670	32.6562	-0.591741	-6.407101E+7	-8.376626E-10	NaN
233	1.000000	0.633082	7.36733e+06	-50289.1	955.818	-29756.4	0.000000	0.000000	6.632997	0.051237	NaN	0.000000	0.001623	0.001585	28.0789	0.049387	0.001903	25.947	158.67	12.8568	0.042088	0.631741	-0.580487	-0.581828	0.051237	25.947	-0.581968	-4.697694E+7	-1.090675E-9	NaN
233	1.000000	0.643086	7.36733e+06	-50289.1	955.818	-29756.4	0.000000	0.000000	6.642999	-0.010407	NaN	0.000000	0.001629	0.001630	28.0787	0.060610	0.002077	29.1884	-3.203976	-166.546	0.029163	0.641750	-0.570483	-0.571819	-0.010407	29.1884	-0.570215	-3.233024E+7	3.218968E-10	NaN
233	1.000000	0.653093	7.36733e+06	-50289.1	955.82	-29756.4	0.000000	0.000000	6.653006	-0.000800	NaN	0.000000	0.001566	0.001635	28.0785	0.050868	0.002073	24.5356	17.4846	15.0154	-0.011285	0.651765	-0.560476	-0.561804	-0.000800	24.5356	-0.560451	-2.369307E+7	3.378516E-11	NaN
233	1.000000	0.663103	7.36733e+06	-50289.1	955.818	-29756.4	0.000000	0.000000	6.663017	0.019044	NaN	0.000000	0.001582	0.001616	28.0786	0.046723	0.001976	23.6399	-114.4	-164.505	0.066111	0.661777	-0.550466	-0.551792	0.019044	23.6399	-0.551070	-1.756999E+7	-1.083893E-9	NaN
233	1.000000	0.673091	7.36733e+06	-50289.1	955.818	-29756.4	0.000000	0.000000	6.673007	0.060059	NaN	0.000000	0.001537	0.001562	28.0789	0.096751	0.002030	47.6501	66.8624	15.2637	0.021611	0.671747	-0.540478	-0.541822	0.060059	47.6501	-0.541423	-1.291506E+7	-4.650306E-9	NaN
233	1.000000	0.683094	7.36733e+06	-50289.1	955.818	-29756.4	0.000000	0.000000	6.683007	-0.010319	NaN	0.000000	0.001597	0.001588	28.079	0.028163	0.002004	14.0535	-35.7941	-167.715	-0.029889	0.681822	-0.530475	-0.531747	-0.010319	14.0535	-0.529924	-8.94387e+06	1.153706E-9	NaN
233	1.000000	0.693087	7.36733e+06	-50289.1	955.819	-29756.4	0.000000	0.000000	6.693003	0.074551	NaN	0.000000	0.001580	0.001599	28.0789	0.044597	0.002047	21.7903	-128.469	16.422	0.067234	0.691784	-0.520482	-0.521785	0.074551	21.7903	-0.523048	-7.17766e+06	-1.038651E-8	NaN
233	1.000000	0.703115	7.36733e+06	-50289.1	955.818	-29756.4	0.000000	0.000000	6.703027	-0.025465	NaN	0.000000	0.001617	0.001614	28.0788	0.070087	0.001930	36.3166	123.159	-164.249	-0.063682	0.701822	-0.510454	-0.511747	-0.025465	36.3166	-0.509928	-4.71432e+06	5.401703E-9	NaN
233	1.000000	0.713079	7.36733e+06	-50289.1	955.819	-29756.4	0.000000	0.000000	6.712993	0.016938	NaN	0.000000	0.001558	0.001565	28.0791	0.040755	0.001995	20.4286	-109.405	13.9475	0.013102	0.711787	-0.500490	-0.501782	0.016938	20.4286	-0.501111	-3.5524e+06	-4.768169E-9	NaN
233	1.000000	0.723122	7.36733e+06	-50289.1	955.818	-29756.4	0.000000	0.000000	6.723037	0.029876	NaN	0.000000	0.001577	0.001581	28.0789	0.049189	0.001976	24.8955	129.714	-167.079	0.076757	0.721803	-0.490447	-0.491766	0.029876	24.8955	-0.491347	-2.59545e+06	-1.151107E-8	NaN
233	1.000000	0.733134	7.36733e+06	-50289.1	955.82	-29756.4	0.000000	0.000000	6.733049	0.047699	NaN	0.000000	0.001600	0.001585	28.0789	0.057581	0.001953	29.4808	-179.459	16.3214	0.078966	0.731783	-0.480435	-0.481786	0.047699	29.4808	-0.481649	-1.89934e+06	-2.511367E-8	NaN
233	1.000000	0.743147	7.36733e+06	-50289.1	955.819	-29756.4	0.000000	0.000000	6.743064	0.095215	NaN	0.000000	0.001608	0.001532	28.0792	0.032959	0.002135	15.4405	-10.3907	-165.301	0.136369	0.741838	-0.470422	-0.471731	0.095215	15.4405	-0.475047	-1.53516e+06	-6.202289E-8	NaN
233	1.000000	0.753138	7.36733e+06	-50289.1	955.818	-29756.4	0.000000	0.000000	6.753054	0.060192	NaN	0.000000	0.001614	0.001563	28.0806	0.005209	0.002105	2.474587	-23.4426	11.9058	0.119764	0.751762	-0.460431	-0.461807	0.060192	2.474587	-0.478674	-1.72569e+06	-3.488023E-8	NaN
233	1.000000	0.763156	7.36733e+06	-50289.1	955.819	-29756.4	0.000000	0.000000	6.763071	0.049989	NaN	0.000000	0.001650	0.001527	28.0804	0.105489	0.002007	52.564	146.337	-165.348	0.067086	0.761806	-0.450413	-0.451763	0.049989	52.564	-0.451126	-708277	-7.057830E-8	NaN
233	1.000000	0.773163	7.36733e+06	-50289.1	955.819	-29756.4	0.000000	0.000000	6.773076	0.004422	NaN	0.000000	0.001670	0.001566	28.0804	0.047838	0.001837	26.0398	-45.1433	15.7063	-0.024147	0.771764	-0.440406	-0.441805	0.004422	26.0398	-0.440534	-502221	-8.804672E-9	NaN
233	1.000000	0.783118	7.36733e+06	-50289.1	955.818	-29756.4	0.000000	0.000000	6.783031	0.016130	NaN	0.000000	0.001632	0.001620	28.0803	0.084743	0.002038	41.5792	154.71	-165.514	-0.028063	0.781838	-0.430451	-0.431731	0.016130	41.5792	-0.430742	-365227	-4.416314E-8	NaN
233	1.000000	0.793124	7.36733e+06	-50289.1	955.818	-29756.4	0.000000	0.000000	6.793038	0.011150	NaN	0.000000	0.001655	0.001614	28.0805	0.060980	0.002077	29.3655	-161.462	11.7108	-0.090943	0.791768	-0.420445	-0.421801	0.011150	29.3655	-0.420730	-263488	-4.231509E-8	NaN
233	1.000000	0.803156	7.36733e+06	-50289.1	955.819	-29756.4	0.000000	0.000000	6.803071	0.033941	NaN	0.000000	0.001628	0.001565	28.0803	0.028004	0.002113	13.2543	-119.657	-161.014	0.085274	0.801845	-0.410413	-0.411724	0.033941	13.2543	-0.412334	-200251	-1.694945E-7	NaN
233	1.000000	0.813152	7.36733e+06	-50289.1	955.819	-29756.4	0.000000	0.000000	6.813064	-0.043682	NaN	0.000000	0.001662	0.001592	28.08	0.011734	0.002003	5.858928	119.075	12.8995	-0.117675	0.811767	-0.400417	-0.401802	-0.043682	5.858928	-0.394825	-112756	3.874061E-7	NaN
233	1.000000	0.823142	7.36733e+06	-50289.1	955.818	-29756.4	0.000000	0.000000	6.823054	-0.011234	NaN	0.000000	0.001611	0.001665	28.0805	0.064829	0.001923	33.7093	-171.339	-164.114	0.032721	0.821881	-0.390427	-0.391688	-0.011234	33.7093	-0.390177	-96762.2	1.161014E-7	NaN
233	1.000000	0.833172	7.36733e+06	-50289.1	955.82	-29756.4	0.000000	0.000000	6.833086	0.012376	NaN	0.000000	0.001632	0.001536	28.0803	0.066177	0.001994	33.1884	-94.2673	13.5863	0.041002	0.831809	-0.380397	-0.381760	0.012376	33.1884	-0.380676	-70728.3	-1.749831E-7	NaN
233	1.000000	0.843185	7.36733e+06	-50289.1	955.819	-29756.4	0.000000	0.000000	6.843100	0.048352	NaN	0.000000	0.001670	0.001597	28.0802	0.071338	0.001916	37.2382	-103.399	-165.117	0.069618	0.841860	-0.370384	-0.371709	0.048352	37.2382	-0.371358	-51961.3	-9.305327E-7	NaN
233	1.000000	0.853199	7.36733e+06	-50289.1	955.818	-29756.4	0.000000	0.000000	6.853115	0.049184	NaN	0.000000	0.001628	0.001594	28.0802	0.106785	0.001980	53.9407	-81.5772	13.5353	0.080793	0.851849	-0.360370	-0.361720	0.049184	53.9407	-0.361054	-36903.9	-1.332770E-6	NaN
233	1.000000	0.863167	7.36733e+06	-50289.1	955.818	-29756.4	0.000000	0.000000	6.863083	0.059119	NaN	0.000000	0.001657	0.001575	28.0807	0.082416	0.001961	42.0225	-135.825	-168.886	0.086728	0.861913	-0.350402	-0.351656	0.059119	42.0225	-0.351457	-26800.7	-2.205891E-6	NaN
233	1.000000	0.873194	7.36733e+06	-50289.1	955.819	-29756.4	0.000000	0.000000	6.873105	-0.050503	NaN	0.000000	0.001640	0.001575	28.0802	0.093471	0.002114	44.2093	-161.171	13.8927	-0.087503	0.871800	-0.340375	-0.341769	-0.050503	44.2093	-0.339518	-17969.4	2.810501E-6	NaN
233	1.000000	0.883216	7.36733e+06	-50289.1	955.819	-29756.4	0.000000	0.000000	6.883132	0.076742	NaN	0.000000	0.001634	0.001572	28.0802	0.134246	0.001995	67.2971	-74.0193	-166.809	0.079729	0.881844	-0.330353	-0.331725	0.076742	67.2971	-0.331208	-13587.6	-5.647920E-6	NaN
233	1.000000	0.893174	7.36733e+06	-50289.1	955.818	-29756.4	0.000000	0.000000	6.893090	0.057906	NaN	0.000000	0.001627	0.001579	28.0789	0.076062	0.002076	36.6465	90.1316	9.663705	0.119449	0.891865	-0.320395	-0.321704	0.057906	36.6465	-0.321580	-9814.85	-5.899803E-6	NaN
233	1.000000	0.903227	7.36733e+06	-50289.1	955.818	-29756.4	0.000000	0.000000	6.903141	0.020089	NaN	0.000000	0.001615	0.001537	28.0791	0.081050	0.002084	38.8901	156.587	-164.972	-0.025614	0.901891	-0.310342	-0.311678	0.020089	38.8901	-0.310730	-6789.72	-2.958692E-6	NaN
233	1.000000	0.913178	7.36733e+06	-50289.1	955.819	-29756.4	0.000000	0.000000	6.913091	0.002015	NaN	0.000000	0.001641	0.001569	28.0791	0.050933	0.001941	26.2414	-130.856	14.927	0.096578	0.911842	-0.300391	-0.301728	0.002015	26.2414	-0.300449	-4778.81	-4.216312E-7	NaN
233	1.000000	0.923186	7.36733e+06	-50289.1	955.818	-29756.4	0.000000	0.000000	6.923100	0.027189	NaN	0.000000	0.001647	0.001568	28.0791	0.057922	0.002144	27.0187	145.913	-163.124	0.036132	0.921937	-0.290383	-0.291632	0.027189	27.0187	-0.291138	-3470.13	-7.835204E-6	NaN
233	1.000000	0.933213	7.36733e+06	-50289.1	955.819	-29756.4	0.000000	0.000000	6.933127	0.012556	NaN	0.000000	0.001633	0.001545	28.079	0.063712	0.002004	31.7886	58.5636	18.6103	0.052529	0.931858	-0.280356	-0.281711	0.012556	31.7886	-0.280652	-2414.38	-5.200506E-6	NaN
233	1.000000	0.943198	7.36733e+06	-50289.1	955.818	-29756.4	0.000000	0.000000	6.943111	0.002242	NaN	0.000000	0.001632	0.001577	28.0791	0.030110	0.002111	14.2602	94.8277	-170.701	0.007247	0.941933	-0.270371	-0.271636	0.002242	14.2602	-0.270489	-1694.24	-1.323343E-6	NaN
233	1.000000	0.953225	7.36733e+06	-50289.1	955.818	-29756.4	0.000000	0.000000	6.953139	0.012012	NaN	0.000000	0.001612	0.001535	28.079	0.042467	0.002114	20.092	27.8076	12.3211	-0.008260	0.951845	-0.260344	-0.261724	0.012012	20.092	-0.260792	-1205.18	-9.967200E-6	NaN
233	1.000000	0.963221	7.36733e+06	-50289.1	955.818	-29756.4	0.000000	0.000000	6.963135	0.017973	NaN	0.000000	0.001685	0.001576	28.0791	0.012645	0.001952	6.477478	42.016	-167.698	0.021872	0.961912	-0.250348	-0.251657	0.017973	6.477478	-0.252429	-896.365	-2.005133E-5	NaN
233	1.000000	0.973211	7.36733e+06	-50289.1	955.816	-29756.4	0.000000	0.000000	6.973124	-0.000124	NaN	0.000000	0.001705	0.001588	28.0792	0.081339	0.002044	39.7852	-176.049	13.2841	0.044323	0.971813	-0.240358	-0.241756	-0.000124	39.7852	-0.240356	-582.255	2.127861E-7	NaN
233	1.000000	0.983237	7.36733e+06	-50289.1	955.818	-29756.4	0.000000	0.000000	6.983152	0.034128	NaN	0.000000	0.001710	0.001598	28.079	0.128450	0.002073	61.9628	7.325992	-166.786	0.053143	0.981925	-0.230332	-0.231644	0.034128	61.9628	-0.230745	-411.41	-8.295308E-5	NaN
233	1.000000	0.993244	7.36733e+06	-50289.1	955.817	-29756.4	0.000000	0.000000	6.993157	0.010956	NaN	0.000000	0.001702	0.001643	28.079	0.058713	0.001974	29.7368	154.59	12.585	0.058027	0.991877	-0.220325	-0.221692	0.010956	29.7368	-0.220602	-283.979	-3.858148E-5	NaN
233	1.000000	1.003222	7.36733e+06	-50289.1	955.818	-29756.4	0.000000	0.000000	7.003136	0.038278	NaN	0.000000	0.001728	0.001620	28.0789	0.038827	0.002088	18.5919	117.779	-163.424	0.027698	1.001925	-0.210347	-0.211644	0.038278	18.5919	-0.211892	-205.784	-0.000186	NaN
233	1.000000	1.013259	7.36733e+06	-50289.1	955.818	-29756.4	0.000000	0.000000	7.013176	0.085426	NaN	0.000000	0.001718	0.001625	28.0798	0.114287	0.001898	60.211	46.0633	16.7024	-0.018311	1.011952	-0.200310	-0.201617	0.085426	60.211	-0.201374	-138.757	-0.000616	NaN
233	1.000000	1.023254	7.36733e+06	-50289.1	955.818	-29756.4	0.000000	0.000000	7.023169	0.045433	NaN	0.000000	0.001703	0.001627	28.0796	0.131847	0.001906	69.1826	-169.144	-164.859	0.019076	1.021930	-0.190315	-0.191639	0.045433	69.1826	-0.190808	-92.7922	-0.000490	NaN
233	1.000000	1.033245	7.36733e+06	-50289.1	955.819	-29756.4	0.000000	0.000000	7.033161	0.057002	NaN	0.000000	0.001700	0.001611	28.0802	0.055287	0.001983	27.8765	68.2668	15.708	0.029242	1.031871	-0.180324	-0.181698	0.057002	27.8765	-0.181857	-65.6163	-0.000869	NaN
233	1.000000	1.043236	7.36733e+06	-50289.1	955.818	-29756.4	0.000000	0.000000	7.043149	-0.029082	NaN	0.000000	0.001712	0.001649	28.0804	0.016881	0.001966	8.587447	-114.544	-167.791	-0.069206	1.041925	-0.170333	-0.171644	-0.029082	8.587447	-0.167793	-37.6001	0.000773	NaN
233	1.000000	1.053264	7.36733e+06	-50289.1	955.82	-29756.4	0.000000	0.000000	7.053179	0.042931	NaN	0.000000	0.001707	0.001661	28.0805	0.033240	0.001967	16.8966	-4.266480	13.787	0.058700	1.051950	-0.160305	-0.161619	0.042931	16.8966	-0.162211	-30.0029	-0.001431	NaN
233	1.000000	1.063257	7.36733e+06	-50289.1	955.819	-29756.4	0.000000	0.000000	7.063170	-0.010963	NaN	0.000000	0.001679	0.001638	28.08	0.096268	0.001908	50.4497	-25.2953	-168.607	-0.029405	1.061978	-0.150312	-0.151591	-0.010963	50.4497	-0.150149	-18.2272	0.000601	NaN
233	1.000000	1.073249	7.36733e+06	-50289.1	955.818	-29756.4	0.000000	0.000000	7.073162	-0.003069	NaN	0.000000	0.001673	0.001625	28.08	0.048178	0.002061	23.377	-16.6855	13.9947	-0.037629	1.071926	-0.140320	-0.141643	-0.003069	23.377	-0.140222	-11.9435	0.000257	NaN
233	1.000000	1.083248	7.36733e+06	-50289.1	955.819	-29756.4	0.000000	0.000000	7.083164	0.059556	NaN	0.000000	0.001727	0.001623	28.0797	0.015040	0.002034	7.395099	-147.699	-165.759	0.068224	1.081925	-0.130321	-0.131644	0.059556	7.395099	-0.136361	-10.0975	-0.005898	NaN
233	1.000000	1.093257	7.36733e+06	-50289.1	955.819	-29756.4	0.000000	0.000000	7.093172	0.039449	NaN	0.000000	0.001678	0.001598	28.0798	0.018955	0.001964	9.650415	-156.845	9.487437	-0.010556	1.091912	-0.120312	-0.121657	0.039449	9.650415	-0.123378	-5.646744	-0.006986	NaN
233	1.000000	1.103288	7.36733e+06	-50289.1	955.818	-29756.4	0.000000	0.000000	7.103201	-0.018237	NaN	0.000000	0.001661	0.001613	28.0797	0.046389	0.001931	24.0267	117.447	-165.425	0.036550	1.101988	-0.110281	-0.111581	-0.018237	24.0267	-0.109711	-2.963367	0.006154	NaN
233	1.000000	1.113259	7.36733e+06	-50289.1	955.817	-29756.4	0.000000	0.000000	7.113174	0.029331	NaN	0.000000	0.001684	0.001648	28.0799	0.044785	0.002179	20.5536	-143.201	15.0926	0.035405	1.111890	-0.100310	-0.101679	0.029331	20.5536	-0.101380	-1.959973	-0.014965	NaN
233	1.000000	1.123287	7.36733e+06	-50289.1	955.817	-29756.4	0.000000	0.000000	7.123204	0.074991	NaN	0.000000	0.001686	0.001617	28.0797	0.025414	0.001911	13.3014	-144.086	-164.238	0.045654	1.121930	-0.090282	-0.091639	0.074991	13.3014	-0.094510	-1.374784	-0.054548	NaN
233	1.000000	1.133316	7.36733e+06	-50289.1	955.817	-29756.4	0.000000	0.000000	7.133231	0.048777	NaN	0.000000	0.001696	0.001634	28.0799	0.071255	0.001881	37.8715	-142.186	11.0794	-0.026788	1.131932	-0.080253	-0.081637	0.048777	37.8715	-0.081219	-0.663828	-0.073478	NaN
233	1.000000	1.143291	7.36733e+06	-50289.1	955.818	-29756.4	0.000000	0.000000	7.143204	-0.003546	NaN	0.000000	0.001688	0.001610	28.0799	0.064048	0.001989	32.2063	121.963	-168.417	0.079155	1.142021	-0.070278	-0.071548	-0.003546	32.2063	-0.070195	-0.345237	0.010271	NaN
233	1.000000	1.153298	7.36733e+06	-50289.1	955.818	-29756.4	0.000000	0.000000	7.153213	0.048392	NaN	0.000000	0.001653	0.001584	28.0799	0.063356	0.002095	30.245	110.059	14.4561	0.047496	1.151931	-0.060271	-0.061638	0.048392	30.245	-0.061471	-0.198384	-0.243929	NaN
233	1.000000	1.163287	7.36733e+06	-50289.1	955.818	-29756.4	0.000000	0.000000	7.163201	0.005207	NaN	0.000000	0.001674	0.001634	28.0786	0.141810	0.001931	73.4447	-117.621	-163.3	0.024187	1.161944	-0.050282	-0.051625	0.005207	73.4447	-0.050335	-0.093403	-0.055745	NaN
233	1.000000	1.173277	7.36733e+06	-50289.1	955.818	-29756.4	0.000000	0.000000	7.173193	0.077394	NaN	0.000000	0.001682	0.001637	28.0786	0.041788	0.002002	20.8732	-21.6304	16.0963	0.110921	1.171950	-0.040292	-0.041619	0.077394	20.8732	-0.043073	-0.056113	-1.379252	NaN
233	1.000000	1.183309	7.36733e+06	-50289.1	955.819	-29756.4	0.000000	0.000000	7.183222	0.001756	NaN	0.000000	0.001693	0.001616	28.0785	0.034840	0.002090	16.6661	74.4735	-165.673	-0.004606	1.181943	-0.030260	-0.031626	0.001756	16.6661	-0.030339	-0.023520	-0.074649	NaN
233	1.000000	1.193296	7.36733e+06	-50289.1	955.819	-29756.4	0.000000	0.000000	7.193214	0.096174	NaN	0.000000	0.001628	0.001581	28.0786	0.094374	0.001821	51.8333	-114.846	15.5998	0.100798	1.191954	-0.020273	-0.021615	0.096174	51.8333	-0.021664	-0.013846	-6.946071	NaN
233	1.000000	1.203310	7.36733e+06	-50289.1	955.818	-29756.4	0.000000	0.000000	7.203226	0.049143	NaN	0.000000	0.001623	0.001588	28.0787	0.105595	0.002102	50.2434	-122.551	-163.455	0.120449	1.202000	-0.010259	-0.011569	0.049143	50.2434	-0.010992	-0.006954	-7.067197	NaN
233	1.000000	1.213296	7.36733e+06	-50289.1	955.819	-29756.4	0.000000	0.000000	7.213211	0.051012	NaN	0.000000	0.001636	0.001580	28.0784	0.043874	0.002023	21.6924	17.4192	14.2426	0.085482	1.211915	-0.000273	-0.001654	0.051012	21.6924	-0.002037	-0.001465	-34.8205	NaN
233	1.000000	1.223293	7.36733e+06	-50289.1	955.82	-29756.4	0.000000	0.000000	7.223497	7.052658	NaN	0.000000	0.001649	0.001578	28.0784	7.458213	0.001840	4053.95	12.6355	-170.693	5.425568	1.222020	0.009724	0.008451	7.052658	4053.95	0.008420	0.007477	943.199	42832.8
233	2.000000	1.227356	7.36733e+06	-50289.1	955.82	-29756.4	0.000000	0.000000	7.227724	11.0473	NaN	0.000000	0.001668	0.001596	28.0786	11.0748	0.001628	6803.63	10.2262	4.479668	10.9233	1.226999	0.013787	0.013430	11.0473	6803.63	0.012569	0.012179	907.05	56325.2
233	2.000000	1.229803	7.36733e+06	-50289.1	955.819	-29756.4	0.000000	0.000000	7.230388	16.3559	NaN	0.000000	0.001662	0.001588	28.0786	14.3171	0.001635	8756.69	1.376181	-172.185	14.2142	1.229566	0.016234	0.015997	16.3559	8756.69	0.014833	0.015063	1085.84	65186.7
233	2.000000	1.232324	7.36733e+06	-50289.1	955.819	-29756.4	0.000000	0.000000	7.233023	19.1168	NaN	0.000000	0.001649	0.001579	28.0785	16.7623	0.001791	9361.06	3.625170	7.051487	17.3091	1.231905	0.018755	0.018336	19.1168	9361.06	0.017223	0.018365	1040.92	63110.2
233	2.000000	1.234792	7.36733e+06	-50289.1	955.82	-29756.4	0.000000	0.000000	7.235583	21.3583	NaN	0.000000	0.001724	0.001545	28.0784	19.0067	0.001732	10974.8	5.605413	-176.778	20.9644	1.234531	0.021223	0.020962	21.3583	10974.8	0.019763	0.022172	963.313	67339.7
233	2.000000	1.237312	7.36733e+06	-50289.1	955.819	-29756.4	0.000000	0.000000	7.238371	27.8666	NaN	0.000000	0.001658	0.001638	28.0789	22.0553	0.001813	12168.3	7.188224	1.559594	27.0489	1.236923	0.023743	0.023354	27.8666	12168.3	0.022026	0.025826	1079.03	69179.7
233	2.000000	1.239806	7.36733e+06	-50289.1	955.819	-29756.4	0.000000	0.000000	7.241070	32.8602	NaN	0.000000	0.001723	0.001623	28.0783	24.7884	0.001887	13137.1	7.544118	-179.143	33.1819	1.239391	0.026237	0.025822	32.8602	13137.1	0.024361	0.029863	1100.36	69455.3
233	2.000000	1.242305	7.36733e+06	-50289.1	955.819	-29756.4	0.000000	0.000000	7.243845	39.5647	NaN	0.000000	0.001752	0.001605	28.0786	26.9329	0.001761	15295.9	4.485997	1.891216	38.1715	1.241904	0.028736	0.028335	39.5647	15295.9	0.026796	0.034364	1151.35	75387.1
233	2.000000	1.244766	7.36733e+06	-50289.1	955.819	-29756.4	0.000000	0.000000	7.246549	45.4831	NaN	0.000000	0.001719	0.001622	28.0797	29.4883	0.001806	16324.5	5.823940	179.02	44.947	1.244510	0.031197	0.030941	45.4831	16324.5	0.029107	0.038913	1168.84	75607.7
233	2.000000	1.247298	7.36733e+06	-50289.1	955.82	-29756.4	0.000000	0.000000	7.249360	52.2593	NaN	0.000000	0.001709	0.001620	28.0798	31.7149	0.001723	18403	4.038693	-0.191382	52.2137	1.246933	0.033729	0.033364	52.2593	18403	0.031599	0.044123	1184.4	80044.3
233	2.000000	1.249727	7.36733e+06	-50289.1	955.819	-29756.4	0.000000	0.000000	7.252145	60.9119	NaN	0.000000	0.001701	0.001601	28.0799	35.2763	0.001829	19285.7	8.499463	175.657	60.3062	1.249405	0.036158	0.035836	60.9119	19285.7	0.033790	0.048965	1243.99	79627.8
233	2.000000	1.252254	7.36733e+06	-50289.1	955.819	-29756.4	0.000000	0.000000	7.254950	67.674	NaN	0.000000	0.001726	0.001607	28.0798	36.6837	0.001725	21270.4	1.636295	0.630975	65.1476	1.251909	0.038685	0.038340	67.674	21270.4	0.036299	0.054814	1234.61	83004.7
233	2.000000	1.254776	7.36733e+06	-50289.1	955.82	-29756.4	0.000000	0.000000	7.257858	77.0601	NaN	0.000000	0.001725	0.001621	28.0803	39.3368	0.001683	23376.2	6.192199	176.061	79.79	1.254408	0.041207	0.040839	77.0601	23376.2	0.038734	0.060798	1267.48	86616.9
233	2.000000	1.257218	7.36733e+06	-50289.1	955.82	-29756.4	0.000000	0.000000	7.260757	88.1607	NaN	0.000000	0.001716	0.001608	28.08	43.2066	0.001812	23847.6	9.408521	-7.639373	86.3559	1.256869	0.043649	0.043300	88.1607	23847.6	0.040877	0.066314	1329.45	84609.2
233	2.000000	1.259681	7.36733e+06	-50289.1	955.819	-29756.4	0.000000	0.000000	7.263507	95.1561	NaN	0.000000	0.001723	0.001585	28.0809	45.2586	0.001831	24717	0.009648	-178.949	92.6918	1.259587	0.046112	0.046018	95.1561	24717	0.043225	0.072628	1310.19	83794.7
233	2.000000	1.262203	7.36733e+06	-50289.1	955.819	-29756.4	0.000000	0.000000	7.266583	108.616	NaN	0.000000	0.001741	0.001559	28.0797	46.7253	0.001786	26158.5	1.489739	0.240979	104.351	1.261809	0.048634	0.048239	108.616	26158.5	0.045520	0.079070	1373.67	84992.4
233	2.000000	1.264742	7.36733e+06	-50289.1	955.819	-29756.4	0.000000	0.000000	7.269464	116.942	NaN	0.000000	0.001715	0.001572	28.0803	49.6633	0.001700	29212.5	8.198553	171.766	118.478	1.264440	0.051173	0.050871	116.942	29212.5	0.048171	0.086842	1346.6	90568.2
233	2.000000	1.267205	7.36733e+06	-50289.1	955.819	-29756.4	0.000000	0.000000	7.272582	132.878	NaN	0.000000	0.001718	0.001567	28.0798	52.0109	0.001822	28538.5	6.153496	-4.967078	129.434	1.266743	0.053636	0.053174	132.878	28538.5	0.050144	0.092858	1430.97	85564.5
233	2.000000	1.269767	7.36733e+06	-50289.1	955.819	-29756.4	0.000000	0.000000	7.275530	142.261	NaN	0.000000	0.001669	0.001588	28.0807	54.4878	0.001656	32897.8	6.757357	172.449	141.105	1.269393	0.056198	0.055824	142.261	32897.8	0.052954	0.101763	1397.96	94220.4
233	2.000000	1.272220	7.36733e+06	-50289.1	955.819	-29756.4	0.000000	0.000000	7.278560	156.305	NaN	0.000000	0.001637	0.001573	28.08	55.0436	0.001668	32990.9	-0.010914	-0.125612	151.538	1.271841	0.058651	0.058272	156.305	32990.9	0.055097	0.108817	1436.4	91373.1
233	2.000000	1.274681	7.36733e+06	-50289.1	955.818	-29756.4	0.000000	0.000000	7.281579	169.841	NaN	0.000000	0.001649	0.001570	28.0807	59.3625	0.001815	32702.1	5.938773	173.315	169.455	1.274387	0.061112	0.060818	169.841	32702.1	0.057217	0.116019	1463.9	87717
233	2.000000	1.277211	7.36733e+06	-50289.1	955.819	-29756.4	0.000000	0.000000	7.284672	183.561	NaN	0.000000	0.001635	0.001610	28.0791	61.9022	0.001782	34730.5	5.215858	-5.785047	182.456	1.276859	0.063642	0.063290	183.561	34730.5	0.059678	0.124656	1472.55	89872.7
233	2.000000	1.279694	7.36733e+06	-50289.1	955.819	-29756.4	0.000000	0.000000	7.287715	197.188	NaN	0.000000	0.001672	0.001562	28.079	65.3125	0.001851	35288	7.032535	171.666	195.472	1.279364	0.066124	0.065795	197.188	35288	0.061934	0.132833	1484.48	88460.2
233	2.000000	1.282228	7.36733e+06	-50289.1	955.818	-29756.4	0.000000	0.000000	7.290883	212.566	NaN	0.000000	0.001688	0.001588	28.0787	65.6367	0.001773	37018	0.281704	-0.873192	210.109	1.281780	0.068659	0.068211	212.566	37018	0.064353	0.141877	1498.24	89790.2
233	2.000000	1.284659	7.36733e+06	-50289.1	955.819	-29756.4	0.000000	0.000000	7.293838	225.331	NaN	0.000000	0.001618	0.001605	28.0788	67.1342	0.001751	38330	2.074147	176.133	222.029	1.284461	0.071090	0.070892	225.331	38330	0.066681	0.150849	1493.75	90165.6
233	2.000000	1.287225	7.36733e+06	-50289.1	955.818	-29756.4	0.000000	0.000000	7.297017	240.242	NaN	0.000000	0.001628	0.001643	28.0787	69.5985	0.001642	42388.4	3.208404	-5.110491	238.917	1.286842	0.073656	0.073273	240.242	42388.4	0.069405	0.161676	1485.95	96315.9
233	2.000000	1.289625	7.36733e+06	-50289.1	955.818	-29756.4	0.000000	0.000000	7.299819	250.01	NaN	0.000000	0.001607	0.001605	28.079	74.4355	0.001752	42496.2	3.071613	174.158	245.359	1.289369	0.076056	0.075800	250.01	42496.2	0.071644	0.170838	1463.43	93935.6
233	2.000000	1.292217	7.36733e+06	-50289.1	955.819	-29756.4	0.000000	0.000000	7.303246	270.327	NaN	0.000000	0.001603	0.001562	28.0787	77.7596	0.001841	42233.2	8.034610	-9.949550	268.718	1.291743	0.078648	0.078174	270.327	42233.2	0.073848	0.180090	1501.06	90924.6
233	2.000000	1.294577	7.36733e+06	-50289.1	955.82	-29756.4	0.000000	0.000000	7.306390	289.386	NaN	0.000000	0.001619	0.001570	28.079	78.3928	0.001797	43634.1	2.926015	174.502	282.212	1.294312	0.081008	0.080743	289.386	43634.1	0.076034	0.189496	1527.13	91579.7
233	2.000000	1.297170	7.36733e+06	-50289.1	955.82	-29756.4	0.000000	0.000000	7.309496	301.844	NaN	0.000000	0.001647	0.001575	28.0785	82.0009	0.001922	42666.3	6.072635	-8.490641	299.676	1.296872	0.083601	0.083303	301.844	42666.3	0.078296	0.199460	1513.3	87283.1
233	2.000000	1.299698	7.36733e+06	-50289.1	955.819	-29756.4	0.000000	0.000000	7.313062	327.105	NaN	0.000000	0.001630	0.001585	28.0789	82.3792	0.001782	46222.8	1.457129	176.043	327.081	1.299291	0.086129	0.085722	327.105	46222.8	0.080821	0.210871	1551.21	91964.8
233	2.000000	1.302311	7.36733e+06	-50289.1	955.819	-29756.4	0.000000	0.000000	7.316172	339.18	NaN	0.000000	0.001628	0.001618	28.0786	84.6798	0.001694	49991.3	5.123811	-8.303607	341.958	1.301838	0.088742	0.088269	339.18	49991.3	0.083653	0.224019	1514.07	96499.4
233	2.000000	1.304665	7.36733e+06	-50289.1	955.82	-29756.4	0.000000	0.000000	7.319284	357.608	NaN	0.000000	0.001651	0.001585	28.0789	88.5852	0.001818	48736.7	8.861628	167.506	355.946	1.304274	0.091096	0.090705	357.608	48736.7	0.085593	0.233239	1533.23	92199.5
233	2.000000	1.307161	7.36733e+06	-50289.1	955.819	-29756.4	0.000000	0.000000	7.322424	373.287	NaN	0.000000	0.001650	0.001563	28.0785	91.3863	0.001733	52743.2	5.045065	-9.490673	370.21	1.306843	0.093592	0.093274	373.287	52743.2	0.088284	0.246314	1515.49	97094.5
233	2.000000	1.309701	7.36733e+06	-50289.1	955.821	-29756.4	0.000000	0.000000	7.325659	390.19	NaN	0.000000	0.001647	0.001593	28.0792	95.6639	0.001832	52219.7	3.953911	171.888	392.203	1.309433	0.096132	0.095864	390.19	52219.7	0.090528	0.257477	1515.44	94024.1
233	2.000000	1.312149	7.36733e+06	-50289.1	955.819	-29756.4	0.000000	0.000000	7.329360	420.641	NaN	0.000000	0.001641	0.001654	28.0799	96.8459	0.001668	58057.8	7.363417	-12.0111	416.02	1.311730	0.098580	0.098161	420.641	58057.8	0.093146	0.270790	1553.39	101934
233	2.000000	1.314670	7.36733e+06	-50289.1	955.82	-29756.4	0.000000	0.000000	7.332505	435.822	NaN	0.000000	0.001614	0.001609	28.0799	99.1551	0.001756	56475.9	3.676253	171.551	433.788	1.314355	0.101101	0.100786	435.822	56475.9	0.095314	0.282046	1545.22	97157.6
233	2.000000	1.317128	7.36733e+06	-50289.1	955.819	-29756.4	0.000000	0.000000	7.335867	457.801	NaN	0.000000	0.001618	0.001607	28.0799	101.919	0.001781	57239.4	2.295924	-6.885011	453.968	1.316842	0.103559	0.103273	457.801	57239.4	0.097561	0.293943	1557.45	96457.7
233	2.000000	1.319627	7.36733e+06	-50289.1	955.819	-29756.4	0.000000	0.000000	7.339177	477.547	NaN	0.000000	0.001601	0.001614	28.0799	105.628	0.001791	58976.8	5.615809	169.507	475.708	1.319463	0.106058	0.105894	477.547	58976.8	0.099985	0.307036	1555.35	97243.3
233	2.000000	1.322227	7.36733e+06	-50289.1	955.821	-29756.4	0.000000	0.000000	7.342752	501.259	NaN	0.000000	0.001613	0.001616	28.0801	106.91	0.001849	57821	5.494975	-9.781743	501.178	1.321859	0.108658	0.108290	501.259	57821	0.102156	0.318989	1571.4	93534.4
233	2.000000	1.323683	7.36733e+06	-50289.1	955.82	-29756.4	0.000000	0.000000	7.344500	508.343	NaN	0.000000	0.001617	0.001593	28.0799	108.156	0.001803	59980.3	1.426123	173.577	507.477	1.323390	0.110114	0.109821	508.343	59980.3	0.103758	0.327946	1550.08	95693.1