File: remote_trans/data/nanoindenter/0828-1/data/Data_2025-08-06,11h17m57s/2025-07-22_16-23-58_1_126.txt
2025-07-22, 16:23:58, 1
Index	Phase	Displacement	Time	Pos X	Pos Y	Pos Z	Rot A	Rot B	Piezo Z	Force A	Force B	Gripper	Voltage A	Voltage B	Temperature	Amplitude force	Amplitude pos	Stiffness	Phase shift	Phase excitation	Force A raw	Displacement raw	HMax	HMax raw	Real Force	Real Stiffness	Contact Depth	Area	Hardness	Reduced Mod.
[#]	[#]	[um]	[s]	[um]	[um]	[um]	[m°]	[m°]	[um]	[uN]	[uN]	[V]	[V]	[V]	[°C]	[uN]	[um]	[N/m]	[°]	[°]	[uN]	[um]	[um]	[um]	[uN]	[N/m]	[um]	[um^2]	[MPa]	[MPa]
126	1.000000	0.002925	7.36627e+06	-44939.1	955.818	-29774.7	0.000000	0.000000	6.002826	-0.032674	NaN	0.000000	0.001577	0.001787	28.1065	0.101409	0.001005	100.946	-137.543	-169.807	-0.089217	0.001708	-1.037895	-1.039111	-0.032674	100.946	-1.037652	-7.284388E+13	4.485427E-16	NaN
126	1.000000	0.010871	7.36627e+06	-44939.1	955.819	-29774.7	0.000000	0.000000	6.010773	-0.020472	NaN	0.000000	0.001558	0.001770	28.1062	0.085307	0.001065	80.0741	56.1991	-159.75	0.003317	0.009534	-1.029949	-1.031285	-0.020472	80.0741	-1.029757	-5.704385E+13	3.588779E-16	NaN
126	1.000000	0.018851	7.36627e+06	-44939.1	955.817	-29774.7	0.000000	0.000000	6.018752	-0.023801	NaN	0.000000	0.001536	0.001765	28.1054	0.071183	0.001756	40.5277	115.406	-167.041	-0.037893	0.017513	-1.021969	-1.023306	-0.023801	40.5277	-1.021529	-4.421000E+13	5.383686E-16	NaN
126	1.000000	0.026857	7.36627e+06	-44939.1	955.818	-29774.7	0.000000	0.000000	6.026759	0.004764	NaN	0.000000	0.001568	0.001774	28.1059	0.154858	0.001900	81.4952	-161.764	-170.04	0.005014	0.025523	-1.013963	-1.015297	0.004764	81.4952	-1.014007	-3.501939E+13	-1.360509E-16	NaN
126	1.000000	0.034852	7.36627e+06	-44939.1	955.818	-29774.7	0.000000	0.000000	6.034758	0.079878	NaN	0.000000	0.001592	0.001750	28.1057	0.071040	0.001892	37.5415	11.8402	-165.038	0.005474	0.033546	-1.005967	-1.007274	0.079878	37.5415	-1.007563	-2.868030E+13	-2.785128E-15	NaN
126	1.000000	0.042844	7.36627e+06	-44939.1	955.818	-29774.7	0.000000	0.000000	6.042744	-0.034365	NaN	0.000000	0.001591	0.001810	28.1068	0.126411	0.002003	63.1213	81.4829	-164.828	-0.010333	0.041560	-0.997976	-0.999260	-0.034365	63.1213	-0.997568	-2.103891E+13	1.633394E-15	NaN
126	1.000000	0.050870	7.36627e+06	-44939.1	955.819	-29774.7	0.000000	0.000000	6.050771	-0.031098	NaN	0.000000	0.001568	0.001767	28.1067	0.067117	0.002078	32.2996	62.9824	-163.491	0.006933	0.049468	-0.989950	-0.991352	-0.031098	32.2996	-0.989228	-1.624471E+13	1.914349E-15	NaN
126	1.000000	0.058832	7.36627e+06	-44939.1	955.819	-29774.7	0.000000	0.000000	6.058735	0.042069	NaN	0.000000	0.001600	0.001745	28.1065	0.129936	0.002005	64.8221	-177.559	-167.945	-0.018255	0.057567	-0.981988	-0.983253	0.042069	64.8221	-0.982475	-1.317506E+13	-3.193099E-15	NaN
126	1.000000	0.066852	7.36627e+06	-44939.1	955.818	-29774.7	0.000000	0.000000	6.066755	0.018293	NaN	0.000000	0.001555	0.001731	28.106	0.065542	0.001988	32.9722	-54.8704	-163.801	-0.004644	0.065530	-0.973968	-0.975289	0.018293	32.9722	-0.974384	-1.025044E+13	-1.784607E-15	NaN
126	1.000000	0.074864	7.36627e+06	-44939.1	955.818	-29774.7	0.000000	0.000000	6.074767	0.008732	NaN	0.000000	0.001533	0.001763	28.1071	0.055399	0.002049	27.0346	62.4891	-164.432	0.024493	0.073545	-0.965955	-0.967275	0.008732	27.0346	-0.966198	-7.950890E+12	-1.098207E-15	NaN
126	1.000000	0.082843	7.36627e+06	-44939.1	955.819	-29774.7	0.000000	0.000000	6.082740	-0.115905	NaN	0.000000	0.001546	0.001763	28.1066	0.039271	0.001917	20.4881	97.6186	-168.418	-0.050891	0.081548	-0.957977	-0.959272	-0.115905	20.4881	-0.953734	-5.399878E+12	2.146443E-14	NaN
126	1.000000	0.090858	7.36627e+06	-44939.1	955.818	-29774.7	0.000000	0.000000	6.090759	-0.011213	NaN	0.000000	0.001573	0.001777	28.1074	0.065522	0.002031	32.2675	-139.578	-165.754	-0.058737	0.089588	-0.949962	-0.951232	-0.011213	32.2675	-0.949701	-4.764327E+12	2.353446E-15	NaN
126	1.000000	0.098837	7.36627e+06	-44939.1	955.818	-29774.7	0.000000	0.000000	6.098738	-0.023977	NaN	0.000000	0.001575	0.001764	28.1064	0.067220	0.002064	32.5664	77.3763	-164.137	-0.028038	0.097511	-0.941983	-0.943309	-0.023977	32.5664	-0.941430	-3.684978E+12	6.506823E-15	NaN
126	1.000000	0.106827	7.36627e+06	-44939.1	955.818	-29774.7	0.000000	0.000000	6.106728	-0.028548	NaN	0.000000	0.001586	0.001783	28.1071	0.039337	0.001956	20.1103	-101.032	-164.695	-0.046356	0.105560	-0.933993	-0.935260	-0.028548	20.1103	-0.932928	-2.829507E+12	1.008952E-14	NaN
126	1.000000	0.114873	7.36627e+06	-44939.1	955.818	-29774.7	0.000000	0.000000	6.114775	-0.004609	NaN	0.000000	0.001580	0.001782	28.1063	0.077815	0.002020	38.5277	-175.575	-165.381	-0.029673	0.113598	-0.925947	-0.927222	-0.004609	38.5277	-0.925857	-2.271345E+12	2.029210E-15	NaN
126	1.000000	0.122866	7.36627e+06	-44939.1	955.818	-29774.7	0.000000	0.000000	6.122767	-0.025712	NaN	0.000000	0.001610	0.001764	28.1069	0.050928	0.002056	24.7659	172.874	-166.307	0.003447	0.121541	-0.917954	-0.919279	-0.025712	24.7659	-0.917175	-1.734052E+12	1.482750E-14	NaN
126	1.000000	0.130873	7.36627e+06	-44939.1	955.818	-29774.7	0.000000	0.000000	6.130773	-0.037226	NaN	0.000000	0.001616	0.001770	28.107	0.102599	0.001997	51.3869	114.259	-164.439	-0.022401	0.129572	-0.909947	-0.911248	-0.037226	51.3869	-0.909404	-1.361783E+12	2.733613E-14	NaN
126	1.000000	0.138885	7.36627e+06	-44939.1	955.819	-29774.7	0.000000	0.000000	6.138788	0.014389	NaN	0.000000	0.001595	0.001763	28.1063	0.118943	0.001940	61.3027	-149.852	-163.86	0.009539	0.137563	-0.901934	-0.903257	0.014389	61.3027	-0.902110	-1.085380E+12	-1.325745E-14	NaN
126	1.000000	0.146902	7.36627e+06	-44939.1	955.818	-29774.7	0.000000	0.000000	6.146800	-0.092026	NaN	0.000000	0.001580	0.001764	28.1074	0.067709	0.002074	32.6497	-98.0831	-168.145	0.022841	0.145545	-0.893918	-0.895274	-0.092026	32.6497	-0.891804	-7.875831E+11	1.168465E-13	NaN
126	1.000000	0.154877	7.36627e+06	-44939.1	955.818	-29774.7	0.000000	0.000000	6.154776	-0.077311	NaN	0.000000	0.001575	0.001770	28.1075	0.045216	0.001930	23.4337	22.789	-165.411	-0.076352	0.153551	-0.885943	-0.887269	-0.077311	23.4337	-0.883469	-6.075921E+11	1.272418E-13	NaN
126	1.000000	0.162895	7.36627e+06	-44939.1	955.82	-29774.7	0.000000	0.000000	6.162795	-0.039159	NaN	0.000000	0.001573	0.001760	28.1063	0.081051	0.002105	38.505	-179.535	-164.579	-0.043019	0.161552	-0.877925	-0.879268	-0.039159	38.505	-0.877162	-4.992665E+11	7.843280E-14	NaN
126	1.000000	0.170897	7.36627e+06	-44939.1	955.818	-29774.7	0.000000	0.000000	6.170798	-0.003640	NaN	0.000000	0.001576	0.001752	28.1056	0.064961	0.002059	31.551	48.1654	-167.011	-0.043706	0.169559	-0.869923	-0.871261	-0.003640	31.551	-0.869837	-3.974077E+11	9.158280E-15	NaN
126	1.000000	0.178917	7.36627e+06	-44939.1	955.818	-29774.7	0.000000	0.000000	6.178820	0.027763	NaN	0.000000	0.001609	0.001791	28.1055	0.146289	0.001992	73.4267	-133.518	-163.966	-0.034316	0.177547	-0.861903	-0.863273	0.027763	73.4267	-0.862187	-3.131267E+11	-8.866252E-14	NaN
126	1.000000	0.186894	7.36627e+06	-44939.1	955.818	-29774.7	0.000000	0.000000	6.186797	0.014802	NaN	0.000000	0.001567	0.001804	28.1059	0.140483	0.002020	69.5385	-152.126	-164.285	0.067525	0.185620	-0.853926	-0.855200	0.014802	69.5385	-0.854085	-2.432494E+11	-6.085261E-14	NaN
126	1.000000	0.194922	7.36627e+06	-44939.1	955.818	-29774.7	0.000000	0.000000	6.194823	-0.018872	NaN	0.000000	0.001587	0.001778	28.1059	0.075370	0.001970	38.26	176.727	-164.232	0.015902	0.193600	-0.845898	-0.847220	-0.018872	38.26	-0.845528	-1.862845E+11	1.013101E-13	NaN
126	1.000000	0.202906	7.36627e+06	-44939.1	955.818	-29774.7	0.000000	0.000000	6.202807	-0.044916	NaN	0.000000	0.001562	0.001775	28.1068	0.108374	0.001960	55.2889	-140.573	-167.893	-0.072028	0.201609	-0.837913	-0.839210	-0.044916	55.2889	-0.837304	-1.441346E+11	3.116233E-13	NaN
126	1.000000	0.210905	7.36627e+06	-44939.1	955.818	-29774.7	0.000000	0.000000	6.210804	-0.074096	NaN	0.000000	0.001598	0.001752	28.1058	0.070729	0.001922	36.7945	-48.8676	-162.279	-0.106412	0.209587	-0.829915	-0.831233	-0.074096	36.7945	-0.828405	-1.091843E+11	6.786344E-13	NaN
126	1.000000	0.218928	7.36627e+06	-44939.1	955.819	-29774.7	0.000000	0.000000	6.218827	-0.087485	NaN	0.000000	0.001569	0.001778	28.1058	0.049316	0.001964	25.11	-12.972	-166.214	-0.090565	0.217628	-0.821892	-0.823192	-0.087485	25.11	-0.819279	-8.211612E+10	1.065376E-12	NaN
126	1.000000	0.226902	7.36627e+06	-44939.1	955.818	-29774.7	0.000000	0.000000	6.226805	0.005065	NaN	0.000000	0.001576	0.001762	28.1055	0.161000	0.001965	81.9214	132.183	-168.617	-0.063864	0.225664	-0.813917	-0.815156	0.005065	81.9214	-0.813964	-6.955764E+10	-7.281457E-14	NaN
126	1.000000	0.234961	7.36627e+06	-44939.1	955.818	-29774.7	0.000000	0.000000	6.234863	0.012186	NaN	0.000000	0.001566	0.001751	28.1053	0.085657	0.001916	44.7017	-139.953	-162.641	0.010545	0.233599	-0.805859	-0.807221	0.012186	44.7017	-0.806064	-5.434516E+10	-2.242343E-13	NaN
126	1.000000	0.242908	7.36627e+06	-44939.1	955.818	-29774.7	0.000000	0.000000	6.242809	-0.017050	NaN	0.000000	0.001560	0.001766	28.1046	0.023478	0.001972	11.9069	-150.784	-164.664	0.011814	0.241608	-0.797912	-0.799212	-0.017050	11.9069	-0.796838	-4.073180E+10	4.185948E-13	NaN
126	1.000000	0.250942	7.36627e+06	-44939.1	955.818	-29774.7	0.000000	0.000000	6.250844	-0.017903	NaN	0.000000	0.001551	0.001743	28.1045	0.064543	0.001983	32.5509	-66.8535	-167.809	-0.071054	0.249668	-0.789877	-0.791152	-0.017903	32.5509	-0.789465	-3.234562E+10	5.534953E-13	NaN
126	1.000000	0.258931	7.36627e+06	-44939.1	955.818	-29774.7	0.000000	0.000000	6.258833	-0.004848	NaN	0.000000	0.001570	0.001745	28.1037	0.157103	0.001741	90.2621	156.076	-167.853	-0.002475	0.257578	-0.781889	-0.783241	-0.004848	90.2621	-0.781849	-2.548909E+10	1.901846E-13	NaN
126	1.000000	0.266947	7.36627e+06	-44939.1	955.819	-29774.7	0.000000	0.000000	6.266844	-0.111200	NaN	0.000000	0.001516	0.001766	28.1039	0.083946	0.001979	42.4271	-95.0937	-166.603	-0.028935	0.265620	-0.773873	-0.775200	-0.111200	42.4271	-0.771907	-1.867407E+10	5.954771E-12	NaN
126	1.000000	0.274944	7.36627e+06	-44939.1	955.818	-29774.7	0.000000	0.000000	6.274846	0.002487	NaN	0.000000	0.001549	0.001755	28.103	0.023039	0.002011	11.459	87.3419	-168.334	-0.022899	0.273624	-0.765876	-0.767196	0.002487	11.459	-0.766039	-1.553968E+10	-1.600366E-13	NaN
126	1.000000	0.282956	7.36627e+06	-44939.1	955.818	-29774.7	0.000000	0.000000	6.282856	-0.049476	NaN	0.000000	0.001543	0.001747	28.1046	0.093638	0.002097	44.6565	-126.392	-166.739	0.010201	0.281638	-0.757864	-0.759182	-0.049476	44.6565	-0.757033	-1.172011E+10	4.221488E-12	NaN
126	1.000000	0.290948	7.36627e+06	-44939.1	955.818	-29774.7	0.000000	0.000000	6.290850	-0.006393	NaN	0.000000	0.001533	0.001774	28.1046	0.041518	0.002123	19.5568	160.73	-167.001	-0.012931	0.289686	-0.749871	-0.751134	-0.006393	19.5568	-0.749626	-9.292494E+9	6.879434E-13	NaN
126	1.000000	0.298958	7.36627e+06	-44939.1	955.818	-29774.7	0.000000	0.000000	6.298859	-0.022902	NaN	0.000000	0.001593	0.001721	28.1053	0.033409	0.002202	15.1752	-52.1753	-165.587	-0.079361	0.297662	-0.741862	-0.743158	-0.022902	15.1752	-0.740730	-7.030791E+9	3.257398E-12	NaN
126	1.000000	0.306933	7.36627e+06	-44939.1	955.818	-29774.7	0.000000	0.000000	6.306833	-0.046474	NaN	0.000000	0.001576	0.001735	28.1052	0.040673	0.001965	20.6987	119.738	-166.888	-0.057836	0.305628	-0.733887	-0.735192	-0.046474	20.6987	-0.732203	-5.380622E+9	8.637296E-12	NaN
126	1.000000	0.314962	7.36627e+06	-44939.1	955.817	-29774.7	0.000000	0.000000	6.314867	0.060239	NaN	0.000000	0.001586	0.001744	28.1049	0.109134	0.001994	54.7341	174.205	-164.437	0.009445	0.313646	-0.725858	-0.727174	0.060239	54.7341	-0.726683	-4.524800E+9	-1.331298E-11	NaN
126	1.000000	0.322977	7.36627e+06	-44939.1	955.818	-29774.7	0.000000	0.000000	6.322875	-0.108557	NaN	0.000000	0.001537	0.001781	28.1039	0.041579	0.001924	21.6078	177.183	-164.955	-0.164158	0.321617	-0.717843	-0.719203	-0.108557	21.6078	-0.714075	-3.045430E+9	3.564602E-11	NaN
126	1.000000	0.330945	7.36627e+06	-44939.1	955.819	-29774.7	0.000000	0.000000	6.330846	-0.025252	NaN	0.000000	0.001592	0.001764	28.1039	0.038192	0.001868	20.4423	-78.5351	-166.259	-0.064464	0.329639	-0.709875	-0.711181	-0.025252	20.4423	-0.708948	-2.592376E+9	9.740741E-12	NaN
126	1.000000	0.338967	7.36627e+06	-44939.1	955.818	-29774.7	0.000000	0.000000	6.338870	0.017998	NaN	0.000000	0.001612	0.001748	28.1032	0.090785	0.002014	45.072	103.581	-165.699	-0.026647	0.337651	-0.701853	-0.703169	0.017998	45.072	-0.702153	-2.093754E+9	-8.596272E-12	NaN
126	1.000000	0.346956	7.36627e+06	-44939.1	955.818	-29774.7	0.000000	0.000000	6.346853	-0.107451	NaN	0.000000	0.001585	0.001738	28.1031	0.055625	0.002166	25.6846	-62.7043	-167.423	-0.123483	0.345695	-0.693864	-0.695125	-0.107451	25.6846	-0.690726	-1.461655E+9	7.351305E-11	NaN
126	1.000000	0.354957	7.36627e+06	-44939.1	955.818	-29774.7	0.000000	0.000000	6.354859	0.013593	NaN	0.000000	0.001548	0.001757	28.105	0.064785	0.001985	32.6432	90.9857	-167.32	0.002961	0.353681	-0.685863	-0.687139	0.013593	32.6432	-0.686176	-1.266618E+9	-1.073134E-11	NaN
126	1.000000	0.362961	7.36627e+06	-44939.1	955.818	-29774.7	0.000000	0.000000	6.362860	-0.059332	NaN	0.000000	0.001606	0.001765	28.1055	0.120254	0.002011	59.8065	-141.22	-167.681	-0.090217	0.361653	-0.677859	-0.679166	-0.059332	59.8065	-0.677115	-9.522433E+8	6.230770E-11	NaN
126	1.000000	0.370981	7.36627e+06	-44939.1	955.819	-29774.7	0.000000	0.000000	6.370881	-0.060921	NaN	0.000000	0.001613	0.001772	28.1062	0.071911	0.001980	36.3225	57.2789	-161.578	-0.067888	0.369675	-0.669838	-0.671145	-0.060921	36.3225	-0.668580	-7.277136E+8	8.371619E-11	NaN
126	1.000000	0.378976	7.36627e+06	-44939.1	955.819	-29774.7	0.000000	0.000000	6.378876	-0.063846	NaN	0.000000	0.001569	0.001770	28.106	0.037568	0.002068	18.1654	132.651	-167.052	-0.052864	0.377668	-0.661843	-0.663151	-0.063846	18.1654	-0.659207	-5.415156E+8	1.179032E-10	NaN
126	1.000000	0.386982	7.36627e+06	-44939.1	955.818	-29774.7	0.000000	0.000000	6.386880	-0.089215	NaN	0.000000	0.001577	0.001744	28.1058	0.079848	0.001922	41.535	174.757	-165.781	-0.101677	0.385672	-0.653838	-0.655148	-0.089215	41.535	-0.652227	-4.344728E+8	2.053403E-10	NaN
126	1.000000	0.394983	7.36627e+06	-44939.1	955.818	-29774.7	0.000000	0.000000	6.394883	-0.051095	NaN	0.000000	0.001580	0.001777	28.1061	0.095574	0.001947	49.0934	59.4256	-166.905	-0.071359	0.393724	-0.645837	-0.647096	-0.051095	49.0934	-0.645056	-3.464560E+8	1.474795E-10	NaN
126	1.000000	0.402987	7.36627e+06	-44939.1	955.818	-29774.7	0.000000	0.000000	6.402891	0.041768	NaN	0.000000	0.001587	0.001780	28.1042	0.034981	0.001986	17.6103	124.955	-166.154	0.005112	0.401658	-0.637832	-0.639162	0.041768	17.6103	-0.639611	-2.917136E+8	-1.431813E-10	NaN
126	1.000000	0.410994	7.36627e+06	-44939.1	955.818	-29774.7	0.000000	0.000000	6.410890	-0.141778	NaN	0.000000	0.001583	0.001805	28.1045	0.053439	0.001916	27.8936	-39.9649	-164.865	-0.008038	0.409677	-0.629826	-0.631143	-0.141778	27.8936	-0.626014	-1.897916E+8	7.470218E-10	NaN
126	1.000000	0.419013	7.36627e+06	-44939.1	955.817	-29774.7	0.000000	0.000000	6.418917	0.041451	NaN	0.000000	0.001603	0.001765	28.1043	0.120271	0.001902	63.2435	-168.328	-163.211	-0.044642	0.417712	-0.621806	-0.623108	0.041451	63.2435	-0.622298	-1.687397E+8	-2.456500E-10	NaN
126	1.000000	0.427012	7.36627e+06	-44939.1	955.819	-29774.7	0.000000	0.000000	6.426911	-0.066438	NaN	0.000000	0.001578	0.001795	28.1045	0.223057	0.001981	112.609	67.7115	-166.299	-0.089858	0.425697	-0.613808	-0.615122	-0.066438	112.609	-0.613365	-1.271774E+8	5.224053E-10	NaN
126	1.000000	0.435007	7.36627e+06	-44939.1	955.818	-29774.7	0.000000	0.000000	6.434910	0.007503	NaN	0.000000	0.001576	0.001782	28.1045	0.067689	0.001944	34.8248	129.843	-166.744	-0.022951	0.433675	-0.605812	-0.607145	0.007503	34.8248	-0.605974	-1.006263E+8	-7.456232E-11	NaN
126	1.000000	0.442997	7.36627e+06	-44939.1	955.818	-29774.7	0.000000	0.000000	6.442897	-0.054202	NaN	0.000000	0.001585	0.001799	28.105	0.071734	0.001991	36.0265	-81.8162	-166.052	0.021328	0.441718	-0.597823	-0.599102	-0.054202	36.0265	-0.596695	-7.497708E+7	7.229123E-10	NaN
126	1.000000	0.451006	7.36627e+06	-44939.1	955.818	-29774.7	0.000000	0.000000	6.450906	-0.032585	NaN	0.000000	0.001565	0.001744	28.105	0.089729	0.002067	43.4186	127.679	-165.138	-0.016323	0.449665	-0.589814	-0.591155	-0.032585	43.4186	-0.589251	-5.920323E+7	5.504003E-10	NaN
126	1.000000	0.459010	7.36627e+06	-44939.1	955.818	-29774.7	0.000000	0.000000	6.458911	-0.021336	NaN	0.000000	0.001574	0.001764	28.1051	0.032166	0.001974	16.2949	-110.387	-167.938	0.013782	0.457694	-0.581810	-0.583126	-0.021336	16.2949	-0.580828	-4.530541E+7	4.709361E-10	NaN
126	1.000000	0.467004	7.36627e+06	-44939.1	955.818	-29774.7	0.000000	0.000000	6.466905	-0.024894	NaN	0.000000	0.001595	0.001772	28.1052	0.076872	0.002041	37.6571	-50.7817	-166.907	-0.025024	0.465691	-0.573816	-0.575129	-0.024894	37.6571	-0.573320	-3.568575E+7	6.975814E-10	NaN
126	1.000000	0.475021	7.36627e+06	-44939.1	955.818	-29774.7	0.000000	0.000000	6.474920	-0.079946	NaN	0.000000	0.001582	0.001777	28.1054	0.028023	0.002086	13.4367	85.261	-165.339	-0.065938	0.473669	-0.565799	-0.567151	-0.079946	13.4367	-0.561336	-2.437034E+7	3.280463E-9	NaN
126	1.000000	0.483025	7.36627e+06	-44939.1	955.819	-29774.7	0.000000	0.000000	6.482929	0.045063	NaN	0.000000	0.001607	0.001764	28.1043	0.097011	0.002142	45.2901	40.6437	-164.813	-0.004784	0.481748	-0.557795	-0.559072	0.045063	45.2901	-0.558541	-2.229406E+7	-2.021291E-9	NaN
126	1.000000	0.491010	7.36627e+06	-44939.1	955.818	-29774.7	0.000000	0.000000	6.490912	-0.014272	NaN	0.000000	0.001589	0.001753	28.1024	0.071560	0.002089	34.2536	-95.7681	-163.022	-0.024758	0.489764	-0.549810	-0.551055	-0.014272	34.2536	-0.549497	-1.671063E+7	8.540914E-10	NaN
126	1.000000	0.499036	7.36627e+06	-44939.1	955.819	-29774.7	0.000000	0.000000	6.498938	0.007301	NaN	0.000000	0.001627	0.001755	28.1026	0.097214	0.002137	45.4872	-88.1792	-166.927	-0.084460	0.497717	-0.541784	-0.543103	0.007301	45.4872	-0.541904	-1.311496E+7	-5.566986E-10	NaN
126	1.000000	0.507019	7.36627e+06	-44939.1	955.817	-29774.7	0.000000	0.000000	6.506920	-0.039773	NaN	0.000000	0.001589	0.001744	28.1027	0.086922	0.002037	42.6813	120.795	-165.981	0.006545	0.505729	-0.533801	-0.535091	-0.039773	42.6813	-0.533102	-9.90015e+06	4.017380E-9	NaN
126	1.000000	0.515056	7.36627e+06	-44939.1	955.818	-29774.7	0.000000	0.000000	6.514955	-0.079651	NaN	0.000000	0.001598	0.001733	28.103	0.016702	0.001991	8.389109	-110.861	-164.714	-0.078308	0.513735	-0.525764	-0.527085	-0.079651	8.389109	-0.518643	-6.23337e+06	1.277816E-8	NaN
126	1.000000	0.523050	7.36627e+06	-44939.1	955.818	-29774.7	0.000000	0.000000	6.522952	-0.013570	NaN	0.000000	0.001572	0.001743	28.1036	0.057004	0.001823	31.2675	78.0079	-165.014	0.039317	0.521740	-0.517769	-0.519080	-0.013570	31.2675	-0.517444	-5.99847e+06	2.262245E-9	NaN
126	1.000000	0.531066	7.36627e+06	-44939.1	955.818	-29774.7	0.000000	0.000000	6.530968	-0.013181	NaN	0.000000	0.001577	0.001748	28.1036	0.029769	0.002004	14.8523	-135.14	-166.847	-0.114649	0.529705	-0.509754	-0.511114	-0.013181	14.8523	-0.509088	-4.58896e+06	2.872423E-9	NaN
126	1.000000	0.539050	7.36627e+06	-44939.1	955.819	-29774.7	0.000000	0.000000	6.538953	0.015265	NaN	0.000000	0.001593	0.001753	28.105	0.032808	0.002014	16.2862	142.951	-166.621	-0.020802	0.537785	-0.501770	-0.503035	0.015265	16.2862	-0.502473	-3.71113e+06	-4.113322E-9	NaN
126	1.000000	0.547049	7.36627e+06	-44939.1	955.818	-29774.7	0.000000	0.000000	6.546949	-0.047023	NaN	0.000000	0.001582	0.001753	28.1042	0.026254	0.002072	12.6736	73.4444	-164.118	-0.048371	0.545715	-0.493771	-0.495105	-0.047023	12.6736	-0.490988	-2.56567e+06	1.832778E-8	NaN
126	1.000000	0.555052	7.36627e+06	-44939.1	955.818	-29774.7	0.000000	0.000000	6.554952	-0.039985	NaN	0.000000	0.001573	0.001783	28.1042	0.081800	0.002030	40.294	-175.376	-164.523	-0.089156	0.553761	-0.485768	-0.487059	-0.039985	40.294	-0.485024	-2.11751e+06	1.888293E-8	NaN
126	1.000000	0.563069	7.36627e+06	-44939.1	955.818	-29774.7	0.000000	0.000000	6.562970	-0.036313	NaN	0.000000	0.001541	0.001768	28.1025	0.069014	0.002044	33.7583	84.6707	-169.033	-0.054414	0.561723	-0.477750	-0.479097	-0.036313	33.7583	-0.476944	-1.63204e+06	2.225020E-8	NaN
126	1.000000	0.571044	7.36627e+06	-44939.1	955.818	-29774.7	0.000000	0.000000	6.570945	-0.037132	NaN	0.000000	0.001550	0.001738	28.102	0.069730	0.002001	34.8551	16.9359	-165.646	-0.044193	0.569791	-0.469776	-0.471029	-0.037132	34.8551	-0.468977	-1.26199e+06	2.942351E-8	NaN
126	1.000000	0.579077	7.36627e+06	-44939.1	955.818	-29774.7	0.000000	0.000000	6.578979	-0.011663	NaN	0.000000	0.001563	0.001757	28.1026	0.030736	0.001913	16.0667	174.911	-166.478	-0.020382	0.577769	-0.461743	-0.463051	-0.011663	16.0667	-0.461198	-981425	1.188365E-8	NaN
126	1.000000	0.587104	7.36627e+06	-44939.1	955.818	-29774.7	0.000000	0.000000	6.587005	-0.028101	NaN	0.000000	0.001561	0.001801	28.1025	0.040730	0.002034	20.0228	-118.718	-166.05	-0.047764	0.585784	-0.453716	-0.455036	-0.028101	20.0228	-0.452663	-744450	3.774776E-8	NaN
126	1.000000	0.595078	7.36627e+06	-44939.1	955.818	-29774.7	0.000000	0.000000	6.594978	-0.059185	NaN	0.000000	0.001566	0.001784	28.1019	0.041477	0.001965	21.1101	-1.621774	-163.605	-0.068885	0.593783	-0.445742	-0.447036	-0.059185	21.1101	-0.443639	-555521	1.065392E-7	NaN
126	1.000000	0.603062	7.36627e+06	-44939.1	955.818	-29774.7	0.000000	0.000000	6.602962	-0.049325	NaN	0.000000	0.001535	0.001774	28.1035	0.131759	0.002098	62.8052	-85.0757	-166.866	-0.025287	0.601773	-0.437758	-0.439046	-0.049325	62.8052	-0.437169	-450191	1.095646E-7	NaN
126	1.000000	0.611089	7.36627e+06	-44939.1	955.818	-29774.7	0.000000	0.000000	6.610990	-0.015702	NaN	0.000000	0.001549	0.001813	28.1031	0.059523	0.002017	29.506	173.504	-168.258	0.081519	0.609752	-0.429731	-0.431068	-0.015702	29.506	-0.429332	-348828	4.501231E-8	NaN
126	1.000000	0.619078	7.36627e+06	-44939.1	955.818	-29774.7	0.000000	0.000000	6.618977	-0.060491	NaN	0.000000	0.001593	0.001815	28.1035	0.090444	0.002004	45.1375	141.146	-164.77	-0.116775	0.617765	-0.421742	-0.423055	-0.060491	45.1375	-0.420737	-263553	2.295226E-7	NaN
126	1.000000	0.627075	7.36627e+06	-44939.1	955.819	-29774.7	0.000000	0.000000	6.626978	0.019375	NaN	0.000000	0.001596	0.001789	28.1039	0.053351	0.002027	26.3156	12.1516	-165.33	-0.031346	0.625773	-0.413744	-0.415047	0.019375	26.3156	-0.414297	-213533	-9.073306E-8	NaN
126	1.000000	0.635111	7.36627e+06	-44939.1	955.818	-29774.7	0.000000	0.000000	6.635011	-0.056189	NaN	0.000000	0.001571	0.001795	28.1049	0.125232	0.001939	64.5902	-101.395	-167.241	-0.065490	0.633822	-0.405708	-0.406998	-0.056189	64.5902	-0.405056	-157778	3.561284E-7	NaN
126	1.000000	0.643095	7.36627e+06	-44939.1	955.818	-29774.7	0.000000	0.000000	6.642997	-0.003083	NaN	0.000000	0.001543	0.001777	28.1035	0.030214	0.001969	15.3477	-74.5218	-168.276	0.001017	0.641752	-0.397725	-0.399068	-0.003083	15.3477	-0.397574	-123421	2.497603E-8	NaN
126	1.000000	0.651100	7.36627e+06	-44939.1	955.819	-29774.7	0.000000	0.000000	6.651000	-0.038109	NaN	0.000000	0.001542	0.001768	28.1026	0.051021	0.001894	26.9449	-133.819	-166.257	-0.038240	0.649776	-0.389720	-0.391044	-0.038109	26.9449	-0.388659	-92041.7	4.140389E-7	NaN
126	1.000000	0.659093	7.36627e+06	-44939.1	955.818	-29774.7	0.000000	0.000000	6.658993	-0.029320	NaN	0.000000	0.001571	0.001766	28.1029	0.121365	0.001883	64.4676	-113.541	-170.02	-0.065245	0.657831	-0.381727	-0.382989	-0.029320	64.4676	-0.381386	-72406.7	4.049383E-7	NaN
126	1.000000	0.667119	7.36627e+06	-44939.1	955.818	-29774.7	0.000000	0.000000	6.667021	-0.005503	NaN	0.000000	0.001558	0.001766	28.1047	0.107015	0.001977	54.141	64.8865	-164.584	-0.032989	0.665802	-0.373701	-0.375018	-0.005503	54.141	-0.373624	-56013.1	9.824469E-8	NaN
126	1.000000	0.675119	7.36627e+06	-44939.1	955.818	-29774.7	0.000000	0.000000	6.675021	-0.005401	NaN	0.000000	0.001533	0.001749	28.1035	0.053311	0.002123	25.1063	-24.011	-164.377	0.038320	0.673757	-0.365701	-0.367063	-0.005401	25.1063	-0.365539	-42838.6	1.260704E-7	NaN
126	1.000000	0.683131	7.36627e+06	-44939.1	955.819	-29774.7	0.000000	0.000000	6.683031	-0.055354	NaN	0.000000	0.001573	0.001742	28.1052	0.195170	0.001987	98.2411	-33.3356	-164.916	-0.057762	0.681763	-0.357689	-0.359056	-0.055354	98.2411	-0.357266	-32531.4	1.701548E-6	NaN
126	1.000000	0.691146	7.36627e+06	-44939.1	955.818	-29774.7	0.000000	0.000000	6.691047	-0.018339	NaN	0.000000	0.001534	0.001713	28.1044	0.067230	0.001859	36.1708	58.7177	-167.218	0.002242	0.689835	-0.349674	-0.350985	-0.018339	36.1708	-0.349294	-24931.9	7.355518E-7	NaN
126	1.000000	0.699140	7.36627e+06	-44939.1	955.819	-29774.7	0.000000	0.000000	6.699040	-0.055384	NaN	0.000000	0.001571	0.001735	28.1043	0.034569	0.001921	17.9958	-108.76	-166.827	-0.058729	0.697780	-0.341680	-0.343040	-0.055384	17.9958	-0.339372	-17881	3.097361E-6	NaN
126	1.000000	0.707148	7.36627e+06	-44939.1	955.818	-29774.7	0.000000	0.000000	6.707047	-0.082073	NaN	0.000000	0.001556	0.001725	28.1044	0.078574	0.001925	40.8149	-164.72	-166.318	-0.019467	0.705837	-0.333672	-0.334983	-0.082073	40.8149	-0.332164	-14032	5.848954E-6	NaN
126	1.000000	0.715127	7.36627e+06	-44939.1	955.818	-29774.7	0.000000	0.000000	6.715027	-0.058239	NaN	0.000000	0.001539	0.001738	28.1036	0.085823	0.002057	41.7185	159.104	-165.901	0.019169	0.713761	-0.325693	-0.327059	-0.058239	41.7185	-0.324646	-10887.7	5.349080E-6	NaN
126	1.000000	0.723155	7.36627e+06	-44939.1	955.819	-29774.7	0.000000	0.000000	6.723052	-0.113307	NaN	0.000000	0.001564	0.001755	28.1033	0.053246	0.001962	27.1448	4.863861	-165.813	-0.128337	0.721798	-0.317665	-0.319021	-0.113307	27.1448	-0.314535	-7728.21	1.466150E-5	NaN
126	1.000000	0.731144	7.36627e+06	-44939.1	955.818	-29774.7	0.000000	0.000000	6.731045	-0.035980	NaN	0.000000	0.001559	0.001803	28.1032	0.167824	0.002104	79.7602	152.776	-165.883	-0.054825	0.729823	-0.309676	-0.310997	-0.035980	79.7602	-0.309337	-6475.13	5.556628E-6	NaN
126	1.000000	0.739142	7.36627e+06	-44939.1	955.819	-29774.7	0.000000	0.000000	6.739044	0.000947	NaN	0.000000	0.001550	0.001765	28.1033	0.062975	0.001958	32.1595	175.886	-168.512	0.016586	0.737803	-0.301678	-0.303017	0.000947	32.1595	-0.301700	-4988.01	-1.899289E-7	NaN
126	1.000000	0.747119	7.36627e+06	-44939.1	955.818	-29774.7	0.000000	0.000000	6.747020	-0.039641	NaN	0.000000	0.001549	0.001785	28.1032	0.090596	0.001970	45.9807	139.975	-162.817	-0.023853	0.745830	-0.293701	-0.294990	-0.039641	45.9807	-0.293054	-3706.9	1.069383E-5	NaN
126	1.000000	0.755151	7.36627e+06	-44939.1	955.818	-29774.7	0.000000	0.000000	6.755050	-0.053771	NaN	0.000000	0.001552	0.001800	28.1024	0.136370	0.002024	67.3779	-171.259	-162.656	-0.016212	0.753824	-0.285669	-0.286996	-0.053771	67.3779	-0.285071	-2814.04	1.910795E-5	NaN
126	1.000000	0.763134	7.36627e+06	-44939.1	955.817	-29774.7	0.000000	0.000000	6.763033	-0.063155	NaN	0.000000	0.001547	0.001814	28.1021	0.084003	0.001975	42.53	-77.0571	-169.018	-0.028642	0.761792	-0.277686	-0.279028	-0.063155	42.53	-0.276572	-2095.05	3.014466E-5	NaN
126	1.000000	0.771131	7.36627e+06	-44939.1	955.819	-29774.7	0.000000	0.000000	6.771032	-0.035662	NaN	0.000000	0.001536	0.001815	28.1021	0.076467	0.002050	37.2991	171.491	-167.521	-0.096568	0.769831	-0.269689	-0.270989	-0.035662	37.2991	-0.268971	-1606.59	2.219746E-5	NaN
126	1.000000	0.779175	7.36627e+06	-44939.1	955.819	-29774.7	0.000000	0.000000	6.779075	-0.057891	NaN	0.000000	0.001560	0.001785	28.102	0.118457	0.002052	57.7369	-54.1774	-164.407	-0.067989	0.777824	-0.261645	-0.262996	-0.057891	57.7369	-0.260893	-1209.47	4.786427E-5	NaN
126	1.000000	0.787152	7.36627e+06	-44939.1	955.819	-29774.7	0.000000	0.000000	6.787053	-0.006712	NaN	0.000000	0.001566	0.001798	28.1027	0.133659	0.002018	66.2178	87.4791	-167.904	-0.031658	0.785871	-0.253668	-0.254949	-0.006712	66.2178	-0.253592	-934.179	7.184773E-6	NaN
126	1.000000	0.795155	7.36627e+06	-44939.1	955.818	-29774.7	0.000000	0.000000	6.795058	0.008008	NaN	0.000000	0.001576	0.001781	28.1022	0.030913	0.002013	15.3603	-58.0358	-164.585	-0.066243	0.793823	-0.245665	-0.246997	0.008008	15.3603	-0.246056	-714.246	-1.121127E-5	NaN
126	1.000000	0.803141	7.36627e+06	-44939.1	955.818	-29774.7	0.000000	0.000000	6.803043	0.004216	NaN	0.000000	0.001606	0.001839	28.1013	0.120612	0.002062	58.4827	122.474	-168.269	-0.065453	0.801845	-0.237679	-0.238975	0.004216	58.4827	-0.237733	-529.789	-7.957017E-6	NaN
126	1.000000	0.811168	7.36627e+06	-44939.1	955.818	-29774.7	0.000000	0.000000	6.811068	-0.062538	NaN	0.000000	0.001567	0.001797	28.1014	0.013065	0.002032	6.429959	58.5585	-164.063	-0.042675	0.809886	-0.229652	-0.230934	-0.062538	6.429959	-0.222357	-302.893	0.000206	NaN
126	1.000000	0.819190	7.36627e+06	-44939.1	955.818	-29774.7	0.000000	0.000000	6.819089	-0.063519	NaN	0.000000	0.001599	0.001821	28.1017	0.042907	0.001795	23.9016	-13.9942	-165.855	-0.025785	0.817853	-0.221630	-0.222967	-0.063519	23.9016	-0.219637	-274.075	0.000232	NaN
126	1.000000	0.827207	7.36627e+06	-44939.1	955.819	-29774.7	0.000000	0.000000	6.827110	0.028494	NaN	0.000000	0.001606	0.001792	28.1013	0.066941	0.001945	34.4121	116.157	-162.677	-0.083771	0.825832	-0.213613	-0.214988	0.028494	34.4121	-0.214234	-224.486	-0.000127	NaN
126	1.000000	0.835155	7.36627e+06	-44939.1	955.818	-29774.7	0.000000	0.000000	6.835060	0.056226	NaN	0.000000	0.001537	0.001790	28.0999	0.056340	0.002067	27.252	-5.559766	-163.734	0.024927	0.833842	-0.205665	-0.206978	0.056226	27.252	-0.207212	-172.815	-0.000325	NaN
126	1.000000	0.843196	7.36627e+06	-44939.1	955.818	-29774.7	0.000000	0.000000	6.843096	-0.036805	NaN	0.000000	0.001557	0.001772	28.1021	0.068437	0.001784	38.3719	2.312428	-166.563	-0.022466	0.841889	-0.197624	-0.198931	-0.036805	38.3719	-0.196905	-117.14	0.000314	NaN
126	1.000000	0.851188	7.36627e+06	-44939.1	955.818	-29774.7	0.000000	0.000000	6.851088	-0.055519	NaN	0.000000	0.001631	0.001798	28.1021	0.036187	0.002183	16.5761	-172.935	-167.443	-0.059486	0.849870	-0.189631	-0.190950	-0.055519	16.5761	-0.187119	-80.4982	0.000690	NaN
126	1.000000	0.859194	7.36627e+06	-44939.1	955.818	-29774.7	0.000000	0.000000	6.859096	0.014287	NaN	0.000000	0.001630	0.001770	28.1021	0.086958	0.002012	43.2298	-105.115	-166.16	-0.005000	0.857865	-0.181626	-0.182955	0.014287	43.2298	-0.181874	-65.6592	-0.000218	NaN
126	1.000000	0.867205	7.36627e+06	-44939.1	955.817	-29774.7	0.000000	0.000000	6.867103	-0.103241	NaN	0.000000	0.001618	0.001767	28.1019	0.029759	0.002049	14.5247	-61.3273	-165.778	-0.066545	0.865917	-0.173614	-0.174903	-0.103241	14.5247	-0.168283	-38.3487	0.002692	NaN
126	1.000000	0.875218	7.36627e+06	-44939.1	955.819	-29774.7	0.000000	0.000000	6.875116	-0.085481	NaN	0.000000	0.001631	0.001778	28.1019	0.041595	0.001928	21.5752	160.776	-167.091	-0.073918	0.873879	-0.165602	-0.166941	-0.085481	21.5752	-0.162631	-30.5201	0.002801	NaN
126	1.000000	0.883185	7.36627e+06	-44939.1	955.819	-29774.7	0.000000	0.000000	6.883086	-0.035665	NaN	0.000000	0.001644	0.001771	28.1009	0.028131	0.002022	13.9138	51.3505	-165.675	-0.023288	0.881892	-0.157635	-0.158928	-0.035665	13.9138	-0.155712	-22.982	0.001552	NaN
126	1.000000	0.891220	7.36627e+06	-44939.1	955.819	-29774.7	0.000000	0.000000	6.891120	-0.039492	NaN	0.000000	0.001629	0.001775	28.1012	0.095612	0.002068	46.241	-105.52	-167.852	0.036099	0.889946	-0.149600	-0.150874	-0.039492	46.241	-0.148960	-17.3382	0.002278	NaN
126	1.000000	0.899192	7.36627e+06	-44939.1	955.819	-29774.7	0.000000	0.000000	6.899091	-0.056936	NaN	0.000000	0.001684	0.001787	28.1023	0.078359	0.001888	41.493	-155.882	-166.581	-0.078774	0.897949	-0.141628	-0.142870	-0.056936	41.493	-0.140599	-12.1397	0.004690	NaN
126	1.000000	0.907234	7.36627e+06	-44939.1	955.818	-29774.7	0.000000	0.000000	6.907133	-0.063090	NaN	0.000000	0.001631	0.001780	28.1021	0.075184	0.002144	35.0666	-4.938142	-167.408	-0.039599	0.905878	-0.133586	-0.134942	-0.063090	35.0666	-0.132237	-8.419575	0.007493	NaN
126	1.000000	0.915223	7.36627e+06	-44939.1	955.818	-29774.7	0.000000	0.000000	6.915125	-0.003727	NaN	0.000000	0.001611	0.001791	28.1017	0.099584	0.002067	48.1828	112.476	-167.301	-0.026962	0.913908	-0.125596	-0.126912	-0.003727	48.1828	-0.125538	-6.232133	0.000598	NaN
126	1.000000	0.923183	7.36627e+06	-44939.1	955.818	-29774.7	0.000000	0.000000	6.923084	-0.040159	NaN	0.000000	0.001586	0.001786	28.1038	0.042444	0.002102	20.1875	80.3646	-167.423	0.054449	0.921882	-0.117636	-0.118938	-0.040159	20.1875	-0.116144	-4.033098	0.009957	NaN
126	1.000000	0.931224	7.36627e+06	-44939.1	955.818	-29774.7	0.000000	0.000000	6.931124	-0.047779	NaN	0.000000	0.001534	0.001767	28.1025	0.109444	0.002067	52.9476	77.0515	-166.216	0.020662	0.929977	-0.109596	-0.110843	-0.047779	52.9476	-0.108919	-2.851224	0.016757	NaN
126	1.000000	0.939225	7.36627e+06	-44939.1	955.818	-29774.7	0.000000	0.000000	6.939126	-0.016688	NaN	0.000000	0.001544	0.001809	28.1028	0.072493	0.002018	35.9295	103.413	-166.56	-0.035483	0.937951	-0.101595	-0.102869	-0.016688	35.9295	-0.101247	-1.946809	0.008572	NaN
126	1.000000	0.947224	7.36627e+06	-44939.1	955.818	-29774.7	0.000000	0.000000	6.947123	-0.075213	NaN	0.000000	0.001549	0.001747	28.103	0.031317	0.001923	16.2824	67.302	-166.017	-0.097424	0.945903	-0.093596	-0.094917	-0.075213	16.2824	-0.090131	-1.088656	0.069088	NaN
126	1.000000	0.955219	7.36627e+06	-44939.1	955.818	-29774.7	0.000000	0.000000	6.955119	-0.034814	NaN	0.000000	0.001551	0.001801	28.1028	0.068018	0.001924	35.361	-91.2427	-164.173	-0.049509	0.953928	-0.085601	-0.086892	-0.034814	35.361	-0.084863	-0.815369	0.042698	NaN
126	1.000000	0.963238	7.36627e+06	-44939.1	955.819	-29774.7	0.000000	0.000000	6.963137	-0.072626	NaN	0.000000	0.001540	0.001793	28.1016	0.047458	0.001967	24.1235	-177.748	-166.015	-0.007117	0.961905	-0.077582	-0.078915	-0.072626	24.1235	-0.075324	-0.470866	0.154240	NaN
126	1.000000	0.971228	7.36627e+06	-44939.1	955.818	-29774.7	0.000000	0.000000	6.971131	0.024973	NaN	0.000000	0.001538	0.001748	28.1014	0.091695	0.002055	44.6126	6.773545	-167.468	0.061776	0.969922	-0.069592	-0.070898	0.024973	44.6126	-0.070012	-0.341364	-0.073158	NaN
126	1.000000	0.979224	7.36627e+06	-44939.1	955.819	-29774.7	0.000000	0.000000	6.979123	-0.063302	NaN	0.000000	0.001561	0.001777	28.1013	0.097214	0.001938	50.1638	-7.767427	-165.104	-0.140427	0.977899	-0.061596	-0.062921	-0.063302	50.1638	-0.060649	-0.187969	0.336769	NaN
126	1.000000	0.987236	7.36627e+06	-44939.1	955.819	-29774.7	0.000000	0.000000	6.987138	-0.002914	NaN	0.000000	0.001526	0.001760	28.1014	0.025103	0.001998	12.5649	-174.421	-165.191	0.011878	0.985917	-0.053584	-0.054903	-0.002914	12.5649	-0.053410	-0.115514	0.025230	NaN
126	1.000000	0.995253	7.36627e+06	-44939.1	955.819	-29774.7	0.000000	0.000000	6.995154	-0.029818	NaN	0.000000	0.001602	0.001792	28.1011	0.081823	0.002023	40.456	-171.785	-167.621	-0.058269	0.993987	-0.045567	-0.046833	-0.029818	40.456	-0.045014	-0.064331	0.463512	NaN
126	1.000000	1.003244	7.36627e+06	-44939.1	955.819	-29774.7	0.000000	0.000000	7.003143	-0.086334	NaN	0.000000	0.001565	0.001804	28.1029	0.076293	0.001891	40.3374	55.3079	-163.982	-0.072192	1.001953	-0.037576	-0.038866	-0.086334	40.3374	-0.035970	-0.034212	2.523517	NaN
126	1.000000	1.011265	7.36627e+06	-44939.1	955.818	-29774.7	0.000000	0.000000	7.011163	-0.089638	NaN	0.000000	0.001578	0.001791	28.1033	0.050036	0.002002	24.9977	102.479	-167.149	-0.006513	1.009983	-0.029555	-0.030836	-0.089638	24.9977	-0.026866	-0.018898	4.743203	NaN
126	1.000000	1.019256	7.36627e+06	-44939.1	955.818	-29774.7	0.000000	0.000000	7.019156	-0.036973	NaN	0.000000	0.001588	0.001750	28.1022	0.046458	0.002085	22.2826	47.981	-169.428	-0.071689	1.017957	-0.021564	-0.022863	-0.036973	22.2826	-0.020320	-0.012798	2.888861	NaN
126	1.000000	1.027245	7.36627e+06	-44939.1	955.819	-29774.7	0.000000	0.000000	7.027148	0.011483	NaN	0.000000	0.001552	0.001790	28.1026	0.068531	0.001899	36.0877	-149.481	-163.44	-0.064268	1.025903	-0.013574	-0.014917	0.011483	36.0877	-0.013813	-0.008574	-1.339303	NaN
126	1.000000	1.035232	7.36627e+06	-44939.1	955.819	-29774.7	0.000000	0.000000	7.035134	-0.012300	NaN	0.000000	0.001557	0.001774	28.1014	0.070378	0.001888	37.2737	-99.6851	-165.736	-0.083874	1.033925	-0.005588	-0.006895	-0.012300	37.2737	-0.005340	-0.003629	3.388933	NaN
126	1.000000	1.043283	7.36627e+06	-44939.1	955.819	-29774.7	0.000000	0.000000	7.043201	0.406126	NaN	0.000000	0.001565	0.001806	28.0999	0.744351	0.001911	389.607	3.759299	-165.191	0.039589	1.041917	0.002463	0.001097	0.406126	389.607	0.001681	0.001298	312.796	9878.71
126	1.000000	1.051127	7.36627e+06	-44939.1	955.819	-29774.7	0.000000	0.000000	7.051342	7.613732	NaN	0.000000	0.001579	0.001757	28.0998	7.612337	0.001753	4341.64	9.448940	-169.56	5.979116	1.049929	0.010307	0.009109	7.613732	4341.64	0.008992	0.008083	941.972	44121.2
126	2.000000	1.053846	7.36627e+06	-44939.1	955.819	-29774.7	0.000000	0.000000	7.054182	10.5679	NaN	0.000000	0.001566	0.001768	28.1001	10.6554	0.001652	6449.65	5.355595	-173.694	9.862972	1.053500	0.013026	0.012680	10.5679	6449.65	0.011797	0.011248	939.551	55561.6
126	2.000000	1.055860	7.36627e+06	-44939.1	955.819	-29774.7	0.000000	0.000000	7.056401	15.5437	NaN	0.000000	0.001569	0.001720	28.0999	13.4741	0.001863	7234.11	11.3557	-177.861	16.001	1.055541	0.015040	0.014721	15.5437	7234.11	0.013429	0.013247	1173.41	57425.5
126	2.000000	1.057831	7.36627e+06	-44939.1	955.819	-29774.7	0.000000	0.000000	7.058441	17.211	NaN	0.000000	0.001595	0.001757	28.1003	14.9376	0.001667	8963.18	4.298378	-173.653	17.6675	1.057549	0.017011	0.016729	17.211	8963.18	0.015571	0.016055	1072.04	64630.4
126	2.000000	1.059803	7.36627e+06	-44939.1	955.819	-29774.7	0.000000	0.000000	7.060632	22.5447	NaN	0.000000	0.001601	0.001765	28.1008	18.4792	0.001864	9916.02	7.567723	-177.95	22.5274	1.059497	0.018983	0.018677	22.5447	9916.02	0.017278	0.018444	1222.33	66708.8
126	2.000000	1.061818	7.36627e+06	-44939.1	955.818	-29774.7	0.000000	0.000000	7.062866	27.8616	NaN	0.000000	0.001560	0.001783	28.1008	20.5931	0.001845	11158.6	10.345	177.241	27.7846	1.061445	0.020998	0.020625	27.8616	11158.6	0.019126	0.021187	1315.03	70040.4
126	2.000000	1.063768	7.36627e+06	-44939.1	955.818	-29774.7	0.000000	0.000000	7.065069	34.0243	NaN	0.000000	0.001560	0.001771	28.1008	22.5324	0.001742	12935.6	5.944265	-179.072	33.1552	1.063490	0.022948	0.022671	34.0243	12935.6	0.020976	0.024099	1411.87	76130.9
126	2.000000	1.065811	7.36627e+06	-44939.1	955.819	-29774.7	0.000000	0.000000	7.067354	39.9328	NaN	0.000000	0.001567	0.001802	28.1011	25.0937	0.001707	14699.9	6.178017	-179.859	40.1084	1.065421	0.024991	0.024601	39.9328	14699.9	0.022953	0.027397	1457.55	81139.6
126	2.000000	1.067768	7.36627e+06	-44939.1	955.819	-29774.7	0.000000	0.000000	7.069581	46.4757	NaN	0.000000	0.001592	0.001807	28.1007	26.7431	0.001846	14486.7	4.756916	-179.101	44.9022	1.067421	0.026948	0.026602	46.4757	14486.7	0.024542	0.030188	1539.55	76177.8
126	2.000000	1.069732	7.36627e+06	-44939.1	955.819	-29774.7	0.000000	0.000000	7.071670	49.5266	NaN	0.000000	0.001589	0.001814	28.0987	29.5471	0.001825	16194.4	3.954978	-178.977	48.1954	1.069447	0.028913	0.028627	49.5266	16194.4	0.026619	0.034027	1455.52	80209.8
126	2.000000	1.071734	7.36627e+06	-44939.1	955.819	-29774.7	0.000000	0.000000	7.074017	57.9277	NaN	0.000000	0.001576	0.001791	28.0997	30.5112	0.001726	17679.9	5.044096	179.25	57.5251	1.071419	0.030914	0.030599	57.9277	17679.9	0.028457	0.037606	1540.39	83296.4
126	2.000000	1.073705	7.36627e+06	-44939.1	955.819	-29774.7	0.000000	0.000000	7.076317	65.9122	NaN	0.000000	0.001550	0.001798	28.0993	32.4202	0.001713	18926	1.672294	-178.571	64.0831	1.073402	0.032886	0.032582	65.9122	18926	0.030274	0.041313	1595.45	85073
126	2.000000	1.075702	7.36627e+06	-44939.1	955.819	-29774.7	0.000000	0.000000	7.078581	72.4158	NaN	0.000000	0.001599	0.001818	28.0991	34.6803	0.001758	19726.1	3.646609	179.332	69.7461	1.075429	0.034882	0.034609	72.4158	19726.1	0.032129	0.045272	1599.59	84703.5
126	2.000000	1.077745	7.36627e+06	-44939.1	955.819	-29774.7	0.000000	0.000000	7.080834	77.5313	NaN	0.000000	0.001584	0.001777	28.0991	36.7912	0.001679	21911.5	3.683622	177.502	77.246	1.077434	0.036925	0.036614	77.5313	21911.5	0.034271	0.050062	1548.7	89472.9
126	2.000000	1.079751	7.36627e+06	-44939.1	955.819	-29774.7	0.000000	0.000000	7.083080	83.375	NaN	0.000000	0.001556	0.001770	28.1003	40.1652	0.001823	22030.7	6.733998	175.674	83.0181	1.079405	0.038931	0.038585	83.375	22030.7	0.036093	0.054320	1534.87	86361.6
126	2.000000	1.081725	7.36627e+06	-44939.1	955.819	-29774.7	0.000000	0.000000	7.085400	91.7927	NaN	0.000000	0.001598	0.001781	28.1015	41.193	0.001798	22913.1	5.250210	176.049	88.8894	1.081389	0.040905	0.040570	91.7927	22913.1	0.037900	0.058714	1563.38	86394.4
126	2.000000	1.083666	7.36627e+06	-44939.1	955.819	-29774.7	0.000000	0.000000	7.087639	99.0345	NaN	0.000000	0.001571	0.001755	28.1013	43.5751	0.001951	22330.2	4.640529	177.596	94.3383	1.083328	0.042846	0.042508	99.0345	22330.2	0.039519	0.062792	1577.17	81416.4
126	2.000000	1.085755	7.36627e+06	-44939.1	955.82	-29774.7	0.000000	0.000000	7.090178	110.006	NaN	0.000000	0.001607	0.001776	28.103	45.2103	0.001858	24329.8	5.460995	176.448	109.988	1.085423	0.044935	0.044603	110.006	24329.8	0.041544	0.068078	1615.88	85193.7
126	2.000000	1.087768	7.36627e+06	-44939.1	955.819	-29774.7	0.000000	0.000000	7.092500	117.5	NaN	0.000000	0.001598	0.001761	28.1013	45.7646	0.001690	27081.4	0.812964	179.353	117.235	1.087405	0.046949	0.046585	117.5	27081.4	0.043694	0.073924	1589.46	91001.8
126	2.000000	1.089673	7.36627e+06	-44939.1	955.819	-29774.7	0.000000	0.000000	7.094755	126.037	NaN	0.000000	0.001586	0.001807	28.1007	48.1934	0.001682	28646.9	2.716586	176.796	123.104	1.089364	0.048853	0.048545	126.037	28646.9	0.045553	0.079165	1592.08	93021.7
126	2.000000	1.091756	7.36627e+06	-44939.1	955.819	-29774.7	0.000000	0.000000	7.097316	137.631	NaN	0.000000	0.001570	0.001802	28.1002	48.9893	0.001731	28302.8	2.256144	177.994	137.399	1.091343	0.050937	0.050524	137.631	28302.8	0.047290	0.084220	1634.2	89103.8
126	2.000000	1.093706	7.36627e+06	-44939.1	955.819	-29774.7	0.000000	0.000000	7.099556	144.704	NaN	0.000000	0.001527	0.001832	28.1002	52.1034	0.001737	29999.1	4.052283	175.206	145.469	1.093440	0.052886	0.052621	144.704	29999.1	0.049269	0.090166	1604.86	91276.7
126	2.000000	1.095727	7.36627e+06	-44939.1	955.819	-29774.7	0.000000	0.000000	7.102082	157	NaN	0.000000	0.001560	0.001758	28.0999	53.9752	0.001706	31643.6	5.135254	174.033	155.771	1.095387	0.054907	0.054567	157	31643.6	0.051186	0.096114	1633.48	93253.9
126	2.000000	1.097697	7.36627e+06	-44939.1	955.82	-29774.7	0.000000	0.000000	7.104382	165.016	NaN	0.000000	0.001591	0.001791	28.1006	55.6563	0.001767	31496	3.601706	175.34	163.048	1.097298	0.056877	0.056478	165.016	31496	0.052947	0.101741	1621.93	90215.7
126	2.000000	1.099716	7.36627e+06	-44939.1	955.819	-29774.7	0.000000	0.000000	7.106694	172.139	NaN	0.000000	0.001563	0.001799	28.1011	58.2645	0.001702	34240.1	6.010620	171.85	170.669	1.099458	0.058897	0.058638	172.139	34240.1	0.055126	0.108913	1580.52	94791.3
126	2.000000	1.101760	7.36627e+06	-44939.1	955.819	-29774.7	0.000000	0.000000	7.109133	181.758	NaN	0.000000	0.001591	0.001824	28.1011	58.6822	0.001677	35000.5	4.657736	173.407	184.784	1.101424	0.060940	0.060604	181.758	35000.5	0.057045	0.115427	1574.66	94122.7
126	2.000000	1.103666	7.36627e+06	-44939.1	955.819	-29774.7	0.000000	0.000000	7.111578	194.87	NaN	0.000000	0.001601	0.001775	28.1013	63.0453	0.001855	33995.3	7.541396	171.329	193.248	1.103358	0.062846	0.062538	194.87	33995.3	0.058547	0.120649	1615.19	89419.3
126	2.000000	1.105706	7.36627e+06	-44939.1	955.819	-29774.7	0.000000	0.000000	7.113954	203.039	NaN	0.000000	0.001576	0.001780	28.0996	64.7885	0.001790	36194.3	6.767030	171.72	202.884	1.105357	0.064886	0.064537	203.039	36194.3	0.060679	0.128255	1583.09	92337.1
126	2.000000	1.107654	7.36627e+06	-44939.1	955.819	-29774.7	0.000000	0.000000	7.116341	213.719	NaN	0.000000	0.001583	0.001777	28.1008	65.258	0.001651	39520.6	1.279556	175.687	209.28	1.107386	0.066834	0.066567	213.719	39520.6	0.062778	0.135958	1571.95	97925.1
126	2.000000	1.109661	7.36627e+06	-44939.1	955.819	-29774.7	0.000000	0.000000	7.118798	224.659	NaN	0.000000	0.001576	0.001804	28.0998	68.7484	0.001821	37759.7	2.353882	175.117	222.294	1.109443	0.068841	0.068623	224.659	37759.7	0.064379	0.141977	1582.36	91557.2
126	2.000000	1.111737	7.36628e+06	-44939.1	955.82	-29774.7	0.000000	0.000000	7.121450	238.677	NaN	0.000000	0.001583	0.001752	28.1007	70.2173	0.001675	41923.9	7.812596	168.723	242.191	1.111410	0.070917	0.070590	238.677	41923.9	0.066647	0.150718	1583.6	98662.5
126	2.000000	1.113668	7.36628e+06	-44939.1	955.819	-29774.7	0.000000	0.000000	7.123912	251.582	NaN	0.000000	0.001548	0.001793	28.1003	72.7687	0.001807	40281.5	3.084866	174.232	249.465	1.113367	0.072848	0.072547	251.582	40281.5	0.068164	0.156700	1605.5	92970.3
126	2.000000	1.115736	7.36628e+06	-44939.1	955.819	-29774.7	0.000000	0.000000	7.126537	265.138	NaN	0.000000	0.001568	0.001780	28.0993	75.1707	0.001737	43285	6.657060	171.059	266.543	1.115356	0.074916	0.074536	265.138	43285	0.070322	0.165400	1603.01	97239.5
126	2.000000	1.117610	7.36628e+06	-44939.1	955.82	-29774.7	0.000000	0.000000	7.129012	279.757	NaN	0.000000	0.001550	0.001758	28.0984	76.6767	0.001764	43460	4.735670	171.774	275.746	1.117259	0.076790	0.076439	279.757	43460	0.071962	0.172163	1624.96	95695.9
126	2.000000	1.119574	7.36628e+06	-44939.1	955.819	-29774.7	0.000000	0.000000	7.131213	285.536	NaN	0.000000	0.001565	0.001829	28.0998	80.1176	0.001855	43181.4	8.083795	168.449	278.927	1.119291	0.078754	0.078471	285.536	43181.4	0.073795	0.179867	1587.49	93023.8
126	2.000000	1.121631	7.36628e+06	-44939.1	955.818	-29774.7	0.000000	0.000000	7.134051	304.527	NaN	0.000000	0.001591	0.001827	28.0989	80.0238	0.001805	44331.5	4.965367	171.86	301.89	1.121330	0.080811	0.080511	304.527	44331.5	0.075659	0.187869	1620.96	93445.4
126	2.000000	1.123718	7.36628e+06	-44939.1	955.82	-29774.7	0.000000	0.000000	7.136606	315.911	NaN	0.000000	0.001537	0.001832	28.0993	83.1958	0.001713	48572.9	7.422150	168.297	317.53	1.123242	0.082898	0.082422	315.911	48572.9	0.078021	0.198236	1593.61	99672.6
126	2.000000	1.125692	7.36628e+06	-44939.1	955.82	-29774.7	0.000000	0.000000	7.139333	334.234	NaN	0.000000	0.001525	0.001829	28.0996	85.2366	0.001868	45637.7	4.770870	171.835	333.09	1.125355	0.084872	0.084535	334.234	45637.7	0.079379	0.204321	1635.83	92244.4
126	2.000000	1.127635	7.36628e+06	-44939.1	955.82	-29774.7	0.000000	0.000000	7.141857	348.374	NaN	0.000000	0.001548	0.001824	28.0991	86.801	0.001871	46385.9	5.534125	171.189	345.26	1.127311	0.086815	0.086491	348.374	46385.9	0.081182	0.212528	1639.19	91928.7
126	2.000000	1.129635	7.36628e+06	-44939.1	955.818	-29774.7	0.000000	0.000000	7.144353	360.447	NaN	0.000000	0.001553	0.001837	28.098	90.2782	0.001865	48409.1	8.613351	167.502	359.211	1.129273	0.088815	0.088453	360.447	48409.1	0.083230	0.222033	1623.39	93862.3
126	2.000000	1.131595	7.36628e+06	-44939.1	955.819	-29774.7	0.000000	0.000000	7.147141	380.589	NaN	0.000000	0.001532	0.001869	28.0971	90.1604	0.001792	50312.8	8.185964	167.132	377.291	1.131293	0.090775	0.090473	380.589	50312.8	0.085101	0.230886	1648.39	95665
126	2.000000	1.133588	7.36628e+06	-44939.1	955.82	-29774.7	0.000000	0.000000	7.149514	389.815	NaN	0.000000	0.001515	0.001800	28.0991	93.1439	0.001897	49096	9.979625	166.704	384.818	1.133150	0.092768	0.092330	389.815	49096	0.086813	0.239127	1630.16	91728.7
126	2.000000	1.135643	7.36628e+06	-44939.1	955.819	-29774.7	0.000000	0.000000	7.152189	404.918	NaN	0.000000	0.001511	0.001776	28.098	93.8217	0.001718	54603.7	5.335033	169.464	401.813	1.135315	0.094823	0.094495	404.918	54603.7	0.089261	0.251148	1612.27	99547.5
126	2.000000	1.137592	7.36628e+06	-44939.1	955.819	-29774.7	0.000000	0.000000	7.154934	424.258	NaN	0.000000	0.001523	0.001789	28.0978	95.2287	0.001859	51231	5.342777	170.419	419.731	1.137289	0.096772	0.096469	424.258	51231	0.090561	0.257643	1646.69	92214.2
126	2.000000	1.139705	7.36628e+06	-44939.1	955.818	-29774.7	0.000000	0.000000	7.157225	428.607	NaN	0.000000	0.001524	0.001792	28.0995	99.3364	0.001832	54230.2	8.121582	166.578	428.865	1.139434	0.098885	0.098614	428.607	54230.2	0.092957	0.269818	1588.5	95384.8
126	2.000000	1.141660	7.36628e+06	-44939.1	955.819	-29774.7	0.000000	0.000000	7.160019	449.002	NaN	0.000000	0.001528	0.001779	28.0984	98.969	0.001820	54385.7	6.867601	168.161	449.622	1.141324	0.100840	0.100504	449.002	54385.7	0.094649	0.278569	1611.82	94143.7
126	2.000000	1.143612	7.36628e+06	-44939.1	955.819	-29774.7	0.000000	0.000000	7.162827	469.855	NaN	0.000000	0.001522	0.001775	28.099	102.766	0.001806	56887.4	9.149533	165.717	464.322	1.143196	0.102792	0.102377	469.855	56887.4	0.096597	0.288814	1626.84	96711.9
126	2.000000	1.145795	7.36628e+06	-44939.1	955.819	-29774.7	0.000000	0.000000	7.165390	479.077	NaN	0.000000	0.001532	0.001796	28.0988	104.336	0.001841	56661.8	7.111635	168.548	483.856	1.145386	0.104975	0.104567	479.077	56661.8	0.098634	0.299705	1598.49	94561.9
126	2.000000	1.147636	7.36628e+06	-44939.1	955.82	-29774.7	0.000000	0.000000	7.167791	492.698	NaN	0.000000	0.001554	0.001812	28.0988	104.915	0.001799	58304.2	2.500318	172.187	491.413	1.147412	0.106817	0.106592	492.698	58304.2	0.100479	0.309736	1590.7	95714.3
126	2.000000	1.149558	7.36628e+06	-44939.1	955.82	-29774.7	0.000000	0.000000	7.170996	523.904	NaN	0.000000	0.001509	0.001808	28.099	107.665	0.001774	60687.5	4.563037	169.911	519.049	1.149262	0.108738	0.108442	523.904	60687.5	0.102264	0.319589	1639.3	98079.2
126	2.000000	1.150631	7.36628e+06	-44939.1	955.819	-29774.7	0.000000	0.000000	7.172198	527.031	NaN	0.000000	0.001496	0.001787	28.0954	107.414	0.001760	61025.7	0.975338	173.498	524.896	1.150437	0.109812	0.109617	527.031	61025.7	0.103334	0.325567	1618.81	97716.1