File: remote_trans/data/nanoindenter/0828-1/data/Data_2025-08-06,11h17m57s/2025-07-22_16-23-58_1_1042.txt
2025-07-22, 16:23:58, 1
Index	Phase	Displacement	Time	Pos X	Pos Y	Pos Z	Rot A	Rot B	Piezo Z	Force A	Force B	Gripper	Voltage A	Voltage B	Temperature	Amplitude force	Amplitude pos	Stiffness	Phase shift	Phase excitation	Force A raw	Displacement raw	HMax	HMax raw	Real Force	Real Stiffness	Contact Depth	Area	Hardness	Reduced Mod.
[#]	[#]	[um]	[s]	[um]	[um]	[um]	[m°]	[m°]	[um]	[uN]	[uN]	[V]	[V]	[V]	[°C]	[uN]	[um]	[N/m]	[°]	[°]	[uN]	[um]	[um]	[um]	[uN]	[N/m]	[um]	[um^2]	[MPa]	[MPa]
1042	1.000000	0.001800	7.37524e+06	-52239.1	1055.82	-29749.7	0.000000	0.000000	6.002805	-0.040344	NaN	0.000000	0.001655	0.001637	28.084	0.048356	0.001126	42.9459	-81.9674	-155.893	0.007736	0.000534	-1.126043	-1.127310	-0.040344	42.9459	-1.125338	-1.096710E+15	3.678623E-17	NaN
1042	1.000000	0.011864	7.37524e+06	-52239.1	1055.82	-29749.7	0.000000	0.000000	6.012871	0.011367	NaN	0.000000	0.001640	0.001663	28.0844	0.116014	0.001146	101.217	75.5906	15.9469	0.028492	0.010401	-1.115979	-1.117442	0.011367	101.217	-1.116063	-8.234686E+14	-1.380365E-17	NaN
1042	1.000000	0.021767	7.37524e+06	-52239.1	1055.82	-29749.7	0.000000	0.000000	6.022774	0.025720	NaN	0.000000	0.001677	0.001679	28.0841	0.085021	0.001556	54.6252	-118.948	-165.239	0.069567	0.020416	-1.106076	-1.107427	0.025720	54.6252	-1.106429	-6.114514E+14	-4.206384E-17	NaN
1042	1.000000	0.031751	7.37524e+06	-52239.1	1055.82	-29749.7	0.000000	0.000000	6.032762	0.129807	NaN	0.000000	0.001652	0.001655	28.0839	0.184036	0.002021	91.0783	-125.631	12.5108	0.099129	0.030391	-1.096092	-1.097452	0.129807	91.0783	-1.097161	-4.591555E+14	-2.827092E-16	NaN
1042	1.000000	0.041726	7.37524e+06	-52239.1	1055.82	-29749.7	0.000000	0.000000	6.042732	-0.020536	NaN	0.000000	0.001635	0.001661	28.0842	0.035829	0.001954	18.3386	-94.8686	-163.282	0.008766	0.040458	-1.086117	-1.087385	-0.020536	18.3386	-1.085277	-3.179720E+14	6.458489E-17	NaN
1042	1.000000	0.051754	7.37524e+06	-52239.1	1055.82	-29749.7	0.000000	0.000000	6.052757	-0.072573	NaN	0.000000	0.001649	0.001664	28.0841	0.042696	0.002047	20.8619	67.574	13.7927	-0.053252	0.050384	-1.076089	-1.077459	-0.072573	20.8619	-1.073480	-2.207682E+14	3.287305E-16	NaN
1042	1.000000	0.061758	7.37524e+06	-52239.1	1055.82	-29749.7	0.000000	0.000000	6.062762	-0.051345	NaN	0.000000	0.001672	0.001676	28.0839	0.139176	0.001938	71.8322	-90.3937	-164.632	-0.079109	0.060450	-1.066085	-1.067393	-0.051345	71.8322	-1.065549	-1.727370E+14	2.972461E-16	NaN
1042	1.000000	0.071761	7.37524e+06	-52239.1	1055.82	-29749.7	0.000000	0.000000	6.072769	0.043885	NaN	0.000000	0.001661	0.001665	28.0841	0.086314	0.001934	44.6321	21.4328	16.654	-0.009588	0.070405	-1.056082	-1.057438	0.043885	44.6321	-1.056820	-1.318491E+14	-3.328395E-16	NaN
1042	1.000000	0.081748	7.37524e+06	-52239.1	1055.82	-29749.7	0.000000	0.000000	6.082754	0.014949	NaN	0.000000	0.001642	0.001678	28.0832	0.061931	0.001986	31.1823	109.508	-164.548	0.016739	0.080460	-1.046095	-1.047383	0.014949	31.1823	-1.046455	-9.566566E+13	-1.562659E-16	NaN
1042	1.000000	0.091719	7.37524e+06	-52239.1	1055.82	-29749.7	0.000000	0.000000	6.092724	-0.019119	NaN	0.000000	0.001624	0.001645	28.083	0.046406	0.001946	23.8479	104.899	15.772	-0.068001	0.090395	-1.036124	-1.037448	-0.019119	23.8479	-1.035523	-6.819635E+13	2.803458E-16	NaN
1042	1.000000	0.101758	7.37524e+06	-52239.1	1055.82	-29749.7	0.000000	0.000000	6.102766	0.047912	NaN	0.000000	0.001668	0.001652	28.0829	0.031037	0.002013	15.4172	105.677	-163.279	0.070912	0.100381	-1.026085	-1.027462	0.047912	15.4172	-1.028416	-5.472304E+13	-8.755310E-16	NaN
1042	1.000000	0.111761	7.37524e+06	-52239.1	1055.82	-29749.7	0.000000	0.000000	6.112767	0.001688	NaN	0.000000	0.001656	0.001679	28.0832	0.132089	0.002114	62.4794	104.846	14.6536	0.026732	0.110396	-1.016082	-1.017448	0.001688	62.4794	-1.016103	-3.736895E+13	-4.516116E-17	NaN
1042	1.000000	0.121764	7.37524e+06	-52239.1	1055.82	-29749.7	0.000000	0.000000	6.122771	0.025969	NaN	0.000000	0.001644	0.001684	28.0832	0.033151	0.001978	16.7623	88.8007	-167.243	-0.039183	0.120495	-1.006080	-1.007348	0.025969	16.7623	-1.007241	-2.839570E+13	-9.145402E-16	NaN
1042	1.000000	0.131779	7.37524e+06	-52239.1	1055.82	-29749.7	0.000000	0.000000	6.132785	0.008179	NaN	0.000000	0.001649	0.001642	28.0833	0.040378	0.001828	22.0829	-137.347	17.1597	-0.019097	0.130413	-0.996064	-0.997430	0.008179	22.0829	-0.996342	-2.025421E+13	-4.038364E-16	NaN
1042	1.000000	0.141782	7.37524e+06	-52239.1	1055.82	-29749.7	0.000000	0.000000	6.142790	0.050597	NaN	0.000000	0.001649	0.001642	28.0831	0.063619	0.001942	32.7607	38.5801	-164.688	-0.017151	0.140476	-0.986061	-0.987367	0.050597	32.7607	-0.987219	-1.526379E+13	-3.314837E-15	NaN
1042	1.000000	0.151774	7.37524e+06	-52239.1	1055.82	-29749.7	0.000000	0.000000	6.152783	0.054163	NaN	0.000000	0.001653	0.001641	28.0835	0.079786	0.002043	39.053	67.5707	13.9292	0.028264	0.150435	-0.976069	-0.977409	0.054163	39.053	-0.977109	-1.115473E+13	-4.855651E-15	NaN
1042	1.000000	0.161786	7.37524e+06	-52239.1	1055.82	-29749.7	0.000000	0.000000	6.162791	-0.018343	NaN	0.000000	0.001627	0.001663	28.0834	0.074868	0.001966	38.0869	-147.413	-161.784	-0.022930	0.160494	-0.966057	-0.967349	-0.018343	38.0869	-0.965696	-7.828010E+12	2.343287E-15	NaN
1042	1.000000	0.171792	7.37524e+06	-52239.1	1055.82	-29749.7	0.000000	0.000000	6.172798	-0.004642	NaN	0.000000	0.001691	0.001722	28.0837	0.077179	0.001976	39.0547	76.8613	15.9447	-0.035390	0.170454	-0.956051	-0.957389	-0.004642	39.0547	-0.955962	-5.786590E+12	8.022655E-16	NaN
1042	1.000000	0.181795	7.37524e+06	-52239.1	1055.82	-29749.7	0.000000	0.000000	6.182801	-0.012665	NaN	0.000000	0.001639	0.001698	28.0834	0.079497	0.002075	38.311	-35.5896	-163.102	-0.016164	0.180441	-0.946048	-0.947403	-0.012665	38.311	-0.945800	-4.220622E+12	3.000660E-15	NaN
1042	1.000000	0.191793	7.37524e+06	-52239.1	1055.82	-29749.7	0.000000	0.000000	6.192799	-0.000578	NaN	0.000000	0.001640	0.001741	28.0839	0.080405	0.002034	39.5395	-169.107	16.2176	0.026462	0.190422	-0.936050	-0.937421	-0.000578	39.5395	-0.936039	-3.116704E+12	1.853679E-16	NaN
1042	1.000000	0.201793	7.37524e+06	-52239.1	1055.82	-29749.7	0.000000	0.000000	6.202795	-0.095471	NaN	0.000000	0.001645	0.001671	28.0836	0.112995	0.002077	54.4062	15.5071	-164.172	-0.025166	0.200522	-0.926050	-0.927321	-0.095471	54.4062	-0.924734	-2.193413E+12	4.352614E-14	NaN
1042	1.000000	0.211778	7.37524e+06	-52239.1	1055.82	-29749.7	0.000000	0.000000	6.212786	0.035112	NaN	0.000000	0.001654	0.001734	28.0845	0.016291	0.002057	7.919852	22.0801	15.3545	0.067492	0.210460	-0.916065	-0.917383	0.035112	7.919852	-0.919390	-1.857668E+12	-1.890138E-14	NaN
1042	1.000000	0.221780	7.37524e+06	-52239.1	1055.82	-29749.7	0.000000	0.000000	6.222787	0.006883	NaN	0.000000	0.001609	0.001751	28.0846	0.104068	0.001910	54.476	64.8703	-163.284	0.014657	0.220487	-0.906063	-0.907356	0.006883	54.476	-0.906157	-1.230995E+12	-5.591031E-15	NaN
1042	1.000000	0.231815	7.37524e+06	-52239.1	1055.82	-29749.7	0.000000	0.000000	6.232821	-0.009924	NaN	0.000000	0.001638	0.001729	28.0846	0.006986	0.001958	3.568728	168.427	12.7942	0.001638	0.230394	-0.896028	-0.897449	-0.009924	3.568728	-0.893942	-8.417816E+11	1.178970E-14	NaN
1042	1.000000	0.241827	7.37524e+06	-52239.1	1055.82	-29749.7	0.000000	0.000000	6.242832	-0.039826	NaN	0.000000	0.001632	0.001707	28.0846	0.028990	0.001987	14.5881	-46.0574	-163.607	0.023340	0.240528	-0.886016	-0.887315	-0.039826	14.5881	-0.883968	-6.171197E+11	6.453605E-14	NaN
1042	1.000000	0.251824	7.37524e+06	-52239.1	1055.82	-29749.7	0.000000	0.000000	6.252833	0.049941	NaN	0.000000	0.001663	0.001716	28.0846	0.089410	0.002037	43.9004	-133.07	6.878382	-0.058167	0.250442	-0.876019	-0.877401	0.049941	43.9004	-0.876872	-4.947692E+11	-1.009377E-13	NaN
1042	1.000000	0.261853	7.37524e+06	-52239.1	1055.82	-29749.7	0.000000	0.000000	6.262858	-0.021395	NaN	0.000000	0.001650	0.001703	28.0847	0.101823	0.002196	46.3649	-142.773	-165.653	-0.013561	0.260529	-0.865990	-0.867314	-0.021395	46.3649	-0.865644	-3.487458E+11	6.134745E-14	NaN
1042	1.000000	0.271810	7.37524e+06	-52239.1	1055.82	-29749.7	0.000000	0.000000	6.272816	-0.016074	NaN	0.000000	0.001642	0.001698	28.0847	0.041320	0.002098	19.6905	141.416	13.8054	-0.006257	0.270478	-0.856033	-0.857365	-0.016074	19.6905	-0.855421	-2.535903E+11	6.338546E-14	NaN
1042	1.000000	0.281822	7.37524e+06	-52239.1	1055.82	-29749.7	0.000000	0.000000	6.282829	0.020766	NaN	0.000000	0.001686	0.001731	28.0844	0.088571	0.001924	46.0445	-35.7492	-166.258	0.056673	0.280531	-0.846021	-0.847312	0.020766	46.0445	-0.846359	-1.911751E+11	-1.086228E-13	NaN
1042	1.000000	0.291859	7.37524e+06	-52239.1	1055.82	-29749.7	0.000000	0.000000	6.292865	0.002982	NaN	0.000000	0.001671	0.001701	28.0843	0.029708	0.001931	15.3829	71.1513	16.1731	-0.041135	0.290507	-0.835984	-0.837336	0.002982	15.3829	-0.836130	-1.389489E+11	-2.146452E-14	NaN
1042	1.000000	0.301856	7.37524e+06	-52239.1	1055.82	-29749.7	0.000000	0.000000	6.302865	0.072251	NaN	0.000000	0.001673	0.001729	28.0846	0.085407	0.002149	39.7482	151.665	-164.127	0.024618	0.300568	-0.825987	-0.827275	0.072251	39.7482	-0.827350	-1.056500E+11	-6.838715E-13	NaN
1042	1.000000	0.311860	7.37524e+06	-52239.1	1055.82	-29749.7	0.000000	0.000000	6.312865	-0.033342	NaN	0.000000	0.001694	0.001710	28.0849	0.103296	0.002021	51.1214	51.5674	15.579	-0.018824	0.310502	-0.815983	-0.817341	-0.033342	51.1214	-0.815494	-7.296232E+10	4.569714E-13	NaN
1042	1.000000	0.321865	7.37524e+06	-52239.1	1055.82	-29749.7	0.000000	0.000000	6.322872	0.006710	NaN	0.000000	0.001716	0.001674	28.0846	0.094534	0.002001	47.2504	155.271	-163.737	0.076484	0.320561	-0.805978	-0.807282	0.006710	47.2504	-0.806084	-5.438025E+10	-1.233851E-13	NaN
1042	1.000000	0.331868	7.37524e+06	-52239.1	1055.82	-29749.7	0.000000	0.000000	6.332875	0.034676	NaN	0.000000	0.001692	0.001733	28.0844	0.017056	0.001972	8.647630	-164.446	18.0445	0.019920	0.330529	-0.795975	-0.797314	0.034676	8.647630	-0.798983	-4.355645E+10	-7.961248E-13	NaN
1042	1.000000	0.341864	7.37524e+06	-52239.1	1055.82	-29749.7	0.000000	0.000000	6.342871	0.011881	NaN	0.000000	0.001709	0.001713	28.0846	0.131732	0.002068	63.7106	-128.513	-166.563	-0.044320	0.340532	-0.785979	-0.787311	0.011881	63.7106	-0.786119	-2.913158E+10	-4.078425E-13	NaN
1042	1.000000	0.351864	7.37524e+06	-52239.1	1055.82	-29749.7	0.000000	0.000000	6.352871	0.018980	NaN	0.000000	0.001692	0.001759	28.0837	0.044902	0.002019	22.2415	-171.914	12.7195	0.054938	0.350549	-0.775979	-0.777294	0.018980	22.2415	-0.776619	-2.164127E+10	-8.770076E-13	NaN
1042	1.000000	0.361900	7.37524e+06	-52239.1	1055.82	-29749.7	0.000000	0.000000	6.362905	-0.020053	NaN	0.000000	0.001706	0.001711	28.0835	0.122274	0.001972	62.0029	2.743972	-163.599	0.015674	0.360566	-0.765943	-0.767278	-0.020053	62.0029	-0.765701	-1.537602E+10	1.304145E-12	NaN
1042	1.000000	0.371885	7.37524e+06	-52239.1	1055.82	-29749.7	0.000000	0.000000	6.372890	-0.045907	NaN	0.000000	0.001702	0.001723	28.0834	0.139081	0.002152	64.6149	134.938	15.7509	0.056619	0.370513	-0.755958	-0.757330	-0.045907	64.6149	-0.755425	-1.114430E+10	4.119360E-12	NaN
1042	1.000000	0.381904	7.37524e+06	-52239.1	1055.82	-29749.7	0.000000	0.000000	6.382913	0.047757	NaN	0.000000	0.001697	0.001696	28.0836	0.054464	0.002081	26.1773	-166.685	-164.922	0.058821	0.380601	-0.745939	-0.747242	0.047757	26.1773	-0.747307	-8.640884E+9	-5.526913E-12	NaN
1042	1.000000	0.391889	7.37524e+06	-52239.1	1055.82	-29749.7	0.000000	0.000000	6.392892	-0.096146	NaN	0.000000	0.001716	0.001637	28.0834	0.041590	0.002064	20.1515	89.2445	15.8564	-0.063111	0.390546	-0.735954	-0.737297	-0.096146	20.1515	-0.732375	-5.409775E+9	1.777272E-11	NaN
1042	1.000000	0.401886	7.37524e+06	-52239.1	1055.82	-29749.7	0.000000	0.000000	6.402892	0.010853	NaN	0.000000	0.001684	0.001702	28.0837	0.064610	0.001908	33.8572	130.977	-164.487	0.029859	0.400566	-0.725957	-0.727277	0.010853	33.8572	-0.726198	-4.456369E+9	-2.435305E-12	NaN
1042	1.000000	0.411900	7.37524e+06	-52239.1	1055.82	-29749.7	0.000000	0.000000	6.412903	-0.073038	NaN	0.000000	0.001669	0.001685	28.0834	0.135974	0.001943	69.9839	75.4809	16.1436	0.008444	0.410574	-0.715943	-0.717269	-0.073038	69.9839	-0.715160	-3.151071E+9	2.317892E-11	NaN
1042	1.000000	0.421880	7.37524e+06	-52239.1	1055.82	-29749.7	0.000000	0.000000	6.422887	0.021782	NaN	0.000000	0.001702	0.001686	28.0838	0.036403	0.002024	17.9847	60.4406	-166.039	-0.012999	0.420590	-0.705964	-0.707253	0.021782	17.9847	-0.706872	-2.428593E+9	-8.968819E-12	NaN
1042	1.000000	0.431891	7.37524e+06	-52239.1	1055.82	-29749.7	0.000000	0.000000	6.432897	-0.001644	NaN	0.000000	0.001684	0.001707	28.0831	0.047167	0.001834	25.7134	18.324	17.0451	0.032227	0.430561	-0.695952	-0.697282	-0.001644	25.7134	-0.695904	-1.720249E+9	9.559405E-13	NaN
1042	1.000000	0.441915	7.37524e+06	-52239.1	1055.82	-29749.7	0.000000	0.000000	6.442921	-0.013818	NaN	0.000000	0.001670	0.001693	28.0836	0.049953	0.002033	24.5751	-146.631	-162.906	-0.005608	0.440653	-0.685928	-0.687190	-0.013818	24.5751	-0.685506	-1.240206E+9	1.114188E-11	NaN
1042	1.000000	0.451901	7.37524e+06	-52239.1	1055.82	-29749.7	0.000000	0.000000	6.452908	0.012977	NaN	0.000000	0.001670	0.001701	28.0831	0.065116	0.002114	30.8084	-15.2492	16.1306	-0.025593	0.450563	-0.675942	-0.677280	0.012977	30.8084	-0.676258	-9.268672E+8	-1.400096E-11	NaN
1042	1.000000	0.461927	7.37524e+06	-52239.1	1055.82	-29749.7	0.000000	0.000000	6.462934	0.013099	NaN	0.000000	0.001678	0.001701	28.0838	0.080603	0.001996	40.3897	72.076	-162.693	-0.019578	0.460619	-0.665916	-0.667224	0.013099	40.3897	-0.666159	-6.742449E+8	-1.942804E-11	NaN
1042	1.000000	0.471921	7.37524e+06	-52239.1	1055.82	-29749.7	0.000000	0.000000	6.472927	0.018062	NaN	0.000000	0.001681	0.001644	28.0834	0.084078	0.002021	41.6093	-44.7722	13.2594	0.001338	0.470533	-0.655922	-0.657311	0.018062	41.6093	-0.656248	-4.932505E+8	-3.661732E-11	NaN
1042	1.000000	0.481936	7.37524e+06	-52239.1	1055.82	-29749.7	0.000000	0.000000	6.482941	-0.029893	NaN	0.000000	0.001670	0.001655	28.0834	0.064268	0.001908	33.6924	73.2413	-163.482	0.123303	0.480599	-0.645907	-0.647244	-0.029893	33.6924	-0.645241	-3.484884E+8	8.577971E-11	NaN
1042	1.000000	0.491930	7.37524e+06	-52239.1	1055.82	-29749.7	0.000000	0.000000	6.492934	-0.053525	NaN	0.000000	0.001710	0.001669	28.0847	0.051237	0.002006	25.5405	52.6403	16.7353	-0.002082	0.490558	-0.635913	-0.637285	-0.053525	25.5405	-0.634341	-2.469628E+8	2.167319E-10	NaN
1042	1.000000	0.501934	7.37524e+06	-52239.1	1055.82	-29749.7	0.000000	0.000000	6.502939	-0.027079	NaN	0.000000	0.001685	0.001672	28.0849	0.171322	0.002047	83.6938	-160.326	-166.341	0.015662	0.500628	-0.625909	-0.627215	-0.027079	83.6938	-0.625667	-1.877175E+8	1.442550E-10	NaN
1042	1.000000	0.511928	7.37524e+06	-52239.1	1055.82	-29749.7	0.000000	0.000000	6.512934	0.009502	NaN	0.000000	0.001694	0.001630	28.0846	0.098898	0.002092	47.2673	172.135	15.5142	-0.048118	0.510616	-0.615915	-0.617227	0.009502	47.2673	-0.616066	-1.385318E+8	-6.859204E-11	NaN
1042	1.000000	0.521929	7.37524e+06	-52239.1	1055.82	-29749.7	0.000000	0.000000	6.522935	-0.023553	NaN	0.000000	0.001747	0.001647	28.0847	0.084385	0.001846	45.7121	0.228146	-161.958	-0.055327	0.520633	-0.605914	-0.607211	-0.023553	45.7121	-0.605527	-9.921168E+7	2.373995E-10	NaN
1042	1.000000	0.531940	7.37524e+06	-52239.1	1055.82	-29749.7	0.000000	0.000000	6.532945	-0.042713	NaN	0.000000	0.001755	0.001655	28.0847	0.069710	0.001933	36.0601	-11.3639	12.6778	-0.007047	0.530527	-0.595903	-0.597317	-0.042713	36.0601	-0.595014	-7.108514E+7	6.008672E-10	NaN
1042	1.000000	0.541977	7.37524e+06	-52239.1	1055.82	-29749.7	0.000000	0.000000	6.542983	0.005717	NaN	0.000000	0.001694	0.001676	28.0848	0.061678	0.001915	32.2158	109.966	-165.707	-0.058550	0.540627	-0.585866	-0.587216	0.005717	32.2158	-0.585999	-5.339439E+7	-1.070662E-10	NaN
1042	1.000000	0.551984	7.37524e+06	-52239.1	1055.82	-29749.7	0.000000	0.000000	6.552991	0.035479	NaN	0.000000	0.001738	0.001650	28.0846	0.172871	0.001986	87.0614	78.6667	17.3384	-0.052342	0.550635	-0.575859	-0.577208	0.035479	87.0614	-0.576165	-3.906465E+7	-9.082156E-10	NaN
1042	1.000000	0.561934	7.37524e+06	-52239.1	1055.82	-29749.7	0.000000	0.000000	6.562943	0.049536	NaN	0.000000	0.001707	0.001670	28.0846	0.079975	0.002069	38.6516	174.661	-163.945	-0.059851	0.560658	-0.565909	-0.567185	0.049536	38.6516	-0.566870	-2.906527E+7	-1.704286E-9	NaN
1042	1.000000	0.571955	7.37524e+06	-52239.1	1055.82	-29749.7	0.000000	0.000000	6.572959	-0.041933	NaN	0.000000	0.001707	0.001648	28.0848	0.024426	0.001962	12.4465	171.754	17.0138	-0.134304	0.570632	-0.555888	-0.557211	-0.041933	12.4465	-0.553361	-1.890188E+7	2.218464E-9	NaN
1042	1.000000	0.581999	7.37524e+06	-52239.1	1055.82	-29749.7	0.000000	0.000000	6.583006	-0.001589	NaN	0.000000	0.001679	0.001656	28.0846	0.032058	0.002099	15.2707	-97.5683	-160.504	-0.015281	0.580629	-0.545844	-0.547214	-0.001589	15.2707	-0.545766	-1.483507E+7	1.071360E-10	NaN
1042	1.000000	0.591971	7.37524e+06	-52239.1	1055.82	-29749.7	0.000000	0.000000	6.592978	-0.001368	NaN	0.000000	0.001644	0.001671	28.0844	0.061020	0.001910	31.9539	-4.232998	13.3272	0.021397	0.590615	-0.535872	-0.537228	-0.001368	31.9539	-0.535839	-1.080538E+7	1.265909E-10	NaN
1042	1.000000	0.601978	7.37524e+06	-52239.1	1055.82	-29749.7	0.000000	0.000000	6.602982	-0.052261	NaN	0.000000	0.001675	0.001678	28.0846	0.050729	0.002079	24.4015	81.1923	-164.043	-0.018678	0.600711	-0.525865	-0.527132	-0.052261	24.4015	-0.524258	-7.46113e+06	7.004438E-9	NaN
1042	1.000000	0.611947	7.37524e+06	-52239.1	1055.82	-29749.7	0.000000	0.000000	6.612955	0.036489	NaN	0.000000	0.001671	0.001664	28.0847	0.044522	0.002105	21.1494	3.308464	19.3451	0.014249	0.610634	-0.515896	-0.517209	0.036489	21.1494	-0.517190	-5.94982e+06	-6.132763E-9	NaN
1042	1.000000	0.621995	7.37524e+06	-52239.1	1055.82	-29749.7	0.000000	0.000000	6.623001	0.008324	NaN	0.000000	0.001704	0.001670	28.0832	0.119450	0.001934	61.7743	38.7024	-160.703	0.042340	0.620637	-0.505849	-0.507206	0.008324	61.7743	-0.505950	-4.14935e+06	-2.006089E-9	NaN
1042	1.000000	0.632021	7.37524e+06	-52239.1	1055.82	-29749.7	0.000000	0.000000	6.633025	-0.043725	NaN	0.000000	0.001654	0.001646	28.0832	0.073917	0.002042	36.197	-143.037	16.3386	-0.093711	0.630639	-0.495822	-0.497205	-0.043725	36.197	-0.494916	-2.91117e+06	1.501961E-8	NaN
1042	1.000000	0.641998	7.37524e+06	-52239.1	1055.82	-29749.7	0.000000	0.000000	6.643005	0.032826	NaN	0.000000	0.001662	0.001652	28.0832	0.038156	0.001933	19.7387	61.1379	-166.984	0.068489	0.640699	-0.485845	-0.487144	0.032826	19.7387	-0.487092	-2.26335e+06	-1.450344E-8	NaN
1042	1.000000	0.652004	7.37524e+06	-52239.1	1055.82	-29749.7	0.000000	0.000000	6.653011	0.019156	NaN	0.000000	0.001695	0.001647	28.0835	0.106047	0.001981	53.5263	-153.331	16.45	-0.061466	0.650625	-0.475839	-0.477218	0.019156	53.5263	-0.476107	-1.5886e+06	-1.205808E-8	NaN
1042	1.000000	0.661987	7.37524e+06	-52239.1	1055.82	-29749.7	0.000000	0.000000	6.662995	0.060291	NaN	0.000000	0.001739	0.001684	28.0835	0.053166	0.002020	26.316	25.2226	-166.076	0.031551	0.660678	-0.465856	-0.467165	0.060291	26.316	-0.467575	-1.2061e+06	-4.998804E-8	NaN
1042	1.000000	0.672001	7.37524e+06	-52239.1	1055.82	-29749.7	0.000000	0.000000	6.673005	-0.034683	NaN	0.000000	0.001781	0.001658	28.0835	0.054502	0.001993	27.3441	120.721	17.8277	0.058923	0.670616	-0.455842	-0.457227	-0.034683	27.3441	-0.454891	-800178	4.334421E-8	NaN
1042	1.000000	0.681992	7.37524e+06	-52239.1	1055.82	-29749.7	0.000000	0.000000	6.683000	0.034984	NaN	0.000000	0.001765	0.001668	28.0835	0.054210	0.002031	26.6962	24.3896	-163.856	0.036535	0.680656	-0.445851	-0.447187	0.034984	26.6962	-0.446834	-616223	-5.677167E-8	NaN
1042	1.000000	0.691999	7.37524e+06	-52239.1	1055.82	-29749.7	0.000000	0.000000	6.693005	-0.010503	NaN	0.000000	0.001762	0.001682	28.0838	0.106252	0.002045	51.9681	151.271	17.3572	-0.013189	0.690650	-0.435844	-0.437193	-0.010503	51.9681	-0.435692	-429078	2.447871E-8	NaN
1042	1.000000	0.702035	7.37524e+06	-52239.1	1055.82	-29749.7	0.000000	0.000000	6.703040	-0.020605	NaN	0.000000	0.001723	0.001688	28.0834	0.071076	0.002117	33.5781	-10.3336	-164.026	-0.003304	0.700756	-0.425808	-0.427087	-0.020605	33.5781	-0.425348	-306343	6.726231E-8	NaN
1042	1.000000	0.712011	7.37524e+06	-52239.1	1055.82	-29749.7	0.000000	0.000000	6.713016	-0.012299	NaN	0.000000	0.001742	0.001710	28.0836	0.086018	0.002066	41.6288	85.1215	14.2822	0.021756	0.710656	-0.415833	-0.417187	-0.012299	41.6288	-0.415611	-222911	5.517330E-8	NaN
1042	1.000000	0.721993	7.37524e+06	-52239.1	1055.82	-29749.7	0.000000	0.000000	6.722997	-0.048778	NaN	0.000000	0.001759	0.001718	28.0838	0.005135	0.001906	2.694565	-129.9	-161.845	0.017989	0.720701	-0.405851	-0.407142	-0.048778	2.694565	-0.392274	-103676	4.704876E-7	NaN
1042	1.000000	0.732042	7.37524e+06	-52239.1	1055.82	-29749.7	0.000000	0.000000	6.733046	-0.040330	NaN	0.000000	0.001786	0.001707	28.0836	0.034858	0.001964	17.7524	-70.6977	14.933	0.008618	0.730640	-0.395802	-0.397203	-0.040330	17.7524	-0.394098	-110090	3.663350E-7	NaN
1042	1.000000	0.742019	7.37524e+06	-52239.1	1055.82	-29749.7	0.000000	0.000000	6.743026	0.032437	NaN	0.000000	0.001739	0.001662	28.0837	0.114928	0.002034	56.4963	134.392	-160.577	0.029281	0.740706	-0.385824	-0.387138	0.032437	56.4963	-0.386255	-85028.6	-3.814887E-7	NaN
1042	1.000000	0.752031	7.37524e+06	-52239.1	1055.82	-29749.7	0.000000	0.000000	6.753037	-0.008094	NaN	0.000000	0.001747	0.001616	28.0837	0.099633	0.001983	50.241	-35.2159	13.0492	0.033520	0.750676	-0.375812	-0.377167	-0.008094	50.241	-0.375691	-59980.5	1.349480E-7	NaN
1042	1.000000	0.762029	7.37524e+06	-52239.1	1055.82	-29749.7	0.000000	0.000000	6.763035	-0.019450	NaN	0.000000	0.001746	0.001666	28.0849	0.090765	0.002005	45.2754	177.086	-165.244	-0.023575	0.760775	-0.365814	-0.367068	-0.019450	45.2754	-0.365491	-42770.5	4.547560E-7	NaN
1042	1.000000	0.772059	7.37524e+06	-52239.1	1055.82	-29749.7	0.000000	0.000000	6.773066	0.015272	NaN	0.000000	0.001739	0.001691	28.085	0.037944	0.002049	18.5216	-38.32	14.2272	-0.082425	0.770705	-0.355784	-0.357138	0.015272	18.5216	-0.356402	-31608.3	-4.831656E-7	NaN
1042	1.000000	0.782052	7.37524e+06	-52239.1	1055.82	-29749.7	0.000000	0.000000	6.783059	0.025167	NaN	0.000000	0.001753	0.001677	28.0849	0.066833	0.001982	33.7246	-169.673	-164.791	-0.067263	0.780757	-0.345791	-0.347086	0.025167	33.7246	-0.346350	-22594	-1.113864E-6	NaN
1042	1.000000	0.792049	7.37524e+06	-52239.1	1055.82	-29749.7	0.000000	0.000000	6.793057	0.039775	NaN	0.000000	0.001732	0.001647	28.0852	0.002641	0.002061	1.281417	176.964	16.9539	0.092914	0.790719	-0.335794	-0.337124	0.039775	1.281417	-0.359074	-34550.9	-1.151213E-6	NaN
1042	1.000000	0.802044	7.37524e+06	-52239.1	1055.82	-29749.7	0.000000	0.000000	6.803048	-0.048188	NaN	0.000000	0.001722	0.001683	28.0847	0.115629	0.001870	61.8437	61.6784	-165.279	-0.053248	0.800767	-0.325799	-0.327076	-0.048188	61.8437	-0.325215	-11099.1	4.341615E-6	NaN
1042	1.000000	0.812066	7.37524e+06	-52239.1	1055.82	-29749.7	0.000000	0.000000	6.813072	-0.006804	NaN	0.000000	0.001732	0.001678	28.085	0.029476	0.001972	14.9485	94.7837	11.9662	-0.004355	0.810730	-0.315777	-0.317113	-0.006804	14.9485	-0.315436	-7968.55	8.538395E-7	NaN
1042	1.000000	0.822074	7.37524e+06	-52239.1	1055.82	-29749.7	0.000000	0.000000	6.823080	0.011290	NaN	0.000000	0.001709	0.001666	28.0848	0.028236	0.002018	13.9951	134.039	-166.25	-0.002297	0.820719	-0.305769	-0.307124	0.011290	13.9951	-0.306374	-5852.52	-1.929028E-6	NaN
1042	1.000000	0.832069	7.37524e+06	-52239.1	1055.82	-29749.7	0.000000	0.000000	6.833075	-0.021647	NaN	0.000000	0.001706	0.001670	28.0849	0.157623	0.002001	78.791	152.846	13.258	-0.067239	0.830746	-0.295774	-0.297097	-0.021647	78.791	-0.295568	-4041.69	5.356005E-6	NaN
1042	1.000000	0.842052	7.37524e+06	-52239.1	1055.82	-29749.7	0.000000	0.000000	6.843059	0.026252	NaN	0.000000	0.001706	0.001673	28.0848	0.122035	0.002002	60.9551	-8.900035	-166.716	0.054654	0.840727	-0.285791	-0.287116	0.026252	60.9551	-0.286114	-2917.49	-8.998248E-6	NaN
1042	1.000000	0.852108	7.37524e+06	-52239.1	1055.82	-29749.7	0.000000	0.000000	6.853114	-0.016328	NaN	0.000000	0.001704	0.001660	28.085	0.048719	0.001904	25.584	-121.317	15.4481	0.054527	0.850695	-0.275735	-0.277148	-0.016328	25.584	-0.275256	-2001.15	8.159193E-6	NaN
1042	1.000000	0.862086	7.37524e+06	-52239.1	1055.82	-29749.7	0.000000	0.000000	6.863093	0.008038	NaN	0.000000	0.001692	0.001660	28.0849	0.041624	0.002088	19.9373	96.8745	-165.159	-0.089177	0.860829	-0.265757	-0.267015	0.008038	19.9373	-0.266059	-1450.6	-5.540829E-6	NaN
1042	1.000000	0.872097	7.37524e+06	-52239.1	1055.82	-29749.7	0.000000	0.000000	6.873103	0.003631	NaN	0.000000	0.001681	0.001701	28.0851	0.046220	0.002059	22.4526	21.621	13.591	0.018598	0.870718	-0.255747	-0.257125	0.003631	22.4526	-0.255868	-1012.68	-3.585855E-6	NaN
1042	1.000000	0.882069	7.37524e+06	-52239.1	1055.82	-29749.7	0.000000	0.000000	6.883072	-0.097358	NaN	0.000000	0.001642	0.001690	28.0849	0.020112	0.001995	10.0828	101.488	-163.58	0.004334	0.880746	-0.245774	-0.247097	-0.097358	10.0828	-0.238532	-545.259	0.000179	NaN
1042	1.000000	0.892082	7.37524e+06	-52239.1	1055.82	-29749.7	0.000000	0.000000	6.893086	-0.052249	NaN	0.000000	0.001711	0.001684	28.0847	0.050455	0.002031	24.8423	3.756561	14.7367	-0.051216	0.890772	-0.235761	-0.237071	-0.052249	24.8423	-0.234184	-466.046	0.000112	NaN
1042	1.000000	0.902091	7.37524e+06	-52239.1	1055.82	-29749.7	0.000000	0.000000	6.903100	0.070146	NaN	0.000000	0.001691	0.001678	28.0836	0.052469	0.001936	27.1061	78.3825	-162.588	-0.003300	0.900786	-0.225752	-0.227057	0.070146	27.1061	-0.227693	-368.156	-0.000191	NaN
1042	1.000000	0.912112	7.37524e+06	-52239.1	1055.82	-29749.7	0.000000	0.000000	6.913118	0.007962	NaN	0.000000	0.001718	0.001671	28.0836	0.094314	0.001958	48.1604	-69.8521	14.5138	0.015086	0.910708	-0.215731	-0.217135	0.007962	48.1604	-0.215855	-238.375	-3.340021E-5	NaN
1042	1.000000	0.922107	7.37524e+06	-52239.1	1055.82	-29749.7	0.000000	0.000000	6.923113	0.010382	NaN	0.000000	0.001692	0.001629	28.0838	0.042983	0.001975	21.7666	81.8229	-164.944	-0.111251	0.920793	-0.205736	-0.207050	0.010382	21.7666	-0.206094	-165.725	-6.264811E-5	NaN
1042	1.000000	0.932109	7.37524e+06	-52239.1	1055.82	-29749.7	0.000000	0.000000	6.933114	-0.026929	NaN	0.000000	0.001685	0.001642	28.0838	0.153643	0.001908	80.5062	-110.33	11.808	-0.048284	0.930772	-0.195734	-0.197071	-0.026929	80.5062	-0.195483	-110.968	0.000243	NaN
1042	1.000000	0.942102	7.37524e+06	-52239.1	1055.82	-29749.7	0.000000	0.000000	6.943109	0.000687	NaN	0.000000	0.001630	0.001653	28.0843	0.032491	0.002137	15.2067	-79.2023	-165.395	0.027101	0.940811	-0.185741	-0.187032	0.000687	15.2067	-0.185774	-76.4147	-8.984499E-6	NaN
1042	1.000000	0.952129	7.37524e+06	-52239.1	1055.82	-29749.7	0.000000	0.000000	6.953134	-0.030367	NaN	0.000000	0.001650	0.001649	28.0839	0.067553	0.002099	32.1905	23.2269	15.7921	-0.074579	0.950770	-0.175714	-0.177073	-0.030367	32.1905	-0.175007	-50.13	0.000606	NaN
1042	1.000000	0.962124	7.37524e+06	-52239.1	1055.82	-29749.7	0.000000	0.000000	6.963131	0.020467	NaN	0.000000	0.001648	0.001635	28.084	0.095801	0.001893	50.6179	168.094	-164.102	0.134963	0.960817	-0.165719	-0.167027	0.020467	50.6179	-0.166023	-35.014	-0.000585	NaN
1042	1.000000	0.972104	7.37524e+06	-52239.1	1055.82	-29749.7	0.000000	0.000000	6.973110	0.018875	NaN	0.000000	0.001636	0.001656	28.084	0.089729	0.001925	46.624	-134.006	18.3114	-0.016339	0.970820	-0.155739	-0.157023	0.018875	46.624	-0.156043	-23.2984	-0.000810	NaN
1042	1.000000	0.982123	7.37524e+06	-52239.1	1055.82	-29749.7	0.000000	0.000000	6.983127	-0.067871	NaN	0.000000	0.001659	0.001624	28.0848	0.139390	0.002122	65.6846	-51.1558	-163.848	-0.043765	0.980777	-0.145720	-0.147067	-0.067871	65.6846	-0.144945	-14.6267	0.004640	NaN
1042	1.000000	0.992107	7.37524e+06	-52239.1	1055.82	-29749.7	0.000000	0.000000	6.993115	0.044535	NaN	0.000000	0.001657	0.001660	28.0841	0.138904	0.002025	68.5989	-75.7857	17.77	0.020996	0.990769	-0.135736	-0.137074	0.044535	68.5989	-0.136223	-10.0366	-0.004437	NaN
1042	1.000000	1.002144	7.37524e+06	-52239.1	1055.82	-29749.7	0.000000	0.000000	7.003150	-0.003808	NaN	0.000000	0.001628	0.001654	28.084	0.042773	0.002085	20.513	179.347	-163.716	0.008563	1.000842	-0.125699	-0.127001	-0.003808	20.513	-0.125560	-6.238257	0.000610	NaN
1042	1.000000	1.012182	7.37524e+06	-52239.1	1055.82	-29749.7	0.000000	0.000000	7.013188	-0.008460	NaN	0.000000	0.001661	0.001644	28.084	0.068977	0.001903	36.2397	59.8298	17.3756	0.003489	1.010778	-0.115661	-0.117065	-0.008460	36.2397	-0.115486	-3.909431	0.002164	NaN
1042	1.000000	1.022125	7.37524e+06	-52239.1	1055.82	-29749.7	0.000000	0.000000	7.023130	-0.007913	NaN	0.000000	0.001653	0.001650	28.0839	0.034813	0.001858	18.7384	73.38	-162.83	0.041343	1.020799	-0.105719	-0.107044	-0.007913	18.7384	-0.105402	-2.397980	0.003300	NaN
1042	1.000000	1.032174	7.37524e+06	-52239.1	1055.82	-29749.7	0.000000	0.000000	7.033179	-0.041183	NaN	0.000000	0.001673	0.001631	28.0851	0.089618	0.002037	43.9913	138.477	15.7904	0.000864	1.030826	-0.095669	-0.097017	-0.041183	43.9913	-0.094966	-1.408158	0.029246	NaN
1042	1.000000	1.042151	7.37524e+06	-52239.1	1055.82	-29749.7	0.000000	0.000000	7.043154	-0.060660	NaN	0.000000	0.001641	0.001671	28.0852	0.060191	0.002014	29.8918	12.5982	-163.195	-0.029912	1.040830	-0.085692	-0.087013	-0.060660	29.8918	-0.084170	-0.784412	0.077332	NaN
1042	1.000000	1.052173	7.37524e+06	-52239.1	1055.82	-29749.7	0.000000	0.000000	7.053180	0.032704	NaN	0.000000	0.001666	0.001633	28.0852	0.115399	0.001981	58.2412	-75.1944	14.9479	0.031007	1.050793	-0.075670	-0.077050	0.032704	58.2412	-0.076091	-0.492776	-0.066368	NaN
1042	1.000000	1.062179	7.37524e+06	-52239.1	1055.82	-29749.7	0.000000	0.000000	7.063186	0.002915	NaN	0.000000	0.001648	0.001651	28.0851	0.063450	0.002128	29.8163	33.5281	-167.398	0.015361	1.060828	-0.065664	-0.067015	0.002915	29.8163	-0.065737	-0.261198	-0.011159	NaN
1042	1.000000	1.072164	7.37524e+06	-52239.1	1055.82	-29749.7	0.000000	0.000000	7.073171	0.039256	NaN	0.000000	0.001644	0.001614	28.0849	0.030939	0.001963	15.764	-140.567	13.6231	0.072580	1.070802	-0.055679	-0.057041	0.039256	15.764	-0.057547	-0.152963	-0.256636	NaN
1042	1.000000	1.082155	7.37524e+06	-52239.1	1055.82	-29749.7	0.000000	0.000000	7.083161	-0.011431	NaN	0.000000	0.001660	0.001620	28.085	0.042727	0.001928	22.1615	91.4118	-160.817	-0.075235	1.080816	-0.045688	-0.047027	-0.011431	22.1615	-0.045301	-0.065644	0.174130	NaN
1042	1.000000	1.092167	7.37524e+06	-52239.1	1055.82	-29749.7	0.000000	0.000000	7.093174	0.028808	NaN	0.000000	0.001649	0.001641	28.0852	0.033777	0.001990	16.9731	57.7509	17.0914	0.045395	1.090794	-0.035676	-0.037049	0.028808	16.9731	-0.036949	-0.036589	-0.787352	NaN
1042	1.000000	1.102178	7.37524e+06	-52239.1	1055.82	-29749.7	0.000000	0.000000	7.103183	-0.018965	NaN	0.000000	0.001632	0.001649	28.0849	0.096630	0.001945	49.6818	-42.3131	-165.559	0.005894	1.100896	-0.025665	-0.026947	-0.018965	49.6818	-0.025379	-0.017260	1.098812	NaN
1042	1.000000	1.112181	7.37524e+06	-52239.1	1055.82	-29749.7	0.000000	0.000000	7.113186	-0.013046	NaN	0.000000	0.001684	0.001702	28.0867	0.036844	0.002003	18.3986	-156.855	16.2693	-0.049699	1.110791	-0.015662	-0.017052	-0.013046	18.3986	-0.015131	-0.009354	1.394693	NaN
1042	1.000000	1.122178	7.37524e+06	-52239.1	1055.82	-29749.7	0.000000	0.000000	7.123183	-0.017147	NaN	0.000000	0.001642	0.001633	28.088	0.050016	0.001939	25.7908	162.115	-162.475	-0.048249	1.120859	-0.005665	-0.006984	-0.017147	25.7908	-0.005167	-0.003521	4.869751	NaN
1042	1.000000	1.132140	7.37524e+06	-52239.1	1055.82	-29749.7	0.000000	0.000000	7.133342	4.767907	NaN	0.000000	0.001626	0.001631	28.0857	5.640518	0.001652	3413.95	10.7412	9.112903	2.835627	1.130782	0.004297	0.002939	4.767907	3413.95	0.003250	0.002591	1840.12	61275.9
1042	2.000000	1.136774	7.37524e+06	-52239.1	1055.82	-29749.7	0.000000	0.000000	7.138169	9.459139	NaN	0.000000	0.001653	0.001658	28.0855	10.0321	0.001733	5788.76	10.8127	-174.494	8.953388	1.136533	0.008931	0.008690	9.459139	5788.76	0.007705	0.006741	1403.21	64416
1042	2.000000	1.139258	7.37524e+06	-52239.1	1055.82	-29749.7	0.000000	0.000000	7.140803	13.093	NaN	0.000000	0.001624	0.001618	28.0852	12.9896	0.001786	7273.56	8.303828	5.704368	12.6089	1.138912	0.011415	0.011069	13.093	7273.56	0.010065	0.009254	1414.91	69082.1
1042	2.000000	1.141713	7.37524e+06	-52239.1	1055.82	-29749.7	0.000000	0.000000	7.143452	17.8089	NaN	0.000000	0.001655	0.001606	28.0852	15.2721	0.001731	8824.22	3.892407	-172.763	16.6577	1.141406	0.013870	0.013563	17.8089	8824.22	0.012356	0.011920	1494.07	73844.2
1042	2.000000	1.144237	7.37524e+06	-52239.1	1055.82	-29749.7	0.000000	0.000000	7.146080	20.3505	NaN	0.000000	0.001649	0.001642	28.0842	17.7417	0.001762	10070.3	11.0964	1.101626	20.114	1.143865	0.016394	0.016022	20.3505	10070.3	0.014878	0.015123	1345.63	74815.1
1042	2.000000	1.146694	7.37524e+06	-52239.1	1055.82	-29749.7	0.000000	0.000000	7.148752	25.5592	NaN	0.000000	0.001679	0.001652	28.084	20.0306	0.001691	11842.2	6.636740	-177.344	25.5219	1.146368	0.018851	0.018525	25.5592	11842.2	0.017233	0.018379	1390.69	79808
1042	2.000000	1.149206	7.37524e+06	-52239.1	1055.82	-29749.7	0.000000	0.000000	7.151452	30.1473	NaN	0.000000	0.001673	0.001657	28.084	22.9448	0.001766	12989.7	5.208045	2.886726	29.6854	1.148802	0.021363	0.020959	30.1473	12989.7	0.019622	0.021952	1373.33	80100.3
1042	2.000000	1.151682	7.37524e+06	-52239.1	1055.82	-29749.7	0.000000	0.000000	7.154213	37.0669	NaN	0.000000	0.001657	0.001642	28.0839	26.0362	0.001835	14187.7	7.240091	-179.011	36.6941	1.151304	0.023839	0.023461	37.0669	14187.7	0.021880	0.025582	1448.92	81042.8
1042	2.000000	1.154165	7.37524e+06	-52239.1	1055.82	-29749.7	0.000000	0.000000	7.156965	43.6248	NaN	0.000000	0.001660	0.001663	28.0844	27.0376	0.001756	15396.2	1.860231	5.959681	42.2715	1.153834	0.026322	0.025991	43.6248	15396.2	0.024196	0.029570	1475.31	81801.3
1042	2.000000	1.156669	7.37524e+06	-52239.1	1055.82	-29749.7	0.000000	0.000000	7.159692	49.0335	NaN	0.000000	0.001683	0.001674	28.0839	30.0958	0.001598	18834.6	7.612197	177.122	49.2304	1.156369	0.028826	0.028525	49.0335	18834.6	0.026874	0.034513	1420.73	92627.3
1042	2.000000	1.159152	7.37524e+06	-52239.1	1055.82	-29749.7	0.000000	0.000000	7.162536	57.8061	NaN	0.000000	0.001747	0.001667	28.0839	33.1686	0.001840	18029.6	5.686984	-0.359733	55.4024	1.158828	0.031309	0.030985	57.8061	18029.6	0.028905	0.038504	1501.3	83947.4
1042	2.000000	1.161716	7.37524e+06	-52239.1	1055.82	-29749.7	0.000000	0.000000	7.165410	65.3331	NaN	0.000000	0.001715	0.001637	28.0837	35.3316	0.001747	20225.6	4.038855	-179.276	66.7766	1.161314	0.033873	0.033471	65.3331	20225.6	0.031451	0.043804	1491.48	88290.9
1042	2.000000	1.164141	7.37524e+06	-52239.1	1055.82	-29749.7	0.000000	0.000000	7.168177	73.6816	NaN	0.000000	0.001708	0.001641	28.084	37.5284	0.001752	21414.4	5.977282	-1.322739	71.1157	1.163759	0.036298	0.035916	73.6816	21414.4	0.033717	0.048801	1509.84	88565.8
1042	2.000000	1.166633	7.37524e+06	-52239.1	1055.82	-29749.7	0.000000	0.000000	7.170846	77.9768	NaN	0.000000	0.001721	0.001629	28.0836	39.9136	0.001823	21889.8	5.873424	177.112	74.6806	1.166407	0.038790	0.038564	77.9768	21889.8	0.036118	0.054381	1433.9	85761.5
1042	2.000000	1.169182	7.37524e+06	-52239.1	1055.82	-29749.7	0.000000	0.000000	7.173858	89.2507	NaN	0.000000	0.001719	0.001641	28.0848	42.8656	0.001942	22070.3	2.975924	0.395514	87.0869	1.168830	0.041339	0.040987	89.2507	22070.3	0.038306	0.059723	1494.41	82510.9
1042	2.000000	1.171704	7.37524e+06	-52239.1	1055.82	-29749.7	0.000000	0.000000	7.176785	99.0817	NaN	0.000000	0.001653	0.001671	28.0837	45.1078	0.001828	24680.8	5.604662	177.193	104.046	1.171435	0.043861	0.043592	99.0817	24680.8	0.040850	0.066243	1495.74	87612.1
1042	2.000000	1.174186	7.37524e+06	-52239.1	1055.82	-29749.7	0.000000	0.000000	7.179880	113.984	NaN	0.000000	0.001625	0.001651	28.0838	46.0092	0.001708	26930.7	5.649762	-3.134575	112.259	1.173791	0.046343	0.045948	113.984	26930.7	0.043168	0.072473	1572.79	91397.2
1042	2.000000	1.176621	7.37524e+06	-52239.1	1055.82	-29749.7	0.000000	0.000000	7.182690	123.105	NaN	0.000000	0.001651	0.001656	28.0839	48.4171	0.001825	26532.8	2.472123	179.808	121.647	1.176376	0.048778	0.048532	123.105	26532.8	0.045299	0.078437	1569.47	86555.7
1042	2.000000	1.179099	7.37524e+06	-52239.1	1055.82	-29749.7	0.000000	0.000000	7.185570	132.889	NaN	0.000000	0.001652	0.001667	28.0855	51.2666	0.001768	28990.6	2.865707	-1.589980	128.755	1.178732	0.051256	0.050889	132.889	28990.6	0.047818	0.085788	1549.04	90431.3
1042	2.000000	1.181639	7.37524e+06	-52239.1	1055.82	-29749.7	0.000000	0.000000	7.188522	142.883	NaN	0.000000	0.001644	0.001626	28.0849	53.9781	0.001727	31246.4	1.498584	179.412	141.566	1.181299	0.053796	0.053456	142.883	31246.4	0.050367	0.093550	1527.35	93336.8
1042	2.000000	1.184184	7.37524e+06	-52239.1	1055.82	-29749.7	0.000000	0.000000	7.191615	156.234	NaN	0.000000	0.001713	0.001665	28.085	55.9534	0.001829	30596.8	5.708781	-3.948324	154.818	1.183814	0.056341	0.055971	156.234	30596.8	0.052511	0.100332	1557.17	88252.9
1042	2.000000	1.186687	7.37524e+06	-52239.1	1055.82	-29749.7	0.000000	0.000000	7.194524	166.089	NaN	0.000000	0.001683	0.001686	28.085	58.5983	0.001725	33967.4	5.544140	175.449	167.295	1.186363	0.058844	0.058520	166.089	33967.4	0.055177	0.109084	1522.57	93962.3
1042	2.000000	1.189025	7.37524e+06	-52239.1	1055.82	-29749.7	0.000000	0.000000	7.197455	180.525	NaN	0.000000	0.001690	0.001665	28.0851	61.5499	0.001968	31277.3	5.656247	-4.040817	174.339	1.188783	0.061182	0.060939	180.525	31277.3	0.056853	0.114766	1572.99	84352
1042	2.000000	1.191705	7.37524e+06	-52239.1	1055.82	-29749.7	0.000000	0.000000	7.200670	193.523	NaN	0.000000	0.001675	0.001659	28.0852	63.0774	0.001745	36145.3	3.361946	176.503	196.801	1.191409	0.063862	0.063566	193.523	36145.3	0.059847	0.125259	1544.98	93308.4
1042	2.000000	1.194120	7.37524e+06	-52239.1	1055.82	-29749.7	0.000000	0.000000	7.203739	209.407	NaN	0.000000	0.001710	0.001674	28.085	64.7152	0.001761	36750.7	8.716303	-7.454934	205.768	1.193742	0.066277	0.065899	209.407	36750.7	0.062004	0.133092	1573.4	92037.2
1042	2.000000	1.196593	7.37524e+06	-52239.1	1055.82	-29749.7	0.000000	0.000000	7.206742	222.31	NaN	0.000000	0.001727	0.001692	28.0848	67.9511	0.001808	37580.4	6.767569	173.152	219.473	1.196215	0.068750	0.068372	222.31	37580.4	0.064314	0.141729	1568.56	91202.2
1042	2.000000	1.199085	7.37524e+06	-52239.1	1055.82	-29749.7	0.000000	0.000000	7.209829	236.777	NaN	0.000000	0.001702	0.001642	28.085	70.881	0.001763	40205.9	6.551258	-7.096620	233.577	1.198808	0.071242	0.070965	236.777	40205.9	0.066825	0.151415	1563.77	94401.5
1042	2.000000	1.201572	7.37524e+06	-52239.1	1055.82	-29749.7	0.000000	0.000000	7.212814	248.891	NaN	0.000000	0.001731	0.001619	28.0849	73.9432	0.001839	40202.3	4.098037	175.112	248.098	1.201299	0.073728	0.073455	248.891	40202.3	0.069085	0.160387	1551.82	91714.8
1042	2.000000	1.204105	7.37524e+06	-52239.1	1055.82	-29749.7	0.000000	0.000000	7.216110	267.445	NaN	0.000000	0.001709	0.001659	28.085	75.3381	0.001856	40584.5	5.954215	-5.721231	265.701	1.203700	0.076262	0.075857	267.445	40584.5	0.071319	0.169496	1577.88	90064.5
1042	2.000000	1.206567	7.37524e+06	-52239.1	1055.82	-29749.7	0.000000	0.000000	7.219280	284.659	NaN	0.000000	0.001692	0.001686	28.0847	78.0458	0.001741	44836.7	6.962075	171.724	281.688	1.206216	0.078724	0.078373	284.659	44836.7	0.073962	0.180579	1576.37	96399.3
1042	2.000000	1.208990	7.37524e+06	-52239.1	1055.82	-29749.7	0.000000	0.000000	7.222306	299.301	NaN	0.000000	0.001655	0.001645	28.0852	80.6298	0.001747	46145.1	3.294597	-5.290919	292.99	1.208830	0.081147	0.080987	299.301	46145.1	0.076283	0.190580	1570.48	96574.1
1042	2.000000	1.211649	7.37524e+06	-52239.1	1055.82	-29749.7	0.000000	0.000000	7.225544	313.399	NaN	0.000000	0.001697	0.001652	28.0837	84.9025	0.001931	43957.1	4.419113	173.616	314.737	1.211320	0.083806	0.083477	313.399	43957.1	0.078459	0.200188	1565.52	89760.1
1042	2.000000	1.214095	7.37524e+06	-52239.1	1055.82	-29749.7	0.000000	0.000000	7.228896	335.416	NaN	0.000000	0.001679	0.001650	28.0837	85.8577	0.001900	45186.8	6.073332	-6.659743	333.702	1.213669	0.086252	0.085826	335.416	45186.8	0.080685	0.210248	1595.33	90036.5
1042	2.000000	1.216540	7.37524e+06	-52239.1	1055.82	-29749.7	0.000000	0.000000	7.231918	349.434	NaN	0.000000	0.001665	0.001697	28.0836	87.8394	0.001847	47550	7.290570	170.611	345.843	1.216251	0.088697	0.088408	349.434	47550	0.083186	0.221823	1575.28	92240.2
1042	2.000000	1.219053	7.37524e+06	-52239.1	1055.82	-29749.7	0.000000	0.000000	7.235029	363.985	NaN	0.000000	0.001693	0.001650	28.084	90.2407	0.001823	49493.4	2.501953	-5.230064	359.533	1.218804	0.091210	0.090961	363.985	49493.4	0.085694	0.233724	1557.33	93533.8
1042	2.000000	1.221806	7.37524e+06	-52239.1	1055.82	-29749.7	0.000000	0.000000	7.238223	374.727	NaN	0.000000	0.001694	0.001651	28.0836	93.2142	0.001820	51205.1	3.416456	174.327	385.384	1.221414	0.093963	0.093571	374.727	51205.1	0.088474	0.247252	1515.57	94084.1
1042	2.000000	1.224026	7.37524e+06	-52239.1	1055.82	-29749.7	0.000000	0.000000	7.241595	402.715	NaN	0.000000	0.001695	0.001670	28.0837	94.2327	0.001858	50727.6	1.388777	-3.999777	396.226	1.223760	0.096183	0.095917	402.715	50727.6	0.090229	0.255975	1573.26	91604.8
1042	2.000000	1.226619	7.37524e+06	-52239.1	1055.82	-29749.7	0.000000	0.000000	7.245048	423.635	NaN	0.000000	0.001693	0.001663	28.0837	97.2385	0.001835	52994.1	5.300850	171.621	423.442	1.226365	0.098776	0.098522	423.635	52994.1	0.092781	0.268911	1575.37	93367.7
1042	2.000000	1.229069	7.37524e+06	-52239.1	1055.82	-29749.7	0.000000	0.000000	7.248463	447.087	NaN	0.000000	0.001690	0.001663	28.0838	99.2855	0.001775	55946.6	5.834517	-8.604464	444.274	1.228743	0.101226	0.100900	447.087	55946.6	0.095233	0.281622	1587.54	96319.4
1042	2.000000	1.231620	7.37524e+06	-52239.1	1055.82	-29749.7	0.000000	0.000000	7.251503	459.007	NaN	0.000000	0.001701	0.001666	28.0837	103.412	0.001835	56344	8.455211	168.479	460.246	1.231179	0.103777	0.103336	459.007	56344	0.097667	0.294511	1558.54	94857.3
1042	2.000000	1.233759	7.37524e+06	-52239.1	1055.82	-29749.7	0.000000	0.000000	7.254083	469.712	NaN	0.000000	0.001682	0.001674	28.0841	103.148	0.001706	60456.3	4.537088	172.176	480.653	1.233323	0.105916	0.105480	469.712	60456.3	0.100089	0.307607	1526.99	99590.3