File: remote_trans/data/nanoindenter/0828-1/data/Data_2025-08-06,11h17m57s/2025-07-22_16-23-58_1_192.txt
2025-07-22, 16:23:58, 1
Index	Phase	Displacement	Time	Pos X	Pos Y	Pos Z	Rot A	Rot B	Piezo Z	Force A	Force B	Gripper	Voltage A	Voltage B	Temperature	Amplitude force	Amplitude pos	Stiffness	Phase shift	Phase excitation	Force A raw	Displacement raw	HMax	HMax raw	Real Force	Real Stiffness	Contact Depth	Area	Hardness	Reduced Mod.
[#]	[#]	[um]	[s]	[um]	[um]	[um]	[m°]	[m°]	[um]	[uN]	[uN]	[V]	[V]	[V]	[°C]	[uN]	[um]	[N/m]	[°]	[°]	[uN]	[um]	[um]	[um]	[uN]	[N/m]	[um]	[um^2]	[MPa]	[MPa]
192	1.000000	0.002706	7.36692e+06	-48239.1	955.819	-29763.6	0.000000	0.000000	6.002807	-0.030656	NaN	0.000000	0.001602	0.001696	28.0788	0.085097	0.000883	96.3903	172.522	-161.805	-0.053297	0.001439	-1.026540	-1.027807	-0.030656	96.3903	-1.026302	-5.125433E+13	5.981086E-16	NaN
192	1.000000	0.010664	7.36692e+06	-48239.1	955.818	-29763.6	0.000000	0.000000	6.010767	0.018730	NaN	0.000000	0.001597	0.001721	28.0783	0.052525	0.000992	52.966	-168.53	-165.062	-0.001587	0.009374	-1.018582	-1.019872	0.018730	52.966	-1.018847	-4.068574E+13	-4.603547E-16	NaN
192	1.000000	0.018681	7.36692e+06	-48239.1	955.82	-29763.6	0.000000	0.000000	6.018782	-0.045057	NaN	0.000000	0.001561	0.001680	28.0785	0.059396	0.001716	34.6167	158.126	-164.371	-0.025029	0.017327	-1.010565	-1.011918	-0.045057	34.6167	-1.009588	-3.053818E+13	1.475436E-15	NaN
192	1.000000	0.026675	7.36692e+06	-48239.1	955.818	-29763.6	0.000000	0.000000	6.026776	-0.035462	NaN	0.000000	0.001578	0.001709	28.0785	0.012389	0.001846	6.710260	-124.38	-163.182	-0.126521	0.025336	-1.002571	-1.003910	-0.035462	6.710260	-0.998607	-2.172781E+13	1.632083E-15	NaN
192	1.000000	0.034672	7.36692e+06	-48239.1	955.818	-29763.6	0.000000	0.000000	6.034775	0.014551	NaN	0.000000	0.001549	0.001696	28.0785	0.041141	0.002031	20.255	-163.11	-164.425	0.091129	0.033363	-0.994574	-0.995883	0.014551	20.255	-0.995113	-1.949680E+13	-7.463043E-16	NaN
192	1.000000	0.042648	7.36692e+06	-48239.1	955.818	-29763.6	0.000000	0.000000	6.042750	-0.021696	NaN	0.000000	0.001548	0.001712	28.0787	0.052711	0.001953	26.9894	-36.2943	-162.948	-0.007262	0.041405	-0.986598	-0.987840	-0.021696	26.9894	-0.985995	-1.469482E+13	1.476471E-15	NaN
192	1.000000	0.050674	7.36692e+06	-48239.1	955.818	-29763.6	0.000000	0.000000	6.050775	-0.041875	NaN	0.000000	0.001603	0.001689	28.0786	0.049710	0.001901	26.1548	-22.8176	-165.652	-0.030914	0.049414	-0.978572	-0.979831	-0.041875	26.1548	-0.977371	-1.124588E+13	3.723577E-15	NaN
192	1.000000	0.058648	7.36692e+06	-48239.1	955.819	-29763.6	0.000000	0.000000	6.058751	-0.003413	NaN	0.000000	0.001605	0.001701	28.0788	0.079248	0.002030	39.0315	75.2092	-161.665	-0.007591	0.057374	-0.970597	-0.971872	-0.003413	39.0315	-0.970532	-9.095533E+12	3.752674E-16	NaN
192	1.000000	0.066677	7.36692e+06	-48239.1	955.819	-29763.6	0.000000	0.000000	6.066782	0.053413	NaN	0.000000	0.001596	0.001711	28.0786	0.019234	0.001919	10.0202	121.144	-166.945	0.055179	0.065345	-0.962569	-0.963901	0.053413	10.0202	-0.966566	-8.042401E+12	-6.641365E-15	NaN
192	1.000000	0.074655	7.36692e+06	-48239.1	955.819	-29763.6	0.000000	0.000000	6.074761	0.092415	NaN	0.000000	0.001583	0.001683	28.0782	0.113953	0.001947	58.5204	67.4994	-163.222	0.040288	0.073311	-0.954591	-0.955935	0.092415	58.5204	-0.955775	-5.753179E+12	-1.606335E-14	NaN
192	1.000000	0.082663	7.36692e+06	-48239.1	955.818	-29763.6	0.000000	0.000000	6.082767	0.023828	NaN	0.000000	0.001627	0.001728	28.0784	0.076413	0.001883	40.5891	159.016	-165.563	0.002216	0.081331	-0.946583	-0.947915	0.023828	40.5891	-0.947023	-4.384040E+12	-5.435157E-15	NaN
192	1.000000	0.090701	7.36692e+06	-48239.1	955.819	-29763.6	0.000000	0.000000	6.090805	0.028135	NaN	0.000000	0.001619	0.001706	28.0793	0.048330	0.002092	23.1059	-77.0483	-164.008	0.058284	0.089351	-0.938544	-0.939894	0.028135	23.1059	-0.939458	-3.465939E+12	-8.117641E-15	NaN
192	1.000000	0.098670	7.36692e+06	-48239.1	955.818	-29763.6	0.000000	0.000000	6.098769	-0.075476	NaN	0.000000	0.001641	0.001718	28.0799	0.056620	0.001998	28.3363	-21.0493	-165.466	-0.125510	0.097408	-0.930576	-0.931837	-0.075476	28.3363	-0.928578	-2.471772E+12	3.053510E-14	NaN
192	1.000000	0.106680	7.36692e+06	-48239.1	955.818	-29763.6	0.000000	0.000000	6.106786	0.081228	NaN	0.000000	0.001596	0.001699	28.0796	0.091048	0.002081	43.76	117.992	-160.608	0.053891	0.105353	-0.922565	-0.923893	0.081228	43.76	-0.923957	-2.141090E+12	-3.793767E-14	NaN
192	1.000000	0.114662	7.36692e+06	-48239.1	955.819	-29763.6	0.000000	0.000000	6.114762	-0.060320	NaN	0.000000	0.001596	0.001656	28.0795	0.029013	0.002032	14.2812	-119.804	-165.891	-0.094286	0.113386	-0.914584	-0.915859	-0.060320	14.2812	-0.911416	-1.449732E+12	4.160799E-14	NaN
192	1.000000	0.122691	7.36692e+06	-48239.1	955.818	-29763.6	0.000000	0.000000	6.122791	-0.058496	NaN	0.000000	0.001598	0.001682	28.0797	0.090008	0.002063	43.6225	74.9474	-166.043	-0.016367	0.121360	-0.906555	-0.907886	-0.058496	43.6225	-0.905549	-1.207919E+12	4.842670E-14	NaN
192	1.000000	0.130731	7.36692e+06	-48239.1	955.818	-29763.6	0.000000	0.000000	6.130833	-0.030901	NaN	0.000000	0.001622	0.001686	28.0795	0.101417	0.002078	48.7934	-169.292	-165.349	-0.015981	0.129395	-0.898514	-0.899850	-0.030901	48.7934	-0.898039	-9.562514E+11	3.231464E-14	NaN
192	1.000000	0.138693	7.36692e+06	-48239.1	955.819	-29763.6	0.000000	0.000000	6.138797	0.016156	NaN	0.000000	0.001623	0.001697	28.0798	0.070623	0.002023	34.9082	32.9822	-162.666	0.074067	0.137320	-0.890552	-0.891925	0.016156	34.9082	-0.890900	-7.657292E+11	-2.109918E-14	NaN
192	1.000000	0.146684	7.36692e+06	-48239.1	955.818	-29763.6	0.000000	0.000000	6.146785	-0.052487	NaN	0.000000	0.001616	0.001698	28.0801	0.036621	0.001943	18.8474	-62.746	-162.311	-0.034705	0.145370	-0.882561	-0.883876	-0.052487	18.8474	-0.880473	-5.534807E+11	9.483118E-14	NaN
192	1.000000	0.154693	7.36692e+06	-48239.1	955.818	-29763.6	0.000000	0.000000	6.154797	0.018497	NaN	0.000000	0.001606	0.001658	28.0799	0.063162	0.001886	33.487	-52.2635	-165.79	0.028632	0.153384	-0.874553	-0.875862	0.018497	33.487	-0.874967	-4.662675E+11	-3.966990E-14	NaN
192	1.000000	0.162669	7.36692e+06	-48239.1	955.818	-29763.6	0.000000	0.000000	6.162770	-0.066183	NaN	0.000000	0.001568	0.001678	28.08	0.085319	0.002074	41.1418	-170.749	-164.349	-0.034476	0.161415	-0.866576	-0.867830	-0.066183	41.1418	-0.865370	-3.457739E+11	1.914054E-13	NaN
192	1.000000	0.170694	7.36692e+06	-48239.1	955.82	-29763.6	0.000000	0.000000	6.170795	-0.025994	NaN	0.000000	0.001574	0.001674	28.0798	0.054064	0.001974	27.3888	-47.5755	-164.148	0.013022	0.169416	-0.858552	-0.859830	-0.025994	27.3888	-0.857840	-2.734543E+11	9.505804E-14	NaN
192	1.000000	0.178694	7.36692e+06	-48239.1	955.819	-29763.6	0.000000	0.000000	6.178796	-0.022724	NaN	0.000000	0.001597	0.001679	28.0801	0.120686	0.001842	65.5092	-138.314	-163.885	-0.029369	0.177379	-0.850551	-0.851867	-0.022724	65.5092	-0.850291	-2.161129E+11	1.051505E-13	NaN
192	1.000000	0.186705	7.36692e+06	-48239.1	955.818	-29763.6	0.000000	0.000000	6.186808	-0.007234	NaN	0.000000	0.001694	0.001666	28.0799	0.103936	0.002085	49.8388	-157.71	-163.509	-0.024393	0.185346	-0.842540	-0.843900	-0.007234	49.8388	-0.842432	-1.691347E+11	4.277293E-14	NaN
192	1.000000	0.194713	7.36692e+06	-48239.1	955.818	-29763.6	0.000000	0.000000	6.194818	0.046976	NaN	0.000000	0.001682	0.001646	28.0802	0.051409	0.002025	25.3896	133.102	-167.194	0.028738	0.193420	-0.834533	-0.835826	0.046976	25.3896	-0.835920	-1.380437E+11	-3.403016E-13	NaN
192	1.000000	0.202722	7.36692e+06	-48239.1	955.819	-29763.6	0.000000	0.000000	6.202823	-0.033437	NaN	0.000000	0.001642	0.001669	28.0797	0.112081	0.002113	53.0355	151.578	-167.32	-0.080627	0.201435	-0.826524	-0.827811	-0.033437	53.0355	-0.826051	-1.014507E+11	3.295880E-13	NaN
192	1.000000	0.210681	7.36692e+06	-48239.1	955.818	-29763.6	0.000000	0.000000	6.210784	0.011298	NaN	0.000000	0.001647	0.001676	28.0801	0.037180	0.002048	18.1583	-13.1365	-165.371	0.106750	0.209426	-0.818565	-0.819820	0.011298	18.1583	-0.819031	-8.148459E+10	-1.386571E-13	NaN
192	1.000000	0.218728	7.36692e+06	-48239.1	955.817	-29763.6	0.000000	0.000000	6.218829	-0.030746	NaN	0.000000	0.001598	0.001663	28.0804	0.063415	0.002066	30.6897	-124.807	-164.646	-0.042514	0.217404	-0.810518	-0.811842	-0.030746	30.6897	-0.809766	-6.101000E+10	5.039441E-13	NaN
192	1.000000	0.226728	7.36692e+06	-48239.1	955.818	-29763.6	0.000000	0.000000	6.226829	-0.048162	NaN	0.000000	0.001599	0.001661	28.0797	0.062809	0.002042	30.7553	-13.1435	-162.654	0.065951	0.225422	-0.802517	-0.803824	-0.048162	30.7553	-0.801343	-4.689098E+10	1.027112E-12	NaN
192	1.000000	0.234718	7.36692e+06	-48239.1	955.819	-29763.6	0.000000	0.000000	6.234825	0.108373	NaN	0.000000	0.001591	0.001660	28.0791	0.074789	0.001967	38.0137	-136.609	-160.815	0.043466	0.233390	-0.794528	-0.795856	0.108373	38.0137	-0.796666	-4.051385E+10	-2.674963E-12	NaN
192	1.000000	0.242726	7.36692e+06	-48239.1	955.819	-29763.6	0.000000	0.000000	6.242828	-0.025082	NaN	0.000000	0.001587	0.001665	28.079	0.122224	0.002062	59.2727	152.945	-166.349	-0.015776	0.241425	-0.786519	-0.787821	-0.025082	59.2727	-0.786202	-2.920738E+10	8.587389E-13	NaN
192	1.000000	0.250731	7.36692e+06	-48239.1	955.818	-29763.6	0.000000	0.000000	6.250836	0.033327	NaN	0.000000	0.001586	0.001659	28.0791	0.073447	0.001952	37.6191	-117.812	-163.226	0.036970	0.249440	-0.778514	-0.779806	0.033327	37.6191	-0.779179	-2.344611E+10	-1.421429E-12	NaN
192	1.000000	0.258733	7.36692e+06	-48239.1	955.819	-29763.6	0.000000	0.000000	6.258835	-0.019399	NaN	0.000000	0.001625	0.001661	28.079	0.071003	0.001907	37.2298	-138.994	-163.945	0.039032	0.257386	-0.770512	-0.771860	-0.019399	37.2298	-0.770121	-1.765863E+10	1.098529E-12	NaN
192	1.000000	0.266760	7.36692e+06	-48239.1	955.818	-29763.6	0.000000	0.000000	6.266862	-0.031142	NaN	0.000000	0.001637	0.001670	28.0787	0.105402	0.002033	51.8419	-131.492	-163.57	0.008656	0.265486	-0.762485	-0.763760	-0.031142	51.8419	-0.762035	-1.370827E+10	2.271753E-12	NaN
192	1.000000	0.274759	7.36692e+06	-48239.1	955.818	-29763.6	0.000000	0.000000	6.274861	-0.043104	NaN	0.000000	0.001620	0.001675	28.0788	0.114861	0.002141	53.6604	108.076	-167.76	-0.069298	0.273413	-0.754486	-0.755832	-0.043104	53.6604	-0.753884	-1.061890E+10	4.059174E-12	NaN
192	1.000000	0.282729	7.36692e+06	-48239.1	955.818	-29763.6	0.000000	0.000000	6.282831	-0.028090	NaN	0.000000	0.001604	0.001680	28.0786	0.066373	0.002152	30.8458	-62.2323	-163.374	-0.089117	0.281464	-0.746516	-0.747782	-0.028090	30.8458	-0.745833	-8.250819E+9	3.404481E-12	NaN
192	1.000000	0.290726	7.36692e+06	-48239.1	955.818	-29763.6	0.000000	0.000000	6.290830	0.042331	NaN	0.000000	0.001642	0.001663	28.0791	0.024822	0.002109	11.7701	-166.714	-163.775	-0.033804	0.289477	-0.738520	-0.739769	0.042331	11.7701	-0.741217	-7.138964E+9	-5.929578E-12	NaN
192	1.000000	0.298762	7.36692e+06	-48239.1	955.818	-29763.6	0.000000	0.000000	6.298868	0.084409	NaN	0.000000	0.001585	0.001668	28.0789	0.065382	0.001932	33.8344	-67.2449	-164.435	0.005603	0.297429	-0.730484	-0.731817	0.084409	33.8344	-0.732355	-5.406351E+9	-1.561292E-11	NaN
192	1.000000	0.306776	7.36692e+06	-48239.1	955.819	-29763.6	0.000000	0.000000	6.306878	-0.016141	NaN	0.000000	0.001604	0.001652	28.0789	0.033853	0.001943	17.4261	-169.304	-163.287	-0.019451	0.305411	-0.722469	-0.723835	-0.016141	17.4261	-0.721775	-3.878597E+9	4.161538E-12	NaN
192	1.000000	0.314767	7.36692e+06	-48239.1	955.819	-29763.6	0.000000	0.000000	6.314867	-0.073435	NaN	0.000000	0.001631	0.001634	28.079	0.049537	0.001992	24.8692	-53.3963	-164.423	-0.044378	0.313420	-0.714479	-0.715826	-0.073435	24.8692	-0.712264	-2.877033E+9	2.552468E-11	NaN
192	1.000000	0.322747	7.36692e+06	-48239.1	955.818	-29763.6	0.000000	0.000000	6.322850	-0.000391	NaN	0.000000	0.001593	0.001650	28.0787	0.087318	0.001871	46.672	76.1475	-164.042	-0.028869	0.321446	-0.706499	-0.707800	-0.000391	46.672	-0.706492	-2.399803E+9	1.628249E-13	NaN
192	1.000000	0.330781	7.36692e+06	-48239.1	955.818	-29763.6	0.000000	0.000000	6.330880	-0.094132	NaN	0.000000	0.001602	0.001652	28.0787	0.073732	0.002028	36.3533	-9.496437	-165.171	-0.074302	0.329445	-0.698465	-0.699801	-0.094132	36.3533	-0.696523	-1.754023E+9	5.366623E-11	NaN
192	1.000000	0.338786	7.36692e+06	-48239.1	955.819	-29763.6	0.000000	0.000000	6.338889	-0.000513	NaN	0.000000	0.001575	0.001636	28.0787	0.030610	0.001955	15.6589	149.809	-165.368	-0.040920	0.337474	-0.690459	-0.691772	-0.000513	15.6589	-0.690435	-1.448308E+9	3.544527E-13	NaN
192	1.000000	0.346769	7.36692e+06	-48239.1	955.819	-29763.6	0.000000	0.000000	6.346870	-0.039793	NaN	0.000000	0.001591	0.001635	28.0785	0.047870	0.002009	23.8287	-101.449	-164.655	-0.052751	0.345433	-0.682477	-0.683812	-0.039793	23.8287	-0.681224	-1.083799E+9	3.671657E-11	NaN
192	1.000000	0.354786	7.36692e+06	-48239.1	955.818	-29763.6	0.000000	0.000000	6.354891	0.051913	NaN	0.000000	0.001546	0.001658	28.0791	0.084382	0.002138	39.4702	-75.4878	-166.692	0.080139	0.353452	-0.674460	-0.675793	0.051913	39.4702	-0.675446	-9.034732E+8	-5.745961E-11	NaN
192	1.000000	0.362791	7.36692e+06	-48239.1	955.819	-29763.6	0.000000	0.000000	6.362892	-0.047731	NaN	0.000000	0.001596	0.001684	28.0786	0.093662	0.002099	44.6326	62.8802	-167.731	-0.041842	0.361485	-0.666454	-0.667761	-0.047731	44.6326	-0.665652	-6.635480E+8	7.193328E-11	NaN
192	1.000000	0.370779	7.36692e+06	-48239.1	955.819	-29763.6	0.000000	0.000000	6.370885	0.072010	NaN	0.000000	0.001594	0.001666	28.08	0.023371	0.002080	11.2331	-34.2996	-166.997	0.009640	0.369514	-0.658467	-0.659732	0.072010	11.2331	-0.663275	-6.156272E+8	-1.169704E-10	NaN
192	1.000000	0.378806	7.36692e+06	-48239.1	955.818	-29763.6	0.000000	0.000000	6.378908	-0.031914	NaN	0.000000	0.001603	0.001666	28.0799	0.133749	0.001920	69.6585	-69.4068	-162.769	0.019270	0.377440	-0.650439	-0.651806	-0.031914	69.6585	-0.650096	-4.062089E+8	7.856601E-11	NaN
192	1.000000	0.386810	7.36692e+06	-48239.1	955.818	-29763.6	0.000000	0.000000	6.386914	0.023905	NaN	0.000000	0.001586	0.001653	28.0799	0.022679	0.002085	10.8763	-44.4553	-164.163	0.053142	0.385501	-0.642435	-0.643745	0.023905	10.8763	-0.644084	-3.359795E+8	-7.115096E-11	NaN
192	1.000000	0.394821	7.36692e+06	-48239.1	955.818	-29763.6	0.000000	0.000000	6.394924	0.005084	NaN	0.000000	0.001550	0.001662	28.0799	0.078771	0.002098	37.5463	104.062	-166.542	0.027216	0.393480	-0.634425	-0.635765	0.005084	37.5463	-0.634526	-2.484113E+8	-2.046600E-11	NaN
192	1.000000	0.402783	7.36692e+06	-48239.1	955.818	-29763.6	0.000000	0.000000	6.402884	-0.043052	NaN	0.000000	0.001540	0.001659	28.08	0.124930	0.001995	62.611	51.6591	-167.171	-0.064683	0.401489	-0.626463	-0.627757	-0.043052	62.611	-0.625947	-1.893890E+8	2.273194E-10	NaN
192	1.000000	0.410816	7.36692e+06	-48239.1	955.819	-29763.6	0.000000	0.000000	6.410920	0.010493	NaN	0.000000	0.001548	0.001692	28.0801	0.134544	0.002057	65.3987	-100.925	-162.252	0.038487	0.409545	-0.618429	-0.619701	0.010493	65.3987	-0.618549	-1.498629E+8	-7.001722E-11	NaN
192	1.000000	0.418822	7.36692e+06	-48239.1	955.819	-29763.6	0.000000	0.000000	6.418923	-0.026452	NaN	0.000000	0.001557	0.001699	28.0799	0.098718	0.002015	48.995	-67.2257	-164.823	0.018625	0.417550	-0.610424	-0.611695	-0.026452	48.995	-0.610019	-1.143866E+8	2.312470E-10	NaN
192	1.000000	0.426817	7.36692e+06	-48239.1	955.817	-29763.6	0.000000	0.000000	6.426919	-0.035369	NaN	0.000000	0.001592	0.001729	28.08	0.135068	0.001933	69.8692	46.199	-165.219	-0.039318	0.425468	-0.602428	-0.603778	-0.035369	69.8692	-0.602049	-8.885309E+7	3.980635E-10	NaN
192	1.000000	0.434813	7.36692e+06	-48239.1	955.819	-29763.6	0.000000	0.000000	6.434918	0.031530	NaN	0.000000	0.001570	0.001691	28.0799	0.059772	0.001938	30.8382	-52.1307	-162.577	0.045415	0.433479	-0.594432	-0.595767	0.031530	30.8382	-0.595199	-7.150286E+7	-4.409615E-10	NaN
192	1.000000	0.442811	7.36692e+06	-48239.1	955.819	-29763.6	0.000000	0.000000	6.442913	-0.017359	NaN	0.000000	0.001600	0.001683	28.08	0.023667	0.002083	11.3623	-126.294	-165.304	-0.049016	0.441472	-0.586434	-0.587773	-0.017359	11.3623	-0.585289	-5.220290E+7	3.325301E-10	NaN
192	1.000000	0.450826	7.36692e+06	-48239.1	955.819	-29763.6	0.000000	0.000000	6.450931	0.046294	NaN	0.000000	0.001604	0.001682	28.0799	0.131166	0.001956	67.0496	49.9028	-166.274	0.134565	0.449503	-0.578419	-0.579743	0.046294	67.0496	-0.578937	-4.266336E+7	-1.085093E-9	NaN
192	1.000000	0.458830	7.36692e+06	-48239.1	955.819	-29763.6	0.000000	0.000000	6.458934	0.034017	NaN	0.000000	0.001557	0.001687	28.0799	0.066546	0.001989	33.4545	-176.419	-163.21	0.064351	0.457488	-0.570416	-0.571758	0.034017	33.4545	-0.571179	-3.333610E+7	-1.020437E-9	NaN
192	1.000000	0.466810	7.36692e+06	-48239.1	955.818	-29763.6	0.000000	0.000000	6.466915	0.062188	NaN	0.000000	0.001565	0.001681	28.0801	0.066371	0.002002	33.155	168.631	-165.364	0.087857	0.465529	-0.562436	-0.563717	0.062188	33.155	-0.563842	-2.639498E+7	-2.356051E-9	NaN
192	1.000000	0.474800	7.36692e+06	-48239.1	955.819	-29763.6	0.000000	0.000000	6.474900	-0.072038	NaN	0.000000	0.001599	0.001699	28.0799	0.077435	0.001917	40.3978	-60.6538	-164.246	0.010909	0.473519	-0.554445	-0.555727	-0.072038	40.3978	-0.553108	-1.874961E+7	3.842081E-9	NaN
192	1.000000	0.482840	7.36692e+06	-48239.1	955.818	-29763.6	0.000000	0.000000	6.482943	0.009646	NaN	0.000000	0.001592	0.001652	28.0802	0.072510	0.001960	36.9858	95.8594	-164.635	0.047887	0.481514	-0.546405	-0.547731	0.009646	36.9858	-0.546601	-1.523590E+7	-6.330863E-10	NaN
192	1.000000	0.490852	7.36692e+06	-48239.1	955.819	-29763.6	0.000000	0.000000	6.490953	-0.043655	NaN	0.000000	0.001604	0.001682	28.0799	0.114808	0.002024	56.7094	89.8626	-169.2	0.044775	0.489562	-0.538393	-0.539683	-0.043655	56.7094	-0.537816	-1.150972E+7	3.792853E-9	NaN
192	1.000000	0.498870	7.36692e+06	-48239.1	955.818	-29763.6	0.000000	0.000000	6.498973	0.000328	NaN	0.000000	0.001621	0.001659	28.0799	0.061056	0.001929	31.6524	70.4473	-163.354	0.048541	0.497564	-0.530375	-0.531682	0.000328	31.6524	-0.530383	-9.076e+06	-3.615629E-11	NaN
192	1.000000	0.506836	7.36692e+06	-48239.1	955.819	-29763.6	0.000000	0.000000	6.506940	0.026981	NaN	0.000000	0.001634	0.001614	28.0787	0.045616	0.001929	23.6529	24.9556	-163.056	-0.034399	0.505536	-0.522410	-0.523710	0.026981	23.6529	-0.523266	-7.22775e+06	-3.732966E-9	NaN
192	1.000000	0.514873	7.36692e+06	-48239.1	955.818	-29763.6	0.000000	0.000000	6.514978	0.034819	NaN	0.000000	0.001621	0.001607	28.0785	0.120266	0.002071	58.0845	-146.564	-166.623	0.014399	0.513556	-0.514372	-0.515689	0.034819	58.0845	-0.514822	-5.5151e+06	-6.313392E-9	NaN
192	1.000000	0.522839	7.36692e+06	-48239.1	955.818	-29763.6	0.000000	0.000000	6.522944	0.050232	NaN	0.000000	0.001589	0.001655	28.079	0.090733	0.001930	47.0004	99.59	-166.516	0.074188	0.521515	-0.506407	-0.507730	0.050232	47.0004	-0.507208	-4.32038e+06	-1.162676E-8	NaN
192	1.000000	0.530805	7.36692e+06	-48239.1	955.819	-29763.6	0.000000	0.000000	6.530908	0.004624	NaN	0.000000	0.001618	0.001674	28.0788	0.078136	0.002004	38.9915	9.240444	-164.924	0.003602	0.529543	-0.498440	-0.499703	0.004624	38.9915	-0.498529	-3.26962e+06	-1.414111E-9	NaN
192	1.000000	0.538851	7.36692e+06	-48239.1	955.818	-29763.6	0.000000	0.000000	6.538951	-0.062982	NaN	0.000000	0.001612	0.001664	28.0788	0.054340	0.002036	26.6892	-153.111	-167.717	0.061206	0.537524	-0.490395	-0.491721	-0.062982	26.6892	-0.488625	-2.37778e+06	2.648773E-8	NaN
192	1.000000	0.546873	7.36692e+06	-48239.1	955.819	-29763.6	0.000000	0.000000	6.546973	-0.053059	NaN	0.000000	0.001603	0.001649	28.0789	0.073357	0.002044	35.889	118.65	-165.005	-0.100947	0.545606	-0.482373	-0.483640	-0.053059	35.889	-0.481264	-1.87595e+06	2.828395E-8	NaN
192	1.000000	0.554868	7.36692e+06	-48239.1	955.819	-29763.6	0.000000	0.000000	6.554971	0.005458	NaN	0.000000	0.001581	0.001618	28.0787	0.056996	0.002033	28.0296	106.123	-165.339	0.030355	0.553552	-0.474378	-0.475693	0.005458	28.0296	-0.474524	-1.5095e+06	-3.616097E-9	NaN
192	1.000000	0.562848	7.36692e+06	-48239.1	955.819	-29763.6	0.000000	0.000000	6.562953	0.052234	NaN	0.000000	0.001566	0.001662	28.0791	0.048387	0.002014	24.0219	159.694	-167.22	0.012243	0.561501	-0.466398	-0.467745	0.052234	24.0219	-0.468028	-1.22391e+06	-4.267793E-8	NaN
192	1.000000	0.570859	7.36692e+06	-48239.1	955.819	-29763.6	0.000000	0.000000	6.570963	0.026695	NaN	0.000000	0.001570	0.001655	28.0785	0.048256	0.001884	25.6131	152.291	-165.269	0.001681	0.569562	-0.458387	-0.459684	0.026695	25.6131	-0.459169	-919037	-2.904669E-8	NaN
192	1.000000	0.578869	7.36692e+06	-48239.1	955.819	-29763.6	0.000000	0.000000	6.578972	0.007504	NaN	0.000000	0.001597	0.001686	28.0788	0.064612	0.001990	32.4683	83.3189	-161.638	-0.025263	0.577530	-0.450377	-0.451715	0.007504	32.4683	-0.450550	-695174	-1.079391E-8	NaN
192	1.000000	0.586904	7.36692e+06	-48239.1	955.819	-29763.6	0.000000	0.000000	6.587006	-0.028142	NaN	0.000000	0.001568	0.001669	28.0787	0.050987	0.001983	25.7166	-138.452	-164.064	0.098740	0.585594	-0.442341	-0.443652	-0.028142	25.7166	-0.441521	-518588	5.426587E-8	NaN
192	1.000000	0.594895	7.36692e+06	-48239.1	955.817	-29763.6	0.000000	0.000000	6.594999	0.036485	NaN	0.000000	0.001596	0.001650	28.0786	0.039796	0.002025	19.6557	-157.752	-168.88	0.069642	0.593588	-0.434351	-0.435657	0.036485	19.6557	-0.435743	-429781	-8.489185E-8	NaN
192	1.000000	0.602897	7.36692e+06	-48239.1	955.819	-29763.6	0.000000	0.000000	6.602998	-0.032524	NaN	0.000000	0.001569	0.001634	28.0791	0.076835	0.001963	39.1359	-21.7036	-163.43	-0.005483	0.601580	-0.426349	-0.427666	-0.032524	39.1359	-0.425726	-310141	1.048689E-7	NaN
192	1.000000	0.610899	7.36692e+06	-48239.1	955.818	-29763.6	0.000000	0.000000	6.611004	0.066292	NaN	0.000000	0.001608	0.001643	28.0787	0.079561	0.001988	40.0288	-65.6935	-163.299	0.144297	0.609560	-0.418347	-0.419686	0.066292	40.0288	-0.419589	-253855	-2.611426E-7	NaN
192	1.000000	0.618894	7.36692e+06	-48239.1	955.818	-29763.6	0.000000	0.000000	6.618998	0.013504	NaN	0.000000	0.001618	0.001652	28.0787	0.032818	0.002014	16.2942	-32.4321	-166.711	0.026889	0.617559	-0.410351	-0.411686	0.013504	16.2942	-0.410973	-191530	-7.050761E-8	NaN
192	1.000000	0.626917	7.36692e+06	-48239.1	955.819	-29763.6	0.000000	0.000000	6.627017	-0.051562	NaN	0.000000	0.001571	0.001675	28.0786	0.028995	0.002026	14.3094	114.25	-165.696	-0.032181	0.625548	-0.402329	-0.403697	-0.051562	14.3094	-0.399626	-132028	3.905408E-7	NaN
192	1.000000	0.634918	7.36692e+06	-48239.1	955.819	-29763.6	0.000000	0.000000	6.635022	0.039702	NaN	0.000000	0.001562	0.001691	28.0784	0.084253	0.002016	41.7974	-29.5166	-164.889	0.022165	0.633572	-0.394328	-0.395673	0.039702	41.7974	-0.395040	-113556	-3.496255E-7	NaN
192	1.000000	0.642935	7.36692e+06	-48239.1	955.818	-29763.6	0.000000	0.000000	6.643036	-0.037304	NaN	0.000000	0.001571	0.001680	28.0799	0.065594	0.002016	32.5427	-156.364	-164.901	-0.041513	0.641573	-0.386311	-0.387673	-0.037304	32.5427	-0.385451	-82803.6	4.505146E-7	NaN
192	1.000000	0.650900	7.36692e+06	-48239.1	955.818	-29763.6	0.000000	0.000000	6.651002	-0.016919	NaN	0.000000	0.001575	0.001666	28.0797	0.071667	0.001974	36.3134	135.474	-165.508	-0.017190	0.649617	-0.378345	-0.379628	-0.016919	36.3134	-0.377996	-64732	2.613738E-7	NaN
192	1.000000	0.658901	7.36692e+06	-48239.1	955.818	-29763.6	0.000000	0.000000	6.659004	0.006124	NaN	0.000000	0.001578	0.001676	28.0799	0.109455	0.002105	51.99	2.839266	-165.977	0.009319	0.657632	-0.370345	-0.371614	0.006124	51.99	-0.370433	-50392.2	-1.215222E-7	NaN
192	1.000000	0.666908	7.36692e+06	-48239.1	955.819	-29763.6	0.000000	0.000000	6.667010	-0.027816	NaN	0.000000	0.001529	0.001670	28.0797	0.066149	0.002065	32.0266	-22.3699	-167.079	-0.036712	0.665609	-0.362338	-0.363637	-0.027816	32.0266	-0.361686	-37688.8	7.380459E-7	NaN
192	1.000000	0.674898	7.36692e+06	-48239.1	955.818	-29763.6	0.000000	0.000000	6.674999	-0.040259	NaN	0.000000	0.001540	0.001693	28.08	0.049316	0.001932	25.5321	-60.6804	-165.556	0.006952	0.673619	-0.354348	-0.355626	-0.040259	25.5321	-0.353165	-28373.5	1.418891E-6	NaN
192	1.000000	0.682905	7.36692e+06	-48239.1	955.818	-29763.6	0.000000	0.000000	6.683006	-0.040463	NaN	0.000000	0.001577	0.001645	28.0799	0.110025	0.001953	56.3228	-145.428	-164.645	-0.019856	0.681565	-0.346341	-0.347680	-0.040463	56.3228	-0.345802	-22183.1	1.824033E-6	NaN
192	1.000000	0.690911	7.36692e+06	-48239.1	955.818	-29763.6	0.000000	0.000000	6.691014	-0.004416	NaN	0.000000	0.001514	0.001629	28.0798	0.054452	0.002011	27.0747	170.623	-166.181	-0.070823	0.689646	-0.338335	-0.339600	-0.004416	27.0747	-0.338212	-17198.3	2.567965E-7	NaN
192	1.000000	0.698949	7.36692e+06	-48239.1	955.818	-29763.6	0.000000	0.000000	6.699047	-0.119272	NaN	0.000000	0.001551	0.001665	28.0802	0.070991	0.002110	33.6404	-157.384	-167.192	-0.066406	0.697579	-0.330297	-0.331666	-0.119272	33.6404	-0.327638	-12045.8	9.901479E-6	NaN
192	1.000000	0.706906	7.36692e+06	-48239.1	955.819	-29763.6	0.000000	0.000000	6.707007	-0.033471	NaN	0.000000	0.001576	0.001666	28.08	0.054025	0.002024	26.6953	-157.205	-165.351	0.039726	0.705637	-0.322340	-0.323609	-0.033471	26.6953	-0.321399	-9755.01	3.431153E-6	NaN
192	1.000000	0.714919	7.36692e+06	-48239.1	955.819	-29763.6	0.000000	0.000000	6.715026	0.083612	NaN	0.000000	0.001588	0.001683	28.0801	0.037724	0.002040	18.4966	10.36	-167.374	0.084624	0.713617	-0.314326	-0.315629	0.083612	18.4966	-0.317717	-8610.1	-9.710889E-6	NaN
192	1.000000	0.722911	7.36692e+06	-48239.1	955.818	-29763.6	0.000000	0.000000	6.723013	-0.005434	NaN	0.000000	0.001576	0.001688	28.0798	0.148510	0.001946	76.3087	160.736	-164.514	-0.017743	0.721614	-0.306335	-0.307631	-0.005434	76.3087	-0.306281	-5833.99	9.314188E-7	NaN
192	1.000000	0.730920	7.36692e+06	-48239.1	955.818	-29763.6	0.000000	0.000000	6.731022	-0.025008	NaN	0.000000	0.001556	0.001681	28.0799	0.053646	0.001896	28.2874	103.835	-165.95	0.021969	0.729609	-0.298326	-0.299637	-0.025008	28.2874	-0.297663	-4343.26	5.757822E-6	NaN
192	1.000000	0.738924	7.36692e+06	-48239.1	955.817	-29763.6	0.000000	0.000000	6.739025	-0.051739	NaN	0.000000	0.001556	0.001697	28.0798	0.049975	0.001888	26.4728	-64.6737	-166.913	0.003079	0.737644	-0.290322	-0.291602	-0.051739	26.4728	-0.288856	-3207.39	1.613115E-5	NaN
192	1.000000	0.746976	7.36692e+06	-48239.1	955.818	-29763.6	0.000000	0.000000	6.747079	-0.007654	NaN	0.000000	0.001562	0.001674	28.0797	0.073211	0.001972	37.1258	-145.647	-169.16	-0.011606	0.745566	-0.282270	-0.283680	-0.007654	37.1258	-0.282115	-2540.11	3.013177E-6	NaN
192	1.000000	0.754947	7.36692e+06	-48239.1	955.819	-29763.6	0.000000	0.000000	6.755047	-0.063557	NaN	0.000000	0.001565	0.001662	28.0802	0.083812	0.001968	42.5828	130.297	-166.852	-0.111388	0.753592	-0.274299	-0.275654	-0.063557	42.5828	-0.273179	-1861.29	3.414644E-5	NaN
192	1.000000	0.762952	7.36692e+06	-48239.1	955.818	-29763.6	0.000000	0.000000	6.763055	0.008459	NaN	0.000000	0.001629	0.001667	28.0796	0.039532	0.002024	19.5359	-103.314	-165.594	0.059596	0.761687	-0.266294	-0.267559	0.008459	19.5359	-0.266618	-1479.35	-5.717732E-6	NaN
192	1.000000	0.770944	7.36692e+06	-48239.1	955.818	-29763.6	0.000000	0.000000	6.771051	0.096692	NaN	0.000000	0.001623	0.001676	28.0798	0.032816	0.001984	16.5399	-95.7346	-169.246	0.041063	0.769642	-0.258301	-0.259603	0.096692	16.5399	-0.262686	-1288.36	-7.505011E-5	NaN
192	1.000000	0.778975	7.36692e+06	-48239.1	955.817	-29763.6	0.000000	0.000000	6.779078	0.010145	NaN	0.000000	0.001611	0.001673	28.0784	0.044207	0.001886	23.4371	-98.1829	-165.117	0.022179	0.777706	-0.250271	-0.251539	0.010145	23.4371	-0.250596	-839.799	-1.208079E-5	NaN
192	1.000000	0.787011	7.36693e+06	-48239.1	955.818	-29763.6	0.000000	0.000000	6.787113	-0.013581	NaN	0.000000	0.001606	0.001655	28.0786	0.069580	0.002072	33.5745	-103.738	-166.054	-0.007772	0.785628	-0.242235	-0.243617	-0.013581	33.5745	-0.241932	-616.161	2.204192E-5	NaN
192	1.000000	0.794983	7.36693e+06	-48239.1	955.817	-29763.6	0.000000	0.000000	6.795085	-0.022187	NaN	0.000000	0.001596	0.001662	28.0788	0.140088	0.002097	66.8075	-61.4458	-165.614	-0.045707	0.793612	-0.234263	-0.235634	-0.022187	66.8075	-0.234014	-463.186	4.790068E-5	NaN
192	1.000000	0.802971	7.36693e+06	-48239.1	955.819	-29763.6	0.000000	0.000000	6.803074	0.014462	NaN	0.000000	0.001632	0.001675	28.0786	0.107742	0.002038	52.8679	141.921	-164.175	0.015342	0.801651	-0.226275	-0.227594	0.014462	52.8679	-0.226480	-352.226	-4.105908E-5	NaN
192	1.000000	0.810980	7.36693e+06	-48239.1	955.819	-29763.6	0.000000	0.000000	6.811082	-0.031567	NaN	0.000000	0.001624	0.001632	28.0789	0.026448	0.002048	12.9111	-16.407	-166.439	-0.080530	0.809663	-0.218265	-0.219583	-0.031567	12.9111	-0.216432	-243.511	0.000130	NaN
192	1.000000	0.818959	7.36693e+06	-48239.1	955.819	-29763.6	0.000000	0.000000	6.819063	0.023429	NaN	0.000000	0.001594	0.001656	28.0785	0.049274	0.002115	23.2992	-138.272	-165.54	-0.053609	0.817666	-0.210287	-0.211580	0.023429	23.2992	-0.211041	-199.373	-0.000118	NaN
192	1.000000	0.826937	7.36693e+06	-48239.1	955.818	-29763.6	0.000000	0.000000	6.827042	0.073909	NaN	0.000000	0.001600	0.001672	28.0784	0.088597	0.001976	44.8338	49.814	-162.213	0.077029	0.825638	-0.202309	-0.203608	0.073909	44.8338	-0.203545	-150.594	-0.000491	NaN
192	1.000000	0.834976	7.36693e+06	-48239.1	955.818	-29763.6	0.000000	0.000000	6.835078	-0.033118	NaN	0.000000	0.001594	0.001701	28.0786	0.006240	0.001917	3.254948	107.888	-163.931	-0.024943	0.833602	-0.194269	-0.195643	-0.033118	3.254948	-0.186638	-79.0138	0.000419	NaN
192	1.000000	0.842997	7.36693e+06	-48239.1	955.818	-29763.6	0.000000	0.000000	6.843099	-0.017796	NaN	0.000000	0.001575	0.001692	28.0787	0.058302	0.002021	28.8517	-148.696	-165.384	0.033516	0.841658	-0.186249	-0.187588	-0.017796	28.8517	-0.185786	-76.4488	0.000233	NaN
192	1.000000	0.850982	7.36693e+06	-48239.1	955.818	-29763.6	0.000000	0.000000	6.851084	-0.015232	NaN	0.000000	0.001622	0.001667	28.0792	0.091970	0.002026	45.4028	-144.113	-164.172	-0.013147	0.849672	-0.178263	-0.179574	-0.015232	45.4028	-0.178012	-56.4385	0.000270	NaN
192	1.000000	0.858967	7.36693e+06	-48239.1	955.819	-29763.6	0.000000	0.000000	6.859067	-0.049501	NaN	0.000000	0.001610	0.001656	28.0787	0.063139	0.002014	31.3474	-1.037465	-165.718	-0.050895	0.857653	-0.170279	-0.171592	-0.049501	31.3474	-0.169095	-39.6165	0.001250	NaN
192	1.000000	0.866981	7.36693e+06	-48239.1	955.818	-29763.6	0.000000	0.000000	6.867084	-0.008046	NaN	0.000000	0.001586	0.001686	28.0787	0.059241	0.001979	29.9319	-147.391	-162.829	0.057583	0.865699	-0.162264	-0.163546	-0.008046	29.9319	-0.162063	-29.8228	0.000270	NaN
192	1.000000	0.874997	7.36693e+06	-48239.1	955.819	-29763.6	0.000000	0.000000	6.875099	-0.007281	NaN	0.000000	0.001595	0.001669	28.0788	0.104091	0.001960	53.1002	-144.006	-164.074	0.052499	0.873685	-0.154249	-0.155560	-0.007281	53.1002	-0.154146	-21.5377	0.000338	NaN
192	1.000000	0.883001	7.36693e+06	-48239.1	955.818	-29763.6	0.000000	0.000000	6.883103	-0.008683	NaN	0.000000	0.001594	0.001693	28.0787	0.026592	0.002041	13.0318	22.5097	-166.357	0.011803	0.881701	-0.146245	-0.147544	-0.008683	13.0318	-0.145745	-15.1334	0.000574	NaN
192	1.000000	0.890978	7.36693e+06	-48239.1	955.819	-29763.6	0.000000	0.000000	6.891079	-0.043596	NaN	0.000000	0.001579	0.001706	28.0791	0.055339	0.001954	28.3238	1.070277	-167.109	-0.019702	0.889661	-0.138268	-0.139585	-0.043596	28.3238	-0.137114	-10.4351	0.004178	NaN
192	1.000000	0.899006	7.36693e+06	-48239.1	955.818	-29763.6	0.000000	0.000000	6.899108	-0.021029	NaN	0.000000	0.001580	0.001681	28.0785	0.051932	0.001990	26.0924	-52.2133	-163.841	0.018444	0.897773	-0.130239	-0.131473	-0.021029	26.0924	-0.129635	-7.497484	0.002805	NaN
192	1.000000	0.907012	7.36693e+06	-48239.1	955.819	-29763.6	0.000000	0.000000	6.907115	0.000807	NaN	0.000000	0.001550	0.001686	28.0788	0.052555	0.002008	26.1738	-2.407438	-160.146	-0.099414	0.905649	-0.122234	-0.123596	0.000807	26.1738	-0.122257	-5.363177	-0.000150	NaN
192	1.000000	0.915009	7.36693e+06	-48239.1	955.819	-29763.6	0.000000	0.000000	6.915113	0.046314	NaN	0.000000	0.001560	0.001687	28.0798	0.045836	0.002090	21.9278	37.4108	-164.591	0.071393	0.913720	-0.114237	-0.115526	0.046314	21.9278	-0.115821	-3.971938	-0.011660	NaN
192	1.000000	0.923019	7.36693e+06	-48239.1	955.818	-29763.6	0.000000	0.000000	6.923122	0.015445	NaN	0.000000	0.001582	0.001720	28.0799	0.090404	0.001864	48.496	141.983	-164.816	-0.026737	0.921753	-0.106227	-0.107492	0.015445	48.496	-0.106466	-2.527678	-0.006110	NaN
192	1.000000	0.931019	7.36693e+06	-48239.1	955.819	-29763.6	0.000000	0.000000	6.931120	-0.039143	NaN	0.000000	0.001520	0.001684	28.08	0.035835	0.001944	18.4353	8.193808	-165.006	-0.028541	0.929660	-0.098227	-0.099586	-0.039143	18.4353	-0.096634	-1.536303	0.025479	NaN
192	1.000000	0.939039	7.36693e+06	-48239.1	955.818	-29763.6	0.000000	0.000000	6.939143	0.009441	NaN	0.000000	0.001546	0.001677	28.0798	0.075486	0.002159	34.9581	-74.697	-164.273	0.055103	0.937748	-0.090206	-0.091497	0.009441	34.9581	-0.090409	-1.105083	-0.008543	NaN
192	1.000000	0.947005	7.36693e+06	-48239.1	955.819	-29763.6	0.000000	0.000000	6.947108	0.006778	NaN	0.000000	0.001548	0.001694	28.0803	0.092299	0.002014	45.8332	121.758	-164.35	0.071041	0.945718	-0.082241	-0.083528	0.006778	45.8332	-0.082351	-0.707993	-0.009574	NaN
192	1.000000	0.955006	7.36693e+06	-48239.1	955.818	-29763.6	0.000000	0.000000	6.955110	0.044713	NaN	0.000000	0.001543	0.001683	28.0798	0.037248	0.001988	18.739	21.1723	-168.668	0.048341	0.953795	-0.074240	-0.075451	0.044713	18.739	-0.076029	-0.490975	-0.091069	NaN
192	1.000000	0.963023	7.36693e+06	-48239.1	955.818	-29763.6	0.000000	0.000000	6.963128	0.062922	NaN	0.000000	0.001511	0.001699	28.0798	0.046936	0.001991	23.5767	-133.524	-164.509	0.034179	0.961767	-0.066223	-0.067479	0.062922	23.5767	-0.068224	-0.305507	-0.205960	NaN
192	1.000000	0.971017	7.36693e+06	-48239.1	955.818	-29763.6	0.000000	0.000000	6.971120	0.015091	NaN	0.000000	0.001537	0.001700	28.0799	0.106421	0.001967	54.0965	-122.958	-165.444	0.022904	0.969750	-0.058229	-0.059495	0.015091	54.0965	-0.058438	-0.162356	-0.092950	NaN
192	1.000000	0.979054	7.36693e+06	-48239.1	955.819	-29763.6	0.000000	0.000000	6.979158	0.041901	NaN	0.000000	0.001520	0.001687	28.0799	0.042431	0.002057	20.6326	80.0669	-165.073	0.008882	0.977725	-0.050192	-0.051520	0.041901	20.6326	-0.051715	-0.102785	-0.407656	NaN
192	1.000000	0.987021	7.36693e+06	-48239.1	955.819	-29763.6	0.000000	0.000000	6.987122	-0.049160	NaN	0.000000	0.001534	0.001702	28.0798	0.004953	0.002006	2.469209	18.4337	-162.736	-0.078246	0.985708	-0.042225	-0.043537	-0.049160	2.469209	-0.027293	-0.019403	2.533615	NaN
192	1.000000	0.995046	7.36693e+06	-48239.1	955.819	-29763.6	0.000000	0.000000	6.995148	-0.015441	NaN	0.000000	0.001551	0.001707	28.0799	0.018461	0.001902	9.704263	-1.283395	-162.843	-0.022104	0.993731	-0.034200	-0.035515	-0.015441	9.704263	-0.033006	-0.028010	0.551258	NaN
192	1.000000	1.003038	7.36693e+06	-48239.1	955.819	-29763.6	0.000000	0.000000	7.003142	0.013329	NaN	0.000000	0.001532	0.001636	28.08	0.078013	0.001945	40.1007	70.4584	-165.889	0.050152	1.001741	-0.026207	-0.027504	0.013329	40.1007	-0.026457	-0.018429	-0.723231	NaN
192	1.000000	1.011044	7.36693e+06	-48239.1	955.819	-29763.6	0.000000	0.000000	7.011148	0.011576	NaN	0.000000	0.001571	0.001700	28.0798	0.064141	0.001877	34.1637	-63.353	-164.682	-0.006947	1.009730	-0.018201	-0.019516	0.011576	34.1637	-0.018455	-0.011469	-1.009331	NaN
192	1.000000	1.019043	7.36693e+06	-48239.1	955.819	-29763.6	0.000000	0.000000	7.019146	0.004972	NaN	0.000000	0.001590	0.001693	28.0801	0.101475	0.001871	54.2382	-5.298022	-164.614	-0.075902	1.017742	-0.010203	-0.011504	0.004972	54.2382	-0.010271	-0.006542	-0.759952	NaN
192	1.000000	1.027099	7.36693e+06	-48239.1	955.818	-29763.6	0.000000	0.000000	7.027202	0.000603	NaN	0.000000	0.001590	0.001640	28.0799	0.025194	0.002011	12.5251	177.572	-167.269	-0.005136	1.025745	-0.002147	-0.003500	0.000603	12.5251	-0.002183	-0.001566	-0.384834	NaN
192	1.000000	1.035056	7.36693e+06	-48239.1	955.82	-29763.6	0.000000	0.000000	7.035194	0.869968	NaN	0.000000	0.001616	0.001656	28.0799	1.298505	0.001876	692.16	10.8711	-166.335	0.457974	1.033738	0.005810	0.004492	0.869968	692.16	0.004867	0.004013	216.809	9983.13
192	1.000000	1.043031	7.36693e+06	-48239.1	955.82	-29763.6	0.000000	0.000000	7.043335	4.900717	NaN	0.000000	0.001614	0.001673	28.0801	5.663498	0.001820	3111.93	19.2657	-172.822	4.152265	1.041765	0.013785	0.012520	4.900717	3111.93	0.012604	0.012222	400.98	25717.9
192	2.000000	1.047735	7.36693e+06	-48239.1	955.819	-29763.6	0.000000	0.000000	7.048179	8.300757	NaN	0.000000	0.001592	0.001663	28.0785	8.876181	0.001639	5416.21	7.371005	-171.638	8.310412	1.047403	0.018489	0.018158	8.300757	5416.21	0.017339	0.018533	447.896	36349.5
192	2.000000	1.049706	7.36693e+06	-48239.1	955.82	-29763.6	0.000000	0.000000	7.050269	11.2079	NaN	0.000000	0.001620	0.001712	28.0785	12.0089	0.001801	6667.16	6.729736	-172.183	11.4409	1.049383	0.020460	0.020138	11.2079	6667.16	0.019199	0.021300	526.197	41737.4
192	2.000000	1.051693	7.36693e+06	-48239.1	955.82	-29763.6	0.000000	0.000000	7.052442	15.6997	NaN	0.000000	0.001673	0.001687	28.0788	14.4224	0.001784	8085.16	5.501543	-171.724	15.7929	1.051345	0.022448	0.022099	15.6997	8085.16	0.020991	0.024124	650.791	47559.4
192	2.000000	1.053715	7.36693e+06	-48239.1	955.819	-29763.6	0.000000	0.000000	7.054652	20.2949	NaN	0.000000	0.001720	0.001684	28.0786	16.6966	0.001688	9891	4.628131	-174.631	20.9796	1.053322	0.024469	0.024077	20.2949	9891	0.022931	0.027358	741.821	54634.8
192	2.000000	1.055612	7.36693e+06	-48239.1	955.82	-29763.6	0.000000	0.000000	7.056785	26.0225	NaN	0.000000	0.001714	0.001650	28.0797	19.2312	0.001646	11680.7	4.660933	-176.442	24.9898	1.055319	0.026366	0.026073	26.0225	11680.7	0.024695	0.030464	854.213	61143.7
192	2.000000	1.057637	7.36693e+06	-48239.1	955.82	-29763.6	0.000000	0.000000	7.059044	31.7004	NaN	0.000000	0.001699	0.001662	28.079	20.5124	0.001723	11903.8	5.041768	-175.79	31.6556	1.057263	0.028392	0.028017	31.7004	11903.8	0.026395	0.033602	943.42	59330.4
192	2.000000	1.059624	7.36693e+06	-48239.1	955.82	-29763.6	0.000000	0.000000	7.061186	35.4721	NaN	0.000000	0.001660	0.001682	28.0787	23.2728	0.001743	13350.5	4.687290	-177.55	35.3971	1.059371	0.030379	0.030125	35.4721	13350.5	0.028386	0.037465	946.813	63017.2
192	2.000000	1.061677	7.36693e+06	-48239.1	955.819	-29763.6	0.000000	0.000000	7.063473	41.1718	NaN	0.000000	0.001676	0.001670	28.0787	25.3038	0.001741	14532.4	5.767843	-177.671	41.0832	1.061329	0.032431	0.032083	41.1718	14532.4	0.030307	0.041381	994.933	65268.9
192	2.000000	1.063647	7.36693e+06	-48239.1	955.819	-29763.6	0.000000	0.000000	7.065655	46.3294	NaN	0.000000	0.001662	0.001659	28.0787	27.4935	0.001837	14969.5	8.050586	-179.988	48.1795	1.063289	0.034402	0.034044	46.3294	14969.5	0.032081	0.045166	1025.75	64353.4
192	2.000000	1.065564	7.36693e+06	-48239.1	955.819	-29763.6	0.000000	0.000000	7.067816	52.2595	NaN	0.000000	0.001638	0.001653	28.0802	29.5955	0.001803	16416	4.172847	-177.553	50.7375	1.065321	0.036319	0.036075	52.2595	16416	0.033931	0.049287	1060.31	67557.9
192	2.000000	1.067554	7.36693e+06	-48239.1	955.819	-29763.6	0.000000	0.000000	7.070076	58.8394	NaN	0.000000	0.001605	0.001694	28.0785	30.8593	0.001683	18341.2	8.432773	175.931	56.5965	1.067240	0.038308	0.037995	58.8394	18341.2	0.035902	0.053868	1092.29	72200
192	2.000000	1.069594	7.36693e+06	-48239.1	955.819	-29763.6	0.000000	0.000000	7.072503	68.2555	NaN	0.000000	0.001623	0.001662	28.0787	33.2213	0.001788	18576.7	3.254027	-177.591	67.0469	1.069238	0.040348	0.039992	68.2555	18576.7	0.037593	0.057955	1177.73	70501.1
192	2.000000	1.071617	7.36693e+06	-48239.1	955.819	-29763.6	0.000000	0.000000	7.074649	71.2294	NaN	0.000000	0.001669	0.001667	28.0785	35.3213	0.001874	18851.2	2.955709	-177.759	69.9198	1.071266	0.042372	0.042021	71.2294	18851.2	0.039538	0.062839	1133.52	68706.4
192	2.000000	1.073611	7.36693e+06	-48239.1	955.82	-29763.6	0.000000	0.000000	7.076853	76.369	NaN	0.000000	0.001653	0.001711	28.0784	37.3716	0.001850	20198.5	4.878638	179.454	75.9153	1.073254	0.044365	0.044009	76.369	20198.5	0.041529	0.068041	1122.4	70747.1
192	2.000000	1.075589	7.36693e+06	-48239.1	955.819	-29763.6	0.000000	0.000000	7.079202	85.3774	NaN	0.000000	0.001610	0.001704	28.0791	38.7897	0.001751	22147.4	3.162942	179.793	85.5573	1.075292	0.046343	0.046047	85.3774	22147.4	0.043452	0.073254	1165.5	74761.9
192	2.000000	1.077541	7.36693e+06	-48239.1	955.82	-29763.6	0.000000	0.000000	7.081679	98.1227	NaN	0.000000	0.001610	0.001707	28.0787	40.0706	0.001664	24076.2	5.030387	177.411	95.3647	1.077162	0.048296	0.047916	98.1227	24076.2	0.045239	0.078268	1253.68	78626.5
192	2.000000	1.079542	7.36693e+06	-48239.1	955.82	-29763.6	0.000000	0.000000	7.083894	103.337	NaN	0.000000	0.001610	0.001681	28.0793	43.1357	0.001781	24217	4.554576	177.386	100.925	1.079263	0.050297	0.050017	103.337	24217	0.047096	0.083650	1235.35	76499.9
192	2.000000	1.081630	7.36693e+06	-48239.1	955.82	-29763.6	0.000000	0.000000	7.086334	111.908	NaN	0.000000	0.001613	0.001668	28.0801	45.1	0.001788	25218.1	3.812080	178.896	111.366	1.081310	0.052384	0.052065	111.908	25218.1	0.049056	0.089518	1250.12	77007.2
192	2.000000	1.083515	7.36693e+06	-48239.1	955.819	-29763.6	0.000000	0.000000	7.088531	119.506	NaN	0.000000	0.001617	0.001702	28.08	46.5964	0.001791	26018	5.367898	176.219	116.483	1.083198	0.054269	0.053952	119.506	26018	0.050824	0.094978	1258.25	77132
192	2.000000	1.085533	7.36693e+06	-48239.1	955.82	-29763.6	0.000000	0.000000	7.090703	123.263	NaN	0.000000	0.001614	0.001691	28.0803	49.998	0.001843	27125	6.144129	174.815	120.634	1.085280	0.056287	0.056034	123.263	27125	0.052879	0.101519	1214.19	77780.2
192	2.000000	1.087591	7.36693e+06	-48239.1	955.821	-29763.6	0.000000	0.000000	7.093364	137.916	NaN	0.000000	0.001587	0.001698	28.08	50.4802	0.001784	28295.6	4.984548	175.953	137.888	1.087200	0.058345	0.057955	137.916	28295.6	0.054690	0.107458	1283.44	78862.9
192	2.000000	1.089600	7.36693e+06	-48239.1	955.821	-29763.6	0.000000	0.000000	7.095605	143.556	NaN	0.000000	0.001590	0.001703	28.0806	54.6795	0.001883	29040.7	7.346821	173.175	144.166	1.089333	0.060354	0.060088	143.556	29040.7	0.056647	0.114060	1258.6	78562.2
192	2.000000	1.091591	7.36693e+06	-48239.1	955.82	-29763.6	0.000000	0.000000	7.098216	158.643	NaN	0.000000	0.001595	0.001710	28.08	54.8908	0.001831	29976.2	3.761961	176.933	159.449	1.091174	0.062345	0.061928	158.643	29976.2	0.058376	0.120049	1321.48	79044.2
192	2.000000	1.093524	7.36693e+06	-48239.1	955.82	-29763.6	0.000000	0.000000	7.100586	169.256	NaN	0.000000	0.001636	0.001726	28.08	55.8712	0.001729	32310	4.666617	175.351	167.803	1.093258	0.064279	0.064012	169.256	32310	0.060350	0.127066	1332.03	82812.5
192	2.000000	1.095543	7.36693e+06	-48239.1	955.82	-29763.6	0.000000	0.000000	7.102864	175.581	NaN	0.000000	0.001602	0.001723	28.0802	58.1504	0.001832	31745.6	0.014541	179.946	173.215	1.095341	0.066297	0.066096	175.581	31745.6	0.062149	0.133627	1313.97	79343.2
192	2.000000	1.097545	7.36693e+06	-48239.1	955.82	-29763.6	0.000000	0.000000	7.105476	190.4	NaN	0.000000	0.001619	0.001691	28.0801	59.93	0.001947	30788.6	3.215798	178.065	191.039	1.097223	0.068299	0.067977	190.4	30788.6	0.063661	0.139263	1367.2	75378.1
192	2.000000	1.099529	7.36693e+06	-48239.1	955.82	-29763.6	0.000000	0.000000	7.107890	200.861	NaN	0.000000	0.001618	0.001740	28.0806	62.3316	0.001777	35074.9	5.545216	173.985	199.155	1.099161	0.070283	0.069916	200.861	35074.9	0.065988	0.148152	1355.78	83256.1
192	2.000000	1.101557	7.36693e+06	-48239.1	955.819	-29763.6	0.000000	0.000000	7.110338	211.079	NaN	0.000000	0.001606	0.001731	28.0802	66.0064	0.001899	34761.4	7.801526	172.088	210.473	1.101247	0.072311	0.072001	211.079	34761.4	0.067757	0.155083	1361.08	80647.2
192	2.000000	1.103648	7.36693e+06	-48239.1	955.819	-29763.6	0.000000	0.000000	7.112501	212.834	NaN	0.000000	0.001608	0.001709	28.08	66.5537	0.001907	34895.4	4.051206	175.652	217.152	1.103319	0.074402	0.074073	212.834	34895.4	0.069828	0.163388	1302.63	78873.5
192	2.000000	1.105507	7.36693e+06	-48239.1	955.819	-29763.6	0.000000	0.000000	7.115176	232.668	NaN	0.000000	0.001632	0.001729	28.0802	67.5265	0.001771	38135.5	3.893320	175.549	231.558	1.105222	0.076262	0.075976	232.668	38135.5	0.071686	0.171014	1360.52	84253.1
192	2.000000	1.107576	7.36693e+06	-48239.1	955.819	-29763.6	0.000000	0.000000	7.117823	246.739	NaN	0.000000	0.001614	0.001716	28.0799	68.3616	0.001727	39573.4	2.081620	176.949	248.907	1.107188	0.078330	0.077942	246.739	39573.4	0.073654	0.179269	1376.36	85393.2
192	2.000000	1.109510	7.36693e+06	-48239.1	955.819	-29763.6	0.000000	0.000000	7.120334	260.757	NaN	0.000000	0.001617	0.001723	28.0809	71.7267	0.001901	37739	2.679235	176.53	258.718	1.109212	0.080265	0.079966	260.757	37739	0.075082	0.185375	1406.64	80082.5
192	2.000000	1.111562	7.36693e+06	-48239.1	955.819	-29763.6	0.000000	0.000000	7.123013	276.004	NaN	0.000000	0.001680	0.001731	28.0801	72.2963	0.001841	39278.8	5.508123	175.055	275.194	1.111098	0.082317	0.081853	276.004	39278.8	0.077047	0.193928	1423.23	81491.3
192	2.000000	1.113510	7.36693e+06	-48239.1	955.819	-29763.6	0.000000	0.000000	7.125365	285.836	NaN	0.000000	0.001670	0.001712	28.0801	74.8103	0.001820	41110	8.888984	169.987	285.084	1.113142	0.084265	0.083896	285.836	41110	0.079050	0.202838	1409.18	83396.2
192	2.000000	1.115451	7.36693e+06	-48239.1	955.82	-29763.6	0.000000	0.000000	7.127684	295.016	NaN	0.000000	0.001697	0.001760	28.0792	77.2335	0.001912	40385.5	2.277222	176.012	290.6	1.115259	0.086206	0.086014	295.016	40385.5	0.080727	0.210440	1401.9	80433
192	2.000000	1.117468	7.36693e+06	-48239.1	955.819	-29763.6	0.000000	0.000000	7.130277	309.029	NaN	0.000000	0.001686	0.001750	28.0791	78.2373	0.001893	41327.3	4.662264	173.803	305.621	1.117194	0.088223	0.087948	309.029	41327.3	0.082614	0.219153	1410.11	80656.1
192	2.000000	1.119507	7.36693e+06	-48239.1	955.82	-29763.6	0.000000	0.000000	7.132925	323.867	NaN	0.000000	0.001689	0.001707	28.0796	80.0739	0.001919	41732.4	5.702302	172.962	321.758	1.119172	0.090261	0.089926	323.867	41732.4	0.084441	0.227740	1422.09	79896.3
192	2.000000	1.121546	7.36693e+06	-48239.1	955.82	-29763.6	0.000000	0.000000	7.135597	339.232	NaN	0.000000	0.001665	0.001711	28.0792	81.7248	0.001850	44179.9	7.081999	171.22	339.107	1.121229	0.092301	0.091984	339.232	44179.9	0.086542	0.237812	1426.47	82771.5
192	2.000000	1.123579	7.36693e+06	-48239.1	955.82	-29763.6	0.000000	0.000000	7.138007	348.411	NaN	0.000000	0.001698	0.001722	28.0792	82.2765	0.001708	48172.2	4.518390	172.975	351.538	1.123232	0.094334	0.093987	348.411	48172.2	0.088909	0.249402	1396.99	88129.2
192	2.000000	1.125575	7.36693e+06	-48239.1	955.819	-29763.6	0.000000	0.000000	7.140756	366.721	NaN	0.000000	0.001710	0.001760	28.0792	85.7659	0.001770	48450.5	7.362493	170.594	367.64	1.125145	0.096330	0.095900	366.721	48450.5	0.090653	0.258105	1420.82	87131.1
192	2.000000	1.127546	7.36693e+06	-48239.1	955.819	-29763.6	0.000000	0.000000	7.143240	379.195	NaN	0.000000	0.001678	0.001714	28.0792	85.7531	0.001794	47793.8	6.037611	172.64	377.682	1.127093	0.098301	0.097847	379.195	47793.8	0.092350	0.266708	1421.76	84552.7
192	2.000000	1.129486	7.36693e+06	-48239.1	955.819	-29763.6	0.000000	0.000000	7.145833	395.099	NaN	0.000000	0.001692	0.001683	28.0792	88.6329	0.001850	47899.2	3.425587	173.863	392.446	1.129138	0.100240	0.099892	395.099	47899.2	0.094054	0.275475	1434.25	83379.8
192	2.000000	1.131534	7.36693e+06	-48239.1	955.819	-29763.6	0.000000	0.000000	7.148487	409.813	NaN	0.000000	0.001707	0.001724	28.0791	89.8121	0.001813	49538.7	1.881739	175.65	408.309	1.131216	0.102289	0.101971	409.813	49538.7	0.096084	0.286100	1432.41	84617.2
192	2.000000	1.133537	7.36693e+06	-48239.1	955.82	-29763.6	0.000000	0.000000	7.151155	426.02	NaN	0.000000	0.001679	0.001719	28.0792	92.5447	0.001830	50580.1	7.920080	169.051	427.099	1.133225	0.104291	0.103980	426.02	50580.1	0.097974	0.296156	1438.5	84916.6
192	2.000000	1.135582	7.36693e+06	-48239.1	955.82	-29763.6	0.000000	0.000000	7.153420	431.365	NaN	0.000000	0.001630	0.001726	28.0792	94.9093	0.001771	53599.6	4.989833	171.763	434.821	1.135274	0.106336	0.106029	431.365	53599.6	0.100300	0.308760	1397.09	88130
192	2.000000	1.137484	7.36693e+06	-48239.1	955.818	-29763.6	0.000000	0.000000	7.156535	460.866	NaN	0.000000	0.001653	0.001704	28.0789	95.9161	0.001752	54739.8	7.446412	169.015	460.041	1.137093	0.108238	0.107848	460.866	54739.8	0.101924	0.317702	1450.62	88729.2
192	2.000000	1.139482	7.36693e+06	-48239.1	955.819	-29763.6	0.000000	0.000000	7.159327	480.164	NaN	0.000000	0.001671	0.001716	28.0789	98.1136	0.001760	55751.7	5.466403	170.927	478.786	1.139205	0.110236	0.109959	480.164	55751.7	0.103777	0.328053	1463.68	88932.2
192	2.000000	1.141482	7.36693e+06	-48239.1	955.819	-29763.6	0.000000	0.000000	7.161948	495.288	NaN	0.000000	0.001577	0.001709	28.0789	100.241	0.001792	55930.8	6.688838	170.511	492.217	1.141062	0.112236	0.111816	495.288	55930.8	0.105595	0.338358	1463.8	87848.8
192	2.000000	1.143387	7.36693e+06	-48239.1	955.819	-29763.6	0.000000	0.000000	7.164524	511.592	NaN	0.000000	0.001596	0.001737	28.079	101.36	0.001840	55077.3	2.004381	175.043	507.935	1.143094	0.114141	0.113849	511.592	55077.3	0.107175	0.347440	1472.46	85370.2
192	2.000000	1.144958	7.36693e+06	-48239.1	955.819	-29763.6	0.000000	0.000000	7.166416	519.382	NaN	0.000000	0.001604	0.001715	28.0788	104.255	0.001766	59040.2	5.457297	-9.717376	514.748	1.144720	0.115713	0.115474	519.382	59040.2	0.109115	0.358744	1447.78	90059.4