File: remote_trans/data/nanoindenter/0828-1/data/Data_2025-08-06,11h17m57s/2025-07-22_16-23-58_1_503.txt
2025-07-22, 16:23:58, 1
Index	Phase	Displacement	Time	Pos X	Pos Y	Pos Z	Rot A	Rot B	Piezo Z	Force A	Force B	Gripper	Voltage A	Voltage B	Temperature	Amplitude force	Amplitude pos	Stiffness	Phase shift	Phase excitation	Force A raw	Displacement raw	HMax	HMax raw	Real Force	Real Stiffness	Contact Depth	Area	Hardness	Reduced Mod.
[#]	[#]	[um]	[s]	[um]	[um]	[um]	[m°]	[m°]	[um]	[uN]	[uN]	[V]	[V]	[V]	[°C]	[uN]	[um]	[N/m]	[°]	[°]	[uN]	[um]	[um]	[um]	[uN]	[N/m]	[um]	[um^2]	[MPa]	[MPa]
503	1.000000	0.002476	7.36997e+06	-51939.1	1005.82	-29750.6	0.000000	0.000000	6.002801	-0.026234	NaN	0.000000	0.001619	0.001738	28.081	0.152113	0.000917	165.931	-129.384	-165.815	-0.140543	0.001184	-1.169349	-1.170641	-0.026234	165.931	-1.169230	-4.251765E+15	6.170221E-18	NaN
503	1.000000	0.012549	7.36997e+06	-51939.1	1005.82	-29750.6	0.000000	0.000000	6.012873	-0.044731	NaN	0.000000	0.001580	0.001709	28.0808	0.053711	0.001168	45.9864	162.799	14.0906	-0.036459	0.011113	-1.159276	-1.160712	-0.044731	45.9864	-1.158546	-3.057636E+15	1.462934E-17	NaN
503	1.000000	0.022439	7.36997e+06	-51939.1	1005.82	-29750.6	0.000000	0.000000	6.022764	-0.006055	NaN	0.000000	0.001530	0.001703	28.0807	0.088530	0.001765	50.1687	149.447	-164.006	0.054502	0.021073	-1.149386	-1.150752	-0.006055	50.1687	-1.149295	-2.298131E+15	2.634683E-18	NaN
503	1.000000	0.032454	7.36997e+06	-51939.1	1005.82	-29750.6	0.000000	0.000000	6.032779	-0.013070	NaN	0.000000	0.001583	0.001705	28.0805	0.097492	0.001903	51.224	-27.7699	15.8261	-0.086586	0.031097	-1.139370	-1.140728	-0.013070	51.224	-1.139179	-1.681628E+15	7.772229E-18	NaN
503	1.000000	0.042408	7.36997e+06	-51939.1	1005.82	-29750.6	0.000000	0.000000	6.042734	0.001188	NaN	0.000000	0.001554	0.001763	28.0809	0.093842	0.001990	47.1666	-55.3811	-166.056	0.021657	0.041103	-1.129416	-1.130721	0.001188	47.1666	-1.129435	-1.244644E+15	-9.544174E-19	NaN
503	1.000000	0.052433	7.36997e+06	-51939.1	1005.82	-29750.6	0.000000	0.000000	6.052760	0.027013	NaN	0.000000	0.001598	0.001759	28.0807	0.037462	0.001835	20.4171	-58.913	14.3938	0.005564	0.051106	-1.119392	-1.120719	0.027013	20.4171	-1.120384	-9.410756E+14	-2.870404E-17	NaN
503	1.000000	0.062440	7.36997e+06	-51939.1	1005.82	-29750.6	0.000000	0.000000	6.062762	-0.082377	NaN	0.000000	0.001635	0.001755	28.0808	0.083481	0.002000	41.7371	120.058	-165.319	-0.073309	0.061132	-1.109385	-1.110693	-0.082377	41.7371	-1.107905	-6.399800E+14	1.287188E-16	NaN
503	1.000000	0.072424	7.36997e+06	-51939.1	1005.82	-29750.6	0.000000	0.000000	6.072746	-0.093828	NaN	0.000000	0.001630	0.001735	28.0804	0.049950	0.002123	23.5256	104.835	14.9988	-0.045509	0.071040	-1.099400	-1.100785	-0.093828	23.5256	-1.096409	-4.486007E+14	2.091574E-16	NaN
503	1.000000	0.082440	7.36997e+06	-51939.1	1005.82	-29750.6	0.000000	0.000000	6.082763	-0.061882	NaN	0.000000	0.001626	0.001762	28.0806	0.029619	0.001960	15.1133	-4.733718	-164.968	-0.037196	0.081152	-1.089385	-1.090673	-0.061882	15.1133	-1.086314	-3.283327E+14	1.884730E-16	NaN
503	1.000000	0.092439	7.36997e+06	-51939.1	1005.82	-29750.6	0.000000	0.000000	6.092764	-0.024346	NaN	0.000000	0.001622	0.001743	28.0803	0.107905	0.001945	55.4857	-174.883	16.0258	-0.082714	0.091032	-1.079385	-1.080793	-0.024346	55.4857	-1.079056	-2.623266E+14	9.280683E-17	NaN
503	1.000000	0.102455	7.36997e+06	-51939.1	1005.82	-29750.6	0.000000	0.000000	6.102779	-0.046586	NaN	0.000000	0.001630	0.001754	28.0805	0.092289	0.001960	47.0746	90.9662	-165.292	-0.039461	0.101137	-1.069369	-1.070687	-0.046586	47.0746	-1.068627	-1.899962E+14	2.451935E-16	NaN
503	1.000000	0.112476	7.36997e+06	-51939.1	1005.82	-29750.6	0.000000	0.000000	6.112799	-0.077676	NaN	0.000000	0.001593	0.001685	28.0806	0.042891	0.002015	21.2868	2.206684	15.6186	-0.020325	0.111103	-1.059348	-1.060722	-0.077676	21.2868	-1.056612	-1.310033E+14	5.929306E-16	NaN
503	1.000000	0.122474	7.36997e+06	-51939.1	1005.82	-29750.6	0.000000	0.000000	6.122800	-0.002539	NaN	0.000000	0.001535	0.001719	28.0816	0.030071	0.001960	15.3404	-75.9109	-167.008	0.007034	0.121168	-1.049350	-1.050656	-0.002539	15.3404	-1.049226	-1.042350E+14	2.435886E-17	NaN
503	1.000000	0.132458	7.36997e+06	-51939.1	1005.82	-29750.6	0.000000	0.000000	6.132782	-0.039337	NaN	0.000000	0.001577	0.001715	28.0818	0.089907	0.001833	49.0399	-137.201	14.9876	0.004193	0.131081	-1.039367	-1.040743	-0.039337	49.0399	-1.038765	-7.539848E+13	5.217263E-16	NaN
503	1.000000	0.142442	7.36997e+06	-51939.1	1005.82	-29750.6	0.000000	0.000000	6.142767	-0.025490	NaN	0.000000	0.001561	0.001705	28.0818	0.079780	0.002057	38.79	39.6205	-165.844	-0.024673	0.141185	-1.029382	-1.030639	-0.025490	38.79	-1.028889	-5.553173E+13	4.590105E-16	NaN
503	1.000000	0.152488	7.36997e+06	-51939.1	1005.82	-29750.6	0.000000	0.000000	6.152815	0.035856	NaN	0.000000	0.001550	0.001721	28.0821	0.072049	0.001898	37.9635	50.0435	17.1178	0.116100	0.151060	-1.019337	-1.020765	0.035856	37.9635	-1.020045	-4.222423E+13	-8.491922E-16	NaN
503	1.000000	0.162471	7.36997e+06	-51939.1	1005.82	-29750.6	0.000000	0.000000	6.162795	-0.025236	NaN	0.000000	0.001565	0.001722	28.0818	0.146010	0.002019	72.3188	131.335	-165.747	-0.106144	0.161109	-1.009354	-1.010715	-0.025236	72.3188	-1.009092	-3.007212E+13	8.391937E-16	NaN
503	1.000000	0.172429	7.36997e+06	-51939.1	1005.82	-29750.6	0.000000	0.000000	6.172750	-0.126118	NaN	0.000000	0.001568	0.001711	28.0819	0.094065	0.001968	47.7975	-117.272	12.8011	-0.035193	0.171094	-0.999395	-1.000731	-0.126118	47.7975	-0.997416	-2.094031E+13	6.022743E-15	NaN
503	1.000000	0.182481	7.36997e+06	-51939.1	1005.82	-29750.6	0.000000	0.000000	6.182807	-0.013484	NaN	0.000000	0.001552	0.001701	28.0817	0.041654	0.001875	22.216	-158.751	-167.203	-0.012147	0.181214	-0.989343	-0.990611	-0.013484	22.216	-0.988888	-1.607443E+13	8.388356E-16	NaN
503	1.000000	0.192489	7.36997e+06	-51939.1	1005.82	-29750.6	0.000000	0.000000	6.192816	0.020132	NaN	0.000000	0.001545	0.001677	28.0822	0.043211	0.002057	21.0059	165.035	17.3907	0.026647	0.191063	-0.979336	-0.980762	0.020132	21.0059	-0.980055	-1.222208E+13	-1.647218E-15	NaN
503	1.000000	0.202481	7.36997e+06	-51939.1	1005.82	-29750.6	0.000000	0.000000	6.202807	-0.000241	NaN	0.000000	0.001560	0.001692	28.0816	0.016812	0.001923	8.744617	72.0447	-168.009	-0.068823	0.201178	-0.969344	-0.970647	-0.000241	8.744617	-0.969323	-8.760771E+12	2.754171E-17	NaN
503	1.000000	0.212509	7.36997e+06	-51939.1	1005.82	-29750.6	0.000000	0.000000	6.212835	0.010952	NaN	0.000000	0.001554	0.001684	28.082	0.032178	0.001922	16.7437	-174.093	14.3	-0.045288	0.211166	-0.959316	-0.960659	0.010952	16.7437	-0.959806	-6.520172E+12	-1.679688E-15	NaN
503	1.000000	0.222477	7.36997e+06	-51939.1	1005.82	-29750.6	0.000000	0.000000	6.222806	0.058688	NaN	0.000000	0.001550	0.001704	28.0817	0.071482	0.001921	37.2156	-17.2669	-166.92	0.040858	0.221162	-0.949347	-0.950663	0.058688	37.2156	-0.950530	-4.888500E+12	-1.200536E-14	NaN
503	1.000000	0.232470	7.36997e+06	-51939.1	1005.82	-29750.6	0.000000	0.000000	6.232794	-0.034308	NaN	0.000000	0.001566	0.001718	28.0818	0.021774	0.002015	10.8084	-153.099	15.584	-0.048985	0.231159	-0.939355	-0.940665	-0.034308	10.8084	-0.936974	-3.208572E+12	1.069263E-14	NaN
503	1.000000	0.242510	7.36997e+06	-51939.1	1005.82	-29750.6	0.000000	0.000000	6.242831	-0.113861	NaN	0.000000	0.001521	0.001737	28.0816	0.120793	0.001896	63.7003	10.8266	-164.143	-0.045785	0.241211	-0.929315	-0.930613	-0.113861	63.7003	-0.927974	-2.425818E+12	4.693728E-14	NaN
503	1.000000	0.252533	7.36997e+06	-51939.1	1005.82	-29750.6	0.000000	0.000000	6.252858	-0.043079	NaN	0.000000	0.001495	0.001718	28.0804	0.039861	0.001992	20.006	-156.799	17.138	-0.046901	0.251192	-0.919291	-0.920633	-0.043079	20.006	-0.917676	-1.761283E+12	2.445877E-14	NaN
503	1.000000	0.262502	7.36997e+06	-51939.1	1005.82	-29750.6	0.000000	0.000000	6.262829	0.031788	NaN	0.000000	0.001542	0.001716	28.0805	0.100497	0.002166	46.393	-24.069	-165.134	0.065967	0.261197	-0.909323	-0.910628	0.031788	46.393	-0.909837	-1.380251E+12	-2.303085E-14	NaN
503	1.000000	0.272495	7.36997e+06	-51939.1	1005.82	-29750.6	0.000000	0.000000	6.272820	-0.010257	NaN	0.000000	0.001565	0.001708	28.0806	0.043681	0.002030	21.5178	-7.952181	13.633	-0.055159	0.271111	-0.899330	-0.900714	-0.010257	21.5178	-0.898972	-9.844189E+11	1.041892E-14	NaN
503	1.000000	0.282517	7.36997e+06	-51939.1	1005.82	-29750.6	0.000000	0.000000	6.282842	-0.032833	NaN	0.000000	0.001536	0.001737	28.0804	0.062974	0.002044	30.8152	29.0115	-166.153	-0.047473	0.281224	-0.889308	-0.890601	-0.032833	30.8152	-0.888508	-7.108067E+11	4.619118E-14	NaN
503	1.000000	0.292495	7.36997e+06	-51939.1	1005.82	-29750.6	0.000000	0.000000	6.292819	-0.051263	NaN	0.000000	0.001542	0.001698	28.0805	0.036254	0.002108	17.1985	-36.6382	16.6292	-0.049068	0.291137	-0.879329	-0.880687	-0.051263	17.1985	-0.877094	-4.981995E+11	1.028967E-13	NaN
503	1.000000	0.302532	7.36997e+06	-51939.1	1005.82	-29750.6	0.000000	0.000000	6.302855	-0.081247	NaN	0.000000	0.001523	0.001703	28.0805	0.069514	0.001955	35.5505	-170.245	-164.626	-0.052624	0.301249	-0.869292	-0.870575	-0.081247	35.5505	-0.867578	-3.704067E+11	2.193454E-13	NaN
503	1.000000	0.312548	7.36997e+06	-51939.1	1005.82	-29750.6	0.000000	0.000000	6.312869	-0.123042	NaN	0.000000	0.001546	0.001743	28.0803	0.051477	0.002101	24.5006	24.3688	16.1379	-0.137284	0.311185	-0.859276	-0.860639	-0.123042	24.5006	-0.855510	-2.542948E+11	4.838557E-13	NaN
503	1.000000	0.322513	7.36997e+06	-51939.1	1005.82	-29750.6	0.000000	0.000000	6.322837	-0.038672	NaN	0.000000	0.001538	0.001707	28.0803	0.062492	0.002066	30.2508	-123.841	-165.532	-0.009890	0.321216	-0.849312	-0.850609	-0.038672	30.2508	-0.848353	-2.034397E+11	1.900883E-13	NaN
503	1.000000	0.332533	7.36997e+06	-51939.1	1005.82	-29750.6	0.000000	0.000000	6.332858	-0.006389	NaN	0.000000	0.001563	0.001706	28.0804	0.029379	0.002072	14.1768	-121.697	16.9152	0.026115	0.331183	-0.839292	-0.840641	-0.006389	14.1768	-0.838954	-1.517472E+11	4.210543E-14	NaN
503	1.000000	0.342512	7.36997e+06	-51939.1	1005.82	-29750.6	0.000000	0.000000	6.342835	-0.062061	NaN	0.000000	0.001551	0.001758	28.0806	0.027352	0.002018	13.5562	-97.419	-164.125	-0.089130	0.341277	-0.829313	-0.830548	-0.062061	13.5562	-0.825879	-1.009087E+11	6.150229E-13	NaN
503	1.000000	0.352550	7.36997e+06	-51939.1	1005.82	-29750.6	0.000000	0.000000	6.352873	-0.078128	NaN	0.000000	0.001537	0.001725	28.0805	0.070817	0.001855	38.1713	151.221	15.2098	-0.013676	0.351195	-0.819274	-0.820630	-0.078128	38.1713	-0.817739	-7.826263E+10	9.982744E-13	NaN
503	1.000000	0.362565	7.36997e+06	-51939.1	1005.82	-29750.6	0.000000	0.000000	6.362890	-0.025227	NaN	0.000000	0.001534	0.001703	28.0805	0.045493	0.002044	22.2615	88.6041	-164.214	-0.106530	0.361235	-0.809260	-0.810590	-0.025227	22.2615	-0.808410	-5.847867E+10	4.313877E-13	NaN
503	1.000000	0.372551	7.36997e+06	-51939.1	1005.82	-29750.6	0.000000	0.000000	6.372874	-0.055662	NaN	0.000000	0.001570	0.001709	28.0816	0.038503	0.002007	19.1893	-94.6834	11.811	-0.110389	0.371174	-0.799274	-0.800650	-0.055662	19.1893	-0.797098	-4.106490E+10	1.355473E-12	NaN
503	1.000000	0.382591	7.36997e+06	-51939.1	1005.82	-29750.6	0.000000	0.000000	6.382916	-0.030050	NaN	0.000000	0.001547	0.001716	28.0806	0.096495	0.001852	52.0937	149.481	-165.598	-0.065603	0.381311	-0.789233	-0.790514	-0.030050	52.0937	-0.788801	-3.168063E+10	9.485432E-13	NaN
503	1.000000	0.392578	7.36997e+06	-51939.1	1005.82	-29750.6	0.000000	0.000000	6.392903	-0.015777	NaN	0.000000	0.001561	0.001737	28.0818	0.089196	0.002050	43.5117	-104.905	14.1372	-0.001962	0.391187	-0.779247	-0.780638	-0.015777	43.5117	-0.778975	-2.329694E+10	6.772045E-13	NaN
503	1.000000	0.402574	7.36997e+06	-51939.1	1005.82	-29750.6	0.000000	0.000000	6.402896	-0.085812	NaN	0.000000	0.001581	0.001703	28.0817	0.079469	0.002004	39.6505	101.553	-165.894	-0.046759	0.401307	-0.769251	-0.770518	-0.085812	39.6505	-0.767627	-1.633219E+10	5.254149E-12	NaN
503	1.000000	0.412580	7.36997e+06	-51939.1	1005.82	-29750.6	0.000000	0.000000	6.412904	-0.037174	NaN	0.000000	0.001518	0.001681	28.0818	0.058403	0.001994	29.2916	136.922	15.2078	0.037257	0.411194	-0.759245	-0.760630	-0.037174	29.2916	-0.758293	-1.219217E+10	3.049035E-12	NaN
503	1.000000	0.422581	7.36997e+06	-51939.1	1005.82	-29750.6	0.000000	0.000000	6.422906	-0.041266	NaN	0.000000	0.001551	0.001685	28.082	0.055103	0.002074	26.5634	-124.881	-166.342	-0.039846	0.421280	-0.749243	-0.750544	-0.041266	26.5634	-0.748078	-8.852318E+9	4.661656E-12	NaN
503	1.000000	0.432598	7.36997e+06	-51939.1	1005.82	-29750.6	0.000000	0.000000	6.432922	-0.043827	NaN	0.000000	0.001529	0.001681	28.0817	0.135681	0.001965	69.0639	85.7455	13.8528	0.009643	0.431196	-0.739226	-0.740628	-0.043827	69.0639	-0.738750	-6.607444E+9	6.633012E-12	NaN
503	1.000000	0.442597	7.36997e+06	-51939.1	1005.82	-29750.6	0.000000	0.000000	6.442921	-0.038874	NaN	0.000000	0.001543	0.001693	28.082	0.033590	0.001924	17.4547	30.2396	-166.132	-0.103113	0.441343	-0.729227	-0.730482	-0.038874	17.4547	-0.727557	-4.650617E+9	8.358820E-12	NaN
503	1.000000	0.452600	7.36997e+06	-51939.1	1005.82	-29750.6	0.000000	0.000000	6.452925	-0.019913	NaN	0.000000	0.001523	0.001706	28.0817	0.047227	0.002044	23.1002	70.2645	13.0455	0.002305	0.451239	-0.719225	-0.720586	-0.019913	23.1002	-0.718578	-3.508212E+9	5.676205E-12	NaN
503	1.000000	0.462589	7.36997e+06	-51939.1	1005.82	-29750.6	0.000000	0.000000	6.462914	-0.023561	NaN	0.000000	0.001541	0.001709	28.0818	0.094875	0.002003	47.3559	-99.6406	-166.325	-0.090934	0.461307	-0.709235	-0.710518	-0.023561	47.3559	-0.708862	-2.585337E+9	9.113493E-12	NaN
503	1.000000	0.472593	7.36997e+06	-51939.1	1005.82	-29750.6	0.000000	0.000000	6.472920	0.026792	NaN	0.000000	0.001512	0.001705	28.0815	0.011700	0.002068	5.658239	99.3932	18.8556	0.046229	0.471189	-0.699231	-0.700635	0.026792	5.658239	-0.702782	-2.135632E+9	-1.254520E-11	NaN
503	1.000000	0.482604	7.36997e+06	-51939.1	1005.82	-29750.6	0.000000	0.000000	6.482927	-0.058161	NaN	0.000000	0.001565	0.001680	28.0818	0.031166	0.001980	15.7442	-138.582	-165.426	-0.072315	0.481315	-0.689221	-0.690509	-0.058161	15.7442	-0.686450	-1.277621E+9	4.552289E-11	NaN
503	1.000000	0.492616	7.36997e+06	-51939.1	1005.82	-29750.6	0.000000	0.000000	6.492940	-0.046792	NaN	0.000000	0.001513	0.001711	28.0815	0.114266	0.002061	55.4467	116.002	14.4509	-0.088005	0.491279	-0.679209	-0.680546	-0.046792	55.4467	-0.678576	-9.970784E+8	4.692884E-11	NaN
503	1.000000	0.502597	7.36997e+06	-51939.1	1005.82	-29750.6	0.000000	0.000000	6.502921	-0.047420	NaN	0.000000	0.001553	0.001674	28.0815	0.047648	0.001988	23.9709	-123.079	-163.682	-0.034719	0.501331	-0.669228	-0.670494	-0.047420	23.9709	-0.667744	-7.087793E+8	6.690324E-11	NaN
503	1.000000	0.512593	7.36997e+06	-51939.1	1005.82	-29750.6	0.000000	0.000000	6.512917	-0.040231	NaN	0.000000	0.001520	0.001724	28.0815	0.085278	0.001996	42.7193	173.453	14.4812	-0.050726	0.511326	-0.659231	-0.660499	-0.040231	42.7193	-0.658525	-5.299865E+8	7.590883E-11	NaN
503	1.000000	0.522627	7.36997e+06	-51939.1	1005.82	-29750.6	0.000000	0.000000	6.522953	0.001062	NaN	0.000000	0.001517	0.001700	28.0812	0.080211	0.001957	40.9827	146.605	-160.147	0.012488	0.521375	-0.649197	-0.650450	0.001062	40.9827	-0.649217	-3.950940E+8	-2.688483E-12	NaN
503	1.000000	0.532607	7.36997e+06	-51939.1	1005.82	-29750.6	0.000000	0.000000	6.532929	-0.091685	NaN	0.000000	0.001537	0.001734	28.0801	0.065984	0.001979	33.3494	151	17.2558	-0.014151	0.531232	-0.639217	-0.640592	-0.091685	33.3494	-0.637155	-2.699329E+8	3.396566E-10	NaN
503	1.000000	0.542643	7.36997e+06	-51939.1	1005.82	-29750.6	0.000000	0.000000	6.542964	-0.102964	NaN	0.000000	0.001568	0.001693	28.0802	0.066036	0.001988	33.2165	87.8647	-167.875	-0.084694	0.541310	-0.629182	-0.630515	-0.102964	33.2165	-0.626857	-1.949193E+8	5.282402E-10	NaN
503	1.000000	0.552644	7.36997e+06	-51939.1	1005.82	-29750.6	0.000000	0.000000	6.552967	-0.072407	NaN	0.000000	0.001533	0.001746	28.0804	0.027766	0.002008	13.8252	-176.12	16.2451	0.016135	0.551357	-0.619181	-0.620468	-0.072407	13.8252	-0.615253	-1.350101E+8	5.363111E-10	NaN
503	1.000000	0.562669	7.36997e+06	-51939.1	1005.82	-29750.6	0.000000	0.000000	6.562994	-0.024542	NaN	0.000000	0.001552	0.001713	28.0803	0.087706	0.001933	45.3824	59.8502	-166.079	-0.039912	0.561315	-0.609155	-0.610510	-0.024542	45.3824	-0.608750	-1.098777E+8	2.233553E-10	NaN
503	1.000000	0.572648	7.36997e+06	-51939.1	1005.82	-29750.6	0.000000	0.000000	6.572977	0.059630	NaN	0.000000	0.001586	0.001696	28.08	0.033404	0.002023	16.5142	59.6081	15.2706	0.038550	0.571351	-0.599176	-0.600474	0.059630	16.5142	-0.601884	-8.839174E+7	-6.746152E-10	NaN
503	1.000000	0.582640	7.36997e+06	-51939.1	1005.82	-29750.6	0.000000	0.000000	6.582965	-0.017560	NaN	0.000000	0.001594	0.001693	28.0802	0.081135	0.002010	40.358	-116.624	-167.912	-0.047107	0.581356	-0.589184	-0.590468	-0.017560	40.358	-0.588858	-5.846867E+7	3.003389E-10	NaN
503	1.000000	0.592637	7.36997e+06	-51939.1	1005.82	-29750.6	0.000000	0.000000	6.592962	-0.033832	NaN	0.000000	0.001600	0.001699	28.0804	0.065731	0.002028	32.4106	-173.761	16.232	0.012157	0.591290	-0.579187	-0.580534	-0.033832	32.4106	-0.578404	-4.194710E+7	8.065293E-10	NaN
503	1.000000	0.602652	7.36997e+06	-51939.1	1005.82	-29750.6	0.000000	0.000000	6.602979	0.025288	NaN	0.000000	0.001646	0.001682	28.0801	0.101951	0.001972	51.6888	48.2953	-166.436	-0.008361	0.601326	-0.569172	-0.570499	0.025288	51.6888	-0.569539	-3.164223E+7	-7.991894E-10	NaN
503	1.000000	0.612672	7.36997e+06	-51939.1	1005.82	-29750.6	0.000000	0.000000	6.612995	-0.063748	NaN	0.000000	0.001658	0.001712	28.0802	0.069996	0.002054	34.0763	8.341640	15.6566	-0.014920	0.611321	-0.559153	-0.560504	-0.063748	34.0763	-0.557750	-2.173918E+7	2.932393E-9	NaN
503	1.000000	0.622677	7.36997e+06	-51939.1	1005.82	-29750.6	0.000000	0.000000	6.623003	0.002015	NaN	0.000000	0.001685	0.001678	28.0804	0.033390	0.001845	18.0964	106.917	-161.359	0.012086	0.621352	-0.549148	-0.550473	0.002015	18.0964	-0.549231	-1.656943E+7	-1.216235E-10	NaN
503	1.000000	0.632645	7.36997e+06	-51939.1	1005.82	-29750.6	0.000000	0.000000	6.632969	-0.050019	NaN	0.000000	0.001620	0.001717	28.0808	0.046220	0.001916	24.1233	1.077732	15.7776	0.005409	0.631320	-0.539180	-0.540504	-0.050019	24.1233	-0.537624	-1.143948E+7	4.372525E-9	NaN
503	1.000000	0.642655	7.36997e+06	-51939.1	1005.82	-29750.6	0.000000	0.000000	6.642980	-0.030185	NaN	0.000000	0.001651	0.001689	28.0804	0.145051	0.002011	72.1359	109.318	-166.755	0.017165	0.641353	-0.529170	-0.530472	-0.030185	72.1359	-0.528856	-8.64334e+06	3.492301E-9	NaN
503	1.000000	0.652671	7.36997e+06	-51939.1	1005.82	-29750.6	0.000000	0.000000	6.652995	-0.046429	NaN	0.000000	0.001632	0.001718	28.0805	0.042592	0.002060	20.6781	-51.519	16.5077	0.023728	0.651368	-0.519154	-0.520456	-0.046429	20.6781	-0.517470	-6.00341e+06	7.733711E-9	NaN
503	1.000000	0.662676	7.36997e+06	-51939.1	1005.82	-29750.6	0.000000	0.000000	6.663003	0.023127	NaN	0.000000	0.001624	0.001717	28.0818	0.063007	0.001901	33.1429	-122.584	-165.68	0.047261	0.661367	-0.509149	-0.510458	0.023127	33.1429	-0.509672	-4.67573e+06	-4.946245E-9	NaN
503	1.000000	0.672710	7.36997e+06	-51939.1	1005.82	-29750.6	0.000000	0.000000	6.673033	-0.055554	NaN	0.000000	0.001651	0.001687	28.0817	0.074576	0.001937	38.5	-176.692	17.182	-0.163176	0.671325	-0.499115	-0.500500	-0.055554	38.5	-0.498033	-3.21788e+06	1.726410E-8	NaN
503	1.000000	0.682693	7.36997e+06	-51939.1	1005.82	-29750.6	0.000000	0.000000	6.683016	-0.058637	NaN	0.000000	0.001647	0.001702	28.0817	0.048298	0.002184	22.1144	122.088	-164.691	-0.001194	0.681375	-0.489132	-0.490449	-0.058637	22.1144	-0.487143	-2.26704e+06	2.586504E-8	NaN
503	1.000000	0.692688	7.36997e+06	-51939.1	1005.82	-29750.6	0.000000	0.000000	6.693012	-0.041054	NaN	0.000000	0.001644	0.001723	28.0817	0.098864	0.002002	49.3777	-143.398	12.7677	-0.003720	0.691364	-0.479137	-0.480461	-0.041054	49.3777	-0.478513	-1.71675e+06	2.391391E-8	NaN
503	1.000000	0.702690	7.36997e+06	-51939.1	1005.82	-29750.6	0.000000	0.000000	6.703014	-0.041974	NaN	0.000000	0.001681	0.001732	28.0819	0.049900	0.001959	25.4715	89.0034	-163.504	-0.139474	0.701371	-0.469135	-0.470453	-0.041974	25.4715	-0.467899	-1.2188e+06	3.443868E-8	NaN
503	1.000000	0.712693	7.36997e+06	-51939.1	1005.82	-29750.6	0.000000	0.000000	6.713016	-0.091111	NaN	0.000000	0.001668	0.001690	28.0817	0.073480	0.001985	37.0227	-82.7628	15.7855	-0.156651	0.711384	-0.459131	-0.460440	-0.091111	37.0227	-0.457285	-864689	1.053687E-7	NaN
503	1.000000	0.722703	7.36997e+06	-51939.1	1005.82	-29750.6	0.000000	0.000000	6.723025	-0.098848	NaN	0.000000	0.001659	0.001701	28.0816	0.040987	0.001985	20.6455	-170.503	-166.379	-0.088903	0.721419	-0.449122	-0.450406	-0.098848	20.6455	-0.445531	-590713	1.673362E-7	NaN
503	1.000000	0.732723	7.36997e+06	-51939.1	1005.82	-29750.6	0.000000	0.000000	6.733048	-0.025688	NaN	0.000000	0.001652	0.001707	28.0816	0.094420	0.001995	47.3279	-30.3548	14.3887	-0.138032	0.731350	-0.439101	-0.440475	-0.025688	47.3279	-0.438694	-473074	5.430013E-8	NaN
503	1.000000	0.742732	7.36997e+06	-51939.1	1005.82	-29750.6	0.000000	0.000000	6.743055	-0.065281	NaN	0.000000	0.001662	0.001682	28.0815	0.080777	0.001913	42.2293	140.115	-163.711	-0.024339	0.741334	-0.429093	-0.430491	-0.065281	42.2293	-0.427933	-333286	1.958708E-7	NaN
503	1.000000	0.752724	7.36997e+06	-51939.1	1005.82	-29750.6	0.000000	0.000000	6.753047	-0.069554	NaN	0.000000	0.001636	0.001686	28.0814	0.077652	0.002042	38.0198	-72.144	13.8762	-0.037418	0.751407	-0.419101	-0.420418	-0.069554	38.0198	-0.417729	-238889	2.911559E-7	NaN
503	1.000000	0.762736	7.36997e+06	-51939.1	1005.82	-29750.6	0.000000	0.000000	6.763061	-0.040225	NaN	0.000000	0.001636	0.001679	28.0813	0.050877	0.002008	25.3366	141.682	-163.967	-0.005901	0.761376	-0.409088	-0.410449	-0.040225	25.3366	-0.407898	-173179	2.322729E-7	NaN
503	1.000000	0.772705	7.36998e+06	-51939.1	1005.82	-29750.6	0.000000	0.000000	6.773028	-0.072753	NaN	0.000000	0.001652	0.001694	28.0816	0.169640	0.002055	82.5314	-166.7	17.0733	-0.051945	0.771385	-0.399120	-0.400439	-0.072753	82.5314	-0.398458	-127059	5.725913E-7	NaN
503	1.000000	0.782733	7.36998e+06	-51939.1	1005.82	-29750.6	0.000000	0.000000	6.783058	-0.039537	NaN	0.000000	0.001621	0.001692	28.0816	0.082917	0.001871	44.3148	14.122	-163.528	-0.117670	0.781368	-0.389091	-0.390457	-0.039537	44.3148	-0.388422	-91324.7	4.329265E-7	NaN
503	1.000000	0.792741	7.36998e+06	-51939.1	1005.82	-29750.6	0.000000	0.000000	6.793065	-0.044617	NaN	0.000000	0.001597	0.001714	28.0815	0.075329	0.001927	39.0921	95.3134	15.3652	-0.020067	0.791427	-0.379084	-0.380397	-0.044617	39.0921	-0.378228	-65230.7	6.839850E-7	NaN
503	1.000000	0.802747	7.36998e+06	-51939.1	1005.82	-29750.6	0.000000	0.000000	6.803071	-0.058782	NaN	0.000000	0.001671	0.001675	28.0803	0.123774	0.002009	61.6131	-6.221618	-165.585	-0.052336	0.801428	-0.369077	-0.370396	-0.058782	61.6131	-0.368362	-47046.8	1.249433E-6	NaN
503	1.000000	0.812716	7.36998e+06	-51939.1	1005.82	-29750.6	0.000000	0.000000	6.813039	-0.064478	NaN	0.000000	0.001629	0.001687	28.0804	0.143400	0.002032	70.5819	-67.9561	16.6704	-0.099147	0.811327	-0.359109	-0.360498	-0.064478	70.5819	-0.358424	-33810.7	1.907026E-6	NaN
503	1.000000	0.822759	7.36998e+06	-51939.1	1005.82	-29750.6	0.000000	0.000000	6.823082	-0.056083	NaN	0.000000	0.001642	0.001725	28.0803	0.071882	0.001876	38.3124	179.817	-163.552	-0.112104	0.821469	-0.349066	-0.350356	-0.056083	38.3124	-0.347968	-23850.4	2.351448E-6	NaN
503	1.000000	0.832768	7.36998e+06	-51939.1	1005.82	-29750.6	0.000000	0.000000	6.833090	-0.080387	NaN	0.000000	0.001649	0.001723	28.0803	0.007334	0.002015	3.640062	-153.196	16.9527	-0.086155	0.831394	-0.339057	-0.340430	-0.080387	3.640062	-0.322494	-10123.2	7.940841E-6	NaN
503	1.000000	0.842775	7.36998e+06	-51939.1	1005.82	-29750.6	0.000000	0.000000	6.843098	-0.048613	NaN	0.000000	0.001646	0.001691	28.0805	0.036382	0.001968	18.4896	112.486	-164.625	-0.014970	0.841490	-0.329050	-0.330335	-0.048613	18.4896	-0.327078	-11820.4	4.112634E-6	NaN
503	1.000000	0.852758	7.36998e+06	-51939.1	1005.82	-29750.6	0.000000	0.000000	6.853082	-0.039367	NaN	0.000000	0.001648	0.001699	28.0808	0.074918	0.001963	38.1614	-81.6587	16.2416	0.010617	0.851372	-0.319067	-0.320452	-0.039367	38.1614	-0.318293	-8780.13	4.483694E-6	NaN
503	1.000000	0.862795	7.36998e+06	-51939.1	1005.82	-29750.6	0.000000	0.000000	6.863120	-0.030429	NaN	0.000000	0.001626	0.001693	28.0803	0.057140	0.002077	27.5127	133.452	-165.691	-0.076993	0.861450	-0.309029	-0.310374	-0.030429	27.5127	-0.308200	-6228.72	4.885240E-6	NaN
503	1.000000	0.872787	7.36998e+06	-51939.1	1005.82	-29750.6	0.000000	0.000000	6.873111	-0.036513	NaN	0.000000	0.001649	0.001721	28.0805	0.127648	0.002055	62.101	-103.82	15.5795	-0.046464	0.871373	-0.299038	-0.300451	-0.036513	62.101	-0.298597	-4484.74	8.141636E-6	NaN
503	1.000000	0.882758	7.36998e+06	-51939.1	1005.82	-29750.6	0.000000	0.000000	6.883082	-0.042414	NaN	0.000000	0.001668	0.001643	28.0805	0.041859	0.002026	20.6646	-81.1406	-163.818	-0.109909	0.881488	-0.289066	-0.290337	-0.042414	20.6646	-0.287527	-3063.53	1.384481E-5	NaN
503	1.000000	0.892759	7.36998e+06	-51939.1	1005.82	-29750.6	0.000000	0.000000	6.893085	0.002603	NaN	0.000000	0.001645	0.001679	28.0803	0.051151	0.001956	26.1565	1.473032	15.3666	-0.005041	0.891376	-0.279065	-0.280449	0.002603	26.1565	-0.279140	-2290.82	-1.136265E-6	NaN
503	1.000000	0.902773	7.36998e+06	-51939.1	1005.82	-29750.6	0.000000	0.000000	6.903098	-0.017404	NaN	0.000000	0.001633	0.001728	28.0804	0.081843	0.002120	38.6104	-55.104	-163.332	-0.024433	0.901501	-0.269051	-0.270324	-0.017404	38.6104	-0.268713	-1592.11	1.093170E-5	NaN
503	1.000000	0.912789	7.36998e+06	-51939.1	1005.82	-29750.6	0.000000	0.000000	6.913112	-0.053719	NaN	0.000000	0.001628	0.001675	28.0802	0.092115	0.001993	46.2298	13.0032	15.2727	-0.028420	0.911423	-0.259036	-0.260402	-0.053719	46.2298	-0.258164	-1098.4	4.890667E-5	NaN
503	1.000000	0.922771	7.36998e+06	-51939.1	1005.82	-29750.6	0.000000	0.000000	6.923094	-0.072404	NaN	0.000000	0.001621	0.001654	28.0806	0.049987	0.002034	24.5794	-175.239	-165.814	-0.012822	0.921516	-0.249053	-0.250309	-0.072404	24.5794	-0.246844	-734.659	9.855448E-5	NaN
503	1.000000	0.932782	7.36998e+06	-51939.1	1005.82	-29750.6	0.000000	0.000000	6.933102	-0.164814	NaN	0.000000	0.001551	0.001686	28.0808	0.037067	0.001934	19.1675	162.151	16.2866	-0.059460	0.931464	-0.239042	-0.240361	-0.164814	19.1675	-0.232593	-439.952	0.000375	NaN
503	1.000000	0.942779	7.36998e+06	-51939.1	1005.82	-29750.6	0.000000	0.000000	6.943102	-0.063311	NaN	0.000000	0.001555	0.001647	28.0817	0.073270	0.001983	36.9535	89.5657	-167.417	-0.088546	0.941483	-0.229046	-0.230341	-0.063311	36.9535	-0.227761	-369.071	0.000172	NaN
503	1.000000	0.952815	7.36998e+06	-51939.1	1005.82	-29750.6	0.000000	0.000000	6.953140	-0.005853	NaN	0.000000	0.001564	0.001692	28.0814	0.049021	0.001955	25.0762	-126.82	14.8313	0.049602	0.951446	-0.219010	-0.220379	-0.005853	25.0762	-0.218835	-266.098	2.199408E-5	NaN
503	1.000000	0.962795	7.36998e+06	-51939.1	1005.82	-29750.6	0.000000	0.000000	6.963122	0.007062	NaN	0.000000	0.001567	0.001696	28.0818	0.136908	0.001995	68.6299	-143.509	-167.447	-0.061277	0.961511	-0.209029	-0.210314	0.007062	68.6299	-0.209106	-185.497	-3.806796E-5	NaN
503	1.000000	0.972817	7.36998e+06	-51939.1	1005.82	-29750.6	0.000000	0.000000	6.973142	-0.026907	NaN	0.000000	0.001609	0.001636	28.0815	0.096594	0.002017	47.8817	135.304	15.2356	-0.011280	0.971473	-0.199007	-0.200351	-0.026907	47.8817	-0.198586	-124.864	0.000215	NaN
503	1.000000	0.982804	7.36998e+06	-51939.1	1005.82	-29750.6	0.000000	0.000000	6.983125	-0.121513	NaN	0.000000	0.001589	0.001658	28.0819	0.088554	0.002137	41.4474	166.504	-165.64	-0.081980	0.981541	-0.189021	-0.190284	-0.121513	41.4474	-0.186822	-79.5767	0.001527	NaN
503	1.000000	0.992820	7.36998e+06	-51939.1	1005.82	-29750.6	0.000000	0.000000	6.993145	-0.037276	NaN	0.000000	0.001535	0.001666	28.0819	0.058220	0.001991	29.2418	-102.78	19.0453	-0.057590	0.991445	-0.179004	-0.180379	-0.037276	29.2418	-0.178048	-56.5193	0.000660	NaN
503	1.000000	1.002803	7.36998e+06	-51939.1	1005.82	-29750.6	0.000000	0.000000	7.003127	-0.048443	NaN	0.000000	0.001581	0.001642	28.0815	0.052683	0.001880	28.0197	111.32	-166.399	-0.059703	1.001526	-0.169021	-0.170299	-0.048443	28.0197	-0.167725	-37.4976	0.001292	NaN
503	1.000000	1.012834	7.36998e+06	-51939.1	1005.82	-29750.6	0.000000	0.000000	7.013158	-0.042882	NaN	0.000000	0.001585	0.001649	28.0815	0.054223	0.002005	27.0426	-68.404	16.3178	-0.059368	1.011453	-0.158990	-0.160372	-0.042882	27.0426	-0.157801	-25.0499	0.001712	NaN
503	1.000000	1.022830	7.36998e+06	-51939.1	1005.82	-29750.6	0.000000	0.000000	7.023155	-0.017658	NaN	0.000000	0.001551	0.001670	28.0814	0.048408	0.002076	23.3211	-90.9898	-162.344	-0.012626	1.021548	-0.148995	-0.150277	-0.017658	23.3211	-0.148427	-16.9531	0.001042	NaN
503	1.000000	1.032819	7.36998e+06	-51939.1	1005.82	-29750.6	0.000000	0.000000	7.033142	-0.066182	NaN	0.000000	0.001572	0.001676	28.0814	0.085219	0.002020	42.1809	-139.178	16.6421	-0.074514	1.031453	-0.139005	-0.140372	-0.066182	42.1809	-0.137829	-10.7657	0.006148	NaN
503	1.000000	1.042812	7.36998e+06	-51939.1	1005.82	-29750.6	0.000000	0.000000	7.043138	-0.011704	NaN	0.000000	0.001548	0.001680	28.0812	0.147129	0.002024	72.6939	101.534	-167.11	-0.034936	1.041490	-0.129012	-0.130335	-0.011704	72.6939	-0.128892	-7.251651	0.001614	NaN
503	1.000000	1.052866	7.36998e+06	-51939.1	1005.82	-29750.6	0.000000	0.000000	7.053191	-0.021351	NaN	0.000000	0.001525	0.001729	28.0813	0.016605	0.001927	8.617578	134.059	17.3535	-0.062899	1.051432	-0.118959	-0.120392	-0.021351	8.617578	-0.117101	-4.219054	0.005061	NaN
503	1.000000	1.062835	7.36998e+06	-51939.1	1005.82	-29750.6	0.000000	0.000000	7.063160	-0.032745	NaN	0.000000	0.001539	0.001714	28.0814	0.034580	0.001989	17.3846	-55.9739	-164.811	-0.031875	1.061505	-0.108989	-0.110320	-0.032745	17.3846	-0.107577	-2.669837	0.012265	NaN
503	1.000000	1.072834	7.36998e+06	-51939.1	1005.82	-29750.6	0.000000	0.000000	7.073156	-0.096506	NaN	0.000000	0.001539	0.001705	28.0802	0.064674	0.001977	32.7145	-29.3078	11.168	-0.088826	1.071517	-0.098990	-0.100307	-0.096506	32.7145	-0.096778	-1.547841	0.062349	NaN
503	1.000000	1.082889	7.36998e+06	-51939.1	1005.82	-29750.6	0.000000	0.000000	7.083211	-0.100802	NaN	0.000000	0.001522	0.001714	28.08	0.119772	0.002078	57.63	2.950398	-163.452	-0.161043	1.081522	-0.088935	-0.090302	-0.100802	57.63	-0.087623	-0.949841	0.106125	NaN
503	1.000000	1.092846	7.36998e+06	-51939.1	1005.82	-29750.6	0.000000	0.000000	7.093168	-0.089805	NaN	0.000000	0.001510	0.001718	28.0799	0.010176	0.002159	4.712983	161.874	13.7467	-0.112333	1.091431	-0.078979	-0.080393	-0.089805	4.712983	-0.064688	-0.244287	0.367620	NaN
503	1.000000	1.102857	7.36998e+06	-51939.1	1005.82	-29750.6	0.000000	0.000000	7.103180	-0.066893	NaN	0.000000	0.001561	0.001701	28.08	0.027252	0.002030	13.4247	-63.7036	-165.098	-0.142105	1.101575	-0.068968	-0.070250	-0.066893	13.4247	-0.065231	-0.252917	0.264485	NaN
503	1.000000	1.112881	7.36998e+06	-51939.1	1005.82	-29750.6	0.000000	0.000000	7.113205	-0.042916	NaN	0.000000	0.001532	0.001693	28.0801	0.050413	0.002037	24.7529	75.8227	18.562	0.000537	1.111528	-0.058944	-0.060296	-0.042916	24.7529	-0.057644	-0.153955	0.278757	NaN
503	1.000000	1.122857	7.36998e+06	-51939.1	1005.82	-29750.6	0.000000	0.000000	7.123180	-0.055476	NaN	0.000000	0.001511	0.001703	28.08	0.115864	0.001919	60.3658	-23.5941	-168.956	0.046550	1.121509	-0.048968	-0.050315	-0.055476	60.3658	-0.048279	-0.080914	0.685614	NaN
503	1.000000	1.132896	7.36998e+06	-51939.1	1005.82	-29750.6	0.000000	0.000000	7.133219	-0.059528	NaN	0.000000	0.001563	0.001713	28.08	0.028174	0.001911	14.7447	50.4129	12.7864	-0.032833	1.131492	-0.038929	-0.040333	-0.059528	14.7447	-0.035901	-0.034050	1.748257	NaN
503	1.000000	1.142899	7.36998e+06	-51939.1	1005.82	-29750.6	0.000000	0.000000	7.143222	-0.051401	NaN	0.000000	0.001542	0.001666	28.0801	0.038647	0.002041	18.9369	-146.424	-163.409	-0.027692	1.141520	-0.028926	-0.030304	-0.051401	18.9369	-0.026890	-0.018926	2.715826	NaN
503	1.000000	1.152848	7.36998e+06	-51939.1	1005.82	-29750.6	0.000000	0.000000	7.153176	0.039205	NaN	0.000000	0.001571	0.001678	28.0803	0.077161	0.001917	40.2598	-120.657	15.7715	0.016024	1.151555	-0.018976	-0.020270	0.039205	40.2598	-0.019707	-0.012347	-3.175276	NaN
503	1.000000	1.162905	7.36998e+06	-51939.1	1005.82	-29750.6	0.000000	0.000000	7.163231	0.003031	NaN	0.000000	0.001567	0.001689	28.0802	0.026032	0.002046	12.7261	-12.5172	-166.284	-0.020725	1.161580	-0.008920	-0.010245	0.003031	12.7261	-0.009099	-0.005870	-0.516410	NaN
503	1.000000	1.172831	7.36998e+06	-51939.1	1005.82	-29750.6	0.000000	0.000000	7.173304	3.576508	NaN	0.000000	0.001549	0.001671	28.0803	4.431021	0.002031	2181.95	14.2005	11.5763	2.108300	1.171571	0.001007	-0.000254	3.576508	2181.95	-0.000223	-0.000166	-21568.2	NaN
503	2.000000	1.179423	7.36998e+06	-51939.1	1005.82	-29750.6	0.000000	0.000000	7.180131	9.298899	NaN	0.000000	0.001533	0.001718	28.081	9.574207	0.001728	5539.8	7.177234	-170.642	8.677457	1.179137	0.007598	0.007312	9.298899	5539.8	0.006340	0.005389	1725.42	68944.3
503	2.000000	1.181889	7.36998e+06	-51939.1	1005.82	-29750.6	0.000000	0.000000	7.182796	14.1401	NaN	0.000000	0.001530	0.001689	28.0804	12.8592	0.001725	7455.03	7.298485	6.389578	13.0138	1.181488	0.010064	0.009664	14.1401	7455.03	0.008642	0.007711	1833.8	77566.1
503	2.000000	1.184373	7.36998e+06	-51939.1	1005.82	-29750.6	0.000000	0.000000	7.185432	17.8238	NaN	0.000000	0.001540	0.001687	28.0802	15.9913	0.001727	9259.36	7.511442	-176.301	16.8669	1.184075	0.012549	0.012250	17.8238	9259.36	0.011105	0.010436	1707.99	82812.6
503	2.000000	1.186870	7.36998e+06	-51939.1	1005.82	-29750.6	0.000000	0.000000	7.188178	23.8852	NaN	0.000000	0.001520	0.001705	28.0817	18.1692	0.001812	10027.1	8.625468	3.465152	23.4454	1.186505	0.015045	0.014680	23.8852	10027.1	0.013259	0.013033	1832.64	80246.1
503	2.000000	1.189328	7.36998e+06	-51939.1	1005.82	-29750.6	0.000000	0.000000	7.190820	28.3632	NaN	0.000000	0.001556	0.001712	28.0819	20.1865	0.001730	11670.5	3.446064	-173.29	26.8185	1.188978	0.017503	0.017153	28.3632	11670.5	0.015681	0.016204	1750.41	83763.9
503	2.000000	1.191877	7.36998e+06	-51939.1	1005.82	-29750.6	0.000000	0.000000	7.193627	34.6365	NaN	0.000000	0.001613	0.001695	28.0819	22.8873	0.001667	13727.2	7.380328	0.843606	34.3449	1.191472	0.020052	0.019647	34.6365	13727.2	0.018160	0.019733	1755.29	89281.7
503	2.000000	1.194350	7.36998e+06	-51939.1	1005.82	-29750.6	0.000000	0.000000	7.196355	40.8274	NaN	0.000000	0.001612	0.001703	28.0817	26.3359	0.001816	14499.6	4.590133	-177.313	40.5315	1.194020	0.022525	0.022196	40.8274	14499.6	0.020413	0.023196	1760.09	86980.2
503	2.000000	1.196853	7.36998e+06	-51939.1	1005.82	-29750.6	0.000000	0.000000	7.199168	48.3726	NaN	0.000000	0.001618	0.001692	28.0821	28.1959	0.001732	16281.2	4.326999	2.464628	47.0256	1.196448	0.025029	0.024623	48.3726	16281.2	0.022800	0.027135	1782.66	90301.3
503	2.000000	1.199329	7.36998e+06	-51939.1	1005.82	-29750.6	0.000000	0.000000	7.201912	54.8811	NaN	0.000000	0.001585	0.001691	28.082	30.6926	0.001799	17062	6.416735	179.926	54.6337	1.199075	0.027504	0.027250	54.8811	17062	0.025092	0.031183	1759.99	88276.8
503	2.000000	1.201809	7.36998e+06	-51939.1	1005.82	-29750.6	0.000000	0.000000	7.204746	63.4838	NaN	0.000000	0.001636	0.001650	28.0818	32.9051	0.001747	18837.9	3.490801	1.623035	61.4646	1.201476	0.029984	0.029651	63.4838	18837.9	0.027457	0.035637	1781.38	91170.2
503	2.000000	1.204264	7.36998e+06	-51939.1	1005.82	-29750.6	0.000000	0.000000	7.207529	71.461	NaN	0.000000	0.001548	0.001672	28.0817	35.9941	0.001903	18912.5	2.811688	-177.717	68.505	1.204072	0.032439	0.032248	71.461	18912.5	0.029606	0.039930	1789.65	86471.2
503	2.000000	1.206788	7.36998e+06	-51939.1	1005.82	-29750.6	0.000000	0.000000	7.210291	77.2469	NaN	0.000000	0.001566	0.001676	28.0816	38.0589	0.001776	21430.2	4.770089	-0.537146	74.0699	1.206449	0.034964	0.034625	77.2469	21430.2	0.032260	0.045559	1695.53	91730.1
503	2.000000	1.209282	7.36998e+06	-51939.1	1005.82	-29750.6	0.000000	0.000000	7.213409	92.4148	NaN	0.000000	0.001584	0.001704	28.0818	40.7621	0.001847	22069.1	7.250302	177.387	91.2086	1.208975	0.037458	0.037151	92.4148	22069.1	0.034317	0.050167	1842.13	90021.7
503	2.000000	1.211800	7.36998e+06	-51939.1	1005.82	-29750.6	0.000000	0.000000	7.216237	99.9702	NaN	0.000000	0.001544	0.001676	28.0817	43.6456	0.001840	23722.4	7.691607	-3.803866	98.5277	1.211424	0.039975	0.039600	99.9702	23722.4	0.036815	0.056056	1783.41	91542.2
503	2.000000	1.214279	7.36998e+06	-51939.1	1005.82	-29750.6	0.000000	0.000000	7.219313	114.496	NaN	0.000000	0.001564	0.001672	28.0818	45.2232	0.001753	25794.4	6.047689	177.503	112.342	1.213867	0.042454	0.042042	114.496	25794.4	0.039125	0.061786	1853.09	94809.7
503	2.000000	1.216810	7.36998e+06	-51939.1	1005.82	-29750.6	0.000000	0.000000	7.222282	125.128	NaN	0.000000	0.001557	0.001719	28.0817	47.6136	0.001772	26867.8	5.550898	-3.385633	120.653	1.216437	0.044986	0.044612	125.128	26867.8	0.041493	0.067944	1841.65	94174
503	2.000000	1.219295	7.36998e+06	-51939.1	1005.82	-29750.6	0.000000	0.000000	7.225217	136.075	NaN	0.000000	0.001589	0.001724	28.0812	48.7115	0.001630	29882.2	1.536445	-179.684	135.229	1.218927	0.047470	0.047102	136.075	29882.2	0.044055	0.074927	1816.1	99739.6
503	2.000000	1.221787	7.36998e+06	-51939.1	1005.82	-29750.6	0.000000	0.000000	7.227935	141.549	NaN	0.000000	0.001585	0.001696	28.0805	53.0131	0.001760	30112.7	5.369622	-4.907670	138.858	1.221548	0.049963	0.049723	141.549	30112.7	0.046437	0.081720	1732.12	96240.6
503	2.000000	1.224269	7.36998e+06	-51939.1	1005.82	-29750.6	0.000000	0.000000	7.231136	159.053	NaN	0.000000	0.001552	0.001733	28.0803	56.5825	0.001907	29676.1	7.049775	174.04	156.427	1.223959	0.052444	0.052134	159.053	29676.1	0.048424	0.087605	1815.56	91604.1
503	2.000000	1.226750	7.36998e+06	-51939.1	1005.82	-29750.6	0.000000	0.000000	7.234214	173.565	NaN	0.000000	0.001554	0.001704	28.0805	57.074	0.001721	33157	4.191680	-3.247798	169.398	1.226439	0.054925	0.054615	173.565	33157	0.050999	0.095527	1816.92	98013.3
503	2.000000	1.229294	7.36998e+06	-51939.1	1005.82	-29750.6	0.000000	0.000000	7.237427	189.843	NaN	0.000000	0.001537	0.001685	28.0804	59.74	0.001763	33894.9	3.710851	176.563	190.197	1.228961	0.057469	0.057137	189.843	33894.9	0.053269	0.102784	1847.01	96592.9
503	2.000000	1.231799	7.36998e+06	-51939.1	1005.82	-29750.6	0.000000	0.000000	7.240569	205.313	NaN	0.000000	0.001513	0.001720	28.0803	61.8498	0.001768	34989.1	4.838385	-4.102599	204.222	1.231394	0.059975	0.059569	205.313	34989.1	0.055574	0.110417	1859.43	96202.8
503	2.000000	1.234291	7.36998e+06	-51939.1	1005.82	-29750.6	0.000000	0.000000	7.243714	221.22	NaN	0.000000	0.001563	0.001698	28.0802	66.0456	0.001845	35788	8.148065	172.483	220.862	1.233907	0.062466	0.062082	221.22	35788	0.057830	0.118142	1872.49	95127.9
503	2.000000	1.236764	7.36998e+06	-51939.1	1005.82	-29750.6	0.000000	0.000000	7.246881	238.069	NaN	0.000000	0.001548	0.001703	28.0805	67.555	0.001757	38452.5	5.623209	-5.951020	233.42	1.236347	0.064940	0.064523	238.069	38452.5	0.060296	0.126873	1876.44	98630.9
503	2.000000	1.239243	7.36998e+06	-51939.1	1005.82	-29750.6	0.000000	0.000000	7.249825	249.379	NaN	0.000000	0.001558	0.001697	28.0802	70.263	0.001775	39590.9	5.564367	173.836	248.882	1.238980	0.067419	0.067156	249.379	39590.9	0.062695	0.135648	1838.43	98211.6
503	2.000000	1.241693	7.36998e+06	-51939.1	1005.82	-29750.6	0.000000	0.000000	7.253085	269.095	NaN	0.000000	0.001578	0.001698	28.0805	72.3892	0.001785	40559.8	4.500537	-5.535510	263.043	1.241384	0.069868	0.069559	269.095	40559.8	0.064892	0.143933	1869.59	97676.4
503	2.000000	1.244265	7.36998e+06	-51939.1	1005.82	-29750.6	0.000000	0.000000	7.256174	281.641	NaN	0.000000	0.001583	0.001702	28.0801	76.0734	0.001736	43825.7	5.300105	173.188	283.5	1.243980	0.072440	0.072155	281.641	43825.7	0.067621	0.154544	1822.4	101854
503	2.000000	1.246770	7.36998e+06	-51939.1	1005.82	-29750.6	0.000000	0.000000	7.259470	300.878	NaN	0.000000	0.001554	0.001720	28.0807	78.3761	0.001851	42350.2	7.921592	-8.781322	297.562	1.246341	0.074946	0.074517	300.878	42350.2	0.069617	0.162535	1851.15	95974.3
503	2.000000	1.249205	7.36998e+06	-51939.1	1005.82	-29750.6	0.000000	0.000000	7.262807	322.811	NaN	0.000000	0.001535	0.001707	28.08	80.0666	0.001840	43518.8	3.208487	175.577	319.839	1.248836	0.077381	0.077011	322.811	43518.8	0.071817	0.171560	1881.63	95993.6
503	2.000000	1.251748	7.36998e+06	-51939.1	1005.82	-29750.6	0.000000	0.000000	7.265701	331.361	NaN	0.000000	0.001614	0.001712	28.0801	84.5025	0.001917	44073.5	8.626032	-9.879284	330.299	1.251332	0.079923	0.079508	331.361	44073.5	0.074284	0.181951	1821.15	94400.3
503	2.000000	1.254218	7.36998e+06	-51939.1	1005.82	-29750.6	0.000000	0.000000	7.269168	355.604	NaN	0.000000	0.001558	0.001675	28.0814	85.6555	0.001732	49463	6.905136	170.454	355.305	1.253947	0.082393	0.082123	355.604	49463	0.077001	0.193729	1835.58	102673
503	2.000000	1.256888	7.36998e+06	-51939.1	1005.82	-29750.6	0.000000	0.000000	7.272264	365.963	NaN	0.000000	0.001565	0.001724	28.0816	85.7429	0.001741	49258.1	1.871732	-4.560737	370.274	1.256671	0.085063	0.084847	365.963	49258.1	0.079491	0.204824	1786.72	99439.9
503	2.000000	1.259196	7.36998e+06	-51939.1	1005.82	-29750.6	0.000000	0.000000	7.275794	395.676	NaN	0.000000	0.001559	0.001720	28.0813	88.2534	0.001806	48861	6.121309	171.495	392.48	1.258954	0.087371	0.087129	395.676	48861	0.081298	0.213057	1857.14	96713.6
503	2.000000	1.261657	7.36998e+06	-51939.1	1005.82	-29750.6	0.000000	0.000000	7.279166	417.816	NaN	0.000000	0.001545	0.001713	28.0814	90.6128	0.001750	51791.2	2.322406	-5.235840	409.768	1.261349	0.089832	0.089525	417.816	51791.2	0.083782	0.224624	1860.06	99839.1
503	2.000000	1.264260	7.36998e+06	-51939.1	1005.82	-29750.6	0.000000	0.000000	7.282419	433.618	NaN	0.000000	0.001563	0.001729	28.0816	94.7748	0.001776	53359	6.605310	170.715	433.306	1.263954	0.092436	0.092129	433.618	53359	0.086341	0.236839	1830.85	100174
503	2.000000	1.266797	7.36998e+06	-51939.1	1005.82	-29750.6	0.000000	0.000000	7.285852	455.413	NaN	0.000000	0.001560	0.001723	28.0814	97.0085	0.001760	55125.5	5.253354	-7.970999	454.087	1.266439	0.094972	0.094614	455.413	55125.5	0.088776	0.248744	1830.85	100983
503	2.000000	1.269222	7.36998e+06	-51939.1	1005.82	-29750.6	0.000000	0.000000	7.289051	474.214	NaN	0.000000	0.001588	0.001736	28.0814	99.6767	0.001957	50933	5.679564	171.505	471.796	1.269041	0.097398	0.097217	474.214	50933	0.090415	0.256908	1845.85	91808.6
503	2.000000	1.271704	7.36998e+06	-51939.1	1005.82	-29750.6	0.000000	0.000000	7.292561	499.223	NaN	0.000000	0.001561	0.001703	28.0814	101.396	0.001793	56561.7	4.178613	-7.539819	494.69	1.271339	0.099879	0.099515	499.223	56561.7	0.093260	0.271372	1839.62	99200.3
503	2.000000	1.274225	7.36998e+06	-51939.1	1005.82	-29750.6	0.000000	0.000000	7.296080	523.506	NaN	0.000000	0.001541	0.001692	28.0816	104.051	0.001809	57520.3	4.406016	172.381	521.214	1.273846	0.102400	0.102022	523.506	57520.3	0.095574	0.283413	1847.15	98715.3
503	2.000000	1.276723	7.36998e+06	-51939.1	1005.82	-29750.6	0.000000	0.000000	7.299615	548.691	NaN	0.000000	0.001590	0.001702	28.0809	106.386	0.001757	60562.4	6.004566	-9.590043	543.652	1.276332	0.104899	0.104508	548.691	60562.4	0.098104	0.296853	1848.36	101556