File: remote_trans/data/nanoindenter/0828-1/data/Data_2025-08-06,11h17m57s/2025-07-22_16-23-58_1_144.txt
2025-07-22, 16:23:58, 1
Index	Phase	Displacement	Time	Pos X	Pos Y	Pos Z	Rot A	Rot B	Piezo Z	Force A	Force B	Gripper	Voltage A	Voltage B	Temperature	Amplitude force	Amplitude pos	Stiffness	Phase shift	Phase excitation	Force A raw	Displacement raw	HMax	HMax raw	Real Force	Real Stiffness	Contact Depth	Area	Hardness	Reduced Mod.
[#]	[#]	[um]	[s]	[um]	[um]	[um]	[m°]	[m°]	[um]	[uN]	[uN]	[V]	[V]	[V]	[°C]	[uN]	[um]	[N/m]	[°]	[°]	[uN]	[um]	[um]	[um]	[uN]	[N/m]	[um]	[um^2]	[MPa]	[MPa]
144	1.000000	0.002815	7.36644e+06	-45839.1	955.819	-29771.6	0.000000	0.000000	6.002751	0.022596	NaN	0.000000	0.001598	0.001690	28.1321	0.054269	0.001009	53.8089	18.2501	178.678	0.004406	0.001606	-1.051172	-1.052381	0.022596	53.8089	-1.051487	-1.117899E+14	-2.021260E-16	NaN
144	1.000000	0.010772	7.36644e+06	-45839.1	955.818	-29771.6	0.000000	0.000000	6.010707	-0.010856	NaN	0.000000	0.001633	0.001721	28.1308	0.031823	0.000973	32.7179	-116.967	170.168	-0.069094	0.009469	-1.043215	-1.044518	-0.010856	32.7179	-1.042966	-8.587112E+13	1.264255E-16	NaN
144	1.000000	0.018758	7.36644e+06	-45839.1	955.819	-29771.6	0.000000	0.000000	6.018696	0.064947	NaN	0.000000	0.001619	0.001687	28.1303	0.011053	0.001862	5.936436	170.999	176.256	0.043415	0.017495	-1.035229	-1.036492	0.064947	5.936436	-1.043434	-8.712504E+13	-7.454471E-16	NaN
144	1.000000	0.026748	7.36644e+06	-45839.1	955.818	-29771.6	0.000000	0.000000	6.026685	0.024347	NaN	0.000000	0.001622	0.001676	28.1307	0.077127	0.001862	41.4256	130.177	175.794	0.028012	0.025471	-1.027239	-1.028516	0.024347	41.4256	-1.027680	-5.348935E+13	-4.551688E-16	NaN
144	1.000000	0.034751	7.36644e+06	-45839.1	955.819	-29771.6	0.000000	0.000000	6.034686	-0.018125	NaN	0.000000	0.001586	0.001683	28.1301	0.015015	0.001901	7.897544	-91.3309	177.448	-0.047850	0.033420	-1.019236	-1.020567	-0.018125	7.897544	-1.017515	-3.904014E+13	4.642615E-16	NaN
144	1.000000	0.042758	7.36644e+06	-45839.1	955.818	-29771.6	0.000000	0.000000	6.042694	0.001549	NaN	0.000000	0.001563	0.001699	28.1302	0.031535	0.001883	16.7502	-160.493	179.765	0.013908	0.041460	-1.011229	-1.012527	0.001549	16.7502	-1.011298	-3.219959E+13	-4.811742E-17	NaN
144	1.000000	0.050787	7.36644e+06	-45839.1	955.819	-29771.6	0.000000	0.000000	6.050722	-0.006413	NaN	0.000000	0.001556	0.001652	28.1314	0.069765	0.001896	36.7966	74.8254	177.216	-0.024757	0.049477	-1.003200	-1.004510	-0.006413	36.7966	-1.003069	-2.495113E+13	2.570294E-16	NaN
144	1.000000	0.058760	7.36644e+06	-45839.1	955.818	-29771.6	0.000000	0.000000	6.058696	0.010379	NaN	0.000000	0.001580	0.001701	28.1315	0.041554	0.001950	21.3083	-38.8157	177.122	0.032373	0.057446	-0.995227	-0.996541	0.010379	21.3083	-0.995592	-1.978883E+13	-5.244727E-16	NaN
144	1.000000	0.066753	7.36644e+06	-45839.1	955.817	-29771.6	0.000000	0.000000	6.066690	0.037522	NaN	0.000000	0.001578	0.001661	28.1316	0.054170	0.002048	26.4513	1.730854	179.696	-0.027477	0.065429	-0.987234	-0.988558	0.037522	26.4513	-0.988298	-1.578295E+13	-2.377403E-15	NaN
144	1.000000	0.074753	7.36644e+06	-45839.1	955.818	-29771.6	0.000000	0.000000	6.074686	-0.057189	NaN	0.000000	0.001544	0.001694	28.1314	0.061198	0.002061	29.6985	72.8713	177.813	-0.007153	0.073527	-0.979234	-0.980460	-0.057189	29.6985	-0.977790	-1.139296E+13	5.019679E-15	NaN
144	1.000000	0.082774	7.36644e+06	-45839.1	955.818	-29771.6	0.000000	0.000000	6.082711	0.032844	NaN	0.000000	0.001559	0.001700	28.1313	0.110593	0.001873	59.0354	51.4114	177.063	0.013310	0.081379	-0.971213	-0.972607	0.032844	59.0354	-0.971630	-9.410950E+12	-3.489973E-15	NaN
144	1.000000	0.090796	7.36644e+06	-45839.1	955.819	-29771.6	0.000000	0.000000	6.090733	0.030875	NaN	0.000000	0.001597	0.001670	28.1302	0.045309	0.001934	23.4279	35.3602	178.071	-0.013611	0.089449	-0.963191	-0.964538	0.030875	23.4279	-0.964180	-7.468151E+12	-4.134173E-15	NaN
144	1.000000	0.098759	7.36644e+06	-45839.1	955.818	-29771.6	0.000000	0.000000	6.098697	0.060400	NaN	0.000000	0.001551	0.001707	28.1304	0.138037	0.002036	67.7928	151.504	176.117	-0.016930	0.097433	-0.955228	-0.956554	0.060400	67.7928	-0.955896	-5.774762E+12	-1.045938E-14	NaN
144	1.000000	0.106762	7.36644e+06	-45839.1	955.818	-29771.6	0.000000	0.000000	6.106695	-0.071468	NaN	0.000000	0.001586	0.001720	28.1305	0.032764	0.002012	16.2853	65.0298	176.269	0.023464	0.105440	-0.947225	-0.948546	-0.071468	16.2853	-0.943934	-3.982929E+12	1.794352E-14	NaN
144	1.000000	0.114766	7.36644e+06	-45839.1	955.818	-29771.6	0.000000	0.000000	6.114699	-0.061704	NaN	0.000000	0.001582	0.001680	28.1306	0.103642	0.001981	52.3057	86.0026	174.951	-0.002490	0.113469	-0.939221	-0.940518	-0.061704	52.3057	-0.938336	-3.347255E+12	1.843427E-14	NaN
144	1.000000	0.122783	7.36644e+06	-45839.1	955.819	-29771.6	0.000000	0.000000	6.122720	0.022321	NaN	0.000000	0.001583	0.001694	28.1303	0.094045	0.002043	46.0363	-148.298	174.805	-0.010458	0.121460	-0.931204	-0.932527	0.022321	46.0363	-0.931567	-2.712368E+12	-8.229157E-15	NaN
144	1.000000	0.130779	7.36644e+06	-45839.1	955.819	-29771.6	0.000000	0.000000	6.130716	0.039472	NaN	0.000000	0.001587	0.001730	28.1305	0.057645	0.001999	28.8366	110.8	176.547	0.028275	0.129486	-0.923208	-0.924501	0.039472	28.8366	-0.924234	-2.159593E+12	-1.827774E-14	NaN
144	1.000000	0.138779	7.36644e+06	-45839.1	955.818	-29771.6	0.000000	0.000000	6.138715	0.016677	NaN	0.000000	0.001613	0.001723	28.1304	0.038912	0.002140	18.1815	161.46	177.23	0.006251	0.137400	-0.915208	-0.916587	0.016677	18.1815	-0.915896	-1.666434E+12	-1.000754E-14	NaN
144	1.000000	0.146815	7.36644e+06	-45839.1	955.819	-29771.6	0.000000	0.000000	6.146750	0.008208	NaN	0.000000	0.001564	0.001678	28.1309	0.056183	0.001984	28.3182	123.826	179.084	0.040219	0.145509	-0.907172	-0.908478	0.008208	28.3182	-0.907390	-1.279100E+12	-6.417076E-15	NaN
144	1.000000	0.154789	7.36644e+06	-45839.1	955.818	-29771.6	0.000000	0.000000	6.154724	-0.021610	NaN	0.000000	0.001600	0.001672	28.1304	0.098581	0.001907	51.6846	-160.502	174.68	-0.022361	0.153484	-0.899198	-0.900503	-0.021610	51.6846	-0.898884	-9.817179E+11	2.201254E-14	NaN
144	1.000000	0.162779	7.36644e+06	-45839.1	955.819	-29771.6	0.000000	0.000000	6.162713	-0.031811	NaN	0.000000	0.001600	0.001696	28.1303	0.048441	0.002079	23.3011	-78.2224	176.619	-0.066993	0.161463	-0.891208	-0.892524	-0.031811	23.3011	-0.890184	-7.488697E+11	4.247822E-14	NaN
144	1.000000	0.170787	7.36644e+06	-45839.1	955.819	-29771.6	0.000000	0.000000	6.170719	-0.063825	NaN	0.000000	0.001563	0.001696	28.1297	0.053626	0.002016	26.6008	-67.0786	177.637	-0.003420	0.169502	-0.883200	-0.884485	-0.063825	26.6008	-0.881401	-5.697080E+11	1.120317E-13	NaN
144	1.000000	0.178815	7.36644e+06	-45839.1	955.818	-29771.6	0.000000	0.000000	6.178749	-0.017866	NaN	0.000000	0.001589	0.001709	28.1298	0.099726	0.002056	48.5049	175.791	179.576	-0.001361	0.177464	-0.875172	-0.876523	-0.017866	48.5049	-0.874896	-4.652415E+11	3.840059E-14	NaN
144	1.000000	0.186784	7.36644e+06	-45839.1	955.818	-29771.6	0.000000	0.000000	6.186719	0.002328	NaN	0.000000	0.001592	0.001737	28.1298	0.041619	0.002005	20.7551	-73.8661	178.209	0.021884	0.185494	-0.867203	-0.868493	0.002328	20.7551	-0.867287	-3.670626E+11	-6.342415E-15	NaN
144	1.000000	0.194785	7.36644e+06	-45839.1	955.818	-29771.6	0.000000	0.000000	6.194724	0.069372	NaN	0.000000	0.001628	0.001696	28.129	0.066122	0.001826	36.2129	100.289	178.571	0.062966	0.193475	-0.859202	-0.860512	0.069372	36.2129	-0.860639	-2.983759E+11	-2.324993E-13	NaN
144	1.000000	0.202832	7.36644e+06	-45839.1	955.819	-29771.6	0.000000	0.000000	6.202765	-0.071155	NaN	0.000000	0.001663	0.001696	28.129	0.102923	0.002027	50.7835	77.8792	174.014	-0.040075	0.201511	-0.851155	-0.852476	-0.071155	50.7835	-0.850104	-2.148537E+11	3.311804E-13	NaN
144	1.000000	0.210839	7.36644e+06	-45839.1	955.818	-29771.6	0.000000	0.000000	6.210773	-0.030814	NaN	0.000000	0.001631	0.001703	28.1304	0.127073	0.002123	59.8599	-24.7018	-179.012	-0.067696	0.209461	-0.843148	-0.844526	-0.030814	59.8599	-0.842762	-1.708880E+11	1.803140E-13	NaN
144	1.000000	0.218798	7.36644e+06	-45839.1	955.819	-29771.6	0.000000	0.000000	6.218736	0.061103	NaN	0.000000	0.001644	0.001683	28.1301	0.050441	0.002169	23.2567	146.706	174.843	0.012139	0.217485	-0.835189	-0.836502	0.061103	23.2567	-0.837159	-1.434852E+11	-4.258502E-13	NaN
144	1.000000	0.226805	7.36644e+06	-45839.1	955.819	-29771.6	0.000000	0.000000	6.226745	0.114153	NaN	0.000000	0.001622	0.001704	28.1303	0.051938	0.001939	26.7868	-149.879	178.465	0.039639	0.225494	-0.827182	-0.828493	0.114153	26.7868	-0.830378	-1.161201E+11	-9.830556E-13	NaN
144	1.000000	0.234838	7.36644e+06	-45839.1	955.819	-29771.6	0.000000	0.000000	6.234775	0.036805	NaN	0.000000	0.001633	0.001674	28.1307	0.150597	0.001868	80.6158	26.4923	177.894	-0.002435	0.233516	-0.819149	-0.820471	0.036805	80.6158	-0.819491	-8.266347E+10	-4.452342E-13	NaN
144	1.000000	0.242812	7.36644e+06	-45839.1	955.819	-29771.6	0.000000	0.000000	6.242746	-0.030359	NaN	0.000000	0.001658	0.001699	28.1302	0.079582	0.002024	39.3246	62.4451	177.076	0.009282	0.241478	-0.811175	-0.812509	-0.030359	39.3246	-0.810596	-6.261231E+10	4.848746E-13	NaN
144	1.000000	0.250846	7.36644e+06	-45839.1	955.818	-29771.6	0.000000	0.000000	6.250780	-0.048147	NaN	0.000000	0.001608	0.001723	28.1296	0.093703	0.002143	43.7178	-25.25	178.824	-0.114320	0.249522	-0.803141	-0.804465	-0.048147	43.7178	-0.802315	-4.833701E+10	9.960600E-13	NaN
144	1.000000	0.258838	7.36645e+06	-45839.1	955.818	-29771.6	0.000000	0.000000	6.258773	-0.028501	NaN	0.000000	0.001635	0.001720	28.1294	0.031093	0.001880	16.5398	-109.124	-179.923	0.009413	0.257503	-0.795148	-0.796484	-0.028501	16.5398	-0.793856	-3.710646E+10	7.680765E-13	NaN
144	1.000000	0.266858	7.36645e+06	-45839.1	955.819	-29771.6	0.000000	0.000000	6.266792	-0.034162	NaN	0.000000	0.001647	0.001709	28.1303	0.119515	0.001950	61.2824	-70.3899	-179.508	0.025364	0.265524	-0.787129	-0.788463	-0.034162	61.2824	-0.786711	-2.967607E+10	1.151178E-12	NaN
144	1.000000	0.274852	7.36645e+06	-45839.1	955.818	-29771.6	0.000000	0.000000	6.274787	-0.028146	NaN	0.000000	0.001645	0.001718	28.1306	0.073280	0.001969	37.2108	171.971	177.35	-0.059406	0.273519	-0.779135	-0.780468	-0.028146	37.2108	-0.778567	-2.300188E+10	1.223634E-12	NaN
144	1.000000	0.282852	7.36645e+06	-45839.1	955.818	-29771.6	0.000000	0.000000	6.282788	0.000870	NaN	0.000000	0.001662	0.001693	28.1307	0.074998	0.001958	38.3007	142.795	-178.902	0.007710	0.281544	-0.771135	-0.772443	0.000870	38.3007	-0.771152	-1.823746E+10	-4.768368E-14	NaN
144	1.000000	0.290844	7.36645e+06	-45839.1	955.819	-29771.6	0.000000	0.000000	6.290778	-0.039717	NaN	0.000000	0.001619	0.001689	28.132	0.053978	0.002093	25.7863	36.8937	175.495	-0.099895	0.289530	-0.763143	-0.764457	-0.039717	25.7863	-0.761987	-1.368793E+10	2.901611E-12	NaN
144	1.000000	0.298845	7.36645e+06	-45839.1	955.818	-29771.6	0.000000	0.000000	6.298781	0.023318	NaN	0.000000	0.001613	0.001713	28.1318	0.055551	0.001942	28.599	76.8522	174.664	-0.032675	0.297523	-0.755142	-0.756464	0.023318	28.599	-0.755754	-1.125966E+10	-2.070973E-12	NaN
144	1.000000	0.306851	7.36645e+06	-45839.1	955.818	-29771.6	0.000000	0.000000	6.306788	0.050463	NaN	0.000000	0.001661	0.001683	28.1316	0.042630	0.001912	22.2932	37.5837	175.914	-0.078780	0.305570	-0.747136	-0.748417	0.050463	22.2932	-0.748834	-9.064580E+9	-5.567034E-12	NaN
144	1.000000	0.314845	7.36645e+06	-45839.1	955.818	-29771.6	0.000000	0.000000	6.314780	0.003734	NaN	0.000000	0.001645	0.001719	28.1315	0.040186	0.001951	20.595	127.961	175.53	0.067513	0.313543	-0.739142	-0.740444	0.003734	20.595	-0.739278	-6.717741E+9	-5.557834E-13	NaN
144	1.000000	0.322851	7.36645e+06	-45839.1	955.818	-29771.6	0.000000	0.000000	6.322785	-0.042227	NaN	0.000000	0.001665	0.001707	28.1318	0.112848	0.002105	53.6106	90.1488	177.731	-0.029933	0.321536	-0.731136	-0.732451	-0.042227	53.6106	-0.730545	-5.107886E+9	8.267074E-12	NaN
144	1.000000	0.330863	7.36645e+06	-45839.1	955.818	-29771.6	0.000000	0.000000	6.330799	0.017752	NaN	0.000000	0.001600	0.001674	28.1307	0.007949	0.002046	3.885699	91.5087	178.123	0.036355	0.329558	-0.723124	-0.724429	0.017752	3.885699	-0.726551	-4.506020E+9	-3.939640E-12	NaN
144	1.000000	0.338875	7.36645e+06	-45839.1	955.818	-29771.6	0.000000	0.000000	6.338811	0.012243	NaN	0.000000	0.001582	0.001697	28.1304	0.054103	0.002047	26.4285	-63.4058	178.702	-0.057603	0.337567	-0.715112	-0.716420	0.012243	26.4285	-0.715460	-3.180848E+9	-3.849131E-12	NaN
144	1.000000	0.346868	7.36645e+06	-45839.1	955.818	-29771.6	0.000000	0.000000	6.346803	-0.007247	NaN	0.000000	0.001559	0.001750	28.1302	0.087220	0.002008	43.4398	-154.636	174.658	-0.008777	0.345591	-0.707119	-0.708396	-0.007247	43.4398	-0.706994	-2.437895E+9	2.972800E-12	NaN
144	1.000000	0.354876	7.36645e+06	-45839.1	955.818	-29771.6	0.000000	0.000000	6.354810	-0.033813	NaN	0.000000	0.001608	0.001719	28.1305	0.022919	0.001911	11.9937	-90.5669	177.503	0.038792	0.353530	-0.699111	-0.700457	-0.033813	11.9937	-0.696996	-1.780353E+9	1.899203E-11	NaN
144	1.000000	0.362862	7.36645e+06	-45839.1	955.818	-29771.6	0.000000	0.000000	6.362796	-0.030392	NaN	0.000000	0.001582	0.001753	28.1303	0.027983	0.001959	14.2838	-167.47	-179.862	-0.070483	0.361595	-0.691125	-0.692392	-0.030392	14.2838	-0.689529	-1.407618E+9	2.159096E-11	NaN
144	1.000000	0.370897	7.36645e+06	-45839.1	955.819	-29771.6	0.000000	0.000000	6.370832	-0.019004	NaN	0.000000	0.001604	0.001712	28.1314	0.089336	0.002032	43.9743	-162.268	171.716	-0.077075	0.369553	-0.683090	-0.684434	-0.019004	43.9743	-0.682766	-1.137691E+9	1.670434E-11	NaN
144	1.000000	0.378896	7.36645e+06	-45839.1	955.819	-29771.6	0.000000	0.000000	6.378833	0.055513	NaN	0.000000	0.001574	0.001684	28.1316	0.088002	0.002043	43.0842	158.64	178.954	0.056845	0.377547	-0.675091	-0.676440	0.055513	43.0842	-0.676058	-9.210461E+8	-6.027125E-11	NaN
144	1.000000	0.386859	7.36645e+06	-45839.1	955.819	-29771.6	0.000000	0.000000	6.386795	0.026901	NaN	0.000000	0.001607	0.001722	28.1315	0.087500	0.002147	40.7465	178.991	179.346	-0.028540	0.385584	-0.667128	-0.668403	0.026901	40.7465	-0.667623	-7.060894E+8	-3.809852E-11	NaN
144	1.000000	0.394899	7.36645e+06	-45839.1	955.819	-29771.6	0.000000	0.000000	6.394833	-0.053014	NaN	0.000000	0.001582	0.001721	28.132	0.148245	0.002030	73.0378	-142.058	174.381	-0.010392	0.393566	-0.659088	-0.660421	-0.053014	73.0378	-0.658543	-5.302895E+8	9.997262E-11	NaN
144	1.000000	0.402867	7.36645e+06	-45839.1	955.818	-29771.6	0.000000	0.000000	6.402804	0.032389	NaN	0.000000	0.001596	0.001697	28.1311	0.095136	0.002225	42.7493	-110.827	179.582	-0.085600	0.401592	-0.651119	-0.652395	0.032389	42.7493	-0.651688	-4.271410E+8	-7.582848E-11	NaN
144	1.000000	0.410914	7.36645e+06	-45839.1	955.819	-29771.6	0.000000	0.000000	6.410852	0.057980	NaN	0.000000	0.001532	0.001704	28.1292	0.091083	0.002034	44.7802	-115.172	176.244	-0.009098	0.409586	-0.643073	-0.644400	0.057980	44.7802	-0.644044	-3.355555E+8	-1.727893E-10	NaN
144	1.000000	0.418898	7.36645e+06	-45839.1	955.817	-29771.6	0.000000	0.000000	6.418831	-0.044815	NaN	0.000000	0.001563	0.001710	28.1293	0.056037	0.001992	28.1355	-106.855	174.636	0.014894	0.417570	-0.635089	-0.636416	-0.044815	28.1355	-0.633895	-2.434991E+8	1.840441E-10	NaN
144	1.000000	0.426891	7.36645e+06	-45839.1	955.818	-29771.6	0.000000	0.000000	6.426827	0.033939	NaN	0.000000	0.001574	0.001697	28.1294	0.052418	0.002031	25.8129	168.005	176.9	0.064488	0.425673	-0.627096	-0.628314	0.033939	25.8129	-0.628082	-2.026228E+8	-1.674982E-10	NaN
144	1.000000	0.434903	7.36645e+06	-45839.1	955.818	-29771.6	0.000000	0.000000	6.434839	0.029453	NaN	0.000000	0.001574	0.001702	28.1298	0.019558	0.002092	9.347135	-36.7103	179	0.042879	0.433551	-0.619084	-0.620436	0.029453	9.347135	-0.621447	-1.642583E+8	-1.793081E-10	NaN
144	1.000000	0.442908	7.36645e+06	-45839.1	955.819	-29771.6	0.000000	0.000000	6.442841	-0.067661	NaN	0.000000	0.001568	0.001678	28.1296	0.046615	0.002109	22.1003	-164.573	176.991	-0.035382	0.441597	-0.611079	-0.612389	-0.067661	22.1003	-0.608782	-1.099919E+8	6.151453E-10	NaN
144	1.000000	0.450945	7.36645e+06	-45839.1	955.818	-29771.6	0.000000	0.000000	6.450880	-0.013857	NaN	0.000000	0.001563	0.001706	28.1305	0.042601	0.002038	20.9019	75.4225	176.693	0.038970	0.449562	-0.603042	-0.604425	-0.013857	20.9019	-0.602545	-9.026118E+7	1.535248E-10	NaN
144	1.000000	0.458932	7.36645e+06	-45839.1	955.818	-29771.6	0.000000	0.000000	6.458870	0.049412	NaN	0.000000	0.001590	0.001667	28.1304	0.041191	0.002041	20.1854	-176.431	175.859	-0.115292	0.457599	-0.595055	-0.596388	0.049412	20.1854	-0.596891	-7.544478E+7	-6.549486E-10	NaN
144	1.000000	0.466927	7.36645e+06	-45839.1	955.819	-29771.6	0.000000	0.000000	6.466863	0.004783	NaN	0.000000	0.001582	0.001673	28.1306	0.065949	0.002030	32.4891	130.736	178.693	-0.011747	0.465628	-0.587060	-0.588359	0.004783	32.4891	-0.587170	-5.541710E+7	-8.631541E-11	NaN
144	1.000000	0.474934	7.36645e+06	-45839.1	955.818	-29771.6	0.000000	0.000000	6.474871	0.036263	NaN	0.000000	0.001547	0.001663	28.1308	0.008288	0.001917	4.322591	47.9554	172.482	0.078521	0.473600	-0.579053	-0.580387	0.036263	4.322591	-0.585345	-5.229650E+7	-6.934085E-10	NaN
144	1.000000	0.482925	7.36645e+06	-45839.1	955.818	-29771.6	0.000000	0.000000	6.482862	0.033461	NaN	0.000000	0.001587	0.001679	28.1306	0.026973	0.002018	13.365	118.029	175.921	0.040613	0.481613	-0.571062	-0.572374	0.033461	13.365	-0.572939	-3.525656E+7	-9.490715E-10	NaN
144	1.000000	0.490917	7.36645e+06	-45839.1	955.818	-29771.6	0.000000	0.000000	6.490855	0.067806	NaN	0.000000	0.001555	0.001690	28.1297	0.182230	0.002098	86.8733	26.8698	175.518	0.029948	0.489562	-0.563070	-0.564425	0.067806	86.8733	-0.563655	-2.623831E+7	-2.584229E-9	NaN
144	1.000000	0.498948	7.36645e+06	-45839.1	955.818	-29771.6	0.000000	0.000000	6.498883	-0.013632	NaN	0.000000	0.001571	0.001666	28.1296	0.017448	0.002023	8.623887	-119.681	179.67	-0.000487	0.497630	-0.555039	-0.556357	-0.013632	8.623887	-0.553853	-1.920067E+7	7.099741E-10	NaN
144	1.000000	0.506930	7.36645e+06	-45839.1	955.819	-29771.6	0.000000	0.000000	6.506866	0.021618	NaN	0.000000	0.001614	0.001722	28.1294	0.046601	0.001978	23.5593	138.189	177.788	0.020944	0.505626	-0.547057	-0.548361	0.021618	23.5593	-0.547745	-1.580236E+7	-1.368016E-9	NaN
144	1.000000	0.514952	7.36645e+06	-45839.1	955.819	-29771.6	0.000000	0.000000	6.514886	-0.029091	NaN	0.000000	0.001554	0.001703	28.1292	0.071273	0.001955	36.4545	15.4989	176.529	-0.077879	0.513586	-0.539035	-0.540401	-0.029091	36.4545	-0.538437	-1.174011E+7	2.477938E-9	NaN
144	1.000000	0.522951	7.36645e+06	-45839.1	955.818	-29771.6	0.000000	0.000000	6.522885	-0.040548	NaN	0.000000	0.001563	0.001735	28.1293	0.011135	0.001970	5.653300	-58.4335	172.128	-0.040744	0.521651	-0.531036	-0.532336	-0.040548	5.653300	-0.525656	-7.80247e+06	5.196798E-9	NaN
144	1.000000	0.530950	7.36645e+06	-45839.1	955.818	-29771.6	0.000000	0.000000	6.530886	0.029135	NaN	0.000000	0.001599	0.001712	28.1303	0.045896	0.001991	23.0501	132.946	173.631	0.103536	0.529670	-0.523037	-0.524317	0.029135	23.0501	-0.523985	-7.39616e+06	-3.939215E-9	NaN
144	1.000000	0.538934	7.36645e+06	-45839.1	955.818	-29771.6	0.000000	0.000000	6.538867	-0.047236	NaN	0.000000	0.001585	0.001704	28.1306	0.074573	0.001883	39.6114	3.366965	177.186	-0.019735	0.537621	-0.515053	-0.516366	-0.047236	39.6114	-0.514159	-5.39916e+06	8.748842E-9	NaN
144	1.000000	0.546973	7.36645e+06	-45839.1	955.819	-29771.6	0.000000	0.000000	6.546906	-0.068284	NaN	0.000000	0.001588	0.001717	28.1315	0.055123	0.002068	26.6506	137.357	175.203	-0.063435	0.545631	-0.507013	-0.508356	-0.068284	26.6506	-0.505092	-4.03668e+06	1.691592E-8	NaN
144	1.000000	0.554963	7.36645e+06	-45839.1	955.818	-29771.6	0.000000	0.000000	6.554900	0.045791	NaN	0.000000	0.001553	0.001697	28.1315	0.007280	0.002026	3.593560	150.96	178.626	0.109154	0.553649	-0.499024	-0.500338	0.045791	3.593560	-0.508581	-4.51493e+06	-1.014217E-8	NaN
144	1.000000	0.562959	7.36645e+06	-45839.1	955.818	-29771.6	0.000000	0.000000	6.562892	-0.051185	NaN	0.000000	0.001543	0.001731	28.1317	0.078787	0.002114	37.2605	-160.408	175.22	-0.023737	0.561647	-0.491028	-0.492340	-0.051185	37.2605	-0.489998	-2.48519e+06	2.059603E-8	NaN
144	1.000000	0.570993	7.36645e+06	-45839.1	955.819	-29771.6	0.000000	0.000000	6.570927	-0.024804	NaN	0.000000	0.001572	0.001694	28.1303	0.038747	0.002070	18.7173	-144.508	176.017	-0.041998	0.569651	-0.482994	-0.484336	-0.024804	18.7173	-0.482001	-1.921e+06	1.291202E-8	NaN
144	1.000000	0.578951	7.36645e+06	-45839.1	955.819	-29771.6	0.000000	0.000000	6.578886	-0.023260	NaN	0.000000	0.001573	0.001703	28.1307	0.036134	0.002045	17.6655	108.264	175.667	-0.039203	0.577662	-0.475036	-0.476325	-0.023260	17.6655	-0.474048	-1.48648e+06	1.564786E-8	NaN
144	1.000000	0.586971	7.36645e+06	-45839.1	955.817	-29771.6	0.000000	0.000000	6.586908	0.033481	NaN	0.000000	0.001563	0.001730	28.1305	0.045568	0.001937	23.5192	132.368	176.841	0.074297	0.585633	-0.467016	-0.468354	0.033481	23.5192	-0.468083	-1.22608e+06	-2.730736E-8	NaN
144	1.000000	0.594985	7.36645e+06	-45839.1	955.819	-29771.6	0.000000	0.000000	6.594917	-0.064866	NaN	0.000000	0.001601	0.001706	28.1304	0.059206	0.002028	29.1998	-123.767	175.304	-0.022327	0.593639	-0.459002	-0.460348	-0.064866	29.1998	-0.457336	-866112	7.489376E-8	NaN
144	1.000000	0.602985	7.36645e+06	-45839.1	955.818	-29771.6	0.000000	0.000000	6.602921	0.009716	NaN	0.000000	0.001592	0.001711	28.1305	0.066813	0.001989	33.599	-33.4043	176.133	0.029207	0.601638	-0.451002	-0.452349	0.009716	33.599	-0.451219	-710409	-1.367681E-8	NaN
144	1.000000	0.610990	7.36645e+06	-45839.1	955.818	-29771.6	0.000000	0.000000	6.610927	0.041221	NaN	0.000000	0.001562	0.001735	28.1315	0.116730	0.002029	57.5325	-59.5377	-179.451	0.045706	0.609647	-0.442997	-0.444340	0.041221	57.5325	-0.443535	-553643	-7.445383E-8	NaN
144	1.000000	0.618976	7.36645e+06	-45839.1	955.818	-29771.6	0.000000	0.000000	6.618912	0.009397	NaN	0.000000	0.001614	0.001719	28.1319	0.121625	0.002004	60.6914	104.907	178.732	-0.114448	0.617593	-0.435011	-0.436394	0.009397	60.6914	-0.435127	-421264	-2.230613E-8	NaN
144	1.000000	0.626996	7.36645e+06	-45839.1	955.818	-29771.6	0.000000	0.000000	6.626933	0.024763	NaN	0.000000	0.001594	0.001699	28.1314	0.053799	0.001903	28.2716	73.2485	-179.058	-0.025177	0.625683	-0.426991	-0.428304	0.024763	28.2716	-0.427648	-330197	-7.499484E-8	NaN
144	1.000000	0.634980	7.36645e+06	-45839.1	955.818	-29771.6	0.000000	0.000000	6.634914	-0.018600	NaN	0.000000	0.001614	0.001724	28.1315	0.070487	0.001914	36.8272	157.669	177.12	-0.090648	0.633664	-0.419007	-0.420323	-0.018600	36.8272	-0.418629	-246014	7.560475E-8	NaN
144	1.000000	0.642990	7.36645e+06	-45839.1	955.818	-29771.6	0.000000	0.000000	6.642925	-0.010727	NaN	0.000000	0.001621	0.001700	28.1318	0.113102	0.001943	58.2065	-97.4108	177.951	-0.010552	0.641639	-0.410997	-0.412347	-0.010727	58.2065	-0.410859	-190816	5.621468E-8	NaN
144	1.000000	0.651002	7.36645e+06	-45839.1	955.818	-29771.6	0.000000	0.000000	6.650935	-0.080955	NaN	0.000000	0.001594	0.001737	28.1301	0.030731	0.001918	16.0197	18.2083	178.927	-0.119009	0.649720	-0.402985	-0.404267	-0.080955	16.0197	-0.399194	-130168	6.219277E-7	NaN
144	1.000000	0.658986	7.36645e+06	-45839.1	955.818	-29771.6	0.000000	0.000000	6.658924	0.067826	NaN	0.000000	0.001574	0.001742	28.13	0.096208	0.001964	48.9942	-61.3346	177.554	0.033082	0.657645	-0.395001	-0.396342	0.067826	48.9942	-0.396039	-117347	-5.779906E-7	NaN
144	1.000000	0.666965	7.36645e+06	-45839.1	955.818	-29771.6	0.000000	0.000000	6.666898	-0.048025	NaN	0.000000	0.001612	0.001695	28.13	0.077549	0.001996	38.859	-92.2144	176.777	-0.076692	0.665728	-0.387022	-0.388259	-0.048025	38.859	-0.386095	-84581.1	5.677948E-7	NaN
144	1.000000	0.675009	7.36645e+06	-45839.1	955.819	-29771.6	0.000000	0.000000	6.674946	0.045746	NaN	0.000000	0.001580	0.001706	28.1302	0.108292	0.002031	53.3152	-114.064	178.682	0.008096	0.673697	-0.378978	-0.380290	0.045746	53.3152	-0.379622	-68306.1	-6.697268E-7	NaN
144	1.000000	0.683014	7.36645e+06	-45839.1	955.818	-29771.6	0.000000	0.000000	6.682952	0.054558	NaN	0.000000	0.001607	0.001677	28.1291	0.050991	0.001960	26.0137	50.3783	177.59	0.042874	0.681689	-0.370973	-0.372298	0.054558	26.0137	-0.372546	-54047.9	-1.009440E-6	NaN
144	1.000000	0.691007	7.36645e+06	-45839.1	955.819	-29771.6	0.000000	0.000000	6.690942	-0.005601	NaN	0.000000	0.001559	0.001692	28.1299	0.108865	0.001966	55.3634	-113.878	175.849	0.009534	0.689759	-0.362980	-0.364228	-0.005601	55.3634	-0.362904	-39246.5	1.427247E-7	NaN
144	1.000000	0.699020	7.36645e+06	-45839.1	955.818	-29771.6	0.000000	0.000000	6.698954	-0.025502	NaN	0.000000	0.001587	0.001696	28.1298	0.043514	0.002003	21.7255	-174.3	176.253	-0.039859	0.697733	-0.354967	-0.356254	-0.025502	21.7255	-0.354087	-29259.6	8.715623E-7	NaN
144	1.000000	0.707011	7.36645e+06	-45839.1	955.818	-29771.6	0.000000	0.000000	6.706947	0.025870	NaN	0.000000	0.001605	0.001710	28.1298	0.135079	0.002046	66.0074	169.704	177.085	-0.093535	0.705740	-0.346976	-0.348247	0.025870	66.0074	-0.347270	-23300.2	-1.110302E-6	NaN
144	1.000000	0.715035	7.36645e+06	-45839.1	955.818	-29771.6	0.000000	0.000000	6.714972	0.033538	NaN	0.000000	0.001592	0.001704	28.1301	0.117490	0.001887	62.2697	-68.3314	176.174	0.020925	0.713742	-0.338952	-0.340244	0.033538	62.2697	-0.339356	-17871.8	-1.876582E-6	NaN
144	1.000000	0.723040	7.36645e+06	-45839.1	955.819	-29771.6	0.000000	0.000000	6.722976	0.011756	NaN	0.000000	0.001582	0.001682	28.1303	0.162038	0.001971	82.2297	-99.9817	170.742	-0.028756	0.721684	-0.330947	-0.332303	0.011756	82.2297	-0.331054	-13517	-8.696937E-7	NaN
144	1.000000	0.731015	7.36645e+06	-45839.1	955.818	-29771.6	0.000000	0.000000	6.730953	0.059405	NaN	0.000000	0.001582	0.001689	28.1292	0.030568	0.002072	14.7533	14.035	176.695	-0.071396	0.729706	-0.322972	-0.324281	0.059405	14.7533	-0.325992	-11394.6	-5.213457E-6	NaN
144	1.000000	0.739062	7.36645e+06	-45839.1	955.819	-29771.6	0.000000	0.000000	6.739000	0.050920	NaN	0.000000	0.001587	0.001694	28.1287	0.021831	0.002023	10.79	-124.676	178.864	0.031976	0.737752	-0.314925	-0.316235	0.050920	10.79	-0.318464	-8831.21	-5.765874E-6	NaN
144	1.000000	0.747046	7.36645e+06	-45839.1	955.818	-29771.6	0.000000	0.000000	6.746980	-0.034708	NaN	0.000000	0.001599	0.001694	28.1288	0.016738	0.001933	8.659850	124.748	174.823	-0.016782	0.745708	-0.306941	-0.308279	-0.034708	8.659850	-0.303935	-5384.46	6.445897E-6	NaN
144	1.000000	0.755041	7.36645e+06	-45839.1	955.818	-29771.6	0.000000	0.000000	6.754980	0.092515	NaN	0.000000	0.001638	0.001679	28.1291	0.004204	0.002060	2.041288	-125.652	178.926	-0.007245	0.753741	-0.298946	-0.300246	0.092515	2.041288	-0.332937	-14402.5	-6.423515E-6	NaN
144	1.000000	0.763031	7.36645e+06	-45839.1	955.818	-29771.6	0.000000	0.000000	6.762964	-0.044998	NaN	0.000000	0.001615	0.001652	28.1293	0.047057	0.001979	23.7759	8.154403	178.256	-0.026284	0.761702	-0.290956	-0.292285	-0.044998	23.7759	-0.289537	-3283.71	1.370347E-5	NaN
144	1.000000	0.771049	7.36645e+06	-45839.1	955.818	-29771.6	0.000000	0.000000	6.770981	-0.090874	NaN	0.000000	0.001635	0.001690	28.1302	0.154651	0.002062	75.0013	-152.531	176.607	-0.029624	0.769709	-0.282938	-0.284278	-0.090874	75.0013	-0.282029	-2532.56	3.588240E-5	NaN
144	1.000000	0.779017	7.36645e+06	-45839.1	955.818	-29771.6	0.000000	0.000000	6.778954	0.033847	NaN	0.000000	0.001635	0.001711	28.1299	0.125470	0.001992	62.9995	174.98	179.144	0.056923	0.777702	-0.274970	-0.276285	0.033847	62.9995	-0.275373	-2009.3	-1.684537E-5	NaN
144	1.000000	0.787076	7.36645e+06	-45839.1	955.819	-29771.6	0.000000	0.000000	6.787012	0.005974	NaN	0.000000	0.001644	0.001707	28.13	0.053376	0.001951	27.3621	149.165	177.148	-0.012853	0.785739	-0.266911	-0.268248	0.005974	27.3621	-0.267075	-1503.22	-3.973938E-6	NaN
144	1.000000	0.795046	7.36645e+06	-45839.1	955.818	-29771.6	0.000000	0.000000	6.794982	0.001279	NaN	0.000000	0.001638	0.001699	28.1299	0.046895	0.002078	22.5633	-50.6872	177.647	0.007668	0.793731	-0.258941	-0.260256	0.001279	22.5633	-0.258983	-1130.64	-1.131655E-6	NaN
144	1.000000	0.803078	7.36645e+06	-45839.1	955.819	-29771.6	0.000000	0.000000	6.803012	-0.043238	NaN	0.000000	0.001624	0.001673	28.13	0.106524	0.001854	57.4502	-112.831	177.059	-0.021996	0.801776	-0.250909	-0.252211	-0.043238	57.4502	-0.250345	-832.331	5.194784E-5	NaN
144	1.000000	0.811046	7.36645e+06	-45839.1	955.819	-29771.6	0.000000	0.000000	6.810983	0.026905	NaN	0.000000	0.001584	0.001667	28.1288	0.052689	0.001906	27.6489	-70.8963	-178.863	0.098991	0.809788	-0.242941	-0.244199	0.026905	27.6489	-0.243671	-655.809	-4.102488E-5	NaN
144	1.000000	0.819056	7.36645e+06	-45839.1	955.818	-29771.6	0.000000	0.000000	6.818992	0.018809	NaN	0.000000	0.001570	0.001672	28.13	0.023782	0.002003	11.872	-174.106	174.944	0.088465	0.817765	-0.234931	-0.236222	0.018809	11.872	-0.236119	-499.824	-3.763061E-5	NaN
144	1.000000	0.827105	7.36645e+06	-45839.1	955.818	-29771.6	0.000000	0.000000	6.827042	0.034770	NaN	0.000000	0.001582	0.001699	28.1304	0.078163	0.001879	41.6039	95.6408	178.88	0.049019	0.825805	-0.226882	-0.228182	0.034770	41.6039	-0.227509	-365.699	-9.507916E-5	NaN
144	1.000000	0.835074	7.36645e+06	-45839.1	955.819	-29771.6	0.000000	0.000000	6.835010	0.009061	NaN	0.000000	0.001559	0.001665	28.1303	0.139684	0.001917	72.8623	166.034	-179.799	-0.027011	0.833743	-0.218913	-0.220244	0.009061	72.8623	-0.219006	-267.784	-3.383860E-5	NaN
144	1.000000	0.843089	7.36645e+06	-45839.1	955.818	-29771.6	0.000000	0.000000	6.843023	-0.023130	NaN	0.000000	0.001560	0.001686	28.13	0.008349	0.001998	4.178367	-130.348	174.268	-0.051777	0.841755	-0.210898	-0.212231	-0.023130	4.178367	-0.206747	-169.829	0.000136	NaN
144	1.000000	0.851087	7.36645e+06	-45839.1	955.818	-29771.6	0.000000	0.000000	6.851025	0.060850	NaN	0.000000	0.001586	0.001688	28.1313	0.028182	0.002057	13.7016	16.1125	177.224	0.060510	0.849724	-0.202900	-0.204263	0.060850	13.7016	-0.206230	-166.574	-0.000365	NaN
144	1.000000	0.859068	7.36645e+06	-45839.1	955.818	-29771.6	0.000000	0.000000	6.859004	0.021292	NaN	0.000000	0.001587	0.001699	28.1312	0.089762	0.001886	47.5983	161.906	177.878	0.016125	0.857771	-0.194919	-0.196216	0.021292	47.5983	-0.195254	-110.006	-0.000194	NaN
144	1.000000	0.867102	7.36645e+06	-45839.1	955.819	-29771.6	0.000000	0.000000	6.867040	0.060922	NaN	0.000000	0.001529	0.001714	28.1313	0.086729	0.002110	41.1135	166.368	177.915	0.065329	0.865775	-0.186885	-0.188211	0.060922	41.1135	-0.187997	-83.2725	-0.000732	NaN
144	1.000000	0.875078	7.36645e+06	-45839.1	955.818	-29771.6	0.000000	0.000000	6.875012	-0.048360	NaN	0.000000	0.001587	0.001733	28.131	0.067602	0.002101	32.1827	-164.767	175.802	-0.062323	0.873795	-0.178908	-0.180192	-0.048360	32.1827	-0.177781	-55.9295	0.000865	NaN
144	1.000000	0.883093	7.36645e+06	-45839.1	955.818	-29771.6	0.000000	0.000000	6.883029	0.029815	NaN	0.000000	0.001592	0.001669	28.1313	0.015045	0.002018	7.455699	-175.358	-179.977	0.068540	0.881746	-0.170894	-0.172241	0.029815	7.455699	-0.173893	-47.9672	-0.000622	NaN
144	1.000000	0.891092	7.36645e+06	-45839.1	955.818	-29771.6	0.000000	0.000000	6.891027	-0.009159	NaN	0.000000	0.001608	0.001657	28.1301	0.037540	0.002063	18.196	-134.911	174.938	-0.086523	0.889819	-0.162895	-0.164168	-0.009159	18.196	-0.162518	-30.3802	0.000301	NaN
144	1.000000	0.899101	7.36645e+06	-45839.1	955.818	-29771.6	0.000000	0.000000	6.899040	0.078692	NaN	0.000000	0.001588	0.001673	28.1304	0.085587	0.002040	41.9592	96.4478	174.898	-0.045722	0.897750	-0.154886	-0.156236	0.078692	41.9592	-0.156292	-23.5394	-0.003343	NaN
144	1.000000	0.907123	7.36645e+06	-45839.1	955.818	-29771.6	0.000000	0.000000	6.907058	-0.014037	NaN	0.000000	0.001603	0.001667	28.1303	0.073966	0.002088	35.4276	146.492	177.736	0.059183	0.905822	-0.146864	-0.148165	-0.014037	35.4276	-0.146567	-15.6706	0.000896	NaN
144	1.000000	0.915114	7.36645e+06	-45839.1	955.818	-29771.6	0.000000	0.000000	6.915052	0.062474	NaN	0.000000	0.001585	0.001665	28.1304	0.061917	0.001975	31.3509	-63.6301	177.506	0.043346	0.913790	-0.138873	-0.140197	0.062474	31.3509	-0.140367	-12.0187	-0.005198	NaN
144	1.000000	0.923105	7.36645e+06	-45839.1	955.818	-29771.6	0.000000	0.000000	6.923042	0.034803	NaN	0.000000	0.001589	0.001658	28.1302	0.147883	0.001961	75.3983	-22.2299	173.872	0.091316	0.921820	-0.130882	-0.132167	0.034803	75.3983	-0.131228	-8.050432	-0.004323	NaN
144	1.000000	0.931140	7.36645e+06	-45839.1	955.818	-29771.6	0.000000	0.000000	6.931076	0.002810	NaN	0.000000	0.001592	0.001701	28.1316	0.067205	0.001849	36.3497	88.9446	176.178	0.012187	0.929759	-0.122847	-0.124228	0.002810	36.3497	-0.122905	-5.525379	-0.000509	NaN
144	1.000000	0.939119	7.36645e+06	-45839.1	955.819	-29771.6	0.000000	0.000000	6.939054	-0.013684	NaN	0.000000	0.001563	0.001753	28.1315	0.057095	0.001999	28.5678	-89.6766	177.115	-0.103433	0.937828	-0.114868	-0.116159	-0.013684	28.5678	-0.114509	-3.732244	0.003667	NaN
144	1.000000	0.947122	7.36645e+06	-45839.1	955.819	-29771.6	0.000000	0.000000	6.947058	0.009904	NaN	0.000000	0.001576	0.001730	28.1317	0.076210	0.002054	37.1038	97.853	177.795	-0.008304	0.945784	-0.106865	-0.108203	0.009904	37.1038	-0.107065	-2.603529	-0.003804	NaN
144	1.000000	0.955149	7.36645e+06	-45839.1	955.818	-29771.6	0.000000	0.000000	6.955087	0.051655	NaN	0.000000	0.001600	0.001712	28.13	0.072613	0.002061	35.2263	-155.999	177.311	-0.033711	0.953848	-0.098838	-0.100139	0.051655	35.2263	-0.099938	-1.821333	-0.028361	NaN
144	1.000000	0.963136	7.36645e+06	-45839.1	955.819	-29771.6	0.000000	0.000000	6.963073	0.042337	NaN	0.000000	0.001612	0.001695	28.1306	0.123397	0.001920	64.2656	-139.614	176.824	0.033020	0.961794	-0.090851	-0.092193	0.042337	64.2656	-0.091345	-1.162110	-0.036431	NaN
144	1.000000	0.971112	7.36645e+06	-45839.1	955.819	-29771.6	0.000000	0.000000	6.971046	-0.043060	NaN	0.000000	0.001643	0.001669	28.1289	0.077322	0.001936	39.9396	-88.1401	177.889	-0.064048	0.969781	-0.082875	-0.084206	-0.043060	39.9396	-0.082066	-0.696627	0.061812	NaN
144	1.000000	0.979121	7.36645e+06	-45839.1	955.818	-29771.6	0.000000	0.000000	6.979059	0.067472	NaN	0.000000	0.001668	0.001720	28.1291	0.095585	0.001934	49.4286	20.0633	176.586	0.058664	0.977822	-0.074866	-0.076165	0.067472	49.4286	-0.075890	-0.486925	-0.138567	NaN
144	1.000000	0.987170	7.36645e+06	-45839.1	955.818	-29771.6	0.000000	0.000000	6.987106	0.021710	NaN	0.000000	0.001669	0.001711	28.129	0.023477	0.001926	12.1881	-75.448	176.704	0.080426	0.985817	-0.066817	-0.068170	0.021710	12.1881	-0.068153	-0.304153	-0.071379	NaN
144	1.000000	0.995159	7.36645e+06	-45839.1	955.818	-29771.6	0.000000	0.000000	6.995095	0.014957	NaN	0.000000	0.001693	0.001709	28.1286	0.098168	0.001961	50.0686	-59.4604	176.368	0.027062	0.993804	-0.058828	-0.060183	0.014957	50.0686	-0.059052	-0.169132	-0.088432	NaN
144	1.000000	1.003170	7.36645e+06	-45839.1	955.819	-29771.6	0.000000	0.000000	7.003108	0.069003	NaN	0.000000	0.001665	0.001697	28.1291	0.102815	0.002070	49.6802	-66.1343	173.031	0.054175	1.001828	-0.050817	-0.052159	0.069003	49.6802	-0.051859	-0.103813	-0.664688	NaN
144	1.000000	1.011165	7.36645e+06	-45839.1	955.818	-29771.6	0.000000	0.000000	7.011100	-0.001324	NaN	0.000000	0.001654	0.001695	28.1297	0.020831	0.002024	10.2898	-94.3971	179.224	0.071091	1.009896	-0.042822	-0.044091	-0.001324	10.2898	-0.042726	-0.054758	0.024182	NaN
144	1.000000	1.019134	7.36645e+06	-45839.1	955.818	-29771.6	0.000000	0.000000	7.019069	-0.015290	NaN	0.000000	0.001684	0.001725	28.1298	0.028023	0.001909	14.6826	-70.3255	174.731	-0.047408	1.017843	-0.034853	-0.036144	-0.015290	14.6826	-0.034072	-0.030080	0.508304	NaN
144	1.000000	1.027168	7.36645e+06	-45839.1	955.819	-29771.6	0.000000	0.000000	7.027105	0.043821	NaN	0.000000	0.001673	0.001679	28.1302	0.024016	0.002049	11.7204	123.236	179.043	0.066621	1.025817	-0.026819	-0.028170	0.043821	11.7204	-0.029623	-0.022464	-1.950732	NaN
144	1.000000	1.035155	7.36645e+06	-45839.1	955.818	-29771.6	0.000000	0.000000	7.035093	0.057716	NaN	0.000000	0.001660	0.001685	28.1301	0.029898	0.002094	14.2805	-36.2186	177.687	0.043352	1.033823	-0.018832	-0.020164	0.057716	14.2805	-0.021863	-0.014008	-4.120126	NaN
144	1.000000	1.043191	7.36645e+06	-45839.1	955.818	-29771.6	0.000000	0.000000	7.043129	0.071917	NaN	0.000000	0.001701	0.001690	28.13	0.015759	0.002138	7.369906	33.4997	176.458	0.080308	1.041828	-0.010796	-0.012159	0.071917	7.369906	-0.018115	-0.011239	-6.398642	NaN
144	1.000000	1.051156	7.36645e+06	-45839.1	955.818	-29771.6	0.000000	0.000000	7.051092	0.022893	NaN	0.000000	0.001713	0.001628	28.129	0.073352	0.002029	36.1458	-6.517137	174.679	0.002541	1.049845	-0.002831	-0.004142	0.022893	36.1458	-0.003306	-0.002324	-9.849586	NaN
144	1.000000	1.059123	7.36645e+06	-45839.1	955.818	-29771.6	0.000000	0.000000	7.059229	4.146891	NaN	0.000000	0.001681	0.001662	28.129	4.402594	0.001600	2752.21	9.945416	173.193	2.870902	1.057861	0.005136	0.003874	4.146891	2752.21	0.004006	0.003244	1278.13	44145
144	2.000000	1.064859	7.36645e+06	-45839.1	955.817	-29771.6	0.000000	0.000000	7.065168	9.083339	NaN	0.000000	0.001703	0.001671	28.1292	9.336681	0.001726	5409.84	6.532568	171.561	8.277533	1.064573	0.010872	0.010587	9.083339	5409.84	0.009613	0.008754	1037.58	52825.7
144	2.000000	1.066772	7.36645e+06	-45839.1	955.818	-29771.6	0.000000	0.000000	7.067203	12.0435	NaN	0.000000	0.001702	0.001694	28.1293	11.261	0.001757	6408.19	12.7765	163.828	11.2582	1.066422	0.012785	0.012435	12.0435	6408.19	0.011376	0.010751	1120.25	56466.3
144	2.000000	1.068724	7.36645e+06	-45839.1	955.818	-29771.6	0.000000	0.000000	7.069287	15.2604	NaN	0.000000	0.001696	0.001681	28.129	13.4704	0.001644	8191.28	3.894198	168.412	14.8018	1.068443	0.014737	0.014456	15.2604	8191.28	0.013340	0.013135	1161.84	65300.3
144	2.000000	1.070765	7.36645e+06	-45839.1	955.818	-29771.6	0.000000	0.000000	7.071458	18.4438	NaN	0.000000	0.001698	0.001724	28.1315	15.376	0.001921	8002.78	10.4763	163.499	17.7968	1.070466	0.016778	0.016479	18.4438	8002.78	0.015049	0.015351	1201.46	59012.5
144	2.000000	1.072751	7.36645e+06	-45839.1	955.819	-29771.6	0.000000	0.000000	7.073545	20.8877	NaN	0.000000	0.001671	0.001742	28.1314	17.141	0.001846	9287.28	5.955343	167.19	20.345	1.072367	0.018764	0.018380	20.8877	9287.28	0.017077	0.018155	1150.49	62973.5
144	2.000000	1.074795	7.36645e+06	-45839.1	955.819	-29771.6	0.000000	0.000000	7.075712	23.8738	NaN	0.000000	0.001725	0.001704	28.1314	19.0877	0.001996	9561	4.906730	169.497	23.5579	1.074431	0.020808	0.020444	23.8738	9561	0.018936	0.020897	1142.44	60427.1
144	2.000000	1.076731	7.36645e+06	-45839.1	955.817	-29771.6	0.000000	0.000000	7.077779	27.0391	NaN	0.000000	0.001708	0.001720	28.1311	20.6806	0.001951	10600.3	5.640515	166.426	25.0422	1.076344	0.022745	0.022357	27.0391	10600.3	0.020831	0.023866	1132.97	62690.9
144	2.000000	1.078732	7.36645e+06	-45839.1	955.818	-29771.6	0.000000	0.000000	7.079950	31.1974	NaN	0.000000	0.001711	0.001742	28.1313	22.6093	0.001647	13724	4.031183	165.145	30.5224	1.078368	0.024745	0.024381	31.1974	13724	0.023040	0.027546	1132.56	75548.3
144	2.000000	1.080729	7.36645e+06	-45839.1	955.817	-29771.6	0.000000	0.000000	7.082176	36.7737	NaN	0.000000	0.001685	0.001744	28.1304	24.2013	0.001784	13568.1	4.362689	164.749	36.8879	1.080425	0.026742	0.026438	36.7737	13568.1	0.024709	0.030488	1206.16	70994.9
144	2.000000	1.082759	7.36645e+06	-45839.1	955.818	-29771.6	0.000000	0.000000	7.084298	39.0096	NaN	0.000000	0.001686	0.001728	28.1303	26.4339	0.001795	14730.1	7.005067	162.673	39.3609	1.082346	0.028772	0.028359	39.0096	14730.1	0.026786	0.034345	1135.82	72618.6
144	2.000000	1.084721	7.36645e+06	-45839.1	955.818	-29771.6	0.000000	0.000000	7.086524	45.4181	NaN	0.000000	0.001595	0.001709	28.1303	28.0563	0.001745	16078.4	6.126935	162.84	45.2685	1.084396	0.030734	0.030409	45.4181	16078.4	0.028616	0.037924	1197.62	75432.9
144	2.000000	1.086670	7.36645e+06	-45839.1	955.819	-29771.6	0.000000	0.000000	7.088638	49.4633	NaN	0.000000	0.001631	0.001692	28.1296	29.7694	0.001742	17085.2	7.529897	159.152	48.9765	1.086444	0.032683	0.032457	49.4633	17085.2	0.030511	0.041810	1183.05	76340.3
144	2.000000	1.088729	7.36645e+06	-45839.1	955.817	-29771.6	0.000000	0.000000	7.090813	52.2698	NaN	0.000000	0.001626	0.001703	28.13	32.2922	0.001714	18836.5	6.503137	159.949	53.3574	1.088436	0.034742	0.034449	52.2698	18836.5	0.032661	0.046440	1125.54	79859.8
144	2.000000	1.090700	7.36645e+06	-45839.1	955.818	-29771.6	0.000000	0.000000	7.093026	58.1424	NaN	0.000000	0.001638	0.001745	28.1327	33.4636	0.001808	18512	6.572303	160.241	57.4584	1.090375	0.036713	0.036388	58.1424	18512	0.034357	0.050260	1156.83	75442
144	2.000000	1.092678	7.36645e+06	-45839.1	955.818	-29771.6	0.000000	0.000000	7.095333	66.162	NaN	0.000000	0.001624	0.001712	28.131	34.9908	0.001693	20666.3	3.792447	162.342	65.2536	1.092312	0.038691	0.038325	66.162	20666.3	0.036290	0.054792	1207.5	80663.2
144	2.000000	1.094705	7.36645e+06	-45839.1	955.818	-29771.6	0.000000	0.000000	7.097554	70.8792	NaN	0.000000	0.001636	0.001700	28.131	37.9176	0.001825	20776.5	5.124782	160.017	70.7585	1.094428	0.040718	0.040441	70.8792	20776.5	0.038160	0.059359	1194.09	77912.1
144	2.000000	1.096640	7.36645e+06	-45839.1	955.818	-29771.6	0.000000	0.000000	7.099823	79.0159	NaN	0.000000	0.001637	0.001722	28.1309	38.8761	0.001840	21126.6	2.650522	162.88	75.8074	1.096253	0.042653	0.042266	79.0159	21126.6	0.039847	0.063635	1241.71	76516.5
144	2.000000	1.098637	7.36645e+06	-45839.1	955.819	-29771.6	0.000000	0.000000	7.101966	82.5483	NaN	0.000000	0.001660	0.001725	28.1309	41.3432	0.001743	23716.6	3.905714	160.176	80.0524	1.098365	0.044650	0.044378	82.5483	23716.6	0.042039	0.069405	1189.37	82249.1
144	2.000000	1.100655	7.36645e+06	-45839.1	955.819	-29771.6	0.000000	0.000000	7.104265	89.3801	NaN	0.000000	0.001643	0.001723	28.131	41.6593	0.001668	24975.4	2.510080	160.635	86.9454	1.100332	0.046668	0.046345	89.3801	24975.4	0.043984	0.074730	1196.04	83471.5
144	2.000000	1.102670	7.36645e+06	-45839.1	955.818	-29771.6	0.000000	0.000000	7.106459	93.7338	NaN	0.000000	0.001642	0.001672	28.1296	46.7815	0.001882	24853.8	6.710475	157.445	91.87	1.102337	0.048683	0.048350	93.7338	24853.8	0.045855	0.080033	1171.19	80266
144	2.000000	1.104728	7.36645e+06	-45839.1	955.818	-29771.6	0.000000	0.000000	7.108841	101.612	NaN	0.000000	0.001621	0.001657	28.1287	49.348	0.001939	25444.1	7.437089	157.547	103.838	1.104293	0.050741	0.050306	101.612	25444.1	0.047746	0.085574	1187.42	79467.7
144	2.000000	1.106671	7.36645e+06	-45839.1	955.818	-29771.6	0.000000	0.000000	7.111136	110.197	NaN	0.000000	0.001618	0.001688	28.1283	50.5124	0.001887	26774.2	5.259996	158.013	110.63	1.106399	0.052684	0.052412	110.197	26774.2	0.049597	0.091171	1208.69	81014.2
144	2.000000	1.108730	7.36645e+06	-45839.1	955.819	-29771.6	0.000000	0.000000	7.113496	117.502	NaN	0.000000	0.001661	0.001691	28.1285	52.4905	0.001823	28796.3	3.808507	158.832	119.212	1.108306	0.054743	0.054319	117.502	28796.3	0.051683	0.097685	1202.87	84177.4
144	2.000000	1.110688	7.36645e+06	-45839.1	955.819	-29771.6	0.000000	0.000000	7.115981	130.311	NaN	0.000000	0.001624	0.001692	28.1297	52.983	0.001838	28828.6	5.511915	157.136	130.602	1.110343	0.056701	0.056356	130.311	28828.6	0.053311	0.102923	1266.1	82099.6
144	2.000000	1.112600	7.36645e+06	-45839.1	955.82	-29771.6	0.000000	0.000000	7.117836	128.935	NaN	0.000000	0.001631	0.001680	28.1292	54.9695	0.001769	31074.7	4.293647	158.006	124.746	1.112281	0.058613	0.058294	128.935	31074.7	0.055501	0.110171	1170.31	85535.4
144	2.000000	1.114678	7.36645e+06	-45839.1	955.82	-29771.6	0.000000	0.000000	7.120527	143.859	NaN	0.000000	0.001655	0.001705	28.1295	56.6257	0.001722	32888.8	3.333334	158.151	141.056	1.114220	0.060691	0.060233	143.859	32888.8	0.057410	0.116685	1232.88	87965.7
144	2.000000	1.116712	7.36645e+06	-45839.1	955.819	-29771.6	0.000000	0.000000	7.122831	150.415	NaN	0.000000	0.001632	0.001709	28.1299	59.0824	0.001806	32707.5	6.162484	154.664	151.001	1.116373	0.062725	0.062386	150.415	32707.5	0.059276	0.123225	1220.66	85128
144	2.000000	1.118649	7.36645e+06	-45839.1	955.819	-29771.6	0.000000	0.000000	7.125159	159.931	NaN	0.000000	0.001675	0.001712	28.1297	61.5451	0.001893	32508.7	6.476872	154.604	158.931	1.118445	0.064662	0.064458	159.931	32508.7	0.060972	0.129318	1236.73	82593
144	2.000000	1.120716	7.36645e+06	-45839.1	955.818	-29771.6	0.000000	0.000000	7.127926	176.946	NaN	0.000000	0.001648	0.001710	28.128	62.0305	0.001897	32699.7	5.386208	156.792	181.81	1.120225	0.066729	0.066238	176.946	32699.7	0.062671	0.135559	1305.31	81143.4
144	2.000000	1.122657	7.36645e+06	-45839.1	955.819	-29771.6	0.000000	0.000000	7.130094	182.48	NaN	0.000000	0.001642	0.001701	28.1281	63.6614	0.001809	35185.1	3.784996	157.595	180.097	1.122410	0.068670	0.068423	182.48	35185.1	0.064780	0.143506	1271.58	84858.9
144	2.000000	1.124669	7.36645e+06	-45839.1	955.82	-29771.6	0.000000	0.000000	7.132594	194.34	NaN	0.000000	0.001628	0.001708	28.1287	65.4248	0.001878	34837.2	6.139827	156.287	192.861	1.124189	0.070682	0.070202	194.34	34837.2	0.066499	0.150137	1294.42	82143.3
144	2.000000	1.126643	7.36645e+06	-45839.1	955.819	-29771.6	0.000000	0.000000	7.134981	204.41	NaN	0.000000	0.001600	0.001735	28.1284	66.5644	0.001693	39322.5	4.863762	155.073	202.323	1.126267	0.072656	0.072280	204.41	39322.5	0.068757	0.159069	1285.04	90078.7
144	2.000000	1.128729	7.36645e+06	-45839.1	955.819	-29771.6	0.000000	0.000000	7.137441	213.498	NaN	0.000000	0.001613	0.001730	28.1283	71.5687	0.001911	37451.1	5.962761	154.412	214.917	1.128295	0.074742	0.074308	213.498	37451.1	0.070466	0.165990	1286.21	83983.9
144	2.000000	1.130612	7.36645e+06	-45839.1	955.819	-29771.6	0.000000	0.000000	7.139706	222.797	NaN	0.000000	0.001563	0.001726	28.1293	71.9881	0.001774	40568.4	6.884357	152.323	221.695	1.130331	0.076625	0.076344	222.797	40568.4	0.072506	0.174432	1277.27	88745.8
144	2.000000	1.132532	7.36645e+06	-45839.1	955.819	-29771.6	0.000000	0.000000	7.141877	228.896	NaN	0.000000	0.001580	0.001743	28.1295	74.5979	0.001897	39317.5	5.591539	154.387	224.065	1.132203	0.078545	0.078216	228.896	39317.5	0.074179	0.181501	1261.13	84317.9
144	2.000000	1.134640	7.36645e+06	-45839.1	955.819	-29771.6	0.000000	0.000000	7.144594	243.708	NaN	0.000000	0.001565	0.001732	28.1293	76.7567	0.001846	41579.2	8.714644	150.478	242.34	1.134343	0.080653	0.080356	243.708	41579.2	0.076257	0.190467	1279.53	87044.2
144	2.000000	1.136636	7.36645e+06	-45839.1	955.819	-29771.6	0.000000	0.000000	7.147057	255.092	NaN	0.000000	0.001585	0.001707	28.13	77.1227	0.001835	42025.9	5.752272	153.542	252.497	1.136223	0.082649	0.082236	255.092	42025.9	0.078096	0.198573	1284.63	86165
144	2.000000	1.138630	7.36645e+06	-45839.1	955.819	-29771.6	0.000000	0.000000	7.149230	259.44	NaN	0.000000	0.001562	0.001679	28.131	79.4251	0.001843	43092.7	3.730774	155.681	258.685	1.138289	0.084643	0.084302	259.44	43092.7	0.080127	0.207707	1249.07	86387.6
144	2.000000	1.140610	7.36645e+06	-45839.1	955.819	-29771.6	0.000000	0.000000	7.151803	273.85	NaN	0.000000	0.001550	0.001701	28.1295	80.959	0.001939	41742.6	7.147947	152.132	272.996	1.140307	0.086623	0.086320	273.85	41742.6	0.081703	0.214923	1274.18	82264.2
144	2.000000	1.142616	7.36645e+06	-45839.1	955.819	-29771.6	0.000000	0.000000	7.154106	281.074	NaN	0.000000	0.001554	0.001674	28.1294	82.8999	0.001751	47344	6.465249	151.614	282.141	1.142282	0.088629	0.088295	281.074	47344	0.084177	0.226489	1241.01	90889.6
144	2.000000	1.144614	7.36645e+06	-45839.1	955.819	-29771.6	0.000000	0.000000	7.156813	298.316	NaN	0.000000	0.001555	0.001695	28.1294	83.956	0.001798	46698	4.188317	154.993	294.823	1.144240	0.090627	0.090253	298.316	46698	0.085836	0.234404	1272.65	88122.8
144	2.000000	1.146593	7.36645e+06	-45839.1	955.818	-29771.6	0.000000	0.000000	7.159110	306.078	NaN	0.000000	0.001534	0.001685	28.1295	85.8739	0.001720	49918.3	4.048412	153.292	304.026	1.146410	0.092606	0.092423	306.078	49918.3	0.088007	0.244954	1249.53	92149.1
144	2.000000	1.148612	7.36645e+06	-45839.1	955.819	-29771.6	0.000000	0.000000	7.161552	316.361	NaN	0.000000	0.001532	0.001680	28.1299	88.8834	0.001799	49405.9	4.978693	152.813	315.497	1.148416	0.094625	0.094429	316.361	49405.9	0.089822	0.253942	1245.8	89574.6
144	2.000000	1.150598	7.36645e+06	-45839.1	955.818	-29771.6	0.000000	0.000000	7.164099	329.996	NaN	0.000000	0.001549	0.001655	28.1307	90.1318	0.001861	48420.9	4.837221	152.866	325.721	1.150284	0.096611	0.096297	329.996	48420.9	0.091500	0.262379	1257.7	86365.7
144	2.000000	1.152563	7.36645e+06	-45839.1	955.819	-29771.6	0.000000	0.000000	7.166520	341.092	NaN	0.000000	0.001532	0.001702	28.1305	91.2644	0.001784	51170.7	3.100815	153.957	336.731	1.152392	0.098576	0.098405	341.092	51170.7	0.093576	0.273006	1249.39	89476.5
144	2.000000	1.154645	7.36645e+06	-45839.1	955.82	-29771.6	0.000000	0.000000	7.169417	360.899	NaN	0.000000	0.001564	0.001675	28.1306	92.8577	0.001728	53733.4	5.986970	151.308	360.027	1.154206	0.100658	0.100219	360.899	53733.4	0.095621	0.283659	1272.3	92176.4
144	2.000000	1.156525	7.36645e+06	-45839.1	955.819	-29771.6	0.000000	0.000000	7.171492	365.657	NaN	0.000000	0.001540	0.001680	28.1305	94.2875	0.001847	51058.6	3.597059	153.799	361.581	1.156427	0.102538	0.102440	365.657	51058.6	0.097167	0.291841	1252.93	86351.4
144	2.000000	1.158635	7.36645e+06	-45839.1	955.82	-29771.6	0.000000	0.000000	7.174631	390.684	NaN	0.000000	0.001517	0.001696	28.1305	97.1747	0.001800	53985.4	4.128020	153.275	390.336	1.158353	0.104648	0.104366	390.684	53985.4	0.099221	0.302880	1289.89	89621.8
144	2.000000	1.160576	7.36645e+06	-45839.1	955.819	-29771.6	0.000000	0.000000	7.176970	400.348	NaN	0.000000	0.001506	0.001708	28.1293	96.814	0.001764	54895.8	2.745990	154.341	395.549	1.160347	0.106590	0.106360	400.348	54895.8	0.101120	0.313259	1278.01	89611
144	2.000000	1.162617	7.36645e+06	-45839.1	955.818	-29771.6	0.000000	0.000000	7.179811	419.825	NaN	0.000000	0.001524	0.001693	28.1295	101.04	0.001749	57769.6	6.342914	150.865	419.545	1.162084	0.108630	0.108097	419.825	57769.6	0.103180	0.324701	1292.96	92625.5