File: remote_trans/data/nanoindenter/0828-1/data/Data_2025-08-06,11h17m57s/2025-07-22_16-23-58_1_1173.txt
2025-07-22, 16:23:58, 1
Index	Phase	Displacement	Time	Pos X	Pos Y	Pos Z	Rot A	Rot B	Piezo Z	Force A	Force B	Gripper	Voltage A	Voltage B	Temperature	Amplitude force	Amplitude pos	Stiffness	Phase shift	Phase excitation	Force A raw	Displacement raw	HMax	HMax raw	Real Force	Real Stiffness	Contact Depth	Area	Hardness	Reduced Mod.
[#]	[#]	[um]	[s]	[um]	[um]	[um]	[m°]	[m°]	[um]	[uN]	[uN]	[V]	[V]	[V]	[°C]	[uN]	[um]	[N/m]	[°]	[°]	[uN]	[um]	[um]	[um]	[uN]	[N/m]	[um]	[um^2]	[MPa]	[MPa]
1173	1.000000	0.002863	7.37652e+06	-56939.1	1105.82	-29737.7	0.000000	0.000000	6.002807	-0.056728	NaN	0.000000	0.001600	0.001762	28.0808	0.112811	0.001009	111.764	-165.472	-167.122	-0.018291	0.001586	-1.042381	-1.043657	-0.056728	111.764	-1.042000	-8.334086E+13	6.806779E-16	NaN
1173	1.000000	0.010824	7.37652e+06	-56939.1	1105.82	-29737.7	0.000000	0.000000	6.010771	0.013405	NaN	0.000000	0.001573	0.001771	28.0805	0.062332	0.000879	70.8906	33.9179	-167.243	0.048929	0.009541	-1.034419	-1.035702	0.013405	70.8906	-1.034561	-6.619557E+13	-2.025066E-16	NaN
1173	1.000000	0.018804	7.37652e+06	-56939.1	1105.82	-29737.7	0.000000	0.000000	6.018748	-0.053244	NaN	0.000000	0.001606	0.001753	28.0808	0.127785	0.001638	78.0241	5.432347	-164.292	-0.010721	0.017491	-1.026440	-1.027752	-0.053244	78.0241	-1.025928	-5.066429E+13	1.050914E-15	NaN
1173	1.000000	0.026876	7.37652e+06	-56939.1	1105.82	-29737.7	0.000000	0.000000	6.026824	0.041711	NaN	0.000000	0.001599	0.001777	28.0809	0.072737	0.001879	38.709	-142.201	-166.914	0.014851	0.025535	-1.018367	-1.019708	0.041711	38.709	-1.019176	-4.110167E+13	-1.014820E-15	NaN
1173	1.000000	0.034800	7.37652e+06	-56939.1	1105.82	-29737.7	0.000000	0.000000	6.034746	-0.006595	NaN	0.000000	0.001573	0.001741	28.0809	0.072119	0.001893	38.1	1.794903	-166.263	0.012498	0.033519	-1.010443	-1.011724	-0.006595	38.1	-1.010314	-3.123227E+13	2.111628E-16	NaN
1173	1.000000	0.042786	7.37652e+06	-56939.1	1105.82	-29737.7	0.000000	0.000000	6.042735	0.052235	NaN	0.000000	0.001603	0.001702	28.0814	0.057704	0.002039	28.2944	-94.0682	-160.611	-0.049961	0.041465	-1.002457	-1.003778	0.052235	28.2944	-1.003841	-2.555538E+13	-2.044008E-15	NaN
1173	1.000000	0.050786	7.37652e+06	-56939.1	1105.82	-29737.7	0.000000	0.000000	6.050734	0.020598	NaN	0.000000	0.001613	0.001776	28.0809	0.070208	0.002047	34.3056	55.8231	-167.299	0.117206	0.049535	-0.994457	-0.995708	0.020598	34.3056	-0.994907	-1.937302E+13	-1.063213E-15	NaN
1173	1.000000	0.058792	7.37652e+06	-56939.1	1105.82	-29737.7	0.000000	0.000000	6.058739	-0.000580	NaN	0.000000	0.001576	0.001799	28.0811	0.038499	0.001998	19.2702	-33.1604	-164.551	0.001891	0.057462	-0.986451	-0.987781	-0.000580	19.2702	-0.986428	-1.489380E+13	3.893679E-17	NaN
1173	1.000000	0.066816	7.37652e+06	-56939.1	1105.82	-29737.7	0.000000	0.000000	6.066761	-0.042222	NaN	0.000000	0.001613	0.001795	28.081	0.111778	0.001924	58.1066	-74.3591	-163.846	0.033947	0.065507	-0.978427	-0.979737	-0.042222	58.1066	-0.977882	-1.142548E+13	3.695435E-15	NaN
1173	1.000000	0.074797	7.37652e+06	-56939.1	1105.82	-29737.7	0.000000	0.000000	6.074744	-0.004435	NaN	0.000000	0.001596	0.001797	28.0809	0.084627	0.002033	41.6238	55.6192	-163.456	0.043986	0.073502	-0.970446	-0.971741	-0.004435	41.6238	-0.970366	-9.048891E+12	4.900818E-16	NaN
1173	1.000000	0.082807	7.37652e+06	-56939.1	1105.82	-29737.7	0.000000	0.000000	6.082753	-0.011011	NaN	0.000000	0.001565	0.001783	28.0813	0.031953	0.002048	15.6019	-146.156	-162.412	0.080610	0.081525	-0.962436	-0.963718	-0.011011	15.6019	-0.961907	-6.959496E+12	1.582131E-15	NaN
1173	1.000000	0.090838	7.37652e+06	-56939.1	1105.82	-29737.7	0.000000	0.000000	6.090785	0.020434	NaN	0.000000	0.001557	0.001763	28.0808	0.186983	0.002069	90.3777	18.9387	-163.62	-0.019068	0.089502	-0.954405	-0.955741	0.020434	90.3777	-0.954575	-5.542728E+12	-3.686661E-15	NaN
1173	1.000000	0.098845	7.37652e+06	-56939.1	1105.82	-29737.7	0.000000	0.000000	6.098791	-0.015483	NaN	0.000000	0.001590	0.001753	28.0815	0.141382	0.001996	70.8488	-79.715	-164.185	0.010658	0.097467	-0.946398	-0.947776	-0.015483	70.8488	-0.946234	-4.277916E+12	3.619282E-15	NaN
1173	1.000000	0.106817	7.37652e+06	-56939.1	1105.82	-29737.7	0.000000	0.000000	6.106763	-0.029761	NaN	0.000000	0.001555	0.001756	28.0822	0.071324	0.002072	34.4278	102.393	-166.663	0.017288	0.105427	-0.938426	-0.939816	-0.029761	34.4278	-0.937778	-3.289663E+12	9.046935E-15	NaN
1173	1.000000	0.114828	7.37652e+06	-56939.1	1105.82	-29737.7	0.000000	0.000000	6.114774	-0.016402	NaN	0.000000	0.001536	0.001741	28.0823	0.104041	0.002095	49.6562	177.324	-163.667	-0.016624	0.113544	-0.930415	-0.931699	-0.016402	49.6562	-0.930168	-2.596930E+12	6.315790E-15	NaN
1173	1.000000	0.122840	7.37652e+06	-56939.1	1105.82	-29737.7	0.000000	0.000000	6.122791	0.089241	NaN	0.000000	0.001549	0.001749	28.0822	0.091756	0.001866	49.1685	-143.799	-165.718	0.026503	0.121530	-0.922403	-0.923713	0.089241	49.1685	-0.923764	-2.128259E+12	-4.193131E-14	NaN
1173	1.000000	0.130850	7.37652e+06	-56939.1	1105.82	-29737.7	0.000000	0.000000	6.130796	-0.027485	NaN	0.000000	0.001562	0.001764	28.0821	0.047425	0.001923	24.6663	98.1098	-162.973	-0.055510	0.129516	-0.914393	-0.915727	-0.027485	24.6663	-0.913557	-1.549561E+12	1.773748E-14	NaN
1173	1.000000	0.138829	7.37652e+06	-56939.1	1105.82	-29737.7	0.000000	0.000000	6.138776	0.003587	NaN	0.000000	0.001554	0.001743	28.0822	0.027932	0.001931	14.4652	41.4349	-166.641	-0.007392	0.137563	-0.906414	-0.907681	0.003587	14.4652	-0.906600	-1.248048E+12	-2.873919E-15	NaN
1173	1.000000	0.146843	7.37652e+06	-56939.1	1105.82	-29737.7	0.000000	0.000000	6.146789	-0.009565	NaN	0.000000	0.001539	0.001783	28.0823	0.003316	0.001959	1.692528	-11.5188	-164.879	-0.020619	0.145552	-0.898400	-0.899691	-0.009565	1.692528	-0.894162	-8.475589E+11	1.128518E-14	NaN
1173	1.000000	0.154851	7.37652e+06	-56939.1	1105.82	-29737.7	0.000000	0.000000	6.154798	0.014153	NaN	0.000000	0.001537	0.001754	28.0822	0.070380	0.002023	34.787	-17.5411	-169.275	0.046029	0.153545	-0.890392	-0.891698	0.014153	34.787	-0.890698	-7.609303E+11	-1.860007E-14	NaN
1173	1.000000	0.162841	7.37652e+06	-56939.1	1105.82	-29737.7	0.000000	0.000000	6.162790	0.077789	NaN	0.000000	0.001558	0.001717	28.0822	0.074693	0.001940	38.4928	-60.22	-166.569	0.064906	0.161550	-0.882403	-0.883694	0.077789	38.4928	-0.883918	-6.161571E+11	-1.262478E-13	NaN
1173	1.000000	0.170880	7.37652e+06	-56939.1	1105.82	-29737.7	0.000000	0.000000	6.170829	0.051151	NaN	0.000000	0.001534	0.001757	28.0824	0.129352	0.001993	64.9114	26.5624	-164.517	-0.024643	0.169595	-0.874363	-0.875648	0.051151	64.9114	-0.874954	-4.660802E+11	-1.097481E-13	NaN
1173	1.000000	0.178857	7.37652e+06	-56939.1	1105.82	-29737.7	0.000000	0.000000	6.178802	-0.032214	NaN	0.000000	0.001552	0.001740	28.0822	0.058737	0.001998	29.3997	109.142	-165.422	-0.053161	0.177541	-0.866387	-0.867703	-0.032214	29.3997	-0.865565	-3.478820E+11	9.260118E-14	NaN
1173	1.000000	0.186872	7.37652e+06	-56939.1	1105.82	-29737.7	0.000000	0.000000	6.186817	-0.029354	NaN	0.000000	0.001554	0.001730	28.0821	0.037427	0.002066	18.12	179.96	-164.145	-0.022457	0.185534	-0.858371	-0.859709	-0.029354	18.12	-0.857156	-2.676866E+11	1.096570E-13	NaN
1173	1.000000	0.194843	7.37652e+06	-56939.1	1105.82	-29737.7	0.000000	0.000000	6.194791	0.040586	NaN	0.000000	0.001569	0.001728	28.0819	0.041086	0.002077	19.7792	83.4834	-166.872	0.009724	0.193556	-0.850400	-0.851688	0.040586	19.7792	-0.851939	-2.275067E+11	-1.783932E-13	NaN
1173	1.000000	0.202858	7.37652e+06	-56939.1	1105.82	-29737.7	0.000000	0.000000	6.202802	-0.048718	NaN	0.000000	0.001535	0.001762	28.0819	0.105637	0.002057	51.3426	9.715193	-168.207	-0.005836	0.201583	-0.842386	-0.843660	-0.048718	51.3426	-0.841674	-1.651843E+11	2.949326E-13	NaN
1173	1.000000	0.210882	7.37652e+06	-56939.1	1105.82	-29737.7	0.000000	0.000000	6.210826	-0.068541	NaN	0.000000	0.001584	0.001732	28.082	0.032090	0.001937	16.5642	-132.083	-165.167	-0.071317	0.209558	-0.834361	-0.835685	-0.068541	16.5642	-0.831257	-1.193516E+11	5.742756E-13	NaN
1173	1.000000	0.218872	7.37652e+06	-56939.1	1105.82	-29737.7	0.000000	0.000000	6.218817	-0.037621	NaN	0.000000	0.001558	0.001748	28.0819	0.043495	0.001987	21.893	58.2612	-162.932	-0.007288	0.217578	-0.826371	-0.827665	-0.037621	21.893	-0.825082	-9.842854E+10	3.822149E-13	NaN
1173	1.000000	0.226869	7.37652e+06	-56939.1	1105.82	-29737.7	0.000000	0.000000	6.226813	-0.063140	NaN	0.000000	0.001564	0.001728	28.0822	0.074829	0.002078	36.0152	-144.612	-165.729	-0.031538	0.225534	-0.818374	-0.819709	-0.063140	36.0152	-0.817059	-7.661746E+10	8.240967E-13	NaN
1173	1.000000	0.234854	7.37652e+06	-56939.1	1105.82	-29737.7	0.000000	0.000000	6.234801	0.024684	NaN	0.000000	0.001590	0.001726	28.0818	0.100463	0.002065	48.6621	138.417	-166.82	0.065560	0.233580	-0.810389	-0.811663	0.024684	48.6621	-0.810770	-6.295277E+10	-3.920989E-13	NaN
1173	1.000000	0.242877	7.37652e+06	-56939.1	1105.82	-29737.7	0.000000	0.000000	6.242822	-0.038589	NaN	0.000000	0.001580	0.001772	28.0805	0.056116	0.002037	27.5465	119.524	-161.157	-0.028474	0.241564	-0.802366	-0.803679	-0.038589	27.5465	-0.801316	-4.685122E+10	8.236428E-13	NaN
1173	1.000000	0.250853	7.37652e+06	-56939.1	1105.82	-29737.7	0.000000	0.000000	6.250800	-0.002930	NaN	0.000000	0.001576	0.001709	28.0805	0.086750	0.001956	44.3412	36.5556	-162.215	0.021250	0.249582	-0.794390	-0.795661	-0.002930	44.3412	-0.794340	-3.767250E+10	7.777347E-14	NaN
1173	1.000000	0.258912	7.37652e+06	-56939.1	1105.82	-29737.7	0.000000	0.000000	6.258860	0.015505	NaN	0.000000	0.001563	0.001750	28.0807	0.054729	0.001994	27.4491	20.2942	-163.58	0.064850	0.257595	-0.786331	-0.787648	0.015505	27.4491	-0.786755	-2.971673E+10	-5.217580E-13	NaN
1173	1.000000	0.266866	7.37652e+06	-56939.1	1105.82	-29737.7	0.000000	0.000000	6.266813	0.019545	NaN	0.000000	0.001531	0.001721	28.0809	0.080831	0.001967	41.0919	-153.731	-160.148	0.012167	0.265549	-0.778377	-0.779694	0.019545	41.0919	-0.778734	-2.312209E+10	-8.453070E-13	NaN
1173	1.000000	0.274886	7.37652e+06	-56939.1	1105.82	-29737.7	0.000000	0.000000	6.274831	-0.025092	NaN	0.000000	0.001551	0.001757	28.0808	0.111146	0.001884	59.0056	-68.7962	-168.486	-0.058314	0.273590	-0.770358	-0.771654	-0.025092	59.0056	-0.770039	-1.761288E+10	1.424637E-12	NaN
1173	1.000000	0.282886	7.37652e+06	-56939.1	1105.82	-29737.7	0.000000	0.000000	6.282835	0.040128	NaN	0.000000	0.001546	0.001730	28.081	0.074754	0.002070	36.1215	-21.6575	-166.388	-0.038242	0.281591	-0.762357	-0.763653	0.040128	36.1215	-0.763190	-1.421329E+10	-2.823254E-12	NaN
1173	1.000000	0.290909	7.37652e+06	-56939.1	1105.82	-29737.7	0.000000	0.000000	6.290854	-0.031198	NaN	0.000000	0.001538	0.001784	28.0807	0.043231	0.001971	21.9346	177.705	-163.335	-0.054315	0.289559	-0.754334	-0.755684	-0.031198	21.9346	-0.753268	-1.041586E+10	2.995219E-12	NaN
1173	1.000000	0.298922	7.37652e+06	-56939.1	1105.82	-29737.7	0.000000	0.000000	6.298870	0.031436	NaN	0.000000	0.001582	0.001772	28.0807	0.050754	0.002016	25.1762	60.546	-163.71	-0.008664	0.297587	-0.746321	-0.747657	0.031436	25.1762	-0.747258	-8.627569E+9	-3.643702E-12	NaN
1173	1.000000	0.306913	7.37652e+06	-56939.1	1105.82	-29737.7	0.000000	0.000000	6.306859	-0.014521	NaN	0.000000	0.001572	0.001771	28.0807	0.085477	0.002078	41.1424	-142.48	-164.014	-0.021628	0.305623	-0.738330	-0.739621	-0.014521	41.1424	-0.738065	-6.466936E+9	2.245445E-12	NaN
1173	1.000000	0.314889	7.37652e+06	-56939.1	1105.82	-29737.7	0.000000	0.000000	6.314836	0.003118	NaN	0.000000	0.001587	0.001743	28.0808	0.081895	0.002022	40.5087	-94.4117	-163.686	-0.014347	0.313594	-0.730354	-0.731649	0.003118	40.5087	-0.730412	-5.086506E+9	-6.130425E-13	NaN
1173	1.000000	0.322890	7.37652e+06	-56939.1	1105.82	-29737.7	0.000000	0.000000	6.322836	-0.002254	NaN	0.000000	0.001558	0.001765	28.0808	0.126492	0.001905	66.396	85.8889	-162.537	-0.006306	0.321586	-0.722353	-0.723657	-0.002254	66.396	-0.722328	-3.946562E+9	5.710820E-13	NaN
1173	1.000000	0.330911	7.37652e+06	-56939.1	1105.82	-29737.7	0.000000	0.000000	6.330855	-0.083999	NaN	0.000000	0.001580	0.001774	28.0806	0.079616	0.001932	41.2131	165.277	-164.364	-0.087655	0.329650	-0.714332	-0.715594	-0.083999	41.2131	-0.712803	-2.926162E+9	2.870629E-11	NaN
1173	1.000000	0.338902	7.37652e+06	-56939.1	1105.82	-29737.7	0.000000	0.000000	6.338848	-0.016727	NaN	0.000000	0.001546	0.001781	28.0807	0.028869	0.002152	13.418	-141.69	-167.119	-0.101179	0.337633	-0.706341	-0.707611	-0.016727	13.418	-0.705406	-2.319231E+9	7.212355E-12	NaN
1173	1.000000	0.346899	7.37652e+06	-56939.1	1105.82	-29737.7	0.000000	0.000000	6.346846	0.017700	NaN	0.000000	0.001560	0.001748	28.0806	0.078161	0.001938	40.328	97.6838	-167.907	-0.018671	0.345579	-0.698345	-0.699665	0.017700	40.328	-0.698674	-1.876799E+9	-9.431094E-12	NaN
1173	1.000000	0.354945	7.37652e+06	-56939.1	1105.82	-29737.7	0.000000	0.000000	6.354894	0.069374	NaN	0.000000	0.001552	0.001737	28.0807	0.124824	0.001896	65.8302	111.511	-164.665	-0.020917	0.353644	-0.690298	-0.691599	0.069374	65.8302	-0.691089	-1.478415E+9	-4.692486E-11	NaN
1173	1.000000	0.362947	7.37652e+06	-56939.1	1105.82	-29737.7	0.000000	0.000000	6.362895	0.043658	NaN	0.000000	0.001556	0.001712	28.0805	0.018426	0.001880	9.799079	-158.185	-162.61	0.119013	0.361628	-0.682296	-0.683615	0.043658	9.799079	-0.685638	-1.245353E+9	-3.505696E-11	NaN
1173	1.000000	0.370939	7.37652e+06	-56939.1	1105.82	-29737.7	0.000000	0.000000	6.370884	-0.020559	NaN	0.000000	0.001546	0.001745	28.0812	0.059266	0.002026	29.257	24.2985	-164.766	-0.025997	0.369654	-0.674305	-0.675590	-0.020559	29.257	-0.673778	-8.572077E+8	2.398316E-11	NaN
1173	1.000000	0.378921	7.37652e+06	-56939.1	1105.82	-29737.7	0.000000	0.000000	6.378867	-0.014935	NaN	0.000000	0.001583	0.001768	28.0821	0.041077	0.002080	19.7479	-173.866	-166.352	-0.017662	0.377654	-0.666323	-0.667590	-0.014935	19.7479	-0.665755	-6.657106E+8	2.243475E-11	NaN
1173	1.000000	0.386935	7.37652e+06	-56939.1	1105.82	-29737.7	0.000000	0.000000	6.386882	0.015604	NaN	0.000000	0.001600	0.001745	28.0816	0.095164	0.002108	45.1358	-28.0482	-164.836	0.043303	0.385592	-0.658309	-0.659651	0.015604	45.1358	-0.658568	-5.307016E+8	-2.940335E-11	NaN
1173	1.000000	0.394959	7.37652e+06	-56939.1	1105.82	-29737.7	0.000000	0.000000	6.394903	-0.057205	NaN	0.000000	0.001625	0.001748	28.0818	0.026976	0.002063	13.0783	151.465	-162.874	-0.108828	0.393612	-0.650284	-0.651631	-0.057205	13.0783	-0.647004	-3.684308E+8	1.552677E-10	NaN
1173	1.000000	0.402946	7.37652e+06	-56939.1	1105.82	-29737.7	0.000000	0.000000	6.402893	-0.007888	NaN	0.000000	0.001596	0.001745	28.0816	0.055941	0.001905	29.3576	-111.607	-164.308	-0.098194	0.401624	-0.642297	-0.643619	-0.007888	29.3576	-0.642095	-3.155276E+8	2.499937E-11	NaN
1173	1.000000	0.410934	7.37652e+06	-56939.1	1105.82	-29737.7	0.000000	0.000000	6.410881	0.021159	NaN	0.000000	0.001595	0.001743	28.0817	0.046352	0.001889	24.5327	89.718	-165.53	-0.008806	0.409631	-0.634309	-0.635613	0.021159	24.5327	-0.634956	-2.518073E+8	-8.402720E-11	NaN
1173	1.000000	0.418974	7.37652e+06	-56939.1	1105.82	-29737.7	0.000000	0.000000	6.418922	0.030146	NaN	0.000000	0.001626	0.001759	28.0816	0.045715	0.001916	23.8546	122.244	-160.394	-0.040885	0.417647	-0.626269	-0.627596	0.030146	23.8546	-0.627217	-1.971523E+8	-1.529082E-10	NaN
1173	1.000000	0.426930	7.37652e+06	-56939.1	1105.82	-29737.7	0.000000	0.000000	6.426878	0.040918	NaN	0.000000	0.001627	0.001756	28.0815	0.050730	0.001989	25.503	-104.684	-165.578	0.073278	0.425674	-0.618313	-0.619569	0.040918	25.503	-0.619517	-1.545222E+8	-2.648013E-10	NaN
1173	1.000000	0.434991	7.37652e+06	-56939.1	1105.82	-29737.7	0.000000	0.000000	6.434936	-0.039600	NaN	0.000000	0.001628	0.001768	28.0819	0.069692	0.001993	34.9647	-21.8376	-161.208	-0.017601	0.433662	-0.610253	-0.611581	-0.039600	34.9647	-0.609403	-1.121765E+8	3.530139E-10	NaN
1173	1.000000	0.442969	7.37652e+06	-56939.1	1105.82	-29737.7	0.000000	0.000000	6.442914	-0.036867	NaN	0.000000	0.001599	0.001750	28.0818	0.024314	0.001837	13.2332	-31.8281	-166.054	-0.058946	0.441675	-0.602274	-0.603568	-0.036867	13.2332	-0.600184	-8.375295E+7	4.401921E-10	NaN
1173	1.000000	0.450966	7.37652e+06	-56939.1	1105.82	-29737.7	0.000000	0.000000	6.450913	-0.001241	NaN	0.000000	0.001616	0.001703	28.0818	0.042806	0.002057	20.8081	171.182	-164.459	-0.001483	0.449641	-0.594277	-0.595602	-0.001241	20.8081	-0.594232	-6.934221E+7	1.789640E-11	NaN
1173	1.000000	0.459008	7.37652e+06	-56939.1	1105.82	-29737.7	0.000000	0.000000	6.458954	-0.012412	NaN	0.000000	0.001614	0.001756	28.0816	0.037510	0.001868	20.0762	59.6936	-163.879	-0.028585	0.457698	-0.586235	-0.587545	-0.012412	20.0762	-0.585772	-5.300998E+7	2.341364E-10	NaN
1173	1.000000	0.466957	7.37652e+06	-56939.1	1105.82	-29737.7	0.000000	0.000000	6.466905	0.016771	NaN	0.000000	0.001602	0.001749	28.0818	0.078252	0.002002	39.0906	-142.791	-166.187	-0.033833	0.465612	-0.578286	-0.579631	0.016771	39.0906	-0.578608	-4.221886E+7	-3.972278E-10	NaN
1173	1.000000	0.475008	7.37652e+06	-56939.1	1105.82	-29737.7	0.000000	0.000000	6.474956	0.031945	NaN	0.000000	0.001612	0.001785	28.0818	0.103415	0.002097	49.3246	-159.788	-164.694	0.011041	0.473664	-0.570235	-0.571579	0.031945	49.3246	-0.570720	-3.285384E+7	-9.723504E-10	NaN
1173	1.000000	0.482986	7.37652e+06	-56939.1	1105.82	-29737.7	0.000000	0.000000	6.482933	0.011193	NaN	0.000000	0.001607	0.001827	28.0816	0.023387	0.001864	12.5463	-89.6855	-162.61	0.065187	0.481679	-0.562257	-0.563564	0.011193	12.5463	-0.562926	-2.563622E+7	-4.366071E-10	NaN
1173	1.000000	0.490993	7.37652e+06	-56939.1	1105.82	-29737.7	0.000000	0.000000	6.490940	0.013384	NaN	0.000000	0.001633	0.001801	28.0817	0.054776	0.002021	27.1087	-175.348	-163.433	0.015316	0.489669	-0.554250	-0.555574	0.013384	27.1087	-0.554620	-1.967587E+7	-6.802108E-10	NaN
1173	1.000000	0.498978	7.37652e+06	-56939.1	1105.82	-29737.7	0.000000	0.000000	6.498925	-0.003968	NaN	0.000000	0.001573	0.001809	28.0817	0.072614	0.002132	34.0596	-91.6143	-165.198	0.025503	0.497664	-0.546265	-0.547579	-0.003968	34.0596	-0.546178	-1.503144E+7	2.639525E-10	NaN
1173	1.000000	0.506990	7.37652e+06	-56939.1	1105.82	-29737.7	0.000000	0.000000	6.506937	-0.010328	NaN	0.000000	0.001575	0.001789	28.0817	0.043201	0.002046	21.1138	83.2126	-169.1	0.062634	0.505665	-0.538253	-0.539578	-0.010328	21.1138	-0.537886	-1.153538E+7	8.953120E-10	NaN
1173	1.000000	0.514994	7.37652e+06	-56939.1	1105.82	-29737.7	0.000000	0.000000	6.514940	-0.011659	NaN	0.000000	0.001595	0.001828	28.0805	0.055128	0.001930	28.5586	6.011845	-162.475	0.023254	0.513745	-0.530249	-0.531498	-0.011659	28.5586	-0.529943	-8.94908e+06	1.302796E-9	NaN
1173	1.000000	0.523007	7.37652e+06	-56939.1	1105.82	-29737.7	0.000000	0.000000	6.522954	0.011165	NaN	0.000000	0.001584	0.001848	28.0805	0.063954	0.002035	31.4346	53.4243	-165.626	0.095638	0.521711	-0.522236	-0.523532	0.011165	31.4346	-0.522502	-7.0533e+06	-1.582899E-9	NaN
1173	1.000000	0.530973	7.37652e+06	-56939.1	1105.82	-29737.7	0.000000	0.000000	6.530919	-0.012074	NaN	0.000000	0.001543	0.001829	28.0807	0.099118	0.001975	50.1772	171.696	-165.467	0.015570	0.529673	-0.514270	-0.515570	-0.012074	50.1772	-0.514090	-5.38716e+06	2.241251E-9	NaN
1173	1.000000	0.539040	7.37652e+06	-56939.1	1105.82	-29737.7	0.000000	0.000000	6.538987	0.014395	NaN	0.000000	0.001560	0.001826	28.0807	0.116061	0.001983	58.5246	-86.0652	-166.475	0.075054	0.537717	-0.506204	-0.507526	0.014395	58.5246	-0.506388	-4.20815e+06	-3.420691E-9	NaN
1173	1.000000	0.547019	7.37652e+06	-56939.1	1105.82	-29737.7	0.000000	0.000000	6.546967	0.025794	NaN	0.000000	0.001576	0.001791	28.0805	0.088528	0.001958	45.2095	-89.4138	-167.609	-0.060942	0.545686	-0.498224	-0.499558	0.025794	45.2095	-0.498652	-3.28254e+06	-7.857927E-9	NaN
1173	1.000000	0.555018	7.37652e+06	-56939.1	1105.82	-29737.7	0.000000	0.000000	6.554961	-0.088717	NaN	0.000000	0.001567	0.001836	28.0806	0.011997	0.002013	5.959202	84.9408	-164.855	-0.012576	0.553714	-0.490225	-0.491529	-0.088717	5.959202	-0.479059	-1.74725e+06	5.077489E-8	NaN
1173	1.000000	0.562995	7.37652e+06	-56939.1	1105.82	-29737.7	0.000000	0.000000	6.562942	0.017419	NaN	0.000000	0.001595	0.001806	28.0806	0.025695	0.001978	12.988	20.8034	-161.375	0.004078	0.561698	-0.482248	-0.483546	0.017419	12.988	-0.483254	-2.00019e+06	-8.708670E-9	NaN
1173	1.000000	0.571022	7.37652e+06	-56939.1	1105.82	-29737.7	0.000000	0.000000	6.570967	-0.032361	NaN	0.000000	0.001571	0.001804	28.0809	0.079077	0.001969	40.1618	47.3331	-161.86	-0.045065	0.569697	-0.474221	-0.475546	-0.032361	40.1618	-0.473617	-1.46594e+06	2.207554E-8	NaN
1173	1.000000	0.579014	7.37652e+06	-56939.1	1105.82	-29737.7	0.000000	0.000000	6.578962	0.035697	NaN	0.000000	0.001577	0.001815	28.0806	0.038752	0.002053	18.8717	-63.7157	-163.928	-1.053103E-5	0.577728	-0.466229	-0.467516	0.035697	18.8717	-0.467648	-1.20895e+06	-2.952762E-8	NaN
1173	1.000000	0.587039	7.37653e+06	-56939.1	1105.82	-29737.7	0.000000	0.000000	6.586985	-0.021871	NaN	0.000000	0.001595	0.001790	28.0806	0.015184	0.002060	7.370267	3.134409	-160.393	-0.009856	0.585704	-0.458204	-0.459539	-0.021871	7.370267	-0.455979	-828861	2.638697E-8	NaN
1173	1.000000	0.594996	7.37653e+06	-56939.1	1105.82	-29737.7	0.000000	0.000000	6.594943	0.010674	NaN	0.000000	0.001569	0.001751	28.0806	0.037659	0.001996	18.8682	-35.3526	-165.144	-0.139158	0.593693	-0.450247	-0.451550	0.010674	18.8682	-0.450671	-697903	-1.529371E-8	NaN
1173	1.000000	0.603059	7.37653e+06	-56939.1	1105.82	-29737.7	0.000000	0.000000	6.603003	-0.080247	NaN	0.000000	0.001555	0.001779	28.0807	0.015299	0.001988	7.696283	170.106	-163.456	-0.039322	0.601784	-0.442184	-0.443460	-0.080247	7.696283	-0.434364	-410926	1.952830E-7	NaN
1173	1.000000	0.611017	7.37653e+06	-56939.1	1105.82	-29737.7	0.000000	0.000000	6.610965	0.019795	NaN	0.000000	0.001563	0.001774	28.0808	0.064772	0.002019	32.0846	0.725635	-164.745	-0.019693	0.609728	-0.434226	-0.435515	0.019795	32.0846	-0.434688	-415289	-4.766631E-8	NaN
1173	1.000000	0.619063	7.37653e+06	-56939.1	1105.82	-29737.7	0.000000	0.000000	6.619010	-0.011676	NaN	0.000000	0.001589	0.001757	28.0806	0.057325	0.002084	27.5108	72.3235	-166.206	-0.026481	0.617741	-0.426180	-0.427502	-0.011676	27.5108	-0.425861	-311519	3.748002E-8	NaN
1173	1.000000	0.627009	7.37653e+06	-56939.1	1105.82	-29737.7	0.000000	0.000000	6.626954	-0.035976	NaN	0.000000	0.001583	0.001733	28.0808	0.050356	0.002014	25.002	-64.291	-166.217	-0.061695	0.625768	-0.418234	-0.419475	-0.035976	25.002	-0.417155	-234452	1.534473E-7	NaN
1173	1.000000	0.635035	7.37653e+06	-56939.1	1105.82	-29737.7	0.000000	0.000000	6.634983	0.021823	NaN	0.000000	0.001591	0.001755	28.0806	0.014727	0.001981	7.435557	38.7248	-163.373	0.015780	0.633759	-0.410208	-0.411484	0.021823	7.435557	-0.412409	-200747	-1.087109E-7	NaN
1173	1.000000	0.643065	7.37653e+06	-56939.1	1105.82	-29737.7	0.000000	0.000000	6.643010	-0.041186	NaN	0.000000	0.001575	0.001753	28.0812	0.104753	0.002002	52.3328	-1.116270	-164.186	-0.036305	0.641733	-0.402178	-0.403510	-0.041186	52.3328	-0.401587	-140808	2.924973E-7	NaN
1173	1.000000	0.651052	7.37653e+06	-56939.1	1105.82	-29737.7	0.000000	0.000000	6.650998	-0.024987	NaN	0.000000	0.001590	0.001762	28.0818	0.040265	0.002061	19.5334	65.3314	-163.643	0.063566	0.649738	-0.394191	-0.395505	-0.024987	19.5334	-0.393232	-106997	2.335340E-7	NaN
1173	1.000000	0.659091	7.37653e+06	-56939.1	1105.82	-29737.7	0.000000	0.000000	6.659036	-0.029447	NaN	0.000000	0.001593	0.001762	28.0818	0.044675	0.002010	22.2295	-73.4659	-165.041	-0.007051	0.657762	-0.386152	-0.387481	-0.029447	22.2295	-0.385159	-82008.7	3.590673E-7	NaN
1173	1.000000	0.667026	7.37653e+06	-56939.1	1105.82	-29737.7	0.000000	0.000000	6.666972	-0.025899	NaN	0.000000	0.001610	0.001737	28.0818	0.033092	0.002020	16.3814	138.987	-163.672	-0.023760	0.665810	-0.378217	-0.379434	-0.025899	16.3814	-0.377031	-62699	4.130657E-7	NaN
1173	1.000000	0.675083	7.37653e+06	-56939.1	1105.82	-29737.7	0.000000	0.000000	6.675031	0.016555	NaN	0.000000	0.001604	0.001747	28.0817	0.104108	0.002086	49.9132	-12.349	-164.971	0.055394	0.673809	-0.370160	-0.371434	0.016555	49.9132	-0.370408	-50351.1	-3.287837E-7	NaN
1173	1.000000	0.683059	7.37653e+06	-56939.1	1105.82	-29737.7	0.000000	0.000000	6.683005	-0.009525	NaN	0.000000	0.001557	0.001775	28.0821	0.015896	0.001945	8.174144	-173.937	-166.49	0.132377	0.681741	-0.362185	-0.363502	-0.009525	8.174144	-0.361311	-37220.8	2.559104E-7	NaN
1173	1.000000	0.691063	7.37653e+06	-56939.1	1105.82	-29737.7	0.000000	0.000000	6.691008	-0.034561	NaN	0.000000	0.001566	0.001765	28.0817	0.047849	0.001930	24.7942	-90.844	-165.637	0.017062	0.689719	-0.354180	-0.355524	-0.034561	24.7942	-0.353135	-28344.6	1.219330E-6	NaN
1173	1.000000	0.699055	7.37653e+06	-56939.1	1105.82	-29737.7	0.000000	0.000000	6.699000	-0.032721	NaN	0.000000	0.001577	0.001762	28.0822	0.113443	0.001901	59.6713	175.904	-161.94	-0.113907	0.697798	-0.346188	-0.347445	-0.032721	59.6713	-0.345777	-22164.4	1.476294E-6	NaN
1173	1.000000	0.707076	7.37653e+06	-56939.1	1105.82	-29737.7	0.000000	0.000000	6.707020	-0.070469	NaN	0.000000	0.001599	0.001768	28.0819	0.019746	0.001917	10.2989	-53.2193	-161.661	-0.058955	0.705781	-0.338167	-0.339462	-0.070469	10.2989	-0.333036	-14450.2	4.876677E-6	NaN
1173	1.000000	0.715091	7.37653e+06	-56939.1	1105.82	-29737.7	0.000000	0.000000	6.715035	-0.070824	NaN	0.000000	0.001602	0.001748	28.0819	0.073207	0.001927	37.9859	89.6043	-164.365	-0.016052	0.713790	-0.330152	-0.331453	-0.070824	37.9859	-0.328754	-12508.2	5.662163E-6	NaN
1173	1.000000	0.723097	7.37653e+06	-56939.1	1105.82	-29737.7	0.000000	0.000000	6.723044	0.019129	NaN	0.000000	0.001585	0.001777	28.0822	0.077368	0.001922	40.2522	-140.651	-165.714	0.041402	0.721791	-0.322146	-0.323452	0.019129	40.2522	-0.322503	-10126.3	-1.889000E-6	NaN
1173	1.000000	0.731089	7.37653e+06	-56939.1	1105.82	-29737.7	0.000000	0.000000	6.731035	-0.000961	NaN	0.000000	0.001536	0.001754	28.082	0.032087	0.001970	16.285	-124.697	-165.137	0.010884	0.729793	-0.314154	-0.315450	-0.000961	16.285	-0.314110	-7617.44	1.262019E-7	NaN
1173	1.000000	0.739076	7.37653e+06	-56939.1	1105.82	-29737.7	0.000000	0.000000	6.739022	-0.004854	NaN	0.000000	0.001581	0.001778	28.0822	0.050226	0.001949	25.7764	-105.858	-162.375	0.060210	0.737835	-0.306167	-0.307408	-0.004854	25.7764	-0.306026	-5783.35	8.392725E-7	NaN
1173	1.000000	0.747062	7.37653e+06	-56939.1	1105.82	-29737.7	0.000000	0.000000	6.747008	-0.016797	NaN	0.000000	0.001579	0.001757	28.082	0.054228	0.002063	26.2895	-145.911	-166.27	0.053232	0.745755	-0.298181	-0.299488	-0.016797	26.2895	-0.297702	-4349.07	3.862234E-6	NaN
1173	1.000000	0.755109	7.37653e+06	-56939.1	1105.82	-29737.7	0.000000	0.000000	6.755051	-0.126066	NaN	0.000000	0.001587	0.001747	28.0821	0.038600	0.001956	19.7368	-22.0568	-162.889	-0.043866	0.753787	-0.290134	-0.291456	-0.126066	19.7368	-0.285343	-2840.69	4.437873E-5	NaN
1173	1.000000	0.763116	7.37653e+06	-56939.1	1105.82	-29737.7	0.000000	0.000000	6.763062	-8.212550E-5	NaN	0.000000	0.001613	0.001772	28.082	0.039284	0.001963	20.0086	-164.459	-163.128	-0.054140	0.761772	-0.282128	-0.283471	-8.212550E-5	20.0086	-0.282124	-2540.95	3.232082E-8	NaN
1173	1.000000	0.771114	7.37653e+06	-56939.1	1105.82	-29737.7	0.000000	0.000000	6.771060	-0.028620	NaN	0.000000	0.001551	0.001757	28.0821	0.085944	0.002017	42.6044	121.011	-165.338	-0.015817	0.769763	-0.274129	-0.275480	-0.028620	42.6044	-0.273625	-1890.48	1.513908E-5	NaN
1173	1.000000	0.779088	7.37653e+06	-56939.1	1105.82	-29737.7	0.000000	0.000000	6.779032	-0.064696	NaN	0.000000	0.001560	0.001785	28.0821	0.058505	0.001986	29.4564	-11.6543	-165.794	-0.061632	0.777787	-0.266155	-0.267456	-0.064696	29.4564	-0.264507	-1373.63	4.709874E-5	NaN
1173	1.000000	0.787119	7.37653e+06	-56939.1	1105.82	-29737.7	0.000000	0.000000	6.787067	0.016977	NaN	0.000000	0.001604	0.001730	28.0808	0.064581	0.002043	31.6037	57.424	-165.753	0.089437	0.785802	-0.258124	-0.259442	0.016977	31.6037	-0.258527	-1112.56	-1.525950E-5	NaN
1173	1.000000	0.795122	7.37653e+06	-56939.1	1105.82	-29737.7	0.000000	0.000000	6.795070	0.027619	NaN	0.000000	0.001571	0.001718	28.0811	0.055190	0.002165	25.4903	171.914	-163.503	0.046311	0.793731	-0.250121	-0.251512	0.027619	25.4903	-0.250934	-849.968	-3.249425E-5	NaN
1173	1.000000	0.803102	7.37653e+06	-56939.1	1105.82	-29737.7	0.000000	0.000000	6.803048	-0.007724	NaN	0.000000	0.001601	0.001721	28.0806	0.128536	0.001865	68.9368	-61.5011	-166.992	-0.085648	0.801838	-0.242141	-0.243406	-0.007724	68.9368	-0.242057	-618.944	1.248007E-5	NaN
1173	1.000000	0.811110	7.37653e+06	-56939.1	1105.82	-29737.7	0.000000	0.000000	6.811056	-0.018534	NaN	0.000000	0.001604	0.001723	28.0806	0.125990	0.001811	69.5848	109.685	-162.647	-0.095635	0.809811	-0.234133	-0.235432	-0.018534	69.5848	-0.233933	-461.84	4.013115E-5	NaN
1173	1.000000	0.819143	7.37653e+06	-56939.1	1105.82	-29737.7	0.000000	0.000000	6.819088	-0.045990	NaN	0.000000	0.001620	0.001746	28.0806	0.059827	0.001981	30.2008	-108.822	-166.449	0.054894	0.817825	-0.226100	-0.227418	-0.045990	30.2008	-0.224958	-333.17	0.000138	NaN
1173	1.000000	0.827116	7.37653e+06	-56939.1	1105.82	-29737.7	0.000000	0.000000	6.827063	0.019107	NaN	0.000000	0.001635	0.001714	28.0806	0.054161	0.001934	28.0113	-93.7199	-164.848	0.024139	0.825833	-0.218127	-0.219411	0.019107	28.0113	-0.218639	-264.182	-7.232579E-5	NaN
1173	1.000000	0.835120	7.37653e+06	-56939.1	1105.82	-29737.7	0.000000	0.000000	6.835066	0.005297	NaN	0.000000	0.001599	0.001737	28.0809	0.138445	0.002045	67.6926	10.488	-163.118	-0.092349	0.833812	-0.210124	-0.211431	0.005297	67.6926	-0.210182	-193.095	-2.743052E-5	NaN
1173	1.000000	0.843127	7.37653e+06	-56939.1	1105.82	-29737.7	0.000000	0.000000	6.843076	0.045417	NaN	0.000000	0.001621	0.001727	28.0808	0.013670	0.001983	6.894990	167.624	-165.541	0.060671	0.841840	-0.202116	-0.203403	0.045417	6.894990	-0.207056	-171.808	-0.000264	NaN
1173	1.000000	0.851135	7.37653e+06	-56939.1	1105.82	-29737.7	0.000000	0.000000	6.851080	-0.034970	NaN	0.000000	0.001593	0.001749	28.0809	0.096935	0.002124	45.6444	-124.241	-165.61	-0.084189	0.849817	-0.194108	-0.195426	-0.034970	45.6444	-0.193534	-103.011	0.000339	NaN
1173	1.000000	0.859131	7.37653e+06	-56939.1	1105.82	-29737.7	0.000000	0.000000	6.859074	-0.081124	NaN	0.000000	0.001573	0.001732	28.0806	0.165678	0.001969	84.1423	36.6731	-162.786	-0.119842	0.857810	-0.186112	-0.187433	-0.081124	84.1423	-0.185389	-75.2821	0.001078	NaN
1173	1.000000	0.867127	7.37653e+06	-56939.1	1105.82	-29737.7	0.000000	0.000000	6.867073	-0.018372	NaN	0.000000	0.001618	0.001746	28.0808	0.051685	0.002034	25.4069	-19.8803	-162.674	-0.012652	0.865833	-0.178116	-0.179410	-0.018372	25.4069	-0.177574	-55.4736	0.000331	NaN
1173	1.000000	0.875122	7.37653e+06	-56939.1	1105.82	-29737.7	0.000000	0.000000	6.875070	0.025346	NaN	0.000000	0.001624	0.001727	28.0809	0.138805	0.002023	68.6209	-139.208	-164.201	0.069704	0.873822	-0.170121	-0.171421	0.025346	68.6209	-0.170398	-41.7366	-0.000607	NaN
1173	1.000000	0.883163	7.37653e+06	-56939.1	1105.82	-29737.7	0.000000	0.000000	6.883109	-0.030056	NaN	0.000000	0.001655	0.001730	28.0809	0.014986	0.001861	8.053464	88.0364	-164.826	0.004791	0.881870	-0.162080	-0.163373	-0.030056	8.053464	-0.159281	-26.6191	0.001129	NaN
1173	1.000000	0.891144	7.37653e+06	-56939.1	1105.82	-29737.7	0.000000	0.000000	6.891092	0.030558	NaN	0.000000	0.001597	0.001782	28.0812	0.034399	0.002088	16.4777	-143.831	-164.376	0.057437	0.889851	-0.154099	-0.155392	0.030558	16.4777	-0.155490	-22.7719	-0.001342	NaN
1173	1.000000	0.899163	7.37653e+06	-56939.1	1105.82	-29737.7	0.000000	0.000000	6.899113	0.085082	NaN	0.000000	0.001606	0.001778	28.0809	0.126857	0.002082	60.9372	-45.3456	-167.764	0.071443	0.897867	-0.146081	-0.147376	0.085082	60.9372	-0.147128	-16.0475	-0.005302	NaN
1173	1.000000	0.907151	7.37653e+06	-56939.1	1105.82	-29737.7	0.000000	0.000000	6.907100	0.054871	NaN	0.000000	0.001652	0.001779	28.0809	0.103575	0.001958	52.8851	-130.722	-163.286	0.081310	0.905822	-0.138092	-0.139421	0.054871	52.8851	-0.138870	-11.2643	-0.004871	NaN
1173	1.000000	0.915157	7.37653e+06	-56939.1	1105.82	-29737.7	0.000000	0.000000	6.915102	-0.038468	NaN	0.000000	0.001619	0.001784	28.081	0.014604	0.001975	7.393727	-147.235	-166.786	0.027166	0.913837	-0.130086	-0.131406	-0.038468	7.393727	-0.126184	-6.417513	0.005994	NaN
1173	1.000000	0.923150	7.37653e+06	-56939.1	1105.82	-29737.7	0.000000	0.000000	6.923094	-0.061613	NaN	0.000000	0.001603	0.001760	28.0823	0.073737	0.002007	36.7432	-32.9644	-168.241	-0.083607	0.921888	-0.122093	-0.123355	-0.061613	36.7432	-0.120835	-5.022427	0.012268	NaN
1173	1.000000	0.931162	7.37653e+06	-56939.1	1105.82	-29737.7	0.000000	0.000000	6.931107	-0.038822	NaN	0.000000	0.001579	0.001748	28.0824	0.050913	0.002059	24.7227	173.39	-167.277	-0.014440	0.929842	-0.114081	-0.115401	-0.038822	24.7227	-0.112903	-3.456822	0.011231	NaN
1173	1.000000	0.939157	7.37653e+06	-56939.1	1105.82	-29737.7	0.000000	0.000000	6.939101	-0.051504	NaN	0.000000	0.001598	0.001742	28.0821	0.030018	0.002013	14.9127	155.176	-159.971	-0.001748	0.937861	-0.106087	-0.107382	-0.051504	14.9127	-0.103496	-2.180550	0.023620	NaN
1173	1.000000	0.947191	7.37653e+06	-56939.1	1105.82	-29737.7	0.000000	0.000000	6.947137	-0.003490	NaN	0.000000	0.001620	0.001740	28.0825	0.075947	0.001991	38.1524	3.280217	-163.485	-0.007124	0.945917	-0.098053	-0.099326	-0.003490	38.1524	-0.097984	-1.647555	0.002118	NaN
1173	1.000000	0.955165	7.37653e+06	-56939.1	1105.82	-29737.7	0.000000	0.000000	6.955113	0.030346	NaN	0.000000	0.001601	0.001770	28.0822	0.061458	0.002073	29.6416	-107.388	-165.318	-0.045867	0.953889	-0.090078	-0.091354	0.030346	29.6416	-0.090846	-1.131394	-0.026822	NaN
1173	1.000000	0.963165	7.37653e+06	-56939.1	1105.82	-29737.7	0.000000	0.000000	6.963113	0.039328	NaN	0.000000	0.001615	0.001806	28.0823	0.093421	0.002034	45.9327	-37.7254	-168.006	0.064118	0.961813	-0.082078	-0.083430	0.039328	45.9327	-0.082720	-0.722938	-0.054400	NaN
1173	1.000000	0.971183	7.37653e+06	-56939.1	1105.82	-29737.7	0.000000	0.000000	6.971129	-0.010694	NaN	0.000000	0.001564	0.001785	28.0823	0.036328	0.002070	17.5506	14.6079	-168.496	-0.020119	0.969907	-0.074060	-0.075336	-0.010694	17.5506	-0.073603	-0.424822	0.025172	NaN
1173	1.000000	0.979200	7.37653e+06	-56939.1	1105.82	-29737.7	0.000000	0.000000	6.979148	0.038189	NaN	0.000000	0.001603	0.001723	28.0822	0.121503	0.002033	59.7593	125.735	-162.646	0.002256	0.977859	-0.066044	-0.067384	0.038189	59.7593	-0.066523	-0.274536	-0.139105	NaN
1173	1.000000	0.987196	7.37653e+06	-56939.1	1105.82	-29737.7	0.000000	0.000000	6.987140	-0.063843	NaN	0.000000	0.001632	0.001741	28.0828	0.075422	0.001952	38.6326	-4.428210	-165.245	-0.012995	0.985857	-0.058047	-0.059386	-0.063843	38.6326	-0.056808	-0.145545	0.438650	NaN
1173	1.000000	0.995189	7.37653e+06	-56939.1	1105.82	-29737.7	0.000000	0.000000	6.995135	-0.029108	NaN	0.000000	0.001599	0.001728	28.0823	0.092590	0.001928	48.0212	-147.366	-163.335	0.010242	0.993870	-0.050054	-0.051373	-0.029108	48.0212	-0.049599	-0.088739	0.328023	NaN
1173	1.000000	1.003197	7.37653e+06	-56939.1	1105.82	-29737.7	0.000000	0.000000	7.003143	-0.030579	NaN	0.000000	0.001590	0.001735	28.0823	0.077730	0.002006	38.7417	-83.2495	-168.271	-0.100835	1.001853	-0.042046	-0.043390	-0.030579	38.7417	-0.041454	-0.050073	0.610690	NaN
1173	1.000000	1.011192	7.37653e+06	-56939.1	1105.82	-29737.7	0.000000	0.000000	7.011140	0.047873	NaN	0.000000	0.001572	0.001759	28.0822	0.040454	0.002048	19.7578	29.5066	-165.123	0.112806	1.009915	-0.034051	-0.035328	0.047873	19.7578	-0.035869	-0.033975	-1.409089	NaN
1173	1.000000	1.019217	7.37653e+06	-56939.1	1105.82	-29737.7	0.000000	0.000000	7.019165	0.036201	NaN	0.000000	0.001595	0.001745	28.0822	0.024477	0.002014	12.1507	111.914	-163.992	-0.017752	1.017905	-0.026026	-0.027338	0.036201	12.1507	-0.028261	-0.020609	-1.756578	NaN
1173	1.000000	1.027200	7.37653e+06	-56939.1	1105.82	-29737.7	0.000000	0.000000	7.027148	0.031778	NaN	0.000000	0.001608	0.001737	28.0825	0.073912	0.001991	37.115	-158.871	-163.7	0.012548	1.025913	-0.018043	-0.019330	0.031778	37.115	-0.018685	-0.011626	-2.733366	NaN
1173	1.000000	1.035229	7.37653e+06	-56939.1	1105.82	-29737.7	0.000000	0.000000	7.035174	-0.041482	NaN	0.000000	0.001623	0.001744	28.0823	0.135571	0.001954	69.3842	145.6	-166.873	-0.010731	1.033896	-0.010014	-0.011347	-0.041482	69.3842	-0.009566	-0.006139	6.757606	NaN
1173	1.000000	1.043202	7.37653e+06	-56939.1	1105.82	-29737.7	0.000000	0.000000	7.043157	0.199762	NaN	0.000000	0.001599	0.001711	28.0824	0.376151	0.002010	187.11	3.547305	-164.566	-0.010280	1.041888	-0.002041	-0.003356	0.199762	187.11	-0.002842	-0.002014	-99.1796	NaN
1173	1.000000	1.051199	7.37653e+06	-56939.1	1105.82	-29737.7	0.000000	0.000000	7.051347	4.891374	NaN	0.000000	0.001559	0.001711	28.0823	6.268955	0.001852	3384.57	14.6556	-169.368	4.338491	1.049891	0.005956	0.004648	4.891374	3384.57	0.004872	0.004017	1217.6	48788
1173	2.000000	1.055717	7.37653e+06	-56939.1	1105.82	-29737.7	0.000000	0.000000	7.056072	9.920209	NaN	0.000000	0.001582	0.001761	28.0809	10.5694	0.001750	6041.16	8.374084	-172.292	9.339081	1.055364	0.010474	0.010121	9.920209	6041.16	0.009242	0.008351	1187.85	60396.8
1173	2.000000	1.057715	7.37653e+06	-56939.1	1105.82	-29737.7	0.000000	0.000000	7.058171	12.3866	NaN	0.000000	0.001592	0.001710	28.0815	12.7503	0.001682	7581.83	13.1819	-178.84	12.5036	1.057417	0.012472	0.012174	12.3866	7581.83	0.011246	0.010600	1168.58	67282.3
1173	2.000000	1.059684	7.37653e+06	-56939.1	1105.82	-29737.7	0.000000	0.000000	7.060221	14.3524	NaN	0.000000	0.001598	0.001742	28.0812	14.2044	0.001782	7971.87	8.732848	-175.312	14.1195	1.059354	0.014441	0.014111	14.3524	7971.87	0.013090	0.012823	1119.3	64319.7
1173	2.000000	1.061646	7.37653e+06	-56939.1	1105.82	-29737.7	0.000000	0.000000	7.062312	17.4846	NaN	0.000000	0.001592	0.001744	28.0809	16.7417	0.001757	9530.05	8.571092	-175.634	17.3197	1.061302	0.016403	0.016059	17.4846	9530.05	0.015027	0.015321	1141.21	70343.4
1173	2.000000	1.063665	7.37653e+06	-56939.1	1105.82	-29737.7	0.000000	0.000000	7.064453	20.4476	NaN	0.000000	0.001597	0.001689	28.0811	18.1498	0.001645	11030.8	4.228591	-174.533	20.7807	1.063312	0.018422	0.018069	20.4476	11030.8	0.017032	0.018091	1130.25	74928.4
1173	2.000000	1.065633	7.37653e+06	-56939.1	1105.82	-29737.7	0.000000	0.000000	7.066646	25.925	NaN	0.000000	0.001565	0.001716	28.0815	21.3319	0.001790	11920.4	9.176092	-179.407	24.8546	1.065309	0.020390	0.020066	25.925	11920.4	0.018759	0.020629	1256.71	75826.6
1173	2.000000	1.067723	7.37653e+06	-56939.1	1105.82	-29737.7	0.000000	0.000000	7.068859	28.9153	NaN	0.000000	0.001660	0.001747	28.0817	22.7728	0.001791	12712.2	12.3803	-179.208	32.0243	1.067332	0.022480	0.022089	28.9153	12712.2	0.020774	0.023773	1216.33	75327.9
1173	2.000000	1.069570	7.37653e+06	-56939.1	1105.82	-29737.7	0.000000	0.000000	7.070906	33.7836	NaN	0.000000	0.001647	0.001748	28.081	24.1427	0.001793	13463.6	3.646433	-174.265	32.1839	1.069294	0.024327	0.024050	33.7836	13463.6	0.022445	0.026530	1273.39	75520.1
1173	2.000000	1.071595	7.37653e+06	-56939.1	1105.82	-29737.7	0.000000	0.000000	7.073034	36.26	NaN	0.000000	0.001656	0.001741	28.081	26.9659	0.001805	14938.7	5.729289	-178.008	35.4129	1.071318	0.026352	0.026075	36.26	14938.7	0.024532	0.030169	1201.88	78578.4
1173	2.000000	1.073591	7.37653e+06	-56939.1	1105.82	-29737.7	0.000000	0.000000	7.075167	39.6025	NaN	0.000000	0.001573	0.001756	28.0809	27.7506	0.001705	16278.7	3.154069	-176.731	37.4389	1.073273	0.028348	0.028030	39.6025	16278.7	0.026523	0.033845	1170.12	80844.2
1173	2.000000	1.075585	7.37653e+06	-56939.1	1105.82	-29737.7	0.000000	0.000000	7.077377	44.8505	NaN	0.000000	0.001581	0.001697	28.0811	30.8026	0.001832	16809.7	3.241555	-177.496	42.641	1.075203	0.030341	0.029959	44.8505	16809.7	0.028340	0.037374	1200.04	79441.6
1173	2.000000	1.077678	7.37653e+06	-56939.1	1105.82	-29737.7	0.000000	0.000000	7.079630	48.7434	NaN	0.000000	0.001564	0.001733	28.0812	32.4987	0.001712	18984.9	6.469335	178.342	49.7848	1.077252	0.032435	0.032009	48.7434	18984.9	0.030509	0.041806	1165.95	84833
1173	2.000000	1.079534	7.37653e+06	-56939.1	1105.82	-29737.7	0.000000	0.000000	7.081651	52.7491	NaN	0.000000	0.001588	0.001746	28.0811	34.8212	0.001928	18057.6	5.446368	-179.764	48.8853	1.079281	0.034291	0.034038	52.7491	18057.6	0.032100	0.045209	1166.77	77592.3
1173	2.000000	1.081705	7.37653e+06	-56939.1	1105.82	-29737.7	0.000000	0.000000	7.083923	55.2241	NaN	0.000000	0.001559	0.001727	28.081	35.6636	0.001728	20643.5	3.174854	-178.904	59.9888	1.081423	0.036462	0.036180	55.2241	20643.5	0.034455	0.050485	1093.87	83941.4
1173	2.000000	1.083546	7.37653e+06	-56939.1	1105.82	-29737.7	0.000000	0.000000	7.086134	64.2116	NaN	0.000000	0.001605	0.001709	28.081	37.5916	0.001646	22836.4	8.469131	174.727	62.3416	1.083302	0.038303	0.038058	64.2116	22836.4	0.036194	0.054562	1176.85	89321.2
1173	2.000000	1.085519	7.37653e+06	-56939.1	1105.82	-29737.7	0.000000	0.000000	7.088322	69.4143	NaN	0.000000	0.001606	0.001730	28.0811	39.6094	0.001733	22855	6.595717	176.67	66.2871	1.085228	0.040276	0.039985	69.4143	22855	0.037998	0.058958	1177.36	85997
1173	2.000000	1.087601	7.37653e+06	-56939.1	1105.82	-29737.7	0.000000	0.000000	7.090622	74.7112	NaN	0.000000	0.001561	0.001728	28.0818	41.6576	0.001686	24713.6	3.787369	178.861	73.5094	1.087329	0.042358	0.042086	74.7112	24713.6	0.040091	0.064264	1162.57	89068.8
1173	2.000000	1.089557	7.37653e+06	-56939.1	1105.82	-29737.7	0.000000	0.000000	7.092900	82.5579	NaN	0.000000	0.001577	0.001706	28.0825	43.1067	0.001713	25162.2	5.328811	177.074	80.287	1.089265	0.044314	0.044022	82.5579	25162.2	0.041853	0.068905	1198.14	87578
1173	2.000000	1.091585	7.37653e+06	-56939.1	1105.82	-29737.7	0.000000	0.000000	7.095293	91.4173	NaN	0.000000	0.001600	0.001748	28.0822	46.1974	0.001695	27260.9	8.320312	173.007	93.4248	1.091308	0.046342	0.046065	91.4173	27260.9	0.043827	0.074292	1230.51	91378
1173	2.000000	1.093584	7.37653e+06	-56939.1	1105.82	-29737.7	0.000000	0.000000	7.097681	100.878	NaN	0.000000	0.001589	0.001793	28.0822	46.9866	0.001819	25837.8	6.216326	176.18	100.427	1.093238	0.048340	0.047995	100.878	25837.8	0.045412	0.078762	1280.8	84114.4
1173	2.000000	1.095505	7.37653e+06	-56939.1	1105.82	-29737.7	0.000000	0.000000	7.099752	104.532	NaN	0.000000	0.001586	0.001740	28.0823	50.1988	0.001931	25992.7	5.332585	175.966	100.645	1.095215	0.050262	0.049972	104.532	25992.7	0.047246	0.084090	1243.1	81894.1
1173	2.000000	1.097596	7.37653e+06	-56939.1	1105.82	-29737.7	0.000000	0.000000	7.102076	110.197	NaN	0.000000	0.001585	0.001760	28.0825	51.392	0.001703	30170.1	6.442179	174.405	111.553	1.097215	0.052352	0.051972	110.197	30170.1	0.049613	0.091221	1208.02	91264.5
1173	2.000000	1.099595	7.37653e+06	-56939.1	1105.82	-29737.7	0.000000	0.000000	7.104520	121.008	NaN	0.000000	0.001616	0.001774	28.0827	51.7937	0.001687	30704.8	1.911356	178.294	122.363	1.099247	0.054352	0.054004	121.008	30704.8	0.051396	0.096778	1250.37	90176.2
1173	2.000000	1.101572	7.37653e+06	-56939.1	1105.82	-29737.7	0.000000	0.000000	7.106782	127.92	NaN	0.000000	0.001594	0.001739	28.0823	55.4851	0.001844	30089.6	4.608297	175.975	125.904	1.101139	0.056329	0.055896	127.92	30089.6	0.053140	0.102366	1249.64	85923.5
1173	2.000000	1.103532	7.37653e+06	-56939.1	1105.82	-29737.7	0.000000	0.000000	7.109368	143.153	NaN	0.000000	0.001579	0.001752	28.0824	56.0515	0.001753	31981.3	2.652496	177.43	141.217	1.103224	0.058289	0.057981	143.153	31981.3	0.054932	0.108264	1322.26	88802.9
1173	2.000000	1.105535	7.37653e+06	-56939.1	1105.82	-29737.7	0.000000	0.000000	7.111698	151.077	NaN	0.000000	0.001547	0.001762	28.0823	59.3123	0.001815	32676.3	7.488055	172.763	147.389	1.105063	0.060292	0.059820	151.077	32676.3	0.056825	0.114669	1317.5	88162.3
1173	2.000000	1.107522	7.37653e+06	-56939.1	1105.82	-29737.7	0.000000	0.000000	7.114327	166.693	NaN	0.000000	0.001557	0.001765	28.0823	60.6565	0.001744	34783	4.291733	175.327	161.383	1.107049	0.062279	0.061806	166.693	34783	0.058684	0.121133	1376.12	91308.1
1173	2.000000	1.109511	7.37653e+06	-56939.1	1105.82	-29737.7	0.000000	0.000000	7.116429	169.437	NaN	0.000000	0.001562	0.001756	28.0824	63.2389	0.001859	34026.1	7.485267	172.905	168.074	1.109188	0.064268	0.063945	169.437	34026.1	0.060533	0.127728	1326.55	86984.8
1173	2.000000	1.111562	7.37653e+06	-56939.1	1105.82	-29737.7	0.000000	0.000000	7.118868	178.855	NaN	0.000000	0.001548	0.001768	28.0827	64.6989	0.001786	36219.2	4.575297	174.046	178.264	1.111306	0.066319	0.066063	178.855	36219.2	0.062616	0.135355	1321.38	89944.6
1173	2.000000	1.113553	7.37653e+06	-56939.1	1105.82	-29737.7	0.000000	0.000000	7.121322	190.131	NaN	0.000000	0.001538	0.001740	28.0825	65.5524	0.001747	37521.5	4.677630	174.346	189.964	1.113239	0.068310	0.067996	190.131	37521.5	0.064509	0.142473	1334.51	90821.2
1173	2.000000	1.115586	7.37653e+06	-56939.1	1105.82	-29737.7	0.000000	0.000000	7.123809	201.163	NaN	0.000000	0.001530	0.001754	28.0824	69.437	0.001833	37888.2	7.343004	171.598	204.994	1.115229	0.070343	0.069985	201.163	37888.2	0.066361	0.149599	1344.68	89498
1173	2.000000	1.117536	7.37653e+06	-56939.1	1105.82	-29737.7	0.000000	0.000000	7.126341	215.305	NaN	0.000000	0.001553	0.001715	28.0824	70.9508	0.001777	39935.5	6.545320	171.394	212.534	1.117156	0.072293	0.071913	215.305	39935.5	0.068249	0.157038	1371.04	92072.3
1173	2.000000	1.119522	7.37653e+06	-56939.1	1105.82	-29737.7	0.000000	0.000000	7.128704	224.466	NaN	0.000000	0.001543	0.001753	28.0823	71.984	0.001762	40849.3	6.322920	172.073	221.419	1.119120	0.074279	0.073877	224.466	40849.3	0.070158	0.164731	1362.62	91954.1
1173	2.000000	1.121413	7.37653e+06	-56939.1	1105.82	-29737.7	0.000000	0.000000	7.131091	236.524	NaN	0.000000	0.001537	0.001753	28.0826	74.498	0.001889	39441	4.692948	173.118	229.567	1.121146	0.076170	0.075903	236.524	39441	0.071673	0.170958	1383.52	87151.6
1173	2.000000	1.123429	7.37653e+06	-56939.1	1105.82	-29737.7	0.000000	0.000000	7.133388	243.351	NaN	0.000000	0.001538	0.001775	28.0809	74.2001	0.001721	43115.6	2.717117	174.583	236.2	1.123110	0.078186	0.077867	243.351	43115.6	0.073953	0.180540	1347.9	92708.7
1173	2.000000	1.125541	7.37653e+06	-56939.1	1105.82	-29737.7	0.000000	0.000000	7.136344	263.882	NaN	0.000000	0.001535	0.001789	28.0813	77.5039	0.001740	44544.7	4.193645	173.419	265.112	1.125180	0.080297	0.079937	263.882	44544.7	0.075854	0.188715	1398.31	93684.1
1173	2.000000	1.127589	7.37653e+06	-56939.1	1105.82	-29737.7	0.000000	0.000000	7.138686	271.009	NaN	0.000000	0.001565	0.001753	28.0812	79.4099	0.001702	46669	5.541984	171.358	270.804	1.127318	0.082346	0.082074	271.009	46669	0.077991	0.198103	1368.02	95798
1173	2.000000	1.129567	7.37653e+06	-56939.1	1105.82	-29737.7	0.000000	0.000000	7.141365	288.039	NaN	0.000000	0.001570	0.001741	28.0809	81.3847	0.001748	46568.2	6.406593	171.067	291.734	1.129262	0.084324	0.084019	288.039	46568.2	0.079685	0.205703	1400.27	93808.6
1173	2.000000	1.131475	7.37653e+06	-56939.1	1105.82	-29737.7	0.000000	0.000000	7.143899	303.272	NaN	0.000000	0.001636	0.001706	28.0811	84.8729	0.001886	45003.3	6.764395	170.119	301.361	1.131275	0.086232	0.086032	303.272	45003.3	0.081178	0.212506	1427.12	89193.4
1173	2.000000	1.133523	7.37653e+06	-56939.1	1105.82	-29737.7	0.000000	0.000000	7.146600	319.138	NaN	0.000000	0.001577	0.001735	28.0808	84.7705	0.001737	48796.9	7.668657	169.656	316.442	1.133121	0.088280	0.087878	319.138	48796.9	0.083375	0.222708	1432.98	94470.7
1173	2.000000	1.135569	7.37653e+06	-56939.1	1105.82	-29737.7	0.000000	0.000000	7.148918	325.742	NaN	0.000000	0.001601	0.001747	28.0811	86.535	0.001674	51705.7	6.655629	169.933	328.719	1.135170	0.090326	0.089927	325.742	51705.7	0.085601	0.233277	1396.38	97808.4
1173	2.000000	1.137523	7.37653e+06	-56939.1	1105.82	-29737.7	0.000000	0.000000	7.151689	345.618	NaN	0.000000	0.001647	0.001724	28.0814	89.2464	0.001813	49238.6	5.620975	171.589	343.732	1.137184	0.092279	0.091940	345.618	49238.6	0.087015	0.240108	1439.43	91807.1
1173	2.000000	1.139441	7.37653e+06	-56939.1	1105.82	-29737.7	0.000000	0.000000	7.154080	357.091	NaN	0.000000	0.001635	0.001738	28.0808	90.7591	0.001847	49140	5.624119	171.102	352.626	1.139129	0.094198	0.093886	357.091	49140	0.088748	0.248605	1436.38	90043.7
1173	2.000000	1.141503	7.37653e+06	-56939.1	1105.82	-29737.7	0.000000	0.000000	7.156556	367.16	NaN	0.000000	0.001630	0.001740	28.0809	93.1349	0.001794	51915.1	4.356517	172.342	364.06	1.141120	0.096260	0.095877	367.16	51915.1	0.090956	0.259629	1414.17	93087.3
1173	2.000000	1.143394	7.37653e+06	-56939.1	1105.82	-29737.7	0.000000	0.000000	7.159353	389.191	NaN	0.000000	0.001640	0.001699	28.0808	94.1331	0.001801	52257.9	3.717961	172.295	384.616	1.143130	0.098151	0.097887	389.191	52257.9	0.092565	0.267808	1453.25	92259.9
1173	2.000000	1.145398	7.37653e+06	-56939.1	1105.82	-29737.7	0.000000	0.000000	7.162263	411.218	NaN	0.000000	0.001613	0.001736	28.081	98.5705	0.001816	54275.8	8.388069	167.495	406.873	1.145232	0.100154	0.099989	411.218	54275.8	0.094472	0.277650	1481.07	94108.9
1173	2.000000	1.147553	7.37653e+06	-56939.1	1105.82	-29737.7	0.000000	0.000000	7.164895	422.81	NaN	0.000000	0.001651	0.001730	28.0811	99.5676	0.001838	54165	3.449973	172.157	422.645	1.147254	0.102310	0.102011	422.81	54165	0.096456	0.288063	1467.77	92203.5
1173	2.000000	1.149483	7.37653e+06	-56939.1	1105.82	-29737.7	0.000000	0.000000	7.167758	445.478	NaN	0.000000	0.001633	0.001724	28.0807	100.568	0.001759	57182.6	3.309419	172.281	441.834	1.149173	0.104240	0.103930	445.478	57182.6	0.098397	0.298432	1492.73	95634.4
1173	2.000000	1.151522	7.37653e+06	-56939.1	1105.82	-29737.7	0.000000	0.000000	7.170566	464.175	NaN	0.000000	0.001655	0.001701	28.0812	103.603	0.001906	54345.3	8.170700	169.26	464.99	1.151152	0.106279	0.105909	464.175	54345.3	0.099873	0.306426	1514.8	89695.9
1173	2.000000	1.152838	7.37653e+06	-56939.1	1105.82	-29737.7	0.000000	0.000000	7.172033	467.835	NaN	0.000000	0.001620	0.001749	28.0809	103.142	0.001817	56768.9	2.192507	-6.609523	456.949	1.152665	0.107595	0.107422	467.835	56768.9	0.101414	0.314883	1485.74	92429.1