File: remote_trans/data/nanoindenter/0828-1/data/Data_2025-08-06,11h17m57s/2025-07-22_16-23-58_1_739.txt
2025-07-22, 16:23:58, 1
Index	Phase	Displacement	Time	Pos X	Pos Y	Pos Z	Rot A	Rot B	Piezo Z	Force A	Force B	Gripper	Voltage A	Voltage B	Temperature	Amplitude force	Amplitude pos	Stiffness	Phase shift	Phase excitation	Force A raw	Displacement raw	HMax	HMax raw	Real Force	Real Stiffness	Contact Depth	Area	Hardness	Reduced Mod.
[#]	[#]	[um]	[s]	[um]	[um]	[um]	[m°]	[m°]	[um]	[uN]	[uN]	[V]	[V]	[V]	[°C]	[uN]	[um]	[N/m]	[°]	[°]	[uN]	[um]	[um]	[um]	[uN]	[N/m]	[um]	[um^2]	[MPa]	[MPa]
739	1.000000	0.002118	7.37228e+06	-40139.1	1005.82	-29791	0.000000	0.000000	6.002724	0.014524	NaN	0.000000	0.001581	0.001678	28.0843	0.048902	0.001056	46.287	-115.566	175.673	0.065218	0.000904	-1.109527	-1.110742	0.014524	46.287	-1.109763	-6.778004E+14	-2.142852E-17	NaN
739	1.000000	0.012196	7.37228e+06	-40139.1	1005.82	-29791	0.000000	0.000000	6.012801	0.003749	NaN	0.000000	0.001549	0.001652	28.0844	0.075485	0.001168	64.6298	-78.6132	-2.992188	0.029914	0.010712	-1.099449	-1.100934	0.003749	64.6298	-1.099493	-4.934702E+14	-7.596861E-18	NaN
739	1.000000	0.022095	7.37228e+06	-40139.1	1005.82	-29791	0.000000	0.000000	6.022698	-0.035504	NaN	0.000000	0.001556	0.001661	28.0846	0.056493	0.001634	34.5709	178.868	176.179	0.028810	0.020737	-1.089551	-1.090909	-0.035504	34.5709	-1.088781	-3.543548E+14	1.001940E-16	NaN
739	1.000000	0.032095	7.37228e+06	-40139.1	1005.82	-29791	0.000000	0.000000	6.032702	0.060529	NaN	0.000000	0.001621	0.001658	28.0847	0.045685	0.001925	23.7353	81.4416	-2.564993	0.000813	0.030718	-1.079550	-1.080928	0.060529	23.7353	-1.081463	-2.825978E+14	-2.141887E-16	NaN
739	1.000000	0.042081	7.37228e+06	-40139.1	1005.82	-29791	0.000000	0.000000	6.042688	0.068153	NaN	0.000000	0.001558	0.001692	28.0845	0.034673	0.001895	18.299	-31.2297	176.498	0.015733	0.040792	-1.069565	-1.070854	0.068153	18.299	-1.072358	-2.132415E+14	-3.196059E-16	NaN
739	1.000000	0.052067	7.37228e+06	-40139.1	1005.82	-29791	0.000000	0.000000	6.052674	0.048758	NaN	0.000000	0.001601	0.001673	28.085	0.037813	0.002024	18.6825	174.888	-3.849472	0.008546	0.050738	-1.059578	-1.060908	0.048758	18.6825	-1.061536	-1.525665E+14	-3.195884E-16	NaN
739	1.000000	0.062099	7.37228e+06	-40139.1	1005.82	-29791	0.000000	0.000000	6.062706	0.049790	NaN	0.000000	0.001583	0.001670	28.0848	0.039186	0.002000	19.5959	-51.3382	176.447	0.070504	0.060774	-1.049546	-1.050871	0.049790	19.5959	-1.051452	-1.116689E+14	-4.458756E-16	NaN
739	1.000000	0.072055	7.37228e+06	-40139.1	1005.82	-29791	0.000000	0.000000	6.072659	0.003773	NaN	0.000000	0.001544	0.001646	28.0861	0.037924	0.002066	18.3593	-44.8036	-3.033247	-0.054432	0.070728	-1.039591	-1.040918	0.003773	18.3593	-1.039745	-7.772155E+13	-4.854163E-17	NaN
739	1.000000	0.082085	7.37228e+06	-40139.1	1005.82	-29791	0.000000	0.000000	6.082688	-0.047721	NaN	0.000000	0.001588	0.001604	28.0846	0.068551	0.001983	34.5676	9.110970	177.089	-0.019670	0.080789	-1.029560	-1.030857	-0.047721	34.5676	-1.028525	-5.490834E+13	8.690991E-16	NaN
739	1.000000	0.092099	7.37228e+06	-40139.1	1005.82	-29791	0.000000	0.000000	6.092702	-0.042955	NaN	0.000000	0.001579	0.001673	28.0835	0.058982	0.002045	28.8387	127.573	0.650470	0.020119	0.090767	-1.019546	-1.020878	-0.042955	28.8387	-1.018429	-4.016210E+13	1.069529E-15	NaN
739	1.000000	0.102093	7.37228e+06	-40139.1	1005.82	-29791	0.000000	0.000000	6.102696	-0.051954	NaN	0.000000	0.001574	0.001674	28.0836	0.071348	0.001988	35.8854	12.093	-179.718	-0.042046	0.100814	-1.009553	-1.010832	-0.051954	35.8854	-1.008467	-2.949491E+13	1.761444E-15	NaN
739	1.000000	0.112105	7.37228e+06	-40139.1	1005.82	-29791	0.000000	0.000000	6.112713	0.064830	NaN	0.000000	0.001650	0.001710	28.0835	0.062464	0.002072	30.1539	-95.0394	-3.065009	0.022479	0.110742	-0.999540	-1.000904	0.064830	30.1539	-1.001153	-2.351197E+13	-2.757303E-15	NaN
739	1.000000	0.122122	7.37228e+06	-40139.1	1005.82	-29791	0.000000	0.000000	6.122726	-0.026115	NaN	0.000000	0.001529	0.001686	28.0831	0.033181	0.001932	17.1725	39.1002	178.799	0.023888	0.120821	-0.989524	-0.990824	-0.026115	17.1725	-0.988383	-1.582470E+13	1.650284E-15	NaN
739	1.000000	0.132126	7.37228e+06	-40139.1	1005.82	-29791	0.000000	0.000000	6.132733	0.043447	NaN	0.000000	0.001576	0.001661	28.0832	0.045978	0.001995	23.0485	-178.472	3.723639	-0.002254	0.130758	-0.979519	-0.980888	0.043447	23.0485	-0.980933	-1.255971E+13	-3.459201E-15	NaN
739	1.000000	0.142127	7.37228e+06	-40139.1	1005.82	-29791	0.000000	0.000000	6.142729	-0.061293	NaN	0.000000	0.001564	0.001694	28.0836	0.092387	0.002119	43.6041	-147.428	-179.81	0.009053	0.140803	-0.969519	-0.970843	-0.061293	43.6041	-0.968465	-8.530453E+12	7.185205E-15	NaN
739	1.000000	0.152120	7.37228e+06	-40139.1	1005.82	-29791	0.000000	0.000000	6.152725	0.009674	NaN	0.000000	0.001584	0.001706	28.0837	0.076008	0.002027	37.5044	164.509	-2.734563	0.038345	0.150766	-0.959526	-0.960879	0.009674	37.5044	-0.959719	-6.502512E+12	-1.487795E-15	NaN
739	1.000000	0.162105	7.37228e+06	-40139.1	1005.82	-29791.1	0.000000	0.000000	6.162712	0.036339	NaN	0.000000	0.001532	0.001689	28.0835	0.112696	0.002080	54.1924	-88.7722	175.183	0.068296	0.160774	-0.949540	-0.950872	0.036339	54.1924	-0.950043	-4.815146E+12	-7.546792E-15	NaN
739	1.000000	0.172125	7.37228e+06	-40139.1	1005.82	-29791.1	0.000000	0.000000	6.172731	0.025310	NaN	0.000000	0.001582	0.001665	28.0834	0.026878	0.002059	13.0538	-170.462	-2.843871	0.043696	0.170785	-0.939520	-0.940860	0.025310	13.0538	-0.940975	-3.633162E+12	-6.966500E-15	NaN
739	1.000000	0.182140	7.37228e+06	-40139.1	1005.82	-29791.1	0.000000	0.000000	6.182745	0.017630	NaN	0.000000	0.001590	0.001694	28.0833	0.115020	0.001961	58.6487	142.741	177.996	0.010281	0.180769	-0.929506	-0.930877	0.017630	58.6487	-0.929732	-2.561973E+12	-6.881419E-15	NaN
739	1.000000	0.192142	7.37228e+06	-40139.1	1005.82	-29791.1	0.000000	0.000000	6.192749	0.057905	NaN	0.000000	0.001530	0.001676	28.0833	0.181951	0.001961	92.8034	-135.692	-1.098853	0.094913	0.190742	-0.919503	-0.920904	0.057905	92.8034	-0.919971	-1.891550E+12	-3.061248E-14	NaN
739	1.000000	0.202147	7.37228e+06	-40139.1	1005.82	-29791.1	0.000000	0.000000	6.202750	-0.046000	NaN	0.000000	0.001547	0.001703	28.0834	0.067600	0.001964	34.4136	66.4567	179.594	-0.028845	0.200806	-0.909499	-0.910840	-0.046000	34.4136	-0.908496	-1.323877E+12	3.474648E-14	NaN
739	1.000000	0.212162	7.37228e+06	-40139.1	1005.82	-29791.1	0.000000	0.000000	6.212767	0.022538	NaN	0.000000	0.001557	0.001662	28.0837	0.086679	0.002102	41.2342	-117.212	-1.996516	0.031513	0.210762	-0.899484	-0.900884	0.022538	41.2342	-0.899894	-1.013051E+12	-2.224726E-14	NaN
739	1.000000	0.222129	7.37228e+06	-40139.1	1005.82	-29791.1	0.000000	0.000000	6.222736	0.056217	NaN	0.000000	0.001568	0.001670	28.0832	0.075321	0.001965	38.3256	-19.3243	174.33	0.039747	0.220871	-0.889517	-0.890775	0.056217	38.3256	-0.890617	-7.590215E+11	-7.406503E-14	NaN
739	1.000000	0.232131	7.37228e+06	-40139.1	1005.82	-29791.1	0.000000	0.000000	6.232733	-0.051130	NaN	0.000000	0.001571	0.001673	28.0847	0.056657	0.002011	28.173	56.0387	-3.439361	-0.022542	0.230777	-0.879515	-0.880869	-0.051130	28.173	-0.878154	-5.149200E+11	9.929639E-14	NaN
739	1.000000	0.242135	7.37228e+06	-40139.1	1005.82	-29791.1	0.000000	0.000000	6.242740	-0.008100	NaN	0.000000	0.001665	0.001653	28.0846	0.060255	0.001960	30.7371	-4.487395	176.178	0.009985	0.240788	-0.869510	-0.870858	-0.008100	30.7371	-0.869313	-3.909704E+11	2.071766E-14	NaN
739	1.000000	0.252152	7.37228e+06	-40139.1	1005.82	-29791.1	0.000000	0.000000	6.252756	-0.020356	NaN	0.000000	0.001604	0.001667	28.0845	0.078443	0.001937	40.5034	46.207	-1.506697	0.022474	0.250774	-0.859493	-0.860872	-0.020356	40.5034	-0.859117	-2.845528E+11	7.153588E-14	NaN
739	1.000000	0.262195	7.37228e+06	-40139.1	1005.82	-29791.1	0.000000	0.000000	6.262799	-0.027970	NaN	0.000000	0.001622	0.001681	28.0844	0.147719	0.001973	74.8582	139.155	179.254	-0.034421	0.260897	-0.849451	-0.850749	-0.027970	74.8582	-0.849170	-2.086907E+11	1.340268E-13	NaN
739	1.000000	0.272207	7.37228e+06	-40139.1	1005.82	-29791.1	0.000000	0.000000	6.272815	0.080427	NaN	0.000000	0.001538	0.001674	28.0847	0.047295	0.002012	23.5023	112.052	-1.207793	0.015416	0.270867	-0.839439	-0.840778	0.080427	23.5023	-0.842005	-1.668999E+11	-4.818893E-13	NaN
739	1.000000	0.282151	7.37228e+06	-40139.1	1005.82	-29791.1	0.000000	0.000000	6.282753	-0.052566	NaN	0.000000	0.001585	0.001672	28.0848	0.125841	0.001840	68.3733	100.46	172.947	-0.026590	0.280876	-0.829495	-0.830769	-0.052566	68.3733	-0.828919	-1.109496E+11	4.737796E-13	NaN
739	1.000000	0.292181	7.37228e+06	-40139.1	1005.82	-29791.1	0.000000	0.000000	6.292787	0.052395	NaN	0.000000	0.001577	0.001676	28.0846	0.026272	0.002036	12.9018	129.8	0.107941	0.044764	0.290786	-0.819465	-0.820860	0.052395	12.9018	-0.822511	-9.083606E+10	-5.768135E-13	NaN
739	1.000000	0.302195	7.37228e+06	-40139.1	1005.82	-29791.1	0.000000	0.000000	6.302801	0.044185	NaN	0.000000	0.001561	0.001697	28.0847	0.048253	0.002112	22.8499	80.663	176.664	-0.010993	0.300919	-0.809451	-0.810727	0.044185	22.8499	-0.810901	-6.321168E+10	-6.989975E-13	NaN
739	1.000000	0.312181	7.37228e+06	-40139.1	1005.82	-29791.1	0.000000	0.000000	6.312786	0.011477	NaN	0.000000	0.001608	0.001663	28.0845	0.078085	0.002047	38.1483	124.671	-5.184185	0.031322	0.310842	-0.799465	-0.800804	0.011477	38.1483	-0.799691	-4.453099E+10	-2.577294E-13	NaN
739	1.000000	0.322198	7.37228e+06	-40139.1	1005.82	-29791.1	0.000000	0.000000	6.322801	-0.029293	NaN	0.000000	0.001583	0.001648	28.0847	0.071231	0.002037	34.9716	35.0711	179.607	-0.026805	0.320873	-0.789448	-0.790773	-0.029293	34.9716	-0.788820	-3.169962E+10	9.240898E-13	NaN
739	1.000000	0.332176	7.37228e+06	-40139.1	1005.82	-29791.1	0.000000	0.000000	6.332781	0.009503	NaN	0.000000	0.001575	0.001666	28.0847	0.107937	0.001922	56.1543	95.5988	-1.941747	0.051125	0.330858	-0.779470	-0.780787	0.009503	56.1543	-0.779597	-2.375481E+10	-4.000345E-13	NaN
739	1.000000	0.342169	7.37228e+06	-40139.1	1005.82	-29791.1	0.000000	0.000000	6.342776	0.058267	NaN	0.000000	0.001576	0.001718	28.0847	0.163068	0.001913	85.2582	-136.744	-179.291	0.087337	0.340932	-0.769477	-0.770714	0.058267	85.2582	-0.769990	-1.758587E+10	-3.313306E-12	NaN
739	1.000000	0.352208	7.37228e+06	-40139.1	1005.82	-29791.1	0.000000	0.000000	6.352810	-0.082088	NaN	0.000000	0.001541	0.001668	28.0848	0.018705	0.001936	9.662112	59.8052	0.782702	-0.142546	0.350861	-0.759437	-0.760784	-0.082088	9.662112	-0.753065	-1.035008E+10	7.931152E-12	NaN
739	1.000000	0.362193	7.37228e+06	-40139.1	1005.82	-29791.1	0.000000	0.000000	6.362800	0.055068	NaN	0.000000	0.001568	0.001668	28.0848	0.023332	0.002027	11.5079	112.296	176.258	0.068107	0.360885	-0.749452	-0.750761	0.055068	11.5079	-0.753041	-1.034229E+10	-5.324573E-12	NaN
739	1.000000	0.372203	7.37228e+06	-40139.1	1005.82	-29791.1	0.000000	0.000000	6.372807	-0.014517	NaN	0.000000	0.001560	0.001649	28.0835	0.049030	0.001992	24.6091	177.203	-6.937396	0.026012	0.370853	-0.739442	-0.740793	-0.014517	24.6091	-0.739000	-6.659372E+9	2.179987E-12	NaN
739	1.000000	0.382230	7.37228e+06	-40139.1	1005.82	-29791.1	0.000000	0.000000	6.382836	0.032380	NaN	0.000000	0.001568	0.001632	28.0834	0.039355	0.002097	18.7682	-51.9674	178.306	0.077274	0.380918	-0.729415	-0.730728	0.032380	18.7682	-0.730709	-5.134214E+9	-6.306665E-12	NaN
739	1.000000	0.392250	7.37228e+06	-40139.1	1005.82	-29791.1	0.000000	0.000000	6.392857	0.067417	NaN	0.000000	0.001568	0.001654	28.0835	0.006767	0.002000	3.383466	13.3826	-0.999042	0.032087	0.390866	-0.719396	-0.720779	0.067417	3.383466	-0.734340	-5.753749E+9	-1.171698E-11	NaN
739	1.000000	0.402192	7.37228e+06	-40139.1	1005.82	-29791.1	0.000000	0.000000	6.402795	-0.022961	NaN	0.000000	0.001577	0.001642	28.0837	0.136071	0.002179	62.436	-171.433	178.826	0.021630	0.400891	-0.709454	-0.710754	-0.022961	62.436	-0.709178	-2.611150E+9	8.793508E-12	NaN
739	1.000000	0.412229	7.37228e+06	-40139.1	1005.82	-29791.1	0.000000	0.000000	6.412834	0.007363	NaN	0.000000	0.001573	0.001662	28.0834	0.109387	0.001946	56.2047	-124.017	-1.450175	-0.002033	0.410913	-0.699416	-0.700733	0.007363	56.2047	-0.699514	-1.927085E+9	-3.820741E-12	NaN
739	1.000000	0.422223	7.37228e+06	-40139.1	1005.82	-29791.1	0.000000	0.000000	6.422828	0.007320	NaN	0.000000	0.001560	0.001652	28.0834	0.082125	0.002068	39.7046	39.0825	178.738	-0.006166	0.420840	-0.689422	-0.690805	0.007320	39.7046	-0.689561	-1.409007E+9	-5.194954E-12	NaN
739	1.000000	0.432244	7.37228e+06	-40139.1	1005.82	-29791.1	0.000000	0.000000	6.432849	0.014836	NaN	0.000000	0.001526	0.001627	28.0835	0.073002	0.002051	35.5967	-114.214	-2.598232	-0.047042	0.430889	-0.679402	-0.680757	0.014836	35.5967	-0.679715	-1.033480E+9	-1.435494E-11	NaN
739	1.000000	0.442256	7.37228e+06	-40139.1	1005.82	-29791.1	0.000000	0.000000	6.442862	0.025588	NaN	0.000000	0.001538	0.001669	28.0834	0.132637	0.001873	70.8287	26.2782	178.905	0.025320	0.440922	-0.669390	-0.670723	0.025588	70.8287	-0.669661	-7.529170E+8	-3.398501E-11	NaN
739	1.000000	0.452252	7.37228e+06	-40139.1	1005.82	-29791.1	0.000000	0.000000	6.452857	0.011522	NaN	0.000000	0.001544	0.001677	28.0834	0.062496	0.001881	33.224	40.3545	-4.063922	0.043397	0.450896	-0.659394	-0.660750	0.011522	33.224	-0.659654	-5.491993E+8	-2.098052E-11	NaN
739	1.000000	0.462245	7.37228e+06	-40139.1	1005.82	-29791.1	0.000000	0.000000	6.462849	-0.025010	NaN	0.000000	0.001556	0.001712	28.0835	0.150802	0.001951	77.2965	132.909	175.663	-0.061278	0.460938	-0.649401	-0.650708	-0.025010	77.2965	-0.649158	-3.943590E+8	6.341831E-11	NaN
739	1.000000	0.472276	7.37228e+06	-40139.1	1005.82	-29791.1	0.000000	0.000000	6.472881	0.009784	NaN	0.000000	0.001589	0.001684	28.0834	0.060695	0.001824	33.2727	-72.2504	-1.696300	-0.063166	0.470886	-0.639370	-0.640759	0.009784	33.2727	-0.639591	-2.915228E+8	-3.356190E-11	NaN
739	1.000000	0.482264	7.37228e+06	-40139.1	1005.82	-29791.1	0.000000	0.000000	6.482868	-0.010708	NaN	0.000000	0.001550	0.001696	28.0833	0.130501	0.002046	63.7986	-157.642	175.474	-0.035129	0.480938	-0.629382	-0.630707	-0.010708	63.7986	-0.629256	-2.102814E+8	5.092180E-11	NaN
739	1.000000	0.492252	7.37228e+06	-40139.1	1005.82	-29791.1	0.000000	0.000000	6.492859	0.050727	NaN	0.000000	0.001593	0.001706	28.0833	0.054613	0.002009	27.1848	-59.1551	-2.358064	-0.013795	0.490932	-0.619394	-0.620714	0.050727	27.1848	-0.620793	-1.608936E+8	-3.152839E-10	NaN
739	1.000000	0.502255	7.37228e+06	-40139.1	1005.82	-29791.1	0.000000	0.000000	6.502861	0.019756	NaN	0.000000	0.001541	0.001691	28.0845	0.111573	0.002000	55.7748	-120.392	175.26	0.051734	0.501008	-0.609391	-0.610638	0.019756	55.7748	-0.609656	-1.130795E+8	-1.747104E-10	NaN
739	1.000000	0.512252	7.37228e+06	-40139.1	1005.82	-29791.1	0.000000	0.000000	6.512855	-0.042711	NaN	0.000000	0.001539	0.001711	28.0846	0.032712	0.001978	16.5416	-30.2431	-2.582644	-0.121634	0.510930	-0.599394	-0.600715	-0.042711	16.5416	-0.597457	-7.681284E+7	5.560433E-10	NaN
739	1.000000	0.522288	7.37228e+06	-40139.1	1005.82	-29791.1	0.000000	0.000000	6.522891	-0.033500	NaN	0.000000	0.001559	0.001675	28.0845	0.012209	0.002087	5.851051	-178.721	175.057	0.050842	0.520980	-0.589358	-0.590666	-0.033500	5.851051	-0.585064	-5.183195E+7	6.463280E-10	NaN
739	1.000000	0.532289	7.37228e+06	-40139.1	1005.82	-29791.1	0.000000	0.000000	6.532893	-0.016712	NaN	0.000000	0.001558	0.001674	28.0844	0.007114	0.001917	3.710227	-70.8746	-1.137388	0.083586	0.530931	-0.579357	-0.580715	-0.016712	3.710227	-0.575978	-3.883362E+7	4.303523E-10	NaN
739	1.000000	0.542293	7.37228e+06	-40139.1	1005.82	-29791.1	0.000000	0.000000	6.542895	-0.069821	NaN	0.000000	0.001528	0.001691	28.0846	0.095851	0.002038	47.0383	-87.7569	175.251	-0.039001	0.540965	-0.569353	-0.570681	-0.069821	47.0383	-0.568239	-3.036001E+7	2.299756E-9	NaN
739	1.000000	0.552308	7.37228e+06	-40139.1	1005.82	-29791.1	0.000000	0.000000	6.552914	0.017975	NaN	0.000000	0.001529	0.001722	28.0844	0.091196	0.001986	45.9096	-159.756	-3.253356	-0.011375	0.550926	-0.559337	-0.560720	0.017975	45.9096	-0.559631	-2.308188E+7	-7.787373E-10	NaN
739	1.000000	0.562293	7.37228e+06	-40139.1	1005.82	-29791.1	0.000000	0.000000	6.562898	0.001745	NaN	0.000000	0.001573	0.001669	28.0844	0.036428	0.002133	17.0769	-166.133	176.629	0.068610	0.561019	-0.549353	-0.550627	0.001745	17.0769	-0.549429	-1.667445E+7	-1.046721E-10	NaN
739	1.000000	0.572279	7.37228e+06	-40139.1	1005.82	-29791.1	0.000000	0.000000	6.572882	-0.026168	NaN	0.000000	0.001565	0.001673	28.0842	0.068348	0.001938	35.2687	163.52	1.359620	-0.062819	0.570922	-0.539367	-0.540724	-0.026168	35.2687	-0.538810	-1.188117E+7	2.202440E-9	NaN
739	1.000000	0.582319	7.37228e+06	-40139.1	1005.82	-29791.1	0.000000	0.000000	6.582923	-0.009971	NaN	0.000000	0.001581	0.001645	28.0846	0.062519	0.001951	32.0486	-107.442	179.467	0.024589	0.580993	-0.529327	-0.530652	-0.009971	32.0486	-0.529094	-8.70938e+06	1.144809E-9	NaN
739	1.000000	0.592322	7.37229e+06	-40139.1	1005.82	-29791.1	0.000000	0.000000	6.592929	0.058131	NaN	0.000000	0.001603	0.001649	28.0846	0.140152	0.002074	67.586	70.836	-8.435065	0.123629	0.590916	-0.519324	-0.520730	0.058131	67.586	-0.519969	-6.50382e+06	-8.937906E-9	NaN
739	1.000000	0.602300	7.37229e+06	-40139.1	1005.82	-29791.1	0.000000	0.000000	6.602905	0.013623	NaN	0.000000	0.001531	0.001723	28.0845	0.138769	0.001842	75.3523	15.7788	178.844	0.060803	0.600979	-0.509346	-0.510667	0.013623	75.3523	-0.509481	-4.64722e+06	-2.931502E-9	NaN
739	1.000000	0.612313	7.37229e+06	-40139.1	1005.82	-29791.1	0.000000	0.000000	6.612919	0.025528	NaN	0.000000	0.001638	0.001655	28.0847	0.094466	0.002105	44.8758	-78.8194	-5.408208	0.020038	0.611012	-0.499332	-0.500634	0.025528	44.8758	-0.499759	-3.40139e+06	-7.505071E-9	NaN
739	1.000000	0.622320	7.37229e+06	-40139.1	1005.82	-29791.1	0.000000	0.000000	6.622924	-0.014866	NaN	0.000000	0.001651	0.001697	28.0846	0.091512	0.001988	46.0298	66.0152	178.948	-0.048319	0.620977	-0.489326	-0.490668	-0.014866	46.0298	-0.489084	-2.41317e+06	6.160388E-9	NaN
739	1.000000	0.632320	7.37229e+06	-40139.1	1005.82	-29791.1	0.000000	0.000000	6.632926	0.022871	NaN	0.000000	0.001627	0.001679	28.0845	0.087905	0.001916	45.8857	-135.608	-3.596605	-0.002088	0.630934	-0.479326	-0.480712	0.022871	45.8857	-0.479700	-1.7837e+06	-1.282250E-8	NaN
739	1.000000	0.642341	7.37229e+06	-40139.1	1005.82	-29791.1	0.000000	0.000000	6.642949	0.083069	NaN	0.000000	0.001620	0.001667	28.0838	0.016798	0.002026	8.292331	-129.011	177.508	0.083332	0.641015	-0.469304	-0.470631	0.083069	8.292331	-0.476818	-1.62542e+06	-5.110617E-8	NaN
739	1.000000	0.652332	7.37229e+06	-40139.1	1005.82	-29791.1	0.000000	0.000000	6.652938	0.025593	NaN	0.000000	0.001635	0.001624	28.0838	0.013010	0.002006	6.484769	115.967	-3.356034	0.036723	0.650988	-0.459313	-0.460658	0.025593	6.484769	-0.462273	-1.01615e+06	-2.518667E-8	NaN
739	1.000000	0.662303	7.37229e+06	-40139.1	1005.82	-29791.1	0.000000	0.000000	6.662907	-0.022667	NaN	0.000000	0.001682	0.001638	28.0837	0.145925	0.002030	71.8842	-104.368	176.13	-0.107099	0.661048	-0.449343	-0.450598	-0.022667	71.8842	-0.449106	-663366	3.416952E-8	NaN
739	1.000000	0.672326	7.37229e+06	-40139.1	1005.82	-29791.1	0.000000	0.000000	6.672930	-0.001982	NaN	0.000000	0.001649	0.001674	28.0834	0.112394	0.002033	55.2736	162.41	-1.513364	-0.011176	0.671007	-0.439320	-0.440638	-0.001982	55.2736	-0.439293	-482374	4.108774E-9	NaN
739	1.000000	0.682332	7.37229e+06	-40139.1	1005.82	-29791.1	0.000000	0.000000	6.682934	-0.049749	NaN	0.000000	0.001619	0.001676	28.0836	0.111197	0.001963	56.6597	-44.4096	-178.683	-0.030788	0.681048	-0.429314	-0.430598	-0.049749	56.6597	-0.428655	-341220	1.457985E-7	NaN
739	1.000000	0.692392	7.37229e+06	-40139.1	1005.82	-29791.1	0.000000	0.000000	6.692993	-0.079477	NaN	0.000000	0.001667	0.001683	28.0834	0.093515	0.002006	46.6268	101.568	-3.990771	0.020461	0.690975	-0.419254	-0.420671	-0.079477	46.6268	-0.417976	-240823	3.300198E-7	NaN
739	1.000000	0.702356	7.37229e+06	-40139.1	1005.82	-29791.1	0.000000	0.000000	6.702962	0.039218	NaN	0.000000	0.001665	0.001672	28.0833	0.118833	0.001898	62.62	-52.4167	175.878	0.080472	0.701076	-0.409290	-0.410569	0.039218	62.62	-0.409760	-184071	-2.130582E-7	NaN
739	1.000000	0.712359	7.37229e+06	-40139.1	1005.82	-29791.1	0.000000	0.000000	6.712965	0.040912	NaN	0.000000	0.001658	0.001719	28.0834	0.035577	0.001974	18.0251	-117.926	-1.400183	0.099309	0.711005	-0.399287	-0.400641	0.040912	18.0251	-0.400989	-138070	-2.963121E-7	NaN
739	1.000000	0.722329	7.37229e+06	-40139.1	1005.82	-29791.1	0.000000	0.000000	6.722934	-0.000136	NaN	0.000000	0.001606	0.001663	28.0835	0.052645	0.001967	26.7675	-47.2746	175.86	0.018973	0.721070	-0.389317	-0.390576	-0.000136	26.7675	-0.389313	-94045.5	1.450855E-9	NaN
739	1.000000	0.732347	7.37229e+06	-40139.1	1005.82	-29791.1	0.000000	0.000000	6.732953	0.022455	NaN	0.000000	0.001632	0.001623	28.0832	0.094032	0.002092	44.9425	106.615	-3.807409	0.046686	0.731018	-0.379298	-0.380627	0.022455	44.9425	-0.379673	-68422.2	-3.281890E-7	NaN
739	1.000000	0.742364	7.37229e+06	-40139.1	1005.82	-29791.1	0.000000	0.000000	6.742967	-0.047359	NaN	0.000000	0.001676	0.001671	28.0833	0.030071	0.002063	14.5748	-21.4694	176.655	-0.048779	0.741110	-0.369281	-0.370536	-0.047359	14.5748	-0.366844	-44735.9	1.058637E-6	NaN
739	1.000000	0.752393	7.37229e+06	-40139.1	1005.82	-29791.1	0.000000	0.000000	6.752998	0.005764	NaN	0.000000	0.001656	0.001661	28.0832	0.098757	0.002021	48.8641	-146.528	0.599028	-0.027173	0.750954	-0.359253	-0.360692	0.005764	48.8641	-0.359341	-34859.5	-1.653412E-7	NaN
739	1.000000	0.762384	7.37229e+06	-40139.1	1005.82	-29791.1	0.000000	0.000000	6.762986	-0.063626	NaN	0.000000	0.001587	0.001652	28.0835	0.115533	0.002099	55.0475	-46.5442	178.59	-0.020314	0.760991	-0.349261	-0.350654	-0.063626	55.0475	-0.348395	-24193.2	2.629904E-6	NaN
739	1.000000	0.772389	7.37229e+06	-40139.1	1005.82	-29791.1	0.000000	0.000000	6.772992	-0.056087	NaN	0.000000	0.001620	0.001675	28.0837	0.106596	0.002048	52.0558	-141.319	-2.309921	-0.016203	0.770982	-0.339256	-0.340664	-0.056087	52.0558	-0.338448	-17335.2	3.235449E-6	NaN
739	1.000000	0.782390	7.37229e+06	-40139.1	1005.82	-29791.1	0.000000	0.000000	6.782993	-0.030115	NaN	0.000000	0.001648	0.001641	28.0847	0.118128	0.001982	59.5909	-172.963	-178.662	0.012615	0.781083	-0.329256	-0.330563	-0.030115	59.5909	-0.328877	-12560.3	2.397675E-6	NaN
739	1.000000	0.792384	7.37229e+06	-40139.1	1005.82	-29791.1	0.000000	0.000000	6.792990	0.023929	NaN	0.000000	0.001675	0.001686	28.0846	0.040442	0.001926	20.9955	124.666	-2.111232	0.024394	0.791010	-0.319261	-0.320636	0.023929	20.9955	-0.320116	-9339.98	-2.562003E-6	NaN
739	1.000000	0.802373	7.37229e+06	-40139.1	1005.82	-29791.1	0.000000	0.000000	6.802978	0.012772	NaN	0.000000	0.001649	0.001680	28.0848	0.111526	0.001946	57.306	-148.044	174.983	0.022112	0.801112	-0.309273	-0.310534	0.012772	57.306	-0.309440	-6497.79	-1.965575E-6	NaN
739	1.000000	0.812374	7.37229e+06	-40139.1	1005.82	-29791.1	0.000000	0.000000	6.812979	0.007124	NaN	0.000000	0.001648	0.001660	28.0845	0.127094	0.001938	65.5788	57.1578	-3.377717	-0.000954	0.811028	-0.299272	-0.300618	0.007124	65.5788	-0.299353	-4602.6	-1.547820E-6	NaN
739	1.000000	0.822415	7.37229e+06	-40139.1	1005.82	-29791.1	0.000000	0.000000	6.823021	0.027305	NaN	0.000000	0.001653	0.001672	28.0845	0.029418	0.002033	14.4693	27.1923	176.418	0.018428	0.821095	-0.289231	-0.290551	0.027305	14.4693	-0.290646	-3411.78	-8.003091E-6	NaN
739	1.000000	0.832415	7.37229e+06	-40139.1	1005.82	-29791.1	0.000000	0.000000	6.833020	0.002214	NaN	0.000000	0.001657	0.001659	28.0846	0.032837	0.001941	16.915	-76.7381	-3.891256	0.016014	0.831048	-0.279230	-0.280598	0.002214	16.915	-0.279329	-2305.9	-9.602042E-7	NaN
739	1.000000	0.842437	7.37229e+06	-40139.1	1005.82	-29791.1	0.000000	0.000000	6.843044	0.057903	NaN	0.000000	0.001675	0.001631	28.0846	0.038431	0.001906	20.1669	171.417	177.745	0.120501	0.841099	-0.269209	-0.270546	0.057903	20.1669	-0.271362	-1746.77	-3.314869E-5	NaN
739	1.000000	0.852418	7.37229e+06	-40139.1	1005.82	-29791.1	0.000000	0.000000	6.853023	0.001181	NaN	0.000000	0.001704	0.001663	28.0848	0.046246	0.001933	23.9231	106.517	-4.291445	0.035185	0.851075	-0.259227	-0.260571	0.001181	23.9231	-0.259264	-1141.93	-1.034431E-6	NaN
739	1.000000	0.862389	7.37229e+06	-40139.1	1005.82	-29791.1	0.000000	0.000000	6.862993	-0.011262	NaN	0.000000	0.001645	0.001671	28.0844	0.062273	0.001928	32.2988	25.136	174.884	-0.040808	0.861165	-0.249256	-0.250481	-0.011262	32.2988	-0.248995	-793.26	1.419678E-5	NaN
739	1.000000	0.872374	7.37229e+06	-40139.1	1005.82	-29791.1	0.000000	0.000000	6.872980	0.010942	NaN	0.000000	0.001663	0.001673	28.0847	0.048030	0.002000	24.0132	-14.4902	-3.569860	-0.009353	0.871048	-0.239271	-0.240598	0.010942	24.0132	-0.239613	-566.901	-1.930095E-5	NaN
739	1.000000	0.882431	7.37229e+06	-40139.1	1005.82	-29791.1	0.000000	0.000000	6.883037	0.032168	NaN	0.000000	0.001717	0.001666	28.0849	0.036443	0.001938	18.8049	130.005	174.221	-0.052019	0.881111	-0.229214	-0.230535	0.032168	18.8049	-0.230497	-407.725	-7.889625E-5	NaN
739	1.000000	0.892438	7.37229e+06	-40139.1	1005.82	-29791.1	0.000000	0.000000	6.893042	-0.014006	NaN	0.000000	0.001657	0.001669	28.0847	0.023083	0.002028	11.3819	29.732	-3.091529	0.001613	0.891087	-0.219208	-0.220559	-0.014006	11.3819	-0.218285	-260.757	5.371100E-5	NaN
739	1.000000	0.902433	7.37229e+06	-40139.1	1005.82	-29791.1	0.000000	0.000000	6.903038	0.009037	NaN	0.000000	0.001683	0.001691	28.0845	0.050521	0.002070	24.4042	-48.262	178.205	0.038320	0.901081	-0.209213	-0.210565	0.009037	24.4042	-0.209490	-188.175	-4.802552E-5	NaN
739	1.000000	0.912409	7.37229e+06	-40139.1	1005.82	-29791.1	0.000000	0.000000	6.913014	0.001206	NaN	0.000000	0.001676	0.001713	28.0835	0.115238	0.001942	59.3425	123.17	-5.013300	0.042467	0.911136	-0.199237	-0.200510	0.001206	59.3425	-0.199252	-128.055	-9.421412E-6	NaN
739	1.000000	0.922412	7.37229e+06	-40139.1	1005.82	-29791.1	0.000000	0.000000	6.923016	-0.020478	NaN	0.000000	0.001673	0.001672	28.0834	0.037241	0.002011	18.5195	64.0337	176.957	0.004905	0.921152	-0.189234	-0.190494	-0.020478	18.5195	-0.188405	-84.5941	0.000242	NaN
739	1.000000	0.932453	7.37229e+06	-40139.1	1005.82	-29791.1	0.000000	0.000000	6.933055	-0.076844	NaN	0.000000	0.001669	0.001722	28.0832	0.016742	0.001986	8.429525	-60.8702	-4.727066	0.003584	0.931085	-0.179193	-0.180561	-0.076844	8.429525	-0.172356	-45.1247	0.001703	NaN
739	1.000000	0.942441	7.37229e+06	-40139.1	1005.82	-29791.1	0.000000	0.000000	6.943045	-0.002615	NaN	0.000000	0.001668	0.001707	28.0834	0.120550	0.001996	60.3812	-171.353	-179.716	-0.044827	0.941143	-0.169205	-0.170503	-0.002615	60.3812	-0.169172	-39.7403	6.579020E-5	NaN
739	1.000000	0.952442	7.37229e+06	-40139.1	1005.82	-29791.1	0.000000	0.000000	6.953045	-0.047934	NaN	0.000000	0.001635	0.001722	28.0836	0.163761	0.002061	79.4477	-55.5985	-0.260687	-0.072151	0.951140	-0.159204	-0.160506	-0.047934	79.4477	-0.158751	-26.0472	0.001840	NaN
739	1.000000	0.962453	7.37229e+06	-40139.1	1005.82	-29791.1	0.000000	0.000000	6.963059	0.028286	NaN	0.000000	0.001676	0.001682	28.0833	0.102036	0.001879	54.2986	47.1061	176.727	0.002597	0.961157	-0.149193	-0.150489	0.028286	54.2986	-0.149583	-17.7992	-0.001589	NaN
739	1.000000	0.972524	7.37229e+06	-40139.1	1005.82	-29791.1	0.000000	0.000000	6.973130	0.034537	NaN	0.000000	0.001630	0.001681	28.0833	0.101904	0.002104	48.4425	147.366	-2.566812	0.050771	0.971080	-0.139122	-0.140565	0.034537	48.4425	-0.139657	-11.655	-0.002963	NaN
739	1.000000	0.982487	7.37229e+06	-40139.1	1005.82	-29791.1	0.000000	0.000000	6.983093	0.022555	NaN	0.000000	0.001638	0.001688	28.0831	0.057145	0.002012	28.4021	-134.393	176.916	0.006207	0.981167	-0.129159	-0.130479	0.022555	28.4021	-0.129754	-7.537599	-0.002992	NaN
739	1.000000	0.992507	7.37229e+06	-40139.1	1005.82	-29791.1	0.000000	0.000000	6.993114	0.073289	NaN	0.000000	0.001660	0.001688	28.0833	0.062983	0.002068	30.4598	126.305	-3.674235	0.011865	0.991131	-0.119139	-0.120515	0.073289	30.4598	-0.120944	-5.047667	-0.014519	NaN
739	1.000000	1.002469	7.37229e+06	-40139.1	1005.82	-29791.1	0.000000	0.000000	7.003070	-0.078093	NaN	0.000000	0.001667	0.001711	28.083	0.103334	0.001962	52.6624	-64.0093	176.251	-0.029852	1.001174	-0.109177	-0.110472	-0.078093	52.6624	-0.108065	-2.734513	0.028558	NaN
739	1.000000	1.012488	7.37229e+06	-40139.1	1005.82	-29791.1	0.000000	0.000000	7.013095	0.052030	NaN	0.000000	0.001662	0.001680	28.0832	0.120526	0.002054	58.6765	-100.957	0.717916	-0.037387	1.011115	-0.099158	-0.100531	0.052030	58.6765	-0.099823	-1.810706	-0.028734	NaN
739	1.000000	1.022489	7.37229e+06	-40139.1	1005.82	-29791.1	0.000000	0.000000	7.023093	-0.013870	NaN	0.000000	0.001616	0.001694	28.0833	0.085949	0.001884	45.6313	83.6733	178.931	0.002766	1.021147	-0.089156	-0.090498	-0.013870	45.6313	-0.088928	-1.019983	0.013598	NaN
739	1.000000	1.032488	7.37229e+06	-40139.1	1005.82	-29791.1	0.000000	0.000000	7.033091	-0.031455	NaN	0.000000	0.001635	0.001689	28.0832	0.144194	0.001970	73.1979	25.3263	-0.686317	-0.030540	1.031108	-0.079158	-0.080538	-0.031455	73.1979	-0.078836	-0.578709	0.054354	NaN
739	1.000000	1.042467	7.37229e+06	-40139.1	1005.82	-29791.1	0.000000	0.000000	7.043073	0.050705	NaN	0.000000	0.001652	0.001718	28.083	0.013706	0.001952	7.020940	-59.7119	179.899	0.006953	1.041199	-0.069179	-0.070446	0.050705	7.020940	-0.074595	-0.450856	-0.112463	NaN
739	1.000000	1.052468	7.37229e+06	-40139.1	1005.82	-29791.1	0.000000	0.000000	7.053072	-0.006374	NaN	0.000000	0.001643	0.001700	28.0844	0.110710	0.002015	54.9493	158.294	-2.493590	0.077683	1.051128	-0.059178	-0.060518	-0.006374	54.9493	-0.059091	-0.169564	0.037592	NaN
739	1.000000	1.062476	7.37229e+06	-40139.1	1005.82	-29791.1	0.000000	0.000000	7.063079	-0.043750	NaN	0.000000	0.001648	0.001683	28.0844	0.145993	0.001934	75.5017	-79.9726	177.226	-0.022954	1.061174	-0.049170	-0.050472	-0.043750	75.5017	-0.048735	-0.083543	0.523678	NaN
739	1.000000	1.072511	7.37229e+06	-40139.1	1005.82	-29791.1	0.000000	0.000000	7.073113	-0.086305	NaN	0.000000	0.001635	0.001709	28.0842	0.066847	0.002043	32.7137	123.85	-4.144891	-0.025872	1.071110	-0.039134	-0.040536	-0.086305	32.7137	-0.037156	-0.037112	2.325508	NaN
739	1.000000	1.082501	7.37229e+06	-40139.1	1005.82	-29791.1	0.000000	0.000000	7.083105	-0.007886	NaN	0.000000	0.001679	0.001704	28.0842	0.009322	0.002034	4.582427	-62.195	179.372	0.039611	1.081191	-0.029145	-0.030455	-0.007886	4.582427	-0.027854	-0.020091	0.392487	NaN
739	1.000000	1.092520	7.37229e+06	-40139.1	1005.82	-29791.1	0.000000	0.000000	7.093124	-0.011825	NaN	0.000000	0.001631	0.001666	28.0842	0.070671	0.002058	34.3427	-167.704	-3.453432	-0.037583	1.091129	-0.019126	-0.020517	-0.011825	34.3427	-0.018868	-0.011752	1.006163	NaN
739	1.000000	1.102489	7.37229e+06	-40139.1	1005.82	-29791.1	0.000000	0.000000	7.103097	0.068286	NaN	0.000000	0.001642	0.001695	28.0843	0.117612	0.002044	57.5389	41.2682	179.46	0.028080	1.101203	-0.009156	-0.010443	0.068286	57.5389	-0.010047	-0.006414	-10.6464	NaN
739	1.000000	1.112501	7.37229e+06	-40139.1	1005.82	-29791.1	0.000000	0.000000	7.113286	4.388660	NaN	0.000000	0.001635	0.001691	28.084	5.285330	0.001902	2778.72	10.7757	-4.037062	3.313677	1.111185	0.000855	-0.000461	4.388660	2778.72	-0.000329	-0.000245	-17945.2	NaN
739	2.000000	1.118051	7.37229e+06	-40139.1	1005.82	-29791.1	0.000000	0.000000	7.119190	13.0041	NaN	0.000000	0.001669	0.001729	28.0845	11.5762	0.001618	7153.88	5.668697	168.762	12.4104	1.117688	0.006405	0.006042	13.0041	7153.88	0.005042	0.004172	3117.18	101194
739	2.000000	1.120535	7.37229e+06	-40139.1	1005.82	-29791.1	0.000000	0.000000	7.121831	16.814	NaN	0.000000	0.001643	0.001679	28.0844	13.8011	0.001733	7963.05	7.433435	-11.2062	16.266	1.120216	0.008890	0.008570	16.814	7963.05	0.007306	0.006338	2652.72	91382.6
739	2.000000	1.122993	7.37229e+06	-40139.1	1005.82	-29791.1	0.000000	0.000000	7.124544	23.0221	NaN	0.000000	0.001654	0.001665	28.0844	17.2922	0.001740	9937.1	4.830991	167.312	21.908	1.122674	0.011347	0.011029	23.0221	9937.1	0.009610	0.008751	2630.79	97051.9
739	2.000000	1.125467	7.37229e+06	-40139.1	1005.82	-29791.1	0.000000	0.000000	7.127216	27.848	NaN	0.000000	0.001654	0.001696	28.0842	20.6938	0.001776	11653	6.610691	-16.2986	26.0599	1.125093	0.013821	0.013447	27.848	11653	0.012029	0.011525	2416.36	99173.4
739	2.000000	1.127939	7.37229e+06	-40139.1	1005.82	-29791.1	0.000000	0.000000	7.129944	34.0725	NaN	0.000000	0.001668	0.001693	28.0845	23.309	0.001797	12972	5.810318	163.989	32.2929	1.127614	0.016293	0.015969	34.0725	12972	0.014323	0.014393	2367.24	98786.7
739	2.000000	1.130474	7.37229e+06	-40139.1	1005.82	-29791.1	0.000000	0.000000	7.132884	43.9269	NaN	0.000000	0.001679	0.001701	28.0843	25.4857	0.001757	14501.8	5.649749	-15.5139	41.5726	1.130113	0.018829	0.018467	43.9269	14501.8	0.016557	0.017418	2521.94	100391
739	2.000000	1.132991	7.37229e+06	-40139.1	1005.82	-29791.1	0.000000	0.000000	7.135671	50.4938	NaN	0.000000	0.001656	0.001687	28.0841	28.4027	0.001948	14582.3	3.985069	166.386	49.1304	1.132632	0.021345	0.020986	50.4938	14582.3	0.018748	0.020614	2449.53	92794.2
739	2.000000	1.135423	7.37229e+06	-40139.1	1005.82	-29791.1	0.000000	0.000000	7.138456	59.0756	NaN	0.000000	0.001688	0.001658	28.083	30.8703	0.001766	17481.9	7.929178	-19.7388	56.8571	1.135051	0.023778	0.023405	59.0756	17481.9	0.021243	0.024534	2407.92	101972
739	2.000000	1.137955	7.37229e+06	-40139.1	1005.82	-29791.1	0.000000	0.000000	7.141263	65.7701	NaN	0.000000	0.001665	0.001682	28.0834	33.7591	0.001825	18495.7	5.523940	161.879	64.6914	1.137687	0.026310	0.026042	65.7701	18495.7	0.023643	0.028592	2300.26	99935.2
739	2.000000	1.140395	7.37229e+06	-40139.1	1005.82	-29791.1	0.000000	0.000000	7.144279	79.7963	NaN	0.000000	0.001658	0.001705	28.0833	34.8764	0.001744	20003	5.338063	-17.3234	76.5069	1.140078	0.028750	0.028432	79.7963	20003	0.025758	0.032409	2462.2	101517
739	2.000000	1.142917	7.37229e+06	-40139.1	1005.82	-29791.1	0.000000	0.000000	7.147161	88.5609	NaN	0.000000	0.001638	0.001684	28.0833	36.6123	0.001748	20941.1	4.637328	161.633	86.2799	1.142655	0.031272	0.031009	88.5609	20941.1	0.028100	0.036898	2400.18	99603.5
739	2.000000	1.145402	7.37229e+06	-40139.1	1005.82	-29791.1	0.000000	0.000000	7.150127	100.274	NaN	0.000000	0.001659	0.001684	28.0831	40.233	0.001675	24025.3	6.076329	-21.3582	97.2271	1.145032	0.033756	0.033386	100.274	24025.3	0.030626	0.042051	2384.6	107042
739	2.000000	1.147965	7.37229e+06	-40139.1	1005.82	-29791.1	0.000000	0.000000	7.153062	109.319	NaN	0.000000	0.001659	0.001699	28.0841	44.2291	0.001766	25047.2	5.209918	158.993	110.068	1.147602	0.036319	0.035956	109.319	25047.2	0.033046	0.047293	2311.53	105229
739	2.000000	1.150448	7.37229e+06	-40139.1	1005.82	-29791.1	0.000000	0.000000	7.156161	124.294	NaN	0.000000	0.001710	0.001723	28.0831	46.3083	0.001761	26302.8	3.273086	-19.3511	121.453	1.150068	0.038802	0.038422	124.294	26302.8	0.035258	0.052349	2374.33	105032
739	2.000000	1.152924	7.37229e+06	-40139.1	1005.82	-29791.1	0.000000	0.000000	7.159105	135.688	NaN	0.000000	0.001687	0.001727	28.0833	47.9219	0.001730	27697.5	5.317444	158.272	133.577	1.152585	0.041278	0.040939	135.688	27697.5	0.037604	0.057983	2340.12	105090
739	2.000000	1.155395	7.37229e+06	-40139.1	1005.82	-29791.1	0.000000	0.000000	7.162113	148.765	NaN	0.000000	0.001673	0.001700	28.0831	50.5911	0.001750	28906.9	3.637263	-20.2037	145.497	1.155015	0.043749	0.043369	148.765	28906.9	0.039889	0.063742	2333.86	104607
739	2.000000	1.157936	7.37229e+06	-40139.1	1005.82	-29791.1	0.000000	0.000000	7.165007	157.353	NaN	0.000000	0.001666	0.001657	28.0837	54.1403	0.001730	31288.6	2.193033	159.684	155.888	1.157705	0.046291	0.046059	157.353	31288.6	0.042519	0.070700	2225.64	107510
739	2.000000	1.160439	7.37229e+06	-40139.1	1005.82	-29791.1	0.000000	0.000000	7.168070	170.977	NaN	0.000000	0.001704	0.001696	28.0831	56.1489	0.001884	29810	3.067278	-19.6	170.206	1.160147	0.048794	0.048502	170.977	29810	0.044492	0.076152	2245.21	98694.9
739	2.000000	1.162873	7.37229e+06	-40139.1	1005.82	-29791.1	0.000000	0.000000	7.171245	189.02	NaN	0.000000	0.001658	0.001693	28.0834	58.4287	0.001857	31462.3	9.232259	153.452	187.959	1.162593	0.051227	0.050947	189.02	31462.3	0.046721	0.082549	2289.8	100048
739	2.000000	1.165408	7.37229e+06	-40139.1	1005.82	-29791.1	0.000000	0.000000	7.174360	203.123	NaN	0.000000	0.001642	0.001676	28.0832	60.5676	0.001887	32092.8	5.587539	-23.3748	203.026	1.165063	0.053762	0.053417	203.123	32092.8	0.049016	0.089395	2272.21	98067.5
739	2.000000	1.167924	7.37229e+06	-40139.1	1005.82	-29791.1	0.000000	0.000000	7.177568	219.968	NaN	0.000000	0.001644	0.001685	28.0851	62.8516	0.001807	34778	6.493044	155.751	220.916	1.167568	0.056278	0.055922	219.968	34778	0.051535	0.097215	2262.69	101909
739	2.000000	1.170343	7.37229e+06	-40139.1	1005.82	-29791.1	0.000000	0.000000	7.180677	236.762	NaN	0.000000	0.001704	0.001663	28.0846	63.5787	0.001702	37344.6	5.889967	-23.8297	231.775	1.169979	0.058697	0.058333	236.762	37344.6	0.053942	0.104987	2255.16	105301
739	2.000000	1.172919	7.37229e+06	-40139.1	1005.82	-29791.1	0.000000	0.000000	7.183892	252.299	NaN	0.000000	0.001663	0.001682	28.0851	67.4703	0.001783	37850.6	8.340075	152.999	251.601	1.172449	0.061274	0.060804	252.299	37850.6	0.056274	0.112789	2236.91	102971
739	2.000000	1.175432	7.37229e+06	-40139.1	1005.82	-29791.1	0.000000	0.000000	7.187060	268.221	NaN	0.000000	0.001655	0.001710	28.0845	70.077	0.001833	38226.6	7.802332	-26.7097	266.222	1.174971	0.063787	0.063326	268.221	38226.6	0.058524	0.120570	2224.61	100582
739	2.000000	1.177836	7.37229e+06	-40139.1	1005.82	-29791.1	0.000000	0.000000	7.190149	284.914	NaN	0.000000	0.001658	0.001718	28.0849	71.9825	0.001760	40894.7	4.159812	156.005	281.813	1.177593	0.066190	0.065948	284.914	40894.7	0.060965	0.129291	2203.66	103910
739	2.000000	1.180358	7.37229e+06	-40139.1	1005.82	-29791.1	0.000000	0.000000	7.193591	307.302	NaN	0.000000	0.001676	0.001735	28.0845	73.8743	0.001731	42686.4	5.417491	-25.3912	303.614	1.180038	0.068712	0.068392	307.302	42686.4	0.063313	0.137955	2227.55	105001
739	2.000000	1.182856	7.37229e+06	-40139.1	1005.82	-29791.1	0.000000	0.000000	7.196837	325.509	NaN	0.000000	0.001646	0.001681	28.0846	76.6932	0.001870	41007	4.870759	156.148	322.746	1.182412	0.071210	0.070766	325.509	41007	0.065257	0.145331	2239.78	98277
739	2.000000	1.185386	7.37229e+06	-40139.1	1005.82	-29791.1	0.000000	0.000000	7.199992	340.71	NaN	0.000000	0.001653	0.001650	28.0845	79.3938	0.001771	44839.6	4.782963	-25.1533	339.152	1.185029	0.073740	0.073383	340.71	44839.6	0.068042	0.156213	2181.06	103652
739	2.000000	1.187857	7.37229e+06	-40139.1	1005.82	-29791.1	0.000000	0.000000	7.203207	358.819	NaN	0.000000	0.001682	0.001678	28.0848	81.9611	0.001781	46022.6	1.378142	157.553	355.195	1.187686	0.076211	0.076040	358.819	46022.6	0.070364	0.165570	2167.17	103336
739	2.000000	1.190366	7.37229e+06	-40139.1	1005.82	-29791.1	0.000000	0.000000	7.206737	383.648	NaN	0.000000	0.001691	0.001674	28.0843	83.8959	0.001748	48004.9	1.261735	-22.1576	378.734	1.190054	0.078720	0.078408	383.648	48004.9	0.072726	0.175355	2187.83	104737
739	2.000000	1.192905	7.37229e+06	-40139.1	1005.82	-29791.1	0.000000	0.000000	7.209877	398.267	NaN	0.000000	0.001671	0.001683	28.0845	85.9047	0.001770	48540.6	0.966995	157.604	396.554	1.192671	0.081259	0.081025	398.267	48540.6	0.075106	0.185476	2147.27	102976
739	2.000000	1.195327	7.37229e+06	-40139.1	1005.82	-29791.1	0.000000	0.000000	7.213351	423.873	NaN	0.000000	0.001637	0.001673	28.0846	88.7871	0.001699	52244.5	0.614417	-22.5891	419.501	1.194985	0.083681	0.083339	423.873	52244.5	0.077596	0.196354	2158.72	107719
739	2.000000	1.197854	7.37229e+06	-40139.1	1005.82	-29791.1	0.000000	0.000000	7.216826	446.956	NaN	0.000000	0.001648	0.001698	28.0844	92.7344	0.001839	50421.8	3.446130	154.999	444.382	1.197566	0.086208	0.085921	446.956	50421.8	0.079560	0.205137	2178.82	101711
739	2.000000	1.200299	7.37229e+06	-40139.1	1005.82	-29791.1	0.000000	0.000000	7.220319	472.454	NaN	0.000000	0.001685	0.001667	28.0844	93.7058	0.001710	54783.3	4.330853	-26.5163	466.364	1.200076	0.088653	0.088430	472.454	54783.3	0.082185	0.217157	2175.64	107408
739	2.000000	1.202787	7.37229e+06	-40139.1	1005.82	-29791.1	0.000000	0.000000	7.223713	494.495	NaN	0.000000	0.001640	0.001639	28.0832	95.4161	0.001818	52485.6	1.170505	157.388	487.946	1.202494	0.091142	0.090848	494.495	52485.6	0.084075	0.226011	2187.92	100867
739	2.000000	1.205300	7.37229e+06	-40139.1	1005.82	-29791.1	0.000000	0.000000	7.227124	516.346	NaN	0.000000	0.001625	0.001665	28.0833	98.9465	0.001774	55773	3.823525	-26.2559	510.879	1.204978	0.093655	0.093332	516.346	55773	0.086711	0.238631	2163.78	104312
739	2.000000	1.207892	7.37229e+06	-40139.1	1005.82	-29791.1	0.000000	0.000000	7.230596	537.776	NaN	0.000000	0.001616	0.001661	28.0831	103.057	0.001786	57703.2	7.108191	150.378	540.01	1.207570	0.096246	0.095924	537.776	57703.2	0.089256	0.251123	2141.48	105203
739	2.000000	1.210442	7.37229e+06	-40139.1	1005.82	-29791.1	0.000000	0.000000	7.234371	567.569	NaN	0.000000	0.001608	0.001643	28.0831	104.104	0.001852	56215.3	5.078537	-26.1315	567.752	1.209986	0.098797	0.098340	567.569	56215.3	0.091224	0.260987	2174.7	100535
739	2.000000	1.212867	7.37229e+06	-40139.1	1005.82	-29791.1	0.000000	0.000000	7.237776	591.434	NaN	0.000000	0.001620	0.001661	28.0834	104.883	0.001632	64251.5	4.157587	152.988	589.069	1.212552	0.101221	0.100907	591.434	64251.5	0.094317	0.276845	2136.33	111568
739	2.000000	1.214819	7.37229e+06	-40139.1	1005.82	-29791.1	0.000000	0.000000	7.240359	606.786	NaN	0.000000	0.001687	0.001678	28.0831	108.371	0.001839	58928.2	5.191871	152.277	605.289	1.214635	0.103173	0.102989	606.786	58928.2	0.095450	0.282762	2145.92	101248