File: remote_trans/data/nanoindenter/0828-1/data/Data_2025-08-06,11h17m57s/2025-07-22_16-23-58_1_740.txt
2025-07-22, 16:23:58, 1
Index	Phase	Displacement	Time	Pos X	Pos Y	Pos Z	Rot A	Rot B	Piezo Z	Force A	Force B	Gripper	Voltage A	Voltage B	Temperature	Amplitude force	Amplitude pos	Stiffness	Phase shift	Phase excitation	Force A raw	Displacement raw	HMax	HMax raw	Real Force	Real Stiffness	Contact Depth	Area	Hardness	Reduced Mod.
[#]	[#]	[um]	[s]	[um]	[um]	[um]	[m°]	[m°]	[um]	[uN]	[uN]	[V]	[V]	[V]	[°C]	[uN]	[um]	[N/m]	[°]	[°]	[uN]	[um]	[um]	[um]	[uN]	[N/m]	[um]	[um^2]	[MPa]	[MPa]
740	1.000000	0.002752	7.37229e+06	-40089.1	1005.82	-29791.3	0.000000	0.000000	6.002799	0.018937	NaN	0.000000	0.001557	0.001729	28.083	0.090875	0.000982	92.4977	-147.128	-167.337	0.041757	0.001468	-1.127645	-1.128930	0.018937	92.4977	-1.127799	-1.183309E+15	-1.600345E-17	NaN
740	1.000000	0.012856	7.37229e+06	-40089.1	1005.82	-29791.3	0.000000	0.000000	6.012903	-0.008755	NaN	0.000000	0.001537	0.001727	28.0831	0.023192	0.001320	17.5686	-160.161	15.287	-0.001231	0.011385	-1.117541	-1.119012	-0.008755	17.5686	-1.117167	-8.520533E+14	1.027472E-17	NaN
740	1.000000	0.022696	7.37229e+06	-40089.1	1005.82	-29791.3	0.000000	0.000000	6.022743	-0.002959	NaN	0.000000	0.001578	0.001698	28.0832	0.056611	0.001765	32.0723	55.6426	-159.266	0.040343	0.021387	-1.107701	-1.109010	-0.002959	32.0723	-1.107632	-6.346165E+14	4.663343E-18	NaN
740	1.000000	0.032712	7.37229e+06	-40089.1	1005.82	-29791.3	0.000000	0.000000	6.032759	-0.012818	NaN	0.000000	0.001525	0.001692	28.083	0.005617	0.001910	2.940165	-121.007	10.745	-0.057803	0.031332	-1.097685	-1.099065	-0.012818	2.940165	-1.094415	-4.217893E+14	3.038942E-17	NaN
740	1.000000	0.042731	7.37229e+06	-40089.1	1005.82	-29791.3	0.000000	0.000000	6.042778	-0.003287	NaN	0.000000	0.001534	0.001683	28.0834	0.015429	0.002066	7.468774	-138.023	-165.94	-0.059604	0.041437	-1.087666	-1.088961	-0.003287	7.468774	-1.087336	-3.388720E+14	9.698511E-18	NaN
740	1.000000	0.052678	7.37229e+06	-40089.1	1005.82	-29791.3	0.000000	0.000000	6.052725	0.000370	NaN	0.000000	0.001515	0.001666	28.0829	0.084980	0.001961	43.3427	64.3883	15.6563	0.037878	0.051335	-1.077719	-1.079062	0.000370	43.3427	-1.077726	-2.517524E+14	-1.468409E-18	NaN
740	1.000000	0.062700	7.37229e+06	-40089.1	1005.82	-29791.3	0.000000	0.000000	6.062749	0.041900	NaN	0.000000	0.001559	0.001690	28.083	0.084728	0.001907	44.4255	-50.4678	-167.86	0.043055	0.061440	-1.067697	-1.068957	0.041900	44.4255	-1.068405	-1.886926E+14	-2.220524E-16	NaN
740	1.000000	0.072721	7.37229e+06	-40089.1	1005.82	-29791.3	0.000000	0.000000	6.072769	0.018254	NaN	0.000000	0.001537	0.001639	28.0828	0.079506	0.002118	37.5365	-84.1613	12.5909	-0.031146	0.071321	-1.057676	-1.059077	0.018254	37.5365	-1.058040	-1.369257E+14	-1.333108E-16	NaN
740	1.000000	0.082700	7.37229e+06	-40089.1	1005.82	-29791.3	0.000000	0.000000	6.082744	-0.065649	NaN	0.000000	0.001524	0.001666	28.0832	0.052159	0.001985	26.2755	-161.316	-164.473	-0.046627	0.081365	-1.047697	-1.049032	-0.065649	26.2755	-1.045823	-9.381371E+13	6.997765E-16	NaN
740	1.000000	0.092741	7.37229e+06	-40089.1	1005.82	-29791.3	0.000000	0.000000	6.092789	0.011543	NaN	0.000000	0.001541	0.001727	28.0828	0.049243	0.001935	25.4478	135.579	10.5021	0.040440	0.091368	-1.037656	-1.039029	0.011543	25.4478	-1.037996	-7.362457E+13	-1.567880E-16	NaN
740	1.000000	0.102689	7.37229e+06	-40089.1	1005.82	-29791.3	0.000000	0.000000	6.102737	0.016662	NaN	0.000000	0.001498	0.001691	28.0831	0.057777	0.002167	26.6658	17.635	-166.408	-0.033562	0.101452	-1.027708	-1.028945	0.016662	26.6658	-1.028177	-5.431982E+13	-3.067297E-16	NaN
740	1.000000	0.112694	7.37229e+06	-40089.1	1005.82	-29791.3	0.000000	0.000000	6.112743	0.048098	NaN	0.000000	0.001534	0.001670	28.083	0.037430	0.002077	18.0237	-76.176	18.6972	-0.013586	0.111374	-1.017703	-1.019023	0.048098	18.0237	-1.019704	-4.178058E+13	-1.151193E-15	NaN
740	1.000000	0.122742	7.37229e+06	-40089.1	1005.82	-29791.3	0.000000	0.000000	6.122788	-0.029376	NaN	0.000000	0.001532	0.001707	28.0831	0.115292	0.002108	54.7043	88.3046	-164.935	0.007703	0.121408	-1.007655	-1.008989	-0.029376	54.7043	-1.007252	-2.840496E+13	1.034181E-15	NaN
740	1.000000	0.132721	7.37229e+06	-40089.1	1005.82	-29791.3	0.000000	0.000000	6.132770	0.047270	NaN	0.000000	0.001551	0.001657	28.0828	0.055046	0.002120	25.9699	-173.577	13.5245	0.088026	0.131356	-0.997676	-0.999042	0.047270	25.9699	-0.999041	-2.202202E+13	-2.146484E-15	NaN
740	1.000000	0.142732	7.37229e+06	-40089.1	1005.82	-29791.3	0.000000	0.000000	6.142778	-0.032065	NaN	0.000000	0.001567	0.001668	28.0842	0.073611	0.001966	37.4331	-59.7054	-167.064	0.065325	0.141453	-0.987665	-0.988944	-0.032065	37.4331	-0.987023	-1.517090E+13	2.113585E-15	NaN
740	1.000000	0.152742	7.37229e+06	-40089.1	1005.82	-29791.3	0.000000	0.000000	6.152791	0.037672	NaN	0.000000	0.001563	0.001676	28.0842	0.017152	0.002061	8.322630	46.5854	11.4296	0.019026	0.151362	-0.977655	-0.979035	0.037672	8.322630	-0.981050	-1.260533E+13	-2.988574E-15	NaN
740	1.000000	0.162717	7.37229e+06	-40089.1	1005.82	-29791.3	0.000000	0.000000	6.162763	-0.031490	NaN	0.000000	0.001579	0.001731	28.0842	0.106024	0.001767	59.9928	-110.639	-163.825	-0.005059	0.161398	-0.967680	-0.968999	-0.031490	59.9928	-0.967286	-8.224023E+12	3.829004E-15	NaN
740	1.000000	0.172758	7.37229e+06	-40089.1	1005.82	-29791.3	0.000000	0.000000	6.172807	0.030034	NaN	0.000000	0.001554	0.001685	28.0842	0.156587	0.002143	73.0616	-106.323	13.4832	-0.005593	0.171339	-0.957639	-0.959058	0.030034	73.0616	-0.957947	-6.154491E+12	-4.880075E-15	NaN
740	1.000000	0.182760	7.37229e+06	-40089.1	1005.82	-29791.3	0.000000	0.000000	6.182805	-0.048479	NaN	0.000000	0.001589	0.001678	28.0845	0.139847	0.002058	67.9375	133.051	-164.897	-0.064361	0.181401	-0.947637	-0.948997	-0.048479	67.9375	-0.947102	-4.394816E+12	1.103091E-14	NaN
740	1.000000	0.192743	7.37229e+06	-40089.1	1005.82	-29791.3	0.000000	0.000000	6.192788	-0.035041	NaN	0.000000	0.001547	0.001714	28.0844	0.032165	0.001992	16.1441	-91.574	15.4132	-0.002830	0.191376	-0.937654	-0.939022	-0.035041	16.1441	-0.936026	-3.115462E+12	1.124752E-14	NaN
740	1.000000	0.202797	7.37229e+06	-40089.1	1005.82	-29791.3	0.000000	0.000000	6.202843	-0.026071	NaN	0.000000	0.001565	0.001707	28.0846	0.043986	0.002052	21.4371	-147.854	-168.214	-0.053677	0.201463	-0.927600	-0.928934	-0.026071	21.4371	-0.926688	-2.330757E+12	1.118550E-14	NaN
740	1.000000	0.212778	7.37229e+06	-40089.1	1005.82	-29791.3	0.000000	0.000000	6.212825	-0.016827	NaN	0.000000	0.001562	0.001671	28.0843	0.081572	0.002071	39.3868	101.824	11.8899	0.013199	0.211447	-0.917619	-0.918950	-0.016827	39.3868	-0.917298	-1.740711E+12	9.666678E-15	NaN
740	1.000000	0.222777	7.37229e+06	-40089.1	1005.82	-29791.3	0.000000	0.000000	6.222824	-0.005372	NaN	0.000000	0.001566	0.001678	28.0846	0.013280	0.002010	6.605802	-147.842	-163.233	0.004266	0.221397	-0.907620	-0.909000	-0.005372	6.605802	-0.907010	-1.264077E+12	4.250004E-15	NaN
740	1.000000	0.232807	7.37229e+06	-40089.1	1005.82	-29791.3	0.000000	0.000000	6.232854	0.012077	NaN	0.000000	0.001570	0.001633	28.0844	0.080040	0.001851	43.2301	177.676	10.4283	-0.006551	0.231424	-0.897590	-0.898974	0.012077	43.2301	-0.897800	-9.491479E+11	-1.272373E-14	NaN
740	1.000000	0.242804	7.37229e+06	-40089.1	1005.82	-29791.3	0.000000	0.000000	6.242849	-0.043388	NaN	0.000000	0.001593	0.001675	28.0849	0.087148	0.001961	44.4514	54.72	-167.871	-0.005116	0.241470	-0.887593	-0.888927	-0.043388	44.4514	-0.886861	-6.752731E+11	6.425182E-14	NaN
740	1.000000	0.252786	7.37229e+06	-40089.1	1005.82	-29791.3	0.000000	0.000000	6.252832	-0.031268	NaN	0.000000	0.001571	0.001683	28.0844	0.071685	0.002059	34.8116	30.6979	13.9964	0.026812	0.251434	-0.877611	-0.878963	-0.031268	34.8116	-0.876937	-4.957779E+11	6.306777E-14	NaN
740	1.000000	0.262809	7.37229e+06	-40089.1	1005.82	-29791.3	0.000000	0.000000	6.262857	0.012114	NaN	0.000000	0.001509	0.001670	28.0845	0.080160	0.002014	39.8112	-154.92	-167	0.018709	0.261500	-0.867588	-0.868897	0.012114	39.8112	-0.867816	-3.731634E+11	-3.246290E-14	NaN
740	1.000000	0.272775	7.37229e+06	-40089.1	1005.82	-29791.3	0.000000	0.000000	6.272824	0.039265	NaN	0.000000	0.001543	0.001710	28.0833	0.037429	0.002009	18.6272	-133.641	12.4321	-0.009820	0.271460	-0.857622	-0.858938	0.039265	18.6272	-0.859203	-2.853207E+11	-1.376183E-13	NaN
740	1.000000	0.282813	7.37229e+06	-40089.1	1005.82	-29791.3	0.000000	0.000000	6.282862	0.032612	NaN	0.000000	0.001568	0.001746	28.0832	0.081670	0.002006	40.7178	2.970878	-165.216	-0.013737	0.281510	-0.847584	-0.848887	0.032612	40.7178	-0.848185	-2.023736E+11	-1.611488E-13	NaN
740	1.000000	0.292798	7.37229e+06	-40089.1	1005.82	-29791.3	0.000000	0.000000	6.292845	0.014388	NaN	0.000000	0.001573	0.001713	28.083	0.043052	0.001902	22.636	-158.751	17.0721	0.051676	0.291472	-0.837600	-0.838925	0.014388	22.636	-0.838076	-1.476489E+11	-9.744912E-14	NaN
740	1.000000	0.302812	7.37229e+06	-40089.1	1005.82	-29791.3	0.000000	0.000000	6.302858	-0.013287	NaN	0.000000	0.001550	0.001706	28.0833	0.071315	0.001965	36.2861	45.5819	-165.353	0.008339	0.301480	-0.827586	-0.828917	-0.013287	36.2861	-0.827311	-1.055198E+11	1.259213E-13	NaN
740	1.000000	0.312784	7.37229e+06	-40089.1	1005.82	-29791.3	0.000000	0.000000	6.312833	0.062628	NaN	0.000000	0.001579	0.001680	28.0831	0.049928	0.002012	24.8138	65.429	13.1003	0.001810	0.311465	-0.817613	-0.818932	0.062628	24.8138	-0.819506	-8.270213E+10	-7.572724E-13	NaN
740	1.000000	0.322809	7.37229e+06	-40089.1	1005.82	-29791.3	0.000000	0.000000	6.322852	-0.078413	NaN	0.000000	0.001577	0.001700	28.0829	0.062408	0.001884	33.1334	-0.368489	-167.951	-0.081248	0.321508	-0.807589	-0.808889	-0.078413	33.1334	-0.805814	-5.392218E+10	1.454184E-12	NaN
740	1.000000	0.332818	7.37229e+06	-40089.1	1005.82	-29791.3	0.000000	0.000000	6.332867	0.057503	NaN	0.000000	0.001573	0.001695	28.0829	0.064856	0.001967	32.9719	153.464	9.475495	0.126280	0.331411	-0.797579	-0.798986	0.057503	32.9719	-0.798887	-4.342655E+10	-1.324143E-12	NaN
740	1.000000	0.342820	7.37229e+06	-40089.1	1005.82	-29791.3	0.000000	0.000000	6.342869	0.045121	NaN	0.000000	0.001580	0.001683	28.0833	0.074091	0.001987	37.2927	139.882	-168.55	0.030286	0.341515	-0.787577	-0.788882	0.045121	37.2927	-0.788485	-3.136927E+10	-1.438385E-12	NaN
740	1.000000	0.352833	7.37229e+06	-40089.1	1005.82	-29791.3	0.000000	0.000000	6.352880	-0.001473	NaN	0.000000	0.001587	0.001705	28.083	0.073712	0.001861	39.6005	-173.654	8.376088	0.074029	0.351480	-0.777564	-0.778917	-0.001473	39.6005	-0.777536	-2.227124E+10	6.615277E-14	NaN
740	1.000000	0.362831	7.37229e+06	-40089.1	1005.82	-29791.3	0.000000	0.000000	6.362878	-0.010523	NaN	0.000000	0.001568	0.001698	28.0831	0.070641	0.002042	34.5977	-164.883	-166.84	0.032389	0.361473	-0.767566	-0.768924	-0.010523	34.5977	-0.767338	-1.618478E+10	6.501918E-13	NaN
740	1.000000	0.372838	7.37229e+06	-40089.1	1005.82	-29791.3	0.000000	0.000000	6.372884	-0.025834	NaN	0.000000	0.001541	0.001712	28.0831	0.100250	0.002192	45.7367	70.2635	12.7821	0.030406	0.371453	-0.757559	-0.758944	-0.025834	45.7367	-0.757135	-1.175788E+10	2.197173E-12	NaN
740	1.000000	0.382847	7.37229e+06	-40089.1	1005.82	-29791.3	0.000000	0.000000	6.382894	0.006376	NaN	0.000000	0.001620	0.001668	28.0835	0.011257	0.002087	5.394295	30.2455	-164.155	0.023862	0.381552	-0.747550	-0.748845	0.006376	5.394295	-0.748437	-8.952380E+9	-7.121778E-13	NaN
740	1.000000	0.392832	7.37229e+06	-40089.1	1005.82	-29791.3	0.000000	0.000000	6.392882	0.068418	NaN	0.000000	0.001639	0.001700	28.083	0.039792	0.002054	19.3777	-14.8034	11.4184	0.076633	0.391493	-0.737565	-0.738904	0.068418	19.3777	-0.740213	-6.917651E+9	-9.890326E-12	NaN
740	1.000000	0.402850	7.37229e+06	-40089.1	1005.82	-29791.3	0.000000	0.000000	6.402900	0.069998	NaN	0.000000	0.001612	0.001712	28.0831	0.183341	0.002005	91.4493	-65.9985	-166.277	0.080716	0.401549	-0.727547	-0.728848	0.069998	91.4493	-0.728121	-4.733714E+9	-1.478703E-11	NaN
740	1.000000	0.412869	7.37229e+06	-40089.1	1005.82	-29791.3	0.000000	0.000000	6.412915	-0.018860	NaN	0.000000	0.001619	0.001691	28.0842	0.094137	0.001985	47.4248	88.8017	15.5891	0.048677	0.411496	-0.717529	-0.718901	-0.018860	47.4248	-0.717230	-3.362771E+9	5.608558E-12	NaN
740	1.000000	0.422867	7.37229e+06	-40089.1	1005.82	-29791.3	0.000000	0.000000	6.422917	0.062103	NaN	0.000000	0.001600	0.001687	28.0845	0.114722	0.001968	58.2941	-3.719567	-167.148	0.090523	0.421550	-0.707530	-0.708847	0.062103	58.2941	-0.708329	-2.542401E+9	-2.442676E-11	NaN
740	1.000000	0.432876	7.37229e+06	-40089.1	1005.82	-29791.3	0.000000	0.000000	6.432925	0.052354	NaN	0.000000	0.001591	0.001682	28.0841	0.002995	0.001948	1.537358	50.1003	12.7507	-0.007902	0.431467	-0.697521	-0.698931	0.052354	1.537358	-0.723062	-4.038576E+9	-1.296347E-11	NaN
740	1.000000	0.442842	7.37229e+06	-40089.1	1005.82	-29791.3	0.000000	0.000000	6.442890	0.016147	NaN	0.000000	0.001617	0.001690	28.0845	0.116809	0.001918	60.9063	-133.22	-164.727	0.061948	0.441580	-0.687555	-0.688817	0.016147	60.9063	-0.687754	-1.331112E+9	-1.213015E-11	NaN
740	1.000000	0.452885	7.37229e+06	-40089.1	1005.82	-29791.3	0.000000	0.000000	6.452932	0.019110	NaN	0.000000	0.001612	0.001669	28.0846	0.049541	0.001971	25.1409	-112.384	12.8433	0.009043	0.451484	-0.677512	-0.678913	0.019110	25.1409	-0.678083	-9.817023E+8	-1.946629E-11	NaN
740	1.000000	0.462899	7.37229e+06	-40089.1	1005.82	-29791.3	0.000000	0.000000	6.462949	0.086637	NaN	0.000000	0.001643	0.001716	28.0842	0.030364	0.002047	14.8332	-76.7854	-167.977	0.024261	0.461550	-0.667498	-0.668847	0.086637	14.8332	-0.671879	-8.074288E+8	-1.073002E-10	NaN
740	1.000000	0.472861	7.37229e+06	-40089.1	1005.82	-29791.3	0.000000	0.000000	6.472910	0.025069	NaN	0.000000	0.001613	0.001705	28.0845	0.018330	0.002029	9.032486	-84.2375	14.9037	-0.027842	0.471488	-0.657536	-0.658909	0.025069	9.032486	-0.659617	-5.485624E+8	-4.570029E-11	NaN
740	1.000000	0.482875	7.37229e+06	-40089.1	1005.82	-29791.3	0.000000	0.000000	6.482923	0.027371	NaN	0.000000	0.001614	0.001679	28.0842	0.030428	0.002002	15.197	-159.642	-166.887	0.034310	0.481608	-0.647522	-0.648789	0.027371	15.197	-0.648873	-3.908294E+8	-7.003377E-11	NaN
740	1.000000	0.492902	7.37229e+06	-40089.1	1005.82	-29791.3	0.000000	0.000000	6.492946	-0.070674	NaN	0.000000	0.001590	0.001672	28.0849	0.054354	0.002086	26.0512	9.114701	15.0178	-0.082919	0.491534	-0.637495	-0.638863	-0.070674	26.0512	-0.635461	-2.558553E+8	2.762278E-10	NaN
740	1.000000	0.502888	7.37229e+06	-40089.1	1005.82	-29791.3	0.000000	0.000000	6.502937	0.044280	NaN	0.000000	0.001568	0.001694	28.0841	0.106350	0.002039	52.1603	-31.2216	-164.882	0.057926	0.501610	-0.627509	-0.628787	0.044280	52.1603	-0.628146	-2.030279E+8	-2.180970E-10	NaN
740	1.000000	0.512912	7.37229e+06	-40089.1	1005.82	-29791.3	0.000000	0.000000	6.512961	0.047873	NaN	0.000000	0.001585	0.001730	28.0843	0.025116	0.001959	12.8201	-18.8952	13.7666	0.114718	0.511551	-0.617485	-0.618846	0.047873	12.8201	-0.620286	-1.583291E+8	-3.023655E-10	NaN
740	1.000000	0.522893	7.37229e+06	-40089.1	1005.82	-29791.3	0.000000	0.000000	6.522941	0.020116	NaN	0.000000	0.001574	0.001730	28.0843	0.105969	0.001915	55.3311	119.662	-164.763	-0.062989	0.521605	-0.607504	-0.608792	0.020116	55.3311	-0.607776	-1.065408E+8	-1.888148E-10	NaN
740	1.000000	0.532930	7.37229e+06	-40089.1	1005.82	-29791.3	0.000000	0.000000	6.532980	0.065480	NaN	0.000000	0.001597	0.001671	28.0841	0.059281	0.001997	29.681	132.962	11.0579	0.079979	0.531557	-0.597467	-0.598840	0.065480	29.681	-0.599122	-8.097790E+7	-8.086197E-10	NaN
740	1.000000	0.542924	7.37229e+06	-40089.1	1005.82	-29791.3	0.000000	0.000000	6.542974	0.055920	NaN	0.000000	0.001592	0.001716	28.084	0.002436	0.001931	1.261693	-1.781751	-166.24	0.080521	0.541572	-0.587473	-0.588825	0.055920	1.261693	-0.620714	-1.604889E+8	-3.484353E-10	NaN
740	1.000000	0.552941	7.37229e+06	-40089.1	1005.82	-29791.3	0.000000	0.000000	6.552991	0.060068	NaN	0.000000	0.001606	0.001690	28.0831	0.090450	0.001993	45.3923	121.08	10.5755	0.007387	0.551528	-0.577456	-0.578869	0.060068	45.3923	-0.578448	-4.200554E+7	-1.429993E-9	NaN
740	1.000000	0.562933	7.37229e+06	-40089.1	1005.82	-29791.3	0.000000	0.000000	6.562980	0.018173	NaN	0.000000	0.001627	0.001703	28.0833	0.044897	0.002029	22.126	-0.461007	-168.941	0.027242	0.561615	-0.567464	-0.568782	0.018173	22.126	-0.568080	-3.020694E+7	-6.016119E-10	NaN
740	1.000000	0.572928	7.37229e+06	-40089.1	1005.82	-29791.3	0.000000	0.000000	6.572976	0.021756	NaN	0.000000	0.001610	0.001650	28.0831	0.049425	0.002140	23.0973	99.9619	14.5288	-0.028767	0.571500	-0.557469	-0.558898	0.021756	23.0973	-0.558176	-2.203629E+7	-9.872670E-10	NaN
740	1.000000	0.582927	7.3723e+06	-40089.1	1005.82	-29791.3	0.000000	0.000000	6.582975	0.010874	NaN	0.000000	0.001601	0.001679	28.0832	0.092992	0.001974	47.1068	42.1707	-167.272	0.124318	0.581589	-0.547470	-0.548808	0.010874	47.1068	-0.547643	-1.575091E+7	-6.903416E-10	NaN
740	1.000000	0.592936	7.3723e+06	-40089.1	1005.82	-29791.3	0.000000	0.000000	6.592980	-0.060453	NaN	0.000000	0.001597	0.001704	28.0832	0.145325	0.002015	72.1101	101.218	11.7955	-0.017116	0.591517	-0.537461	-0.538880	-0.060453	72.1101	-0.536833	-1.115371E+7	5.419949E-9	NaN
740	1.000000	0.602943	7.3723e+06	-40089.1	1005.82	-29791.3	0.000000	0.000000	6.602988	-0.056660	NaN	0.000000	0.001576	0.001666	28.0832	0.137888	0.001988	69.3734	-12.2165	-167.993	-0.066480	0.601651	-0.527454	-0.528747	-0.056660	69.3734	-0.526841	-8.10394e+06	6.991610E-9	NaN
740	1.000000	0.612926	7.3723e+06	-40089.1	1005.82	-29791.3	0.000000	0.000000	6.612974	0.000159	NaN	0.000000	0.001600	0.001682	28.0832	0.062892	0.001969	31.9387	-70.8614	16.3983	-0.034767	0.611633	-0.517471	-0.518764	0.000159	31.9387	-0.517474	-6.00434e+06	-2.650111E-11	NaN
740	1.000000	0.622940	7.3723e+06	-40089.1	1005.82	-29791.3	0.000000	0.000000	6.622986	-0.037888	NaN	0.000000	0.001576	0.001694	28.0834	0.073498	0.001871	39.2808	-133.771	-167.087	-0.024717	0.621649	-0.507457	-0.508748	-0.037888	39.2808	-0.506733	-4.25502e+06	8.904273E-9	NaN
740	1.000000	0.632952	7.3723e+06	-40089.1	1005.82	-29791.3	0.000000	0.000000	6.632999	0.002192	NaN	0.000000	0.001616	0.001683	28.0834	0.079984	0.001972	40.5576	158.433	14.286	0.079930	0.631615	-0.497445	-0.498783	0.002192	40.5576	-0.497485	-3.16177e+06	-6.934325E-10	NaN
740	1.000000	0.642939	7.3723e+06	-40089.1	1005.82	-29791.3	0.000000	0.000000	6.642985	-0.007466	NaN	0.000000	0.001595	0.001659	28.0836	0.128835	0.001975	65.2176	-125.853	-167.265	0.024594	0.641632	-0.487458	-0.488765	-0.007466	65.2176	-0.487372	-2.28385e+06	3.269063E-9	NaN
740	1.000000	0.652963	7.3723e+06	-40089.1	1005.82	-29791.3	0.000000	0.000000	6.653013	0.081788	NaN	0.000000	0.001629	0.001699	28.0833	0.031043	0.001847	16.8076	5.681909	11.7514	0.044412	0.651608	-0.477434	-0.478789	0.081788	16.8076	-0.481084	-1.86508e+06	-4.385222E-8	NaN
740	1.000000	0.662951	7.3723e+06	-40089.1	1005.82	-29791.3	0.000000	0.000000	6.662998	-0.007126	NaN	0.000000	0.001666	0.001699	28.0836	0.091909	0.002041	45.0387	31.38	-166.968	-0.005749	0.661633	-0.467446	-0.468765	-0.007126	45.0387	-0.467327	-1.1965e+06	5.955871E-9	NaN
740	1.000000	0.672961	7.3723e+06	-40089.1	1005.82	-29791.3	0.000000	0.000000	6.673011	0.071604	NaN	0.000000	0.001655	0.001658	28.0836	0.089543	0.001899	47.1474	13.2956	11.627	0.188367	0.671549	-0.457436	-0.458848	0.071604	47.1474	-0.458575	-901554	-7.942240E-8	NaN
740	1.000000	0.683000	7.3723e+06	-40089.1	1005.82	-29791.3	0.000000	0.000000	6.683048	0.014172	NaN	0.000000	0.001681	0.001685	28.0852	0.038720	0.002061	18.7876	97.8596	-165.581	0.086986	0.681660	-0.447397	-0.448737	0.014172	18.7876	-0.447963	-639210	-2.217050E-8	NaN
740	1.000000	0.692941	7.3723e+06	-40089.1	1005.82	-29791.3	0.000000	0.000000	6.692990	0.041920	NaN	0.000000	0.001630	0.001711	28.0846	0.043274	0.002047	21.14	124.295	10.5913	0.026638	0.691607	-0.437456	-0.438790	0.041920	21.14	-0.438944	-476926	-8.789547E-8	NaN
740	1.000000	0.702945	7.3723e+06	-40089.1	1005.82	-29791.3	0.000000	0.000000	6.702994	0.055989	NaN	0.000000	0.001628	0.001738	28.0851	0.087745	0.002024	43.3431	-99.2103	-165.491	0.126255	0.701667	-0.427452	-0.428730	0.055989	43.3431	-0.428421	-338626	-1.653419E-7	NaN
740	1.000000	0.712999	7.3723e+06	-40089.1	1005.82	-29791.3	0.000000	0.000000	6.713048	0.044236	NaN	0.000000	0.001656	0.001687	28.0846	0.095922	0.001946	49.2935	21.2817	15.947	0.061447	0.711660	-0.417398	-0.418737	0.044236	49.2935	-0.418071	-241575	-1.831143E-7	NaN
740	1.000000	0.722967	7.3723e+06	-40089.1	1005.82	-29791.3	0.000000	0.000000	6.723012	-0.050144	NaN	0.000000	0.001659	0.001704	28.0847	0.025601	0.002012	12.7252	-162.868	-169.315	0.007093	0.721696	-0.407430	-0.408701	-0.050144	12.7252	-0.404474	-154797	3.239345E-7	NaN
740	1.000000	0.732987	7.3723e+06	-40089.1	1005.82	-29791.3	0.000000	0.000000	6.733033	-0.036335	NaN	0.000000	0.001652	0.001690	28.0846	0.010120	0.001988	5.089431	36.3816	11.1998	-0.107686	0.731542	-0.397410	-0.398855	-0.036335	5.089431	-0.392056	-102935	3.529890E-7	NaN
740	1.000000	0.742973	7.3723e+06	-40089.1	1005.82	-29791.3	0.000000	0.000000	6.743019	-0.028304	NaN	0.000000	0.001632	0.001700	28.0848	0.053001	0.002032	26.0864	-88.5881	-164.652	0.015061	0.741704	-0.387424	-0.388693	-0.028304	26.0864	-0.386611	-86031.3	3.290022E-7	NaN
740	1.000000	0.752998	7.3723e+06	-40089.1	1005.82	-29791.3	0.000000	0.000000	6.753044	-0.010681	NaN	0.000000	0.001662	0.001727	28.0845	0.045793	0.001964	23.3153	-154.566	13.03	0.105291	0.751658	-0.377400	-0.378739	-0.010681	23.3153	-0.377056	-62750.5	1.702187E-7	NaN
740	1.000000	0.763007	7.3723e+06	-40089.1	1005.82	-29791.3	0.000000	0.000000	6.763052	-0.043028	NaN	0.000000	0.001623	0.001721	28.0848	0.035475	0.002146	16.5279	167.312	-163.966	-0.019062	0.761644	-0.367390	-0.368753	-0.043028	16.5279	-0.365438	-42694.5	1.007803E-6	NaN
740	1.000000	0.773001	7.3723e+06	-40089.1	1005.82	-29791.3	0.000000	0.000000	6.773049	0.021453	NaN	0.000000	0.001697	0.001680	28.0845	0.137604	0.002081	66.1101	-112.793	13.3714	0.023241	0.771646	-0.357396	-0.358751	0.021453	66.1101	-0.357639	-32938.5	-6.513024E-7	NaN
740	1.000000	0.783038	7.3723e+06	-40089.1	1005.82	-29791.3	0.000000	0.000000	6.783085	0.017209	NaN	0.000000	0.001635	0.001725	28.0848	0.105742	0.001930	54.778	-151.52	-168.973	0.106996	0.781698	-0.347360	-0.348699	0.017209	54.778	-0.347595	-23554.9	-7.306029E-7	NaN
740	1.000000	0.793017	7.3723e+06	-40089.1	1005.82	-29791.3	0.000000	0.000000	6.793064	0.002731	NaN	0.000000	0.001686	0.001720	28.0845	0.108012	0.001973	54.7331	59.3551	15.4068	-0.029402	0.791601	-0.337380	-0.338796	0.002731	54.7331	-0.337417	-16745.1	-1.630869E-7	NaN
740	1.000000	0.803000	7.3723e+06	-40089.1	1005.82	-29791.3	0.000000	0.000000	6.803050	0.076372	NaN	0.000000	0.001664	0.001703	28.0847	0.041689	0.001925	21.6585	10.0229	-163.486	0.046063	0.801708	-0.327397	-0.328690	0.076372	21.6585	-0.330042	-13063.7	-5.846125E-6	NaN
740	1.000000	0.813004	7.3723e+06	-40089.1	1005.82	-29791.3	0.000000	0.000000	6.813050	-0.005375	NaN	0.000000	0.001689	0.001674	28.0846	0.137617	0.002000	68.7981	107.159	11.592	0.027349	0.811632	-0.317393	-0.318765	-0.005375	68.7981	-0.317335	-8499.32	6.323937E-7	NaN
740	1.000000	0.823031	7.3723e+06	-40089.1	1005.82	-29791.3	0.000000	0.000000	6.823077	-0.024287	NaN	0.000000	0.001677	0.001649	28.0836	0.023425	0.002071	11.3084	22.0202	-164.384	-0.058222	0.821724	-0.307366	-0.308673	-0.024287	11.3084	-0.305755	-5730.03	4.238480E-6	NaN
740	1.000000	0.833035	7.3723e+06	-40089.1	1005.82	-29791.3	0.000000	0.000000	6.833083	0.017266	NaN	0.000000	0.001652	0.001704	28.0832	0.057672	0.001951	29.553	-141.688	13.9055	0.041279	0.831690	-0.297362	-0.298707	0.017266	29.553	-0.297800	-4363.78	-3.956724E-6	NaN
740	1.000000	0.843012	7.3723e+06	-40089.1	1005.82	-29791.3	0.000000	0.000000	6.843059	0.002195	NaN	0.000000	0.001679	0.001726	28.0835	0.078678	0.001979	39.7475	-155.519	-168.207	-0.041866	0.841728	-0.287385	-0.288669	0.002195	39.7475	-0.287426	-3052.88	-7.190236E-7	NaN
740	1.000000	0.853032	7.3723e+06	-40089.1	1005.82	-29791.3	0.000000	0.000000	6.853080	0.026280	NaN	0.000000	0.001658	0.001704	28.0832	0.016678	0.002019	8.259472	100.326	9.560806	0.030939	0.851722	-0.277365	-0.278675	0.026280	8.259472	-0.279752	-2340.03	-1.123072E-5	NaN
740	1.000000	0.863034	7.3723e+06	-40089.1	1005.82	-29791.3	0.000000	0.000000	6.863079	-0.043866	NaN	0.000000	0.001586	0.001729	28.0834	0.083925	0.002043	41.0702	-101.805	-168.022	0.010460	0.861697	-0.267363	-0.268700	-0.043866	41.0702	-0.266562	-1476.43	2.971081E-5	NaN
740	1.000000	0.873053	7.3723e+06	-40089.1	1005.82	-29791.3	0.000000	0.000000	6.873100	0.017994	NaN	0.000000	0.001630	0.001701	28.0831	0.058101	0.001845	31.4962	76.7114	11.0953	0.126169	0.871682	-0.257345	-0.258715	0.017994	31.4962	-0.257773	-1083.31	-1.661025E-5	NaN
740	1.000000	0.883054	7.3723e+06	-40089.1	1005.82	-29791.3	0.000000	0.000000	6.883101	0.003076	NaN	0.000000	0.001624	0.001717	28.0833	0.021305	0.002062	10.3324	-46.7943	-167.589	0.014364	0.881788	-0.247343	-0.248609	0.003076	10.3324	-0.247566	-753.85	-4.080529E-6	NaN
740	1.000000	0.893047	7.3723e+06	-40089.1	1005.82	-29791.3	0.000000	0.000000	6.893093	-0.004390	NaN	0.000000	0.001578	0.001688	28.0833	0.081693	0.001955	41.778	77.4045	12.8407	0.016353	0.891683	-0.237351	-0.238714	-0.004390	41.778	-0.237272	-521.049	8.424784E-6	NaN
740	1.000000	0.903056	7.3723e+06	-40089.1	1005.82	-29791.3	0.000000	0.000000	6.903103	0.009821	NaN	0.000000	0.001578	0.001649	28.0833	0.031230	0.001861	16.7794	29.2352	-166.431	-0.015187	0.901721	-0.227342	-0.228676	0.009821	16.7794	-0.227781	-369.34	-2.659076E-5	NaN
740	1.000000	0.913048	7.3723e+06	-40089.1	1005.82	-29791.3	0.000000	0.000000	6.913094	-0.016345	NaN	0.000000	0.001626	0.001688	28.0835	0.080819	0.001890	42.7526	-164.482	13.7737	0.012216	0.911749	-0.217349	-0.218648	-0.016345	42.7526	-0.217063	-249.257	6.557500E-5	NaN
740	1.000000	0.923092	7.3723e+06	-40089.1	1005.82	-29791.3	0.000000	0.000000	6.923140	0.029168	NaN	0.000000	0.001621	0.001693	28.0833	0.130776	0.001980	66.057	102.285	-166.175	-0.009762	0.921743	-0.207305	-0.208655	0.029168	66.057	-0.207636	-175.579	-0.000166	NaN
740	1.000000	0.933078	7.3723e+06	-40089.1	1005.82	-29791.3	0.000000	0.000000	6.933126	0.032787	NaN	0.000000	0.001630	0.001693	28.0835	0.030169	0.002062	14.6276	-60.5784	10.8121	0.014309	0.931675	-0.197319	-0.198722	0.032787	14.6276	-0.199000	-126.841	-0.000258	NaN
740	1.000000	0.943067	7.3723e+06	-40089.1	1005.82	-29791.3	0.000000	0.000000	6.943114	-0.006295	NaN	0.000000	0.001626	0.001697	28.0831	0.010869	0.002017	5.389121	101.529	-169.417	0.005897	0.941761	-0.187330	-0.188636	-0.006295	5.389121	-0.186454	-78.4528	8.023627E-5	NaN
740	1.000000	0.953101	7.3723e+06	-40089.1	1005.82	-29791.3	0.000000	0.000000	6.953148	-0.001784	NaN	0.000000	0.001573	0.001671	28.0835	0.104756	0.001921	54.5349	-37.3817	12.4743	-0.014565	0.951703	-0.177297	-0.178694	-0.001784	54.5349	-0.177272	-54.819	3.255206E-5	NaN
740	1.000000	0.963120	7.3723e+06	-40089.1	1005.82	-29791.3	0.000000	0.000000	6.963167	0.022838	NaN	0.000000	0.001581	0.001683	28.0847	0.054819	0.001987	27.5883	-55.2251	-168.42	-0.087791	0.961794	-0.167278	-0.168603	0.022838	27.5883	-0.167898	-37.7603	-0.000605	NaN
740	1.000000	0.973054	7.3723e+06	-40089.1	1005.82	-29791.3	0.000000	0.000000	6.973103	0.049910	NaN	0.000000	0.001562	0.001692	28.0849	0.049210	0.002023	24.3242	20.264	10.9384	-0.020251	0.971709	-0.157343	-0.158688	0.049910	24.3242	-0.158882	-26.1873	-0.001906	NaN
740	1.000000	0.983082	7.3723e+06	-40089.1	1005.82	-29791.3	0.000000	0.000000	6.983128	-0.012875	NaN	0.000000	0.001613	0.001717	28.0846	0.022566	0.002062	10.9423	-20.2692	-161.678	0.051901	0.981833	-0.147315	-0.148564	-0.012875	10.9423	-0.146433	-15.5818	0.000826	NaN
740	1.000000	0.993097	7.3723e+06	-40089.1	1005.82	-29791.3	0.000000	0.000000	6.993146	0.034649	NaN	0.000000	0.001608	0.001761	28.0848	0.131368	0.002044	64.2718	48.6292	13.0477	-0.040887	0.991739	-0.137300	-0.138658	0.034649	64.2718	-0.137704	-10.7074	-0.003236	NaN
740	1.000000	1.003090	7.3723e+06	-40089.1	1005.82	-29791.3	0.000000	0.000000	7.003140	0.075238	NaN	0.000000	0.001615	0.001726	28.0847	0.043491	0.001940	22.4127	128.213	-165.277	0.046100	1.001783	-0.127307	-0.128615	0.075238	22.4127	-0.129825	-7.561522	-0.009950	NaN
740	1.000000	1.013104	7.3723e+06	-40089.1	1005.82	-29791.3	0.000000	0.000000	7.013155	0.084583	NaN	0.000000	0.001612	0.001708	28.0846	0.132794	0.001905	69.7161	127.978	16.0414	0.064754	1.011769	-0.117293	-0.118629	0.084583	69.7161	-0.118203	-4.442992	-0.019037	NaN
740	1.000000	1.023099	7.3723e+06	-40089.1	1005.82	-29791.3	0.000000	0.000000	7.023147	0.028344	NaN	0.000000	0.001607	0.001707	28.0846	0.041779	0.001893	22.065	-109.052	-167.677	-0.036366	1.021795	-0.107298	-0.108602	0.028344	22.065	-0.108262	-2.761047	-0.010266	NaN
740	1.000000	1.033125	7.3723e+06	-40089.1	1005.82	-29791.3	0.000000	0.000000	7.033171	-0.005986	NaN	0.000000	0.001606	0.001701	28.0847	0.058042	0.002006	28.9325	59.1696	15.1821	0.022517	1.031690	-0.097272	-0.098707	-0.005986	28.9325	-0.097117	-1.575332	0.003800	NaN
740	1.000000	1.043120	7.3723e+06	-40089.1	1005.82	-29791.3	0.000000	0.000000	7.043168	0.018679	NaN	0.000000	0.001580	0.001700	28.0848	0.056673	0.002115	26.7907	178.799	-167.447	0.015399	1.041792	-0.087277	-0.088605	0.018679	26.7907	-0.087800	-0.959069	-0.019476	NaN
740	1.000000	1.053087	7.3723e+06	-40089.1	1005.82	-29791.3	0.000000	0.000000	7.053136	0.049010	NaN	0.000000	0.001620	0.001733	28.0847	0.037008	0.001977	18.7233	85.9191	11.5964	0.070339	1.051661	-0.077310	-0.078736	0.049010	18.7233	-0.079273	-0.593554	-0.082570	NaN
740	1.000000	1.063121	7.3723e+06	-40089.1	1005.82	-29791.3	0.000000	0.000000	7.063170	0.030496	NaN	0.000000	0.001600	0.001736	28.0846	0.028816	0.002019	14.2743	-64.2047	-168.394	-0.048637	1.061839	-0.067276	-0.068558	0.030496	14.2743	-0.068878	-0.318214	-0.095833	NaN
740	1.000000	1.073129	7.3723e+06	-40089.1	1005.82	-29791.3	0.000000	0.000000	7.073177	0.033096	NaN	0.000000	0.001611	0.001677	28.0847	0.036050	0.002002	18.0101	-81.2845	12.6819	-0.054988	1.071768	-0.057268	-0.058629	0.033096	18.0101	-0.058647	-0.164629	-0.201037	NaN
740	1.000000	1.083125	7.3723e+06	-40089.1	1005.82	-29791.3	0.000000	0.000000	7.083171	-0.032179	NaN	0.000000	0.001593	0.001697	28.0844	0.090958	0.001974	46.0697	85.0092	-166.849	-0.029029	1.081807	-0.047272	-0.048590	-0.032179	46.0697	-0.046748	-0.072676	0.442770	NaN
740	1.000000	1.093149	7.3723e+06	-40089.1	1005.82	-29791.3	0.000000	0.000000	7.093197	0.036355	NaN	0.000000	0.001597	0.001714	28.0833	0.118233	0.002043	57.8686	-122.274	13.7658	-0.008726	1.091746	-0.037248	-0.038651	0.036355	57.8686	-0.037720	-0.038586	-0.942187	NaN
740	1.000000	1.103135	7.3723e+06	-40089.1	1005.82	-29791.3	0.000000	0.000000	7.103186	0.101793	NaN	0.000000	0.001576	0.001713	28.083	0.118465	0.002056	57.6276	-141.811	-168.064	0.001258	1.101820	-0.027262	-0.028577	0.101793	57.6276	-0.028587	-0.021035	-4.839167	NaN
740	1.000000	1.113118	7.3723e+06	-40089.1	1005.82	-29791.3	0.000000	0.000000	7.113166	0.022308	NaN	0.000000	0.001557	0.001706	28.0836	0.053379	0.001960	27.2363	63.1397	13.7983	0.001073	1.111764	-0.017279	-0.018633	0.022308	27.2363	-0.017893	-0.011092	-2.011277	NaN
740	1.000000	1.123111	7.3723e+06	-40089.1	1005.82	-29791.3	0.000000	0.000000	7.123163	0.103533	NaN	0.000000	0.001586	0.001691	28.0832	0.051755	0.001908	27.1228	-37.8629	-166.123	0.105596	1.121801	-0.007286	-0.008596	0.103533	27.1228	-0.010149	-0.006472	-15.9962	NaN
740	1.000000	1.133108	7.3723e+06	-40089.1	1005.82	-29791.3	0.000000	0.000000	7.133239	2.056406	NaN	0.000000	0.001605	0.001724	28.0834	2.949803	0.001789	1648.57	11.1832	9.064855	0.982778	1.131753	0.002710	0.001355	2.056406	1648.57	0.001775	0.001374	1497.07	40639.3
740	2.000000	1.140697	7.3723e+06	-40089.1	1005.82	-29791.3	0.000000	0.000000	7.141123	9.222324	NaN	0.000000	0.001587	0.001713	28.0831	8.464698	0.001573	5380.65	11.0437	-176.3	9.179912	1.140398	0.010300	0.010001	9.222324	5380.65	0.009015	0.008107	1137.61	54598.9
740	2.000000	1.143141	7.3723e+06	-40089.1	1005.82	-29791.3	0.000000	0.000000	7.143752	13.7289	NaN	0.000000	0.001584	0.001721	28.0839	12.7528	0.001881	6780.02	9.209079	3.766839	12.2336	1.142819	0.012744	0.012422	13.7289	6780.02	0.011225	0.010575	1298.27	60237.9
740	2.000000	1.145628	7.3723e+06	-40089.1	1005.82	-29791.3	0.000000	0.000000	7.146431	18.3979	NaN	0.000000	0.001627	0.001701	28.0833	15.5229	0.001652	9395.37	10.1351	178.375	18.0079	1.145393	0.015231	0.014996	18.3979	9395.37	0.013762	0.013670	1345.87	73418.3
740	2.000000	1.148165	7.3723e+06	-40089.1	1005.82	-29791.3	0.000000	0.000000	7.149216	24.4193	NaN	0.000000	0.001592	0.001684	28.0834	17.6383	0.001684	10472.6	3.752737	6.000494	23.0508	1.147794	0.017768	0.017397	24.4193	10472.6	0.016019	0.016669	1464.96	74109.8
740	2.000000	1.150651	7.3723e+06	-40089.1	1005.82	-29791.3	0.000000	0.000000	7.151997	31.5996	NaN	0.000000	0.001569	0.001744	28.0832	20.7946	0.001682	12362.3	7.262324	-179.786	30.9728	1.150273	0.020254	0.019876	31.5996	12362.3	0.018337	0.019996	1580.27	79872.5
740	2.000000	1.153122	7.3723e+06	-40089.1	1005.82	-29791.3	0.000000	0.000000	7.154762	38.7642	NaN	0.000000	0.001688	0.001686	28.0839	23.5042	0.001735	13549.7	5.558107	0.908483	37.8805	1.152739	0.022725	0.022342	38.7642	13549.7	0.020579	0.023460	1652.32	80822.6
740	2.000000	1.155572	7.3723e+06	-40089.1	1005.82	-29791.3	0.000000	0.000000	7.157420	43.8181	NaN	0.000000	0.001673	0.001686	28.0834	27.3121	0.001752	15589.4	7.544719	176.257	41.7815	1.155310	0.025175	0.024913	43.8181	15589.4	0.023067	0.027592	1588.07	85745.4
740	2.000000	1.158106	7.3723e+06	-40089.1	1005.82	-29791.3	0.000000	0.000000	7.160365	53.8225	NaN	0.000000	0.001693	0.001673	28.0834	28.7894	0.001772	16243.6	2.331673	3.273351	51.4419	1.157715	0.027709	0.027318	53.8225	16243.6	0.025224	0.031424	1712.76	83718.5
740	2.000000	1.160582	7.3723e+06	-40089.1	1005.82	-29791.3	0.000000	0.000000	7.163154	61.4221	NaN	0.000000	0.001679	0.001672	28.0832	32.2937	0.001926	16771.4	8.546256	176.355	60.4021	1.160231	0.030185	0.029834	61.4221	16771.4	0.027439	0.035602	1725.25	81209.4
740	2.000000	1.163058	7.3723e+06	-40089.1	1005.82	-29791.3	0.000000	0.000000	7.165891	67.8037	NaN	0.000000	0.001646	0.001707	28.0849	34.9688	0.001856	18842.8	5.769754	-1.974064	64.8489	1.162722	0.032660	0.032325	67.8037	18842.8	0.029962	0.040664	1667.41	85371.5
740	2.000000	1.165501	7.3723e+06	-40089.1	1005.82	-29791.3	0.000000	0.000000	7.168821	79.6427	NaN	0.000000	0.001558	0.001706	28.0843	36.6024	0.001888	19382.3	1.823748	-178.788	75.0543	1.165286	0.035104	0.034889	79.6427	19382.3	0.032023	0.045040	1768.26	83441
740	2.000000	1.168070	7.3723e+06	-40089.1	1005.82	-29791.3	0.000000	0.000000	7.171846	90.7452	NaN	0.000000	0.001579	0.001690	28.0846	38.5542	0.001805	21361.4	7.504817	-4.913408	88.8247	1.167748	0.037673	0.037351	90.7452	21361.4	0.034487	0.050558	1794.88	86797.9
740	2.000000	1.170538	7.3723e+06	-40089.1	1005.82	-29791.3	0.000000	0.000000	7.174659	99.1235	NaN	0.000000	0.001556	0.001672	28.0846	41.1366	0.001820	22602.8	3.669841	178.79	97.7717	1.170308	0.040141	0.039911	99.1235	22602.8	0.036852	0.056146	1765.47	87151.8
740	2.000000	1.173035	7.3723e+06	-40089.1	1005.82	-29791.3	0.000000	0.000000	7.177714	112.711	NaN	0.000000	0.001604	0.001716	28.0847	43.62	0.001790	24365.3	4.790810	-3.349367	109.398	1.172713	0.042638	0.042316	112.711	24365.3	0.039169	0.061898	1820.91	89475.8
740	2.000000	1.175586	7.3723e+06	-40089.1	1005.82	-29791.3	0.000000	0.000000	7.180689	123.028	NaN	0.000000	0.001579	0.001691	28.0843	46.7351	0.001680	27823.9	6.918392	173.26	123.211	1.175259	0.045189	0.044862	123.028	27823.9	0.041873	0.068958	1784.09	96805.2
740	2.000000	1.178035	7.3723e+06	-40089.1	1005.82	-29791.3	0.000000	0.000000	7.183726	137.345	NaN	0.000000	0.001599	0.001676	28.0847	48.9099	0.001669	29313.7	6.144802	-6.605063	133.566	1.177680	0.047638	0.047283	137.345	29313.7	0.044124	0.075119	1828.38	97716.8
740	2.000000	1.180553	7.3723e+06	-40089.1	1005.82	-29791.3	0.000000	0.000000	7.186733	149.246	NaN	0.000000	0.001580	0.001706	28.0851	50.3979	0.001696	29722.7	2.808456	175.909	147.451	1.180240	0.050156	0.049843	149.246	29722.7	0.046390	0.081583	1829.39	95074.2
740	2.000000	1.183075	7.3723e+06	-40089.1	1005.82	-29791.3	0.000000	0.000000	7.189670	159.357	NaN	0.000000	0.001574	0.001693	28.0847	54.5652	0.001790	30476.1	4.450878	-5.474909	157.623	1.182723	0.052677	0.052325	159.357	30476.1	0.048756	0.088606	1798.49	93540.6
740	2.000000	1.185533	7.3723e+06	-40089.1	1005.82	-29791.3	0.000000	0.000000	7.192773	175.036	NaN	0.000000	0.001600	0.001729	28.0845	57.1905	0.001776	32199.9	3.722853	174.553	172.617	1.185245	0.055136	0.054848	175.036	32199.9	0.051059	0.095715	1828.72	95090.4
740	2.000000	1.188076	7.3723e+06	-40089.1	1005.82	-29791.3	0.000000	0.000000	7.196079	193.617	NaN	0.000000	0.001557	0.001735	28.0845	59.0369	0.001734	34047.3	6.764263	-7.801586	192.465	1.187571	0.057679	0.057174	193.617	34047.3	0.053414	0.103256	1875.11	96805.2
740	2.000000	1.190566	7.3723e+06	-40089.1	1005.82	-29791.3	0.000000	0.000000	7.199196	208.877	NaN	0.000000	0.001581	0.001718	28.0845	61.5486	0.001811	33992	4.197236	174.464	207.842	1.190223	0.060168	0.059826	208.877	33992	0.055560	0.110369	1892.53	93481.5
740	2.000000	1.192977	7.3723e+06	-40089.1	1005.82	-29791.3	0.000000	0.000000	7.202100	220.853	NaN	0.000000	0.001575	0.001730	28.0846	64.5167	0.001757	36710.8	5.997070	-7.850437	216.22	1.192661	0.062580	0.062264	220.853	36710.8	0.058068	0.118973	1856.34	97239.6
740	2.000000	1.195494	7.3723e+06	-40089.1	1005.82	-29791.3	0.000000	0.000000	7.205204	235.132	NaN	0.000000	0.001569	0.001667	28.0844	68.3745	0.001955	34969	4.906546	172.827	231.842	1.195300	0.065097	0.064902	235.132	34969	0.060054	0.126002	1866.1	90005.1
740	2.000000	1.198068	7.3723e+06	-40089.1	1005.82	-29791.3	0.000000	0.000000	7.208673	256.915	NaN	0.000000	0.001539	0.001639	28.0831	69.6665	0.001881	37034.7	5.503793	-6.564081	255.975	1.197584	0.067671	0.067187	256.915	37034.7	0.062468	0.134806	1905.81	92156.7
740	2.000000	1.200708	7.3723e+06	-40089.1	1005.82	-29791.3	0.000000	0.000000	7.211602	263.935	NaN	0.000000	0.001583	0.001624	28.0835	71.9987	0.001679	42869.7	6.842348	169.864	272.69	1.200256	0.070311	0.069859	263.935	42869.7	0.065694	0.147014	1795.31	102151
740	2.000000	1.202928	7.3723e+06	-40089.1	1005.82	-29791.3	0.000000	0.000000	7.214919	290.635	NaN	0.000000	0.001533	0.001691	28.0831	73.9189	0.001783	41454.9	2.444436	-5.633284	283.529	1.202570	0.072531	0.072173	290.635	41454.9	0.067273	0.153172	1897.45	96774.1
740	2.000000	1.205532	7.3723e+06	-40089.1	1005.82	-29791.3	0.000000	0.000000	7.218035	303.102	NaN	0.000000	0.001579	0.001670	28.0836	77.7121	0.001737	44728.4	6.345485	169.75	301.438	1.205240	0.075135	0.074843	303.102	44728.4	0.070053	0.164304	1844.77	100817
740	2.000000	1.208039	7.3723e+06	-40089.1	1005.82	-29791.3	0.000000	0.000000	7.221402	324.031	NaN	0.000000	0.001571	0.001661	28.0832	79.8174	0.001936	41218.5	7.761824	-10.5184	320.673	1.207592	0.077642	0.077195	324.031	41218.5	0.071746	0.171262	1892.02	90998.6
740	2.000000	1.210560	7.3723e+06	-40089.1	1005.82	-29791.3	0.000000	0.000000	7.224542	339.085	NaN	0.000000	0.001596	0.001673	28.0843	80.6382	0.001774	45460.2	1.780559	174.105	340.348	1.210316	0.080163	0.079919	339.085	45460.2	0.074569	0.183169	1851.21	97046.2
740	2.000000	1.212936	7.3723e+06	-40089.1	1005.82	-29791.3	0.000000	0.000000	7.227661	357.175	NaN	0.000000	0.001550	0.001652	28.0831	84.3026	0.001807	46657.1	4.386173	-8.237140	353.042	1.212677	0.082538	0.082279	357.175	46657.1	0.076797	0.192831	1852.27	97073.9
740	2.000000	1.215491	7.3723e+06	-40089.1	1005.82	-29791.3	0.000000	0.000000	7.231125	379.298	NaN	0.000000	0.001536	0.001651	28.0838	87.5143	0.001943	45045.6	3.179581	173.166	378.01	1.215158	0.085094	0.084761	379.298	45045.6	0.078778	0.201619	1881.26	91655.7
740	2.000000	1.218006	7.3723e+06	-40089.1	1005.82	-29791.3	0.000000	0.000000	7.234616	403.042	NaN	0.000000	0.001585	0.001644	28.0832	88.388	0.001830	48299.6	8.554782	-11.9395	398.145	1.217618	0.087609	0.087221	403.042	48299.6	0.081351	0.213301	1889.54	95547.7
740	2.000000	1.220446	7.3723e+06	-40089.1	1005.82	-29791.3	0.000000	0.000000	7.237923	424.139	NaN	0.000000	0.001607	0.001646	28.0833	90.5134	0.001844	49084.9	4.358018	171.665	421.203	1.220141	0.090049	0.089744	424.139	49084.9	0.083569	0.223621	1896.68	94834.1
740	2.000000	1.222950	7.3723e+06	-40089.1	1005.82	-29791.3	0.000000	0.000000	7.241216	443.334	NaN	0.000000	0.001598	0.001665	28.0832	93.6539	0.001818	51505.1	4.627556	-9.350732	436.356	1.222507	0.092553	0.092110	443.334	51505.1	0.086098	0.235665	1881.2	96933.9
740	2.000000	1.225436	7.3723e+06	-40089.1	1005.82	-29791.3	0.000000	0.000000	7.244459	461.755	NaN	0.000000	0.001628	0.001679	28.0832	96.7086	0.001766	54759.8	6.813920	168.211	457.809	1.225142	0.095039	0.094745	461.755	54759.8	0.088715	0.248440	1858.62	100375
740	2.000000	1.227942	7.3723e+06	-40089.1	1005.82	-29791.3	0.000000	0.000000	7.248057	488.33	NaN	0.000000	0.001566	0.001669	28.0834	97.3215	0.001905	51091.4	3.731730	-7.569266	480.723	1.227557	0.097545	0.097159	488.33	51091.4	0.090376	0.256715	1902.23	92128.8
740	2.000000	1.230371	7.3723e+06	-40089.1	1005.82	-29791.3	0.000000	0.000000	7.251360	509.603	NaN	0.000000	0.001592	0.001682	28.0843	99.5647	0.001821	54663.9	4.662217	170.397	502.227	1.230154	0.099974	0.099757	509.603	54663.9	0.092983	0.269947	1887.79	96124.6
740	2.000000	1.232955	7.3723e+06	-40089.1	1005.82	-29791.3	0.000000	0.000000	7.254674	527.359	NaN	0.000000	0.001584	0.001752	28.0843	101.981	0.001807	56442.6	5.659771	-10.505	522.037	1.232652	0.102558	0.102255	527.359	56442.6	0.095551	0.283290	1861.55	96886.7
740	2.000000	1.235478	7.3723e+06	-40089.1	1005.82	-29791.3	0.000000	0.000000	7.258268	553.409	NaN	0.000000	0.001572	0.001737	28.0845	104.888	0.001806	58092.8	6.321584	169.329	551.776	1.235078	0.105081	0.104681	553.409	58092.8	0.097937	0.295956	1869.9	97562.2
740	2.000000	1.237934	7.3723e+06	-40089.1	1005.82	-29791.3	0.000000	0.000000	7.261631	575.486	NaN	0.000000	0.001557	0.001757	28.0846	105.861	0.001692	62549.2	7.228492	-12.4014	570.127	1.237546	0.107537	0.107149	575.486	62549.2	0.100637	0.310603	1852.8	102540
740	2.000000	1.238520	7.3723e+06	-40089.1	1005.82	-29791.3	0.000000	0.000000	7.262225	575.7	NaN	0.000000	0.001574	0.001756	28.0848	107.161	0.001791	59829.1	4.000816	170.738	578.675	1.238148	0.108123	0.107750	575.7	59829.1	0.100906	0.312080	1844.72	97848