File: remote_trans/data/nanoindenter/0828-1/data/Data_2025-08-06,11h17m57s/2025-07-22_16-23-58_1_1.txt
2025-07-22, 16:23:58, 1
Index	Phase	Displacement	Time	Pos X	Pos Y	Pos Z	Rot A	Rot B	Piezo Z	Force A	Force B	Gripper	Voltage A	Voltage B	Temperature	Amplitude force	Amplitude pos	Stiffness	Phase shift	Phase excitation	Force A raw	Displacement raw	HMax	HMax raw	Real Force	Real Stiffness	Contact Depth	Area	Hardness	Reduced Mod.
[#]	[#]	[um]	[s]	[um]	[um]	[um]	[m°]	[m°]	[um]	[uN]	[uN]	[V]	[V]	[V]	[°C]	[uN]	[um]	[N/m]	[°]	[°]	[uN]	[um]	[um]	[um]	[uN]	[N/m]	[um]	[um^2]	[MPa]	[MPa]
1.000000	1.000000	0.003249	7.36505e+06	-38689.1	955.818	-29796.6	0.000000	0.000000	6.002818	0.033672	NaN	0.000000	0.001597	0.001638	28.0894	0.087608	0.000988	88.6332	-70.7916	-163.117	0.142593	0.001984	-1.680711	-1.681975	0.033672	88.6332	-1.680996	-2.844153E+22	-1.183892E-24	NaN
1.000000	1.000000	0.015242	7.36505e+06	-38689.1	955.818	-29796.6	0.000000	0.000000	6.014810	0.006684	NaN	0.000000	0.001589	0.001664	28.1049	0.079615	0.001611	49.4281	-170.084	-164.122	0.093206	0.014078	-1.668718	-1.669882	0.006684	49.4281	-1.668819	-1.959511E+22	-3.411282E-25	NaN
1.000000	1.000000	0.027221	7.36505e+06	-38689.1	955.818	-29796.6	0.000000	0.000000	6.026792	0.097553	NaN	0.000000	0.001601	0.001682	28.0903	0.086851	0.001908	45.5224	-44.7332	-166.83	0.035197	0.025872	-1.656739	-1.658087	0.097553	45.5224	-1.658346	-1.422213E+22	-6.859228E-24	NaN
1.000000	1.000000	0.039191	7.36505e+06	-38689.1	955.819	-29796.6	0.000000	0.000000	6.038760	0.042199	NaN	0.000000	0.001632	0.001664	28.1045	0.068375	0.001987	34.412	55.3434	-165.352	0.104804	0.037870	-1.644769	-1.646090	0.042199	34.412	-1.645689	-9.654382E+21	-4.370973E-24	NaN
1.000000	1.000000	0.051173	7.36505e+06	-38689.1	955.818	-29796.6	0.000000	0.000000	6.050741	0.015608	NaN	0.000000	0.001581	0.001683	28.0885	0.081051	0.001783	45.4531	-133.009	-163.258	-0.001789	0.049839	-1.632787	-1.634120	0.015608	45.4531	-1.633045	-6.555954E+21	-2.380746E-24	NaN
1.000000	1.000000	0.063210	7.36505e+06	-38689.1	955.818	-29796.6	0.000000	0.000000	6.062779	0.036701	NaN	0.000000	0.001567	0.001671	28.1048	0.040947	0.001939	21.118	55.4839	-162.928	-0.013224	0.061896	-1.620750	-1.622064	0.036701	21.118	-1.622053	-4.682712E+21	-7.837600E-24	NaN
1.000000	1.000000	0.075206	7.36505e+06	-38689.1	955.819	-29796.6	0.000000	0.000000	6.074775	0.042978	NaN	0.000000	0.001589	0.001676	28.0884	0.103881	0.002082	49.9009	4.722967	-165.468	-0.025795	0.073890	-1.608754	-1.610069	0.042978	49.9009	-1.609400	-3.178587E+21	-1.352102E-23	NaN
1.000000	1.000000	0.087236	7.36505e+06	-38689.1	955.819	-29796.6	0.000000	0.000000	6.086806	0.046937	NaN	0.000000	0.001577	0.001683	28.1026	0.043765	0.001971	22.2021	-156.146	-167.524	0.011588	0.085913	-1.596723	-1.598046	0.046937	22.2021	-1.598309	-2.263256E+21	-2.073860E-23	NaN
1.000000	1.000000	0.099201	7.36505e+06	-38689.1	955.818	-29796.6	0.000000	0.000000	6.098774	0.130121	NaN	0.000000	0.001574	0.001649	28.0867	0.109892	0.002025	54.2755	-161.196	-161.139	0.072699	0.097913	-1.584758	-1.586046	0.130121	54.2755	-1.586556	-1.579083E+21	-8.240261E-23	NaN
1.000000	1.000000	0.111239	7.36505e+06	-38689.1	955.819	-29796.6	0.000000	0.000000	6.110804	-0.063797	NaN	0.000000	0.001595	0.001643	28.1038	0.035495	0.001955	18.153	39.1577	-160.646	-0.039548	0.109878	-1.572720	-1.574082	-0.063797	18.153	-1.570085	-9.533817E+20	6.691644E-23	NaN
1.000000	1.000000	0.123228	7.36505e+06	-38689.1	955.817	-29796.6	0.000000	0.000000	6.122798	0.062632	NaN	0.000000	0.001614	0.001668	28.0885	0.044657	0.002008	22.2387	93.6719	-166.633	0.007220	0.121898	-1.560731	-1.562061	0.062632	22.2387	-1.562844	-7.636903E+20	-8.201188E-23	NaN
1.000000	1.000000	0.135233	7.36505e+06	-38689.1	955.817	-29796.6	0.000000	0.000000	6.134802	0.052062	NaN	0.000000	0.001658	0.001634	28.1044	0.111501	0.001961	56.8564	-119.21	-164.432	0.005739	0.133926	-1.548727	-1.550034	0.052062	56.8564	-1.549414	-5.060506E+20	-1.028787E-22	NaN
1.000000	1.000000	0.147231	7.36505e+06	-38689.1	955.818	-29796.6	0.000000	0.000000	6.146798	-0.002743	NaN	0.000000	0.001693	0.001659	28.0888	0.039755	0.001902	20.9056	170.834	-167.789	-0.058869	0.145933	-1.536729	-1.538026	-0.002743	20.9056	-1.536631	-3.420151E+20	8.020957E-24	NaN
1.000000	1.000000	0.159256	7.36505e+06	-38689.1	955.818	-29796.6	0.000000	0.000000	6.158825	0.045707	NaN	0.000000	0.001693	0.001685	28.1045	0.015547	0.002005	7.753213	56.2642	-166.171	-0.040681	0.157911	-1.524704	-1.526049	0.045707	7.753213	-1.529125	-2.717278E+20	-1.682091E-22	NaN
1.000000	1.000000	0.171214	7.36505e+06	-38689.1	955.819	-29796.6	0.000000	0.000000	6.170787	0.135964	NaN	0.000000	0.001697	0.001680	28.0869	0.041536	0.001989	20.8794	14.383	-161.293	0.172502	0.169954	-1.512746	-1.514005	0.135964	20.8794	-1.517630	-1.910223E+20	-7.117680E-22	NaN
1.000000	1.000000	0.183267	7.36505e+06	-38689.1	955.818	-29796.6	0.000000	0.000000	6.182836	0.033107	NaN	0.000000	0.001722	0.001657	28.1043	0.057196	0.001933	29.588	163.066	-165.72	0.020385	0.181949	-1.500693	-1.502010	0.033107	29.588	-1.501532	-1.166050E+20	-2.839249E-22	NaN
1.000000	1.000000	0.195261	7.36505e+06	-38689.1	955.818	-29796.6	0.000000	0.000000	6.194829	0.017650	NaN	0.000000	0.001670	0.001674	28.0886	0.068137	0.002074	32.8466	-71.9717	-162.945	0.065587	0.194010	-1.488699	-1.489950	0.017650	32.8466	-1.489102	-7.964474E+19	-2.216119E-22	NaN
1.000000	1.000000	0.207274	7.36505e+06	-38689.1	955.819	-29796.6	0.000000	0.000000	6.206846	0.109506	NaN	0.000000	0.001684	0.001650	28.1058	0.068494	0.002039	33.5868	-104.909	-163.793	0.030082	0.205981	-1.476686	-1.477979	0.109506	33.5868	-1.479131	-5.865837E+19	-1.866836E-21	NaN
1.000000	1.000000	0.219292	7.36505e+06	-38689.1	955.818	-29796.6	0.000000	0.000000	6.218860	0.016513	NaN	0.000000	0.001638	0.001616	28.0892	0.065558	0.002073	31.6195	28.6996	-161.9	0.034615	0.218008	-1.464667	-1.465952	0.016513	31.6195	-1.465059	-3.809234E+19	-4.334887E-22	NaN
1.000000	1.000000	0.231253	7.36505e+06	-38689.1	955.818	-29796.6	0.000000	0.000000	6.230822	0.045562	NaN	0.000000	0.001626	0.001639	28.1068	0.069292	0.002017	34.3546	-84.7035	-168.09	-0.019358	0.230002	-1.452706	-1.453957	0.045562	34.3546	-1.453701	-2.688295E+19	-1.694816E-21	NaN
1.000000	1.000000	0.243260	7.36505e+06	-38689.1	955.818	-29796.6	0.000000	0.000000	6.242828	0.021936	NaN	0.000000	0.001633	0.001645	28.0874	0.040815	0.001843	22.1508	-94.7718	-164.032	0.045341	0.241938	-1.440700	-1.442021	0.021936	22.1508	-1.441443	-1.845372E+19	-1.188680E-21	NaN
1.000000	1.000000	0.255262	7.36505e+06	-38689.1	955.819	-29796.6	0.000000	0.000000	6.254830	0.012807	NaN	0.000000	0.001641	0.001654	28.1053	0.063955	0.001932	33.0982	172.451	-169.075	0.031952	0.253991	-1.428698	-1.429968	0.012807	33.0982	-1.428988	-1.259069E+19	-1.017156E-21	NaN
1.000000	1.000000	0.267297	7.36505e+06	-38689.1	955.819	-29796.6	0.000000	0.000000	6.266868	0.089274	NaN	0.000000	0.001610	0.001607	28.0884	0.069259	0.002058	33.6595	-174.264	-165.591	0.078353	0.265957	-1.416662	-1.418003	0.089274	33.6595	-1.418652	-9.166890E+18	-9.738726E-21	NaN
1.000000	1.000000	0.279294	7.36505e+06	-38689.1	955.818	-29796.6	0.000000	0.000000	6.278863	0.023726	NaN	0.000000	0.001594	0.001654	28.1052	0.066688	0.002165	30.8095	-39.7238	-163.98	0.054279	0.277992	-1.404666	-1.405968	0.023726	30.8095	-1.405243	-6.072962E+18	-3.906802E-21	NaN
1.000000	1.000000	0.291287	7.36505e+06	-38689.1	955.819	-29796.6	0.000000	0.000000	6.290856	0.044690	NaN	0.000000	0.001601	0.001647	28.0903	0.116204	0.001998	58.1558	-157.424	-167.35	0.095873	0.290003	-1.392673	-1.393957	0.044690	58.1558	-1.393249	-4.201577E+18	-1.063650E-20	NaN
1.000000	1.000000	0.303292	7.36505e+06	-38689.1	955.818	-29796.6	0.000000	0.000000	6.302860	0.023457	NaN	0.000000	0.001571	0.001672	28.1064	0.049862	0.001949	25.5882	70.0192	-163.248	-0.001857	0.301948	-1.380668	-1.382011	0.023457	25.5882	-1.381355	-2.915569E+18	-8.045500E-21	NaN
1.000000	1.000000	0.315340	7.36505e+06	-38689.1	955.817	-29796.6	0.000000	0.000000	6.314907	-0.004007	NaN	0.000000	0.001620	0.001708	28.0889	0.122869	0.001936	63.4711	175.055	-165.847	-0.004388	0.314032	-1.368620	-1.369928	-0.004007	63.4711	-1.368573	-1.968536E+18	2.035503E-21	NaN
1.000000	1.000000	0.327327	7.36505e+06	-38689.1	955.818	-29796.6	0.000000	0.000000	6.326896	0.042990	NaN	0.000000	0.001597	0.001663	28.1035	0.065642	0.002111	31.0965	40.4311	-164.319	0.097762	0.326005	-1.356633	-1.357954	0.042990	31.0965	-1.357669	-1.408038E+18	-3.053192E-20	NaN
1.000000	1.000000	0.339335	7.36505e+06	-38689.1	955.818	-29796.6	0.000000	0.000000	6.338906	0.064071	NaN	0.000000	0.001634	0.001687	28.0856	0.053598	0.001958	27.3804	99.3601	-166.01	0.118445	0.338000	-1.344624	-1.345959	0.064071	27.3804	-1.346379	-9.951481E+17	-6.438306E-20	NaN
1.000000	1.000000	0.351301	7.36505e+06	-38689.1	955.818	-29796.6	0.000000	0.000000	6.350868	0.003905	NaN	0.000000	0.001625	0.001681	28.1039	0.120881	0.001966	61.4845	-122.637	-162.916	-0.040004	0.350013	-1.332659	-1.333946	0.003905	61.4845	-1.332706	-6.536047E+17	-5.975324E-21	NaN
1.000000	1.000000	0.363330	7.36505e+06	-38689.1	955.819	-29796.6	0.000000	0.000000	6.362899	0.040004	NaN	0.000000	0.001612	0.001660	28.0886	0.058476	0.001942	30.1187	6.665916	-165.864	0.114416	0.362000	-1.320630	-1.321960	0.040004	30.1187	-1.321626	-4.648592E+17	-8.605699E-20	NaN
1.000000	1.000000	0.375341	7.36505e+06	-38689.1	955.818	-29796.6	0.000000	0.000000	6.374912	0.088943	NaN	0.000000	0.001596	0.001656	28.1063	0.089504	0.001929	46.3965	83.8208	-162.7	0.017961	0.373981	-1.308619	-1.309979	0.088943	46.3965	-1.310057	-3.256656E+17	-2.731120E-19	NaN
1.000000	1.000000	0.387332	7.36505e+06	-38689.1	955.818	-29796.6	0.000000	0.000000	6.386902	0.054923	NaN	0.000000	0.001634	0.001657	28.0875	0.140675	0.001997	70.4338	151.841	-164.667	0.088584	0.386037	-1.296628	-1.297923	0.054923	70.4338	-1.297212	-2.193541E+17	-2.503846E-19	NaN
1.000000	1.000000	0.399366	7.36505e+06	-38689.1	955.818	-29796.6	0.000000	0.000000	6.398935	0.028027	NaN	0.000000	0.001584	0.001692	28.1047	0.047371	0.001878	25.2196	-23.7834	-162.699	-0.016273	0.398003	-1.284593	-1.285957	0.028027	25.2196	-1.285427	-1.526264E+17	-1.836344E-19	NaN
1.000000	1.000000	0.411371	7.36505e+06	-38689.1	955.818	-29796.6	0.000000	0.000000	6.410942	0.089605	NaN	0.000000	0.001628	0.001704	28.0873	0.032786	0.002076	15.7895	-71.7679	-166.062	0.056637	0.410020	-1.272589	-1.273939	0.089605	15.7895	-1.276845	-1.171942E+17	-7.645817E-19	NaN
1.000000	1.000000	0.423363	7.36505e+06	-38689.1	955.819	-29796.6	0.000000	0.000000	6.422932	0.050420	NaN	0.000000	0.001642	0.001664	28.1052	0.111884	0.001989	56.2542	52.183	-163.027	0.107396	0.422070	-1.260597	-1.261890	0.050420	56.2542	-1.261269	-7.255059E+16	-6.949633E-19	NaN
1.000000	1.000000	0.435336	7.36505e+06	-38689.1	955.818	-29796.6	0.000000	0.000000	6.434905	0.035658	NaN	0.000000	0.001622	0.001668	28.0869	0.127649	0.001930	66.1554	-81.8026	-165.179	0.040897	0.434065	-1.248623	-1.249895	0.035658	66.1554	-1.249028	-4.976379E+16	-7.165430E-19	NaN
1.000000	1.000000	0.447351	7.36505e+06	-38689.1	955.819	-29796.6	0.000000	0.000000	6.446917	-0.036548	NaN	0.000000	0.001615	0.001660	28.1055	0.085231	0.001937	44.01	14.3458	-165.372	-0.015262	0.446058	-1.236608	-1.237902	-0.036548	44.01	-1.235986	-3.329909E+16	1.097582E-18	NaN
1.000000	1.000000	0.459369	7.36505e+06	-38689.1	955.819	-29796.6	0.000000	0.000000	6.458936	-0.000419	NaN	0.000000	0.001557	0.001679	28.0881	0.026933	0.002108	12.7756	114.611	-165.87	-0.063588	0.458042	-1.224591	-1.225918	-0.000419	12.7756	-1.224566	-2.342193E+16	1.788065E-20	NaN
1.000000	1.000000	0.471380	7.36505e+06	-38689.1	955.819	-29796.6	0.000000	0.000000	6.470951	0.097724	NaN	0.000000	0.001573	0.001661	28.1081	0.047886	0.001946	24.6106	-172.988	-158.84	0.021348	0.470067	-1.212580	-1.213892	0.097724	24.6106	-1.215558	-1.774374E+16	-5.507539E-18	NaN
1.000000	1.000000	0.483371	7.36505e+06	-38689.1	955.818	-29796.6	0.000000	0.000000	6.482943	0.097466	NaN	0.000000	0.001577	0.001667	28.0876	0.093094	0.002090	44.5332	-11.1033	-163.721	0.067714	0.482057	-1.200588	-1.201902	0.097466	44.5332	-1.202230	-1.176543E+16	-8.284134E-18	NaN
1.000000	1.000000	0.495370	7.36505e+06	-38689.1	955.819	-29796.6	0.000000	0.000000	6.494939	0.026392	NaN	0.000000	0.001609	0.001648	28.1075	0.045725	0.001973	23.179	-59.6363	-159.728	0.076019	0.494088	-1.188589	-1.189872	0.026392	23.179	-1.189443	-7.931752E+15	-3.327323E-18	NaN
1.000000	1.000000	0.507406	7.36505e+06	-38689.1	955.819	-29796.6	0.000000	0.000000	6.506977	0.091908	NaN	0.000000	0.001599	0.001642	28.0873	0.073840	0.002079	35.5245	-139.153	-160.928	0.072472	0.506087	-1.176554	-1.177873	0.091908	35.5245	-1.178494	-5.658413E+15	-1.624273E-17	NaN
1.000000	1.000000	0.519378	7.36505e+06	-38689.1	955.818	-29796.6	0.000000	0.000000	6.518948	0.067397	NaN	0.000000	0.001574	0.001662	28.1075	0.037561	0.002007	18.7116	148.39	-165.529	0.062034	0.518063	-1.164582	-1.165897	0.067397	18.7116	-1.167283	-4.003834E+15	-1.683311E-17	NaN
1.000000	1.000000	0.531400	7.36505e+06	-38689.1	955.818	-29796.6	0.000000	0.000000	6.530969	0.054470	NaN	0.000000	0.001567	0.001718	28.0888	0.079452	0.002052	38.7168	-71.3839	-163.9	0.019403	0.530093	-1.152560	-1.153866	0.054470	38.7168	-1.153615	-2.625932E+15	-2.074327E-17	NaN
1.000000	1.000000	0.543424	7.36505e+06	-38689.1	955.818	-29796.6	0.000000	0.000000	6.542994	0.059629	NaN	0.000000	0.001599	0.001650	28.1081	0.153083	0.001972	77.6247	-120.667	-160.254	0.062849	0.542103	-1.140536	-1.141856	0.059629	77.6247	-1.141112	-1.785037E+15	-3.340486E-17	NaN
1.000000	1.000000	0.555411	7.36505e+06	-38689.1	955.819	-29796.6	0.000000	0.000000	6.554982	0.088664	NaN	0.000000	0.001597	0.001646	28.0894	0.079490	0.001903	41.771	-161.315	-163.066	0.047734	0.554079	-1.128548	-1.129881	0.088664	41.771	-1.130140	-1.272051E+15	-6.970193E-17	NaN
1.000000	1.000000	0.567420	7.36505e+06	-38689.1	955.818	-29796.6	0.000000	0.000000	6.566992	0.092380	NaN	0.000000	0.001594	0.001640	28.1071	0.017743	0.002076	8.545546	109.839	-166.875	0.109702	0.566127	-1.116539	-1.117833	0.092380	8.545546	-1.124647	-1.073528E+15	-8.605268E-17	NaN
1.000000	1.000000	0.579419	7.36505e+06	-38689.1	955.818	-29796.6	0.000000	0.000000	6.578988	0.036048	NaN	0.000000	0.001617	0.001702	28.0864	0.031423	0.002033	15.4563	-66.2511	-163.275	0.110304	0.578107	-1.104541	-1.105852	0.036048	15.4563	-1.106290	-6.088347E+14	-5.920853E-17	NaN
1.000000	1.000000	0.591428	7.36505e+06	-38689.1	955.818	-29796.6	0.000000	0.000000	6.590997	0.049342	NaN	0.000000	0.001595	0.001682	28.1063	0.138531	0.002059	67.2808	-112.037	-164.448	0.062340	0.590132	-1.092532	-1.093827	0.049342	67.2808	-1.093082	-4.047573E+14	-1.219043E-16	NaN
1.000000	1.000000	0.603444	7.36505e+06	-38689.1	955.818	-29796.6	0.000000	0.000000	6.603011	0.002090	NaN	0.000000	0.001594	0.001669	28.086	0.123587	0.002003	61.7052	12.6256	-167.533	0.060349	0.602142	-1.080516	-1.081818	0.002090	61.7052	-1.080541	-2.746543E+14	-7.608397E-18	NaN
1.000000	1.000000	0.615443	7.36505e+06	-38689.1	955.819	-29796.6	0.000000	0.000000	6.615015	0.120547	NaN	0.000000	0.001557	0.001697	28.1072	0.055156	0.001890	29.1797	120.54	-169.627	0.084157	0.614086	-1.068517	-1.069874	0.120547	29.1797	-1.071615	-2.083960E+14	-5.784496E-16	NaN
1.000000	1.000000	0.627452	7.36505e+06	-38689.1	955.818	-29796.6	0.000000	0.000000	6.627023	0.079642	NaN	0.000000	0.001593	0.001661	28.0854	0.049814	0.001809	27.5339	-106.231	-162.845	0.082073	0.626111	-1.056507	-1.057849	0.079642	27.5339	-1.058677	-1.396490E+14	-5.703036E-16	NaN
1.000000	1.000000	0.639466	7.36505e+06	-38689.1	955.818	-29796.6	0.000000	0.000000	6.639038	0.116177	NaN	0.000000	0.001555	0.001687	28.1069	0.052307	0.001924	27.1796	4.337288	-159.831	0.026370	0.638120	-1.044494	-1.045839	0.116177	27.1796	-1.047699	-9.942296E+13	-1.168518E-15	NaN
1.000000	1.000000	0.651450	7.36505e+06	-38689.1	955.817	-29796.6	0.000000	0.000000	6.651023	0.123936	NaN	0.000000	0.001593	0.001664	28.0856	0.056900	0.001912	29.767	-54.898	-165.803	0.116917	0.650129	-1.032510	-1.033831	0.123936	29.767	-1.035632	-6.842759E+13	-1.811201E-15	NaN
1.000000	1.000000	0.663453	7.36505e+06	-38689.1	955.817	-29796.6	0.000000	0.000000	6.663021	0.032319	NaN	0.000000	0.001599	0.001703	28.1062	0.032463	0.002154	15.07	118.946	-165.179	0.070658	0.662168	-1.020507	-1.021791	0.032319	15.07	-1.022115	-4.502094E+13	-7.178651E-16	NaN
1.000000	1.000000	0.675466	7.36505e+06	-38689.1	955.819	-29796.6	0.000000	0.000000	6.675037	0.092736	NaN	0.000000	0.001548	0.001706	28.0854	0.056646	0.002019	28.0535	-161.63	-163.477	0.106919	0.674085	-1.008494	-1.009875	0.092736	28.0535	-1.010973	-3.187734E+13	-2.909160E-15	NaN
1.000000	1.000000	0.687447	7.36505e+06	-38689.1	955.818	-29796.6	0.000000	0.000000	6.687014	-0.000110	NaN	0.000000	0.001551	0.001702	28.107	0.054667	0.002073	26.3659	-110.833	-165.864	-0.006643	0.686124	-0.996513	-0.997836	-0.000110	26.3659	-0.996510	-2.035999E+13	5.389967E-18	NaN
1.000000	1.000000	0.699460	7.36505e+06	-38689.1	955.818	-29796.6	0.000000	0.000000	6.699033	0.122148	NaN	0.000000	0.001578	0.001699	28.0869	0.083333	0.001918	43.4533	73.112	-163.324	0.121437	0.698167	-0.984499	-0.985792	0.122148	43.4533	-0.986607	-1.497676E+13	-8.155854E-15	NaN
1.000000	1.000000	0.711470	7.36505e+06	-38689.1	955.819	-29796.6	0.000000	0.000000	6.711036	-0.036361	NaN	0.000000	0.001583	0.001673	28.1077	0.117319	0.002137	54.8921	-108.884	-165.364	0.015730	0.710152	-0.972490	-0.973808	-0.036361	54.8921	-0.971993	-9.517461E+12	3.820445E-15	NaN
1.000000	1.000000	0.723508	7.36505e+06	-38689.1	955.819	-29796.6	0.000000	0.000000	6.723077	0.054088	NaN	0.000000	0.001612	0.001694	28.0845	0.095325	0.001881	50.6827	105.281	-165.607	0.022078	0.722140	-0.960452	-0.961820	0.054088	50.6827	-0.961252	-6.819506E+12	-7.931411E-15	NaN
1.000000	1.000000	0.735472	7.36505e+06	-38689.1	955.818	-29796.6	0.000000	0.000000	6.735041	0.032731	NaN	0.000000	0.001609	0.001699	28.1075	0.107080	0.001885	56.7948	-132.738	-164.046	0.066746	0.734184	-0.948487	-0.949775	0.032731	56.7948	-0.948920	-4.650046E+12	-7.038880E-15	NaN
1.000000	1.000000	0.747496	7.36505e+06	-38689.1	955.818	-29796.6	0.000000	0.000000	6.747066	0.054258	NaN	0.000000	0.001609	0.001711	28.0858	0.067211	0.002065	32.5544	-59.3031	-165.06	0.046311	0.746213	-0.936463	-0.937747	0.054258	32.5544	-0.937713	-3.283087E+12	-1.652646E-14	NaN
1.000000	1.000000	0.759500	7.36505e+06	-38689.1	955.819	-29796.6	0.000000	0.000000	6.759071	0.089226	NaN	0.000000	0.001622	0.001692	28.1082	0.054220	0.002092	25.9229	-102.903	-165.09	0.125040	0.758222	-0.924459	-0.925737	0.089226	25.9229	-0.927041	-2.356441E+12	-3.786467E-14	NaN
1.000000	1.000000	0.771462	7.36505e+06	-38689.1	955.819	-29796.6	0.000000	0.000000	6.771030	0.018963	NaN	0.000000	0.001618	0.001704	28.0874	0.104063	0.002042	50.966	38.752	-165.892	-0.011501	0.770190	-0.912497	-0.913770	0.018963	50.966	-0.912776	-1.512385E+12	-1.253878E-14	NaN
1.000000	1.000000	0.783495	7.36505e+06	-38689.1	955.818	-29796.6	0.000000	0.000000	6.783065	0.075320	NaN	0.000000	0.001607	0.001687	28.1093	0.064308	0.001967	32.695	-84.2275	-165.361	0.012667	0.782194	-0.900465	-0.901765	0.075320	32.695	-0.902193	-1.088167E+12	-6.921689E-14	NaN
1.000000	1.000000	0.795506	7.36505e+06	-38689.1	955.819	-29796.6	0.000000	0.000000	6.795078	0.115886	NaN	0.000000	0.001614	0.001682	28.0871	0.053062	0.002082	25.4857	-139.272	-164.938	0.027032	0.794182	-0.888453	-0.889777	0.115886	25.4857	-0.891864	-7.890547E+11	-1.468664E-13	NaN
1.000000	1.000000	0.807517	7.36505e+06	-38689.1	955.819	-29796.6	0.000000	0.000000	6.807086	0.040355	NaN	0.000000	0.001578	0.001666	28.1086	0.066214	0.001997	33.1572	77.7254	-162.778	-0.044211	0.806166	-0.876443	-0.877793	0.040355	33.1572	-0.877356	-5.022827E+11	-8.034239E-14	NaN
1.000000	1.000000	0.819496	7.36505e+06	-38689.1	955.818	-29796.6	0.000000	0.000000	6.819062	-0.016774	NaN	0.000000	0.001599	0.001690	28.0859	0.015139	0.002021	7.490715	-53.8745	-166.46	-0.003457	0.818211	-0.864464	-0.865749	-0.016774	7.490715	-0.862785	-3.190129E+11	5.257972E-14	NaN
1.000000	1.000000	0.831551	7.36505e+06	-38689.1	955.818	-29796.6	0.000000	0.000000	6.831119	0.013331	NaN	0.000000	0.001606	0.001698	28.1076	0.045186	0.001971	22.9237	168.553	-165.373	0.019415	0.830238	-0.852408	-0.853721	0.013331	22.9237	-0.852845	-2.340210E+11	-5.696426E-14	NaN
1.000000	1.000000	0.843514	7.36505e+06	-38689.1	955.818	-29796.6	0.000000	0.000000	6.843082	0.013317	NaN	0.000000	0.001607	0.001710	28.0874	0.039212	0.002021	19.4014	85.3826	-167.083	0.083077	0.842262	-0.840445	-0.841697	0.013317	19.4014	-0.840960	-1.615477E+11	-8.243420E-14	NaN
1.000000	1.000000	0.855543	7.36505e+06	-38689.1	955.818	-29796.6	0.000000	0.000000	6.855117	0.152946	NaN	0.000000	0.001600	0.001684	28.109	0.030776	0.001982	15.5268	92.8579	-167.271	0.137863	0.854208	-0.828417	-0.829751	0.152946	15.5268	-0.835805	-1.375461E+11	-1.111960E-12	NaN
1.000000	1.000000	0.867548	7.36505e+06	-38689.1	955.818	-29796.6	0.000000	0.000000	6.867117	0.034395	NaN	0.000000	0.001636	0.001693	28.0861	0.063035	0.002004	31.4491	103.3	-165.427	0.049117	0.866243	-0.816411	-0.817717	0.034395	31.4491	-0.817232	-7.703164E+10	-4.465025E-13	NaN
1.000000	1.000000	0.879547	7.36505e+06	-38689.1	955.818	-29796.6	0.000000	0.000000	6.879117	0.063210	NaN	0.000000	0.001590	0.001702	28.1081	0.055102	0.001761	31.2967	68.7533	-165.065	0.030440	0.878235	-0.804412	-0.805725	0.063210	31.2967	-0.805927	-5.411374E+10	-1.168087E-12	NaN
1.000000	1.000000	0.891519	7.36505e+06	-38689.1	955.819	-29796.6	0.000000	0.000000	6.891089	0.068557	NaN	0.000000	0.001587	0.001694	28.0856	0.029632	0.002084	14.2168	-152.383	-163.467	0.081696	0.890237	-0.792440	-0.793722	0.068557	14.2168	-0.796057	-3.974975E+10	-1.724708E-12	NaN
1.000000	1.000000	0.903566	7.36505e+06	-38689.1	955.818	-29796.6	0.000000	0.000000	6.903138	0.125645	NaN	0.000000	0.001643	0.001703	28.1079	0.043889	0.002107	20.8347	-122.754	-163.444	0.133759	0.902178	-0.780394	-0.781781	0.125645	20.8347	-0.784917	-2.805686E+10	-4.478228E-12	NaN
1.000000	1.000000	0.915540	7.36505e+06	-38689.1	955.818	-29796.6	0.000000	0.000000	6.915111	0.097604	NaN	0.000000	0.001556	0.001697	28.0852	0.056817	0.001869	30.3974	-72.1452	-165.177	0.075964	0.914280	-0.768420	-0.769680	0.097604	30.3974	-0.770828	-1.805345E+10	-5.406375E-12	NaN
1.000000	1.000000	0.927564	7.36505e+06	-38689.1	955.818	-29796.6	0.000000	0.000000	6.927135	0.079653	NaN	0.000000	0.001555	0.001690	28.1089	0.036329	0.002076	17.4986	-29.6408	-163.26	0.025037	0.926229	-0.756396	-0.757731	0.079653	17.4986	-0.759810	-1.278538E+10	-6.230031E-12	NaN
1.000000	1.000000	0.939570	7.36505e+06	-38689.1	955.818	-29796.6	0.000000	0.000000	6.939142	0.089183	NaN	0.000000	0.001585	0.001673	28.0866	0.094766	0.002011	47.1219	25.8216	-163.906	0.051165	0.938283	-0.744389	-0.745677	0.089183	47.1219	-0.745809	-8.244391E+9	-1.081738E-11	NaN
1.000000	1.000000	0.951585	7.36505e+06	-38689.1	955.819	-29796.6	0.000000	0.000000	6.951156	0.094465	NaN	0.000000	0.001566	0.001690	28.109	0.057844	0.002060	28.082	-152.209	-167.878	0.103974	0.950220	-0.732375	-0.733740	0.094465	28.082	-0.734898	-5.855286E+9	-1.613326E-11	NaN
1.000000	1.000000	0.963568	7.36505e+06	-38689.1	955.818	-29796.6	0.000000	0.000000	6.963140	0.108433	NaN	0.000000	0.001591	0.001734	28.0838	0.122346	0.002055	59.5416	61.745	-167.063	0.055004	0.962286	-0.720392	-0.721674	0.108433	59.5416	-0.721758	-3.876534E+9	-2.797157E-11	NaN
1.000000	1.000000	0.975575	7.36506e+06	-38689.1	955.819	-29796.6	0.000000	0.000000	6.975145	0.045894	NaN	0.000000	0.001591	0.001717	28.1084	0.053465	0.001947	27.4617	-174.59	-165.311	0.037856	0.974274	-0.708384	-0.709685	0.045894	27.4617	-0.709638	-2.649119E+9	-1.732414E-11	NaN
1.000000	1.000000	0.987580	7.36506e+06	-38689.1	955.817	-29796.6	0.000000	0.000000	6.987153	0.119643	NaN	0.000000	0.001618	0.001687	28.0841	0.070994	0.002043	34.742	-33.3624	-163.718	0.165591	0.986269	-0.696379	-0.697691	0.119643	34.742	-0.698962	-1.893896E+9	-6.317295E-11	NaN
1.000000	1.000000	0.999589	7.36506e+06	-38689.1	955.818	-29796.6	0.000000	0.000000	6.999159	0.063056	NaN	0.000000	0.001605	0.001685	28.1085	0.104087	0.001977	52.6598	-159.879	-167.739	0.052312	0.998340	-0.684371	-0.685620	0.063056	52.6598	-0.685269	-1.230986E+9	-5.122387E-11	NaN
1.000000	1.000000	1.011584	7.36506e+06	-38689.1	955.819	-29796.6	0.000000	0.000000	7.011152	0.019706	NaN	0.000000	0.001612	0.001719	28.0864	0.035477	0.001911	18.5646	2.916956	-168.332	0.063118	1.010311	-0.672376	-0.673649	0.019706	18.5646	-0.673172	-8.410060E+8	-2.343140E-11	NaN
1.000000	1.000000	1.023595	7.36506e+06	-38689.1	955.819	-29796.6	0.000000	0.000000	7.023164	0.028880	NaN	0.000000	0.001665	0.001677	28.1107	0.087739	0.001986	44.1679	73.301	-166.264	0.057811	1.022313	-0.660364	-0.661646	0.028880	44.1679	-0.660855	-5.703932E+8	-5.063158E-11	NaN
1.000000	1.000000	1.035630	7.36506e+06	-38689.1	955.819	-29796.6	0.000000	0.000000	7.035201	0.088704	NaN	0.000000	0.001649	0.001705	28.0874	0.065619	0.001968	33.3447	171.656	-162.352	0.050686	1.034355	-0.648329	-0.649605	0.088704	33.3447	-0.650325	-4.091529E+8	-2.168001E-10	NaN
1.000000	1.000000	1.047580	7.36506e+06	-38689.1	955.819	-29796.6	0.000000	0.000000	7.047152	0.119944	NaN	0.000000	0.001628	0.001691	28.1089	0.124861	0.002034	61.4	-154.367	-166.36	0.077676	1.046269	-0.636380	-0.637691	0.119944	61.4	-0.637845	-2.758781E+8	-4.347729E-10	NaN
1.000000	1.000000	1.059607	7.36506e+06	-38689.1	955.819	-29796.6	0.000000	0.000000	7.059179	0.100366	NaN	0.000000	0.001713	0.001703	28.0857	0.085791	0.002048	41.8821	-174.384	-164.895	0.105062	1.058308	-0.624352	-0.625652	0.100366	41.8821	-0.626150	-1.906064E+8	-5.265600E-10	NaN
1.000000	1.000000	1.071613	7.36506e+06	-38689.1	955.82	-29796.6	0.000000	0.000000	7.071183	0.043065	NaN	0.000000	0.001697	0.001709	28.11	0.017767	0.002014	8.820783	145.796	-166.344	0.008265	1.070312	-0.612346	-0.613647	0.043065	8.820783	-0.616008	-1.382773E+8	-3.114365E-10	NaN
1.000000	1.000000	1.083635	7.36506e+06	-38689.1	955.819	-29796.6	0.000000	0.000000	7.083203	0.008843	NaN	0.000000	0.001685	0.001715	28.0857	0.086036	0.001988	43.2705	39.8655	-164.298	0.054127	1.082288	-0.600324	-0.601672	0.008843	43.2705	-0.600477	-8.453463E+7	-1.046024E-10	NaN
1.000000	1.000000	1.095649	7.36506e+06	-38689.1	955.819	-29796.6	0.000000	0.000000	7.095221	0.101487	NaN	0.000000	0.001679	0.001692	28.1118	0.169173	0.001900	89.0477	-34.5537	-167.895	0.101265	1.094342	-0.588310	-0.589618	0.101487	89.0477	-0.589165	-5.904149E+7	-1.718907E-9	NaN
1.000000	1.000000	1.107635	7.36506e+06	-38689.1	955.818	-29796.6	0.000000	0.000000	7.107203	0.024710	NaN	0.000000	0.001655	0.001705	28.0857	0.068059	0.002020	33.6878	162.874	-163.619	0.057690	1.106318	-0.576325	-0.577642	0.024710	33.6878	-0.576875	-3.995622E+7	-6.184316E-10	NaN
1.000000	1.000000	1.119621	7.36506e+06	-38689.1	955.818	-29796.6	0.000000	0.000000	7.119191	0.069746	NaN	0.000000	0.001711	0.001682	28.111	0.019945	0.002069	9.639291	-2.822670	-166.73	0.024581	1.118306	-0.564339	-0.565654	0.069746	9.639291	-0.569766	-3.187083E+7	-2.188409E-9	NaN
1.000000	1.000000	1.131652	7.36506e+06	-38689.1	955.819	-29796.6	0.000000	0.000000	7.131222	0.069857	NaN	0.000000	0.001682	0.001654	28.0851	0.041928	0.001980	21.1752	137.857	-162.702	0.049830	1.130364	-0.552308	-0.553595	0.069857	21.1752	-0.554782	-1.977768E+7	-3.532107E-9	NaN
1.000000	1.000000	1.143670	7.36506e+06	-38689.1	955.819	-29796.6	0.000000	0.000000	7.143241	0.090687	NaN	0.000000	0.001603	0.001687	28.1088	0.010321	0.002059	5.011835	-47.5232	-167.583	0.154489	1.142344	-0.540290	-0.541616	0.090687	5.011835	-0.553861	-1.920528E+7	-4.721986E-9	NaN
1.000000	1.000000	1.155657	7.36506e+06	-38689.1	955.819	-29796.6	0.000000	0.000000	7.155226	0.046116	NaN	0.000000	0.001602	0.001675	28.0843	0.058904	0.002129	27.6696	-120.944	-167.459	0.134285	1.154353	-0.528303	-0.529607	0.046116	27.6696	-0.529553	-8.83828e+06	-5.217738E-9	NaN
1.000000	1.000000	1.167671	7.36506e+06	-38689.1	955.819	-29796.6	0.000000	0.000000	7.167241	0.041979	NaN	0.000000	0.001605	0.001701	28.1099	0.215750	0.002072	104.12	-5.271099	-164.572	0.103996	1.166357	-0.516288	-0.517603	0.041979	104.12	-0.516591	-5.83672e+06	-7.192301E-9	NaN
1.000000	1.000000	1.179652	7.36506e+06	-38689.1	955.82	-29796.6	0.000000	0.000000	7.179224	0.097852	NaN	0.000000	0.001611	0.001686	28.0848	0.014834	0.002018	7.351889	142.496	-163.984	0.132487	1.178313	-0.504307	-0.505646	0.097852	7.351889	-0.514290	-5.42183e+06	-1.804778E-8	NaN
1.000000	1.000000	1.191670	7.36506e+06	-38689.1	955.82	-29796.6	0.000000	0.000000	7.191243	0.147653	NaN	0.000000	0.001638	0.001689	28.1107	0.022962	0.002089	10.9936	40.6064	-163.994	0.107107	1.190354	-0.492290	-0.493606	0.147653	10.9936	-0.502363	-3.69807e+06	-3.992706E-8	NaN
1.000000	1.000000	1.203678	7.36506e+06	-38689.1	955.82	-29796.6	0.000000	0.000000	7.203250	0.113067	NaN	0.000000	0.001603	0.001684	28.0828	0.003487	0.001989	1.753425	113.697	-164.677	0.153270	1.202330	-0.480281	-0.481630	0.113067	1.753425	-0.528644	-8.58506e+06	-1.317024E-8	NaN
1.000000	1.000000	1.215674	7.36506e+06	-38689.1	955.82	-29796.6	0.000000	0.000000	7.215246	0.107441	NaN	0.000000	0.001593	0.001686	28.1092	0.130627	0.002091	62.4752	-91.8549	-163.885	0.024445	1.214375	-0.468285	-0.469584	0.107441	62.4752	-0.469575	-1.2866e+06	-8.350732E-8	NaN
1.000000	1.000000	1.227710	7.36506e+06	-38689.1	955.82	-29796.6	0.000000	0.000000	7.227282	0.095100	NaN	0.000000	0.001628	0.001708	28.0841	0.078144	0.002017	38.7479	158.273	-162.436	0.070835	1.226374	-0.456249	-0.457585	0.095100	38.7479	-0.458090	-887509	-1.071544E-7	NaN
1.000000	1.000000	1.239698	7.36506e+06	-38689.1	955.82	-29796.6	0.000000	0.000000	7.239270	0.108928	NaN	0.000000	0.001642	0.001721	28.1109	0.137871	0.001973	69.8699	-41.4992	-164.398	0.177426	1.238392	-0.444262	-0.445568	0.108928	69.8699	-0.445431	-588800	-1.849991E-7	NaN
1.000000	1.000000	1.251715	7.36506e+06	-38689.1	955.82	-29796.6	0.000000	0.000000	7.251286	0.082658	NaN	0.000000	0.001655	0.001708	28.0856	0.054934	0.002080	26.4068	76.509	-165.891	0.022566	1.250413	-0.432244	-0.433546	0.082658	26.4068	-0.434592	-413987	-1.996622E-7	NaN
1.000000	1.000000	1.263706	7.36506e+06	-38689.1	955.82	-29796.6	0.000000	0.000000	7.263277	0.063445	NaN	0.000000	0.001635	0.001701	28.1108	0.039850	0.002013	19.7993	-56.2787	-163.244	-0.012708	1.262398	-0.420253	-0.421562	0.063445	19.7993	-0.422656	-280593	-2.261105E-7	NaN
1.000000	1.000000	1.275714	7.36506e+06	-38689.1	955.821	-29796.6	0.000000	0.000000	7.275284	0.059353	NaN	0.000000	0.001653	0.001715	28.0864	0.099973	0.001866	53.5757	120.238	-169.371	0.035002	1.274387	-0.408245	-0.409573	0.059353	53.5757	-0.409076	-179995	-3.297459E-7	NaN
1.000000	1.000000	1.287709	7.36506e+06	-38689.1	955.821	-29796.6	0.000000	0.000000	7.287278	0.022996	NaN	0.000000	0.001618	0.001732	28.1105	0.090003	0.002105	42.7602	40.892	-162.545	0.022009	1.286402	-0.396250	-0.397558	0.022996	42.7602	-0.396654	-119742	-1.920427E-7	NaN
1.000000	1.000000	1.299699	7.36506e+06	-38689.1	955.821	-29796.6	0.000000	0.000000	7.299270	0.094094	NaN	0.000000	0.001629	0.001713	28.0855	0.065643	0.002118	30.991	146.543	-166.832	0.135322	1.298413	-0.384261	-0.385546	0.094094	30.991	-0.386538	-85825.6	-1.096336E-6	NaN
1.000000	1.000000	1.311736	7.36506e+06	-38689.1	955.821	-29796.6	0.000000	0.000000	7.311307	0.084959	NaN	0.000000	0.001619	0.001747	28.1107	0.081714	0.001952	41.8624	137.841	-166.627	0.080233	1.310407	-0.372224	-0.373553	0.084959	41.8624	-0.373746	-56238.8	-1.510676E-6	NaN
1.000000	1.000000	1.323726	7.36506e+06	-38689.1	955.82	-29796.6	0.000000	0.000000	7.323296	0.067036	NaN	0.000000	0.001629	0.001716	28.0863	0.029006	0.001981	14.6417	158.48	-166.004	0.078166	1.322393	-0.360233	-0.361567	0.067036	14.6417	-0.363667	-40255	-1.665280E-6	NaN
1.000000	1.000000	1.335716	7.36506e+06	-38689.1	955.82	-29796.6	0.000000	0.000000	7.335287	0.086733	NaN	0.000000	0.001618	0.001737	28.1123	0.030450	0.002024	15.0462	-98.8357	-163.842	0.118353	1.334385	-0.348244	-0.349575	0.086733	15.0462	-0.352567	-27812.6	-3.118465E-6	NaN
1.000000	1.000000	1.347736	7.36506e+06	-38689.1	955.82	-29796.6	0.000000	0.000000	7.347307	0.095161	NaN	0.000000	0.001617	0.001692	28.0853	0.114822	0.002052	55.9596	91.7855	-166.023	-0.039336	1.346457	-0.336224	-0.337503	0.095161	55.9596	-0.337499	-16791	-5.667394E-6	NaN
1.000000	1.000000	1.359749	7.36506e+06	-38689.1	955.82	-29796.6	0.000000	0.000000	7.359319	0.057362	NaN	0.000000	0.001618	0.001687	28.112	0.025828	0.001961	13.1693	-147.134	-162.864	0.025077	1.358394	-0.324211	-0.325565	0.057362	13.1693	-0.327478	-11980.9	-4.787765E-6	NaN
1.000000	1.000000	1.371737	7.36506e+06	-38689.1	955.82	-29796.6	0.000000	0.000000	7.371307	0.066412	NaN	0.000000	0.001631	0.001654	28.0838	0.020498	0.001944	10.5433	-162.353	-164.63	0.086826	1.370437	-0.312223	-0.313522	0.066412	10.5433	-0.316947	-8388.17	-7.917293E-6	NaN
1.000000	1.000000	1.383737	7.36506e+06	-38689.1	955.82	-29796.6	0.000000	0.000000	7.383306	0.031750	NaN	0.000000	0.001637	0.001675	28.1119	0.100792	0.002022	49.8424	84.7753	-167.164	0.040036	1.382385	-0.300222	-0.301575	0.031750	49.8424	-0.300700	-4820.1	-6.587078E-6	NaN
1.000000	1.000000	1.395758	7.36506e+06	-38689.1	955.82	-29796.6	0.000000	0.000000	7.395330	0.112806	NaN	0.000000	0.001645	0.001659	28.0843	0.086164	0.002004	42.9911	67.205	-166.132	0.081002	1.394378	-0.288201	-0.289582	0.112806	42.9911	-0.290169	-3356.14	-3.361191E-5	NaN
1.000000	1.000000	1.407775	7.36506e+06	-38689.1	955.82	-29796.6	0.000000	0.000000	7.407346	0.073538	NaN	0.000000	0.001644	0.001685	28.1132	0.108342	0.002126	50.9592	-159.878	-164.238	0.080069	1.406496	-0.276184	-0.277464	0.073538	50.9592	-0.277267	-2146.32	-3.426237E-5	NaN
1.000000	1.000000	1.419755	7.36506e+06	-38689.1	955.821	-29796.6	0.000000	0.000000	7.419327	0.105889	NaN	0.000000	0.001623	0.001650	28.084	0.063308	0.002037	31.08	-28.7098	-165.861	0.107487	1.418452	-0.264204	-0.265507	0.105889	31.08	-0.266760	-1486.71	-7.122372E-5	NaN
1.000000	1.000000	1.431757	7.36506e+06	-38689.1	955.82	-29796.6	0.000000	0.000000	7.431327	0.081158	NaN	0.000000	0.001639	0.001645	28.111	0.072056	0.001922	37.4843	-116.725	-164.936	0.087388	1.430492	-0.252203	-0.253468	0.081158	37.4843	-0.253827	-941.988	-8.615569E-5	NaN
1.000000	1.000000	1.443756	7.36506e+06	-38689.1	955.821	-29796.6	0.000000	0.000000	7.443327	0.100597	NaN	0.000000	0.001616	0.001655	28.0831	0.008265	0.002102	3.931690	69.0153	-163.729	0.122611	1.442488	-0.240204	-0.241472	0.100597	3.931690	-0.259394	-1147.15	-8.769260E-5	NaN
1.000000	1.000000	1.455787	7.36506e+06	-38689.1	955.82	-29796.6	0.000000	0.000000	7.455358	0.097716	NaN	0.000000	0.001627	0.001691	28.1098	0.031824	0.001963	16.2159	106.354	-164.712	0.101165	1.454391	-0.228173	-0.229569	0.097716	16.2159	-0.232692	-441.537	-0.000221	NaN
1.000000	1.000000	1.467772	7.36506e+06	-38689.1	955.822	-29796.6	0.000000	0.000000	7.467343	0.089706	NaN	0.000000	0.001650	0.001709	28.0823	0.086269	0.001836	46.9803	36.2202	-164.134	0.077144	1.466485	-0.216187	-0.217474	0.089706	46.9803	-0.217620	-254.435	-0.000353	NaN
1.000000	1.000000	1.479775	7.36506e+06	-38689.1	955.822	-29796.6	0.000000	0.000000	7.479349	0.158962	NaN	0.000000	0.001640	0.001697	28.1105	0.024600	0.001971	12.4821	-81.0576	-166.473	0.205533	1.478487	-0.204184	-0.205473	0.158962	12.4821	-0.213736	-220.375	-0.000721	NaN
1.000000	1.000000	1.491799	7.36506e+06	-38689.1	955.821	-29796.6	0.000000	0.000000	7.491371	0.115687	NaN	0.000000	0.001626	0.001705	28.084	0.031383	0.001892	16.5869	169.473	-164.367	0.036807	1.490523	-0.192161	-0.193436	0.115687	16.5869	-0.197392	-119.329	-0.000969	NaN
1.000000	1.000000	1.503807	7.36506e+06	-38689.1	955.821	-29796.6	0.000000	0.000000	7.503378	0.091239	NaN	0.000000	0.001573	0.001666	28.1116	0.110069	0.001970	55.8593	93.4325	-169.574	0.073132	1.502477	-0.180153	-0.181483	0.091239	55.8593	-0.181378	-64.3993	-0.001417	NaN
1.000000	1.000000	1.515810	7.36506e+06	-38689.1	955.821	-29796.6	0.000000	0.000000	7.515381	0.078085	NaN	0.000000	0.001625	0.001690	28.0846	0.093933	0.002009	46.7584	19.5296	-163.336	0.047356	1.514559	-0.168149	-0.169401	0.078085	46.7584	-0.169402	-40.1067	-0.001947	NaN
1.000000	1.000000	1.527828	7.36506e+06	-38689.1	955.821	-29796.6	0.000000	0.000000	7.527397	0.035648	NaN	0.000000	0.001624	0.001680	28.1111	0.025601	0.002004	12.7763	128.024	-167.682	0.011640	1.526473	-0.156132	-0.157487	0.035648	12.7763	-0.158224	-25.4894	-0.001399	NaN
1.000000	1.000000	1.539806	7.36506e+06	-38689.1	955.822	-29796.6	0.000000	0.000000	7.539378	0.105091	NaN	0.000000	0.001608	0.001680	28.0824	0.080435	0.002036	39.4972	-95.4919	-163.817	0.068239	1.538521	-0.144153	-0.145438	0.105091	39.4972	-0.146149	-15.3952	-0.006826	NaN
1.000000	1.000000	1.551807	7.36506e+06	-38689.1	955.822	-29796.6	0.000000	0.000000	7.551381	0.150689	NaN	0.000000	0.001597	0.001677	28.1121	0.060730	0.001960	30.9899	-134.458	-163.997	0.122524	1.550501	-0.132152	-0.133459	0.150689	30.9899	-0.135799	-9.851988	-0.015295	NaN
1.000000	1.000000	1.563857	7.36506e+06	-38689.1	955.821	-29796.6	0.000000	0.000000	7.563427	0.065699	NaN	0.000000	0.001608	0.001684	28.0854	0.047484	0.002000	23.7375	145.262	-167.949	0.069181	1.562550	-0.120103	-0.121409	0.065699	23.7375	-0.122179	-5.343913	-0.012294	NaN
1.000000	1.000000	1.575851	7.36506e+06	-38689.1	955.821	-29796.6	0.000000	0.000000	7.575420	0.014420	NaN	0.000000	0.001645	0.001702	28.113	0.029495	0.002035	14.4929	170.434	-166.272	0.002739	1.574539	-0.108108	-0.109421	0.014420	14.4929	-0.108854	-2.842170	-0.005073	NaN
1.000000	1.000000	1.587846	7.36506e+06	-38689.1	955.822	-29796.6	0.000000	0.000000	7.587414	0.021466	NaN	0.000000	0.001646	0.001689	28.0854	0.057292	0.001899	30.1725	-158.924	-167.005	0.008700	1.586527	-0.096114	-0.097432	0.021466	30.1725	-0.096647	-1.537347	-0.013963	NaN
1.000000	1.000000	1.599883	7.36506e+06	-38689.1	955.821	-29796.6	0.000000	0.000000	7.599454	0.093339	NaN	0.000000	0.001656	0.001685	28.1132	0.047383	0.002081	22.7743	79.8211	-163.944	0.056625	1.598520	-0.084077	-0.085439	0.093339	22.7743	-0.087151	-0.925499	-0.100853	NaN
1.000000	1.000000	1.611843	7.36506e+06	-38689.1	955.821	-29796.6	0.000000	0.000000	7.611413	0.067525	NaN	0.000000	0.001633	0.001689	28.082	0.064236	0.001945	33.029	-2.844140	-165.517	0.147257	1.610546	-0.072117	-0.073413	0.067525	33.029	-0.073650	-0.426017	-0.158503	NaN
1.000000	1.000000	1.623863	7.36506e+06	-38689.1	955.822	-29796.6	0.000000	0.000000	7.623437	0.160802	NaN	0.000000	0.001608	0.001647	28.1123	0.028103	0.001917	14.6588	-88.3102	-164.254	0.193729	1.622562	-0.060097	-0.061397	0.160802	14.6588	-0.068324	-0.307417	-0.523074	NaN
1.000000	1.000000	1.635853	7.36506e+06	-38689.1	955.822	-29796.6	0.000000	0.000000	7.635420	0.004656	NaN	0.000000	0.001650	0.001654	28.0829	0.064909	0.001995	32.5282	145.081	-164.248	0.029621	1.634562	-0.048107	-0.049397	0.004656	32.5282	-0.048214	-0.080552	-0.057802	NaN
1.000000	1.000000	1.647921	7.36506e+06	-38689.1	955.822	-29796.6	0.000000	0.000000	7.647491	0.061778	NaN	0.000000	0.001612	0.001659	28.1133	0.148420	0.002125	69.8283	-30.4249	-166.608	0.078779	1.646536	-0.036038	-0.037423	0.061778	69.8283	-0.036702	-0.035971	-1.717428	NaN
1.000000	1.000000	1.659912	7.36506e+06	-38689.1	955.822	-29796.6	0.000000	0.000000	7.659482	0.080148	NaN	0.000000	0.001651	0.001639	28.085	0.114828	0.001972	58.2346	-122.123	-166.194	0.063204	1.658564	-0.024048	-0.025395	0.080148	58.2346	-0.025080	-0.016952	-4.727956	NaN
1.000000	1.000000	1.671888	7.36506e+06	-38689.1	955.822	-29796.6	0.000000	0.000000	7.671461	0.143845	NaN	0.000000	0.001642	0.001660	28.114	0.023095	0.002071	11.1526	109.408	-164.587	0.169454	1.670632	-0.012072	-0.013328	0.143845	11.1526	-0.021745	-0.013912	-10.3398	NaN
1.000000	1.000000	1.683904	7.36506e+06	-38689.1	955.822	-29796.6	0.000000	0.000000	7.683475	0.082784	NaN	0.000000	0.001652	0.001647	28.0823	0.050328	0.001879	26.7905	40.0573	-161.928	0.052979	1.682608	-5.542863E-5	-0.001352	0.082784	26.7905	-0.002373	-0.001696	-48.8056	NaN
1.000000	1.000000	1.695913	7.36506e+06	-38689.1	955.823	-29796.6	0.000000	0.000000	7.695485	0.104654	NaN	0.000000	0.001621	0.001639	28.1118	0.184377	0.002001	92.143	-130.323	-165.916	0.077159	1.694606	0.011953	0.010646	0.104654	92.143	0.011101	0.010431	10.0326	824.26
1.000000	1.000000	1.707878	7.36506e+06	-38689.1	955.822	-29796.6	0.000000	0.000000	7.707451	0.124241	NaN	0.000000	0.001620	0.001594	28.0816	0.119722	0.001952	61.3399	32.7645	-163.593	0.076905	1.706648	0.023919	0.022689	0.124241	61.3399	0.022400	0.026454	4.696483	344.565
1.000000	1.000000	1.719889	7.36506e+06	-38689.1	955.822	-29796.6	0.000000	0.000000	7.719481	0.600429	NaN	0.000000	0.001632	0.001658	28.112	0.768257	0.002076	370.051	28.7581	-165.81	0.443703	1.718614	0.035930	0.034655	0.600429	370.051	0.034713	0.051079	11.7549	1495.94
1.000000	1.000000	1.731928	7.36506e+06	-38689.1	955.823	-29796.6	0.000000	0.000000	7.731645	3.653983	NaN	0.000000	0.001600	0.001624	28.0829	3.091072	0.001838	1681.87	20.5513	-170.089	3.035237	1.730565	0.047968	0.046605	3.653983	1681.87	0.046339	0.081433	44.871	5384.73
1.000000	2.000000	1.740568	7.36506e+06	-38689.1	955.822	-29796.6	0.000000	0.000000	7.740478	8.337899	NaN	0.000000	0.001634	0.001647	28.1125	5.210955	0.001789	2912.17	15.973	-169.336	8.290912	1.740235	0.056608	0.056275	8.337899	2912.17	0.054461	0.106698	78.1449	8145.39
1.000000	2.000000	1.743484	7.36506e+06	-38689.1	955.822	-29796.6	0.000000	0.000000	7.743442	9.498563	NaN	0.000000	0.001636	0.001647	28.083	6.400357	0.001912	3347.75	18.2407	-172.554	9.459388	1.743190	0.059524	0.059230	9.498563	3347.75	0.057396	0.116637	81.4369	8955.88
1.000000	2.000000	1.746450	7.36506e+06	-38689.1	955.822	-29796.6	0.000000	0.000000	7.746423	9.868853	NaN	0.000000	0.001581	0.001629	28.1119	6.756746	0.001893	3568.81	15.5433	-170.229	10.0615	1.746182	0.062491	0.062222	9.868853	3568.81	0.060417	0.127306	77.5205	9138.43
1.000000	2.000000	1.749439	7.36506e+06	-38689.1	955.822	-29796.6	0.000000	0.000000	7.749457	10.9577	NaN	0.000000	0.001547	0.001652	28.0818	7.729465	0.001933	3998.99	17.9132	-172.345	11.0911	1.749218	0.065480	0.065259	10.9577	3998.99	0.063425	0.138374	79.1889	9821.92
1.000000	2.000000	1.752437	7.36506e+06	-38689.1	955.822	-29796.6	0.000000	0.000000	7.752507	12.226	NaN	0.000000	0.001582	0.001648	28.1128	8.811624	0.001898	4641.48	17.728	-173.361	12.0682	1.752138	0.068477	0.068178	12.226	4641.48	0.066502	0.150149	81.4261	10943.8
1.000000	2.000000	1.755413	7.36506e+06	-38689.1	955.823	-29796.6	0.000000	0.000000	7.755513	12.9729	NaN	0.000000	0.001596	0.001670	28.0828	10.0506	0.002014	4990.62	18.1929	-173.799	12.8	1.755057	0.071453	0.071098	12.9729	4990.62	0.069503	0.162074	80.0428	11325.9
1.000000	2.000000	1.758420	7.36506e+06	-38689.1	955.823	-29796.6	0.000000	0.000000	7.758513	12.7733	NaN	0.000000	0.001577	0.001657	28.1135	10.4809	0.001959	5351.17	12.7244	-169.703	12.9126	1.758069	0.074461	0.074110	12.7733	5351.17	0.072671	0.175121	72.9397	11683
1.000000	2.000000	1.761407	7.36506e+06	-38689.1	955.823	-29796.6	0.000000	0.000000	7.761521	13.302	NaN	0.000000	0.001604	0.001681	28.0836	11.8449	0.001938	6110.84	13.6904	-173.308	13.4921	1.761146	0.077447	0.077187	13.302	6110.84	0.075814	0.188542	70.5522	12857.9
1.000000	2.000000	1.764374	7.36506e+06	-38689.1	955.823	-29796.6	0.000000	0.000000	7.764575	15.4114	NaN	0.000000	0.001588	0.001678	28.1152	13.363	0.001917	6971.22	15.2558	-175.595	14.9326	1.764108	0.080414	0.080148	15.4114	6971.22	0.078756	0.201520	76.4758	14188.1
1.000000	2.000000	1.767378	7.36506e+06	-38689.1	955.822	-29796.6	0.000000	0.000000	7.767708	18.549	NaN	0.000000	0.001625	0.001656	28.0835	14.8621	0.001674	8877.94	13.3112	-177.229	17.9741	1.767007	0.083418	0.083047	18.549	8877.94	0.081851	0.215611	86.0298	17468.3
1.000000	2.000000	1.770378	7.36506e+06	-38689.1	955.824	-29796.6	0.000000	0.000000	7.770887	22.918	NaN	0.000000	0.001603	0.001663	28.1144	16.5909	0.001803	9201.91	9.496987	-173.588	22.6265	1.770042	0.086418	0.086082	22.918	9201.91	0.084550	0.228262	100.402	17596.8
1.000000	2.000000	1.773398	7.36506e+06	-38689.1	955.823	-29796.6	0.000000	0.000000	7.773985	24.8126	NaN	0.000000	0.001628	0.001662	28.0838	18.7094	0.001886	9922.14	11.5153	-176.421	25.8277	1.773049	0.089439	0.089089	24.8126	9922.14	0.087563	0.242780	102.202	18398.1
1.000000	2.000000	1.776375	7.36506e+06	-38689.1	955.822	-29796.6	0.000000	0.000000	7.777184	30.2003	NaN	0.000000	0.001614	0.001630	28.115	21.359	0.001838	11622.7	11.7374	-178.942	29.1259	1.776070	0.092416	0.092111	30.2003	11622.7	0.090467	0.257169	117.434	20939.7
1.000000	2.000000	1.779326	7.36506e+06	-38689.1	955.824	-29796.6	0.000000	0.000000	7.780464	38.2192	NaN	0.000000	0.001655	0.001630	28.0848	23.892	0.001781	13414.9	8.027786	-176.63	36.0287	1.778939	0.095367	0.094980	38.2192	13414.9	0.093230	0.271221	140.916	23534.1
1.000000	2.000000	1.782363	7.36506e+06	-38689.1	955.823	-29796.6	0.000000	0.000000	7.783790	45.2457	NaN	0.000000	0.001655	0.001652	28.1162	26.3369	0.001708	15420.3	8.529720	-179.811	45.319	1.782030	0.098404	0.098070	45.2457	15420.3	0.096203	0.286728	157.8	26310.6
1.000000	2.000000	1.785398	7.36506e+06	-38689.1	955.824	-29796.6	0.000000	0.000000	7.787231	55.1237	NaN	0.000000	0.001636	0.001644	28.0833	29.2089	0.001758	16612	5.748186	-178.033	55.3322	1.785003	0.101439	0.101043	55.1237	16612	0.098950	0.301414	182.884	27644.7
1.000000	2.000000	1.788386	7.36506e+06	-38689.1	955.824	-29796.6	0.000000	0.000000	7.790695	66.7195	NaN	0.000000	0.001608	0.001578	28.1144	32.2309	0.001870	17232.8	7.119393	-179.681	66.2716	1.788034	0.104426	0.104075	66.7195	17232.8	0.101523	0.315480	211.486	28031.3
1.000000	2.000000	1.791375	7.36506e+06	-38689.1	955.824	-29796.6	0.000000	0.000000	7.794270	80.9881	NaN	0.000000	0.001642	0.001589	28.0828	34.5716	0.001771	19525.7	5.725271	-179.812	80.5204	1.791047	0.107415	0.107087	80.9881	19525.7	0.104304	0.331027	244.657	31006.2
1.000000	2.000000	1.794366	7.36506e+06	-38689.1	955.823	-29796.6	0.000000	0.000000	7.797813	94.4229	NaN	0.000000	0.001653	0.001606	28.1141	37.1501	0.001825	20357.7	9.902434	175.161	92.6489	1.793971	0.110406	0.110011	94.4229	20357.7	0.106928	0.346011	272.89	31619.7
1.000000	2.000000	1.797282	7.36506e+06	-38689.1	955.824	-29796.6	0.000000	0.000000	7.801268	107.532	NaN	0.000000	0.001644	0.001562	28.0844	38.9891	0.001727	22573.1	4.226923	179.605	104.611	1.797006	0.113323	0.113047	107.532	22573.1	0.109750	0.362479	296.655	34254.9
1.000000	2.000000	1.800310	7.36506e+06	-38689.1	955.824	-29796.6	0.000000	0.000000	7.805030	125.379	NaN	0.000000	0.001686	0.001623	28.1144	41.913	0.001802	23265	5.740786	177.614	123.672	1.800025	0.116351	0.116065	125.379	23265	0.112309	0.377725	331.932	34585
1.000000	2.000000	1.803310	7.36506e+06	-38689.1	955.825	-29796.6	0.000000	0.000000	7.808534	137.652	NaN	0.000000	0.001647	0.001601	28.0814	44.2455	0.001763	25097.1	5.669119	177.161	137.013	1.803050	0.119350	0.119090	137.652	25097.1	0.115237	0.395531	348.019	36459.2
1.000000	2.000000	1.806307	7.36506e+06	-38689.1	955.825	-29796.6	0.000000	0.000000	7.812390	158.58	NaN	0.000000	0.001687	0.001644	28.1134	47.0101	0.001893	24831.4	6.384332	177.058	156.651	1.805945	0.122347	0.121985	158.58	24831.4	0.117557	0.409919	386.856	35434.5
1.000000	2.000000	1.809257	7.36506e+06	-38689.1	955.824	-29796.6	0.000000	0.000000	7.816117	177.463	NaN	0.000000	0.001641	0.001623	28.0801	49.1873	0.001863	26409.1	6.039199	176.406	175.231	1.808980	0.125298	0.125021	177.463	26409.1	0.120258	0.426972	415.631	36925.5
1.000000	2.000000	1.812316	7.36506e+06	-38689.1	955.824	-29796.6	0.000000	0.000000	7.819856	194.017	NaN	0.000000	0.001642	0.001632	28.1136	51.5688	0.001972	26148.6	3.981393	178.71	193.797	1.812013	0.128356	0.128053	194.017	26148.6	0.122792	0.443272	437.693	35882.8
1.000000	2.000000	1.815293	7.36506e+06	-38689.1	955.823	-29796.6	0.000000	0.000000	7.823559	211.678	NaN	0.000000	0.001627	0.001606	28.0827	52.8957	0.001824	28996.8	5.926857	175.516	209.38	1.814991	0.131334	0.131032	211.678	28996.8	0.125859	0.463396	456.798	38917.7
1.000000	2.000000	1.818302	7.36506e+06	-38689.1	955.824	-29796.6	0.000000	0.000000	7.827680	238.745	NaN	0.000000	0.001600	0.001641	28.1146	54.8555	0.001784	30743.3	3.156137	178.068	237.145	1.817955	0.134343	0.133996	238.745	30743.3	0.128518	0.481192	496.153	40491.6
1.000000	2.000000	1.821362	7.36506e+06	-38689.1	955.823	-29796.6	0.000000	0.000000	7.831465	256.403	NaN	0.000000	0.001638	0.001649	28.0832	57.5132	0.001790	32136.2	7.096378	173.508	256.99	1.821026	0.137402	0.137067	256.403	32136.2	0.131418	0.500963	511.82	41482.5
1.000000	2.000000	1.824224	7.36506e+06	-38689.1	955.824	-29796.6	0.000000	0.000000	7.835271	279.344	NaN	0.000000	0.001658	0.001668	28.1143	58.7973	0.001707	34448.3	8.477807	171.394	274.279	1.823956	0.140265	0.139997	279.344	34448.3	0.134183	0.520172	537.023	43638.3
1.000000	2.000000	1.827244	7.36506e+06	-38689.1	955.822	-29796.6	0.000000	0.000000	7.839466	307.945	NaN	0.000000	0.001661	0.001636	28.0823	61.4986	0.001735	35454	7.810738	171.624	303.598	1.826889	0.143285	0.142929	307.945	35454	0.136770	0.538467	571.892	44142.7
1.000000	2.000000	1.830284	7.36506e+06	-38689.1	955.823	-29796.6	0.000000	0.000000	7.843509	332.365	NaN	0.000000	0.001614	0.001658	28.1157	63.0916	0.001789	35274.9	3.207248	176.498	331.816	1.829971	0.146325	0.146011	332.365	35274.9	0.139258	0.556344	597.409	43208.3
1.000000	2.000000	1.833346	7.36506e+06	-38689.1	955.823	-29796.6	0.000000	0.000000	7.847249	348.86	NaN	0.000000	0.001609	0.001641	28.0817	65.5397	0.001767	37097.5	4.262594	175.191	351.189	1.833032	0.149386	0.149072	348.86	37097.5	0.142334	0.578843	602.685	44549
1.000000	2.000000	1.836266	7.36506e+06	-38689.1	955.824	-29796.6	0.000000	0.000000	7.851084	371.147	NaN	0.000000	0.001641	0.001721	28.1171	68.1783	0.001867	36527.3	4.381311	175.328	368.3	1.835910	0.152306	0.151950	371.147	36527.3	0.144686	0.596344	622.371	43215.8
1.000000	2.000000	1.837740	7.36506e+06	-38689.1	955.825	-29796.6	0.000000	0.000000	7.853206	386.917	NaN	0.000000	0.001613	0.001657	28.1226	68.5972	0.001821	37665	3.079735	-3.797717	381.226	1.837340	0.153780	0.153381	386.917	37665	0.146076	0.606807	637.629	44175.9