File: remote_trans/data/nanoindenter/0828-1/data/Data_2025-08-06,11h17m57s/2025-07-22_16-23-58_1_1106.txt
2025-07-22, 16:23:58, 1
Index	Phase	Displacement	Time	Pos X	Pos Y	Pos Z	Rot A	Rot B	Piezo Z	Force A	Force B	Gripper	Voltage A	Voltage B	Temperature	Amplitude force	Amplitude pos	Stiffness	Phase shift	Phase excitation	Force A raw	Displacement raw	HMax	HMax raw	Real Force	Real Stiffness	Contact Depth	Area	Hardness	Reduced Mod.
[#]	[#]	[um]	[s]	[um]	[um]	[um]	[m°]	[m°]	[um]	[uN]	[uN]	[V]	[V]	[V]	[°C]	[uN]	[um]	[N/m]	[°]	[°]	[uN]	[um]	[um]	[um]	[uN]	[N/m]	[um]	[um^2]	[MPa]	[MPa]
1106	1.000000	0.002013	7.37587e+06	-55439.1	1055.82	-29741.6	0.000000	0.000000	6.002798	0.060287	NaN	0.000000	0.001634	0.001706	28.082	0.141498	0.000886	159.781	45.8882	-164.425	-0.025260	0.000731	-1.005035	-1.006317	0.060287	159.781	-1.005318	-2.675210E+13	-2.253546E-15	NaN
1106	1.000000	0.009947	7.37587e+06	-55439.1	1055.82	-29741.6	0.000000	0.000000	6.010728	-0.058027	NaN	0.000000	0.001602	0.001674	28.0817	0.027042	0.001107	24.4211	101.638	-169.494	-0.049962	0.008694	-0.997101	-0.998353	-0.058027	24.4211	-0.995319	-1.962164E+13	2.957310E-15	NaN
1106	1.000000	0.017984	7.37587e+06	-55439.1	1055.82	-29741.6	0.000000	0.000000	6.018770	0.070043	NaN	0.000000	0.001509	0.001727	28.0816	0.059337	0.001724	34.4216	80.1084	-163.829	0.069320	0.016654	-0.989064	-0.990393	0.070043	34.4216	-0.990590	-1.694559E+13	-4.133407E-15	NaN
1106	1.000000	0.025971	7.37587e+06	-55439.1	1055.82	-29741.6	0.000000	0.000000	6.026752	-0.038064	NaN	0.000000	0.001523	0.001668	28.0817	0.107974	0.001883	57.3329	120.028	-164.355	-0.004233	0.024633	-0.981077	-0.982415	-0.038064	57.3329	-0.980579	-1.242247E+13	3.064090E-15	NaN
1106	1.000000	0.033955	7.37587e+06	-55439.1	1055.82	-29741.6	0.000000	0.000000	6.034738	0.001420	NaN	0.000000	0.001497	0.001666	28.0829	0.018632	0.001967	9.471844	-178.255	-162.882	0.077863	0.032631	-0.973093	-0.974417	0.001420	9.471844	-0.973205	-9.882350E+12	-1.437005E-16	NaN
1106	1.000000	0.041973	7.37587e+06	-55439.1	1055.82	-29741.6	0.000000	0.000000	6.042757	0.012590	NaN	0.000000	0.001507	0.001704	28.0834	0.091555	0.001896	48.284	157.643	-164.816	-0.046315	0.040625	-0.965074	-0.966423	0.012590	48.284	-0.965270	-7.725211E+12	-1.629674E-15	NaN
1106	1.000000	0.049959	7.37587e+06	-55439.1	1055.82	-29741.6	0.000000	0.000000	6.050741	-0.022573	NaN	0.000000	0.001514	0.001672	28.0827	0.077492	0.002068	37.4789	-27.9958	-163.435	-0.057351	0.048671	-0.957088	-0.958377	-0.022573	37.4789	-0.956637	-5.909141E+12	3.820001E-15	NaN
1106	1.000000	0.057947	7.37587e+06	-55439.1	1055.82	-29741.6	0.000000	0.000000	6.058730	-0.008751	NaN	0.000000	0.001493	0.001657	28.083	0.085959	0.001956	43.9489	-157.652	-167.998	0.019553	0.056679	-0.949100	-0.950368	-0.008751	43.9489	-0.948951	-4.654541E+12	1.880032E-15	NaN
1106	1.000000	0.065971	7.37587e+06	-55439.1	1055.82	-29741.6	0.000000	0.000000	6.066752	-0.057130	NaN	0.000000	0.001489	0.001682	28.0827	0.085510	0.001972	43.3538	-32.4683	-165.812	0.036684	0.064633	-0.941077	-0.942414	-0.057130	43.3538	-0.940088	-3.534500E+12	1.616347E-14	NaN
1106	1.000000	0.073994	7.37587e+06	-55439.1	1055.82	-29741.6	0.000000	0.000000	6.074774	-0.061367	NaN	0.000000	0.001504	0.001675	28.0829	0.102006	0.002183	46.7249	94.3291	-161.93	-0.032799	0.072657	-0.933054	-0.934390	-0.061367	46.7249	-0.932069	-2.754959E+12	2.227520E-14	NaN
1106	1.000000	0.081967	7.37587e+06	-55439.1	1055.82	-29741.6	0.000000	0.000000	6.082750	0.018283	NaN	0.000000	0.001489	0.001694	28.083	0.037848	0.001884	20.0936	-58.8648	-164.17	0.125959	0.080673	-0.925081	-0.926374	0.018283	20.0936	-0.925763	-2.264714E+12	-8.073184E-15	NaN
1106	1.000000	0.089975	7.37587e+06	-55439.1	1055.82	-29741.6	0.000000	0.000000	6.090760	0.042134	NaN	0.000000	0.001523	0.001643	28.0828	0.085502	0.001908	44.8058	-127.983	-165.201	0.063208	0.088663	-0.917072	-0.918384	0.042134	44.8058	-0.917778	-1.766854E+12	-2.384664E-14	NaN
1106	1.000000	0.097981	7.37587e+06	-55439.1	1055.82	-29741.6	0.000000	0.000000	6.098767	0.063463	NaN	0.000000	0.001526	0.001643	28.0832	0.145289	0.001931	75.2464	102.917	-163.341	0.026375	0.096658	-0.909067	-0.910390	0.063463	75.2464	-0.909699	-1.374352E+12	-4.617664E-14	NaN
1106	1.000000	0.106015	7.37587e+06	-55439.1	1055.82	-29741.6	0.000000	0.000000	6.106795	-0.067772	NaN	0.000000	0.001533	0.001620	28.0829	0.062688	0.001921	32.6259	-156.504	-166.645	-0.056804	0.104647	-0.901033	-0.902400	-0.067772	32.6259	-0.899475	-9.999349E+11	6.777657E-14	NaN
1106	1.000000	0.114015	7.37587e+06	-55439.1	1055.82	-29741.6	0.000000	0.000000	6.114796	-0.044268	NaN	0.000000	0.001575	0.001649	28.0829	0.114631	0.002135	53.6932	-152.448	-164.472	0.109302	0.112694	-0.893033	-0.894354	-0.044268	53.6932	-0.892414	-8.026930E+11	5.514943E-14	NaN
1106	1.000000	0.121947	7.37587e+06	-55439.1	1055.82	-29741.6	0.000000	0.000000	6.122729	-0.047351	NaN	0.000000	0.001552	0.001665	28.0828	0.091255	0.001856	49.1688	39.3214	-165.459	-0.103013	0.120686	-0.885100	-0.886361	-0.047351	49.1688	-0.884378	-6.250385E+11	7.575632E-14	NaN
1106	1.000000	0.129987	7.37587e+06	-55439.1	1055.82	-29741.6	0.000000	0.000000	6.130770	-0.005223	NaN	0.000000	0.001556	0.001659	28.0827	0.104902	0.001937	54.1709	122.772	-167.463	-0.008409	0.128703	-0.877060	-0.878345	-0.005223	54.1709	-0.876988	-4.965629E+11	1.051759E-14	NaN
1106	1.000000	0.137992	7.37587e+06	-55439.1	1055.82	-29741.6	0.000000	0.000000	6.138775	-0.002677	NaN	0.000000	0.001573	0.001660	28.083	0.051306	0.002073	24.7543	-69.5452	-164.361	-0.017212	0.136669	-0.869056	-0.870378	-0.002677	24.7543	-0.868975	-3.868749E+11	6.919840E-15	NaN
1106	1.000000	0.145996	7.37587e+06	-55439.1	1055.82	-29741.6	0.000000	0.000000	6.146778	-0.025319	NaN	0.000000	0.001588	0.001670	28.0827	0.045622	0.002106	21.6619	-27.4939	-166.783	0.108446	0.144749	-0.861051	-0.862299	-0.025319	21.6619	-0.860175	-2.940932E+11	8.609176E-14	NaN
1106	1.000000	0.153997	7.37587e+06	-55439.1	1055.82	-29741.6	0.000000	0.000000	6.154783	0.061783	NaN	0.000000	0.001572	0.001680	28.0829	0.070752	0.002028	34.884	-125.028	-164.289	0.079476	0.152702	-0.853050	-0.854345	0.061783	34.884	-0.854378	-2.454835E+11	-2.516804E-13	NaN
1106	1.000000	0.162005	7.37587e+06	-55439.1	1055.82	-29741.6	0.000000	0.000000	6.162789	0.012461	NaN	0.000000	0.001593	0.001672	28.0825	0.040391	0.001907	21.1768	77.9641	-168.72	0.001485	0.160683	-0.845042	-0.846365	0.012461	21.1768	-0.845484	-1.860256E+11	-6.698628E-14	NaN
1106	1.000000	0.170020	7.37587e+06	-55439.1	1055.82	-29741.6	0.000000	0.000000	6.170803	0.008971	NaN	0.000000	0.001558	0.001665	28.0813	0.100881	0.001924	52.431	76.8082	-166.727	0.020477	0.168701	-0.837028	-0.838347	0.008971	52.431	-0.837156	-1.434708E+11	-6.253047E-14	NaN
1106	1.000000	0.178008	7.37587e+06	-55439.1	1055.82	-29741.6	0.000000	0.000000	6.178791	-0.009112	NaN	0.000000	0.001611	0.001675	28.0814	0.080244	0.002048	39.1848	61.0268	-163.811	-0.014458	0.176711	-0.829039	-0.830337	-0.009112	39.1848	-0.828865	-1.107637E+11	8.226970E-14	NaN
1106	1.000000	0.186042	7.37587e+06	-55439.1	1055.82	-29741.6	0.000000	0.000000	6.186824	-0.031581	NaN	0.000000	0.001573	0.001661	28.0813	0.015433	0.002036	7.578777	178.657	-167.19	0.011942	0.184759	-0.821005	-0.822289	-0.031581	7.578777	-0.817880	-7.860690E+10	4.017536E-13	NaN
1106	1.000000	0.194024	7.37587e+06	-55439.1	1055.82	-29741.6	0.000000	0.000000	6.194808	0.002429	NaN	0.000000	0.001554	0.001646	28.0816	0.021456	0.002026	10.591	16.8489	-164.405	-0.082143	0.192702	-0.813023	-0.814345	0.002429	10.591	-0.813195	-6.790751E+10	-3.576363E-14	NaN
1106	1.000000	0.202036	7.37587e+06	-55439.1	1055.82	-29741.6	0.000000	0.000000	6.202819	0.000521	NaN	0.000000	0.001578	0.001658	28.0814	0.033131	0.002046	16.1937	-57.4811	-163.615	-0.020479	0.200692	-0.805011	-0.806356	0.000521	16.1937	-0.805035	-5.262659E+10	-9.907357E-15	NaN
1106	1.000000	0.210029	7.37587e+06	-55439.1	1055.82	-29741.6	0.000000	0.000000	6.210812	-0.002639	NaN	0.000000	0.001553	0.001644	28.0817	0.075399	0.002105	35.8205	163.7	-168.22	-0.075320	0.208736	-0.797018	-0.798311	-0.002639	35.8205	-0.796963	-4.089159E+10	6.453436E-14	NaN
1106	1.000000	0.218032	7.37587e+06	-55439.1	1055.82	-29741.6	0.000000	0.000000	6.218815	0.002464	NaN	0.000000	0.001588	0.001685	28.0814	0.031073	0.001838	16.9087	13.6696	-163.761	-0.063825	0.216716	-0.789015	-0.790331	0.002464	16.9087	-0.789125	-3.200320E+10	-7.700657E-14	NaN
1106	1.000000	0.226039	7.37587e+06	-55439.1	1055.82	-29741.6	0.000000	0.000000	6.226825	0.064371	NaN	0.000000	0.001588	0.001643	28.0814	0.084463	0.001958	43.1337	-130.025	-160.961	0.042271	0.224684	-0.781009	-0.782364	0.064371	43.1337	-0.782128	-2.571257E+10	-2.503465E-12	NaN
1106	1.000000	0.233980	7.37587e+06	-55439.1	1055.82	-29741.6	0.000000	0.000000	6.234765	0.027883	NaN	0.000000	0.001557	0.001687	28.0814	0.066985	0.002067	32.4048	12.1191	-164.192	0.019504	0.232687	-0.773067	-0.774361	0.027883	32.4048	-0.773712	-1.975951E+10	-1.411121E-12	NaN
1106	1.000000	0.242046	7.37587e+06	-55439.1	1055.82	-29741.6	0.000000	0.000000	6.242833	0.104004	NaN	0.000000	0.001556	0.001659	28.0817	0.062628	0.002014	31.1029	-64.1326	-167.567	0.083499	0.240772	-0.765002	-0.766275	0.104004	31.1029	-0.767510	-1.627208E+10	-6.391536E-12	NaN
1106	1.000000	0.250063	7.37587e+06	-55439.1	1055.82	-29741.6	0.000000	0.000000	6.250844	-0.032234	NaN	0.000000	0.001540	0.001648	28.0819	0.056902	0.001958	29.0676	110.941	-163.855	-0.029806	0.248752	-0.756985	-0.758295	-0.032234	29.0676	-0.756153	-1.140159E+10	2.827185E-12	NaN
1106	1.000000	0.258039	7.37587e+06	-55439.1	1055.82	-29741.6	0.000000	0.000000	6.258824	0.033912	NaN	0.000000	0.001556	0.001683	28.0813	0.027283	0.002138	12.7589	-65.3594	-164.722	-0.006210	0.256745	-0.749008	-0.750303	0.033912	12.7589	-0.751002	-9.701911E+9	-3.495427E-12	NaN
1106	1.000000	0.266051	7.37587e+06	-55439.1	1055.82	-29741.6	0.000000	0.000000	6.266832	-0.041729	NaN	0.000000	0.001614	0.001678	28.0814	0.055778	0.002063	27.0386	-42.3427	-166.707	0.066006	0.264734	-0.740997	-0.742314	-0.041729	27.0386	-0.739839	-6.837056E+9	6.103349E-12	NaN
1106	1.000000	0.274068	7.37587e+06	-55439.1	1055.82	-29741.6	0.000000	0.000000	6.274851	0.003077	NaN	0.000000	0.001550	0.001685	28.0814	0.043624	0.001907	22.8791	64.535	-161.959	0.023918	0.272765	-0.732980	-0.734282	0.003077	22.8791	-0.733080	-5.530789E+9	-5.562867E-13	NaN
1106	1.000000	0.282067	7.37587e+06	-55439.1	1055.82	-29741.6	0.000000	0.000000	6.282851	0.003044	NaN	0.000000	0.001581	0.001681	28.0814	0.064275	0.002135	30.1044	81.3726	-159.896	0.030793	0.280730	-0.724980	-0.726318	0.003044	30.1044	-0.725056	-4.299479E+9	-7.079828E-13	NaN
1106	1.000000	0.290069	7.37587e+06	-55439.1	1055.82	-29741.6	0.000000	0.000000	6.290850	-0.054943	NaN	0.000000	0.001582	0.001687	28.0816	0.039824	0.002029	19.627	-106.587	-167.647	-0.008749	0.288753	-0.716978	-0.718295	-0.054943	19.627	-0.714879	-3.123350E+9	1.759108E-11	NaN
1106	1.000000	0.298052	7.37587e+06	-55439.1	1055.82	-29741.6	0.000000	0.000000	6.298833	-0.051292	NaN	0.000000	0.001575	0.001691	28.0812	0.087689	0.002082	42.1262	112.854	-167.601	-0.049232	0.296724	-0.708996	-0.710323	-0.051292	42.1262	-0.708082	-2.522764E+9	2.033172E-11	NaN
1106	1.000000	0.306054	7.37587e+06	-55439.1	1055.82	-29741.6	0.000000	0.000000	6.306837	-0.005669	NaN	0.000000	0.001594	0.001708	28.0827	0.058083	0.002002	29.0158	-179.243	-164.396	-0.035248	0.304735	-0.700993	-0.702313	-0.005669	29.0158	-0.700847	-2.009541E+9	2.821069E-12	NaN
1106	1.000000	0.314064	7.37587e+06	-55439.1	1055.82	-29741.6	0.000000	0.000000	6.314848	0.011670	NaN	0.000000	0.001612	0.001687	28.0827	0.035105	0.002009	17.4737	-20.0438	-165.724	-0.042817	0.312774	-0.692984	-0.694274	0.011670	17.4737	-0.693484	-1.594157E+9	-7.320323E-12	NaN
1106	1.000000	0.322092	7.37587e+06	-55439.1	1055.82	-29741.6	0.000000	0.000000	6.322876	0.024314	NaN	0.000000	0.001603	0.001668	28.0826	0.030269	0.001996	15.1635	31.659	-166.919	-0.054905	0.320726	-0.684956	-0.686322	0.024314	15.1635	-0.686158	-1.265928E+9	-1.920607E-11	NaN
1106	1.000000	0.330087	7.37587e+06	-55439.1	1055.82	-29741.6	0.000000	0.000000	6.330869	-0.025504	NaN	0.000000	0.001607	0.001666	28.0827	0.034585	0.002038	16.9677	-158.242	-166.937	0.125113	0.328820	-0.676961	-0.678228	-0.025504	16.9677	-0.675833	-9.145560E+8	2.788634E-11	NaN
1106	1.000000	0.338079	7.37587e+06	-55439.1	1055.82	-29741.6	0.000000	0.000000	6.338862	-0.014805	NaN	0.000000	0.001579	0.001698	28.0829	0.055952	0.002093	26.729	-68.6957	-163.837	0.009248	0.336782	-0.668968	-0.670266	-0.014805	26.729	-0.668553	-7.270773E+8	2.036218E-11	NaN
1106	1.000000	0.346086	7.37587e+06	-55439.1	1055.82	-29741.6	0.000000	0.000000	6.346871	0.046739	NaN	0.000000	0.001657	0.001668	28.0831	0.099604	0.001967	50.6345	-159.825	-161.909	-0.000657	0.344786	-0.660961	-0.662262	0.046739	50.6345	-0.661654	-5.849477E+8	-7.990273E-11	NaN
1106	1.000000	0.354073	7.37587e+06	-55439.1	1055.82	-29741.6	0.000000	0.000000	6.354854	-0.046486	NaN	0.000000	0.001675	0.001687	28.0828	0.052857	0.001937	27.2908	-161.235	-165.188	0.007525	0.352808	-0.652975	-0.654239	-0.046486	27.2908	-0.651697	-4.272695E+8	1.087977E-10	NaN
1106	1.000000	0.362081	7.37587e+06	-55439.1	1055.82	-29741.6	0.000000	0.000000	6.362861	-0.062328	NaN	0.000000	0.001661	0.001698	28.0828	0.055828	0.002056	27.1518	162.381	-165.105	0.037756	0.360800	-0.644967	-0.646248	-0.062328	27.1518	-0.643245	-3.271956E+8	1.904912E-10	NaN
1106	1.000000	0.370080	7.37587e+06	-55439.1	1055.82	-29741.6	0.000000	0.000000	6.370864	0.015771	NaN	0.000000	0.001650	0.001688	28.0828	0.062268	0.001948	31.9627	14.904	-164.27	0.040193	0.368733	-0.636967	-0.638315	0.015771	31.9627	-0.637337	-2.714887E+8	-5.808929E-11	NaN
1106	1.000000	0.378114	7.37587e+06	-55439.1	1055.82	-29741.6	0.000000	0.000000	6.378899	0.045756	NaN	0.000000	0.001672	0.001673	28.0828	0.068143	0.001999	34.0959	-137.014	-162.63	0.035936	0.376780	-0.628934	-0.630267	0.045756	34.0959	-0.629940	-2.148821E+8	-2.129360E-10	NaN
1106	1.000000	0.386109	7.37587e+06	-55439.1	1055.82	-29741.6	0.000000	0.000000	6.386891	-0.005334	NaN	0.000000	0.001669	0.001677	28.0832	0.057207	0.002112	27.0821	77.3838	-166.264	0.034808	0.384754	-0.620939	-0.622294	-0.005334	27.0821	-0.620791	-1.608828E+8	3.315427E-11	NaN
1106	1.000000	0.394095	7.37587e+06	-55439.1	1055.82	-29741.6	0.000000	0.000000	6.394875	-0.064893	NaN	0.000000	0.001701	0.001685	28.0829	0.046261	0.001935	23.902	139.012	-166.615	0.014394	0.392792	-0.612953	-0.614255	-0.064893	23.902	-0.610916	-1.176856E+8	5.514088E-10	NaN
1106	1.000000	0.402116	7.37587e+06	-55439.1	1055.82	-29741.6	0.000000	0.000000	6.402898	-0.020823	NaN	0.000000	0.001678	0.001717	28.083	0.028727	0.002016	14.2491	40.1441	-168.603	-0.046985	0.400863	-0.604931	-0.606185	-0.020823	14.2491	-0.603835	-9.403153E+7	2.214468E-10	NaN
1106	1.000000	0.410098	7.37587e+06	-55439.1	1055.82	-29741.6	0.000000	0.000000	6.410879	-0.036540	NaN	0.000000	0.001671	0.001703	28.0828	0.103815	0.001978	52.4758	-145.118	-164.895	0.006886	0.408785	-0.596950	-0.598262	-0.036540	52.4758	-0.596428	-7.434492E+7	4.914909E-10	NaN
1106	1.000000	0.418134	7.37587e+06	-55439.1	1055.82	-29741.6	0.000000	0.000000	6.418914	-0.075036	NaN	0.000000	0.001627	0.001711	28.0828	0.097130	0.002028	47.8905	-38.658	-165.251	0.001030	0.416759	-0.588914	-0.590288	-0.075036	47.8905	-0.587739	-5.642719E+7	1.329788E-9	NaN
1106	1.000000	0.426135	7.37587e+06	-55439.1	1055.82	-29741.6	0.000000	0.000000	6.426917	-0.035673	NaN	0.000000	0.001652	0.001714	28.0829	0.009949	0.001987	5.006191	-80.085	-166.235	0.024731	0.424823	-0.580912	-0.582225	-0.035673	5.006191	-0.575568	-3.833011E+7	9.306775E-10	NaN
1106	1.000000	0.434147	7.37587e+06	-55439.1	1055.82	-29741.6	0.000000	0.000000	6.434930	0.007484	NaN	0.000000	0.001653	0.001677	28.0829	0.018323	0.001923	9.528279	-57.4887	-165.702	0.012636	0.432844	-0.572901	-0.574203	0.007484	9.528279	-0.573490	-3.587937E+7	-2.085954E-10	NaN
1106	1.000000	0.442124	7.37587e+06	-55439.1	1055.82	-29741.6	0.000000	0.000000	6.442907	-0.008709	NaN	0.000000	0.001628	0.001702	28.0819	0.023826	0.001960	12.158	67.071	-166.285	-0.027732	0.440777	-0.564924	-0.566270	-0.008709	12.158	-0.564386	-2.685603E+7	3.242968E-10	NaN
1106	1.000000	0.450152	7.37587e+06	-55439.1	1055.82	-29741.6	0.000000	0.000000	6.450935	0.011762	NaN	0.000000	0.001629	0.001716	28.0812	0.018058	0.001988	9.084774	-54.834	-162.643	0.079533	0.448836	-0.556896	-0.558211	0.011762	9.084774	-0.557867	-2.182035E+7	-5.390319E-10	NaN
1106	1.000000	0.458122	7.37587e+06	-55439.1	1055.82	-29741.6	0.000000	0.000000	6.458904	-0.036041	NaN	0.000000	0.001674	0.001701	28.0819	0.054731	0.002050	26.7005	122.195	-165.003	-0.018683	0.456874	-0.548925	-0.550173	-0.036041	26.7005	-0.547913	-1.588714E+7	2.268572E-9	NaN
1106	1.000000	0.466127	7.37587e+06	-55439.1	1055.82	-29741.6	0.000000	0.000000	6.466911	0.000254	NaN	0.000000	0.001626	0.001695	28.0816	0.040886	0.001909	21.4231	159.792	-166.317	0.017263	0.464823	-0.540920	-0.542225	0.000254	21.4231	-0.540929	-1.271279E+7	-2.000277E-11	NaN
1106	1.000000	0.474135	7.37587e+06	-55439.1	1055.82	-29741.6	0.000000	0.000000	6.474918	0.011431	NaN	0.000000	0.001667	0.001705	28.0817	0.043030	0.001967	21.8769	10.0687	-165.314	0.053307	0.472825	-0.532913	-0.534222	0.011431	21.8769	-0.533305	-9.96466e+06	-1.147135E-9	NaN
1106	1.000000	0.482131	7.37587e+06	-55439.1	1055.82	-29741.6	0.000000	0.000000	6.482913	-0.015625	NaN	0.000000	0.001669	0.001719	28.0818	0.118401	0.001982	59.7499	86.5203	-164.67	0.078851	0.480878	-0.524917	-0.526169	-0.015625	59.7499	-0.524720	-7.57228e+06	2.063385E-9	NaN
1106	1.000000	0.490149	7.37587e+06	-55439.1	1055.82	-29741.6	0.000000	0.000000	6.490932	-0.002164	NaN	0.000000	0.001663	0.001721	28.0816	0.099045	0.002041	48.5272	49.3004	-165.667	-0.035804	0.488866	-0.516898	-0.518182	-0.002164	48.5272	-0.516865	-5.88824e+06	3.675851E-10	NaN
1106	1.000000	0.498156	7.37587e+06	-55439.1	1055.82	-29741.6	0.000000	0.000000	6.498939	0.014202	NaN	0.000000	0.001696	0.001742	28.0818	0.088751	0.002082	42.6357	-31.7054	-166.74	0.058209	0.496895	-0.508892	-0.510152	0.014202	42.6357	-0.509142	-4.59684e+06	-3.089464E-9	NaN
1106	1.000000	0.506147	7.37587e+06	-55439.1	1055.82	-29741.6	0.000000	0.000000	6.506930	0.007004	NaN	0.000000	0.001677	0.001668	28.0816	0.092555	0.001991	46.4782	-114.902	-164.38	0.052128	0.504853	-0.500901	-0.502195	0.007004	46.4782	-0.501014	-3.5413e+06	-1.977753E-9	NaN
1106	1.000000	0.514157	7.37587e+06	-55439.1	1055.82	-29741.6	0.000000	0.000000	6.514939	-0.025778	NaN	0.000000	0.001608	0.001676	28.0818	0.105564	0.001971	53.5619	-176.719	-165.628	-0.036286	0.512915	-0.492891	-0.494133	-0.025778	53.5619	-0.492530	-2.69613e+06	9.561283E-9	NaN
1106	1.000000	0.522161	7.37587e+06	-55439.1	1055.82	-29741.6	0.000000	0.000000	6.522945	0.029522	NaN	0.000000	0.001551	0.001677	28.0818	0.025451	0.002062	12.3436	-60.1398	-167.018	-0.017296	0.520849	-0.484886	-0.486199	0.029522	12.3436	-0.486680	-2.23351e+06	-1.321755E-8	NaN
1106	1.000000	0.530157	7.37587e+06	-55439.1	1055.82	-29741.6	0.000000	0.000000	6.530941	0.019162	NaN	0.000000	0.001572	0.001680	28.0817	0.054548	0.002055	26.5392	-121.786	-166.635	-0.002865	0.528886	-0.476891	-0.478161	0.019162	26.5392	-0.477432	-1.65796e+06	-1.155783E-8	NaN
1106	1.000000	0.538189	7.37587e+06	-55439.1	1055.82	-29741.6	0.000000	0.000000	6.538974	0.051548	NaN	0.000000	0.001582	0.001685	28.0817	0.040799	0.002251	18.125	24.9576	-167.926	0.041415	0.536872	-0.468858	-0.470175	0.051548	18.125	-0.470991	-1.34682e+06	-3.827416E-8	NaN
1106	1.000000	0.546166	7.37587e+06	-55439.1	1055.82	-29741.6	0.000000	0.000000	6.546948	-0.021262	NaN	0.000000	0.001634	0.001670	28.0819	0.023053	0.001988	11.597	133.138	-162.547	-0.012074	0.544907	-0.460881	-0.462140	-0.021262	11.597	-0.459506	-929137	2.288345E-8	NaN
1106	1.000000	0.554169	7.37587e+06	-55439.1	1055.82	-29741.6	0.000000	0.000000	6.554952	-0.007368	NaN	0.000000	0.001609	0.001641	28.0818	0.088475	0.001955	45.2513	-129.027	-163.845	-0.013948	0.552857	-0.452878	-0.454190	-0.007368	45.2513	-0.452756	-746703	9.866793E-9	NaN
1106	1.000000	0.562182	7.37587e+06	-55439.1	1055.82	-29741.6	0.000000	0.000000	6.562964	-0.041002	NaN	0.000000	0.001618	0.001634	28.0818	0.077168	0.002077	37.1508	174.06	-161.223	-0.066477	0.560854	-0.444865	-0.446194	-0.041002	37.1508	-0.444037	-562758	7.285964E-8	NaN
1106	1.000000	0.570151	7.37587e+06	-55439.1	1055.82	-29741.6	0.000000	0.000000	6.570934	-0.006270	NaN	0.000000	0.001564	0.001607	28.0819	0.063102	0.001924	32.8007	51.7224	-163.899	0.002653	0.568842	-0.436896	-0.438205	-0.006270	32.8007	-0.436753	-444140	1.411718E-8	NaN
1106	1.000000	0.578198	7.37587e+06	-55439.1	1055.82	-29741.6	0.000000	0.000000	6.578981	0.009555	NaN	0.000000	0.001547	0.001685	28.0833	0.082512	0.002000	41.2532	89.193	-161.353	-0.058195	0.576907	-0.428850	-0.430141	0.009555	41.2532	-0.429023	-345337	-2.766967E-8	NaN
1106	1.000000	0.586213	7.37587e+06	-55439.1	1055.82	-29741.6	0.000000	0.000000	6.586995	-0.018476	NaN	0.000000	0.001601	0.001640	28.0828	0.048935	0.002044	23.9437	28.7858	-163.32	-0.055644	0.584857	-0.420835	-0.422191	-0.018476	23.9437	-0.420256	-259447	7.121320E-8	NaN
1106	1.000000	0.594194	7.37587e+06	-55439.1	1055.82	-29741.6	0.000000	0.000000	6.594981	0.085136	NaN	0.000000	0.001544	0.001639	28.0828	0.132984	0.001831	72.6122	158.423	-165.149	0.001681	0.592850	-0.412854	-0.414198	0.085136	72.6122	-0.413733	-209632	-4.061212E-7	NaN
1106	1.000000	0.602177	7.37587e+06	-55439.1	1055.82	-29741.6	0.000000	0.000000	6.602959	-0.028436	NaN	0.000000	0.001566	0.001648	28.0828	0.046446	0.002092	22.1985	158.222	-162.52	-0.121567	0.600896	-0.404871	-0.406152	-0.028436	22.1985	-0.403910	-151957	1.871294E-7	NaN
1106	1.000000	0.610208	7.37587e+06	-55439.1	1055.82	-29741.6	0.000000	0.000000	6.610989	-0.048242	NaN	0.000000	0.001533	0.001707	28.0831	0.098743	0.002135	46.2469	-69.4629	-165.198	0.038717	0.608892	-0.396839	-0.398156	-0.048242	46.2469	-0.396057	-117416	4.108642E-7	NaN
1106	1.000000	0.618199	7.37587e+06	-55439.1	1055.82	-29741.6	0.000000	0.000000	6.618982	0.003392	NaN	0.000000	0.001534	0.001684	28.0831	0.062129	0.001962	31.6626	-146.425	-167.442	-0.019846	0.616872	-0.388848	-0.390176	0.003392	31.6626	-0.388929	-92862.4	-3.652636E-8	NaN
1106	1.000000	0.626208	7.37587e+06	-55439.1	1055.82	-29741.6	0.000000	0.000000	6.626990	-0.022208	NaN	0.000000	0.001571	0.001669	28.0831	0.025532	0.002053	12.4358	-36.0864	-166.73	-0.024431	0.624885	-0.380839	-0.382162	-0.022208	12.4358	-0.379500	-68032.2	3.264316E-7	NaN
1106	1.000000	0.634223	7.37587e+06	-55439.1	1055.82	-29741.6	0.000000	0.000000	6.635006	-0.006238	NaN	0.000000	0.001602	0.001677	28.083	0.080152	0.001965	40.7821	14.398	-165.793	-0.034076	0.632933	-0.372824	-0.374115	-0.006238	40.7821	-0.372710	-54341.5	1.147905E-7	NaN
1106	1.000000	0.642229	7.37587e+06	-55439.1	1055.82	-29741.6	0.000000	0.000000	6.643011	-0.006585	NaN	0.000000	0.001555	0.001707	28.0834	0.071680	0.002045	35.058	-55.462	-163.046	0.102070	0.640867	-0.364819	-0.366180	-0.006585	35.058	-0.364678	-41630.3	1.581797E-7	NaN
1106	1.000000	0.650200	7.37587e+06	-55439.1	1055.82	-29741.6	0.000000	0.000000	6.650983	-0.017183	NaN	0.000000	0.001546	0.001717	28.0832	0.089400	0.002020	44.2471	-122.196	-163.124	-0.066108	0.648933	-0.356847	-0.358114	-0.017183	44.2471	-0.356556	-31770.6	5.408460E-7	NaN
1106	1.000000	0.658233	7.37587e+06	-55439.1	1055.82	-29741.6	0.000000	0.000000	6.659018	0.052584	NaN	0.000000	0.001611	0.001733	28.0827	0.137422	0.002080	66.062	-91.6662	-163.245	0.081756	0.656887	-0.348815	-0.350161	0.052584	66.062	-0.349412	-25030.1	-2.100834E-6	NaN
1106	1.000000	0.666206	7.37587e+06	-55439.1	1055.82	-29741.6	0.000000	0.000000	6.666990	0.021720	NaN	0.000000	0.001572	0.001754	28.0832	0.074471	0.002033	36.6273	144.918	-167.99	-0.019297	0.664963	-0.340841	-0.342085	0.021720	36.6273	-0.341286	-19067.4	-1.139103E-6	NaN
1106	1.000000	0.674242	7.37587e+06	-55439.1	1055.82	-29741.6	0.000000	0.000000	6.675024	-0.035616	NaN	0.000000	0.001603	0.001704	28.0843	0.048311	0.001959	24.6594	176.375	-165.154	-0.001770	0.672944	-0.332805	-0.334104	-0.035616	24.6594	-0.331722	-13824.9	2.576218E-6	NaN
1106	1.000000	0.682220	7.37587e+06	-55439.1	1055.82	-29741.6	0.000000	0.000000	6.683003	-0.011874	NaN	0.000000	0.001603	0.001700	28.0836	0.039367	0.001927	20.4295	104.861	-167.98	-0.020474	0.680941	-0.324827	-0.326107	-0.011874	20.4295	-0.324391	-10794.4	1.099986E-6	NaN
1106	1.000000	0.690245	7.37587e+06	-55439.1	1055.82	-29741.6	0.000000	0.000000	6.691027	-0.031885	NaN	0.000000	0.001593	0.001686	28.0834	0.034958	0.001907	18.3294	7.260433	-165.261	0.020196	0.688912	-0.316803	-0.318135	-0.031885	18.3294	-0.315498	-7985.36	3.992883E-6	NaN
1106	1.000000	0.698237	7.37587e+06	-55439.1	1055.82	-29741.6	0.000000	0.000000	6.699020	0.000803	NaN	0.000000	0.001617	0.001673	28.0831	0.016599	0.001986	8.357392	-72.0565	-166.375	-0.106840	0.696974	-0.308811	-0.310073	0.000803	8.357392	-0.308883	-6375.51	-1.259778E-7	NaN
1106	1.000000	0.706252	7.37587e+06	-55439.1	1055.82	-29741.6	0.000000	0.000000	6.707034	-0.013693	NaN	0.000000	0.001571	0.001668	28.085	0.047786	0.001965	24.3191	8.492073	-164.476	-0.042018	0.704978	-0.300796	-0.302070	-0.013693	24.3191	-0.300374	-4766.47	2.872852E-6	NaN
1106	1.000000	0.714261	7.37587e+06	-55439.1	1055.82	-29741.6	0.000000	0.000000	6.715043	-0.030622	NaN	0.000000	0.001576	0.001713	28.0823	0.154198	0.001999	77.1523	100.617	-162.594	-0.101673	0.712897	-0.292787	-0.294151	-0.030622	77.1523	-0.292489	-3635.46	8.423256E-6	NaN
1106	1.000000	0.722251	7.37587e+06	-55439.1	1055.82	-29741.6	0.000000	0.000000	6.723033	-0.026352	NaN	0.000000	0.001619	0.001679	28.0819	0.073717	0.002004	36.7847	170.801	-161.983	0.012173	0.720907	-0.284797	-0.286141	-0.026352	36.7847	-0.284259	-2736.1	9.631139E-6	NaN
1106	1.000000	0.730245	7.37587e+06	-55439.1	1055.82	-29741.6	0.000000	0.000000	6.731026	-0.041927	NaN	0.000000	0.001583	0.001675	28.0826	0.089390	0.002130	41.9744	148.909	-167.103	0.004687	0.728897	-0.276803	-0.278150	-0.041927	41.9744	-0.276054	-2057.54	2.037716E-5	NaN
1106	1.000000	0.738262	7.37587e+06	-55439.1	1055.82	-29741.6	0.000000	0.000000	6.739045	-0.006879	NaN	0.000000	0.001617	0.001674	28.0816	0.130851	0.002017	64.8767	178.72	-166.542	-0.002623	0.736864	-0.268786	-0.270184	-0.006879	64.8767	-0.268706	-1591.73	4.321640E-6	NaN
1106	1.000000	0.746271	7.37587e+06	-55439.1	1055.82	-29741.6	0.000000	0.000000	6.747057	0.060731	NaN	0.000000	0.001595	0.001688	28.0817	0.193465	0.002067	93.6002	131.866	-162.514	0.015465	0.744963	-0.260776	-0.262085	0.060731	93.6002	-0.261263	-1225.35	-4.956197E-5	NaN
1106	1.000000	0.754265	7.37587e+06	-55439.1	1055.82	-29741.6	0.000000	0.000000	6.755048	-0.004551	NaN	0.000000	0.001586	0.001706	28.0816	0.109316	0.002116	51.6505	-45.5934	-165.352	0.024303	0.752996	-0.252782	-0.254052	-0.004551	51.6505	-0.252716	-905.562	5.025985E-6	NaN
1106	1.000000	0.762243	7.37587e+06	-55439.1	1055.82	-29741.6	0.000000	0.000000	6.763025	-0.033270	NaN	0.000000	0.001590	0.001656	28.0817	0.116395	0.002021	57.5828	-139.604	-164.574	0.028165	0.760996	-0.244804	-0.246051	-0.033270	57.5828	-0.244371	-672.47	4.947463E-5	NaN
1106	1.000000	0.770254	7.37587e+06	-55439.1	1055.82	-29741.6	0.000000	0.000000	6.771035	-0.050256	NaN	0.000000	0.001604	0.001695	28.0819	0.042550	0.002009	21.1784	-114.307	-163.731	-0.062049	0.769000	-0.236794	-0.238048	-0.050256	21.1784	-0.235014	-480.254	0.000105	NaN
1106	1.000000	0.778260	7.37587e+06	-55439.1	1055.82	-29741.6	0.000000	0.000000	6.779040	-0.064646	NaN	0.000000	0.001601	0.001692	28.0816	0.098405	0.001998	49.2458	-143.108	-165.399	-0.068856	0.776973	-0.228788	-0.230075	-0.064646	49.2458	-0.227803	-369.646	0.000175	NaN
1106	1.000000	0.786269	7.37587e+06	-55439.1	1055.82	-29741.6	0.000000	0.000000	6.787053	0.028381	NaN	0.000000	0.001621	0.001677	28.0821	0.060294	0.001946	30.9785	33.4536	-164.686	0.026195	0.784943	-0.220779	-0.222104	0.028381	30.9785	-0.221466	-293.142	-9.681807E-5	NaN
1106	1.000000	0.794281	7.37587e+06	-55439.1	1055.82	-29741.6	0.000000	0.000000	6.795061	-0.059322	NaN	0.000000	0.001569	0.001648	28.0817	0.059299	0.001922	30.8449	65.4008	-165.298	0.024221	0.792990	-0.212767	-0.214058	-0.059322	30.8449	-0.211324	-201.487	0.000294	NaN
1106	1.000000	0.802300	7.37587e+06	-55439.1	1055.82	-29741.6	0.000000	0.000000	6.803082	-0.016727	NaN	0.000000	0.001621	0.001651	28.0819	0.028467	0.002030	14.0218	19.6791	-162.95	0.008553	0.801005	-0.204748	-0.206043	-0.016727	14.0218	-0.203853	-152.347	0.000110	NaN
1106	1.000000	0.810281	7.37587e+06	-55439.1	1055.82	-29741.6	0.000000	0.000000	6.811063	-0.016905	NaN	0.000000	0.001597	0.001662	28.0817	0.044676	0.001863	23.982	118.233	-164.646	-0.025053	0.808993	-0.196767	-0.198054	-0.016905	23.982	-0.196238	-114.207	0.000148	NaN
1106	1.000000	0.818284	7.37587e+06	-55439.1	1055.82	-29741.6	0.000000	0.000000	6.819070	0.046922	NaN	0.000000	0.001581	0.001679	28.0818	0.067013	0.001863	35.9693	101.224	-163.058	0.002822	0.816965	-0.188763	-0.190083	0.046922	35.9693	-0.189741	-89.0651	-0.000527	NaN
1106	1.000000	0.826270	7.37587e+06	-55439.1	1055.82	-29741.6	0.000000	0.000000	6.827054	0.003796	NaN	0.000000	0.001541	0.001650	28.082	0.057676	0.001919	30.0489	-33.3809	-162.974	-0.018485	0.824964	-0.180777	-0.182084	0.003796	30.0489	-0.180872	-63.1375	-6.013013E-5	NaN
1106	1.000000	0.834300	7.37587e+06	-55439.1	1055.82	-29741.6	0.000000	0.000000	6.835086	0.066743	NaN	0.000000	0.001557	0.001615	28.0815	0.085702	0.002054	41.719	-122.714	-162.977	-0.013406	0.832927	-0.172747	-0.174121	0.066743	41.719	-0.173947	-48.0695	-0.001388	NaN
1106	1.000000	0.842316	7.37587e+06	-55439.1	1055.82	-29741.6	0.000000	0.000000	6.843099	-0.018120	NaN	0.000000	0.001595	0.001654	28.0823	0.117620	0.002103	55.9221	-131.952	-165.422	-0.066556	0.840981	-0.164731	-0.166066	-0.018120	55.9221	-0.164488	-32.9089	0.000551	NaN
1106	1.000000	0.850339	7.37587e+06	-55439.1	1055.82	-29741.6	0.000000	0.000000	6.851123	0.013945	NaN	0.000000	0.001597	0.001648	28.0828	0.082594	0.002126	38.842	56.9923	-166.822	-0.002323	0.849026	-0.156708	-0.158021	0.013945	38.842	-0.156977	-24.2143	-0.000576	NaN
1106	1.000000	0.858277	7.37587e+06	-55439.1	1055.82	-29741.6	0.000000	0.000000	6.859058	-0.057483	NaN	0.000000	0.001571	0.001694	28.0833	0.081857	0.002032	40.2812	-4.099628	-162.018	-0.096535	0.856953	-0.148770	-0.150094	-0.057483	40.2812	-0.147700	-16.4407	0.003496	NaN
1106	1.000000	0.866285	7.37587e+06	-55439.1	1055.82	-29741.6	0.000000	0.000000	6.867069	0.021433	NaN	0.000000	0.001579	0.001688	28.0833	0.053631	0.001973	27.1797	61.5943	-166.151	-0.058882	0.865030	-0.140763	-0.142018	0.021433	27.1797	-0.141354	-12.5414	-0.001709	NaN
1106	1.000000	0.874287	7.37587e+06	-55439.1	1055.82	-29741.6	0.000000	0.000000	6.875069	-0.034621	NaN	0.000000	0.001563	0.001672	28.0834	0.099401	0.001852	53.6639	-69.5726	-162.31	0.007164	0.873025	-0.132760	-0.134023	-0.034621	53.6639	-0.132276	-8.434386	0.004105	NaN
1106	1.000000	0.882309	7.37587e+06	-55439.1	1055.82	-29741.6	0.000000	0.000000	6.883092	0.013913	NaN	0.000000	0.001575	0.001656	28.0835	0.098283	0.002091	47.007	-91.812	-167.645	0.047406	0.881004	-0.124739	-0.126044	0.013913	47.007	-0.124961	-6.070436	-0.002292	NaN
1106	1.000000	0.890308	7.37587e+06	-55439.1	1055.82	-29741.6	0.000000	0.000000	6.891090	-0.010454	NaN	0.000000	0.001576	0.001706	28.083	0.052939	0.001970	26.8719	178.707	-161.339	0.012754	0.888989	-0.116740	-0.118059	-0.010454	26.8719	-0.116448	-4.091351	0.002555	NaN
1106	1.000000	0.898309	7.37587e+06	-55439.1	1055.82	-29741.6	0.000000	0.000000	6.899091	-0.021884	NaN	0.000000	0.001577	0.001687	28.0833	0.018819	0.001980	9.504287	-159.283	-163.534	0.057018	0.897012	-0.108738	-0.110035	-0.021884	9.504287	-0.107012	-2.596643	0.008428	NaN
1106	1.000000	0.906305	7.37587e+06	-55439.1	1055.82	-29741.6	0.000000	0.000000	6.907087	-0.026612	NaN	0.000000	0.001547	0.001707	28.0831	0.062551	0.002006	31.1808	-30.602	-166.419	0.004494	0.905009	-0.100742	-0.102039	-0.026612	31.1808	-0.100102	-1.836698	0.014489	NaN
1106	1.000000	0.914330	7.37587e+06	-55439.1	1055.82	-29741.6	0.000000	0.000000	6.915112	-0.030950	NaN	0.000000	0.001543	0.001672	28.0828	0.094061	0.001967	47.8306	-86.8569	-161.929	-0.041191	0.913075	-0.092718	-0.093973	-0.030950	47.8306	-0.092232	-1.218569	0.025399	NaN
1106	1.000000	0.922339	7.37587e+06	-55439.1	1055.82	-29741.6	0.000000	0.000000	6.923121	-0.024515	NaN	0.000000	0.001547	0.001687	28.0833	0.081815	0.001921	42.5821	10.9912	-169.363	-0.088189	0.921044	-0.084709	-0.086004	-0.024515	42.5821	-0.084277	-0.789104	0.031067	NaN
1106	1.000000	0.930339	7.37587e+06	-55439.1	1055.82	-29741.6	0.000000	0.000000	6.931119	-0.051837	NaN	0.000000	0.001546	0.001695	28.0831	0.071029	0.002033	34.9396	-51.0108	-163.362	-0.036238	0.929044	-0.076709	-0.078004	-0.051837	34.9396	-0.075596	-0.478537	0.108323	NaN
1106	1.000000	0.938347	7.37587e+06	-55439.1	1055.82	-29741.6	0.000000	0.000000	6.939130	-0.005018	NaN	0.000000	0.001554	0.001673	28.0835	0.089830	0.001972	45.5572	-107.735	-166.051	-0.009262	0.937004	-0.068701	-0.070044	-0.005018	45.5572	-0.068618	-0.313105	0.016026	NaN
1106	1.000000	0.946329	7.37587e+06	-55439.1	1055.82	-29741.6	0.000000	0.000000	6.947114	0.042053	NaN	0.000000	0.001546	0.001645	28.0832	0.146171	0.002043	71.5396	-45.6728	-167.947	0.052984	0.945025	-0.060719	-0.062023	0.042053	71.5396	-0.061160	-0.194372	-0.216354	NaN
1106	1.000000	0.954338	7.37587e+06	-55439.1	1055.82	-29741.6	0.000000	0.000000	6.955118	-0.078442	NaN	0.000000	0.001562	0.001682	28.0831	0.124873	0.002035	61.3584	-178.959	-161.242	-0.072109	0.953037	-0.052710	-0.054010	-0.078442	61.3584	-0.051751	-0.103041	0.761273	NaN
1106	1.000000	0.962342	7.37587e+06	-55439.1	1055.82	-29741.6	0.000000	0.000000	6.963124	-0.028980	NaN	0.000000	0.001578	0.001654	28.0832	0.026514	0.002060	12.8685	-120.401	-166.41	-0.051901	0.961038	-0.044705	-0.046009	-0.028980	12.8685	-0.043016	-0.055888	0.518536	NaN
1106	1.000000	0.970327	7.37587e+06	-55439.1	1055.82	-29741.6	0.000000	0.000000	6.971112	0.029907	NaN	0.000000	0.001624	0.001643	28.083	0.033334	0.001972	16.9016	-41.0896	-167.106	-0.062132	0.969060	-0.036720	-0.037988	0.029907	16.9016	-0.038047	-0.039472	-0.757669	NaN
1106	1.000000	0.978360	7.37587e+06	-55439.1	1055.82	-29741.6	0.000000	0.000000	6.979143	-0.003422	NaN	0.000000	0.001584	0.001709	28.0836	0.014620	0.001955	7.478055	79.9963	-166.373	0.016284	0.977068	-0.028688	-0.029979	-0.003422	7.478055	-0.028345	-0.020718	0.165184	NaN
1106	1.000000	0.986356	7.37587e+06	-55439.1	1055.82	-29741.6	0.000000	0.000000	6.987138	-0.020383	NaN	0.000000	0.001604	0.001662	28.0824	0.083572	0.001980	42.2162	70.6309	-164.022	0.000349	0.985036	-0.020692	-0.022012	-0.020383	42.2162	-0.020330	-0.012806	1.591725	NaN
1106	1.000000	0.994353	7.37587e+06	-55439.1	1055.82	-29741.6	0.000000	0.000000	6.995134	-0.041942	NaN	0.000000	0.001589	0.001707	28.0822	0.058069	0.001996	29.092	78.149	-166.978	0.014512	0.993028	-0.012695	-0.014019	-0.041942	29.092	-0.011613	-0.007308	5.739345	NaN
1106	1.000000	1.002350	7.37587e+06	-55439.1	1055.82	-29741.6	0.000000	0.000000	7.003134	0.010235	NaN	0.000000	0.001569	0.001641	28.0821	0.020592	0.002099	9.811629	-56.6082	-165.964	-0.011556	1.001092	-0.004697	-0.005956	0.010235	9.811629	-0.005480	-0.003716	-2.754424	NaN
1106	1.000000	1.010361	7.37587e+06	-55439.1	1055.82	-29741.6	0.000000	0.000000	7.011146	0.047440	NaN	0.000000	0.001542	0.001673	28.0819	0.104518	0.001934	54.0545	28.8118	-165.869	-0.045166	1.009063	0.003313	0.002015	0.047440	54.0545	0.002655	0.002092	22.6801	1079.83
1106	1.000000	1.018326	7.37587e+06	-55439.1	1055.82	-29741.6	0.000000	0.000000	7.019332	5.420802	NaN	0.000000	0.001602	0.001710	28.082	6.242423	0.001813	3443.38	13.8569	-171.097	4.163303	1.017018	0.011278	0.009971	5.420802	3443.38	0.010098	0.009290	583.505	32639.9
1106	2.000000	1.023007	7.37587e+06	-55439.1	1055.82	-29741.6	0.000000	0.000000	7.024206	10.1046	NaN	0.000000	0.001608	0.001705	28.0821	10.0247	0.001782	5626.53	8.627920	-171.133	10.4606	1.022646	0.015960	0.015599	10.1046	5626.53	0.014613	0.014773	684.008	42294.6
1106	2.000000	1.024925	7.37587e+06	-55439.1	1055.82	-29741.6	0.000000	0.000000	7.026146	10.6506	NaN	0.000000	0.001609	0.001715	28.082	11.3281	0.001786	6343.44	9.244106	-174.407	10.1046	1.024658	0.017877	0.017610	10.6506	6343.44	0.016618	0.017504	608.478	43806
1106	2.000000	1.026907	7.37587e+06	-55439.1	1055.82	-29741.6	0.000000	0.000000	7.028166	11.5679	NaN	0.000000	0.001560	0.001712	28.0823	12.8188	0.001830	7005.86	8.438916	-172.881	12.6928	1.026615	0.019860	0.019568	11.5679	7005.86	0.018621	0.020422	566.448	44790.6
1106	2.000000	1.028864	7.37587e+06	-55439.1	1055.82	-29741.6	0.000000	0.000000	7.030374	17.6749	NaN	0.000000	0.001554	0.001724	28.082	14.9454	0.001633	9150.46	7.259878	-175.212	16.8477	1.028512	0.021816	0.021464	17.6749	9150.46	0.020367	0.023123	764.386	54978.7
1106	2.000000	1.030931	7.37587e+06	-55439.1	1055.82	-29741.6	0.000000	0.000000	7.032533	19.9048	NaN	0.000000	0.001584	0.001688	28.0824	16.7282	0.001812	9233.61	9.105430	-175.15	21.6082	1.030573	0.023883	0.023526	19.9048	9233.61	0.022266	0.026229	758.872	52089.5
1106	2.000000	1.032846	7.37587e+06	-55439.1	1055.82	-29741.6	0.000000	0.000000	7.034614	23.9406	NaN	0.000000	0.001589	0.001675	28.082	18.8741	0.001874	10070.6	6.377691	-174.771	21.9702	1.032471	0.025799	0.025423	23.9406	10070.6	0.024016	0.029250	818.488	53797.9
1106	2.000000	1.034836	7.37587e+06	-55439.1	1055.82	-29741.6	0.000000	0.000000	7.036724	26.8709	NaN	0.000000	0.001564	0.001680	28.0819	20.1467	0.001751	11505.9	3.728201	-174.624	24.9553	1.034553	0.027788	0.027506	26.8709	11505.9	0.026036	0.032928	816.045	57931
1106	2.000000	1.036900	7.37587e+06	-55439.1	1055.82	-29741.6	0.000000	0.000000	7.038854	28.4686	NaN	0.000000	0.001606	0.001668	28.082	22.3041	0.001881	11856.6	4.129889	-173.79	29.5019	1.036619	0.029852	0.029571	28.4686	11856.6	0.028052	0.036802	773.563	56467.4
1106	2.000000	1.038885	7.37587e+06	-55439.1	1055.82	-29741.6	0.000000	0.000000	7.041057	33.7414	NaN	0.000000	0.001590	0.001674	28.082	24.1719	0.001880	12860.4	5.727554	-176.246	33.1352	1.038561	0.031838	0.031513	33.7414	12860.4	0.029870	0.040475	833.636	58403
1106	2.000000	1.040843	7.37587e+06	-55439.1	1055.82	-29741.6	0.000000	0.000000	7.043135	36.6665	NaN	0.000000	0.001584	0.001658	28.0826	26.1005	0.001759	14838	3.666786	-176.808	35.3502	1.040504	0.033796	0.033456	36.6665	14838	0.031942	0.044866	817.251	64001.6
1106	2.000000	1.042949	7.37587e+06	-55439.1	1055.82	-29741.6	0.000000	0.000000	7.045556	44.3572	NaN	0.000000	0.001594	0.001712	28.0825	28.7864	0.001760	16357.1	7.092550	-178.491	45.3512	1.042512	0.035901	0.035464	44.3572	16357.1	0.033867	0.049141	902.646	67415
1106	2.000000	1.044810	7.37587e+06	-55439.1	1055.82	-29741.6	0.000000	0.000000	7.047450	45.135	NaN	0.000000	0.001584	0.001683	28.0821	30.7387	0.001824	16854.3	6.344303	179.879	42.682	1.044509	0.037763	0.037462	45.135	16854.3	0.035754	0.053517	843.374	66563.6
1106	2.000000	1.046882	7.37587e+06	-55439.1	1055.82	-29741.6	0.000000	0.000000	7.049760	50.9084	NaN	0.000000	0.001524	0.001722	28.0827	33.0271	0.001856	17792.1	5.777829	-179.693	51.9709	1.046584	0.039835	0.039537	50.9084	17792.1	0.037689	0.058192	874.839	67386.1
1106	2.000000	1.048828	7.37587e+06	-55439.1	1055.82	-29741.6	0.000000	0.000000	7.051848	54.3792	NaN	0.000000	0.001561	0.001718	28.0834	34.0934	0.001754	19440.6	7.457438	177.891	54.7164	1.048576	0.041781	0.041529	54.3792	19440.6	0.039683	0.063211	860.277	70645.7
1106	2.000000	1.050869	7.37587e+06	-55439.1	1055.82	-29741.6	0.000000	0.000000	7.054107	59.6783	NaN	0.000000	0.001604	0.001713	28.0835	36.7841	0.001886	19500	10.1123	175.798	60.8446	1.050542	0.043821	0.043494	59.6783	19500	0.041526	0.068031	877.227	68305.6
1106	2.000000	1.052860	7.37587e+06	-55439.1	1055.82	-29741.6	0.000000	0.000000	7.056209	62.3517	NaN	0.000000	0.001548	0.001693	28.0836	37.5619	0.001730	21709.7	4.832469	178.374	60.8883	1.052575	0.045813	0.045528	62.3517	21709.7	0.043659	0.073826	844.581	73000.1
1106	2.000000	1.054814	7.37587e+06	-55439.1	1055.82	-29741.6	0.000000	0.000000	7.058579	72.4709	NaN	0.000000	0.001576	0.001674	28.0832	39.3924	0.001739	22647.7	8.462575	175.528	70.755	1.054434	0.047767	0.047387	72.4709	22647.7	0.045367	0.078632	921.642	73789.7
1106	2.000000	1.056758	7.37587e+06	-55439.1	1055.82	-29741.6	0.000000	0.000000	7.060633	75.1782	NaN	0.000000	0.001555	0.001680	28.0836	41.4698	0.001680	24687.4	6.445983	175.484	71.4849	1.056501	0.049710	0.049453	75.1782	24687.4	0.047426	0.084624	888.378	77535.5
1106	2.000000	1.058852	7.37587e+06	-55439.1	1055.82	-29741.6	0.000000	0.000000	7.063014	82.139	NaN	0.000000	0.001562	0.001679	28.0834	42.0123	0.001672	25132.9	2.562092	-179.26	82.4005	1.058587	0.051804	0.051539	82.139	25132.9	0.049353	0.090424	908.381	76361.6
1106	2.000000	1.060821	7.37587e+06	-55439.1	1055.82	-29741.6	0.000000	0.000000	7.065326	90.482	NaN	0.000000	0.001600	0.001696	28.0841	44.1773	0.001599	27620.6	-1.008174	-177.131	90.1425	1.060492	0.053773	0.053445	90.482	27620.6	0.051316	0.096525	937.399	81224.6
1106	2.000000	1.062809	7.37587e+06	-55439.1	1055.82	-29741.6	0.000000	0.000000	7.067472	94.3012	NaN	0.000000	0.001570	0.001725	28.0834	47.9883	0.001739	27588.4	6.158309	176.099	91.7776	1.062551	0.055762	0.055504	94.3012	27588.4	0.053198	0.102555	919.522	78708.4
1106	2.000000	1.064757	7.37587e+06	-55439.1	1055.82	-29741.6	0.000000	0.000000	7.069724	101.699	NaN	0.000000	0.001538	0.001684	28.0832	49.6027	0.001816	27313.8	4.400413	177.792	98.4492	1.064457	0.057710	0.057409	101.699	27313.8	0.054917	0.108216	939.775	75859.3
1106	2.000000	1.066800	7.37587e+06	-55439.1	1055.82	-29741.6	0.000000	0.000000	7.072073	109.124	NaN	0.000000	0.001555	0.001703	28.0833	52.3194	0.001914	27336.5	4.535330	178.001	107.43	1.066461	0.059753	0.059413	109.124	27336.5	0.056759	0.114444	953.518	73827.8
1106	2.000000	1.068807	7.37587e+06	-55439.1	1055.82	-29741.6	0.000000	0.000000	7.074333	115.295	NaN	0.000000	0.001585	0.001638	28.0836	53.309	0.001893	28159.1	5.633422	176.337	112.496	1.068437	0.061759	0.061390	115.295	28159.1	0.058688	0.121147	951.698	73915.6
1106	2.000000	1.070903	7.37587e+06	-55439.1	1055.82	-29741.6	0.000000	0.000000	7.076677	121.318	NaN	0.000000	0.001552	0.001665	28.0839	54.8172	0.001764	31073.4	3.235281	179.013	125.455	1.070540	0.063855	0.063493	121.318	31073.4	0.060927	0.129153	939.335	78996.7
1106	2.000000	1.072808	7.37587e+06	-55439.1	1055.82	-29741.6	0.000000	0.000000	7.079041	132.48	NaN	0.000000	0.001547	0.001671	28.0833	57.7881	0.001834	31501.8	6.344671	174.839	131.939	1.072492	0.065760	0.065444	132.48	31501.8	0.062606	0.135319	979.021	78240.1
1106	2.000000	1.074810	7.37587e+06	-55439.1	1055.82	-29741.6	0.000000	0.000000	7.081507	143.762	NaN	0.000000	0.001574	0.001686	28.0837	59.2381	0.001799	32928.7	4.942012	175.447	143.849	1.074468	0.067762	0.067420	143.762	32928.7	0.064488	0.142390	1009.63	79727.5
1106	2.000000	1.076871	7.37587e+06	-55439.1	1055.82	-29741.6	0.000000	0.000000	7.083644	145.607	NaN	0.000000	0.001601	0.001693	28.0837	61.8618	0.001866	33150.7	3.398795	177.766	147.471	1.076516	0.069823	0.069468	145.607	33150.7	0.066529	0.150257	969.058	78135.7
1106	2.000000	1.078841	7.37587e+06	-55439.1	1055.82	-29741.6	0.000000	0.000000	7.085969	154.218	NaN	0.000000	0.001599	0.001684	28.0834	63.8878	0.001997	31996.7	6.246506	174.982	155.054	1.078464	0.071794	0.071417	154.218	31996.7	0.068179	0.156759	983.792	73835.1
1106	2.000000	1.080771	7.37587e+06	-55439.1	1055.82	-29741.6	0.000000	0.000000	7.088455	167.762	NaN	0.000000	0.001592	0.001695	28.0833	66.2684	0.001903	34821.1	6.886579	173.673	166.497	1.080418	0.073723	0.073371	167.762	34821.1	0.070110	0.164536	1019.61	78430.7
1106	2.000000	1.082799	7.37587e+06	-55439.1	1055.82	-29741.6	0.000000	0.000000	7.090875	177.272	NaN	0.000000	0.001588	0.001700	28.082	67.3812	0.001826	36910.7	3.500751	176.214	174.132	1.082482	0.075752	0.075434	177.272	36910.7	0.072150	0.172943	1025.03	81091.3
1106	2.000000	1.084789	7.37587e+06	-55439.1	1055.82	-29741.6	0.000000	0.000000	7.093169	184.664	NaN	0.000000	0.001574	0.001731	28.0828	69.2315	0.001797	38516.3	6.772156	172.845	184.175	1.084489	0.077742	0.077441	184.664	38516.3	0.074146	0.181360	1018.22	82631.7
1106	2.000000	1.086793	7.37587e+06	-55439.1	1055.82	-29741.6	0.000000	0.000000	7.095601	195.079	NaN	0.000000	0.001561	0.001683	28.0821	70.8241	0.001744	40616.1	5.129941	173.526	193.688	1.086446	0.079746	0.079398	195.079	40616.1	0.076143	0.189972	1026.88	85138.5
1106	2.000000	1.088672	7.37587e+06	-55439.1	1055.82	-29741.6	0.000000	0.000000	7.097921	205.799	NaN	0.000000	0.001605	0.001670	28.082	71.1662	0.001798	39577	5.699848	173.561	199.646	1.088448	0.081624	0.081400	205.799	39577	0.077724	0.196920	1045.09	81483.7
1106	2.000000	1.090718	7.37587e+06	-55439.1	1055.82	-29741.6	0.000000	0.000000	7.100418	216.762	NaN	0.000000	0.001599	0.001756	28.082	74.4825	0.001662	44809.5	6.834343	171.614	214.429	1.090386	0.083671	0.083338	216.762	44809.5	0.080043	0.207322	1045.54	89912.6
1106	2.000000	1.092773	7.37587e+06	-55439.1	1055.82	-29741.6	0.000000	0.000000	7.102899	227.116	NaN	0.000000	0.001589	0.001672	28.0818	76.2301	0.001844	41341.9	3.456380	175.705	223.083	1.092456	0.085725	0.085409	227.116	41341.9	0.081605	0.214473	1058.95	81560.2
1106	2.000000	1.094730	7.37587e+06	-55439.1	1055.82	-29741.6	0.000000	0.000000	7.105278	237.354	NaN	0.000000	0.001561	0.001676	28.0828	78.1422	0.001813	43098.6	4.503512	174.125	232.036	1.094368	0.087683	0.087320	237.354	43098.6	0.083553	0.223545	1061.77	83282.6
1106	2.000000	1.096814	7.37587e+06	-55439.1	1055.82	-29741.6	0.000000	0.000000	7.107797	247.962	NaN	0.000000	0.001562	0.001655	28.0818	79.7397	0.001831	43556.8	3.826571	175.128	248.977	1.096415	0.089766	0.089367	247.962	43556.8	0.085496	0.232775	1065.24	82482.2
1106	2.000000	1.098700	7.37587e+06	-55439.1	1055.82	-29741.6	0.000000	0.000000	7.110100	258.062	NaN	0.000000	0.001591	0.001719	28.0815	80.7662	0.001777	45459.7	2.434921	175.71	253.435	1.098536	0.091653	0.091488	258.062	45459.7	0.087395	0.241961	1066.55	84436
1106	2.000000	1.100772	7.37587e+06	-55439.1	1055.82	-29741.6	0.000000	0.000000	7.112718	271.36	NaN	0.000000	0.001622	0.001679	28.0818	82.9408	0.001805	45942.1	1.560441	177.147	269.366	1.100430	0.093725	0.093382	271.36	45942.1	0.089295	0.251315	1079.76	83728.9
1106	2.000000	1.102852	7.37587e+06	-55439.1	1055.82	-29741.6	0.000000	0.000000	7.115018	276.7	NaN	0.000000	0.001588	0.001675	28.0818	86.2434	0.001742	49496	5.437976	172.451	279.101	1.102467	0.095805	0.095420	276.7	49496	0.091612	0.262950	1052.29	88187.5
1106	2.000000	1.104773	7.37587e+06	-55439.1	1055.82	-29741.6	0.000000	0.000000	7.117614	293.095	NaN	0.000000	0.001563	0.001681	28.0822	88.1503	0.001862	47340.2	6.835517	171.882	291.587	1.104372	0.097726	0.097324	293.095	47340.2	0.093082	0.270460	1083.69	83167
1106	2.000000	1.106722	7.37587e+06	-55439.1	1055.82	-29741.6	0.000000	0.000000	7.120101	306.191	NaN	0.000000	0.001552	0.001638	28.0818	88.2296	0.001806	48849.6	-1.579220	179.452	304.406	1.106449	0.099674	0.099402	306.191	48849.6	0.094973	0.280263	1092.51	84304.6
1106	2.000000	1.108726	7.37587e+06	-55439.1	1055.82	-29741.6	0.000000	0.000000	7.122639	319.151	NaN	0.000000	0.001555	0.001718	28.0819	89.5536	0.001687	53084.5	4.248226	173.37	316.896	1.108442	0.101679	0.101394	319.151	53084.5	0.097170	0.291858	1093.52	89775
1106	2.000000	1.110708	7.37587e+06	-55439.1	1055.82	-29741.6	0.000000	0.000000	7.125165	332.389	NaN	0.000000	0.001580	0.001734	28.082	93.2219	0.001782	52314.7	4.349529	172.83	329.681	1.110324	0.103660	0.103277	332.389	52314.7	0.098895	0.301117	1103.85	87102.2
1106	2.000000	1.112906	7.37587e+06	-55439.1	1055.82	-29741.6	0.000000	0.000000	7.127677	340.004	NaN	0.000000	0.001587	0.001727	28.0818	95.7752	0.001917	49953.4	5.937031	172.103	346.927	1.112518	0.105859	0.105471	340.004	49953.4	0.100754	0.311247	1092.39	81806.1
1106	2.000000	1.114750	7.37587e+06	-55439.1	1055.82	-29741.6	0.000000	0.000000	7.130195	356.39	NaN	0.000000	0.001544	0.001685	28.0823	96.9485	0.001860	52119	6.504328	171.793	354.223	1.114415	0.107703	0.107368	356.39	52119	0.102574	0.321317	1109.15	84004.5
1106	2.000000	1.116817	7.37587e+06	-55439.1	1055.82	-29741.6	0.000000	0.000000	7.132883	371.518	NaN	0.000000	0.001552	0.001694	28.0831	98.9142	0.001859	53206.8	3.995690	173.518	374.01	1.116457	0.109769	0.109410	371.518	53206.8	0.104532	0.332317	1117.96	84326.4
1106	2.000000	1.118692	7.37587e+06	-55439.1	1055.82	-29741.6	0.000000	0.000000	7.135352	385.956	NaN	0.000000	0.001588	0.001712	28.0834	99.3452	0.001735	57250.2	5.647373	170.635	381.43	1.118443	0.111644	0.111396	385.956	57250.2	0.106588	0.344053	1121.79	89173.8
1106	2.000000	1.120230	7.37587e+06	-55439.1	1055.82	-29741.6	0.000000	0.000000	7.137379	397.834	NaN	0.000000	0.001598	0.001663	28.0833	102.21	0.001772	57696.5	7.239041	-10.906	391.86	1.119835	0.113182	0.112788	397.834	57696.5	0.108011	0.352288	1129.29	88812.4