File: remote_trans/data/nanoindenter/0828-1/data/Data_2025-08-06,11h17m57s/2025-07-22_16-23-58_1_1053.txt
2025-07-22, 16:23:58, 1
Index	Phase	Displacement	Time	Pos X	Pos Y	Pos Z	Rot A	Rot B	Piezo Z	Force A	Force B	Gripper	Voltage A	Voltage B	Temperature	Amplitude force	Amplitude pos	Stiffness	Phase shift	Phase excitation	Force A raw	Displacement raw	HMax	HMax raw	Real Force	Real Stiffness	Contact Depth	Area	Hardness	Reduced Mod.
[#]	[#]	[um]	[s]	[um]	[um]	[um]	[m°]	[m°]	[um]	[uN]	[uN]	[V]	[V]	[V]	[°C]	[uN]	[um]	[N/m]	[°]	[°]	[uN]	[um]	[um]	[um]	[uN]	[N/m]	[um]	[um^2]	[MPa]	[MPa]
1053	1.000000	0.003122	7.37534e+06	-52789.1	1055.82	-29748.1	0.000000	0.000000	6.002801	-0.012091	NaN	0.000000	0.001583	0.001776	28.0832	0.045638	0.000908	50.2561	148.535	-174.097	-0.079940	0.001820	-1.143944	-1.145246	-0.012091	50.2561	-1.143763	-1.937306E+15	6.240951E-18	NaN
1053	1.000000	0.013189	7.37534e+06	-52789.1	1055.82	-29748.1	0.000000	0.000000	6.012868	0.009021	NaN	0.000000	0.001592	0.001748	28.0832	0.122961	0.001222	100.587	-20.4465	16.4271	0.022258	0.011779	-1.133877	-1.135287	0.009021	100.587	-1.133944	-1.430609E+15	-6.305884E-18	NaN
1053	1.000000	0.023061	7.37534e+06	-52789.1	1055.82	-29748.1	0.000000	0.000000	6.022742	0.031059	NaN	0.000000	0.001591	0.001775	28.0828	0.035463	0.001716	20.6706	36.5862	-167.473	0.097662	0.021784	-1.124005	-1.125282	0.031059	20.6706	-1.125131	-1.089721E+15	-2.850215E-17	NaN
1053	1.000000	0.033103	7.37534e+06	-52789.1	1055.82	-29748.1	0.000000	0.000000	6.032782	-0.017165	NaN	0.000000	0.001586	0.001739	28.0831	0.089200	0.001948	45.7886	88.2405	19.6408	-0.015520	0.031698	-1.113962	-1.115368	-0.017165	45.7886	-1.113681	-7.650486E+14	2.243696E-17	NaN
1053	1.000000	0.043041	7.37534e+06	-52789.1	1055.82	-29748.1	0.000000	0.000000	6.042719	-0.043379	NaN	0.000000	0.001580	0.001745	28.0833	0.121841	0.002023	60.2209	50.1708	-163.549	-0.007696	0.041703	-1.104024	-1.105363	-0.043379	60.2209	-1.103484	-5.582599E+14	7.770380E-17	NaN
1053	1.000000	0.053092	7.37534e+06	-52789.1	1055.82	-29748.1	0.000000	0.000000	6.052772	0.030710	NaN	0.000000	0.001582	0.001765	28.0818	0.108092	0.002030	53.2602	-129.84	15.5711	0.035287	0.051759	-1.093974	-1.095307	0.030710	53.2602	-1.094406	-4.216719E+14	-7.282865E-17	NaN
1053	1.000000	0.063070	7.37534e+06	-52789.1	1055.82	-29748.1	0.000000	0.000000	6.062750	0.011704	NaN	0.000000	0.001585	0.001828	28.0817	0.058662	0.001985	29.5533	40.1666	-164.19	0.009130	0.061776	-1.083996	-1.085290	0.011704	29.5533	-1.084293	-3.084402E+14	-3.794723E-17	NaN
1053	1.000000	0.073059	7.37534e+06	-52789.1	1055.82	-29748.1	0.000000	0.000000	6.072736	-0.049638	NaN	0.000000	0.001589	0.001773	28.0817	0.052401	0.002047	25.5992	-74.6912	15.9115	-0.060974	0.071736	-1.074006	-1.075329	-0.049638	25.5992	-1.072552	-2.145240E+14	2.313888E-16	NaN
1053	1.000000	0.083058	7.37534e+06	-52789.1	1055.82	-29748.1	0.000000	0.000000	6.082737	-0.012157	NaN	0.000000	0.001611	0.001802	28.0818	0.059690	0.001984	30.0932	-152.601	-168.701	-0.045479	0.081741	-1.064008	-1.065325	-0.012157	30.0932	-1.063705	-1.631560E+14	7.451202E-17	NaN
1053	1.000000	0.093074	7.37534e+06	-52789.1	1055.82	-29748.1	0.000000	0.000000	6.092752	-0.042069	NaN	0.000000	0.001593	0.001819	28.0818	0.016955	0.002079	8.154679	-35.8127	12.9672	-0.086092	0.091759	-1.053991	-1.055307	-0.042069	8.154679	-1.050122	-1.071660E+14	3.925627E-16	NaN
1053	1.000000	0.103067	7.37534e+06	-52789.1	1055.82	-29748.1	0.000000	0.000000	6.102745	-0.017495	NaN	0.000000	0.001606	0.001776	28.0817	0.161001	0.001980	81.2944	-39.4693	-166.842	-0.005830	0.101810	-1.043999	-1.045256	-0.017495	81.2944	-1.043838	-8.821993E+13	1.983102E-16	NaN
1053	1.000000	0.113093	7.37534e+06	-52789.1	1055.82	-29748.1	0.000000	0.000000	6.112772	-0.017780	NaN	0.000000	0.001604	0.001730	28.0819	0.036137	0.001894	19.0815	61.0856	12.2183	-0.040230	0.111748	-1.033972	-1.035318	-0.017780	19.0815	-1.033274	-6.360776E+13	2.795306E-16	NaN
1053	1.000000	0.123118	7.37534e+06	-52789.1	1055.82	-29748.1	0.000000	0.000000	6.122796	-0.040191	NaN	0.000000	0.001564	0.001759	28.0816	0.039017	0.002144	18.1996	-121.427	-167.532	-0.059755	0.121838	-1.023948	-1.025227	-0.040191	18.1996	-1.022291	-4.526691E+13	8.878677E-16	NaN
1053	1.000000	0.133082	7.37534e+06	-52789.1	1055.82	-29748.1	0.000000	0.000000	6.132759	-0.061672	NaN	0.000000	0.001622	0.001749	28.0818	0.074918	0.002090	35.8485	-8.535134	12.3818	-0.058454	0.131798	-1.013983	-1.015268	-0.061672	35.8485	-1.012693	-3.362225E+13	1.834271E-15	NaN
1053	1.000000	0.143098	7.37534e+06	-52789.1	1055.82	-29748.1	0.000000	0.000000	6.142774	-0.079861	NaN	0.000000	0.001613	0.001753	28.0817	0.042068	0.001814	23.1949	-114.948	-165.847	-0.147261	0.141779	-1.003968	-1.005287	-0.079861	23.1949	-1.001385	-2.368220E+13	3.372205E-15	NaN
1053	1.000000	0.153130	7.37534e+06	-52789.1	1055.82	-29748.1	0.000000	0.000000	6.152806	-0.077650	NaN	0.000000	0.001577	0.001775	28.082	0.077663	0.001982	39.1814	-17.9948	13.6098	0.017712	0.151712	-0.993936	-0.995354	-0.077650	39.1814	-0.992450	-1.795153E+13	4.325528E-15	NaN
1053	1.000000	0.163114	7.37534e+06	-52789.1	1055.82	-29748.1	0.000000	0.000000	6.162792	-0.035785	NaN	0.000000	0.001565	0.001723	28.0818	0.112153	0.001927	58.2013	90.0588	-166.38	-0.042346	0.161829	-0.983951	-0.985237	-0.035785	58.2013	-0.983490	-1.359663E+13	2.631912E-15	NaN
1053	1.000000	0.173101	7.37534e+06	-52789.1	1055.82	-29748.1	0.000000	0.000000	6.172780	0.008908	NaN	0.000000	0.001596	0.001736	28.0819	0.044154	0.002058	21.4586	140.675	16.038	-0.034341	0.171803	-0.973965	-0.975263	0.008908	21.4586	-0.974276	-1.021615E+13	-8.719450E-16	NaN
1053	1.000000	0.183145	7.37534e+06	-52789.1	1055.82	-29748.1	0.000000	0.000000	6.182822	-0.047586	NaN	0.000000	0.001595	0.001689	28.0831	0.074126	0.001947	38.0748	105.658	-166.17	-0.016201	0.181752	-0.963921	-0.965314	-0.047586	38.0748	-0.962984	-7.195980E+12	6.612898E-15	NaN
1053	1.000000	0.193119	7.37534e+06	-52789.1	1055.82	-29748.1	0.000000	0.000000	6.192797	-0.024130	NaN	0.000000	0.001593	0.001760	28.083	0.098641	0.001912	51.5963	-164.847	13.1042	-0.013608	0.191709	-0.953947	-0.955357	-0.024130	51.5963	-0.953596	-5.376804E+12	4.487789E-15	NaN
1053	1.000000	0.203148	7.37534e+06	-52789.1	1055.82	-29748.1	0.000000	0.000000	6.202829	0.026331	NaN	0.000000	0.001595	0.001728	28.0831	0.057362	0.001995	28.7471	-174.578	-163.76	0.073194	0.201856	-0.943917	-0.945210	0.026331	28.7471	-0.944604	-4.066790E+12	-6.474563E-15	NaN
1053	1.000000	0.213115	7.37534e+06	-52789.1	1055.82	-29748.1	0.000000	0.000000	6.212793	-0.019206	NaN	0.000000	0.001632	0.001703	28.0829	0.114360	0.002001	57.1601	-19.3953	14.6095	0.045578	0.211759	-0.933951	-0.935306	-0.019206	57.1601	-0.933699	-2.898088E+12	6.627029E-15	NaN
1053	1.000000	0.223123	7.37534e+06	-52789.1	1055.82	-29748.1	0.000000	0.000000	6.222798	-0.076748	NaN	0.000000	0.001635	0.001697	28.0832	0.090777	0.002028	44.7727	-13.3779	-163.892	0.008675	0.221827	-0.923943	-0.925238	-0.076748	44.7727	-0.922658	-2.056297E+12	3.732320E-14	NaN
1053	1.000000	0.233138	7.37534e+06	-52789.1	1055.82	-29748.1	0.000000	0.000000	6.232815	-0.044716	NaN	0.000000	0.001613	0.001752	28.0828	0.039518	0.001950	20.261	41.7236	15.4239	-0.063923	0.231739	-0.913928	-0.915327	-0.044716	20.261	-0.912272	-1.488861E+12	3.003380E-14	NaN
1053	1.000000	0.243144	7.37534e+06	-52789.1	1055.82	-29748.1	0.000000	0.000000	6.242821	-0.045019	NaN	0.000000	0.001599	0.001730	28.083	0.020946	0.001977	10.5958	24.7675	-163.643	-0.064764	0.241816	-0.903922	-0.905249	-0.045019	10.5958	-0.900735	-1.039927E+12	4.329048E-14	NaN
1053	1.000000	0.253173	7.37534e+06	-52789.1	1055.82	-29748.1	0.000000	0.000000	6.252852	0.021506	NaN	0.000000	0.001534	0.001731	28.0827	0.010980	0.001975	5.560110	-102.579	14.0784	0.022043	0.251789	-0.893893	-0.895277	0.021506	5.560110	-0.896794	-9.199094E+11	-2.337840E-14	NaN
1053	1.000000	0.263149	7.37534e+06	-52789.1	1055.82	-29748.1	0.000000	0.000000	6.262830	0.057265	NaN	0.000000	0.001559	0.001737	28.0829	0.056167	0.001967	28.5486	74.5885	-170.777	0.047781	0.261856	-0.883917	-0.885210	0.057265	28.5486	-0.885421	-6.456803E+11	-8.868921E-14	NaN
1053	1.000000	0.273159	7.37534e+06	-52789.1	1055.82	-29748.1	0.000000	0.000000	6.272837	-0.008228	NaN	0.000000	0.001569	0.001740	28.0827	0.052555	0.002066	25.4354	-7.749899	14.3176	-0.027392	0.271821	-0.873907	-0.875245	-0.008228	25.4354	-0.873665	-4.477335E+11	1.837719E-14	NaN
1053	1.000000	0.283161	7.37534e+06	-52789.1	1055.82	-29748.1	0.000000	0.000000	6.282837	-0.072512	NaN	0.000000	0.001579	0.001763	28.0827	0.130556	0.002058	63.4479	114.383	-166.772	-0.031228	0.281888	-0.863905	-0.865177	-0.072512	63.4479	-0.863048	-3.216378E+11	2.254458E-13	NaN
1053	1.000000	0.293165	7.37534e+06	-52789.1	1055.82	-29748.1	0.000000	0.000000	6.292842	-0.040108	NaN	0.000000	0.001591	0.001704	28.0829	0.099350	0.002024	49.0782	165.769	14.6844	-0.060919	0.291782	-0.853901	-0.855284	-0.040108	49.0782	-0.853288	-2.372787E+11	1.690315E-13	NaN
1053	1.000000	0.303182	7.37534e+06	-52789.1	1055.82	-29748.1	0.000000	0.000000	6.302861	0.003902	NaN	0.000000	0.001596	0.001728	28.0828	0.110318	0.001942	56.8039	-114.251	-165.273	0.010988	0.301865	-0.843884	-0.845201	0.003902	56.8039	-0.843935	-1.772556E+11	-2.201360E-14	NaN
1053	1.000000	0.313176	7.37534e+06	-52789.1	1055.82	-29748.1	0.000000	0.000000	6.312854	-0.038352	NaN	0.000000	0.001601	0.001742	28.0827	0.040956	0.002013	20.3504	-114.356	14.5972	-0.028957	0.311790	-0.833890	-0.835276	-0.038352	20.3504	-0.832476	-1.239785E+11	3.093409E-13	NaN
1053	1.000000	0.323166	7.37534e+06	-52789.1	1055.82	-29748.1	0.000000	0.000000	6.322844	-0.003014	NaN	0.000000	0.001603	0.001716	28.0816	0.124160	0.002005	61.9216	-71.9312	-164.411	0.003442	0.321909	-0.823900	-0.825156	-0.003014	61.9216	-0.823864	-9.475486E+10	3.181040E-14	NaN
1053	1.000000	0.333193	7.37534e+06	-52789.1	1055.82	-29748.1	0.000000	0.000000	6.332870	-0.070633	NaN	0.000000	0.001579	0.001742	28.0816	0.096955	0.002040	47.5318	73.3527	15.3903	-0.073369	0.331841	-0.813872	-0.815225	-0.070633	47.5318	-0.812758	-6.698613E+10	1.054445E-12	NaN
1053	1.000000	0.343210	7.37534e+06	-52789.1	1055.82	-29748.1	0.000000	0.000000	6.342887	-0.032137	NaN	0.000000	0.001609	0.001782	28.0816	0.030031	0.002133	14.0818	53.5656	-166.653	-0.004868	0.341923	-0.803856	-0.805143	-0.032137	14.0818	-0.802144	-4.808064E+10	6.684060E-13	NaN
1053	1.000000	0.353199	7.37534e+06	-52789.1	1055.82	-29748.1	0.000000	0.000000	6.352877	-0.003406	NaN	0.000000	0.001631	0.001772	28.0817	0.050925	0.001996	25.5142	-40.9824	15.0061	-0.053788	0.351842	-0.793867	-0.795224	-0.003406	25.5142	-0.793767	-3.700337E+10	9.204114E-14	NaN
1053	1.000000	0.363198	7.37534e+06	-52789.1	1055.82	-29748.1	0.000000	0.000000	6.362875	-0.050694	NaN	0.000000	0.001655	0.001733	28.0816	0.090532	0.002016	44.8978	-2.701390	-160.907	-0.046464	0.361884	-0.783867	-0.785182	-0.050694	44.8978	-0.783021	-2.644088E+10	1.917240E-12	NaN
1053	1.000000	0.373198	7.37534e+06	-52789.1	1055.82	-29748.1	0.000000	0.000000	6.372879	0.051345	NaN	0.000000	0.001633	0.001758	28.0815	0.073458	0.002036	36.0738	78.0265	16.0873	0.019516	0.371857	-0.773868	-0.775209	0.051345	36.0738	-0.774936	-2.053072E+10	-2.500887E-12	NaN
1053	1.000000	0.383209	7.37534e+06	-52789.1	1055.82	-29748.1	0.000000	0.000000	6.382887	-0.018614	NaN	0.000000	0.001641	0.001799	28.0815	0.043877	0.001921	22.843	-177.239	-164.587	0.007853	0.381888	-0.763857	-0.765178	-0.018614	22.843	-0.763246	-1.423834E+10	1.307336E-12	NaN
1053	1.000000	0.393200	7.37534e+06	-52789.1	1055.82	-29748.1	0.000000	0.000000	6.392878	-0.015568	NaN	0.000000	0.001684	0.001761	28.0813	0.119178	0.002088	57.0864	-26.0832	13.3658	-0.005866	0.391855	-0.753866	-0.755211	-0.015568	57.0864	-0.753662	-1.054524E+10	1.476348E-12	NaN
1053	1.000000	0.403232	7.37534e+06	-52789.1	1055.82	-29748.1	0.000000	0.000000	6.402910	-0.030924	NaN	0.000000	0.001643	0.001740	28.0817	0.142397	0.001866	76.2977	138.762	-168.58	0.040759	0.401866	-0.743834	-0.745199	-0.030924	76.2977	-0.743530	-7.675893E+9	4.028752E-12	NaN
1053	1.000000	0.413248	7.37534e+06	-52789.1	1055.82	-29748.1	0.000000	0.000000	6.412928	0.014625	NaN	0.000000	0.001625	0.001778	28.0814	0.085374	0.002066	41.3263	142.286	10.8173	0.013822	0.411831	-0.733818	-0.735235	0.014625	41.3263	-0.734083	-5.707578E+9	-2.562358E-12	NaN
1053	1.000000	0.423246	7.37534e+06	-52789.1	1055.82	-29748.1	0.000000	0.000000	6.422925	-0.004514	NaN	0.000000	0.001604	0.001809	28.0816	0.118521	0.002128	55.6971	87.6505	-162.293	-0.067415	0.421929	-0.723820	-0.725137	-0.004514	55.6971	-0.723759	-4.127899E+9	1.093473E-12	NaN
1053	1.000000	0.433225	7.37534e+06	-52789.1	1055.82	-29748.1	0.000000	0.000000	6.432903	-0.021719	NaN	0.000000	0.001586	0.001792	28.0814	0.072641	0.002099	34.6091	78.0765	12.1829	-0.044088	0.431909	-0.713841	-0.715157	-0.021719	34.6091	-0.713370	-2.978788E+9	7.291140E-12	NaN
1053	1.000000	0.443236	7.37534e+06	-52789.1	1055.82	-29748.1	0.000000	0.000000	6.442916	0.024928	NaN	0.000000	0.001586	0.001786	28.0819	0.047378	0.002070	22.8868	43.4812	-169.246	0.016184	0.441915	-0.703829	-0.705151	0.024928	22.8868	-0.704646	-2.264502E+9	-1.100801E-11	NaN
1053	1.000000	0.453207	7.37534e+06	-52789.1	1055.82	-29748.1	0.000000	0.000000	6.452884	-0.037917	NaN	0.000000	0.001581	0.001805	28.0816	0.068585	0.001964	34.9229	-7.423518	15.5456	0.064835	0.451833	-0.693859	-0.695233	-0.037917	34.9229	-0.693045	-1.572263E+9	2.411618E-11	NaN
1053	1.000000	0.463250	7.37534e+06	-52789.1	1055.82	-29748.1	0.000000	0.000000	6.462929	-0.019849	NaN	0.000000	0.001605	0.001766	28.0829	0.066989	0.001842	36.3769	44.0729	-167.436	0.016687	0.461940	-0.683815	-0.685126	-0.019849	36.3769	-0.683406	-1.160870E+9	1.709862E-11	NaN
1053	1.000000	0.473248	7.37534e+06	-52789.1	1055.82	-29748.1	0.000000	0.000000	6.472925	-0.066367	NaN	0.000000	0.001601	0.001738	28.0828	0.042913	0.001884	22.7783	97.6098	9.510484	-0.051949	0.471928	-0.673818	-0.675138	-0.066367	22.7783	-0.671632	-8.011805E+8	8.283629E-11	NaN
1053	1.000000	0.483244	7.37534e+06	-52789.1	1055.82	-29748.1	0.000000	0.000000	6.482920	-0.079163	NaN	0.000000	0.001586	0.001743	28.083	0.082181	0.002040	40.2756	-56.424	-167.752	-0.090604	0.481973	-0.663822	-0.665092	-0.079163	40.2756	-0.662348	-5.978930E+8	1.324032E-10	NaN
1053	1.000000	0.493244	7.37534e+06	-52789.1	1055.82	-29748.1	0.000000	0.000000	6.492918	-0.117386	NaN	0.000000	0.001555	0.001760	28.0828	0.077323	0.001977	39.1017	-100.614	12.2791	-0.067192	0.491835	-0.653822	-0.655231	-0.117386	39.1017	-0.651570	-4.255582E+8	2.758402E-10	NaN
1053	1.000000	0.503249	7.37534e+06	-52789.1	1055.82	-29748.1	0.000000	0.000000	6.502930	0.045887	NaN	0.000000	0.001583	0.001796	28.0828	0.054632	0.002045	26.7138	139.464	-162.52	-0.060950	0.501966	-0.643816	-0.645100	0.045887	26.7138	-0.645105	-3.469871E+8	-1.322442E-10	NaN
1053	1.000000	0.513276	7.37534e+06	-52789.1	1055.82	-29748.1	0.000000	0.000000	6.512953	-0.062653	NaN	0.000000	0.001595	0.001761	28.0831	0.061280	0.002009	30.5002	139.993	15.1491	-0.100707	0.511949	-0.633789	-0.635116	-0.062653	30.5002	-0.632249	-2.311549E+8	2.710435E-10	NaN
1053	1.000000	0.523264	7.37534e+06	-52789.1	1055.82	-29748.1	0.000000	0.000000	6.522941	-0.044942	NaN	0.000000	0.001599	0.001754	28.0827	0.016398	0.002076	7.899866	-65.6162	-165.47	-0.058838	0.521937	-0.623802	-0.625129	-0.044942	7.899866	-0.619535	-1.546119E+8	2.906751E-10	NaN
1053	1.000000	0.533271	7.37534e+06	-52789.1	1055.82	-29748.1	0.000000	0.000000	6.532950	-0.005331	NaN	0.000000	0.001570	0.001783	28.0827	0.072362	0.002031	35.6306	131.621	14.4322	0.038747	0.531936	-0.613795	-0.615130	-0.005331	35.6306	-0.613683	-1.284616E+8	4.149667E-11	NaN
1053	1.000000	0.543275	7.37534e+06	-52789.1	1055.82	-29748.1	0.000000	0.000000	6.542951	-0.068948	NaN	0.000000	0.001577	0.001732	28.0828	0.069121	0.001958	35.3075	-25.8535	-163.217	-0.002224	0.541953	-0.603791	-0.605112	-0.068948	35.3075	-0.602326	-8.963783E+7	7.691864E-10	NaN
1053	1.000000	0.553266	7.37534e+06	-52789.1	1055.82	-29748.1	0.000000	0.000000	6.552940	-0.120100	NaN	0.000000	0.001586	0.001761	28.0829	0.040472	0.001880	21.5256	37.7878	15.5323	-0.123983	0.551918	-0.593799	-0.595147	-0.120100	21.5256	-0.589615	-5.989034E+7	2.005332E-9	NaN
1053	1.000000	0.563284	7.37534e+06	-52789.1	1055.82	-29748.1	0.000000	0.000000	6.562963	0.003025	NaN	0.000000	0.001623	0.001787	28.0827	0.166501	0.001971	84.4735	169.616	-167.931	0.007955	0.561943	-0.583782	-0.585123	0.003025	84.4735	-0.583809	-4.980611E+7	-6.073154E-11	NaN
1053	1.000000	0.573292	7.37534e+06	-52789.1	1055.82	-29748.1	0.000000	0.000000	6.572971	0.008494	NaN	0.000000	0.001622	0.001763	28.0829	0.031426	0.001834	17.1385	32.0014	13.6267	-0.050084	0.571916	-0.573774	-0.575150	0.008494	17.1385	-0.574146	-3.663558E+7	-2.318476E-10	NaN
1053	1.000000	0.583278	7.37534e+06	-52789.1	1055.82	-29748.1	0.000000	0.000000	6.582955	-0.055617	NaN	0.000000	0.001673	0.001752	28.0829	0.044956	0.001926	23.3467	50.1572	-163.006	0.006932	0.581956	-0.563787	-0.565110	-0.055617	23.3467	-0.562001	-2.489155E+7	2.234379E-9	NaN
1053	1.000000	0.593297	7.37534e+06	-52789.1	1055.82	-29748.1	0.000000	0.000000	6.592973	-0.062030	NaN	0.000000	0.001648	0.001798	28.0816	0.093918	0.001964	47.8315	143.439	11.6139	0.071634	0.591883	-0.553769	-0.555182	-0.062030	47.8315	-0.552797	-1.856451E+7	3.341321E-9	NaN
1053	1.000000	0.603286	7.37535e+06	-52789.1	1055.82	-29748.1	0.000000	0.000000	6.602964	-0.017478	NaN	0.000000	0.001620	0.001742	28.0815	0.172302	0.001957	88.0485	-169.807	-168.147	-0.035095	0.601989	-0.543780	-0.545077	-0.017478	88.0485	-0.543631	-1.385827E+7	1.261214E-9	NaN
1053	1.000000	0.613316	7.37535e+06	-52789.1	1055.82	-29748.1	0.000000	0.000000	6.612995	-0.008361	NaN	0.000000	0.001631	0.001773	28.0815	0.056932	0.002136	26.6562	-25.2625	10.9479	0.019663	0.611956	-0.533750	-0.535110	-0.008361	26.6562	-0.533514	-1.003157E+7	8.334331E-10	NaN
1053	1.000000	0.623315	7.37535e+06	-52789.1	1055.82	-29748.1	0.000000	0.000000	6.622994	-0.018258	NaN	0.000000	0.001651	0.001733	28.0815	0.093396	0.002056	45.4298	-151.91	-167.548	-0.032839	0.622017	-0.523750	-0.525049	-0.018258	45.4298	-0.523449	-7.27032e+06	2.511248E-9	NaN
1053	1.000000	0.633324	7.37535e+06	-52789.1	1055.82	-29748.1	0.000000	0.000000	6.632999	-0.090587	NaN	0.000000	0.001614	0.001725	28.0816	0.035058	0.002039	17.1916	-121.78	15.584	-0.120786	0.631911	-0.513742	-0.515155	-0.090587	17.1916	-0.509790	-4.69342e+06	1.930087E-8	NaN
1053	1.000000	0.643321	7.37535e+06	-52789.1	1055.82	-29748.1	0.000000	0.000000	6.642999	-0.008841	NaN	0.000000	0.001589	0.001770	28.0815	0.016048	0.002088	7.686690	-175.372	-167.048	-0.063823	0.642008	-0.503745	-0.505058	-0.008841	7.686690	-0.502883	-3.76032e+06	2.351030E-9	NaN
1053	1.000000	0.653294	7.37535e+06	-52789.1	1055.82	-29748.1	0.000000	0.000000	6.652971	-0.048617	NaN	0.000000	0.001618	0.001714	28.0819	0.039566	0.002067	19.1421	132.858	16.1328	-0.134991	0.652030	-0.493772	-0.495036	-0.048617	19.1421	-0.491867	-2.63923e+06	1.842105E-8	NaN
1053	1.000000	0.663331	7.37535e+06	-52789.1	1055.82	-29748.1	0.000000	0.000000	6.663007	-0.062593	NaN	0.000000	0.001655	0.001732	28.0817	0.077371	0.001884	41.0732	-8.786211	-169.712	-0.110989	0.661990	-0.483735	-0.485076	-0.062593	41.0732	-0.482592	-1.95795e+06	3.196831E-8	NaN
1053	1.000000	0.673333	7.37535e+06	-52789.1	1055.82	-29748.1	0.000000	0.000000	6.673013	0.007081	NaN	0.000000	0.001676	0.001708	28.0817	0.070876	0.001989	35.6333	70.8012	13.7371	0.002945	0.671989	-0.473732	-0.475077	0.007081	35.6333	-0.473881	-1.47852e+06	-4.789249E-9	NaN
1053	1.000000	0.683329	7.37535e+06	-52789.1	1055.82	-29748.1	0.000000	0.000000	6.683007	-0.018627	NaN	0.000000	0.001663	0.001708	28.0815	0.054984	0.001977	27.8168	-33.9928	-166.271	0.003797	0.682014	-0.463737	-0.465052	-0.018627	27.8168	-0.463234	-1.04823e+06	1.776958E-8	NaN
1053	1.000000	0.693293	7.37535e+06	-52789.1	1055.82	-29748.1	0.000000	0.000000	6.692971	-0.023931	NaN	0.000000	0.001718	0.001664	28.0818	0.021482	0.001848	11.6242	33.3614	14.2789	0.010073	0.692028	-0.453773	-0.455038	-0.023931	11.6242	-0.452229	-734046	3.260101E-8	NaN
1053	1.000000	0.703352	7.37535e+06	-52789.1	1055.82	-29748.1	0.000000	0.000000	6.703026	-0.107800	NaN	0.000000	0.001654	0.001749	28.0815	0.023888	0.001979	12.0682	75.7759	-167.038	-0.069136	0.702046	-0.443714	-0.445020	-0.107800	12.0682	-0.437015	-447933	2.406619E-7	NaN
1053	1.000000	0.713331	7.37535e+06	-52789.1	1055.82	-29748.1	0.000000	0.000000	6.713005	-0.122891	NaN	0.000000	0.001693	0.001762	28.0816	0.026995	0.002039	13.2407	147.678	15.8242	-0.164715	0.712025	-0.433735	-0.435041	-0.122891	13.2407	-0.426774	-320928	3.829231E-7	NaN
1053	1.000000	0.723324	7.37535e+06	-52789.1	1055.82	-29748.1	0.000000	0.000000	6.723001	-0.030646	NaN	0.000000	0.001650	0.001762	28.0817	0.054219	0.001989	27.2614	-129.216	-166.375	-0.054466	0.722064	-0.423742	-0.425002	-0.030646	27.2614	-0.422899	-282823	1.083566E-7	NaN
1053	1.000000	0.733358	7.37535e+06	-52789.1	1055.82	-29748.1	0.000000	0.000000	6.733035	-0.049125	NaN	0.000000	0.001638	0.001763	28.0829	0.077878	0.002033	38.3154	-130.754	13.3936	-0.012808	0.731974	-0.413708	-0.415092	-0.049125	38.3154	-0.412746	-202974	2.420243E-7	NaN
1053	1.000000	0.743338	7.37535e+06	-52789.1	1055.82	-29748.1	0.000000	0.000000	6.743016	-0.045595	NaN	0.000000	0.001629	0.001792	28.0829	0.113927	0.001928	59.1032	-39.9912	-166.096	0.031518	0.742032	-0.403727	-0.405034	-0.045595	59.1032	-0.403149	-148211	3.076345E-7	NaN
1053	1.000000	0.753393	7.37535e+06	-52789.1	1055.82	-29748.1	0.000000	0.000000	6.753068	-0.088041	NaN	0.000000	0.001656	0.001773	28.083	0.029633	0.001937	15.3022	68.7786	15.1447	-0.096999	0.752018	-0.393673	-0.395048	-0.088041	15.3022	-0.389358	-94184.5	9.347712E-7	NaN
1053	1.000000	0.763355	7.37535e+06	-52789.1	1055.82	-29748.1	0.000000	0.000000	6.763031	-0.071543	NaN	0.000000	0.001610	0.001736	28.0836	0.027267	0.001809	15.0745	-42.7998	-164.146	-0.026632	0.762034	-0.383711	-0.385032	-0.071543	15.0745	-0.380152	-69513.2	1.029202E-6	NaN
1053	1.000000	0.773382	7.37535e+06	-52789.1	1055.82	-29748.1	0.000000	0.000000	6.773058	-0.055111	NaN	0.000000	0.001622	0.001738	28.0828	0.062214	0.002058	30.229	142.286	12.875	-0.097892	0.771990	-0.373684	-0.375076	-0.055111	30.229	-0.372317	-53638.9	1.027443E-6	NaN
1053	1.000000	0.783360	7.37535e+06	-52789.1	1055.82	-29748.1	0.000000	0.000000	6.783040	0.016983	NaN	0.000000	0.001619	0.001797	28.0829	0.079145	0.002019	39.2082	86.3171	-167.952	-0.026270	0.782100	-0.363706	-0.364966	0.016983	39.2082	-0.364031	-40744.1	-4.168284E-7	NaN
1053	1.000000	0.793382	7.37535e+06	-52789.1	1055.82	-29748.1	0.000000	0.000000	6.793060	-0.036373	NaN	0.000000	0.001602	0.001789	28.083	0.038676	0.002077	18.6176	175.147	9.178825	0.020993	0.792021	-0.353684	-0.355045	-0.036373	18.6176	-0.352218	-27490.7	1.323118E-6	NaN
1053	1.000000	0.803369	7.37535e+06	-52789.1	1055.82	-29748.1	0.000000	0.000000	6.803047	-0.015303	NaN	0.000000	0.001608	0.001783	28.0832	0.072134	0.002032	35.5003	-107.153	-167.467	-0.011091	0.802101	-0.343697	-0.344964	-0.015303	35.5003	-0.343374	-20450.2	7.482972E-7	NaN
1053	1.000000	0.813394	7.37535e+06	-52789.1	1055.82	-29748.1	0.000000	0.000000	6.813072	-0.004207	NaN	0.000000	0.001626	0.001701	28.0828	0.077140	0.001867	41.3159	158.121	11.6731	-0.013985	0.812005	-0.333672	-0.335061	-0.004207	41.3159	-0.333596	-14725.4	2.856981E-7	NaN
1053	1.000000	0.823405	7.37535e+06	-52789.1	1055.82	-29748.1	0.000000	0.000000	6.823083	-0.016221	NaN	0.000000	0.001576	0.001683	28.083	0.054204	0.002039	26.5891	-116.295	-167.107	-0.022581	0.822058	-0.323661	-0.325008	-0.016221	26.5891	-0.323203	-10369.2	1.564371E-6	NaN
1053	1.000000	0.833411	7.37535e+06	-52789.1	1055.82	-29748.1	0.000000	0.000000	6.833088	-0.048786	NaN	0.000000	0.001602	0.001690	28.083	0.061725	0.001978	31.1997	108.857	14.8091	-0.081504	0.832057	-0.313655	-0.315009	-0.048786	31.1997	-0.312482	-7207.22	6.769085E-6	NaN
1053	1.000000	0.843384	7.37535e+06	-52789.1	1055.82	-29748.1	0.000000	0.000000	6.843063	0.020337	NaN	0.000000	0.001650	0.001676	28.0828	0.052543	0.001957	26.8519	158.279	-167.16	-0.049717	0.842045	-0.303682	-0.305021	0.020337	26.8519	-0.304250	-5442.85	-3.736496E-6	NaN
1053	1.000000	0.853431	7.37535e+06	-52789.1	1055.82	-29748.1	0.000000	0.000000	6.853108	-0.059990	NaN	0.000000	0.001640	0.001733	28.0828	0.173885	0.001958	88.7971	21.9846	13.9015	0.005716	0.852027	-0.293635	-0.295038	-0.059990	88.7971	-0.293128	-3716.35	1.614229E-5	NaN
1053	1.000000	0.863420	7.37535e+06	-52789.1	1055.82	-29748.1	0.000000	0.000000	6.863098	-0.020304	NaN	0.000000	0.001622	0.001703	28.083	0.065692	0.002047	32.0892	-177.412	-166.516	0.035185	0.862099	-0.283646	-0.284967	-0.020304	32.0892	-0.283171	-2634.86	7.705773E-6	NaN
1053	1.000000	0.873400	7.37535e+06	-52789.1	1055.82	-29748.1	0.000000	0.000000	6.873077	-0.042362	NaN	0.000000	0.001604	0.001725	28.0818	0.072688	0.002085	34.8578	-55.3451	13.3069	-0.033454	0.872035	-0.273666	-0.275031	-0.042362	34.8578	-0.272755	-1833.9	2.309958E-5	NaN
1053	1.000000	0.883423	7.37535e+06	-52789.1	1055.82	-29748.1	0.000000	0.000000	6.883102	0.002167	NaN	0.000000	0.001593	0.001714	28.0816	0.105050	0.002093	50.1819	-99.3841	-167.641	-0.010001	0.882086	-0.263643	-0.264980	0.002167	50.1819	-0.263675	-1334	-1.624188E-6	NaN
1053	1.000000	0.893422	7.37535e+06	-52789.1	1055.82	-29748.1	0.000000	0.000000	6.893099	-0.039275	NaN	0.000000	0.001654	0.001704	28.0816	0.106115	0.001981	53.5776	-128.678	11.7393	-0.038564	0.892101	-0.253644	-0.254965	-0.039275	53.5776	-0.253094	-917.808	4.279210E-5	NaN
1053	1.000000	0.903431	7.37535e+06	-52789.1	1055.82	-29748.1	0.000000	0.000000	6.903107	-0.072435	NaN	0.000000	0.001625	0.001720	28.0819	0.108845	0.001956	55.6548	169.599	-167.49	-0.022386	0.902100	-0.243635	-0.244965	-0.072435	55.6548	-0.242659	-632.445	0.000115	NaN
1053	1.000000	0.913434	7.37535e+06	-52789.1	1055.82	-29748.1	0.000000	0.000000	6.913114	0.030355	NaN	0.000000	0.001623	0.001671	28.0817	0.047205	0.001982	23.8217	114.227	15.4177	-0.000610	0.912077	-0.233632	-0.234989	0.030355	23.8217	-0.234588	-472.903	-6.418831E-5	NaN
1053	1.000000	0.923447	7.37535e+06	-52789.1	1055.82	-29748.1	0.000000	0.000000	6.923126	0.001871	NaN	0.000000	0.001587	0.001721	28.0817	0.047616	0.001994	23.8752	-24.3739	-166.558	0.005433	0.922141	-0.223619	-0.224925	0.001871	23.8752	-0.223677	-317.916	-5.886482E-6	NaN
1053	1.000000	0.933458	7.37535e+06	-52789.1	1055.82	-29748.1	0.000000	0.000000	6.933135	-0.033316	NaN	0.000000	0.001599	0.001693	28.0815	0.075079	0.002035	36.9028	31.655	15.0945	0.004242	0.932074	-0.213608	-0.214991	-0.033316	36.9028	-0.212931	-213.891	0.000156	NaN
1053	1.000000	0.943432	7.37535e+06	-52789.1	1055.82	-29748.1	0.000000	0.000000	6.943109	-0.042074	NaN	0.000000	0.001599	0.001747	28.0819	0.078993	0.001962	40.27	-103.6	-168.753	-0.001346	0.942150	-0.203634	-0.204916	-0.042074	40.27	-0.202850	-146.703	0.000287	NaN
1053	1.000000	0.953436	7.37535e+06	-52789.1	1055.82	-29748.1	0.000000	0.000000	6.953112	-0.068657	NaN	0.000000	0.001576	0.001720	28.0816	0.052619	0.002051	25.6518	2.077756	12.6567	-0.089019	0.952062	-0.193630	-0.195004	-0.068657	25.6518	-0.191622	-95.7398	0.000717	NaN
1053	1.000000	0.963453	7.37535e+06	-52789.1	1055.82	-29748.1	0.000000	0.000000	6.963133	0.013793	NaN	0.000000	0.001618	0.001663	28.0814	0.100135	0.002087	47.9737	-69.4476	-167.832	-0.019014	0.962086	-0.183613	-0.184980	0.013793	47.9737	-0.183828	-70.8538	-0.000195	NaN
1053	1.000000	0.973459	7.37535e+06	-52789.1	1055.82	-29748.1	0.000000	0.000000	6.973138	0.004570	NaN	0.000000	0.001583	0.001733	28.0814	0.037041	0.002044	18.1226	133.203	15.4385	-0.059722	0.972092	-0.173607	-0.174974	0.004570	18.1226	-0.173796	-47.782	-9.564858E-5	NaN
1053	1.000000	0.983437	7.37535e+06	-52789.1	1055.82	-29748.1	0.000000	0.000000	6.983114	-0.044614	NaN	0.000000	0.001598	0.001683	28.0816	0.072812	0.002072	35.1484	-67.3255	-167.179	-0.014068	0.982172	-0.163629	-0.164894	-0.044614	35.1484	-0.162677	-30.5779	0.001459	NaN
1053	1.000000	0.993456	7.37535e+06	-52789.1	1055.82	-29748.1	0.000000	0.000000	6.993134	-0.016476	NaN	0.000000	0.001608	0.001719	28.0815	0.076698	0.002042	37.5522	170.231	15.1707	-0.040692	0.992081	-0.153610	-0.154985	-0.016476	37.5522	-0.153281	-20.7765	0.000793	NaN
1053	1.000000	1.003492	7.37535e+06	-52789.1	1055.82	-29748.1	0.000000	0.000000	7.003170	-0.007890	NaN	0.000000	0.001622	0.001738	28.0827	0.023670	0.002020	11.7153	5.558713	-169.531	0.023866	1.002139	-0.143574	-0.144926	-0.007890	11.7153	-0.143069	-13.5002	0.000584	NaN
1053	1.000000	1.013469	7.37535e+06	-52789.1	1055.82	-29748.1	0.000000	0.000000	7.013148	0.010831	NaN	0.000000	0.001630	0.001720	28.0831	0.083670	0.001957	42.75	-10.5119	12.8042	0.022306	1.012066	-0.133597	-0.135000	0.010831	42.75	-0.133787	-9.017497	-0.001201	NaN
1053	1.000000	1.023459	7.37535e+06	-52789.1	1055.82	-29748.1	0.000000	0.000000	7.023138	-0.019655	NaN	0.000000	0.001655	0.001647	28.0828	0.072426	0.001900	38.127	4.665839	-163.921	-0.011902	1.022177	-0.123606	-0.124889	-0.019655	38.127	-0.123220	-5.605928	0.003506	NaN
1053	1.000000	1.033483	7.37535e+06	-52789.1	1055.82	-29748.1	0.000000	0.000000	7.033158	-0.094057	NaN	0.000000	0.001594	0.001686	28.0829	0.137244	0.001993	68.8683	164.464	15.5561	-0.085848	1.032129	-0.113583	-0.114937	-0.094057	68.8683	-0.112559	-3.400252	0.027662	NaN
1053	1.000000	1.043509	7.37535e+06	-52789.1	1055.82	-29748.1	0.000000	0.000000	7.043188	0.014128	NaN	0.000000	0.001650	0.001687	28.0827	0.029994	0.002082	14.4062	-142.442	-162.913	0.018207	1.042176	-0.103557	-0.104890	0.014128	14.4062	-0.104293	-2.269167	-0.006226	NaN
1053	1.000000	1.053465	7.37535e+06	-52789.1	1055.82	-29748.1	0.000000	0.000000	7.053141	-0.079433	NaN	0.000000	0.001641	0.001686	28.0832	0.101131	0.001844	54.8506	74.2382	12.0504	-0.058851	1.052097	-0.093600	-0.094969	-0.079433	54.8506	-0.092514	-1.237001	0.064214	NaN
1053	1.000000	1.063495	7.37535e+06	-52789.1	1055.82	-29748.1	0.000000	0.000000	7.063172	-0.055799	NaN	0.000000	0.001603	0.001672	28.0827	0.075628	0.001978	38.2338	-22.2906	-165.794	-0.094067	1.062155	-0.083570	-0.084911	-0.055799	38.2338	-0.082476	-0.712999	0.078260	NaN
1053	1.000000	1.073484	7.37535e+06	-52789.1	1055.82	-29748.1	0.000000	0.000000	7.073162	-0.027619	NaN	0.000000	0.001589	0.001694	28.0829	0.102733	0.001955	52.5485	144.441	11.9872	-0.073804	1.072164	-0.073582	-0.074902	-0.027619	52.5485	-0.073188	-0.414329	0.066659	NaN
1053	1.000000	1.083511	7.37535e+06	-52789.1	1055.82	-29748.1	0.000000	0.000000	7.083189	-0.020601	NaN	0.000000	0.001576	0.001688	28.0827	0.065644	0.002039	32.2004	172.1	-166.44	-0.024433	1.082236	-0.063555	-0.064830	-0.020601	32.2004	-0.063075	-0.220209	0.093553	NaN
1053	1.000000	1.093523	7.37535e+06	-52789.1	1055.82	-29748.1	0.000000	0.000000	7.093199	-0.069996	NaN	0.000000	0.001596	0.001717	28.083	0.093925	0.001953	48.1043	-127.035	16.2889	-0.093924	1.092113	-0.053543	-0.054953	-0.069996	48.1043	-0.052451	-0.108147	0.647229	NaN
1053	1.000000	1.103536	7.37535e+06	-52789.1	1055.82	-29748.1	0.000000	0.000000	7.103212	-0.064143	NaN	0.000000	0.001624	0.001720	28.0826	0.036445	0.002068	17.6217	-96.3779	-164.01	-0.042176	1.102166	-0.043530	-0.044900	-0.064143	17.6217	-0.040800	-0.047828	1.341116	NaN
1053	1.000000	1.113498	7.37535e+06	-52789.1	1055.82	-29748.1	0.000000	0.000000	7.113177	0.004502	NaN	0.000000	0.001638	0.001678	28.0826	0.065328	0.001982	32.9547	-122.951	13.4471	0.007205	1.112087	-0.033568	-0.034978	0.004502	32.9547	-0.033670	-0.029279	-0.153755	NaN
1053	1.000000	1.123494	7.37535e+06	-52789.1	1055.82	-29748.1	0.000000	0.000000	7.123171	-0.060701	NaN	0.000000	0.001582	0.001707	28.0827	0.036812	0.002050	17.9606	2.807599	-163.48	-0.033980	1.122149	-0.023572	-0.024917	-0.060701	17.9606	-0.021037	-0.013347	4.548025	NaN
1053	1.000000	1.133502	7.37535e+06	-52789.1	1055.82	-29748.1	0.000000	0.000000	7.133182	0.033794	NaN	0.000000	0.001589	0.001694	28.0827	0.069956	0.002015	34.7109	-140.673	11.8879	0.016784	1.132165	-0.013564	-0.014901	0.033794	34.7109	-0.014294	-0.008856	-3.815864	NaN
1053	1.000000	1.143492	7.37535e+06	-52789.1	1055.82	-29748.1	0.000000	0.000000	7.143188	0.411906	NaN	0.000000	0.001582	0.001711	28.0813	0.782109	0.002087	374.79	13.738	-167.216	0.063616	1.142192	-0.003574	-0.004874	0.411906	374.79	-0.004398	-0.003035	-135.716	NaN
1053	2.000000	1.151623	7.37535e+06	-52789.1	1055.82	-29748.1	0.000000	0.000000	7.151664	8.792154	NaN	0.000000	0.001608	0.001705	28.0816	9.451969	0.001678	5632.25	6.036149	8.484934	8.429214	1.151279	0.004557	0.004213	8.792154	5632.25	0.003387	0.002708	3246.75	98885.2
1053	2.000000	1.154064	7.37535e+06	-52789.1	1055.82	-29748.1	0.000000	0.000000	7.154284	13.1574	NaN	0.000000	0.001597	0.001705	28.0816	12.9836	0.001737	7472.78	4.760898	-173.763	12.1146	1.153836	0.006998	0.006770	13.1574	7472.78	0.005677	0.004760	2764.09	98957
1053	2.000000	1.156582	7.37535e+06	-52789.1	1055.82	-29748.1	0.000000	0.000000	7.156899	15.523	NaN	0.000000	0.001678	0.001710	28.0815	14.8228	0.001654	8961.05	6.459702	5.238150	14.3172	1.156193	0.009516	0.009127	15.523	8961.05	0.008217	0.007266	2136.26	96044.1
1053	2.000000	1.159084	7.37535e+06	-52789.1	1055.82	-29748.1	0.000000	0.000000	7.159699	22.7671	NaN	0.000000	0.001674	0.001706	28.0812	18.5235	0.001772	10451.6	12.4971	178.936	23.4281	1.158694	0.012018	0.011628	22.7671	10451.6	0.010384	0.009612	2368.71	97399.9
1053	2.000000	1.161536	7.37535e+06	-52789.1	1055.82	-29748.1	0.000000	0.000000	7.162259	25.3758	NaN	0.000000	0.001678	0.001700	28.0815	20.8834	0.001847	11308.6	9.525846	-0.454111	22.9769	1.161229	0.014470	0.014163	25.3758	11308.6	0.012787	0.012447	2038.7	92608.1
1053	2.000000	1.164018	7.37535e+06	-52789.1	1055.82	-29748.1	0.000000	0.000000	7.164965	30.83	NaN	0.000000	0.001585	0.001723	28.0815	22.7372	0.001751	12987.8	4.396885	-176.411	30.3524	1.163771	0.016952	0.016705	30.83	12987.8	0.015172	0.015515	1987.08	95264
1053	2.000000	1.166491	7.37535e+06	-52789.1	1055.82	-29748.1	0.000000	0.000000	7.167718	37.6302	NaN	0.000000	0.001572	0.001701	28.0814	25.8683	0.001709	15138.3	8.034761	-1.931236	33.7251	1.166091	0.019426	0.019025	37.6302	15138.3	0.017561	0.018854	1995.87	100727
1053	2.000000	1.168996	7.37535e+06	-52789.1	1055.82	-29748.1	0.000000	0.000000	7.170424	42.5302	NaN	0.000000	0.001587	0.001714	28.0815	29.0286	0.001826	15893.2	10.3259	176.303	41.9511	1.168699	0.021930	0.021634	42.5302	15893.2	0.019923	0.022421	1896.89	96974.1
1053	2.000000	1.171511	7.37535e+06	-52789.1	1055.82	-29748.1	0.000000	0.000000	7.173124	47.0127	NaN	0.000000	0.001556	0.001723	28.0819	30.3666	0.001739	17464.2	4.366741	0.751068	45.6377	1.171263	0.024445	0.024197	47.0127	17464.2	0.022426	0.026499	1774.12	98018.1
1053	2.000000	1.174014	7.37535e+06	-52789.1	1055.82	-29748.1	0.000000	0.000000	7.175992	55.9061	NaN	0.000000	0.001561	0.001699	28.0816	34.2088	0.001937	17663	6.543800	178.942	55.1113	1.173724	0.026948	0.026658	55.9061	17663	0.024574	0.030246	1848.39	92791
1053	2.000000	1.176481	7.37535e+06	-52789.1	1055.82	-29748.1	0.000000	0.000000	7.178697	61.7035	NaN	0.000000	0.001575	0.001671	28.0819	34.7012	0.001717	20210.5	1.791439	2.345533	58.9346	1.176207	0.029415	0.029141	61.7035	20210.5	0.027125	0.034995	1763.2	98706.6
1053	2.000000	1.179008	7.37535e+06	-52789.1	1055.82	-29748.1	0.000000	0.000000	7.181789	75.429	NaN	0.000000	0.001592	0.001684	28.0813	37.4633	0.001699	22051.7	3.864909	179.118	75.926	1.178680	0.031942	0.031615	75.429	22051.7	0.029376	0.039461	1911.47	101422
1053	2.000000	1.181485	7.37535e+06	-52789.1	1055.82	-29748.1	0.000000	0.000000	7.184605	83.6449	NaN	0.000000	0.001568	0.001689	28.082	40.7544	0.001686	24172.1	8.379934	-6.511432	81.5104	1.181090	0.034420	0.034024	83.6449	24172.1	0.031824	0.044610	1875.04	104562
1053	2.000000	1.183993	7.37535e+06	-52789.1	1055.82	-29748.1	0.000000	0.000000	7.187353	89.4991	NaN	0.000000	0.001588	0.001693	28.0826	44.1966	0.001979	22337.5	6.503773	177.435	88.7261	1.183636	0.036927	0.036570	89.4991	22337.5	0.033922	0.049265	1816.68	91947.3
1053	2.000000	1.186503	7.37535e+06	-52789.1	1055.82	-29748.1	0.000000	0.000000	7.190304	100.215	NaN	0.000000	0.001569	0.001700	28.0834	45.3222	0.001839	24642	2.420245	-0.086992	98.2197	1.186064	0.039437	0.038998	100.215	24642	0.036387	0.055025	1821.26	95977.5
1053	2.000000	1.188966	7.37535e+06	-52789.1	1055.82	-29748.1	0.000000	0.000000	7.193107	108.501	NaN	0.000000	0.001589	0.001739	28.0827	47.3918	0.001711	27704.7	5.375438	174.844	107.929	1.188743	0.041900	0.041677	108.501	27704.7	0.038962	0.061375	1767.85	102172
1053	2.000000	1.191403	7.37535e+06	-52789.1	1055.82	-29748.1	0.000000	0.000000	7.196311	127.139	NaN	0.000000	0.001601	0.001715	28.0829	50.0036	0.001781	28073.3	3.021114	-1.936747	123.25	1.191075	0.044337	0.044009	127.139	28073.3	0.040940	0.066481	1912.4	99475.7
1053	2.000000	1.194021	7.37535e+06	-52789.1	1055.82	-29748.1	0.000000	0.000000	7.199145	132.398	NaN	0.000000	0.001601	0.001738	28.0826	53.4069	0.001783	29945.6	4.649848	176.176	134.444	1.193602	0.046955	0.046536	132.398	29945.6	0.043639	0.073770	1794.74	100731
1053	2.000000	1.196449	7.37535e+06	-52789.1	1055.82	-29748.1	0.000000	0.000000	7.202155	146.528	NaN	0.000000	0.001569	0.001734	28.0832	54.7935	0.001816	30177.5	7.533371	-5.878523	143.386	1.196109	0.049383	0.049043	146.528	30177.5	0.045742	0.079707	1838.35	97658.3
1053	2.000000	1.198927	7.37535e+06	-52789.1	1055.82	-29748.1	0.000000	0.000000	7.205078	157.354	NaN	0.000000	0.001535	0.001742	28.0828	56.5903	0.001769	31987.3	2.671939	177.48	153.416	1.198629	0.051862	0.051563	157.354	31987.3	0.048172	0.086847	1811.85	99168.4
1053	2.000000	1.201434	7.37535e+06	-52789.1	1055.82	-29748.1	0.000000	0.000000	7.208077	169.338	NaN	0.000000	0.001550	0.001713	28.0828	59.4167	0.001799	33029	6.787381	-5.953448	166.211	1.201063	0.054368	0.053997	169.338	33029	0.050523	0.094035	1800.79	98406.5
1053	2.000000	1.203946	7.37535e+06	-52789.1	1055.82	-29748.1	0.000000	0.000000	7.210924	177.457	NaN	0.000000	0.001550	0.001741	28.0826	63.0383	0.001860	33882.8	5.680045	173.554	174.971	1.203697	0.056880	0.056632	177.457	33882.8	0.052952	0.101757	1743.93	97044.2
1053	2.000000	1.206529	7.37535e+06	-52789.1	1055.82	-29748.1	0.000000	0.000000	7.214025	190.065	NaN	0.000000	0.001537	0.001732	28.0828	63.9303	0.001748	36577.8	1.369045	-2.577695	189.107	1.206171	0.059463	0.059105	190.065	36577.8	0.055566	0.110390	1721.76	100583
1053	2.000000	1.208958	7.37535e+06	-52789.1	1055.82	-29748.1	0.000000	0.000000	7.217094	205.626	NaN	0.000000	0.001548	0.001768	28.0829	66.4613	0.001662	39993.9	7.837843	170.356	206.738	1.208608	0.061892	0.061543	205.626	39993.9	0.058036	0.118860	1729.99	105986
1053	2.000000	1.211349	7.37535e+06	-52789.1	1055.82	-29748.1	0.000000	0.000000	7.219974	217.514	NaN	0.000000	0.001547	0.001766	28.0827	70.1153	0.001910	36713.3	4.482393	-5.251057	210.013	1.211131	0.064283	0.064066	217.514	36713.3	0.059839	0.125233	1736.88	94784.6
1053	2.000000	1.213943	7.37535e+06	-52789.1	1055.82	-29748.1	0.000000	0.000000	7.223213	233.182	NaN	0.000000	0.001581	0.001771	28.0826	71.5957	0.001824	39255.9	2.641577	175.853	231.902	1.213656	0.066877	0.066590	233.182	39255.9	0.062422	0.134637	1731.93	97745.1
1053	2.000000	1.216543	7.37535e+06	-52789.1	1055.82	-29748.1	0.000000	0.000000	7.226433	248.268	NaN	0.000000	0.001559	0.001716	28.0816	74.1386	0.001881	39410.9	5.294167	-5.739471	250.004	1.216119	0.069477	0.069053	248.268	39410.9	0.064753	0.143400	1731.29	95085.5
1053	2.000000	1.218873	7.37535e+06	-52789.1	1055.82	-29748.1	0.000000	0.000000	7.229688	270.778	NaN	0.000000	0.001534	0.001758	28.0815	75.6551	0.001717	44057.2	9.771359	167.919	265.858	1.218515	0.071807	0.071450	270.778	44057.2	0.067197	0.152874	1771.25	102949
1053	2.000000	1.221480	7.37535e+06	-52789.1	1055.82	-29748.1	0.000000	0.000000	7.232700	280.596	NaN	0.000000	0.001589	0.001741	28.0814	78.6933	0.001829	43021.9	5.371742	-6.959491	280.306	1.221071	0.074414	0.074005	280.596	43021.9	0.069523	0.162152	1730.45	97611.5
1053	2.000000	1.223915	7.37535e+06	-52789.1	1055.82	-29748.1	0.000000	0.000000	7.235735	295.18	NaN	0.000000	0.001565	0.001724	28.0814	80.9253	0.001789	45228.3	3.487759	173.81	291.44	1.223623	0.076850	0.076557	295.18	45228.3	0.071955	0.172131	1714.86	99598.9
1053	2.000000	1.226506	7.37535e+06	-52789.1	1055.82	-29748.1	0.000000	0.000000	7.239066	313.186	NaN	0.000000	0.001609	0.001766	28.0814	82.4337	0.001722	47862.9	4.431500	-6.826882	314.175	1.226033	0.079441	0.078967	313.186	47862.9	0.074533	0.183015	1711.26	102218
1053	2.000000	1.228912	7.37535e+06	-52789.1	1055.82	-29748.1	0.000000	0.000000	7.242209	331.117	NaN	0.000000	0.001584	0.001782	28.0815	84.0865	0.001725	48740.4	4.557094	172.733	328.811	1.228542	0.081846	0.081476	331.117	48740.4	0.076751	0.192628	1718.94	101462
1053	2.000000	1.231481	7.37535e+06	-52789.1	1055.82	-29748.1	0.000000	0.000000	7.245368	345.451	NaN	0.000000	0.001580	0.001757	28.0813	87.2558	0.001745	49993.8	8.864325	-11.2612	346.975	1.230975	0.084415	0.083909	345.451	49993.8	0.079232	0.203658	1696.23	101213
1053	2.000000	1.233967	7.37535e+06	-52789.1	1055.82	-29748.1	0.000000	0.000000	7.248292	356.112	NaN	0.000000	0.001640	0.001705	28.0816	89.1053	0.001679	53067.1	1.861746	174.517	356.47	1.233706	0.086901	0.086640	356.112	53067.1	0.081868	0.215687	1651.06	104397
1053	2.000000	1.236507	7.37535e+06	-52789.1	1055.82	-29748.1	0.000000	0.000000	7.251685	376.848	NaN	0.000000	0.001642	0.001692	28.0816	92.1934	0.001781	51762.2	6.295867	-8.739588	378.266	1.236070	0.089441	0.089005	376.848	51762.2	0.083981	0.225565	1670.69	99575
1053	2.000000	1.238851	7.37535e+06	-52789.1	1055.82	-29748.1	0.000000	0.000000	7.254772	394.917	NaN	0.000000	0.001661	0.001712	28.0814	94.6423	0.001826	51835.7	8.182476	168.229	388.841	1.238600	0.091785	0.091534	394.917	51835.7	0.086071	0.235536	1676.67	97582.9
1053	2.000000	1.241388	7.37535e+06	-52789.1	1055.82	-29748.1	0.000000	0.000000	7.258036	412.576	NaN	0.000000	0.001644	0.001713	28.0814	97.2651	0.001765	55117	4.468169	-7.823044	409.054	1.241100	0.094323	0.094034	412.576	55117	0.088709	0.248410	1660.87	101036
1053	2.000000	1.243857	7.37535e+06	-52789.1	1055.82	-29748.1	0.000000	0.000000	7.261486	436.432	NaN	0.000000	0.001629	0.001728	28.0814	100.125	0.001820	55022.8	1.027782	175.46	431.774	1.243548	0.096791	0.096482	436.432	55022.8	0.090842	0.259056	1684.7	98768.7
1053	2.000000	1.246409	7.37535e+06	-52789.1	1055.82	-29748.1	0.000000	0.000000	7.264916	457.782	NaN	0.000000	0.001662	0.001727	28.0814	102.562	0.001776	57762.6	6.251680	-9.898634	454.536	1.246107	0.099343	0.099041	457.782	57762.6	0.093399	0.272091	1682.46	101173
1053	2.000000	1.248923	7.37535e+06	-52789.1	1055.82	-29748.1	0.000000	0.000000	7.268174	475.865	NaN	0.000000	0.001640	0.001745	28.0813	104.034	0.001756	59255.4	5.129424	170.699	475.04	1.248630	0.101857	0.101565	475.865	59255.4	0.095834	0.284783	1670.98	101448
1053	2.000000	1.249345	7.37535e+06	-52789.1	1055.82	-29748.1	0.000000	0.000000	7.268803	480.897	NaN	0.000000	0.001643	0.001723	28.0814	103.928	0.001852	56109.7	3.018221	-6.609376	475.703	1.249099	0.102279	0.102033	480.897	56109.7	0.095851	0.284872	1688.11	96047.4