File: remote_trans/data/nanoindenter/0828-1/data/Data_2025-08-06,11h17m57s/2025-07-22_16-23-58_1_185.txt
2025-07-22, 16:23:58, 1
Index	Phase	Displacement	Time	Pos X	Pos Y	Pos Z	Rot A	Rot B	Piezo Z	Force A	Force B	Gripper	Voltage A	Voltage B	Temperature	Amplitude force	Amplitude pos	Stiffness	Phase shift	Phase excitation	Force A raw	Displacement raw	HMax	HMax raw	Real Force	Real Stiffness	Contact Depth	Area	Hardness	Reduced Mod.
[#]	[#]	[um]	[s]	[um]	[um]	[um]	[m°]	[m°]	[um]	[uN]	[uN]	[V]	[V]	[V]	[°C]	[uN]	[um]	[N/m]	[°]	[°]	[uN]	[um]	[um]	[um]	[uN]	[N/m]	[um]	[um^2]	[MPa]	[MPa]
185	1.000000	0.002955	7.36685e+06	-47889.1	955.819	-29764.9	0.000000	0.000000	6.002837	0.035319	NaN	0.000000	0.001619	0.001678	28.0797	0.082615	0.001081	76.4516	-109.724	-169.56	0.031525	0.001698	-1.005758	-1.007016	0.035319	76.4516	-1.006105	-2.741282E+13	-1.288399E-15	NaN
185	1.000000	0.010888	7.36685e+06	-47889.1	955.818	-29764.9	0.000000	0.000000	6.010771	0.087348	NaN	0.000000	0.001605	0.001667	28.0795	0.050205	0.000927	54.1596	2.147530	-158.819	0.129263	0.009591	-0.997826	-0.999122	0.087348	54.1596	-0.999036	-2.201846E+13	-3.967055E-15	NaN
185	1.000000	0.018873	7.36685e+06	-47889.1	955.819	-29764.9	0.000000	0.000000	6.018753	0.021791	NaN	0.000000	0.001559	0.001664	28.0796	0.041324	0.001585	26.067	134.576	-162.742	0.048340	0.017513	-0.989841	-0.991201	0.021791	26.067	-0.990468	-1.688170E+13	-1.290798E-15	NaN
185	1.000000	0.026948	7.36685e+06	-47889.1	955.819	-29764.9	0.000000	0.000000	6.026827	-0.015303	NaN	0.000000	0.001561	0.001649	28.0796	0.053842	0.001661	32.4216	89.5548	-164.774	0.019346	0.025572	-0.981766	-0.983142	-0.015303	32.4216	-0.981412	-1.274765E+13	1.200424E-15	NaN
185	1.000000	0.034898	7.36685e+06	-47889.1	955.818	-29764.9	0.000000	0.000000	6.034780	0.050632	NaN	0.000000	0.001585	0.001669	28.0795	0.092448	0.001888	48.9646	-68.6378	-163.471	0.066476	0.033543	-0.973816	-0.975170	0.050632	48.9646	-0.974591	-1.031663E+13	-4.907801E-15	NaN
185	1.000000	0.042894	7.36685e+06	-47889.1	955.818	-29764.9	0.000000	0.000000	6.042774	0.022899	NaN	0.000000	0.001577	0.001646	28.0797	0.062617	0.001829	34.2318	95.9945	-161.991	0.078859	0.041598	-0.965820	-0.967116	0.022899	34.2318	-0.966322	-7.981567E+12	-2.869018E-15	NaN
185	1.000000	0.050874	7.36685e+06	-47889.1	955.818	-29764.9	0.000000	0.000000	6.050754	0.020279	NaN	0.000000	0.001576	0.001630	28.0794	0.155438	0.002003	77.6189	-121.588	-166.303	-0.022181	0.049564	-0.957840	-0.959150	0.020279	77.6189	-0.958036	-6.171495E+12	-3.285966E-15	NaN
185	1.000000	0.058877	7.36685e+06	-47889.1	955.819	-29764.9	0.000000	0.000000	6.058756	-0.015056	NaN	0.000000	0.001591	0.001636	28.0782	0.116463	0.002033	57.2912	-163.259	-164.186	-0.101084	0.057598	-0.949837	-0.951116	-0.015056	57.2912	-0.949639	-4.755164E+12	3.166200E-15	NaN
185	1.000000	0.066902	7.36685e+06	-47889.1	955.818	-29764.9	0.000000	0.000000	6.066783	0.031401	NaN	0.000000	0.001596	0.001603	28.0783	0.034138	0.001972	17.3126	152.755	-163.667	-0.005992	0.065585	-0.941812	-0.943129	0.031401	17.3126	-0.943172	-3.889838E+12	-8.072494E-15	NaN
185	1.000000	0.074870	7.36685e+06	-47889.1	955.819	-29764.9	0.000000	0.000000	6.074752	0.041721	NaN	0.000000	0.001580	0.001695	28.0783	0.152601	0.002047	74.5413	-106.805	-164.288	0.043415	0.073575	-0.933844	-0.935139	0.041721	74.5413	-0.934263	-2.949409E+12	-1.414544E-14	NaN
185	1.000000	0.082885	7.36685e+06	-47889.1	955.818	-29764.9	0.000000	0.000000	6.082766	0.019061	NaN	0.000000	0.001552	0.001683	28.079	0.074916	0.001979	37.8567	-74.2897	-163.987	0.043499	0.081555	-0.925828	-0.927159	0.019061	37.8567	-0.926206	-2.296086E+12	-8.301319E-15	NaN
185	1.000000	0.090900	7.36685e+06	-47889.1	955.82	-29764.9	0.000000	0.000000	6.090780	0.002226	NaN	0.000000	0.001539	0.001689	28.0783	0.052894	0.002039	25.9404	61.135	-167.507	-0.025867	0.089605	-0.917814	-0.919108	0.002226	25.9404	-0.917878	-1.772377E+12	-1.256035E-15	NaN
185	1.000000	0.098876	7.36685e+06	-47889.1	955.819	-29764.9	0.000000	0.000000	6.098756	0.009257	NaN	0.000000	0.001572	0.001668	28.0783	0.068118	0.001928	35.3344	-105.333	-164.365	-0.010929	0.097597	-0.909837	-0.911117	0.009257	35.3344	-0.910034	-1.388743E+12	-6.665693E-15	NaN
185	1.000000	0.106930	7.36685e+06	-47889.1	955.818	-29764.9	0.000000	0.000000	6.106808	-0.037997	NaN	0.000000	0.001650	0.001693	28.0782	0.070450	0.002012	35.0075	177.105	-165.765	0.052734	0.105573	-0.901784	-0.903140	-0.037997	35.0075	-0.900970	-1.047535E+12	3.627249E-14	NaN
185	1.000000	0.114872	7.36685e+06	-47889.1	955.819	-29764.9	0.000000	0.000000	6.114752	-0.004071	NaN	0.000000	0.001642	0.001668	28.078	0.117188	0.001938	60.4727	-29.9639	-164.671	0.027769	0.113614	-0.893841	-0.895099	-0.004071	60.4727	-0.893791	-8.378284E+11	4.858993E-15	NaN
185	1.000000	0.122880	7.36685e+06	-47889.1	955.819	-29764.9	0.000000	0.000000	6.122761	0.022844	NaN	0.000000	0.001702	0.001662	28.0784	0.155230	0.002153	72.0995	54.3899	-164.872	-0.058181	0.121636	-0.885834	-0.887078	0.022844	72.0995	-0.886072	-6.588816E+11	-3.467115E-14	NaN
185	1.000000	0.130885	7.36685e+06	-47889.1	955.818	-29764.9	0.000000	0.000000	6.130763	-0.051184	NaN	0.000000	0.001630	0.001666	28.0782	0.061910	0.002176	28.4511	-131.287	-164.923	-0.041055	0.129573	-0.877829	-0.879140	-0.051184	28.4511	-0.876479	-4.887556E+11	1.047222E-13	NaN
185	1.000000	0.138910	7.36685e+06	-47889.1	955.818	-29764.9	0.000000	0.000000	6.138792	0.059831	NaN	0.000000	0.001634	0.001645	28.0784	0.071611	0.002014	35.5601	88.9659	-165.134	0.046768	0.137581	-0.869804	-0.871133	0.059831	35.5601	-0.871066	-4.129196E+11	-1.448982E-13	NaN
185	1.000000	0.146918	7.36685e+06	-47889.1	955.819	-29764.9	0.000000	0.000000	6.146799	0.025786	NaN	0.000000	0.001646	0.001663	28.0783	0.119232	0.002070	57.602	86.8573	-161.756	-0.025313	0.145636	-0.861796	-0.863077	0.025786	57.602	-0.862131	-3.125857E+11	-8.249261E-14	NaN
185	1.000000	0.154933	7.36685e+06	-47889.1	955.819	-29764.9	0.000000	0.000000	6.154814	0.031103	NaN	0.000000	0.001645	0.001645	28.0783	0.013263	0.002044	6.489913	78.1358	-166.224	0.062274	0.153594	-0.853780	-0.855120	0.031103	6.489913	-0.857375	-2.695172E+11	-1.154014E-13	NaN
185	1.000000	0.162914	7.36685e+06	-47889.1	955.819	-29764.9	0.000000	0.000000	6.162794	-0.005883	NaN	0.000000	0.001670	0.001665	28.0786	0.075063	0.001854	40.4944	-17.0709	-165.003	0.014127	0.161572	-0.845799	-0.847142	-0.005883	40.4944	-0.845690	-1.872296E+11	3.141993E-14	NaN
185	1.000000	0.170933	7.36685e+06	-47889.1	955.819	-29764.9	0.000000	0.000000	6.170813	0.007226	NaN	0.000000	0.001629	0.001660	28.0785	0.039743	0.001853	21.4447	18.1369	-163.105	0.024706	0.169625	-0.837781	-0.839088	0.007226	21.4447	-0.838034	-1.474539E+11	-4.900712E-14	NaN
185	1.000000	0.178932	7.36685e+06	-47889.1	955.818	-29764.9	0.000000	0.000000	6.178812	-0.000589	NaN	0.000000	0.001601	0.001649	28.0786	0.114436	0.001997	57.2929	-137.356	-163.1	-0.022421	0.177574	-0.829781	-0.831140	-0.000589	57.2929	-0.829774	-1.139508E+11	5.165941E-15	NaN
185	1.000000	0.186913	7.36685e+06	-47889.1	955.818	-29764.9	0.000000	0.000000	6.186791	-0.036963	NaN	0.000000	0.001643	0.001672	28.0785	0.080172	0.002013	39.8236	1.788403	-165.797	-0.043528	0.185606	-0.821801	-0.823108	-0.036963	39.8236	-0.821105	-8.693514E+10	4.251784E-13	NaN
185	1.000000	0.194941	7.36685e+06	-47889.1	955.818	-29764.9	0.000000	0.000000	6.194820	-0.013725	NaN	0.000000	0.001668	0.001680	28.0797	0.089181	0.001930	46.2171	-57.8051	-162.684	0.012609	0.193678	-0.813773	-0.815036	-0.013725	46.2171	-0.813550	-6.866402E+10	1.998875E-13	NaN
185	1.000000	0.202921	7.36685e+06	-47889.1	955.819	-29764.9	0.000000	0.000000	6.202804	0.068155	NaN	0.000000	0.001667	0.001706	28.0793	0.130551	0.002076	62.8899	-110.288	-166.278	-0.087558	0.201638	-0.805792	-0.807076	0.068155	62.8899	-0.806605	-5.527246E+10	-1.233078E-12	NaN
185	1.000000	0.210945	7.36685e+06	-47889.1	955.819	-29764.9	0.000000	0.000000	6.210825	-0.001299	NaN	0.000000	0.001642	0.001687	28.0794	0.030163	0.001945	15.5073	-130.167	-166.1	0.026711	0.209574	-0.797769	-0.799140	-0.001299	15.5073	-0.797706	-4.185248E+10	3.104225E-14	NaN
185	1.000000	0.218950	7.36685e+06	-47889.1	955.819	-29764.9	0.000000	0.000000	6.218829	-0.004544	NaN	0.000000	0.001665	0.001697	28.0794	0.023208	0.002070	11.212	57.6687	-165.477	0.033155	0.217661	-0.789764	-0.791053	-0.004544	11.212	-0.789460	-3.234080E+10	1.405154E-13	NaN
185	1.000000	0.226932	7.36685e+06	-47889.1	955.818	-29764.9	0.000000	0.000000	6.226811	-0.019286	NaN	0.000000	0.001573	0.001706	28.0795	0.040813	0.002035	20.0589	125.243	-162.761	-0.106365	0.225665	-0.781782	-0.783049	-0.019286	20.0589	-0.781061	-2.486824E+10	7.755432E-13	NaN
185	1.000000	0.234940	7.36685e+06	-47889.1	955.819	-29764.9	0.000000	0.000000	6.234819	-0.031894	NaN	0.000000	0.001571	0.001679	28.0798	0.079012	0.001870	42.2468	-80.829	-165.785	0.022618	0.233620	-0.773773	-0.775094	-0.031894	42.2468	-0.773207	-1.944953E+10	1.639855E-12	NaN
185	1.000000	0.242933	7.36685e+06	-47889.1	955.82	-29764.9	0.000000	0.000000	6.242812	-0.007728	NaN	0.000000	0.001568	0.001642	28.0794	0.031567	0.002003	15.762	-124.22	-161.113	-0.080266	0.241611	-0.765781	-0.767102	-0.007728	15.762	-0.765413	-1.523820E+10	5.071220E-13	NaN
185	1.000000	0.250958	7.36685e+06	-47889.1	955.818	-29764.9	0.000000	0.000000	6.250837	-0.016035	NaN	0.000000	0.001649	0.001690	28.0795	0.034475	0.002009	17.1572	170.452	-165.684	-0.010196	0.249679	-0.757756	-0.759034	-0.016035	17.1572	-0.757055	-1.172837E+10	1.367209E-12	NaN
185	1.000000	0.258956	7.36685e+06	-47889.1	955.819	-29764.9	0.000000	0.000000	6.258838	0.056105	NaN	0.000000	0.001625	0.001672	28.0795	0.061259	0.001984	30.8816	94.8381	-166.747	0.066292	0.257655	-0.749757	-0.751059	0.056105	30.8816	-0.751120	-9.737920E+9	-5.761457E-12	NaN
185	1.000000	0.266976	7.36685e+06	-47889.1	955.819	-29764.9	0.000000	0.000000	6.266857	0.037629	NaN	0.000000	0.001649	0.001740	28.0795	0.100123	0.002034	49.2189	165.399	-161.529	0.064320	0.265722	-0.741738	-0.742992	0.037629	49.2189	-0.742311	-7.388102E+9	-5.093242E-12	NaN
185	1.000000	0.274950	7.36685e+06	-47889.1	955.818	-29764.9	0.000000	0.000000	6.274830	0.003230	NaN	0.000000	0.001629	0.001662	28.0795	0.068454	0.002070	33.0742	-95.0998	-164.125	0.058371	0.273719	-0.733764	-0.734995	0.003230	33.0742	-0.733837	-5.663647E+9	-5.703818E-13	NaN
185	1.000000	0.282973	7.36685e+06	-47889.1	955.819	-29764.9	0.000000	0.000000	6.282852	-0.033255	NaN	0.000000	0.001639	0.001658	28.0792	0.070011	0.001906	36.7363	14.8113	-160.618	-0.078978	0.281679	-0.725741	-0.727035	-0.033255	36.7363	-0.725062	-4.300232E+9	7.733329E-12	NaN
185	1.000000	0.290990	7.36685e+06	-47889.1	955.818	-29764.9	0.000000	0.000000	6.290868	-0.051317	NaN	0.000000	0.001647	0.001688	28.0794	0.085833	0.002003	42.8551	45.1921	-167.575	0.040433	0.289662	-0.717724	-0.719052	-0.051317	42.8551	-0.716826	-3.320303E+9	1.545554E-11	NaN
185	1.000000	0.298959	7.36685e+06	-47889.1	955.819	-29764.9	0.000000	0.000000	6.298838	-0.027000	NaN	0.000000	0.001644	0.001716	28.0792	0.120714	0.002105	57.3527	178.145	-159.891	-0.060391	0.297642	-0.709755	-0.711072	-0.027000	57.3527	-0.709402	-2.629557E+9	1.026775E-11	NaN
185	1.000000	0.306964	7.36685e+06	-47889.1	955.818	-29764.9	0.000000	0.000000	6.306845	0.018385	NaN	0.000000	0.001657	0.001682	28.0795	0.077285	0.002010	38.4571	166.621	-167.922	-0.034171	0.305650	-0.701749	-0.703064	0.018385	38.4571	-0.702108	-2.090819E+9	-8.793108E-12	NaN
185	1.000000	0.314998	7.36685e+06	-47889.1	955.819	-29764.9	0.000000	0.000000	6.314880	0.051958	NaN	0.000000	0.001650	0.001665	28.0797	0.071120	0.001928	36.8793	-7.909274	-163.104	0.011955	0.313700	-0.693716	-0.695014	0.051958	36.8793	-0.694772	-1.660072E+9	-3.129886E-11	NaN
185	1.000000	0.322994	7.36685e+06	-47889.1	955.819	-29764.9	0.000000	0.000000	6.322871	-0.070255	NaN	0.000000	0.001644	0.001697	28.0792	0.051110	0.001899	26.9114	42.3554	-161.623	-0.073063	0.321693	-0.685720	-0.687021	-0.070255	26.9114	-0.683762	-1.173943E+9	5.984546E-11	NaN
185	1.000000	0.331024	7.36685e+06	-47889.1	955.819	-29764.9	0.000000	0.000000	6.330906	0.037430	NaN	0.000000	0.001670	0.001675	28.0784	0.078298	0.002023	38.7018	-173.367	-162.005	0.135510	0.329631	-0.677690	-0.679083	0.037430	38.7018	-0.678415	-9.920336E+8	-3.773079E-11	NaN
185	1.000000	0.338986	7.36685e+06	-47889.1	955.82	-29764.9	0.000000	0.000000	6.338864	-0.047441	NaN	0.000000	0.001659	0.001673	28.078	0.030990	0.002037	15.2162	-78.6904	-162.48	-0.044045	0.337715	-0.669728	-0.670999	-0.047441	15.2162	-0.667389	-7.008961E+8	6.768681E-11	NaN
185	1.000000	0.346990	7.36685e+06	-47889.1	955.818	-29764.9	0.000000	0.000000	6.346869	0.003194	NaN	0.000000	0.001679	0.001699	28.0782	0.039611	0.002016	19.6533	82.0039	-162.148	0.090727	0.345647	-0.661724	-0.663067	0.003194	19.6533	-0.661846	-5.885108E+8	-5.427952E-12	NaN
185	1.000000	0.355023	7.36685e+06	-47889.1	955.819	-29764.9	0.000000	0.000000	6.354900	-0.069703	NaN	0.000000	0.001629	0.001710	28.0783	0.008767	0.001981	4.424940	-105.792	-162.404	-0.017903	0.353705	-0.653691	-0.655009	-0.069703	4.424940	-0.641876	-3.133507E+8	2.224449E-10	NaN
185	1.000000	0.362978	7.36685e+06	-47889.1	955.819	-29764.9	0.000000	0.000000	6.362857	-0.024849	NaN	0.000000	0.001643	0.001692	28.078	0.067014	0.002002	33.4801	168.184	-161.259	0.028225	0.361715	-0.645736	-0.646999	-0.024849	33.4801	-0.645179	-3.478041E+8	7.144528E-11	NaN
185	1.000000	0.371017	7.36685e+06	-47889.1	955.819	-29764.9	0.000000	0.000000	6.370899	0.053058	NaN	0.000000	0.001659	0.001673	28.0788	0.065991	0.002007	32.8748	110.843	-163.301	0.023124	0.369700	-0.637697	-0.639013	0.053058	32.8748	-0.638908	-2.852995E+8	-1.859720E-10	NaN
185	1.000000	0.379008	7.36685e+06	-47889.1	955.818	-29764.9	0.000000	0.000000	6.378888	0.008160	NaN	0.000000	0.001696	0.001710	28.0782	0.092464	0.002074	44.5874	-147.113	-163.782	-0.029491	0.377734	-0.629706	-0.630980	0.008160	44.5874	-0.629843	-2.142249E+8	-3.809087E-11	NaN
185	1.000000	0.386996	7.36685e+06	-47889.1	955.819	-29764.9	0.000000	0.000000	6.386880	0.086239	NaN	0.000000	0.001603	0.001673	28.0784	0.210202	0.001948	107.882	-102.168	-165.857	-0.037446	0.385670	-0.621717	-0.623044	0.086239	107.882	-0.622317	-1.688411E+8	-5.107705E-10	NaN
185	1.000000	0.395017	7.36685e+06	-47889.1	955.818	-29764.9	0.000000	0.000000	6.394898	0.031643	NaN	0.000000	0.001631	0.001680	28.0784	0.036411	0.001924	18.9256	-68.9132	-166.925	-0.028112	0.393688	-0.613697	-0.615026	0.031643	18.9256	-0.614951	-1.337261E+8	-2.366281E-10	NaN
185	1.000000	0.403003	7.36685e+06	-47889.1	955.819	-29764.9	0.000000	0.000000	6.402881	-0.055028	NaN	0.000000	0.001615	0.001714	28.0783	0.071269	0.001960	36.3555	109.488	-163.836	-0.005843	0.401714	-0.605711	-0.607000	-0.055028	36.3555	-0.604575	-9.626281E+7	5.716384E-10	NaN
185	1.000000	0.411019	7.36685e+06	-47889.1	955.818	-29764.9	0.000000	0.000000	6.410901	0.050362	NaN	0.000000	0.001624	0.001693	28.0788	0.056818	0.001988	28.5869	-88.5752	-164.498	0.007375	0.409697	-0.597695	-0.599016	0.050362	28.5869	-0.599016	-8.070679E+7	-6.240168E-10	NaN
185	1.000000	0.419023	7.36685e+06	-47889.1	955.818	-29764.9	0.000000	0.000000	6.418905	0.058333	NaN	0.000000	0.001607	0.001684	28.0782	0.105576	0.001959	53.9017	148.564	-165.19	0.066647	0.417672	-0.589691	-0.591042	0.058333	53.9017	-0.590502	-6.160169E+7	-9.469332E-10	NaN
185	1.000000	0.427011	7.36685e+06	-47889.1	955.819	-29764.9	0.000000	0.000000	6.426891	0.009008	NaN	0.000000	0.001600	0.001661	28.0783	0.023736	0.001977	12.0073	-100.26	-165.596	0.009742	0.425716	-0.581703	-0.582997	0.009008	12.0073	-0.582265	-4.742254E+7	-1.899417E-10	NaN
185	1.000000	0.435024	7.36685e+06	-47889.1	955.819	-29764.9	0.000000	0.000000	6.434904	-0.010632	NaN	0.000000	0.001605	0.001720	28.0779	0.151271	0.001940	77.9675	101.784	-166.599	0.015905	0.433698	-0.573690	-0.575016	-0.010632	77.9675	-0.573587	-3.599047E+7	2.954212E-10	NaN
185	1.000000	0.443038	7.36685e+06	-47889.1	955.819	-29764.9	0.000000	0.000000	6.442917	-0.022216	NaN	0.000000	0.001600	0.001686	28.0781	0.124181	0.001984	62.5772	-86.2134	-162.463	-0.019885	0.441753	-0.565675	-0.566961	-0.022216	62.5772	-0.565409	-2.774490E+7	8.007114E-10	NaN
185	1.000000	0.451036	7.36685e+06	-47889.1	955.818	-29764.9	0.000000	0.000000	6.450918	0.046634	NaN	0.000000	0.001625	0.001683	28.0786	0.150408	0.002056	73.1697	-15.2151	-161.683	0.068889	0.449713	-0.557677	-0.559001	0.046634	73.1697	-0.558155	-2.202203E+7	-2.117590E-9	NaN
185	1.000000	0.459011	7.36685e+06	-47889.1	955.819	-29764.9	0.000000	0.000000	6.458892	0.033790	NaN	0.000000	0.001621	0.001692	28.0782	0.024066	0.002233	10.7757	-146.225	-164.226	0.025278	0.457727	-0.549702	-0.550987	0.033790	10.7757	-0.552054	-1.813037E+7	-1.863732E-9	NaN
185	1.000000	0.467026	7.36685e+06	-47889.1	955.819	-29764.9	0.000000	0.000000	6.466905	-0.033576	NaN	0.000000	0.001633	0.001672	28.0796	0.139158	0.001983	70.168	1.255239	-167.584	-0.022779	0.465759	-0.541688	-0.542955	-0.033576	70.168	-0.541329	-1.287606E+7	2.607628E-9	NaN
185	1.000000	0.475078	7.36685e+06	-47889.1	955.819	-29764.9	0.000000	0.000000	6.474957	-0.018472	NaN	0.000000	0.001662	0.001698	28.0793	0.017329	0.001978	8.760675	-75.111	-163.416	-0.056334	0.473707	-0.533636	-0.535007	-0.018472	8.760675	-0.532055	-9.57424e+06	1.929390E-9	NaN
185	1.000000	0.483069	7.36685e+06	-47889.1	955.819	-29764.9	0.000000	0.000000	6.482950	0.027792	NaN	0.000000	0.001659	0.001703	28.0796	0.059801	0.001959	30.5257	-87.8818	-162.279	-0.005683	0.481699	-0.525645	-0.527014	0.027792	30.5257	-0.526328	-7.97188e+06	-3.486205E-9	NaN
185	1.000000	0.491056	7.36685e+06	-47889.1	955.818	-29764.9	0.000000	0.000000	6.490933	-0.051896	NaN	0.000000	0.001649	0.001690	28.0795	0.079383	0.002013	39.4354	31.5918	-165.236	0.064583	0.489801	-0.517658	-0.518913	-0.051896	39.4354	-0.516671	-5.8518e+06	8.868301E-9	NaN
185	1.000000	0.499026	7.36685e+06	-47889.1	955.819	-29764.9	0.000000	0.000000	6.498904	-0.037371	NaN	0.000000	0.001608	0.001674	28.0794	0.102284	0.001888	54.1671	-100.94	-163.067	0.058663	0.497758	-0.509688	-0.510956	-0.037371	54.1671	-0.509171	-4.60112e+06	8.122169E-9	NaN
185	1.000000	0.507064	7.36685e+06	-47889.1	955.818	-29764.9	0.000000	0.000000	6.506944	0.022396	NaN	0.000000	0.001651	0.001683	28.0796	0.126066	0.001968	64.0602	158.805	-164.381	0.066523	0.505734	-0.501650	-0.502980	0.022396	64.0602	-0.501912	-3.64498e+06	-6.144212E-9	NaN
185	1.000000	0.515074	7.36685e+06	-47889.1	955.819	-29764.9	0.000000	0.000000	6.514954	0.012264	NaN	0.000000	0.001621	0.001716	28.0795	0.099538	0.002020	49.2869	-161.889	-164.013	-0.019344	0.513770	-0.493640	-0.494944	0.012264	49.2869	-0.493827	-2.81093e+06	-4.362807E-9	NaN
185	1.000000	0.523060	7.36685e+06	-47889.1	955.819	-29764.9	0.000000	0.000000	6.522941	0.022054	NaN	0.000000	0.001685	0.001691	28.0794	0.096610	0.001912	50.5183	108.616	-164.588	-0.007188	0.521823	-0.485654	-0.486891	0.022054	50.5183	-0.485981	-2.18381e+06	-1.009876E-8	NaN
185	1.000000	0.531054	7.36685e+06	-47889.1	955.819	-29764.9	0.000000	0.000000	6.530933	-0.024267	NaN	0.000000	0.001685	0.001682	28.0795	0.059495	0.001954	30.4489	-138.893	-159.561	-0.044194	0.529734	-0.477660	-0.478979	-0.024267	30.4489	-0.477062	-1.63828e+06	1.481275E-8	NaN
185	1.000000	0.539076	7.36685e+06	-47889.1	955.819	-29764.9	0.000000	0.000000	6.538955	-0.018759	NaN	0.000000	0.001665	0.001686	28.0794	0.028782	0.001949	14.7697	-36.15	-163.16	-0.062229	0.537755	-0.469638	-0.470959	-0.018759	14.7697	-0.468685	-1.25017e+06	1.500528E-8	NaN
185	1.000000	0.547085	7.36685e+06	-47889.1	955.82	-29764.9	0.000000	0.000000	6.546966	0.023441	NaN	0.000000	0.001635	0.001685	28.0796	0.042443	0.001988	21.3476	-46.1583	-164.698	0.041110	0.545714	-0.461628	-0.463000	0.023441	21.3476	-0.462452	-1.02204e+06	-2.293518E-8	NaN
185	1.000000	0.555089	7.36685e+06	-47889.1	955.819	-29764.9	0.000000	0.000000	6.554967	-0.033819	NaN	0.000000	0.001660	0.001707	28.0794	0.056680	0.002096	27.0361	-169.197	-164.204	-0.059083	0.553770	-0.453625	-0.454944	-0.033819	27.0361	-0.452687	-745016	4.539383E-8	NaN
185	1.000000	0.563093	7.36685e+06	-47889.1	955.819	-29764.9	0.000000	0.000000	6.562973	0.003920	NaN	0.000000	0.001685	0.001736	28.0797	0.057305	0.002029	28.2408	-138.036	-166.264	-0.001290	0.561809	-0.445621	-0.446905	0.003920	28.2408	-0.445725	-594446	-6.594586E-9	NaN
185	1.000000	0.571078	7.36685e+06	-47889.1	955.819	-29764.9	0.000000	0.000000	6.570958	0.012136	NaN	0.000000	0.001627	0.001692	28.0794	0.107130	0.002004	53.4475	102.475	-165.287	0.034597	0.569810	-0.437636	-0.438904	0.012136	53.4475	-0.437806	-459612	-2.640454E-8	NaN
185	1.000000	0.579101	7.36685e+06	-47889.1	955.818	-29764.9	0.000000	0.000000	6.578981	0.005607	NaN	0.000000	0.001606	0.001686	28.0797	0.109152	0.001960	55.6939	-2.850573	-166.575	0.022060	0.577833	-0.429613	-0.430881	0.005607	55.6939	-0.429688	-352898	-1.588874E-8	NaN
185	1.000000	0.587093	7.36685e+06	-47889.1	955.82	-29764.9	0.000000	0.000000	6.586974	0.020500	NaN	0.000000	0.001618	0.001663	28.0795	0.023444	0.002143	10.9387	-75.9635	-165.053	0.090348	0.585823	-0.421621	-0.422891	0.020500	10.9387	-0.423026	-284001	-7.218341E-8	NaN
185	1.000000	0.595101	7.36685e+06	-47889.1	955.818	-29764.9	0.000000	0.000000	6.594983	0.063256	NaN	0.000000	0.001603	0.001707	28.0794	0.040831	0.002062	19.8058	-125.686	-166.024	0.045432	0.593746	-0.413613	-0.414968	0.063256	19.8058	-0.416009	-225827	-2.801072E-7	NaN
185	1.000000	0.603098	7.36685e+06	-47889.1	955.819	-29764.9	0.000000	0.000000	6.602979	0.028735	NaN	0.000000	0.001581	0.001708	28.0784	0.117817	0.002016	58.4487	-49.3802	-162.011	-0.055840	0.601791	-0.405616	-0.406923	0.028735	58.4487	-0.405985	-162655	-1.766619E-7	NaN
185	1.000000	0.611085	7.36685e+06	-47889.1	955.818	-29764.9	0.000000	0.000000	6.610965	0.011619	NaN	0.000000	0.001614	0.001697	28.0784	0.019639	0.002031	9.668331	-77.7607	-168.32	0.060598	0.609774	-0.397629	-0.398940	0.011619	9.668331	-0.398531	-127360	-9.122581E-8	NaN
185	1.000000	0.619127	7.36685e+06	-47889.1	955.819	-29764.9	0.000000	0.000000	6.619007	0.016632	NaN	0.000000	0.001545	0.001712	28.0785	0.091202	0.001935	47.1248	-122.368	-163.244	0.007496	0.617807	-0.389587	-0.390907	0.016632	47.1248	-0.389852	-95730	-1.737395E-7	NaN
185	1.000000	0.627123	7.36685e+06	-47889.1	955.817	-29764.9	0.000000	0.000000	6.627007	0.106209	NaN	0.000000	0.001548	0.001702	28.0783	0.084094	0.002076	40.5055	-144.826	-165.562	0.168309	0.625833	-0.381591	-0.382881	0.106209	40.5055	-0.383558	-77788.9	-1.365350E-6	NaN
185	1.000000	0.635146	7.36685e+06	-47889.1	955.818	-29764.9	0.000000	0.000000	6.635026	0.020185	NaN	0.000000	0.001482	0.001712	28.0783	0.089013	0.001983	44.8963	-91.8641	-162.999	-0.082853	0.633788	-0.373568	-0.374926	0.020185	44.8963	-0.373905	-56536.8	-3.570279E-7	NaN
185	1.000000	0.643089	7.36685e+06	-47889.1	955.819	-29764.9	0.000000	0.000000	6.642972	0.074968	NaN	0.000000	0.001497	0.001711	28.0784	0.122141	0.002093	58.3678	-164.708	-162.958	0.030051	0.641783	-0.365625	-0.366931	0.074968	58.3678	-0.366588	-44356.6	-1.690123E-6	NaN
185	1.000000	0.651120	7.36685e+06	-47889.1	955.818	-29764.9	0.000000	0.000000	6.651002	0.060450	NaN	0.000000	0.001572	0.001735	28.0795	0.075371	0.002117	35.6026	147.26	-162.942	-0.007805	0.649832	-0.357594	-0.358882	0.060450	35.6026	-0.358867	-34313.7	-1.761680E-6	NaN
185	1.000000	0.659114	7.36685e+06	-47889.1	955.818	-29764.9	0.000000	0.000000	6.658993	-0.018438	NaN	0.000000	0.001578	0.001722	28.0791	0.050141	0.002038	24.6087	22.2278	-163.304	-0.006476	0.657798	-0.349600	-0.350916	-0.018438	24.6087	-0.349038	-24719	7.459072E-7	NaN
185	1.000000	0.667110	7.36685e+06	-47889.1	955.819	-29764.9	0.000000	0.000000	6.666990	-0.004827	NaN	0.000000	0.001610	0.001697	28.0785	0.126649	0.001981	63.9392	-112.254	-164.9	-0.008041	0.665821	-0.341603	-0.342892	-0.004827	63.9392	-0.341547	-19235.1	2.509241E-7	NaN
185	1.000000	0.675145	7.36685e+06	-47889.1	955.818	-29764.9	0.000000	0.000000	6.675025	-0.005486	NaN	0.000000	0.001619	0.001699	28.0787	0.048354	0.001970	24.5407	-6.474938	-162.127	-0.070206	0.673886	-0.333568	-0.334828	-0.005486	24.5407	-0.333401	-14628.9	3.750134E-7	NaN
185	1.000000	0.683131	7.36685e+06	-47889.1	955.819	-29764.9	0.000000	0.000000	6.683013	0.037382	NaN	0.000000	0.001593	0.001694	28.0785	0.078495	0.001938	40.5055	125.873	-162.122	0.041815	0.681854	-0.325582	-0.326859	0.037382	40.5055	-0.326275	-11503.9	-3.249510E-6	NaN
185	1.000000	0.691137	7.36685e+06	-47889.1	955.819	-29764.9	0.000000	0.000000	6.691017	0.012521	NaN	0.000000	0.001624	0.001702	28.0785	0.074942	0.001903	39.381	38.3602	-164.249	0.077265	0.689795	-0.317577	-0.318918	0.012521	39.381	-0.317815	-8638.95	-1.449349E-6	NaN
185	1.000000	0.699154	7.36685e+06	-47889.1	955.819	-29764.9	0.000000	0.000000	6.699033	-0.004719	NaN	0.000000	0.001637	0.001720	28.0789	0.146037	0.002046	71.3754	87.5841	-167.069	-0.002780	0.697926	-0.309560	-0.310788	-0.004719	71.3754	-0.309511	-6513.49	7.244424E-7	NaN
185	1.000000	0.707160	7.36685e+06	-47889.1	955.818	-29764.9	0.000000	0.000000	6.707041	0.014415	NaN	0.000000	0.001608	0.001704	28.0784	0.004420	0.002129	2.076109	174.472	-167.937	0.007486	0.705831	-0.301553	-0.302883	0.014415	2.076109	-0.306761	-5930.3	-2.430758E-6	NaN
185	1.000000	0.715141	7.36685e+06	-47889.1	955.819	-29764.9	0.000000	0.000000	6.715023	0.066781	NaN	0.000000	0.001661	0.001733	28.0785	0.080523	0.001968	40.9097	-22.1043	-164.8	-0.008838	0.713827	-0.293573	-0.294886	0.066781	40.9097	-0.294797	-3936.08	-1.696632E-5	NaN
185	1.000000	0.723173	7.36685e+06	-47889.1	955.818	-29764.9	0.000000	0.000000	6.723054	0.031158	NaN	0.000000	0.001652	0.001691	28.0783	0.071049	0.001895	37.4905	-48.1029	-163.649	-0.010281	0.721859	-0.285541	-0.286855	0.031158	37.4905	-0.286164	-2922.56	-1.066137E-5	NaN
185	1.000000	0.731167	7.36685e+06	-47889.1	955.819	-29764.9	0.000000	0.000000	6.731047	0.021434	NaN	0.000000	0.001638	0.001727	28.0785	0.088805	0.002009	44.1943	44.8738	-167.101	-0.000455	0.729853	-0.277547	-0.278861	0.021434	44.1943	-0.277911	-2194.96	-9.765305E-6	NaN
185	1.000000	0.739183	7.36685e+06	-47889.1	955.819	-29764.9	0.000000	0.000000	6.739062	-0.003111	NaN	0.000000	0.001625	0.001690	28.0798	0.069282	0.002097	33.0315	-103.029	-162.717	-0.044600	0.737841	-0.269531	-0.270873	-0.003111	33.0315	-0.269460	-1634.33	1.903493E-6	NaN
185	1.000000	0.747139	7.36685e+06	-47889.1	955.818	-29764.9	0.000000	0.000000	6.747020	0.034575	NaN	0.000000	0.001653	0.001708	28.0797	0.015694	0.001880	8.349838	91.2752	-166.447	-0.006595	0.745887	-0.261575	-0.262827	0.034575	8.349838	-0.264680	-1382	-2.501840E-5	NaN
185	1.000000	0.755167	7.36685e+06	-47889.1	955.819	-29764.9	0.000000	0.000000	6.755047	0.014296	NaN	0.000000	0.001642	0.001715	28.0796	0.048775	0.001936	25.1994	35.5378	-166.03	-0.051572	0.753887	-0.253547	-0.254827	0.014296	25.1994	-0.253973	-946.871	-1.509810E-5	NaN
185	1.000000	0.763167	7.36685e+06	-47889.1	955.819	-29764.9	0.000000	0.000000	6.763047	-0.000534	NaN	0.000000	0.001651	0.001694	28.0796	0.109321	0.002048	53.3874	-1.534201	-165.291	-0.029329	0.761861	-0.245546	-0.246853	-0.000534	53.3874	-0.245539	-701.171	7.619403E-7	NaN
185	1.000000	0.771182	7.36685e+06	-47889.1	955.819	-29764.9	0.000000	0.000000	6.771067	0.118403	NaN	0.000000	0.001653	0.001723	28.0797	0.067584	0.002094	32.2813	128.566	-165.686	-0.006544	0.769855	-0.237531	-0.238858	0.118403	32.2813	-0.240282	-580.713	-0.000204	NaN
185	1.000000	0.779168	7.36685e+06	-47889.1	955.819	-29764.9	0.000000	0.000000	6.779048	-0.007856	NaN	0.000000	0.001609	0.001730	28.0797	0.079602	0.002121	37.5269	125.621	-161.764	0.057492	0.777848	-0.229546	-0.230866	-0.007856	37.5269	-0.229389	-391.615	2.005956E-5	NaN
185	1.000000	0.787175	7.36685e+06	-47889.1	955.819	-29764.9	0.000000	0.000000	6.787054	-0.011761	NaN	0.000000	0.001606	0.001718	28.0795	0.048854	0.002014	24.2538	-158.684	-163.807	-0.027605	0.785827	-0.221539	-0.222887	-0.011761	24.2538	-0.221175	-290.032	4.055191E-5	NaN
185	1.000000	0.795202	7.36685e+06	-47889.1	955.819	-29764.9	0.000000	0.000000	6.795083	0.033815	NaN	0.000000	0.001607	0.001723	28.0798	0.091875	0.002042	44.9987	137.977	-163.947	-0.044047	0.793874	-0.213512	-0.214840	0.033815	44.9987	-0.214076	-223.172	-0.000152	NaN
185	1.000000	0.803192	7.36685e+06	-47889.1	955.82	-29764.9	0.000000	0.000000	6.803072	0.004824	NaN	0.000000	0.001584	0.001660	28.0798	0.040257	0.001878	21.4395	-104.618	-161.63	0.107872	0.801914	-0.205522	-0.206800	0.004824	21.4395	-0.205690	-163.235	-2.955469E-5	NaN
185	1.000000	0.811189	7.36686e+06	-47889.1	955.817	-29764.9	0.000000	0.000000	6.811070	0.028879	NaN	0.000000	0.001596	0.001689	28.0797	0.102617	0.002078	49.3763	134.583	-166.14	0.056384	0.809881	-0.197525	-0.198833	0.028879	49.3763	-0.197963	-121.947	-0.000237	NaN
185	1.000000	0.819195	7.36686e+06	-47889.1	955.819	-29764.9	0.000000	0.000000	6.819074	-0.000901	NaN	0.000000	0.001626	0.001680	28.0797	0.125718	0.001996	62.9853	-60.4353	-163.682	-0.013300	0.817928	-0.189519	-0.190786	-0.000901	62.9853	-0.189508	-88.2699	1.021088E-5	NaN
185	1.000000	0.827216	7.36686e+06	-47889.1	955.819	-29764.9	0.000000	0.000000	6.827097	0.021590	NaN	0.000000	0.001646	0.001739	28.0797	0.076000	0.002081	36.5134	14.7103	-166.249	0.068333	0.825892	-0.181498	-0.182822	0.021590	36.5134	-0.181941	-65.831	-0.000328	NaN
185	1.000000	0.835198	7.36686e+06	-47889.1	955.818	-29764.9	0.000000	0.000000	6.835078	0.006541	NaN	0.000000	0.001631	0.001730	28.0798	0.044968	0.002090	21.5113	132.172	-164.414	0.032273	0.833847	-0.173516	-0.174867	0.006541	21.5113	-0.173744	-47.6836	-0.000137	NaN
185	1.000000	0.843196	7.36686e+06	-47889.1	955.819	-29764.9	0.000000	0.000000	6.843076	0.005187	NaN	0.000000	0.001621	0.001739	28.0799	0.022089	0.002045	10.7999	117.368	-167.252	0.013811	0.841892	-0.165518	-0.166822	0.005187	10.7999	-0.165878	-34.8109	-0.000149	NaN
185	1.000000	0.851181	7.36686e+06	-47889.1	955.818	-29764.9	0.000000	0.000000	6.851061	0.021776	NaN	0.000000	0.001590	0.001732	28.0797	0.042093	0.002017	20.8719	113.875	-165.074	0.055605	0.849903	-0.157533	-0.158811	0.021776	20.8719	-0.158316	-25.5855	-0.000851	NaN
185	1.000000	0.859209	7.36686e+06	-47889.1	955.819	-29764.9	0.000000	0.000000	6.859088	-0.021000	NaN	0.000000	0.001649	0.001727	28.0795	0.092772	0.001927	48.1473	39.2423	-164.246	0.011531	0.857928	-0.149504	-0.150785	-0.021000	48.1473	-0.149177	-17.4978	0.001200	NaN
185	1.000000	0.867194	7.36686e+06	-47889.1	955.818	-29764.9	0.000000	0.000000	6.867075	0.017074	NaN	0.000000	0.001612	0.001721	28.0797	0.050087	0.002070	24.1957	-126.019	-167.563	-0.025185	0.865883	-0.141520	-0.142830	0.017074	24.1957	-0.142049	-12.922	-0.001321	NaN
185	1.000000	0.875220	7.36686e+06	-47889.1	955.819	-29764.9	0.000000	0.000000	6.875102	0.065358	NaN	0.000000	0.001652	0.001735	28.0785	0.179647	0.001938	92.6975	176.436	-168.385	0.058483	0.873865	-0.133494	-0.134849	0.065358	92.6975	-0.134023	-9.111675	-0.007173	NaN
185	1.000000	0.883229	7.36686e+06	-47889.1	955.819	-29764.9	0.000000	0.000000	6.883108	-0.015913	NaN	0.000000	0.001614	0.001721	28.0783	0.048703	0.001958	24.875	143.374	-165.752	0.007993	0.881907	-0.125485	-0.126806	-0.015913	24.875	-0.125005	-6.082706	0.002616	NaN
185	1.000000	0.891213	7.36686e+06	-47889.1	955.819	-29764.9	0.000000	0.000000	6.891095	0.065279	NaN	0.000000	0.001611	0.001739	28.0786	0.058322	0.002012	28.9889	105.623	-162.251	-0.003776	0.889897	-0.117501	-0.118817	0.065279	28.9889	-0.119190	-4.652736	-0.014030	NaN
185	1.000000	0.899226	7.36686e+06	-47889.1	955.818	-29764.9	0.000000	0.000000	6.899108	0.042507	NaN	0.000000	0.001691	0.001712	28.0782	0.082358	0.002074	39.7041	71.7817	-167.763	0.031797	0.897886	-0.109488	-0.110828	0.042507	39.7041	-0.110291	-3.047864	-0.013947	NaN
185	1.000000	0.907221	7.36686e+06	-47889.1	955.818	-29764.9	0.000000	0.000000	6.907105	0.113245	NaN	0.000000	0.001691	0.001757	28.0785	0.117328	0.001990	58.9505	-162.669	-160.695	0.114814	0.905937	-0.101493	-0.102777	0.113245	58.9505	-0.102934	-2.119884	-0.053421	NaN
185	1.000000	0.915214	7.36686e+06	-47889.1	955.818	-29764.9	0.000000	0.000000	6.915095	0.029514	NaN	0.000000	0.001729	0.001747	28.0782	0.068202	0.002092	32.5948	-94.1508	-163.57	-0.060134	0.913931	-0.093500	-0.094783	0.029514	32.5948	-0.094179	-1.351017	-0.021846	NaN
185	1.000000	0.923239	7.36686e+06	-47889.1	955.818	-29764.9	0.000000	0.000000	6.923120	0.027787	NaN	0.000000	0.001699	0.001728	28.0785	0.011703	0.001955	5.985367	145.461	-163.991	0.029438	0.921933	-0.085475	-0.086780	0.027787	5.985367	-0.088957	-1.021563	-0.027200	NaN
185	1.000000	0.931249	7.36686e+06	-47889.1	955.819	-29764.9	0.000000	0.000000	6.931130	0.031837	NaN	0.000000	0.001713	0.001726	28.0786	0.058848	0.001957	30.0696	-27.6975	-166.402	0.095429	0.929920	-0.077465	-0.078794	0.031837	30.0696	-0.078259	-0.559624	-0.056890	NaN
185	1.000000	0.939258	7.36686e+06	-47889.1	955.818	-29764.9	0.000000	0.000000	6.939137	-0.015766	NaN	0.000000	0.001675	0.001717	28.0784	0.060823	0.002068	29.4093	155.056	-165.185	-0.016410	0.937939	-0.069456	-0.070775	-0.015766	29.4093	-0.069053	-0.321699	0.049009	NaN
185	1.000000	0.947259	7.36686e+06	-47889.1	955.819	-29764.9	0.000000	0.000000	6.947139	0.001827	NaN	0.000000	0.001701	0.001725	28.079	0.092817	0.001985	46.7541	-27.2846	-163.071	-0.003340	0.945882	-0.061455	-0.062832	0.001827	46.7541	-0.061484	-0.198552	-0.009199	NaN
185	1.000000	0.955244	7.36686e+06	-47889.1	955.819	-29764.9	0.000000	0.000000	6.955123	-0.007092	NaN	0.000000	0.001687	0.001703	28.0783	0.046919	0.002051	22.8739	-145.562	-164.522	0.019555	0.953917	-0.053470	-0.054797	-0.007092	22.8739	-0.053237	-0.114156	0.062128	NaN
185	1.000000	0.963238	7.36686e+06	-47889.1	955.818	-29764.9	0.000000	0.000000	6.963118	0.001753	NaN	0.000000	0.001691	0.001688	28.0786	0.092507	0.002040	45.349	-57.206	-163.241	-0.033536	0.961994	-0.045476	-0.046720	0.001753	45.349	-0.045505	-0.066592	-0.026323	NaN
185	1.000000	0.971234	7.36686e+06	-47889.1	955.819	-29764.9	0.000000	0.000000	6.971115	0.018911	NaN	0.000000	0.001710	0.001704	28.0786	0.077960	0.002139	36.453	-88.4387	-165.389	-0.023293	0.969954	-0.037480	-0.038760	0.018911	36.453	-0.037869	-0.038986	-0.485060	NaN
185	1.000000	0.979245	7.36686e+06	-47889.1	955.818	-29764.9	0.000000	0.000000	6.979128	0.069849	NaN	0.000000	0.001693	0.001726	28.0785	0.111109	0.001974	56.2756	154.343	-168.663	0.106503	0.977984	-0.029469	-0.030729	0.069849	56.2756	-0.030400	-0.023612	-2.958173	NaN
185	1.000000	0.987268	7.36686e+06	-47889.1	955.817	-29764.9	0.000000	0.000000	6.987148	0.004795	NaN	0.000000	0.001691	0.001690	28.0791	0.080341	0.002012	39.9343	43.186	-163.263	-0.045953	0.985937	-0.021446	-0.022777	0.004795	39.9343	-0.021536	-0.013742	-0.348918	NaN
185	1.000000	0.995271	7.36686e+06	-47889.1	955.818	-29764.9	0.000000	0.000000	6.995150	-0.016805	NaN	0.000000	0.001670	0.001672	28.0783	0.046508	0.002008	23.1648	-59.5855	-165.521	-0.073401	0.993945	-0.013443	-0.014769	-0.016805	23.1648	-0.012899	-0.008044	2.089129	NaN
185	1.000000	1.003278	7.36686e+06	-47889.1	955.817	-29764.9	0.000000	0.000000	7.003160	0.058885	NaN	0.000000	0.001636	0.001673	28.0788	0.006167	0.001975	3.123035	66.7742	-164.91	0.040925	1.001940	-0.005436	-0.006774	0.058885	3.123035	-0.019577	-0.012253	-4.805589	NaN
185	1.000000	1.011294	7.36686e+06	-47889.1	955.818	-29764.9	0.000000	0.000000	7.011218	1.071327	NaN	0.000000	0.001620	0.001678	28.0796	1.855266	0.001980	936.987	12.5443	-165.456	0.318157	1.009957	0.002580	0.001243	1.071327	936.987	0.001723	0.001332	804.47	23458.5
185	2.000000	1.018678	7.36686e+06	-47889.1	955.818	-29764.9	0.000000	0.000000	7.018976	10.1629	NaN	0.000000	0.001611	0.001683	28.0799	9.517340	0.001708	5573.57	7.599233	-170.404	9.414880	1.017861	0.009964	0.009147	10.1629	5573.57	0.008597	0.007664	1326.14	58169.1
185	2.000000	1.020815	7.36686e+06	-47889.1	955.817	-29764.9	0.000000	0.000000	7.021254	13.6055	NaN	0.000000	0.001619	0.001645	28.08	11.809	0.001757	6722.88	3.883823	-167.611	12.6071	1.020530	0.012101	0.011817	13.6055	6722.88	0.010583	0.009837	1383.13	61930.2
185	2.000000	1.022788	7.36686e+06	-47889.1	955.818	-29764.9	0.000000	0.000000	7.023399	17.8043	NaN	0.000000	0.001622	0.001695	28.0795	14.0853	0.001639	8592.52	4.277687	-171.91	17.5551	1.022433	0.014074	0.013719	17.8043	8592.52	0.012520	0.012119	1469.17	71313
185	2.000000	1.024822	7.36686e+06	-47889.1	955.818	-29764.9	0.000000	0.000000	7.025521	19.9186	NaN	0.000000	0.001650	0.001730	28.0804	17.2741	0.001844	9368.66	4.981156	-173.749	20.1265	1.024471	0.016108	0.015757	19.9186	9368.66	0.014514	0.014643	1360.32	70736.4
185	2.000000	1.026723	7.36686e+06	-47889.1	955.818	-29764.9	0.000000	0.000000	7.027683	26.2726	NaN	0.000000	0.001635	0.001651	28.08	19.038	0.001776	10717.7	8.718701	-178.085	25.9588	1.026455	0.018009	0.017741	26.2726	10717.7	0.016171	0.016879	1556.57	75371.7
185	2.000000	1.028751	7.36686e+06	-47889.1	955.817	-29764.9	0.000000	0.000000	7.029989	33.0252	NaN	0.000000	0.001633	0.001674	28.08	21.226	0.001743	12175.8	3.610365	-174.54	31.9231	1.028404	0.020038	0.019690	33.0252	12175.8	0.018003	0.019501	1693.49	79660.1
185	2.000000	1.030803	7.36686e+06	-47889.1	955.818	-29764.9	0.000000	0.000000	7.032267	38.5385	NaN	0.000000	0.001668	0.001718	28.0801	23.5779	0.001767	13341.6	4.729978	-175.168	38.8493	1.030372	0.022089	0.021658	38.5385	13341.6	0.019923	0.022421	1718.83	81404.7
185	2.000000	1.032687	7.36686e+06	-47889.1	955.817	-29764.9	0.000000	0.000000	7.034391	44.3786	NaN	0.000000	0.001612	0.001679	28.0801	25.824	0.001867	13834.4	8.078426	-179.621	42.2713	1.032369	0.023973	0.023655	44.3786	13834.4	0.021567	0.025065	1770.53	79836
185	2.000000	1.034717	7.36686e+06	-47889.1	955.818	-29764.9	0.000000	0.000000	7.036616	49.1185	NaN	0.000000	0.001612	0.001707	28.0802	28.5399	0.001786	15982.9	5.137407	-178.465	48.5203	1.034439	0.026003	0.025725	49.1185	15982.9	0.023698	0.028690	1712.04	86211.4
185	2.000000	1.036723	7.36686e+06	-47889.1	955.819	-29764.9	0.000000	0.000000	7.038896	55.7752	NaN	0.000000	0.001601	0.001741	28.0799	29.6104	0.001797	16477.6	3.707435	-178.309	54.9169	1.036421	0.028009	0.027707	55.7752	16477.6	0.025470	0.031877	1749.7	84319.6
185	2.000000	1.038708	7.36686e+06	-47889.1	955.818	-29764.9	0.000000	0.000000	7.041212	63.8444	NaN	0.000000	0.001607	0.001707	28.0799	32.5596	0.001752	18583	2.134944	-176.731	63.9442	1.038392	0.029994	0.029678	63.8444	18583	0.027417	0.035560	1795.39	90034
185	2.000000	1.040736	7.36686e+06	-47889.1	955.817	-29764.9	0.000000	0.000000	7.043610	72.8111	NaN	0.000000	0.001591	0.001693	28.0799	34.241	0.001855	18456.2	2.893074	-176.788	71.8191	1.040388	0.032022	0.031674	72.8111	18456.2	0.029064	0.038825	1875.35	85577.1
185	2.000000	1.042671	7.36686e+06	-47889.1	955.817	-29764.9	0.000000	0.000000	7.045855	80.3823	NaN	0.000000	0.001622	0.001737	28.08	36.0855	0.001760	20506.8	3.993546	-179.323	79.5373	1.042444	0.033957	0.033730	80.3823	20506.8	0.031017	0.042878	1874.66	90479.8
185	2.000000	1.044670	7.36686e+06	-47889.1	955.818	-29764.9	0.000000	0.000000	7.048073	85.6974	NaN	0.000000	0.001574	0.001742	28.0803	38.8962	0.001911	20357.5	5.315868	179.391	84.348	1.044467	0.035956	0.035753	85.6974	20357.5	0.032799	0.046744	1833.32	86026.7
185	2.000000	1.046671	7.36686e+06	-47889.1	955.817	-29764.9	0.000000	0.000000	7.050540	97.0307	NaN	0.000000	0.001586	0.001719	28.08	39.6693	0.001827	21707.4	3.937990	-179.344	95.5816	1.046348	0.037957	0.037634	97.0307	21707.4	0.034605	0.050830	1908.93	87967.5
185	2.000000	1.048707	7.36686e+06	-47889.1	955.818	-29764.9	0.000000	0.000000	7.052879	104.405	NaN	0.000000	0.001582	0.001711	28.0807	41.7745	0.001810	23074.2	4.508843	178.604	103.674	1.048342	0.039993	0.039628	104.405	23074.2	0.036600	0.055536	1879.95	89456.7
185	2.000000	1.050708	7.36686e+06	-47889.1	955.818	-29764.9	0.000000	0.000000	7.055313	114.935	NaN	0.000000	0.001600	0.001724	28.079	44.1923	0.001831	24129.8	7.725315	175.351	114.156	1.050320	0.041994	0.041606	114.935	24129.8	0.038422	0.060013	1915.16	89991.7
185	2.000000	1.052693	7.36686e+06	-47889.1	955.818	-29764.9	0.000000	0.000000	7.057811	127.42	NaN	0.000000	0.001581	0.001714	28.0787	45.7452	0.001806	25323.9	10.1391	173.144	127.562	1.052324	0.043979	0.043610	127.42	25323.9	0.040205	0.064560	1973.65	91058.5
185	2.000000	1.054644	7.36686e+06	-47889.1	955.818	-29764.9	0.000000	0.000000	7.060221	138.561	NaN	0.000000	0.001595	0.001741	28.0789	47.971	0.001751	27399.4	8.110134	174.098	137.657	1.054371	0.045931	0.045657	138.561	27399.4	0.042138	0.069670	1988.82	94840.2
185	2.000000	1.056591	7.36686e+06	-47889.1	955.818	-29764.9	0.000000	0.000000	7.062642	150.102	NaN	0.000000	0.001565	0.001723	28.0788	47.5391	0.001759	27020.1	2.163275	-179.419	146.593	1.056323	0.047878	0.047609	150.102	27020.1	0.043711	0.073971	2029.2	90767.3
185	2.000000	1.058690	7.36686e+06	-47889.1	955.818	-29764.9	0.000000	0.000000	7.065042	157.406	NaN	0.000000	0.001570	0.001743	28.079	51.5617	0.001672	30841.4	5.824016	176.023	156.403	1.058260	0.049977	0.049546	157.406	30841.4	0.046149	0.080882	1946.11	99078.9
185	2.000000	1.060683	7.36686e+06	-47889.1	955.817	-29764.9	0.000000	0.000000	7.067387	165.995	NaN	0.000000	0.001566	0.001730	28.0783	53.5578	0.001870	28643.8	4.854754	177.182	163.513	1.060379	0.051969	0.051665	165.995	28643.8	0.047622	0.085206	1948.17	89653.8
185	2.000000	1.062622	7.36686e+06	-47889.1	955.818	-29764.9	0.000000	0.000000	7.069527	170.872	NaN	0.000000	0.001604	0.001730	28.0785	56.0092	0.001826	30680.7	5.401031	174.838	167.369	1.062403	0.053909	0.053690	170.872	30680.7	0.049732	0.091585	1865.72	92624.6
185	2.000000	1.064588	7.36686e+06	-47889.1	955.818	-29764.9	0.000000	0.000000	7.072139	186.576	NaN	0.000000	0.001570	0.001750	28.0786	55.7233	0.001638	34017.7	-0.518866	-179.752	181.915	1.064319	0.055874	0.055605	186.576	34017.7	0.051761	0.097933	1905.15	99315
185	2.000000	1.066610	7.36686e+06	-47889.1	955.818	-29764.9	0.000000	0.000000	7.074665	198.834	NaN	0.000000	0.001617	0.001697	28.0787	58.3352	0.001765	33045.1	5.154293	174.721	195.064	1.066328	0.057896	0.057615	198.834	33045.1	0.053384	0.103158	1927.47	94000.2
185	2.000000	1.068624	7.36686e+06	-47889.1	955.818	-29764.9	0.000000	0.000000	7.077100	209.073	NaN	0.000000	0.001569	0.001699	28.0791	60.6937	0.001798	33747.6	3.778973	176.233	208.135	1.068361	0.059910	0.059647	209.073	33747.6	0.055264	0.109376	1911.52	93229.9
185	2.000000	1.070701	7.36686e+06	-47889.1	955.817	-29764.9	0.000000	0.000000	7.079749	223.001	NaN	0.000000	0.001609	0.001741	28.0786	63.0038	0.001741	36178.4	5.529830	174.328	222.029	1.070333	0.061987	0.061620	223.001	36178.4	0.057364	0.116527	1913.73	96829.9
185	2.000000	1.072669	7.36686e+06	-47889.1	955.818	-29764.9	0.000000	0.000000	7.082065	231.467	NaN	0.000000	0.001623	0.001733	28.0787	64.2713	0.001873	34308.8	6.128036	174.572	231.16	1.072366	0.063955	0.063652	231.467	34308.8	0.058895	0.121876	1899.2	89788.3
185	2.000000	1.074618	7.36686e+06	-47889.1	955.817	-29764.9	0.000000	0.000000	7.084605	245.831	NaN	0.000000	0.001597	0.001728	28.0784	66.4705	0.001774	37472.8	3.935329	175.658	244.073	1.074284	0.065904	0.065571	245.831	37472.8	0.060984	0.129361	1900.35	95189.4
185	2.000000	1.076666	7.36686e+06	-47889.1	955.818	-29764.9	0.000000	0.000000	7.087176	258.567	NaN	0.000000	0.001601	0.001690	28.0786	67.9964	0.001917	35461.8	6.817689	172.978	258.316	1.076332	0.067952	0.067618	258.567	35461.8	0.062483	0.134863	1917.25	88224
185	2.000000	1.078576	7.36686e+06	-47889.1	955.818	-29764.9	0.000000	0.000000	7.089536	269.501	NaN	0.000000	0.001567	0.001682	28.0787	70.4398	0.001883	37409.9	4.594232	174.853	264.946	1.078289	0.069862	0.069575	269.501	37409.9	0.064459	0.142282	1894.14	90612
185	2.000000	1.080662	7.36686e+06	-47889.1	955.817	-29764.9	0.000000	0.000000	7.091975	278.068	NaN	0.000000	0.001584	0.001657	28.0784	70.9269	0.001663	42660.3	1.991382	176.233	277.98	1.080408	0.071949	0.071694	278.068	42660.3	0.067060	0.152334	1825.39	99861.6
185	2.000000	1.082617	7.36686e+06	-47889.1	955.817	-29764.9	0.000000	0.000000	7.094589	294.127	NaN	0.000000	0.001594	0.001696	28.0787	72.2015	0.001667	43304	5.133186	172.67	291.402	1.082494	0.073903	0.073780	294.127	43304	0.068809	0.159277	1846.64	99134.5
185	2.000000	1.084643	7.36686e+06	-47889.1	955.817	-29764.9	0.000000	0.000000	7.097088	305.618	NaN	0.000000	0.001587	0.001736	28.0792	76.0933	0.001844	41273.6	3.618177	175.352	303.21	1.084362	0.075930	0.075649	305.618	41273.6	0.070376	0.165621	1845.29	92659.1
185	2.000000	1.086587	7.36686e+06	-47889.1	955.818	-29764.9	0.000000	0.000000	7.099962	328.244	NaN	0.000000	0.001584	0.001703	28.0797	75.7318	0.001573	48137.7	4.914282	172.442	326.029	1.086308	0.077873	0.077594	328.244	48137.7	0.072759	0.175491	1870.44	104986
185	2.000000	1.088498	7.36686e+06	-47889.1	955.816	-29764.9	0.000000	0.000000	7.102295	338.485	NaN	0.000000	0.001573	0.001698	28.08	77.8801	0.001731	44992.9	3.277767	174.931	331.781	1.088230	0.079785	0.079516	338.485	44992.9	0.074142	0.181345	1866.52	96530.3
185	2.000000	1.090655	7.36686e+06	-47889.1	955.817	-29764.9	0.000000	0.000000	7.104915	349.767	NaN	0.000000	0.001650	0.001687	28.0798	80.8846	0.001894	42710.2	4.255033	174.555	349.766	1.090370	0.081941	0.081657	349.767	42710.2	0.075799	0.188474	1855.78	89883.3
185	2.000000	1.092551	7.36686e+06	-47889.1	955.817	-29764.9	0.000000	0.000000	7.107403	364.16	NaN	0.000000	0.001614	0.001686	28.0803	81.8705	0.001805	45361.7	2.628217	175.357	358.929	1.092312	0.083837	0.083598	364.16	45361.7	0.077816	0.197328	1845.46	93297.1
185	2.000000	1.094661	7.36686e+06	-47889.1	955.817	-29764.9	0.000000	0.000000	7.109958	374.991	NaN	0.000000	0.001624	0.001724	28.0799	86.1148	0.001889	45587.1	3.701735	174.326	374.358	1.094289	0.085947	0.085575	374.991	45587.1	0.079777	0.206120	1819.28	91739.3
185	2.000000	1.096459	7.36686e+06	-47889.1	955.817	-29764.9	0.000000	0.000000	7.112366	389.832	NaN	0.000000	0.001682	0.001719	28.0799	86.0596	0.001791	48049.5	2.399484	175.719	380.72	1.096280	0.087745	0.087566	389.832	48049.5	0.081661	0.214729	1815.46	94736.3
185	2.000000	1.098579	7.36686e+06	-47889.1	955.817	-29764.9	0.000000	0.000000	7.115203	407.259	NaN	0.000000	0.001598	0.001660	28.08	89.5276	0.001776	50416.1	4.873123	173.032	403.752	1.098180	0.089865	0.089466	407.259	50416.1	0.083806	0.224741	1812.13	97163
185	2.000000	1.100625	7.36686e+06	-47889.1	955.817	-29764.9	0.000000	0.000000	7.117757	419.622	NaN	0.000000	0.001637	0.001684	28.0799	91.2875	0.001724	52950.6	5.530305	171.54	417.999	1.100307	0.091911	0.091593	419.622	52950.6	0.085967	0.235038	1785.34	99787.2
185	2.000000	1.102553	7.36686e+06	-47889.1	955.817	-29764.9	0.000000	0.000000	7.120264	433.704	NaN	0.000000	0.001617	0.001696	28.0804	92.3829	0.001812	50989	3.651222	173.523	429.405	1.102270	0.093839	0.093556	433.704	50989	0.087460	0.242276	1790.12	94644.2
185	2.000000	1.104720	7.36686e+06	-47889.1	955.818	-29764.9	0.000000	0.000000	7.122633	438.619	NaN	0.000000	0.001625	0.001696	28.0798	95.1723	0.001764	53950.4	2.529788	174.192	441.938	1.104552	0.096006	0.095838	438.619	53950.4	0.089909	0.254374	1724.31	97730.7
185	2.000000	1.106554	7.36686e+06	-47889.1	955.818	-29764.9	0.000000	0.000000	7.125617	466.609	NaN	0.000000	0.001643	0.001710	28.0801	95.9904	0.001804	53220.1	4.344838	172.569	463.523	1.106312	0.097840	0.097598	466.609	53220.1	0.091264	0.261187	1786.49	95142.2
185	2.000000	1.108464	7.36686e+06	-47889.1	955.818	-29764.9	0.000000	0.000000	7.128090	480.264	NaN	0.000000	0.001610	0.001738	28.08	100.106	0.001940	51610.4	5.988957	172.02	471.235	1.108091	0.099751	0.099377	480.264	51610.4	0.092771	0.268864	1786.27	90937.8
185	2.000000	1.110638	7.36686e+06	-47889.1	955.818	-29764.9	0.000000	0.000000	7.131113	500.927	NaN	0.000000	0.001642	0.001724	28.0799	101.106	0.001819	55584.6	4.886685	172.164	500.094	1.110201	0.101924	0.101488	500.927	55584.6	0.095165	0.281267	1780.96	95756.4
185	2.000000	1.112602	7.36686e+06	-47889.1	955.817	-29764.9	0.000000	0.000000	7.133663	515.205	NaN	0.000000	0.001623	0.001708	28.0803	102.063	0.001786	57152	2.445176	174.405	513.237	1.112211	0.103888	0.103497	515.205	57152	0.097127	0.291628	1766.65	96691.9
185	2.000000	1.114676	7.36686e+06	-47889.1	955.816	-29764.9	0.000000	0.000000	7.135659	513.299	NaN	0.000000	0.001632	0.001701	28.0798	104.662	0.001823	57397.2	5.016082	171.003	514.493	1.114593	0.105962	0.105879	513.299	57397.2	0.099255	0.303065	1693.7	95256.8
185	2.000000	1.116587	7.36686e+06	-47889.1	955.817	-29764.9	0.000000	0.000000	7.139270	554.648	NaN	0.000000	0.001628	0.001722	28.08	105.046	0.001766	59471.7	6.372148	170.467	553.155	1.116142	0.107873	0.107428	554.648	59471.7	0.100878	0.311929	1778.12	97287.2
185	2.000000	1.117089	7.36686e+06	-47889.1	955.818	-29764.9	0.000000	0.000000	7.139877	557.175	NaN	0.000000	0.001629	0.001723	28.08	106.259	0.001822	58308	6.468266	-9.666048	553.98	1.116751	0.108375	0.108037	557.175	58308	0.101209	0.313747	1775.87	95106.8