File: remote_trans/data/nanoindenter/0828-1/data/Data_2025-08-06,11h17m57s/2025-07-22_16-23-58_1_154.txt
2025-07-22, 16:23:58, 1
Index	Phase	Displacement	Time	Pos X	Pos Y	Pos Z	Rot A	Rot B	Piezo Z	Force A	Force B	Gripper	Voltage A	Voltage B	Temperature	Amplitude force	Amplitude pos	Stiffness	Phase shift	Phase excitation	Force A raw	Displacement raw	HMax	HMax raw	Real Force	Real Stiffness	Contact Depth	Area	Hardness	Reduced Mod.
[#]	[#]	[um]	[s]	[um]	[um]	[um]	[m°]	[m°]	[um]	[uN]	[uN]	[V]	[V]	[V]	[°C]	[uN]	[um]	[N/m]	[°]	[°]	[uN]	[um]	[um]	[um]	[uN]	[N/m]	[um]	[um^2]	[MPa]	[MPa]
154	1.000000	0.002843	7.36655e+06	-46339.1	955.819	-29769.9	0.000000	0.000000	6.002789	-0.025970	NaN	0.000000	0.001604	0.001766	28.0864	0.067466	0.001000	67.4641	-122.372	-162.118	0.018186	0.001628	-1.051390	-1.052605	-0.025970	67.4641	-1.051101	-1.104639E+14	2.351025E-16	NaN
154	1.000000	0.010822	7.36655e+06	-46339.1	955.818	-29769.9	0.000000	0.000000	6.010767	-0.027757	NaN	0.000000	0.001622	0.001760	28.0863	0.133124	0.001006	132.278	-67.6443	-176.05	0.050738	0.009534	-1.043412	-1.044699	-0.027757	132.278	-1.043254	-8.664128E+13	3.203667E-16	NaN
154	1.000000	0.018804	7.36655e+06	-46339.1	955.818	-29769.9	0.000000	0.000000	6.018751	0.006013	NaN	0.000000	0.001577	0.001740	28.0873	0.058426	0.001786	32.7082	126.737	-167.016	0.047526	0.017542	-1.035429	-1.036692	0.006013	32.7082	-1.035567	-6.829014E+13	-8.805365E-17	NaN
154	1.000000	0.026820	7.36655e+06	-46339.1	955.819	-29769.9	0.000000	0.000000	6.026767	-0.003175	NaN	0.000000	0.001552	0.001767	28.0864	0.076450	0.001870	40.884	8.407337	-161.961	-0.000770	0.025462	-1.027413	-1.028771	-0.003175	40.884	-1.027355	-5.295451E+13	5.996442E-17	NaN
154	1.000000	0.034797	7.36655e+06	-46339.1	955.819	-29769.9	0.000000	0.000000	6.034746	0.053584	NaN	0.000000	0.001564	0.001714	28.087	0.117650	0.001969	59.7387	-69.4525	-166.593	0.024468	0.033535	-1.019437	-1.020699	0.053584	59.7387	-1.020109	-4.230826E+13	-1.266524E-15	NaN
154	1.000000	0.042799	7.36655e+06	-46339.1	955.818	-29769.9	0.000000	0.000000	6.042746	0.019683	NaN	0.000000	0.001599	0.001716	28.0879	0.053431	0.001936	27.6036	-23.7162	-167.423	0.045665	0.041481	-1.011435	-1.012752	0.019683	27.6036	-1.011969	-3.287665E+13	-5.986931E-16	NaN
154	1.000000	0.050806	7.36655e+06	-46339.1	955.818	-29770	0.000000	0.000000	6.050753	-0.004751	NaN	0.000000	0.001604	0.001756	28.0886	0.083149	0.001887	44.0585	-1.990609	-168.565	0.069654	0.049456	-1.003428	-1.004778	-0.004751	44.0585	-1.003347	-2.516656E+13	1.887810E-16	NaN
154	1.000000	0.058813	7.36655e+06	-46339.1	955.818	-29770	0.000000	0.000000	6.058761	0.024047	NaN	0.000000	0.001598	0.001715	28.0872	0.076180	0.001911	39.8648	-21.8978	-167.714	-0.058321	0.057539	-0.995421	-0.996695	0.024047	39.8648	-0.995873	-1.996184E+13	-1.204637E-15	NaN
154	1.000000	0.066827	7.36655e+06	-46339.1	955.819	-29770	0.000000	0.000000	6.066771	-0.066147	NaN	0.000000	0.001611	0.001737	28.089	0.103630	0.001994	51.9797	154.493	-166.882	-0.025355	0.065480	-0.987406	-0.988753	-0.066147	51.9797	-0.986452	-1.490470E+13	4.438007E-15	NaN
154	1.000000	0.074833	7.36655e+06	-46339.1	955.819	-29770	0.000000	0.000000	6.074782	0.065273	NaN	0.000000	0.001586	0.001755	28.0874	0.069188	0.002080	33.2572	-72.2072	-163.28	0.059074	0.073448	-0.979401	-0.980785	0.065273	33.2572	-0.980873	-1.253624E+13	-5.206740E-15	NaN
154	1.000000	0.082798	7.36655e+06	-46339.1	955.817	-29770	0.000000	0.000000	6.082743	-0.043631	NaN	0.000000	0.001593	0.001754	28.0865	0.185164	0.002092	88.5273	-24.0036	-165.564	-0.006792	0.081510	-0.971435	-0.972723	-0.043631	88.5273	-0.971066	-9.247551E+12	4.718102E-15	NaN
154	1.000000	0.090806	7.36655e+06	-46339.1	955.818	-29770	0.000000	0.000000	6.090752	-0.003398	NaN	0.000000	0.001609	0.001773	28.0868	0.067420	0.002091	32.2482	-132.854	-164.812	0.056658	0.089506	-0.963428	-0.964728	-0.003398	32.2482	-0.963349	-7.278021E+12	4.668986E-16	NaN
154	1.000000	0.098827	7.36655e+06	-46339.1	955.818	-29770	0.000000	0.000000	6.098774	0.008541	NaN	0.000000	0.001635	0.001733	28.0867	0.073743	0.002034	36.2468	-114.918	-169.024	0.018977	0.097510	-0.955407	-0.956724	0.008541	36.2468	-0.955583	-5.719027E+12	-1.493445E-15	NaN
154	1.000000	0.106820	7.36655e+06	-46339.1	955.818	-29770	0.000000	0.000000	6.106766	-0.010390	NaN	0.000000	0.001652	0.001731	28.0867	0.051698	0.002084	24.8129	122.723	-164.284	0.012205	0.105489	-0.947414	-0.948745	-0.010390	24.8129	-0.947100	-4.394524E+12	2.364245E-15	NaN
154	1.000000	0.114831	7.36655e+06	-46339.1	955.818	-29770	0.000000	0.000000	6.114776	-0.041623	NaN	0.000000	0.001670	0.001733	28.0866	0.065697	0.001999	32.8572	117.485	-165.334	-0.043802	0.113541	-0.939402	-0.940692	-0.041623	32.8572	-0.938452	-3.359362E+12	1.239018E-14	NaN
154	1.000000	0.122801	7.36655e+06	-46339.1	955.819	-29770	0.000000	0.000000	6.122747	-0.002054	NaN	0.000000	0.001633	0.001747	28.086	0.026375	0.001947	13.5478	89.4687	-165.98	0.023626	0.121535	-0.931433	-0.932699	-0.002054	13.5478	-0.931319	-2.691533E+12	7.630895E-16	NaN
154	1.000000	0.130830	7.36655e+06	-46339.1	955.818	-29770	0.000000	0.000000	6.130776	-0.028641	NaN	0.000000	0.001621	0.001766	28.0861	0.046980	0.002054	22.8685	-144.383	-168.253	-0.039696	0.129575	-0.923403	-0.924659	-0.028641	22.8685	-0.922464	-2.043974E+12	1.401217E-14	NaN
154	1.000000	0.138845	7.36655e+06	-46339.1	955.818	-29770	0.000000	0.000000	6.138790	-0.018448	NaN	0.000000	0.001620	0.001743	28.0867	0.046201	0.001999	23.115	64.5866	-167.323	0.063034	0.137482	-0.915389	-0.916752	-0.018448	23.115	-0.914790	-1.610128E+12	1.145755E-14	NaN
154	1.000000	0.146814	7.36655e+06	-46339.1	955.819	-29770	0.000000	0.000000	6.146757	-0.091100	NaN	0.000000	0.001645	0.001748	28.0865	0.086900	0.001867	46.537	45.693	-167.244	-0.085482	0.145524	-0.907420	-0.908710	-0.091100	46.537	-0.905952	-1.223143E+12	7.447991E-14	NaN
154	1.000000	0.154836	7.36655e+06	-46339.1	955.818	-29770	0.000000	0.000000	6.154782	-0.001129	NaN	0.000000	0.001618	0.001753	28.0864	0.171831	0.002064	83.2652	-74.2556	-166.268	0.028429	0.153582	-0.899398	-0.900651	-0.001129	83.2652	-0.899388	-9.972260E+11	1.131956E-15	NaN
154	1.000000	0.162852	7.36655e+06	-46339.1	955.819	-29770	0.000000	0.000000	6.162797	-0.038902	NaN	0.000000	0.001629	0.001761	28.0845	0.114660	0.001957	58.5865	65.5886	-165.723	-0.094160	0.161513	-0.891381	-0.892720	-0.038902	58.5865	-0.890883	-7.653447E+11	5.082886E-14	NaN
154	1.000000	0.170878	7.36655e+06	-46339.1	955.818	-29770	0.000000	0.000000	6.170821	-0.079585	NaN	0.000000	0.001655	0.001763	28.0851	0.083674	0.001954	42.8289	-95.2237	-166.621	-0.019266	0.169563	-0.883356	-0.884671	-0.079585	42.8289	-0.881962	-5.797468E+11	1.372752E-13	NaN
154	1.000000	0.178836	7.36655e+06	-46339.1	955.818	-29770	0.000000	0.000000	6.178781	-0.039753	NaN	0.000000	0.001667	0.001758	28.0853	0.103469	0.002056	50.323	-59.5924	-166.245	-0.046580	0.177578	-0.875398	-0.876655	-0.039753	50.323	-0.874805	-4.639262E+11	8.568848E-14	NaN
154	1.000000	0.186862	7.36655e+06	-46339.1	955.819	-29770	0.000000	0.000000	6.186813	0.104447	NaN	0.000000	0.001645	0.001738	28.0846	0.067158	0.001901	35.3274	179.279	-168.652	0.047412	0.185515	-0.867371	-0.868719	0.104447	35.3274	-0.869588	-3.943449E+11	-2.648614E-13	NaN
154	1.000000	0.194875	7.36655e+06	-46339.1	955.819	-29770	0.000000	0.000000	6.194818	-0.087163	NaN	0.000000	0.001644	0.001716	28.0849	0.025865	0.001859	13.9147	-95.318	-165.989	-0.059731	0.193516	-0.859359	-0.860718	-0.087163	13.9147	-0.854661	-2.476530E+11	3.519566E-13	NaN
154	1.000000	0.202862	7.36655e+06	-46339.1	955.819	-29770	0.000000	0.000000	6.202806	-0.069568	NaN	0.000000	0.001658	0.001733	28.0855	0.074391	0.001944	38.2665	-155.714	-165.598	0.005618	0.201591	-0.851371	-0.852642	-0.069568	38.2665	-0.850008	-2.142125E+11	3.247606E-13	NaN
154	1.000000	0.210859	7.36655e+06	-46339.1	955.818	-29770	0.000000	0.000000	6.210802	-0.094396	NaN	0.000000	0.001655	0.001738	28.0856	0.087214	0.001970	44.2675	53.5086	-165.5	-0.096766	0.209573	-0.843374	-0.844661	-0.094396	44.2675	-0.841775	-1.657065E+11	5.696589E-13	NaN
154	1.000000	0.218843	7.36655e+06	-46339.1	955.818	-29770	0.000000	0.000000	6.218788	-0.034099	NaN	0.000000	0.001686	0.001749	28.0852	0.051404	0.002014	25.527	111.556	-162.697	-0.021652	0.217604	-0.835390	-0.836630	-0.034099	25.527	-0.834389	-1.316019E+11	2.591045E-13	NaN
154	1.000000	0.226868	7.36655e+06	-46339.1	955.818	-29770	0.000000	0.000000	6.226811	-0.078937	NaN	0.000000	0.001652	0.001761	28.0859	0.045548	0.002025	22.488	-163.31	-166.81	-0.140741	0.225575	-0.827366	-0.828659	-0.078937	22.488	-0.824733	-9.736098E+10	8.107702E-13	NaN
154	1.000000	0.234871	7.36655e+06	-46339.1	955.819	-29770	0.000000	0.000000	6.234819	0.024627	NaN	0.000000	0.001656	0.001710	28.0855	0.036316	0.001986	18.283	-79.5638	-166.833	0.027137	0.233560	-0.819363	-0.820674	0.024627	18.283	-0.820373	-8.497039E+10	-2.898348E-13	NaN
154	1.000000	0.242877	7.36655e+06	-46339.1	955.817	-29770	0.000000	0.000000	6.242822	-0.029203	NaN	0.000000	0.001700	0.001743	28.0836	0.100189	0.002065	48.5124	66.1511	-166.046	-0.025631	0.241544	-0.811357	-0.812690	-0.029203	48.5124	-0.810905	-6.321965E+10	4.619233E-13	NaN
154	1.000000	0.250866	7.36655e+06	-46339.1	955.818	-29770	0.000000	0.000000	6.250809	-0.074518	NaN	0.000000	0.001678	0.001755	28.0848	0.051268	0.001964	26.1042	-3.537617	-167.69	-0.025401	0.249580	-0.803368	-0.804654	-0.074518	26.1042	-0.801227	-4.672139E+10	1.594947E-12	NaN
154	1.000000	0.258895	7.36655e+06	-46339.1	955.818	-29770	0.000000	0.000000	6.258843	0.048113	NaN	0.000000	0.001729	0.001774	28.0866	0.035647	0.002097	17.0012	-35.5753	-168.007	0.032148	0.257607	-0.795339	-0.796627	0.048113	17.0012	-0.797461	-4.153344E+10	-1.158409E-12	NaN
154	1.000000	0.266869	7.36655e+06	-46339.1	955.819	-29770	0.000000	0.000000	6.266813	-0.072162	NaN	0.000000	0.001676	0.001752	28.0849	0.089479	0.001921	46.5835	-168.316	-166.896	-0.012262	0.265621	-0.787364	-0.788613	-0.072162	46.5835	-0.786202	-2.920799E+10	2.470611E-12	NaN
154	1.000000	0.274866	7.36655e+06	-46339.1	955.819	-29770	0.000000	0.000000	6.274813	0.017858	NaN	0.000000	0.001714	0.001739	28.0859	0.075994	0.001964	38.6979	-150.569	-167.22	-0.023987	0.273605	-0.779368	-0.780629	0.017858	38.6979	-0.779714	-2.384203E+10	-7.490039E-13	NaN
154	1.000000	0.282907	7.36655e+06	-46339.1	955.818	-29770	0.000000	0.000000	6.282852	-0.033531	NaN	0.000000	0.001680	0.001736	28.087	0.060141	0.001979	30.3852	143.042	-165.99	0.045969	0.281615	-0.771327	-0.772619	-0.033531	30.3852	-0.770499	-1.786867E+10	1.876529E-12	NaN
154	1.000000	0.290887	7.36655e+06	-46339.1	955.817	-29770	0.000000	0.000000	6.290834	0.001205	NaN	0.000000	0.001664	0.001749	28.0876	0.086079	0.002016	42.69	168.894	-167.623	-0.035681	0.289615	-0.763346	-0.764618	0.001205	42.69	-0.763367	-1.429256E+10	-8.430077E-14	NaN
154	1.000000	0.298925	7.36655e+06	-46339.1	955.818	-29770	0.000000	0.000000	6.298871	-0.027248	NaN	0.000000	0.001657	0.001718	28.086	0.020249	0.001999	10.1283	175.438	-165.391	-0.003358	0.297593	-0.755308	-0.756640	-0.027248	10.1283	-0.753290	-1.042331E+10	2.614180E-12	NaN
154	1.000000	0.306919	7.36655e+06	-46339.1	955.819	-29770	0.000000	0.000000	6.306862	-0.092270	NaN	0.000000	0.001630	0.001702	28.0871	0.099314	0.002054	48.3592	-66.9719	-167.992	0.007080	0.305623	-0.747314	-0.748611	-0.092270	48.3592	-0.745883	-8.263764E+9	1.116558E-11	NaN
154	1.000000	0.314896	7.36655e+06	-46339.1	955.817	-29770	0.000000	0.000000	6.314843	0.010828	NaN	0.000000	0.001611	0.001726	28.0866	0.065717	0.002126	30.905	168.928	-168.548	-0.063916	0.313601	-0.739337	-0.740632	0.010828	30.905	-0.739600	-6.785922E+9	-1.595646E-12	NaN
154	1.000000	0.322914	7.36655e+06	-46339.1	955.818	-29770	0.000000	0.000000	6.322862	0.022119	NaN	0.000000	0.001661	0.001710	28.0859	0.082473	0.001889	43.6632	-130.665	-164.038	-0.016663	0.321590	-0.731319	-0.732644	0.022119	43.6632	-0.731699	-5.296232E+9	-4.176452E-12	NaN
154	1.000000	0.330880	7.36655e+06	-46339.1	955.818	-29770	0.000000	0.000000	6.330828	0.021367	NaN	0.000000	0.001633	0.001714	28.0853	0.019411	0.001956	9.924220	-62.2421	-164.98	0.043130	0.329588	-0.723353	-0.724645	0.021367	9.924220	-0.724968	-4.287618E+9	-4.983532E-12	NaN
154	1.000000	0.338960	7.36655e+06	-46339.1	955.818	-29770	0.000000	0.000000	6.338906	-0.013781	NaN	0.000000	0.001638	0.001734	28.0853	0.067775	0.002090	32.4342	-55.2201	-165.798	0.003003	0.337635	-0.715274	-0.716598	-0.013781	32.4342	-0.714955	-3.130847E+9	4.401533E-12	NaN
154	1.000000	0.346937	7.36655e+06	-46339.1	955.818	-29770	0.000000	0.000000	6.346885	0.024294	NaN	0.000000	0.001651	0.001709	28.0858	0.029617	0.001910	15.5064	-146.499	-165.228	-0.029008	0.345638	-0.707297	-0.708596	0.024294	15.5064	-0.708472	-2.553811E+9	-9.512852E-12	NaN
154	1.000000	0.354948	7.36655e+06	-46339.1	955.818	-29770	0.000000	0.000000	6.354895	0.011803	NaN	0.000000	0.001647	0.001737	28.084	0.050350	0.002011	25.0385	-35.6364	-164.803	-0.033343	0.353709	-0.699286	-0.700524	0.011803	25.0385	-0.699639	-1.934649E+9	-6.100786E-12	NaN
154	1.000000	0.362944	7.36655e+06	-46339.1	955.818	-29770	0.000000	0.000000	6.362889	-0.039031	NaN	0.000000	0.001644	0.001742	28.0873	0.090202	0.001923	46.8973	37.5671	-165.589	-0.035924	0.361642	-0.691290	-0.692592	-0.039031	46.8973	-0.690665	-1.458856E+9	2.675463E-11	NaN
154	1.000000	0.370944	7.36655e+06	-46339.1	955.818	-29770	0.000000	0.000000	6.370889	-0.029914	NaN	0.000000	0.001669	0.001719	28.0871	0.098332	0.001957	50.2441	-154.303	-162.457	0.001004	0.369622	-0.683290	-0.684611	-0.029914	50.2441	-0.682844	-1.140487E+9	2.622938E-11	NaN
154	1.000000	0.378971	7.36655e+06	-46339.1	955.818	-29770	0.000000	0.000000	6.378919	0.020712	NaN	0.000000	0.001623	0.001767	28.0867	0.024975	0.002031	12.2957	102.385	-168.709	-0.051425	0.377675	-0.675262	-0.676559	0.020712	12.2957	-0.676526	-9.347228E+8	-2.215839E-11	NaN
154	1.000000	0.386962	7.36655e+06	-46339.1	955.818	-29770	0.000000	0.000000	6.386906	-0.062094	NaN	0.000000	0.001664	0.001784	28.0866	0.084193	0.001996	42.1884	-176.447	-168.334	0.000568	0.385695	-0.667272	-0.668539	-0.062094	42.1884	-0.666168	-6.744272E+8	9.206941E-11	NaN
154	1.000000	0.394920	7.36655e+06	-46339.1	955.818	-29770	0.000000	0.000000	6.394868	0.020749	NaN	0.000000	0.001659	0.001747	28.0855	0.097784	0.002043	47.8685	115.711	-167.289	0.027281	0.393669	-0.659314	-0.660564	0.020749	47.8685	-0.659639	-5.489322E+8	-3.779802E-11	NaN
154	1.000000	0.402940	7.36655e+06	-46339.1	955.819	-29770	0.000000	0.000000	6.402885	-0.024488	NaN	0.000000	0.001648	0.001718	28.085	0.136020	0.001951	69.7191	-8.952217	-169.351	-0.062795	0.401655	-0.651294	-0.652579	-0.024488	69.7191	-0.651031	-4.183732E+8	5.853036E-11	NaN
154	1.000000	0.410946	7.36655e+06	-46339.1	955.817	-29770	0.000000	0.000000	6.410891	-0.037085	NaN	0.000000	0.001647	0.001753	28.0854	0.060961	0.001941	31.4067	-137.057	-167.781	-0.102677	0.409654	-0.643287	-0.644580	-0.037085	31.4067	-0.642402	-3.185966E+8	1.164005E-10	NaN
154	1.000000	0.418950	7.36655e+06	-46339.1	955.818	-29770	0.000000	0.000000	6.418898	0.018734	NaN	0.000000	0.001594	0.001709	28.0838	0.019306	0.002007	9.621729	81.2203	-167.418	-0.082283	0.417603	-0.635283	-0.636631	0.018734	9.621729	-0.636744	-2.664435E+8	-7.031275E-11	NaN
154	1.000000	0.426964	7.36655e+06	-46339.1	955.818	-29770	0.000000	0.000000	6.426910	-0.027004	NaN	0.000000	0.001646	0.001721	28.0846	0.132753	0.002048	64.8246	130.756	-164.838	-0.091452	0.425677	-0.627269	-0.628557	-0.027004	64.8246	-0.626957	-1.955363E+8	1.381038E-10	NaN
154	1.000000	0.434992	7.36655e+06	-46339.1	955.819	-29770	0.000000	0.000000	6.434938	-0.008747	NaN	0.000000	0.001602	0.001714	28.0846	0.084377	0.002125	39.7019	155.547	-164.977	-0.071041	0.433707	-0.619242	-0.620527	-0.008747	39.7019	-0.619077	-1.523853E+8	5.739740E-11	NaN
154	1.000000	0.442973	7.36655e+06	-46339.1	955.818	-29770	0.000000	0.000000	6.442914	-0.128104	NaN	0.000000	0.001599	0.001716	28.0865	0.068961	0.001945	35.4537	86.8631	-163.786	-0.083936	0.441626	-0.611261	-0.612608	-0.128104	35.4537	-0.608551	-1.091874E+8	1.173251E-9	NaN
154	1.000000	0.450980	7.36655e+06	-46339.1	955.819	-29770	0.000000	0.000000	6.450922	-0.112714	NaN	0.000000	0.001587	0.001717	28.084	0.113033	0.002010	56.2491	-123.336	-163.634	-0.046041	0.449661	-0.603253	-0.604572	-0.112714	56.2491	-0.601750	-8.801640E+7	1.280607E-9	NaN
154	1.000000	0.458970	7.36655e+06	-46339.1	955.818	-29770	0.000000	0.000000	6.458916	-0.021013	NaN	0.000000	0.001616	0.001697	28.0855	0.132767	0.001983	66.9379	86.6227	-164.523	-0.014562	0.457692	-0.595263	-0.596541	-0.021013	66.9379	-0.595028	-7.111593E+7	2.954760E-10	NaN
154	1.000000	0.466999	7.36655e+06	-46339.1	955.818	-29770	0.000000	0.000000	6.466946	0.003927	NaN	0.000000	0.001611	0.001665	28.0856	0.080294	0.001988	40.3832	-104.628	-167.238	0.003153	0.465651	-0.587235	-0.588582	0.003927	40.3832	-0.587308	-5.566015E+7	-7.055447E-11	NaN
154	1.000000	0.474963	7.36655e+06	-46339.1	955.818	-29770	0.000000	0.000000	6.474910	0.022866	NaN	0.000000	0.001597	0.001720	28.0856	0.100015	0.001871	53.4457	-146.986	-163.476	-0.009142	0.473663	-0.579271	-0.580571	0.022866	53.4457	-0.579592	-4.356030E+7	-5.249356E-10	NaN
154	1.000000	0.482997	7.36655e+06	-46339.1	955.819	-29770	0.000000	0.000000	6.482944	0.006215	NaN	0.000000	0.001611	0.001726	28.084	0.064017	0.001972	32.4653	-63.5891	-166.1	0.059833	0.481648	-0.571237	-0.572585	0.006215	32.4653	-0.571380	-3.355095E+7	-1.852552E-10	NaN
154	1.000000	0.491005	7.36655e+06	-46339.1	955.819	-29770	0.000000	0.000000	6.490952	0.027392	NaN	0.000000	0.001594	0.001743	28.0842	0.082474	0.002008	41.0706	-85.5231	-165.676	0.010091	0.489689	-0.563229	-0.564545	0.027392	41.0706	-0.563729	-2.629997E+7	-1.041503E-9	NaN
154	1.000000	0.498991	7.36655e+06	-46339.1	955.819	-29770	0.000000	0.000000	6.498934	-0.078564	NaN	0.000000	0.001597	0.001764	28.0845	0.056094	0.002094	26.7862	70.2522	-165.299	-0.055838	0.497667	-0.555243	-0.556566	-0.078564	26.7862	-0.553043	-1.871082E+7	4.198840E-9	NaN
154	1.000000	0.506969	7.36655e+06	-46339.1	955.818	-29770	0.000000	0.000000	6.506915	-0.026647	NaN	0.000000	0.001598	0.001730	28.0842	0.026943	0.002012	13.3885	-12.1814	-168.688	-0.102107	0.505676	-0.547264	-0.548557	-0.026647	13.3885	-0.545772	-1.483796E+7	1.795893E-9	NaN
154	1.000000	0.515004	7.36655e+06	-46339.1	955.818	-29770	0.000000	0.000000	6.514954	0.068398	NaN	0.000000	0.001623	0.001721	28.0839	0.064367	0.002020	31.866	-83.3024	-163.247	0.023384	0.513679	-0.539229	-0.540554	0.068398	31.866	-0.540839	-1.267643E+7	-5.395692E-9	NaN
154	1.000000	0.523016	7.36655e+06	-46339.1	955.818	-29770	0.000000	0.000000	6.522965	0.064646	NaN	0.000000	0.001638	0.001769	28.0849	0.050612	0.002033	24.8901	121.761	-166.654	0.009055	0.521690	-0.531218	-0.532544	0.064646	24.8901	-0.533166	-9.92039e+06	-6.516490E-9	NaN
154	1.000000	0.531024	7.36655e+06	-46339.1	955.817	-29770	0.000000	0.000000	6.530966	-0.106203	NaN	0.000000	0.001645	0.001723	28.0861	0.097759	0.002039	47.9345	57.9924	-165.517	-0.131072	0.529714	-0.523210	-0.524520	-0.106203	47.9345	-0.521548	-6.84111e+06	1.552421E-8	NaN
154	1.000000	0.539031	7.36655e+06	-46339.1	955.818	-29770	0.000000	0.000000	6.538977	-0.008636	NaN	0.000000	0.001690	0.001711	28.0855	0.108566	0.001960	55.3904	74.7187	-164.806	0.040686	0.537736	-0.515203	-0.516498	-0.008636	55.3904	-0.515086	-5.56195e+06	1.552745E-9	NaN
154	1.000000	0.547039	7.36655e+06	-46339.1	955.818	-29770	0.000000	0.000000	6.546985	-0.002875	NaN	0.000000	0.001688	0.001746	28.0859	0.022116	0.002050	10.7885	-159.181	-166.766	-0.057277	0.545686	-0.507195	-0.508548	-0.002875	10.7885	-0.506995	-4.2909e+06	6.701334E-10	NaN
154	1.000000	0.555002	7.36655e+06	-46339.1	955.818	-29770	0.000000	0.000000	6.554948	-0.025872	NaN	0.000000	0.001679	0.001711	28.086	0.107955	0.002068	52.1916	75.7258	-164.462	0.007582	0.553727	-0.499232	-0.500507	-0.025872	52.1916	-0.498860	-3.30453e+06	7.829330E-9	NaN
154	1.000000	0.562994	7.36655e+06	-46339.1	955.818	-29770	0.000000	0.000000	6.562942	0.037182	NaN	0.000000	0.001673	0.001759	28.0851	0.097369	0.002054	47.408	-9.415530	-168.88	0.004446	0.561674	-0.491239	-0.492560	0.037182	47.408	-0.491828	-2.6359e+06	-1.410600E-8	NaN
154	1.000000	0.571041	7.36655e+06	-46339.1	955.818	-29770	0.000000	0.000000	6.570991	0.101730	NaN	0.000000	0.001698	0.001738	28.0854	0.016914	0.001971	8.581025	-16.1827	-161.59	0.059372	0.569721	-0.483193	-0.484513	0.101730	8.581025	-0.492084	-2.65777e+06	-3.827670E-8	NaN
154	1.000000	0.579027	7.36655e+06	-46339.1	955.818	-29770	0.000000	0.000000	6.578976	0.054351	NaN	0.000000	0.001707	0.001733	28.0845	0.103951	0.001875	55.4362	26.95	-166.72	0.055428	0.577760	-0.475206	-0.476474	0.054351	55.4362	-0.475942	-1.58014e+06	-3.439648E-8	NaN
154	1.000000	0.587048	7.36655e+06	-46339.1	955.818	-29770	0.000000	0.000000	6.586994	-0.019892	NaN	0.000000	0.001693	0.001738	28.0857	0.026681	0.001977	13.4934	89.6242	-164.814	0.015808	0.585748	-0.467185	-0.468485	-0.019892	13.4934	-0.466080	-1.14923e+06	1.730918E-8	NaN
154	1.000000	0.595021	7.36655e+06	-46339.1	955.818	-29770	0.000000	0.000000	6.594967	-0.004556	NaN	0.000000	0.001726	0.001730	28.0851	0.034995	0.002193	15.9572	-80.9665	-163.486	0.024380	0.593754	-0.459213	-0.460479	-0.004556	15.9572	-0.458999	-914003	4.984132E-9	NaN
154	1.000000	0.603019	7.36655e+06	-46339.1	955.818	-29770	0.000000	0.000000	6.602963	-0.058801	NaN	0.000000	0.001735	0.001685	28.0855	0.018072	0.001962	9.209373	-38.6729	-165.378	-0.078088	0.601699	-0.451215	-0.452535	-0.058801	9.209373	-0.446426	-608127	9.669226E-8	NaN
154	1.000000	0.611050	7.36655e+06	-46339.1	955.818	-29770	0.000000	0.000000	6.610998	0.037025	NaN	0.000000	0.001676	0.001739	28.0869	0.099180	0.001894	52.3517	-19.243	-164.43	0.029644	0.609673	-0.443184	-0.444561	0.037025	52.3517	-0.443714	-556880	-6.648580E-8	NaN
154	1.000000	0.619070	7.36655e+06	-46339.1	955.817	-29770	0.000000	0.000000	6.619019	0.056635	NaN	0.000000	0.001677	0.001717	28.0867	0.036170	0.002023	17.8833	170.693	-163.274	0.094951	0.617755	-0.435163	-0.436478	0.056635	17.8833	-0.437538	-455628	-1.243003E-7	NaN
154	1.000000	0.627063	7.36655e+06	-46339.1	955.817	-29770	0.000000	0.000000	6.627010	-0.001754	NaN	0.000000	0.001627	0.001722	28.0862	0.042008	0.001808	23.2323	145.424	-164.56	-0.004248	0.625737	-0.427171	-0.428497	-0.001754	23.2323	-0.427114	-324502	5.404674E-9	NaN
154	1.000000	0.635046	7.36655e+06	-46339.1	955.819	-29770	0.000000	0.000000	6.634991	-0.022735	NaN	0.000000	0.001630	0.001729	28.0861	0.039566	0.001900	20.8263	-97.9398	-164.234	-0.021925	0.633766	-0.419188	-0.420468	-0.022735	20.8263	-0.418369	-243938	9.319938E-8	NaN
154	1.000000	0.643046	7.36655e+06	-46339.1	955.818	-29770	0.000000	0.000000	6.642994	0.013424	NaN	0.000000	0.001601	0.001743	28.0847	0.096413	0.001995	48.3157	-155.864	-165.242	-0.059676	0.641706	-0.411187	-0.412528	0.013424	48.3157	-0.411396	-194197	-6.912538E-8	NaN
154	1.000000	0.651056	7.36655e+06	-46339.1	955.818	-29770	0.000000	0.000000	6.651002	-0.020859	NaN	0.000000	0.001613	0.001778	28.0847	0.025834	0.002013	12.8346	79.8487	-163.867	0.019959	0.649755	-0.403178	-0.404478	-0.020859	12.8346	-0.401959	-142536	1.463403E-7	NaN
154	1.000000	0.659064	7.36655e+06	-46339.1	955.818	-29770	0.000000	0.000000	6.659011	0.019502	NaN	0.000000	0.001623	0.001750	28.0848	0.031510	0.001988	15.846	9.732579	-166.786	0.028207	0.657726	-0.395170	-0.396508	0.019502	15.846	-0.396093	-117555	-1.658999E-7	NaN
154	1.000000	0.667078	7.36655e+06	-46339.1	955.819	-29770	0.000000	0.000000	6.667027	0.047468	NaN	0.000000	0.001660	0.001756	28.0844	0.034999	0.002077	16.8481	-136.979	-166.01	0.045032	0.665805	-0.387155	-0.388428	0.047468	16.8481	-0.389268	-93906.7	-5.054773E-7	NaN
154	1.000000	0.675065	7.36655e+06	-46339.1	955.818	-29770	0.000000	0.000000	6.675007	-0.110719	NaN	0.000000	0.001636	0.001740	28.0839	0.033949	0.002011	16.8783	174.519	-165.185	-0.032738	0.673820	-0.379169	-0.380414	-0.110719	16.8783	-0.374249	-57184.1	1.936195E-6	NaN
154	1.000000	0.683057	7.36655e+06	-46339.1	955.818	-29770	0.000000	0.000000	6.683004	-0.000340	NaN	0.000000	0.001605	0.001719	28.086	0.048831	0.001984	24.6104	-87.8176	-166.43	-0.073218	0.681747	-0.371176	-0.372486	-0.000340	24.6104	-0.371166	-51631.8	6.591254E-9	NaN
154	1.000000	0.691078	7.36655e+06	-46339.1	955.818	-29770	0.000000	0.000000	6.691024	-0.030355	NaN	0.000000	0.001628	0.001725	28.0845	0.038015	0.002007	18.9447	45.767	-165.89	-0.075242	0.689792	-0.363155	-0.364442	-0.030355	18.9447	-0.361954	-38025.5	7.982737E-7	NaN
154	1.000000	0.699073	7.36655e+06	-46339.1	955.819	-29770	0.000000	0.000000	6.699020	0.002477	NaN	0.000000	0.001649	0.001721	28.085	0.021526	0.002090	10.2997	27.3127	-168.187	-0.014710	0.697776	-0.355161	-0.356457	0.002477	10.2997	-0.355341	-30509.4	-8.118527E-8	NaN
154	1.000000	0.707114	7.36655e+06	-46339.1	955.819	-29770	0.000000	0.000000	6.707059	-0.056598	NaN	0.000000	0.001618	0.001759	28.0853	0.084937	0.001872	45.3635	-85.0972	-162.519	-0.097921	0.705790	-0.347119	-0.348443	-0.056598	45.3635	-0.346184	-22468.2	2.519049E-6	NaN
154	1.000000	0.715069	7.36655e+06	-46339.1	955.818	-29770	0.000000	0.000000	6.715014	-0.027187	NaN	0.000000	0.001686	0.001726	28.0848	0.066017	0.001964	33.6208	-33.6978	-165.961	-0.072503	0.713828	-0.339165	-0.340406	-0.027187	33.6208	-0.338559	-17399.4	1.562508E-6	NaN
154	1.000000	0.723069	7.36655e+06	-46339.1	955.819	-29770	0.000000	0.000000	6.723014	-0.027365	NaN	0.000000	0.001758	0.001756	28.0838	0.085020	0.001915	44.4054	171.136	-167.732	-0.030676	0.721816	-0.331165	-0.332417	-0.027365	44.4054	-0.330703	-13358	2.048574E-6	NaN
154	1.000000	0.731090	7.36655e+06	-46339.1	955.817	-29770	0.000000	0.000000	6.731036	-0.018036	NaN	0.000000	0.001723	0.001758	28.0832	0.051022	0.002054	24.8367	-29.5554	-167.137	0.034475	0.729740	-0.323144	-0.324494	-0.018036	24.8367	-0.322599	-10159.3	1.775330E-6	NaN
154	1.000000	0.739120	7.36655e+06	-46339.1	955.818	-29770	0.000000	0.000000	6.739065	-0.031438	NaN	0.000000	0.001723	0.001773	28.0841	0.073099	0.002090	34.9682	100.74	-168.238	-0.003743	0.737822	-0.315114	-0.316411	-0.031438	34.9682	-0.314440	-7703.28	4.081159E-6	NaN
154	1.000000	0.747088	7.36655e+06	-46339.1	955.818	-29770	0.000000	0.000000	6.747033	-0.038491	NaN	0.000000	0.001693	0.001754	28.0827	0.148123	0.001932	76.6744	-53.9687	-163.91	-0.096945	0.745769	-0.307146	-0.308465	-0.038491	76.6744	-0.306769	-5932	6.488760E-6	NaN
154	1.000000	0.755079	7.36655e+06	-46339.1	955.817	-29770	0.000000	0.000000	6.755028	0.052736	NaN	0.000000	0.001684	0.001752	28.0837	0.126006	0.001850	68.12	26.6385	-164.192	0.006353	0.753810	-0.299154	-0.300424	0.052736	68.12	-0.299735	-4663.23	-1.130894E-5	NaN
154	1.000000	0.763110	7.36655e+06	-46339.1	955.818	-29770	0.000000	0.000000	6.763055	-0.041641	NaN	0.000000	0.001681	0.001768	28.0845	0.176126	0.002032	86.6897	-62.3591	-163.095	-0.061549	0.761852	-0.291124	-0.292382	-0.041641	86.6897	-0.290764	-3425.63	1.215576E-5	NaN
154	1.000000	0.771107	7.36655e+06	-46339.1	955.819	-29770	0.000000	0.000000	6.771055	0.047856	NaN	0.000000	0.001688	0.001756	28.0851	0.133561	0.001826	73.124	50.3919	-168.405	0.093824	0.769782	-0.283127	-0.284451	0.047856	73.124	-0.283618	-2675.93	-1.788372E-5	NaN
154	1.000000	0.779119	7.36655e+06	-46339.1	955.818	-29770	0.000000	0.000000	6.779063	-0.059578	NaN	0.000000	0.001696	0.001766	28.0842	0.022400	0.001981	11.3077	-61.656	-166.158	-0.057027	0.777835	-0.275115	-0.276399	-0.059578	11.3077	-0.271163	-1734.67	3.434564E-5	NaN
154	1.000000	0.787095	7.36655e+06	-46339.1	955.817	-29770	0.000000	0.000000	6.787041	-0.015113	NaN	0.000000	0.001739	0.001770	28.084	0.109421	0.001920	57.0048	-76.8953	-166.338	0.008166	0.785760	-0.267138	-0.268474	-0.015113	57.0048	-0.266939	-1496.12	1.010147E-5	NaN
154	1.000000	0.795136	7.36655e+06	-46339.1	955.817	-29770	0.000000	0.000000	6.795080	-0.059107	NaN	0.000000	0.001709	0.001771	28.085	0.072569	0.001902	38.164	135.633	-166.955	-0.020031	0.793795	-0.259097	-0.260438	-0.059107	38.164	-0.257936	-1089.56	5.424814E-5	NaN
154	1.000000	0.803113	7.36655e+06	-46339.1	955.82	-29770	0.000000	0.000000	6.803059	-0.007626	NaN	0.000000	0.001689	0.001780	28.0847	0.058000	0.002052	28.2602	162.819	-164.989	0.063637	0.801792	-0.251121	-0.252442	-0.007626	28.2602	-0.250918	-849.502	8.976695E-6	NaN
154	1.000000	0.811118	7.36655e+06	-46339.1	955.817	-29770	0.000000	0.000000	6.811064	-0.032224	NaN	0.000000	0.001726	0.001781	28.0855	0.079752	0.002060	38.7218	-15.1074	-163.426	-0.061822	0.809817	-0.243115	-0.244417	-0.032224	38.7218	-0.242491	-628.653	5.125850E-5	NaN
154	1.000000	0.819114	7.36655e+06	-46339.1	955.818	-29770	0.000000	0.000000	6.819060	-0.033330	NaN	0.000000	0.001711	0.001759	28.0863	0.124766	0.002191	56.9541	-100.116	-163.803	-0.014782	0.817771	-0.235119	-0.236462	-0.033330	56.9541	-0.234680	-474.489	7.024331E-5	NaN
154	1.000000	0.827137	7.36655e+06	-46339.1	955.817	-29770	0.000000	0.000000	6.827082	-0.033766	NaN	0.000000	0.001718	0.001791	28.0844	0.123974	0.002086	59.4273	162.616	-165.954	-0.065075	0.825824	-0.227096	-0.228410	-0.033766	59.4273	-0.226670	-354.681	9.520179E-5	NaN
154	1.000000	0.835165	7.36655e+06	-46339.1	955.818	-29770	0.000000	0.000000	6.835110	-0.057457	NaN	0.000000	0.001732	0.001769	28.0852	0.023237	0.002105	11.0396	-68.1498	-166.227	-0.009041	0.833819	-0.219068	-0.220415	-0.057457	11.0396	-0.215165	-232.361	0.000247	NaN
154	1.000000	0.843148	7.36655e+06	-46339.1	955.817	-29770	0.000000	0.000000	6.843094	-0.002222	NaN	0.000000	0.001737	0.001766	28.085	0.058773	0.002098	28.0115	177.716	-162.649	-0.009965	0.841807	-0.211086	-0.212427	-0.002222	28.0115	-0.211026	-199.263	1.115152E-5	NaN
154	1.000000	0.851159	7.36655e+06	-46339.1	955.817	-29770	0.000000	0.000000	6.851106	-0.000484	NaN	0.000000	0.001774	0.001758	28.0864	0.068884	0.001972	34.9264	99.5159	-166.779	-0.055887	0.849831	-0.203074	-0.204402	-0.000484	34.9264	-0.203064	-147.887	3.269486E-6	NaN
154	1.000000	0.859132	7.36655e+06	-46339.1	955.818	-29770	0.000000	0.000000	6.859079	0.014307	NaN	0.000000	0.001714	0.001756	28.0852	0.039674	0.002117	18.7435	143.255	-164.147	-0.008014	0.857789	-0.195101	-0.196445	0.014307	18.7435	-0.195674	-111.779	-0.000128	NaN
154	1.000000	0.867166	7.36655e+06	-46339.1	955.819	-29770	0.000000	0.000000	6.867111	-0.056303	NaN	0.000000	0.001748	0.001768	28.085	0.060875	0.001794	33.9358	-0.892023	-161.423	-0.038888	0.865833	-0.187067	-0.188401	-0.056303	33.9358	-0.185823	-76.558	0.000735	NaN
154	1.000000	0.875158	7.36655e+06	-46339.1	955.818	-29770	0.000000	0.000000	6.875102	-0.067585	NaN	0.000000	0.001758	0.001803	28.0848	0.057678	0.001959	29.4414	138.981	-166.171	-0.134654	0.873872	-0.179076	-0.180361	-0.067585	29.4414	-0.177354	-54.9967	0.001229	NaN
154	1.000000	0.883150	7.36655e+06	-46339.1	955.817	-29770	0.000000	0.000000	6.883095	-0.031686	NaN	0.000000	0.001753	0.001724	28.086	0.030087	0.001997	15.0674	81.3812	-163.79	0.007386	0.881777	-0.171084	-0.172456	-0.031686	15.0674	-0.169506	-40.2751	0.000787	NaN
154	1.000000	0.891154	7.36655e+06	-46339.1	955.818	-29770	0.000000	0.000000	6.891099	-0.038237	NaN	0.000000	0.001707	0.001784	28.0843	0.042050	0.001909	22.0226	-124.887	-164.747	0.007047	0.889842	-0.163079	-0.164392	-0.038237	22.0226	-0.161777	-29.4781	0.001297	NaN
154	1.000000	0.899154	7.36655e+06	-46339.1	955.818	-29770	0.000000	0.000000	6.899100	-0.027170	NaN	0.000000	0.001712	0.001722	28.0846	0.040353	0.001959	20.5988	39.0264	-167.782	-0.002896	0.897871	-0.155079	-0.156362	-0.027170	20.5988	-0.154090	-21.4874	0.001264	NaN
154	1.000000	0.907164	7.36655e+06	-46339.1	955.817	-29770	0.000000	0.000000	6.907113	0.051525	NaN	0.000000	0.001764	0.001718	28.0852	0.013337	0.001814	7.351877	-77.4572	-164.859	0.040175	0.905852	-0.147070	-0.148382	0.051525	7.351877	-0.152326	-19.9659	-0.002581	NaN
154	1.000000	0.915150	7.36655e+06	-46339.1	955.819	-29770	0.000000	0.000000	6.915097	0.003171	NaN	0.000000	0.001725	0.001729	28.0841	0.010094	0.002105	4.794748	154.895	-162.189	-0.043264	0.913903	-0.139084	-0.140330	0.003171	4.794748	-0.139580	-11.6163	-0.000273	NaN
154	1.000000	0.923188	7.36655e+06	-46339.1	955.818	-29770	0.000000	0.000000	6.923133	-0.048555	NaN	0.000000	0.001724	0.001764	28.0856	0.043383	0.001973	21.9857	-34.2448	-167.26	-0.083819	0.921844	-0.131045	-0.132389	-0.048555	21.9857	-0.129389	-7.415318	0.006548	NaN
154	1.000000	0.931170	7.36655e+06	-46339.1	955.818	-29770	0.000000	0.000000	6.931115	-0.050197	NaN	0.000000	0.001720	0.001713	28.0853	0.045593	0.001950	23.3838	-96.8972	-162.744	-0.049229	0.929850	-0.123064	-0.124384	-0.050197	23.3838	-0.121454	-5.168117	0.009713	NaN
154	1.000000	0.939173	7.36655e+06	-46339.1	955.818	-29770	0.000000	0.000000	6.939120	0.003149	NaN	0.000000	0.001720	0.001740	28.0856	0.030705	0.002072	14.8179	-147.266	-163.214	0.043762	0.937868	-0.115060	-0.116366	0.003149	14.8179	-0.115220	-3.860432	-0.000816	NaN
154	1.000000	0.947172	7.36655e+06	-46339.1	955.818	-29770	0.000000	0.000000	6.947116	-0.055197	NaN	0.000000	0.001711	0.001750	28.0852	0.079813	0.002003	39.8396	-62.7107	-165.285	-0.033429	0.945850	-0.107062	-0.108384	-0.055197	39.8396	-0.106022	-2.472882	0.022321	NaN
154	1.000000	0.955182	7.36655e+06	-46339.1	955.818	-29770	0.000000	0.000000	6.955128	-0.013327	NaN	0.000000	0.001675	0.001764	28.0847	0.111266	0.001880	59.1895	-67.7238	-165.855	-0.062624	0.953813	-0.099052	-0.100421	-0.013327	59.1895	-0.098883	-1.725562	0.007723	NaN
154	1.000000	0.963186	7.36655e+06	-46339.1	955.818	-29770	0.000000	0.000000	6.963130	-0.059809	NaN	0.000000	0.001667	0.001786	28.0834	0.052577	0.002038	25.8023	164.528	-165.964	-0.022792	0.961881	-0.091048	-0.092353	-0.059809	25.8023	-0.089309	-1.041307	0.057437	NaN
154	1.000000	0.971160	7.36655e+06	-46339.1	955.817	-29770	0.000000	0.000000	6.971104	-0.051870	NaN	0.000000	0.001654	0.001768	28.0833	0.071398	0.002054	34.7655	139.549	-165.986	0.007410	0.969885	-0.083074	-0.084349	-0.051870	34.7655	-0.081955	-0.692240	0.074930	NaN
154	1.000000	0.979169	7.36655e+06	-46339.1	955.818	-29770	0.000000	0.000000	6.979115	-0.015144	NaN	0.000000	0.001638	0.001758	28.0829	0.071646	0.001992	35.9676	-18.1954	-165.911	0.016004	0.977913	-0.075065	-0.076321	-0.015144	35.9676	-0.074749	-0.455004	0.033283	NaN
154	1.000000	0.987175	7.36655e+06	-46339.1	955.818	-29770	0.000000	0.000000	6.987119	-0.055413	NaN	0.000000	0.001679	0.001708	28.0839	0.146451	0.001935	75.7013	50.7503	-165.935	-0.070200	0.985920	-0.067059	-0.068313	-0.055413	75.7013	-0.066510	-0.274313	0.202005	NaN
154	1.000000	0.995192	7.36655e+06	-46339.1	955.818	-29770	0.000000	0.000000	6.995140	0.033497	NaN	0.000000	0.001656	0.001736	28.083	0.028234	0.001979	14.2665	135.893	-164.568	-0.042866	0.993863	-0.059042	-0.060371	0.033497	14.2665	-0.060803	-0.189876	-0.176414	NaN
154	1.000000	1.003204	7.36655e+06	-46339.1	955.819	-29770	0.000000	0.000000	7.003148	-0.057717	NaN	0.000000	0.001651	0.001750	28.0842	0.090227	0.002064	43.7209	170.582	-162.117	-0.058513	1.001869	-0.051030	-0.052364	-0.057717	43.7209	-0.050040	-0.091503	0.630759	NaN
154	1.000000	1.011216	7.36655e+06	-46339.1	955.818	-29770	0.000000	0.000000	7.011160	-0.064698	NaN	0.000000	0.001675	0.001731	28.0845	0.065433	0.002042	32.0448	-49.5398	-161.672	-0.032077	1.009926	-0.043018	-0.044307	-0.064698	32.0448	-0.041504	-0.050249	1.287552	NaN
154	1.000000	1.019208	7.36655e+06	-46339.1	955.82	-29770	0.000000	0.000000	7.019156	0.031408	NaN	0.000000	0.001714	0.001746	28.0842	0.094730	0.002054	46.1256	24.3629	-164.229	0.015742	1.017903	-0.035025	-0.036331	0.031408	46.1256	-0.035536	-0.033213	-0.945670	NaN
154	1.000000	1.027238	7.36655e+06	-46339.1	955.82	-29770	0.000000	0.000000	7.027182	-0.066651	NaN	0.000000	0.001659	0.001731	28.0837	0.081289	0.001963	41.4112	-73.7454	-166.269	0.002591	1.025897	-0.026995	-0.028336	-0.066651	41.4112	-0.025788	-0.017693	3.767058	NaN
154	1.000000	1.035227	7.36655e+06	-46339.1	955.817	-29770	0.000000	0.000000	7.035172	-0.038418	NaN	0.000000	0.001672	0.001715	28.0834	0.048475	0.002027	23.9193	63.3915	-164.878	-0.047463	1.033928	-0.019007	-0.020306	-0.038418	23.9193	-0.017802	-0.011031	3.482653	NaN
154	1.000000	1.043194	7.36655e+06	-46339.1	955.818	-29770	0.000000	0.000000	7.043140	-0.001529	NaN	0.000000	0.001677	0.001743	28.0837	0.015446	0.002188	7.058937	-20.9617	-161.989	-0.036628	1.041923	-0.011040	-0.012311	-0.001529	7.058937	-0.010878	-0.006888	0.221983	NaN
154	1.000000	1.051209	7.36655e+06	-46339.1	955.818	-29770	0.000000	0.000000	7.051158	0.072565	NaN	0.000000	0.001646	0.001720	28.0819	0.104533	0.001948	53.6503	29.6629	-165.552	0.012209	1.049943	-0.003025	-0.004291	0.072565	53.6503	-0.004039	-0.002804	-25.8767	NaN
154	1.000000	1.059205	7.36655e+06	-46339.1	955.817	-29770	0.000000	0.000000	7.059385	5.667172	NaN	0.000000	0.001649	0.001724	28.0832	5.770934	0.001796	3213.18	10.2808	-167.075	3.932164	1.057849	0.004971	0.003616	5.667172	3213.18	0.003649	0.002933	1932.11	54205.2
154	2.000000	1.062910	7.36655e+06	-46339.1	955.818	-29770	0.000000	0.000000	7.063301	10.7955	NaN	0.000000	0.001637	0.001709	28.0829	9.766304	0.001656	5898.55	3.929398	-169.985	10.4978	1.062529	0.008677	0.008296	10.7955	5898.55	0.007304	0.006336	1703.73	67701.4
154	2.000000	1.064801	7.36655e+06	-46339.1	955.819	-29770	0.000000	0.000000	7.065372	15.2031	NaN	0.000000	0.001648	0.001730	28.0824	12.0707	0.001627	7417.48	7.911009	-175.709	14.1572	1.064538	0.010567	0.010304	15.2031	7417.48	0.009030	0.008123	1871.57	75191
154	2.000000	1.066821	7.36655e+06	-46339.1	955.82	-29770	0.000000	0.000000	7.067554	19.1458	NaN	0.000000	0.001655	0.001712	28.0844	14.6791	0.001667	8806.4	5.477845	-175.894	18.2572	1.066520	0.012587	0.012286	19.1458	8806.4	0.010957	0.010264	1865.32	79416.8
154	2.000000	1.068781	7.36655e+06	-46339.1	955.818	-29770	0.000000	0.000000	7.069673	22.9966	NaN	0.000000	0.001669	0.001685	28.0859	15.8098	0.001783	8868.86	5.988354	-174.376	21.5255	1.068475	0.014548	0.014242	22.9966	8868.86	0.012603	0.012220	1881.85	73299.6
154	2.000000	1.070810	7.36655e+06	-46339.1	955.818	-29770	0.000000	0.000000	7.071879	27.3013	NaN	0.000000	0.001625	0.001712	28.0865	18.3714	0.001579	11631.4	6.872216	-179.586	26.5138	1.070488	0.016576	0.016255	27.3013	11631.4	0.014816	0.015041	1815.14	86650.3
154	2.000000	1.072867	7.36655e+06	-46339.1	955.819	-29770	0.000000	0.000000	7.074089	31.008	NaN	0.000000	0.001642	0.001698	28.0853	20.3393	0.001896	10727.6	7.495767	-175.636	32.3955	1.072535	0.018634	0.018301	31.008	10727.6	0.016466	0.017290	1793.41	74538
154	2.000000	1.074741	7.36655e+06	-46339.1	955.818	-29770	0.000000	0.000000	7.076241	37.7777	NaN	0.000000	0.001614	0.001701	28.0852	22.8671	0.001912	11961.7	7.015475	-178.486	36.0722	1.074539	0.020508	0.020306	37.7777	11961.7	0.018139	0.019702	1917.46	77859.5
154	2.000000	1.076843	7.36655e+06	-46339.1	955.82	-29770	0.000000	0.000000	7.078507	41.7719	NaN	0.000000	0.001594	0.001725	28.0845	23.4951	0.001801	13048.4	4.968481	-175.915	43.5299	1.076422	0.022609	0.022188	41.7719	13048.4	0.020208	0.022871	1826.43	78829.9
154	2.000000	1.078765	7.36655e+06	-46339.1	955.819	-29770	0.000000	0.000000	7.080710	48.6165	NaN	0.000000	0.001587	0.001765	28.0851	24.7984	0.001771	13999.2	2.551791	-175.73	47.4717	1.078519	0.024531	0.024285	48.6165	13999.2	0.021927	0.025661	1894.58	79844
154	2.000000	1.080748	7.36655e+06	-46339.1	955.819	-29770	0.000000	0.000000	7.083011	56.3538	NaN	0.000000	0.001553	0.001727	28.0856	27.4304	0.001800	15242.7	8.570025	178.157	55.185	1.080435	0.026514	0.026201	56.3538	15242.7	0.023741	0.028766	1959.05	82110.2
154	2.000000	1.082807	7.36655e+06	-46339.1	955.819	-29770	0.000000	0.000000	7.085330	62.6616	NaN	0.000000	0.001577	0.001727	28.0848	30.1113	0.001897	15869.9	7.522057	179.035	63.3008	1.082475	0.028574	0.028241	62.6616	15869.9	0.025612	0.032139	1949.7	80878.2
154	2.000000	1.084762	7.36655e+06	-46339.1	955.818	-29770	0.000000	0.000000	7.087616	70.7328	NaN	0.000000	0.001579	0.001745	28.0827	30.9892	0.001742	17793.3	3.942992	-178.401	69.1802	1.084455	0.030528	0.030221	70.7328	17793.3	0.027547	0.035812	1975.12	85904.5
154	2.000000	1.086775	7.36655e+06	-46339.1	955.82	-29770	0.000000	0.000000	7.089938	78.242	NaN	0.000000	0.001602	0.001749	28.0852	33.5797	0.001831	18340	5.993399	179.042	79.7872	1.086435	0.032542	0.032202	78.242	18340	0.029342	0.039391	1986.31	84425.9
154	2.000000	1.088754	7.36655e+06	-46339.1	955.818	-29770	0.000000	0.000000	7.092253	86.4244	NaN	0.000000	0.001582	0.001706	28.0853	34.6102	0.001810	19124.8	5.678414	179.621	85.7282	1.088426	0.034520	0.034192	86.4244	19124.8	0.031131	0.043120	2004.28	84145.5
154	2.000000	1.090706	7.36655e+06	-46339.1	955.819	-29770	0.000000	0.000000	7.094514	93.9235	NaN	0.000000	0.001598	0.001725	28.0853	36.1118	0.001842	19602	2.341192	-177.596	91.5932	1.090460	0.036473	0.036226	93.9235	19602	0.032879	0.046923	2001.66	82676.4
154	2.000000	1.092714	7.36655e+06	-46339.1	955.82	-29770	0.000000	0.000000	7.096791	100.466	NaN	0.000000	0.001594	0.001701	28.0843	38.1068	0.001742	21876.5	4.010365	-179.871	97.3472	1.092449	0.038481	0.038216	100.466	21876.5	0.035037	0.051831	1938.33	87792.3
154	2.000000	1.094693	7.36655e+06	-46339.1	955.82	-29770	0.000000	0.000000	7.099216	111.312	NaN	0.000000	0.001595	0.001735	28.0859	39.8187	0.001708	23309.1	7.436713	174.867	107.695	1.094305	0.040460	0.040072	111.312	23309.1	0.036878	0.056209	1980.31	89824.4
154	2.000000	1.096773	7.36655e+06	-46339.1	955.82	-29770	0.000000	0.000000	7.101518	116.718	NaN	0.000000	0.001559	0.001691	28.0845	43.2601	0.001827	23675.7	7.775778	175.26	118.399	1.096512	0.042540	0.042279	116.718	23675.7	0.038842	0.061071	1911.18	87530.2
154	2.000000	1.098734	7.36655e+06	-46339.1	955.819	-29770	0.000000	0.000000	7.104016	129.769	NaN	0.000000	0.001630	0.001711	28.0852	43.9004	0.001838	23886.8	4.220457	178.305	128.754	1.098434	0.044501	0.044201	129.769	23886.8	0.040426	0.065134	1992.34	85512
154	2.000000	1.100715	7.36655e+06	-46339.1	955.82	-29770	0.000000	0.000000	7.106422	140.116	NaN	0.000000	0.001633	0.001705	28.0842	46.5925	0.001824	25544.9	7.237642	175.877	139.114	1.100346	0.046482	0.046112	140.116	25544.9	0.042368	0.070291	1993.37	88029.4
154	2.000000	1.102764	7.36655e+06	-46339.1	955.818	-29770	0.000000	0.000000	7.108966	152.15	NaN	0.000000	0.001636	0.001717	28.0819	47.3806	0.001729	27402.7	4.447375	178.042	152.146	1.102335	0.048531	0.048102	152.15	27402.7	0.044366	0.075799	2007.29	90935.9
154	2.000000	1.104756	7.36655e+06	-46339.1	955.818	-29770	0.000000	0.000000	7.111145	156.702	NaN	0.000000	0.001637	0.001716	28.083	49.5613	0.001723	28759.3	5.527229	175.945	158.743	1.104355	0.050523	0.050122	156.702	28759.3	0.046436	0.081716	1917.63	91917.2
154	2.000000	1.106734	7.36655e+06	-46339.1	955.819	-29770	0.000000	0.000000	7.113641	169.309	NaN	0.000000	0.001632	0.001693	28.0839	52.2931	0.001839	28432.2	6.483359	174.887	169.471	1.106407	0.052500	0.052174	169.309	28432.2	0.048034	0.086433	1958.83	88357.3
154	2.000000	1.108757	7.36655e+06	-46339.1	955.819	-29770	0.000000	0.000000	7.116118	180.359	NaN	0.000000	0.001643	0.001697	28.0848	53.5722	0.001857	28855.9	6.512611	175.333	182.371	1.108412	0.054524	0.054178	180.359	28855.9	0.049836	0.091907	1962.41	86962.9
154	2.000000	1.110676	7.36655e+06	-46339.1	955.82	-29770	0.000000	0.000000	7.118624	194.636	NaN	0.000000	0.001616	0.001749	28.0843	55.5415	0.001782	31163.5	0.078828	-179.072	191.464	1.110346	0.056442	0.056113	194.636	31163.5	0.051758	0.097925	1987.6	90985.7
154	2.000000	1.112710	7.36655e+06	-46339.1	955.82	-29770	0.000000	0.000000	7.121156	206.725	NaN	0.000000	0.001669	0.001699	28.0834	58.3177	0.001737	33564.2	2.709920	177.846	204.878	1.112367	0.058477	0.058133	206.725	33564.2	0.053858	0.104709	1974.28	94767.2
154	2.000000	1.114741	7.36655e+06	-46339.1	955.82	-29770	0.000000	0.000000	7.123695	219.107	NaN	0.000000	0.001589	0.001666	28.0842	60.1678	0.001723	34930.4	6.444448	173.407	219.988	1.114365	0.060507	0.060131	219.107	34930.4	0.055803	0.111189	1970.59	95707.6
154	2.000000	1.116620	7.36655e+06	-46339.1	955.82	-29770	0.000000	0.000000	7.126209	234.539	NaN	0.000000	0.001596	0.001655	28.0835	62.7392	0.001835	34185.8	4.707324	175.471	230.152	1.116389	0.062387	0.062156	234.539	34185.8	0.057241	0.116102	2020.12	91664.2
154	2.000000	1.118669	7.36655e+06	-46339.1	955.819	-29770	0.000000	0.000000	7.128933	250.988	NaN	0.000000	0.001631	0.001713	28.0825	64.1132	0.001920	33397.8	5.735538	174.695	247.658	1.118344	0.064435	0.064111	250.988	33397.8	0.058799	0.121536	2065.14	87526.4
154	2.000000	1.120647	7.36655e+06	-46339.1	955.819	-29770	0.000000	0.000000	7.131527	265.966	NaN	0.000000	0.001576	0.001710	28.0824	66.7754	0.001679	39773.8	4.044600	175.063	262.78	1.120320	0.066413	0.066087	265.966	39773.8	0.061398	0.130870	2032.3	100450
154	2.000000	1.122740	7.36655e+06	-46339.1	955.819	-29770	0.000000	0.000000	7.134261	281.565	NaN	0.000000	0.001591	0.001718	28.0816	69.1394	0.001802	38375	3.268611	176.619	280.793	1.122453	0.068506	0.068219	281.565	38375	0.063003	0.136797	2058.26	94794.3
154	2.000000	1.124630	7.36655e+06	-46339.1	955.818	-29770	0.000000	0.000000	7.136924	300.369	NaN	0.000000	0.001568	0.001728	28.0831	71.2272	0.001874	38003.1	3.373793	176.051	297.719	1.124346	0.070396	0.070112	300.369	38003.1	0.064468	0.142317	2110.57	92037.3
154	2.000000	1.126622	7.36655e+06	-46339.1	955.82	-29770	0.000000	0.000000	7.139569	316.235	NaN	0.000000	0.001614	0.001712	28.0831	71.9643	0.001717	41903	1.720473	176.853	311.931	1.126396	0.072389	0.072162	316.235	41903	0.066729	0.151036	2093.78	98509.5
154	2.000000	1.128734	7.36655e+06	-46339.1	955.819	-29770	0.000000	0.000000	7.142219	329.322	NaN	0.000000	0.001628	0.001673	28.0838	74.6936	0.001784	41871.2	7.702486	170.965	332.095	1.128363	0.074500	0.074129	329.322	41871.2	0.068602	0.158445	2078.45	96105.5
154	2.000000	1.130639	7.36655e+06	-46339.1	955.819	-29770	0.000000	0.000000	7.144858	347.185	NaN	0.000000	0.001596	0.001705	28.0819	75.882	0.001760	43111.8	-0.357047	178.702	344.029	1.130445	0.076405	0.076211	347.185	43111.8	0.070365	0.165577	2096.82	96798.9
154	2.000000	1.132685	7.36655e+06	-46339.1	955.819	-29770	0.000000	0.000000	7.147592	363.911	NaN	0.000000	0.001539	0.001682	28.0827	79.6304	0.001900	41916.5	4.445239	174.183	361.3	1.132404	0.078452	0.078170	363.911	41916.5	0.071940	0.172070	2114.9	92322
154	2.000000	1.134731	7.36655e+06	-46339.1	955.819	-29770	0.000000	0.000000	7.150456	383.829	NaN	0.000000	0.001581	0.001720	28.0843	80.9025	0.001836	44076	6.102477	173.07	384.032	1.134282	0.080497	0.080048	383.829	44076	0.073966	0.180593	2125.38	94759.8
154	2.000000	1.136636	7.36655e+06	-46339.1	955.819	-29770	0.000000	0.000000	7.152901	396.952	NaN	0.000000	0.001638	0.001733	28.084	83.2275	0.001959	42493.2	1.987288	176.724	392.508	1.136381	0.082402	0.082147	396.952	42493.2	0.075396	0.186730	2125.81	89843.5
154	2.000000	1.138637	7.36655e+06	-46339.1	955.818	-29770	0.000000	0.000000	7.155884	420.848	NaN	0.000000	0.001615	0.001723	28.0838	83.1148	0.001707	48700.4	3.158294	175.004	417.778	1.138222	0.084403	0.083989	420.848	48700.4	0.077922	0.197799	2127.66	100045
154	2.000000	1.140635	7.36655e+06	-46339.1	955.819	-29770	0.000000	0.000000	7.158543	436.914	NaN	0.000000	0.001641	0.001689	28.0841	84.9192	0.001757	48338.6	1.898431	175.718	432.957	1.140250	0.086402	0.086016	436.914	48338.6	0.079623	0.205420	2126.93	97441.9
154	2.000000	1.142660	7.36655e+06	-46339.1	955.817	-29770	0.000000	0.000000	7.161163	451.382	NaN	0.000000	0.001604	0.001687	28.0834	87.412	0.001837	47591	3.285255	175.098	447.411	1.142305	0.088426	0.088071	451.382	47591	0.081313	0.213127	2117.9	94184.4
154	2.000000	1.144753	7.36655e+06	-46339.1	955.817	-29770	0.000000	0.000000	7.164148	473.085	NaN	0.000000	0.001638	0.001673	28.0843	89.3198	0.001817	49150.1	6.534490	171.979	474.099	1.144188	0.090520	0.089954	473.085	49150.1	0.083301	0.222362	2127.54	95228.5
154	2.000000	1.146677	7.36655e+06	-46339.1	955.817	-29770	0.000000	0.000000	7.166551	484.741	NaN	0.000000	0.001621	0.001641	28.0828	91.4317	0.001765	51814.5	6.836484	170.38	485.137	1.146370	0.092444	0.092136	484.741	51814.5	0.085427	0.232443	2085.42	98189.7
154	2.000000	1.148720	7.36655e+06	-46339.1	955.819	-29770	0.000000	0.000000	7.169504	506.881	NaN	0.000000	0.001630	0.001707	28.0841	91.4663	0.001706	53606.8	2.609833	174.556	508.536	1.148350	0.094486	0.094117	506.881	53606.8	0.087394	0.241956	2094.93	99569.2
154	2.000000	1.150753	7.36655e+06	-46339.1	955.818	-29770	0.000000	0.000000	7.171908	515.895	NaN	0.000000	0.001644	0.001726	28.0819	95.559	0.001832	52171.2	2.493634	174.698	519.828	1.150522	0.096519	0.096288	515.895	52171.2	0.089103	0.250361	2060.6	95262.3
154	2.000000	1.152618	7.36655e+06	-46339.1	955.818	-29770	0.000000	0.000000	7.175193	550.421	NaN	0.000000	0.001662	0.001706	28.0838	96.5899	0.001711	56461.4	2.818192	174.667	545.581	1.152191	0.098385	0.097957	550.421	56461.4	0.091073	0.260224	2115.19	101123
154	2.000000	1.154633	7.36655e+06	-46339.1	955.82	-29770	0.000000	0.000000	7.177829	565.53	NaN	0.000000	0.001653	0.001709	28.0846	98.4685	0.001749	56287.6	7.997516	170.029	562.352	1.154090	0.100400	0.099857	565.53	56287.6	0.092864	0.269340	2099.69	99091.4
154	2.000000	1.156478	7.36655e+06	-46339.1	955.819	-29770	0.000000	0.000000	7.180578	587.547	NaN	0.000000	0.001659	0.001692	28.0838	101.036	0.001768	57149.6	6.083487	170.31	576.005	1.156181	0.102244	0.101948	587.547	57149.6	0.094533	0.277969	2113.72	99035
154	2.000000	1.158514	7.36655e+06	-46339.1	955.819	-29770	0.000000	0.000000	7.183368	605.883	NaN	0.000000	0.001653	0.001639	28.0831	101.334	0.001785	56775.5	4.093077	172.41	598.018	1.158335	0.104280	0.104101	605.883	56775.5	0.096277	0.287117	2110.23	96806.5
154	2.000000	1.159757	7.36655e+06	-46339.1	955.819	-29770	0.000000	0.000000	7.185191	619.977	NaN	0.000000	0.001679	0.001648	28.1204	103.564	0.001742	59441.7	4.033657	172.687	624.66	1.159376	0.105523	0.105142	619.977	59441.7	0.097701	0.294693	2103.81	100041