File: remote_trans/data/nanoindenter/0828-1/data/Data_2025-08-06,11h17m57s/2025-07-22_16-23-58_1_223.txt
2025-07-22, 16:23:58, 1
Index	Phase	Displacement	Time	Pos X	Pos Y	Pos Z	Rot A	Rot B	Piezo Z	Force A	Force B	Gripper	Voltage A	Voltage B	Temperature	Amplitude force	Amplitude pos	Stiffness	Phase shift	Phase excitation	Force A raw	Displacement raw	HMax	HMax raw	Real Force	Real Stiffness	Contact Depth	Area	Hardness	Reduced Mod.
[#]	[#]	[um]	[s]	[um]	[um]	[um]	[m°]	[m°]	[um]	[uN]	[uN]	[V]	[V]	[V]	[°C]	[uN]	[um]	[N/m]	[°]	[°]	[uN]	[um]	[um]	[um]	[uN]	[N/m]	[um]	[um^2]	[MPa]	[MPa]
223	1.000000	0.002622	7.36722e+06	-49789.1	955.819	-29758.2	0.000000	0.000000	6.002825	-0.006404	NaN	0.000000	0.001592	0.001763	28.0798	0.016765	0.001017	16.4792	-116.064	-161.318	-0.007611	0.001376	-1.079317	-1.080563	-0.006404	16.4792	-1.079026	-2.620781E+14	2.443392E-17	NaN
223	1.000000	0.010540	7.36722e+06	-49789.1	955.818	-29758.2	0.000000	0.000000	6.010743	0.000358	NaN	0.000000	0.001570	0.001696	28.0798	0.078565	0.000928	84.6575	20.2227	-167.735	-0.015792	0.009198	-1.071399	-1.072740	0.000358	84.6575	-1.071402	-2.070266E+14	-1.730467E-18	NaN
223	1.000000	0.018595	7.36722e+06	-49789.1	955.818	-29758.2	0.000000	0.000000	6.018798	-0.000584	NaN	0.000000	0.001586	0.001737	28.0798	0.084364	0.001761	47.9023	117.952	-162.144	-0.005390	0.017240	-1.063344	-1.064699	-0.000584	47.9023	-1.063335	-1.613005E+14	3.622505E-18	NaN
223	1.000000	0.026556	7.36722e+06	-49789.1	955.818	-29758.2	0.000000	0.000000	6.026761	0.046458	NaN	0.000000	0.001559	0.001742	28.08	0.093596	0.001894	49.4065	-5.929001	-163.651	0.025362	0.025224	-1.055382	-1.056714	0.046458	49.4065	-1.056088	-1.288965E+14	-3.604281E-16	NaN
223	1.000000	0.034579	7.36722e+06	-49789.1	955.819	-29758.2	0.000000	0.000000	6.034784	0.052062	NaN	0.000000	0.001602	0.001699	28.0799	0.077128	0.001748	44.1253	65.5147	-168.199	0.030826	0.033270	-1.047360	-1.048668	0.052062	44.1253	-1.048245	-1.011151E+14	-5.148768E-16	NaN
223	1.000000	0.042544	7.36722e+06	-49789.1	955.818	-29758.2	0.000000	0.000000	6.042747	0.014190	NaN	0.000000	0.001543	0.001698	28.0806	0.096887	0.002065	46.9217	24.1062	-162.888	0.005321	0.041240	-1.039395	-1.040699	0.014190	46.9217	-1.039622	-7.742565E+13	-1.832696E-16	NaN
223	1.000000	0.050574	7.36722e+06	-49789.1	955.818	-29758.2	0.000000	0.000000	6.050776	-0.034386	NaN	0.000000	0.001542	0.001684	28.08	0.016668	0.001984	8.400457	-116.996	-164.364	0.021068	0.049257	-1.031365	-1.032682	-0.034386	8.400457	-1.028295	-5.451811E+13	6.307239E-16	NaN
223	1.000000	0.058583	7.36722e+06	-49789.1	955.818	-29758.2	0.000000	0.000000	6.058786	0.007989	NaN	0.000000	0.001597	0.001684	28.08	0.058717	0.002033	28.885	-140.452	-165.252	0.075517	0.057270	-1.023356	-1.024669	0.007989	28.885	-1.023564	-4.708681E+13	-1.696658E-16	NaN
223	1.000000	0.066560	7.36723e+06	-49789.1	955.818	-29758.2	0.000000	0.000000	6.066762	-0.025441	NaN	0.000000	0.001539	0.001671	28.0799	0.074436	0.001981	37.5705	-145.205	-166.478	0.024495	0.065275	-1.015379	-1.016664	-0.025441	37.5705	-1.014871	-3.596941E+13	7.072832E-16	NaN
223	1.000000	0.074506	7.36723e+06	-49789.1	955.818	-29758.2	0.000000	0.000000	6.074710	0.016991	NaN	0.000000	0.001605	0.001675	28.0798	0.085790	0.002023	42.4167	-73.9112	-160.587	0.075767	0.073212	-1.007433	-1.008727	0.016991	42.4167	-1.007733	-2.883156E+13	-5.893050E-16	NaN
223	1.000000	0.082568	7.36723e+06	-49789.1	955.817	-29758.2	0.000000	0.000000	6.082774	0.066671	NaN	0.000000	0.001608	0.001654	28.0801	0.176965	0.001866	94.8288	56.9138	-164.642	0.015288	0.081229	-0.999371	-1.000710	0.066671	94.8288	-0.999898	-2.261496E+13	-2.948108E-15	NaN
223	1.000000	0.090569	7.36723e+06	-49789.1	955.818	-29758.2	0.000000	0.000000	6.090773	0.006024	NaN	0.000000	0.001596	0.001672	28.0797	0.039262	0.001993	19.6984	102.555	-164.236	-0.025322	0.089248	-0.991369	-0.992691	0.006024	19.6984	-0.991599	-1.748408E+13	-3.445310E-16	NaN
223	1.000000	0.098590	7.36723e+06	-49789.1	955.818	-29758.2	0.000000	0.000000	6.098793	-0.004603	NaN	0.000000	0.001564	0.001679	28.08	0.039615	0.001866	21.2247	76.7488	-163.487	-0.001717	0.097260	-0.983349	-0.984679	-0.004603	21.2247	-0.983186	-1.346892E+13	3.417470E-16	NaN
223	1.000000	0.106589	7.36723e+06	-49789.1	955.819	-29758.2	0.000000	0.000000	6.106793	0.034428	NaN	0.000000	0.001586	0.001712	28.0796	0.031127	0.001875	16.6009	154.12	-165.7	0.038277	0.105248	-0.975350	-0.976690	0.034428	16.6009	-0.976906	-1.108460E+13	-3.105922E-15	NaN
223	1.000000	0.114557	7.36723e+06	-49789.1	955.818	-29758.2	0.000000	0.000000	6.114761	0.012576	NaN	0.000000	0.001573	0.001680	28.0798	0.053045	0.002070	25.6224	34.2237	-161.979	-0.044292	0.113238	-0.967382	-0.968701	0.012576	25.6224	-0.967750	-8.343321E+12	-1.507272E-15	NaN
223	1.000000	0.122589	7.36723e+06	-49789.1	955.817	-29758.2	0.000000	0.000000	6.122793	0.022915	NaN	0.000000	0.001596	0.001696	28.08	0.069100	0.002054	33.6495	-176.945	-170.563	0.030465	0.121296	-0.959350	-0.960643	0.022915	33.6495	-0.959861	-6.531146E+12	-3.508649E-15	NaN
223	1.000000	0.130588	7.36723e+06	-49789.1	955.818	-29758.2	0.000000	0.000000	6.130792	0.026136	NaN	0.000000	0.001577	0.001695	28.0799	0.032570	0.002021	16.1145	-131.657	-165.537	0.030079	0.129278	-0.951351	-0.952661	0.026136	16.1145	-0.952567	-5.207707E+12	-5.018719E-15	NaN
223	1.000000	0.138573	7.36723e+06	-49789.1	955.817	-29758.2	0.000000	0.000000	6.138778	0.056706	NaN	0.000000	0.001582	0.001657	28.079	0.080898	0.001999	40.4701	-11.2815	-164.725	0.062877	0.137272	-0.943366	-0.944667	0.056706	40.4701	-0.944417	-4.043192E+12	-1.402500E-14	NaN
223	1.000000	0.146589	7.36723e+06	-49789.1	955.819	-29758.2	0.000000	0.000000	6.146790	-0.036787	NaN	0.000000	0.001586	0.001694	28.0787	0.089640	0.001989	45.0627	-83.9605	-164.082	-0.031142	0.145323	-0.935350	-0.936616	-0.036787	45.0627	-0.934738	-2.993219E+12	1.229011E-14	NaN
223	1.000000	0.154581	7.36723e+06	-49789.1	955.817	-29758.2	0.000000	0.000000	6.154784	-0.013824	NaN	0.000000	0.001552	0.001693	28.0786	0.074733	0.002082	35.8965	108.223	-166.968	0.079350	0.153309	-0.927358	-0.928630	-0.013824	35.8965	-0.927069	-2.358505E+12	5.861537E-15	NaN
223	1.000000	0.162600	7.36723e+06	-49789.1	955.819	-29758.2	0.000000	0.000000	6.162804	0.014007	NaN	0.000000	0.001551	0.001697	28.0786	0.040010	0.001926	20.7751	-23.7902	-165.768	0.023564	0.161305	-0.919339	-0.920634	0.014007	20.7751	-0.919845	-1.884123E+12	-7.434308E-15	NaN
223	1.000000	0.170584	7.36723e+06	-49789.1	955.818	-29758.2	0.000000	0.000000	6.170790	0.057990	NaN	0.000000	0.001557	0.001703	28.0789	0.068835	0.001993	34.5397	-129.041	-164.339	0.033738	0.169277	-0.911355	-0.912662	0.057990	34.5397	-0.912614	-1.504764E+12	-3.853770E-14	NaN
223	1.000000	0.178590	7.36723e+06	-49789.1	955.818	-29758.2	0.000000	0.000000	6.178792	-0.026419	NaN	0.000000	0.001575	0.001727	28.0792	0.073639	0.001975	37.2876	158.387	-164.498	-0.022151	0.177312	-0.903349	-0.904627	-0.026419	37.2876	-0.902817	-1.109510E+12	2.381157E-14	NaN
223	1.000000	0.186619	7.36723e+06	-49789.1	955.818	-29758.2	0.000000	0.000000	6.186823	0.027684	NaN	0.000000	0.001577	0.001696	28.0788	0.050532	0.001988	25.4124	111.786	-163.164	-0.038022	0.185347	-0.895320	-0.896592	0.027684	25.4124	-0.896137	-9.012884E+11	-3.071573E-14	NaN
223	1.000000	0.194604	7.36723e+06	-49789.1	955.818	-29758.2	0.000000	0.000000	6.194806	-0.025344	NaN	0.000000	0.001573	0.001720	28.0787	0.070418	0.002031	34.6642	-48.5415	-168.251	-0.017097	0.193324	-0.887334	-0.888614	-0.025344	34.6642	-0.886786	-6.737020E+11	3.761918E-14	NaN
223	1.000000	0.202633	7.36723e+06	-49789.1	955.819	-29758.2	0.000000	0.000000	6.202837	0.008875	NaN	0.000000	0.001571	0.001712	28.0786	0.046235	0.002059	22.4502	101.73	-167.216	-0.013624	0.201330	-0.879306	-0.880609	0.008875	22.4502	-0.879602	-5.386775E+11	-1.647600E-14	NaN
223	1.000000	0.210601	7.36723e+06	-49789.1	955.818	-29758.2	0.000000	0.000000	6.210804	0.004527	NaN	0.000000	0.001583	0.001712	28.0787	0.083770	0.001959	42.7724	108.766	-164.731	-0.029446	0.209307	-0.871338	-0.872632	0.004527	42.7724	-0.871417	-4.174632E+11	-1.084463E-14	NaN
223	1.000000	0.218623	7.36723e+06	-49789.1	955.818	-29758.2	0.000000	0.000000	6.218830	0.085598	NaN	0.000000	0.001592	0.001655	28.079	0.066450	0.002030	32.7352	156.172	-162.913	-0.009681	0.217295	-0.863316	-0.864644	0.085598	32.7352	-0.865277	-3.447762E+11	-2.482709E-13	NaN
223	1.000000	0.226612	7.36723e+06	-49789.1	955.817	-29758.2	0.000000	0.000000	6.226818	0.079173	NaN	0.000000	0.001599	0.001686	28.0792	0.111786	0.002071	53.9798	-147.908	-167.341	0.018829	0.225311	-0.855327	-0.856627	0.079173	53.9798	-0.856427	-2.616728E+11	-3.025662E-13	NaN
223	1.000000	0.234610	7.36723e+06	-49789.1	955.818	-29758.2	0.000000	0.000000	6.234816	0.059971	NaN	0.000000	0.001597	0.001667	28.0794	0.129130	0.002036	63.4145	119.447	-167.171	0.021857	0.233372	-0.847329	-0.848566	0.059971	63.4145	-0.848038	-2.014505E+11	-2.976958E-13	NaN
223	1.000000	0.242642	7.36723e+06	-49789.1	955.818	-29758.2	0.000000	0.000000	6.242845	-0.010799	NaN	0.000000	0.001582	0.001669	28.0789	0.030755	0.001895	16.2269	49.1201	-165.104	-0.068643	0.241323	-0.839297	-0.840616	-0.010799	16.2269	-0.838798	-1.510100E+11	7.151497E-14	NaN
223	1.000000	0.250658	7.36723e+06	-49789.1	955.817	-29758.2	0.000000	0.000000	6.250860	-0.031532	NaN	0.000000	0.001595	0.001693	28.079	0.161597	0.002094	77.1766	12.5315	-168.506	-0.013759	0.249318	-0.831281	-0.832621	-0.031532	77.1766	-0.830974	-1.183011E+11	2.665418E-13	NaN
223	1.000000	0.258629	7.36723e+06	-49789.1	955.818	-29758.2	0.000000	0.000000	6.258832	-0.008472	NaN	0.000000	0.001581	0.001693	28.0789	0.043489	0.001935	22.4787	76.5026	-163.069	0.003685	0.257385	-0.823310	-0.824554	-0.008472	22.4787	-0.823027	-9.231295E+10	9.177238E-14	NaN
223	1.000000	0.266647	7.36723e+06	-49789.1	955.818	-29758.2	0.000000	0.000000	6.266851	0.034451	NaN	0.000000	0.001614	0.001704	28.079	0.064430	0.002056	31.3401	-46.8347	-164.881	0.017152	0.265359	-0.815292	-0.816580	0.034451	31.3401	-0.816117	-7.439511E+10	-4.630797E-13	NaN
223	1.000000	0.274657	7.36723e+06	-49789.1	955.818	-29758.2	0.000000	0.000000	6.274858	-0.039887	NaN	0.000000	0.001592	0.001707	28.0805	0.082542	0.002003	41.2009	-33.111	-167.337	-0.004348	0.273374	-0.807282	-0.808565	-0.039887	41.2009	-0.806556	-5.518743E+10	7.227593E-13	NaN
223	1.000000	0.282645	7.36723e+06	-49789.1	955.818	-29758.2	0.000000	0.000000	6.282849	0.031999	NaN	0.000000	0.001617	0.001703	28.0802	0.091047	0.002046	44.4968	-165.343	-166.08	-0.018057	0.281317	-0.799294	-0.800622	0.031999	44.4968	-0.799833	-4.473012E+10	-7.153742E-13	NaN
223	1.000000	0.290637	7.36723e+06	-49789.1	955.817	-29758.2	0.000000	0.000000	6.290842	0.046395	NaN	0.000000	0.001589	0.001707	28.0806	0.077420	0.002037	38.0127	105.845	-165.562	0.030678	0.289303	-0.791302	-0.792635	0.046395	38.0127	-0.792217	-3.525289E+10	-1.316064E-12	NaN
223	1.000000	0.298673	7.36723e+06	-49789.1	955.819	-29758.2	0.000000	0.000000	6.298877	0.032084	NaN	0.000000	0.001582	0.001693	28.0804	0.035213	0.002112	16.6723	142.305	-165.437	0.010601	0.297326	-0.783266	-0.784613	0.032084	16.6723	-0.784709	-2.787514E+10	-1.151005E-12	NaN
223	1.000000	0.306643	7.36723e+06	-49789.1	955.817	-29758.2	0.000000	0.000000	6.306846	-0.000840	NaN	0.000000	0.001559	0.001689	28.0804	0.052805	0.001971	26.7972	-96.5318	-168.512	0.041117	0.305363	-0.775296	-0.776575	-0.000840	26.7972	-0.775272	-2.074800E+10	4.046794E-14	NaN
223	1.000000	0.314628	7.36723e+06	-49789.1	955.819	-29758.2	0.000000	0.000000	6.314833	0.049875	NaN	0.000000	0.001559	0.001666	28.0804	0.042171	0.001897	22.2303	-173.52	-168.365	0.057658	0.313271	-0.767311	-0.768668	0.049875	22.2303	-0.768994	-1.704611E+10	-2.925894E-12	NaN
223	1.000000	0.322687	7.36723e+06	-49789.1	955.818	-29758.2	0.000000	0.000000	6.322887	-0.077239	NaN	0.000000	0.001592	0.001708	28.0803	0.072517	0.002002	36.2305	-83.7712	-163.067	-0.118469	0.321329	-0.759252	-0.760610	-0.077239	36.2305	-0.757653	-1.195002E+10	6.463510E-12	NaN
223	1.000000	0.330664	7.36723e+06	-49789.1	955.818	-29758.2	0.000000	0.000000	6.330868	0.020553	NaN	0.000000	0.001545	0.001740	28.0806	0.032511	0.002085	15.5933	-172.265	-166.329	0.002013	0.329338	-0.751274	-0.752601	0.020553	15.5933	-0.752263	-1.009302E+10	-2.036355E-12	NaN
223	1.000000	0.338708	7.36723e+06	-49789.1	955.817	-29758.2	0.000000	0.000000	6.338912	-0.003159	NaN	0.000000	0.001605	0.001737	28.0801	0.075932	0.001956	38.8245	-121.37	-165.562	-0.047166	0.337328	-0.743230	-0.744611	-0.003159	38.8245	-0.743169	-7.589613E+9	4.162317E-13	NaN
223	1.000000	0.346682	7.36723e+06	-49789.1	955.818	-29758.2	0.000000	0.000000	6.346885	0.005193	NaN	0.000000	0.001585	0.001772	28.0803	0.065221	0.001908	34.1818	145.066	-165.034	0.084084	0.345362	-0.735257	-0.736577	0.005193	34.1818	-0.735371	-5.942921E+9	-8.738301E-13	NaN
223	1.000000	0.354688	7.36723e+06	-49789.1	955.818	-29758.2	0.000000	0.000000	6.354888	-0.077468	NaN	0.000000	0.001590	0.001720	28.0804	0.021331	0.002030	10.51	-99.4372	-164.925	-0.050048	0.353428	-0.727251	-0.728511	-0.077468	10.51	-0.721723	-3.872304E+9	2.000562E-11	NaN
223	1.000000	0.362673	7.36723e+06	-49789.1	955.818	-29758.2	0.000000	0.000000	6.362875	-0.028247	NaN	0.000000	0.001567	0.001723	28.0804	0.052724	0.002028	25.9933	-114.143	-166.435	0.052710	0.361328	-0.719266	-0.720611	-0.028247	25.9933	-0.718451	-3.494219E+9	8.083830E-12	NaN
223	1.000000	0.370669	7.36723e+06	-49789.1	955.818	-29758.2	0.000000	0.000000	6.370870	-0.054516	NaN	0.000000	0.001560	0.001728	28.0806	0.057040	0.002028	28.1196	-94.2321	-164.73	-0.041575	0.369370	-0.711269	-0.712569	-0.054516	28.1196	-0.709815	-2.663959E+9	2.046438E-11	NaN
223	1.000000	0.378697	7.36723e+06	-49789.1	955.818	-29758.2	0.000000	0.000000	6.378898	-0.031574	NaN	0.000000	0.001580	0.001706	28.0803	0.072862	0.002067	35.2438	46.0722	-164.893	-0.079538	0.377326	-0.703242	-0.704613	-0.031574	35.2438	-0.702570	-2.121438E+9	1.488343E-11	NaN
223	1.000000	0.386691	7.36723e+06	-49789.1	955.819	-29758.2	0.000000	0.000000	6.386892	-0.036973	NaN	0.000000	0.001576	0.001712	28.0804	0.033826	0.001917	17.6414	154.604	-164.364	-0.016556	0.385368	-0.695248	-0.696571	-0.036973	17.6414	-0.693676	-1.603803E+9	2.305362E-11	NaN
223	1.000000	0.394720	7.36723e+06	-49789.1	955.818	-29758.2	0.000000	0.000000	6.394921	-0.068969	NaN	0.000000	0.001582	0.001721	28.0802	0.076339	0.001948	39.1851	131.082	-164.26	-0.062045	0.393356	-0.687219	-0.688582	-0.068969	39.1851	-0.685899	-1.255619E+9	5.492799E-11	NaN
223	1.000000	0.402662	7.36723e+06	-49789.1	955.818	-29758.2	0.000000	0.000000	6.402866	0.016095	NaN	0.000000	0.001591	0.001669	28.0802	0.069775	0.002140	32.6112	-97.1149	-166.703	0.056924	0.401385	-0.679277	-0.680554	0.016095	32.6112	-0.679647	-1.031284E+9	-1.560674E-11	NaN
223	1.000000	0.410706	7.36723e+06	-49789.1	955.818	-29758.2	0.000000	0.000000	6.410909	-0.018450	NaN	0.000000	0.001590	0.001653	28.0793	0.070366	0.002059	34.1764	68.4171	-168.118	0.055394	0.409393	-0.671233	-0.672546	-0.018450	34.1764	-0.670828	-7.811226E+8	2.361934E-11	NaN
223	1.000000	0.418724	7.36723e+06	-49789.1	955.818	-29758.2	0.000000	0.000000	6.418926	-0.037935	NaN	0.000000	0.001604	0.001668	28.0789	0.031512	0.001936	16.2792	93.4	-163.985	0.000830	0.417438	-0.663214	-0.664501	-0.037935	16.2792	-0.661467	-5.815104E+8	6.523580E-11	NaN
223	1.000000	0.426714	7.36723e+06	-49789.1	955.818	-29758.2	0.000000	0.000000	6.426915	-0.051814	NaN	0.000000	0.001562	0.001671	28.0789	0.024230	0.002024	11.9722	-3.861807	-164.603	-0.077851	0.425369	-0.655225	-0.656570	-0.051814	11.9722	-0.651979	-4.310890E+8	1.201928E-10	NaN
223	1.000000	0.434703	7.36723e+06	-49789.1	955.818	-29758.2	0.000000	0.000000	6.434907	0.020462	NaN	0.000000	0.001620	0.001678	28.0789	0.039532	0.002049	19.2938	-109.13	-164.61	0.033430	0.433330	-0.647236	-0.648609	0.020462	19.2938	-0.648032	-3.805825E+8	-5.376442E-11	NaN
223	1.000000	0.442712	7.36723e+06	-49789.1	955.818	-29758.2	0.000000	0.000000	6.442914	-0.024981	NaN	0.000000	0.001581	0.001685	28.0789	0.082276	0.002061	39.9298	-155.678	-165.943	0.003854	0.441434	-0.639227	-0.640505	-0.024981	39.9298	-0.638757	-2.839494E+8	8.797754E-11	NaN
223	1.000000	0.450711	7.36723e+06	-49789.1	955.817	-29758.2	0.000000	0.000000	6.450914	0.010263	NaN	0.000000	0.001587	0.001695	28.0788	0.045953	0.002065	22.2522	167.91	-164.098	0.025349	0.449374	-0.631228	-0.632565	0.010263	22.2522	-0.631574	-2.262747E+8	-4.535812E-11	NaN
223	1.000000	0.458742	7.36723e+06	-49789.1	955.818	-29758.2	0.000000	0.000000	6.458944	-0.008801	NaN	0.000000	0.001582	0.001699	28.0788	0.071973	0.002037	35.3369	147.445	-167.21	-0.059365	0.457402	-0.623197	-0.624537	-0.008801	35.3369	-0.623011	-1.725871E+8	5.099260E-11	NaN
223	1.000000	0.466727	7.36723e+06	-49789.1	955.818	-29758.2	0.000000	0.000000	6.466930	-0.015512	NaN	0.000000	0.001600	0.001719	28.0792	0.094601	0.002024	46.7304	-143.534	-164.819	-0.035193	0.465417	-0.615211	-0.616521	-0.015512	46.7304	-0.614963	-1.337750E+8	1.159524E-10	NaN
223	1.000000	0.474733	7.36723e+06	-49789.1	955.818	-29758.2	0.000000	0.000000	6.474936	-0.005772	NaN	0.000000	0.001628	0.001676	28.0789	0.044833	0.002072	21.6346	132.351	-163.149	-0.107571	0.473443	-0.607206	-0.608496	-0.005772	21.6346	-0.607006	-1.039714E+8	5.551713E-11	NaN
223	1.000000	0.482713	7.36723e+06	-49789.1	955.819	-29758.2	0.000000	0.000000	6.482917	0.022408	NaN	0.000000	0.001583	0.001679	28.0789	0.039243	0.001951	20.1095	45.2949	-169.197	-0.007531	0.481420	-0.599226	-0.600519	0.022408	20.1095	-0.600061	-8.342710E+7	-2.685993E-10	NaN
223	1.000000	0.490722	7.36723e+06	-49789.1	955.819	-29758.2	0.000000	0.000000	6.490923	-0.059045	NaN	0.000000	0.001611	0.001700	28.0789	0.093582	0.001778	52.6367	147.295	-165.494	-0.013502	0.489422	-0.591217	-0.592517	-0.059045	52.6367	-0.590375	-6.135383E+7	9.623640E-10	NaN
223	1.000000	0.498779	7.36723e+06	-49789.1	955.819	-29758.2	0.000000	0.000000	6.498980	-0.057252	NaN	0.000000	0.001617	0.001696	28.0789	0.058174	0.001906	30.5141	59.6409	-166.739	-0.021765	0.497430	-0.583160	-0.584508	-0.057252	30.5141	-0.581753	-4.665701E+7	1.227075E-9	NaN
223	1.000000	0.506746	7.36723e+06	-49789.1	955.818	-29758.2	0.000000	0.000000	6.506950	0.025852	NaN	0.000000	0.001611	0.001692	28.0791	0.059540	0.001965	30.3022	-136.383	-166.216	0.022872	0.505434	-0.575193	-0.576505	0.025852	30.3022	-0.575833	-3.865468E+7	-6.687871E-10	NaN
223	1.000000	0.514751	7.36723e+06	-49789.1	955.818	-29758.2	0.000000	0.000000	6.514954	-0.009571	NaN	0.000000	0.001597	0.001691	28.0791	0.055770	0.001949	28.6182	-127.392	-165.579	-0.021239	0.513468	-0.567187	-0.568470	-0.009571	28.6182	-0.566937	-2.912705E+7	3.285840E-10	NaN
223	1.000000	0.522733	7.36723e+06	-49789.1	955.818	-29758.2	0.000000	0.000000	6.522935	-0.045000	NaN	0.000000	0.001603	0.001663	28.0792	0.113915	0.001875	60.7645	-168.457	-168.218	-0.052529	0.521427	-0.559205	-0.560512	-0.045000	60.7645	-0.558650	-2.237175E+7	2.011487E-9	NaN
223	1.000000	0.530755	7.36723e+06	-49789.1	955.818	-29758.2	0.000000	0.000000	6.530958	0.016003	NaN	0.000000	0.001578	0.001683	28.0789	0.065081	0.002046	31.8106	-23.9754	-168.409	0.023469	0.529447	-0.551184	-0.552492	0.016003	31.8106	-0.551562	-1.784770E+7	-8.966498E-10	NaN
223	1.000000	0.538764	7.36723e+06	-49789.1	955.819	-29758.2	0.000000	0.000000	6.538967	-0.000666	NaN	0.000000	0.001578	0.001642	28.0791	0.047263	0.002036	23.2182	84.3537	-169.206	0.037438	0.537427	-0.543175	-0.544512	-0.000666	23.2182	-0.543153	-1.364837E+7	4.881822E-11	NaN
223	1.000000	0.546748	7.36723e+06	-49789.1	955.818	-29758.2	0.000000	0.000000	6.546950	-0.030741	NaN	0.000000	0.001608	0.001650	28.0803	0.036073	0.002034	17.7388	-94.6932	-166.536	-0.054036	0.545450	-0.535190	-0.536488	-0.030741	17.7388	-0.533891	-1.015298E+7	3.027742E-9	NaN
223	1.000000	0.554762	7.36723e+06	-49789.1	955.818	-29758.2	0.000000	0.000000	6.554963	-0.050104	NaN	0.000000	0.001576	0.001674	28.0802	0.061093	0.001875	32.5748	-154.219	-164.018	0.063614	0.553450	-0.527177	-0.528489	-0.050104	32.5748	-0.526023	-7.89463e+06	6.346543E-9	NaN
223	1.000000	0.562778	7.36723e+06	-49789.1	955.818	-29758.2	0.000000	0.000000	6.562983	0.032168	NaN	0.000000	0.001587	0.001682	28.0806	0.131513	0.002119	62.0784	-99.3541	-167.485	0.109978	0.561456	-0.519160	-0.520483	0.032168	62.0784	-0.519549	-6.41689e+06	-5.012955E-9	NaN
223	1.000000	0.570755	7.36723e+06	-49789.1	955.818	-29758.2	0.000000	0.000000	6.570960	0.048519	NaN	0.000000	0.001601	0.001649	28.0801	0.088485	0.002058	42.9871	-65.5405	-165.735	0.002786	0.569431	-0.511184	-0.512508	0.048519	42.9871	-0.512031	-5.04308e+06	-9.620929E-9	NaN
223	1.000000	0.578756	7.36723e+06	-49789.1	955.817	-29758.2	0.000000	0.000000	6.578958	-0.027206	NaN	0.000000	0.001645	0.001670	28.0804	0.063933	0.002037	31.385	-2.434549	-166.611	0.000197	0.577460	-0.503183	-0.504478	-0.027206	31.385	-0.502532	-3.71826e+06	7.316759E-9	NaN
223	1.000000	0.586801	7.36723e+06	-49789.1	955.819	-29758.2	0.000000	0.000000	6.587004	-0.017447	NaN	0.000000	0.001622	0.001675	28.0803	0.036181	0.001986	18.2169	-132.595	-167.046	-0.043947	0.585485	-0.495137	-0.496454	-0.017447	18.2169	-0.494419	-2.86499e+06	6.089796E-9	NaN
223	1.000000	0.594782	7.36723e+06	-49789.1	955.818	-29758.2	0.000000	0.000000	6.594983	-0.061637	NaN	0.000000	0.001622	0.001690	28.0803	0.045370	0.002006	22.6201	31.8485	-167.076	-0.094141	0.593466	-0.487157	-0.488473	-0.061637	22.6201	-0.485113	-2.12359e+06	2.902501E-8	NaN
223	1.000000	0.602777	7.36723e+06	-49789.1	955.817	-29758.2	0.000000	0.000000	6.602981	0.016812	NaN	0.000000	0.001634	0.001672	28.0804	0.053681	0.001993	26.9287	133.613	-167.753	0.047151	0.601434	-0.479162	-0.480505	0.016812	26.9287	-0.479630	-1.77972e+06	-9.446602E-9	NaN
223	1.000000	0.610788	7.36723e+06	-49789.1	955.819	-29758.2	0.000000	0.000000	6.610990	-0.016053	NaN	0.000000	0.001594	0.001615	28.0804	0.001736	0.002120	0.819000	-155.384	-165.377	-0.029199	0.609452	-0.471151	-0.472487	-0.016053	0.819000	-0.456450	-841611	1.907455E-8	NaN
223	1.000000	0.618779	7.36723e+06	-49789.1	955.818	-29758.2	0.000000	0.000000	6.618983	0.020598	NaN	0.000000	0.001605	0.001600	28.0806	0.094372	0.002030	46.4987	-43.3931	-167.2	0.048037	0.617511	-0.463160	-0.464427	0.020598	46.4987	-0.463492	-1.057e+06	-1.948677E-8	NaN
223	1.000000	0.626775	7.36723e+06	-49789.1	955.818	-29758.2	0.000000	0.000000	6.626977	-0.016561	NaN	0.000000	0.001556	0.001624	28.0802	0.073953	0.002011	36.769	-14.17	-167.939	0.059694	0.625462	-0.455164	-0.456477	-0.016561	36.769	-0.454826	-798498	2.073966E-8	NaN
223	1.000000	0.634787	7.36723e+06	-49789.1	955.818	-29758.2	0.000000	0.000000	6.634988	-0.050399	NaN	0.000000	0.001586	0.001676	28.0815	0.003115	0.001972	1.579204	49.8304	-166.73	-0.088543	0.633479	-0.447152	-0.448460	-0.050399	1.579204	-0.423216	-285763	1.763667E-7	NaN
223	1.000000	0.642814	7.36723e+06	-49789.1	955.817	-29758.2	0.000000	0.000000	6.643018	0.006085	NaN	0.000000	0.001589	0.001683	28.0803	0.068681	0.002069	33.1957	-54.7964	-166.726	-0.044164	0.641452	-0.439124	-0.440487	0.006085	33.1957	-0.439262	-481888	-1.262762E-8	NaN
223	1.000000	0.650816	7.36723e+06	-49789.1	955.817	-29758.2	0.000000	0.000000	6.651020	0.024508	NaN	0.000000	0.001610	0.001667	28.0804	0.087042	0.001962	44.3753	-144.294	-163.731	-0.014493	0.649478	-0.431123	-0.432461	0.024508	44.3753	-0.431537	-374801	-6.538996E-8	NaN
223	1.000000	0.658801	7.36723e+06	-49789.1	955.819	-29758.2	0.000000	0.000000	6.659005	0.010315	NaN	0.000000	0.001601	0.001715	28.0808	0.014807	0.001972	7.508346	-163.254	-167.451	-0.026074	0.657455	-0.423138	-0.424484	0.010315	7.508346	-0.424168	-294780	-3.499260E-8	NaN
223	1.000000	0.666799	7.36723e+06	-49789.1	955.818	-29758.2	0.000000	0.000000	6.667000	-0.044587	NaN	0.000000	0.001604	0.001691	28.0805	0.086408	0.002010	42.9945	-97.6001	-166.201	-0.061706	0.665477	-0.415140	-0.416462	-0.044587	42.9945	-0.414362	-213991	2.083575E-7	NaN
223	1.000000	0.674827	7.36723e+06	-49789.1	955.818	-29758.2	0.000000	0.000000	6.675031	0.014822	NaN	0.000000	0.001600	0.001704	28.0805	0.061048	0.001853	32.9496	49.9734	-167.824	-0.025634	0.673537	-0.407111	-0.408402	0.014822	32.9496	-0.407449	-170651	-8.685565E-8	NaN
223	1.000000	0.682792	7.36723e+06	-49789.1	955.818	-29758.2	0.000000	0.000000	6.682997	0.042564	NaN	0.000000	0.001571	0.001643	28.0792	0.040985	0.001917	21.375	-140.951	-163.462	0.036141	0.681539	-0.399147	-0.400399	0.042564	21.375	-0.400640	-136498	-3.118315E-7	NaN
223	1.000000	0.690812	7.36723e+06	-49789.1	955.818	-29758.2	0.000000	0.000000	6.691014	-0.031146	NaN	0.000000	0.001609	0.001689	28.0793	0.094471	0.002029	46.5605	-142.604	-168.455	-0.046384	0.689520	-0.391127	-0.392419	-0.031146	46.5605	-0.390625	-98198.8	3.171753E-7	NaN
223	1.000000	0.698825	7.36723e+06	-49789.1	955.818	-29758.2	0.000000	0.000000	6.699028	0.015945	NaN	0.000000	0.001613	0.001734	28.0797	0.040010	0.002019	19.8187	103.804	-164.219	0.008328	0.697544	-0.383114	-0.384395	0.015945	19.8187	-0.383718	-78200.5	-2.039010E-7	NaN
223	1.000000	0.706808	7.36723e+06	-49789.1	955.818	-29758.2	0.000000	0.000000	6.707012	0.034542	NaN	0.000000	0.001585	0.001668	28.0796	0.032905	0.001973	16.6745	-21.3816	-166.637	0.094991	0.705486	-0.375131	-0.376453	0.034542	16.6745	-0.376685	-61984.5	-5.572711E-7	NaN
223	1.000000	0.714828	7.36723e+06	-49789.1	955.818	-29758.2	0.000000	0.000000	6.715032	0.018247	NaN	0.000000	0.001593	0.001690	28.0796	0.054630	0.001917	28.4955	17.8549	-167.938	-0.031697	0.713501	-0.367111	-0.368438	0.018247	28.4955	-0.367591	-45859.1	-3.978845E-7	NaN
223	1.000000	0.722832	7.36723e+06	-49789.1	955.818	-29758.2	0.000000	0.000000	6.723036	0.020394	NaN	0.000000	0.001581	0.001660	28.0792	0.124680	0.001903	65.5012	83.034	-167.588	0.080798	0.721554	-0.359107	-0.360385	0.020394	65.5012	-0.359341	-34858.9	-5.850431E-7	NaN
223	1.000000	0.730828	7.36723e+06	-49789.1	955.818	-29758.2	0.000000	0.000000	6.731029	-0.050189	NaN	0.000000	0.001575	0.001648	28.0793	0.008157	0.001878	4.343358	-40.338	-168.341	0.020046	0.729492	-0.351111	-0.352447	-0.050189	4.343358	-0.342445	-19823.1	2.531832E-6	NaN
223	1.000000	0.738823	7.36723e+06	-49789.1	955.818	-29758.2	0.000000	0.000000	6.739027	0.012530	NaN	0.000000	0.001561	0.001643	28.0794	0.045477	0.001965	23.1406	137.189	-164.452	-0.055099	0.737548	-0.343115	-0.344391	0.012530	23.1406	-0.343521	-20551.6	-6.096854E-7	NaN
223	1.000000	0.746845	7.36723e+06	-49789.1	955.817	-29758.2	0.000000	0.000000	6.747046	-0.048454	NaN	0.000000	0.001625	0.001685	28.0792	0.127969	0.002077	61.615	34.8932	-165.252	-0.043647	0.745521	-0.335094	-0.336418	-0.048454	61.615	-0.334504	-15182.2	3.191502E-6	NaN
223	1.000000	0.754839	7.36723e+06	-49789.1	955.817	-29758.2	0.000000	0.000000	6.755042	-0.012843	NaN	0.000000	0.001596	0.001665	28.0794	0.042737	0.002043	20.9202	156.634	-168.383	0.013374	0.753562	-0.327100	-0.328376	-0.012843	20.9202	-0.326639	-11646.4	1.102730E-6	NaN
223	1.000000	0.762858	7.36723e+06	-49789.1	955.818	-29758.2	0.000000	0.000000	6.763063	0.022629	NaN	0.000000	0.001576	0.001693	28.0792	0.071295	0.002018	35.3331	3.146104	-164.704	-0.023687	0.761528	-0.319080	-0.320411	0.022629	35.3331	-0.319561	-9165.82	-2.468853E-6	NaN
223	1.000000	0.770813	7.36723e+06	-49789.1	955.818	-29758.2	0.000000	0.000000	6.771016	0.005860	NaN	0.000000	0.001595	0.001632	28.0794	0.173618	0.001981	87.6594	159.538	-166.948	0.067963	0.769584	-0.311126	-0.312354	0.005860	87.6594	-0.311176	-6893.78	-8.499925E-7	NaN
223	1.000000	0.778863	7.36723e+06	-49789.1	955.818	-29758.2	0.000000	0.000000	6.779065	-0.026114	NaN	0.000000	0.001637	0.001642	28.0798	0.078289	0.002045	38.2769	54.1144	-163.467	-0.061352	0.777501	-0.303075	-0.304438	-0.026114	38.2769	-0.302564	-5137.73	5.082837E-6	NaN
223	1.000000	0.786857	7.36723e+06	-49789.1	955.817	-29758.2	0.000000	0.000000	6.787058	-0.049472	NaN	0.000000	0.001617	0.001668	28.0794	0.095836	0.001896	50.5511	10.6236	-167.414	-0.004618	0.785577	-0.295082	-0.296362	-0.049472	50.5511	-0.294348	-3875.72	1.276455E-5	NaN
223	1.000000	0.794866	7.36723e+06	-49789.1	955.818	-29758.2	0.000000	0.000000	6.795070	0.015612	NaN	0.000000	0.001592	0.001665	28.0794	0.025160	0.002117	11.8861	24.2645	-162.341	0.082615	0.793593	-0.287073	-0.288346	0.015612	11.8861	-0.288058	-3120.21	-5.003485E-6	NaN
223	1.000000	0.802881	7.36723e+06	-49789.1	955.818	-29758.2	0.000000	0.000000	6.803083	-0.043732	NaN	0.000000	0.001563	0.001665	28.0793	0.056977	0.001885	30.2259	-83.9009	-162.239	-0.061783	0.801534	-0.279057	-0.280404	-0.043732	30.2259	-0.277972	-2199.67	1.988125E-5	NaN
223	1.000000	0.810888	7.36723e+06	-49789.1	955.818	-29758.2	0.000000	0.000000	6.811092	0.005521	NaN	0.000000	0.001572	0.001672	28.0795	0.035816	0.001761	20.3425	39.3492	-165.627	-0.062885	0.809576	-0.271050	-0.272363	0.005521	20.3425	-0.271254	-1740.19	-3.172763E-6	NaN
223	1.000000	0.818880	7.36723e+06	-49789.1	955.819	-29758.2	0.000000	0.000000	6.819080	-0.065715	NaN	0.000000	0.001553	0.001693	28.0807	0.076889	0.001908	40.3083	-20.6793	-162.861	-0.007746	0.817576	-0.263059	-0.264362	-0.065715	40.3083	-0.261836	-1250.37	5.255651E-5	NaN
223	1.000000	0.826885	7.36723e+06	-49789.1	955.818	-29758.2	0.000000	0.000000	6.827090	0.051013	NaN	0.000000	0.001559	0.001676	28.0807	0.051108	0.002076	24.6184	-24.8897	-165.521	0.009363	0.825551	-0.255054	-0.256388	0.051013	24.6184	-0.256608	-1039.58	-4.907112E-5	NaN
223	1.000000	0.834870	7.36723e+06	-49789.1	955.818	-29758.2	0.000000	0.000000	6.835075	0.038832	NaN	0.000000	0.001578	0.001677	28.0804	0.042465	0.002072	20.4989	-167.027	-163.625	0.049208	0.833609	-0.247069	-0.248330	0.038832	20.4989	-0.248490	-779.097	-4.984236E-5	NaN
223	1.000000	0.842876	7.36723e+06	-49789.1	955.819	-29758.2	0.000000	0.000000	6.843080	0.006718	NaN	0.000000	0.001568	0.001672	28.0805	0.101684	0.001841	55.2464	-98.4312	-166.275	-0.059272	0.841546	-0.239062	-0.240392	0.006718	55.2464	-0.239154	-557.603	-1.204800E-5	NaN
223	1.000000	0.850866	7.36723e+06	-49789.1	955.818	-29758.2	0.000000	0.000000	6.851068	-0.035549	NaN	0.000000	0.001569	0.001689	28.0807	0.064163	0.001897	33.8277	25.088	-165.693	-0.065280	0.849548	-0.231073	-0.232391	-0.035549	33.8277	-0.230285	-404.589	8.786381E-5	NaN
223	1.000000	0.858890	7.36723e+06	-49789.1	955.818	-29758.2	0.000000	0.000000	6.859092	-0.045199	NaN	0.000000	0.001571	0.001706	28.0805	0.045671	0.002076	22.0021	8.041012	-166.58	0.010461	0.857566	-0.223049	-0.224373	-0.045199	22.0021	-0.221508	-293.597	0.000154	NaN
223	1.000000	0.866898	7.36723e+06	-49789.1	955.819	-29758.2	0.000000	0.000000	6.867101	-0.024404	NaN	0.000000	0.001598	0.001677	28.0806	0.041156	0.001986	20.7224	172.753	-166.478	-0.009971	0.865539	-0.215040	-0.216400	-0.024404	20.7224	-0.214157	-223.846	0.000109	NaN
223	1.000000	0.874879	7.36723e+06	-49789.1	955.818	-29758.2	0.000000	0.000000	6.875081	-0.019299	NaN	0.000000	0.001572	0.001676	28.0804	0.030053	0.002108	14.2583	163.661	-167.128	0.005674	0.873588	-0.207060	-0.208350	-0.019299	14.2583	-0.206045	-165.419	0.000117	NaN
223	1.000000	0.882893	7.36723e+06	-49789.1	955.818	-29758.2	0.000000	0.000000	6.883097	0.010086	NaN	0.000000	0.001552	0.001681	28.0807	0.094773	0.001990	47.618	-158.762	-167.598	0.092008	0.881550	-0.199045	-0.200389	0.010086	47.618	-0.199204	-127.824	-7.890380E-5	NaN
223	1.000000	0.890902	7.36723e+06	-49789.1	955.818	-29758.2	0.000000	0.000000	6.891105	-0.006847	NaN	0.000000	0.001587	0.001699	28.0805	0.049323	0.001996	24.708	-131.89	-167.405	0.040124	0.889553	-0.191037	-0.192385	-0.006847	24.708	-0.190829	-92.8688	7.373047E-5	NaN
223	1.000000	0.898930	7.36723e+06	-49789.1	955.819	-29758.2	0.000000	0.000000	6.899132	-0.025774	NaN	0.000000	0.001610	0.001685	28.0805	0.081807	0.001918	42.6592	58.246	-162.39	-0.057510	0.897555	-0.183009	-0.184383	-0.025774	42.6592	-0.182556	-67.4278	0.000382	NaN
223	1.000000	0.906907	7.36723e+06	-49789.1	955.818	-29758.2	0.000000	0.000000	6.907114	0.094316	NaN	0.000000	0.001587	0.001687	28.0808	0.068747	0.002107	32.6279	86.3139	-166.705	0.087724	0.905634	-0.175032	-0.176304	0.094316	32.6279	-0.177200	-54.6643	-0.001725	NaN
223	1.000000	0.914903	7.36723e+06	-49789.1	955.818	-29758.2	0.000000	0.000000	6.915106	-0.001610	NaN	0.000000	0.001604	0.001698	28.0805	0.072170	0.001988	36.3027	106.613	-168.004	0.035477	0.913613	-0.167036	-0.168326	-0.001610	36.3027	-0.167003	-36.4246	4.419435E-5	NaN
223	1.000000	0.922905	7.36723e+06	-49789.1	955.819	-29758.2	0.000000	0.000000	6.923107	-0.018750	NaN	0.000000	0.001604	0.001663	28.0808	0.026336	0.002103	12.5216	-117.778	-168.59	-0.026021	0.921590	-0.159034	-0.160349	-0.018750	12.5216	-0.157911	-25.1631	0.000745	NaN
223	1.000000	0.930914	7.36723e+06	-49789.1	955.818	-29758.2	0.000000	0.000000	6.931118	0.016269	NaN	0.000000	0.001606	0.001648	28.0805	0.089374	0.002027	44.0887	-69.1839	-164.308	-0.064589	0.929582	-0.151025	-0.152356	0.016269	44.0887	-0.151302	-19.1294	-0.000850	NaN
223	1.000000	0.938919	7.36723e+06	-49789.1	955.818	-29758.2	0.000000	0.000000	6.939119	-0.069609	NaN	0.000000	0.001623	0.001698	28.0804	0.101008	0.001938	52.1262	-107.753	-163.781	-0.036521	0.937665	-0.143020	-0.144274	-0.069609	52.1262	-0.142019	-12.9053	0.005394	NaN
223	1.000000	0.946928	7.36723e+06	-49789.1	955.818	-29758.2	0.000000	0.000000	6.947131	0.001807	NaN	0.000000	0.001591	0.001687	28.0807	0.034906	0.002129	16.3939	45.9803	-167.049	0.020797	0.945608	-0.135011	-0.136330	0.001807	16.3939	-0.135094	-9.551688	-0.000189	NaN
223	1.000000	0.954914	7.36723e+06	-49789.1	955.818	-29758.2	0.000000	0.000000	6.955118	0.014428	NaN	0.000000	0.001625	0.001707	28.079	0.079083	0.002019	39.163	118.343	-166.51	0.021449	0.953644	-0.127024	-0.128295	0.014428	39.163	-0.127301	-6.750280	-0.002137	NaN
223	1.000000	0.962935	7.36723e+06	-49789.1	955.818	-29758.2	0.000000	0.000000	6.963137	-0.043921	NaN	0.000000	0.001584	0.001655	28.0793	0.078372	0.002081	37.6666	-169.206	-167.7	0.009851	0.961626	-0.119004	-0.120313	-0.043921	37.6666	-0.118129	-4.427678	0.009920	NaN
223	1.000000	0.970924	7.36723e+06	-49789.1	955.82	-29758.2	0.000000	0.000000	6.971125	-0.033383	NaN	0.000000	0.001590	0.001696	28.079	0.084523	0.002004	42.1675	-11.4664	-166.417	0.006396	0.969628	-0.111015	-0.112311	-0.033383	42.1675	-0.110421	-3.067258	0.010884	NaN
223	1.000000	0.978928	7.36723e+06	-49789.1	955.819	-29758.2	0.000000	0.000000	6.979134	0.054720	NaN	0.000000	0.001603	0.001687	28.0792	0.112153	0.001991	56.3293	-84.5739	-163.397	0.043400	0.977682	-0.103011	-0.104257	0.054720	56.3293	-0.103739	-2.207253	-0.024791	NaN
223	1.000000	0.986946	7.36723e+06	-49789.1	955.821	-29758.2	0.000000	0.000000	6.987150	0.012769	NaN	0.000000	0.001646	0.001702	28.0792	0.152816	0.001961	77.92	-50.8583	-165.565	0.006412	0.985576	-0.094993	-0.096363	0.012769	77.92	-0.095116	-1.419217	-0.008997	NaN
223	1.000000	0.994953	7.36723e+06	-49789.1	955.82	-29758.2	0.000000	0.000000	6.995154	-0.049229	NaN	0.000000	0.001675	0.001691	28.0791	0.101866	0.001971	51.69	116.095	-169.143	-0.085064	0.993643	-0.086986	-0.088296	-0.049229	51.69	-0.086272	-0.881731	0.055832	NaN
223	1.000000	1.002945	7.36723e+06	-49789.1	955.821	-29758.2	0.000000	0.000000	7.003149	0.022267	NaN	0.000000	0.001594	0.001658	28.0793	0.103683	0.001878	55.2026	78.7239	-168.171	-0.051914	1.001664	-0.078993	-0.080275	0.022267	55.2026	-0.079296	-0.594347	-0.037464	NaN
223	1.000000	1.010947	7.36723e+06	-49789.1	955.82	-29758.2	0.000000	0.000000	7.011151	0.015239	NaN	0.000000	0.001588	0.001691	28.0791	0.060569	0.001986	30.5028	-70.741	-166.749	0.057352	1.009595	-0.070991	-0.072344	0.015239	30.5028	-0.071366	-0.370946	-0.041082	NaN
223	1.000000	1.018929	7.36723e+06	-49789.1	955.82	-29758.2	0.000000	0.000000	7.019129	-0.078157	NaN	0.000000	0.001612	0.001650	28.0789	0.074320	0.002014	36.9025	25.946	-168.717	-0.029771	1.017582	-0.063010	-0.064356	-0.078157	36.9025	-0.061421	-0.197733	0.395264	NaN
223	1.000000	1.026920	7.36723e+06	-49789.1	955.82	-29758.2	0.000000	0.000000	7.027122	-0.029004	NaN	0.000000	0.001614	0.001661	28.0792	0.060759	0.001920	31.6443	28.6502	-162.56	-0.112274	1.025665	-0.055019	-0.056274	-0.029004	31.6443	-0.054331	-0.123040	0.235726	NaN
223	1.000000	1.034989	7.36723e+06	-49789.1	955.821	-29758.2	0.000000	0.000000	7.035191	-0.044371	NaN	0.000000	0.001588	0.001684	28.0789	0.044564	0.001953	22.8188	-152.431	-168.416	-0.035061	1.033658	-0.046949	-0.048281	-0.044371	22.8188	-0.045491	-0.066529	0.666950	NaN
223	1.000000	1.042972	7.36723e+06	-49789.1	955.82	-29758.2	0.000000	0.000000	7.043173	-0.041754	NaN	0.000000	0.001619	0.001671	28.0792	0.101248	0.002060	49.1587	49.0812	-166.41	-0.072199	1.041686	-0.038967	-0.040253	-0.041754	49.1587	-0.038330	-0.040254	1.037263	NaN
223	1.000000	1.050936	7.36723e+06	-49789.1	955.821	-29758.2	0.000000	0.000000	7.051136	-0.069311	NaN	0.000000	0.001635	0.001700	28.0792	0.090268	0.001954	46.2043	-1.109267	-162.974	0.018083	1.049571	-0.031003	-0.032367	-0.069311	46.2043	-0.029878	-0.022833	3.035508	NaN
223	1.000000	1.058978	7.36723e+06	-49789.1	955.821	-29758.2	0.000000	0.000000	7.059179	-0.069755	NaN	0.000000	0.001658	0.001688	28.0793	0.072822	0.001968	37.0057	-160.35	-167.248	-0.060812	1.057702	-0.022961	-0.024237	-0.069755	37.0057	-0.021547	-0.013751	5.072756	NaN
223	1.000000	1.066965	7.36723e+06	-49789.1	955.82	-29758.2	0.000000	0.000000	7.067168	-0.019624	NaN	0.000000	0.001646	0.001665	28.0792	0.040509	0.002075	19.5216	-125.67	-166.549	0.028795	1.065647	-0.014974	-0.016291	-0.019624	19.5216	-0.014220	-0.008812	2.226935	NaN
223	1.000000	1.074965	7.36723e+06	-49789.1	955.82	-29758.2	0.000000	0.000000	7.075168	-0.000513	NaN	0.000000	0.001650	0.001689	28.0792	0.065775	0.001944	33.8325	115.128	-165.9	-0.034475	1.073610	-0.006974	-0.008329	-0.000513	33.8325	-0.006962	-0.004618	0.111058	NaN
223	1.000000	1.082948	7.36723e+06	-49789.1	955.821	-29758.2	0.000000	0.000000	7.083188	0.898761	NaN	0.000000	0.001652	0.001671	28.0794	1.526421	0.002055	742.645	5.737233	-167.82	0.101211	1.081638	0.001009	-0.000301	0.898761	742.645	0.000101	7.585468E-5	11848.5	77904.7
223	2.000000	1.089579	7.36723e+06	-49789.1	955.82	-29758.2	0.000000	0.000000	7.090108	7.930119	NaN	0.000000	0.001651	0.001662	28.0805	9.335612	0.001711	5455.62	11.3586	-176.222	8.157690	1.089178	0.007640	0.007240	7.930119	5455.62	0.006550	0.005593	1417.85	66648.7
223	2.000000	1.091589	7.36723e+06	-49789.1	955.82	-29758.2	0.000000	0.000000	7.092288	12.059	NaN	0.000000	0.001653	0.001656	28.0805	11.6491	0.001668	6984.89	10.1321	-177.508	12.043	1.091258	0.009650	0.009319	12.059	6984.89	0.008355	0.007410	1627.29	74132.8
223	2.000000	1.093604	7.36723e+06	-49789.1	955.82	-29758.2	0.000000	0.000000	7.094382	13.9614	NaN	0.000000	0.001661	0.001671	28.0805	13.3204	0.001773	7512.26	7.616097	-173.273	14.8555	1.093249	0.011665	0.011310	13.9614	7512.26	0.010272	0.009485	1471.97	70474
223	2.000000	1.095478	7.36723e+06	-49789.1	955.82	-29758.2	0.000000	0.000000	7.096423	18.0417	NaN	0.000000	0.001663	0.001683	28.0806	15.5643	0.001736	8963.86	7.960306	-177.532	16.7336	1.095126	0.013540	0.013187	18.0417	8963.86	0.012030	0.011526	1565.31	76283.3
223	2.000000	1.097500	7.36723e+06	-49789.1	955.82	-29758.2	0.000000	0.000000	7.098544	20.4541	NaN	0.000000	0.001685	0.001659	28.081	17.6666	0.001830	9652.87	5.615969	-174.444	19.4239	1.097148	0.015561	0.015209	20.4541	9652.87	0.013972	0.013939	1467.41	74699.1
223	2.000000	1.099472	7.36723e+06	-49789.1	955.82	-29758.2	0.000000	0.000000	7.100699	24.892	NaN	0.000000	0.001662	0.001672	28.0806	19.2964	0.001760	10963.5	4.585103	-176.311	24.1966	1.099217	0.017534	0.017278	24.892	10963.5	0.015831	0.016409	1516.94	78195
223	2.000000	1.101438	7.36723e+06	-49789.1	955.821	-29758.2	0.000000	0.000000	7.102824	28.7708	NaN	0.000000	0.001597	0.001652	28.0807	22.4985	0.001901	11836.2	8.777065	178.863	27.0267	1.101219	0.019499	0.019281	28.7708	11836.2	0.017676	0.019021	1512.6	78410.1
223	2.000000	1.103514	7.36723e+06	-49789.1	955.821	-29758.2	0.000000	0.000000	7.105104	33.7294	NaN	0.000000	0.001565	0.001673	28.0806	24.1469	0.001870	12911.6	7.505758	179.892	33.2975	1.103153	0.021575	0.021214	33.7294	12911.6	0.019616	0.021943	1537.17	79636.3
223	2.000000	1.105460	7.36723e+06	-49789.1	955.821	-29758.2	0.000000	0.000000	7.107230	38.0964	NaN	0.000000	0.001650	0.001721	28.0807	25.6364	0.001825	14047.2	6.193264	-178.836	37.7318	1.105165	0.023521	0.023227	38.0964	14047.2	0.021487	0.024934	1527.91	81277.3
223	2.000000	1.107450	7.36723e+06	-49789.1	955.819	-29758.2	0.000000	0.000000	7.109480	44.4361	NaN	0.000000	0.001659	0.001702	28.0818	28.5342	0.001924	14831.4	7.236324	179.236	43.9729	1.107183	0.025511	0.025245	44.4361	14831.4	0.023264	0.027933	1590.83	81077.5
223	2.000000	1.109480	7.36723e+06	-49789.1	955.821	-29758.2	0.000000	0.000000	7.111776	50.9026	NaN	0.000000	0.001629	0.001703	28.0809	29.7424	0.001869	15909.6	4.678195	-178.27	51.359	1.109159	0.027541	0.027220	50.9026	15909.6	0.025142	0.031274	1627.63	82194
223	2.000000	1.111479	7.36723e+06	-49789.1	955.821	-29758.2	0.000000	0.000000	7.113947	55.0765	NaN	0.000000	0.001643	0.001660	28.0806	31.2433	0.001800	17354.9	3.428680	-177.982	54.8406	1.111146	0.029540	0.029207	55.0765	17354.9	0.027160	0.035062	1570.82	84678.9
223	2.000000	1.113475	7.36723e+06	-49789.1	955.82	-29758.2	0.000000	0.000000	7.116251	62.567	NaN	0.000000	0.001643	0.001661	28.0807	33.1378	0.001728	19171.7	3.212828	-178.595	62.0415	1.113058	0.031536	0.031119	62.567	19171.7	0.029089	0.038876	1609.4	88837.1
223	2.000000	1.115403	7.36723e+06	-49789.1	955.822	-29758.2	0.000000	0.000000	7.118327	66.1823	NaN	0.000000	0.001634	0.001665	28.0805	34.9146	0.001832	19060.5	3.918931	-179.865	64.3004	1.115192	0.033464	0.033254	66.1823	19060.5	0.030860	0.042544	1555.62	84428.2
223	2.000000	1.117452	7.36723e+06	-49789.1	955.822	-29758.2	0.000000	0.000000	7.120753	75.3531	NaN	0.000000	0.001628	0.001654	28.0807	37.3687	0.001728	21629.5	2.676610	-179.696	76.1353	1.117194	0.035513	0.035256	75.3531	21629.5	0.032900	0.046969	1604.3	91182.8
223	2.000000	1.119409	7.36723e+06	-49789.1	955.821	-29758.2	0.000000	0.000000	7.123074	84.1842	NaN	0.000000	0.001646	0.001672	28.0809	39.5614	0.001811	21850.4	8.132488	174.921	81.256	1.119037	0.037470	0.037098	84.1842	21850.4	0.034581	0.050775	1658	88594.9
223	2.000000	1.121459	7.36723e+06	-49789.1	955.82	-29758.2	0.000000	0.000000	7.125479	92.8136	NaN	0.000000	0.001653	0.001672	28.0805	41.9089	0.001842	22746.7	7.811117	174.954	92.531	1.121081	0.039521	0.039142	92.8136	22746.7	0.036460	0.055201	1681.38	88454.3
223	2.000000	1.123379	7.36723e+06	-49789.1	955.822	-29758.2	0.000000	0.000000	7.127553	96.5581	NaN	0.000000	0.001667	0.001660	28.0793	43.4412	0.001807	24042.1	5.583778	175.901	93.1886	1.123142	0.041441	0.041204	96.5581	24042.1	0.038428	0.060030	1608.5	89652.4
223	2.000000	1.125432	7.36723e+06	-49789.1	955.821	-29758.2	0.000000	0.000000	7.130199	110.971	NaN	0.000000	0.001657	0.001681	28.0791	44.4569	0.001852	24001.5	3.814826	178.22	110.861	1.125067	0.043494	0.043128	110.971	24001.5	0.040026	0.064096	1731.33	86616
223	2.000000	1.127438	7.36723e+06	-49789.1	955.821	-29758.2	0.000000	0.000000	7.132296	113.204	NaN	0.000000	0.001622	0.001661	28.0795	46.1593	0.001683	27427.9	2.415799	177.818	112.756	1.127163	0.045499	0.045224	113.204	27427.9	0.042404	0.070388	1608.29	94453.1
223	2.000000	1.129366	7.36723e+06	-49789.1	955.821	-29758.2	0.000000	0.000000	7.134861	128.697	NaN	0.000000	0.001648	0.001675	28.0795	47.1388	0.001764	26729.4	1.343374	179.731	125.738	1.129100	0.047427	0.047162	128.697	26729.4	0.043816	0.074261	1733.05	89615.7
223	2.000000	1.131383	7.36723e+06	-49789.1	955.821	-29758.2	0.000000	0.000000	7.137110	134.351	NaN	0.000000	0.001652	0.001665	28.0792	51.0795	0.001791	28515.8	4.810081	175.675	130.886	1.131122	0.049444	0.049183	134.351	28515.8	0.045910	0.080193	1675.36	92000.8
223	2.000000	1.133442	7.36723e+06	-49789.1	955.821	-29758.2	0.000000	0.000000	7.139472	141.725	NaN	0.000000	0.001661	0.001635	28.0794	53.0916	0.001836	28921.9	6.067349	175.212	140.35	1.133032	0.051503	0.051093	141.725	28921.9	0.047827	0.085816	1651.49	90201.6
223	2.000000	1.135390	7.36723e+06	-49789.1	955.821	-29758.2	0.000000	0.000000	7.141790	150.692	NaN	0.000000	0.001641	0.001684	28.0792	55.4971	0.001877	29573.5	6.557674	172.949	148.095	1.135138	0.053451	0.053199	150.692	29573.5	0.049630	0.091272	1651.01	89434.9
223	2.000000	1.137449	7.36723e+06	-49789.1	955.821	-29758.2	0.000000	0.000000	7.144285	161.316	NaN	0.000000	0.001658	0.001667	28.0795	55.9237	0.001660	33682.1	0.168636	178.557	161.699	1.137127	0.055510	0.055189	161.316	33682.1	0.051918	0.098434	1638.83	98084.5
223	2.000000	1.139360	7.36723e+06	-49789.1	955.821	-29758.2	0.000000	0.000000	7.146518	169.149	NaN	0.000000	0.001640	0.001685	28.0794	57.2845	0.001767	32423.8	3.031520	175.886	166.138	1.139126	0.057421	0.057187	169.149	32423.8	0.053508	0.103564	1633.28	92051.8
223	2.000000	1.141405	7.36723e+06	-49789.1	955.821	-29758.2	0.000000	0.000000	7.149017	180.178	NaN	0.000000	0.001636	0.001659	28.0792	60.6022	0.001921	31551.7	5.573235	174.5	178.996	1.140983	0.059466	0.059044	180.178	31551.7	0.055183	0.109104	1651.44	87272.3
223	2.000000	1.143441	7.36723e+06	-49789.1	955.822	-29758.2	0.000000	0.000000	7.151614	193.83	NaN	0.000000	0.001605	0.001645	28.0792	61.508	0.001732	35514.6	3.753281	175.094	191.539	1.143103	0.061502	0.061164	193.83	35514.6	0.057409	0.116681	1661.19	94990.3
223	2.000000	1.145391	7.36723e+06	-49789.1	955.821	-29758.2	0.000000	0.000000	7.153982	203.97	NaN	0.000000	0.001639	0.001682	28.0794	62.2857	0.001671	37267.3	4.849811	173.564	202.971	1.145128	0.063452	0.063189	203.97	37267.3	0.059348	0.123479	1651.86	96895.5
223	2.000000	1.147431	7.36723e+06	-49789.1	955.822	-29758.2	0.000000	0.000000	7.156547	216.736	NaN	0.000000	0.001631	0.001698	28.0795	66.2525	0.001798	36839.3	6.742931	171.884	218.223	1.147114	0.065492	0.065175	216.736	36839.3	0.061080	0.129710	1670.93	93454.1
223	2.000000	1.149404	7.36723e+06	-49789.1	955.82	-29758.2	0.000000	0.000000	7.158869	225.231	NaN	0.000000	0.001615	0.001674	28.0794	66.5216	0.001691	39330.7	4.021793	173.08	223.84	1.149190	0.067466	0.067251	225.231	39330.7	0.063171	0.137423	1638.96	96933.8
223	2.000000	1.151414	7.36723e+06	-49789.1	955.822	-29758.2	0.000000	0.000000	7.161509	240.568	NaN	0.000000	0.001626	0.001688	28.0792	69.5953	0.001809	38478.4	7.496989	170.916	240.804	1.151061	0.069475	0.069122	240.568	38478.4	0.064786	0.143529	1676.09	92794.2
223	2.000000	1.153472	7.36723e+06	-49789.1	955.821	-29758.2	0.000000	0.000000	7.164010	251.341	NaN	0.000000	0.001650	0.001701	28.0793	71.6664	0.001774	40407.7	6.855473	171.194	255.641	1.153168	0.071533	0.071229	251.341	40407.7	0.066868	0.151582	1658.12	94822.9
223	2.000000	1.155361	7.36723e+06	-49789.1	955.821	-29758.2	0.000000	0.000000	7.166711	271.065	NaN	0.000000	0.001592	0.001687	28.0794	72.2406	0.001761	41030.3	6.113360	172.113	268.571	1.155002	0.073423	0.073063	271.065	41030.3	0.068468	0.157911	1716.57	94334.7
223	2.000000	1.157397	7.36723e+06	-49789.1	955.821	-29758.2	0.000000	0.000000	7.169166	281.283	NaN	0.000000	0.001640	0.001656	28.0807	76.3871	0.001859	41083	6.744790	171.557	279.871	1.157025	0.075458	0.075087	281.283	41083	0.070323	0.165404	1700.58	92291.6
223	2.000000	1.159363	7.36723e+06	-49789.1	955.821	-29758.2	0.000000	0.000000	7.171763	296.625	NaN	0.000000	0.001641	0.001650	28.0805	76.6783	0.001917	39989.5	6.492338	172.169	297.272	1.159071	0.077424	0.077133	296.625	39989.5	0.071861	0.171739	1727.18	88162.5
223	2.000000	1.161276	7.36723e+06	-49789.1	955.822	-29758.2	0.000000	0.000000	7.174094	306.765	NaN	0.000000	0.001584	0.001655	28.0806	78.0251	0.001755	44463.2	1.692483	175.073	299.934	1.161008	0.079338	0.079069	306.765	44463.2	0.074163	0.181435	1690.78	95370.4
223	2.000000	1.163290	7.36723e+06	-49789.1	955.822	-29758.2	0.000000	0.000000	7.176233	309.825	NaN	0.000000	0.001562	0.001630	28.0807	82.0251	0.001861	44084.4	8.050439	168.652	303.724	1.163116	0.081352	0.081177	309.825	44084.4	0.076081	0.189699	1633.25	92475.3
223	2.000000	1.165432	7.36723e+06	-49789.1	955.821	-29758.2	0.000000	0.000000	7.179327	332.966	NaN	0.000000	0.001554	0.001635	28.0803	81.9067	0.001688	48529.4	4.275156	172.372	335.419	1.165007	0.083493	0.083069	332.966	48529.4	0.078347	0.199691	1667.4	99219.9
223	2.000000	1.167530	7.36723e+06	-49789.1	955.822	-29758.2	0.000000	0.000000	7.181847	343.243	NaN	0.000000	0.001560	0.001669	28.0804	84.9154	0.001715	49500.8	2.799005	173.653	350.82	1.167138	0.085591	0.085199	343.243	49500.8	0.080391	0.208905	1643.05	98948.8
223	2.000000	1.169340	7.36723e+06	-49789.1	955.823	-29758.2	0.000000	0.000000	7.184467	362.938	NaN	0.000000	0.001560	0.001706	28.0804	86.077	0.001779	48388.4	5.528129	170.393	360.3	1.169080	0.087401	0.087142	362.938	48388.4	0.081776	0.215261	1686.03	95286.4
223	2.000000	1.171248	7.36723e+06	-49789.1	955.822	-29758.2	0.000000	0.000000	7.186692	370.632	NaN	0.000000	0.001563	0.001681	28.0809	89.5852	0.001781	50312.1	6.927317	168.905	363.293	1.171015	0.089309	0.089076	370.632	50312.1	0.083784	0.224637	1649.92	96985.1
223	2.000000	1.173424	7.36723e+06	-49789.1	955.822	-29758.2	0.000000	0.000000	7.189584	388.064	NaN	0.000000	0.001593	0.001688	28.0809	91.4102	0.001741	52515.4	5.104929	170.914	389.149	1.173064	0.091485	0.091125	388.064	52515.4	0.085943	0.234922	1651.88	98991.5
223	2.000000	1.175475	7.36723e+06	-49789.1	955.822	-29758.2	0.000000	0.000000	7.192029	397.638	NaN	0.000000	0.001575	0.001677	28.0805	93.6233	0.001801	51976.6	6.578491	169.375	403.11	1.175024	0.093536	0.093085	397.638	51976.6	0.087798	0.243931	1630.13	96149.7
223	2.000000	1.177336	7.36723e+06	-49789.1	955.822	-29758.2	0.000000	0.000000	7.194698	417.308	NaN	0.000000	0.001537	0.001646	28.0806	96.2839	0.001781	54050.4	7.281873	168.017	413.945	1.177122	0.095397	0.095183	417.308	54050.4	0.089606	0.252864	1650.32	98203.7
223	2.000000	1.179334	7.36723e+06	-49789.1	955.821	-29758.2	0.000000	0.000000	7.197262	431.05	NaN	0.000000	0.001604	0.001679	28.0803	96.2029	0.001853	51907.4	1.996728	173.77	428.39	1.179060	0.097396	0.097121	431.05	51907.4	0.091167	0.260699	1653.44	92882.3
223	2.000000	1.181381	7.36723e+06	-49789.1	955.822	-29758.2	0.000000	0.000000	7.199626	438.77	NaN	0.000000	0.001583	0.001739	28.0808	97.9691	0.001825	53684.6	1.444428	173.843	436.931	1.181141	0.099442	0.099202	438.77	53684.6	0.093312	0.271642	1615.25	94107.4
223	2.000000	1.183377	7.36723e+06	-49789.1	955.822	-29758.2	0.000000	0.000000	7.202600	462.557	NaN	0.000000	0.001533	0.001652	28.0805	99.877	0.001862	53653	3.126915	172.701	459.946	1.182993	0.101438	0.101054	462.557	53653	0.094972	0.280256	1650.48	92595.4
223	2.000000	1.185418	7.36723e+06	-49789.1	955.821	-29758.2	0.000000	0.000000	7.205243	477.183	NaN	0.000000	0.001540	0.001666	28.0804	101.11	0.001799	56209.1	4.704893	170.46	478.697	1.185041	0.103480	0.103102	477.183	56209.1	0.097113	0.291552	1636.7	95108.9
223	2.000000	1.187342	7.36723e+06	-49789.1	955.821	-29758.2	0.000000	0.000000	7.207939	495.953	NaN	0.000000	0.001586	0.001664	28.0806	104.309	0.001913	54518.2	6.069431	169.782	493.739	1.187119	0.105403	0.105180	495.953	54518.2	0.098581	0.299419	1656.39	91028