File: remote_trans/data/nanoindenter/0828-1/data/Data_2025-08-06,11h17m57s/2025-07-22_16-23-58_1_623.txt
2025-07-22, 16:23:58, 1
Index	Phase	Displacement	Time	Pos X	Pos Y	Pos Z	Rot A	Rot B	Piezo Z	Force A	Force B	Gripper	Voltage A	Voltage B	Temperature	Amplitude force	Amplitude pos	Stiffness	Phase shift	Phase excitation	Force A raw	Displacement raw	HMax	HMax raw	Real Force	Real Stiffness	Contact Depth	Area	Hardness	Reduced Mod.
[#]	[#]	[um]	[s]	[um]	[um]	[um]	[m°]	[m°]	[um]	[uN]	[uN]	[V]	[V]	[V]	[°C]	[uN]	[um]	[N/m]	[°]	[°]	[uN]	[um]	[um]	[um]	[uN]	[N/m]	[um]	[um^2]	[MPa]	[MPa]
623	1.000000	0.002295	7.37115e+06	-45939.1	1005.82	-29770.8	0.000000	0.000000	6.002812	0.042019	NaN	0.000000	0.001601	0.001739	28.0812	0.094311	0.000917	102.816	156.974	-166.546	0.046581	0.001036	-1.074615	-1.075875	0.042019	102.816	-1.074922	-2.308387E+14	-1.820270E-16	NaN
623	1.000000	0.010229	7.37115e+06	-45939.1	1005.82	-29770.8	0.000000	0.000000	6.010745	0.014006	NaN	0.000000	0.001581	0.001742	28.0812	0.128381	0.000886	144.885	55.0311	-157.387	0.013187	0.008887	-1.066682	-1.068024	0.014006	144.885	-1.066755	-1.793018E+14	-7.811294E-17	NaN
623	1.000000	0.018219	7.37115e+06	-45939.1	1005.82	-29770.8	0.000000	0.000000	6.018737	0.064315	NaN	0.000000	0.001642	0.001778	28.081	0.022392	0.001750	12.7968	48.7549	-170.394	0.001540	0.016954	-1.058691	-1.059957	0.064315	12.7968	-1.062461	-1.569958E+14	-4.096589E-16	NaN
623	1.000000	0.026261	7.37115e+06	-45939.1	1005.82	-29770.8	0.000000	0.000000	6.026776	-0.002512	NaN	0.000000	0.001591	0.001748	28.0811	0.056276	0.001756	32.0418	5.328118	-163.855	-0.042779	0.024872	-1.050650	-1.052039	-0.002512	32.0418	-1.050591	-1.087328E+14	2.310680E-17	NaN
623	1.000000	0.034254	7.37115e+06	-45939.1	1005.82	-29770.8	0.000000	0.000000	6.034767	-0.060549	NaN	0.000000	0.001600	0.001731	28.0797	0.056717	0.001964	28.8842	110.097	-164.326	-0.024810	0.032897	-1.042656	-1.044014	-0.060549	28.8842	-1.041084	-8.101112E+13	7.474113E-16	NaN
623	1.000000	0.042267	7.37115e+06	-45939.1	1005.82	-29770.8	0.000000	0.000000	6.042780	-0.055369	NaN	0.000000	0.001610	0.001729	28.0798	0.049350	0.002140	23.0628	-14.5644	-167.443	-0.004488	0.040926	-1.034643	-1.035985	-0.055369	23.0628	-1.032843	-6.276493E+13	8.821643E-16	NaN
623	1.000000	0.050231	7.37115e+06	-45939.1	1005.82	-29770.8	0.000000	0.000000	6.050746	-0.001286	NaN	0.000000	0.001595	0.001752	28.0796	0.078823	0.002019	39.0422	-30.2458	-166.829	0.024542	0.048963	-1.026680	-1.027948	-0.001286	39.0422	-1.026655	-5.181848E+13	2.482588E-17	NaN
623	1.000000	0.058240	7.37115e+06	-45939.1	1005.82	-29770.8	0.000000	0.000000	6.058754	-0.019941	NaN	0.000000	0.001578	0.001759	28.0796	0.063320	0.002031	31.1822	-79.7084	-164.072	-0.018942	0.056902	-1.018671	-1.020009	-0.019941	31.1822	-1.018191	-3.986736E+13	5.001794E-16	NaN
623	1.000000	0.066262	7.37115e+06	-45939.1	1005.82	-29770.8	0.000000	0.000000	6.066779	0.048070	NaN	0.000000	0.001593	0.001791	28.0797	0.049410	0.001994	24.7822	-100.495	-164.003	0.082752	0.064936	-1.010649	-1.011974	0.048070	24.7822	-1.012104	-3.301389E+13	-1.456042E-15	NaN
623	1.000000	0.074243	7.37115e+06	-45939.1	1005.82	-29770.8	0.000000	0.000000	6.074759	0.017816	NaN	0.000000	0.001594	0.001737	28.0796	0.060620	0.002030	29.8622	174.46	-163.404	0.086627	0.072904	-1.002668	-1.004007	0.017816	29.8622	-1.003115	-2.498677E+13	-7.130054E-16	NaN
623	1.000000	0.082233	7.37115e+06	-45939.1	1005.82	-29770.8	0.000000	0.000000	6.082749	0.001309	NaN	0.000000	0.001563	0.001743	28.0798	0.058678	0.002040	28.7702	-101.284	-161.081	0.030207	0.080916	-0.994677	-0.995995	0.001309	28.7702	-0.994711	-1.925569E+13	-6.797726E-17	NaN
623	1.000000	0.090268	7.37115e+06	-45939.1	1005.82	-29770.8	0.000000	0.000000	6.090785	0.030777	NaN	0.000000	0.001571	0.001743	28.0796	0.008245	0.002031	4.059306	68.3602	-165.291	0.043832	0.088892	-0.986642	-0.988018	0.030777	4.059306	-0.992329	-1.788442E+13	-1.720865E-15	NaN
623	1.000000	0.098267	7.37115e+06	-45939.1	1005.82	-29770.8	0.000000	0.000000	6.098782	-0.009468	NaN	0.000000	0.001585	0.001786	28.0798	0.014159	0.002072	6.832924	4.443011	-165.554	-0.018292	0.097005	-0.978644	-0.979906	-0.009468	6.832924	-0.977605	-1.132761E+13	8.358130E-16	NaN
623	1.000000	0.106220	7.37115e+06	-45939.1	1005.82	-29770.8	0.000000	0.000000	6.106735	-0.006932	NaN	0.000000	0.001610	0.001775	28.0799	0.049921	0.001984	25.1619	155.433	-165.819	-0.021751	0.104918	-0.970691	-0.971993	-0.006932	25.1619	-0.970484	-9.082087E+12	7.632459E-16	NaN
623	1.000000	0.114270	7.37115e+06	-45939.1	1005.82	-29770.8	0.000000	0.000000	6.114786	0.000550	NaN	0.000000	0.001588	0.001719	28.0801	0.075287	0.001852	40.6433	160.329	-161.959	0.022263	0.113004	-0.962640	-0.963907	0.000550	40.6433	-0.962651	-7.122001E+12	-7.723806E-17	NaN
623	1.000000	0.122258	7.37115e+06	-45939.1	1005.82	-29770.8	0.000000	0.000000	6.122777	0.081323	NaN	0.000000	0.001585	0.001770	28.0809	0.073519	0.002027	36.2681	-164.999	-165.769	0.037224	0.120953	-0.954652	-0.955958	0.081323	36.2681	-0.956334	-5.853852E+12	-1.389226E-14	NaN
623	1.000000	0.130280	7.37115e+06	-45939.1	1005.82	-29770.8	0.000000	0.000000	6.130797	0.051932	NaN	0.000000	0.001617	0.001752	28.0807	0.072958	0.002095	34.8274	78.9345	-165.67	-0.015316	0.128940	-0.946631	-0.947971	0.051932	34.8274	-0.947749	-4.484084E+12	-1.158134E-14	NaN
623	1.000000	0.138253	7.37115e+06	-45939.1	1005.82	-29770.8	0.000000	0.000000	6.138768	-0.011284	NaN	0.000000	0.001569	0.001745	28.0798	0.035451	0.002069	17.1369	-155.406	-163.091	-0.078760	0.136995	-0.938657	-0.939916	-0.011284	17.1369	-0.938163	-3.329327E+12	3.389378E-15	NaN
623	1.000000	0.146277	7.37115e+06	-45939.1	1005.82	-29770.8	0.000000	0.000000	6.146795	0.062690	NaN	0.000000	0.001572	0.001723	28.0798	0.038670	0.002134	18.1201	113.768	-164.398	0.116050	0.144940	-0.930633	-0.931970	0.062690	18.1201	-0.933228	-2.856029E+12	-2.194995E-14	NaN
623	1.000000	0.154301	7.37115e+06	-45939.1	1005.82	-29770.8	0.000000	0.000000	6.154818	0.045324	NaN	0.000000	0.001609	0.001732	28.0795	0.108975	0.001986	54.885	121.234	-165.526	0.040501	0.153007	-0.922609	-0.923904	0.045324	54.885	-0.923229	-2.093139E+12	-2.165350E-14	NaN
623	1.000000	0.162265	7.37115e+06	-45939.1	1005.82	-29770.8	0.000000	0.000000	6.162780	-0.011756	NaN	0.000000	0.001640	0.001739	28.0796	0.076843	0.001916	40.0967	-23.0956	-163.953	0.076952	0.160990	-0.914645	-0.915920	-0.011756	40.0967	-0.914425	-1.591960E+12	7.384498E-15	NaN
623	1.000000	0.170263	7.37115e+06	-45939.1	1005.82	-29770.8	0.000000	0.000000	6.170779	0.012285	NaN	0.000000	0.001597	0.001728	28.081	0.080090	0.001964	40.7695	-13.0354	-166.185	-0.042096	0.168929	-0.906648	-0.907982	0.012285	40.7695	-0.906874	-1.258729E+12	-9.760189E-15	NaN
623	1.000000	0.178294	7.37115e+06	-45939.1	1005.82	-29770.8	0.000000	0.000000	6.178809	-0.005176	NaN	0.000000	0.001615	0.001733	28.0812	0.089595	0.001994	44.9323	29.3617	-162.921	0.054562	0.176974	-0.898617	-0.899936	-0.005176	44.9323	-0.898530	-9.709681E+11	5.331015E-15	NaN
623	1.000000	0.186289	7.37115e+06	-45939.1	1005.82	-29770.8	0.000000	0.000000	6.186806	0.032352	NaN	0.000000	0.001629	0.001748	28.0809	0.037059	0.001983	18.6905	27.0168	-164.634	0.055608	0.184972	-0.890622	-0.891939	0.032352	18.6905	-0.891920	-7.904371E+11	-4.092951E-14	NaN
623	1.000000	0.194297	7.37115e+06	-45939.1	1005.82	-29770.8	0.000000	0.000000	6.194815	0.054789	NaN	0.000000	0.001606	0.001759	28.0812	0.067955	0.002107	32.257	106.833	-163.919	-0.024148	0.193027	-0.882614	-0.883883	0.054789	32.257	-0.883888	-6.155715E+11	-8.900559E-14	NaN
623	1.000000	0.202295	7.37115e+06	-45939.1	1005.82	-29770.8	0.000000	0.000000	6.202812	0.039127	NaN	0.000000	0.001612	0.001766	28.0809	0.070735	0.001969	35.9279	120.594	-161.14	0.023545	0.200983	-0.874615	-0.875928	0.039127	35.9279	-0.875432	-4.730736E+11	-8.270839E-14	NaN
623	1.000000	0.210300	7.37115e+06	-45939.1	1005.82	-29770.8	0.000000	0.000000	6.210816	0.029836	NaN	0.000000	0.001624	0.001745	28.0809	0.023624	0.001896	12.4599	-41.5252	-162.428	-0.049093	0.208968	-0.866611	-0.867943	0.029836	12.4599	-0.868407	-3.800919E+11	-7.849695E-14	NaN
623	1.000000	0.218295	7.37115e+06	-45939.1	1005.82	-29770.8	0.000000	0.000000	6.218809	-0.033632	NaN	0.000000	0.001626	0.001742	28.0814	0.117095	0.002086	56.1217	-103.603	-167.132	0.021664	0.216948	-0.858616	-0.859963	-0.033632	56.1217	-0.858166	-2.762495E+11	1.217438E-13	NaN
623	1.000000	0.226296	7.37115e+06	-45939.1	1005.82	-29770.8	0.000000	0.000000	6.226810	-0.019854	NaN	0.000000	0.001628	0.001717	28.0809	0.047173	0.002081	22.6645	111.523	-163.314	0.075771	0.224998	-0.850615	-0.851912	-0.019854	22.6645	-0.849958	-2.138789E+11	9.282997E-14	NaN
623	1.000000	0.234287	7.37115e+06	-45939.1	1005.82	-29770.8	0.000000	0.000000	6.234803	0.030876	NaN	0.000000	0.001601	0.001704	28.081	0.143662	0.002008	71.553	-90.1518	-163.178	0.018893	0.232977	-0.842624	-0.843934	0.030876	71.553	-0.842948	-1.718794E+11	-1.796365E-13	NaN
623	1.000000	0.242328	7.37115e+06	-45939.1	1005.82	-29770.8	0.000000	0.000000	6.242844	-0.002405	NaN	0.000000	0.001604	0.001686	28.0809	0.061614	0.002036	30.2667	-143.953	-162.183	0.102064	0.240963	-0.834582	-0.835948	-0.002405	30.2667	-0.834523	-1.321534E+11	1.819794E-14	NaN
623	1.000000	0.250287	7.37115e+06	-45939.1	1005.82	-29770.8	0.000000	0.000000	6.250804	0.016616	NaN	0.000000	0.001599	0.001718	28.081	0.043899	0.001917	22.9015	-177.153	-165.735	0.043412	0.249031	-0.826623	-0.827879	0.016616	22.9015	-0.827167	-1.050478E+11	-1.581746E-13	NaN
623	1.000000	0.258328	7.37115e+06	-45939.1	1005.82	-29770.8	0.000000	0.000000	6.258844	0.009918	NaN	0.000000	0.001638	0.001705	28.081	0.046453	0.001983	23.4259	16.5526	-165.449	-0.022448	0.257027	-0.818582	-0.819884	0.009918	23.4259	-0.818900	-8.115064E+10	-1.222215E-13	NaN
623	1.000000	0.266339	7.37115e+06	-45939.1	1005.82	-29770.8	0.000000	0.000000	6.266855	0.012659	NaN	0.000000	0.001576	0.001706	28.081	0.099441	0.002031	48.9509	31.5158	-166.292	-0.046685	0.264994	-0.810572	-0.811917	0.012659	48.9509	-0.810766	-6.294439E+10	-2.011099E-13	NaN
623	1.000000	0.274328	7.37115e+06	-45939.1	1005.82	-29770.8	0.000000	0.000000	6.274843	-0.020555	NaN	0.000000	0.001605	0.001710	28.0814	0.046451	0.001925	24.1305	-7.818112	-164.745	-0.014713	0.272986	-0.802583	-0.803924	-0.020555	24.1305	-0.801944	-4.777988E+10	4.302107E-13	NaN
623	1.000000	0.282335	7.37115e+06	-45939.1	1005.82	-29770.8	0.000000	0.000000	6.282852	0.036043	NaN	0.000000	0.001590	0.001742	28.0811	0.019661	0.002103	9.348041	113.204	-166.294	0.072963	0.281022	-0.794575	-0.795888	0.036043	9.348041	-0.797467	-4.154101E+10	-8.676466E-13	NaN
623	1.000000	0.290331	7.37115e+06	-45939.1	1005.82	-29770.8	0.000000	0.000000	6.290849	0.073190	NaN	0.000000	0.001637	0.001699	28.081	0.039929	0.002016	19.8049	79.1617	-165.712	0.086173	0.289019	-0.786580	-0.787891	0.073190	19.8049	-0.789351	-3.223096E+10	-2.270794E-12	NaN
623	1.000000	0.298353	7.37115e+06	-45939.1	1005.82	-29770.8	0.000000	0.000000	6.298867	-0.018308	NaN	0.000000	0.001614	0.001714	28.0809	0.051650	0.001981	26.0743	-179.56	-165.551	0.052076	0.296986	-0.778558	-0.779925	-0.018308	26.0743	-0.778031	-2.261922E+10	8.094072E-13	NaN
623	1.000000	0.306342	7.37115e+06	-45939.1	1005.82	-29770.8	0.000000	0.000000	6.306855	-0.056609	NaN	0.000000	0.001609	0.001690	28.0797	0.084951	0.001937	43.858	6.219106	-160.731	-0.094577	0.305049	-0.770568	-0.771862	-0.056609	43.858	-0.769600	-1.737285E+10	3.258456E-12	NaN
623	1.000000	0.314337	7.37115e+06	-45939.1	1005.82	-29770.8	0.000000	0.000000	6.314852	-0.024627	NaN	0.000000	0.001570	0.001705	28.0799	0.040764	0.001866	21.8405	-66.65	-162.54	0.043576	0.313017	-0.762573	-0.763894	-0.024627	21.8405	-0.761728	-1.357703E+10	1.813844E-12	NaN
623	1.000000	0.322348	7.37115e+06	-45939.1	1005.82	-29770.8	0.000000	0.000000	6.322865	0.036925	NaN	0.000000	0.001610	0.001724	28.0798	0.030868	0.001977	15.6101	-145.754	-164.669	0.024967	0.321043	-0.754563	-0.755868	0.036925	15.6101	-0.756337	-1.146738E+10	-3.220027E-12	NaN
623	1.000000	0.330369	7.37115e+06	-45939.1	1005.82	-29770.8	0.000000	0.000000	6.330884	-0.013270	NaN	0.000000	0.001563	0.001698	28.0802	0.058382	0.002000	29.1893	-12.7089	-163.032	-0.060657	0.329022	-0.746541	-0.747889	-0.013270	29.1893	-0.746200	-8.346255E+9	1.589896E-12	NaN
623	1.000000	0.338354	7.37115e+06	-45939.1	1005.82	-29770.8	0.000000	0.000000	6.338870	0.016596	NaN	0.000000	0.001574	0.001721	28.0798	0.101658	0.002028	50.1255	169.962	-165.39	0.007208	0.337058	-0.738556	-0.739853	0.016596	50.1255	-0.738805	-6.618710E+9	-2.507399E-12	NaN
623	1.000000	0.346351	7.37115e+06	-45939.1	1005.82	-29770.8	0.000000	0.000000	6.346868	0.040009	NaN	0.000000	0.001606	0.001717	28.0797	0.087461	0.001937	45.1605	152.008	-166.06	0.005525	0.345031	-0.730559	-0.731880	0.040009	45.1605	-0.731224	-5.217763E+9	-7.667883E-12	NaN
623	1.000000	0.354344	7.37115e+06	-45939.1	1005.82	-29770.8	0.000000	0.000000	6.354857	-0.052844	NaN	0.000000	0.001612	0.001713	28.0796	0.091046	0.001993	45.674	-164.235	-168.786	-0.057744	0.353079	-0.722567	-0.723832	-0.052844	45.674	-0.721699	-3.869417E+9	1.365682E-11	NaN
623	1.000000	0.362378	7.37115e+06	-45939.1	1005.82	-29770.8	0.000000	0.000000	6.362893	-0.012617	NaN	0.000000	0.001586	0.001740	28.0796	0.061917	0.002045	30.2698	70.9141	-162.979	0.022227	0.361069	-0.714533	-0.715841	-0.012617	30.2698	-0.714220	-3.059368E+9	4.123927E-12	NaN
623	1.000000	0.370360	7.37115e+06	-45939.1	1005.82	-29770.8	0.000000	0.000000	6.370876	-0.000246	NaN	0.000000	0.001621	0.001702	28.0801	0.045755	0.002040	22.4261	-13.8778	-167	-0.020097	0.369029	-0.706550	-0.707881	-0.000246	22.4261	-0.706542	-2.403553E+9	1.025290E-13	NaN
623	1.000000	0.378358	7.37115e+06	-45939.1	1005.82	-29770.8	0.000000	0.000000	6.378876	0.066939	NaN	0.000000	0.001596	0.001713	28.0796	0.082725	0.001932	42.8153	-151.5	-167.352	0.005498	0.377049	-0.698553	-0.699862	0.066939	42.8153	-0.699725	-1.939904E+9	-3.450610E-11	NaN
623	1.000000	0.386400	7.37115e+06	-45939.1	1005.82	-29770.8	0.000000	0.000000	6.386915	-0.012043	NaN	0.000000	0.001570	0.001684	28.0799	0.069612	0.002077	33.518	-88.6712	-163.245	-0.055110	0.385005	-0.690511	-0.691905	-0.012043	33.518	-0.690241	-1.439502E+9	8.366317E-12	NaN
623	1.000000	0.394357	7.37115e+06	-45939.1	1005.82	-29770.8	0.000000	0.000000	6.394871	-0.023485	NaN	0.000000	0.001623	0.001702	28.0796	0.044731	0.001989	22.4841	-14.7337	-170.517	0.007772	0.393016	-0.682554	-0.683894	-0.023485	22.4841	-0.681771	-1.102603E+9	2.129954E-11	NaN
623	1.000000	0.402381	7.37115e+06	-45939.1	1005.82	-29770.8	0.000000	0.000000	6.402897	0.000577	NaN	0.000000	0.001574	0.001741	28.0798	0.089031	0.001984	44.8788	-173.382	-162.389	0.044219	0.401081	-0.674529	-0.675829	0.000577	44.8788	-0.674539	-8.780165E+8	-6.568150E-13	NaN
623	1.000000	0.410381	7.37115e+06	-45939.1	1005.82	-29770.8	0.000000	0.000000	6.410900	0.072138	NaN	0.000000	0.001589	0.001702	28.0799	0.047857	0.002039	23.4702	-69.0407	-166.762	0.088732	0.409059	-0.666529	-0.667851	0.072138	23.4702	-0.668834	-7.335616E+8	-9.833908E-11	NaN
623	1.000000	0.418385	7.37115e+06	-45939.1	1005.82	-29770.8	0.000000	0.000000	6.418901	-0.001987	NaN	0.000000	0.001561	0.001724	28.0799	0.103066	0.002105	48.9601	-176.578	-165.59	0.037015	0.417112	-0.658525	-0.659799	-0.001987	48.9601	-0.658495	-5.294784E+8	3.751833E-12	NaN
623	1.000000	0.426400	7.37115e+06	-45939.1	1005.82	-29770.8	0.000000	0.000000	6.426914	-0.052920	NaN	0.000000	0.001618	0.001735	28.0802	0.100560	0.002056	48.9048	-39.1715	-165.698	-0.010360	0.425056	-0.650510	-0.651854	-0.052920	48.9048	-0.649699	-4.011479E+8	1.319209E-10	NaN
623	1.000000	0.434410	7.37115e+06	-45939.1	1005.82	-29770.8	0.000000	0.000000	6.434925	0.005188	NaN	0.000000	0.001632	0.001713	28.0798	0.014625	0.001966	7.439515	157.646	-167.071	-0.028517	0.433111	-0.642501	-0.643800	0.005188	7.439515	-0.643024	-3.249183E+8	-1.596601E-11	NaN
623	1.000000	0.442387	7.37115e+06	-45939.1	1005.82	-29770.8	0.000000	0.000000	6.442903	0.014534	NaN	0.000000	0.001580	0.001703	28.081	0.064324	0.001946	33.0614	14.811	-163.929	0.092968	0.441085	-0.634523	-0.635825	0.014534	33.0614	-0.634853	-2.509874E+8	-5.790857E-11	NaN
623	1.000000	0.450414	7.37115e+06	-45939.1	1005.82	-29770.8	0.000000	0.000000	6.450928	-0.036445	NaN	0.000000	0.001552	0.001728	28.081	0.095928	0.002023	47.4208	89.875	-164.172	-0.010306	0.449095	-0.626497	-0.627816	-0.036445	47.4208	-0.625920	-1.892300E+8	1.925957E-10	NaN
623	1.000000	0.458389	7.37115e+06	-45939.1	1005.82	-29770.8	0.000000	0.000000	6.458904	-0.010444	NaN	0.000000	0.001555	0.001712	28.0809	0.049163	0.002124	23.1432	-15.1912	-166.855	-0.016651	0.457133	-0.618522	-0.619778	-0.010444	23.1432	-0.618184	-1.481369E+8	7.049920E-11	NaN
623	1.000000	0.466397	7.37115e+06	-45939.1	1005.82	-29770.8	0.000000	0.000000	6.466912	-0.005243	NaN	0.000000	0.001542	0.001745	28.0812	0.036269	0.001994	18.1855	78.1094	-166.127	0.036770	0.465088	-0.610514	-0.611822	-0.005243	18.1855	-0.610298	-1.154012E+8	4.543066E-11	NaN
623	1.000000	0.474378	7.37115e+06	-45939.1	1005.82	-29770.8	0.000000	0.000000	6.474893	0.000452	NaN	0.000000	0.001586	0.001745	28.0811	0.037991	0.001993	19.0644	92.4654	-166.903	-0.043039	0.473115	-0.602533	-0.603796	0.000452	19.0644	-0.602551	-9.027852E+7	-5.001770E-12	NaN
623	1.000000	0.482416	7.37115e+06	-45939.1	1005.82	-29770.8	0.000000	0.000000	6.482930	-0.030111	NaN	0.000000	0.001583	0.001745	28.0814	0.141150	0.002036	69.3339	-134.655	-162.881	-0.038248	0.481153	-0.594495	-0.595757	-0.030111	69.3339	-0.594169	-6.920428E+7	4.351010E-10	NaN
623	1.000000	0.490401	7.37115e+06	-45939.1	1005.82	-29770.8	0.000000	0.000000	6.490914	-0.056747	NaN	0.000000	0.001642	0.001749	28.0812	0.127305	0.001918	66.3721	27.5778	-165.288	-0.105578	0.489074	-0.586510	-0.587837	-0.056747	66.3721	-0.585868	-5.317335E+7	1.067215E-9	NaN
623	1.000000	0.498375	7.37115e+06	-45939.1	1005.82	-29770.8	0.000000	0.000000	6.498891	0.003625	NaN	0.000000	0.001631	0.001748	28.081	0.046344	0.002007	23.0968	64.9149	-163.914	0.016674	0.497075	-0.578535	-0.579836	0.003625	23.0968	-0.578653	-4.227972E+7	-8.572710E-11	NaN
623	1.000000	0.506430	7.37115e+06	-45939.1	1005.82	-29770.8	0.000000	0.000000	6.506942	-0.073101	NaN	0.000000	0.001650	0.001759	28.0812	0.064261	0.002089	30.7618	-125.573	-163.029	0.013070	0.505129	-0.570481	-0.571782	-0.073101	30.7618	-0.568699	-3.080712E+7	2.372848E-9	NaN
623	1.000000	0.514430	7.37115e+06	-45939.1	1005.82	-29770.8	0.000000	0.000000	6.514945	-0.000289	NaN	0.000000	0.001639	0.001723	28.0812	0.070696	0.001965	35.9861	-14.2982	-164.023	-0.026637	0.513111	-0.562481	-0.563800	-0.000289	35.9861	-0.562475	-2.527041E+7	1.142037E-11	NaN
623	1.000000	0.522431	7.37115e+06	-45939.1	1005.82	-29770.8	0.000000	0.000000	6.522951	0.107650	NaN	0.000000	0.001612	0.001735	28.0815	0.107048	0.002020	52.983	-144.767	-165.165	0.068001	0.521169	-0.554479	-0.555742	0.107650	52.983	-0.556003	-2.056237E+7	-5.235310E-9	NaN
623	1.000000	0.530431	7.37115e+06	-45939.1	1005.82	-29770.8	0.000000	0.000000	6.530946	-0.020242	NaN	0.000000	0.001579	0.001738	28.0811	0.017347	0.001989	8.719960	101.052	-162.273	-0.046619	0.529143	-0.546480	-0.547768	-0.020242	8.719960	-0.544739	-1.435672E+7	1.409951E-9	NaN
623	1.000000	0.538442	7.37115e+06	-45939.1	1005.82	-29770.8	0.000000	0.000000	6.538958	0.018020	NaN	0.000000	0.001559	0.001762	28.0811	0.092230	0.002020	45.6479	-173.857	-167.47	0.018878	0.537140	-0.538469	-0.539771	0.018020	45.6479	-0.538765	-1.186387E+7	-1.518895E-9	NaN
623	1.000000	0.546473	7.37115e+06	-45939.1	1005.82	-29770.8	0.000000	0.000000	6.546985	-0.072768	NaN	0.000000	0.001586	0.001724	28.0812	0.073998	0.001959	37.7681	-151.103	-166.275	0.043683	0.545163	-0.530438	-0.531747	-0.072768	37.7681	-0.528993	-8.6813e+06	8.382160E-9	NaN
623	1.000000	0.554461	7.37115e+06	-45939.1	1005.82	-29770.8	0.000000	0.000000	6.554976	0.001149	NaN	0.000000	0.001580	0.001734	28.0812	0.112354	0.002031	55.3198	-131.196	-162.83	-0.043271	0.553161	-0.522450	-0.523750	0.001149	55.3198	-0.522465	-7.04495e+06	-1.631658E-10	NaN
623	1.000000	0.562455	7.37115e+06	-45939.1	1005.82	-29770.8	0.000000	0.000000	6.562971	0.004562	NaN	0.000000	0.001593	0.001745	28.0817	0.099045	0.001999	49.551	94.8845	-163.421	0.009685	0.561144	-0.514456	-0.515767	0.004562	49.551	-0.514525	-5.4628e+06	-8.350368E-10	NaN
623	1.000000	0.570453	7.37115e+06	-45939.1	1005.82	-29770.8	0.000000	0.000000	6.570969	0.006889	NaN	0.000000	0.001582	0.001698	28.0811	0.165128	0.001931	85.4999	175.832	-164.086	-0.035885	0.569167	-0.506457	-0.507744	0.006889	85.4999	-0.506518	-4.22568e+06	-1.630180E-9	NaN
623	1.000000	0.578454	7.37115e+06	-45939.1	1005.82	-29770.8	0.000000	0.000000	6.578971	0.048286	NaN	0.000000	0.001593	0.001709	28.08	0.046586	0.002017	23.0986	-4.248964	-166.849	0.004750	0.577133	-0.498457	-0.499777	0.048286	23.0986	-0.500025	-3.43055e+06	-1.407541E-8	NaN
623	1.000000	0.586478	7.37115e+06	-45939.1	1005.82	-29770.8	0.000000	0.000000	6.586995	0.027905	NaN	0.000000	0.001622	0.001716	28.0798	0.004749	0.002001	2.373113	-144.63	-168.359	-0.036298	0.585161	-0.490432	-0.491750	0.027905	2.373113	-0.499251	-3.34635e+06	-8.338892E-9	NaN
623	1.000000	0.594477	7.37115e+06	-45939.1	1005.82	-29770.8	0.000000	0.000000	6.594990	-0.048334	NaN	0.000000	0.001647	0.001706	28.0797	0.106648	0.001910	55.8482	-132.662	-166.893	-0.090198	0.593103	-0.482434	-0.483807	-0.048334	55.8482	-0.481785	-1.9077e+06	2.533645E-8	NaN
623	1.000000	0.602483	7.37115e+06	-45939.1	1005.82	-29770.8	0.000000	0.000000	6.602999	0.030894	NaN	0.000000	0.001628	0.001694	28.0799	0.163969	0.001905	86.0894	13.8243	-164.472	-0.011893	0.601153	-0.474428	-0.475757	0.030894	86.0894	-0.474697	-1.51795e+06	-2.035228E-8	NaN
623	1.000000	0.610449	7.37115e+06	-45939.1	1005.82	-29770.8	0.000000	0.000000	6.610966	0.019635	NaN	0.000000	0.001582	0.001656	28.0797	0.134973	0.002010	67.1551	-152.614	-165.164	0.020111	0.609171	-0.466461	-0.467740	0.019635	67.1551	-0.466680	-1.17175e+06	-1.675666E-8	NaN
623	1.000000	0.618509	7.37115e+06	-45939.1	1005.82	-29770.8	0.000000	0.000000	6.619026	0.040744	NaN	0.000000	0.001588	0.001716	28.0801	0.058737	0.002088	28.1307	49.8074	-163.583	0.033386	0.617168	-0.458401	-0.459743	0.040744	28.1307	-0.459488	-928576	-4.387775E-8	NaN
623	1.000000	0.626480	7.37115e+06	-45939.1	1005.82	-29770.8	0.000000	0.000000	6.626994	-0.028467	NaN	0.000000	0.001540	0.001778	28.0799	0.120722	0.001955	61.7429	-55.7432	-165.606	-0.052536	0.625177	-0.450431	-0.451734	-0.028467	61.7429	-0.450085	-684762	4.157220E-8	NaN
623	1.000000	0.634488	7.37115e+06	-45939.1	1005.82	-29770.8	0.000000	0.000000	6.635002	-0.044154	NaN	0.000000	0.001560	0.001769	28.0799	0.095119	0.001898	50.1266	-86.6987	-160.664	-0.024980	0.633160	-0.442423	-0.443751	-0.044154	50.1266	-0.441762	-522670	8.447711E-8	NaN
623	1.000000	0.642497	7.37115e+06	-45939.1	1005.82	-29770.8	0.000000	0.000000	6.643010	-0.055463	NaN	0.000000	0.001584	0.001743	28.0798	0.162459	0.002146	75.6969	137.433	-167.241	0.095947	0.641195	-0.434414	-0.435715	-0.055463	75.6969	-0.433864	-404300	1.371821E-7	NaN
623	1.000000	0.650485	7.37115e+06	-45939.1	1005.82	-29770.8	0.000000	0.000000	6.651001	-0.003354	NaN	0.000000	0.001581	0.001729	28.0799	0.034672	0.002056	16.8627	125.942	-162.908	-0.004625	0.649171	-0.426425	-0.427740	-0.003354	16.8627	-0.426276	-315757	1.062236E-8	NaN
623	1.000000	0.658488	7.37115e+06	-45939.1	1005.82	-29770.8	0.000000	0.000000	6.659001	-0.057181	NaN	0.000000	0.001575	0.001728	28.0802	0.138256	0.002017	68.5363	101.969	-163.297	-0.022491	0.657176	-0.418423	-0.419735	-0.057181	68.5363	-0.417797	-239422	2.388300E-7	NaN
623	1.000000	0.666475	7.37115e+06	-45939.1	1005.82	-29770.8	0.000000	0.000000	6.666992	0.054141	NaN	0.000000	0.001595	0.001703	28.08	0.051606	0.001975	26.1348	-100.821	-163.04	0.029605	0.665160	-0.410436	-0.411751	0.054141	26.1348	-0.411989	-198009	-2.734250E-7	NaN
623	1.000000	0.674524	7.37115e+06	-45939.1	1005.82	-29770.8	0.000000	0.000000	6.675042	0.065938	NaN	0.000000	0.001563	0.001701	28.0801	0.079662	0.001952	40.8185	-85.859	-166.283	0.094146	0.673226	-0.402387	-0.403684	0.065938	40.8185	-0.403598	-150411	-4.383865E-7	NaN
623	1.000000	0.682476	7.37115e+06	-45939.1	1005.82	-29770.8	0.000000	0.000000	6.682994	0.048297	NaN	0.000000	0.001594	0.001720	28.0798	0.074492	0.001970	37.8075	178.754	-164.392	0.042656	0.681191	-0.394434	-0.395719	0.048297	37.8075	-0.395393	-114879	-4.204185E-7	NaN
623	1.000000	0.690492	7.37115e+06	-45939.1	1005.82	-29770.8	0.000000	0.000000	6.691007	-0.008634	NaN	0.000000	0.001582	0.001735	28.08	0.044185	0.002009	21.9911	-149.173	-166.165	-0.026716	0.689142	-0.386419	-0.387769	-0.008634	21.9911	-0.386124	-84662.6	1.019855E-7	NaN
623	1.000000	0.698512	7.37115e+06	-45939.1	1005.82	-29770.8	0.000000	0.000000	6.699028	0.011572	NaN	0.000000	0.001597	0.001722	28.08	0.046961	0.001914	24.5339	-114.748	-166.353	0.030705	0.697228	-0.378399	-0.379683	0.011572	24.5339	-0.378752	-66371.2	-1.743488E-7	NaN
623	1.000000	0.706497	7.37115e+06	-45939.1	1005.82	-29770.8	0.000000	0.000000	6.707014	0.048596	NaN	0.000000	0.001574	0.001733	28.0798	0.154473	0.002059	75.0257	-130.098	-163.79	0.002247	0.705167	-0.370414	-0.371743	0.048596	75.0257	-0.370899	-51177.5	-9.495650E-7	NaN
623	1.000000	0.714551	7.37115e+06	-45939.1	1005.82	-29770.8	0.000000	0.000000	6.715063	-0.088917	NaN	0.000000	0.001623	0.001755	28.0813	0.076292	0.001937	39.3917	155.879	-166.151	-0.139685	0.713227	-0.362360	-0.363684	-0.088917	39.3917	-0.360667	-36432.1	2.440625E-6	NaN
623	1.000000	0.722529	7.37115e+06	-45939.1	1005.82	-29770.8	0.000000	0.000000	6.723046	0.052409	NaN	0.000000	0.001626	0.001730	28.0811	0.109723	0.002025	54.1772	83.5582	-167.118	-0.027892	0.721215	-0.354382	-0.355696	0.052409	54.1772	-0.355107	-30272.7	-1.731228E-6	NaN
623	1.000000	0.730525	7.37115e+06	-45939.1	1005.82	-29770.8	0.000000	0.000000	6.731042	0.020996	NaN	0.000000	0.001563	0.001728	28.0813	0.082471	0.001993	41.3768	122.613	-162.738	0.029717	0.729276	-0.346385	-0.347634	0.020996	41.3768	-0.346766	-22910.2	-9.164658E-7	NaN
623	1.000000	0.738540	7.37115e+06	-45939.1	1005.82	-29770.8	0.000000	0.000000	6.739057	0.034843	NaN	0.000000	0.001580	0.001755	28.0811	0.022339	0.002162	10.3332	-167.4	-165.86	0.027026	0.737227	-0.338370	-0.339684	0.034843	10.3332	-0.340899	-18821.7	-1.851231E-6	NaN
623	1.000000	0.746519	7.37115e+06	-45939.1	1005.82	-29770.8	0.000000	0.000000	6.747036	0.050233	NaN	0.000000	0.001584	0.001736	28.0811	0.082078	0.001938	42.3439	-147.851	-165.308	0.033501	0.745259	-0.330392	-0.331652	0.050233	42.3439	-0.331282	-13621.2	-3.687887E-6	NaN
623	1.000000	0.754547	7.37115e+06	-45939.1	1005.82	-29770.8	0.000000	0.000000	6.755062	-0.022086	NaN	0.000000	0.001599	0.001720	28.0813	0.103027	0.002060	50.0215	-29.0422	-166.905	-0.007081	0.753283	-0.322363	-0.323628	-0.022086	50.0215	-0.322032	-9966.29	2.216052E-6	NaN
623	1.000000	0.762541	7.37115e+06	-45939.1	1005.82	-29770.8	0.000000	0.000000	6.763056	-0.002025	NaN	0.000000	0.001605	0.001678	28.0811	0.045051	0.001898	23.7409	-147.961	-162.399	0.010931	0.761250	-0.314370	-0.315661	-0.002025	23.7409	-0.314306	-7668.32	2.640221E-7	NaN
623	1.000000	0.770527	7.37115e+06	-45939.1	1005.82	-29770.8	0.000000	0.000000	6.771039	-0.070088	NaN	0.000000	0.001614	0.001711	28.0813	0.051985	0.002063	25.1962	-11.9977	-164.298	-0.033177	0.769200	-0.306384	-0.307710	-0.070088	25.1962	-0.304298	-5451.66	1.285627E-5	NaN
623	1.000000	0.778551	7.37115e+06	-45939.1	1005.82	-29770.8	0.000000	0.000000	6.779065	-0.036425	NaN	0.000000	0.001586	0.001699	28.081	0.074314	0.001985	37.4346	129.28	-165.13	-0.024290	0.777271	-0.298359	-0.299640	-0.036425	37.4346	-0.297630	-4338.33	8.396109E-6	NaN
623	1.000000	0.786561	7.37115e+06	-45939.1	1005.82	-29770.8	0.000000	0.000000	6.787074	-0.064877	NaN	0.000000	0.001615	0.001723	28.081	0.033279	0.002160	15.4091	135.302	-159.825	-0.036082	0.785234	-0.290349	-0.291676	-0.064877	15.4091	-0.287191	-3028.2	2.142443E-5	NaN
623	1.000000	0.794547	7.37115e+06	-45939.1	1005.82	-29770.8	0.000000	0.000000	6.795061	-0.037551	NaN	0.000000	0.001598	0.001721	28.0812	0.068642	0.001949	35.2158	31.1909	-166.805	-0.037381	0.793250	-0.282363	-0.283661	-0.037551	35.2158	-0.281564	-2491.98	1.506878E-5	NaN
623	1.000000	0.802544	7.37115e+06	-45939.1	1005.82	-29770.8	0.000000	0.000000	6.803054	-0.115760	NaN	0.000000	0.001611	0.001793	28.0812	0.046426	0.001987	23.3707	38.6219	-167.087	-0.079606	0.801256	-0.274367	-0.275654	-0.115760	23.3707	-0.270652	-1703.94	6.793663E-5	NaN
623	1.000000	0.810561	7.37115e+06	-45939.1	1005.82	-29770.8	0.000000	0.000000	6.811077	0.032914	NaN	0.000000	0.001580	0.001768	28.0812	0.023598	0.001995	11.8287	-83.5996	-161.419	0.027416	0.809229	-0.266350	-0.267682	0.032914	11.8287	-0.268437	-1576.78	-2.087423E-5	NaN
623	1.000000	0.818556	7.37115e+06	-45939.1	1005.82	-29770.8	0.000000	0.000000	6.819070	-0.037300	NaN	0.000000	0.001533	0.001768	28.081	0.073604	0.001881	39.1205	-170.882	-163.464	-0.083731	0.817260	-0.258355	-0.259650	-0.037300	39.1205	-0.257640	-1078.21	3.459458E-5	NaN
623	1.000000	0.826619	7.37115e+06	-45939.1	1005.82	-29770.8	0.000000	0.000000	6.827136	0.038511	NaN	0.000000	0.001574	0.001799	28.0812	0.035650	0.002025	17.6087	79.7203	-167.613	0.053703	0.825233	-0.250292	-0.251677	0.038511	17.6087	-0.251932	-880.686	-4.372898E-5	NaN
623	1.000000	0.834573	7.37115e+06	-45939.1	1005.82	-29770.8	0.000000	0.000000	6.835087	-0.016475	NaN	0.000000	0.001568	0.001709	28.0811	0.077123	0.002064	37.3712	31.8451	-163.042	-0.103261	0.833250	-0.242338	-0.243660	-0.016475	37.3712	-0.242007	-617.84	2.666506E-5	NaN
623	1.000000	0.842595	7.37115e+06	-45939.1	1005.82	-29770.8	0.000000	0.000000	6.843110	-0.025675	NaN	0.000000	0.001554	0.001765	28.0811	0.074799	0.001989	37.5997	-174.527	-161.732	0.017133	0.841264	-0.234315	-0.235647	-0.025675	37.5997	-0.233803	-459.666	5.585479E-5	NaN
623	1.000000	0.850548	7.37115e+06	-45939.1	1005.82	-29770.8	0.000000	0.000000	6.851060	-0.093554	NaN	0.000000	0.001558	0.001748	28.0803	0.042023	0.001950	21.5463	-143.722	-164.769	-0.060845	0.849268	-0.226362	-0.227643	-0.093554	21.5463	-0.223106	-311.325	0.000301	NaN
623	1.000000	0.858579	7.37115e+06	-45939.1	1005.82	-29770.8	0.000000	0.000000	6.859093	-0.027619	NaN	0.000000	0.001565	0.001741	28.0797	0.098863	0.002155	45.8748	58.4177	-165.573	-0.052434	0.857331	-0.218332	-0.219580	-0.027619	45.8748	-0.217880	-256.895	0.000108	NaN
623	1.000000	0.866579	7.37115e+06	-45939.1	1005.82	-29770.8	0.000000	0.000000	6.867092	-0.068536	NaN	0.000000	0.001580	0.001756	28.08	0.083747	0.002003	41.81	40.7434	-169.165	-0.045604	0.865283	-0.210331	-0.211627	-0.068536	41.81	-0.209102	-185.466	0.000370	NaN
623	1.000000	0.874606	7.37115e+06	-45939.1	1005.82	-29770.8	0.000000	0.000000	6.875122	0.002891	NaN	0.000000	0.001591	0.001753	28.0799	0.058468	0.001835	31.8591	-4.702524	-159.43	0.065522	0.873249	-0.202304	-0.203662	0.002891	31.8591	-0.202372	-144.083	-2.006350E-5	NaN
623	1.000000	0.882564	7.37115e+06	-45939.1	1005.82	-29770.8	0.000000	0.000000	6.883079	-0.007391	NaN	0.000000	0.001607	0.001720	28.0799	0.076315	0.002088	36.5529	48.9392	-166.39	-0.017412	0.881340	-0.194347	-0.195570	-0.007391	36.5529	-0.194195	-105.648	6.995556E-5	NaN
623	1.000000	0.890605	7.37115e+06	-45939.1	1005.82	-29770.8	0.000000	0.000000	6.891122	0.037321	NaN	0.000000	0.001597	0.001705	28.0798	0.070984	0.002002	35.4499	-35.2118	-165.814	0.098056	0.889304	-0.186306	-0.187607	0.037321	35.4499	-0.187095	-80.4227	-0.000464	NaN
623	1.000000	0.898593	7.37115e+06	-45939.1	1005.82	-29770.8	0.000000	0.000000	6.899109	0.005680	NaN	0.000000	0.001571	0.001728	28.0797	0.069048	0.001866	37.0014	-17.7609	-167.498	0.015188	0.897276	-0.178317	-0.179635	0.005680	37.0014	-0.178432	-57.3795	-9.899168E-5	NaN
623	1.000000	0.906617	7.37115e+06	-45939.1	1005.82	-29770.8	0.000000	0.000000	6.907131	-0.041931	NaN	0.000000	0.001569	0.001712	28.0799	0.131299	0.002073	63.3286	86.5475	-164.289	-0.043555	0.905248	-0.170294	-0.171662	-0.041931	63.3286	-0.169797	-40.7466	0.001029	NaN
623	1.000000	0.914586	7.37115e+06	-45939.1	1005.82	-29770.8	0.000000	0.000000	6.915101	-0.005339	NaN	0.000000	0.001566	0.001720	28.0798	0.056573	0.002060	27.4679	-56.5218	-165.693	0.004822	0.913285	-0.162324	-0.163626	-0.005339	27.4679	-0.162179	-29.9638	0.000178	NaN
623	1.000000	0.922644	7.37115e+06	-45939.1	1005.82	-29770.8	0.000000	0.000000	6.923158	-0.022661	NaN	0.000000	0.001552	0.001746	28.08	0.090719	0.002063	43.9818	143.779	-164.912	-0.024753	0.921291	-0.154267	-0.155619	-0.022661	43.9818	-0.153880	-21.3012	0.001064	NaN
623	1.000000	0.930598	7.37115e+06	-45939.1	1005.82	-29770.8	0.000000	0.000000	6.931114	0.002571	NaN	0.000000	0.001549	0.001709	28.0796	0.029312	0.001950	15.0324	-75.4928	-164.596	-0.000986	0.929296	-0.146313	-0.147614	0.002571	15.0324	-0.146441	-15.5872	-0.000165	NaN
623	1.000000	0.938622	7.37115e+06	-45939.1	1005.82	-29770.8	0.000000	0.000000	6.939135	-0.066586	NaN	0.000000	0.001575	0.001701	28.0798	0.086273	0.002103	41.0206	-81.1917	-165.227	-0.047465	0.937352	-0.138289	-0.139558	-0.066586	41.0206	-0.137071	-10.4159	0.006393	NaN
623	1.000000	0.946612	7.37115e+06	-45939.1	1005.82	-29770.8	0.000000	0.000000	6.947126	-0.019969	NaN	0.000000	0.001570	0.001708	28.0802	0.052674	0.002031	25.9381	-114.4	-162.994	0.003849	0.945263	-0.130299	-0.131647	-0.019969	25.9381	-0.129722	-7.526635	0.002653	NaN
623	1.000000	0.954607	7.37115e+06	-45939.1	1005.82	-29770.8	0.000000	0.000000	6.955125	0.057753	NaN	0.000000	0.001560	0.001725	28.0797	0.045627	0.001978	23.0629	-23.3624	-163.368	0.125661	0.953309	-0.122303	-0.123602	0.057753	23.0629	-0.124181	-5.858293	-0.009858	NaN
623	1.000000	0.962652	7.37115e+06	-45939.1	1005.82	-29770.8	0.000000	0.000000	6.963168	0.026141	NaN	0.000000	0.001556	0.001761	28.0798	0.095453	0.001876	50.8755	55.7628	-161.945	0.077603	0.961296	-0.114259	-0.115614	0.026141	50.8755	-0.114644	-3.756315	-0.006959	NaN
623	1.000000	0.970601	7.37115e+06	-45939.1	1005.82	-29770.8	0.000000	0.000000	6.971119	0.059962	NaN	0.000000	0.001598	0.001697	28.0798	0.062160	0.001802	34.494	68.3964	-160.271	0.001870	0.969281	-0.106310	-0.107630	0.059962	34.494	-0.107613	-2.674630	-0.022419	NaN
623	1.000000	0.978617	7.37115e+06	-45939.1	1005.82	-29770.8	0.000000	0.000000	6.979135	0.059814	NaN	0.000000	0.001595	0.001721	28.0797	0.036064	0.002067	17.4467	-18.4174	-162.673	0.032730	0.977311	-0.098293	-0.099600	0.059814	17.4467	-0.100865	-1.909391	-0.031326	NaN
623	1.000000	0.986631	7.37115e+06	-45939.1	1005.82	-29770.8	0.000000	0.000000	6.987147	0.002614	NaN	0.000000	0.001592	0.001742	28.0811	0.098789	0.002028	48.7074	27.7165	-162.663	-0.007630	0.985315	-0.090279	-0.091595	0.002614	48.7074	-0.090320	-1.099795	-0.002377	NaN
623	1.000000	0.994658	7.37115e+06	-45939.1	1005.82	-29770.8	0.000000	0.000000	6.995177	0.079732	NaN	0.000000	0.001592	0.001725	28.081	0.007808	0.002001	3.902442	88.462	-164.311	0.035047	0.993317	-0.082252	-0.083594	0.079732	3.902442	-0.097576	-1.613190	-0.049425	NaN
623	1.000000	1.002613	7.37115e+06	-45939.1	1005.82	-29770.8	0.000000	0.000000	7.003132	0.078848	NaN	0.000000	0.001649	0.001738	28.0816	0.034660	0.002040	16.9933	-66.7194	-164.398	0.075660	1.001317	-0.074298	-0.075593	0.078848	16.9933	-0.077778	-0.544126	-0.144908	NaN
623	1.000000	1.010623	7.37115e+06	-45939.1	1005.82	-29770.8	0.000000	0.000000	7.011138	-0.020565	NaN	0.000000	0.001640	0.001739	28.081	0.095423	0.001974	48.3345	121.175	-168.829	-0.069073	1.009349	-0.066287	-0.067561	-0.020565	48.3345	-0.065968	-0.265063	0.077584	NaN
623	1.000000	1.018638	7.37115e+06	-45939.1	1005.82	-29770.8	0.000000	0.000000	7.019156	0.055826	NaN	0.000000	0.001639	0.001737	28.081	0.016859	0.001953	8.630180	175.346	-161.583	0.086909	1.017373	-0.058273	-0.059537	0.055826	8.630180	-0.063124	-0.220907	-0.252713	NaN
623	1.000000	1.026648	7.37115e+06	-45939.1	1005.82	-29770.8	0.000000	0.000000	7.027162	-0.036795	NaN	0.000000	0.001675	0.001750	28.0812	0.046996	0.002031	23.1439	-4.198036	-165.002	-0.026265	1.025301	-0.050263	-0.051609	-0.036795	23.1439	-0.049070	-0.085522	0.430236	NaN
623	1.000000	1.034633	7.37115e+06	-45939.1	1005.82	-29770.8	0.000000	0.000000	7.035150	0.027350	NaN	0.000000	0.001646	0.001753	28.0811	0.098495	0.002124	46.3654	5.250105	-163.138	-0.061960	1.033364	-0.042278	-0.043547	0.027350	46.3654	-0.042720	-0.054735	-0.499676	NaN
623	1.000000	1.042635	7.37115e+06	-45939.1	1005.82	-29770.8	0.000000	0.000000	7.043151	0.001241	NaN	0.000000	0.001576	0.001719	28.0814	0.048466	0.001798	26.9575	-23.6362	-165.232	0.019126	1.041323	-0.034275	-0.035587	0.001241	26.9575	-0.034310	-0.030565	-0.040617	NaN
623	1.000000	1.050659	7.37115e+06	-45939.1	1005.82	-29770.8	0.000000	0.000000	7.051175	0.013126	NaN	0.000000	0.001585	0.001703	28.081	0.026840	0.001977	13.5784	-159.525	-164.293	-0.007968	1.049356	-0.026252	-0.027554	0.013126	13.5784	-0.026977	-0.019028	-0.689816	NaN
623	1.000000	1.058673	7.37115e+06	-45939.1	1005.82	-29770.8	0.000000	0.000000	7.059189	0.013010	NaN	0.000000	0.001552	0.001737	28.0809	0.102546	0.001834	55.9011	5.588764	-163.212	-0.016470	1.057349	-0.018238	-0.019561	0.013010	55.9011	-0.018412	-0.011440	-1.137261	NaN
623	1.000000	1.066645	7.37115e+06	-45939.1	1005.82	-29770.8	0.000000	0.000000	7.067159	-0.039434	NaN	0.000000	0.001586	0.001712	28.081	0.081941	0.002069	39.6099	-153.161	-163.739	0.033632	1.065328	-0.010265	-0.011583	-0.039434	39.6099	-0.009519	-0.006112	6.452273	NaN
623	1.000000	1.074642	7.37115e+06	-45939.1	1005.82	-29770.8	0.000000	0.000000	7.075226	1.660976	NaN	0.000000	0.001583	0.001694	28.0811	2.561302	0.002077	1233.02	9.302495	-165.431	0.739319	1.073344	-0.002269	-0.003566	1.660976	1233.02	-0.003279	-0.002306	-720.16	NaN
623	2.000000	1.082084	7.37115e+06	-45939.1	1005.82	-29770.8	0.000000	0.000000	7.083006	9.880873	NaN	0.000000	0.001573	0.001710	28.0811	9.016895	0.001610	5601.6	11.3758	-168.821	10.0654	1.081210	0.005173	0.004300	9.880873	5601.6	0.003850	0.003108	3178.95	91797.3
623	2.000000	1.084208	7.37115e+06	-45939.1	1005.82	-29770.8	0.000000	0.000000	7.085234	12.4195	NaN	0.000000	0.001597	0.001758	28.081	11.0959	0.001541	7200.29	5.006701	-174.385	11.8064	1.083819	0.007298	0.006908	12.4195	7200.29	0.006004	0.005068	2450.41	92403.9
623	2.000000	1.086185	7.37115e+06	-45939.1	1005.82	-29770.8	0.000000	0.000000	7.087281	14.1165	NaN	0.000000	0.001575	0.001722	28.0814	14.0473	0.001807	7772.66	8.930368	-175.691	14.5328	1.085861	0.009275	0.008951	14.1165	7772.66	0.007912	0.006952	2030.43	85167.5
623	2.000000	1.088163	7.37115e+06	-45939.1	1005.82	-29770.8	0.000000	0.000000	7.089552	21.2343	NaN	0.000000	0.001560	0.001667	28.0812	15.8706	0.001682	9437	2.228961	-171.107	20.3929	1.087808	0.011253	0.010897	21.2343	9437	0.009565	0.008702	2440.12	92426
623	2.000000	1.090132	7.37115e+06	-45939.1	1005.82	-29770.8	0.000000	0.000000	7.091741	26.6146	NaN	0.000000	0.001571	0.001693	28.0812	17.5088	0.001764	9924.4	8.442464	-175.875	26.067	1.089790	0.013221	0.012879	26.6146	9924.4	0.011210	0.010557	2520.97	88247.4
623	2.000000	1.092104	7.37115e+06	-45939.1	1005.82	-29770.8	0.000000	0.000000	7.093850	29.9273	NaN	0.000000	0.001570	0.001722	28.0802	20.4929	0.001734	11815.2	5.576530	-177.382	28.616	1.091820	0.015193	0.014910	29.9273	11815.2	0.013294	0.013077	2288.56	94397.3
623	2.000000	1.094112	7.37115e+06	-45939.1	1005.82	-29770.8	0.000000	0.000000	7.095943	31.9902	NaN	0.000000	0.001580	0.001726	28.0798	21.2763	0.001796	11844.1	4.561296	-174.81	30.6213	1.093763	0.017202	0.016853	31.9902	11844.1	0.015176	0.015521	2061.1	86859.1
623	2.000000	1.096121	7.37115e+06	-45939.1	1005.82	-29770.8	0.000000	0.000000	7.097998	33.1283	NaN	0.000000	0.001551	0.001702	28.0802	23.3771	0.001771	13198.4	6.564368	-179.098	32.7151	1.095885	0.019210	0.018975	33.1283	13198.4	0.017327	0.018515	1789.23	88619.6
623	2.000000	1.098151	7.37115e+06	-45939.1	1005.82	-29770.8	0.000000	0.000000	7.100350	40.9639	NaN	0.000000	0.001577	0.001727	28.08	25.3715	0.001797	14116.7	7.007358	-177.915	41.5216	1.097745	0.021240	0.020835	40.9639	14116.7	0.019064	0.021092	1942.12	88806.3
623	2.000000	1.100127	7.37115e+06	-45939.1	1005.82	-29770.8	0.000000	0.000000	7.102479	44.6732	NaN	0.000000	0.001573	0.001724	28.0802	26.5125	0.001690	15684	5.940116	-179.351	44.644	1.099783	0.023217	0.022873	44.6732	15684	0.021080	0.024268	1840.8	91983.5
623	2.000000	1.102164	7.37115e+06	-45939.1	1005.82	-29770.8	0.000000	0.000000	7.104497	44.2185	NaN	0.000000	0.001587	0.001730	28.0803	29.4731	0.001851	15925.2	7.147153	-179.391	46.3687	1.101875	0.025253	0.024965	44.2185	15925.2	0.023171	0.027772	1592.2	87308
623	2.000000	1.104097	7.37115e+06	-45939.1	1005.82	-29770.8	0.000000	0.000000	7.106623	48.9145	NaN	0.000000	0.001551	0.001731	28.0801	30.3636	0.001701	17849	6.026290	179.313	47.9119	1.103773	0.027186	0.026863	48.9145	17849	0.025131	0.031254	1565.05	92242.8
623	2.000000	1.106129	7.37115e+06	-45939.1	1005.82	-29770.8	0.000000	0.000000	7.108919	55.328	NaN	0.000000	0.001555	0.001726	28.0804	32.7106	0.001764	18547.6	6.785817	178.783	56.5473	1.105744	0.029218	0.028833	55.328	18547.6	0.026981	0.034719	1593.62	90945.5
623	2.000000	1.108086	7.37115e+06	-45939.1	1005.82	-29770.8	0.000000	0.000000	7.111260	64.6783	NaN	0.000000	0.001561	0.001722	28.0801	34.3204	0.001886	18197.9	-0.208700	-174.329	62.6615	1.107740	0.031176	0.030829	64.6783	18197.9	0.028510	0.037712	1715.06	85615.8
623	2.000000	1.110077	7.37115e+06	-45939.1	1005.82	-29770.8	0.000000	0.000000	7.113540	71.698	NaN	0.000000	0.001597	0.001749	28.0805	35.7651	0.001643	21767.7	3.189862	-179.146	71.2579	1.109790	0.033167	0.032880	71.698	21767.7	0.030696	0.042199	1699.04	96813.2
623	2.000000	1.112074	7.37115e+06	-45939.1	1005.82	-29770.8	0.000000	0.000000	7.115832	78.8667	NaN	0.000000	0.001606	0.001747	28.0801	37.6034	0.001765	21299.3	-0.772863	-175.297	77.6575	1.111728	0.035164	0.034818	78.8667	21299.3	0.032387	0.045836	1720.62	90893.8
623	2.000000	1.114073	7.37115e+06	-45939.1	1005.82	-29770.8	0.000000	0.000000	7.117760	77.1524	NaN	0.000000	0.001629	0.001722	28.0804	39.6186	0.001780	22253.1	2.625583	-178.548	75.4675	1.113869	0.037162	0.036958	77.1524	22253.1	0.034562	0.050731	1520.81	90266.8
623	2.000000	1.116049	7.37115e+06	-45939.1	1005.82	-29770.8	0.000000	0.000000	7.120281	90.406	NaN	0.000000	0.001638	0.001718	28.0815	42.2539	0.001914	22073.8	5.511002	179.006	88.9756	1.115759	0.039138	0.038848	90.406	22073.8	0.036066	0.054258	1666.23	86580.1
623	2.000000	1.118130	7.37115e+06	-45939.1	1005.82	-29770.8	0.000000	0.000000	7.122663	97.7131	NaN	0.000000	0.001668	0.001763	28.0802	43.9592	0.001902	23112.6	6.572131	177.955	99.2503	1.117699	0.041220	0.040789	97.7131	23112.6	0.038049	0.059084	1653.81	86873.5
623	2.000000	1.120030	7.37115e+06	-45939.1	1005.82	-29770.8	0.000000	0.000000	7.125078	110.25	NaN	0.000000	0.001669	0.001758	28.0803	44.9529	0.001800	24978.1	4.318548	178.632	108.058	1.119762	0.043119	0.042852	110.25	24978.1	0.039809	0.063536	1735.25	90536.8
623	2.000000	1.122025	7.37115e+06	-45939.1	1005.82	-29770.8	0.000000	0.000000	7.127287	115.46	NaN	0.000000	0.001602	0.001768	28.0802	47.0349	0.001781	26408.9	5.737519	176.92	112.927	1.121741	0.045114	0.044830	115.46	26408.9	0.041835	0.068858	1676.79	91948.8
623	2.000000	1.124087	7.37115e+06	-45939.1	1005.82	-29770.8	0.000000	0.000000	7.129639	122.507	NaN	0.000000	0.001637	0.001788	28.0803	47.8469	0.001738	27525.5	5.755748	176.256	122.605	1.123737	0.047177	0.046826	122.507	27525.5	0.043839	0.074325	1648.27	92245
623	2.000000	1.126053	7.37115e+06	-45939.1	1005.82	-29770.8	0.000000	0.000000	7.131925	130.295	NaN	0.000000	0.001606	0.001779	28.0819	50.5446	0.001761	28701.7	2.745817	179.816	128.519	1.125714	0.049143	0.048803	130.295	28701.7	0.045738	0.079696	1634.9	92888.7
623	2.000000	1.128060	7.37115e+06	-45939.1	1005.82	-29770.8	0.000000	0.000000	7.134278	138.734	NaN	0.000000	0.001608	0.001794	28.0814	52.9325	0.001790	29564.2	5.826078	175.853	138.92	1.127852	0.051149	0.050941	138.734	29564.2	0.047629	0.085227	1627.81	92523.3
623	2.000000	1.130105	7.37115e+06	-45939.1	1005.82	-29770.8	0.000000	0.000000	7.136665	147.04	NaN	0.000000	0.001637	0.001788	28.0814	54.4439	0.001870	29107.5	4.627509	177.052	147.193	1.129766	0.053194	0.052856	147.04	29107.5	0.049406	0.090585	1623.23	88358.8
623	2.000000	1.132132	7.37115e+06	-45939.1	1005.82	-29770.8	0.000000	0.000000	7.139087	156.63	NaN	0.000000	0.001602	0.001760	28.0814	55.62	0.001751	31766	2.638988	178.016	158.623	1.131763	0.055222	0.054852	156.63	31766	0.051524	0.097181	1611.73	93098.9
623	2.000000	1.134045	7.37115e+06	-45939.1	1005.82	-29770.8	0.000000	0.000000	7.141395	166.251	NaN	0.000000	0.001610	0.001793	28.0815	57.1843	0.001793	31886.2	4.216360	177.25	166.91	1.133793	0.057135	0.056883	166.251	31886.2	0.053224	0.102639	1619.76	90932.6
623	2.000000	1.136064	7.37115e+06	-45939.1	1005.82	-29770.8	0.000000	0.000000	7.143721	173.743	NaN	0.000000	0.001626	0.001761	28.0815	59.5148	0.001747	34062.2	4.369913	175.775	174.833	1.135746	0.059153	0.058836	173.743	34062.2	0.055328	0.109589	1585.4	94007.4
623	2.000000	1.138068	7.37115e+06	-45939.1	1005.82	-29770.8	0.000000	0.000000	7.146049	181.605	NaN	0.000000	0.001657	0.001755	28.0814	61.9203	0.001886	32823.6	6.016542	175.305	179.709	1.137736	0.061157	0.060826	181.605	32823.6	0.057007	0.115296	1575.11	88318.3
623	2.000000	1.140053	7.37115e+06	-45939.1	1005.82	-29770.8	0.000000	0.000000	7.148481	192.462	NaN	0.000000	0.001639	0.001780	28.0818	62.0362	0.001679	36957.8	0.585551	179.073	192.182	1.139803	0.063143	0.062892	192.462	36957.8	0.059237	0.123087	1563.63	96244
623	2.000000	1.142009	7.37115e+06	-45939.1	1005.82	-29770.8	0.000000	0.000000	7.150707	199.058	NaN	0.000000	0.001653	0.001736	28.0813	66.164	0.001751	37777.3	4.576282	174.819	194.86	1.141822	0.065098	0.064912	199.058	37777.3	0.061146	0.129950	1531.8	95744.9
623	2.000000	1.144088	7.37115e+06	-45939.1	1005.82	-29770.8	0.000000	0.000000	7.153478	215.899	NaN	0.000000	0.001640	0.001763	28.0815	66.4626	0.001744	38108.3	4.608460	175.438	219.68	1.143743	0.067177	0.066832	215.899	38108.3	0.062928	0.136517	1581.48	94232.1
623	2.000000	1.146039	7.37115e+06	-45939.1	1005.82	-29770.8	0.000000	0.000000	7.155879	226.832	NaN	0.000000	0.001657	0.001749	28.0814	69.5372	0.001793	38788.8	5.699880	174.231	226.852	1.145653	0.069128	0.068743	226.832	38788.8	0.064742	0.143360	1582.26	93597.8
623	2.000000	1.147964	7.37115e+06	-45939.1	1005.82	-29770.8	0.000000	0.000000	7.158388	241.041	NaN	0.000000	0.001590	0.001727	28.0814	71.2444	0.001743	40872	6.058973	172.862	235.853	1.147682	0.071053	0.070771	241.041	40872	0.066630	0.150651	1599.99	96208.3
623	2.000000	1.150119	7.37115e+06	-45939.1	1005.82	-29770.8	0.000000	0.000000	7.160554	241.309	NaN	0.000000	0.001598	0.001733	28.0816	73.7308	0.001760	41891.1	7.436742	171.355	247.091	1.149876	0.073209	0.072965	241.309	41891.1	0.068888	0.159595	1512.01	95804.3
623	2.000000	1.152041	7.37115e+06	-45939.1	1005.82	-29770.8	0.000000	0.000000	7.163239	259.862	NaN	0.000000	0.001606	0.001757	28.0813	75.111	0.001865	40275.4	5.975496	174.402	261.363	1.151708	0.075130	0.074798	259.862	40275.4	0.070291	0.165274	1572.32	90513.1
623	2.000000	1.153957	7.37115e+06	-45939.1	1005.82	-29770.8	0.000000	0.000000	7.165789	275.279	NaN	0.000000	0.001601	0.001722	28.0815	77.4408	0.001952	39666	7.692602	171.922	271.007	1.153533	0.077047	0.076622	275.279	39666	0.071842	0.171661	1603.61	87469.2
623	2.000000	1.155944	7.37115e+06	-45939.1	1005.82	-29770.8	0.000000	0.000000	7.168350	289.231	NaN	0.000000	0.001619	0.001715	28.0813	79.4767	0.001836	43282.8	3.706909	175.506	284.4	1.155601	0.079034	0.078690	289.231	43282.8	0.074022	0.180833	1599.44	92992.9
623	2.000000	1.158043	7.37115e+06	-45939.1	1005.82	-29770.8	0.000000	0.000000	7.170893	300.045	NaN	0.000000	0.001633	0.001744	28.0813	81.3841	0.001804	45101.1	6.128054	173.232	299.617	1.157660	0.081133	0.080749	300.045	45101.1	0.076143	0.189971	1579.43	94540.3
623	2.000000	1.160059	7.37115e+06	-45939.1	1005.82	-29770.8	0.000000	0.000000	7.173104	304.807	NaN	0.000000	0.001603	0.001751	28.0807	82.9301	0.001713	48405.1	5.669920	172.373	307.605	1.159715	0.083148	0.082804	304.807	48405.1	0.078425	0.200040	1523.73	98879.4
623	2.000000	1.161957	7.37115e+06	-45939.1	1005.82	-29770.8	0.000000	0.000000	7.175795	324.078	NaN	0.000000	0.001594	0.001779	28.0802	86.3713	0.001839	46956	2.941281	174.657	320.686	1.161871	0.085046	0.084960	324.078	46956	0.079870	0.206539	1569.09	94398.3
623	2.000000	1.163969	7.37115e+06	-45939.1	1005.82	-29770.8	0.000000	0.000000	7.178430	339.24	NaN	0.000000	0.001566	0.001770	28.0804	85.7194	0.001797	47701.2	2.795077	175.122	335.507	1.163705	0.087059	0.086794	339.24	47701.2	0.081725	0.215027	1577.67	93984.5
623	2.000000	1.165961	7.37115e+06	-45939.1	1005.82	-29770.8	0.000000	0.000000	7.181406	363.152	NaN	0.000000	0.001553	0.001718	28.0802	88.7246	0.001741	50965.4	3.072654	174.523	360.171	1.165587	0.089051	0.088677	363.152	50965.4	0.083707	0.224271	1619.25	98324.6
623	2.000000	1.168001	7.37115e+06	-45939.1	1005.82	-29770.8	0.000000	0.000000	7.183846	372.906	NaN	0.000000	0.001529	0.001750	28.0803	90.7496	0.001790	50686.6	3.503947	174.105	368.613	1.167686	0.091090	0.090775	372.906	50686.6	0.085572	0.233138	1599.5	95909.1
623	2.000000	1.169860	7.37115e+06	-45939.1	1005.82	-29770.8	0.000000	0.000000	7.185749	373.986	NaN	0.000000	0.001524	0.001708	28.0804	92.165	0.001803	51119.6	1.146064	175.925	363.823	1.169653	0.092949	0.092743	373.986	51119.6	0.087462	0.242287	1543.56	94884.5
623	2.000000	1.171973	7.37115e+06	-45939.1	1005.82	-29770.8	0.000000	0.000000	7.188748	395.516	NaN	0.000000	0.001542	0.001734	28.0804	94.9815	0.001831	51887.3	5.803779	171.986	393.214	1.171607	0.095062	0.094696	395.516	51887.3	0.089345	0.251566	1572.21	94516.6
623	2.000000	1.173908	7.37115e+06	-45939.1	1005.82	-29770.8	0.000000	0.000000	7.191443	414.018	NaN	0.000000	0.001581	0.001704	28.0806	94.9561	0.001798	52825.8	2.717821	174.336	408.888	1.173664	0.096997	0.096754	414.018	52825.8	0.091119	0.260453	1589.61	94570.3
623	2.000000	1.176015	7.37115e+06	-45939.1	1005.82	-29770.8	0.000000	0.000000	7.194072	426.717	NaN	0.000000	0.001594	0.001736	28.0802	97.862	0.001822	53706.1	3.980944	173.295	426.904	1.175721	0.099105	0.098810	426.717	53706.1	0.093146	0.270785	1575.85	94294
623	2.000000	1.178078	7.37115e+06	-45939.1	1005.82	-29770.8	0.000000	0.000000	7.196744	441.526	NaN	0.000000	0.001615	0.001777	28.0803	100.492	0.001847	54410.3	10.5485	167.921	443.225	1.177572	0.101167	0.100662	441.526	54410.3	0.095081	0.280828	1572.23	93806.8
623	2.000000	1.179957	7.37115e+06	-45939.1	1005.82	-29770.8	0.000000	0.000000	7.199284	457.615	NaN	0.000000	0.001611	0.001714	28.0803	100.701	0.001750	57527.3	4.132460	172.809	454.096	1.179533	0.103046	0.102623	457.615	57527.3	0.097080	0.291380	1570.51	97368.3
623	2.000000	1.180451	7.37115e+06	-45939.1	1005.82	-29770.8	0.000000	0.000000	7.200039	463.973	NaN	0.000000	0.001630	0.001680	28.0804	100.801	0.001831	55054.7	1.215089	-4.096504	458.285	1.180158	0.103540	0.103247	463.973	55054.7	0.097219	0.292122	1588.28	93064.8