File: remote_trans/data/nanoindenter/0828-1/data/Data_2025-08-06,11h17m57s/2025-07-22_16-23-58_1_1209.txt
2025-07-22, 16:23:58, 1
Index	Phase	Displacement	Time	Pos X	Pos Y	Pos Z	Rot A	Rot B	Piezo Z	Force A	Force B	Gripper	Voltage A	Voltage B	Temperature	Amplitude force	Amplitude pos	Stiffness	Phase shift	Phase excitation	Force A raw	Displacement raw	HMax	HMax raw	Real Force	Real Stiffness	Contact Depth	Area	Hardness	Reduced Mod.
[#]	[#]	[um]	[s]	[um]	[um]	[um]	[m°]	[m°]	[um]	[uN]	[uN]	[V]	[V]	[V]	[°C]	[uN]	[um]	[N/m]	[°]	[°]	[uN]	[um]	[um]	[um]	[uN]	[N/m]	[um]	[um^2]	[MPa]	[MPa]
1209	1.000000	0.002424	7.37687e+06	-55139.1	1105.82	-29740	0.000000	0.000000	6.002819	0.057124	NaN	0.000000	0.001573	0.001720	28.0841	0.057886	0.001096	52.8122	-137.385	-169.292	0.059929	0.001219	-1.245350	-1.246555	0.057124	52.8122	-1.246161	-4.555825E+16	-1.253874E-18	NaN
1209	1.000000	0.012474	7.37687e+06	-55139.1	1105.82	-29740	0.000000	0.000000	6.012867	-0.000597	NaN	0.000000	0.001545	0.001690	28.0838	0.017443	0.001446	12.059	-152.342	19.2313	-0.025107	0.011028	-1.235300	-1.236746	-0.000597	12.059	-1.235263	-3.256557E+16	1.832073E-20	NaN
1209	1.000000	0.022340	7.37687e+06	-55139.1	1105.82	-29740	0.000000	0.000000	6.022734	0.037575	NaN	0.000000	0.001561	0.001704	28.0838	0.092633	0.001668	55.5317	-93.9046	-167.36	0.040957	0.021020	-1.225434	-1.226754	0.037575	55.5317	-1.225941	-2.443570E+16	-1.537703E-18	NaN
1209	1.000000	0.032349	7.37687e+06	-55139.1	1105.82	-29740	0.000000	0.000000	6.032745	0.087095	NaN	0.000000	0.001580	0.001693	28.0839	0.027604	0.001848	14.9353	-91.9134	12.6499	0.125435	0.030944	-1.215425	-1.216830	0.087095	14.9353	-1.219799	-2.022145E+16	-4.307070E-18	NaN
1209	1.000000	0.042351	7.37687e+06	-55139.1	1105.82	-29740	0.000000	0.000000	6.042747	0.067459	NaN	0.000000	0.001591	0.001726	28.0846	0.088047	0.001920	45.8487	93.842	-166.639	0.032008	0.041051	-1.205423	-1.206723	0.067459	45.8487	-1.206526	-1.343176E+16	-5.022373E-18	NaN
1209	1.000000	0.052351	7.37687e+06	-55139.1	1105.82	-29740	0.000000	0.000000	6.052747	0.061980	NaN	0.000000	0.001567	0.001685	28.0836	0.073281	0.001893	38.7198	48.0259	14.5351	0.048839	0.051009	-1.195423	-1.196765	0.061980	38.7198	-1.196623	-9.897548E+15	-6.262203E-18	NaN
1209	1.000000	0.062328	7.37687e+06	-55139.1	1105.82	-29740	0.000000	0.000000	6.062724	0.082646	NaN	0.000000	0.001570	0.001719	28.0834	0.042881	0.002031	21.1118	132.97	-163.166	0.095896	0.061002	-1.185446	-1.186772	0.082646	21.1118	-1.188382	-7.676256E+15	-1.076649E-17	NaN
1209	1.000000	0.072380	7.37687e+06	-55139.1	1105.82	-29740	0.000000	0.000000	6.072773	0.023523	NaN	0.000000	0.001568	0.001711	28.0823	0.058087	0.001926	30.1544	25.5364	11.1438	0.056766	0.071033	-1.175394	-1.176740	0.023523	30.1544	-1.175979	-5.236016E+15	-4.492630E-18	NaN
1209	1.000000	0.082321	7.37687e+06	-55139.1	1105.82	-29740	0.000000	0.000000	6.082715	0.044477	NaN	0.000000	0.001590	0.001677	28.0824	0.021260	0.001973	10.7747	-118.075	-166.746	0.090687	0.081068	-1.165453	-1.166706	0.044477	10.7747	-1.168549	-4.163353E+15	-1.068290E-17	NaN
1209	1.000000	0.092368	7.37687e+06	-55139.1	1105.82	-29740	0.000000	0.000000	6.092763	0.054889	NaN	0.000000	0.001612	0.001702	28.0822	0.030621	0.001994	15.3591	95.6999	15.2613	0.088219	0.090964	-1.155406	-1.156809	0.054889	15.3591	-1.158086	-3.014517E+15	-1.820811E-17	NaN
1209	1.000000	0.102381	7.37687e+06	-55139.1	1105.82	-29740	0.000000	0.000000	6.102773	0.004660	NaN	0.000000	0.001547	0.001730	28.0823	0.093520	0.002083	44.9011	110.997	-169.905	0.004958	0.101031	-1.145393	-1.146743	0.004660	44.9011	-1.145471	-2.042205E+15	-2.281983E-18	NaN
1209	1.000000	0.112366	7.37687e+06	-55139.1	1105.82	-29740	0.000000	0.000000	6.112759	0.017402	NaN	0.000000	0.001582	0.001757	28.0824	0.074555	0.002138	34.8776	62.0034	16.2704	-0.023540	0.110985	-1.135408	-1.136789	0.017402	34.8776	-1.135782	-1.514175E+15	-1.149244E-17	NaN
1209	1.000000	0.122374	7.37687e+06	-55139.1	1105.82	-29740	0.000000	0.000000	6.122767	0.018536	NaN	0.000000	0.001569	0.001715	28.0823	0.091337	0.001989	45.9303	-115.204	-166.042	-0.001783	0.121055	-1.125400	-1.126718	0.018536	45.9303	-1.125703	-1.109114E+15	-1.671218E-17	NaN
1209	1.000000	0.132402	7.37687e+06	-55139.1	1105.82	-29740	0.000000	0.000000	6.132794	-0.016807	NaN	0.000000	0.001585	0.001713	28.0823	0.025873	0.001944	13.3096	145.201	11.2705	-0.030417	0.130992	-1.115372	-1.116782	-0.016807	13.3096	-1.114425	-7.828322E+14	2.146935E-17	NaN
1209	1.000000	0.142376	7.37687e+06	-55139.1	1105.82	-29740	0.000000	0.000000	6.142767	-0.049297	NaN	0.000000	0.001544	0.001736	28.0823	0.118218	0.002114	55.9118	105.301	-167.279	-0.024507	0.141042	-1.105398	-1.106731	-0.049297	55.9118	-1.104736	-5.802883E+14	8.495207E-17	NaN
1209	1.000000	0.152381	7.37687e+06	-55139.1	1105.82	-29740	0.000000	0.000000	6.152776	0.045378	NaN	0.000000	0.001537	0.001683	28.0826	0.041451	0.002076	19.9621	98.6455	14.1668	0.030261	0.151023	-1.095392	-1.096751	0.045378	19.9621	-1.097097	-4.582480E+14	-9.902453E-17	NaN
1209	1.000000	0.162389	7.37687e+06	-55139.1	1105.82	-29740	0.000000	0.000000	6.162784	0.039282	NaN	0.000000	0.001517	0.001689	28.0822	0.060198	0.001808	33.294	-14.6109	-167.335	0.029415	0.161078	-1.085385	-1.086695	0.039282	33.294	-1.086269	-3.278820E+14	-1.198039E-16	NaN
1209	1.000000	0.172422	7.37687e+06	-55139.1	1105.82	-29740	0.000000	0.000000	6.172816	0.014739	NaN	0.000000	0.001530	0.001648	28.0825	0.055450	0.002125	26.0885	-177.534	14.7676	-0.051556	0.171040	-1.075351	-1.076733	0.014739	26.0885	-1.075775	-2.370123E+14	-6.218680E-17	NaN
1209	1.000000	0.182403	7.37687e+06	-55139.1	1105.82	-29740	0.000000	0.000000	6.182798	0.039487	NaN	0.000000	0.001538	0.001680	28.0823	0.103931	0.002032	51.1582	-22.2009	-165.345	-0.024748	0.181098	-1.065370	-1.066675	0.039487	51.1582	-1.065949	-1.748903E+14	-2.257825E-16	NaN
1209	1.000000	0.192428	7.37687e+06	-55139.1	1105.82	-29740	0.000000	0.000000	6.192820	-0.011380	NaN	0.000000	0.001526	0.001665	28.0826	0.119471	0.001988	60.0986	-10.0587	14.6637	-0.070112	0.191070	-1.055346	-1.056704	-0.011380	60.0986	-1.055204	-1.254183E+14	9.073739E-17	NaN
1209	1.000000	0.202422	7.37687e+06	-55139.1	1105.82	-29740	0.000000	0.000000	6.202815	0.003106	NaN	0.000000	0.001544	0.001688	28.0835	0.050569	0.002046	24.7121	-75.8237	-164.005	0.055455	0.201151	-1.045352	-1.046623	0.003106	24.7121	-1.045446	-9.272354E+13	-3.349830E-17	NaN
1209	1.000000	0.212414	7.37687e+06	-55139.1	1105.82	-29740	0.000000	0.000000	6.212806	-0.015933	NaN	0.000000	0.001517	0.001681	28.0835	0.087301	0.002074	42.102	-128.225	13.5308	0.030648	0.211030	-1.035360	-1.036743	-0.015933	42.102	-1.035076	-6.725857E+13	2.368940E-16	NaN
1209	1.000000	0.222423	7.37687e+06	-55139.1	1105.82	-29740	0.000000	0.000000	6.222814	-0.024132	NaN	0.000000	0.001559	0.001686	28.0836	0.088071	0.002091	42.1267	-109.119	-167.517	-0.076206	0.221132	-1.025351	-1.026642	-0.024132	42.1267	-1.024922	-4.910963E+13	4.913933E-16	NaN
1209	1.000000	0.232430	7.37687e+06	-55139.1	1105.82	-29740	0.000000	0.000000	6.232825	0.058454	NaN	0.000000	0.001573	0.001714	28.0835	0.053843	0.002068	26.0308	-26.3866	16.131	-0.006421	0.231039	-1.015343	-1.016735	0.058454	26.0308	-1.017028	-3.845544E+13	-1.520056E-15	NaN
1209	1.000000	0.242421	7.37687e+06	-55139.1	1105.82	-29740	0.000000	0.000000	6.242814	0.018454	NaN	0.000000	0.001577	0.001654	28.0835	0.108232	0.001936	55.8971	-127.437	-164.256	0.077135	0.241147	-1.005353	-1.006627	0.018454	55.8971	-1.005601	-2.698789E+13	-6.837749E-16	NaN
1209	1.000000	0.252460	7.37687e+06	-55139.1	1105.82	-29740	0.000000	0.000000	6.252850	-0.071209	NaN	0.000000	0.001571	0.001708	28.0834	0.119120	0.001967	60.5704	-152.891	13.9257	-0.094831	0.251077	-0.995314	-0.996696	-0.071209	60.5704	-0.994432	-1.908965E+13	3.730224E-15	NaN
1209	1.000000	0.262450	7.37687e+06	-55139.1	1105.82	-29740	0.000000	0.000000	6.262842	-0.013867	NaN	0.000000	0.001530	0.001698	28.0838	0.082164	0.001970	41.7098	120.742	-165.123	-0.014020	0.261108	-0.985324	-0.986665	-0.013867	41.7098	-0.985075	-1.428153E+13	9.709533E-16	NaN
1209	1.000000	0.272441	7.37687e+06	-55139.1	1105.82	-29740	0.000000	0.000000	6.272835	0.028834	NaN	0.000000	0.001535	0.001740	28.0833	0.065802	0.001969	33.4114	-136.441	15.5236	0.010244	0.271049	-0.975333	-0.976725	0.028834	33.4114	-0.975980	-1.077080E+13	-2.677065E-15	NaN
1209	1.000000	0.282428	7.37687e+06	-55139.1	1105.82	-29740	0.000000	0.000000	6.282822	0.033120	NaN	0.000000	0.001571	0.001678	28.0835	0.066033	0.002070	31.8991	124.291	-163.509	-0.018007	0.281183	-0.965346	-0.966591	0.033120	31.8991	-0.966124	-7.932781E+12	-4.175031E-15	NaN
1209	1.000000	0.292456	7.37687e+06	-55139.1	1105.82	-29740	0.000000	0.000000	6.292848	-0.002718	NaN	0.000000	0.001543	0.001702	28.0835	0.100926	0.001994	50.6237	-41.9769	14.8024	-0.001357	0.291070	-0.955318	-0.956704	-0.002718	50.6237	-0.955278	-5.664991E+12	4.797497E-16	NaN
1209	1.000000	0.302469	7.37687e+06	-55139.1	1105.82	-29740	0.000000	0.000000	6.302862	-0.012571	NaN	0.000000	0.001546	0.001726	28.0843	0.075476	0.001950	38.7129	146.31	-169.431	-0.034049	0.301156	-0.945304	-0.946617	-0.012571	38.7129	-0.945061	-4.124856E+12	3.047736E-15	NaN
1209	1.000000	0.312481	7.37687e+06	-55139.1	1105.82	-29740	0.000000	0.000000	6.312874	0.003354	NaN	0.000000	0.001619	0.001707	28.0835	0.037628	0.001983	18.9725	-29.9014	13.2748	-0.074788	0.311084	-0.935293	-0.936690	0.003354	18.9725	-0.935426	-3.057843E+12	-1.096721E-15	NaN
1209	1.000000	0.322473	7.37687e+06	-55139.1	1105.82	-29740	0.000000	0.000000	6.322865	-0.020678	NaN	0.000000	0.001558	0.001705	28.0836	0.060865	0.001935	31.4612	-126.03	-165.272	-0.000162	0.321095	-0.925300	-0.926679	-0.020678	31.4612	-0.924807	-2.198412E+12	9.405941E-15	NaN
1209	1.000000	0.332493	7.37687e+06	-55139.1	1105.82	-29740	0.000000	0.000000	6.332890	0.098557	NaN	0.000000	0.001601	0.001712	28.0835	0.091107	0.002114	43.1025	40.0056	14.6927	0.038564	0.331136	-0.915281	-0.916638	0.098557	43.1025	-0.916996	-1.724403E+12	-5.715445E-14	NaN
1209	1.000000	0.342466	7.37687e+06	-55139.1	1105.82	-29740	0.000000	0.000000	6.342861	0.062674	NaN	0.000000	0.001598	0.001691	28.0825	0.045293	0.002051	22.0816	-91.8558	-164.525	0.005761	0.341152	-0.905308	-0.906621	0.062674	22.0816	-0.907437	-1.280973E+12	-4.892714E-14	NaN
1209	1.000000	0.352502	7.37687e+06	-55139.1	1105.82	-29740	0.000000	0.000000	6.352895	0.016923	NaN	0.000000	0.001578	0.001699	28.0824	0.072212	0.002156	33.4858	-176.886	14.1059	0.035618	0.351079	-0.895272	-0.896695	0.016923	33.4858	-0.895651	-8.877628E+11	-1.906293E-14	NaN
1209	1.000000	0.362486	7.37687e+06	-55139.1	1105.82	-29740	0.000000	0.000000	6.362878	-0.014347	NaN	0.000000	0.001569	0.001712	28.0823	0.125627	0.001937	64.8427	90.483	-163.846	-0.026103	0.361198	-0.885288	-0.886575	-0.014347	64.8427	-0.885122	-6.396944E+11	2.242721E-14	NaN
1209	1.000000	0.372463	7.37687e+06	-55139.1	1105.82	-29740	0.000000	0.000000	6.372857	0.024212	NaN	0.000000	0.001575	0.001671	28.0826	0.038292	0.001893	20.2238	-135.057	17.0472	0.016873	0.371181	-0.875311	-0.876593	0.024212	20.2238	-0.876209	-4.846566E+11	-4.995731E-14	NaN
1209	1.000000	0.382468	7.37687e+06	-55139.1	1105.82	-29740	0.000000	0.000000	6.382862	0.041554	NaN	0.000000	0.001596	0.001732	28.0825	0.094508	0.001976	47.8346	-156.127	-167.014	0.034614	0.381233	-0.865306	-0.866541	0.041554	47.8346	-0.865958	-3.521655E+11	-1.179960E-13	NaN
1209	1.000000	0.392499	7.37687e+06	-55139.1	1105.82	-29740	0.000000	0.000000	6.392891	-0.019760	NaN	0.000000	0.001600	0.001698	28.0823	0.060041	0.002026	29.6354	-0.769978	13.0891	0.019486	0.391151	-0.855275	-0.856622	-0.019760	29.6354	-0.854775	-2.485373E+11	7.950626E-14	NaN
1209	1.000000	0.402519	7.37687e+06	-55139.1	1105.82	-29740	0.000000	0.000000	6.402913	0.049771	NaN	0.000000	0.001603	0.001688	28.0826	0.085897	0.001967	43.6723	-81.5296	-167.222	0.027481	0.401233	-0.845255	-0.846541	0.049771	43.6723	-0.846110	-1.896952E+11	-2.623738E-13	NaN
1209	1.000000	0.412500	7.37687e+06	-55139.1	1105.82	-29740	0.000000	0.000000	6.412894	0.015517	NaN	0.000000	0.001650	0.001719	28.0826	0.071563	0.001937	36.9417	105.525	13.196	0.036292	0.411139	-0.835274	-0.836635	0.015517	36.9417	-0.835589	-1.366226E+11	-1.135739E-13	NaN
1209	1.000000	0.422503	7.37687e+06	-55139.1	1105.82	-29740	0.000000	0.000000	6.422898	0.038465	NaN	0.000000	0.001601	0.001731	28.0825	0.014609	0.001920	7.607407	-136.458	-169.071	0.049556	0.421217	-0.825270	-0.826557	0.038465	7.607407	-0.829063	-1.114497E+11	-3.451322E-13	NaN
1209	1.000000	0.432498	7.37687e+06	-55139.1	1105.82	-29740	0.000000	0.000000	6.432893	0.051088	NaN	0.000000	0.001615	0.001763	28.0824	0.147058	0.002090	70.3507	176.559	13.7445	0.003101	0.431147	-0.815276	-0.816627	0.051088	70.3507	-0.815820	-7.371033E+10	-6.930872E-13	NaN
1209	1.000000	0.442531	7.37687e+06	-55139.1	1105.82	-29740	0.000000	0.000000	6.442925	0.040232	NaN	0.000000	0.001592	0.001694	28.0826	0.026714	0.001897	14.0803	-39.6139	-165.659	-0.005642	0.441149	-0.805243	-0.806625	0.040232	14.0803	-0.807386	-5.663740E+10	-7.103445E-13	NaN
1209	1.000000	0.452540	7.37687e+06	-55139.1	1105.82	-29740	0.000000	0.000000	6.452934	0.028052	NaN	0.000000	0.001592	0.001705	28.0823	0.036663	0.001953	18.7758	-47.8203	13.9245	0.121101	0.451189	-0.795234	-0.796585	0.028052	18.7758	-0.796355	-4.012113E+10	-6.991845E-13	NaN
1209	1.000000	0.462524	7.37687e+06	-55139.1	1105.82	-29740	0.000000	0.000000	6.462920	0.077775	NaN	0.000000	0.001593	0.001721	28.0822	0.069405	0.001935	35.86	124.166	-167.119	0.098324	0.461245	-0.785250	-0.786529	0.077775	35.86	-0.786876	-2.983002E+10	-2.607260E-12	NaN
1209	1.000000	0.472516	7.37687e+06	-55139.1	1105.82	-29740	0.000000	0.000000	6.472911	0.055192	NaN	0.000000	0.001593	0.001705	28.0825	0.057548	0.002048	28.098	-49.8234	14.0076	0.003650	0.471179	-0.775258	-0.776595	0.055192	28.098	-0.776731	-2.171760E+10	-2.541358E-12	NaN
1209	1.000000	0.482529	7.37687e+06	-55139.1	1105.82	-29740	0.000000	0.000000	6.482924	0.052253	NaN	0.000000	0.001594	0.001667	28.0837	0.099594	0.002079	47.8985	159.884	-165.004	0.034792	0.481210	-0.765244	-0.766564	0.052253	47.8985	-0.766063	-1.555126E+10	-3.360064E-12	NaN
1209	1.000000	0.492553	7.37687e+06	-55139.1	1105.82	-29740	0.000000	0.000000	6.492945	-0.028607	NaN	0.000000	0.001586	0.001723	28.0836	0.015593	0.002060	7.568709	83.715	11.9126	0.015153	0.491210	-0.755221	-0.756564	-0.028607	7.568709	-0.752386	-1.013207E+10	2.823387E-12	NaN
1209	1.000000	0.502526	7.37687e+06	-55139.1	1105.82	-29740	0.000000	0.000000	6.502919	0.002086	NaN	0.000000	0.001554	0.001709	28.0836	0.109020	0.001946	56.0109	-116.619	-167.019	-0.095561	0.501246	-0.745248	-0.746528	0.002086	56.0109	-0.745275	-8.107733E+9	-2.572868E-13	NaN
1209	1.000000	0.512529	7.37687e+06	-55139.1	1105.82	-29740	0.000000	0.000000	6.512925	0.079222	NaN	0.000000	0.001576	0.001720	28.0837	0.165900	0.002010	82.5576	-94.8459	12.8302	0.091180	0.511193	-0.735245	-0.736581	0.079222	82.5576	-0.735964	-6.054572E+9	-1.308469E-11	NaN
1209	1.000000	0.522579	7.37687e+06	-55139.1	1105.82	-29740	0.000000	0.000000	6.522971	-0.020926	NaN	0.000000	0.001562	0.001695	28.0837	0.078408	0.001963	39.9404	43.0135	-169.132	-0.039955	0.521253	-0.725195	-0.726521	-0.020926	39.9404	-0.724802	-4.265310E+9	4.906179E-12	NaN
1209	1.000000	0.532531	7.37687e+06	-55139.1	1105.82	-29740	0.000000	0.000000	6.532925	0.029977	NaN	0.000000	0.001586	0.001698	28.0837	0.049689	0.002130	23.3249	44.2958	13.2354	0.126593	0.531181	-0.715242	-0.716593	0.029977	23.3249	-0.716206	-3.256322E+9	-9.205862E-12	NaN
1209	1.000000	0.542563	7.37687e+06	-55139.1	1105.82	-29740	0.000000	0.000000	6.542960	0.084038	NaN	0.000000	0.001575	0.001715	28.0836	0.111821	0.001949	57.3828	-56.4698	-166.635	0.013503	0.541216	-0.705210	-0.706558	0.084038	57.3828	-0.706309	-2.385984E+9	-3.522160E-11	NaN
1209	1.000000	0.552565	7.37687e+06	-55139.1	1105.82	-29740	0.000000	0.000000	6.552959	0.048342	NaN	0.000000	0.001581	0.001713	28.0839	0.098577	0.002001	49.2694	-125.205	16.1446	0.046041	0.551204	-0.695209	-0.696570	0.048342	49.2694	-0.695945	-1.722447E+9	-2.806594E-11	NaN
1209	1.000000	0.562584	7.37687e+06	-55139.1	1105.82	-29740	0.000000	0.000000	6.562977	0.003660	NaN	0.000000	0.001582	0.001674	28.0836	0.057522	0.001824	31.544	80.539	-168.71	0.047492	0.561259	-0.685189	-0.686515	0.003660	31.544	-0.685276	-1.231273E+9	-2.972858E-12	NaN
1209	1.000000	0.572565	7.37687e+06	-55139.1	1105.82	-29740	0.000000	0.000000	6.572962	0.106374	NaN	0.000000	0.001614	0.001659	28.0838	0.037496	0.001968	19.0487	-158.326	13.7669	0.002211	0.571186	-0.675209	-0.676588	0.106374	19.0487	-0.679398	-1.023213E+9	-1.039611E-10	NaN
1209	1.000000	0.582573	7.37687e+06	-55139.1	1105.82	-29740	0.000000	0.000000	6.582966	0.019717	NaN	0.000000	0.001599	0.001700	28.0835	0.097401	0.001927	50.5581	-154.476	-166.997	0.036696	0.581308	-0.665201	-0.666465	0.019717	50.5581	-0.665494	-6.602406E+8	-2.986326E-11	NaN
1209	1.000000	0.592568	7.37687e+06	-55139.1	1105.82	-29740	0.000000	0.000000	6.592963	0.058920	NaN	0.000000	0.001549	0.001750	28.0839	0.045355	0.001905	23.8109	114.144	15.7629	0.067749	0.591206	-0.655206	-0.656567	0.058920	23.8109	-0.657062	-5.060820E+8	-1.164230E-10	NaN
1209	1.000000	0.602550	7.37687e+06	-55139.1	1105.82	-29740	0.000000	0.000000	6.602941	-0.043670	NaN	0.000000	0.001582	0.001765	28.0834	0.063768	0.001955	32.625	-14.8338	-166.057	0.044668	0.601284	-0.645223	-0.646489	-0.043670	32.625	-0.644219	-3.374209E+8	1.294236E-10	NaN
1209	1.000000	0.612608	7.37687e+06	-55139.1	1105.82	-29740	0.000000	0.000000	6.613002	0.041772	NaN	0.000000	0.001597	0.001702	28.0822	0.048626	0.002100	23.1505	137.116	13.5737	0.068041	0.611170	-0.635166	-0.636604	0.041772	23.1505	-0.636519	-2.645598E+8	-1.578924E-10	NaN
1209	1.000000	0.622597	7.37687e+06	-55139.1	1105.82	-29740	0.000000	0.000000	6.622994	0.101719	NaN	0.000000	0.001610	0.001720	28.0822	0.090737	0.002022	44.8646	-60.2619	-167.549	0.069475	0.621305	-0.625177	-0.626469	0.101719	44.8646	-0.626878	-1.950464E+8	-5.215130E-10	NaN
1209	1.000000	0.632606	7.37687e+06	-55139.1	1105.82	-29740	0.000000	0.000000	6.632999	0.018215	NaN	0.000000	0.001582	0.001720	28.0821	0.076051	0.002023	37.5977	131.48	13.5208	0.051167	0.631249	-0.615168	-0.616524	0.018215	37.5977	-0.615531	-1.362059E+8	-1.337293E-10	NaN
1209	1.000000	0.642613	7.37687e+06	-55139.1	1105.82	-29740	0.000000	0.000000	6.643006	0.010231	NaN	0.000000	0.001585	0.001710	28.082	0.117583	0.002015	58.3445	-103.148	-165.527	0.062376	0.641265	-0.605161	-0.606509	0.010231	58.3445	-0.605293	-9.847670E+7	-1.038900E-10	NaN
1209	1.000000	0.652633	7.37687e+06	-55139.1	1105.82	-29740	0.000000	0.000000	6.653028	0.061967	NaN	0.000000	0.001578	0.001709	28.0821	0.054727	0.001992	27.4789	-97.3553	13.2674	0.018991	0.651252	-0.595141	-0.596521	0.061967	27.4789	-0.596832	-7.530592E+7	-8.228718E-10	NaN
1209	1.000000	0.662621	7.37687e+06	-55139.1	1105.82	-29740	0.000000	0.000000	6.663015	0.029224	NaN	0.000000	0.001583	0.001718	28.0824	0.056580	0.001941	29.147	13.1703	-168.906	0.024918	0.661264	-0.585153	-0.586510	0.029224	29.147	-0.585905	-5.323479E+7	-5.489725E-10	NaN
1209	1.000000	0.672614	7.37687e+06	-55139.1	1105.82	-29740	0.000000	0.000000	6.673007	0.008258	NaN	0.000000	0.001562	0.001685	28.0823	0.105047	0.002007	52.3312	111.751	12.8834	0.052750	0.671257	-0.575160	-0.576517	0.008258	52.3312	-0.575279	-3.797913E+7	-2.174429E-10	NaN
1209	1.000000	0.682608	7.37687e+06	-55139.1	1105.82	-29740	0.000000	0.000000	6.683000	-0.021668	NaN	0.000000	0.001547	0.001649	28.0822	0.065169	0.001919	33.9653	106.31	-168.436	-0.032618	0.681301	-0.565166	-0.566472	-0.021668	33.9653	-0.564688	-2.711486E+7	7.991242E-10	NaN
1209	1.000000	0.692647	7.37687e+06	-55139.1	1105.82	-29740	0.000000	0.000000	6.693041	0.030026	NaN	0.000000	0.001569	0.001663	28.0823	0.046741	0.001943	24.0529	140.859	15.7377	0.043132	0.691332	-0.555126	-0.556442	0.030026	24.0529	-0.556063	-2.060136E+7	-1.457481E-9	NaN
1209	1.000000	0.702629	7.37687e+06	-55139.1	1105.82	-29740	0.000000	0.000000	6.703021	-0.008653	NaN	0.000000	0.001566	0.001701	28.0825	0.090963	0.002007	45.3335	-140.865	-165.908	0.034154	0.701292	-0.545145	-0.546482	-0.008653	45.3335	-0.545002	-1.447792E+7	5.976370E-10	NaN
1209	1.000000	0.712640	7.37687e+06	-55139.1	1105.82	-29740	0.000000	0.000000	6.713035	0.066891	NaN	0.000000	0.001577	0.001718	28.0823	0.060334	0.002084	28.953	130.73	12.3654	0.010677	0.711283	-0.535134	-0.536491	0.066891	28.953	-0.536867	-1.116587E+7	-5.990651E-9	NaN
1209	1.000000	0.722636	7.37687e+06	-55139.1	1105.82	-29740	0.000000	0.000000	6.723029	-0.002931	NaN	0.000000	0.001588	0.001691	28.0823	0.091558	0.002080	44.0146	-160.223	-167.817	-0.027671	0.721355	-0.525137	-0.526418	-0.002931	44.0146	-0.525087	-7.66172e+06	3.825270E-10	NaN
1209	1.000000	0.732634	7.37687e+06	-55139.1	1105.82	-29740	0.000000	0.000000	6.733027	0.003522	NaN	0.000000	0.001555	0.001708	28.0824	0.029061	0.001970	14.7536	-177.927	16.9993	0.021949	0.731271	-0.515140	-0.516503	0.003522	14.7536	-0.515319	-5.6036e+06	-6.285409E-10	NaN
1209	1.000000	0.742632	7.37687e+06	-55139.1	1105.82	-29740	0.000000	0.000000	6.743019	-0.136233	NaN	0.000000	0.001549	0.001710	28.0824	0.074322	0.001940	38.3083	-11.8747	-164.437	-0.094319	0.741303	-0.505142	-0.506471	-0.136233	38.3083	-0.502475	-3.71141e+06	3.670659E-8	NaN
1209	1.000000	0.752657	7.37687e+06	-55139.1	1105.82	-29740	0.000000	0.000000	6.753050	-0.008070	NaN	0.000000	0.001582	0.001657	28.0834	0.014753	0.001977	7.464050	-134.866	13.9663	-0.056365	0.751281	-0.495116	-0.496493	-0.008070	7.464050	-0.494305	-2.85454e+06	2.827139E-9	NaN
1209	1.000000	0.762688	7.37687e+06	-55139.1	1105.82	-29740	0.000000	0.000000	6.763081	0.016704	NaN	0.000000	0.001559	0.001669	28.0837	0.051978	0.001958	26.5456	-7.562818	-165.196	-0.000239	0.761351	-0.485086	-0.486423	0.016704	26.5456	-0.485558	-2.15424e+06	-7.754138E-9	NaN
1209	1.000000	0.772671	7.37687e+06	-55139.1	1105.82	-29740	0.000000	0.000000	6.773065	0.046759	NaN	0.000000	0.001587	0.001677	28.0838	0.086011	0.002044	42.0777	-15.473	14.5338	0.041203	0.771295	-0.475103	-0.476479	0.046759	42.0777	-0.475937	-1.57987e+06	-2.959667E-8	NaN
1209	1.000000	0.782657	7.37687e+06	-55139.1	1105.82	-29740	0.000000	0.000000	6.783050	0.012743	NaN	0.000000	0.001606	0.001702	28.0835	0.037611	0.002003	18.7782	-45.2587	-165.463	-0.031323	0.781332	-0.465117	-0.466441	0.012743	18.7782	-0.465626	-1.13249e+06	-1.125223E-8	NaN
1209	1.000000	0.792662	7.37687e+06	-55139.1	1105.82	-29740	0.000000	0.000000	6.793056	0.034991	NaN	0.000000	0.001623	0.001710	28.0835	0.050438	0.001929	26.1489	169.287	14.0736	0.037755	0.791343	-0.455112	-0.456431	0.034991	26.1489	-0.456115	-832543	-4.202938E-8	NaN
1209	1.000000	0.802664	7.37687e+06	-55139.1	1105.82	-29740	0.000000	0.000000	6.803057	0.009127	NaN	0.000000	0.001626	0.001686	28.0835	0.008914	0.002005	4.445276	-174.916	-165.498	0.036618	0.801327	-0.445110	-0.446447	0.009127	4.445276	-0.446650	-612553	-1.490000E-8	NaN
1209	1.000000	0.812630	7.37687e+06	-55139.1	1105.82	-29740	0.000000	0.000000	6.813025	0.061233	NaN	0.000000	0.001644	0.001684	28.0836	0.025416	0.001874	13.5603	-170.026	13.1316	0.068940	0.811302	-0.435144	-0.436472	0.061233	13.5603	-0.438531	-470572	-1.301256E-7	NaN
1209	1.000000	0.822685	7.37687e+06	-55139.1	1105.82	-29740	0.000000	0.000000	6.823082	0.083374	NaN	0.000000	0.001623	0.001698	28.0835	0.149263	0.001858	80.3359	-81.2268	-164.648	0.004097	0.821391	-0.425088	-0.426383	0.083374	80.3359	-0.425867	-311572	-2.675897E-7	NaN
1209	1.000000	0.832675	7.37687e+06	-55139.1	1105.82	-29740	0.000000	0.000000	6.833069	0.018189	NaN	0.000000	0.001617	0.001730	28.0835	0.114763	0.001918	59.825	-66.6689	13.8916	-0.042771	0.831312	-0.415099	-0.416462	0.018189	59.825	-0.415327	-220848	-8.235822E-8	NaN
1209	1.000000	0.842695	7.37687e+06	-55139.1	1105.82	-29740	0.000000	0.000000	6.843086	-0.045773	NaN	0.000000	0.001626	0.001694	28.0835	0.110988	0.002079	53.3968	117.862	-163.63	0.006683	0.841324	-0.405078	-0.406449	-0.045773	53.3968	-0.404436	-154600	2.960735E-7	NaN
1209	1.000000	0.852707	7.37687e+06	-55139.1	1105.82	-29740	0.000000	0.000000	6.853103	0.081222	NaN	0.000000	0.001639	0.001685	28.0837	0.046736	0.002077	22.497	28.4237	13.8578	0.118078	0.851307	-0.395067	-0.396466	0.081222	22.497	-0.397775	-124236	-6.537680E-7	NaN
1209	1.000000	0.862702	7.37687e+06	-55139.1	1105.82	-29740	0.000000	0.000000	6.863094	-0.022013	NaN	0.000000	0.001626	0.001698	28.0835	0.055123	0.002026	27.209	-179.443	-166.353	0.066461	0.861432	-0.385071	-0.386342	-0.022013	27.209	-0.384465	-80152.4	2.746415E-7	NaN
1209	1.000000	0.872686	7.37687e+06	-55139.1	1105.82	-29740	0.000000	0.000000	6.873076	-0.080271	NaN	0.000000	0.001591	0.001697	28.0835	0.032900	0.001989	16.5406	176.245	14.8693	-0.057482	0.871336	-0.375087	-0.376438	-0.080271	16.5406	-0.371448	-52116.1	1.540228E-6	NaN
1209	1.000000	0.882701	7.37687e+06	-55139.1	1105.82	-29740	0.000000	0.000000	6.883092	-0.042753	NaN	0.000000	0.001616	0.001723	28.0834	0.103944	0.001953	53.2175	-99.614	-168.081	0.089173	0.881416	-0.365073	-0.366357	-0.042753	53.2175	-0.364470	-41344	1.034083E-6	NaN
1209	1.000000	0.892699	7.37687e+06	-55139.1	1105.82	-29740	0.000000	0.000000	6.893091	-0.001192	NaN	0.000000	0.001594	0.001691	28.0823	0.066507	0.002087	31.8666	-154.916	11.0477	-0.020556	0.891353	-0.355075	-0.356421	-0.001192	31.8666	-0.355047	-30212.1	3.946475E-8	NaN
1209	1.000000	0.902710	7.37687e+06	-55139.1	1105.82	-29740	0.000000	0.000000	6.903101	-0.040347	NaN	0.000000	0.001604	0.001688	28.0825	0.073429	0.001989	36.923	-58.3417	-164.961	-0.060823	0.901359	-0.345064	-0.346415	-0.040347	36.923	-0.344245	-21055.7	1.916190E-6	NaN
1209	1.000000	0.912724	7.37687e+06	-55139.1	1105.82	-29740	0.000000	0.000000	6.913120	0.083303	NaN	0.000000	0.001644	0.001701	28.0823	0.038242	0.002052	18.6333	13.5156	14.2891	0.120777	0.911401	-0.335050	-0.336373	0.083303	18.6333	-0.338403	-17308.7	-4.812780E-6	NaN
1209	1.000000	0.922708	7.37687e+06	-55139.1	1105.82	-29740	0.000000	0.000000	6.923101	0.012496	NaN	0.000000	0.001607	0.001698	28.0828	0.076894	0.002007	38.3045	73.6113	-165.9	-0.049715	0.921394	-0.325066	-0.326380	0.012496	38.3045	-0.325311	-11135.2	-1.122232E-6	NaN
1209	1.000000	0.932717	7.37687e+06	-55139.1	1105.82	-29740	0.000000	0.000000	6.933112	0.060834	NaN	0.000000	0.001588	0.001695	28.0822	0.091991	0.001996	46.0941	-148.861	15.1956	-0.006948	0.931382	-0.315057	-0.316392	0.060834	46.0941	-0.316047	-8135.66	-7.477509E-6	NaN
1209	1.000000	0.942734	7.37687e+06	-55139.1	1105.82	-29740	0.000000	0.000000	6.943125	-0.039866	NaN	0.000000	0.001552	0.001705	28.0825	0.043646	0.002005	21.7657	-61.3837	-165.196	0.028386	0.941401	-0.305040	-0.306373	-0.039866	21.7657	-0.303666	-5335.19	7.472261E-6	NaN
1209	1.000000	0.952714	7.37687e+06	-55139.1	1105.82	-29740	0.000000	0.000000	6.953107	-0.003221	NaN	0.000000	0.001599	0.001704	28.0821	0.086097	0.002187	39.3602	-82.3087	14.2692	-0.026115	0.951352	-0.295060	-0.296421	-0.003221	39.3602	-0.294998	-3963.34	8.126217E-7	NaN
1209	1.000000	0.962715	7.37687e+06	-55139.1	1105.82	-29740	0.000000	0.000000	6.963106	-0.037346	NaN	0.000000	0.001589	0.001680	28.0826	0.014339	0.001890	7.587892	34.9448	-170.189	-0.083122	0.961392	-0.285059	-0.286382	-0.037346	7.587892	-0.281367	-2475.07	1.508896E-5	NaN
1209	1.000000	0.972719	7.37687e+06	-55139.1	1105.82	-29740	0.000000	0.000000	6.973114	0.070155	NaN	0.000000	0.001605	0.001711	28.0823	0.012442	0.001945	6.396410	-169.835	12.4831	0.093765	0.971377	-0.275055	-0.276397	0.070155	6.396410	-0.283281	-2644.9	-2.652457E-5	NaN
1209	1.000000	0.982743	7.37687e+06	-55139.1	1105.82	-29740	0.000000	0.000000	6.983137	0.031126	NaN	0.000000	0.001609	0.001713	28.0824	0.082172	0.001956	42.0198	-33.8302	-166.699	-0.005649	0.981445	-0.265031	-0.266329	0.031126	42.0198	-0.265587	-1426.72	-2.181619E-5	NaN
1209	1.000000	0.992747	7.37687e+06	-55139.1	1105.82	-29740	0.000000	0.000000	6.993139	-0.031163	NaN	0.000000	0.001578	0.001732	28.0824	0.074105	0.002019	36.698	-137.109	11.5579	0.015536	0.991371	-0.255027	-0.256403	-0.031163	36.698	-0.254390	-960.988	3.242798E-5	NaN
1209	1.000000	1.002754	7.37687e+06	-55139.1	1105.82	-29740	0.000000	0.000000	7.003145	-0.036669	NaN	0.000000	0.001598	0.001673	28.0826	0.115506	0.002139	53.9945	88.6055	-169.349	-0.037057	1.001468	-0.245020	-0.246306	-0.036669	53.9945	-0.244511	-675.848	5.425694E-5	NaN
1209	1.000000	1.012753	7.37687e+06	-55139.1	1105.82	-29740	0.000000	0.000000	7.013145	-0.033630	NaN	0.000000	0.001585	0.001697	28.0823	0.090173	0.001971	45.7456	19.4066	9.632948	-0.018644	1.011392	-0.235020	-0.236382	-0.033630	45.7456	-0.234469	-470.878	7.141939E-5	NaN
1209	1.000000	1.022761	7.37687e+06	-55139.1	1105.82	-29740	0.000000	0.000000	7.023155	0.022377	NaN	0.000000	0.001571	0.001675	28.0837	0.128081	0.002036	62.9186	-154.286	-168.583	0.080480	1.021458	-0.225013	-0.226316	0.022377	62.9186	-0.225280	-337.113	-6.637971E-5	NaN
1209	1.000000	1.032736	7.37687e+06	-55139.1	1105.82	-29740	0.000000	0.000000	7.033127	-0.043722	NaN	0.000000	0.001538	0.001672	28.0838	0.099939	0.002127	46.9805	63.694	11.0703	-0.050966	1.031405	-0.215038	-0.216369	-0.043722	46.9805	-0.214340	-225.369	0.000194	NaN
1209	1.000000	1.042767	7.37687e+06	-55139.1	1105.82	-29740	0.000000	0.000000	7.043162	0.046317	NaN	0.000000	0.001577	0.001685	28.0836	0.050735	0.001917	26.4686	-122.849	-168.594	-0.016207	1.041440	-0.205007	-0.206334	0.046317	26.4686	-0.206319	-167.13	-0.000277	NaN
1209	1.000000	1.052777	7.37687e+06	-55139.1	1105.82	-29740	0.000000	0.000000	7.053172	0.062755	NaN	0.000000	0.001609	0.001711	28.0834	0.053608	0.002094	25.5983	-98.204	18.65	-0.047962	1.051378	-0.194997	-0.196396	0.062755	25.5983	-0.196836	-116.834	-0.000537	NaN
1209	1.000000	1.062770	7.37687e+06	-55139.1	1105.82	-29740	0.000000	0.000000	7.063161	-0.039998	NaN	0.000000	0.001615	0.001694	28.0836	0.048594	0.001931	25.1643	54.8631	-169.147	-0.031503	1.061467	-0.185003	-0.186306	-0.039998	25.1643	-0.183811	-70.8069	0.000565	NaN
1209	1.000000	1.072790	7.37687e+06	-55139.1	1105.82	-29740	0.000000	0.000000	7.073184	0.041312	NaN	0.000000	0.001578	0.001665	28.0835	0.046434	0.002142	21.6817	100.52	15.0525	0.151121	1.071454	-0.174984	-0.176320	0.041312	21.6817	-0.176413	-52.9935	-0.000780	NaN
1209	1.000000	1.082801	7.37687e+06	-55139.1	1105.82	-29740	0.000000	0.000000	7.083194	0.002632	NaN	0.000000	0.001580	0.001645	28.0835	0.099751	0.001962	50.8384	-161.605	-169.733	0.100535	1.081414	-0.164973	-0.166360	0.002632	50.8384	-0.165011	-33.6128	-7.829025E-5	NaN
1209	1.000000	1.092780	7.37687e+06	-55139.1	1105.82	-29740	0.000000	0.000000	7.093172	-0.024108	NaN	0.000000	0.001562	0.001660	28.0835	0.114158	0.001972	57.9029	-117.36	12.4022	-0.042542	1.091422	-0.154994	-0.156351	-0.024108	57.9029	-0.154681	-22.0213	0.001095	NaN
1209	1.000000	1.102774	7.37687e+06	-55139.1	1105.82	-29740	0.000000	0.000000	7.103168	0.039661	NaN	0.000000	0.001603	0.001627	28.0837	0.006789	0.001897	3.578513	-144.114	-163.25	-0.033428	1.101452	-0.145000	-0.146321	0.039661	3.578513	-0.153313	-20.804	-0.001906	NaN
1209	1.000000	1.112817	7.37687e+06	-55139.1	1105.82	-29740	0.000000	0.000000	7.113208	-0.055673	NaN	0.000000	0.001575	0.001675	28.0835	0.010814	0.002149	5.031491	-178.463	16.9788	-0.082270	1.111444	-0.134956	-0.136330	-0.055673	5.031491	-0.126658	-6.556814	0.008491	NaN
1209	1.000000	1.122794	7.37687e+06	-55139.1	1105.82	-29740	0.000000	0.000000	7.123185	-0.033170	NaN	0.000000	0.001554	0.001697	28.0835	0.087505	0.002155	40.6142	158.174	-165.374	0.033166	1.121498	-0.124980	-0.126276	-0.033170	40.6142	-0.124368	-5.908362	0.005614	NaN
1209	1.000000	1.132780	7.37687e+06	-55139.1	1105.82	-29740	0.000000	0.000000	7.133171	-0.036363	NaN	0.000000	0.001566	0.001700	28.0835	0.054521	0.002047	26.6386	-77.5875	15.0548	-0.111907	1.131433	-0.114994	-0.116340	-0.036363	26.6386	-0.113970	-3.637647	0.009996	NaN
1209	1.000000	1.142806	7.37687e+06	-55139.1	1105.82	-29740	0.000000	0.000000	7.143201	0.054569	NaN	0.000000	0.001565	0.001679	28.0837	0.099655	0.002139	46.5866	71.5001	-165.289	0.046580	1.141468	-0.104968	-0.106306	0.054569	46.5866	-0.105847	-2.451457	-0.022260	NaN
1209	1.000000	1.152820	7.37687e+06	-55139.1	1105.82	-29740	0.000000	0.000000	7.153212	-0.021410	NaN	0.000000	0.001563	0.001667	28.0836	0.075764	0.002070	36.5987	-19.5546	12.8978	-0.016236	1.151456	-0.094954	-0.096318	-0.021410	36.5987	-0.094515	-1.375167	0.015569	NaN
1209	1.000000	1.162821	7.37687e+06	-55139.1	1105.82	-29740	0.000000	0.000000	7.163215	0.028960	NaN	0.000000	0.001557	0.001672	28.0823	0.010466	0.001979	5.288489	-142.375	-167.856	0.038311	1.161539	-0.084953	-0.086235	0.028960	5.288489	-0.089060	-1.027290	-0.028191	NaN
1209	1.000000	1.172833	7.37687e+06	-55139.1	1105.82	-29740	0.000000	0.000000	7.173226	0.020723	NaN	0.000000	0.001578	0.001666	28.0823	0.040160	0.001865	21.5384	148.609	11.1901	0.020464	1.171493	-0.074941	-0.076281	0.020723	21.5384	-0.075663	-0.480422	-0.043134	NaN
1209	1.000000	1.182845	7.37687e+06	-55139.1	1105.82	-29740	0.000000	0.000000	7.183241	0.062616	NaN	0.000000	0.001575	0.001638	28.0821	0.052404	0.002050	25.5673	-88.8421	-168.744	0.053026	1.181496	-0.064928	-0.066278	0.062616	25.5673	-0.066765	-0.278768	-0.224617	NaN
1209	1.000000	1.192821	7.37687e+06	-55139.1	1105.82	-29740	0.000000	0.000000	7.193215	0.043191	NaN	0.000000	0.001576	0.001628	28.0821	0.080780	0.001961	41.1887	12.3718	12.2326	0.089946	1.191436	-0.054953	-0.056338	0.043191	41.1887	-0.055739	-0.135410	-0.318965	NaN
1209	1.000000	1.202843	7.37687e+06	-55139.1	1105.82	-29740	0.000000	0.000000	7.203237	0.021682	NaN	0.000000	0.001568	0.001667	28.0822	0.030196	0.002151	14.0403	112.237	-165.644	-0.003042	1.201506	-0.044930	-0.046268	0.021682	14.0403	-0.046089	-0.069386	-0.312479	NaN
1209	1.000000	1.212805	7.37687e+06	-55139.1	1105.82	-29740	0.000000	0.000000	7.213198	0.006902	NaN	0.000000	0.001558	0.001626	28.0824	0.064074	0.001784	35.9248	-21.2113	13.539	-0.104150	1.211513	-0.034969	-0.036260	0.006902	35.9248	-0.035113	-0.032271	-0.213883	NaN
1209	1.000000	1.222806	7.37687e+06	-55139.1	1105.82	-29740	0.000000	0.000000	7.223199	-0.000970	NaN	0.000000	0.001568	0.001661	28.0821	0.131165	0.001918	68.3721	-20.0171	-169.85	-0.008031	1.221561	-0.024968	-0.026213	-0.000970	68.3721	-0.024957	-0.016827	0.057662	NaN
1209	1.000000	1.232827	7.37687e+06	-55139.1	1105.82	-29740	0.000000	0.000000	7.233221	0.032429	NaN	0.000000	0.001524	0.001640	28.0822	0.077501	0.002113	36.6771	-78.4548	12.3914	0.033565	1.231488	-0.014946	-0.016286	0.032429	36.6771	-0.015610	-0.009644	-3.362753	NaN
1209	1.000000	1.242855	7.37687e+06	-55139.1	1105.82	-29740	0.000000	0.000000	7.243294	1.131267	NaN	0.000000	0.001569	0.001683	28.0822	1.325377	0.001885	703.121	17.8947	-168.323	0.668164	1.241525	-0.004919	-0.006249	1.131267	703.121	-0.006126	-0.004113	-275.038	NaN
1209	1.000000	1.252813	7.37687e+06	-55139.1	1105.82	-29740	0.000000	0.000000	7.253565	8.734957	NaN	0.000000	0.001592	0.001665	28.0827	4.597336	0.001921	2392.95	12.4045	10.3014	7.150990	1.251479	0.005039	0.003705	8.734957	2392.95	0.002301	0.001800	4853.57	51535.7
1209	2.000000	1.256355	7.37687e+06	-55139.1	1105.82	-29740	0.000000	0.000000	7.257187	10.6807	NaN	0.000000	0.001564	0.001665	28.0822	5.603673	0.001817	3084.59	6.386660	-167.913	10.6287	1.256044	0.008581	0.008270	10.6807	3084.59	0.005984	0.005050	2115.1	39658.5
1209	2.000000	1.258841	7.37687e+06	-55139.1	1105.82	-29740	0.000000	0.000000	7.259784	13.3692	NaN	0.000000	0.001554	0.001638	28.0831	6.596928	0.001910	3453.14	10.9719	5.836855	13.2726	1.258500	0.011067	0.010726	13.3692	3453.14	0.008164	0.007211	1853.99	37152.4
1209	2.000000	1.261301	7.37687e+06	-55139.1	1105.82	-29740	0.000000	0.000000	7.262385	16.8038	NaN	0.000000	0.001593	0.001650	28.0823	7.272239	0.001946	3737.77	7.450701	-171.32	16.566	1.260945	0.013528	0.013171	16.8038	3737.77	0.010156	0.009355	1796.18	35306.7
1209	2.000000	1.263799	7.37687e+06	-55139.1	1105.82	-29740	0.000000	0.000000	7.265020	20.1298	NaN	0.000000	0.001567	0.001624	28.0845	7.558742	0.001809	4179.18	7.816845	7.547626	19.4302	1.263415	0.016026	0.015641	20.1298	4179.18	0.012413	0.011989	1679.09	34872.4
1209	2.000000	1.266278	7.37687e+06	-55139.1	1105.82	-29740	0.000000	0.000000	7.267611	22.8493	NaN	0.000000	0.001557	0.001660	28.0834	8.088535	0.001942	4165.44	7.428715	-172.284	22.6755	1.265972	0.018504	0.018198	22.8493	4165.44	0.014390	0.014480	1577.94	31625.8
1209	2.000000	1.268755	7.37687e+06	-55139.1	1105.82	-29740	0.000000	0.000000	7.270170	24.862	NaN	0.000000	0.001538	0.001689	28.0839	8.990363	0.002044	4399.2	8.944035	6.241711	24.5264	1.268395	0.020981	0.020621	24.862	4399.2	0.016742	0.017679	1406.28	30228.4
1209	2.000000	1.271293	7.37687e+06	-55139.1	1105.82	-29740	0.000000	0.000000	7.272854	28.3886	NaN	0.000000	0.001573	0.001664	28.0834	9.113816	0.001909	4774.29	4.221831	-169.647	28.0823	1.270909	0.023520	0.023135	28.3886	4774.29	0.019060	0.021087	1346.28	30038.5
1209	2.000000	1.273746	7.37687e+06	-55139.1	1105.82	-29740	0.000000	0.000000	7.275461	32.1625	NaN	0.000000	0.001575	0.001641	28.0839	9.347103	0.001934	4834.02	5.744823	9.081842	31.5363	1.273391	0.025972	0.025617	32.1625	4834.02	0.020982	0.024108	1334.08	28444.4
1209	2.000000	1.276237	7.37687e+06	-55139.1	1105.82	-29740	0.000000	0.000000	7.278039	34.2414	NaN	0.000000	0.001574	0.001642	28.0834	9.896722	0.001866	5303.09	5.277784	-171.779	34.3649	1.276030	0.028464	0.028256	34.2414	5303.09	0.023621	0.028554	1199.16	28672.5
1209	2.000000	1.278744	7.37687e+06	-55139.1	1105.82	-29740	0.000000	0.000000	7.280696	37.895	NaN	0.000000	0.001576	0.001639	28.0845	10.3708	0.001943	5337.88	7.281496	6.772555	37.4423	1.278411	0.030971	0.030637	37.895	5337.88	0.025646	0.032202	1176.8	27177.1
1209	2.000000	1.281215	7.37687e+06	-55139.1	1105.82	-29740	0.000000	0.000000	7.283294	41.0019	NaN	0.000000	0.001559	0.001642	28.0835	10.8024	0.001957	5521.28	8.541364	-174.113	40.7463	1.280863	0.033441	0.033089	41.0019	5521.28	0.027872	0.036448	1124.96	26422.8
1209	2.000000	1.283720	7.37687e+06	-55139.1	1105.82	-29740	0.000000	0.000000	7.285910	43.6935	NaN	0.000000	0.001578	0.001675	28.0849	11.0944	0.001983	5593.44	7.454487	7.128624	43.1842	1.283370	0.035946	0.035596	43.6935	5593.44	0.030088	0.040926	1067.63	25261.2
1209	2.000000	1.286221	7.37687e+06	-55139.1	1105.82	-29740	0.000000	0.000000	7.288551	47.1103	NaN	0.000000	0.001615	0.001649	28.0834	11.2618	0.002036	5531.1	7.235933	-172.507	46.95	1.285932	0.038447	0.038158	47.1103	5531.1	0.032059	0.045119	1044.13	23790.5
1209	2.000000	1.288721	7.37687e+06	-55139.1	1105.82	-29740	0.000000	0.000000	7.291157	49.6638	NaN	0.000000	0.001601	0.001645	28.0837	11.9722	0.001983	6038.86	8.358820	4.383400	48.9605	1.288351	0.040948	0.040577	49.6638	6038.86	0.034780	0.051234	969.352	24375.2
1209	2.000000	1.291182	7.37687e+06	-55139.1	1105.82	-29740	0.000000	0.000000	7.293742	52.6883	NaN	0.000000	0.001631	0.001657	28.0835	12.3235	0.002006	6143.23	6.593096	-173.609	52.4416	1.290958	0.043408	0.043185	52.6883	6143.23	0.036975	0.056446	933.433	23624.1
1209	2.000000	1.293707	7.37687e+06	-55139.1	1105.82	-29740	0.000000	0.000000	7.296430	56.6346	NaN	0.000000	0.001598	0.001652	28.0837	12.4718	0.001979	6302.35	7.126347	5.582217	56.0343	1.293328	0.045933	0.045554	56.6346	6302.35	0.039194	0.061961	914.033	23132.1
1209	2.000000	1.296210	7.37687e+06	-55139.1	1105.82	-29740	0.000000	0.000000	7.299064	59.8329	NaN	0.000000	0.001598	0.001600	28.0837	12.446	0.001963	6339.02	5.170468	-171.583	59.5468	1.295900	0.048436	0.048127	59.8329	6339.02	0.041357	0.067581	885.346	22278.3
1209	2.000000	1.298678	7.37687e+06	-55139.1	1105.82	-29740	0.000000	0.000000	7.301683	63.5035	NaN	0.000000	0.001635	0.001617	28.0823	13.4216	0.001996	6725.32	7.751372	4.405638	61.8922	1.298310	0.050904	0.050536	63.5035	6725.32	0.043822	0.074280	854.926	22545
1209	2.000000	1.301218	7.37687e+06	-55139.1	1105.82	-29740	0.000000	0.000000	7.304375	67.1998	NaN	0.000000	0.001622	0.001623	28.0823	13.7858	0.001921	7176.55	8.982404	-177.352	67.1168	1.300952	0.053444	0.053178	67.1998	7176.55	0.046421	0.081672	822.796	22943
1209	2.000000	1.303730	7.37687e+06	-55139.1	1105.82	-29740	0.000000	0.000000	7.307073	71.7193	NaN	0.000000	0.001637	0.001657	28.0824	14.1166	0.002047	6895.87	8.633579	4.057075	71.0944	1.303312	0.055956	0.055538	71.7193	6895.87	0.048156	0.086799	826.266	21384.7
1209	2.000000	1.306202	7.37687e+06	-55139.1	1105.82	-29740	0.000000	0.000000	7.309695	75.3723	NaN	0.000000	0.001601	0.001662	28.0821	14.5976	0.002004	7282.48	8.386574	-176.562	75.4401	1.305940	0.058428	0.058167	75.3723	7282.48	0.050666	0.094482	797.746	21646.1
1209	2.000000	1.308707	7.37687e+06	-55139.1	1105.82	-29740	0.000000	0.000000	7.312388	79.9269	NaN	0.000000	0.001616	0.001655	28.0828	14.8367	0.002008	7389.68	7.999753	4.470148	79.622	1.308307	0.060934	0.060533	79.9269	7389.68	0.052822	0.101334	788.747	21209
1209	2.000000	1.311193	7.37687e+06	-55139.1	1105.82	-29740	0.000000	0.000000	7.315029	83.7039	NaN	0.000000	0.001641	0.001656	28.0824	15.1812	0.002098	7235.22	7.374009	-174.796	83.2538	1.310841	0.063419	0.063067	83.7039	7235.22	0.054742	0.107633	777.681	20149
1209	2.000000	1.313710	7.37687e+06	-55139.1	1105.82	-29740	0.000000	0.000000	7.317753	88.7368	NaN	0.000000	0.001571	0.001604	28.0824	15.4863	0.001975	7842.23	7.929609	2.599586	87.8198	1.313297	0.065936	0.065523	88.7368	7842.23	0.057449	0.116821	759.596	20962.9
1209	2.000000	1.316224	7.37687e+06	-55139.1	1105.82	-29740	0.000000	0.000000	7.320343	90.5843	NaN	0.000000	0.001597	0.001633	28.082	15.8973	0.001995	7970.51	5.947417	-175.558	90.943	1.315886	0.068451	0.068112	90.5843	7970.51	0.059927	0.125546	721.523	20552.2
1209	2.000000	1.318674	7.37687e+06	-55139.1	1105.82	-29740	0.000000	0.000000	7.323057	97.0205	NaN	0.000000	0.001562	0.001667	28.0825	16.0726	0.001914	8395.79	6.001217	4.660967	96.1395	1.318325	0.070900	0.070551	97.0205	8395.79	0.062233	0.133937	724.375	20959.7
1209	2.000000	1.321152	7.37687e+06	-55139.1	1105.82	-29740	0.000000	0.000000	7.325698	100.969	NaN	0.000000	0.001569	0.001618	28.0821	16.7338	0.001965	8515.52	6.947579	-176.141	100.58	1.320876	0.073378	0.073102	100.969	8515.52	0.064485	0.142382	709.141	20618.5
1209	2.000000	1.323664	7.37687e+06	-55139.1	1105.82	-29740	0.000000	0.000000	7.328432	106.381	NaN	0.000000	0.001541	0.001684	28.0822	16.8837	0.001952	8651.39	6.203110	4.286500	105.805	1.323337	0.075890	0.075563	106.381	8651.39	0.066667	0.150796	705.46	20354.7
1209	2.000000	1.326206	7.37687e+06	-55139.1	1105.82	-29740	0.000000	0.000000	7.331163	110.942	NaN	0.000000	0.001542	0.001667	28.0822	16.969	0.001972	8603.51	5.727467	-174.968	110.344	1.325868	0.078432	0.078094	110.942	8603.51	0.068761	0.159084	697.377	19707.7
1209	2.000000	1.328676	7.37687e+06	-55139.1	1105.82	-29740	0.000000	0.000000	7.333849	116.192	NaN	0.000000	0.001545	0.001666	28.0824	17.3849	0.001883	9230.67	5.254408	4.105513	115.036	1.328345	0.080903	0.080572	116.192	9230.67	0.071462	0.170086	683.138	20449
1209	2.000000	1.331158	7.37687e+06	-55139.1	1105.82	-29740	0.000000	0.000000	7.336544	121.397	NaN	0.000000	0.001557	0.001699	28.0822	18.4137	0.001959	9398.18	5.952073	-176.799	121.018	1.330918	0.083384	0.083144	121.397	9398.18	0.073696	0.179447	676.505	20269.8
1209	2.000000	1.333665	7.37687e+06	-55139.1	1105.82	-29740	0.000000	0.000000	7.339355	128.758	NaN	0.000000	0.001540	0.001652	28.0835	18.4658	0.001858	9938.37	6.285918	1.993555	128.015	1.333337	0.085891	0.085564	128.758	9938.37	0.076175	0.190109	677.285	20825.1
1209	2.000000	1.336149	7.37687e+06	-55139.1	1105.82	-29740	0.000000	0.000000	7.342078	134.571	NaN	0.000000	0.001567	0.001672	28.0836	18.4992	0.001950	9487.4	6.885369	-176.732	134.336	1.335808	0.088375	0.088034	134.571	9487.4	0.077737	0.196979	683.175	19530.4
1209	2.000000	1.338670	7.37687e+06	-55139.1	1105.82	-29740	0.000000	0.000000	7.344797	139.41	NaN	0.000000	0.001545	0.001650	28.0836	19.5995	0.001957	10014.4	6.274360	2.458795	137.596	1.338249	0.090896	0.090475	139.41	10014.4	0.080455	0.209198	666.401	20004
1209	2.000000	1.341147	7.37687e+06	-55139.1	1105.82	-29740	0.000000	0.000000	7.347458	143.866	NaN	0.000000	0.001567	0.001638	28.0834	20.2015	0.002035	9924.71	6.652316	-177.834	143.035	1.340877	0.093373	0.093103	143.866	9924.71	0.082501	0.218626	658.048	19392.8
1209	2.000000	1.343686	7.37687e+06	-55139.1	1105.82	-29740	0.000000	0.000000	7.350311	151.505	NaN	0.000000	0.001574	0.001629	28.0835	20.5068	0.001975	10381.1	5.941187	2.559677	150.442	1.343294	0.095912	0.095520	151.505	10381.1	0.084966	0.230239	658.033	19766.3
1209	2.000000	1.346125	7.37687e+06	-55139.1	1105.82	-29740	0.000000	0.000000	7.353061	159.039	NaN	0.000000	0.001527	0.001638	28.0837	20.4468	0.001966	10402.3	4.799211	-175.517	156.705	1.345803	0.098352	0.098029	159.039	10402.3	0.086885	0.239476	664.113	19421
1209	2.000000	1.348627	7.37687e+06	-55139.1	1105.82	-29740	0.000000	0.000000	7.355813	165.151	NaN	0.000000	0.001537	0.001633	28.0835	21.1322	0.001859	11370.4	8.280110	0.213083	162.613	1.348293	0.100853	0.100519	165.151	11370.4	0.089959	0.254626	648.603	20587.3
1209	2.000000	1.351099	7.37687e+06	-55139.1	1105.82	-29740	0.000000	0.000000	7.358571	172.089	NaN	0.000000	0.001568	0.001642	28.0842	21.6654	0.001987	10902.9	5.331335	-176.861	170.393	1.350825	0.103326	0.103051	172.089	10902.9	0.091488	0.262320	656.026	19449.2
1209	2.000000	1.352628	7.37687e+06	-55139.1	1105.82	-29740	0.000000	0.000000	7.360238	175.459	NaN	0.000000	0.001559	0.001695	28.0842	22.2174	0.002031	10936.8	7.375398	1.718239	173.505	1.352205	0.104854	0.104431	175.459	10936.8	0.092822	0.269123	651.965	19261.5