File: remote_trans/data/nanoindenter/0828-1/data/Data_2025-08-06,11h17m57s/2025-07-22_16-23-58_1_1133.txt
2025-07-22, 16:23:58, 1
Index	Phase	Displacement	Time	Pos X	Pos Y	Pos Z	Rot A	Rot B	Piezo Z	Force A	Force B	Gripper	Voltage A	Voltage B	Temperature	Amplitude force	Amplitude pos	Stiffness	Phase shift	Phase excitation	Force A raw	Displacement raw	HMax	HMax raw	Real Force	Real Stiffness	Contact Depth	Area	Hardness	Reduced Mod.
[#]	[#]	[um]	[s]	[um]	[um]	[um]	[m°]	[m°]	[um]	[uN]	[uN]	[V]	[V]	[V]	[°C]	[uN]	[um]	[N/m]	[°]	[°]	[uN]	[um]	[um]	[um]	[uN]	[N/m]	[um]	[um^2]	[MPa]	[MPa]
1133	1.000000	0.002286	7.37613e+06	-56789.1	1055.82	-29738.1	0.000000	0.000000	6.002811	-0.038474	NaN	0.000000	0.001677	0.001765	28.0825	0.028533	0.000847	33.6991	-102.534	-169.339	-0.030179	0.001014	-1.064212	-1.065484	-0.038474	33.6991	-1.063356	-1.614044E+14	2.383706E-16	NaN
1133	1.000000	0.010243	7.37613e+06	-56789.1	1055.82	-29738.1	0.000000	0.000000	6.010767	-0.084502	NaN	0.000000	0.001687	0.001785	28.0821	0.034273	0.000915	37.4569	90.8806	-160.345	-0.052355	0.008940	-1.056255	-1.057558	-0.084502	37.4569	-1.054563	-1.229540E+14	6.872624E-16	NaN
1133	1.000000	0.018254	7.37613e+06	-56789.1	1055.82	-29738.1	0.000000	0.000000	6.018779	-0.058116	NaN	0.000000	0.001687	0.001774	28.0824	0.039800	0.001714	23.2171	52.1202	-167.551	-0.032047	0.016987	-1.048244	-1.049511	-0.058116	23.2171	-1.046366	-9.540317E+13	6.091652E-16	NaN
1133	1.000000	0.026262	7.37613e+06	-56789.1	1055.82	-29738.1	0.000000	0.000000	6.026787	-0.042564	NaN	0.000000	0.001645	0.001780	28.0822	0.026198	0.001733	15.1216	118.587	-168.85	0.014985	0.024902	-1.040236	-1.041596	-0.042564	15.1216	-1.038125	-7.391873E+13	5.758171E-16	NaN
1133	1.000000	0.034220	7.37613e+06	-56789.1	1055.82	-29738.1	0.000000	0.000000	6.034748	0.020793	NaN	0.000000	0.001720	0.001764	28.0822	0.066037	0.001845	35.7936	-105.101	-164.562	-0.025967	0.032944	-1.032278	-1.033554	0.020793	35.7936	-1.032713	-6.251386E+13	-3.326095E-16	NaN
1133	1.000000	0.042222	7.37613e+06	-56789.1	1055.82	-29738.1	0.000000	0.000000	6.042747	-0.035463	NaN	0.000000	0.001738	0.001728	28.0822	0.064558	0.002053	31.4449	146.645	-166.289	-0.015261	0.040924	-1.024276	-1.025575	-0.035463	31.4449	-1.023430	-4.689188E+13	7.562804E-16	NaN
1133	1.000000	0.050220	7.37613e+06	-56789.1	1055.82	-29738.1	0.000000	0.000000	6.050748	0.033558	NaN	0.000000	0.001728	0.001745	28.0819	0.013264	0.002004	6.619819	65.1447	-165.525	0.044153	0.048907	-1.016278	-1.017591	0.033558	6.619819	-1.020080	-4.226968E+13	-7.939101E-16	NaN
1133	1.000000	0.058232	7.37613e+06	-56789.1	1055.82	-29738.1	0.000000	0.000000	6.058756	-0.054250	NaN	0.000000	0.001757	0.001749	28.0819	0.010414	0.001853	5.621782	37.4193	-159.325	0.056427	0.056926	-1.008266	-1.009572	-0.054250	5.621782	-1.001028	-2.342155E+13	2.316250E-15	NaN
1133	1.000000	0.066259	7.37613e+06	-56789.1	1055.82	-29738.1	0.000000	0.000000	6.066786	0.007752	NaN	0.000000	0.001738	0.001696	28.082	0.032608	0.002015	16.1798	-71.337	-166.411	0.029639	0.064890	-1.000239	-1.001608	0.007752	16.1798	-1.000598	-2.311135E+13	-3.354185E-16	NaN
1133	1.000000	0.074270	7.37613e+06	-56789.1	1055.82	-29738.1	0.000000	0.000000	6.074796	-0.016278	NaN	0.000000	0.001722	0.001765	28.0834	0.103570	0.002045	50.6502	-118.197	-167.584	0.001681	0.072944	-0.992228	-0.993554	-0.016278	50.6502	-0.991987	-1.769562E+13	9.198978E-16	NaN
1133	1.000000	0.082234	7.37613e+06	-56789.1	1055.82	-29738.1	0.000000	0.000000	6.082760	-0.008638	NaN	0.000000	0.001753	0.001757	28.0831	0.031529	0.002071	15.2218	-166.353	-161.921	-0.004248	0.080949	-0.984264	-0.985549	-0.008638	15.2218	-0.983838	-1.374410E+13	6.285188E-16	NaN
1133	1.000000	0.090216	7.37613e+06	-56789.1	1055.82	-29738.1	0.000000	0.000000	6.090743	0.027679	NaN	0.000000	0.001743	0.001776	28.083	0.071682	0.001990	36.0205	151.883	-166.851	0.001600	0.088952	-0.976282	-0.977546	0.027679	36.0205	-0.976859	-1.106845E+13	-2.500671E-15	NaN
1133	1.000000	0.098241	7.37613e+06	-56789.1	1055.82	-29738.1	0.000000	0.000000	6.098768	0.019560	NaN	0.000000	0.001751	0.001764	28.0829	0.091497	0.001904	48.0606	-104.817	-163.572	0.020907	0.096934	-0.968257	-0.969564	0.019560	48.0606	-0.968562	-8.556359E+12	-2.285995E-15	NaN
1133	1.000000	0.106250	7.37614e+06	-56789.1	1055.82	-29738.1	0.000000	0.000000	6.106776	-0.006077	NaN	0.000000	0.001744	0.001752	28.0828	0.109019	0.001985	54.9189	-79.1266	-166.06	-0.079036	0.104889	-0.960248	-0.961609	-0.006077	54.9189	-0.960165	-6.593134E+12	9.216919E-16	NaN
1133	1.000000	0.114232	7.37614e+06	-56789.1	1055.82	-29738.1	0.000000	0.000000	6.114756	-0.051519	NaN	0.000000	0.001737	0.001747	28.0828	0.053667	0.002081	25.7948	111.3	-166.849	0.000639	0.112925	-0.952266	-0.953573	-0.051519	25.7948	-0.950768	-4.924836E+12	1.046116E-14	NaN
1133	1.000000	0.122231	7.37614e+06	-56789.1	1055.82	-29738.1	0.000000	0.000000	6.122759	0.036691	NaN	0.000000	0.001763	0.001775	28.0829	0.097093	0.002072	46.8668	-105.393	-163.417	0.010219	0.120996	-0.944267	-0.945502	0.036691	46.8668	-0.944854	-4.098442E+12	-8.952403E-15	NaN
1133	1.000000	0.130270	7.37614e+06	-56789.1	1055.82	-29738.1	0.000000	0.000000	6.130797	-0.004431	NaN	0.000000	0.001716	0.001829	28.0827	0.070276	0.002082	33.7612	-73.9379	-164.925	-0.020302	0.128945	-0.936228	-0.937553	-0.004431	33.7612	-0.936129	-3.125441E+12	1.417740E-15	NaN
1133	1.000000	0.138230	7.37614e+06	-56789.1	1055.82	-29738.1	0.000000	0.000000	6.138757	0.004654	NaN	0.000000	0.001760	0.001794	28.083	0.036061	0.002008	17.9621	-41.9488	-166.832	-0.068276	0.137015	-0.928268	-0.929483	0.004654	17.9621	-0.928463	-2.462896E+12	-1.889600E-15	NaN
1133	1.000000	0.146271	7.37614e+06	-56789.1	1055.82	-29738.1	0.000000	0.000000	6.146796	-0.040142	NaN	0.000000	0.001778	0.001822	28.0828	0.082386	0.001951	42.2344	-121.154	-169.286	-0.120585	0.144913	-0.920227	-0.921585	-0.040142	42.2344	-0.919515	-1.864884E+12	2.152504E-14	NaN
1133	1.000000	0.154238	7.37614e+06	-56789.1	1055.82	-29738.1	0.000000	0.000000	6.154762	-0.054322	NaN	0.000000	0.001685	0.001800	28.0831	0.113029	0.002084	54.2238	136.757	-163.919	-0.070221	0.152900	-0.912260	-0.913598	-0.054322	54.2238	-0.911509	-1.453930E+12	3.736221E-14	NaN
1133	1.000000	0.162273	7.37614e+06	-56789.1	1055.82	-29738.1	0.000000	0.000000	6.162795	-0.103134	NaN	0.000000	0.001691	0.001819	28.083	0.041679	0.001811	23.0202	75.4579	-166.892	-0.084931	0.160981	-0.904225	-0.905517	-0.103134	23.0202	-0.900865	-1.044122E+12	9.877571E-14	NaN
1133	1.000000	0.170306	7.37614e+06	-56789.1	1055.82	-29738.1	0.000000	0.000000	6.170831	-0.022346	NaN	0.000000	0.001707	0.001831	28.0828	0.103573	0.001940	53.3925	-140.216	-168.545	0.032366	0.168941	-0.896192	-0.897557	-0.022346	53.3925	-0.895879	-8.940680E+11	2.499330E-14	NaN
1133	1.000000	0.178266	7.37614e+06	-56789.1	1055.82	-29738.1	0.000000	0.000000	6.178793	-0.001463	NaN	0.000000	0.001739	0.001796	28.0828	0.082249	0.002033	40.4531	116.536	-165.931	-0.024422	0.176955	-0.888232	-0.889543	-0.001463	40.4531	-0.888204	-7.041130E+11	2.077900E-15	NaN
1133	1.000000	0.186300	7.37614e+06	-56789.1	1055.82	-29738.1	0.000000	0.000000	6.186828	0.038435	NaN	0.000000	0.001726	0.001762	28.0828	0.090205	0.001952	46.2061	-62.8574	-168.665	0.066020	0.184935	-0.880198	-0.881563	0.038435	46.2061	-0.880822	-5.595319E+11	-6.869098E-14	NaN
1133	1.000000	0.194289	7.37614e+06	-56789.1	1055.82	-29738.1	0.000000	0.000000	6.194817	0.029124	NaN	0.000000	0.001704	0.001725	28.0828	0.075565	0.001949	38.7749	64.411	-163.418	-0.005937	0.192968	-0.872209	-0.873530	0.029124	38.7749	-0.872772	-4.354548E+11	-6.688145E-14	NaN
1133	1.000000	0.202295	7.37614e+06	-56789.1	1055.82	-29738.1	0.000000	0.000000	6.202818	-0.088470	NaN	0.000000	0.001717	0.001796	28.0829	0.085778	0.001879	45.6434	76.5183	-164.033	-0.072389	0.200983	-0.864203	-0.865515	-0.088470	45.6434	-0.862750	-3.186651E+11	2.776276E-13	NaN
1133	1.000000	0.210269	7.37614e+06	-56789.1	1055.82	-29738.1	0.000000	0.000000	6.210796	-0.003297	NaN	0.000000	0.001734	0.001780	28.0819	0.097450	0.001962	49.663	-104.426	-167.063	0.070972	0.208945	-0.856229	-0.857553	-0.003297	49.663	-0.856179	-2.596556E+11	1.269889E-14	NaN
1133	1.000000	0.218288	7.37614e+06	-56789.1	1055.82	-29738.1	0.000000	0.000000	6.218814	-0.024206	NaN	0.000000	0.001767	0.001761	28.0815	0.128530	0.002017	63.7131	134.604	-164.027	-0.061753	0.216950	-0.848210	-0.849548	-0.024206	63.7131	-0.847925	-2.007425E+11	1.205799E-13	NaN
1133	1.000000	0.226283	7.37614e+06	-56789.1	1055.82	-29738.1	0.000000	0.000000	6.226808	-0.042734	NaN	0.000000	0.001702	0.001773	28.0816	0.117953	0.002103	56.0783	15.9642	-166.053	0.018622	0.225000	-0.840215	-0.841498	-0.042734	56.0783	-0.839643	-1.550450E+11	2.756258E-13	NaN
1133	1.000000	0.234286	7.37614e+06	-56789.1	1055.82	-29738.1	0.000000	0.000000	6.234810	-0.063644	NaN	0.000000	0.001696	0.001754	28.0816	0.060724	0.002066	29.3863	-40.6572	-162.76	0.006219	0.232976	-0.832212	-0.833522	-0.063644	29.3863	-0.830587	-1.168811E+11	5.445182E-13	NaN
1133	1.000000	0.242280	7.37614e+06	-56789.1	1055.82	-29738.1	0.000000	0.000000	6.242806	-0.015585	NaN	0.000000	0.001676	0.001740	28.0815	0.037052	0.001963	18.8745	17.8402	-162.256	-0.008543	0.240943	-0.824218	-0.825555	-0.015585	18.8745	-0.823599	-9.397417E+10	1.658464E-13	NaN
1133	1.000000	0.250311	7.37614e+06	-56789.1	1055.82	-29738.1	0.000000	0.000000	6.250835	-0.054041	NaN	0.000000	0.001709	0.001730	28.0817	0.054021	0.001948	27.7262	103.199	-166.102	-0.064901	0.249006	-0.816187	-0.817492	-0.054041	27.7262	-0.814725	-7.123163E+10	7.586610E-13	NaN
1133	1.000000	0.258296	7.37614e+06	-56789.1	1055.82	-29738.1	0.000000	0.000000	6.258820	-0.059210	NaN	0.000000	0.001688	0.001732	28.0816	0.039621	0.002023	19.5819	-145.276	-166.126	-0.067856	0.256926	-0.808203	-0.809572	-0.059210	19.5819	-0.805935	-5.412654E+10	1.093927E-12	NaN
1133	1.000000	0.266289	7.37614e+06	-56789.1	1055.82	-29738.1	0.000000	0.000000	6.266816	0.012347	NaN	0.000000	0.001693	0.001756	28.0818	0.026169	0.002000	13.0864	76.3261	-162.149	0.014179	0.265004	-0.800209	-0.801494	0.012347	13.0864	-0.800917	-4.627040E+10	-2.668511E-13	NaN
1133	1.000000	0.274346	7.37614e+06	-56789.1	1055.82	-29738.1	0.000000	0.000000	6.274868	-0.120072	NaN	0.000000	0.001688	0.001738	28.0815	0.064792	0.001922	33.7141	-25.108	-163.85	-0.062825	0.273045	-0.792152	-0.793453	-0.120072	33.7141	-0.789481	-3.236156E+10	3.710332E-12	NaN
1133	1.000000	0.282277	7.37614e+06	-56789.1	1055.82	-29738.1	0.000000	0.000000	6.282808	0.086237	NaN	0.000000	0.001694	0.001768	28.0815	0.076222	0.001976	38.5771	-121.472	-165.828	-0.039359	0.281056	-0.784221	-0.785442	0.086237	38.5771	-0.785897	-2.893037E+10	-2.980858E-12	NaN
1133	1.000000	0.290330	7.37614e+06	-56789.1	1055.82	-29738.1	0.000000	0.000000	6.290855	-0.019749	NaN	0.000000	0.001708	0.001754	28.0817	0.031037	0.002015	15.4018	-127.43	-167.446	-0.045096	0.289009	-0.776168	-0.777489	-0.019749	15.4018	-0.775207	-2.070565E+10	9.538088E-13	NaN
1133	1.000000	0.298337	7.37614e+06	-56789.1	1055.82	-29738.1	0.000000	0.000000	6.298864	0.027205	NaN	0.000000	0.001686	0.001743	28.0817	0.019986	0.002046	9.769213	163.503	-164.36	0.056777	0.296967	-0.768161	-0.769531	0.027205	9.769213	-0.770250	-1.772981E+10	-1.534403E-12	NaN
1133	1.000000	0.306315	7.37614e+06	-56789.1	1055.82	-29738.1	0.000000	0.000000	6.306843	0.018938	NaN	0.000000	0.001707	0.001747	28.0821	0.069473	0.001989	34.926	118.447	-164.068	-0.065457	0.304987	-0.760183	-0.761512	0.018938	34.926	-0.760589	-1.310141E+10	-1.445530E-12	NaN
1133	1.000000	0.314336	7.37614e+06	-56789.1	1055.82	-29738.1	0.000000	0.000000	6.314858	-0.098077	NaN	0.000000	0.001698	0.001723	28.0817	0.021010	0.002011	10.4497	94.0349	-164.572	-0.032898	0.313031	-0.752162	-0.753467	-0.098077	10.4497	-0.745123	-8.069062E+9	1.215468E-11	NaN
1133	1.000000	0.322375	7.37614e+06	-56789.1	1055.82	-29738.1	0.000000	0.000000	6.322901	-0.001483	NaN	0.000000	0.001679	0.001716	28.0819	0.065302	0.001904	34.2976	-164.173	-165.311	-0.073355	0.321014	-0.744123	-0.745484	-0.001483	34.2976	-0.744091	-7.812134E+9	1.898072E-13	NaN
1133	1.000000	0.330346	7.37614e+06	-56789.1	1055.82	-29738.1	0.000000	0.000000	6.330873	0.003973	NaN	0.000000	0.001717	0.001734	28.0819	0.063017	0.001964	32.092	63.9545	-162.046	-0.060923	0.329059	-0.736152	-0.737439	0.003973	32.092	-0.736245	-6.108089E+9	-6.504576E-13	NaN
1133	1.000000	0.338342	7.37614e+06	-56789.1	1055.82	-29738.1	0.000000	0.000000	6.338868	-0.017243	NaN	0.000000	0.001722	0.001742	28.0815	0.077571	0.001967	39.446	-147.366	-165.277	-0.019092	0.337011	-0.728156	-0.729487	-0.017243	39.446	-0.727828	-4.690321E+9	3.676375E-12	NaN
1133	1.000000	0.346351	7.37614e+06	-56789.1	1055.82	-29738.1	0.000000	0.000000	6.346877	-0.030833	NaN	0.000000	0.001713	0.001756	28.0833	0.085730	0.002077	41.2769	139.859	-161.335	-0.134818	0.344994	-0.720147	-0.721504	-0.030833	41.2769	-0.719586	-3.621035E+9	8.515008E-12	NaN
1133	1.000000	0.354338	7.37614e+06	-56789.1	1055.82	-29738.1	0.000000	0.000000	6.354862	-0.047651	NaN	0.000000	0.001699	0.001738	28.0829	0.032380	0.001997	16.2122	12.8867	-165.205	-0.030815	0.353079	-0.712160	-0.713419	-0.047651	16.2122	-0.709956	-2.675748E+9	1.780830E-11	NaN
1133	1.000000	0.362348	7.37614e+06	-56789.1	1055.82	-29738.1	0.000000	0.000000	6.362875	-0.010744	NaN	0.000000	0.001687	0.001783	28.0831	0.162110	0.001982	81.8026	179.826	-163.235	-0.026810	0.361081	-0.704150	-0.705417	-0.010744	81.8026	-0.704051	-2.222525E+9	4.834192E-12	NaN
1133	1.000000	0.370321	7.37614e+06	-56789.1	1055.82	-29738.1	0.000000	0.000000	6.370848	-0.006890	NaN	0.000000	0.001721	0.001811	28.0831	0.043661	0.001963	22.2439	-125.753	-164.799	-0.010779	0.369042	-0.696177	-0.697456	-0.006890	22.2439	-0.695944	-1.722411E+9	4.000217E-12	NaN
1133	1.000000	0.378353	7.37614e+06	-56789.1	1055.82	-29738.1	0.000000	0.000000	6.378879	-0.021017	NaN	0.000000	0.001687	0.001747	28.0827	0.080818	0.001996	40.4939	158.414	-163.969	0.044237	0.377096	-0.688145	-0.689402	-0.021017	40.4939	-0.687756	-1.331197E+9	1.578816E-11	NaN
1133	1.000000	0.386380	7.37614e+06	-56789.1	1055.82	-29738.1	0.000000	0.000000	6.386903	-0.082140	NaN	0.000000	0.001705	0.001734	28.083	0.071495	0.002078	34.4022	-61.0862	-164.088	-0.006763	0.385079	-0.680118	-0.681419	-0.082140	34.4022	-0.678327	-9.892950E+8	8.302873E-11	NaN
1133	1.000000	0.394387	7.37614e+06	-56789.1	1055.82	-29738.1	0.000000	0.000000	6.394911	-0.064156	NaN	0.000000	0.001703	0.001735	28.0829	0.030006	0.002014	14.902	106.88	-165.711	-0.082316	0.393034	-0.672111	-0.673464	-0.064156	14.902	-0.668883	-7.346745E+8	8.732542E-11	NaN
1133	1.000000	0.402372	7.37614e+06	-56789.1	1055.82	-29738.1	0.000000	0.000000	6.402897	-0.028547	NaN	0.000000	0.001716	0.001753	28.0832	0.060273	0.002008	30.0126	-100.319	-162.875	-0.029692	0.401081	-0.664126	-0.665417	-0.028547	30.0126	-0.663413	-6.183114E+8	4.616991E-11	NaN
1133	1.000000	0.410380	7.37614e+06	-56789.1	1055.82	-29738.1	0.000000	0.000000	6.410903	-0.092961	NaN	0.000000	0.001718	0.001761	28.0832	0.066281	0.001949	34.011	173.718	-164.622	-0.118061	0.409104	-0.656118	-0.657394	-0.092961	34.011	-0.654068	-4.604651E+8	2.018855E-10	NaN
1133	1.000000	0.418372	7.37614e+06	-56789.1	1055.82	-29738.1	0.000000	0.000000	6.418899	0.017233	NaN	0.000000	0.001695	0.001754	28.0828	0.039534	0.002005	19.714	104.13	-164.782	-0.065074	0.417048	-0.648126	-0.649450	0.017233	19.714	-0.648782	-3.897015E+8	-4.422184E-11	NaN
1133	1.000000	0.426383	7.37614e+06	-56789.1	1055.82	-29738.1	0.000000	0.000000	6.426907	-0.056666	NaN	0.000000	0.001703	0.001747	28.0829	0.046234	0.002123	21.7813	47.0071	-163.188	-0.027359	0.425104	-0.640115	-0.641394	-0.056666	21.7813	-0.638164	-2.786738E+8	2.033414E-10	NaN
1133	1.000000	0.434388	7.37614e+06	-56789.1	1055.82	-29738.1	0.000000	0.000000	6.434911	-0.072826	NaN	0.000000	0.001661	0.001795	28.0829	0.144481	0.002073	69.6994	0.269626	-166.013	0.045772	0.433060	-0.632110	-0.633438	-0.072826	69.6994	-0.631327	-2.245126E+8	3.243719E-10	NaN
1133	1.000000	0.442395	7.37614e+06	-56789.1	1055.82	-29738.1	0.000000	0.000000	6.442921	-0.015695	NaN	0.000000	0.001662	0.001771	28.0832	0.055282	0.002103	26.2812	45.9528	-165.612	-0.051527	0.441064	-0.624103	-0.625434	-0.015695	26.2812	-0.623655	-1.761421E+8	8.910633E-11	NaN
1133	1.000000	0.450387	7.37614e+06	-56789.1	1055.82	-29738.1	0.000000	0.000000	6.450913	-0.005209	NaN	0.000000	0.001706	0.001791	28.0831	0.046081	0.001847	24.9517	89.5262	-168.523	0.041172	0.449067	-0.616111	-0.617431	-0.005209	24.9517	-0.615955	-1.380448E+8	3.773716E-11	NaN
1133	1.000000	0.458394	7.37614e+06	-56789.1	1055.82	-29738.1	0.000000	0.000000	6.458919	-0.041150	NaN	0.000000	0.001696	0.001744	28.0831	0.111173	0.001934	57.4715	115.895	-167.01	-0.092085	0.457098	-0.608104	-0.609400	-0.041150	57.4715	-0.607567	-1.058373E+8	3.888023E-10	NaN
1133	1.000000	0.466404	7.37614e+06	-56789.1	1055.82	-29738.1	0.000000	0.000000	6.466931	0.004332	NaN	0.000000	0.001699	0.001801	28.0829	0.054803	0.002047	26.7681	40.982	-163.387	-0.030083	0.465012	-0.600094	-0.601486	0.004332	26.7681	-0.600215	-8.383419E+7	-5.167119E-11	NaN
1133	1.000000	0.474418	7.37614e+06	-56789.1	1055.82	-29738.1	0.000000	0.000000	6.474946	0.041216	NaN	0.000000	0.001708	0.001795	28.0829	0.093686	0.001943	48.2243	33.4274	-163.832	0.071467	0.473074	-0.592080	-0.593424	0.041216	48.2243	-0.592721	-6.609646E+7	-6.235701E-10	NaN
1133	1.000000	0.482395	7.37614e+06	-56789.1	1055.82	-29738.1	0.000000	0.000000	6.482923	0.041780	NaN	0.000000	0.001727	0.001781	28.0816	0.084195	0.002131	39.5181	-93.0184	-165.272	-0.019974	0.481109	-0.584103	-0.585389	0.041780	39.5181	-0.584896	-5.155593E+7	-8.103822E-10	NaN
1133	1.000000	0.490410	7.37614e+06	-56789.1	1055.82	-29738.1	0.000000	0.000000	6.490935	-0.039061	NaN	0.000000	0.001701	0.001750	28.0819	0.023080	0.002041	11.3074	142.592	-163.483	-0.044498	0.489151	-0.576088	-0.577347	-0.039061	11.3074	-0.573497	-3.588703E+7	1.088436E-9	NaN
1133	1.000000	0.498433	7.37614e+06	-56789.1	1055.82	-29738.1	0.000000	0.000000	6.498961	0.022930	NaN	0.000000	0.001710	0.001800	28.0817	0.047327	0.001947	24.3046	-48.6369	-168.229	0.028297	0.497100	-0.568065	-0.569398	0.022930	24.3046	-0.568772	-3.087913E+7	-7.425676E-10	NaN
1133	1.000000	0.506417	7.37614e+06	-56789.1	1055.82	-29738.1	0.000000	0.000000	6.506939	-0.113513	NaN	0.000000	0.001677	0.001751	28.0815	0.011205	0.002044	5.481779	12.5233	-162.385	-0.082650	0.505136	-0.560081	-0.561362	-0.113513	5.481779	-0.544550	-1.427062E+7	7.954323E-9	NaN
1133	1.000000	0.514397	7.37614e+06	-56789.1	1055.82	-29738.1	0.000000	0.000000	6.514923	-0.009991	NaN	0.000000	0.001687	0.001778	28.0818	0.060854	0.001846	32.9591	-59.9352	-169.376	-0.115731	0.513074	-0.552101	-0.553424	-0.009991	32.9591	-0.551874	-1.802650E+7	5.542214E-10	NaN
1133	1.000000	0.522427	7.37614e+06	-56789.1	1055.82	-29738.1	0.000000	0.000000	6.522953	-0.011026	NaN	0.000000	0.001679	0.001741	28.0817	0.111714	0.002026	55.132	64.9056	-166.664	-0.025242	0.521124	-0.544071	-0.545374	-0.011026	55.132	-0.543921	-1.398694E+7	7.883150E-10	NaN
1133	1.000000	0.530439	7.37614e+06	-56789.1	1055.82	-29738.1	0.000000	0.000000	6.530963	-0.056537	NaN	0.000000	0.001693	0.001752	28.0815	0.117156	0.001950	60.0913	-163.679	-166.472	-0.039936	0.529109	-0.536059	-0.537389	-0.056537	60.0913	-0.535353	-1.063887E+7	5.314167E-9	NaN
1133	1.000000	0.538427	7.37614e+06	-56789.1	1055.82	-29738.1	0.000000	0.000000	6.538951	-0.055264	NaN	0.000000	0.001694	0.001757	28.0817	0.009935	0.002000	4.968769	115.867	-165.96	-0.056669	0.537145	-0.528071	-0.529353	-0.055264	4.968769	-0.519729	-6.45402e+06	8.562779E-9	NaN
1133	1.000000	0.546435	7.37614e+06	-56789.1	1055.82	-29738.1	0.000000	0.000000	6.546962	0.005134	NaN	0.000000	0.001722	0.001735	28.0814	0.048363	0.001878	25.7573	122.603	-165.897	-0.010421	0.545154	-0.520063	-0.521344	0.005134	25.7573	-0.520212	-6.55463e+06	-7.832856E-10	NaN
1133	1.000000	0.554445	7.37614e+06	-56789.1	1055.82	-29738.1	0.000000	0.000000	6.554971	-0.024870	NaN	0.000000	0.001687	0.001738	28.0817	0.026808	0.001890	14.1854	-13.9034	-163.98	0.077408	0.553159	-0.512053	-0.513339	-0.024870	14.1854	-0.510738	-4.83828e+06	5.140259E-9	NaN
1133	1.000000	0.562453	7.37614e+06	-56789.1	1055.82	-29738.1	0.000000	0.000000	6.562976	-0.083993	NaN	0.000000	0.001709	0.001714	28.0815	0.029511	0.002026	14.5684	149.42	-163.951	-0.052415	0.561097	-0.504045	-0.505401	-0.083993	14.5684	-0.499721	-3.39727e+06	2.472379E-8	NaN
1133	1.000000	0.570440	7.37614e+06	-56789.1	1055.82	-29738.1	0.000000	0.000000	6.570968	0.018802	NaN	0.000000	0.001706	0.001735	28.0814	0.072850	0.002055	35.4457	126.485	-164.714	-0.021638	0.569134	-0.496058	-0.497364	0.018802	35.4457	-0.496456	-3.05884e+06	-6.146726E-9	NaN
1133	1.000000	0.578475	7.37614e+06	-56789.1	1055.82	-29738.1	0.000000	0.000000	6.579000	-0.031309	NaN	0.000000	0.001734	0.001717	28.0815	0.057468	0.002130	26.9751	58.5108	-163.599	0.017080	0.577135	-0.488023	-0.489363	-0.031309	26.9751	-0.487153	-2.26776e+06	1.380612E-8	NaN
1133	1.000000	0.586425	7.37614e+06	-56789.1	1055.82	-29738.1	0.000000	0.000000	6.586956	0.092951	NaN	0.000000	0.001729	0.001733	28.0813	0.111007	0.001990	55.7921	146.732	-162.244	0.115465	0.585181	-0.480073	-0.481317	0.092951	55.7921	-0.481322	-1.87946e+06	-4.945625E-8	NaN
1133	1.000000	0.594452	7.37614e+06	-56789.1	1055.82	-29738.1	0.000000	0.000000	6.594978	-0.005126	NaN	0.000000	0.001750	0.001723	28.0814	0.021955	0.001831	11.9938	170.309	-166.285	-0.039824	0.593128	-0.472046	-0.473370	-0.005126	11.9938	-0.471726	-1.37913e+06	3.716976E-9	NaN
1133	1.000000	0.602467	7.37614e+06	-56789.1	1055.82	-29738.1	0.000000	0.000000	6.602993	-0.031270	NaN	0.000000	0.001720	0.001717	28.0816	0.021700	0.002027	10.7037	143.019	-162.19	-0.058866	0.601122	-0.464031	-0.465376	-0.031270	10.7037	-0.461840	-1.002e+06	3.120809E-8	NaN
1133	1.000000	0.610459	7.37614e+06	-56789.1	1055.82	-29738.1	0.000000	0.000000	6.610982	-0.097574	NaN	0.000000	0.001718	0.001710	28.0816	0.077456	0.001933	40.0713	22.6763	-164.658	-0.051418	0.609181	-0.456039	-0.457317	-0.097574	40.0713	-0.454212	-782772	1.246516E-7	NaN
1133	1.000000	0.618459	7.37614e+06	-56789.1	1055.82	-29738.1	0.000000	0.000000	6.618984	-0.057528	NaN	0.000000	0.001694	0.001710	28.083	0.085559	0.001995	42.8928	-14.5363	-165.649	-0.100660	0.617141	-0.448039	-0.449357	-0.057528	42.8928	-0.447033	-620216	9.275512E-8	NaN
1133	1.000000	0.626491	7.37614e+06	-56789.1	1055.82	-29738.1	0.000000	0.000000	6.627015	-0.083158	NaN	0.000000	0.001713	0.001708	28.0828	0.051193	0.001966	26.0347	-49.8706	-164.156	-0.102416	0.625172	-0.440007	-0.441327	-0.083158	26.0347	-0.437611	-456706	1.820815E-7	NaN
1133	1.000000	0.634522	7.37614e+06	-56789.1	1055.82	-29738.1	0.000000	0.000000	6.635047	-0.033702	NaN	0.000000	0.001683	0.001729	28.0827	0.029311	0.002094	13.9959	69.7784	-165.697	-0.044774	0.633216	-0.431976	-0.433282	-0.033702	13.9959	-0.430170	-358484	9.401299E-8	NaN
1133	1.000000	0.642467	7.37614e+06	-56789.1	1055.82	-29738.1	0.000000	0.000000	6.642989	-0.103468	NaN	0.000000	0.001678	0.001731	28.0831	0.100367	0.002068	48.5273	-63.1974	-165.067	-0.062150	0.641211	-0.424031	-0.425287	-0.103468	48.5273	-0.422432	-278544	3.714609E-7	NaN
1133	1.000000	0.650489	7.37614e+06	-56789.1	1055.82	-29738.1	0.000000	0.000000	6.651018	0.069038	NaN	0.000000	0.001685	0.001744	28.0829	0.097441	0.001996	48.8224	164.46	-168.32	-0.094263	0.649164	-0.416009	-0.417334	0.069038	48.8224	-0.417070	-233796	-2.952901E-7	NaN
1133	1.000000	0.658445	7.37614e+06	-56789.1	1055.82	-29738.1	0.000000	0.000000	6.658976	0.097659	NaN	0.000000	0.001685	0.001730	28.083	0.090594	0.002080	43.5499	62.7486	-166.845	0.006557	0.657193	-0.408053	-0.409305	0.097659	43.5499	-0.409735	-183921	-5.309850E-7	NaN
1133	1.000000	0.666482	7.37614e+06	-56789.1	1055.82	-29738.1	0.000000	0.000000	6.667007	-0.031971	NaN	0.000000	0.001682	0.001742	28.0832	0.073407	0.001951	37.6203	98.6273	-161.025	-0.141776	0.665180	-0.400016	-0.401318	-0.031971	37.6203	-0.399379	-130958	2.441309E-7	NaN
1133	1.000000	0.674472	7.37614e+06	-56789.1	1055.82	-29738.1	0.000000	0.000000	6.674998	-0.022929	NaN	0.000000	0.001664	0.001710	28.0831	0.022455	0.002098	10.7044	122.232	-165.281	-0.045167	0.673187	-0.392026	-0.393311	-0.022929	10.7044	-0.390420	-97536.9	2.350838E-7	NaN
1133	1.000000	0.682519	7.37614e+06	-56789.1	1055.82	-29738.1	0.000000	0.000000	6.683042	-0.083357	NaN	0.000000	0.001696	0.001757	28.0832	0.083279	0.002053	40.5576	-168.897	-163.782	-0.043499	0.681181	-0.383979	-0.385317	-0.083357	40.5576	-0.382438	-74965	1.111949E-6	NaN
1133	1.000000	0.690504	7.37614e+06	-56789.1	1055.82	-29738.1	0.000000	0.000000	6.691029	-0.022365	NaN	0.000000	0.001707	0.001713	28.083	0.019995	0.002005	9.974440	126.333	-167.017	-0.004642	0.689228	-0.375994	-0.377270	-0.022365	9.974440	-0.374313	-57304.3	3.902810E-7	NaN
1133	1.000000	0.698494	7.37614e+06	-56789.1	1055.82	-29738.1	0.000000	0.000000	6.699018	-0.073913	NaN	0.000000	0.001713	0.001720	28.083	0.008980	0.001810	4.962291	-33.0113	-165.914	0.094958	0.697166	-0.368004	-0.369332	-0.073913	4.962291	-0.356832	-32064.8	2.305119E-6	NaN
1133	1.000000	0.706498	7.37614e+06	-56789.1	1055.82	-29738.1	0.000000	0.000000	6.707024	-0.015962	NaN	0.000000	0.001683	0.001697	28.083	0.059678	0.002066	28.8849	85.5575	-167.539	-0.028526	0.705188	-0.360000	-0.361310	-0.015962	28.8849	-0.359585	-35143.8	4.541951E-7	NaN
1133	1.000000	0.714512	7.37614e+06	-56789.1	1055.82	-29738.1	0.000000	0.000000	6.715039	0.004688	NaN	0.000000	0.001650	0.001755	28.083	0.011271	0.002055	5.485877	151.642	-164.827	-0.097197	0.713186	-0.351986	-0.353312	0.004688	5.485877	-0.352627	-27868.3	-1.682213E-7	NaN
1133	1.000000	0.722507	7.37614e+06	-56789.1	1055.82	-29738.1	0.000000	0.000000	6.723032	-0.029018	NaN	0.000000	0.001666	0.001762	28.083	0.013649	0.001933	7.060021	46.9055	-169.829	-0.022003	0.721202	-0.343991	-0.345296	-0.029018	7.060021	-0.340908	-18827.5	1.541280E-6	NaN
1133	1.000000	0.730504	7.37614e+06	-56789.1	1055.82	-29738.1	0.000000	0.000000	6.731026	-0.109449	NaN	0.000000	0.001675	0.001725	28.0829	0.095160	0.002079	45.773	-144.676	-166.274	-0.098550	0.729183	-0.335994	-0.337315	-0.109449	45.773	-0.334201	-15028.2	7.282907E-6	NaN
1133	1.000000	0.738510	7.37614e+06	-56789.1	1055.82	-29738.1	0.000000	0.000000	6.739036	-0.017998	NaN	0.000000	0.001663	0.001719	28.083	0.093967	0.002163	43.4434	118.603	-163.559	0.015412	0.737166	-0.327988	-0.329332	-0.017998	43.4434	-0.327677	-12061.8	1.492146E-6	NaN
1133	1.000000	0.746484	7.37614e+06	-56789.1	1055.82	-29738.1	0.000000	0.000000	6.747010	-0.002677	NaN	0.000000	0.001644	0.001742	28.0829	0.042675	0.001941	21.9809	-153.179	-166.633	-0.093178	0.745205	-0.320014	-0.321293	-0.002677	21.9809	-0.319923	-9279.12	2.885208E-7	NaN
1133	1.000000	0.754512	7.37614e+06	-56789.1	1055.82	-29738.1	0.000000	0.000000	6.755037	-0.039902	NaN	0.000000	0.001633	0.001736	28.0818	0.045142	0.002039	22.1377	26.5298	-164.793	-0.036209	0.753193	-0.311986	-0.313305	-0.039902	22.1377	-0.310634	-6767.71	5.895872E-6	NaN
1133	1.000000	0.762517	7.37614e+06	-56789.1	1055.82	-29738.1	0.000000	0.000000	6.763042	-0.026063	NaN	0.000000	0.001652	0.001752	28.0817	0.049186	0.002020	24.3444	-39.9231	-164.959	-0.050184	0.761214	-0.303981	-0.305284	-0.026063	24.3444	-0.303178	-5246.94	4.967273E-6	NaN
1133	1.000000	0.770558	7.37614e+06	-56789.1	1055.82	-29738.1	0.000000	0.000000	6.771086	0.036845	NaN	0.000000	0.001640	0.001744	28.0821	0.088332	0.002102	42.0225	-151.621	-164.789	-0.114580	0.769211	-0.295940	-0.297287	0.036845	42.0225	-0.296598	-4187.3	-8.799111E-6	NaN
1133	1.000000	0.778540	7.37614e+06	-56789.1	1055.82	-29738.1	0.000000	0.000000	6.779067	0.030357	NaN	0.000000	0.001648	0.001751	28.0821	0.034420	0.001829	18.8149	-64.1193	-167.997	0.041524	0.777231	-0.287958	-0.289267	0.030357	18.8149	-0.289169	-3242.22	-9.363177E-6	NaN
1133	1.000000	0.786562	7.37614e+06	-56789.1	1055.82	-29738.1	0.000000	0.000000	6.787088	-0.010351	NaN	0.000000	0.001654	0.001724	28.0818	0.062173	0.002054	30.2683	-64.6618	-163.801	-0.048873	0.785243	-0.279936	-0.281255	-0.010351	30.2683	-0.279680	-2334.22	4.434409E-6	NaN
1133	1.000000	0.794526	7.37614e+06	-56789.1	1055.82	-29738.1	0.000000	0.000000	6.795053	0.014950	NaN	0.000000	0.001636	0.001707	28.0818	0.109080	0.002200	49.5749	-88.4447	-162.264	0.070550	0.793238	-0.271972	-0.273260	0.014950	49.5749	-0.272198	-1798.59	-8.311781E-6	NaN
1133	1.000000	0.802537	7.37614e+06	-56789.1	1055.82	-29738.1	0.000000	0.000000	6.803063	-0.012362	NaN	0.000000	0.001630	0.001719	28.0818	0.194438	0.002015	96.4966	33.6337	-161.735	-0.011241	0.801270	-0.263961	-0.265228	-0.012362	96.4966	-0.263865	-1342.95	9.204968E-6	NaN
1133	1.000000	0.810532	7.37614e+06	-56789.1	1055.82	-29738.1	0.000000	0.000000	6.811057	-0.057760	NaN	0.000000	0.001625	0.001724	28.0819	0.088590	0.002023	43.8012	-48.6854	-166.284	-0.077367	0.809290	-0.255966	-0.257208	-0.057760	43.8012	-0.254977	-981.196	5.886672E-5	NaN
1133	1.000000	0.818523	7.37614e+06	-56789.1	1055.82	-29738.1	0.000000	0.000000	6.819051	0.031743	NaN	0.000000	0.001641	0.001721	28.0817	0.125531	0.002081	60.3179	162.215	-166.413	0.074269	0.817263	-0.247975	-0.249235	0.031743	60.3179	-0.248370	-775.767	-4.091844E-5	NaN
1133	1.000000	0.826537	7.37614e+06	-56789.1	1055.82	-29738.1	0.000000	0.000000	6.827063	-0.009982	NaN	0.000000	0.001628	0.001731	28.0821	0.071004	0.002028	35.0198	-111.977	-164.659	0.000825	0.825195	-0.239961	-0.241303	-0.009982	35.0198	-0.239747	-569.649	1.752226E-5	NaN
1133	1.000000	0.834557	7.37614e+06	-56789.1	1055.82	-29738.1	0.000000	0.000000	6.835086	0.053752	NaN	0.000000	0.001658	0.001745	28.082	0.053389	0.002198	24.2904	129.343	-165.89	-0.026836	0.833223	-0.231941	-0.233275	0.053752	24.2904	-0.233600	-456.305	-0.000118	NaN
1133	1.000000	0.842576	7.37614e+06	-56789.1	1055.82	-29738.1	0.000000	0.000000	6.843102	-0.009145	NaN	0.000000	0.001666	0.001736	28.0817	0.074527	0.002006	37.1483	-109.026	-167.027	0.046060	0.841274	-0.223922	-0.225224	-0.009145	37.1483	-0.223737	-318.615	2.870224E-5	NaN
1133	1.000000	0.850539	7.37614e+06	-56789.1	1055.82	-29738.1	0.000000	0.000000	6.851063	-0.066441	NaN	0.000000	0.001683	0.001730	28.0816	0.026009	0.001953	13.3161	-66.8026	-164.831	-0.005211	0.849276	-0.215959	-0.217222	-0.066441	13.3161	-0.212217	-208.286	0.000319	NaN
1133	1.000000	0.858565	7.37614e+06	-56789.1	1055.82	-29738.1	0.000000	0.000000	6.859090	-0.039283	NaN	0.000000	0.001690	0.001704	28.0817	0.100149	0.001980	50.5837	114.885	-166.035	-0.122107	0.857231	-0.207933	-0.209267	-0.039283	50.5837	-0.207351	-173.715	0.000226	NaN
1133	1.000000	0.866602	7.37614e+06	-56789.1	1055.82	-29738.1	0.000000	0.000000	6.867125	-0.088039	NaN	0.000000	0.001671	0.001706	28.0819	0.043570	0.002003	21.7487	-33.1205	-163.624	0.019940	0.865245	-0.199896	-0.201253	-0.088039	21.7487	-0.196860	-116.943	0.000753	NaN
1133	1.000000	0.874562	7.37614e+06	-56789.1	1055.82	-29738.1	0.000000	0.000000	6.875089	0.012632	NaN	0.000000	0.001641	0.001769	28.0818	0.024835	0.002113	11.753	64.6646	-166.576	-0.032575	0.873270	-0.191936	-0.193228	0.012632	11.753	-0.192742	-99.9384	-0.000126	NaN
1133	1.000000	0.882567	7.37614e+06	-56789.1	1055.82	-29738.1	0.000000	0.000000	6.883089	-0.125478	NaN	0.000000	0.001668	0.001773	28.0816	0.064327	0.001853	34.7168	101.483	-163.801	-0.078014	0.881215	-0.183931	-0.185283	-0.125478	34.7168	-0.181220	-64.0024	0.001961	NaN
1133	1.000000	0.890603	7.37614e+06	-56789.1	1055.82	-29738.1	0.000000	0.000000	6.891127	-0.046759	NaN	0.000000	0.001631	0.001749	28.083	0.065372	0.002123	30.7984	118.209	-164.273	0.014568	0.889268	-0.175895	-0.177230	-0.046759	30.7984	-0.174757	-49.6359	0.000942	NaN
1133	1.000000	0.898578	7.37614e+06	-56789.1	1055.82	-29738.1	0.000000	0.000000	6.899104	-0.006028	NaN	0.000000	0.001634	0.001730	28.0829	0.128124	0.001980	64.7185	138.399	-166.906	-0.006738	0.897260	-0.167920	-0.169238	-0.006028	64.7185	-0.167850	-37.687	0.000160	NaN
1133	1.000000	0.906597	7.37614e+06	-56789.1	1055.82	-29738.1	0.000000	0.000000	6.907123	0.001965	NaN	0.000000	0.001669	0.001758	28.0831	0.081721	0.001941	42.0967	35.4803	-161.865	0.053290	0.905257	-0.159902	-0.161241	0.001965	42.0967	-0.159937	-27.3438	-7.187070E-5	NaN
1133	1.000000	0.914552	7.37614e+06	-56789.1	1055.82	-29738.1	0.000000	0.000000	6.915074	-0.117779	NaN	0.000000	0.001651	0.001743	28.083	0.030755	0.002005	15.3362	81.1132	-162.478	-0.064434	0.913265	-0.151946	-0.153233	-0.117779	15.3362	-0.146186	-15.4193	0.007638	NaN
1133	1.000000	0.922575	7.37614e+06	-56789.1	1055.82	-29738.1	0.000000	0.000000	6.923102	0.013803	NaN	0.000000	0.001670	0.001717	28.083	0.031412	0.001988	15.8011	68.2724	-167.511	-0.048656	0.921266	-0.143924	-0.145232	0.013803	15.8011	-0.144579	-14.4002	-0.000959	NaN
1133	1.000000	0.930581	7.37614e+06	-56789.1	1055.82	-29738.1	0.000000	0.000000	6.931107	-0.021632	NaN	0.000000	0.001669	0.001720	28.0835	0.034104	0.002008	16.9804	34.3849	-162.581	-0.024343	0.929249	-0.135917	-0.137249	-0.021632	16.9804	-0.134961	-9.496274	0.002278	NaN
1133	1.000000	0.938605	7.37614e+06	-56789.1	1055.82	-29738.1	0.000000	0.000000	6.939129	-0.051638	NaN	0.000000	0.001719	0.001728	28.0829	0.074174	0.001991	37.2495	-60.0635	-164.7	0.088780	0.937321	-0.127893	-0.129177	-0.051638	37.2495	-0.126854	-6.615220	0.007806	NaN
1133	1.000000	0.946631	7.37614e+06	-56789.1	1055.82	-29738.1	0.000000	0.000000	6.947159	0.024223	NaN	0.000000	0.001710	0.001698	28.083	0.059599	0.001959	30.4178	12.1895	-166.803	0.074578	0.945256	-0.119867	-0.121242	0.024223	30.4178	-0.120464	-4.936682	-0.004907	NaN
1133	1.000000	0.954626	7.37614e+06	-56789.1	1055.82	-29738.1	0.000000	0.000000	6.955153	0.005896	NaN	0.000000	0.001716	0.001705	28.0828	0.016579	0.001948	8.510529	62.7103	-164.971	-0.024915	0.953323	-0.111872	-0.113175	0.005896	8.510529	-0.112391	-3.373001	-0.001748	NaN
1133	1.000000	0.962579	7.37614e+06	-56789.1	1055.82	-29738.1	0.000000	0.000000	6.963105	-0.012102	NaN	0.000000	0.001698	0.001755	28.0829	0.100271	0.002092	47.9245	-128.658	-160.997	0.058014	0.961275	-0.103919	-0.105223	-0.012102	47.9245	-0.103729	-2.206170	0.005486	NaN
1133	1.000000	0.970607	7.37614e+06	-56789.1	1055.82	-29738.1	0.000000	0.000000	6.971134	0.019264	NaN	0.000000	0.001693	0.001766	28.0833	0.098998	0.001860	53.2376	163.545	-164.649	0.045703	0.969304	-0.095891	-0.097194	0.019264	53.2376	-0.096163	-1.499057	-0.012851	NaN
1133	1.000000	0.978618	7.37614e+06	-56789.1	1055.82	-29738.1	0.000000	0.000000	6.979143	-0.038554	NaN	0.000000	0.001722	0.001770	28.0829	0.125835	0.001978	63.6208	12.1267	-162.822	-0.095266	0.977313	-0.087880	-0.089185	-0.038554	63.6208	-0.087425	-0.939571	0.041033	NaN
1133	1.000000	0.986620	7.37614e+06	-56789.1	1055.82	-29738.1	0.000000	0.000000	6.987224	1.876237	NaN	0.000000	0.001722	0.001729	28.083	1.407520	0.001887	745.937	5.206470	-165.671	1.606907	0.985287	-0.079878	-0.081211	1.876237	745.937	-0.081764	-0.684775	-2.739930	NaN
1133	1.000000	0.994612	7.37614e+06	-56789.1	1055.82	-29738.1	0.000000	0.000000	6.995267	3.122096	NaN	0.000000	0.001732	0.001748	28.083	1.820481	0.001929	943.867	17.0912	-168.416	3.169205	0.993400	-0.071886	-0.073098	3.122096	943.867	-0.074367	-0.444735	-7.020129	NaN
1133	1.000000	1.002632	7.37614e+06	-56789.1	1055.82	-29738.1	0.000000	0.000000	7.003289	3.160553	NaN	0.000000	0.001711	0.001729	28.0833	2.585477	0.001994	1296.66	16.8896	-165.579	3.141366	1.001277	-0.063866	-0.065221	3.160553	1296.66	-0.065694	-0.260480	-12.1336	NaN
1133	1.000000	1.010619	7.37614e+06	-56789.1	1055.82	-29738.1	0.000000	0.000000	7.011350	4.964903	NaN	0.000000	0.001696	0.001746	28.0833	3.015637	0.001954	1543.54	16.502	-167.686	4.508761	1.009282	-0.055879	-0.057216	4.964903	1543.54	-0.058291	-0.160775	-30.8811	NaN
1133	1.000000	1.018633	7.37614e+06	-56789.1	1055.82	-29738.1	0.000000	0.000000	7.019340	4.381320	NaN	0.000000	0.001679	0.001734	28.0829	2.900316	0.001870	1551.08	17.1307	-167.22	4.918670	1.017306	-0.047865	-0.049192	4.381320	1551.08	-0.049983	-0.091145	-48.0698	NaN
1133	1.000000	1.026610	7.37614e+06	-56789.1	1055.82	-29738.1	0.000000	0.000000	7.027278	3.417112	NaN	0.000000	0.001681	0.001735	28.0825	2.660953	0.001988	1338.28	17.7273	-168.18	3.423117	1.025329	-0.039888	-0.041170	3.417112	1338.28	-0.041803	-0.051316	-66.5901	NaN
1133	1.000000	1.034658	7.37614e+06	-56789.1	1055.82	-29738.1	0.000000	0.000000	7.035311	3.083565	NaN	0.000000	0.001657	0.001713	28.0818	2.792918	0.002111	1322.77	16.3286	-166.301	2.950694	1.033320	-0.031840	-0.033178	3.083565	1322.77	-0.033588	-0.029119	-105.895	NaN
1133	1.000000	1.042631	7.37614e+06	-56789.1	1055.82	-29738.1	0.000000	0.000000	7.043256	2.385302	NaN	0.000000	0.001699	0.001725	28.0821	2.402785	0.002008	1196.4	23.4078	-169.866	2.383032	1.041267	-0.023867	-0.025231	2.385302	1196.4	-0.025362	-0.017243	-138.335	NaN
1133	1.000000	1.050628	7.37614e+06	-56789.1	1055.82	-29738.1	0.000000	0.000000	7.051257	2.497483	NaN	0.000000	0.001675	0.001773	28.082	2.431385	0.002052	1184.95	22.5797	-169.657	2.423350	1.049344	-0.015870	-0.017154	2.497483	1184.95	-0.017451	-0.010801	-231.221	NaN
1133	1.000000	1.058627	7.37614e+06	-56789.1	1055.82	-29738.1	0.000000	0.000000	7.059270	2.850049	NaN	0.000000	0.001713	0.001746	28.0816	2.561893	0.001935	1324.19	20.5179	-165.62	2.871951	1.057325	-0.007871	-0.009173	2.850049	1324.19	-0.009486	-0.006093	-467.788	NaN
1133	1.000000	1.066624	7.37614e+06	-56789.1	1055.82	-29738.1	0.000000	0.000000	7.067280	3.154723	NaN	0.000000	0.001682	0.001752	28.0819	3.464528	0.002027	1709.42	29.9908	-173.545	3.088421	1.065336	0.000126	-0.001162	3.154723	1709.42	-0.001258	-0.000918	-3436.38	NaN
1133	1.000000	1.074518	7.37614e+06	-56789.1	1055.82	-29738.1	0.000000	0.000000	7.075396	8.539098	NaN	0.000000	0.001693	0.001723	28.0818	8.754531	0.001611	5434.61	14.1805	-176.101	6.544649	1.073215	0.008020	0.006717	8.539098	5434.61	0.006841	0.005877	1452.86	64766.1
1133	2.000000	1.077189	7.37614e+06	-56789.1	1055.82	-29738.1	0.000000	0.000000	7.078288	13.9245	NaN	0.000000	0.001668	0.001742	28.0818	11.8081	0.001832	6444.55	8.043776	-172.414	13.0945	1.076846	0.010691	0.010348	13.9245	6444.55	0.009070	0.008167	1705.06	65154.8
1133	2.000000	1.079156	7.37614e+06	-56789.1	1055.82	-29738.1	0.000000	0.000000	7.080558	21.2761	NaN	0.000000	0.001689	0.001776	28.0818	13.0388	0.001632	7990.07	1.491999	-168.742	19.7149	1.078757	0.012658	0.012259	21.2761	7990.07	0.010661	0.009925	2143.66	73275
1133	2.000000	1.081119	7.37614e+06	-56789.1	1055.82	-29738.1	0.000000	0.000000	7.082873	29.8348	NaN	0.000000	0.001707	0.001774	28.0817	16.0339	0.001747	9176.25	6.901760	-175.463	28.1863	1.080805	0.014621	0.014307	29.8348	9176.25	0.012182	0.011709	2547.97	77477.2
1133	2.000000	1.083171	7.37614e+06	-56789.1	1055.82	-29738.1	0.000000	0.000000	7.085193	36.3322	NaN	0.000000	0.001701	0.001726	28.0818	17.8513	0.001748	10210.4	2.777966	-171.853	35.0649	1.082771	0.016673	0.016273	36.3322	10210.4	0.014004	0.013981	2598.74	78895.6
1133	2.000000	1.085090	7.37614e+06	-56789.1	1055.82	-29738.1	0.000000	0.000000	7.087554	47.0781	NaN	0.000000	0.001709	0.001747	28.0817	19.9319	0.001851	10770.1	5.414638	-175.178	45.8662	1.084820	0.018592	0.018322	47.0781	10770.1	0.015314	0.015706	2997.43	78516.2
1133	2.000000	1.087097	7.37614e+06	-56789.1	1055.82	-29738.1	0.000000	0.000000	7.089964	56.8664	NaN	0.000000	0.001695	0.001704	28.082	22.2185	0.001676	13258.3	2.407453	-174.969	54.5592	1.086744	0.020599	0.020246	56.8664	13258.3	0.017383	0.018595	3058.16	88830.7
1133	2.000000	1.089097	7.37614e+06	-56789.1	1055.82	-29738.1	0.000000	0.000000	7.092446	68.6132	NaN	0.000000	0.001674	0.001716	28.0817	23.7578	0.001669	14231.2	1.437152	-174.606	66.6479	1.088712	0.022599	0.022214	68.6132	14231.2	0.018983	0.020969	3272.09	89789
1133	2.000000	1.091076	7.37614e+06	-56789.1	1055.82	-29738.1	0.000000	0.000000	7.094911	80.408	NaN	0.000000	0.001674	0.001739	28.0818	26.7229	0.001844	14489.3	4.087085	-176.961	77.8811	1.090762	0.024578	0.024264	80.408	14489.3	0.020416	0.023201	3465.79	86910.2
1133	2.000000	1.093131	7.37614e+06	-56789.1	1055.82	-29738.1	0.000000	0.000000	7.097451	92.195	NaN	0.000000	0.001682	0.001722	28.0817	29.4061	0.001873	15704.1	6.691171	-178.82	92.396	1.092769	0.026633	0.026271	92.195	15704.1	0.022230	0.026168	3523.14	88694.9
1133	2.000000	1.095058	7.37614e+06	-56789.1	1055.82	-29738.1	0.000000	0.000000	7.099967	106.519	NaN	0.000000	0.001665	0.001703	28.0818	29.9212	0.001747	17128.9	1.652604	-176.52	104.561	1.094762	0.028560	0.028264	106.519	17128.9	0.023896	0.029037	3668.4	91838.7
1133	2.000000	1.097062	7.37614e+06	-56789.1	1055.82	-29738.1	0.000000	0.000000	7.102717	124.653	NaN	0.000000	0.001673	0.001724	28.0825	31.9862	0.001792	17853.3	4.323761	-179.887	122.047	1.096776	0.030564	0.030278	124.653	17853.3	0.025327	0.031614	3942.95	91738.5
1133	2.000000	1.099027	7.37614e+06	-56789.1	1055.82	-29738.1	0.000000	0.000000	7.105275	139.077	NaN	0.000000	0.001672	0.001728	28.0828	32.6464	0.001636	19959.6	4.007632	178.772	134.784	1.098727	0.032529	0.032229	139.077	19959.6	0.027303	0.035338	3935.58	97006.5
1133	2.000000	1.100996	7.37614e+06	-56789.1	1055.82	-29738.1	0.000000	0.000000	7.107810	152.833	NaN	0.000000	0.001677	0.001753	28.0842	34.8443	0.001763	19769.2	3.496048	-179.805	149.079	1.100731	0.034498	0.034233	152.833	19769.2	0.028700	0.038092	4012.2	92543.5
1133	2.000000	1.103022	7.37614e+06	-56789.1	1055.82	-29738.1	0.000000	0.000000	7.110426	167.173	NaN	0.000000	0.001695	0.001734	28.0827	36.5789	0.001827	20024	1.646387	-177.029	162.641	1.102726	0.036524	0.036228	167.173	20024	0.030262	0.041289	4048.89	90034.6
1133	2.000000	1.105101	7.37614e+06	-56789.1	1055.82	-29738.1	0.000000	0.000000	7.113144	182.675	NaN	0.000000	0.001676	0.001723	28.0829	38.5272	0.001788	21551.8	6.188696	177.117	184.296	1.104769	0.038603	0.038271	182.675	21551.8	0.032246	0.045528	4012.34	92281.7
1133	2.000000	1.107089	7.37614e+06	-56789.1	1055.82	-29738.1	0.000000	0.000000	7.115906	201.509	NaN	0.000000	0.001659	0.001746	28.083	39.7693	0.001822	21821.5	6.166757	176.939	201.632	1.106673	0.040591	0.040175	201.509	21821.5	0.033665	0.048684	4139.11	90357.7
1133	2.000000	1.109054	7.37614e+06	-56789.1	1055.82	-29738.1	0.000000	0.000000	7.118620	219.72	NaN	0.000000	0.001674	0.001782	28.0828	40.8386	0.001924	21224.3	6.015427	178.079	219.03	1.108708	0.042556	0.042210	219.72	21224.3	0.034792	0.051262	4286.23	85646.4
1133	2.000000	1.111037	7.37614e+06	-56789.1	1055.82	-29738.1	0.000000	0.000000	7.121175	233.632	NaN	0.000000	0.001680	0.001778	28.0841	41.6297	0.001786	23315.1	5.469067	176.9	231.693	1.110644	0.044539	0.044146	233.632	23315.1	0.037023	0.056562	4130.56	89567.3
1133	2.000000	1.113064	7.37614e+06	-56789.1	1055.82	-29738.1	0.000000	0.000000	7.123374	237.786	NaN	0.000000	0.001658	0.001782	28.0827	43.8379	0.001904	23026.1	6.343399	176.358	233.822	1.112801	0.046566	0.046303	237.786	23026.1	0.038821	0.061017	3897.04	85166.3
1133	2.000000	1.115046	7.37614e+06	-56789.1	1055.82	-29738.1	0.000000	0.000000	7.125955	252.347	NaN	0.000000	0.001655	0.001772	28.0827	43.9674	0.001791	24554.2	2.669589	179.487	248.874	1.114636	0.048548	0.048138	252.347	24554.2	0.040840	0.066218	3810.86	87179
1133	2.000000	1.117047	7.37614e+06	-56789.1	1055.82	-29738.1	0.000000	0.000000	7.128453	264.448	NaN	0.000000	0.001640	0.001726	28.0827	46.7271	0.001909	24479.7	4.848146	177.18	262.807	1.116760	0.050549	0.050262	264.448	24479.7	0.042446	0.070504	3750.84	84231.4
1133	2.000000	1.119062	7.37614e+06	-56789.1	1055.82	-29738.1	0.000000	0.000000	7.130552	266.472	NaN	0.000000	0.001689	0.001706	28.0826	47.1072	0.001825	25809	1.932011	179.337	264.322	1.118877	0.052564	0.052379	266.472	25809	0.044820	0.077078	3457.16	84933.2
1133	2.000000	1.121003	7.37614e+06	-56789.1	1055.82	-29738.1	0.000000	0.000000	7.133505	291.06	NaN	0.000000	0.001682	0.001747	28.0836	47.9218	0.001865	25699.5	4.241004	178.529	288.128	1.120635	0.054505	0.054137	291.06	25699.5	0.046011	0.080483	3616.4	82764.8
1133	2.000000	1.122983	7.37614e+06	-56789.1	1055.82	-29738.1	0.000000	0.000000	7.135356	287.937	NaN	0.000000	0.001712	0.001721	28.0828	49.4804	0.001861	26590.8	2.644341	179.214	283.388	1.122627	0.056485	0.056129	287.937	26590.8	0.048364	0.087422	3293.62	82166.4
1133	2.000000	1.124993	7.37614e+06	-56789.1	1055.82	-29738.1	0.000000	0.000000	7.137875	300.306	NaN	0.000000	0.001767	0.001755	28.0829	50.459	0.001840	27428.8	3.080164	178.125	296.249	1.124754	0.058495	0.058256	300.306	27428.8	0.050284	0.093293	3218.96	82045.6
1133	2.000000	1.127122	7.37614e+06	-56789.1	1055.82	-29738.1	0.000000	0.000000	7.140380	309.436	NaN	0.000000	0.001768	0.001728	28.0829	52.1515	0.001729	30165.7	4.520260	176.578	315.742	1.126782	0.060624	0.060284	309.436	30165.7	0.052931	0.101687	3043.03	86427.9
1133	2.000000	1.128984	7.37614e+06	-56789.1	1055.82	-29738.1	0.000000	0.000000	7.143028	328.568	NaN	0.000000	0.001791	0.001757	28.0831	52.3027	0.001728	30259.5	3.920411	176.169	324.414	1.128645	0.062486	0.062147	328.568	30259.5	0.054342	0.106305	3090.8	84792.6
1133	2.000000	1.130950	7.37614e+06	-56789.1	1055.82	-29738.1	0.000000	0.000000	7.145059	330.135	NaN	0.000000	0.001770	0.001752	28.0829	55.0321	0.001848	29779.8	1.935524	178.298	325.378	1.130721	0.064452	0.064223	330.135	29779.8	0.056138	0.112324	2939.12	81181.6
1133	2.000000	1.133054	7.37614e+06	-56789.1	1055.82	-29738.1	0.000000	0.000000	7.148360	359.228	NaN	0.000000	0.001787	0.001740	28.0816	56.2535	0.001819	30928.2	6.017882	175.246	358.082	1.132658	0.066556	0.066160	359.228	30928.2	0.057844	0.118192	3039.35	82192.8
1133	2.000000	1.134956	7.37614e+06	-56789.1	1055.82	-29738.1	0.000000	0.000000	7.150442	363.584	NaN	0.000000	0.001788	0.001704	28.0819	57.2592	0.001737	32961.3	5.651540	173.647	359.167	1.134588	0.068458	0.068089	363.584	32961.3	0.060185	0.126474	2874.77	84679.2
1133	2.000000	1.137096	7.37614e+06	-56789.1	1055.82	-29738.1	0.000000	0.000000	7.152568	363.278	NaN	0.000000	0.001779	0.001734	28.0817	59.9131	0.001894	31635.4	2.918302	177.225	364.497	1.136930	0.070598	0.070432	363.278	31635.4	0.061985	0.133023	2730.95	79247.2
1133	2.000000	1.138970	7.37614e+06	-56789.1	1055.82	-29738.1	0.000000	0.000000	7.155575	390.802	NaN	0.000000	0.001759	0.001710	28.0816	60.7018	0.001888	32152.2	4.955137	174.902	386.51	1.138612	0.072472	0.072113	390.802	32152.2	0.063356	0.138118	2829.48	79042.1
1133	2.000000	1.141202	7.37614e+06	-56789.1	1055.82	-29738.1	0.000000	0.000000	7.158003	395.563	NaN	0.000000	0.001764	0.001701	28.0817	63.9429	0.001897	33706.3	8.400340	173.996	402.92	1.140679	0.074704	0.074181	395.563	33706.3	0.065902	0.147820	2675.97	80097.2
1133	2.000000	1.143007	7.37614e+06	-56789.1	1055.82	-29738.1	0.000000	0.000000	7.160425	410.561	NaN	0.000000	0.001790	0.001723	28.0816	65.0817	0.001898	34282.3	4.501244	174.591	406.284	1.142635	0.076509	0.076137	410.561	34282.3	0.067527	0.154174	2662.97	79769.6
1133	2.000000	1.145126	7.37614e+06	-56789.1	1055.82	-29738.1	0.000000	0.000000	7.162822	417.316	NaN	0.000000	0.001684	0.001703	28.0823	66.7318	0.001857	35933.1	4.453222	174.173	419.305	1.144837	0.078628	0.078339	417.316	35933.1	0.069918	0.163753	2548.44	81128.4
1133	2.000000	1.147048	7.37614e+06	-56789.1	1055.82	-29738.1	0.000000	0.000000	7.165849	444.199	NaN	0.000000	0.001707	0.001702	28.082	69.3676	0.001954	35493.4	6.250643	172.654	446.242	1.146679	0.080550	0.080181	444.199	35493.4	0.071163	0.168852	2630.69	78916.5
1133	2.000000	1.148939	7.37614e+06	-56789.1	1055.82	-29738.1	0.000000	0.000000	7.168037	451.399	NaN	0.000000	0.001680	0.001727	28.0819	68.9862	0.001831	37677.3	3.834621	174.193	445.448	1.148634	0.082441	0.082136	451.399	37677.3	0.073455	0.178427	2529.87	81493.3
1133	2.000000	1.150986	7.37614e+06	-56789.1	1055.82	-29738.1	0.000000	0.000000	7.171222	479.045	NaN	0.000000	0.001682	0.001687	28.0819	70.764	0.001819	38903.5	4.026060	174.682	477.101	1.150607	0.084488	0.084109	479.045	38903.5	0.075253	0.186109	2573.99	82390.6
1133	2.000000	1.152990	7.37614e+06	-56789.1	1055.82	-29738.1	0.000000	0.000000	7.173582	487.719	NaN	0.000000	0.001656	0.001760	28.0819	72.2404	0.001816	39772.5	2.611799	176.014	484.935	1.152710	0.086492	0.086212	487.719	39772.5	0.077295	0.195022	2500.84	82283.7
1133	2.000000	1.155060	7.37614e+06	-56789.1	1055.82	-29738.1	0.000000	0.000000	7.176255	502.358	NaN	0.000000	0.001714	0.001676	28.0823	73.4589	0.001878	39110.1	3.176686	175.463	504.066	1.154720	0.088562	0.088222	502.358	39110.1	0.078929	0.202294	2483.3	79445.8
1133	2.000000	1.157080	7.37614e+06	-56789.1	1055.82	-29738.1	0.000000	0.000000	7.178842	516.141	NaN	0.000000	0.001716	0.001740	28.0821	76.4615	0.001851	41317.4	7.398188	170.625	522.521	1.156745	0.090582	0.090247	516.141	41317.4	0.081213	0.212669	2426.97	81856.8
1133	2.000000	1.158948	7.37614e+06	-56789.1	1055.82	-29738.1	0.000000	0.000000	7.181856	543.996	NaN	0.000000	0.001710	0.001728	28.0822	76.4482	0.001938	39449.9	4.920903	173.647	540.515	1.158671	0.092450	0.092173	543.996	39449.9	0.082108	0.216797	2509.24	77409.1
1133	2.000000	1.161130	7.37614e+06	-56789.1	1055.82	-29738.1	0.000000	0.000000	7.184370	552.07	NaN	0.000000	0.001706	0.001739	28.0818	79.029	0.001761	44869.3	9.647716	167.567	560.929	1.160753	0.094632	0.094255	552.07	44869.3	0.085404	0.232333	2376.2	85048.6
1133	2.000000	1.162968	7.37614e+06	-56789.1	1055.82	-29738.1	0.000000	0.000000	7.187033	572.142	NaN	0.000000	0.001724	0.001726	28.0819	79.0304	0.001727	45772.4	2.278161	175.266	568.499	1.162631	0.096470	0.096133	572.142	45772.4	0.087095	0.240496	2379.01	85275.4
1133	2.000000	1.165015	7.37614e+06	-56789.1	1055.82	-29738.1	0.000000	0.000000	7.189909	592.275	NaN	0.000000	0.001676	0.001740	28.0823	80.5971	0.001731	46550.4	6.042008	171.652	591.591	1.164586	0.098517	0.098088	592.275	46550.4	0.088974	0.249724	2371.72	85107.2
1133	2.000000	1.166967	7.37614e+06	-56789.1	1055.82	-29738.1	0.000000	0.000000	7.192272	602.265	NaN	0.000000	0.001666	0.001710	28.0834	82.4738	0.001791	46042.7	2.731600	173.818	600.629	1.166774	0.100469	0.100276	602.265	46042.7	0.090659	0.258134	2333.15	82796.5
1133	2.000000	1.168895	7.37614e+06	-56789.1	1055.82	-29738.1	0.000000	0.000000	7.194788	616.549	NaN	0.000000	0.001678	0.001743	28.0834	83.0724	0.001746	47575.4	2.165385	174.055	610.331	1.168660	0.102397	0.102162	616.549	47575.4	0.092678	0.268384	2297.27	83903.1
1133	2.000000	1.170997	7.37614e+06	-56789.1	1055.82	-29738.1	0.000000	0.000000	7.197968	642.764	NaN	0.000000	0.001697	0.001717	28.0831	86.2542	0.001839	46909.7	4.678499	172.315	641.297	1.170661	0.104499	0.104163	642.764	46909.7	0.094222	0.276349	2325.91	81528
1133	2.000000	1.172937	7.37614e+06	-56789.1	1055.82	-29738.1	0.000000	0.000000	7.199855	641.478	NaN	0.000000	0.001683	0.001715	28.0831	87.7519	0.001864	47077	1.315707	175.34	635.882	1.172726	0.106439	0.106228	641.478	47077	0.096219	0.286812	2236.58	80312.5
1133	2.000000	1.173877	7.37614e+06	-56789.1	1055.82	-29738.1	0.000000	0.000000	7.201672	662.769	NaN	0.000000	0.001668	0.001736	28.0832	88.9123	0.001742	51041.6	4.208142	171.912	658.162	1.173565	0.107379	0.107067	662.769	51041.6	0.097641	0.294372	2251.47	85950.7