File: remote_trans/data/nanoindenter/0828-1/data/Data_2025-08-06,11h17m57s/2025-07-22_16-23-58_1_271.txt
2025-07-22, 16:23:58, 1
Index	Phase	Displacement	Time	Pos X	Pos Y	Pos Z	Rot A	Rot B	Piezo Z	Force A	Force B	Gripper	Voltage A	Voltage B	Temperature	Amplitude force	Amplitude pos	Stiffness	Phase shift	Phase excitation	Force A raw	Displacement raw	HMax	HMax raw	Real Force	Real Stiffness	Contact Depth	Area	Hardness	Reduced Mod.
[#]	[#]	[um]	[s]	[um]	[um]	[um]	[m°]	[m°]	[um]	[uN]	[uN]	[V]	[V]	[V]	[°C]	[uN]	[um]	[N/m]	[°]	[°]	[uN]	[um]	[um]	[um]	[uN]	[N/m]	[um]	[um^2]	[MPa]	[MPa]
271	1.000000	0.002396	7.36771e+06	-52189.1	955.819	-29750.2	0.000000	0.000000	6.002833	-0.015324	NaN	0.000000	0.001680	0.001659	28.0795	0.046539	0.001069	43.5504	119.055	-158.962	0.024243	0.001110	-1.112206	-1.113492	-0.015324	43.5504	-1.111942	-7.250231E+14	2.113575E-17	NaN
271	1.000000	0.012466	7.36771e+06	-52189.1	955.82	-29750.2	0.000000	0.000000	6.012904	0.011445	NaN	0.000000	0.001623	0.001663	28.0795	0.093911	0.001256	74.7604	105.512	18.6501	-0.076061	0.011003	-1.102136	-1.103599	0.011445	74.7604	-1.102251	-5.373788E+14	-2.129867E-17	NaN
271	1.000000	0.022347	7.36771e+06	-52189.1	955.818	-29750.2	0.000000	0.000000	6.022781	-0.079502	NaN	0.000000	0.001666	0.001626	28.0794	0.042009	0.001672	25.1219	-149.575	-166.404	-0.009021	0.021063	-1.092255	-1.093540	-0.079502	25.1219	-1.089882	-3.666258E+14	2.168490E-16	NaN
271	1.000000	0.032333	7.36771e+06	-52189.1	955.819	-29750.2	0.000000	0.000000	6.032770	-0.002872	NaN	0.000000	0.001646	0.001647	28.0804	0.100425	0.001914	52.4803	-0.083241	10.9604	-0.031771	0.030970	-1.082269	-1.083632	-0.002872	52.4803	-1.082228	-2.893628E+14	9.923660E-18	NaN
271	1.000000	0.042322	7.36771e+06	-52189.1	955.819	-29750.2	0.000000	0.000000	6.042758	-0.023252	NaN	0.000000	0.001651	0.001658	28.0807	0.035502	0.002050	17.3205	154.678	-168.817	-0.080933	0.041025	-1.072280	-1.073578	-0.023252	17.3205	-1.071273	-2.062035E+14	1.127637E-16	NaN
271	1.000000	0.052325	7.36771e+06	-52189.1	955.819	-29750.2	0.000000	0.000000	6.052762	-0.022477	NaN	0.000000	0.001636	0.001673	28.0808	0.063240	0.002063	30.6471	-112.982	13.8298	-0.027053	0.050976	-1.062277	-1.063626	-0.022477	30.6471	-1.061727	-1.534725E+14	1.464552E-16	NaN
271	1.000000	0.062322	7.36771e+06	-52189.1	955.819	-29750.2	0.000000	0.000000	6.062759	-0.018068	NaN	0.000000	0.001647	0.001642	28.0806	0.091527	0.002035	44.9785	156.613	-166.682	-0.048572	0.061023	-1.052280	-1.053579	-0.018068	44.9785	-1.051979	-1.135043E+14	1.591864E-16	NaN
271	1.000000	0.072313	7.36771e+06	-52189.1	955.819	-29750.2	0.000000	0.000000	6.072750	-5.865901E-5	NaN	0.000000	0.001709	0.001618	28.0806	0.042596	0.002055	20.7265	-22.5072	14.6964	-0.058179	0.071000	-1.042289	-1.043602	-5.865901E-5	20.7265	-1.042287	-8.408586E+13	6.976084E-19	NaN
271	1.000000	0.082311	7.36771e+06	-52189.1	955.818	-29750.2	0.000000	0.000000	6.082747	-0.030324	NaN	0.000000	0.001663	0.001663	28.081	0.082258	0.001995	41.2404	158.876	-166.961	-0.016594	0.080995	-1.032291	-1.033607	-0.030324	41.2404	-1.031740	-6.065656E+13	4.999294E-16	NaN
271	1.000000	0.092306	7.36771e+06	-52189.1	955.818	-29750.2	0.000000	0.000000	6.092744	0.005447	NaN	0.000000	0.001630	0.001626	28.0808	0.073055	0.002056	35.5331	-10.0385	13.5076	-0.000602	0.091027	-1.022296	-1.023575	0.005447	35.5331	-1.022411	-4.543494E+13	-1.198813E-16	NaN
271	1.000000	0.102319	7.36771e+06	-52189.1	955.819	-29750.2	0.000000	0.000000	6.102758	0.032205	NaN	0.000000	0.001637	0.001638	28.0808	0.058557	0.002024	28.9256	8.994387	-171.247	0.001032	0.100984	-1.012283	-1.013618	0.032205	28.9256	-1.013118	-3.406806E+13	-9.453184E-16	NaN
271	1.000000	0.112321	7.36771e+06	-52189.1	955.819	-29750.2	0.000000	0.000000	6.112759	0.015804	NaN	0.000000	0.001686	0.001664	28.0809	0.159226	0.002013	79.0844	179.856	13.1468	-0.057084	0.110965	-1.002281	-1.003637	0.015804	79.0844	-1.002431	-2.446214E+13	-6.460785E-16	NaN
271	1.000000	0.122344	7.36771e+06	-52189.1	955.819	-29750.2	0.000000	0.000000	6.122780	-0.042935	NaN	0.000000	0.001655	0.001632	28.0809	0.121570	0.002080	58.435	117.15	-168.387	-0.051683	0.121039	-0.992258	-0.993563	-0.042935	58.435	-0.991707	-1.754274E+13	2.447464E-15	NaN
271	1.000000	0.132348	7.36771e+06	-52189.1	955.82	-29750.2	0.000000	0.000000	6.132783	-0.058456	NaN	0.000000	0.001693	0.001674	28.0811	0.080323	0.001926	41.7142	-5.366854	15.4692	0.042974	0.130990	-0.982254	-0.983612	-0.058456	41.7142	-0.981203	-1.266554E+13	4.615323E-15	NaN
271	1.000000	0.142341	7.36771e+06	-52189.1	955.819	-29750.2	0.000000	0.000000	6.142779	0.011837	NaN	0.000000	0.001723	0.001679	28.081	0.095222	0.002019	47.1558	156.346	-167.342	0.073040	0.140975	-0.972261	-0.973628	0.011837	47.1558	-0.972450	-9.653300E+12	-1.226261E-15	NaN
271	1.000000	0.152359	7.36771e+06	-52189.1	955.818	-29750.2	0.000000	0.000000	6.152797	0.011638	NaN	0.000000	0.001748	0.001661	28.081	0.104075	0.002044	50.9267	39.3287	13.3557	0.057585	0.151004	-0.962244	-0.963598	0.011638	50.9267	-0.962415	-7.070090E+12	-1.646094E-15	NaN
271	1.000000	0.162342	7.36771e+06	-52189.1	955.818	-29750.2	0.000000	0.000000	6.162779	-0.003589	NaN	0.000000	0.001759	0.001660	28.0809	0.039145	0.002024	19.342	72.601	-169.335	-0.003921	0.161005	-0.952261	-0.953597	-0.003589	19.342	-0.952121	-5.136130E+12	6.988087E-16	NaN
271	1.000000	0.172348	7.36771e+06	-52189.1	955.82	-29750.2	0.000000	0.000000	6.172787	0.045146	NaN	0.000000	0.001714	0.001670	28.0797	0.094423	0.002056	45.9325	-0.450550	15.348	0.112418	0.171022	-0.942254	-0.943580	0.045146	45.9325	-0.942991	-3.868070E+12	-1.167135E-14	NaN
271	1.000000	0.182388	7.36771e+06	-52189.1	955.819	-29750.2	0.000000	0.000000	6.182823	-0.045759	NaN	0.000000	0.001721	0.001655	28.0798	0.074928	0.002105	35.5936	-100.046	-164.751	-0.019796	0.181018	-0.932214	-0.933584	-0.045759	35.5936	-0.931250	-2.685765E+12	1.703755E-14	NaN
271	1.000000	0.192378	7.36771e+06	-52189.1	955.819	-29750.2	0.000000	0.000000	6.192812	-0.071090	NaN	0.000000	0.001715	0.001645	28.08	0.052972	0.001955	27.0955	75.3644	18.0679	-0.046006	0.191027	-0.922224	-0.923575	-0.071090	27.0955	-0.920257	-1.908411E+12	3.725073E-14	NaN
271	1.000000	0.202340	7.36771e+06	-52189.1	955.818	-29750.2	0.000000	0.000000	6.202774	-0.083466	NaN	0.000000	0.001729	0.001672	28.0799	0.035621	0.001913	18.6218	52.7579	-165.109	-0.022528	0.201042	-0.912262	-0.913560	-0.083466	18.6218	-0.908901	-1.340647E+12	6.225810E-14	NaN
271	1.000000	0.212377	7.36771e+06	-52189.1	955.818	-29750.2	0.000000	0.000000	6.212811	-0.068684	NaN	0.000000	0.001712	0.001697	28.0798	0.134726	0.002066	65.2192	85.7508	14.32	-0.097407	0.211033	-0.902225	-0.903569	-0.068684	65.2192	-0.901436	-1.062833E+12	6.462322E-14	NaN
271	1.000000	0.222392	7.36771e+06	-52189.1	955.818	-29750.2	0.000000	0.000000	6.222832	0.069392	NaN	0.000000	0.001704	0.001656	28.0798	0.106606	0.001830	58.251	97.3411	-169.393	-0.013075	0.221060	-0.892210	-0.893542	0.069392	58.251	-0.893104	-8.201069E+11	-8.461367E-14	NaN
271	1.000000	0.232370	7.36771e+06	-52189.1	955.819	-29750.2	0.000000	0.000000	6.232806	-0.028240	NaN	0.000000	0.001707	0.001683	28.0798	0.039363	0.001985	19.8268	163.561	14.5293	0.019366	0.231061	-0.882232	-0.883541	-0.028240	19.8268	-0.881164	-5.655256E+11	4.993616E-14	NaN
271	1.000000	0.242377	7.36771e+06	-52189.1	955.818	-29750.2	0.000000	0.000000	6.242812	-0.055946	NaN	0.000000	0.001712	0.001689	28.0798	0.057694	0.001944	29.685	105.883	-166.594	-0.055604	0.241070	-0.872225	-0.873533	-0.055946	29.685	-0.870812	-4.096627E+11	1.365654E-13	NaN
271	1.000000	0.252408	7.36771e+06	-52189.1	955.819	-29750.2	0.000000	0.000000	6.252846	0.007693	NaN	0.000000	0.001720	0.001688	28.0796	0.111313	0.002006	55.4763	-53.5311	12.8719	0.105805	0.251046	-0.862194	-0.863556	0.007693	55.4763	-0.862298	-3.142107E+11	-2.448231E-14	NaN
271	1.000000	0.262379	7.36771e+06	-52189.1	955.819	-29750.2	0.000000	0.000000	6.262814	-0.056596	NaN	0.000000	0.001744	0.001639	28.0797	0.019391	0.002124	9.131139	-86.1224	-165.387	0.019260	0.261087	-0.852223	-0.853515	-0.056596	9.131139	-0.847574	-1.985598E+11	2.850322E-13	NaN
271	1.000000	0.272414	7.36771e+06	-52189.1	955.819	-29750.2	0.000000	0.000000	6.272850	-0.031397	NaN	0.000000	0.001761	0.001642	28.0796	0.058682	0.002120	27.6779	116.266	16.0297	-0.008069	0.271025	-0.842188	-0.843577	-0.031397	27.6779	-0.841337	-1.634583E+11	1.920788E-13	NaN
271	1.000000	0.282403	7.36771e+06	-52189.1	955.819	-29750.2	0.000000	0.000000	6.282842	0.030478	NaN	0.000000	0.001726	0.001648	28.0795	0.063234	0.001821	34.7272	-99.6664	-165.412	-0.002419	0.281070	-0.832199	-0.833532	0.030478	34.7272	-0.832857	-1.254608E+11	-2.429291E-13	NaN
271	1.000000	0.292442	7.36771e+06	-52189.1	955.819	-29750.2	0.000000	0.000000	6.292878	-0.024462	NaN	0.000000	0.001710	0.001659	28.0794	0.020871	0.002034	10.2594	-10.9269	15.5152	-0.099608	0.291030	-0.822160	-0.823572	-0.024462	10.2594	-0.820372	-8.496814E+10	2.878971E-13	NaN
271	1.000000	0.302436	7.36771e+06	-52189.1	955.819	-29750.2	0.000000	0.000000	6.302871	-0.066291	NaN	0.000000	0.001745	0.001681	28.0808	0.029533	0.002055	14.3729	-135.727	-164.296	-0.178924	0.301148	-0.812166	-0.813454	-0.066291	14.3729	-0.808707	-5.902351E+10	1.123128E-12	NaN
271	1.000000	0.312401	7.36771e+06	-52189.1	955.819	-29750.2	0.000000	0.000000	6.312837	-0.034775	NaN	0.000000	0.001747	0.001655	28.0809	0.092795	0.002019	45.9691	70.4581	13.1268	0.061820	0.311064	-0.802201	-0.803538	-0.034775	45.9691	-0.801633	-4.731892E+10	7.349019E-13	NaN
271	1.000000	0.322398	7.36771e+06	-52189.1	955.818	-29750.2	0.000000	0.000000	6.322836	0.017476	NaN	0.000000	0.001748	0.001652	28.0809	0.089540	0.001943	46.0855	-75.3062	-162.472	-0.031332	0.321113	-0.792204	-0.793489	0.017476	46.0855	-0.792489	-3.555364E+10	-4.915503E-13	NaN
271	1.000000	0.332424	7.36771e+06	-52189.1	955.819	-29750.2	0.000000	0.000000	6.332862	0.010954	NaN	0.000000	0.001707	0.001678	28.0808	0.003871	0.001920	2.016053	-146.678	10.8176	0.003355	0.331043	-0.782178	-0.783559	0.010954	2.016053	-0.786253	-2.925438E+10	-3.744431E-13	NaN
271	1.000000	0.342432	7.36771e+06	-52189.1	955.818	-29750.2	0.000000	0.000000	6.342867	-0.045645	NaN	0.000000	0.001694	0.001702	28.0807	0.078008	0.002089	37.3475	111.169	-167.36	0.011767	0.341182	-0.772171	-0.773421	-0.045645	37.3475	-0.771254	-1.829597E+10	2.494800E-12	NaN
271	1.000000	0.352423	7.36771e+06	-52189.1	955.819	-29750.2	0.000000	0.000000	6.352859	-0.020875	NaN	0.000000	0.001717	0.001685	28.0808	0.041940	0.002053	20.4241	21.0608	11.1611	-0.005245	0.351130	-0.762180	-0.763472	-0.020875	20.4241	-0.761413	-1.344391E+10	1.552764E-12	NaN
271	1.000000	0.362469	7.36771e+06	-52189.1	955.818	-29750.2	0.000000	0.000000	6.362907	0.024315	NaN	0.000000	0.001735	0.001664	28.0809	0.088475	0.002031	43.5542	166.132	-165.183	-0.033915	0.361070	-0.752134	-0.753532	0.024315	43.5542	-0.752552	-1.018499E+10	-2.387300E-12	NaN
271	1.000000	0.372447	7.36771e+06	-52189.1	955.819	-29750.2	0.000000	0.000000	6.372883	-0.029446	NaN	0.000000	0.001741	0.001643	28.081	0.085995	0.001829	47.0259	42.8075	14.9032	-0.021453	0.371037	-0.742155	-0.743565	-0.029446	47.0259	-0.741686	-7.244590E+9	4.064543E-12	NaN
271	1.000000	0.382419	7.36771e+06	-52189.1	955.82	-29750.2	0.000000	0.000000	6.382858	0.026711	NaN	0.000000	0.001701	0.001668	28.081	0.025465	0.001902	13.3854	-10.1648	-166.044	0.000753	0.381110	-0.732183	-0.733492	0.026711	13.3854	-0.733680	-5.635792E+9	-4.739509E-12	NaN
271	1.000000	0.392461	7.36771e+06	-52189.1	955.819	-29750.2	0.000000	0.000000	6.392894	-0.083555	NaN	0.000000	0.001684	0.001664	28.0812	0.077115	0.001968	39.1905	10.5063	14.2564	-0.196816	0.391075	-0.722142	-0.723527	-0.083555	39.1905	-0.720543	-3.731415E+9	2.239226E-11	NaN
271	1.000000	0.402465	7.36771e+06	-52189.1	955.819	-29750.2	0.000000	0.000000	6.402901	-0.027759	NaN	0.000000	0.001674	0.001653	28.0812	0.088969	0.001919	46.3711	39.6425	-169.244	-0.042269	0.401086	-0.712138	-0.713516	-0.027759	46.3711	-0.711689	-2.825481E+9	9.824593E-12	NaN
271	1.000000	0.412461	7.36771e+06	-52189.1	955.818	-29750.2	0.000000	0.000000	6.412897	-0.027600	NaN	0.000000	0.001681	0.001666	28.0812	0.055796	0.001994	27.9754	-129.443	13.8678	-0.033244	0.411074	-0.702142	-0.703528	-0.027600	27.9754	-0.701402	-2.044907E+9	1.349681E-11	NaN
271	1.000000	0.422449	7.36771e+06	-52189.1	955.819	-29750.2	0.000000	0.000000	6.422886	-0.001220	NaN	0.000000	0.001655	0.001672	28.0814	0.040853	0.001857	22.0047	98.4161	-165.135	0.028173	0.421112	-0.692153	-0.693490	-0.001220	22.0047	-0.692112	-1.526774E+9	7.987677E-13	NaN
271	1.000000	0.432501	7.36771e+06	-52189.1	955.819	-29750.2	0.000000	0.000000	6.432937	-0.032361	NaN	0.000000	0.001655	0.001680	28.081	0.070725	0.001983	35.6738	-46.3501	13.7309	-0.023232	0.431110	-0.682101	-0.683492	-0.032361	35.6738	-0.681421	-1.090523E+9	2.967474E-11	NaN
271	1.000000	0.442467	7.36771e+06	-52189.1	955.818	-29750.2	0.000000	0.000000	6.442906	0.040097	NaN	0.000000	0.001694	0.001673	28.0802	0.075166	0.002003	37.5218	-114.036	-163.962	-0.059003	0.441213	-0.672135	-0.673389	0.040097	37.5218	-0.672936	-8.347829E+8	-4.803262E-11	NaN
271	1.000000	0.452497	7.36771e+06	-52189.1	955.818	-29750.2	0.000000	0.000000	6.452934	0.004807	NaN	0.000000	0.001690	0.001679	28.0799	0.051356	0.002013	25.5097	64.2161	15.7868	0.009567	0.451087	-0.662106	-0.663515	0.004807	25.5097	-0.662247	-5.959964E+8	-8.066126E-12	NaN
271	1.000000	0.462498	7.36771e+06	-52189.1	955.819	-29750.2	0.000000	0.000000	6.462935	-0.016106	NaN	0.000000	0.001678	0.001662	28.0802	0.075525	0.001949	38.7604	-63.6827	-164.454	0.038718	0.461195	-0.652104	-0.653407	-0.016106	38.7604	-0.651792	-4.285556E+8	3.758192E-11	NaN
271	1.000000	0.472487	7.36771e+06	-52189.1	955.818	-29750.2	0.000000	0.000000	6.472921	-0.071867	NaN	0.000000	0.001730	0.001666	28.0799	0.018058	0.001910	9.455126	-14.8055	13.5451	-0.080259	0.471133	-0.642115	-0.643469	-0.071867	9.455126	-0.636415	-2.636867E+8	2.725466E-10	NaN
271	1.000000	0.482478	7.36771e+06	-52189.1	955.818	-29750.2	0.000000	0.000000	6.482912	-0.063916	NaN	0.000000	0.001670	0.001663	28.0798	0.059282	0.001912	31.0105	-76.4082	-167.173	-0.046569	0.481226	-0.632125	-0.633376	-0.063916	31.0105	-0.630579	-2.192663E+8	2.915013E-10	NaN
271	1.000000	0.492495	7.36771e+06	-52189.1	955.819	-29750.2	0.000000	0.000000	6.492930	-0.077328	NaN	0.000000	0.001662	0.001667	28.0799	0.119938	0.002005	59.8104	118.824	11.2214	-0.094283	0.491125	-0.622107	-0.623478	-0.077328	59.8104	-0.621137	-1.626536E+8	4.754182E-10	NaN
271	1.000000	0.502532	7.36771e+06	-52189.1	955.818	-29750.2	0.000000	0.000000	6.502967	-0.047422	NaN	0.000000	0.001657	0.001679	28.08	0.121682	0.002032	59.8786	58.1278	-167.254	0.051487	0.501177	-0.612071	-0.613425	-0.047422	59.8786	-0.611477	-1.197923E+8	3.958685E-10	NaN
271	1.000000	0.512526	7.36771e+06	-52189.1	955.818	-29750.2	0.000000	0.000000	6.512960	-0.088628	NaN	0.000000	0.001619	0.001680	28.08	0.107740	0.002050	52.5654	-89.212	13.2491	-0.163965	0.511170	-0.602076	-0.603432	-0.088628	52.5654	-0.600811	-8.543506E+7	1.037369E-9	NaN
271	1.000000	0.522507	7.36771e+06	-52189.1	955.819	-29750.2	0.000000	0.000000	6.522945	0.014459	NaN	0.000000	0.001627	0.001683	28.0796	0.048283	0.001937	24.9274	98.0536	-167.602	-0.081184	0.521200	-0.592095	-0.593402	0.014459	24.9274	-0.592530	-6.569711E+7	-2.200793E-10	NaN
271	1.000000	0.532524	7.36771e+06	-52189.1	955.818	-29750.2	0.000000	0.000000	6.532960	-0.051614	NaN	0.000000	0.001648	0.001666	28.0798	0.025966	0.002041	12.7223	46.6204	14.4837	0.044410	0.531184	-0.582078	-0.583418	-0.051614	12.7223	-0.579035	-4.279639E+7	1.206030E-9	NaN
271	1.000000	0.542523	7.36771e+06	-52189.1	955.818	-29750.2	0.000000	0.000000	6.542961	0.006776	NaN	0.000000	0.001645	0.001671	28.0794	0.103039	0.002116	48.6847	-51.7513	-164.622	0.008180	0.541203	-0.572079	-0.573399	0.006776	48.6847	-0.572184	-3.441903E+7	-1.968638E-10	NaN
271	1.000000	0.552518	7.36771e+06	-52189.1	955.819	-29750.2	0.000000	0.000000	6.552952	-0.078762	NaN	0.000000	0.001604	0.001761	28.0796	0.085858	0.001975	43.4688	143.758	13.9657	-0.108716	0.551142	-0.562085	-0.563461	-0.078762	43.4688	-0.560726	-2.390102E+7	3.295360E-9	NaN
271	1.000000	0.562510	7.36771e+06	-52189.1	955.819	-29750.2	0.000000	0.000000	6.562945	-0.047301	NaN	0.000000	0.001610	0.001714	28.0795	0.033797	0.002059	16.4111	45.2142	-165.246	-0.026366	0.561230	-0.552092	-0.553373	-0.047301	16.4111	-0.549930	-1.694310E+7	2.791748E-9	NaN
271	1.000000	0.572524	7.36771e+06	-52189.1	955.819	-29750.2	0.000000	0.000000	6.572961	-0.009025	NaN	0.000000	0.001614	0.001718	28.08	0.119846	0.001905	62.9152	129.743	12.4847	-0.039899	0.571215	-0.542078	-0.543387	-0.009025	62.9152	-0.541971	-1.314276E+7	6.867226E-10	NaN
271	1.000000	0.582550	7.36771e+06	-52189.1	955.818	-29750.2	0.000000	0.000000	6.582985	-0.062506	NaN	0.000000	0.001632	0.001693	28.0809	0.140252	0.002060	68.0979	-141.953	-165.549	-0.108053	0.581212	-0.532052	-0.533390	-0.062506	68.0979	-0.531364	-9.36508e+06	6.674406E-9	NaN
271	1.000000	0.592526	7.36771e+06	-52189.1	955.819	-29750.2	0.000000	0.000000	6.592963	-0.012190	NaN	0.000000	0.001652	0.001691	28.0811	0.161321	0.002084	77.4109	-68.7791	11.4703	0.029878	0.591220	-0.522076	-0.523382	-0.012190	77.4109	-0.521958	-6.93146e+06	1.758667E-9	NaN
271	1.000000	0.602542	7.36771e+06	-52189.1	955.819	-29750.2	0.000000	0.000000	6.602981	0.030484	NaN	0.000000	0.001640	0.001687	28.0809	0.074401	0.001972	37.7366	-33.9818	-166.799	-0.002557	0.601255	-0.512060	-0.513347	0.030484	37.7366	-0.512666	-5.14681e+06	-5.922797E-9	NaN
271	1.000000	0.612554	7.36771e+06	-52189.1	955.819	-29750.2	0.000000	0.000000	6.612989	-0.072922	NaN	0.000000	0.001632	0.001685	28.0816	0.069053	0.001821	37.9257	127.198	14.5892	-0.045985	0.611182	-0.502048	-0.503420	-0.072922	37.9257	-0.500606	-3.49517e+06	2.086377E-8	NaN
271	1.000000	0.622561	7.36771e+06	-52189.1	955.817	-29750.2	0.000000	0.000000	6.623000	0.028928	NaN	0.000000	0.001647	0.001667	28.0809	0.025561	0.001943	13.1557	59.7071	-163.36	0.022020	0.621245	-0.492041	-0.493357	0.028928	13.1557	-0.493690	-2.79862e+06	-1.033652E-8	NaN
271	1.000000	0.632553	7.36771e+06	-52189.1	955.818	-29750.2	0.000000	0.000000	6.632991	0.011954	NaN	0.000000	0.001675	0.001698	28.0813	0.016603	0.001961	8.466940	-18.6786	16.9433	0.032490	0.631223	-0.482049	-0.483380	0.011954	8.466940	-0.483108	-1.99078e+06	-6.004741E-9	NaN
271	1.000000	0.642589	7.36771e+06	-52189.1	955.819	-29750.2	0.000000	0.000000	6.643026	-0.008947	NaN	0.000000	0.001667	0.001703	28.0811	0.104334	0.002096	49.7749	-46.3966	-164.652	-0.001283	0.641306	-0.472013	-0.473296	-0.008947	49.7749	-0.471878	-1.38593e+06	6.455683E-9	NaN
271	1.000000	0.652553	7.36771e+06	-52189.1	955.819	-29750.2	0.000000	0.000000	6.652989	-0.031930	NaN	0.000000	0.001640	0.001698	28.0815	0.056297	0.002098	26.8292	-144.984	14.9327	-0.047482	0.651192	-0.462050	-0.463410	-0.031930	26.8292	-0.461157	-980111	3.257801E-8	NaN
271	1.000000	0.662582	7.36771e+06	-52189.1	955.818	-29750.2	0.000000	0.000000	6.663020	-0.003441	NaN	0.000000	0.001664	0.001678	28.0813	0.129375	0.001862	69.4691	124.523	-164.773	-0.047150	0.661252	-0.452020	-0.453350	-0.003441	69.4691	-0.451983	-728210	4.725018E-9	NaN
271	1.000000	0.672574	7.36771e+06	-52189.1	955.819	-29750.2	0.000000	0.000000	6.673012	-0.000657	NaN	0.000000	0.001636	0.001675	28.0811	0.082749	0.002105	39.304	-11.5437	11.5712	0.039543	0.671232	-0.442028	-0.443370	-0.000657	39.304	-0.442015	-526990	1.246639E-9	NaN
271	1.000000	0.682590	7.36771e+06	-52189.1	955.818	-29750.2	0.000000	0.000000	6.683027	-0.008204	NaN	0.000000	0.001637	0.001693	28.0808	0.067849	0.001992	34.0629	143.079	-164.648	-0.041885	0.681265	-0.432012	-0.433337	-0.008204	34.0629	-0.431831	-378412	2.168024E-8	NaN
271	1.000000	0.692583	7.36771e+06	-52189.1	955.819	-29750.2	0.000000	0.000000	6.693018	-0.068371	NaN	0.000000	0.001670	0.001692	28.0812	0.081543	0.001982	41.151	-113.557	16.7241	-0.040658	0.691238	-0.422019	-0.423364	-0.068371	41.151	-0.420773	-263861	2.591180E-7	NaN
271	1.000000	0.702580	7.36771e+06	-52189.1	955.818	-29750.2	0.000000	0.000000	6.703017	-0.005413	NaN	0.000000	0.001691	0.001654	28.0809	0.153412	0.002032	75.4888	-109.829	-164.331	-0.045224	0.701303	-0.412022	-0.413299	-0.005413	75.4888	-0.411968	-197872	2.735752E-8	NaN
271	1.000000	0.712613	7.36771e+06	-52189.1	955.819	-29750.2	0.000000	0.000000	6.713050	-0.008820	NaN	0.000000	0.001677	0.001644	28.0798	0.064274	0.002006	32.034	-52.8163	10.6937	-0.038843	0.711222	-0.401989	-0.403380	-0.008820	32.034	-0.401783	-141714	6.223630E-8	NaN
271	1.000000	0.722594	7.36771e+06	-52189.1	955.819	-29750.2	0.000000	0.000000	6.723033	0.055880	NaN	0.000000	0.001652	0.001673	28.0797	0.035488	0.002063	17.203	-96.1913	-167.861	0.111904	0.721312	-0.392008	-0.393290	0.055880	17.203	-0.394445	-111353	-5.018257E-7	NaN
271	1.000000	0.732598	7.36771e+06	-52189.1	955.819	-29750.2	0.000000	0.000000	6.733033	-0.060647	NaN	0.000000	0.001697	0.001633	28.0805	0.087977	0.002023	43.4876	1.032112	9.055370	-0.011671	0.731240	-0.382004	-0.383362	-0.060647	43.4876	-0.380958	-71389.3	8.495202E-7	NaN
271	1.000000	0.742597	7.36771e+06	-52189.1	955.819	-29750.2	0.000000	0.000000	6.743038	0.077587	NaN	0.000000	0.001671	0.001649	28.0797	0.049673	0.001883	26.3839	2.539753	-162.258	0.077872	0.741287	-0.372005	-0.373315	0.077587	26.3839	-0.374211	-57111.5	-1.358514E-6	NaN
271	1.000000	0.752598	7.36771e+06	-52189.1	955.819	-29750.2	0.000000	0.000000	6.753035	-0.007803	NaN	0.000000	0.001641	0.001642	28.0796	0.052176	0.002104	24.8038	146.04	14.6742	-0.025069	0.751212	-0.362004	-0.363390	-0.007803	24.8038	-0.361768	-37791.8	2.064758E-7	NaN
271	1.000000	0.762631	7.36771e+06	-52189.1	955.819	-29750.2	0.000000	0.000000	6.763069	0.004060	NaN	0.000000	0.001676	0.001668	28.0796	0.047382	0.001958	24.1999	-112.179	-165.387	-0.025249	0.761333	-0.351971	-0.353270	0.004060	24.1999	-0.352097	-27379.4	-1.482820E-7	NaN
271	1.000000	0.772612	7.36771e+06	-52189.1	955.818	-29750.2	0.000000	0.000000	6.773051	0.050601	NaN	0.000000	0.001639	0.001689	28.0795	0.081559	0.002114	38.5877	66.8527	11.7405	0.140071	0.771215	-0.341990	-0.343387	0.050601	38.5877	-0.342974	-20177.9	-2.507734E-6	NaN
271	1.000000	0.782630	7.36771e+06	-52189.1	955.818	-29750.2	0.000000	0.000000	6.783067	-0.022703	NaN	0.000000	0.001668	0.001680	28.0791	0.077669	0.002059	37.7272	-66.0583	-165.748	0.007548	0.781329	-0.331972	-0.333273	-0.022703	37.7272	-0.331521	-13731.3	1.653366E-6	NaN
271	1.000000	0.792653	7.36771e+06	-52189.1	955.818	-29750.2	0.000000	0.000000	6.793087	-0.085233	NaN	0.000000	0.001693	0.001652	28.0795	0.024231	0.002048	11.8334	-61.5968	15.4073	0.006865	0.791306	-0.321949	-0.323296	-0.085233	11.8334	-0.316547	-8274.98	1.030012E-5	NaN
271	1.000000	0.802633	7.36771e+06	-52189.1	955.818	-29750.2	0.000000	0.000000	6.803071	-0.003910	NaN	0.000000	0.001669	0.001685	28.0797	0.099295	0.001862	53.3186	-23.5329	-164.959	-0.045236	0.801335	-0.311969	-0.313267	-0.003910	53.3186	-0.311914	-7069.08	5.530469E-7	NaN
271	1.000000	0.812642	7.36771e+06	-52189.1	955.819	-29750.2	0.000000	0.000000	6.813080	0.018490	NaN	0.000000	0.001683	0.001692	28.0795	0.082258	0.001991	41.3053	-65.3432	13.6571	-0.044390	0.811307	-0.301960	-0.303296	0.018490	41.3053	-0.302296	-5090.89	-3.632012E-6	NaN
271	1.000000	0.822617	7.36771e+06	-52189.1	955.819	-29750.2	0.000000	0.000000	6.823053	-0.039788	NaN	0.000000	0.001673	0.001686	28.0796	0.047637	0.002035	23.4041	-134.229	-166.33	-0.025007	0.821340	-0.291985	-0.293262	-0.039788	23.4041	-0.290710	-3419.31	1.163631E-5	NaN
271	1.000000	0.832648	7.36771e+06	-52189.1	955.818	-29750.2	0.000000	0.000000	6.833084	-0.023841	NaN	0.000000	0.001762	0.001634	28.0797	0.048691	0.002069	23.5348	46.4345	17.8422	-0.050075	0.831296	-0.281954	-0.283306	-0.023841	23.5348	-0.281194	-2460.27	9.690531E-6	NaN
271	1.000000	0.842617	7.36771e+06	-52189.1	955.819	-29750.2	0.000000	0.000000	6.843051	-0.096674	NaN	0.000000	0.001784	0.001692	28.0795	0.054167	0.001960	27.631	-167.269	-165.584	-0.031484	0.841315	-0.271985	-0.273288	-0.096674	27.631	-0.269361	-1628.64	5.935842E-5	NaN
271	1.000000	0.852648	7.36771e+06	-52189.1	955.818	-29750.2	0.000000	0.000000	6.853086	0.021512	NaN	0.000000	0.001764	0.001663	28.0804	0.122775	0.001867	65.7705	57.5597	13.5917	0.047257	0.851260	-0.261954	-0.263342	0.021512	65.7705	-0.262200	-1266.48	-1.698525E-5	NaN
271	1.000000	0.862648	7.36771e+06	-52189.1	955.819	-29750.2	0.000000	0.000000	6.863083	-0.053409	NaN	0.000000	0.001788	0.001696	28.0804	0.055780	0.001983	28.1311	-172.455	-164.408	0.008770	0.861371	-0.251955	-0.253231	-0.053409	28.1311	-0.250531	-837.862	6.374487E-5	NaN
271	1.000000	0.872674	7.36771e+06	-52189.1	955.819	-29750.2	0.000000	0.000000	6.873108	-0.094887	NaN	0.000000	0.001775	0.001674	28.0806	0.082674	0.002096	39.4378	173.056	13.4662	-0.026949	0.871310	-0.241928	-0.243293	-0.094887	39.4378	-0.240124	-577.409	0.000164	NaN
271	1.000000	0.882681	7.36771e+06	-52189.1	955.819	-29750.2	0.000000	0.000000	6.883120	0.049888	NaN	0.000000	0.001798	0.001665	28.0807	0.117652	0.001995	58.9843	-142.195	-169.077	-0.035168	0.881340	-0.231922	-0.233262	0.049888	58.9843	-0.232556	-439.359	-0.000114	NaN
271	1.000000	0.892685	7.36771e+06	-52189.1	955.819	-29750.2	0.000000	0.000000	6.893122	-0.001241	NaN	0.000000	0.001792	0.001688	28.0805	0.032910	0.001922	17.1189	111.443	10.4271	-0.020119	0.891293	-0.221917	-0.223309	-0.001241	17.1189	-0.221863	-297.448	4.171065E-6	NaN
271	1.000000	0.902676	7.36771e+06	-52189.1	955.818	-29750.2	0.000000	0.000000	6.903111	-0.055965	NaN	0.000000	0.001810	0.001627	28.0809	0.070351	0.001944	36.1925	131.814	-170.334	-0.018400	0.901359	-0.211927	-0.213243	-0.055965	36.1925	-0.210767	-197.347	0.000284	NaN
271	1.000000	0.912680	7.36771e+06	-52189.1	955.818	-29750.2	0.000000	0.000000	6.913119	0.037460	NaN	0.000000	0.001791	0.001683	28.081	0.081632	0.002156	37.87	-159.355	16.0552	0.070688	0.911299	-0.201922	-0.203303	0.037460	37.87	-0.202664	-145.676	-0.000257	NaN
271	1.000000	0.922665	7.36771e+06	-52189.1	955.818	-29750.2	0.000000	0.000000	6.923101	-0.033220	NaN	0.000000	0.001789	0.001680	28.0808	0.068762	0.001996	34.4474	-67.8562	-164.996	-0.019571	0.921404	-0.191937	-0.193198	-0.033220	34.4474	-0.191214	-94.2511	0.000352	NaN
271	1.000000	0.932672	7.36771e+06	-52189.1	955.818	-29750.2	0.000000	0.000000	6.933109	-0.009487	NaN	0.000000	0.001780	0.001688	28.0807	0.077489	0.001872	41.4018	129.858	13.8099	-0.018018	0.931357	-0.181931	-0.183245	-0.009487	41.4018	-0.181759	-65.3638	0.000145	NaN
271	1.000000	0.942666	7.36771e+06	-52189.1	955.818	-29750.2	0.000000	0.000000	6.943102	-0.050638	NaN	0.000000	0.001809	0.001696	28.081	0.050446	0.001913	26.3633	35.8598	-164.91	0.000771	0.941417	-0.171936	-0.173185	-0.050638	26.3633	-0.170495	-41.8994	0.001209	NaN
271	1.000000	0.952695	7.36771e+06	-52189.1	955.818	-29750.2	0.000000	0.000000	6.953132	-0.007366	NaN	0.000000	0.001809	0.001702	28.0809	0.100991	0.002089	48.3554	-21.221	13.4252	-0.034418	0.951290	-0.161907	-0.163312	-0.007366	48.3554	-0.161793	-29.4969	0.000250	NaN
271	1.000000	0.962696	7.36771e+06	-52189.1	955.82	-29750.2	0.000000	0.000000	6.963134	0.014173	NaN	0.000000	0.001771	0.001691	28.081	0.018933	0.001875	10.0987	128.231	-165.773	-0.087366	0.961402	-0.151906	-0.153200	0.014173	10.0987	-0.152959	-20.5001	-0.000691	NaN
271	1.000000	0.972680	7.36771e+06	-52189.1	955.819	-29750.2	0.000000	0.000000	6.973118	0.023143	NaN	0.000000	0.001785	0.001671	28.0809	0.076900	0.001952	39.4048	120.476	14.338	0.047518	0.971327	-0.141922	-0.143275	0.023143	39.4048	-0.142363	-13.0974	-0.001767	NaN
271	1.000000	0.982715	7.36771e+06	-52189.1	955.819	-29750.2	0.000000	0.000000	6.983153	0.014452	NaN	0.000000	0.001765	0.001661	28.081	0.045893	0.001932	23.7527	92.1322	-166.664	0.012863	0.981347	-0.131887	-0.133255	0.014452	23.7527	-0.132344	-8.459536	-0.001708	NaN
271	1.000000	0.992686	7.36771e+06	-52189.1	955.819	-29750.2	0.000000	0.000000	6.993125	0.031882	NaN	0.000000	0.001724	0.001685	28.0796	0.021662	0.002116	10.2353	44.5229	13.7134	-0.030513	0.991318	-0.121916	-0.123284	0.031882	10.2353	-0.124252	-5.877332	-0.005425	NaN
271	1.000000	1.002725	7.36771e+06	-52189.1	955.819	-29750.2	0.000000	0.000000	7.003163	0.029555	NaN	0.000000	0.001703	0.001680	28.0796	0.066884	0.001916	34.9091	18.9065	-167.941	0.077412	1.001412	-0.111878	-0.113190	0.029555	34.9091	-0.112512	-3.392690	-0.008711	NaN
271	1.000000	1.012734	7.36771e+06	-52189.1	955.818	-29750.2	0.000000	0.000000	7.013171	-0.006848	NaN	0.000000	0.001715	0.001708	28.0796	0.094239	0.002018	46.692	-55.1655	12.4539	-0.064071	1.011388	-0.101869	-0.103214	-0.006848	46.692	-0.101759	-1.997898	0.003428	NaN
271	1.000000	1.022698	7.36771e+06	-52189.1	955.818	-29750.2	0.000000	0.000000	7.023135	-0.009318	NaN	0.000000	0.001717	0.001672	28.0799	0.073729	0.001944	37.9222	66.7643	-165.201	-0.076588	1.021368	-0.091904	-0.093234	-0.009318	37.9222	-0.091720	-1.185666	0.007859	NaN
271	1.000000	1.032746	7.36771e+06	-52189.1	955.819	-29750.2	0.000000	0.000000	7.033184	0.013638	NaN	0.000000	0.001715	0.001676	28.0794	0.051653	0.002051	25.185	104.746	19.5746	0.028575	1.031342	-0.081856	-0.083260	0.013638	25.185	-0.082262	-0.704412	-0.019361	NaN
271	1.000000	1.042732	7.36771e+06	-52189.1	955.818	-29750.2	0.000000	0.000000	7.043170	-0.000607	NaN	0.000000	0.001718	0.001679	28.0796	0.050868	0.001968	25.8514	107.49	-164.846	-0.010579	1.041495	-0.071870	-0.073107	-0.000607	25.8514	-0.071852	-0.382109	0.001587	NaN
271	1.000000	1.052763	7.36771e+06	-52189.1	955.818	-29750.2	0.000000	0.000000	7.053202	0.039132	NaN	0.000000	0.001694	0.001698	28.0794	0.061653	0.001944	31.712	-175.482	16.2682	0.013046	1.051363	-0.061839	-0.063239	0.039132	31.712	-0.062765	-0.215820	-0.181319	NaN
271	1.000000	1.062711	7.36771e+06	-52189.1	955.819	-29750.2	0.000000	0.000000	7.063149	0.016422	NaN	0.000000	0.001712	0.001673	28.0798	0.018643	0.002122	8.785978	-108.134	-164.226	-0.039582	1.061446	-0.051891	-0.053157	0.016422	8.785978	-0.053293	-0.114594	-0.143306	NaN
271	1.000000	1.072748	7.36771e+06	-52189.1	955.818	-29750.2	0.000000	0.000000	7.073185	-0.011506	NaN	0.000000	0.001774	0.001640	28.0793	0.046450	0.002044	22.7242	6.759961	15.1914	-0.022862	1.071370	-0.041854	-0.043232	-0.011506	22.7242	-0.041474	-0.050145	0.229462	NaN
271	1.000000	1.082731	7.36771e+06	-52189.1	955.818	-29750.2	0.000000	0.000000	7.083167	-0.043012	NaN	0.000000	0.001785	0.001716	28.0796	0.083151	0.002079	39.9933	120.397	-168.755	0.023966	1.081422	-0.031871	-0.033180	-0.043012	39.9933	-0.031064	-0.024651	1.744850	NaN
271	1.000000	1.092763	7.36771e+06	-52189.1	955.819	-29750.2	0.000000	0.000000	7.093200	-0.009000	NaN	0.000000	0.001758	0.001626	28.0793	0.079921	0.002048	39.0301	-55.072	13.2172	-0.047674	1.091395	-0.021840	-0.023207	-0.009000	39.0301	-0.021667	-0.013848	0.649904	NaN
271	1.000000	1.102737	7.36771e+06	-52189.1	955.817	-29750.2	0.000000	0.000000	7.103173	-0.024333	NaN	0.000000	0.001769	0.001639	28.0796	0.100685	0.002008	50.1442	-103.981	-163.12	0.047601	1.101443	-0.011865	-0.013160	-0.024333	50.1442	-0.011501	-0.007244	3.359187	NaN
271	1.000000	1.112754	7.36771e+06	-52189.1	955.819	-29750.2	0.000000	0.000000	7.113194	0.060854	NaN	0.000000	0.001785	0.001643	28.0794	0.035038	0.002063	16.9839	158.758	12.6143	-0.028289	1.111358	-0.001849	-0.003244	0.060854	16.9839	-0.004536	-0.003123	-19.4856	NaN
271	1.000000	1.122608	7.36771e+06	-52189.1	955.818	-29750.2	0.000000	0.000000	7.123402	8.686325	NaN	0.000000	0.001789	0.001661	28.0807	8.707224	0.001750	4975.33	10.2594	-170.596	6.932517	1.121406	0.008005	0.006804	8.686325	4975.33	0.006696	0.005735	1514.62	60024.6
271	2.000000	1.125763	7.36771e+06	-52189.1	955.818	-29750.2	0.000000	0.000000	7.126717	12.5551	NaN	0.000000	0.001785	0.001680	28.0808	11.7489	0.001467	8010.21	10.2989	2.213891	11.8106	1.125351	0.011161	0.010749	12.5551	8010.21	0.009986	0.009166	1369.8	76442.8
271	2.000000	1.128212	7.36771e+06	-52189.1	955.818	-29750.2	0.000000	0.000000	7.129288	15.5212	NaN	0.000000	0.001769	0.001681	28.0807	14.6004	0.001694	8616.55	6.744459	-177.597	14.9975	1.127898	0.013610	0.013296	15.5212	8616.55	0.012259	0.011802	1315.15	72465.4
271	2.000000	1.130739	7.36771e+06	-52189.1	955.819	-29750.2	0.000000	0.000000	7.131951	18.8356	NaN	0.000000	0.001748	0.001648	28.0807	16.716	0.001680	9949.38	1.960331	7.179987	18.263	1.130353	0.016137	0.015750	18.8356	9949.38	0.014717	0.014910	1263.29	74444.2
271	2.000000	1.133200	7.36771e+06	-52189.1	955.818	-29750.2	0.000000	0.000000	7.134503	21.039	NaN	0.000000	0.001757	0.001635	28.0806	19.7447	0.001789	11038.8	6.414940	-177.679	21.2609	1.132881	0.018598	0.018279	21.039	11038.8	0.017169	0.018287	1150.5	74580.7
271	2.000000	1.135690	7.36771e+06	-52189.1	955.818	-29750.2	0.000000	0.000000	7.137269	27.765	NaN	0.000000	0.001792	0.001689	28.0814	21.8759	0.001791	12216.1	2.026400	5.442994	26.5353	1.135366	0.021087	0.020764	27.765	12216.1	0.019383	0.021582	1286.51	75974.1
271	2.000000	1.138151	7.36771e+06	-52189.1	955.818	-29750.2	0.000000	0.000000	7.140024	34.9156	NaN	0.000000	0.001745	0.001674	28.0808	24.3728	0.001738	14024.4	5.431642	-179.012	34.3854	1.137841	0.023548	0.023239	34.9156	14024.4	0.021681	0.025253	1382.62	80630.4
271	2.000000	1.140629	7.36771e+06	-52189.1	955.818	-29750.2	0.000000	0.000000	7.142741	40.7102	NaN	0.000000	0.001732	0.001667	28.0809	26.2761	0.001723	15246.4	0.560681	5.156668	38.3348	1.140299	0.026027	0.025697	40.7102	15246.4	0.024024	0.029264	1391.13	81428.1
271	2.000000	1.143179	7.36771e+06	-52189.1	955.818	-29750.2	0.000000	0.000000	7.145405	43.5087	NaN	0.000000	0.001771	0.001657	28.0808	30.2998	0.001953	15515.2	5.998187	-179.942	43.2089	1.142897	0.028576	0.028295	43.5087	15515.2	0.026473	0.033751	1289.13	77159.8
271	2.000000	1.145602	7.36771e+06	-52189.1	955.819	-29750.2	0.000000	0.000000	7.148258	53.9492	NaN	0.000000	0.001753	0.001645	28.0821	32.0936	0.001780	18030.5	7.753712	-3.317310	50.5982	1.145330	0.031000	0.030727	53.9492	18030.5	0.028756	0.038205	1412.1	84279.4
271	2.000000	1.148127	7.36771e+06	-52189.1	955.818	-29750.2	0.000000	0.000000	7.151092	61.4578	NaN	0.000000	0.001779	0.001654	28.0808	33.8702	0.001667	20312.5	5.600527	177.923	61.0184	1.147732	0.033525	0.033130	61.4578	20312.5	0.031255	0.043386	1416.53	89096.5
271	2.000000	1.150584	7.36771e+06	-52189.1	955.819	-29750.2	0.000000	0.000000	7.153846	68.6828	NaN	0.000000	0.001757	0.001641	28.0816	36.2974	0.001657	21900.9	4.480724	-3.322935	64.5833	1.150274	0.035982	0.035672	68.6828	21900.9	0.033630	0.048603	1413.13	90761.6
271	2.000000	1.153155	7.36771e+06	-52189.1	955.818	-29750.2	0.000000	0.000000	7.156619	73.5884	NaN	0.000000	0.001699	0.001633	28.0808	40.2381	0.001848	21774.9	4.948660	177.502	73.5583	1.152892	0.038553	0.038290	73.5884	21774.9	0.036018	0.054143	1359.14	85498.2
271	2.000000	1.155644	7.36771e+06	-52189.1	955.819	-29750.2	0.000000	0.000000	7.159601	85.5765	NaN	0.000000	0.001695	0.001664	28.0818	41.8732	0.001814	23088.9	4.941728	-2.736493	84.063	1.155254	0.041042	0.040652	85.5765	23088.9	0.038262	0.059614	1435.51	86397.7
271	2.000000	1.158148	7.36771e+06	-52189.1	955.818	-29750.2	0.000000	0.000000	7.162340	91.316	NaN	0.000000	0.001699	0.001630	28.0795	43.8239	0.001871	23418.5	2.035533	-179.824	93.4059	1.157803	0.043545	0.043201	91.316	23418.5	0.040621	0.065643	1391.11	83510.2
271	2.000000	1.160695	7.36771e+06	-52189.1	955.819	-29750.2	0.000000	0.000000	7.165343	102.382	NaN	0.000000	0.001682	0.001648	28.0798	46.0436	0.001969	23378.8	6.492675	-3.340642	105.569	1.160247	0.046093	0.045645	102.382	23378.8	0.042808	0.071488	1432.17	79887.8
271	2.000000	1.163093	7.36771e+06	-52189.1	955.819	-29750.2	0.000000	0.000000	7.168441	119.407	NaN	0.000000	0.001704	0.001671	28.0795	47.909	0.001737	27587.6	6.190029	174.416	116.845	1.162701	0.048491	0.048099	119.407	27587.6	0.045244	0.078283	1525.33	90085.4
271	2.000000	1.165569	7.36771e+06	-52189.1	955.817	-29750.2	0.000000	0.000000	7.171443	132.188	NaN	0.000000	0.001709	0.001612	28.08	49.3075	0.001771	27845.1	4.245082	-2.265473	128.282	1.165205	0.050967	0.050603	132.188	27845.1	0.047406	0.084565	1563.15	87483.6
271	2.000000	1.168108	7.36771e+06	-52189.1	955.819	-29750.2	0.000000	0.000000	7.174441	143.336	NaN	0.000000	0.001667	0.001639	28.0799	52.2184	0.001779	29352.6	4.609415	175.298	141.14	1.167785	0.053506	0.053183	143.336	29352.6	0.049844	0.091931	1559.17	88448.2
271	2.000000	1.170585	7.36771e+06	-52189.1	955.819	-29750.2	0.000000	0.000000	7.177464	156.623	NaN	0.000000	0.001685	0.001614	28.0805	55.6994	0.001760	31653.3	3.433562	-3.039726	153.868	1.170131	0.055983	0.055528	156.623	31653.3	0.052272	0.099566	1573.06	91651
271	2.000000	1.173011	7.36771e+06	-52189.1	955.819	-29750.2	0.000000	0.000000	7.180360	168.045	NaN	0.000000	0.001707	0.001653	28.0799	59.1631	0.001797	32927.9	6.352358	173.158	164.031	1.172779	0.058409	0.058177	168.045	32927.9	0.054581	0.107098	1569.09	91927.9
271	2.000000	1.175551	7.36771e+06	-52189.1	955.819	-29750.2	0.000000	0.000000	7.183542	183.662	NaN	0.000000	0.001688	0.001673	28.0802	60.0067	0.001849	32458.4	5.439449	-5.214042	177.515	1.175181	0.060949	0.060579	183.662	32458.4	0.056705	0.114259	1607.42	87731.6
271	2.000000	1.178045	7.36771e+06	-52189.1	955.82	-29750.2	0.000000	0.000000	7.186657	198.783	NaN	0.000000	0.001693	0.001649	28.0797	63.1358	0.001748	36114.4	6.659290	171.979	195.463	1.177710	0.063442	0.063108	198.783	36114.4	0.059314	0.123360	1611.41	93943.3
271	2.000000	1.180558	7.36771e+06	-52189.1	955.819	-29750.2	0.000000	0.000000	7.189929	217.21	NaN	0.000000	0.001744	0.001653	28.0799	66.7004	0.001831	36419.1	6.870682	-7.751782	212.623	1.180083	0.065956	0.065481	217.21	36419.1	0.061483	0.131180	1655.82	91869
271	2.000000	1.183034	7.36771e+06	-52189.1	955.82	-29750.2	0.000000	0.000000	7.193057	233.076	NaN	0.000000	0.001710	0.001667	28.0799	68.0547	0.001909	35648.8	6.696217	173.676	228.589	1.182607	0.068432	0.068005	233.076	35648.8	0.063528	0.138763	1679.66	87434
271	2.000000	1.185600	7.36771e+06	-52189.1	955.819	-29750.2	0.000000	0.000000	7.196198	247.042	NaN	0.000000	0.001702	0.001649	28.0801	69.3642	0.001687	41117.7	3.106240	-4.982006	244.645	1.185275	0.070998	0.070673	247.042	41117.7	0.066492	0.150111	1645.72	96960.7
271	2.000000	1.188037	7.36771e+06	-52189.1	955.819	-29750.2	0.000000	0.000000	7.199489	267.804	NaN	0.000000	0.001704	0.001661	28.0797	70.296	0.001665	42213.7	3.197804	175.129	266.195	1.187719	0.073435	0.073117	267.804	42213.7	0.068677	0.158749	1686.97	96799.3
271	2.000000	1.190530	7.36771e+06	-52189.1	955.818	-29750.2	0.000000	0.000000	7.202454	279.307	NaN	0.000000	0.001708	0.001670	28.0803	72.8576	0.001731	42091.4	1.822310	-3.875049	273.647	1.190192	0.075927	0.075590	279.307	42091.4	0.070951	0.167977	1662.77	93830.1
271	2.000000	1.193034	7.36771e+06	-52189.1	955.818	-29750.2	0.000000	0.000000	7.205569	294.164	NaN	0.000000	0.001712	0.001689	28.0811	76.7897	0.001763	43559.1	4.915979	172.83	289.579	1.192592	0.078431	0.077990	294.164	43559.1	0.073366	0.178051	1652.13	94314.8
271	2.000000	1.195527	7.36771e+06	-52189.1	955.818	-29750.2	0.000000	0.000000	7.208654	308.553	NaN	0.000000	0.001686	0.001660	28.0811	78.1427	0.001681	46476.2	5.455166	-8.104331	303.686	1.195273	0.080925	0.080671	308.553	46476.2	0.075946	0.189112	1631.58	97643.7
271	2.000000	1.198047	7.36771e+06	-52189.1	955.818	-29750.2	0.000000	0.000000	7.211951	327.438	NaN	0.000000	0.001703	0.001676	28.0809	81.7186	0.001695	48209.9	9.544570	167.033	327.31	1.197696	0.083445	0.083094	327.438	48209.9	0.078351	0.199708	1639.58	98562.3
271	2.000000	1.200557	7.36771e+06	-52189.1	955.819	-29750.2	0.000000	0.000000	7.215086	342.65	NaN	0.000000	0.001684	0.001670	28.081	84.8196	0.001823	46517.3	10.0853	-13.2202	340.719	1.200214	0.085955	0.085612	342.65	46517.3	0.080430	0.209084	1638.81	92945.2
271	2.000000	1.203027	7.36771e+06	-52189.1	955.819	-29750.2	0.000000	0.000000	7.217952	352.264	NaN	0.000000	0.001709	0.001683	28.0811	85.9864	0.001823	47176.9	3.121796	174.006	349.531	1.202793	0.088424	0.088191	352.264	47176.9	0.082824	0.220132	1600.24	91867.2
271	2.000000	1.205584	7.36771e+06	-52189.1	955.818	-29750.2	0.000000	0.000000	7.221248	370.241	NaN	0.000000	0.001696	0.001693	28.0808	87.5696	0.001929	45403.3	3.302197	-5.318105	368.792	1.205235	0.090981	0.090633	370.241	45403.3	0.084865	0.229760	1611.42	86541.3
271	2.000000	1.208128	7.36771e+06	-52189.1	955.819	-29750.2	0.000000	0.000000	7.224496	387.339	NaN	0.000000	0.001704	0.001681	28.0809	89.5096	0.001799	49749.1	2.837649	173.791	389.698	1.207871	0.093526	0.093269	387.339	49749.1	0.087687	0.243385	1591.47	92132.3
271	2.000000	1.210576	7.36771e+06	-52189.1	955.819	-29750.2	0.000000	0.000000	7.227907	410.758	NaN	0.000000	0.001713	0.001705	28.0809	92.9195	0.001725	53867.3	5.465767	-9.064267	411.382	1.210141	0.095974	0.095539	410.758	53867.3	0.090255	0.256104	1603.87	97250
271	2.000000	1.213079	7.36771e+06	-52189.1	955.819	-29750.2	0.000000	0.000000	7.230868	421.922	NaN	0.000000	0.001716	0.001669	28.0811	96.0422	0.001798	53412.3	2.326056	173.807	422.659	1.212845	0.098476	0.098243	421.922	53412.3	0.092552	0.267740	1575.87	94310.1
271	2.000000	1.215500	7.36771e+06	-52189.1	955.817	-29750.2	0.000000	0.000000	7.233974	438.577	NaN	0.000000	0.001705	0.001656	28.0809	97.9706	0.001796	54552.5	4.219273	-8.328061	431.64	1.215227	0.100897	0.100625	438.577	54552.5	0.094868	0.279712	1567.96	94239.3
271	2.000000	1.217981	7.36771e+06	-52189.1	955.818	-29750.2	0.000000	0.000000	7.237378	461.002	NaN	0.000000	0.001734	0.001651	28.0809	100.199	0.001813	55252	5.622499	170.113	455.697	1.217735	0.103378	0.103133	461.002	55252	0.097121	0.291596	1580.96	93482.5
271	2.000000	1.220471	7.36771e+06	-52189.1	955.818	-29750.2	0.000000	0.000000	7.240991	488.314	NaN	0.000000	0.001719	0.001645	28.0808	103.188	0.001826	56515.9	3.035957	-6.910736	482.552	1.220121	0.105868	0.105519	488.314	56515.9	0.099388	0.303789	1607.41	93682.4
271	2.000000	1.222028	7.36771e+06	-52189.1	955.819	-29750.2	0.000000	0.000000	7.243109	501.946	NaN	0.000000	0.001732	0.001660	28.0807	104.033	0.001707	60961.6	6.540076	168.795	500.95	1.221638	0.107426	0.107036	501.946	60961.6	0.101250	0.313978	1598.66	99398.5