File: remote_trans/data/nanoindenter/0828-1/data/Data_2025-08-06,11h17m57s/2025-07-22_16-23-58_1_525.txt
2025-07-22, 16:23:58, 1
Index	Phase	Displacement	Time	Pos X	Pos Y	Pos Z	Rot A	Rot B	Piezo Z	Force A	Force B	Gripper	Voltage A	Voltage B	Temperature	Amplitude force	Amplitude pos	Stiffness	Phase shift	Phase excitation	Force A raw	Displacement raw	HMax	HMax raw	Real Force	Real Stiffness	Contact Depth	Area	Hardness	Reduced Mod.
[#]	[#]	[um]	[s]	[um]	[um]	[um]	[m°]	[m°]	[um]	[uN]	[uN]	[V]	[V]	[V]	[°C]	[uN]	[um]	[N/m]	[°]	[°]	[uN]	[um]	[um]	[um]	[uN]	[N/m]	[um]	[um^2]	[MPa]	[MPa]
525	1.000000	0.002035	7.37019e+06	-50839.1	1005.82	-29754.4	0.000000	0.000000	6.002805	-0.051961	NaN	0.000000	0.001647	0.001699	28.083	0.085016	0.000929	91.5439	80.8235	-170.045	-0.049628	0.000735	-1.057883	-1.059183	-0.051961	91.5439	-1.057457	-1.344767E+14	3.863915E-16	NaN
525	1.000000	0.009965	7.37019e+06	-50839.1	1005.82	-29754.4	0.000000	0.000000	6.010734	-0.070366	NaN	0.000000	0.001604	0.001732	28.0829	0.055089	0.000902	61.0585	-129.975	-163.393	-0.090725	0.008695	-1.049953	-1.051223	-0.070366	61.0585	-1.049089	-1.037923E+14	6.779490E-16	NaN
525	1.000000	0.017996	7.37019e+06	-50839.1	1005.82	-29754.4	0.000000	0.000000	6.018767	-0.036466	NaN	0.000000	0.001606	0.001758	28.0828	0.110179	0.001828	60.27	-92.5831	-164.607	-0.027305	0.016676	-1.041922	-1.043242	-0.036466	60.27	-1.041468	-8.197954E+13	4.448230E-16	NaN
525	1.000000	0.026020	7.37019e+06	-50839.1	1005.82	-29754.4	0.000000	0.000000	6.026791	-0.008602	NaN	0.000000	0.001620	0.001749	28.0828	0.046822	0.001815	25.7993	144.479	-162.221	0.015226	0.024652	-1.033898	-1.035266	-0.008602	25.7993	-1.033648	-6.435000E+13	1.336693E-16	NaN
525	1.000000	0.033978	7.37019e+06	-50839.1	1005.82	-29754.4	0.000000	0.000000	6.034751	0.011468	NaN	0.000000	0.001609	0.001755	28.0826	0.092611	0.001949	47.5217	-33.8468	-164.623	-0.073272	0.032671	-1.025940	-1.027247	0.011468	47.5217	-1.026121	-5.096786E+13	-2.250092E-16	NaN
525	1.000000	0.042002	7.37019e+06	-50839.1	1005.82	-29754.4	0.000000	0.000000	6.042775	0.027645	NaN	0.000000	0.001644	0.001730	28.0829	0.095509	0.001906	50.123	160.918	-163.857	0.004373	0.040677	-1.017916	-1.019241	0.027645	50.123	-1.018330	-4.003903E+13	-6.904508E-16	NaN
525	1.000000	0.049973	7.37019e+06	-50839.1	1005.82	-29754.4	0.000000	0.000000	6.050746	0.013138	NaN	0.000000	0.001597	0.001749	28.0829	0.126328	0.001933	65.3442	-111.439	-164.33	-0.034796	0.048713	-1.009945	-1.011205	0.013138	65.3442	-1.010096	-3.102192E+13	-4.235110E-16	NaN
525	1.000000	0.057994	7.37019e+06	-50839.1	1005.82	-29754.4	0.000000	0.000000	6.058767	0.036208	NaN	0.000000	0.001594	0.001759	28.0815	0.125565	0.001886	66.5689	17.1051	-165.592	-0.008288	0.056675	-1.001924	-1.003244	0.036208	66.5689	-1.002332	-2.438750E+13	-1.484713E-15	NaN
525	1.000000	0.065982	7.37019e+06	-50839.1	1005.82	-29754.4	0.000000	0.000000	6.066753	-0.017679	NaN	0.000000	0.001573	0.001699	28.0816	0.070789	0.002063	34.3088	165.472	-165.283	-0.009923	0.064631	-0.993937	-0.995287	-0.017679	34.3088	-0.993550	-1.857466E+13	9.517926E-16	NaN
525	1.000000	0.073993	7.37019e+06	-50839.1	1005.82	-29754.4	0.000000	0.000000	6.074763	-0.049076	NaN	0.000000	0.001594	0.001729	28.0819	0.027301	0.002061	13.2487	162.41	-167.444	-0.021892	0.072640	-0.985925	-0.987278	-0.049076	13.2487	-0.983147	-1.345248E+13	3.648082E-15	NaN
525	1.000000	0.081992	7.37019e+06	-50839.1	1005.82	-29754.4	0.000000	0.000000	6.082763	-0.011513	NaN	0.000000	0.001570	0.001723	28.0819	0.150044	0.001975	75.9735	29.4344	-163.959	-0.023714	0.080661	-0.977926	-0.979257	-0.011513	75.9735	-0.977812	-1.140088E+13	1.009840E-15	NaN
525	1.000000	0.089993	7.37019e+06	-50839.1	1005.82	-29754.4	0.000000	0.000000	6.090767	0.044275	NaN	0.000000	0.001549	0.001752	28.0817	0.046342	0.001962	23.6172	-3.336279	-163.108	0.022157	0.088698	-0.969925	-0.971220	0.044275	23.6172	-0.971331	-9.323869E+12	-4.748563E-15	NaN
525	1.000000	0.097978	7.37019e+06	-50839.1	1005.82	-29754.4	0.000000	0.000000	6.098752	0.041069	NaN	0.000000	0.001610	0.001761	28.082	0.110208	0.001918	57.4717	-155.53	-163.849	0.055193	0.096667	-0.961940	-0.963251	0.041069	57.4717	-0.962476	-7.083448E+12	-5.797832E-15	NaN
525	1.000000	0.106024	7.37019e+06	-50839.1	1005.82	-29754.4	0.000000	0.000000	6.106797	0.020100	NaN	0.000000	0.001616	0.001758	28.0819	0.037338	0.002076	17.9885	-149.113	-167.656	-0.027686	0.104665	-0.953894	-0.955253	0.020100	17.9885	-0.954732	-5.569811E+12	-3.608739E-15	NaN
525	1.000000	0.114007	7.37019e+06	-50839.1	1005.82	-29754.4	0.000000	0.000000	6.114781	0.044739	NaN	0.000000	0.001570	0.001737	28.0818	0.038212	0.002057	18.5797	-116.664	-165.744	0.053216	0.112697	-0.945911	-0.947221	0.044739	18.5797	-0.947717	-4.479510E+12	-9.987496E-15	NaN
525	1.000000	0.122022	7.37019e+06	-50839.1	1005.82	-29754.4	0.000000	0.000000	6.122794	-0.009718	NaN	0.000000	0.001614	0.001716	28.082	0.055931	0.002174	25.7308	32.5243	-167.363	0.107842	0.120657	-0.937896	-0.939261	-0.009718	25.7308	-0.937613	-3.272849E+12	2.969419E-15	NaN
525	1.000000	0.130008	7.37019e+06	-50839.1	1005.82	-29754.4	0.000000	0.000000	6.130782	0.051779	NaN	0.000000	0.001595	0.001724	28.0817	0.058699	0.001942	30.2205	-126.734	-165.047	-0.059475	0.128736	-0.929910	-0.931182	0.051779	30.2205	-0.931195	-2.681169E+12	-1.931208E-14	NaN
525	1.000000	0.138017	7.37019e+06	-50839.1	1005.82	-29754.4	0.000000	0.000000	6.138787	-0.043182	NaN	0.000000	0.001684	0.001738	28.0819	0.079579	0.001999	39.8136	-39.776	-164.554	-0.002210	0.136685	-0.921901	-0.923233	-0.043182	39.8136	-0.921088	-1.958357E+12	2.205002E-14	NaN
525	1.000000	0.146009	7.37019e+06	-50839.1	1005.82	-29754.4	0.000000	0.000000	6.146778	-0.059668	NaN	0.000000	0.001670	0.001745	28.0819	0.057016	0.002068	27.5718	71.7125	-166.991	0.008476	0.144711	-0.913909	-0.915207	-0.059668	27.5718	-0.912286	-1.489503E+12	4.005876E-14	NaN
525	1.000000	0.154020	7.37019e+06	-50839.1	1005.82	-29754.4	0.000000	0.000000	6.154792	0.004427	NaN	0.000000	0.001687	0.001761	28.0819	0.142462	0.002041	69.8083	98.599	-165.209	0.058670	0.152683	-0.905898	-0.907235	0.004427	69.8083	-0.905946	-1.222928E+12	-3.620294E-15	NaN
525	1.000000	0.162005	7.37019e+06	-50839.1	1005.82	-29754.4	0.000000	0.000000	6.162771	-0.146722	NaN	0.000000	0.001731	0.001714	28.0819	0.068481	0.002096	32.6698	-90.3344	-165.141	-0.082305	0.160744	-0.897913	-0.899174	-0.146722	32.6698	-0.894544	-8.577075E+11	1.710635E-13	NaN
525	1.000000	0.170013	7.37019e+06	-50839.1	1005.82	-29754.4	0.000000	0.000000	6.170783	-0.026946	NaN	0.000000	0.001727	0.001694	28.0818	0.084240	0.001898	44.3733	105.965	-169.686	0.018333	0.168733	-0.889905	-0.891186	-0.026946	44.3733	-0.889450	-7.319477E+11	3.681379E-14	NaN
525	1.000000	0.178045	7.37019e+06	-50839.1	1005.82	-29754.4	0.000000	0.000000	6.178818	0.023543	NaN	0.000000	0.001703	0.001749	28.0818	0.108663	0.001972	55.0908	-94.9225	-166.313	0.032755	0.176710	-0.881873	-0.883208	0.023543	55.0908	-0.882193	-5.839394E+11	-4.031699E-14	NaN
525	1.000000	0.186038	7.37019e+06	-50839.1	1005.82	-29754.4	0.000000	0.000000	6.186810	0.004559	NaN	0.000000	0.001692	0.001715	28.0818	0.050603	0.002101	24.0868	-142.474	-164.885	0.055393	0.184671	-0.873880	-0.875247	0.004559	24.0868	-0.874022	-4.527441E+11	-1.006877E-14	NaN
525	1.000000	0.194037	7.37019e+06	-50839.1	1005.82	-29754.4	0.000000	0.000000	6.194809	-0.011560	NaN	0.000000	0.001644	0.001719	28.0829	0.080377	0.001889	42.55	12.5803	-166.576	-0.048268	0.192721	-0.865881	-0.867197	-0.011560	42.55	-0.865677	-3.491002E+11	3.311486E-14	NaN
525	1.000000	0.202043	7.37019e+06	-50839.1	1005.82	-29754.4	0.000000	0.000000	6.202814	-0.022890	NaN	0.000000	0.001662	0.001702	28.083	0.044034	0.001939	22.7102	13.5163	-164.59	-0.026008	0.200710	-0.857875	-0.859208	-0.022890	22.7102	-0.857119	-2.673757E+11	8.561033E-14	NaN
525	1.000000	0.210044	7.37019e+06	-50839.1	1005.82	-29754.4	0.000000	0.000000	6.210816	0.013874	NaN	0.000000	0.001631	0.001727	28.0829	0.055639	0.001957	28.4361	49.9455	-162.072	0.017650	0.208779	-0.849874	-0.851139	0.013874	28.4361	-0.850240	-2.157686E+11	-6.429989E-14	NaN
525	1.000000	0.218038	7.37019e+06	-50839.1	1005.82	-29754.4	0.000000	0.000000	6.218810	-0.012766	NaN	0.000000	0.001663	0.001751	28.0831	0.066124	0.001950	33.9043	-69.6729	-162.449	0.063488	0.216788	-0.841880	-0.843130	-0.012766	33.9043	-0.841597	-1.647907E+11	7.746595E-14	NaN
525	1.000000	0.226073	7.37019e+06	-50839.1	1005.82	-29754.4	0.000000	0.000000	6.226843	-0.043240	NaN	0.000000	0.001646	0.001728	28.0829	0.084437	0.001821	46.3667	-23.5896	-162.266	-0.053161	0.224684	-0.833845	-0.835234	-0.043240	46.3667	-0.833146	-1.265967E+11	3.415549E-13	NaN
525	1.000000	0.234066	7.37019e+06	-50839.1	1005.82	-29754.4	0.000000	0.000000	6.234834	-0.094191	NaN	0.000000	0.001635	0.001725	28.0832	0.070957	0.002052	34.5764	5.083720	-162.016	-0.096955	0.232691	-0.825852	-0.827227	-0.094191	34.5764	-0.823809	-9.459251E+10	9.957587E-13	NaN
525	1.000000	0.242051	7.37019e+06	-50839.1	1005.82	-29754.4	0.000000	0.000000	6.242825	0.060914	NaN	0.000000	0.001688	0.001739	28.083	0.043317	0.001864	23.2392	156.217	-167.933	0.069097	0.240707	-0.817867	-0.819211	0.060914	23.2392	-0.819833	-8.355058E+10	-7.290670E-13	NaN
525	1.000000	0.250075	7.37019e+06	-50839.1	1005.82	-29754.4	0.000000	0.000000	6.250845	-0.043106	NaN	0.000000	0.001693	0.001740	28.0832	0.032308	0.001870	17.2807	42.6377	-163.541	-0.079201	0.248723	-0.809844	-0.811196	-0.043106	17.2807	-0.807973	-5.768525E+10	7.472670E-13	NaN
525	1.000000	0.258033	7.37019e+06	-50839.1	1005.82	-29754.4	0.000000	0.000000	6.258804	-0.028199	NaN	0.000000	0.001713	0.001749	28.083	0.015431	0.002005	7.695934	105.785	-165.773	-0.025921	0.256711	-0.801885	-0.803208	-0.028199	7.695934	-0.799137	-4.376716E+10	6.442906E-13	NaN
525	1.000000	0.266057	7.37019e+06	-50839.1	1005.82	-29754.4	0.000000	0.000000	6.266828	-0.027746	NaN	0.000000	0.001697	0.001739	28.0828	0.065332	0.002042	31.9882	151.918	-166.612	0.014045	0.264745	-0.793861	-0.795173	-0.027746	31.9882	-0.793211	-3.636527E+10	7.629811E-13	NaN
525	1.000000	0.274097	7.37019e+06	-50839.1	1005.82	-29754.4	0.000000	0.000000	6.274870	0.026215	NaN	0.000000	0.001692	0.001710	28.0832	0.099876	0.001966	50.8044	10.2392	-165.335	0.044940	0.272744	-0.785821	-0.787174	0.026215	50.8044	-0.786208	-2.921343E+10	-8.973465E-13	NaN
525	1.000000	0.282088	7.37019e+06	-50839.1	1005.82	-29754.4	0.000000	0.000000	6.282859	-0.009022	NaN	0.000000	0.001715	0.001711	28.0833	0.058723	0.001884	31.1725	16.5944	-165.981	-0.096294	0.280749	-0.777830	-0.779169	-0.009022	31.1725	-0.777613	-2.232531E+10	4.041212E-13	NaN
525	1.000000	0.290062	7.37019e+06	-50839.1	1005.82	-29754.4	0.000000	0.000000	6.290835	0.034327	NaN	0.000000	0.001702	0.001723	28.0834	0.106637	0.001896	56.2316	-148.927	-167.957	0.038118	0.288756	-0.769856	-0.771162	0.034327	56.2316	-0.770314	-1.776526E+10	-1.932272E-12	NaN
525	1.000000	0.298061	7.37019e+06	-50839.1	1005.82	-29754.4	0.000000	0.000000	6.298831	-0.030036	NaN	0.000000	0.001659	0.001761	28.0832	0.043088	0.002007	21.4727	66.4916	-165.178	-0.133501	0.296814	-0.761857	-0.763104	-0.030036	21.4727	-0.760808	-1.319165E+10	2.276927E-12	NaN
525	1.000000	0.306113	7.37019e+06	-50839.1	1005.82	-29754.4	0.000000	0.000000	6.306882	-0.061922	NaN	0.000000	0.001676	0.001726	28.0832	0.034162	0.002003	17.0592	112.782	-168.421	-0.088019	0.304802	-0.753805	-0.755116	-0.061922	17.0592	-0.751083	-9.726614E+9	6.366211E-12	NaN
525	1.000000	0.314102	7.37019e+06	-50839.1	1005.82	-29754.4	0.000000	0.000000	6.314872	-0.062296	NaN	0.000000	0.001678	0.001723	28.0832	0.061139	0.002113	28.9348	-84.4588	-167.436	-0.039548	0.312798	-0.745816	-0.747120	-0.062296	28.9348	-0.744201	-7.839183E+9	7.946726E-12	NaN
525	1.000000	0.322097	7.37019e+06	-50839.1	1005.82	-29754.4	0.000000	0.000000	6.322869	0.015942	NaN	0.000000	0.001666	0.001732	28.0832	0.010993	0.001807	6.084194	177.754	-164.68	0.038246	0.320769	-0.737822	-0.739149	0.015942	6.084194	-0.739787	-6.825777E+9	-2.335625E-12	NaN
525	1.000000	0.330083	7.37019e+06	-50839.1	1005.82	-29754.4	0.000000	0.000000	6.330855	-0.009408	NaN	0.000000	0.001662	0.001731	28.0822	0.028568	0.001908	14.9762	47.0598	-165.478	-0.006763	0.328817	-0.729835	-0.731101	-0.009408	14.9762	-0.729364	-4.921971E+9	1.911342E-12	NaN
525	1.000000	0.338109	7.37019e+06	-50839.1	1005.82	-29754.4	0.000000	0.000000	6.338881	-0.010556	NaN	0.000000	0.001671	0.001720	28.082	0.026854	0.002022	13.2838	116.874	-162.267	-0.000381	0.336767	-0.721809	-0.723151	-0.010556	13.2838	-0.721213	-3.810799E+9	2.770132E-12	NaN
525	1.000000	0.346110	7.37019e+06	-50839.1	1005.82	-29754.4	0.000000	0.000000	6.346878	-0.092554	NaN	0.000000	0.001654	0.001733	28.0819	0.043631	0.001970	22.1446	-133.056	-162.911	-0.071326	0.344776	-0.713808	-0.715142	-0.092554	22.1446	-0.710673	-2.736759E+9	3.381892E-11	NaN
525	1.000000	0.354126	7.37019e+06	-50839.1	1005.82	-29754.4	0.000000	0.000000	6.354895	-0.066133	NaN	0.000000	0.001657	0.001737	28.0819	0.080661	0.001941	41.5483	149.61	-166.7	-0.071112	0.352853	-0.705792	-0.707065	-0.066133	41.5483	-0.704598	-2.261082E+9	2.924827E-11	NaN
525	1.000000	0.362093	7.37019e+06	-50839.1	1005.82	-29754.4	0.000000	0.000000	6.362865	-0.014132	NaN	0.000000	0.001649	0.001746	28.082	0.025246	0.002109	11.9723	52.3544	-161.49	-0.013426	0.360700	-0.697825	-0.699218	-0.014132	11.9723	-0.696940	-1.777184E+9	7.951662E-12	NaN
525	1.000000	0.370106	7.37019e+06	-50839.1	1005.82	-29754.4	0.000000	0.000000	6.370883	0.125024	NaN	0.000000	0.001643	0.001719	28.0819	0.031537	0.001988	15.8607	-45.9881	-168.987	0.055868	0.368846	-0.689813	-0.691072	0.125024	15.8607	-0.695724	-1.710541E+9	-7.309011E-11	NaN
525	1.000000	0.378134	7.37019e+06	-50839.1	1005.82	-29754.4	0.000000	0.000000	6.378906	-0.007984	NaN	0.000000	0.001601	0.001751	28.0819	0.100424	0.002078	48.3229	90.7214	-166.158	0.002211	0.376826	-0.681784	-0.683092	-0.007984	48.3229	-0.681660	-1.098769E+9	7.265945E-12	NaN
525	1.000000	0.386075	7.37019e+06	-50839.1	1005.82	-29754.4	0.000000	0.000000	6.386846	-0.026506	NaN	0.000000	0.001649	0.001700	28.0821	0.074948	0.001988	37.6967	-11.3292	-168.273	0.011829	0.384880	-0.673843	-0.675038	-0.026506	37.6967	-0.673316	-8.448303E+8	3.137405E-11	NaN
525	1.000000	0.394103	7.37019e+06	-50839.1	1005.82	-29754.4	0.000000	0.000000	6.394875	-0.000845	NaN	0.000000	0.001624	0.001726	28.0817	0.017763	0.001952	9.099339	-129.377	-167.201	-0.036493	0.392817	-0.665815	-0.667101	-0.000845	9.099339	-0.665745	-6.655028E+8	1.269349E-12	NaN
525	1.000000	0.402113	7.37019e+06	-50839.1	1005.82	-29754.4	0.000000	0.000000	6.402885	-0.000667	NaN	0.000000	0.001654	0.001743	28.0818	0.104754	0.001897	55.2189	25.4692	-166.946	3.735010E-5	0.400832	-0.657805	-0.659086	-0.000667	55.2189	-0.657796	-5.179347E+8	1.287294E-12	NaN
525	1.000000	0.410117	7.37019e+06	-50839.1	1005.82	-29754.4	0.000000	0.000000	6.410890	0.030777	NaN	0.000000	0.001659	0.001735	28.0817	0.087628	0.001910	45.8864	12.864	-163.919	-0.035984	0.408822	-0.649801	-0.651096	0.030777	45.8864	-0.650304	-4.088880E+8	-7.527034E-11	NaN
525	1.000000	0.418128	7.37019e+06	-50839.1	1005.82	-29754.4	0.000000	0.000000	6.418899	-0.035546	NaN	0.000000	0.001668	0.001732	28.0818	0.102694	0.001872	54.8623	-63.6689	-163.392	-0.063506	0.416818	-0.641790	-0.643100	-0.035546	54.8623	-0.641304	-3.077379E+8	1.155065E-10	NaN
525	1.000000	0.426167	7.37019e+06	-50839.1	1005.82	-29754.4	0.000000	0.000000	6.426938	-0.018102	NaN	0.000000	0.001654	0.001740	28.0817	0.094896	0.001976	48.0336	87.2543	-161.832	0.029678	0.424825	-0.633751	-0.635093	-0.018102	48.0336	-0.633469	-2.402428E+8	7.534782E-11	NaN
525	1.000000	0.434160	7.37019e+06	-50839.1	1005.82	-29754.4	0.000000	0.000000	6.434932	0.001818	NaN	0.000000	0.001647	0.001708	28.0819	0.049051	0.001904	25.7629	21.4096	-163.245	0.038308	0.432830	-0.625758	-0.627088	0.001818	25.7629	-0.625811	-1.885751E+8	-9.639879E-12	NaN
525	1.000000	0.442145	7.37019e+06	-50839.1	1005.82	-29754.4	0.000000	0.000000	6.442916	-0.031785	NaN	0.000000	0.001663	0.001707	28.0816	0.018167	0.001982	9.168350	31.1943	-164.136	0.024477	0.440848	-0.617773	-0.619070	-0.031785	9.168350	-0.615173	-1.346688E+8	2.360209E-10	NaN
525	1.000000	0.450143	7.37019e+06	-50839.1	1005.82	-29754.4	0.000000	0.000000	6.450910	-0.115030	NaN	0.000000	0.001680	0.001728	28.0816	0.106101	0.002046	51.8545	169.082	-166.413	-0.107140	0.448820	-0.609775	-0.611098	-0.115030	51.8545	-0.608111	-1.076776E+8	1.068286E-9	NaN
525	1.000000	0.458163	7.37019e+06	-50839.1	1005.82	-29754.4	0.000000	0.000000	6.458934	-0.025210	NaN	0.000000	0.001670	0.001756	28.0818	0.086241	0.002110	40.8805	99.5086	-165.97	0.040216	0.456841	-0.601755	-0.603077	-0.025210	40.8805	-0.601293	-8.674880E+7	2.906081E-10	NaN
525	1.000000	0.466160	7.37019e+06	-50839.1	1005.82	-29754.4	0.000000	0.000000	6.466931	-0.007451	NaN	0.000000	0.001673	0.001733	28.0829	0.026865	0.001914	14.0365	8.060652	-166.91	-0.042896	0.464873	-0.593759	-0.595045	-0.007451	14.0365	-0.593360	-6.745076E+7	1.104702E-10	NaN
525	1.000000	0.474160	7.37019e+06	-50839.1	1005.82	-29754.4	0.000000	0.000000	6.474931	-0.018148	NaN	0.000000	0.001640	0.001759	28.083	0.030023	0.002037	14.7401	157.798	-167.839	-0.068112	0.472878	-0.585758	-0.587040	-0.018148	14.7401	-0.584835	-5.145636E+7	3.526842E-10	NaN
525	1.000000	0.482197	7.37019e+06	-50839.1	1005.82	-29754.4	0.000000	0.000000	6.482969	0.002337	NaN	0.000000	0.001655	0.001710	28.0829	0.038142	0.001997	19.1021	60.4299	-164.413	0.040417	0.480858	-0.577721	-0.579060	0.002337	19.1021	-0.577813	-4.116585E+7	-5.678050E-11	NaN
525	1.000000	0.490139	7.37019e+06	-50839.1	1005.82	-29754.4	0.000000	0.000000	6.490909	-0.056078	NaN	0.000000	0.001631	0.001772	28.0827	0.118845	0.001856	64.0166	-81.9898	-165.697	-0.061731	0.488887	-0.569779	-0.571031	-0.056078	64.0166	-0.569122	-3.122474E+7	1.795941E-9	NaN
525	1.000000	0.498180	7.37019e+06	-50839.1	1005.82	-29754.4	0.000000	0.000000	6.498950	-0.068229	NaN	0.000000	0.001659	0.001782	28.0827	0.073145	0.001898	38.5352	29.5977	-163.4	-0.064380	0.496860	-0.561738	-0.563059	-0.068229	38.5352	-0.560410	-2.366170E+7	2.883513E-9	NaN
525	1.000000	0.506188	7.37019e+06	-50839.1	1005.82	-29754.4	0.000000	0.000000	6.506957	-0.088696	NaN	0.000000	0.001659	0.001766	28.083	0.024063	0.001994	12.0674	163.99	-163.103	-0.041812	0.504781	-0.553730	-0.555137	-0.088696	12.0674	-0.548217	-1.604201E+7	5.528958E-9	NaN
525	1.000000	0.514195	7.37019e+06	-50839.1	1005.82	-29754.4	0.000000	0.000000	6.514966	-0.014411	NaN	0.000000	0.001680	0.001700	28.0831	0.116914	0.002040	57.3245	-178.593	-164.696	-0.065099	0.512889	-0.545723	-0.547029	-0.014411	57.3245	-0.545534	-1.472607E+7	9.786077E-10	NaN
525	1.000000	0.522221	7.37019e+06	-50839.1	1005.82	-29754.4	0.000000	0.000000	6.522993	-0.016845	NaN	0.000000	0.001645	0.001734	28.083	0.141920	0.002008	70.6758	150.881	-163.329	0.034205	0.520875	-0.537697	-0.539043	-0.016845	70.6758	-0.537518	-1.140060E+7	1.477520E-9	NaN
525	1.000000	0.530198	7.37019e+06	-50839.1	1005.82	-29754.4	0.000000	0.000000	6.530967	-0.056061	NaN	0.000000	0.001651	0.001759	28.0829	0.032085	0.002007	15.9833	-171.114	-164.592	-0.029876	0.528864	-0.529720	-0.531054	-0.056061	15.9833	-0.527090	-8.16864e+06	6.862974E-9	NaN
525	1.000000	0.538160	7.37019e+06	-50839.1	1005.82	-29754.4	0.000000	0.000000	6.538929	-0.071206	NaN	0.000000	0.001639	0.001736	28.083	0.055516	0.002022	27.462	-134.145	-167.255	-0.077122	0.536878	-0.521758	-0.523040	-0.071206	27.462	-0.519813	-6.47143e+06	1.100320E-8	NaN
525	1.000000	0.546200	7.37019e+06	-50839.1	1005.82	-29754.4	0.000000	0.000000	6.546974	0.054110	NaN	0.000000	0.001651	0.001738	28.0829	0.060191	0.002031	29.639	-113.682	-166.736	-0.014308	0.544890	-0.513718	-0.515029	0.054110	29.639	-0.515088	-5.56226e+06	-9.727971E-9	NaN
525	1.000000	0.554180	7.37019e+06	-50839.1	1005.82	-29754.4	0.000000	0.000000	6.554948	-0.092043	NaN	0.000000	0.001625	0.001700	28.0831	0.062541	0.002054	30.45	90.5201	-163.69	-0.053015	0.552871	-0.505738	-0.507047	-0.092043	30.45	-0.503471	-3.83198e+06	2.401981E-8	NaN
525	1.000000	0.562229	7.37019e+06	-50839.1	1005.82	-29754.4	0.000000	0.000000	6.562999	-0.042354	NaN	0.000000	0.001633	0.001719	28.0831	0.054081	0.001859	29.089	-111.236	-163.668	0.004719	0.560887	-0.497689	-0.499031	-0.042354	29.089	-0.496597	-3.0728e+06	1.378357E-8	NaN
525	1.000000	0.570199	7.37019e+06	-50839.1	1005.82	-29754.4	0.000000	0.000000	6.570970	-0.021487	NaN	0.000000	0.001653	0.001753	28.0831	0.114640	0.002104	54.4801	-131.692	-163.197	-0.046736	0.568858	-0.489719	-0.491060	-0.021487	54.4801	-0.489423	-2.43968e+06	8.807432E-9	NaN
525	1.000000	0.578190	7.37019e+06	-50839.1	1005.82	-29754.4	0.000000	0.000000	6.578962	-0.002406	NaN	0.000000	0.001642	0.001697	28.0832	0.079988	0.001872	42.7346	-119.37	-168.05	0.035460	0.576903	-0.481728	-0.483016	-0.002406	42.7346	-0.481685	-1.9016e+06	1.265084E-9	NaN
525	1.000000	0.586232	7.37019e+06	-50839.1	1005.82	-29754.4	0.000000	0.000000	6.586998	-0.139595	NaN	0.000000	0.001616	0.001697	28.0832	0.034981	0.002058	16.9945	-126.275	-165.609	-0.107048	0.584945	-0.473686	-0.474973	-0.139595	16.9945	-0.467526	-1.2042e+06	1.159238E-7	NaN
525	1.000000	0.594214	7.37019e+06	-50839.1	1005.82	-29754.4	0.000000	0.000000	6.594985	-0.001487	NaN	0.000000	0.001637	0.001675	28.0832	0.120105	0.001992	60.2805	-64.3951	-170.082	-0.009735	0.592902	-0.465704	-0.467017	-0.001487	60.2805	-0.465686	-1.13469e+06	1.310253E-9	NaN
525	1.000000	0.602200	7.37019e+06	-50839.1	1005.82	-29754.4	0.000000	0.000000	6.602968	-0.083790	NaN	0.000000	0.001654	0.001725	28.0818	0.053415	0.001907	28.016	-152.623	-169.398	-0.010472	0.600864	-0.457718	-0.459054	-0.083790	28.016	-0.455475	-815457	1.027526E-7	NaN
525	1.000000	0.610208	7.37019e+06	-50839.1	1005.82	-29754.4	0.000000	0.000000	6.610978	-0.043885	NaN	0.000000	0.001642	0.001715	28.082	0.101550	0.001994	50.9154	81.4181	-165.209	-0.067000	0.608916	-0.449710	-0.451002	-0.043885	50.9154	-0.449064	-662455	6.624570E-8	NaN
525	1.000000	0.618209	7.37019e+06	-50839.1	1005.82	-29754.4	0.000000	0.000000	6.618978	-0.070738	NaN	0.000000	0.001677	0.001697	28.0822	0.076285	0.002132	35.7793	-31.2039	-164.878	-0.003025	0.616913	-0.441709	-0.443005	-0.070738	35.7793	-0.440226	-497224	1.422650E-7	NaN
525	1.000000	0.626214	7.37019e+06	-50839.1	1005.82	-29754.4	0.000000	0.000000	6.626986	0.005388	NaN	0.000000	0.001656	0.001733	28.0821	0.048170	0.001993	24.1688	-79.7477	-165.709	0.047713	0.624913	-0.433704	-0.435005	0.005388	24.1688	-0.433871	-404388	-1.332392E-8	NaN
525	1.000000	0.634210	7.37019e+06	-50839.1	1005.82	-29754.4	0.000000	0.000000	6.634982	0.002164	NaN	0.000000	0.001631	0.001726	28.0822	0.082500	0.001977	41.7201	-44.5776	-162.394	-0.067540	0.632876	-0.425708	-0.427042	0.002164	41.7201	-0.425747	-310359	-6.973780E-9	NaN
525	1.000000	0.642253	7.37019e+06	-50839.1	1005.82	-29754.4	0.000000	0.000000	6.643024	-0.018170	NaN	0.000000	0.001632	0.001746	28.0821	0.128779	0.001954	65.9193	-148.053	-166.099	0.016813	0.640861	-0.417665	-0.419057	-0.018170	65.9193	-0.417458	-236786	7.673475E-8	NaN
525	1.000000	0.650264	7.37019e+06	-50839.1	1005.82	-29754.4	0.000000	0.000000	6.651033	-0.065987	NaN	0.000000	0.001591	0.001724	28.0822	0.084491	0.001950	43.3323	-179.195	-164.639	-0.065924	0.648908	-0.409654	-0.411010	-0.065987	43.3323	-0.408512	-176699	3.734449E-7	NaN
525	1.000000	0.658227	7.37019e+06	-50839.1	1005.82	-29754.4	0.000000	0.000000	6.658996	-0.079495	NaN	0.000000	0.001596	0.001726	28.0821	0.128973	0.001908	67.6063	80.4212	-168.318	-0.051947	0.656937	-0.401691	-0.402981	-0.079495	67.6063	-0.400809	-137255	5.791799E-7	NaN
525	1.000000	0.666232	7.37019e+06	-50839.1	1005.82	-29754.4	0.000000	0.000000	6.667001	-0.072638	NaN	0.000000	0.001637	0.001697	28.0822	0.039401	0.002007	19.6362	-2.967844	-164.862	-0.069513	0.664891	-0.393686	-0.395027	-0.072638	19.6362	-0.390912	-99131.1	7.327444E-7	NaN
525	1.000000	0.674271	7.37019e+06	-50839.1	1005.82	-29754.4	0.000000	0.000000	6.675041	-0.066044	NaN	0.000000	0.001635	0.001716	28.0823	0.031601	0.001984	15.9287	3.252367	-169.796	-0.108383	0.672945	-0.385647	-0.386973	-0.066044	15.9287	-0.382537	-75211.6	8.781038E-7	NaN
525	1.000000	0.682254	7.37019e+06	-50839.1	1005.82	-29754.4	0.000000	0.000000	6.683024	-0.063176	NaN	0.000000	0.001650	0.001749	28.082	0.120657	0.002037	59.2257	73.9185	-164.479	0.004785	0.680949	-0.377664	-0.378969	-0.063176	59.2257	-0.376864	-62353	1.013195E-6	NaN
525	1.000000	0.690256	7.37019e+06	-50839.1	1005.82	-29754.4	0.000000	0.000000	6.691029	0.011870	NaN	0.000000	0.001657	0.001753	28.0822	0.014423	0.001989	7.252962	-46.7886	-163.453	-0.068480	0.688926	-0.369662	-0.370992	0.011870	7.252962	-0.370889	-51160.4	-2.320125E-7	NaN
525	1.000000	0.698261	7.37019e+06	-50839.1	1005.82	-29754.4	0.000000	0.000000	6.699032	-0.022767	NaN	0.000000	0.001656	0.001729	28.0822	0.046478	0.002031	22.8891	-147.362	-167.808	0.094136	0.696918	-0.361657	-0.363000	-0.022767	22.8891	-0.360911	-36729.3	6.198554E-7	NaN
525	1.000000	0.706240	7.37019e+06	-50839.1	1005.82	-29754.4	0.000000	0.000000	6.707011	-0.025577	NaN	0.000000	0.001633	0.001729	28.0824	0.097962	0.002001	48.9683	-86.3652	-166.172	-0.068323	0.704926	-0.353678	-0.354992	-0.025577	48.9683	-0.353286	-28488.2	8.978062E-7	NaN
525	1.000000	0.714244	7.37019e+06	-50839.1	1005.82	-29754.4	0.000000	0.000000	6.715015	-0.013152	NaN	0.000000	0.001645	0.001710	28.0825	0.032857	0.001966	16.7154	167.819	-162.442	-0.062885	0.712938	-0.345675	-0.346980	-0.013152	16.7154	-0.345084	-21656.3	6.073108E-7	NaN
525	1.000000	0.722278	7.37019e+06	-50839.1	1005.82	-29754.4	0.000000	0.000000	6.723050	0.005731	NaN	0.000000	0.001613	0.001705	28.0823	0.042191	0.002062	20.4594	-124.066	-163.517	0.004935	0.720963	-0.337640	-0.338955	0.005731	20.4594	-0.337851	-16990.5	-3.372975E-7	NaN
525	1.000000	0.730273	7.37019e+06	-50839.1	1005.82	-29754.4	0.000000	0.000000	6.731045	-0.008974	NaN	0.000000	0.001619	0.001730	28.0823	0.040429	0.002093	19.3155	-126.005	-166.679	-0.082740	0.728976	-0.329645	-0.330942	-0.008974	19.3155	-0.329296	-12739.3	7.043963E-7	NaN
525	1.000000	0.738263	7.37019e+06	-50839.1	1005.82	-29754.4	0.000000	0.000000	6.739033	-0.048933	NaN	0.000000	0.001582	0.001719	28.0837	0.096523	0.002106	45.8332	18.3096	-163.114	-0.046876	0.736965	-0.321655	-0.322953	-0.048933	45.8332	-0.320854	-9576.45	5.109699E-6	NaN
525	1.000000	0.746267	7.37019e+06	-50839.1	1005.82	-29754.4	0.000000	0.000000	6.747037	-0.033915	NaN	0.000000	0.001558	0.001713	28.0834	0.118646	0.001980	59.932	175.007	-167.012	-0.063862	0.744919	-0.313651	-0.314999	-0.033915	59.932	-0.313227	-7392.08	4.588058E-6	NaN
525	1.000000	0.754299	7.37019e+06	-50839.1	1005.82	-29754.4	0.000000	0.000000	6.755068	-0.064201	NaN	0.000000	0.001560	0.001697	28.0835	0.070383	0.002024	34.7732	40.4216	-164.415	-0.082512	0.752968	-0.305619	-0.306950	-0.064201	34.7732	-0.304234	-5439.9	1.180185E-5	NaN
525	1.000000	0.762265	7.37019e+06	-50839.1	1005.82	-29754.4	0.000000	0.000000	6.763036	-0.010549	NaN	0.000000	0.001592	0.001709	28.0835	0.060188	0.001903	31.63	-81.0635	-164.056	-0.003729	0.760933	-0.297653	-0.298985	-0.010549	31.63	-0.297403	-4304.74	2.450608E-6	NaN
525	1.000000	0.770269	7.37019e+06	-50839.1	1005.82	-29754.4	0.000000	0.000000	6.771040	-0.034431	NaN	0.000000	0.001635	0.001714	28.0837	0.098939	0.002012	49.1849	-37.2034	-165.404	-0.037652	0.769010	-0.289649	-0.290909	-0.034431	49.1849	-0.289124	-3237.19	1.063610E-5	NaN
525	1.000000	0.778294	7.37019e+06	-50839.1	1005.82	-29754.4	0.000000	0.000000	6.779067	0.016134	NaN	0.000000	0.001647	0.001709	28.0837	0.064800	0.001997	32.4513	83.0477	-165.435	0.064834	0.776951	-0.281624	-0.282967	0.016134	32.4513	-0.281997	-2529.71	-6.377708E-6	NaN
525	1.000000	0.786282	7.37019e+06	-50839.1	1005.82	-29754.4	0.000000	0.000000	6.787050	-0.093855	NaN	0.000000	0.001619	0.001702	28.0838	0.067854	0.002181	31.1149	-37.6215	-163.437	-0.067574	0.784979	-0.273636	-0.274939	-0.093855	31.1149	-0.271373	-1747.47	5.370871E-5	NaN
525	1.000000	0.794289	7.37019e+06	-50839.1	1005.82	-29754.4	0.000000	0.000000	6.795061	-0.015068	NaN	0.000000	0.001628	0.001717	28.0833	0.071728	0.002017	35.5621	-169.589	-161.38	-0.001755	0.793000	-0.265629	-0.266918	-0.015068	35.5621	-0.265311	-1412.97	1.066422E-5	NaN
525	1.000000	0.802303	7.37019e+06	-50839.1	1005.82	-29754.4	0.000000	0.000000	6.803076	0.034534	NaN	0.000000	0.001604	0.001752	28.0835	0.079267	0.002050	38.6643	85.7734	-163.355	0.005915	0.800998	-0.257615	-0.258921	0.034534	38.6643	-0.258285	-1103.09	-3.130678E-5	NaN
525	1.000000	0.810285	7.37019e+06	-50839.1	1005.82	-29754.4	0.000000	0.000000	6.811056	-0.026228	NaN	0.000000	0.001613	0.001740	28.0834	0.111394	0.002087	53.3816	82.3007	-161.59	-0.075317	0.808987	-0.249633	-0.250931	-0.026228	53.3816	-0.249264	-800.917	3.274719E-5	NaN
525	1.000000	0.818275	7.37019e+06	-50839.1	1005.82	-29754.4	0.000000	0.000000	6.819045	-0.055829	NaN	0.000000	0.001633	0.001735	28.0834	0.065950	0.001950	33.8135	-79.0882	-165.264	-0.029491	0.817012	-0.241643	-0.242906	-0.055829	33.8135	-0.240404	-583.268	9.571821E-5	NaN
525	1.000000	0.826297	7.37019e+06	-50839.1	1005.82	-29754.4	0.000000	0.000000	6.827067	-0.037413	NaN	0.000000	0.001652	0.001712	28.0835	0.065518	0.001988	32.956	1.220678	-165.252	-0.034109	0.825020	-0.233622	-0.234898	-0.037413	32.956	-0.232770	-442.783	8.449455E-5	NaN
525	1.000000	0.834312	7.37019e+06	-50839.1	1005.82	-29754.4	0.000000	0.000000	6.835083	-0.026738	NaN	0.000000	0.001658	0.001742	28.0833	0.019777	0.001945	10.1685	-176.574	-160.221	-0.062933	0.833002	-0.225606	-0.226916	-0.026738	10.1685	-0.223634	-317.405	8.423802E-5	NaN
525	1.000000	0.842317	7.37019e+06	-50839.1	1005.82	-29754.4	0.000000	0.000000	6.843083	-0.144133	NaN	0.000000	0.001676	0.001744	28.0835	0.122557	0.001950	62.846	109.371	-163.954	-0.149866	0.841002	-0.217601	-0.218916	-0.144133	62.846	-0.215881	-238.603	0.000604	NaN
525	1.000000	0.850336	7.37019e+06	-50839.1	1005.82	-29754.4	0.000000	0.000000	6.851105	-0.059039	NaN	0.000000	0.001583	0.001806	28.0833	0.163578	0.001967	83.1755	-116.731	-167.496	-0.034288	0.849027	-0.209582	-0.210891	-0.059039	83.1755	-0.209050	-185.106	0.000319	NaN
525	1.000000	0.858341	7.37019e+06	-50839.1	1005.82	-29754.4	0.000000	0.000000	6.859111	-0.053995	NaN	0.000000	0.001606	0.001740	28.0831	0.094358	0.002000	47.176	115.609	-165.773	-0.027727	0.856965	-0.201577	-0.202953	-0.053995	47.176	-0.200718	-135.362	0.000399	NaN
525	1.000000	0.866312	7.37019e+06	-50839.1	1005.82	-29754.4	0.000000	0.000000	6.867082	-0.057608	NaN	0.000000	0.001634	0.001710	28.0834	0.074330	0.001993	37.3038	87.9084	-164.332	-0.065311	0.864977	-0.193606	-0.194941	-0.057608	37.3038	-0.192447	-98.8161	0.000583	NaN
525	1.000000	0.874328	7.37019e+06	-50839.1	1005.82	-29754.4	0.000000	0.000000	6.875098	-0.029079	NaN	0.000000	0.001623	0.001770	28.0819	0.088353	0.001939	45.5598	-160.057	-166.285	-0.167013	0.873048	-0.185590	-0.186870	-0.029079	45.5598	-0.185112	-74.4758	0.000390	NaN
525	1.000000	0.882320	7.37019e+06	-50839.1	1005.82	-29754.4	0.000000	0.000000	6.883090	-0.053271	NaN	0.000000	0.001631	0.001732	28.0822	0.034110	0.002041	16.7087	52.7553	-164.753	-0.127020	0.881056	-0.177598	-0.178862	-0.053271	16.7087	-0.175207	-50.5276	0.001054	NaN
525	1.000000	0.890299	7.37019e+06	-50839.1	1005.82	-29754.4	0.000000	0.000000	6.891070	-0.035091	NaN	0.000000	0.001627	0.001756	28.0818	0.027997	0.002075	13.4947	168.608	-164.558	-0.070640	0.889027	-0.169619	-0.170891	-0.035091	13.4947	-0.167668	-37.413	0.000938	NaN
525	1.000000	0.898323	7.37019e+06	-50839.1	1005.82	-29754.4	0.000000	0.000000	6.899094	-0.019366	NaN	0.000000	0.001627	0.001740	28.0819	0.118723	0.002042	58.1325	-70.8404	-162.515	0.078434	0.897044	-0.161595	-0.162874	-0.019366	58.1325	-0.161346	-28.9639	0.000669	NaN
525	1.000000	0.906338	7.37019e+06	-50839.1	1005.82	-29754.4	0.000000	0.000000	6.907109	-0.018884	NaN	0.000000	0.001649	0.001702	28.0819	0.056172	0.001888	29.7554	-87.896	-163.547	-0.007835	0.904982	-0.153581	-0.154936	-0.018884	29.7554	-0.153105	-20.6247	0.000916	NaN
525	1.000000	0.914376	7.37019e+06	-50839.1	1005.82	-29754.4	0.000000	0.000000	6.915147	-0.025246	NaN	0.000000	0.001612	0.001714	28.0821	0.069910	0.002013	34.7207	-82.3277	-162.462	-0.039649	0.913029	-0.145542	-0.146890	-0.025246	34.7207	-0.144997	-14.659	0.001722	NaN
525	1.000000	0.922340	7.37019e+06	-50839.1	1005.82	-29754.4	0.000000	0.000000	6.923113	0.033709	NaN	0.000000	0.001598	0.001704	28.0836	0.058697	0.001972	29.7602	53.6435	-162.013	-0.017184	0.921042	-0.137578	-0.138876	0.033709	29.7602	-0.138428	-11.05	-0.003051	NaN
525	1.000000	0.930329	7.37019e+06	-50839.1	1005.82	-29754.4	0.000000	0.000000	6.931097	-0.083862	NaN	0.000000	0.001634	0.001725	28.082	0.055950	0.001865	29.9977	-130.63	-166.204	-0.080477	0.929030	-0.129590	-0.130888	-0.083862	29.9977	-0.127493	-6.809087	0.012316	NaN
525	1.000000	0.938349	7.37019e+06	-50839.1	1005.82	-29754.4	0.000000	0.000000	6.939121	0.006445	NaN	0.000000	0.001560	0.001742	28.082	0.015136	0.002058	7.354638	-48.04	-164.146	0.021540	0.937055	-0.121569	-0.122863	0.006445	7.354638	-0.122226	-5.355658	-0.001203	NaN
525	1.000000	0.946355	7.37019e+06	-50839.1	1005.82	-29754.4	0.000000	0.000000	6.947129	0.052492	NaN	0.000000	0.001591	0.001715	28.0822	0.052991	0.002023	26.2	-100.666	-163.833	-0.056107	0.945062	-0.113563	-0.114856	0.052492	26.2	-0.115066	-3.832291	-0.013697	NaN
525	1.000000	0.954350	7.37019e+06	-50839.1	1005.82	-29754.4	0.000000	0.000000	6.955118	-0.099405	NaN	0.000000	0.001590	0.001719	28.0824	0.042536	0.001983	21.4523	56.0294	-163.6	-0.119728	0.953032	-0.105568	-0.106886	-0.099405	21.4523	-0.102093	-2.031901	0.048922	NaN
525	1.000000	0.962339	7.37019e+06	-50839.1	1005.82	-29754.4	0.000000	0.000000	6.963109	-0.040944	NaN	0.000000	0.001573	0.001731	28.0823	0.091756	0.002019	45.4537	-49.4788	-162.95	-0.031857	0.961044	-0.097580	-0.098874	-0.040944	45.4537	-0.096904	-1.557996	0.026280	NaN
525	1.000000	0.970336	7.37019e+06	-50839.1	1005.82	-29754.4	0.000000	0.000000	6.971109	0.021392	NaN	0.000000	0.001601	0.001705	28.0824	0.052885	0.001968	26.874	-160.601	-164.096	-0.027968	0.969056	-0.089582	-0.090862	0.021392	26.874	-0.090179	-1.091476	-0.019599	NaN
525	1.000000	0.978384	7.37019e+06	-50839.1	1005.82	-29754.4	0.000000	0.000000	6.979153	-0.073854	NaN	0.000000	0.001572	0.001703	28.0824	0.096293	0.002019	47.7005	169.594	-164.781	-0.069166	0.977047	-0.081534	-0.082871	-0.073854	47.7005	-0.080372	-0.632394	0.116785	NaN
525	1.000000	0.986371	7.37019e+06	-50839.1	1005.82	-29754.4	0.000000	0.000000	6.987143	-0.018318	NaN	0.000000	0.001590	0.001745	28.0823	0.162003	0.001944	83.3413	-82.7042	-166.264	-0.104972	0.985018	-0.073547	-0.074900	-0.018318	83.3413	-0.073382	-0.419199	0.043697	NaN
525	1.000000	0.994364	7.37019e+06	-50839.1	1005.82	-29754.4	0.000000	0.000000	6.995136	0.015877	NaN	0.000000	0.001575	0.001700	28.0821	0.054070	0.002069	26.1347	117.561	-165.956	0.010293	0.993065	-0.065554	-0.066853	0.015877	26.1347	-0.066010	-0.265763	-0.059742	NaN
525	1.000000	1.002384	7.37019e+06	-50839.1	1005.82	-29754.4	0.000000	0.000000	7.003155	-0.026987	NaN	0.000000	0.001578	0.001722	28.0824	0.063751	0.002068	30.8322	-15.019	-164.773	0.018799	1.001056	-0.057534	-0.058862	-0.026987	30.8322	-0.056877	-0.146231	0.184548	NaN
525	1.000000	1.010420	7.37019e+06	-50839.1	1005.82	-29754.4	0.000000	0.000000	7.011193	0.013432	NaN	0.000000	0.001611	0.001710	28.0836	0.059769	0.001880	31.7957	-98.182	-158.184	-0.049483	1.009103	-0.049498	-0.050815	0.013432	31.7957	-0.049815	-0.090080	-0.149107	NaN
525	1.000000	1.018369	7.37019e+06	-50839.1	1005.82	-29754.4	0.000000	0.000000	7.019141	-0.003436	NaN	0.000000	0.001618	0.001730	28.0836	0.101023	0.002081	48.5467	124.308	-164.663	-0.006502	1.017124	-0.041549	-0.042794	-0.003436	48.5467	-0.041496	-0.050222	0.068422	NaN
525	1.000000	1.026390	7.37019e+06	-50839.1	1005.82	-29754.4	0.000000	0.000000	7.027161	-0.022144	NaN	0.000000	0.001589	0.001745	28.0836	0.049961	0.001905	26.2289	120.138	-168.725	-0.014393	1.025115	-0.033528	-0.034804	-0.022144	26.2289	-0.032895	-0.027804	0.796433	NaN
525	1.000000	1.034407	7.37019e+06	-50839.1	1005.82	-29754.4	0.000000	0.000000	7.035177	-0.050249	NaN	0.000000	0.001605	0.001734	28.0833	0.017070	0.002074	8.231794	-102.063	-161.693	-0.081464	1.033092	-0.025511	-0.026826	-0.050249	8.231794	-0.020933	-0.013266	3.787848	NaN
525	1.000000	1.042398	7.37019e+06	-50839.1	1005.82	-29754.4	0.000000	0.000000	7.043168	-0.068400	NaN	0.000000	0.001565	0.001697	28.0832	0.067044	0.001855	36.1366	-139.336	-165.726	-0.028614	1.041093	-0.017520	-0.018825	-0.068400	36.1366	-0.016100	-0.009945	6.877986	NaN
525	1.000000	1.050403	7.37019e+06	-50839.1	1005.82	-29754.4	0.000000	0.000000	7.051175	-0.016836	NaN	0.000000	0.001565	0.001738	28.0834	0.089313	0.001968	45.3711	-69.6592	-165.22	0.080378	1.049043	-0.009515	-0.010875	-0.016836	45.3711	-0.009236	-0.005949	2.829842	NaN
525	1.000000	1.058388	7.37019e+06	-50839.1	1005.82	-29754.4	0.000000	0.000000	7.059156	-0.095163	NaN	0.000000	0.001573	0.001718	28.0835	0.058734	0.001969	29.8334	-26.304	-163.157	-0.039367	1.057085	-0.001530	-0.002833	-0.095163	29.8334	0.000862	0.000655	-145.268	1064.94
525	1.000000	1.066380	7.37019e+06	-50839.1	1005.82	-29754.4	0.000000	0.000000	7.067183	0.754171	NaN	0.000000	0.001615	0.001744	28.0834	1.221655	0.001946	627.853	16.2606	-167.389	0.108797	1.065060	0.006462	0.005142	0.754171	627.853	0.005561	0.004651	162.135	8410.75
525	2.000000	1.073739	7.37019e+06	-50839.1	1005.82	-29754.4	0.000000	0.000000	7.074925	10.0591	NaN	0.000000	0.001626	0.001756	28.0833	8.982891	0.001745	5149.04	7.576921	-170.18	9.550704	1.072996	0.013821	0.013078	10.0591	5149.04	0.012356	0.011919	843.947	43090
525	2.000000	1.075873	7.37019e+06	-50839.1	1005.82	-29754.4	0.000000	0.000000	7.077187	13.1669	NaN	0.000000	0.001625	0.001736	28.0828	11.2132	0.001725	6501.36	5.122893	-170.764	13.1583	1.075574	0.015955	0.015656	13.1669	6501.36	0.014436	0.014541	905.516	49258.8
525	2.000000	1.077837	7.37019e+06	-50839.1	1005.82	-29754.4	0.000000	0.000000	7.079279	16.2953	NaN	0.000000	0.001629	0.001704	28.0833	13.0138	0.001725	7542.82	8.983559	-174.334	15.8796	1.077564	0.017919	0.017646	16.2953	7542.82	0.016299	0.017056	955.375	52767.1
525	2.000000	1.079810	7.37019e+06	-50839.1	1005.82	-29754.4	0.000000	0.000000	7.081340	18.453	NaN	0.000000	0.001623	0.001760	28.0833	15.5733	0.001977	7876.89	9.911510	-174.829	17.6298	1.079500	0.019892	0.019582	18.453	7876.89	0.018135	0.019695	936.923	51279.9
525	2.000000	1.081875	7.37019e+06	-50839.1	1005.82	-29754.4	0.000000	0.000000	7.083520	21.2311	NaN	0.000000	0.001603	0.001751	28.0837	16.715	0.001693	9875.46	3.639315	-172.501	21.3519	1.081499	0.021957	0.021581	21.2311	9875.46	0.020344	0.023086	919.646	59382.1
525	2.000000	1.083809	7.37019e+06	-50839.1	1005.82	-29754.4	0.000000	0.000000	7.085665	26.3527	NaN	0.000000	0.001602	0.001770	28.0835	18.6317	0.001635	11393.5	4.995618	-176.587	25.7293	1.083525	0.023891	0.023606	26.3527	11393.5	0.022156	0.026044	1011.84	64502.1
525	2.000000	1.085803	7.37019e+06	-50839.1	1005.82	-29754.4	0.000000	0.000000	7.087806	29.9369	NaN	0.000000	0.001634	0.001735	28.0829	20.6095	0.001692	12177.2	2.164781	-173.08	29.9219	1.085452	0.025885	0.025534	29.9369	12177.2	0.024041	0.029295	1021.92	65001.6
525	2.000000	1.087782	7.37019e+06	-50839.1	1005.82	-29754.4	0.000000	0.000000	7.090005	35.2985	NaN	0.000000	0.001650	0.001754	28.0834	22.3233	0.001693	13183.8	3.861781	-175.385	33.8772	1.087529	0.027863	0.027611	35.2985	13183.8	0.025855	0.032590	1083.1	66722
525	2.000000	1.089767	7.37019e+06	-50839.1	1005.82	-29754.4	0.000000	0.000000	7.092201	40.4276	NaN	0.000000	0.001674	0.001717	28.0832	24.7099	0.001654	14936	3.599946	-176.85	38.7025	1.089471	0.029849	0.029553	40.4276	14936	0.027819	0.036344	1112.36	71580.1
525	2.000000	1.091820	7.37019e+06	-50839.1	1005.82	-29754.4	0.000000	0.000000	7.094455	45.3197	NaN	0.000000	0.001668	0.001744	28.0828	27.4941	0.001891	14536.1	9.636664	179.406	45.1259	1.091409	0.031902	0.031491	45.3197	14536.1	0.029563	0.039844	1137.43	66533.8
525	2.000000	1.093760	7.37019e+06	-50839.1	1005.82	-29754.4	0.000000	0.000000	7.096589	50.0401	NaN	0.000000	0.001698	0.001745	28.0821	29.0481	0.001812	16034.1	4.319480	-177.83	48.8275	1.093452	0.033841	0.033534	50.0401	16034.1	0.031501	0.043912	1139.56	69908.1
525	2.000000	1.095815	7.37019e+06	-50839.1	1005.82	-29754.4	0.000000	0.000000	7.098908	56.4487	NaN	0.000000	0.001650	0.001748	28.0819	31.2608	0.001869	16728.3	6.938093	-179.932	56.3389	1.095428	0.035896	0.035510	56.4487	16728.3	0.033366	0.048009	1175.8	69753.3
525	2.000000	1.097786	7.37019e+06	-50839.1	1005.82	-29754.4	0.000000	0.000000	7.101107	61.9732	NaN	0.000000	0.001700	0.001738	28.0825	32.1235	0.001715	18727.5	7.773714	178.182	63.9276	1.097451	0.037868	0.037533	61.9732	18727.5	0.035386	0.052649	1177.1	74569.1
525	2.000000	1.099798	7.37019e+06	-50839.1	1005.82	-29754.4	0.000000	0.000000	7.103366	67.9772	NaN	0.000000	0.001642	0.001764	28.0818	34.4224	0.001789	19237.8	6.313367	178.538	68.5139	1.099509	0.039880	0.039591	67.9772	19237.8	0.037230	0.057066	1191.21	73576.7
525	2.000000	1.101804	7.37019e+06	-50839.1	1005.82	-29754.4	0.000000	0.000000	7.105723	76.5293	NaN	0.000000	0.001638	0.001730	28.0821	35.7855	0.001673	21384.8	5.911218	179.037	75.9683	1.101448	0.041886	0.041530	76.5293	21384.8	0.039202	0.061982	1234.7	78477.6
525	2.000000	1.103765	7.37019e+06	-50839.1	1005.82	-29754.4	0.000000	0.000000	7.107969	83.4708	NaN	0.000000	0.001690	0.001727	28.0821	37.61	0.001652	22769.1	3.944975	178.724	81.8643	1.103492	0.043846	0.043574	83.4708	22769.1	0.041097	0.066894	1247.81	80431.3
525	2.000000	1.105776	7.37019e+06	-50839.1	1005.82	-29754.4	0.000000	0.000000	7.110056	85.3111	NaN	0.000000	0.001708	0.001733	28.0819	41.6915	0.001903	21906.8	3.774067	179.586	84.484	1.105565	0.045858	0.045647	85.3111	21906.8	0.042937	0.071838	1187.54	74674.8
525	2.000000	1.107781	7.37019e+06	-50839.1	1005.82	-29754.4	0.000000	0.000000	7.112500	95.973	NaN	0.000000	0.001678	0.001742	28.0828	42.5148	0.001754	24238.3	2.203160	-179.998	94.6303	1.107442	0.047863	0.047524	95.973	24238.3	0.044893	0.077284	1241.82	79657.9
525	2.000000	1.109785	7.37019e+06	-50839.1	1005.82	-29754.4	0.000000	0.000000	7.115020	108.524	NaN	0.000000	0.001710	0.001763	28.0816	45.0363	0.001859	24225	9.898481	174.169	109.16	1.109416	0.049867	0.049498	108.524	24225	0.046507	0.081923	1324.71	77327.5
525	2.000000	1.111774	7.37019e+06	-50839.1	1005.82	-29754.4	0.000000	0.000000	7.117392	117.821	NaN	0.000000	0.001703	0.001704	28.0822	46.8335	0.001936	24191	7.605700	176.111	117.047	1.111383	0.051856	0.051465	117.821	24191	0.048204	0.086941	1355.18	74957.3
525	2.000000	1.113781	7.37019e+06	-50839.1	1005.82	-29754.4	0.000000	0.000000	7.119682	124.708	NaN	0.000000	0.001684	0.001702	28.0818	47.8306	0.001823	26237	6.408042	177.269	124.064	1.113335	0.053863	0.053417	124.708	26237	0.050298	0.093338	1336.09	78462
525	2.000000	1.115802	7.37019e+06	-50839.1	1005.82	-29754.4	0.000000	0.000000	7.121970	131.21	NaN	0.000000	0.001682	0.001729	28.0816	49.6734	0.001814	27386.4	1.906764	-179.605	133.88	1.115491	0.055884	0.055573	131.21	27386.4	0.052291	0.099625	1317.03	79272.6
525	2.000000	1.117788	7.37019e+06	-50839.1	1005.82	-29754.4	0.000000	0.000000	7.124420	142.513	NaN	0.000000	0.001692	0.001727	28.0821	51.1858	0.001908	26822.5	5.030340	177.251	141.96	1.117504	0.057870	0.057586	142.513	26822.5	0.053885	0.104798	1359.88	75700.1
525	2.000000	1.119766	7.37019e+06	-50839.1	1005.82	-29754.4	0.000000	0.000000	7.126757	151.232	NaN	0.000000	0.001706	0.001725	28.0816	52.251	0.001771	29505.3	2.912930	179.332	151.726	1.119434	0.059848	0.059516	151.232	29505.3	0.056003	0.111869	1351.87	80596.9
525	2.000000	1.121810	7.37019e+06	-50839.1	1005.82	-29754.4	0.000000	0.000000	7.129384	165.422	NaN	0.000000	0.001722	0.001674	28.082	55.3683	0.001703	32516.3	6.853385	174.274	166.568	1.121411	0.061892	0.061493	165.422	32516.3	0.058076	0.119000	1390.11	86119.5
525	2.000000	1.123705	7.37019e+06	-50839.1	1005.82	-29754.4	0.000000	0.000000	7.131567	172.411	NaN	0.000000	0.001724	0.001697	28.0819	56.5151	0.001867	30265.8	4.398321	176.607	170.882	1.123481	0.063787	0.063563	172.411	30265.8	0.059514	0.124073	1389.59	78503.1
525	2.000000	1.125739	7.37019e+06	-50839.1	1005.82	-29754.4	0.000000	0.000000	7.133991	181.905	NaN	0.000000	0.001730	0.001722	28.0828	59.8039	0.001825	32773.1	4.164017	176.302	179.995	1.125457	0.065821	0.065539	181.905	32773.1	0.061658	0.131822	1379.93	82470.2
525	2.000000	1.127757	7.37019e+06	-50839.1	1005.82	-29754.4	0.000000	0.000000	7.136594	196.14	NaN	0.000000	0.001668	0.001703	28.0834	60.2223	0.001739	34640.2	4.978004	175.703	196.27	1.127323	0.067839	0.067405	196.14	34640.2	0.063592	0.139003	1411.05	84887.2
525	2.000000	1.129696	7.37019e+06	-50839.1	1005.82	-29754.4	0.000000	0.000000	7.138831	203.381	NaN	0.000000	0.001678	0.001697	28.0829	63.782	0.001879	33940.7	5.662117	175.008	201.058	1.129439	0.069777	0.069521	203.381	33940.7	0.065283	0.145432	1398.46	81313.7
525	2.000000	1.131678	7.37019e+06	-50839.1	1005.82	-29754.4	0.000000	0.000000	7.141312	215.495	NaN	0.000000	0.001686	0.001701	28.0833	64.4165	0.001838	35042.1	4.538619	176.096	210.062	1.131341	0.071760	0.071423	215.495	35042.1	0.067148	0.152680	1411.42	81935.6
525	2.000000	1.133712	7.37019e+06	-50839.1	1005.82	-29754.4	0.000000	0.000000	7.143747	225.248	NaN	0.000000	0.001668	0.001736	28.083	66.2134	0.001739	38070.8	2.275727	177.129	225.231	1.133383	0.073794	0.073465	225.248	38070.8	0.069357	0.161481	1394.89	86557.3
525	2.000000	1.135668	7.37019e+06	-50839.1	1005.82	-29754.4	0.000000	0.000000	7.146129	235.601	NaN	0.000000	0.001658	0.001679	28.0828	69.0785	0.001778	38854.8	5.155166	173.587	232.34	1.135387	0.075750	0.075469	235.601	38854.8	0.071202	0.169013	1393.98	86349
525	2.000000	1.137746	7.37019e+06	-50839.1	1005.82	-29754.4	0.000000	0.000000	7.148750	248.824	NaN	0.000000	0.001618	0.001694	28.0831	70.5941	0.001836	38456.7	7.443955	171.913	249.637	1.137323	0.077828	0.077404	248.824	38456.7	0.072975	0.176399	1410.57	83655.9
525	2.000000	1.139728	7.37019e+06	-50839.1	1005.82	-29754.4	0.000000	0.000000	7.150774	249.849	NaN	0.000000	0.001632	0.001705	28.0829	72.1625	0.001667	43295.8	1.865508	176.045	247.514	1.139583	0.079810	0.079665	249.849	43295.8	0.075482	0.187098	1335.39	91450
525	2.000000	1.141724	7.37019e+06	-50839.1	1005.82	-29754.4	0.000000	0.000000	7.153718	272.893	NaN	0.000000	0.001648	0.001711	28.0832	75.501	0.001965	38421	4.309911	175.832	269.265	1.141292	0.081806	0.081374	272.893	38421	0.076479	0.191437	1425.5	80228.6
525	2.000000	1.143746	7.37019e+06	-50839.1	1005.82	-29754.4	0.000000	0.000000	7.156151	282.902	NaN	0.000000	0.001650	0.001680	28.083	75.2962	0.001918	39262.4	0.191569	179.467	281.923	1.143463	0.083828	0.083545	282.902	39262.4	0.078424	0.200032	1414.28	80204.6
525	2.000000	1.145641	7.37019e+06	-50839.1	1005.82	-29754.4	0.000000	0.000000	7.158633	297.166	NaN	0.000000	0.001623	0.001717	28.083	77.3376	0.001762	43881.4	2.524184	175.675	292.96	1.145373	0.085723	0.085455	297.166	43881.4	0.080644	0.210060	1414.67	87474.7
525	2.000000	1.147626	7.37019e+06	-50839.1	1005.82	-29754.4	0.000000	0.000000	7.161324	314.34	NaN	0.000000	0.001646	0.001681	28.083	78.4377	0.001757	44636.3	7.308275	170.972	309.652	1.147343	0.087708	0.087425	314.34	44636.3	0.082426	0.218276	1440.1	87288.6
525	2.000000	1.149714	7.37019e+06	-50839.1	1005.82	-29754.4	0.000000	0.000000	7.163964	327.754	NaN	0.000000	0.001615	0.001703	28.0828	81.8554	0.001909	42881.9	6.759879	172.432	327.147	1.149283	0.089795	0.089365	327.754	42881.9	0.084063	0.225953	1450.54	82421.2
525	2.000000	1.151712	7.37019e+06	-50839.1	1005.82	-29754.4	0.000000	0.000000	7.166507	341.028	NaN	0.000000	0.001629	0.001707	28.0833	82.2465	0.001727	47632	3.935293	174.98	339.469	1.151281	0.091793	0.091363	341.028	47632	0.086424	0.237240	1437.48	89346.6
525	2.000000	1.153707	7.37019e+06	-50839.1	1005.82	-29754.4	0.000000	0.000000	7.169048	354.294	NaN	0.000000	0.001635	0.001689	28.083	84.2887	0.001798	46867.2	3.742216	174.102	354.071	1.153368	0.093789	0.093449	354.294	46867.2	0.088119	0.245505	1443.12	86419.6
525	2.000000	1.155769	7.37019e+06	-50839.1	1005.82	-29754.4	0.000000	0.000000	7.171281	358.437	NaN	0.000000	0.001669	0.001721	28.0832	86.3821	0.001873	46130.9	2.920348	174.845	360.144	1.155622	0.095851	0.095704	358.437	46130.9	0.090024	0.254949	1405.92	83471.5
525	2.000000	1.157706	7.37019e+06	-50839.1	1005.82	-29754.4	0.000000	0.000000	7.174170	381.568	NaN	0.000000	0.001612	0.001714	28.083	87.595	0.001744	50235.6	5.676363	172.005	380.894	1.157460	0.097788	0.097542	381.568	50235.6	0.092092	0.265389	1437.77	89092.9
525	2.000000	1.159689	7.37019e+06	-50839.1	1005.82	-29754.4	0.000000	0.000000	7.176962	401.261	NaN	0.000000	0.001684	0.001691	28.0819	90.2943	0.001934	46686.4	2.995840	175.848	402.571	1.159358	0.099771	0.099440	401.261	46686.4	0.093325	0.271708	1476.81	81829.9
525	2.000000	1.161747	7.37019e+06	-50839.1	1005.82	-29754.4	0.000000	0.000000	7.179686	417.458	NaN	0.000000	0.001669	0.001684	28.082	92.7463	0.001941	47775.9	7.016623	172.015	417.57	1.161298	0.101829	0.101380	417.458	47775.9	0.095275	0.281845	1481.16	82219.8
525	2.000000	1.163814	7.37019e+06	-50839.1	1005.82	-29754.4	0.000000	0.000000	7.181943	422.075	NaN	0.000000	0.001710	0.001673	28.0819	92.9996	0.001714	54249.8	7.105931	169.993	429.775	1.163364	0.103896	0.103446	422.075	54249.8	0.098061	0.296623	1422.93	91005.7
525	2.000000	1.165736	7.37019e+06	-50839.1	1005.82	-29754.4	0.000000	0.000000	7.184861	446.306	NaN	0.000000	0.001702	0.001678	28.0822	95.4758	0.001809	52789.1	1.867619	175.44	447.688	1.165406	0.105818	0.105488	446.306	52789.1	0.099477	0.304273	1466.8	87435.2
525	2.000000	1.167636	7.37019e+06	-50839.1	1005.82	-29754.4	0.000000	0.000000	7.187312	459.696	NaN	0.000000	0.001713	0.001705	28.0818	96.6709	0.001884	51307.9	3.274172	174.23	456.373	1.167425	0.107718	0.107507	459.696	51307.9	0.100998	0.312588	1470.61	83843.8
525	2.000000	1.169612	7.37019e+06	-50839.1	1005.82	-29754.4	0.000000	0.000000	7.190050	478.228	NaN	0.000000	0.001658	0.001738	28.0819	99.1962	0.001884	52638.9	6.077065	170.985	473.273	1.169306	0.109694	0.109388	478.228	52638.9	0.102880	0.323024	1480.47	84618
525	2.000000	1.171664	7.37019e+06	-50839.1	1005.82	-29754.4	0.000000	0.000000	7.192830	495.925	NaN	0.000000	0.001695	0.001729	28.0819	100.29	0.001844	54378.7	4.571806	172.872	492.341	1.171283	0.111746	0.111365	495.925	54378.7	0.104906	0.334437	1482.87	85910.2
525	2.000000	1.172194	7.37019e+06	-50839.1	1005.82	-29754.4	0.000000	0.000000	7.193411	497.172	NaN	0.000000	0.001709	0.001740	28.082	101.302	0.001842	55000.9	4.427177	-7.179488	495.916	1.171864	0.112276	0.111946	497.172	55000.9	0.105497	0.337800	1471.79	86459.6