File: remote_trans/data/nanoindenter/0828-1/data/Data_2025-08-06,11h17m57s/2025-07-22_16-23-58_1_1177.txt
2025-07-22, 16:23:58, 1
Index	Phase	Displacement	Time	Pos X	Pos Y	Pos Z	Rot A	Rot B	Piezo Z	Force A	Force B	Gripper	Voltage A	Voltage B	Temperature	Amplitude force	Amplitude pos	Stiffness	Phase shift	Phase excitation	Force A raw	Displacement raw	HMax	HMax raw	Real Force	Real Stiffness	Contact Depth	Area	Hardness	Reduced Mod.
[#]	[#]	[um]	[s]	[um]	[um]	[um]	[m°]	[m°]	[um]	[uN]	[uN]	[V]	[V]	[V]	[°C]	[uN]	[um]	[N/m]	[°]	[°]	[uN]	[um]	[um]	[um]	[uN]	[N/m]	[um]	[um^2]	[MPa]	[MPa]
1177	1.000000	0.002280	7.37656e+06	-56739.1	1105.82	-29738.2	0.000000	0.000000	6.002793	-0.061393	NaN	0.000000	0.001554	0.001676	28.0824	0.051138	0.001080	47.3458	-174.707	-164.537	-0.000556	0.001033	-1.027255	-1.028503	-0.061393	47.3458	-1.026283	-5.122484E+13	1.198492E-15	NaN
1177	1.000000	0.010256	7.37656e+06	-56739.1	1105.82	-29738.2	0.000000	0.000000	6.010772	-0.002245	NaN	0.000000	0.001533	0.001682	28.0822	0.083525	0.000871	95.8422	-109.09	-167.966	-0.013338	0.008963	-1.019280	-1.020573	-0.002245	95.8422	-1.019262	-4.121208E+13	5.447442E-17	NaN
1177	1.000000	0.018248	7.37656e+06	-56739.1	1105.82	-29738.2	0.000000	0.000000	6.018762	-0.041963	NaN	0.000000	0.001574	0.001697	28.0821	0.058006	0.001600	36.2534	-115.095	-162.114	0.027020	0.016934	-1.011288	-1.012602	-0.041963	36.2534	-1.010420	-3.133526E+13	1.339177E-15	NaN
1177	1.000000	0.026253	7.37656e+06	-56739.1	1105.82	-29738.2	0.000000	0.000000	6.026772	0.073780	NaN	0.000000	0.001550	0.001726	28.0836	0.064554	0.001900	33.9756	155.927	-165.51	0.080134	0.024948	-1.003283	-1.004588	0.073780	33.9756	-1.004911	-2.641732E+13	-2.792849E-15	NaN
1177	1.000000	0.034242	7.37656e+06	-56739.1	1105.82	-29738.2	0.000000	0.000000	6.034759	0.021844	NaN	0.000000	0.001538	0.001659	28.0834	0.100182	0.001989	50.3783	153.51	-166.096	0.023999	0.032955	-0.995294	-0.996581	0.021844	50.3783	-0.995619	-1.980515E+13	-1.102940E-15	NaN
1177	1.000000	0.042239	7.37656e+06	-56739.1	1105.82	-29738.2	0.000000	0.000000	6.042757	0.067922	NaN	0.000000	0.001554	0.001663	28.0838	0.064705	0.002009	32.2104	-52.6712	-167.883	0.038538	0.040959	-0.987297	-0.988577	0.067922	32.2104	-0.988879	-1.606976E+13	-4.226671E-15	NaN
1177	1.000000	0.050254	7.37656e+06	-56739.1	1105.82	-29738.2	0.000000	0.000000	6.050772	0.063136	NaN	0.000000	0.001547	0.001702	28.0836	0.097606	0.001901	51.3411	70.5647	-166.555	0.101992	0.048920	-0.979282	-0.980616	0.063136	51.3411	-0.980204	-1.227881E+13	-5.141898E-15	NaN
1177	1.000000	0.058233	7.37656e+06	-56739.1	1105.82	-29738.2	0.000000	0.000000	6.058748	-0.001267	NaN	0.000000	0.001542	0.001704	28.0836	0.089876	0.002036	44.1452	128.112	-168.738	-0.026414	0.056913	-0.971303	-0.972623	-0.001267	44.1452	-0.971282	-9.309755E+12	1.360496E-16	NaN
1177	1.000000	0.066261	7.37656e+06	-56739.1	1105.82	-29738.2	0.000000	0.000000	6.066777	0.009713	NaN	0.000000	0.001577	0.001714	28.0836	0.018654	0.001989	9.378810	-126.795	-168.961	0.036321	0.064986	-0.963275	-0.964550	0.009713	9.378810	-0.964052	-7.438589E+12	-1.305754E-15	NaN
1177	1.000000	0.074247	7.37656e+06	-56739.1	1105.82	-29738.2	0.000000	0.000000	6.074763	0.026589	NaN	0.000000	0.001522	0.001695	28.0835	0.051375	0.001985	25.8824	-2.693460	-165.423	0.004888	0.072948	-0.955289	-0.956588	0.026589	25.8824	-0.956060	-5.804237E+12	-4.581019E-15	NaN
1177	1.000000	0.082253	7.37656e+06	-56739.1	1105.82	-29738.2	0.000000	0.000000	6.082769	0.022939	NaN	0.000000	0.001547	0.001697	28.0837	0.015476	0.001812	8.543139	-145.253	-169.665	0.030471	0.080937	-0.947283	-0.948599	0.022939	8.543139	-0.949297	-4.704836E+12	-4.875702E-15	NaN
1177	1.000000	0.090264	7.37656e+06	-56739.1	1105.82	-29738.2	0.000000	0.000000	6.090780	0.019852	NaN	0.000000	0.001571	0.001716	28.0835	0.104284	0.001839	56.7084	-174.591	-166.527	0.015090	0.088956	-0.939272	-0.940580	0.019852	56.7084	-0.939534	-3.474215E+12	-5.714054E-15	NaN
1177	1.000000	0.098235	7.37656e+06	-56739.1	1105.82	-29738.2	0.000000	0.000000	6.098749	-0.034707	NaN	0.000000	0.001576	0.001698	28.0837	0.051958	0.002004	25.9259	-3.451751	-163.43	0.038577	0.096944	-0.931301	-0.932592	-0.034707	25.9259	-0.930297	-2.607396E+12	1.331084E-14	NaN
1177	1.000000	0.106250	7.37656e+06	-56739.1	1105.82	-29738.2	0.000000	0.000000	6.106767	0.042155	NaN	0.000000	0.001560	0.001697	28.0835	0.042356	0.001973	21.4628	-176.182	-163.895	-0.080163	0.104919	-0.923286	-0.924617	0.042155	21.4628	-0.924759	-2.195125E+12	-1.920381E-14	NaN
1177	1.000000	0.114267	7.37656e+06	-56739.1	1105.82	-29738.2	0.000000	0.000000	6.114783	0.007688	NaN	0.000000	0.001522	0.001694	28.0835	0.117534	0.001952	60.2161	83.528	-165.548	0.027644	0.112907	-0.915269	-0.916629	0.007688	60.2161	-0.915364	-1.639120E+12	-4.690229E-15	NaN
1177	1.000000	0.122263	7.37656e+06	-56739.1	1105.82	-29738.2	0.000000	0.000000	6.122780	0.031175	NaN	0.000000	0.001555	0.001706	28.0835	0.126876	0.002011	63.1025	-122.104	-162.584	0.055839	0.120973	-0.907273	-0.908563	0.031175	63.1025	-0.907643	-1.289232E+12	-2.418071E-14	NaN
1177	1.000000	0.130245	7.37656e+06	-56739.1	1105.82	-29738.2	0.000000	0.000000	6.130762	0.027001	NaN	0.000000	0.001512	0.001707	28.0834	0.051901	0.002018	25.7174	26.6365	-163.46	0.142959	0.128925	-0.899291	-0.900611	0.027001	25.7174	-0.900078	-1.018883E+12	-2.650107E-14	NaN
1177	1.000000	0.138265	7.37656e+06	-56739.1	1105.82	-29738.2	0.000000	0.000000	6.138780	-0.009227	NaN	0.000000	0.001554	0.001687	28.0838	0.146728	0.001999	73.3876	102.337	-166.768	0.107935	0.136913	-0.891271	-0.892623	-0.009227	73.3876	-0.891177	-7.723693E+11	1.194658E-14	NaN
1177	1.000000	0.146278	7.37656e+06	-56739.1	1105.82	-29738.2	0.000000	0.000000	6.146793	0.000793	NaN	0.000000	0.001598	0.001712	28.0834	0.018303	0.002029	9.018985	-157.389	-165.338	0.002520	0.144975	-0.883258	-0.884561	0.000793	9.018985	-0.883324	-6.048645E+11	-1.311439E-15	NaN
1177	1.000000	0.154275	7.37656e+06	-56739.1	1105.82	-29738.2	0.000000	0.000000	6.154792	0.028119	NaN	0.000000	0.001606	0.001690	28.083	0.004501	0.002005	2.245537	-112.284	-165.069	0.084973	0.152954	-0.875261	-0.876582	0.028119	2.245537	-0.884653	-6.304098E+11	-4.460503E-14	NaN
1177	1.000000	0.162248	7.37656e+06	-56739.1	1105.82	-29738.2	0.000000	0.000000	6.162762	-0.021995	NaN	0.000000	0.001592	0.001695	28.0822	0.083177	0.001964	42.3534	-68.3392	-168.731	-0.002852	0.160940	-0.867288	-0.868596	-0.021995	42.3534	-0.866899	-3.626480E+11	6.065119E-14	NaN
1177	1.000000	0.170240	7.37656e+06	-56739.1	1105.82	-29738.2	0.000000	0.000000	6.170757	0.038826	NaN	0.000000	0.001591	0.001694	28.0822	0.055318	0.001902	29.0849	-128.042	-164.995	0.014707	0.169004	-0.859296	-0.860532	0.038826	29.0849	-0.860297	-2.952172E+11	-1.315179E-13	NaN
1177	1.000000	0.178298	7.37656e+06	-56739.1	1105.82	-29738.2	0.000000	0.000000	6.178814	-0.000463	NaN	0.000000	0.001615	0.001689	28.0824	0.017598	0.002061	8.536763	172.618	-164.273	0.024808	0.176948	-0.851238	-0.852588	-0.000463	8.536763	-0.851197	-2.223025E+11	2.082398E-15	NaN
1177	1.000000	0.186295	7.37656e+06	-56739.1	1105.82	-29738.2	0.000000	0.000000	6.186810	-0.002879	NaN	0.000000	0.001610	0.001711	28.0822	0.010510	0.002056	5.111976	-25.0595	-166.247	-0.010012	0.184933	-0.843241	-0.844603	-0.002879	5.111976	-0.842819	-1.711893E+11	1.681617E-14	NaN
1177	1.000000	0.194302	7.37656e+06	-56739.1	1105.82	-29738.2	0.000000	0.000000	6.194818	-0.001716	NaN	0.000000	0.001585	0.001669	28.0822	0.102112	0.002028	50.3618	-107.509	-165.779	-0.060074	0.193014	-0.835234	-0.836522	-0.001716	50.3618	-0.835208	-1.350102E+11	1.270726E-14	NaN
1177	1.000000	0.202314	7.37656e+06	-56739.1	1105.82	-29738.2	0.000000	0.000000	6.202831	0.046162	NaN	0.000000	0.001645	0.001677	28.0822	0.034586	0.001961	17.6366	-17.622	-163.443	0.068884	0.200956	-0.827222	-0.828580	0.046162	17.6366	-0.829185	-1.118767E+11	-4.126188E-13	NaN
1177	1.000000	0.210290	7.37656e+06	-56739.1	1105.82	-29738.2	0.000000	0.000000	6.210805	-0.010353	NaN	0.000000	0.001581	0.001688	28.0821	0.086466	0.001999	43.2548	125.689	-164.163	0.072943	0.209023	-0.819246	-0.820513	-0.010353	43.2548	-0.819067	-8.157489E+10	1.269195E-13	NaN
1177	1.000000	0.218310	7.37656e+06	-56739.1	1105.82	-29738.2	0.000000	0.000000	6.218825	-0.001811	NaN	0.000000	0.001611	0.001680	28.0822	0.147939	0.002088	70.8561	129.165	-166.847	0.000656	0.216985	-0.811226	-0.812551	-0.001811	70.8561	-0.811207	-6.381818E+10	2.837314E-14	NaN
1177	1.000000	0.226297	7.37656e+06	-56739.1	1105.82	-29738.2	0.000000	0.000000	6.226814	0.044177	NaN	0.000000	0.001612	0.001686	28.0821	0.028202	0.002007	14.0498	-19.3927	-166.828	-0.009159	0.225016	-0.803239	-0.804520	0.044177	14.0498	-0.805597	-5.355900E+10	-8.248293E-13	NaN
1177	1.000000	0.234286	7.37656e+06	-56739.1	1105.82	-29738.2	0.000000	0.000000	6.234803	0.044231	NaN	0.000000	0.001657	0.001712	28.0823	0.175193	0.002000	87.5781	170.878	-168.825	0.026058	0.232994	-0.795250	-0.796542	0.044231	87.5781	-0.795629	-3.922115E+10	-1.127730E-12	NaN
1177	1.000000	0.242313	7.37656e+06	-56739.1	1105.82	-29738.2	0.000000	0.000000	6.242832	0.081516	NaN	0.000000	0.001613	0.001693	28.0822	0.065604	0.002019	32.4853	-70.761	-162.659	0.039280	0.240958	-0.787223	-0.788578	0.081516	32.4853	-0.789105	-3.198342E+10	-2.548709E-12	NaN
1177	1.000000	0.250308	7.37656e+06	-56739.1	1105.82	-29738.2	0.000000	0.000000	6.250821	-0.040797	NaN	0.000000	0.001593	0.001693	28.0825	0.035265	0.001909	18.4768	-102.205	-166.252	-0.059701	0.249054	-0.779228	-0.780482	-0.040797	18.4768	-0.777572	-2.229668E+10	1.829727E-12	NaN
1177	1.000000	0.258298	7.37656e+06	-56739.1	1105.82	-29738.2	0.000000	0.000000	6.258812	-0.038285	NaN	0.000000	0.001592	0.001705	28.0822	0.093390	0.002056	45.4187	75.3609	-165.02	-0.002718	0.256937	-0.771237	-0.772599	-0.038285	45.4187	-0.770605	-1.792813E+10	2.135491E-12	NaN
1177	1.000000	0.266343	7.37656e+06	-56739.1	1105.82	-29738.2	0.000000	0.000000	6.266858	-0.013581	NaN	0.000000	0.001594	0.001709	28.0823	0.072543	0.002024	35.8338	167.983	-166.475	-0.072239	0.265035	-0.763193	-0.764501	-0.013581	35.8338	-0.762909	-1.408879E+10	9.639838E-13	NaN
1177	1.000000	0.274316	7.37656e+06	-56739.1	1105.82	-29738.2	0.000000	0.000000	6.274833	0.024630	NaN	0.000000	0.001619	0.001706	28.0822	0.057114	0.002009	28.4265	-76.417	-165.658	-0.040286	0.273075	-0.755220	-0.756461	0.024630	28.4265	-0.755870	-1.130065E+10	-2.179532E-12	NaN
1177	1.000000	0.282345	7.37656e+06	-56739.1	1105.82	-29738.2	0.000000	0.000000	6.282861	-0.005896	NaN	0.000000	0.001608	0.001686	28.0822	0.091301	0.002085	43.788	-22.6179	-163.52	-0.039755	0.281042	-0.747191	-0.748494	-0.005896	43.788	-0.747090	-8.582224E+9	6.869946E-13	NaN
1177	1.000000	0.290347	7.37656e+06	-56739.1	1105.82	-29738.2	0.000000	0.000000	6.290866	0.072424	NaN	0.000000	0.001600	0.001659	28.0825	0.133264	0.001980	67.291	-38.9366	-164.513	0.079241	0.288992	-0.739188	-0.740544	0.072424	67.291	-0.739996	-6.870647E+9	-1.054108E-11	NaN
1177	1.000000	0.298328	7.37656e+06	-56739.1	1105.82	-29738.2	0.000000	0.000000	6.298843	-0.033737	NaN	0.000000	0.001550	0.001669	28.083	0.074229	0.002070	35.8563	83.6816	-164.863	0.010764	0.297018	-0.731207	-0.732518	-0.033737	35.8563	-0.730502	-5.100900E+9	6.614014E-12	NaN
1177	1.000000	0.306335	7.37656e+06	-56739.1	1105.82	-29738.2	0.000000	0.000000	6.306852	0.016844	NaN	0.000000	0.001607	0.001687	28.0836	0.059280	0.001944	30.5008	150.569	-164	0.014218	0.305041	-0.723200	-0.724495	0.016844	30.5008	-0.723615	-4.109263E+9	-4.099125E-12	NaN
1177	1.000000	0.314335	7.37656e+06	-56739.1	1105.82	-29738.2	0.000000	0.000000	6.314850	-0.010231	NaN	0.000000	0.001572	0.001689	28.0837	0.144258	0.001819	79.2944	24.3143	-167.348	0.006630	0.313030	-0.715201	-0.716506	-0.010231	79.2944	-0.715104	-3.145513E+9	3.252503E-12	NaN
1177	1.000000	0.322368	7.37656e+06	-56739.1	1105.82	-29738.2	0.000000	0.000000	6.322884	0.011587	NaN	0.000000	0.001564	0.001677	28.0855	0.081155	0.002060	39.3917	85.3457	-166.984	-0.042758	0.321043	-0.707168	-0.708493	0.011587	39.3917	-0.707389	-2.468347E+9	-4.694095E-12	NaN
1177	1.000000	0.330343	7.37656e+06	-56739.1	1105.82	-29738.2	0.000000	0.000000	6.330862	0.096114	NaN	0.000000	0.001578	0.001699	28.0873	0.077858	0.002059	37.8224	107.902	-167.727	0.079787	0.329077	-0.699193	-0.700459	0.096114	37.8224	-0.701099	-2.025540E+9	-4.745124E-11	NaN
1177	1.000000	0.338348	7.37656e+06	-56739.1	1105.82	-29738.2	0.000000	0.000000	6.338863	-0.022939	NaN	0.000000	0.001524	0.001683	28.0846	0.079773	0.001962	40.6633	141.234	-167.326	0.026459	0.337051	-0.691188	-0.692484	-0.022939	40.6633	-0.690765	-1.463422E+9	1.567506E-11	NaN
1177	1.000000	0.346355	7.37656e+06	-56739.1	1105.82	-29738.2	0.000000	0.000000	6.346871	0.014670	NaN	0.000000	0.001602	0.001663	28.084	0.018317	0.002063	8.877727	113.325	-162.796	-0.038909	0.345043	-0.683181	-0.684493	0.014670	8.877727	-0.684420	-1.198536E+9	-1.224010E-11	NaN
1177	1.000000	0.354362	7.37656e+06	-56739.1	1105.82	-29738.2	0.000000	0.000000	6.354875	-0.072572	NaN	0.000000	0.001618	0.001654	28.0839	0.014360	0.002129	6.746230	-175.078	-168.34	-0.141778	0.353062	-0.675173	-0.676474	-0.072572	6.746230	-0.667105	-6.946527E+8	1.044728E-10	NaN
1177	1.000000	0.362361	7.37656e+06	-56739.1	1105.82	-29738.2	0.000000	0.000000	6.362877	0.021932	NaN	0.000000	0.001627	0.001680	28.0834	0.126108	0.002111	59.7275	90.6054	-165.141	0.002548	0.361051	-0.667175	-0.668485	0.021932	59.7275	-0.667451	-7.022581E+8	-3.123016E-11	NaN
1177	1.000000	0.370357	7.37656e+06	-56739.1	1105.82	-29738.2	0.000000	0.000000	6.370873	0.021823	NaN	0.000000	0.001595	0.001690	28.0838	0.033965	0.002081	16.3225	128.571	-166.312	0.000125	0.369029	-0.659179	-0.660507	0.021823	16.3225	-0.660182	-5.584220E+8	-3.908039E-11	NaN
1177	1.000000	0.378353	7.37656e+06	-56739.1	1105.82	-29738.2	0.000000	0.000000	6.378868	-0.007024	NaN	0.000000	0.001592	0.001709	28.0835	0.062761	0.002046	30.6686	-14.7766	-164.536	0.002331	0.377033	-0.651183	-0.652503	-0.007024	30.6686	-0.651011	-4.181203E+8	1.679911E-11	NaN
1177	1.000000	0.386397	7.37656e+06	-56739.1	1105.82	-29738.2	0.000000	0.000000	6.386914	0.040954	NaN	0.000000	0.001619	0.001703	28.0835	0.009864	0.002043	4.829158	-48.136	-166.089	-0.029069	0.385093	-0.643139	-0.644443	0.040954	4.829158	-0.649500	-3.986366E+8	-1.027355E-10	NaN
1177	1.000000	0.394378	7.37656e+06	-56739.1	1105.82	-29738.2	0.000000	0.000000	6.394895	0.027638	NaN	0.000000	0.001600	0.001700	28.0837	0.097192	0.002062	47.1458	130.996	-167.469	0.003722	0.393033	-0.635158	-0.636503	0.027638	47.1458	-0.635598	-2.569647E+8	-1.075568E-10	NaN
1177	1.000000	0.402387	7.37656e+06	-56739.1	1105.82	-29738.2	0.000000	0.000000	6.402903	0.006845	NaN	0.000000	0.001659	0.001685	28.0836	0.075868	0.002010	37.7422	129.81	-166.378	0.085169	0.401050	-0.627149	-0.628486	0.006845	37.7422	-0.627285	-1.975768E+8	-3.464309E-11	NaN
1177	1.000000	0.410381	7.37656e+06	-56739.1	1105.82	-29738.2	0.000000	0.000000	6.410895	-0.025401	NaN	0.000000	0.001635	0.001694	28.0841	0.113846	0.002074	54.9002	83.5954	-165.633	-0.083126	0.409042	-0.619155	-0.620494	-0.025401	54.9002	-0.618808	-1.510957E+8	1.681087E-10	NaN
1177	1.000000	0.418409	7.37656e+06	-56739.1	1105.82	-29738.2	0.000000	0.000000	6.418925	-0.004842	NaN	0.000000	0.001653	0.001683	28.0838	0.111837	0.002162	51.7399	-64.9351	-164.615	0.041237	0.417064	-0.611127	-0.612472	-0.004842	51.7399	-0.611056	-1.182083E+8	4.096552E-11	NaN
1177	1.000000	0.426373	7.37656e+06	-56739.1	1105.82	-29738.2	0.000000	0.000000	6.426891	0.047932	NaN	0.000000	0.001624	0.001714	28.0839	0.059454	0.001918	31.0044	-160.391	-164.26	-0.014224	0.425103	-0.603163	-0.604433	0.047932	31.0044	-0.604322	-9.549302E+7	-5.019429E-10	NaN
1177	1.000000	0.434396	7.37656e+06	-56739.1	1105.82	-29738.2	0.000000	0.000000	6.434912	0.017833	NaN	0.000000	0.001584	0.001703	28.0836	0.089430	0.001940	46.0884	-89.6697	-160.811	0.018349	0.433094	-0.595140	-0.596442	0.017833	46.0884	-0.595430	-7.202927E+7	-2.475742E-10	NaN
1177	1.000000	0.442387	7.37656e+06	-56739.1	1105.82	-29738.2	0.000000	0.000000	6.442902	-0.008959	NaN	0.000000	0.001591	0.001720	28.0824	0.098529	0.001942	50.7335	-42.0572	-164.765	-0.035319	0.441051	-0.587149	-0.588485	-0.008959	50.7335	-0.587016	-5.514702E+7	1.624560E-10	NaN
1177	1.000000	0.450418	7.37656e+06	-56739.1	1105.82	-29738.2	0.000000	0.000000	6.450935	0.044705	NaN	0.000000	0.001635	0.001696	28.0825	0.081084	0.001864	43.4942	106.671	-165.188	0.011516	0.449124	-0.579118	-0.580412	0.044705	43.4942	-0.579889	-4.397396E+7	-1.016614E-9	NaN
1177	1.000000	0.458393	7.37656e+06	-56739.1	1105.82	-29738.2	0.000000	0.000000	6.458910	0.039083	NaN	0.000000	0.001639	0.001706	28.0831	0.060429	0.001910	31.6304	-70.3161	-168.467	0.028640	0.457122	-0.571143	-0.572414	0.039083	31.6304	-0.572070	-3.429472E+7	-1.139616E-9	NaN
1177	1.000000	0.466426	7.37656e+06	-56739.1	1105.82	-29738.2	0.000000	0.000000	6.466943	0.032327	NaN	0.000000	0.001604	0.001706	28.0828	0.021092	0.001986	10.6192	16.3508	-165.52	0.047886	0.465072	-0.563110	-0.564464	0.032327	10.6192	-0.565393	-2.773040E+7	-1.165748E-9	NaN
1177	1.000000	0.474421	7.37656e+06	-56739.1	1105.82	-29738.2	0.000000	0.000000	6.474937	0.019516	NaN	0.000000	0.001641	0.001703	28.0826	0.108508	0.002145	50.5769	30.0908	-162.001	-0.066121	0.473085	-0.555115	-0.556451	0.019516	50.5769	-0.555405	-2.017388E+7	-9.673812E-10	NaN
1177	1.000000	0.482417	7.37656e+06	-56739.1	1105.82	-29738.2	0.000000	0.000000	6.482931	-0.026231	NaN	0.000000	0.001617	0.001695	28.0824	0.118618	0.002057	57.6564	146.648	-165.897	0.016145	0.481084	-0.547119	-0.548452	-0.026231	57.6564	-0.546778	-1.532220E+7	1.711974E-9	NaN
1177	1.000000	0.490415	7.37656e+06	-56739.1	1105.82	-29738.2	0.000000	0.000000	6.490930	-0.003180	NaN	0.000000	0.001640	0.001703	28.0824	0.077209	0.001891	40.8335	-38.0629	-166.886	0.014501	0.489119	-0.539121	-0.540417	-0.003180	40.8335	-0.539063	-1.197738E+7	2.655154E-10	NaN
1177	1.000000	0.498410	7.37656e+06	-56739.1	1105.82	-29738.2	0.000000	0.000000	6.498923	-0.060103	NaN	0.000000	0.001636	0.001697	28.0824	0.048891	0.002041	23.9532	-166.211	-163.568	-0.002155	0.497148	-0.531126	-0.532388	-0.060103	23.9532	-0.529244	-8.75146e+06	6.867755E-9	NaN
1177	1.000000	0.506410	7.37656e+06	-56739.1	1105.82	-29738.2	0.000000	0.000000	6.506926	0.002321	NaN	0.000000	0.001644	0.001678	28.0825	0.024602	0.002032	12.109	144.84	-163.63	0.012588	0.505111	-0.523126	-0.524425	0.002321	12.109	-0.523269	-7.22863e+06	-3.210660E-10	NaN
1177	1.000000	0.514450	7.37656e+06	-56739.1	1105.82	-29738.2	0.000000	0.000000	6.514962	-0.074458	NaN	0.000000	0.001635	0.001721	28.0824	0.040830	0.001987	20.5536	-120.824	-164.391	-0.010686	0.513138	-0.515086	-0.516398	-0.074458	20.5536	-0.512369	-5.09806e+06	1.460526E-8	NaN
1177	1.000000	0.522438	7.37656e+06	-56739.1	1105.82	-29738.2	0.000000	0.000000	6.522956	0.060114	NaN	0.000000	0.001636	0.001745	28.0827	0.082103	0.002085	39.3799	20.447	-165.963	-0.024489	0.521114	-0.507098	-0.508422	0.060114	39.3799	-0.508243	-4.46617e+06	-1.345987E-8	NaN
1177	1.000000	0.530444	7.37656e+06	-56739.1	1105.82	-29738.2	0.000000	0.000000	6.530960	0.018573	NaN	0.000000	0.001641	0.001697	28.0822	0.116330	0.001971	59.0173	-28.2952	-170.91	0.052888	0.529092	-0.499092	-0.500444	0.018573	59.0173	-0.499328	-3.35459e+06	-5.536733E-9	NaN
1177	1.000000	0.538419	7.37656e+06	-56739.1	1105.82	-29738.2	0.000000	0.000000	6.538934	0.001216	NaN	0.000000	0.001634	0.001691	28.0825	0.076091	0.001992	38.2052	43.2063	-169	-0.007192	0.537116	-0.491117	-0.492420	0.001216	38.2052	-0.491141	-2.57831e+06	-4.715754E-10	NaN
1177	1.000000	0.546440	7.37656e+06	-56739.1	1105.82	-29738.2	0.000000	0.000000	6.546957	0.038159	NaN	0.000000	0.001627	0.001676	28.0823	0.028328	0.002113	13.4074	-36.8711	-163.405	-0.042907	0.545133	-0.483096	-0.484403	0.038159	13.4074	-0.485231	-2.13167e+06	-1.790075E-8	NaN
1177	1.000000	0.554436	7.37656e+06	-56739.1	1105.82	-29738.2	0.000000	0.000000	6.554953	0.042341	NaN	0.000000	0.001588	0.001706	28.0823	0.146938	0.002055	71.488	-107.1	-166.239	0.004758	0.553125	-0.475100	-0.476411	0.042341	71.488	-0.475544	-1.56e+06	-2.714156E-8	NaN
1177	1.000000	0.562423	7.37656e+06	-56739.1	1105.82	-29738.2	0.000000	0.000000	6.562939	0.014393	NaN	0.000000	0.001581	0.001673	28.0828	0.072141	0.001976	36.5134	162.636	-166.684	0.052473	0.561172	-0.467113	-0.468364	0.014393	36.5134	-0.467409	-1.19966e+06	-1.199733E-8	NaN
1177	1.000000	0.570462	7.37656e+06	-56739.1	1105.82	-29738.2	0.000000	0.000000	6.570977	0.009839	NaN	0.000000	0.001568	0.001697	28.0825	0.073241	0.001992	36.7607	-42.4268	-166.546	0.031843	0.569146	-0.459074	-0.460389	0.009839	36.7607	-0.459275	-922209	-1.066924E-8	NaN
1177	1.000000	0.578442	7.37656e+06	-56739.1	1105.82	-29738.2	0.000000	0.000000	6.578960	0.044123	NaN	0.000000	0.001581	0.001726	28.084	0.134868	0.001994	67.6231	49.3837	-166.073	-0.051130	0.577157	-0.451094	-0.452379	0.044123	67.6231	-0.451583	-718838	-6.138113E-8	NaN
1177	1.000000	0.586434	7.37656e+06	-56739.1	1105.82	-29738.2	0.000000	0.000000	6.586948	-0.024395	NaN	0.000000	0.001601	0.001767	28.0837	0.033097	0.002206	15.0012	-134.321	-164.601	-0.039542	0.585124	-0.443102	-0.444412	-0.024395	15.0012	-0.441882	-524716	4.649202E-8	NaN
1177	1.000000	0.594452	7.37656e+06	-56739.1	1105.82	-29738.2	0.000000	0.000000	6.594967	-0.019241	NaN	0.000000	0.001589	0.001684	28.0838	0.080975	0.002059	39.3296	156.057	-163.513	-0.003359	0.593138	-0.435084	-0.436398	-0.019241	39.3296	-0.434717	-415671	4.628902E-8	NaN
1177	1.000000	0.602481	7.37656e+06	-56739.1	1105.82	-29738.2	0.000000	0.000000	6.602996	0.002842	NaN	0.000000	0.001552	0.001733	28.0838	0.075570	0.002086	36.2214	26.1509	-165.546	0.036572	0.601186	-0.427055	-0.428350	0.002842	36.2214	-0.427114	-324502	-8.758887E-9	NaN
1177	1.000000	0.610486	7.37656e+06	-56739.1	1105.82	-29738.2	0.000000	0.000000	6.611002	0.002800	NaN	0.000000	0.001548	0.001741	28.0836	0.126256	0.002105	59.9841	166.398	-163.257	-0.070404	0.609176	-0.419050	-0.420360	0.002800	59.9841	-0.419085	-249708	-1.121444E-8	NaN
1177	1.000000	0.618486	7.37656e+06	-56739.1	1105.82	-29738.2	0.000000	0.000000	6.619000	-0.041430	NaN	0.000000	0.001516	0.001732	28.0841	0.101542	0.001921	52.8549	62.5858	-161.978	-0.038500	0.617189	-0.411050	-0.412347	-0.041430	52.8549	-0.410462	-188351	2.199589E-7	NaN
1177	1.000000	0.626472	7.37656e+06	-56739.1	1105.82	-29738.2	0.000000	0.000000	6.626991	0.085763	NaN	0.000000	0.001537	0.001693	28.0838	0.043478	0.001826	23.8101	77.3471	-167.272	0.059197	0.625143	-0.403064	-0.404393	0.085763	23.8101	-0.405765	-161491	-5.310703E-7	NaN
1177	1.000000	0.634493	7.37656e+06	-56739.1	1105.82	-29738.2	0.000000	0.000000	6.635011	0.051201	NaN	0.000000	0.001573	0.001716	28.0839	0.174366	0.001979	88.0915	-147.189	-167.011	0.030974	0.633135	-0.395043	-0.396401	0.051201	88.0915	-0.395479	-115205	-4.444342E-7	NaN
1177	1.000000	0.642478	7.37656e+06	-56739.1	1105.82	-29738.2	0.000000	0.000000	6.642993	-0.008547	NaN	0.000000	0.001551	0.001729	28.0837	0.061797	0.002039	30.3012	-140.576	-164.931	0.004198	0.641201	-0.387058	-0.388335	-0.008547	30.3012	-0.386846	-86702.2	9.857726E-8	NaN
1177	1.000000	0.650490	7.37656e+06	-56739.1	1105.82	-29738.2	0.000000	0.000000	6.651005	-0.030247	NaN	0.000000	0.001536	0.001730	28.0837	0.073909	0.002003	36.8916	3.055564	-166.818	-0.096957	0.649175	-0.379046	-0.380361	-0.030247	36.8916	-0.378431	-65668.9	4.606055E-7	NaN
1177	1.000000	0.658488	7.37656e+06	-56739.1	1105.82	-29738.2	0.000000	0.000000	6.659001	-0.061732	NaN	0.000000	0.001547	0.001703	28.0838	0.053338	0.001910	27.931	56.8764	-165.291	-0.061377	0.657135	-0.371048	-0.372401	-0.061732	27.931	-0.369390	-48679.1	1.268136E-6	NaN
1177	1.000000	0.666490	7.37656e+06	-56739.1	1105.82	-29738.2	0.000000	0.000000	6.667008	0.052050	NaN	0.000000	0.001613	0.001706	28.0836	0.078664	0.001973	39.8685	-24.6939	-164.508	0.066799	0.665208	-0.363046	-0.364328	0.052050	39.8685	-0.364025	-40736.1	-1.277746E-6	NaN
1177	1.000000	0.674497	7.37656e+06	-56739.1	1105.82	-29738.2	0.000000	0.000000	6.675012	-0.025950	NaN	0.000000	0.001594	0.001679	28.0838	0.054186	0.002084	26.0051	-88.9708	-164.351	-0.030139	0.673213	-0.355039	-0.356323	-0.025950	26.0051	-0.354290	-29458.7	8.808900E-7	NaN
1177	1.000000	0.682499	7.37656e+06	-56739.1	1105.82	-29738.2	0.000000	0.000000	6.683016	0.046637	NaN	0.000000	0.001586	0.001732	28.0838	0.057500	0.002063	27.8724	-117.899	-167.142	-0.020566	0.681193	-0.347037	-0.348343	0.046637	27.8724	-0.348292	-24110.6	-1.934284E-6	NaN
1177	1.000000	0.690509	7.37656e+06	-56739.1	1105.82	-29738.2	0.000000	0.000000	6.691025	0.023499	NaN	0.000000	0.001562	0.001719	28.0836	0.064541	0.001993	32.3805	-58.2801	-164.901	0.036846	0.689234	-0.339027	-0.340302	0.023499	32.3805	-0.339571	-18001.3	-1.305422E-6	NaN
1177	1.000000	0.698514	7.37656e+06	-56739.1	1105.82	-29738.2	0.000000	0.000000	6.699031	0.039245	NaN	0.000000	0.001594	0.001712	28.0839	0.057361	0.002127	26.9719	40.1093	-163.445	0.040343	0.697164	-0.331022	-0.332372	0.039245	26.9719	-0.332114	-14008.4	-2.801560E-6	NaN
1177	1.000000	0.706457	7.37656e+06	-56739.1	1105.82	-29738.2	0.000000	0.000000	6.706971	-0.047147	NaN	0.000000	0.001573	0.001713	28.0836	0.060054	0.002006	29.9311	175.854	-165.563	-0.097129	0.705160	-0.323079	-0.324376	-0.047147	29.9311	-0.321897	-9920.82	4.752377E-6	NaN
1177	1.000000	0.714522	7.37656e+06	-56739.1	1105.82	-29738.2	0.000000	0.000000	6.715036	-0.037977	NaN	0.000000	0.001547	0.001728	28.0826	0.059586	0.001979	30.1149	81.8966	-168.004	-0.008944	0.713250	-0.315014	-0.316286	-0.037977	30.1149	-0.314068	-7606.55	4.992708E-6	NaN
1177	1.000000	0.722526	7.37656e+06	-56739.1	1105.82	-29738.2	0.000000	0.000000	6.723042	0.017564	NaN	0.000000	0.001561	0.001734	28.0824	0.091755	0.001969	46.6075	-159.964	-163.465	0.083115	0.721210	-0.307010	-0.308326	0.017564	46.6075	-0.307293	-6038.94	-2.908389E-6	NaN
1177	1.000000	0.730512	7.37656e+06	-56739.1	1105.82	-29738.2	0.000000	0.000000	6.731028	0.016681	NaN	0.000000	0.001551	0.001709	28.0825	0.049040	0.001857	26.4073	-38.4368	-163.265	-0.043390	0.729217	-0.299024	-0.300319	0.016681	26.4073	-0.299498	-4625.56	-3.606376E-6	NaN
1177	1.000000	0.738509	7.37656e+06	-56739.1	1105.82	-29738.2	0.000000	0.000000	6.739024	-0.031284	NaN	0.000000	0.001559	0.001704	28.0826	0.078649	0.001954	40.2593	-25.6139	-165.212	-0.047464	0.737224	-0.291026	-0.292312	-0.031284	40.2593	-0.290444	-3388.04	9.233563E-6	NaN
1177	1.000000	0.746535	7.37656e+06	-56739.1	1105.82	-29738.2	0.000000	0.000000	6.747051	0.017887	NaN	0.000000	0.001524	0.001680	28.0833	0.106785	0.001878	56.8688	-130.304	-165.736	0.022574	0.745229	-0.283001	-0.284307	0.017887	56.8688	-0.283237	-2640.9	-6.773138E-6	NaN
1177	1.000000	0.754512	7.37656e+06	-56739.1	1105.82	-29738.2	0.000000	0.000000	6.755026	-0.023419	NaN	0.000000	0.001565	0.001666	28.0827	0.051370	0.002066	24.862	30.0601	-166.198	-0.071096	0.753231	-0.275024	-0.276305	-0.023419	24.862	-0.274318	-1936.73	1.209188E-5	NaN
1177	1.000000	0.762539	7.37656e+06	-56739.1	1105.82	-29738.2	0.000000	0.000000	6.763056	0.034962	NaN	0.000000	0.001575	0.001687	28.0826	0.020280	0.002016	10.0577	-52.6715	-164.665	-0.014568	0.761176	-0.266997	-0.268360	0.034962	10.0577	-0.269604	-1642.58	-2.128489E-5	NaN
1177	1.000000	0.770536	7.37656e+06	-56739.1	1105.82	-29738.2	0.000000	0.000000	6.771053	0.032839	NaN	0.000000	0.001553	0.001672	28.0829	0.130619	0.001940	67.3295	30.9622	-164.889	-0.061456	0.769238	-0.259000	-0.260298	0.032839	67.3295	-0.259366	-1146.02	-2.865490E-5	NaN
1177	1.000000	0.778561	7.37656e+06	-56739.1	1105.82	-29738.2	0.000000	0.000000	6.779076	-0.000141	NaN	0.000000	0.001591	0.001665	28.0826	0.028569	0.001964	14.5443	-148.865	-168.141	-0.005865	0.777219	-0.250975	-0.252317	-0.000141	14.5443	-0.250968	-851.005	1.653265E-7	NaN
1177	1.000000	0.786567	7.37656e+06	-56739.1	1105.82	-29738.2	0.000000	0.000000	6.787082	-0.012097	NaN	0.000000	0.001559	0.001686	28.0827	0.067801	0.002036	33.3078	162.628	-166.371	0.030753	0.785212	-0.242969	-0.244324	-0.012097	33.3078	-0.242697	-633.312	1.910050E-5	NaN
1177	1.000000	0.794557	7.37656e+06	-56739.1	1105.82	-29738.2	0.000000	0.000000	6.795068	-0.097378	NaN	0.000000	0.001547	0.001687	28.0825	0.049449	0.002142	23.0904	-80.2225	-166.063	-0.090276	0.793222	-0.234979	-0.236314	-0.097378	23.0904	-0.231816	-427.728	0.000228	NaN
1177	1.000000	0.802549	7.37656e+06	-56739.1	1105.82	-29738.2	0.000000	0.000000	6.803067	0.059311	NaN	0.000000	0.001617	0.001686	28.0827	0.023057	0.002035	11.3324	-74.8296	-166.397	0.008867	0.801222	-0.226987	-0.228314	0.059311	11.3324	-0.230912	-413.915	-0.000143	NaN
1177	1.000000	0.810541	7.37656e+06	-56739.1	1105.82	-29738.2	0.000000	0.000000	6.811055	-0.029204	NaN	0.000000	0.001635	0.001684	28.0827	0.083452	0.001846	45.2007	-119.818	-165.964	-0.038749	0.809264	-0.218995	-0.220272	-0.029204	45.2007	-0.218511	-262.938	0.000111	NaN
1177	1.000000	0.818572	7.37656e+06	-56739.1	1105.82	-29738.2	0.000000	0.000000	6.819088	0.015519	NaN	0.000000	0.001633	0.001684	28.0827	0.015613	0.001857	8.409645	-11.7615	-165.627	-0.019680	0.817266	-0.210964	-0.212270	0.015519	8.409645	-0.212348	-209.307	-7.414543E-5	NaN
1177	1.000000	0.826576	7.37656e+06	-56739.1	1105.82	-29738.2	0.000000	0.000000	6.827092	0.030727	NaN	0.000000	0.001650	0.001662	28.0829	0.083704	0.002035	41.1378	162.089	-168.786	-0.006658	0.825248	-0.202960	-0.204288	0.030727	41.1378	-0.203521	-150.453	-0.000204	NaN
1177	1.000000	0.834515	7.37656e+06	-56739.1	1105.82	-29738.2	0.000000	0.000000	6.835031	-0.001727	NaN	0.000000	0.001674	0.001640	28.0827	0.033183	0.002047	16.207	135.643	-166.93	0.023042	0.833243	-0.195021	-0.196293	-0.001727	16.207	-0.194941	-108.697	1.589203E-5	NaN
1177	1.000000	0.842559	7.37656e+06	-56739.1	1105.82	-29738.2	0.000000	0.000000	6.843073	-0.053333	NaN	0.000000	0.001649	0.001645	28.0826	0.048369	0.001935	25.0001	119.689	-166.354	-0.046369	0.841232	-0.186976	-0.188304	-0.053333	25.0001	-0.185376	-75.2446	0.000709	NaN
1177	1.000000	0.850575	7.37656e+06	-56739.1	1105.82	-29738.2	0.000000	0.000000	6.851091	0.021483	NaN	0.000000	0.001628	0.001659	28.0838	0.071690	0.002010	35.6698	38.6745	-165.248	0.053013	0.849300	-0.178961	-0.180236	0.021483	35.6698	-0.179413	-59.6316	-0.000360	NaN
1177	1.000000	0.858586	7.37656e+06	-56739.1	1105.82	-29738.2	0.000000	0.000000	6.859100	-0.014643	NaN	0.000000	0.001642	0.001673	28.0838	0.067465	0.002139	31.5433	123.205	-165.893	-0.072678	0.857258	-0.170950	-0.172278	-0.014643	31.5433	-0.170602	-42.0789	0.000348	NaN
1177	1.000000	0.866588	7.37657e+06	-56739.1	1105.82	-29738.2	0.000000	0.000000	6.867102	-0.035736	NaN	0.000000	0.001615	0.001686	28.0842	0.104962	0.001912	54.9012	-60.0835	-163.99	-0.040223	0.865213	-0.162948	-0.164323	-0.035736	54.9012	-0.162460	-30.3087	0.001179	NaN
1177	1.000000	0.874542	7.37657e+06	-56739.1	1105.82	-29738.2	0.000000	0.000000	6.875058	0.020577	NaN	0.000000	0.001638	0.001700	28.0838	0.088061	0.001917	45.9417	62.33	-165.577	-0.014189	0.873257	-0.154994	-0.156279	0.020577	45.9417	-0.155330	-22.6211	-0.000910	NaN
1177	1.000000	0.882568	7.37657e+06	-56739.1	1105.82	-29738.2	0.000000	0.000000	6.883084	0.026823	NaN	0.000000	0.001555	0.001677	28.084	0.127321	0.002060	61.8122	25.914	-169.295	0.072315	0.881269	-0.146968	-0.148267	0.026823	61.8122	-0.147294	-16.1606	-0.001660	NaN
1177	1.000000	0.890591	7.37657e+06	-56739.1	1105.82	-29738.2	0.000000	0.000000	6.891109	0.059205	NaN	0.000000	0.001562	0.001683	28.084	0.114176	0.002016	56.6386	71.0361	-163.714	0.059832	0.889290	-0.138945	-0.140246	0.059205	56.6386	-0.139729	-11.6916	-0.005064	NaN
1177	1.000000	0.898591	7.37657e+06	-56739.1	1105.82	-29738.2	0.000000	0.000000	6.899107	0.000637	NaN	0.000000	0.001523	0.001669	28.0838	0.073298	0.002134	34.3438	66.7999	-164.742	-0.035040	0.897319	-0.130945	-0.132217	0.000637	34.3438	-0.130959	-7.954247	-8.009810E-5	NaN
1177	1.000000	0.906576	7.37657e+06	-56739.1	1105.82	-29738.2	0.000000	0.000000	6.907094	0.074139	NaN	0.000000	0.001529	0.001691	28.084	0.041544	0.001861	22.3235	131.238	-165.293	0.070203	0.905277	-0.122960	-0.124259	0.074139	22.3235	-0.125451	-6.207428	-0.011944	NaN
1177	1.000000	0.914574	7.37657e+06	-56739.1	1105.82	-29738.2	0.000000	0.000000	6.915089	-0.026875	NaN	0.000000	0.001552	0.001694	28.0839	0.009725	0.001983	4.904002	-153.065	-168.255	-0.013671	0.913296	-0.114962	-0.116239	-0.026875	4.904002	-0.110852	-3.131803	0.008581	NaN
1177	1.000000	0.922595	7.37657e+06	-56739.1	1105.82	-29738.2	0.000000	0.000000	6.923110	-0.017161	NaN	0.000000	0.001537	0.001682	28.084	0.062041	0.002010	30.8638	-65.6927	-166.85	0.003798	0.921294	-0.106941	-0.108242	-0.017161	30.8638	-0.106524	-2.534920	0.006770	NaN
1177	1.000000	0.930595	7.37657e+06	-56739.1	1105.82	-29738.2	0.000000	0.000000	6.931115	0.113250	NaN	0.000000	0.001571	0.001692	28.084	0.177840	0.001958	90.817	-17.4421	-164.63	0.054761	0.929328	-0.098941	-0.100208	0.113250	90.817	-0.099877	-1.815666	-0.062374	NaN
1177	1.000000	0.938581	7.37657e+06	-56739.1	1105.82	-29738.2	0.000000	0.000000	6.939127	0.742053	NaN	0.000000	0.001553	0.001671	28.084	0.498599	0.001803	276.504	22.6311	-162.308	0.550275	0.937278	-0.090955	-0.092258	0.742053	276.504	-0.092968	-1.267189	-0.585590	NaN
1177	1.000000	0.946604	7.37657e+06	-56739.1	1105.82	-29738.2	0.000000	0.000000	6.947173	1.290353	NaN	0.000000	0.001547	0.001687	28.0839	0.704522	0.001995	353.061	20.7822	-163.608	1.154441	0.945280	-0.082932	-0.084256	1.290353	353.061	-0.085673	-0.852948	-1.512816	NaN
1177	1.000000	0.954612	7.37657e+06	-56739.1	1105.82	-29738.2	0.000000	0.000000	6.955185	1.397781	NaN	0.000000	0.001523	0.001719	28.084	1.007298	0.002023	498.002	22.8368	-169.044	1.355432	0.953275	-0.074924	-0.076261	1.397781	498.002	-0.077029	-0.520769	-2.684069	NaN
1177	1.000000	0.962602	7.37657e+06	-56739.1	1105.82	-29738.2	0.000000	0.000000	6.963200	1.999170	NaN	0.000000	0.001513	0.001699	28.0839	1.309976	0.001987	659.206	26.8915	-168.067	1.915270	0.961291	-0.066934	-0.068245	1.999170	659.206	-0.069208	-0.324804	-6.155002	NaN
1177	1.000000	0.970592	7.37657e+06	-56739.1	1105.82	-29738.2	0.000000	0.000000	6.971195	2.133332	NaN	0.000000	0.001528	0.001678	28.0841	1.531697	0.001969	777.724	24.957	-165.106	2.019448	0.969279	-0.058944	-0.060257	2.133332	777.724	-0.061001	-0.192362	-11.0902	NaN
1177	1.000000	0.978625	7.37657e+06	-56739.1	1105.82	-29738.2	0.000000	0.000000	6.979230	2.170364	NaN	0.000000	0.001551	0.001700	28.084	1.700181	0.001907	891.633	26.4493	-171.566	2.212777	0.977314	-0.050911	-0.052222	2.170364	891.633	-0.052736	-0.110291	-19.6784	NaN
1177	1.000000	0.986618	7.37657e+06	-56739.1	1105.82	-29738.2	0.000000	0.000000	6.987239	2.579700	NaN	0.000000	0.001568	0.001727	28.0827	1.863040	0.002053	907.636	24.6275	-165.815	2.533526	0.985338	-0.042918	-0.044198	2.579700	907.636	-0.045050	-0.064493	-39.9995	NaN
1177	1.000000	0.994618	7.37657e+06	-56739.1	1105.82	-29738.2	0.000000	0.000000	6.995293	3.881276	NaN	0.000000	0.001555	0.001691	28.0827	2.805319	0.002038	1376.57	16.138	-165.178	3.526581	0.993310	-0.034918	-0.036226	3.881276	1376.57	-0.037033	-0.036799	-105.472	NaN
1177	1.000000	1.002632	7.37657e+06	-56739.1	1105.82	-29738.2	0.000000	0.000000	7.003397	6.068469	NaN	0.000000	0.001568	0.001702	28.0829	3.776187	0.001989	1898.27	19.8761	-168.592	5.996600	1.001335	-0.026904	-0.028201	6.068469	1898.27	-0.029301	-0.022009	-275.731	NaN
1177	1.000000	1.010629	7.37657e+06	-56739.1	1105.82	-29738.2	0.000000	0.000000	7.011408	6.420962	NaN	0.000000	0.001562	0.001646	28.083	4.172040	0.001926	2166.35	22.2637	-171.664	6.589230	1.009364	-0.018907	-0.020172	6.420962	2166.35	-0.021130	-0.013420	-478.474	NaN
1177	1.000000	1.018639	7.37657e+06	-56739.1	1105.82	-29738.2	0.000000	0.000000	7.019423	6.526970	NaN	0.000000	0.001531	0.001674	28.0828	4.691905	0.001937	2422.06	21.2039	-168.258	6.758091	1.017312	-0.010897	-0.012224	6.526970	2422.06	-0.012918	-0.008055	-810.317	NaN
1177	1.000000	1.026631	7.37657e+06	-56739.1	1105.82	-29738.2	0.000000	0.000000	7.027419	6.631450	NaN	0.000000	0.001543	0.001700	28.0827	5.220915	0.001996	2616.13	22.9901	-169.337	6.463418	1.025329	-0.002905	-0.004207	6.631450	2616.13	-0.004806	-0.003295	-2012.79	NaN
1177	1.000000	1.034512	7.37657e+06	-56739.1	1105.82	-29738.2	0.000000	0.000000	7.035339	7.571662	NaN	0.000000	0.001570	0.001692	28.0826	6.771607	0.001942	3487.53	21.062	-172.598	6.962971	1.033312	0.004976	0.003776	7.571662	3487.53	0.003348	0.002675	2830.96	61611.6
1177	2.000000	1.037238	7.37657e+06	-56739.1	1105.82	-29738.2	0.000000	0.000000	7.038129	9.138829	NaN	0.000000	0.001593	0.001669	28.0826	9.526413	0.001824	5223.12	12.3387	-172.034	8.708578	1.036909	0.007702	0.007374	9.138829	5223.12	0.006390	0.005438	1680.69	64714.5
1177	2.000000	1.039193	7.37657e+06	-56739.1	1105.82	-29738.2	0.000000	0.000000	7.040207	12.1131	NaN	0.000000	0.001596	0.001630	28.083	11.944	0.001719	6949.45	12.0256	-174.778	11.9693	1.038860	0.009657	0.009324	12.1131	6949.45	0.008350	0.007405	1635.87	73785.2
1177	2.000000	1.041178	7.37657e+06	-56739.1	1105.82	-29738.2	0.000000	0.000000	7.042253	13.6037	NaN	0.000000	0.001613	0.001654	28.0828	14.0824	0.001799	7827.38	11.6549	-175.876	13.0598	1.040882	0.011642	0.011346	13.6037	7827.38	0.010339	0.009561	1422.91	73138.9
1177	2.000000	1.043201	7.37657e+06	-56739.1	1105.82	-29738.2	0.000000	0.000000	7.044395	16.479	NaN	0.000000	0.001605	0.001705	28.0825	16.7557	0.001877	8927.44	12.8086	-177.311	15.6395	1.042841	0.013665	0.013305	16.479	8927.44	0.012281	0.011828	1393.21	74996.8
1177	2.000000	1.045177	7.37657e+06	-56739.1	1105.82	-29738.2	0.000000	0.000000	7.046525	20.2274	NaN	0.000000	0.001575	0.001725	28.0824	18.4435	0.001858	9925.13	7.499084	-172.479	20.1575	1.044789	0.015641	0.015253	20.2274	9925.13	0.014113	0.014120	1432.51	76311.2
1177	2.000000	1.047160	7.37657e+06	-56739.1	1105.82	-29738.2	0.000000	0.000000	7.048668	24.1233	NaN	0.000000	0.001593	0.001666	28.0824	21.2515	0.001707	12449.1	15.6335	175.04	24.1704	1.046770	0.017624	0.017234	24.1233	12449.1	0.016171	0.016878	1429.24	87547.7
1177	2.000000	1.049147	7.37657e+06	-56739.1	1105.82	-29738.2	0.000000	0.000000	7.050722	25.7434	NaN	0.000000	0.001577	0.001665	28.0827	22.609	0.001766	12802.2	12.686	179.326	26.3865	1.048868	0.019611	0.019332	25.7434	12802.2	0.018103	0.019649	1310.19	83443.3
1177	2.000000	1.051117	7.37657e+06	-56739.1	1105.82	-29738.2	0.000000	0.000000	7.052874	30.1812	NaN	0.000000	0.001534	0.001662	28.0826	25.2185	0.001709	14759	7.239207	-178.264	29.355	1.050770	0.021581	0.021234	30.1812	14759	0.020047	0.022616	1334.49	89664.5
1177	2.000000	1.053159	7.37657e+06	-56739.1	1105.82	-29738.2	0.000000	0.000000	7.055136	35.5144	NaN	0.000000	0.001555	0.001644	28.0825	27.8312	0.001757	15839	10.1368	178.878	34.8964	1.052859	0.023623	0.023323	35.5144	15839	0.021941	0.025685	1382.67	90293.9
1177	2.000000	1.055153	7.37657e+06	-56739.1	1105.82	-29738.2	0.000000	0.000000	7.057274	39.0141	NaN	0.000000	0.001580	0.001674	28.0824	29.0503	0.001673	17363.8	6.490334	-179.46	39.2462	1.054824	0.025617	0.025288	39.0141	17363.8	0.023932	0.029101	1340.63	92995.5
1177	2.000000	1.057130	7.37657e+06	-56739.1	1105.82	-29738.2	0.000000	0.000000	7.059488	44.8042	NaN	0.000000	0.001564	0.001672	28.0835	32.6052	0.001826	17852.7	7.075806	-179.627	44.7466	1.056807	0.027594	0.027271	44.8042	17852.7	0.025711	0.032323	1386.16	90724.6
1177	2.000000	1.059123	7.37657e+06	-56739.1	1105.82	-29738.2	0.000000	0.000000	7.061737	51.0079	NaN	0.000000	0.001560	0.001673	28.084	33.9559	0.001678	20234.5	6.573148	178.594	49.8883	1.058758	0.029587	0.029222	51.0079	20234.5	0.027696	0.036104	1412.79	97293.7
1177	2.000000	1.061148	7.37657e+06	-56739.1	1105.82	-29738.2	0.000000	0.000000	7.063970	56.0755	NaN	0.000000	0.001581	0.001676	28.0838	36.8517	0.001838	20050.7	8.559490	177.361	56.136	1.060793	0.031612	0.031257	56.0755	20050.7	0.029514	0.039743	1410.96	91891.3
1177	2.000000	1.063130	7.37657e+06	-56739.1	1105.82	-29738.2	0.000000	0.000000	7.066323	65.1006	NaN	0.000000	0.001567	0.001671	28.0839	38.9093	0.001746	22287.9	6.266922	178.732	64.489	1.062786	0.033594	0.033250	65.1006	22287.9	0.031403	0.043702	1489.66	97407.8
1177	2.000000	1.065076	7.37657e+06	-56739.1	1105.82	-29738.2	0.000000	0.000000	7.068457	69.6486	NaN	0.000000	0.001572	0.001615	28.0839	40.2556	0.001692	23795.4	5.748103	178.238	68.3831	1.064816	0.035540	0.035280	69.6486	23795.4	0.033345	0.047962	1452.16	99270.1
1177	2.000000	1.067131	7.37657e+06	-56739.1	1105.82	-29738.2	0.000000	0.000000	7.070773	76.0104	NaN	0.000000	0.001595	0.001696	28.0839	44.5749	0.001856	24012.8	8.743955	174.639	75.9597	1.066810	0.037595	0.037274	76.0104	24012.8	0.035221	0.052261	1454.44	95968.3
1177	2.000000	1.069042	7.37657e+06	-56739.1	1105.82	-29738.2	0.000000	0.000000	7.073032	84.4431	NaN	0.000000	0.001606	0.001688	28.0839	45.2972	0.001758	25773.5	8.947549	173.851	82.1145	1.068769	0.039507	0.039233	84.4431	25773.5	0.037049	0.056625	1491.26	98955.9
1177	2.000000	1.071078	7.37657e+06	-56739.1	1105.82	-29738.2	0.000000	0.000000	7.075478	94.4136	NaN	0.000000	0.001685	0.001702	28.0839	47.0393	0.001697	27726.4	7.111966	175.363	92.2782	1.070705	0.041543	0.041169	94.4136	27726.4	0.038989	0.061441	1536.66	102197
1177	2.000000	1.073184	7.37657e+06	-56739.1	1105.82	-29738.2	0.000000	0.000000	7.077909	102.321	NaN	0.000000	0.001671	0.001718	28.0842	49.7248	0.001737	28634.6	8.089816	174.671	103.651	1.072726	0.043648	0.043190	102.321	28634.6	0.040968	0.066553	1537.44	101410
1177	2.000000	1.075081	7.37657e+06	-56739.1	1105.82	-29738.2	0.000000	0.000000	7.080171	111.193	NaN	0.000000	0.001670	0.001703	28.0842	50.9011	0.001966	25893.9	3.807735	-179.983	109.699	1.074805	0.045545	0.045269	111.193	25893.9	0.042324	0.070173	1584.57	89307.2
1177	2.000000	1.077043	7.37657e+06	-56739.1	1105.82	-29738.2	0.000000	0.000000	7.082551	121.343	NaN	0.000000	0.001587	0.001727	28.0838	52.9334	0.001856	28520.1	7.227380	175.224	118.932	1.076760	0.047507	0.047224	121.343	28520.1	0.044316	0.075658	1603.83	94731.9
1177	2.000000	1.079096	7.37657e+06	-56739.1	1105.82	-29738.2	0.000000	0.000000	7.084953	129.826	NaN	0.000000	0.001602	0.001686	28.0837	53.4134	0.001768	30204.7	6.835623	174.905	128.453	1.078786	0.049560	0.049250	129.826	30204.7	0.046337	0.081427	1594.38	96708.1
1177	2.000000	1.081041	7.37657e+06	-56739.1	1105.82	-29738.2	0.000000	0.000000	7.087326	140.25	NaN	0.000000	0.001588	0.001674	28.0836	56.7158	0.001896	29911.8	8.578369	173.105	138.46	1.080714	0.051505	0.051179	140.25	29911.8	0.047988	0.086297	1625.21	93029.1
1177	2.000000	1.083110	7.37657e+06	-56739.1	1105.82	-29738.2	0.000000	0.000000	7.089829	150.781	NaN	0.000000	0.001584	0.001687	28.084	56.8111	0.001746	32541.8	3.919765	177.372	150.177	1.082782	0.053574	0.053246	150.781	32541.8	0.050099	0.092719	1626.22	97640.8
1177	2.000000	1.085071	7.37657e+06	-56739.1	1105.82	-29738.2	0.000000	0.000000	7.092162	159.839	NaN	0.000000	0.001584	0.001653	28.0839	58.3388	0.001722	33874.8	3.879866	176.619	159.121	1.084731	0.055535	0.055195	159.839	33874.8	0.051996	0.098682	1619.73	98521.3
1177	2.000000	1.087054	7.37657e+06	-56739.1	1105.82	-29738.2	0.000000	0.000000	7.094662	172.388	NaN	0.000000	0.001607	0.001675	28.0836	61.3156	0.001858	33003.8	6.329655	174.857	171.399	1.086753	0.057518	0.057217	172.388	33003.8	0.053600	0.103865	1659.73	93562.4
1177	2.000000	1.089049	7.37657e+06	-56739.1	1105.82	-29738.2	0.000000	0.000000	7.097237	186.481	NaN	0.000000	0.001575	0.001690	28.0839	61.0109	0.001731	35243.9	2.992833	177.815	183.095	1.088627	0.059513	0.059091	186.481	35243.9	0.055545	0.110318	1690.39	96946.9
1177	2.000000	1.091044	7.37657e+06	-56739.1	1105.82	-29738.2	0.000000	0.000000	7.099683	197.456	NaN	0.000000	0.001582	0.001650	28.0823	65.4578	0.001787	36629.3	7.702874	172.203	195.381	1.090734	0.061508	0.061198	197.456	36629.3	0.057465	0.116875	1689.46	97890.6
1177	2.000000	1.093111	7.37657e+06	-56739.1	1105.82	-29738.2	0.000000	0.000000	7.102139	206.901	NaN	0.000000	0.001593	0.001675	28.0828	66.1715	0.001638	40407.7	3.363028	176.113	207.119	1.092800	0.063575	0.063264	206.901	40407.7	0.059735	0.124860	1657.06	104478
1177	2.000000	1.095060	7.37657e+06	-56739.1	1105.82	-29738.2	0.000000	0.000000	7.104513	217.247	NaN	0.000000	0.001619	0.001677	28.0825	68.0223	0.001738	39146.1	6.346440	172.473	214.823	1.094707	0.065524	0.065172	217.247	39146.1	0.061361	0.130736	1661.73	98915.6
1177	2.000000	1.097167	7.37657e+06	-56739.1	1105.82	-29738.2	0.000000	0.000000	7.106819	222.072	NaN	0.000000	0.001588	0.001684	28.0824	71.9201	0.001784	40313.9	4.959527	173.378	224.462	1.096879	0.067631	0.067343	222.072	40313.9	0.063499	0.138655	1601.62	98914.6
1177	2.000000	1.099096	7.37657e+06	-56739.1	1105.82	-29738.2	0.000000	0.000000	7.109673	244.559	NaN	0.000000	0.001578	0.001674	28.0826	71.7608	0.001833	39147.5	1.925557	177.95	245.528	1.098659	0.069560	0.069123	244.559	39147.5	0.064874	0.143865	1699.92	94297.5
1177	2.000000	1.101043	7.37657e+06	-56739.1	1105.82	-29738.2	0.000000	0.000000	7.112111	256.486	NaN	0.000000	0.001589	0.001639	28.0824	76.2294	0.001821	41852.4	11.125	168.241	256.36	1.100651	0.071507	0.071115	256.486	41852.4	0.066911	0.151750	1690.19	98158.9
1177	2.000000	1.103074	7.37657e+06	-56739.1	1105.82	-29738.2	0.000000	0.000000	7.114548	266.345	NaN	0.000000	0.001579	0.001667	28.0828	77.2224	0.001711	45139.1	6.677710	171.522	265.567	1.102665	0.073539	0.073129	266.345	45139.1	0.069113	0.160499	1659.48	102942
1177	2.000000	1.104991	7.37657e+06	-56739.1	1105.82	-29738.2	0.000000	0.000000	7.116791	274.285	NaN	0.000000	0.001585	0.001659	28.0827	78.1007	0.001739	44913	3.909386	174.526	271.99	1.104703	0.075455	0.075167	274.285	44913	0.070875	0.167665	1635.91	100213
1177	2.000000	1.106995	7.37657e+06	-56739.1	1105.82	-29738.2	0.000000	0.000000	7.119284	286.174	NaN	0.000000	0.001564	0.001703	28.0826	81.6423	0.001927	42365.2	7.830004	170.963	283.465	1.106792	0.077459	0.077256	286.174	42365.2	0.072393	0.173959	1645.07	92802.5
1177	2.000000	1.109059	7.37657e+06	-56739.1	1105.82	-29738.2	0.000000	0.000000	7.122111	304.711	NaN	0.000000	0.001550	0.001676	28.0828	81.0657	0.001694	47849.1	4.530828	173.372	304.878	1.108716	0.079524	0.079180	304.711	47849.1	0.074747	0.183934	1656.63	101933
1177	2.000000	1.111045	7.37657e+06	-56739.1	1105.82	-29738.2	0.000000	0.000000	7.124483	314.081	NaN	0.000000	0.001588	0.001631	28.0826	83.9977	0.001836	45755.1	3.695641	174.056	312.812	1.110775	0.081510	0.081239	314.081	45755.1	0.076361	0.190923	1645.06	95671.8
1177	2.000000	1.113047	7.37657e+06	-56739.1	1105.82	-29738.2	0.000000	0.000000	7.127015	326.987	NaN	0.000000	0.001559	0.001646	28.0832	85.8441	0.001906	45037.7	4.976872	173.537	326.088	1.112734	0.083511	0.083198	326.987	45037.7	0.078065	0.198436	1647.83	92371.9
1177	2.000000	1.115025	7.37657e+06	-56739.1	1105.82	-29738.2	0.000000	0.000000	7.129581	341.252	NaN	0.000000	0.001525	0.001676	28.0825	86.696	0.001804	48049.3	7.250139	171.164	338.255	1.114662	0.085490	0.085126	341.252	48049.3	0.080163	0.207869	1641.67	96286.5
1177	2.000000	1.117034	7.37657e+06	-56739.1	1105.82	-29738.2	0.000000	0.000000	7.131903	348.873	NaN	0.000000	0.001554	0.001673	28.0824	90.6412	0.001906	47558.4	6.850026	170.925	347.221	1.116806	0.087498	0.087270	348.873	47558.4	0.081996	0.216281	1613.05	93431
1177	2.000000	1.118938	7.37657e+06	-56739.1	1105.82	-29738.2	0.000000	0.000000	7.134188	358.145	NaN	0.000000	0.001570	0.001705	28.082	90.5623	0.001806	50156	5.630404	171.42	354.61	1.118823	0.089402	0.089287	358.145	50156	0.084046	0.225873	1585.6	96419.2
1177	2.000000	1.121042	7.37657e+06	-56739.1	1105.82	-29738.2	0.000000	0.000000	7.137014	375.699	NaN	0.000000	0.001555	0.001701	28.0825	92.2801	0.001893	48749.4	4.891065	173.111	374.389	1.120665	0.091506	0.091129	375.699	48749.4	0.085726	0.233875	1606.41	92098
1177	2.000000	1.123134	7.37657e+06	-56739.1	1105.82	-29738.2	0.000000	0.000000	7.139717	390.543	NaN	0.000000	0.001558	0.001692	28.0828	93.0441	0.001837	50646	3.610625	174.546	393.281	1.122710	0.093598	0.093174	390.543	50646	0.087815	0.244012	1600.5	93672.5
1177	2.000000	1.125019	7.37657e+06	-56739.1	1105.82	-29738.2	0.000000	0.000000	7.142272	406.832	NaN	0.000000	0.001594	0.001704	28.0836	94.5128	0.001718	55007.8	6.561785	170.553	405.329	1.124688	0.095483	0.095152	406.832	55007.8	0.089936	0.254508	1598.5	99620
1177	2.000000	1.127044	7.37657e+06	-56739.1	1105.82	-29738.2	0.000000	0.000000	7.144996	423.81	NaN	0.000000	0.001569	0.001714	28.0836	97.63	0.001815	53800.9	5.578091	172.424	421.607	1.126624	0.097508	0.097088	423.81	53800.9	0.091600	0.262890	1612.12	95868.3
1177	2.000000	1.128963	7.37657e+06	-56739.1	1105.82	-29738.2	0.000000	0.000000	7.147126	428.944	NaN	0.000000	0.001534	0.001716	28.0836	96.7945	0.001730	55961.5	1.282147	175.384	425.433	1.128775	0.099427	0.099239	428.944	55961.5	0.093678	0.273533	1568.16	97759.2
1177	2.000000	1.131001	7.37657e+06	-56739.1	1105.82	-29738.2	0.000000	0.000000	7.149801	444.44	NaN	0.000000	0.001586	0.001705	28.0838	99.2832	0.001689	58792.8	5.631672	170.923	441.37	1.130735	0.101465	0.101200	444.44	58792.8	0.095795	0.284576	1561.77	100693
1177	2.000000	1.132972	7.37657e+06	-56739.1	1105.82	-29738.2	0.000000	0.000000	7.152492	461.926	NaN	0.000000	0.001581	0.001688	28.0839	102.443	0.001823	56205.4	4.905215	172.42	458.455	1.132550	0.103436	0.103014	461.926	56205.4	0.097272	0.292400	1579.77	94964.7
1177	2.000000	1.134044	7.37657e+06	-56739.1	1105.82	-29738.2	0.000000	0.000000	7.153835	468.511	NaN	0.000000	0.001562	0.001698	28.0835	104.521	0.001783	58636.5	7.034467	169.414	467.249	1.133672	0.104508	0.104136	468.511	58636.5	0.098515	0.299067	1566.57	97961.8