File: remote_trans/data/nanoindenter/0828-1/data/Data_2025-08-06,11h17m57s/2025-07-22_16-23-58_1_342.txt
2025-07-22, 16:23:58, 1
Index	Phase	Displacement	Time	Pos X	Pos Y	Pos Z	Rot A	Rot B	Piezo Z	Force A	Force B	Gripper	Voltage A	Voltage B	Temperature	Amplitude force	Amplitude pos	Stiffness	Phase shift	Phase excitation	Force A raw	Displacement raw	HMax	HMax raw	Real Force	Real Stiffness	Contact Depth	Area	Hardness	Reduced Mod.
[#]	[#]	[um]	[s]	[um]	[um]	[um]	[m°]	[m°]	[um]	[uN]	[uN]	[V]	[V]	[V]	[°C]	[uN]	[um]	[N/m]	[°]	[°]	[uN]	[um]	[um]	[um]	[uN]	[N/m]	[um]	[um^2]	[MPa]	[MPa]
342	1.000000	0.002557	7.36841e+06	-55739.1	955.818	-29741.1	0.000000	0.000000	6.002828	0.032227	NaN	0.000000	0.001562	0.001710	28.0798	0.069725	0.001080	64.5365	-11.7982	-161.957	0.015155	0.001244	-1.072650	-1.073963	0.032227	64.5365	-1.073025	-2.176836E+14	-1.480439E-16	NaN
342	1.000000	0.010509	7.36841e+06	-55739.1	955.818	-29741.1	0.000000	0.000000	6.010778	-0.025517	NaN	0.000000	0.001544	0.001764	28.0795	0.016941	0.001024	16.5504	-155.666	-168.477	-0.046999	0.009131	-1.064698	-1.066076	-0.025517	16.5504	-1.063542	-1.623365E+14	1.571870E-16	NaN
342	1.000000	0.018495	7.36841e+06	-55739.1	955.818	-29741.1	0.000000	0.000000	6.018765	-0.013992	NaN	0.000000	0.001547	0.001722	28.0797	0.050764	0.001654	30.6865	-71.3475	-164.65	-0.014632	0.017201	-1.056712	-1.058006	-0.013992	30.6865	-1.056370	-1.300273E+14	1.076048E-16	NaN
342	1.000000	0.026526	7.36841e+06	-55739.1	955.818	-29741.1	0.000000	0.000000	6.026796	0.001564	NaN	0.000000	0.001559	0.001700	28.0795	0.051301	0.001777	28.868	135.174	-163.91	0.051823	0.025201	-1.048681	-1.050006	0.001564	28.868	-1.048722	-1.026198E+14	-1.523601E-17	NaN
342	1.000000	0.034520	7.36841e+06	-55739.1	955.817	-29741.1	0.000000	0.000000	6.034792	0.051968	NaN	0.000000	0.001523	0.001743	28.0796	0.067535	0.001855	36.4037	-125.716	-166.316	0.044934	0.033109	-1.040687	-1.042097	0.051968	36.4037	-1.041758	-8.271902E+13	-6.282496E-16	NaN
342	1.000000	0.042466	7.36841e+06	-55739.1	955.818	-29741.1	0.000000	0.000000	6.042736	0.002456	NaN	0.000000	0.001544	0.001749	28.0794	0.088575	0.002085	42.4735	168.434	-166.385	0.021646	0.041188	-1.032741	-1.034019	0.002456	42.4735	-1.032785	-6.265173E+13	-3.919841E-17	NaN
342	1.000000	0.050467	7.36841e+06	-55739.1	955.818	-29741.1	0.000000	0.000000	6.050738	0.015912	NaN	0.000000	0.001533	0.001729	28.0799	0.061374	0.002114	29.0305	-120.294	-166.223	0.003869	0.049182	-1.024740	-1.026025	0.015912	29.0305	-1.025151	-4.945999E+13	-3.217070E-16	NaN
342	1.000000	0.058502	7.36841e+06	-55739.1	955.817	-29741.1	0.000000	0.000000	6.058771	-0.028426	NaN	0.000000	0.001542	0.001688	28.0798	0.071816	0.002055	34.9472	110.055	-164.491	-0.014510	0.057216	-1.016705	-1.017991	-0.028426	34.9472	-1.016095	-3.735986E+13	7.608796E-16	NaN
342	1.000000	0.066474	7.36841e+06	-55739.1	955.82	-29741.1	0.000000	0.000000	6.066741	-0.053324	NaN	0.000000	0.001542	0.001692	28.0796	0.053784	0.001897	28.3592	-80.6237	-166.783	-0.030900	0.065196	-1.008733	-1.010011	-0.053324	28.3592	-1.007323	-2.846773E+13	1.873153E-15	NaN
342	1.000000	0.074496	7.36841e+06	-55739.1	955.819	-29741.1	0.000000	0.000000	6.074767	0.017798	NaN	0.000000	0.001578	0.001714	28.08	0.071732	0.001958	36.6437	-57.3511	-165.241	0.083670	0.073111	-1.000711	-1.002096	0.017798	36.6437	-1.001075	-2.345563E+13	-7.587763E-16	NaN
342	1.000000	0.082482	7.36841e+06	-55739.1	955.818	-29741.1	0.000000	0.000000	6.082752	-0.008815	NaN	0.000000	0.001540	0.001725	28.08	0.029615	0.001931	15.3403	43.4971	-164.701	-0.024946	0.081159	-0.992724	-0.994048	-0.008815	15.3403	-0.992293	-1.786484E+13	4.934049E-16	NaN
342	1.000000	0.090456	7.36841e+06	-55739.1	955.819	-29741.1	0.000000	0.000000	6.090726	-0.002390	NaN	0.000000	0.001512	0.001689	28.0803	0.011802	0.001969	5.994702	-73.8007	-165.802	0.061279	0.089174	-0.984750	-0.986033	-0.002390	5.994702	-0.984451	-1.400805E+13	1.706052E-16	NaN
342	1.000000	0.098523	7.36841e+06	-55739.1	955.818	-29741.1	0.000000	0.000000	6.098791	-0.049877	NaN	0.000000	0.001546	0.001728	28.08	0.042311	0.002087	20.2732	149.76	-162.715	-0.025372	0.097188	-0.976684	-0.978018	-0.049877	20.2732	-0.974838	-1.039598E+13	4.797752E-15	NaN
342	1.000000	0.106459	7.36841e+06	-55739.1	955.818	-29741.1	0.000000	0.000000	6.106730	0.031840	NaN	0.000000	0.001531	0.001746	28.0797	0.159041	0.002060	77.2111	-15.4015	-168.828	-0.019294	0.105176	-0.968748	-0.970031	0.031840	77.2111	-0.969058	-8.688857E+12	-3.664498E-15	NaN
342	1.000000	0.114483	7.36841e+06	-55739.1	955.818	-29741.1	0.000000	0.000000	6.114756	0.062393	NaN	0.000000	0.001548	0.001750	28.0799	0.091822	0.001976	46.4791	-155.408	-161.986	0.040174	0.113178	-0.960724	-0.962029	0.062393	46.4791	-0.961730	-6.921466E+12	-9.014487E-15	NaN
342	1.000000	0.122511	7.36841e+06	-55739.1	955.818	-29741.1	0.000000	0.000000	6.122782	0.022158	NaN	0.000000	0.001550	0.001720	28.0809	0.076948	0.002088	36.8439	158.197	-163.505	-0.017483	0.121245	-0.952696	-0.953962	0.022158	36.8439	-0.953147	-5.302343E+12	-4.178908E-15	NaN
342	1.000000	0.130511	7.36841e+06	-55739.1	955.818	-29741.1	0.000000	0.000000	6.130782	0.038403	NaN	0.000000	0.001553	0.001707	28.0812	0.057519	0.002020	28.4736	-8.835402	-162.779	-0.016665	0.129211	-0.944696	-0.945996	0.038403	28.4736	-0.945708	-4.208566E+12	-9.125007E-15	NaN
342	1.000000	0.138517	7.36841e+06	-55739.1	955.818	-29741.1	0.000000	0.000000	6.138788	0.031246	NaN	0.000000	0.001544	0.001718	28.081	0.025210	0.002087	12.0787	22.0703	-164.714	0.082222	0.137171	-0.936690	-0.938036	0.031246	12.0787	-0.938630	-3.377968E+12	-9.249849E-15	NaN
342	1.000000	0.146520	7.36841e+06	-55739.1	955.818	-29741.1	0.000000	0.000000	6.146791	0.019559	NaN	0.000000	0.001532	0.001696	28.0809	0.042429	0.001962	21.6221	-152.468	-163.882	0.042164	0.145213	-0.928687	-0.929994	0.019559	21.6221	-0.929365	-2.532960E+12	-7.721702E-15	NaN
342	1.000000	0.154511	7.36841e+06	-55739.1	955.819	-29741.1	0.000000	0.000000	6.154783	0.033483	NaN	0.000000	0.001572	0.001700	28.0813	0.111918	0.001978	56.5889	82.8251	-165.952	0.037647	0.153223	-0.920696	-0.921984	0.033483	56.5889	-0.921139	-1.961503E+12	-1.707016E-14	NaN
342	1.000000	0.162532	7.36841e+06	-55739.1	955.819	-29741.1	0.000000	0.000000	6.162803	0.030243	NaN	0.000000	0.001541	0.001696	28.081	0.038030	0.002000	19.0149	61.2993	-165.796	-0.038449	0.161196	-0.912675	-0.914011	0.030243	19.0149	-0.913868	-1.564608E+12	-1.932954E-14	NaN
342	1.000000	0.170521	7.36841e+06	-55739.1	955.818	-29741.1	0.000000	0.000000	6.170791	0.001978	NaN	0.000000	0.001558	0.001669	28.0811	0.076769	0.001928	39.8193	74.375	-167.51	0.017898	0.169243	-0.904686	-0.905964	0.001978	39.8193	-0.904723	-1.177273E+12	-1.680149E-15	NaN
342	1.000000	0.178511	7.36841e+06	-55739.1	955.818	-29741.1	0.000000	0.000000	6.178784	0.061982	NaN	0.000000	0.001531	0.001696	28.0809	0.061362	0.001962	31.2711	-158.718	-163.598	0.031790	0.177154	-0.896696	-0.898053	0.061982	31.2711	-0.898182	-9.605136E+11	-6.453001E-14	NaN
342	1.000000	0.186523	7.36841e+06	-55739.1	955.818	-29741.1	0.000000	0.000000	6.186795	0.041468	NaN	0.000000	0.001501	0.001678	28.0811	0.069227	0.001951	35.49	-43.3852	-164.683	0.076823	0.185255	-0.888684	-0.889952	0.041468	35.49	-0.889560	-7.344575E+11	-5.646055E-14	NaN
342	1.000000	0.194532	7.36841e+06	-55739.1	955.818	-29741.1	0.000000	0.000000	6.194801	-0.025059	NaN	0.000000	0.001502	0.001683	28.0813	0.107699	0.001999	53.8837	156.387	-165.474	-0.015243	0.193213	-0.880675	-0.881994	-0.025059	53.8837	-0.880326	-5.509637E+11	4.548297E-14	NaN
342	1.000000	0.202544	7.36841e+06	-55739.1	955.818	-29741.1	0.000000	0.000000	6.202815	0.016215	NaN	0.000000	0.001504	0.001667	28.081	0.083921	0.001815	46.233	-166.094	-160.797	0.038424	0.201191	-0.872663	-0.874016	0.016215	46.233	-0.872926	-4.375526E+11	-3.705953E-14	NaN
342	1.000000	0.210534	7.36841e+06	-55739.1	955.819	-29741.1	0.000000	0.000000	6.210806	0.040194	NaN	0.000000	0.001513	0.001691	28.0812	0.132964	0.001989	66.8586	136.526	-164.283	0.076987	0.209282	-0.864673	-0.865925	0.040194	66.8586	-0.865123	-3.431319E+11	-1.171372E-13	NaN
342	1.000000	0.218556	7.36841e+06	-55739.1	955.819	-29741.1	0.000000	0.000000	6.218824	-0.055296	NaN	0.000000	0.001506	0.001741	28.081	0.124645	0.002048	60.8625	96.6151	-166.226	-0.093123	0.217223	-0.856651	-0.857984	-0.055296	60.8625	-0.855969	-2.579629E+11	2.143575E-13	NaN
342	1.000000	0.226567	7.36841e+06	-55739.1	955.818	-29741.1	0.000000	0.000000	6.226837	0.004547	NaN	0.000000	0.001567	0.001693	28.0811	0.062949	0.002024	31.1059	-22.4342	-164.705	0.016780	0.225262	-0.848640	-0.849945	0.004547	31.1059	-0.848750	-2.059708E+11	-2.207638E-14	NaN
342	1.000000	0.234588	7.36841e+06	-55739.1	955.818	-29741.1	0.000000	0.000000	6.234857	-0.011223	NaN	0.000000	0.001525	0.001728	28.0811	0.026309	0.002003	13.1372	-5.241356	-165.606	0.066119	0.233252	-0.840619	-0.841955	-0.011223	13.1372	-0.839978	-1.566755E+11	7.163285E-14	NaN
342	1.000000	0.242560	7.36841e+06	-55739.1	955.818	-29741.1	0.000000	0.000000	6.242831	0.028497	NaN	0.000000	0.001524	0.001749	28.0809	0.090135	0.001981	45.5085	23.6756	-164.091	0.072488	0.241218	-0.832647	-0.833989	0.028497	45.5085	-0.833117	-1.264807E+11	-2.253062E-13	NaN
342	1.000000	0.250535	7.36841e+06	-55739.1	955.818	-29741.1	0.000000	0.000000	6.250808	0.054070	NaN	0.000000	0.001535	0.001730	28.0811	0.037387	0.001971	18.9694	-41.1169	-166.753	0.068778	0.249242	-0.824671	-0.825965	0.054070	18.9694	-0.826809	-1.038805E+11	-5.205040E-13	NaN
342	1.000000	0.258536	7.36841e+06	-55739.1	955.819	-29741.1	0.000000	0.000000	6.258804	-0.056428	NaN	0.000000	0.001548	0.001710	28.0796	0.046508	0.002027	22.9431	-92.0746	-165.098	-0.090355	0.257270	-0.816671	-0.817937	-0.056428	22.9431	-0.814826	-7.145723E+10	7.896767E-13	NaN
342	1.000000	0.266545	7.36841e+06	-55739.1	955.819	-29741.1	0.000000	0.000000	6.266816	0.011309	NaN	0.000000	0.001569	0.001741	28.0795	0.011320	0.002172	5.211090	-141.57	-163.265	0.083986	0.265178	-0.808662	-0.810029	0.011309	5.211090	-0.810289	-6.201528E+10	-1.823570E-13	NaN
342	1.000000	0.274559	7.36841e+06	-55739.1	955.819	-29741.1	0.000000	0.000000	6.274832	0.068668	NaN	0.000000	0.001528	0.001736	28.0795	0.040261	0.001958	20.5663	-130.229	-162.973	0.045094	0.273287	-0.800648	-0.801920	0.068668	20.5663	-0.803152	-4.961922E+10	-1.383903E-12	NaN
342	1.000000	0.282557	7.36841e+06	-55739.1	955.818	-29741.1	0.000000	0.000000	6.282828	0.040122	NaN	0.000000	0.001548	0.001699	28.0797	0.059201	0.002132	27.7721	51.0754	-167.935	-0.042878	0.281246	-0.792650	-0.793960	0.040122	27.7721	-0.793734	-3.696484E+10	-1.085405E-12	NaN
342	1.000000	0.290594	7.36841e+06	-55739.1	955.818	-29741.1	0.000000	0.000000	6.290866	0.052036	NaN	0.000000	0.001522	0.001715	28.0796	0.056773	0.002016	28.1681	-136.308	-165.446	0.024403	0.289323	-0.784613	-0.785884	0.052036	28.1681	-0.785999	-2.902250E+10	-1.792947E-12	NaN
342	1.000000	0.298584	7.36841e+06	-55739.1	955.819	-29741.1	0.000000	0.000000	6.298855	0.026110	NaN	0.000000	0.001553	0.001716	28.0795	0.096874	0.001852	52.3215	-46.9534	-167.678	-0.031430	0.297298	-0.776623	-0.777909	0.026110	52.3215	-0.776997	-2.189914E+10	-1.192282E-12	NaN
342	1.000000	0.306585	7.36841e+06	-55739.1	955.819	-29741.1	0.000000	0.000000	6.306856	0.025453	NaN	0.000000	0.001583	0.001718	28.0798	0.066231	0.002015	32.8752	73.0118	-162.046	-0.008435	0.305293	-0.768622	-0.769913	0.025453	32.8752	-0.769202	-1.715767E+10	-1.483486E-12	NaN
342	1.000000	0.314590	7.36841e+06	-55739.1	955.818	-29741.1	0.000000	0.000000	6.314861	0.023463	NaN	0.000000	0.001588	0.001669	28.0796	0.088317	0.002112	41.8205	-55.5425	-166.268	0.011176	0.313202	-0.760617	-0.762005	0.023463	41.8205	-0.761038	-1.328679E+10	-1.765919E-12	NaN
342	1.000000	0.322610	7.36841e+06	-55739.1	955.819	-29741.1	0.000000	0.000000	6.322880	-0.001960	NaN	0.000000	0.001541	0.001652	28.0801	0.111221	0.002065	53.8645	159.495	-165.339	0.015301	0.321238	-0.752597	-0.753969	-0.001960	53.8645	-0.752569	-1.019040E+10	1.923748E-13	NaN
342	1.000000	0.330596	7.36841e+06	-55739.1	955.818	-29741.1	0.000000	0.000000	6.330868	0.045280	NaN	0.000000	0.001563	0.001681	28.0799	0.031740	0.002092	15.1745	149.033	-162.129	-0.026104	0.329258	-0.744610	-0.745949	0.045280	15.1745	-0.746848	-8.517581E+9	-5.316036E-12	NaN
342	1.000000	0.338574	7.36841e+06	-55739.1	955.818	-29741.1	0.000000	0.000000	6.338844	-0.000193	NaN	0.000000	0.001556	0.001687	28.0798	0.051237	0.002083	24.5936	-39.5583	-163.074	0.051443	0.337337	-0.736633	-0.737870	-0.000193	24.5936	-0.736627	-6.181672E+9	3.125576E-14	NaN
342	1.000000	0.346596	7.36841e+06	-55739.1	955.819	-29741.1	0.000000	0.000000	6.346867	0.024622	NaN	0.000000	0.001562	0.001708	28.0799	0.034033	0.001900	17.9142	80.0135	-164.066	0.013685	0.345296	-0.728611	-0.729911	0.024622	17.9142	-0.729642	-4.965073E+9	-4.959033E-12	NaN
342	1.000000	0.354587	7.36841e+06	-55739.1	955.819	-29741.1	0.000000	0.000000	6.354855	-0.050558	NaN	0.000000	0.001553	0.001715	28.0797	0.103504	0.001889	54.8039	128.249	-164.756	-0.079782	0.353327	-0.720620	-0.721880	-0.050558	54.8039	-0.719928	-3.660044E+9	1.381357E-11	NaN
342	1.000000	0.362606	7.36841e+06	-55739.1	955.818	-29741.1	0.000000	0.000000	6.362876	-0.011263	NaN	0.000000	0.001555	0.001703	28.0801	0.028783	0.002098	13.7198	-22.5458	-163.97	0.046320	0.361227	-0.712601	-0.713980	-0.011263	13.7198	-0.711985	-2.851908E+9	3.949410E-12	NaN
342	1.000000	0.370631	7.36841e+06	-55739.1	955.818	-29741.1	0.000000	0.000000	6.370902	0.003265	NaN	0.000000	0.001545	0.001712	28.0797	0.083478	0.001995	41.8474	-46.2862	-166.315	0.079135	0.369326	-0.704576	-0.705880	0.003265	41.8474	-0.704634	-2.263636E+9	-1.442324E-12	NaN
342	1.000000	0.378617	7.36841e+06	-55739.1	955.818	-29741.1	0.000000	0.000000	6.378886	-0.022152	NaN	0.000000	0.001522	0.001696	28.0796	0.096509	0.002081	46.3766	-179.602	-164.817	0.087451	0.377282	-0.696590	-0.697925	-0.022152	46.3766	-0.696232	-1.738048E+9	1.274541E-11	NaN
342	1.000000	0.386618	7.36841e+06	-55739.1	955.819	-29741.1	0.000000	0.000000	6.386891	0.091881	NaN	0.000000	0.001544	0.001690	28.0797	0.066286	0.002024	32.7523	-48.3844	-162.721	0.074343	0.385299	-0.688589	-0.689908	0.091881	32.7523	-0.690693	-1.460137E+9	-6.292601E-11	NaN
342	1.000000	0.394636	7.36841e+06	-55739.1	955.818	-29741.1	0.000000	0.000000	6.394907	0.038925	NaN	0.000000	0.001549	0.001715	28.081	0.065777	0.002058	31.9629	-174.163	-165.217	0.079553	0.393260	-0.680571	-0.681947	0.038925	31.9629	-0.681485	-1.092716E+9	-3.562261E-11	NaN
342	1.000000	0.402643	7.36841e+06	-55739.1	955.818	-29741.1	0.000000	0.000000	6.402912	-0.023726	NaN	0.000000	0.001543	0.001731	28.0814	0.041371	0.001908	21.6823	54.373	-161.933	0.019619	0.401313	-0.672564	-0.673894	-0.023726	21.6823	-0.671743	-8.039805E+8	2.951081E-11	NaN
342	1.000000	0.410627	7.36841e+06	-55739.1	955.818	-29741.1	0.000000	0.000000	6.410899	0.046374	NaN	0.000000	0.001527	0.001742	28.0811	0.067150	0.001910	35.1569	-146.182	-165.313	0.077791	0.409335	-0.664580	-0.665872	0.046374	35.1569	-0.665570	-6.618235E+8	-7.007049E-11	NaN
342	1.000000	0.418628	7.36841e+06	-55739.1	955.819	-29741.1	0.000000	0.000000	6.418896	-0.045167	NaN	0.000000	0.001515	0.001735	28.0812	0.076668	0.002021	37.9421	81.5238	-166.462	-0.080626	0.417328	-0.656579	-0.657879	-0.045167	37.9421	-0.655686	-4.845810E+8	9.320924E-11	NaN
342	1.000000	0.426603	7.36841e+06	-55739.1	955.818	-29741.1	0.000000	0.000000	6.426868	-0.107767	NaN	0.000000	0.001545	0.001717	28.081	0.059102	0.002009	29.4216	87.6589	-168.274	-0.062301	0.425340	-0.648604	-0.649867	-0.107767	29.4216	-0.645857	-3.553299E+8	3.032883E-10	NaN
342	1.000000	0.434669	7.36841e+06	-55739.1	955.819	-29741.1	0.000000	0.000000	6.434937	-0.055589	NaN	0.000000	0.001517	0.001718	28.0807	0.078654	0.001948	40.3787	-114.272	-162.67	-0.011164	0.433334	-0.640538	-0.641873	-0.055589	40.3787	-0.639505	-2.907358E+8	1.912003E-10	NaN
342	1.000000	0.442651	7.36841e+06	-55739.1	955.818	-29741.1	0.000000	0.000000	6.442920	-0.014375	NaN	0.000000	0.001562	0.001691	28.0808	0.053642	0.001947	27.5551	-1.433563	-166.055	-0.005769	0.441353	-0.632556	-0.633854	-0.014375	27.5551	-0.632165	-2.305413E+8	6.235486E-11	NaN
342	1.000000	0.450662	7.36841e+06	-55739.1	955.819	-29741.1	0.000000	0.000000	6.450935	0.067149	NaN	0.000000	0.001532	0.001744	28.0809	0.100088	0.001867	53.607	-95.8237	-163.856	0.101602	0.449278	-0.624545	-0.625929	0.067149	53.607	-0.625484	-1.866381E+8	-3.597816E-10	NaN
342	1.000000	0.458632	7.36841e+06	-55739.1	955.818	-29741.1	0.000000	0.000000	6.458901	-0.029277	NaN	0.000000	0.001538	0.001731	28.0813	0.039842	0.002093	19.0386	-88.4134	-165.773	-0.063518	0.457359	-0.616575	-0.617848	-0.029277	19.0386	-0.615421	-1.357326E+8	2.156993E-10	NaN
342	1.000000	0.466633	7.36841e+06	-55739.1	955.818	-29741.1	0.000000	0.000000	6.466904	0.024906	NaN	0.000000	0.001566	0.001732	28.0811	0.171648	0.001913	89.7255	61.201	-170.621	-0.052650	0.465385	-0.608574	-0.609822	0.024906	89.7255	-0.608782	-1.099905E+8	-2.264401E-10	NaN
342	1.000000	0.474645	7.36841e+06	-55739.1	955.819	-29741.1	0.000000	0.000000	6.474918	0.062877	NaN	0.000000	0.001590	0.001749	28.0811	0.076921	0.001894	40.6114	-155.312	-165.053	0.047303	0.473353	-0.600562	-0.601854	0.062877	40.6114	-0.601723	-8.794092E+7	-7.149963E-10	NaN
342	1.000000	0.482643	7.36841e+06	-55739.1	955.818	-29741.1	0.000000	0.000000	6.482915	0.048530	NaN	0.000000	0.001548	0.001708	28.081	0.045129	0.002076	21.7352	-68.6776	-166.611	0.016301	0.481377	-0.592564	-0.593830	0.048530	21.7352	-0.594239	-6.935736E+7	-6.997043E-10	NaN
342	1.000000	0.490675	7.36841e+06	-55739.1	955.818	-29741.1	0.000000	0.000000	6.490947	0.053266	NaN	0.000000	0.001526	0.001718	28.081	0.023400	0.002015	11.615	22.2778	-164.572	0.094612	0.489330	-0.584532	-0.585877	0.053266	11.615	-0.587971	-5.684551E+7	-9.370249E-10	NaN
342	1.000000	0.498682	7.36841e+06	-55739.1	955.818	-29741.1	0.000000	0.000000	6.498955	0.072097	NaN	0.000000	0.001528	0.001699	28.081	0.070443	0.002100	33.5417	157.413	-164.637	0.074194	0.497364	-0.576525	-0.577843	0.072097	33.5417	-0.578137	-4.159263E+7	-1.733408E-9	NaN
342	1.000000	0.506646	7.36841e+06	-55739.1	955.819	-29741.1	0.000000	0.000000	6.506917	0.028960	NaN	0.000000	0.001539	0.001696	28.0813	0.029556	0.002036	14.5139	-126.878	-163.712	-0.009905	0.505348	-0.568561	-0.569859	0.028960	14.5139	-0.570058	-3.216826E+7	-9.002709E-10	NaN
342	1.000000	0.514666	7.36841e+06	-55739.1	955.818	-29741.1	0.000000	0.000000	6.514935	-0.021937	NaN	0.000000	0.001502	0.001695	28.0813	0.046414	0.002055	22.5859	-159.705	-165.85	0.007491	0.513374	-0.560541	-0.561833	-0.021937	22.5859	-0.559812	-2.321570E+7	9.449078E-10	NaN
342	1.000000	0.522657	7.36841e+06	-55739.1	955.818	-29741.1	0.000000	0.000000	6.522931	0.076233	NaN	0.000000	0.001513	0.001683	28.081	0.139023	0.002115	65.7391	-156.214	-166.292	0.058885	0.521372	-0.552549	-0.553835	0.076233	65.7391	-0.553419	-1.893671E+7	-4.025671E-9	NaN
342	1.000000	0.530656	7.36841e+06	-55739.1	955.819	-29741.1	0.000000	0.000000	6.530926	0.006918	NaN	0.000000	0.001500	0.001676	28.0797	0.076934	0.001925	39.9609	126.721	-164.208	-0.022886	0.529416	-0.544551	-0.545791	0.006918	39.9609	-0.544681	-1.433032E+7	-4.827741E-10	NaN
342	1.000000	0.538663	7.36841e+06	-55739.1	955.819	-29741.1	0.000000	0.000000	6.538931	-0.040630	NaN	0.000000	0.001513	0.001647	28.0798	0.097283	0.002078	46.8215	-120.99	-165.089	-0.070359	0.537362	-0.536544	-0.537845	-0.040630	46.8215	-0.535893	-1.082398E+7	3.753700E-9	NaN
342	1.000000	0.546665	7.36841e+06	-55739.1	955.818	-29741.1	0.000000	0.000000	6.546934	-0.024882	NaN	0.000000	0.001517	0.001694	28.0798	0.029284	0.002177	13.4543	157.666	-164.888	0.029388	0.545355	-0.528542	-0.529852	-0.024882	13.4543	-0.527155	-8.1856e+06	3.039711E-9	NaN
342	1.000000	0.554718	7.36841e+06	-55739.1	955.818	-29741.1	0.000000	0.000000	6.554989	0.024371	NaN	0.000000	0.001502	0.001642	28.0802	0.043046	0.001906	22.5846	-173.209	-163.672	-0.029122	0.553375	-0.520489	-0.521832	0.024371	22.5846	-0.521298	-6.78664e+06	-3.591054E-9	NaN
342	1.000000	0.562706	7.36841e+06	-55739.1	955.819	-29741.1	0.000000	0.000000	6.562978	0.043495	NaN	0.000000	0.001529	0.001703	28.0798	0.121189	0.002136	56.7265	8.619454	-163.626	0.023003	0.561373	-0.512501	-0.513834	0.043495	56.7265	-0.513076	-5.21496e+06	-8.340505E-9	NaN
342	1.000000	0.570698	7.36841e+06	-55739.1	955.818	-29741.1	0.000000	0.000000	6.570967	-0.025487	NaN	0.000000	0.001538	0.001682	28.0799	0.036031	0.002108	17.095	-127.682	-163.881	-0.007194	0.569350	-0.504509	-0.505857	-0.025487	17.095	-0.503390	-3.82213e+06	6.668211E-9	NaN
342	1.000000	0.578703	7.36841e+06	-55739.1	955.819	-29741.1	0.000000	0.000000	6.578972	-0.021977	NaN	0.000000	0.001553	0.001667	28.0796	0.060004	0.001935	31.0144	-175.594	-163.908	0.079788	0.577425	-0.496504	-0.497782	-0.021977	31.0144	-0.495972	-3.01167e+06	7.297395E-9	NaN
342	1.000000	0.586699	7.36841e+06	-55739.1	955.818	-29741.1	0.000000	0.000000	6.586965	-0.078631	NaN	0.000000	0.001570	0.001694	28.0796	0.083165	0.002101	39.5901	-138.819	-165.249	-0.071174	0.585415	-0.488508	-0.489792	-0.078631	39.5901	-0.487019	-2.25799e+06	3.482333E-8	NaN
342	1.000000	0.594700	7.36841e+06	-55739.1	955.818	-29741.1	0.000000	0.000000	6.594970	0.002401	NaN	0.000000	0.001608	0.001661	28.0798	0.064777	0.002032	31.8841	-166.793	-164.864	-0.018169	0.593394	-0.480507	-0.481813	0.002401	31.8841	-0.480563	-1.83405e+06	-1.308957E-9	NaN
342	1.000000	0.602706	7.36841e+06	-55739.1	955.818	-29741.1	0.000000	0.000000	6.602975	-0.026803	NaN	0.000000	0.001636	0.001738	28.0795	0.117280	0.002155	54.4292	-106.746	-166.364	-0.051345	0.601368	-0.472501	-0.473839	-0.026803	54.4292	-0.472132	-1.39733e+06	1.918142E-8	NaN
342	1.000000	0.610724	7.36841e+06	-55739.1	955.818	-29741.1	0.000000	0.000000	6.610997	0.071209	NaN	0.000000	0.001619	0.001643	28.08	0.076066	0.002080	36.5707	-157.839	-161.979	0.016779	0.609378	-0.464483	-0.465829	0.071209	36.5707	-0.465943	-1.14415e+06	-6.223718E-8	NaN
342	1.000000	0.618705	7.36841e+06	-55739.1	955.819	-29741.1	0.000000	0.000000	6.618974	-0.028067	NaN	0.000000	0.001584	0.001678	28.0797	0.033731	0.002045	16.4969	168.451	-166.587	0.035555	0.617372	-0.456502	-0.457835	-0.028067	16.4969	-0.455226	-808906	3.469707E-8	NaN
342	1.000000	0.626726	7.36841e+06	-55739.1	955.818	-29741.1	0.000000	0.000000	6.626994	-0.046781	NaN	0.000000	0.001552	0.001647	28.0798	0.076666	0.001887	40.6387	-148.194	-165.893	-0.003669	0.625388	-0.448481	-0.449819	-0.046781	40.6387	-0.447617	-632090	7.401024E-8	NaN
342	1.000000	0.634748	7.36841e+06	-55739.1	955.818	-29741.1	0.000000	0.000000	6.635017	-0.031242	NaN	0.000000	0.001569	0.001672	28.0798	0.024621	0.001873	13.1455	-109.161	-166.281	0.060626	0.633423	-0.440459	-0.441783	-0.031242	13.1455	-0.438677	-472808	6.607706E-8	NaN
342	1.000000	0.642764	7.36841e+06	-55739.1	955.818	-29741.1	0.000000	0.000000	6.643034	-0.002145	NaN	0.000000	0.001563	0.001675	28.0797	0.062972	0.002102	29.9576	93.8313	-165.462	-0.025486	0.641434	-0.432443	-0.433773	-0.002145	29.9576	-0.432389	-385345	5.566716E-9	NaN
342	1.000000	0.650785	7.36841e+06	-55739.1	955.819	-29741.1	0.000000	0.000000	6.651058	0.081643	NaN	0.000000	0.001561	0.001671	28.0801	0.045525	0.002074	21.9542	86.6309	-162.965	0.007412	0.649400	-0.424422	-0.425807	0.081643	21.9542	-0.427211	-325534	-2.507958E-7	NaN
342	1.000000	0.658727	7.36841e+06	-55739.1	955.818	-29741.1	0.000000	0.000000	6.658994	-0.067603	NaN	0.000000	0.001557	0.001646	28.0797	0.105985	0.002119	50.0224	86.5466	-163.918	0.017671	0.657454	-0.416480	-0.417753	-0.067603	50.0224	-0.415466	-221860	3.047084E-7	NaN
342	1.000000	0.666751	7.36841e+06	-55739.1	955.818	-29741.1	0.000000	0.000000	6.667022	0.018556	NaN	0.000000	0.001583	0.001705	28.0809	0.138369	0.001852	74.731	-9.501281	-166.337	0.085784	0.665414	-0.408456	-0.409793	0.018556	74.731	-0.408642	-177453	-1.045666E-7	NaN
342	1.000000	0.674763	7.36841e+06	-55739.1	955.819	-29741.1	0.000000	0.000000	6.675037	0.100819	NaN	0.000000	0.001557	0.001688	28.081	0.025063	0.001984	12.6306	-89.2513	-168.001	0.117442	0.673426	-0.400444	-0.401781	0.100819	12.6306	-0.406431	-165051	-6.108321E-7	NaN
342	1.000000	0.682746	7.36841e+06	-55739.1	955.819	-29741.1	0.000000	0.000000	6.683016	-0.007593	NaN	0.000000	0.001597	0.001683	28.081	0.048227	0.001893	25.4829	85.7459	-165.285	0.076825	0.681417	-0.392461	-0.393790	-0.007593	25.4829	-0.392237	-103552	7.332850E-8	NaN
342	1.000000	0.690738	7.36841e+06	-55739.1	955.818	-29741.1	0.000000	0.000000	6.691007	-0.026835	NaN	0.000000	0.001571	0.001683	28.0811	0.046955	0.001826	25.7142	-51.4121	-166.328	-0.004610	0.689458	-0.384468	-0.385749	-0.026835	25.7142	-0.383686	-78118.4	3.435141E-7	NaN
342	1.000000	0.698757	7.36841e+06	-55739.1	955.819	-29741.1	0.000000	0.000000	6.699027	-0.004385	NaN	0.000000	0.001626	0.001639	28.081	0.040492	0.001905	21.2559	150.029	-167.745	-0.011473	0.697413	-0.376450	-0.377794	-0.004385	21.2559	-0.376295	-61190.6	7.165948E-8	NaN
342	1.000000	0.706774	7.36841e+06	-55739.1	955.818	-29741.1	0.000000	0.000000	6.707045	0.022474	NaN	0.000000	0.001610	0.001640	28.0813	0.135485	0.002017	67.1616	89.3714	-162.908	-0.023465	0.705400	-0.368433	-0.369807	0.022474	67.1616	-0.368684	-47551.9	-4.726162E-7	NaN
342	1.000000	0.714754	7.36841e+06	-55739.1	955.819	-29741.1	0.000000	0.000000	6.715024	-0.003751	NaN	0.000000	0.001594	0.001651	28.0812	0.090982	0.001884	48.2809	-40.4489	-166.11	-0.011028	0.713446	-0.360453	-0.361761	-0.003751	48.2809	-0.360395	-36103.5	1.038892E-7	NaN
342	1.000000	0.722771	7.36841e+06	-55739.1	955.818	-29741.1	0.000000	0.000000	6.723038	-0.080575	NaN	0.000000	0.001597	0.001662	28.0809	0.015661	0.002148	7.290152	2.865010	-163.33	-0.045967	0.721415	-0.352436	-0.353792	-0.080575	7.290152	-0.344146	-20986.3	3.839392E-6	NaN
342	1.000000	0.730790	7.36841e+06	-55739.1	955.818	-29741.1	0.000000	0.000000	6.731059	-0.008281	NaN	0.000000	0.001594	0.001640	28.0809	0.047262	0.002078	22.7472	-88.4369	-168.305	-0.014826	0.729448	-0.344417	-0.345759	-0.008281	22.7472	-0.344144	-20985	3.946004E-7	NaN
342	1.000000	0.738763	7.36841e+06	-55739.1	955.818	-29741.1	0.000000	0.000000	6.739030	-0.060350	NaN	0.000000	0.001619	0.001679	28.081	0.089388	0.001990	44.9274	40.2384	-167.979	-0.062979	0.737476	-0.336444	-0.337731	-0.060350	44.9274	-0.335437	-15666.4	3.852199E-6	NaN
342	1.000000	0.746772	7.36841e+06	-55739.1	955.818	-29741.1	0.000000	0.000000	6.747040	-0.065297	NaN	0.000000	0.001619	0.001659	28.0816	0.040059	0.002065	19.403	-12.0108	-163.965	0.006022	0.745420	-0.328434	-0.329787	-0.065297	19.403	-0.325910	-11363.2	5.746349E-6	NaN
342	1.000000	0.754751	7.36841e+06	-55739.1	955.819	-29741.1	0.000000	0.000000	6.755022	0.023013	NaN	0.000000	0.001618	0.001674	28.0811	0.058481	0.001987	29.425	-12.6918	-167.486	0.055668	0.753471	-0.320456	-0.321735	0.023013	29.425	-0.321043	-9637.83	-2.387740E-6	NaN
342	1.000000	0.762777	7.36841e+06	-55739.1	955.818	-29741.1	0.000000	0.000000	6.763046	-0.030683	NaN	0.000000	0.001552	0.001691	28.081	0.076254	0.001936	39.3909	-45.8675	-164.374	-0.012957	0.761494	-0.312430	-0.313713	-0.030683	39.3909	-0.311846	-7052.73	4.350464E-6	NaN
342	1.000000	0.770757	7.36841e+06	-55739.1	955.818	-29741.1	0.000000	0.000000	6.771026	-0.036295	NaN	0.000000	0.001609	0.001668	28.0811	0.013608	0.002055	6.622051	-94.3322	-168.453	-0.047996	0.769488	-0.304449	-0.305719	-0.036295	6.622051	-0.300339	-4760.78	7.623851E-6	NaN
342	1.000000	0.778783	7.36841e+06	-55739.1	955.818	-29741.1	0.000000	0.000000	6.779052	-0.013574	NaN	0.000000	0.001638	0.001646	28.0812	0.030979	0.002157	14.3608	-70.2375	-165.859	0.033923	0.777459	-0.296424	-0.297748	-0.013574	14.3608	-0.295715	-4062.27	3.341456E-6	NaN
342	1.000000	0.786771	7.36841e+06	-55739.1	955.818	-29741.1	0.000000	0.000000	6.787040	-0.015484	NaN	0.000000	0.001611	0.001707	28.0813	0.058877	0.002077	28.3536	-172.662	-163.731	-0.001425	0.785482	-0.288436	-0.289725	-0.015484	28.3536	-0.288027	-3116.88	4.967722E-6	NaN
342	1.000000	0.794782	7.36841e+06	-55739.1	955.818	-29741.1	0.000000	0.000000	6.795051	-0.013565	NaN	0.000000	0.001598	0.001730	28.0813	0.016762	0.001969	8.515046	136.883	-165.725	-0.023100	0.793491	-0.280425	-0.281716	-0.013565	8.515046	-0.279230	-2298.02	5.902785E-6	NaN
342	1.000000	0.802790	7.36841e+06	-55739.1	955.819	-29741.1	0.000000	0.000000	6.803061	0.020867	NaN	0.000000	0.001604	0.001665	28.0803	0.064052	0.002081	30.7836	108.487	-167.516	-0.046100	0.801471	-0.272417	-0.273736	0.020867	30.7836	-0.272925	-1844.84	-1.131119E-5	NaN
342	1.000000	0.810772	7.36841e+06	-55739.1	955.818	-29741.1	0.000000	0.000000	6.811043	0.022771	NaN	0.000000	0.001647	0.001674	28.0799	0.094146	0.001973	47.7181	86.0411	-165.29	-0.091378	0.809490	-0.264435	-0.265717	0.022771	47.7181	-0.264793	-1387.46	-1.641170E-5	NaN
342	1.000000	0.818811	7.36841e+06	-55739.1	955.818	-29741.1	0.000000	0.000000	6.819081	-0.009305	NaN	0.000000	0.001603	0.001679	28.0801	0.074779	0.001955	38.2534	-62.2055	-162.868	0.069546	0.817475	-0.256396	-0.257732	-0.009305	38.2534	-0.256214	-1025.15	9.077108E-6	NaN
342	1.000000	0.826824	7.36841e+06	-55739.1	955.818	-29741.1	0.000000	0.000000	6.827097	0.076310	NaN	0.000000	0.001597	0.001704	28.0799	0.034033	0.001940	17.5453	-4.019103	-166.744	-0.006970	0.825460	-0.248383	-0.249747	0.076310	17.5453	-0.251645	-871.751	-8.753652E-5	NaN
342	1.000000	0.834804	7.36841e+06	-55739.1	955.817	-29741.1	0.000000	0.000000	6.835071	-0.079222	NaN	0.000000	0.001620	0.001674	28.08	0.024977	0.002036	12.2673	109.86	-163.165	-0.020348	0.833538	-0.240403	-0.241668	-0.079222	12.2673	-0.235560	-489.817	0.000162	NaN
342	1.000000	0.842818	7.36841e+06	-55739.1	955.819	-29741.1	0.000000	0.000000	6.843089	0.023724	NaN	0.000000	0.001596	0.001676	28.0802	0.015061	0.001928	7.813677	165.422	-164.926	0.007850	0.841514	-0.232389	-0.233693	0.023724	7.813677	-0.234667	-474.254	-5.002364E-5	NaN
342	1.000000	0.850802	7.36841e+06	-55739.1	955.818	-29741.1	0.000000	0.000000	6.851070	-0.051815	NaN	0.000000	0.001653	0.001662	28.08	0.076875	0.002010	38.2529	140.476	-166.184	-0.056009	0.849506	-0.224405	-0.225701	-0.051815	38.2529	-0.223389	-314.577	0.000165	NaN
342	1.000000	0.858826	7.36841e+06	-55739.1	955.817	-29741.1	0.000000	0.000000	6.859095	-0.017909	NaN	0.000000	0.001612	0.001656	28.0804	0.042971	0.002027	21.2022	121.373	-167.99	-0.080123	0.857556	-0.216381	-0.217651	-0.017909	21.2022	-0.215748	-237.431	7.542953E-5	NaN
342	1.000000	0.866815	7.36841e+06	-55739.1	955.818	-29741.1	0.000000	0.000000	6.867088	0.049715	NaN	0.000000	0.001626	0.001690	28.08	0.072412	0.002113	34.2756	149.767	-163.133	0.080021	0.865478	-0.208392	-0.209729	0.049715	34.2756	-0.209479	-188.098	-0.000264	NaN
342	1.000000	0.874828	7.36841e+06	-55739.1	955.818	-29741.1	0.000000	0.000000	6.875098	0.015177	NaN	0.000000	0.001643	0.001686	28.0803	0.059562	0.001902	31.3146	60.3206	-166.344	0.052215	0.873509	-0.200379	-0.201698	0.015177	31.3146	-0.200743	-135.488	-0.000112	NaN
342	1.000000	0.882838	7.36841e+06	-55739.1	955.818	-29741.1	0.000000	0.000000	6.883109	0.033315	NaN	0.000000	0.001614	0.001690	28.0803	0.143198	0.001968	72.7487	-169.101	-162.42	0.026240	0.881539	-0.192369	-0.193668	0.033315	72.7487	-0.192713	-99.8257	-0.000334	NaN
342	1.000000	0.890839	7.36841e+06	-55739.1	955.818	-29741.1	0.000000	0.000000	6.891111	0.068872	NaN	0.000000	0.001619	0.001645	28.08	0.084564	0.001932	43.7768	-106.868	-161.151	0.116171	0.889507	-0.184368	-0.185700	0.068872	43.7768	-0.185548	-75.7478	-0.000909	NaN
342	1.000000	0.898845	7.36841e+06	-55739.1	955.818	-29741.1	0.000000	0.000000	6.899115	-0.008806	NaN	0.000000	0.001654	0.001642	28.0804	0.038959	0.002051	18.9938	133.532	-166.31	-0.023342	0.897564	-0.176362	-0.177643	-0.008806	18.9938	-0.176014	-52.1663	0.000169	NaN
342	1.000000	0.906834	7.36841e+06	-55739.1	955.819	-29741.1	0.000000	0.000000	6.907107	0.061424	NaN	0.000000	0.001613	0.001678	28.0801	0.095001	0.001862	51.0232	-90.3524	-164.199	0.068764	0.905537	-0.168373	-0.169670	0.061424	51.0232	-0.169275	-39.9045	-0.001539	NaN
342	1.000000	0.914823	7.36841e+06	-55739.1	955.819	-29741.1	0.000000	0.000000	6.915092	-0.031962	NaN	0.000000	0.001628	0.001646	28.0802	0.071103	0.001873	37.9654	5.947242	-164.965	-0.056289	0.913530	-0.160384	-0.161677	-0.031962	37.9654	-0.159752	-27.1384	0.001178	NaN
342	1.000000	0.922836	7.36841e+06	-55739.1	955.818	-29741.1	0.000000	0.000000	6.923105	-0.026817	NaN	0.000000	0.001610	0.001650	28.0802	0.126548	0.001977	64.026	-82.429	-166.839	-0.008535	0.921565	-0.152371	-0.153642	-0.026817	64.026	-0.152057	-19.7432	0.001358	NaN
342	1.000000	0.930864	7.36841e+06	-55739.1	955.818	-29741.1	0.000000	0.000000	6.931133	-0.020905	NaN	0.000000	0.001541	0.001683	28.0801	0.025285	0.001909	13.2432	-155.048	-166.862	0.003751	0.929571	-0.144343	-0.145636	-0.020905	13.2432	-0.143159	-13.5522	0.001543	NaN
342	1.000000	0.938867	7.36841e+06	-55739.1	955.818	-29741.1	0.000000	0.000000	6.939142	0.102715	NaN	0.000000	0.001586	0.001674	28.0812	0.127848	0.002082	61.3951	-80.1548	-165.897	-0.017051	0.937489	-0.136340	-0.137718	0.102715	61.3951	-0.137594	-10.6564	-0.009639	NaN
342	1.000000	0.946842	7.36841e+06	-55739.1	955.819	-29741.1	0.000000	0.000000	6.947112	0.009378	NaN	0.000000	0.001583	0.001676	28.0812	0.047044	0.002005	23.4626	-70.7754	-164.839	0.039665	0.945515	-0.128365	-0.129692	0.009378	23.4626	-0.128665	-7.178245	-0.001306	NaN
342	1.000000	0.954858	7.36841e+06	-55739.1	955.818	-29741.1	0.000000	0.000000	6.955128	0.012748	NaN	0.000000	0.001595	0.001669	28.0814	0.059494	0.001897	31.3681	-83.0651	-166.314	0.006830	0.953556	-0.120349	-0.121651	0.012748	31.3681	-0.120654	-4.980399	-0.002560	NaN
342	1.000000	0.962827	7.36841e+06	-55739.1	955.818	-29741.1	0.000000	0.000000	6.963093	-0.091482	NaN	0.000000	0.001560	0.001664	28.0814	0.093967	0.002138	43.9533	-7.039032	-164.319	0.047496	0.961576	-0.112380	-0.113631	-0.091482	43.9533	-0.110819	-3.126839	0.029257	NaN
342	1.000000	0.970882	7.36841e+06	-55739.1	955.819	-29741.1	0.000000	0.000000	6.971151	-0.029163	NaN	0.000000	0.001566	0.001686	28.0813	0.020561	0.002126	9.673133	23.9956	-165.224	0.055156	0.969526	-0.104325	-0.105681	-0.029163	9.673133	-0.102063	-2.028924	0.014374	NaN
342	1.000000	0.978877	7.36841e+06	-55739.1	955.819	-29741.1	0.000000	0.000000	6.979149	0.045050	NaN	0.000000	0.001541	0.001673	28.0818	0.036914	0.001883	19.6019	-55.1712	-165.71	0.082161	0.977512	-0.096330	-0.097695	0.045050	19.6019	-0.098054	-1.653524	-0.027245	NaN
342	1.000000	0.986875	7.36841e+06	-55739.1	955.819	-29741.1	0.000000	0.000000	6.987145	-0.017310	NaN	0.000000	0.001538	0.001678	28.0814	0.028616	0.001977	14.4751	44.5315	-165.443	-0.009636	0.985536	-0.088332	-0.089671	-0.017310	14.4751	-0.087435	-0.940056	0.018414	NaN
342	1.000000	0.994871	7.36841e+06	-55739.1	955.819	-29741.1	0.000000	0.000000	6.995140	-0.043698	NaN	0.000000	0.001531	0.001696	28.0815	0.043858	0.001843	23.8017	132.747	-164.314	-0.112481	0.993588	-0.080335	-0.081618	-0.043698	23.8017	-0.078958	-0.582842	0.074974	NaN
342	1.000000	1.002862	7.36841e+06	-55739.1	955.819	-29741.1	0.000000	0.000000	7.003131	-0.024797	NaN	0.000000	0.001554	0.001680	28.0814	0.064998	0.002075	31.3227	21.0792	-163.657	-0.133067	1.001598	-0.072345	-0.073609	-0.024797	31.3227	-0.071751	-0.379769	0.065296	NaN
342	1.000000	1.010900	7.36841e+06	-55739.1	955.82	-29741.1	0.000000	0.000000	7.011170	0.011686	NaN	0.000000	0.001631	0.001699	28.0812	0.023979	0.001962	12.2194	9.687223	-165.867	0.054516	1.009552	-0.064307	-0.065655	0.011686	12.2194	-0.065024	-0.249603	-0.046819	NaN
342	1.000000	1.018908	7.36841e+06	-55739.1	955.819	-29741.1	0.000000	0.000000	7.019177	-0.029130	NaN	0.000000	0.001646	0.001702	28.0814	0.101120	0.002068	48.8897	-100.165	-165.18	0.013647	1.017580	-0.056299	-0.057627	-0.029130	48.8897	-0.055852	-0.136447	0.213490	NaN
342	1.000000	1.026856	7.36841e+06	-55739.1	955.819	-29741.1	0.000000	0.000000	7.027127	0.035850	NaN	0.000000	0.001638	0.001709	28.0813	0.052436	0.002021	25.9391	152.55	-166.544	0.008987	1.025525	-0.048351	-0.049682	0.035850	25.9391	-0.049388	-0.087437	-0.410007	NaN
342	1.000000	1.034876	7.36841e+06	-55739.1	955.818	-29741.1	0.000000	0.000000	7.035147	0.011546	NaN	0.000000	0.001620	0.001698	28.0814	0.058494	0.001991	29.3755	-164.477	-168.939	0.062017	1.033610	-0.040330	-0.041597	0.011546	29.3755	-0.040625	-0.047245	-0.244386	NaN
342	1.000000	1.042880	7.36841e+06	-55739.1	955.819	-29741.1	0.000000	0.000000	7.043146	-0.108549	NaN	0.000000	0.001620	0.001693	28.0812	0.060754	0.001913	31.7516	35.7165	-163.661	-0.040635	1.041603	-0.032327	-0.033604	-0.108549	31.7516	-0.029763	-0.022666	4.789179	NaN
342	1.000000	1.050903	7.36841e+06	-55739.1	955.82	-29741.1	0.000000	0.000000	7.051174	0.015516	NaN	0.000000	0.001646	0.001708	28.0814	0.126762	0.001960	64.6668	-1.259593	-166.828	-0.050260	1.049634	-0.024304	-0.025573	0.015516	64.6668	-0.024483	-0.016356	-0.948672	NaN
342	1.000000	1.058913	7.36841e+06	-55739.1	955.82	-29741.1	0.000000	0.000000	7.059181	-0.038038	NaN	0.000000	0.001587	0.001708	28.0813	0.080509	0.002078	38.7483	-158.083	-166.988	-0.041353	1.057561	-0.016294	-0.017646	-0.038038	38.7483	-0.015558	-0.009612	3.957258	NaN
342	1.000000	1.066909	7.36841e+06	-55739.1	955.819	-29741.1	0.000000	0.000000	7.067177	-0.058035	NaN	0.000000	0.001570	0.001701	28.0813	0.051816	0.002132	24.2983	138.714	-162.853	-0.030969	1.065543	-0.008298	-0.009664	-0.058035	24.2983	-0.006506	-0.004344	13.3597	NaN
342	1.000000	1.074888	7.36841e+06	-55739.1	955.819	-29741.1	0.000000	0.000000	7.075161	0.063969	NaN	0.000000	0.001602	0.001738	28.0809	0.198965	0.001935	102.807	22.919	-167.892	0.067919	1.073609	-0.000319	-0.001598	0.063969	102.807	-0.000786	-0.000578	-110.614	NaN
342	1.000000	1.082849	7.36841e+06	-55739.1	955.819	-29741.1	0.000000	0.000000	7.083418	7.257480	NaN	0.000000	0.001592	0.001705	28.0799	6.704648	0.001663	4030.84	8.168548	-170.836	5.303710	1.081540	0.007642	0.006333	7.257480	4030.84	0.006292	0.005343	1358.2	50380
342	2.000000	1.086355	7.36841e+06	-55739.1	955.818	-29741.1	0.000000	0.000000	7.087124	12.1315	NaN	0.000000	0.001595	0.001692	28.08	10.0346	0.001580	6351.91	7.902259	-173.921	11.0501	1.086067	0.011148	0.010860	12.1315	6351.91	0.009715	0.008867	1368.21	61630.5
342	2.000000	1.088356	7.36841e+06	-55739.1	955.819	-29741.1	0.000000	0.000000	7.089239	14.8951	NaN	0.000000	0.001621	0.001701	28.08	13.2624	0.001772	7485.63	6.391634	-176.04	13.518	1.088029	0.013149	0.012822	14.8951	7485.63	0.011657	0.011082	1344.12	64967.8
342	2.000000	1.090339	7.36841e+06	-55739.1	955.818	-29741.1	0.000000	0.000000	7.091458	20.6269	NaN	0.000000	0.001619	0.001740	28.0801	15.2849	0.001777	8602.1	6.676844	-175.114	19.3703	1.090141	0.015132	0.014934	20.6269	8602.1	0.013334	0.013127	1571.32	68595.1
342	2.000000	1.092364	7.36841e+06	-55739.1	955.819	-29741.1	0.000000	0.000000	7.093658	24.9053	NaN	0.000000	0.001578	0.001702	28.0798	17.3425	0.001670	10387.7	4.536487	-175.861	24.0384	1.091976	0.017157	0.016769	24.9053	10387.7	0.015358	0.015766	1579.65	75583.6
342	2.000000	1.094301	7.36841e+06	-55739.1	955.819	-29741.1	0.000000	0.000000	7.095748	28.6053	NaN	0.000000	0.001635	0.001700	28.0803	20.3824	0.001755	11612.6	6.265386	-179.071	27.2227	1.094041	0.019094	0.018834	28.6053	11612.6	0.017247	0.018399	1554.68	78216.7
342	2.000000	1.096322	7.36841e+06	-55739.1	955.819	-29741.1	0.000000	0.000000	7.097871	31.1091	NaN	0.000000	0.001560	0.001762	28.0803	20.9466	0.001699	12330.6	1.561866	-173.934	29.5052	1.095945	0.021115	0.020738	31.1091	12330.6	0.019222	0.021335	1458.11	77127.2
342	2.000000	1.098266	7.36841e+06	-55739.1	955.818	-29741.1	0.000000	0.000000	7.100015	35.9395	NaN	0.000000	0.001551	0.001731	28.08	24.5483	0.001913	12835.6	8.557543	-179.724	35.3221	1.098077	0.023059	0.022870	35.9395	12835.6	0.020959	0.024072	1493.01	75585
342	2.000000	1.100336	7.36841e+06	-55739.1	955.82	-29741.1	0.000000	0.000000	7.102378	43.0678	NaN	0.000000	0.001529	0.001764	28.0802	26.1693	0.001752	14934	6.848226	178.814	41.8271	1.099967	0.025129	0.024760	43.0678	14934	0.022966	0.027419	1570.73	82399.3
342	2.000000	1.102257	7.36841e+06	-55739.1	955.818	-29741.1	0.000000	0.000000	7.104555	49.3058	NaN	0.000000	0.001562	0.001734	28.0807	27.9739	0.001919	14575.7	6.418380	-178.81	47.9949	1.101968	0.027050	0.026761	49.3058	14575.7	0.024513	0.030135	1636.15	76712.5
342	2.000000	1.104274	7.36841e+06	-55739.1	955.819	-29741.1	0.000000	0.000000	7.106718	52.825	NaN	0.000000	0.001560	0.001705	28.0799	29.0895	0.001657	17550.4	1.301980	-177.564	50.8821	1.104078	0.029068	0.028871	52.825	17550.4	0.026810	0.034391	1536.01	86464.2
342	2.000000	1.106257	7.36841e+06	-55739.1	955.819	-29741.1	0.000000	0.000000	7.109049	61.3126	NaN	0.000000	0.001602	0.001705	28.08	31.0461	0.001752	17718.6	5.502502	179.417	59.0379	1.106028	0.031050	0.030821	61.3126	17718.6	0.028455	0.037602	1630.59	83483.5
342	2.000000	1.108323	7.36841e+06	-55739.1	955.818	-29741.1	0.000000	0.000000	7.111339	66.7491	NaN	0.000000	0.001597	0.001719	28.08	33.9424	0.001787	18988.9	3.759051	-179.658	68.6051	1.108014	0.033116	0.032807	66.7491	18988.9	0.030479	0.041743	1599.05	84914.2
342	2.000000	1.110300	7.36841e+06	-55739.1	955.818	-29741.1	0.000000	0.000000	7.113654	74.9523	NaN	0.000000	0.001601	0.001733	28.0802	36.647	0.001861	19694.8	4.559599	179.792	73.4475	1.110015	0.035094	0.034808	74.9523	19694.8	0.032239	0.045513	1646.84	84344.7
342	2.000000	1.112322	7.36841e+06	-55739.1	955.819	-29741.1	0.000000	0.000000	7.115915	80.7699	NaN	0.000000	0.001597	0.001708	28.0804	37.8518	0.001733	21842.6	5.439247	176.884	82.0225	1.111991	0.037115	0.036784	80.7699	21842.6	0.034341	0.050224	1608.2	89047.7
342	2.000000	1.114279	7.36841e+06	-55739.1	955.82	-29741.1	0.000000	0.000000	7.118029	84.5981	NaN	0.000000	0.001590	0.001701	28.08	41.4852	0.001916	21657.1	8.626103	174.613	85.1128	1.114005	0.039072	0.038798	84.5981	21657.1	0.036142	0.054439	1553.99	84804.2
342	2.000000	1.116294	7.36841e+06	-55739.1	955.82	-29741.1	0.000000	0.000000	7.120612	98.3923	NaN	0.000000	0.001606	0.001709	28.0804	41.9925	0.001827	22982.3	8.638988	174.048	98.3529	1.115894	0.041087	0.040687	98.3923	22982.3	0.037876	0.058654	1677.49	86699.3
342	2.000000	1.118275	7.36841e+06	-55739.1	955.819	-29741.1	0.000000	0.000000	7.122866	105.049	NaN	0.000000	0.001620	0.001688	28.0814	45.2319	0.001930	23431.5	7.790163	175.436	104.21	1.117937	0.043068	0.042730	105.049	23431.5	0.039705	0.063269	1660.36	85109.5
342	2.000000	1.120265	7.36841e+06	-55739.1	955.819	-29741.1	0.000000	0.000000	7.125261	114.863	NaN	0.000000	0.001607	0.001719	28.0814	45.9519	0.001735	26491.8	7.607275	173.408	114.329	1.119916	0.045058	0.044709	114.863	26491.8	0.041807	0.068780	1669.99	92289.4
342	2.000000	1.122258	7.36841e+06	-55739.1	955.819	-29741.1	0.000000	0.000000	7.127569	122.546	NaN	0.000000	0.001657	0.001707	28.0813	47.1043	0.001731	27211.4	3.658779	178.91	120.627	1.121913	0.047051	0.046706	122.546	27211.4	0.043673	0.073865	1659.05	91475.2
342	2.000000	1.124227	7.36841e+06	-55739.1	955.819	-29741.1	0.000000	0.000000	7.129672	125.792	NaN	0.000000	0.001550	0.001687	28.0814	49.529	0.001811	27348.6	-0.714466	-179.059	122.838	1.124049	0.049020	0.048842	125.792	27348.6	0.045570	0.079214	1588	88778.3
342	2.000000	1.126234	7.36841e+06	-55739.1	955.82	-29741.1	0.000000	0.000000	7.132351	142.135	NaN	0.000000	0.001640	0.001728	28.0814	51.3312	0.001847	27789.9	3.577735	177.664	139.573	1.125861	0.051027	0.050654	142.135	27789.9	0.047191	0.083929	1693.52	87640.3
342	2.000000	1.128236	7.36841e+06	-55739.1	955.82	-29741.1	0.000000	0.000000	7.134867	154.617	NaN	0.000000	0.001663	0.001720	28.0813	53.245	0.001807	29467.8	5.147629	174.652	151.833	1.127882	0.053029	0.052676	154.617	29467.8	0.049094	0.089633	1725	89926.4
342	2.000000	1.130275	7.36841e+06	-55739.1	955.819	-29741.1	0.000000	0.000000	7.137252	163.039	NaN	0.000000	0.001648	0.001705	28.0815	55.2539	0.001853	29820.7	5.251111	175.503	162.521	1.129970	0.055068	0.054763	163.039	29820.7	0.050968	0.095427	1708.51	88197.2
342	2.000000	1.132300	7.36841e+06	-55739.1	955.819	-29741.1	0.000000	0.000000	7.139756	174.665	NaN	0.000000	0.001634	0.001736	28.0814	56.2983	0.001783	31568.9	6.798313	174.336	175.744	1.131947	0.057093	0.056740	174.665	31568.9	0.052943	0.101728	1716.99	90430
342	2.000000	1.134260	7.36841e+06	-55739.1	955.82	-29741.1	0.000000	0.000000	7.141984	181.18	NaN	0.000000	0.001604	0.001746	28.0816	59.7888	0.001643	36398.6	6.444465	171.716	182.864	1.133969	0.059054	0.058762	181.18	36398.6	0.055320	0.109564	1653.64	100467
342	2.000000	1.136134	7.36841e+06	-55739.1	955.819	-29741.1	0.000000	0.000000	7.144608	199.414	NaN	0.000000	0.001651	0.001704	28.0816	59.7351	0.001726	34617.1	4.432298	174.954	193.901	1.135900	0.060927	0.060693	199.414	34617.1	0.056607	0.113923	1750.43	93704
342	2.000000	1.138222	7.36841e+06	-55739.1	955.819	-29741.1	0.000000	0.000000	7.147084	208.849	NaN	0.000000	0.001608	0.001718	28.0812	64.1215	0.001841	34824.5	6.254013	173.702	207.278	1.137759	0.063015	0.062553	208.849	34824.5	0.058517	0.120546	1732.53	91639.3
342	2.000000	1.140248	7.36841e+06	-55739.1	955.819	-29741.1	0.000000	0.000000	7.149544	219.411	NaN	0.000000	0.001617	0.001726	28.0813	66.6718	0.001790	37243	7.843172	170.72	217.534	1.139859	0.065041	0.064652	219.411	37243	0.060622	0.128050	1713.49	95088.6
342	2.000000	1.142209	7.36841e+06	-55739.1	955.819	-29741.1	0.000000	0.000000	7.151927	229.671	NaN	0.000000	0.001576	0.001707	28.0813	68.1817	0.001760	38740.9	4.549399	173.485	229.744	1.141933	0.067002	0.066726	229.671	38740.9	0.062555	0.135131	1699.62	96286.5
342	2.000000	1.144230	7.36841e+06	-55739.1	955.819	-29741.1	0.000000	0.000000	7.154451	241.881	NaN	0.000000	0.001593	0.001760	28.0813	69.817	0.001743	40056.5	2.145637	175.572	240.622	1.143977	0.069023	0.068770	241.881	40056.5	0.064495	0.142417	1698.4	96976.3
342	2.000000	1.146292	7.36841e+06	-55739.1	955.819	-29741.1	0.000000	0.000000	7.157107	256.339	NaN	0.000000	0.001601	0.001762	28.0817	70.6762	0.001729	40876.9	1.878916	176.393	259.605	1.145869	0.071085	0.070662	256.339	40876.9	0.066382	0.149681	1712.57	96531.4
342	2.000000	1.148250	7.36841e+06	-55739.1	955.819	-29741.1	0.000000	0.000000	7.159814	274.519	NaN	0.000000	0.001601	0.001703	28.0814	72.8821	0.001744	41787.7	5.190751	173.135	274.75	1.147846	0.073043	0.072639	274.519	41787.7	0.068116	0.156510	1754.01	96505.3
342	2.000000	1.150254	7.36841e+06	-55739.1	955.819	-29741.1	0.000000	0.000000	7.162070	280.648	NaN	0.000000	0.001590	0.001721	28.081	76.0555	0.001845	41213.6	4.796841	172.897	280.637	1.149911	0.075047	0.074704	280.648	41213.6	0.069940	0.163844	1712.9	93024.7
342	2.000000	1.152242	7.36841e+06	-55739.1	955.819	-29741.1	0.000000	0.000000	7.164702	296.324	NaN	0.000000	0.001597	0.001720	28.0801	77.6163	0.001816	42732.3	8.814697	168.96	297.558	1.151873	0.077035	0.076666	296.324	42732.3	0.071834	0.171628	1726.54	94239.9
342	2.000000	1.154234	7.36841e+06	-55739.1	955.818	-29741.1	0.000000	0.000000	7.167206	308.754	NaN	0.000000	0.001592	0.001741	28.0801	79.6834	0.001776	44861.4	2.918643	173.983	308.132	1.153916	0.079027	0.078709	308.754	44861.4	0.073865	0.180165	1713.73	96563
342	2.000000	1.156314	7.36841e+06	-55739.1	955.819	-29741.1	0.000000	0.000000	7.169803	321.337	NaN	0.000000	0.001601	0.001724	28.0801	79.8346	0.001733	46062.6	4.551570	173.004	326.634	1.156001	0.081107	0.080794	321.337	46062.6	0.075875	0.188803	1701.97	96853.9
342	2.000000	1.158281	7.36841e+06	-55739.1	955.82	-29741.1	0.000000	0.000000	7.172447	337.792	NaN	0.000000	0.001643	0.001716	28.0802	83.9336	0.001805	46487.8	10.7149	166.902	339.742	1.157789	0.083074	0.082582	337.792	46487.8	0.077624	0.196477	1719.24	95819.8
342	2.000000	1.160231	7.36841e+06	-55739.1	955.819	-29741.1	0.000000	0.000000	7.174782	347.127	NaN	0.000000	0.001629	0.001745	28.08	84.9854	0.001754	48461.7	5.855495	170.358	344.613	1.159947	0.085024	0.084740	347.127	48461.7	0.079652	0.205553	1688.75	97658.5
342	2.000000	1.162149	7.36841e+06	-55739.1	955.819	-29741.1	0.000000	0.000000	7.177337	362.615	NaN	0.000000	0.001558	0.001758	28.0801	86.3097	0.001797	48027.6	1.907943	174.814	359.444	1.161896	0.086942	0.086689	362.615	48027.6	0.081280	0.212975	1702.62	95082.5
342	2.000000	1.164279	7.36841e+06	-55739.1	955.819	-29741.1	0.000000	0.000000	7.179693	368.112	NaN	0.000000	0.001575	0.001742	28.0799	89.4421	0.001846	48447.1	6.706201	169.665	369.19	1.164062	0.089072	0.088855	368.112	48447.1	0.083373	0.222703	1652.93	93794.7
342	2.000000	1.166170	7.36841e+06	-55739.1	955.818	-29741.1	0.000000	0.000000	7.182568	392.04	NaN	0.000000	0.001552	0.001741	28.0802	89.1164	0.001866	47765.7	1.801377	174.833	388.169	1.165961	0.090963	0.090754	392.04	47765.7	0.084808	0.229485	1708.35	91098.8
342	2.000000	1.168045	7.36841e+06	-55739.1	955.819	-29741.1	0.000000	0.000000	7.184811	400.967	NaN	0.000000	0.001552	0.001709	28.0805	91.291	0.001814	50317.5	1.738041	174.659	391.153	1.167880	0.092838	0.092673	400.967	50317.5	0.086862	0.239364	1675.14	93964.3
342	2.000000	1.170158	7.36841e+06	-55739.1	955.82	-29741.1	0.000000	0.000000	7.188036	428.004	NaN	0.000000	0.001545	0.001748	28.0803	92.3538	0.001780	51886.9	0.682541	175.746	422.378	1.169788	0.094951	0.094581	428.004	51886.9	0.088764	0.248686	1721.06	95061.6
342	2.000000	1.172207	7.36841e+06	-55739.1	955.82	-29741.1	0.000000	0.000000	7.190467	437.317	NaN	0.000000	0.001547	0.001734	28.08	94.8369	0.001830	51817.2	3.873226	172.466	436.283	1.171767	0.097000	0.096560	437.317	51817.2	0.090670	0.258190	1693.78	93170.2
342	2.000000	1.174126	7.36841e+06	-55739.1	955.819	-29741.1	0.000000	0.000000	7.192747	446.08	NaN	0.000000	0.001578	0.001769	28.0799	97.2169	0.001748	55624.1	1.672930	173.732	440.884	1.173928	0.098919	0.098721	446.08	55624.1	0.092904	0.269544	1654.94	97886.2
342	2.000000	1.176265	7.36841e+06	-55739.1	955.819	-29741.1	0.000000	0.000000	7.195790	468.038	NaN	0.000000	0.001578	0.001740	28.0801	98.3127	0.001658	59303.8	4.730582	170.642	471.772	1.175858	0.101058	0.100651	468.038	59303.8	0.095139	0.281132	1664.84	102188
342	2.000000	1.178109	7.36841e+06	-55739.1	955.819	-29741.1	0.000000	0.000000	7.198447	487.793	NaN	0.000000	0.001551	0.001740	28.0801	101.485	0.001725	58826.1	2.774797	172.52	482.253	1.177820	0.102903	0.102613	487.793	58826.1	0.096683	0.289271	1686.28	99928.7
342	2.000000	1.180166	7.36841e+06	-55739.1	955.819	-29741.1	0.000000	0.000000	7.201307	507.312	NaN	0.000000	0.001565	0.001760	28.0802	104.466	0.001722	60656.1	4.372851	171.17	503.911	1.179772	0.104960	0.104565	507.312	60656.1	0.098687	0.299992	1691.08	101180
342	2.000000	1.182059	7.36841e+06	-55739.1	955.82	-29741.1	0.000000	0.000000	7.203578	516.54	NaN	0.000000	0.001555	0.001690	28.0801	105.649	0.001780	59350.6	1.914634	173.026	508.738	1.181867	0.106852	0.106660	516.54	59350.6	0.100324	0.308891	1672.24	97565.4
342	2.000000	1.183237	7.36841e+06	-55739.1	955.82	-29741.1	0.000000	0.000000	7.205303	529.801	NaN	0.000000	0.001592	0.001696	28.0799	106.728	0.001652	64601	5.805228	169.255	533.027	1.182851	0.108030	0.107644	529.801	64601	0.101879	0.317455	1668.9	104754