File: remote_trans/data/nanoindenter/0828-1/data/Data_2025-08-06,11h17m57s/2025-07-22_16-23-58_1_730.txt
2025-07-22, 16:23:58, 1
Index	Phase	Displacement	Time	Pos X	Pos Y	Pos Z	Rot A	Rot B	Piezo Z	Force A	Force B	Gripper	Voltage A	Voltage B	Temperature	Amplitude force	Amplitude pos	Stiffness	Phase shift	Phase excitation	Force A raw	Displacement raw	HMax	HMax raw	Real Force	Real Stiffness	Contact Depth	Area	Hardness	Reduced Mod.
[#]	[#]	[um]	[s]	[um]	[um]	[um]	[m°]	[m°]	[um]	[uN]	[uN]	[V]	[V]	[V]	[°C]	[uN]	[um]	[N/m]	[°]	[°]	[uN]	[um]	[um]	[um]	[uN]	[N/m]	[um]	[um^2]	[MPa]	[MPa]
730	1.000000	0.002399	7.3722e+06	-40589.1	1005.82	-29789.5	0.000000	0.000000	6.002802	-0.015536	NaN	0.000000	0.001615	0.001706	28.0812	0.040865	0.000984	41.5223	125.19	-164.244	0.031866	0.001164	-1.022031	-1.023266	-0.015536	41.5223	-1.021750	-4.451466E+13	3.490171E-16	NaN
730	1.000000	0.010363	7.3722e+06	-40589.1	1005.82	-29789.5	0.000000	0.000000	6.010769	0.045968	NaN	0.000000	0.001674	0.001679	28.0808	0.053468	0.000936	57.1015	128.259	-167.59	-0.035563	0.009066	-1.014066	-1.015364	0.045968	57.1015	-1.014670	-3.574650E+13	-1.285943E-15	NaN
730	1.000000	0.018356	7.3722e+06	-40589.1	1005.82	-29789.5	0.000000	0.000000	6.018757	-0.069983	NaN	0.000000	0.001671	0.001712	28.081	0.065226	0.001763	36.9981	-47.7286	-164.561	-0.026427	0.017058	-1.006073	-1.007372	-0.069983	36.9981	-1.004655	-2.620798E+13	2.670289E-15	NaN
730	1.000000	0.026379	7.3722e+06	-40589.1	1005.82	-29789.5	0.000000	0.000000	6.026782	-0.016443	NaN	0.000000	0.001684	0.001717	28.081	0.219753	0.001958	112.255	29.3481	-166.577	-0.051917	0.025073	-0.998051	-0.999357	-0.016443	112.255	-0.997941	-2.128381E+13	7.725427E-16	NaN
730	1.000000	0.034346	7.3722e+06	-40589.1	1005.82	-29789.5	0.000000	0.000000	6.034748	-0.056746	NaN	0.000000	0.001667	0.001719	28.081	0.035597	0.001955	18.2037	178.287	-162.7	0.019829	0.033022	-0.990083	-0.991408	-0.056746	18.2037	-0.987745	-1.551483E+13	3.657558E-15	NaN
730	1.000000	0.042331	7.3722e+06	-40589.1	1005.82	-29789.5	0.000000	0.000000	6.042734	-0.042046	NaN	0.000000	0.001651	0.001695	28.081	0.083851	0.001791	46.8263	83.6813	-161.119	0.044147	0.041038	-0.982098	-0.983391	-0.042046	46.8263	-0.981425	-1.275289E+13	3.296939E-15	NaN
730	1.000000	0.050361	7.3722e+06	-40589.1	1005.82	-29789.5	0.000000	0.000000	6.050767	0.030058	NaN	0.000000	0.001697	0.001703	28.0809	0.048324	0.001970	24.5299	-149.787	-165.232	-0.066342	0.049041	-0.974068	-0.975389	0.030058	24.5299	-0.974987	-1.044414E+13	-2.877996E-15	NaN
730	1.000000	0.058350	7.3722e+06	-40589.1	1005.82	-29789.5	0.000000	0.000000	6.058752	-0.036454	NaN	0.000000	0.001626	0.001698	28.081	0.031232	0.001921	16.2544	139.966	-166.898	-0.020337	0.056999	-0.966080	-0.967430	-0.036454	16.2544	-0.964398	-7.518925E+12	4.848340E-15	NaN
730	1.000000	0.066381	7.3722e+06	-40589.1	1005.82	-29789.5	0.000000	0.000000	6.066783	-0.047939	NaN	0.000000	0.001596	0.001696	28.0808	0.064902	0.002061	31.4905	165.185	-165.28	-0.103832	0.065067	-0.958049	-0.959363	-0.047939	31.4905	-0.956907	-5.958935E+12	8.044821E-15	NaN
730	1.000000	0.074367	7.3722e+06	-40589.1	1005.82	-29789.5	0.000000	0.000000	6.074769	-0.065403	NaN	0.000000	0.001605	0.001671	28.0809	0.111485	0.001991	55.9862	-63.2211	-165.925	-0.046863	0.073087	-0.950062	-0.951342	-0.065403	55.9862	-0.949186	-4.688707E+12	1.394905E-14	NaN
730	1.000000	0.082372	7.3722e+06	-40589.1	1005.82	-29789.5	0.000000	0.000000	6.082775	-0.034236	NaN	0.000000	0.001647	0.001706	28.0809	0.028831	0.002005	14.3762	-97.0479	-167.048	0.024332	0.081085	-0.942057	-0.943345	-0.034236	14.3762	-0.940271	-3.554661E+12	9.631330E-15	NaN
730	1.000000	0.090355	7.3722e+06	-40589.1	1005.82	-29789.5	0.000000	0.000000	6.090757	-0.032763	NaN	0.000000	0.001627	0.001701	28.0813	0.037028	0.002120	17.4641	24.8282	-164.686	0.025270	0.089026	-0.934075	-0.935404	-0.032763	17.4641	-0.932668	-2.806747E+12	1.167309E-14	NaN
730	1.000000	0.098361	7.3722e+06	-40589.1	1005.82	-29789.5	0.000000	0.000000	6.098764	-0.023356	NaN	0.000000	0.001597	0.001710	28.0821	0.101206	0.002050	49.3799	91.8566	-166.805	-0.010912	0.097024	-0.926069	-0.927406	-0.023356	49.3799	-0.925714	-2.261241E+12	1.032880E-14	NaN
730	1.000000	0.106375	7.3722e+06	-40589.1	1005.82	-29789.5	0.000000	0.000000	6.106777	-0.041539	NaN	0.000000	0.001622	0.001683	28.0821	0.071192	0.002051	34.7185	-55.9758	-167.497	0.056169	0.105072	-0.918055	-0.919357	-0.041539	34.7185	-0.917158	-1.733131E+12	2.396748E-14	NaN
730	1.000000	0.114383	7.3722e+06	-40589.1	1005.82	-29789.5	0.000000	0.000000	6.114787	-0.003882	NaN	0.000000	0.001660	0.001680	28.0821	0.105427	0.001934	54.5161	176.037	-163.913	-0.036350	0.113019	-0.910046	-0.911411	-0.003882	54.5161	-0.909993	-1.386972E+12	2.799092E-15	NaN
730	1.000000	0.122379	7.3722e+06	-40589.1	1005.82	-29789.5	0.000000	0.000000	6.122780	-0.070238	NaN	0.000000	0.001606	0.001696	28.0822	0.055813	0.001974	28.2701	-165.398	-166.296	0.000394	0.121062	-0.902050	-0.903368	-0.070238	28.2701	-0.900187	-1.022333E+12	6.870347E-14	NaN
730	1.000000	0.130393	7.3722e+06	-40589.1	1005.82	-29789.5	0.000000	0.000000	6.130795	-0.056090	NaN	0.000000	0.001615	0.001699	28.0823	0.110546	0.001984	55.7142	-114.755	-165.72	-0.073401	0.129077	-0.894036	-0.895353	-0.056090	55.7142	-0.893281	-8.246500E+11	6.801623E-14	NaN
730	1.000000	0.138381	7.3722e+06	-40589.1	1005.82	-29789.5	0.000000	0.000000	6.138781	-0.093194	NaN	0.000000	0.001573	0.001693	28.0823	0.041013	0.001941	21.1305	172.328	-163.584	-0.048171	0.137064	-0.886049	-0.887366	-0.093194	21.1305	-0.882741	-5.939833E+11	1.568975E-13	NaN
730	1.000000	0.146399	7.3722e+06	-40589.1	1005.82	-29789.5	0.000000	0.000000	6.146804	0.024729	NaN	0.000000	0.001606	0.001683	28.082	0.034236	0.002078	16.4789	110.968	-167.139	-0.067489	0.145077	-0.878030	-0.879353	0.024729	16.4789	-0.879156	-5.312422E+11	-4.654953E-14	NaN
730	1.000000	0.154415	7.3722e+06	-40589.1	1005.82	-29789.5	0.000000	0.000000	6.154817	-0.049532	NaN	0.000000	0.001558	0.001682	28.0819	0.123563	0.002124	58.1818	61.5807	-161.908	-0.101274	0.153079	-0.870015	-0.871351	-0.049532	58.1818	-0.869376	-3.917437E+11	1.264393E-13	NaN
730	1.000000	0.162378	7.3722e+06	-40589.1	1005.82	-29789.5	0.000000	0.000000	6.162780	-0.033284	NaN	0.000000	0.001601	0.001730	28.0822	0.083741	0.002006	41.7431	-109.993	-166.254	-0.008865	0.161106	-0.862052	-0.863324	-0.033284	41.7431	-0.861454	-3.060557E+11	1.087530E-13	NaN
730	1.000000	0.170386	7.3722e+06	-40589.1	1005.82	-29789.5	0.000000	0.000000	6.170787	-0.070158	NaN	0.000000	0.001624	0.001668	28.082	0.063638	0.001976	32.2106	146.721	-164.089	-0.034640	0.169078	-0.854044	-0.855352	-0.070158	32.2106	-0.852410	-2.308718E+11	3.038816E-13	NaN
730	1.000000	0.178403	7.3722e+06	-40589.1	1005.82	-29789.5	0.000000	0.000000	6.178804	-0.053122	NaN	0.000000	0.001582	0.001719	28.0822	0.096521	0.002074	46.5307	-75.7691	-167.546	-0.057610	0.177055	-0.846027	-0.847375	-0.053122	46.5307	-0.845171	-1.842206E+11	2.883589E-13	NaN
730	1.000000	0.186414	7.3722e+06	-40589.1	1005.82	-29789.5	0.000000	0.000000	6.186815	-0.076268	NaN	0.000000	0.001604	0.001732	28.0822	0.055193	0.001994	27.6741	-174.477	-162.964	-0.082793	0.185104	-0.838016	-0.839326	-0.076268	27.6741	-0.835949	-1.381673E+11	5.519993E-13	NaN
730	1.000000	0.194395	7.3722e+06	-40589.1	1005.82	-29789.5	0.000000	0.000000	6.194797	-0.046194	NaN	0.000000	0.001614	0.001700	28.082	0.134564	0.001989	67.6469	-73.2184	-162.234	-0.091217	0.193078	-0.830035	-0.831352	-0.046194	67.6469	-0.829523	-1.130631E+11	4.085727E-13	NaN
730	1.000000	0.202392	7.3722e+06	-40589.1	1005.82	-29789.5	0.000000	0.000000	6.202796	0.008876	NaN	0.000000	0.001598	0.001706	28.0821	0.147060	0.001966	74.7865	-95.7863	-167.77	0.041217	0.201100	-0.822038	-0.823330	0.008876	74.7865	-0.822127	-8.975280E+10	-9.889508E-14	NaN
730	1.000000	0.210419	7.3722e+06	-40589.1	1005.82	-29789.5	0.000000	0.000000	6.210821	-0.063767	NaN	0.000000	0.001619	0.001714	28.082	0.056695	0.001919	29.5392	-12.7413	-166.282	-0.153277	0.209136	-0.814010	-0.815294	-0.063767	29.5392	-0.812391	-6.622354E+10	9.629085E-13	NaN
730	1.000000	0.218419	7.3722e+06	-40589.1	1005.82	-29789.5	0.000000	0.000000	6.218824	0.023186	NaN	0.000000	0.001659	0.001703	28.0823	0.066445	0.001929	34.4486	-129.769	-165.609	0.029981	0.217132	-0.806010	-0.807298	0.023186	34.4486	-0.806515	-5.511733E+10	-4.206654E-13	NaN
730	1.000000	0.226404	7.3722e+06	-40589.1	1005.82	-29789.5	0.000000	0.000000	6.226809	0.022830	NaN	0.000000	0.001637	0.001708	28.0819	0.121070	0.001957	61.8605	-57.6573	-163.595	0.076013	0.225131	-0.798026	-0.799299	0.022830	61.8605	-0.798303	-4.264048E+10	-5.354075E-13	NaN
730	1.000000	0.234440	7.3722e+06	-40589.1	1005.82	-29789.5	0.000000	0.000000	6.234838	-0.137281	NaN	0.000000	0.001674	0.001687	28.0809	0.062090	0.002117	29.3319	-155.521	-160.359	-0.129508	0.233066	-0.789990	-0.791364	-0.137281	29.3319	-0.786480	-2.946274E+10	4.659482E-12	NaN
730	1.000000	0.242458	7.3722e+06	-40589.1	1005.82	-29789.5	0.000000	0.000000	6.242860	-0.049411	NaN	0.000000	0.001617	0.001711	28.0811	0.019547	0.002079	9.401328	-145.376	-162.511	0.005380	0.241132	-0.781972	-0.783298	-0.049411	9.401328	-0.778030	-2.261848E+10	2.184534E-12	NaN
730	1.000000	0.250438	7.3722e+06	-40589.1	1005.82	-29789.5	0.000000	0.000000	6.250843	0.030177	NaN	0.000000	0.001616	0.001690	28.0811	0.120779	0.001987	60.7706	61.1667	-163.405	-0.037141	0.249030	-0.773992	-0.775400	0.030177	60.7706	-0.774364	-2.016663E+10	-1.496358E-12	NaN
730	1.000000	0.258410	7.3722e+06	-40589.1	1005.82	-29789.5	0.000000	0.000000	6.258811	-0.062820	NaN	0.000000	0.001694	0.001693	28.0809	0.020627	0.002107	9.789279	-132.416	-165.87	-0.025753	0.257124	-0.766020	-0.767306	-0.062820	9.789279	-0.761207	-1.335729E+10	4.703079E-12	NaN
730	1.000000	0.266419	7.3722e+06	-40589.1	1005.82	-29789.5	0.000000	0.000000	6.266820	-0.051493	NaN	0.000000	0.001641	0.001736	28.0811	0.044116	0.001887	23.379	-42.2714	-168.773	0.018330	0.265122	-0.758011	-0.759308	-0.051493	23.379	-0.756359	-1.147543E+10	4.487239E-12	NaN
730	1.000000	0.274444	7.3722e+06	-40589.1	1005.82	-29789.5	0.000000	0.000000	6.274848	-0.008365	NaN	0.000000	0.001649	0.001763	28.0811	0.054800	0.002052	26.7012	145.692	-160.341	-0.017834	0.273130	-0.749986	-0.751300	-0.008365	26.7012	-0.749751	-9.328843E+9	8.967133E-13	NaN
730	1.000000	0.282451	7.3722e+06	-40589.1	1005.82	-29789.5	0.000000	0.000000	6.282851	-0.096667	NaN	0.000000	0.001646	0.001700	28.0808	0.107391	0.001983	54.1512	140.033	-163.697	-0.062187	0.281117	-0.741979	-0.743313	-0.096667	54.1512	-0.740640	-7.010922E+9	1.378799E-11	NaN
730	1.000000	0.290443	7.3722e+06	-40589.1	1005.82	-29789.5	0.000000	0.000000	6.290843	-0.080850	NaN	0.000000	0.001640	0.001666	28.081	0.027109	0.001877	14.4447	-6.742645	-163.516	-0.032999	0.289116	-0.733987	-0.735313	-0.080850	14.4447	-0.729789	-4.988126E+9	1.620857E-11	NaN
730	1.000000	0.298477	7.3722e+06	-40589.1	1005.82	-29789.5	0.000000	0.000000	6.298880	-0.015158	NaN	0.000000	0.001622	0.001637	28.0808	0.107865	0.001880	57.3799	-157.353	-163.418	-0.052361	0.297101	-0.725953	-0.727329	-0.015158	57.3799	-0.725755	-4.394849E+9	3.449069E-12	NaN
730	1.000000	0.306474	7.3722e+06	-40589.1	1005.82	-29789.5	0.000000	0.000000	6.306878	-0.003518	NaN	0.000000	0.001616	0.001662	28.0811	0.069488	0.001966	35.3359	159.061	-163.271	-0.064934	0.305125	-0.717955	-0.719304	-0.003518	35.3359	-0.717881	-3.432173E+9	1.024938E-12	NaN
730	1.000000	0.314453	7.3722e+06	-40589.1	1005.82	-29789.5	0.000000	0.000000	6.314859	0.041049	NaN	0.000000	0.001601	0.001695	28.0809	0.082361	0.001899	43.3653	175.587	-166.265	0.059494	0.313145	-0.709977	-0.711285	0.041049	43.3653	-0.710687	-2.737910E+9	-1.499299E-11	NaN
730	1.000000	0.322479	7.3722e+06	-40589.1	1005.82	-29789.5	0.000000	0.000000	6.322883	-0.015325	NaN	0.000000	0.001611	0.001668	28.081	0.029683	0.001990	14.9141	143.201	-164.342	-0.040209	0.321154	-0.701950	-0.703276	-0.015325	14.9141	-0.701180	-2.030683E+9	7.546881E-12	NaN
730	1.000000	0.330487	7.3722e+06	-40589.1	1005.82	-29789.5	0.000000	0.000000	6.330886	-0.123510	NaN	0.000000	0.001616	0.001703	28.081	0.112298	0.002071	54.2206	145.743	-166.558	-0.017912	0.329191	-0.693942	-0.695239	-0.123510	54.2206	-0.692234	-1.532654E+9	8.058583E-11	NaN
730	1.000000	0.338487	7.3722e+06	-40589.1	1005.82	-29789.5	0.000000	0.000000	6.338887	-0.083128	NaN	0.000000	0.001617	0.001683	28.0807	0.159499	0.002054	77.6471	143.453	-165.649	-0.027544	0.337148	-0.685943	-0.687282	-0.083128	77.6471	-0.685140	-1.226006E+9	6.780357E-11	NaN
730	1.000000	0.346463	7.3722e+06	-40589.1	1005.82	-29789.5	0.000000	0.000000	6.346866	-0.017417	NaN	0.000000	0.001590	0.001695	28.081	0.064831	0.001978	32.772	141.696	-165.779	0.016239	0.345116	-0.677966	-0.679314	-0.017417	32.772	-0.677568	-9.659182E+8	1.803168E-11	NaN
730	1.000000	0.354477	7.3722e+06	-40589.1	1005.82	-29789.5	0.000000	0.000000	6.354881	-0.013256	NaN	0.000000	0.001597	0.001727	28.0808	0.033967	0.001970	17.2416	-116.353	-164.911	-0.012420	0.353172	-0.669952	-0.671258	-0.013256	17.2416	-0.669376	-7.461847E+8	1.776480E-11	NaN
730	1.000000	0.362489	7.3722e+06	-40589.1	1005.82	-29789.5	0.000000	0.000000	6.362894	0.010656	NaN	0.000000	0.001594	0.001714	28.0811	0.191755	0.001989	96.4032	-115.9	-164.174	0.013873	0.361195	-0.661940	-0.663235	0.010656	96.4032	-0.662023	-5.918071E+8	-1.800540E-11	NaN
730	1.000000	0.370472	7.3722e+06	-40589.1	1005.82	-29789.5	0.000000	0.000000	6.370872	-0.093644	NaN	0.000000	0.001565	0.001679	28.0822	0.113380	0.001966	57.6665	1.461805	-164.803	-0.155882	0.369207	-0.653958	-0.655223	-0.093644	57.6665	-0.652740	-4.415689E+8	2.120714E-10	NaN
730	1.000000	0.378482	7.3722e+06	-40589.1	1005.82	-29789.5	0.000000	0.000000	6.378883	-0.049999	NaN	0.000000	0.001586	0.001693	28.0822	0.038484	0.001890	20.3625	-47.112	-164.671	-0.044496	0.377136	-0.645948	-0.647294	-0.049999	20.3625	-0.644107	-3.362208E+8	1.487103E-10	NaN
730	1.000000	0.386499	7.3722e+06	-40589.1	1005.82	-29789.5	0.000000	0.000000	6.386901	-0.034012	NaN	0.000000	0.001561	0.001680	28.0822	0.083712	0.001978	42.3219	-137.066	-169.403	0.012872	0.385223	-0.637931	-0.639207	-0.034012	42.3219	-0.637328	-2.714096E+8	1.253154E-10	NaN
730	1.000000	0.394483	7.3722e+06	-40589.1	1005.82	-29789.5	0.000000	0.000000	6.394887	0.023281	NaN	0.000000	0.001571	0.001712	28.082	0.014232	0.002061	6.906481	165.943	-162.503	-0.012930	0.393194	-0.629947	-0.631235	0.023281	6.906481	-0.632475	-2.328159E+8	-9.999560E-11	NaN
730	1.000000	0.402500	7.3722e+06	-40589.1	1005.82	-29789.5	0.000000	0.000000	6.402904	-0.017650	NaN	0.000000	0.001616	0.001679	28.0823	0.032233	0.002143	15.0424	75.3449	-162.255	-0.058083	0.401160	-0.621929	-0.623270	-0.017650	15.0424	-0.621049	-1.622021E+8	1.088129E-10	NaN
730	1.000000	0.410498	7.3722e+06	-40589.1	1005.82	-29789.5	0.000000	0.000000	6.410899	-0.056557	NaN	0.000000	0.001576	0.001651	28.0824	0.100169	0.002061	48.6107	-150.757	-165.402	-0.053451	0.409165	-0.613932	-0.615265	-0.056557	48.6107	-0.613060	-1.259516E+8	4.490386E-10	NaN
730	1.000000	0.418479	7.3722e+06	-40589.1	1005.82	-29789.5	0.000000	0.000000	6.418881	-0.043392	NaN	0.000000	0.001543	0.001684	28.0824	0.088372	0.001979	44.6518	53.7171	-167.832	0.014050	0.417207	-0.605951	-0.607223	-0.043392	44.6518	-0.605222	-9.825688E+7	4.416163E-10	NaN
730	1.000000	0.426509	7.3722e+06	-40589.1	1005.82	-29789.5	0.000000	0.000000	6.426912	-0.034840	NaN	0.000000	0.001576	0.001669	28.0822	0.080126	0.002027	39.5227	-159.931	-166.278	-0.018273	0.425218	-0.597921	-0.599212	-0.034840	39.5227	-0.597260	-7.633303E+7	4.564250E-10	NaN
730	1.000000	0.434496	7.3722e+06	-40589.1	1005.82	-29789.5	0.000000	0.000000	6.434898	-0.037060	NaN	0.000000	0.001614	0.001636	28.0821	0.040005	0.002184	18.3204	56.6039	-164.217	0.026697	0.433195	-0.589934	-0.591235	-0.037060	18.3204	-0.588417	-5.765531E+7	6.427856E-10	NaN
730	1.000000	0.442532	7.3722e+06	-40589.1	1005.82	-29789.5	0.000000	0.000000	6.442935	-0.018989	NaN	0.000000	0.001604	0.001653	28.0822	0.062157	0.001949	31.8835	132.687	-164.153	-0.062916	0.441199	-0.581898	-0.583231	-0.018989	31.8835	-0.581451	-4.621153E+7	4.109043E-10	NaN
730	1.000000	0.450529	7.3722e+06	-40589.1	1005.82	-29789.5	0.000000	0.000000	6.450930	-0.071623	NaN	0.000000	0.001612	0.001643	28.0821	0.060098	0.001882	31.9364	-133.468	-164.303	-0.150157	0.449195	-0.573900	-0.575235	-0.071623	31.9364	-0.572218	-3.445731E+7	2.078603E-9	NaN
730	1.000000	0.458539	7.3722e+06	-40589.1	1005.82	-29789.5	0.000000	0.000000	6.458944	0.045978	NaN	0.000000	0.001578	0.001670	28.082	0.118858	0.002048	58.04	150.154	-170.262	-0.048486	0.457208	-0.565891	-0.567222	0.045978	58.04	-0.566485	-2.871163E+7	-1.601379E-9	NaN
730	1.000000	0.466533	7.3722e+06	-40589.1	1005.82	-29789.5	0.000000	0.000000	6.466938	0.006551	NaN	0.000000	0.001578	0.001671	28.0824	0.083470	0.001854	45.0327	-7.358138	-163.388	-0.043854	0.465183	-0.557896	-0.559247	0.006551	45.0327	-0.558006	-2.191712E+7	-2.988950E-10	NaN
730	1.000000	0.474518	7.3722e+06	-40589.1	1005.82	-29789.5	0.000000	0.000000	6.474922	0.013178	NaN	0.000000	0.001622	0.001659	28.0822	0.064473	0.001877	34.3535	-90.312	-164.686	-0.002455	0.473252	-0.549912	-0.551178	0.013178	34.3535	-0.550200	-1.708918E+7	-7.711502E-10	NaN
730	1.000000	0.482540	7.3722e+06	-40589.1	1005.82	-29789.5	0.000000	0.000000	6.482942	-0.051652	NaN	0.000000	0.001651	0.001606	28.0821	0.041479	0.001934	21.4474	-151.684	-165.309	0.047825	0.481163	-0.541890	-0.543267	-0.051652	21.4474	-0.540084	-1.237419E+7	4.174139E-9	NaN
730	1.000000	0.490531	7.3722e+06	-40589.1	1005.82	-29789.5	0.000000	0.000000	6.490931	-0.096145	NaN	0.000000	0.001599	0.001701	28.082	0.082238	0.002072	39.6973	150.162	-168.02	-0.131623	0.489218	-0.533898	-0.535212	-0.096145	39.6973	-0.532082	-9.58265e+06	1.003324E-8	NaN
730	1.000000	0.498547	7.3722e+06	-40589.1	1005.82	-29789.5	0.000000	0.000000	6.498950	-0.018836	NaN	0.000000	0.001628	0.001682	28.0822	0.038264	0.001966	19.4624	-71.1718	-162.487	-0.017604	0.497214	-0.525883	-0.527216	-0.018836	19.4624	-0.525157	-7.6788e+06	2.453038E-9	NaN
730	1.000000	0.506539	7.3722e+06	-40589.1	1005.82	-29789.5	0.000000	0.000000	6.506941	-0.061057	NaN	0.000000	0.001601	0.001675	28.0809	0.098634	0.001950	50.5858	62.0487	-165.673	-0.082122	0.505285	-0.517890	-0.519144	-0.061057	50.5858	-0.516985	-5.91097e+06	1.032947E-8	NaN
730	1.000000	0.514521	7.3722e+06	-40589.1	1005.82	-29789.5	0.000000	0.000000	6.514924	-0.005212	NaN	0.000000	0.001581	0.001708	28.0811	0.025320	0.001819	13.9181	33.2079	-165.582	-0.015521	0.513209	-0.509909	-0.511221	-0.005212	13.9181	-0.509628	-4.66917e+06	1.116170E-9	NaN
730	1.000000	0.522556	7.3722e+06	-40589.1	1005.82	-29789.5	0.000000	0.000000	6.522959	-0.027156	NaN	0.000000	0.001602	0.001697	28.0812	0.088520	0.001945	45.5221	-45.1567	-162.445	-0.001675	0.521222	-0.501874	-0.503208	-0.027156	45.5221	-0.501427	-3.58855e+06	7.567311E-9	NaN
730	1.000000	0.530529	7.3722e+06	-40589.1	1005.82	-29789.5	0.000000	0.000000	6.530932	-0.027767	NaN	0.000000	0.001617	0.001710	28.0809	0.119155	0.001925	61.9117	-70.5665	-164.471	-0.028943	0.529217	-0.493901	-0.495213	-0.027767	61.9117	-0.493564	-2.78732e+06	9.961814E-9	NaN
730	1.000000	0.538562	7.3722e+06	-40589.1	1005.82	-29789.5	0.000000	0.000000	6.538966	-0.004920	NaN	0.000000	0.001629	0.001695	28.0813	0.086246	0.001893	45.5622	-2.868854	-162.633	-0.039244	0.537231	-0.485868	-0.487199	-0.004920	45.5622	-0.485787	-2.17016e+06	2.267318E-9	NaN
730	1.000000	0.546515	7.3722e+06	-40589.1	1005.82	-29789.5	0.000000	0.000000	6.546917	-0.052833	NaN	0.000000	0.001646	0.001708	28.0813	0.077495	0.001962	39.506	-159.451	-164.319	-0.020825	0.545276	-0.477915	-0.479154	-0.052833	39.506	-0.476912	-1.63036e+06	3.240564E-8	NaN
730	1.000000	0.554575	7.3722e+06	-40589.1	1005.82	-29789.5	0.000000	0.000000	6.554978	-0.032246	NaN	0.000000	0.001614	0.001697	28.0813	0.068239	0.001913	35.6644	168.009	-166.858	-0.063033	0.553217	-0.469854	-0.471213	-0.032246	35.6644	-0.469176	-1.27015e+06	2.538753E-8	NaN
730	1.000000	0.562567	7.3722e+06	-40589.1	1005.82	-29789.5	0.000000	0.000000	6.562969	-0.046426	NaN	0.000000	0.001613	0.001713	28.0814	0.027582	0.002042	13.5093	-72.7868	-163.771	-0.022027	0.561218	-0.461863	-0.463212	-0.046426	13.5093	-0.459286	-922528	5.032532E-8	NaN
730	1.000000	0.570566	7.3722e+06	-40589.1	1005.82	-29789.5	0.000000	0.000000	6.570970	-0.002675	NaN	0.000000	0.001628	0.001714	28.0813	0.098569	0.002028	48.5971	-81.1653	-165.026	-0.037961	0.569280	-0.453864	-0.455150	-0.002675	48.5971	-0.453822	-772942	3.461049E-9	NaN
730	1.000000	0.578596	7.3722e+06	-40589.1	1005.82	-29789.5	0.000000	0.000000	6.578997	-0.084885	NaN	0.000000	0.001605	0.001724	28.0812	0.033040	0.002068	15.9737	-160.177	-164.56	-0.144615	0.577269	-0.445833	-0.447161	-0.084885	15.9737	-0.441848	-524130	1.619544E-7	NaN
730	1.000000	0.586558	7.3722e+06	-40589.1	1005.82	-29789.5	0.000000	0.000000	6.586963	0.030919	NaN	0.000000	0.001640	0.001722	28.0814	0.058810	0.001977	29.7413	116.263	-162.857	0.032125	0.585261	-0.437871	-0.439169	0.030919	29.7413	-0.438651	-472415	-6.544875E-8	NaN
730	1.000000	0.594554	7.3722e+06	-40589.1	1005.82	-29789.5	0.000000	0.000000	6.594957	-0.007412	NaN	0.000000	0.001639	0.001712	28.0812	0.102929	0.002077	49.5494	-177.733	-165.848	-0.021296	0.593227	-0.429876	-0.431203	-0.007412	49.5494	-0.429764	-353771	2.095125E-8	NaN
730	1.000000	0.602556	7.3722e+06	-40589.1	1005.82	-29789.5	0.000000	0.000000	6.602959	-0.027331	NaN	0.000000	0.001660	0.001696	28.0811	0.009741	0.002146	4.539641	-168.199	-164.093	0.030263	0.601295	-0.421873	-0.423135	-0.027331	4.539641	-0.417358	-236012	1.158016E-7	NaN
730	1.000000	0.610614	7.3722e+06	-40589.1	1005.82	-29789.5	0.000000	0.000000	6.611017	-0.038031	NaN	0.000000	0.001654	0.001694	28.0811	0.055661	0.002075	26.8266	104.933	-166.06	-0.100641	0.609287	-0.413815	-0.415143	-0.038031	26.8266	-0.412752	-203012	1.873361E-7	NaN
730	1.000000	0.618571	7.3722e+06	-40589.1	1005.82	-29789.5	0.000000	0.000000	6.618975	0.001236	NaN	0.000000	0.001659	0.001684	28.0811	0.032279	0.001984	16.2688	-51.4861	-163.215	0.076474	0.617263	-0.405858	-0.407166	0.001236	16.2688	-0.405915	-162287	-7.614086E-9	NaN
730	1.000000	0.626582	7.3722e+06	-40589.1	1005.82	-29789.5	0.000000	0.000000	6.626984	-0.040403	NaN	0.000000	0.001645	0.001694	28.0812	0.064230	0.002015	31.873	98.1568	-165.467	-0.007336	0.625308	-0.397848	-0.399122	-0.040403	31.873	-0.396897	-120705	3.347266E-7	NaN
730	1.000000	0.634597	7.3722e+06	-40589.1	1005.82	-29789.5	0.000000	0.000000	6.634999	-0.034794	NaN	0.000000	0.001587	0.001694	28.0812	0.020470	0.002016	10.1515	-9.131293	-168.214	-0.051634	0.633256	-0.389833	-0.391173	-0.034794	10.1515	-0.387262	-87900.3	3.958370E-7	NaN
730	1.000000	0.642611	7.3722e+06	-40589.1	1005.82	-29789.5	0.000000	0.000000	6.643016	0.015325	NaN	0.000000	0.001628	0.001669	28.0824	0.028617	0.001857	15.4114	-93.8718	-163.83	-0.015794	0.641310	-0.381818	-0.383120	0.015325	15.4114	-0.382564	-75279	-2.035707E-7	NaN
730	1.000000	0.650605	7.3722e+06	-40589.1	1005.82	-29789.5	0.000000	0.000000	6.651008	-0.019499	NaN	0.000000	0.001627	0.001758	28.0823	0.054045	0.001990	27.1598	-124.536	-165.217	0.148348	0.649279	-0.373825	-0.375151	-0.019499	27.1598	-0.373287	-55390	3.520349E-7	NaN
730	1.000000	0.658615	7.3722e+06	-40589.1	1005.82	-29789.5	0.000000	0.000000	6.659020	0.027194	NaN	0.000000	0.001647	0.001789	28.0826	0.039557	0.002047	19.3289	35.4014	-165.605	0.036562	0.657321	-0.365815	-0.367109	0.027194	19.3289	-0.366870	-44774.1	-6.073641E-7	NaN
730	1.000000	0.666591	7.3722e+06	-40589.1	1005.82	-29789.5	0.000000	0.000000	6.666995	-0.014175	NaN	0.000000	0.001584	0.001775	28.0825	0.098593	0.001984	49.6888	43.6088	-164.556	0.060162	0.665306	-0.357839	-0.359124	-0.014175	49.6888	-0.357625	-32922.4	4.305728E-7	NaN
730	1.000000	0.674605	7.3722e+06	-40589.1	1005.82	-29789.5	0.000000	0.000000	6.675009	-0.003965	NaN	0.000000	0.001590	0.001772	28.0822	0.050045	0.002034	24.6082	-11.5577	-164.384	-0.069440	0.673316	-0.349825	-0.351114	-0.003965	24.6082	-0.349704	-25275.8	1.568828E-7	NaN
730	1.000000	0.682625	7.3722e+06	-40589.1	1005.82	-29789.5	0.000000	0.000000	6.683029	0.013641	NaN	0.000000	0.001627	0.001767	28.0825	0.156598	0.002082	75.228	-162.289	-165.076	0.040621	0.681311	-0.341805	-0.343119	0.013641	75.228	-0.341941	-19491.1	-6.998631E-7	NaN
730	1.000000	0.690628	7.3722e+06	-40589.1	1005.82	-29789.5	0.000000	0.000000	6.691031	-0.013357	NaN	0.000000	0.001634	0.001770	28.0825	0.106656	0.001944	54.8759	-66.6517	-166.812	0.033538	0.689264	-0.333802	-0.335166	-0.013357	54.8759	-0.333619	-14737	9.063308E-7	NaN
730	1.000000	0.698639	7.3722e+06	-40589.1	1005.82	-29789.5	0.000000	0.000000	6.699040	-0.065679	NaN	0.000000	0.001642	0.001765	28.0827	0.051741	0.001919	26.9619	-147.477	-168.527	-0.032384	0.697298	-0.325791	-0.327132	-0.065679	26.9619	-0.323964	-10639.4	6.173160E-6	NaN
730	1.000000	0.706604	7.3722e+06	-40589.1	1005.82	-29789.5	0.000000	0.000000	6.707008	-0.001039	NaN	0.000000	0.001642	0.001785	28.0825	0.034961	0.002038	17.1515	141.583	-164.786	-0.028633	0.705303	-0.317826	-0.319127	-0.001039	17.1515	-0.317780	-8628.8	1.204278E-7	NaN
730	1.000000	0.714612	7.3722e+06	-40589.1	1005.82	-29789.5	0.000000	0.000000	6.715017	0.039670	NaN	0.000000	0.001611	0.001794	28.0823	0.006925	0.002142	3.232759	-41.4697	-167.291	0.024130	0.713299	-0.309818	-0.311131	0.039670	3.232759	-0.319021	-8999.74	-4.407899E-6	NaN
730	1.000000	0.722605	7.3722e+06	-40589.1	1005.82	-29789.5	0.000000	0.000000	6.723009	-0.018276	NaN	0.000000	0.001594	0.001768	28.0824	0.053292	0.001941	27.4575	81.6514	-162.705	-0.008215	0.721288	-0.301824	-0.303142	-0.018276	27.4575	-0.301325	-4924.41	3.711339E-6	NaN
730	1.000000	0.730626	7.3722e+06	-40589.1	1005.82	-29789.5	0.000000	0.000000	6.731027	-0.070377	NaN	0.000000	0.001607	0.001733	28.0824	0.121517	0.001989	61.1055	177.676	-165.058	0.008091	0.729341	-0.293803	-0.295089	-0.070377	61.1055	-0.292940	-3692.33	1.906024E-5	NaN
730	1.000000	0.738622	7.3722e+06	-40589.1	1005.82	-29789.5	0.000000	0.000000	6.739024	-0.041829	NaN	0.000000	0.001605	0.001750	28.0824	0.032430	0.002014	16.1038	157.992	-165.99	-0.012503	0.737319	-0.285808	-0.287110	-0.041829	16.1038	-0.283860	-2698.5	1.550070E-5	NaN
730	1.000000	0.746613	7.3722e+06	-40589.1	1005.82	-29789.5	0.000000	0.000000	6.747018	0.014560	NaN	0.000000	0.001572	0.001751	28.0823	0.082944	0.002035	40.7575	-14.5859	-164.292	0.076836	0.745313	-0.277817	-0.279116	0.014560	40.7575	-0.278085	-2208.27	-6.593158E-6	NaN
730	1.000000	0.754637	7.3722e+06	-40589.1	1005.82	-29789.5	0.000000	0.000000	6.755040	-0.020905	NaN	0.000000	0.001629	0.001763	28.0824	0.071556	0.002002	35.742	-154.297	-164.411	-0.014953	0.753336	-0.269793	-0.271093	-0.020905	35.742	-0.269354	-1628.26	1.283908E-5	NaN
730	1.000000	0.762654	7.3722e+06	-40589.1	1005.82	-29789.5	0.000000	0.000000	6.763056	-0.043756	NaN	0.000000	0.001583	0.001736	28.0824	0.065177	0.002081	31.3133	-5.676736	-166.968	-0.043640	0.761307	-0.261776	-0.263123	-0.043756	31.3133	-0.260728	-1202.45	3.638876E-5	NaN
730	1.000000	0.770642	7.3722e+06	-40589.1	1005.82	-29789.5	0.000000	0.000000	6.771047	0.025754	NaN	0.000000	0.001608	0.001767	28.0824	0.039274	0.002138	18.3679	-45.7629	-165.403	-0.020036	0.769347	-0.253788	-0.255082	0.025754	18.3679	-0.254840	-976.441	-2.637517E-5	NaN
730	1.000000	0.778654	7.3722e+06	-40589.1	1005.82	-29789.5	0.000000	0.000000	6.779059	0.022062	NaN	0.000000	0.001598	0.001728	28.0811	0.057155	0.002010	28.4298	129.392	-167.797	0.015883	0.777279	-0.245775	-0.247150	0.022062	28.4298	-0.246357	-721.99	-3.055723E-5	NaN
730	1.000000	0.786653	7.3722e+06	-40589.1	1005.82	-29789.5	0.000000	0.000000	6.787058	0.017733	NaN	0.000000	0.001623	0.001730	28.0812	0.117820	0.001984	59.3887	101.872	-164.304	0.101865	0.785333	-0.237777	-0.239097	0.017733	59.3887	-0.238001	-534.924	-3.315048E-5	NaN
730	1.000000	0.794671	7.3722e+06	-40589.1	1005.82	-29789.5	0.000000	0.000000	6.795073	-0.037184	NaN	0.000000	0.001652	0.001749	28.0814	0.034029	0.001892	17.9898	-119.266	-167.47	-0.075572	0.793359	-0.229759	-0.231071	-0.037184	17.9898	-0.228209	-375.15	9.911790E-5	NaN
730	1.000000	0.802685	7.3722e+06	-40589.1	1005.82	-29789.5	0.000000	0.000000	6.803089	0.006374	NaN	0.000000	0.001669	0.001738	28.0812	0.034290	0.002125	16.1403	-168.053	-168.58	0.001893	0.801320	-0.221745	-0.223110	0.006374	16.1403	-0.222041	-299.401	-2.129080E-5	NaN
730	1.000000	0.810683	7.3722e+06	-40589.1	1005.82	-29789.5	0.000000	0.000000	6.811083	-0.095214	NaN	0.000000	0.001650	0.001756	28.0811	0.126219	0.001952	64.6619	-134.653	-166.142	-0.049678	0.809321	-0.213747	-0.215109	-0.095214	64.6619	-0.212643	-211.611	0.000450	NaN
730	1.000000	0.818667	7.3722e+06	-40589.1	1005.82	-29789.5	0.000000	0.000000	6.819071	0.005007	NaN	0.000000	0.001627	0.001764	28.0813	0.014096	0.002056	6.857265	-145.202	-164.598	0.022388	0.817352	-0.205763	-0.207077	0.005007	6.857265	-0.206311	-167.078	-2.997005E-5	NaN
730	1.000000	0.826684	7.3722e+06	-40589.1	1005.82	-29789.5	0.000000	0.000000	6.827088	0.004308	NaN	0.000000	0.001586	0.001773	28.0811	0.069552	0.002070	33.607	-177.456	-165.434	0.020543	0.825350	-0.197746	-0.199080	0.004308	33.607	-0.197842	-121.389	-3.548653E-5	NaN
730	1.000000	0.834692	7.3722e+06	-40589.1	1005.82	-29789.5	0.000000	0.000000	6.835095	-0.024235	NaN	0.000000	0.001636	0.001705	28.0811	0.072224	0.002031	35.5561	128.063	-165.577	0.016721	0.833350	-0.189738	-0.191080	-0.024235	35.5561	-0.189227	-87.3177	0.000278	NaN
730	1.000000	0.842687	7.3722e+06	-40589.1	1005.82	-29789.5	0.000000	0.000000	6.843090	-0.027481	NaN	0.000000	0.001629	0.001723	28.0812	0.086929	0.001936	44.9109	42.0424	-165.052	-0.082672	0.841321	-0.181743	-0.183109	-0.027481	44.9109	-0.181284	-64.1623	0.000428	NaN
730	1.000000	0.850704	7.3722e+06	-40589.1	1005.82	-29789.5	0.000000	0.000000	6.851106	-0.040516	NaN	0.000000	0.001592	0.001750	28.0812	0.044128	0.001980	22.2915	111.995	-166.374	-0.118135	0.849369	-0.173726	-0.175061	-0.040516	22.2915	-0.172362	-45.1372	0.000898	NaN
730	1.000000	0.858653	7.3722e+06	-40589.1	1005.82	-29789.5	0.000000	0.000000	6.859055	-0.054337	NaN	0.000000	0.001593	0.001772	28.081	0.108519	0.002054	52.8432	-170.702	-167.261	-0.023487	0.857394	-0.165776	-0.167036	-0.054337	52.8432	-0.165005	-33.6045	0.001617	NaN
730	1.000000	0.866705	7.3722e+06	-40589.1	1005.82	-29789.5	0.000000	0.000000	6.867105	-0.083341	NaN	0.000000	0.001577	0.001711	28.0809	0.037847	0.001974	19.1699	-158.747	-168.414	-0.030553	0.865358	-0.157725	-0.159072	-0.083341	19.1699	-0.154465	-21.8242	0.003819	NaN
730	1.000000	0.874685	7.3722e+06	-40589.1	1005.82	-29789.5	0.000000	0.000000	6.875088	-0.032763	NaN	0.000000	0.001583	0.001751	28.081	0.086168	0.001999	43.0983	-23.8194	-166.691	-0.080471	0.873353	-0.149744	-0.151077	-0.032763	43.0983	-0.149174	-17.4956	0.001873	NaN
730	1.000000	0.882690	7.3722e+06	-40589.1	1005.82	-29789.5	0.000000	0.000000	6.883091	-0.064692	NaN	0.000000	0.001606	0.001738	28.0809	0.146234	0.002016	72.5254	5.369901	-167.45	-0.045003	0.881386	-0.141740	-0.143044	-0.064692	72.5254	-0.141071	-12.3895	0.005222	NaN
730	1.000000	0.890684	7.3722e+06	-40589.1	1005.82	-29789.5	0.000000	0.000000	6.891085	-0.062765	NaN	0.000000	0.001631	0.001750	28.081	0.033084	0.001954	16.9347	-172.942	-167.141	-0.053252	0.889430	-0.133746	-0.135000	-0.062765	16.9347	-0.130966	-7.956882	0.007888	NaN
730	1.000000	0.898710	7.3722e+06	-40589.1	1005.82	-29789.5	0.000000	0.000000	6.899110	-0.093757	NaN	0.000000	0.001579	0.001731	28.0809	0.080489	0.002062	39.0254	75.1459	-167.229	-0.100837	0.897393	-0.125720	-0.127037	-0.093757	39.0254	-0.123918	-5.788109	0.016198	NaN
730	1.000000	0.906686	7.3722e+06	-40589.1	1005.82	-29789.5	0.000000	0.000000	6.907089	-0.019645	NaN	0.000000	0.001641	0.001739	28.0809	0.110241	0.002073	53.1907	27.927	-168.268	-0.010364	0.905398	-0.117744	-0.119032	-0.019645	53.1907	-0.117467	-4.292356	0.004577	NaN
730	1.000000	0.914712	7.3722e+06	-40589.1	1005.82	-29789.5	0.000000	0.000000	6.915119	0.059943	NaN	0.000000	0.001628	0.001741	28.0823	0.064549	0.001837	35.1404	-21.6356	-164.811	0.034523	0.913400	-0.109718	-0.111030	0.059943	35.1404	-0.110997	-3.153878	-0.019006	NaN
730	1.000000	0.922707	7.3722e+06	-40589.1	1005.82	-29789.5	0.000000	0.000000	6.923109	-0.051784	NaN	0.000000	0.001638	0.001762	28.0822	0.118681	0.001918	61.8745	54.7498	-164.657	-0.121875	0.921365	-0.101723	-0.103065	-0.051784	61.8745	-0.101095	-1.931884	0.026805	NaN
730	1.000000	0.930715	7.3722e+06	-40589.1	1005.82	-29789.5	0.000000	0.000000	6.931118	-0.038904	NaN	0.000000	0.001614	0.001733	28.082	0.053363	0.002190	24.3619	8.654196	-162.349	0.027009	0.929374	-0.093714	-0.095056	-0.038904	24.3619	-0.092517	-1.237154	0.031446	NaN
730	1.000000	0.938716	7.3722e+06	-40589.1	1005.82	-29789.5	0.000000	0.000000	6.939120	-0.001556	NaN	0.000000	0.001593	0.001722	28.0822	0.040441	0.002036	19.8647	-64.6522	-163.781	-0.089079	0.937394	-0.085714	-0.087036	-0.001556	19.8647	-0.085655	-0.852109	0.001826	NaN
730	1.000000	0.946732	7.3722e+06	-40589.1	1005.82	-29789.5	0.000000	0.000000	6.947133	-0.063841	NaN	0.000000	0.001602	0.001697	28.0824	0.066769	0.001920	34.7775	4.308734	-165.73	-0.042306	0.945433	-0.077698	-0.078997	-0.063841	34.7775	-0.076321	-0.499514	0.127805	NaN
730	1.000000	0.954722	7.3722e+06	-40589.1	1005.82	-29789.5	0.000000	0.000000	6.955124	-0.046453	NaN	0.000000	0.001605	0.001717	28.0824	0.083566	0.001910	43.7479	174.174	-164.826	0.010052	0.953422	-0.069707	-0.071008	-0.046453	43.7479	-0.068911	-0.318865	0.145681	NaN
730	1.000000	0.962740	7.3722e+06	-40589.1	1005.82	-29789.5	0.000000	0.000000	6.963143	-0.029098	NaN	0.000000	0.001618	0.001732	28.0822	0.106148	0.001895	56.0273	-12.9886	-167.477	-0.085146	0.961416	-0.061690	-0.063014	-0.029098	56.0273	-0.061300	-0.196172	0.148330	NaN
730	1.000000	0.970732	7.3722e+06	-40589.1	1005.82	-29789.5	0.000000	0.000000	6.971134	-0.045458	NaN	0.000000	0.001575	0.001740	28.082	0.091587	0.002082	43.9893	65.6394	-161.577	-0.036885	0.969467	-0.053698	-0.054963	-0.045458	43.9893	-0.052923	-0.111717	0.406900	NaN
730	1.000000	0.978729	7.3722e+06	-40589.1	1005.82	-29789.5	0.000000	0.000000	6.979133	0.004791	NaN	0.000000	0.001606	0.001681	28.0821	0.088020	0.002030	43.3674	-49.0807	-165.971	-0.007044	0.977424	-0.045701	-0.047006	0.004791	43.3674	-0.045784	-0.067914	-0.070538	NaN
730	1.000000	0.986716	7.3722e+06	-40589.1	1005.82	-29789.5	0.000000	0.000000	6.987116	-0.100631	NaN	0.000000	0.001622	0.001757	28.0826	0.086511	0.002007	43.0946	75.8437	-167.73	-0.056241	0.985447	-0.037714	-0.038982	-0.100631	43.0946	-0.035963	-0.034194	2.942964	NaN
730	1.000000	0.994737	7.3722e+06	-40589.1	1005.82	-29789.5	0.000000	0.000000	6.995139	-0.048033	NaN	0.000000	0.001590	0.001711	28.0824	0.019549	0.001955	9.996980	85.3984	-165.106	-0.028946	0.993353	-0.029693	-0.031077	-0.048033	9.996980	-0.026089	-0.018020	2.665531	NaN
730	1.000000	1.002746	7.3722e+06	-40589.1	1005.82	-29789.5	0.000000	0.000000	7.003147	-0.070232	NaN	0.000000	0.001594	0.001750	28.0822	0.032898	0.001975	16.6588	85.6753	-164.364	0.016917	1.001420	-0.021684	-0.023010	-0.070232	16.6588	-0.018522	-0.011515	6.099416	NaN
730	1.000000	1.010737	7.3722e+06	-40589.1	1005.82	-29789.5	0.000000	0.000000	7.011142	0.044211	NaN	0.000000	0.001585	0.001714	28.0819	0.086535	0.002006	43.1293	-94.0186	-166.065	-0.012190	1.009504	-0.013693	-0.014926	0.044211	43.1293	-0.014462	-0.008955	-4.936855	NaN
730	1.000000	1.018746	7.3722e+06	-40589.1	1005.82	-29789.5	0.000000	0.000000	7.019151	0.042609	NaN	0.000000	0.001574	0.001686	28.0822	0.159302	0.002054	77.5412	-42.5038	-161.663	-0.039860	1.017496	-0.005684	-0.006934	0.042609	77.5412	-0.006096	-0.004095	-10.4052	NaN
730	1.000000	1.026736	7.3722e+06	-40589.1	1005.82	-29789.5	0.000000	0.000000	7.027187	1.164839	NaN	0.000000	0.001609	0.001721	28.0823	1.072217	0.001957	548.016	19.6813	-163.668	0.944026	1.025440	0.002306	0.001010	1.164839	548.016	0.000712	0.000539	2159.79	21559.5
730	1.000000	1.034720	7.3722e+06	-40589.1	1005.82	-29789.5	0.000000	0.000000	7.035348	5.457438	NaN	0.000000	0.001640	0.001693	28.082	4.573577	0.001788	2557.28	9.528376	-167.083	4.420768	1.033407	0.010290	0.008977	5.457438	2557.28	0.008689	0.007761	703.18	26521.1
730	2.000000	1.040378	7.3722e+06	-40589.1	1005.82	-29789.5	0.000000	0.000000	7.041190	9.951138	NaN	0.000000	0.001573	0.001736	28.0823	8.081246	0.001844	4383.41	11.1804	-173.783	10.4992	1.039978	0.015948	0.015548	9.951138	4383.41	0.014245	0.014292	696.277	33499.7
730	2.000000	1.042289	7.3722e+06	-40589.1	1005.82	-29789.5	0.000000	0.000000	7.043121	10.4172	NaN	0.000000	0.001605	0.001745	28.081	9.296377	0.001674	5554.78	4.271986	-170.414	9.960509	1.041996	0.017859	0.017566	10.4172	5554.78	0.016453	0.017272	603.131	38616.2
730	2.000000	1.044254	7.3722e+06	-40589.1	1005.82	-29789.5	0.000000	0.000000	7.045206	13.3225	NaN	0.000000	0.001618	0.001755	28.0808	11.1866	0.001667	6711.17	2.078827	-169.997	13.5	1.043961	0.019825	0.019532	13.3225	6711.17	0.018336	0.019994	666.314	43362.9
730	2.000000	1.046320	7.3722e+06	-40589.1	1005.82	-29789.5	0.000000	0.000000	7.047240	12.5686	NaN	0.000000	0.001678	0.001769	28.0809	12.6328	0.001929	6547.74	8.471623	-171.266	12.6505	1.045970	0.021890	0.021540	12.5686	6547.74	0.020450	0.023255	540.478	39229.2
730	2.000000	1.048237	7.3722e+06	-40589.1	1005.82	-29789.5	0.000000	0.000000	7.049360	17.501	NaN	0.000000	0.001699	0.001739	28.0808	15.5416	0.001823	8527.46	7.153132	-175.669	16.6349	1.047881	0.023807	0.023451	17.501	8527.46	0.022268	0.026233	667.146	48103
730	2.000000	1.050273	7.3722e+06	-40589.1	1005.82	-29789.5	0.000000	0.000000	7.051562	21.5397	NaN	0.000000	0.001654	0.001754	28.0808	17.3109	0.001711	10120.1	7.055804	-175.738	22.6754	1.049938	0.025843	0.025508	21.5397	10120.1	0.024247	0.029660	726.228	53687.8
730	2.000000	1.052237	7.3722e+06	-40589.1	1005.82	-29789.5	0.000000	0.000000	7.053768	27.434	NaN	0.000000	0.001656	0.001725	28.0811	18.9302	0.001613	11739.4	3.391640	-173.671	26.9901	1.051859	0.027807	0.027430	27.434	11739.4	0.026054	0.032961	832.304	59076.4
730	2.000000	1.054213	7.3722e+06	-40589.1	1005.82	-29789.5	0.000000	0.000000	7.055770	28.056	NaN	0.000000	0.001689	0.001762	28.081	21.5176	0.001641	13115.8	6.473444	-178.617	28.1425	1.053890	0.029783	0.029460	28.056	13115.8	0.028179	0.037054	757.16	62251.4
730	2.000000	1.056315	7.3722e+06	-40589.1	1005.82	-29789.5	0.000000	0.000000	7.058213	36.365	NaN	0.000000	0.001680	0.001738	28.0811	24.4092	0.001792	13623.5	6.631479	-176.06	37.5666	1.055787	0.031885	0.031357	36.365	13623.5	0.029883	0.040502	897.869	61847.9
730	2.000000	1.058187	7.3722e+06	-40589.1	1005.82	-29789.5	0.000000	0.000000	7.060340	42.5799	NaN	0.000000	0.001660	0.001766	28.0808	26.7776	0.001823	14685.8	7.515956	178.862	41.7301	1.057887	0.033757	0.033457	42.5799	14685.8	0.031582	0.044087	965.815	63902
730	2.000000	1.060178	7.3722e+06	-40589.1	1005.82	-29789.5	0.000000	0.000000	7.062440	45.2264	NaN	0.000000	0.001661	0.001778	28.0809	28.8519	0.001758	16407.6	6.634875	178.996	44.4104	1.059884	0.035748	0.035454	45.2264	16407.6	0.033681	0.048719	928.315	67915.8
730	2.000000	1.062175	7.3722e+06	-40589.1	1005.82	-29789.5	0.000000	0.000000	7.064834	54.8877	NaN	0.000000	0.001672	0.001791	28.0812	29.9193	0.001760	16998.8	5.665190	-179.047	54.0869	1.061862	0.037745	0.037432	54.8877	16998.8	0.035323	0.052501	1045.46	67781.1
730	2.000000	1.064159	7.3722e+06	-40589.1	1005.82	-29789.5	0.000000	0.000000	7.066920	57.3754	NaN	0.000000	0.001654	0.001739	28.0811	32.8417	0.001992	16482.9	11.5668	174.001	56.5917	1.063944	0.039729	0.039515	57.3754	16482.9	0.037118	0.056793	1010.25	63191.5
730	2.000000	1.066219	7.3722e+06	-40589.1	1005.82	-29789.5	0.000000	0.000000	7.069229	63.3948	NaN	0.000000	0.001675	0.001763	28.0812	32.9125	0.001794	18345.5	2.057888	-176.677	61.8084	1.065781	0.041790	0.041351	63.3948	18345.5	0.039198	0.061972	1022.96	67329.5
730	2.000000	1.068194	7.3722e+06	-40589.1	1005.82	-29789.5	0.000000	0.000000	7.071722	76.0237	NaN	0.000000	0.001651	0.001741	28.0812	35.4285	0.001725	20539	11.2928	172.61	75.9461	1.067796	0.043764	0.043366	76.0237	20539	0.040988	0.066607	1141.37	72709.7
730	2.000000	1.070215	7.3722e+06	-40589.1	1005.82	-29789.5	0.000000	0.000000	7.073984	81.8863	NaN	0.000000	0.001669	0.001727	28.0811	37.6521	0.001836	20509	7.429877	176.858	84.4713	1.069920	0.045785	0.045490	81.8863	20509	0.042790	0.071439	1146.25	70105.5
730	2.000000	1.072100	7.3722e+06	-40589.1	1005.82	-29789.5	0.000000	0.000000	7.076555	98.5758	NaN	0.000000	0.001670	0.001714	28.0811	37.6485	0.001690	22282.8	3.844308	-179.76	94.3797	1.071753	0.047671	0.047324	98.5758	22282.8	0.044353	0.075761	1301.15	73964.3
730	2.000000	1.074136	7.3722e+06	-40589.1	1005.82	-29789.5	0.000000	0.000000	7.078617	99.2088	NaN	0.000000	0.001680	0.001736	28.081	40.942	0.001706	24001.1	4.732416	177.614	97.5473	1.073867	0.049706	0.049437	99.2088	24001.1	0.046606	0.082212	1206.74	76478.1
730	2.000000	1.076189	7.3722e+06	-40589.1	1005.82	-29789.5	0.000000	0.000000	7.080976	106.658	NaN	0.000000	0.001584	0.001764	28.0823	43.6429	0.001932	22594.2	5.719715	178.002	104.948	1.075844	0.051759	0.051414	106.658	22594.2	0.048218	0.086986	1226.16	69991.8
730	2.000000	1.078135	7.3722e+06	-40589.1	1005.82	-29789.5	0.000000	0.000000	7.083543	121.787	NaN	0.000000	0.001589	0.001794	28.0826	44.8732	0.001794	25011.6	2.588912	179.174	119.497	1.077838	0.053705	0.053408	121.787	25011.6	0.050053	0.092577	1315.53	75104.2
730	2.000000	1.080183	7.3722e+06	-40589.1	1005.82	-29789.5	0.000000	0.000000	7.085730	125.139	NaN	0.000000	0.001595	0.001759	28.0825	46.7367	0.001796	26029.2	5.101925	177.173	126.641	1.079854	0.055753	0.055424	125.139	26029.2	0.052148	0.099167	1261.91	75518.1
730	2.000000	1.082140	7.3722e+06	-40589.1	1005.82	-29789.5	0.000000	0.000000	7.088155	136.542	NaN	0.000000	0.001605	0.001774	28.0823	48.204	0.001815	26557.1	8.117746	173.687	135.86	1.081856	0.057710	0.057427	136.542	26557.1	0.053854	0.104697	1304.16	74987.1
730	2.000000	1.084172	7.3722e+06	-40589.1	1005.82	-29789.5	0.000000	0.000000	7.090682	148.579	NaN	0.000000	0.001607	0.001755	28.082	49.7488	0.001742	28556.9	6.452036	174.692	148.548	1.083845	0.059742	0.059416	148.579	28556.9	0.055840	0.111316	1334.75	78199.9
730	2.000000	1.086213	7.3722e+06	-40589.1	1005.82	-29789.5	0.000000	0.000000	7.092982	154.873	NaN	0.000000	0.001562	0.001731	28.0822	52.127	0.001796	29029.9	5.196141	176.368	155.407	1.085852	0.061783	0.061423	154.873	29029.9	0.057782	0.117975	1312.76	77218.8
730	2.000000	1.088149	7.3722e+06	-40589.1	1005.82	-29789.5	0.000000	0.000000	7.095178	161.209	NaN	0.000000	0.001592	0.001722	28.0822	52.9429	0.001656	31975.8	1.995236	177.697	160.542	1.087924	0.063719	0.063495	161.209	31975.8	0.059938	0.125585	1283.66	82437.5
730	2.000000	1.090147	7.3722e+06	-40589.1	1005.82	-29789.5	0.000000	0.000000	7.097713	174.282	NaN	0.000000	0.001643	0.001773	28.0825	56.7689	0.001739	32643.3	3.633834	175.94	171.962	1.089872	0.065717	0.065442	174.282	32643.3	0.061713	0.132023	1320.09	82080.9
730	2.000000	1.092170	7.3722e+06	-40589.1	1005.82	-29789.5	0.000000	0.000000	7.100203	185.663	NaN	0.000000	0.001646	0.001733	28.0827	57.363	0.001796	31934.3	4.148605	176.026	186.248	1.091816	0.067740	0.067387	185.663	31934.3	0.063379	0.138205	1343.39	78482
730	2.000000	1.094099	7.3722e+06	-40589.1	1005.82	-29789.5	0.000000	0.000000	7.102599	197	NaN	0.000000	0.001611	0.001740	28.0824	60.6009	0.001878	32265.5	6.406446	173.539	193.617	1.093795	0.069669	0.069365	197	32265.5	0.065090	0.144691	1361.52	77498.1
730	2.000000	1.096114	7.3722e+06	-40589.1	1005.82	-29789.5	0.000000	0.000000	7.105271	212.97	NaN	0.000000	0.001625	0.001752	28.0821	60.9279	0.001834	33225.8	0.964243	179.271	209.707	1.095833	0.071685	0.071403	212.97	33225.8	0.066877	0.151618	1404.65	77960.3
730	2.000000	1.098149	7.3722e+06	-40589.1	1005.82	-29789.5	0.000000	0.000000	7.107608	220.343	NaN	0.000000	0.001665	0.001722	28.0824	62.6718	0.001706	36738.3	3.622956	175.183	219.935	1.097892	0.073719	0.073462	220.343	36738.3	0.069221	0.160933	1369.16	83670
730	2.000000	1.100164	7.3722e+06	-40589.1	1005.82	-29789.5	0.000000	0.000000	7.110105	232.072	NaN	0.000000	0.001647	0.001783	28.0822	66.5524	0.001905	34942.3	8.432261	171.434	233.281	1.099823	0.075734	0.075393	232.072	34942.3	0.070753	0.167163	1388.3	78082.7
730	2.000000	1.102130	7.3722e+06	-40589.1	1005.82	-29789.5	0.000000	0.000000	7.112803	249.896	NaN	0.000000	0.001635	0.001751	28.0824	66.6066	0.001771	37609.5	4.956831	174.698	249.586	1.101694	0.077700	0.077264	249.896	37609.5	0.072717	0.175315	1425.41	82065.8
730	2.000000	1.104084	7.3722e+06	-40589.1	1005.82	-29789.5	0.000000	0.000000	7.115263	262.184	NaN	0.000000	0.001621	0.001782	28.0823	68.4555	0.001622	42196.4	4.806451	173.247	259.307	1.103790	0.079654	0.079360	262.184	42196.4	0.074994	0.184995	1417.25	89633.1
730	2.000000	1.106067	7.3722e+06	-40589.1	1005.82	-29789.5	0.000000	0.000000	7.117913	278.406	NaN	0.000000	0.001628	0.001750	28.0822	71.0891	0.001913	37161.3	5.255282	174.865	273.951	1.105679	0.081638	0.081249	278.406	37161.3	0.076019	0.189430	1469.71	78008.2
730	2.000000	1.108013	7.3722e+06	-40589.1	1005.82	-29789.5	0.000000	0.000000	7.120170	285.984	NaN	0.000000	0.001636	0.001731	28.0822	72.9201	0.001791	40716.2	5.721340	172.344	279.64	1.107769	0.083584	0.083339	285.984	40716.2	0.078316	0.199550	1433.14	83275
730	2.000000	1.110145	7.3722e+06	-40589.1	1005.82	-29789.5	0.000000	0.000000	7.122862	299.626	NaN	0.000000	0.001638	0.001726	28.0809	75.7287	0.001907	39713	2.459052	176.206	300.564	1.109842	0.085715	0.085412	299.626	39713	0.080056	0.207384	1444.79	79674.4
730	2.000000	1.111985	7.3722e+06	-40589.1	1005.82	-29789.5	0.000000	0.000000	7.125524	319.623	NaN	0.000000	0.001595	0.001794	28.0816	77.4622	0.001878	41242.7	6.792613	171.396	313.889	1.111730	0.087555	0.087300	319.623	41242.7	0.081743	0.215110	1485.86	81243.8
730	2.000000	1.114134	7.3722e+06	-40589.1	1005.82	-29789.5	0.000000	0.000000	7.128213	332.77	NaN	0.000000	0.001627	0.001748	28.0813	78.547	0.001800	43641.9	5.499142	172.179	332.226	1.113856	0.089704	0.089426	332.77	43641.9	0.083985	0.225584	1475.15	83950.3
730	2.000000	1.116097	7.3722e+06	-40589.1	1005.82	-29789.5	0.000000	0.000000	7.130880	349.877	NaN	0.000000	0.001616	0.001752	28.081	80.3296	0.001876	42827.6	4.679120	173.804	347.744	1.115836	0.091668	0.091406	349.877	42827.6	0.085540	0.232987	1501.7	81064.6
730	2.000000	1.118060	7.3722e+06	-40589.1	1005.82	-29789.5	0.000000	0.000000	7.133467	365.058	NaN	0.000000	0.001614	0.001743	28.0815	81.6635	0.001741	46917.5	5.810439	171.646	360.516	1.117685	0.093631	0.093256	365.058	46917.5	0.087795	0.243914	1496.66	86793.9
730	2.000000	1.120019	7.3722e+06	-40589.1	1005.82	-29789.5	0.000000	0.000000	7.136125	382.076	NaN	0.000000	0.001678	0.001756	28.0809	84.226	0.001844	45668	0.674589	177.239	376.393	1.119798	0.095590	0.095369	382.076	45668	0.089315	0.251413	1519.71	83213
730	2.000000	1.122092	7.3722e+06	-40589.1	1005.82	-29789.5	0.000000	0.000000	7.138819	397.201	NaN	0.000000	0.001683	0.001734	28.081	85.5206	0.001800	47499.1	5.149203	172.109	395.707	1.121858	0.097662	0.097428	397.201	47499.1	0.091390	0.261826	1517.04	84810.9
730	2.000000	1.124215	7.3722e+06	-40589.1	1005.82	-29789.5	0.000000	0.000000	7.141418	408.791	NaN	0.000000	0.001639	0.001756	28.0813	88.1323	0.001853	47556.7	5.857286	171.82	414.93	1.123986	0.099785	0.099556	408.791	47556.7	0.093338	0.271777	1504.14	83344.8
730	2.000000	1.126151	7.3722e+06	-40589.1	1005.82	-29789.5	0.000000	0.000000	7.144239	430.312	NaN	0.000000	0.001614	0.001733	28.0816	88.8397	0.001870	47509.1	3.017744	174.845	431.063	1.125825	0.101722	0.101396	430.312	47509.1	0.094929	0.280030	1536.66	82025.3
730	2.000000	1.128070	7.3722e+06	-40589.1	1005.82	-29789.5	0.000000	0.000000	7.146711	443.777	NaN	0.000000	0.001599	0.001732	28.0812	89.306	0.001791	49858	3.211981	173.704	441.27	1.127738	0.103640	0.103308	443.777	49858	0.096965	0.290765	1526.24	84476.8
730	2.000000	1.130030	7.3722e+06	-40589.1	1005.82	-29789.5	0.000000	0.000000	7.149179	456.129	NaN	0.000000	0.001628	0.001721	28.0811	92.1565	0.001859	49585.8	6.603345	170.299	451.525	1.129763	0.105600	0.105334	456.129	49585.8	0.098701	0.300070	1520.08	82702.6
730	2.000000	1.132214	7.3722e+06	-40589.1	1005.82	-29789.5	0.000000	0.000000	7.152068	473.269	NaN	0.000000	0.001615	0.001740	28.081	91.4899	0.001688	54205.2	2.921375	173.98	478.824	1.131760	0.107785	0.107331	473.269	54205.2	0.101236	0.313900	1507.71	88393.1
730	2.000000	1.133950	7.3722e+06	-40589.1	1005.82	-29789.5	0.000000	0.000000	7.154595	492.554	NaN	0.000000	0.001617	0.001737	28.0811	93.8301	0.001834	51160.9	3.089416	173.853	485.674	1.133775	0.109520	0.109345	492.554	51160.9	0.102299	0.319785	1540.27	82657.5
730	2.000000	1.136009	7.3722e+06	-40589.1	1005.82	-29789.5	0.000000	0.000000	7.156793	495.911	NaN	0.000000	0.001586	0.001761	28.0814	96.3463	0.001886	51086.6	3.280383	173.572	488.518	1.135739	0.111579	0.111310	495.911	51086.6	0.104299	0.330996	1498.24	81127.6
730	2.000000	1.138139	7.3722e+06	-40589.1	1005.82	-29789.5	0.000000	0.000000	7.160200	526.992	NaN	0.000000	0.001638	0.001764	28.0814	98.2661	0.001802	54518.6	6.736856	169.824	527.467	1.137635	0.113709	0.113205	526.992	54518.6	0.106460	0.343316	1535	85010.2