File: remote_trans/data/nanoindenter/0828-1/data/Data_2025-08-06,11h17m57s/2025-07-22_16-23-58_1_312.txt
2025-07-22, 16:23:58, 1
Index	Phase	Displacement	Time	Pos X	Pos Y	Pos Z	Rot A	Rot B	Piezo Z	Force A	Force B	Gripper	Voltage A	Voltage B	Temperature	Amplitude force	Amplitude pos	Stiffness	Phase shift	Phase excitation	Force A raw	Displacement raw	HMax	HMax raw	Real Force	Real Stiffness	Contact Depth	Area	Hardness	Reduced Mod.
[#]	[#]	[um]	[s]	[um]	[um]	[um]	[m°]	[m°]	[um]	[uN]	[uN]	[V]	[V]	[V]	[°C]	[uN]	[um]	[N/m]	[°]	[°]	[uN]	[um]	[um]	[um]	[uN]	[N/m]	[um]	[um^2]	[MPa]	[MPa]
312	1.000000	0.002603	7.36812e+06	-54239.1	955.817	-29744.4	0.000000	0.000000	6.002784	0.007615	NaN	0.000000	0.001640	0.001681	28.0798	0.022745	0.000866	26.2522	16.0632	-162.315	0.037379	0.001371	-1.068857	-1.070089	0.007615	26.2522	-1.069075	-1.926456E+14	-3.952750E-17	NaN
312	1.000000	0.010597	7.36812e+06	-54239.1	955.819	-29744.4	0.000000	0.000000	6.010779	0.020612	NaN	0.000000	0.001633	0.001720	28.0798	0.053206	0.000921	57.7621	-99.362	-160.736	-0.081194	0.009254	-1.060863	-1.062206	0.020612	57.7621	-1.061130	-1.506645E+14	-1.368098E-16	NaN
312	1.000000	0.018591	7.36812e+06	-54239.1	955.818	-29744.4	0.000000	0.000000	6.018771	-0.010674	NaN	0.000000	0.001609	0.001688	28.0798	0.075218	0.001658	45.3625	-5.763666	-169.835	0.010470	0.017259	-1.052869	-1.054201	-0.010674	45.3625	-1.052693	-1.160406E+14	9.198282E-17	NaN
312	1.000000	0.026594	7.36812e+06	-54239.1	955.817	-29744.4	0.000000	0.000000	6.026773	-0.037899	NaN	0.000000	0.001597	0.001686	28.0797	0.047145	0.002069	22.7884	-76.5161	-165.39	-0.053512	0.025246	-1.044866	-1.046214	-0.037899	22.7884	-1.043619	-8.762440E+13	4.325151E-16	NaN
312	1.000000	0.034573	7.36812e+06	-54239.1	955.819	-29744.4	0.000000	0.000000	6.034757	0.068038	NaN	0.000000	0.001613	0.001655	28.0798	0.031465	0.002150	14.6319	2.670398	-164.563	0.047034	0.033264	-1.036887	-1.038196	0.068038	14.6319	-1.040374	-7.925009E+13	-8.585184E-16	NaN
312	1.000000	0.042557	7.36812e+06	-54239.1	955.819	-29744.4	0.000000	0.000000	6.042736	-0.041471	NaN	0.000000	0.001584	0.001698	28.0802	0.037814	0.001909	19.8037	-9.223664	-168.761	-0.049695	0.041280	-1.028903	-1.030180	-0.041471	19.8037	-1.027333	-5.291810E+13	7.836770E-16	NaN
312	1.000000	0.050555	7.36812e+06	-54239.1	955.819	-29744.4	0.000000	0.000000	6.050739	0.086057	NaN	0.000000	0.001595	0.001695	28.08	0.056378	0.001889	29.849	179.824	-165.057	0.095480	0.049261	-1.020905	-1.022199	0.086057	29.849	-1.023068	-4.636872E+13	-1.855938E-15	NaN
312	1.000000	0.058579	7.36812e+06	-54239.1	955.818	-29744.4	0.000000	0.000000	6.058759	-0.016604	NaN	0.000000	0.001594	0.001687	28.0801	0.079063	0.001999	39.557	-43.6334	-164.851	-0.040762	0.057284	-1.012881	-1.014176	-0.016604	39.557	-1.012566	-3.349065E+13	4.957817E-16	NaN
312	1.000000	0.066581	7.36812e+06	-54239.1	955.818	-29744.4	0.000000	0.000000	6.066760	-0.036458	NaN	0.000000	0.001585	0.001676	28.0798	0.096931	0.001980	48.9501	37.1646	-167.873	-0.077516	0.065288	-1.004879	-1.006172	-0.036458	48.9501	-1.004320	-2.593765E+13	1.405585E-15	NaN
312	1.000000	0.074583	7.36812e+06	-54239.1	955.819	-29744.4	0.000000	0.000000	6.074763	-0.025807	NaN	0.000000	0.001583	0.001701	28.0799	0.079989	0.001948	41.0572	-62.8042	-164.095	-0.049089	0.073245	-0.996877	-0.998215	-0.025807	41.0572	-0.996405	-2.029393E+13	1.271651E-15	NaN
312	1.000000	0.082595	7.36812e+06	-54239.1	955.819	-29744.4	0.000000	0.000000	6.082779	0.095015	NaN	0.000000	0.001584	0.001648	28.0801	0.024880	0.001939	12.8326	64.9371	-164.104	0.048000	0.081215	-0.988865	-0.990245	0.095015	12.8326	-0.994418	-1.908161E+13	-4.979381E-15	NaN
312	1.000000	0.090591	7.36812e+06	-54239.1	955.818	-29744.4	0.000000	0.000000	6.090776	0.100048	NaN	0.000000	0.001565	0.001642	28.0797	0.084339	0.002155	39.1311	136.518	-167.451	0.083541	0.089271	-0.980869	-0.982189	0.100048	39.1311	-0.982787	-1.330313E+13	-7.520658E-15	NaN
312	1.000000	0.098570	7.36812e+06	-54239.1	955.819	-29744.4	0.000000	0.000000	6.098752	0.018382	NaN	0.000000	0.001587	0.001658	28.0786	0.029386	0.001941	15.1372	74.1272	-169.664	0.025145	0.097310	-0.972890	-0.974150	0.018382	15.1372	-0.973800	-1.006650E+13	-1.826028E-15	NaN
312	1.000000	0.106587	7.36812e+06	-54239.1	955.817	-29744.4	0.000000	0.000000	6.106766	-0.047580	NaN	0.000000	0.001589	0.001667	28.0784	0.069320	0.001990	34.8317	-92.372	-166.714	-0.042719	0.105308	-0.964873	-0.966152	-0.047580	34.8317	-0.963849	-7.391840E+12	6.436838E-15	NaN
312	1.000000	0.114589	7.36812e+06	-54239.1	955.818	-29744.4	0.000000	0.000000	6.114773	0.080216	NaN	0.000000	0.001589	0.001709	28.0785	0.061432	0.001974	31.1142	-101.371	-170.081	0.042529	0.113283	-0.956871	-0.958177	0.080216	31.1142	-0.958804	-6.320482E+12	-1.269151E-14	NaN
312	1.000000	0.122585	7.36812e+06	-54239.1	955.819	-29744.4	0.000000	0.000000	6.122768	0.072608	NaN	0.000000	0.001553	0.001668	28.0787	0.062913	0.002003	31.4065	122.891	-166.357	0.044714	0.121276	-0.948875	-0.950184	0.072608	31.4065	-0.950609	-4.900545E+12	-1.481639E-14	NaN
312	1.000000	0.130605	7.36812e+06	-54239.1	955.818	-29744.4	0.000000	0.000000	6.130787	0.010620	NaN	0.000000	0.001595	0.001653	28.0788	0.014452	0.002054	7.036077	105.922	-167.39	-0.020436	0.129293	-0.940855	-0.942167	0.010620	7.036077	-0.941987	-3.749193E+12	-2.832637E-15	NaN
312	1.000000	0.138603	7.36812e+06	-54239.1	955.819	-29744.4	0.000000	0.000000	6.138782	-0.043333	NaN	0.000000	0.001608	0.001674	28.079	0.049706	0.001917	25.9246	-79.9256	-165.351	-0.027550	0.137268	-0.932857	-0.934192	-0.043333	25.9246	-0.931604	-2.715442E+12	1.595813E-14	NaN
312	1.000000	0.146591	7.36812e+06	-54239.1	955.819	-29744.4	0.000000	0.000000	6.146772	0.012481	NaN	0.000000	0.001615	0.001670	28.0789	0.119910	0.002013	59.5733	-83.2034	-164.415	0.009850	0.145284	-0.924869	-0.926176	0.012481	59.5733	-0.925027	-2.213435E+12	-5.638655E-15	NaN
312	1.000000	0.154610	7.36812e+06	-54239.1	955.818	-29744.4	0.000000	0.000000	6.154791	0.005391	NaN	0.000000	0.001590	0.001662	28.0789	0.063517	0.001987	31.9736	-143.816	-167.186	0.039060	0.153380	-0.916850	-0.918080	0.005391	31.9736	-0.916977	-1.723400E+12	-3.128147E-15	NaN
312	1.000000	0.162592	7.36812e+06	-54239.1	955.818	-29744.4	0.000000	0.000000	6.162775	0.044911	NaN	0.000000	0.001626	0.001664	28.0788	0.059212	0.002056	28.7973	1.431569	-166.752	0.074131	0.161290	-0.908868	-0.910170	0.044911	28.7973	-0.910037	-1.388891E+12	-3.233602E-14	NaN
312	1.000000	0.170631	7.36812e+06	-54239.1	955.818	-29744.4	0.000000	0.000000	6.170811	-0.012518	NaN	0.000000	0.001557	0.001682	28.0787	0.090434	0.002119	42.6763	-131.929	-168.124	0.037832	0.169289	-0.900829	-0.902171	-0.012518	42.6763	-0.900609	-1.035851E+12	1.208512E-14	NaN
312	1.000000	0.178644	7.36812e+06	-54239.1	955.818	-29744.4	0.000000	0.000000	6.178823	-0.042471	NaN	0.000000	0.001566	0.001684	28.079	0.034941	0.002019	17.3082	103.188	-166.313	-0.086132	0.177363	-0.892816	-0.894097	-0.042471	17.3082	-0.890975	-7.675389E+11	5.533427E-14	NaN
312	1.000000	0.186611	7.36812e+06	-54239.1	955.817	-29744.4	0.000000	0.000000	6.186794	0.066060	NaN	0.000000	0.001544	0.001649	28.0787	0.095221	0.002030	46.8997	-14.8214	-164.738	0.029811	0.185307	-0.884849	-0.886153	0.066060	46.8997	-0.885905	-6.554821E+11	-1.007807E-13	NaN
312	1.000000	0.194619	7.36812e+06	-54239.1	955.817	-29744.4	0.000000	0.000000	6.194796	-0.106720	NaN	0.000000	0.001564	0.001663	28.0786	0.038170	0.002036	18.7522	-133.932	-167.657	0.004779	0.193345	-0.876840	-0.878115	-0.106720	18.7522	-0.872572	-4.327547E+11	2.466069E-13	NaN
312	1.000000	0.202625	7.36812e+06	-54239.1	955.819	-29744.4	0.000000	0.000000	6.202804	-0.025736	NaN	0.000000	0.001558	0.001677	28.0789	0.059743	0.001920	31.1173	130.156	-165.24	-0.008187	0.201285	-0.868835	-0.870175	-0.025736	31.1173	-0.868215	-3.778286E+11	6.811451E-14	NaN
312	1.000000	0.210645	7.36812e+06	-54239.1	955.817	-29744.4	0.000000	0.000000	6.210827	0.036668	NaN	0.000000	0.001637	0.001683	28.0787	0.022981	0.001984	11.583	-110.206	-166.121	-0.016961	0.209369	-0.860815	-0.862091	0.036668	11.583	-0.863190	-3.230649E+11	-1.134992E-13	NaN
312	1.000000	0.218651	7.36812e+06	-54239.1	955.818	-29744.4	0.000000	0.000000	6.218832	0.000114	NaN	0.000000	0.001624	0.001652	28.0793	0.090563	0.002020	44.8407	-147.101	-166.472	0.068030	0.217312	-0.852809	-0.854148	0.000114	44.8407	-0.852811	-2.337726E+11	-4.885186E-16	NaN
312	1.000000	0.226651	7.36812e+06	-54239.1	955.818	-29744.4	0.000000	0.000000	6.226832	0.006663	NaN	0.000000	0.001570	0.001658	28.079	0.013021	0.001959	6.645878	178.031	-167.456	0.025303	0.225298	-0.844809	-0.846162	0.006663	6.645878	-0.845561	-1.864763E+11	-3.573225E-14	NaN
312	1.000000	0.234645	7.36812e+06	-54239.1	955.818	-29744.4	0.000000	0.000000	6.234825	-0.032849	NaN	0.000000	0.001627	0.001647	28.0802	0.016002	0.001967	8.135360	-79.885	-166.683	-0.004767	0.233322	-0.836815	-0.838138	-0.032849	8.135360	-0.833787	-1.291525E+11	2.543447E-13	NaN
312	1.000000	0.242662	7.36812e+06	-54239.1	955.819	-29744.4	0.000000	0.000000	6.242843	-0.005188	NaN	0.000000	0.001631	0.001651	28.0802	0.079187	0.002085	37.9857	158.571	-165.352	-0.040078	0.241314	-0.828798	-0.830146	-0.005188	37.9857	-0.828695	-1.101796E+11	4.708787E-14	NaN
312	1.000000	0.250656	7.36812e+06	-54239.1	955.818	-29744.4	0.000000	0.000000	6.250836	-0.011457	NaN	0.000000	0.001597	0.001676	28.0801	0.093013	0.002118	43.9081	149.787	-169.33	0.032814	0.249358	-0.820804	-0.822102	-0.011457	43.9081	-0.820609	-8.559838E+10	1.338466E-13	NaN
312	1.000000	0.258652	7.36812e+06	-54239.1	955.818	-29744.4	0.000000	0.000000	6.258833	-0.001116	NaN	0.000000	0.001608	0.001660	28.0801	0.038028	0.001982	19.1858	-69.5982	-163.087	0.001919	0.257311	-0.812807	-0.814149	-0.001116	19.1858	-0.812764	-6.699880E+10	1.665579E-14	NaN
312	1.000000	0.266671	7.36812e+06	-54239.1	955.818	-29744.4	0.000000	0.000000	6.266853	0.028128	NaN	0.000000	0.001628	0.001640	28.0799	0.130662	0.002068	63.1891	-167.278	-167.678	0.012413	0.265390	-0.804789	-0.806070	0.028128	63.1891	-0.805123	-5.277118E+10	-5.330102E-13	NaN
312	1.000000	0.274653	7.36812e+06	-54239.1	955.819	-29744.4	0.000000	0.000000	6.274832	-0.024496	NaN	0.000000	0.001605	0.001646	28.0799	0.060096	0.001990	30.1966	-116.667	-168.734	-0.002148	0.273310	-0.796807	-0.798150	-0.024496	30.1966	-0.796199	-3.992644E+10	6.135234E-13	NaN
312	1.000000	0.282679	7.36812e+06	-54239.1	955.818	-29744.4	0.000000	0.000000	6.282856	-0.085057	NaN	0.000000	0.001603	0.001642	28.0798	0.027916	0.002027	13.7726	-103.026	-162.968	-0.031876	0.281395	-0.788781	-0.790065	-0.085057	13.7726	-0.784149	-2.739123E+10	3.105251E-12	NaN
312	1.000000	0.290672	7.36812e+06	-54239.1	955.818	-29744.4	0.000000	0.000000	6.290849	-0.084674	NaN	0.000000	0.001574	0.001670	28.0799	0.022572	0.002090	10.8024	177.9	-164.483	-0.058235	0.289279	-0.780788	-0.782181	-0.084674	10.8024	-0.774909	-2.051380E+10	4.127682E-12	NaN
312	1.000000	0.298668	7.36812e+06	-54239.1	955.817	-29744.4	0.000000	0.000000	6.298850	0.015987	NaN	0.000000	0.001612	0.001648	28.0799	0.043066	0.002023	21.287	54.6959	-167.816	-0.062698	0.297349	-0.772791	-0.774111	0.015987	21.287	-0.773355	-1.953950E+10	-8.182021E-13	NaN
312	1.000000	0.306669	7.36812e+06	-54239.1	955.817	-29744.4	0.000000	0.000000	6.306849	-0.008157	NaN	0.000000	0.001573	0.001682	28.08	0.048702	0.002057	23.6816	109.793	-164.692	-0.000207	0.305363	-0.764791	-0.766096	-0.008157	23.6816	-0.764533	-1.482378E+10	5.502629E-13	NaN
312	1.000000	0.314686	7.36812e+06	-54239.1	955.819	-29744.4	0.000000	0.000000	6.314870	0.073943	NaN	0.000000	0.001607	0.001659	28.0801	0.065267	0.002018	32.3421	-27.826	-165.885	0.025760	0.313391	-0.756774	-0.758069	0.073943	32.3421	-0.758489	-1.226703E+10	-6.027822E-12	NaN
312	1.000000	0.322709	7.36812e+06	-54239.1	955.818	-29744.4	0.000000	0.000000	6.322894	0.111022	NaN	0.000000	0.001611	0.001673	28.0798	0.097292	0.002124	45.81	-173.197	-168.717	0.064275	0.321347	-0.748751	-0.750113	0.111022	45.81	-0.750569	-9.571091E+9	-1.159969E-11	NaN
312	1.000000	0.330682	7.36812e+06	-54239.1	955.819	-29744.4	0.000000	0.000000	6.330860	-0.064764	NaN	0.000000	0.001588	0.001691	28.0798	0.097131	0.001957	49.6425	67.2704	-166.123	0.003198	0.329444	-0.740778	-0.742015	-0.064764	49.6425	-0.739800	-6.828563E+9	9.484282E-12	NaN
312	1.000000	0.338667	7.36812e+06	-54239.1	955.818	-29744.4	0.000000	0.000000	6.338851	0.063539	NaN	0.000000	0.001648	0.001672	28.0798	0.060172	0.001846	32.5915	-37.1075	-169.179	0.070137	0.337358	-0.732793	-0.734102	0.063539	32.5915	-0.734255	-5.738412E+9	-1.107255E-11	NaN
312	1.000000	0.346735	7.36812e+06	-54239.1	955.818	-29744.4	0.000000	0.000000	6.346915	-0.003082	NaN	0.000000	0.001600	0.001619	28.0798	0.030321	0.001951	15.5409	56.4205	-164.069	0.002895	0.345422	-0.724725	-0.726038	-0.003082	15.5409	-0.724577	-4.235240E+9	7.277760E-13	NaN
312	1.000000	0.354719	7.36812e+06	-54239.1	955.818	-29744.4	0.000000	0.000000	6.354899	-0.032745	NaN	0.000000	0.001601	0.001610	28.08	0.119795	0.001996	60.0247	138.026	-168.441	-0.099635	0.353403	-0.716741	-0.718057	-0.032745	60.0247	-0.716331	-3.269155E+9	1.001631E-11	NaN
312	1.000000	0.362725	7.36812e+06	-54239.1	955.818	-29744.4	0.000000	0.000000	6.362906	0.012537	NaN	0.000000	0.001625	0.001601	28.0799	0.109689	0.002078	52.7883	-112.95	-166.705	-0.011209	0.361414	-0.708735	-0.710046	0.012537	52.7883	-0.708913	-2.589502E+9	-4.841556E-12	NaN
312	1.000000	0.370655	7.36812e+06	-54239.1	955.818	-29744.4	0.000000	0.000000	6.370837	0.043006	NaN	0.000000	0.001617	0.001640	28.0789	0.107101	0.002103	50.9234	-101.797	-165.609	-0.008867	0.369437	-0.700805	-0.702023	0.043006	50.9234	-0.701439	-2.047283E+9	-2.100654E-11	NaN
312	1.000000	0.378709	7.36812e+06	-54239.1	955.819	-29744.4	0.000000	0.000000	6.378890	0.011010	NaN	0.000000	0.001602	0.001632	28.0786	0.064954	0.002031	31.9764	-21.6574	-167.059	0.016740	0.377442	-0.692751	-0.694018	0.011010	31.9764	-0.693009	-1.570491E+9	-7.010785E-12	NaN
312	1.000000	0.386707	7.36812e+06	-54239.1	955.817	-29744.4	0.000000	0.000000	6.386886	-0.025189	NaN	0.000000	0.001597	0.001660	28.0786	0.107260	0.002017	53.1757	-86.2274	-162.707	-0.059094	0.385394	-0.684753	-0.686066	-0.025189	53.1757	-0.684398	-1.197689E+9	2.103168E-11	NaN
312	1.000000	0.394725	7.36812e+06	-54239.1	955.819	-29744.4	0.000000	0.000000	6.394906	0.002158	NaN	0.000000	0.001594	0.001650	28.0787	0.056382	0.001925	29.2826	-63.2001	-167.456	-0.028773	0.393363	-0.676735	-0.678096	0.002158	29.2826	-0.676790	-9.425479E+8	-2.289175E-12	NaN
312	1.000000	0.402715	7.36812e+06	-54239.1	955.818	-29744.4	0.000000	0.000000	6.402896	0.010856	NaN	0.000000	0.001616	0.001667	28.0788	0.127877	0.002011	63.5779	-171.231	-165.015	-0.025830	0.401371	-0.668745	-0.670089	0.010856	63.5779	-0.668873	-7.344534E+8	-1.478054E-11	NaN
312	1.000000	0.410700	7.36812e+06	-54239.1	955.818	-29744.4	0.000000	0.000000	6.410884	0.070506	NaN	0.000000	0.001572	0.001600	28.0797	0.050918	0.001940	26.2403	-101.935	-167.067	0.097797	0.409407	-0.660760	-0.662053	0.070506	26.2403	-0.662775	-6.060000E+8	-1.163470E-10	NaN
312	1.000000	0.418715	7.36812e+06	-54239.1	955.818	-29744.4	0.000000	0.000000	6.418896	-0.006897	NaN	0.000000	0.001568	0.001631	28.0788	0.084424	0.001976	42.7307	21.4048	-168.356	0.047302	0.417377	-0.652744	-0.654083	-0.006897	42.7307	-0.652623	-4.399433E+8	1.567630E-11	NaN
312	1.000000	0.426732	7.36812e+06	-54239.1	955.819	-29744.4	0.000000	0.000000	6.426913	-0.011134	NaN	0.000000	0.001598	0.001641	28.0788	0.052029	0.002007	25.9221	150.538	-165.166	-0.002506	0.425391	-0.644728	-0.646069	-0.011134	25.9221	-0.644405	-3.394086E+8	3.280463E-11	NaN
312	1.000000	0.434745	7.36812e+06	-54239.1	955.818	-29744.4	0.000000	0.000000	6.434924	-0.035217	NaN	0.000000	0.001586	0.001637	28.0787	0.071783	0.002122	33.8268	103.373	-165.174	0.015144	0.433439	-0.636715	-0.638021	-0.035217	33.8268	-0.635935	-2.597161E+8	1.355977E-10	NaN
312	1.000000	0.442731	7.36812e+06	-54239.1	955.819	-29744.4	0.000000	0.000000	6.442913	0.017084	NaN	0.000000	0.001617	0.001651	28.0787	0.055479	0.001969	28.1814	150.932	-164.556	0.039473	0.441389	-0.628729	-0.630071	0.017084	28.1814	-0.629183	-2.098023E+8	-8.142947E-11	NaN
312	1.000000	0.450760	7.36812e+06	-54239.1	955.818	-29744.4	0.000000	0.000000	6.450944	0.054420	NaN	0.000000	0.001599	0.001645	28.0791	0.061644	0.001893	32.5601	-73.0007	-168.328	0.081462	0.449461	-0.620700	-0.621999	0.054420	32.5601	-0.621953	-1.669077E+8	-3.260492E-10	NaN
312	1.000000	0.458749	7.36812e+06	-54239.1	955.819	-29744.4	0.000000	0.000000	6.458930	0.023174	NaN	0.000000	0.001615	0.001651	28.0788	0.048912	0.002067	23.6647	159.218	-164.13	0.070508	0.457417	-0.612711	-0.614043	0.023174	23.6647	-0.613446	-1.275017E+8	-1.817572E-10	NaN
312	1.000000	0.466751	7.36812e+06	-54239.1	955.819	-29744.4	0.000000	0.000000	6.466929	-0.073765	NaN	0.000000	0.001601	0.001634	28.0791	0.050281	0.002000	25.1413	-79.8597	-167.013	-0.075415	0.465418	-0.604709	-0.606042	-0.073765	25.1413	-0.602508	-9.015680E+7	8.181851E-10	NaN
312	1.000000	0.474764	7.36812e+06	-54239.1	955.818	-29744.4	0.000000	0.000000	6.474945	0.002881	NaN	0.000000	0.001622	0.001674	28.0791	0.049798	0.001873	26.5879	-165.246	-164.549	0.017223	0.473418	-0.596696	-0.598042	0.002881	26.5879	-0.596777	-7.517413E+7	-3.832161E-11	NaN
312	1.000000	0.482753	7.36812e+06	-54239.1	955.818	-29744.4	0.000000	0.000000	6.482934	-0.002776	NaN	0.000000	0.001609	0.001643	28.0789	0.068949	0.002084	33.0805	119.33	-168.362	-0.024465	0.481449	-0.588707	-0.590011	-0.002776	33.0805	-0.588644	-5.807185E+7	4.781059E-11	NaN
312	1.000000	0.490751	7.36812e+06	-54239.1	955.818	-29744.4	0.000000	0.000000	6.490933	0.022964	NaN	0.000000	0.001633	0.001661	28.0791	0.037942	0.001937	19.5829	13.7204	-163.308	-0.002175	0.489436	-0.580709	-0.582024	0.022964	19.5829	-0.581588	-4.641343E+7	-4.947692E-10	NaN
312	1.000000	0.498751	7.36812e+06	-54239.1	955.817	-29744.4	0.000000	0.000000	6.498934	0.049755	NaN	0.000000	0.001639	0.001674	28.0788	0.071424	0.001864	38.3103	-128.418	-165.703	-0.004446	0.497477	-0.572709	-0.573983	0.049755	38.3103	-0.573683	-3.610003E+7	-1.378267E-9	NaN
312	1.000000	0.506758	7.36812e+06	-54239.1	955.819	-29744.4	0.000000	0.000000	6.506937	-0.042840	NaN	0.000000	0.001648	0.001658	28.0804	0.081255	0.002037	39.8862	-155.868	-168.182	0.006869	0.505493	-0.564702	-0.565967	-0.042840	39.8862	-0.563896	-2.644016E+7	1.620270E-9	NaN
312	1.000000	0.514728	7.36812e+06	-54239.1	955.818	-29744.4	0.000000	0.000000	6.514909	0.018103	NaN	0.000000	0.001617	0.001662	28.0802	0.074271	0.002120	35.0296	-12.4443	-164.694	-0.058911	0.513443	-0.556732	-0.558017	0.018103	35.0296	-0.557120	-2.130725E+7	-8.496350E-10	NaN
312	1.000000	0.522765	7.36812e+06	-54239.1	955.818	-29744.4	0.000000	0.000000	6.522949	0.056854	NaN	0.000000	0.001628	0.001650	28.0801	0.072623	0.002056	35.3228	-42.9365	-168.676	0.134618	0.521486	-0.548695	-0.549974	0.056854	35.3228	-0.549902	-1.692757E+7	-3.358654E-9	NaN
312	1.000000	0.530783	7.36812e+06	-54239.1	955.819	-29744.4	0.000000	0.000000	6.530965	0.027029	NaN	0.000000	0.001637	0.001682	28.0802	0.075106	0.002041	36.7943	165.197	-168.023	-0.018766	0.529485	-0.540677	-0.541975	0.027029	36.7943	-0.541228	-1.283460E+7	-2.105937E-9	NaN
312	1.000000	0.538780	7.36812e+06	-54239.1	955.818	-29744.4	0.000000	0.000000	6.538962	0.020397	NaN	0.000000	0.001614	0.001653	28.0799	0.145684	0.001948	74.7681	9.390089	-165.259	0.025412	0.537460	-0.532680	-0.534000	0.020397	74.7681	-0.532884	-9.83154e+06	-2.074601E-9	NaN
312	1.000000	0.546783	7.36812e+06	-54239.1	955.818	-29744.4	0.000000	0.000000	6.546965	0.013311	NaN	0.000000	0.001630	0.001666	28.0802	0.139774	0.002061	67.812	170.163	-165.558	-0.109187	0.545483	-0.524677	-0.525976	0.013311	67.812	-0.524824	-7.59736e+06	-1.752042E-9	NaN
312	1.000000	0.554812	7.36812e+06	-54239.1	955.818	-29744.4	0.000000	0.000000	6.554992	-0.021667	NaN	0.000000	0.001625	0.001642	28.0801	0.024961	0.002055	12.149	-25.7723	-168.015	0.054813	0.553401	-0.516648	-0.518059	-0.021667	12.149	-0.515310	-5.60209e+06	3.867714E-9	NaN
312	1.000000	0.562804	7.36812e+06	-54239.1	955.818	-29744.4	0.000000	0.000000	6.562988	0.079555	NaN	0.000000	0.001655	0.001653	28.0799	0.057482	0.001982	29.0068	119.459	-166.192	0.095642	0.561474	-0.508656	-0.509986	0.079555	29.0068	-0.510713	-4.83439e+06	-1.645602E-8	NaN
312	1.000000	0.570796	7.36812e+06	-54239.1	955.817	-29744.4	0.000000	0.000000	6.570979	0.042797	NaN	0.000000	0.001656	0.001642	28.0798	0.077993	0.001901	41.0323	179.238	-168.415	0.028681	0.569466	-0.500663	-0.501994	0.042797	41.0323	-0.501446	-3.59075e+06	-1.191856E-8	NaN
312	1.000000	0.578807	7.36812e+06	-54239.1	955.819	-29744.4	0.000000	0.000000	6.578984	-0.096459	NaN	0.000000	0.001583	0.001654	28.0799	0.062698	0.001999	31.3673	10.5426	-169.529	-0.054784	0.577466	-0.492653	-0.493994	-0.096459	31.3673	-0.490347	-2.51325e+06	3.838013E-8	NaN
312	1.000000	0.586809	7.36812e+06	-54239.1	955.819	-29744.4	0.000000	0.000000	6.586989	-0.022213	NaN	0.000000	0.001572	0.001627	28.0801	0.061890	0.001881	32.8982	-26.5276	-162.438	-0.059477	0.585507	-0.484651	-0.485952	-0.022213	32.8982	-0.484145	-2.05841e+06	1.079119E-8	NaN
312	1.000000	0.594787	7.36812e+06	-54239.1	955.818	-29744.4	0.000000	0.000000	6.594967	-0.043328	NaN	0.000000	0.001601	0.001620	28.0801	0.099871	0.001881	53.1035	159.029	-165.149	-0.048647	0.593435	-0.476672	-0.478025	-0.043328	53.1035	-0.476061	-1.5862e+06	2.731551E-8	NaN
312	1.000000	0.602818	7.36812e+06	-54239.1	955.819	-29744.4	0.000000	0.000000	6.602998	-0.025801	NaN	0.000000	0.001627	0.001663	28.0802	0.068127	0.001917	35.545	131.625	-164.461	-0.039402	0.601489	-0.468642	-0.469971	-0.025801	35.545	-0.468097	-1.22664e+06	2.103418E-8	NaN
312	1.000000	0.610801	7.36812e+06	-54239.1	955.818	-29744.4	0.000000	0.000000	6.610984	0.043920	NaN	0.000000	0.001614	0.001625	28.0801	0.074570	0.002165	34.447	115.829	-163.952	-0.009117	0.609455	-0.460659	-0.462005	0.043920	34.447	-0.461615	-994746	-4.415215E-8	NaN
312	1.000000	0.618810	7.36812e+06	-54239.1	955.819	-29744.4	0.000000	0.000000	6.618993	0.067132	NaN	0.000000	0.001617	0.001670	28.0802	0.135354	0.002025	66.8506	-121.233	-165.532	0.019217	0.617479	-0.452650	-0.453981	0.067132	66.8506	-0.453403	-762521	-8.803981E-8	NaN
312	1.000000	0.626799	7.36812e+06	-54239.1	955.818	-29744.4	0.000000	0.000000	6.626981	0.042650	NaN	0.000000	0.001616	0.001643	28.0803	0.129367	0.002084	62.0635	157.77	-166.311	-0.024512	0.625495	-0.444661	-0.445965	0.042650	62.0635	-0.445177	-583959	-7.303623E-8	NaN
312	1.000000	0.634778	7.36812e+06	-54239.1	955.817	-29744.4	0.000000	0.000000	6.634961	0.070179	NaN	0.000000	0.001634	0.001665	28.0801	0.084626	0.001955	43.285	1.428959	-166.779	0.045583	0.633473	-0.436682	-0.437987	0.070179	43.285	-0.437898	-460993	-1.522356E-7	NaN
312	1.000000	0.642803	7.36812e+06	-54239.1	955.819	-29744.4	0.000000	0.000000	6.642984	-0.009688	NaN	0.000000	0.001623	0.001673	28.0792	0.069032	0.002119	32.5721	15.6282	-164.195	0.012756	0.641490	-0.428657	-0.429970	-0.009688	32.5721	-0.428434	-338763	2.859894E-8	NaN
312	1.000000	0.650809	7.36812e+06	-54239.1	955.817	-29744.4	0.000000	0.000000	6.650989	-0.023003	NaN	0.000000	0.001607	0.001685	28.0788	0.052204	0.002130	24.5136	-87.3157	-166.007	-0.003920	0.649529	-0.420651	-0.421931	-0.023003	24.5136	-0.419948	-256845	8.955905E-8	NaN
312	1.000000	0.658811	7.36812e+06	-54239.1	955.818	-29744.4	0.000000	0.000000	6.658993	0.006355	NaN	0.000000	0.001606	0.001645	28.0789	0.086079	0.002053	41.9333	167.356	-167.778	-0.042468	0.657504	-0.412648	-0.413956	0.006355	41.9333	-0.412762	-203079	-3.129521E-8	NaN
312	1.000000	0.666835	7.36812e+06	-54239.1	955.817	-29744.4	0.000000	0.000000	6.667018	0.041472	NaN	0.000000	0.001626	0.001676	28.0789	0.069887	0.001882	37.1313	91.4199	-167.426	0.017478	0.665531	-0.404625	-0.405929	0.041472	37.1313	-0.405462	-159895	-2.593685E-7	NaN
312	1.000000	0.674847	7.36812e+06	-54239.1	955.818	-29744.4	0.000000	0.000000	6.675029	0.030670	NaN	0.000000	0.001609	0.001628	28.0789	0.081543	0.001895	43.02	8.403727	-169.698	0.017415	0.673553	-0.396613	-0.397907	0.030670	43.02	-0.397148	-121704	-2.520082E-7	NaN
312	1.000000	0.682843	7.36812e+06	-54239.1	955.818	-29744.4	0.000000	0.000000	6.683024	-0.000116	NaN	0.000000	0.001612	0.001693	28.0793	0.036662	0.001888	19.4196	-6.298043	-167.487	-0.055728	0.681487	-0.388617	-0.389973	-0.000116	19.4196	-0.388612	-91899.8	1.266018E-9	NaN
312	1.000000	0.690835	7.36812e+06	-54239.1	955.818	-29744.4	0.000000	0.000000	6.691015	-0.037031	NaN	0.000000	0.001599	0.001666	28.0789	0.085617	0.002016	42.462	92.7946	-164.751	-0.003055	0.689527	-0.380625	-0.381933	-0.037031	42.462	-0.379970	-69098.1	5.359236E-7	NaN
312	1.000000	0.698828	7.36812e+06	-54239.1	955.818	-29744.4	0.000000	0.000000	6.699011	0.052731	NaN	0.000000	0.001654	0.001668	28.0792	0.074628	0.002090	35.7031	-152.734	-168.922	0.037430	0.697586	-0.372632	-0.373874	0.052731	35.7031	-0.373740	-56227.4	-9.378083E-7	NaN
312	1.000000	0.706860	7.36812e+06	-54239.1	955.819	-29744.4	0.000000	0.000000	6.707042	0.023257	NaN	0.000000	0.001664	0.001661	28.0789	0.114799	0.001897	60.5258	-44.3621	-167.874	0.065289	0.705502	-0.364600	-0.365958	0.023257	60.5258	-0.364888	-41921.7	-5.547833E-7	NaN
312	1.000000	0.714854	7.36812e+06	-54239.1	955.818	-29744.4	0.000000	0.000000	6.715035	0.024594	NaN	0.000000	0.001655	0.001703	28.0788	0.019926	0.002126	9.373184	-66.1661	-165.784	0.078332	0.713541	-0.356606	-0.357919	0.024594	9.373184	-0.358574	-33980.6	-7.237597E-7	NaN
312	1.000000	0.722829	7.36812e+06	-54239.1	955.819	-29744.4	0.000000	0.000000	6.723011	0.016601	NaN	0.000000	0.001675	0.001635	28.0791	0.048522	0.001936	25.0646	-62.1109	-167.153	0.114421	0.721575	-0.348631	-0.349885	0.016601	25.0646	-0.349128	-24793.5	-6.695521E-7	NaN
312	1.000000	0.730854	7.36812e+06	-54239.1	955.818	-29744.4	0.000000	0.000000	6.731034	-0.009059	NaN	0.000000	0.001655	0.001683	28.0789	0.047054	0.001829	25.7269	-173.445	-166.05	0.022329	0.729574	-0.340606	-0.341886	-0.009059	25.7269	-0.340342	-18473	4.903644E-7	NaN
312	1.000000	0.738874	7.36812e+06	-54239.1	955.818	-29744.4	0.000000	0.000000	6.739056	0.038674	NaN	0.000000	0.001688	0.001644	28.0792	0.087265	0.001978	44.1186	42.3933	-165.12	0.020169	0.737549	-0.332586	-0.333911	0.038674	44.1186	-0.333244	-14551.7	-2.657705E-6	NaN
312	1.000000	0.746868	7.36812e+06	-54239.1	955.818	-29744.4	0.000000	0.000000	6.747045	-0.084537	NaN	0.000000	0.001677	0.001669	28.0788	0.076426	0.001978	38.6335	168.549	-165.284	-0.123775	0.745584	-0.324592	-0.325876	-0.084537	38.6335	-0.322951	-10281.1	8.222548E-6	NaN
312	1.000000	0.754843	7.36812e+06	-54239.1	955.818	-29744.4	0.000000	0.000000	6.755022	-0.045900	NaN	0.000000	0.001655	0.001671	28.0788	0.058746	0.002001	29.3565	26.5594	-168.699	-0.029722	0.753605	-0.316617	-0.317855	-0.045900	29.3565	-0.315445	-7970.94	5.758433E-6	NaN
312	1.000000	0.762858	7.36812e+06	-54239.1	955.819	-29744.4	0.000000	0.000000	6.763036	-0.066838	NaN	0.000000	0.001670	0.001655	28.0789	0.123587	0.001871	66.0571	-119.86	-168.34	-0.153780	0.761582	-0.308602	-0.309877	-0.066838	66.0571	-0.307843	-6153.45	1.086193E-5	NaN
312	1.000000	0.770854	7.36812e+06	-54239.1	955.819	-29744.4	0.000000	0.000000	6.771035	-0.006644	NaN	0.000000	0.001651	0.001662	28.0788	0.057336	0.002007	28.5692	-60.5366	-165.561	-0.033916	0.769588	-0.300606	-0.301872	-0.006644	28.5692	-0.300431	-4775.89	1.391235E-6	NaN
312	1.000000	0.778865	7.36812e+06	-54239.1	955.819	-29744.4	0.000000	0.000000	6.779048	0.055457	NaN	0.000000	0.001650	0.001656	28.0798	0.031152	0.001916	16.2607	154.978	-165.827	0.010322	0.777571	-0.292595	-0.293889	0.055457	16.2607	-0.295153	-3984.53	-1.391812E-5	NaN
312	1.000000	0.786851	7.36812e+06	-54239.1	955.818	-29744.4	0.000000	0.000000	6.787028	-0.098192	NaN	0.000000	0.001673	0.001685	28.0799	0.044059	0.001887	23.3433	-135.955	-167.455	-0.125899	0.785570	-0.284609	-0.285889	-0.098192	23.3433	-0.281454	-2482.55	3.955301E-5	NaN
312	1.000000	0.794875	7.36812e+06	-54239.1	955.818	-29744.4	0.000000	0.000000	6.795056	-0.014523	NaN	0.000000	0.001676	0.001683	28.0799	0.095437	0.002053	46.4798	16.9305	-163.411	0.013141	0.793527	-0.276585	-0.277933	-0.014523	46.4798	-0.276350	-2078.92	6.985859E-6	NaN
312	1.000000	0.802900	7.36812e+06	-54239.1	955.818	-29744.4	0.000000	0.000000	6.803082	0.030545	NaN	0.000000	0.001670	0.001698	28.0799	0.096470	0.001987	48.5463	-121.303	-166.009	-0.023843	0.801561	-0.268560	-0.269899	0.030545	48.5463	-0.269032	-1610	-1.897206E-5	NaN
312	1.000000	0.810878	7.36812e+06	-54239.1	955.818	-29744.4	0.000000	0.000000	6.811059	-0.000140	NaN	0.000000	0.001641	0.001661	28.08	0.111043	0.001918	57.8941	121.468	-161.663	-0.018979	0.809573	-0.260582	-0.261887	-0.000140	57.8941	-0.260580	-1196.2	1.166953E-7	NaN
312	1.000000	0.818858	7.36812e+06	-54239.1	955.819	-29744.4	0.000000	0.000000	6.819039	-0.003619	NaN	0.000000	0.001680	0.001711	28.0803	0.042412	0.002000	21.2103	-77.6801	-168.793	-0.030227	0.817549	-0.252602	-0.253911	-0.003619	21.2103	-0.252474	-897.816	4.030602E-6	NaN
312	1.000000	0.826884	7.36812e+06	-54239.1	955.818	-29744.4	0.000000	0.000000	6.827065	0.010955	NaN	0.000000	0.001679	0.001688	28.0799	0.045884	0.002018	22.7344	-114.485	-168.552	-0.016825	0.825614	-0.244576	-0.245846	0.010955	22.7344	-0.244937	-686.243	-1.596373E-5	NaN
312	1.000000	0.834885	7.36812e+06	-54239.1	955.819	-29744.4	0.000000	0.000000	6.835065	-0.017469	NaN	0.000000	0.001650	0.001680	28.0801	0.068226	0.002007	33.9921	79.5306	-166.927	0.058521	0.833554	-0.236575	-0.237906	-0.017469	33.9921	-0.236190	-501.096	3.486215E-5	NaN
312	1.000000	0.842907	7.36812e+06	-54239.1	955.818	-29744.4	0.000000	0.000000	6.843092	0.086537	NaN	0.000000	0.001675	0.001682	28.08	0.129884	0.001939	66.9888	70.034	-164.085	0.027565	0.841594	-0.228552	-0.229866	0.086537	66.9888	-0.229521	-393.511	-0.000220	NaN
312	1.000000	0.850889	7.36812e+06	-54239.1	955.818	-29744.4	0.000000	0.000000	6.851072	0.055584	NaN	0.000000	0.001627	0.001677	28.0799	0.093188	0.001961	47.5305	17.8788	-168.779	0.054533	0.849637	-0.220571	-0.221823	0.055584	47.5305	-0.221448	-292.948	-0.000190	NaN
312	1.000000	0.858904	7.36812e+06	-54239.1	955.819	-29744.4	0.000000	0.000000	6.859087	0.059640	NaN	0.000000	0.001667	0.001669	28.0801	0.095090	0.002099	45.3128	173.211	-168.588	0.033335	0.857634	-0.212556	-0.213825	0.059640	45.3128	-0.213543	-218.806	-0.000273	NaN
312	1.000000	0.866875	7.36812e+06	-54239.1	955.819	-29744.4	0.000000	0.000000	6.867058	0.067258	NaN	0.000000	0.001656	0.001688	28.0801	0.126550	0.001950	64.8936	71.1744	-165.398	-0.072942	0.865572	-0.204585	-0.205888	0.067258	64.8936	-0.205362	-161.239	-0.000417	NaN
312	1.000000	0.874912	7.36812e+06	-54239.1	955.818	-29744.4	0.000000	0.000000	6.875091	-0.053845	NaN	0.000000	0.001635	0.001694	28.0803	0.092559	0.001956	47.324	-148.437	-165.048	-0.132567	0.873583	-0.196548	-0.197877	-0.053845	47.324	-0.195694	-111.866	0.000481	NaN
312	1.000000	0.882914	7.36812e+06	-54239.1	955.818	-29744.4	0.000000	0.000000	6.883092	-0.055254	NaN	0.000000	0.001671	0.001677	28.0801	0.069240	0.001925	35.9752	-169.836	-167.685	-0.094553	0.881581	-0.188546	-0.189879	-0.055254	35.9752	-0.187394	-81.3584	0.000679	NaN
312	1.000000	0.890878	7.36812e+06	-54239.1	955.818	-29744.4	0.000000	0.000000	6.891060	0.037571	NaN	0.000000	0.001625	0.001698	28.0801	0.133428	0.001722	77.4911	131.729	-169.384	0.037738	0.889607	-0.180582	-0.181853	0.037571	77.4911	-0.180946	-63.32	-0.000593	NaN
312	1.000000	0.898912	7.36812e+06	-54239.1	955.819	-29744.4	0.000000	0.000000	6.899091	-0.039575	NaN	0.000000	0.001663	0.001693	28.08	0.014233	0.002126	6.695481	21.1927	-168.906	-0.041458	0.897644	-0.172548	-0.173816	-0.039575	6.695481	-0.168115	-38.0898	0.001039	NaN
312	1.000000	0.906893	7.36812e+06	-54239.1	955.818	-29744.4	0.000000	0.000000	6.907072	-0.028836	NaN	0.000000	0.001690	0.001661	28.0801	0.032305	0.002058	15.6976	-21.6056	-170.794	0.031176	0.905631	-0.164567	-0.165829	-0.028836	15.6976	-0.163190	-31.221	0.000924	NaN
312	1.000000	0.914933	7.36812e+06	-54239.1	955.818	-29744.4	0.000000	0.000000	6.915114	0.017126	NaN	0.000000	0.001657	0.001670	28.0798	0.072406	0.001969	36.7647	3.907961	-167.87	0.008057	0.913641	-0.156527	-0.157819	0.017126	36.7647	-0.156877	-24.1139	-0.000710	NaN
312	1.000000	0.922935	7.36812e+06	-54239.1	955.818	-29744.4	0.000000	0.000000	6.923118	0.032467	NaN	0.000000	0.001649	0.001712	28.0789	0.067487	0.001989	33.9377	-9.547415	-163.295	0.074642	0.921626	-0.148524	-0.149834	0.032467	33.9377	-0.149242	-17.5455	-0.001850	NaN
312	1.000000	0.930955	7.36812e+06	-54239.1	955.819	-29744.4	0.000000	0.000000	6.931136	-0.002925	NaN	0.000000	0.001655	0.001690	28.0791	0.093106	0.001940	47.9978	-133.065	-166.139	0.042753	0.929648	-0.140505	-0.141812	-0.002925	47.9978	-0.140459	-12.0666	0.000242	NaN
312	1.000000	0.938928	7.36812e+06	-54239.1	955.818	-29744.4	0.000000	0.000000	6.939109	-0.006462	NaN	0.000000	0.001651	0.001640	28.0789	0.074380	0.001937	38.3982	-127.978	-168.041	-0.049287	0.937616	-0.132532	-0.133844	-0.006462	38.3982	-0.132406	-8.482863	0.000762	NaN
312	1.000000	0.946970	7.36812e+06	-54239.1	955.819	-29744.4	0.000000	0.000000	6.947152	0.017579	NaN	0.000000	0.001657	0.001674	28.079	0.119168	0.001937	61.5313	-137.54	-166.365	0.067665	0.945586	-0.124490	-0.125874	0.017579	61.5313	-0.124704	-5.999821	-0.002930	NaN
312	1.000000	0.954947	7.36812e+06	-54239.1	955.817	-29744.4	0.000000	0.000000	6.955127	-0.004226	NaN	0.000000	0.001612	0.001672	28.0789	0.036670	0.001982	18.5001	62.8951	-166.546	0.047787	0.953664	-0.116513	-0.117796	-0.004226	18.5001	-0.116342	-4.070886	0.001038	NaN
312	1.000000	0.962975	7.36812e+06	-54239.1	955.818	-29744.4	0.000000	0.000000	6.963155	-0.018670	NaN	0.000000	0.001616	0.001702	28.0789	0.134058	0.002112	63.4873	98.3139	-167.249	0.030384	0.961570	-0.108485	-0.109890	-0.018670	63.4873	-0.108264	-2.761358	0.006761	NaN
312	1.000000	0.970957	7.36812e+06	-54239.1	955.819	-29744.4	0.000000	0.000000	6.971138	-0.013402	NaN	0.000000	0.001608	0.001671	28.0792	0.017568	0.002025	8.673729	49.4701	-170.857	0.006456	0.969625	-0.100503	-0.101835	-0.013402	8.673729	-0.099344	-1.766852	0.007585	NaN
312	1.000000	0.978968	7.36812e+06	-54239.1	955.82	-29744.4	0.000000	0.000000	6.979147	-0.044645	NaN	0.000000	0.001624	0.001694	28.0786	0.093653	0.001984	47.2128	151.427	-166.396	-0.126770	0.977672	-0.092492	-0.093788	-0.044645	47.2128	-0.091783	-1.189655	0.037528	NaN
312	1.000000	0.986962	7.36812e+06	-54239.1	955.819	-29744.4	0.000000	0.000000	6.987144	0.027360	NaN	0.000000	0.001592	0.001650	28.0788	0.034405	0.002018	17.0479	109.994	-167.063	0.042232	0.985682	-0.084497	-0.085778	0.027360	17.0479	-0.085701	-0.854300	-0.032026	NaN
312	1.000000	0.994994	7.36812e+06	-54239.1	955.819	-29744.4	0.000000	0.000000	6.995173	-0.029509	NaN	0.000000	0.001676	0.001717	28.0785	0.089655	0.001963	45.6609	-109.73	-168.237	0.000305	0.993633	-0.076466	-0.077827	-0.029509	45.6609	-0.075981	-0.489583	0.060275	NaN
312	1.000000	1.003003	7.36812e+06	-54239.1	955.819	-29744.4	0.000000	0.000000	7.003184	0.000343	NaN	0.000000	0.001646	0.001713	28.0786	0.043429	0.001990	21.8246	-48.5185	-170.827	-0.005774	1.001705	-0.068457	-0.069755	0.000343	21.8246	-0.068469	-0.310206	-0.001105	NaN
312	1.000000	1.010976	7.36812e+06	-54239.1	955.82	-29744.4	0.000000	0.000000	7.011157	0.011306	NaN	0.000000	0.001629	0.001691	28.0788	0.043195	0.001900	22.739	133.947	-168.706	-0.030637	1.009692	-0.060484	-0.061768	0.011306	22.739	-0.060857	-0.190550	-0.059336	NaN
312	1.000000	1.019007	7.36812e+06	-54239.1	955.818	-29744.4	0.000000	0.000000	7.019189	0.026733	NaN	0.000000	0.001644	0.001675	28.0785	0.072915	0.002091	34.8714	117.333	-167.94	0.009678	1.017665	-0.052453	-0.053795	0.026733	34.8714	-0.053028	-0.112523	-0.237581	NaN
312	1.000000	1.026970	7.36812e+06	-54239.1	955.82	-29744.4	0.000000	0.000000	7.027152	0.028161	NaN	0.000000	0.001622	0.001671	28.0788	0.067160	0.001990	33.7566	178.792	-164.457	0.039989	1.025643	-0.044490	-0.045817	0.028161	33.7566	-0.045116	-0.064795	-0.434618	NaN
312	1.000000	1.034984	7.36812e+06	-54239.1	955.82	-29744.4	0.000000	0.000000	7.035163	-0.042004	NaN	0.000000	0.001607	0.001654	28.0786	0.019848	0.001958	10.1379	83.8832	-163.752	-0.019378	1.033682	-0.036476	-0.037778	-0.042004	10.1379	-0.033369	-0.028695	1.463805	NaN
312	1.000000	1.042975	7.36812e+06	-54239.1	955.819	-29744.4	0.000000	0.000000	7.043153	-0.078901	NaN	0.000000	0.001611	0.001678	28.0785	0.007103	0.002087	3.403209	-100.344	-163.605	-0.073891	1.041681	-0.028485	-0.029779	-0.078901	3.403209	-0.011097	-0.007013	11.2503	NaN
312	1.000000	1.050999	7.36812e+06	-54239.1	955.819	-29744.4	0.000000	0.000000	7.051181	0.029372	NaN	0.000000	0.001614	0.001692	28.0791	0.029730	0.002168	13.7106	95.861	-166.722	0.069553	1.049677	-0.020461	-0.021783	0.029372	13.7106	-0.022068	-0.014178	-2.071730	NaN
312	1.000000	1.058966	7.36812e+06	-54239.1	955.819	-29744.4	0.000000	0.000000	7.059147	-0.018047	NaN	0.000000	0.001635	0.001732	28.0798	0.088262	0.001957	45.0938	164.345	-166.553	-0.037439	1.057659	-0.012494	-0.013801	-0.018047	45.0938	-0.012193	-0.007639	2.362412	NaN
312	1.000000	1.066990	7.36812e+06	-54239.1	955.82	-29744.4	0.000000	0.000000	7.067169	-0.035164	NaN	0.000000	0.001630	0.001715	28.0798	0.035370	0.001893	18.6824	84.8839	-163.616	-0.070986	1.065647	-0.004470	-0.005813	-0.035164	18.6824	-0.003059	-0.002160	16.2822	NaN
312	1.000000	1.074964	7.36812e+06	-54239.1	955.818	-29744.4	0.000000	0.000000	7.075246	2.455135	NaN	0.000000	0.001612	0.001727	28.0796	3.117354	0.001843	1691.28	9.927699	-173.712	1.003040	1.073641	0.003504	0.002181	2.455135	1691.28	0.002415	0.001893	1296.76	35512.5
312	2.000000	1.082398	7.36812e+06	-54239.1	955.818	-29744.4	0.000000	0.000000	7.082979	9.709005	NaN	0.000000	0.001596	0.001698	28.0797	10.1369	0.001640	6180.29	9.292427	-177.021	8.938139	1.081585	0.010938	0.010125	9.709005	6180.29	0.009760	0.008916	1088.91	59798.4
312	2.000000	1.084500	7.36812e+06	-54239.1	955.818	-29744.4	0.000000	0.000000	7.085214	12.9622	NaN	0.000000	0.001595	0.001695	28.08	11.3966	0.001470	7750.7	1.336821	-171.88	11.5989	1.084216	0.013040	0.012756	12.9622	7750.7	0.011786	0.011235	1153.76	66808.7
312	2.000000	1.086481	7.36812e+06	-54239.1	955.819	-29744.4	0.000000	0.000000	7.087217	13.5006	NaN	0.000000	0.001606	0.001732	28.0795	14.4227	0.001810	7966.97	7.776694	-176.56	12.8388	1.086181	0.015021	0.014721	13.5006	7966.97	0.013750	0.013655	988.73	62291.4
312	2.000000	1.088518	7.36812e+06	-54239.1	955.818	-29744.4	0.000000	0.000000	7.089489	19.2117	NaN	0.000000	0.001572	0.001710	28.0806	16.408	0.001586	10343.6	0.426205	-172.067	18.9657	1.088174	0.017058	0.016714	19.2117	10343.6	0.015665	0.016183	1187.16	74288.1
312	2.000000	1.090491	7.36812e+06	-54239.1	955.818	-29744.4	0.000000	0.000000	7.091576	21.9927	NaN	0.000000	0.001580	0.001670	28.0798	18.3426	0.001749	10486.7	7.234437	-178.989	21.4268	1.090150	0.019031	0.018690	21.9927	10486.7	0.017458	0.018704	1175.81	70055.1
312	2.000000	1.092495	7.36812e+06	-54239.1	955.819	-29744.4	0.000000	0.000000	7.093677	24.3352	NaN	0.000000	0.001608	0.001691	28.0798	20.3594	0.001678	12134.1	3.690826	-176.472	25.0627	1.092167	0.021035	0.020707	24.3352	12134.1	0.019531	0.021810	1115.78	75067.8
312	2.000000	1.094466	7.36812e+06	-54239.1	955.818	-29744.4	0.000000	0.000000	7.095868	29.6855	NaN	0.000000	0.001648	0.001662	28.08	22.3583	0.001828	12234.2	3.235857	-177.059	28.2265	1.094191	0.023006	0.022731	29.6855	12234.2	0.021186	0.024440	1214.61	71498.2
312	2.000000	1.096486	7.36812e+06	-54239.1	955.819	-29744.4	0.000000	0.000000	7.098040	33.3645	NaN	0.000000	0.001650	0.001691	28.0797	25.1951	0.001826	13799.1	7.141048	178.986	32.6432	1.096131	0.025027	0.024671	33.3645	13799.1	0.023213	0.027845	1198.22	75552.7
312	2.000000	1.098482	7.36812e+06	-54239.1	955.819	-29744.4	0.000000	0.000000	7.100187	37.055	NaN	0.000000	0.001644	0.001706	28.08	26.794	0.001754	15278.6	5.247124	-179.744	37.4704	1.098088	0.027022	0.026628	37.055	15278.6	0.025204	0.031387	1180.59	78791.8
312	2.000000	1.100447	7.36812e+06	-54239.1	955.82	-29744.4	0.000000	0.000000	7.102397	42.9966	NaN	0.000000	0.001637	0.001716	28.0797	28.5268	0.001777	16057.1	1.682756	-177.401	41.6833	1.100130	0.028987	0.028670	42.9966	16057.1	0.026979	0.034715	1238.57	78738
312	2.000000	1.102456	7.36812e+06	-54239.1	955.818	-29744.4	0.000000	0.000000	7.104623	48.2895	NaN	0.000000	0.001684	0.001663	28.0798	31.7449	0.001776	17874.4	7.096841	176.245	48.0948	1.102113	0.030996	0.030653	48.2895	17874.4	0.028970	0.038636	1249.85	83082
312	2.000000	1.104371	7.36812e+06	-54239.1	955.82	-29744.4	0.000000	0.000000	7.106765	53.8101	NaN	0.000000	0.001684	0.001712	28.0798	32.3036	0.001733	18645	3.856801	179.585	51.3275	1.104166	0.032911	0.032706	53.8101	18645	0.030746	0.042304	1271.98	82821.8
312	2.000000	1.106410	7.36812e+06	-54239.1	955.82	-29744.4	0.000000	0.000000	7.109053	59.8411	NaN	0.000000	0.001667	0.001686	28.0798	34.0395	0.001692	20113.3	7.075739	175.594	58.4718	1.106061	0.034950	0.034601	59.8411	20113.3	0.032719	0.046568	1285.03	85155.6
312	2.000000	1.108425	7.36812e+06	-54239.1	955.819	-29744.4	0.000000	0.000000	7.111207	63.2254	NaN	0.000000	0.001673	0.001729	28.0799	36.301	0.001763	20589.1	3.418340	179.57	60.7152	1.108053	0.036966	0.036593	63.2254	20589.1	0.034662	0.050963	1240.62	83326.8
312	2.000000	1.110408	7.36812e+06	-54239.1	955.818	-29744.4	0.000000	0.000000	7.113484	70.3916	NaN	0.000000	0.001652	0.001713	28.0788	37.6187	0.001763	21343.5	1.486433	-179.661	69.3125	1.110143	0.038948	0.038683	70.3916	21343.5	0.036475	0.055235	1274.39	82971.8
312	2.000000	1.112318	7.36812e+06	-54239.1	955.818	-29744.4	0.000000	0.000000	7.115662	76.9036	NaN	0.000000	0.001632	0.001761	28.0789	41.5952	0.001863	22323.2	8.154879	173.33	73.1583	1.112076	0.040858	0.040616	76.9036	22323.2	0.038274	0.059645	1289.36	83511
312	2.000000	1.114400	7.36812e+06	-54239.1	955.818	-29744.4	0.000000	0.000000	7.118141	86.5556	NaN	0.000000	0.001647	0.001738	28.0785	41.4192	0.001725	24004.6	3.952425	177.704	85.9185	1.114027	0.042940	0.042567	86.5556	24004.6	0.040235	0.064638	1339.08	86262.7
312	2.000000	1.116429	7.36812e+06	-54239.1	955.82	-29744.4	0.000000	0.000000	7.120312	89.9922	NaN	0.000000	0.001666	0.001672	28.0786	44.7664	0.001861	24051.3	4.114229	177.585	89.284	1.116082	0.044969	0.044622	89.9922	24051.3	0.042163	0.069738	1290.43	83210.2
312	2.000000	1.118408	7.36812e+06	-54239.1	955.818	-29744.4	0.000000	0.000000	7.122785	102.028	NaN	0.000000	0.001656	0.001708	28.079	46.342	0.001830	25329.9	7.605078	174.325	100.777	1.118013	0.046948	0.046553	102.028	25329.9	0.043927	0.074569	1368.24	84747.5
312	2.000000	1.120383	7.36812e+06	-54239.1	955.82	-29744.4	0.000000	0.000000	7.125012	108.134	NaN	0.000000	0.001654	0.001681	28.0789	47.3649	0.001682	28165.4	2.990631	176.775	106.739	1.120078	0.048923	0.048618	108.134	28165.4	0.046044	0.080578	1341.97	90652.6
312	2.000000	1.122391	7.36812e+06	-54239.1	955.819	-29744.4	0.000000	0.000000	7.127218	112.942	NaN	0.000000	0.001643	0.001687	28.0788	50.5602	0.001878	26922	3.436792	176.513	111.548	1.122175	0.050931	0.050715	112.942	26922	0.047785	0.085690	1318.02	84026.2
312	2.000000	1.124389	7.36812e+06	-54239.1	955.82	-29744.4	0.000000	0.000000	7.129637	123.183	NaN	0.000000	0.001629	0.001668	28.0784	51.8777	0.001825	28423.3	5.820099	173.708	121.227	1.124116	0.052929	0.052656	123.183	28423.3	0.049679	0.091422	1347.41	85885.8
312	2.000000	1.126342	7.36812e+06	-54239.1	955.82	-29744.4	0.000000	0.000000	7.131956	132.089	NaN	0.000000	0.001676	0.001698	28.0784	52.6481	0.001781	29554.2	6.085821	173.113	128.886	1.126031	0.054882	0.054571	132.089	29554.2	0.051530	0.097200	1358.94	86608.2
312	2.000000	1.128426	7.36812e+06	-54239.1	955.82	-29744.4	0.000000	0.000000	7.134411	141.09	NaN	0.000000	0.001678	0.001674	28.0787	55.1191	0.001826	30185	6.265492	174.2	141.49	1.128043	0.056967	0.056584	141.09	30185	0.053461	0.103410	1364.37	85759.6
312	2.000000	1.130395	7.36812e+06	-54239.1	955.819	-29744.4	0.000000	0.000000	7.136697	148.803	NaN	0.000000	0.001653	0.001670	28.0785	56.6121	0.001823	31055.3	5.156421	174.717	147.941	1.130069	0.058935	0.058609	148.803	31055.3	0.055342	0.109636	1357.25	85690.4
312	2.000000	1.132343	7.36812e+06	-54239.1	955.82	-29744.4	0.000000	0.000000	7.138883	154.587	NaN	0.000000	0.001641	0.001651	28.0787	60.1069	0.001869	32162.6	8.913724	169.909	152.802	1.132122	0.060883	0.060662	154.587	32162.6	0.057279	0.116231	1330	86191.3
312	2.000000	1.134335	7.36812e+06	-54239.1	955.819	-29744.4	0.000000	0.000000	7.141337	165.832	NaN	0.000000	0.001642	0.001658	28.0787	59.8871	0.001724	34741.7	3.607176	173.825	161.73	1.134094	0.062875	0.062634	165.832	34741.7	0.059295	0.123293	1345.02	90397.1
312	2.000000	1.136288	7.36812e+06	-54239.1	955.819	-29744.4	0.000000	0.000000	7.143622	173.902	NaN	0.000000	0.001641	0.001702	28.0785	61.6935	0.001806	34153.6	1.150428	177.394	168.872	1.136032	0.064828	0.064572	173.902	34153.6	0.061009	0.129453	1343.36	86727
312	2.000000	1.138390	7.36812e+06	-54239.1	955.819	-29744.4	0.000000	0.000000	7.146272	187.232	NaN	0.000000	0.001638	0.001718	28.0787	64.1167	0.001799	35649.4	6.335824	172.708	185.232	1.137969	0.066930	0.066509	187.232	35649.4	0.062991	0.136752	1369.14	88076.4
312	2.000000	1.140329	7.36812e+06	-54239.1	955.82	-29744.4	0.000000	0.000000	7.148625	197.276	NaN	0.000000	0.001579	0.001715	28.0783	65.5438	0.001719	38125.7	2.483510	175.277	194.674	1.140087	0.068869	0.068627	197.276	38125.7	0.064988	0.144302	1367.11	91697
312	2.000000	1.142332	7.36812e+06	-54239.1	955.82	-29744.4	0.000000	0.000000	7.151185	210.827	NaN	0.000000	0.001603	0.001718	28.0786	68.3667	0.001760	38848.5	5.592776	172.281	208.778	1.142065	0.070872	0.070605	210.827	38848.5	0.066802	0.151323	1393.22	91242
312	2.000000	1.144306	7.36812e+06	-54239.1	955.819	-29744.4	0.000000	0.000000	7.153576	220.959	NaN	0.000000	0.001583	0.001718	28.0797	69.2289	0.001753	39487.6	3.137779	174.048	216.883	1.144050	0.072846	0.072590	220.959	39487.6	0.068649	0.158636	1392.87	90580.1
312	2.000000	1.146455	7.36812e+06	-54239.1	955.82	-29744.4	0.000000	0.000000	7.156086	229.753	NaN	0.000000	0.001627	0.001676	28.0802	72.9681	0.001799	40563.8	2.663826	174.514	232.412	1.145965	0.074995	0.074505	229.753	40563.8	0.070747	0.167140	1374.61	90650.9
312	2.000000	1.148399	7.36812e+06	-54239.1	955.821	-29744.4	0.000000	0.000000	7.158490	240.93	NaN	0.000000	0.001612	0.001670	28.0799	75.3454	0.001707	44136.9	6.840951	169.855	239.8	1.148060	0.076939	0.076600	240.93	44136.9	0.072845	0.175851	1370.08	96161.7
312	2.000000	1.150371	7.36812e+06	-54239.1	955.82	-29744.4	0.000000	0.000000	7.161287	260.993	NaN	0.000000	0.001631	0.001710	28.0798	76.5108	0.001879	40724.1	4.394620	172.844	260.004	1.149972	0.078911	0.078512	260.993	40724.1	0.074104	0.181183	1440.5	87411
312	2.000000	1.152371	7.36812e+06	-54239.1	955.82	-29744.4	0.000000	0.000000	7.163549	267.358	NaN	0.000000	0.001609	0.001652	28.0798	79.1532	0.001820	43502.7	5.461674	170.647	266.256	1.152138	0.080911	0.080678	267.358	43502.7	0.076301	0.190662	1402.26	91024.3
312	2.000000	1.154244	7.36812e+06	-54239.1	955.819	-29744.4	0.000000	0.000000	7.165991	281.188	NaN	0.000000	0.001613	0.001701	28.0797	78.9611	0.001755	44980.1	5.965280	170.201	275.887	1.154040	0.082784	0.082580	281.188	44980.1	0.078096	0.198570	1416.07	92222.6
312	2.000000	1.156362	7.36812e+06	-54239.1	955.82	-29744.4	0.000000	0.000000	7.168679	295.055	NaN	0.000000	0.001656	0.001670	28.0801	82.688	0.001729	47822.4	6.925097	168.711	293.869	1.155923	0.084902	0.084463	295.055	47822.4	0.080275	0.208377	1415.97	95715
312	2.000000	1.158346	7.36812e+06	-54239.1	955.819	-29744.4	0.000000	0.000000	7.171209	308.299	NaN	0.000000	0.001682	0.001701	28.0799	84.6854	0.001810	46785.3	4.757384	171.44	303.477	1.158048	0.086886	0.086588	308.299	46785.3	0.081944	0.216039	1427.05	91963.6
312	2.000000	1.160389	7.36812e+06	-54239.1	955.82	-29744.4	0.000000	0.000000	7.173597	316.697	NaN	0.000000	0.001660	0.001695	28.0799	86.8395	0.001796	48341.4	5.246699	170.796	319.935	1.159974	0.088929	0.088514	316.697	48341.4	0.084015	0.225727	1403.01	92960.9
312	2.000000	1.162253	7.36812e+06	-54239.1	955.82	-29744.4	0.000000	0.000000	7.176274	336.47	NaN	0.000000	0.001697	0.001675	28.0801	87.9599	0.001739	50572	0.609220	175.259	330.717	1.161981	0.090793	0.090521	336.47	50572	0.085803	0.234246	1436.4	95465.6
312	2.000000	1.164282	7.36812e+06	-54239.1	955.821	-29744.4	0.000000	0.000000	7.178885	350.599	NaN	0.000000	0.001713	0.001680	28.0799	89.9087	0.001793	50150.3	4.436112	171.943	347.278	1.163940	0.092822	0.092480	350.599	50150.3	0.087579	0.242859	1443.63	92975.7
312	2.000000	1.166292	7.36812e+06	-54239.1	955.82	-29744.4	0.000000	0.000000	7.181265	359.627	NaN	0.000000	0.001679	0.001697	28.08	93.5119	0.001901	49192	2.927655	172.868	355.094	1.165996	0.094832	0.094536	359.627	49192	0.089349	0.251582	1429.47	89604.2
312	2.000000	1.168347	7.36812e+06	-54239.1	955.82	-29744.4	0.000000	0.000000	7.183986	375.798	NaN	0.000000	0.001689	0.001698	28.08	96.5271	0.001894	50975	10.5563	165.493	373.488	1.167903	0.096887	0.096443	375.798	50975	0.091358	0.261661	1436.2	91046
312	2.000000	1.170365	7.36812e+06	-54239.1	955.819	-29744.4	0.000000	0.000000	7.186668	391.956	NaN	0.000000	0.001713	0.001707	28.0798	95.9584	0.001748	54882.8	3.934534	171.167	393.721	1.169974	0.098905	0.098514	391.956	54882.8	0.093549	0.272863	1436.46	95992.5
312	2.000000	1.172330	7.36813e+06	-54239.1	955.819	-29744.4	0.000000	0.000000	7.189039	401.808	NaN	0.000000	0.001667	0.001682	28.0801	98.6404	0.001799	54823.5	3.335875	171.566	399.535	1.172047	0.100870	0.100587	401.808	54823.5	0.095373	0.282359	1423.04	94262.6
312	2.000000	1.174389	7.36813e+06	-54239.1	955.82	-29744.4	0.000000	0.000000	7.191839	419.835	NaN	0.000000	0.001686	0.001684	28.08	99.8276	0.001844	54143.6	5.361763	169.615	421.294	1.174103	0.102929	0.102643	419.835	54143.6	0.097113	0.291557	1439.98	91613.3
312	2.000000	1.176358	7.36813e+06	-54239.1	955.818	-29744.4	0.000000	0.000000	7.194382	433.773	NaN	0.000000	0.001708	0.001665	28.08	102.3	0.001743	58706.4	4.736735	169.715	432.212	1.175910	0.104898	0.104450	433.773	58706.4	0.099357	0.303618	1428.68	97340.8
312	2.000000	1.178433	7.36813e+06	-54239.1	955.819	-29744.4	0.000000	0.000000	7.196791	441.892	NaN	0.000000	0.001702	0.001672	28.0786	104.85	0.001845	56832.6	6.212840	168.121	443.974	1.178204	0.106974	0.106744	441.892	56832.6	0.101142	0.313381	1410.08	92754.5
312	2.000000	1.180346	7.36813e+06	-54239.1	955.819	-29744.4	0.000000	0.000000	7.199582	463.248	NaN	0.000000	0.001707	0.001690	28.0786	104.998	0.001757	59762.4	1.514664	172.905	462.99	1.180034	0.108886	0.108574	463.248	59762.4	0.103072	0.324098	1429.34	95909.8
312	2.000000	1.180837	7.36813e+06	-54239.1	955.819	-29744.4	0.000000	0.000000	7.200185	465.981	NaN	0.000000	0.001707	0.001701	28.079	105.463	0.001840	57326.8	4.084359	-9.116963	463.342	1.180470	0.109377	0.109010	465.981	57326.8	0.103280	0.325263	1432.63	91836.1