File: remote_trans/data/nanoindenter/0828-1/data/Data_2025-08-06,11h17m57s/2025-07-22_16-23-58_1_666.txt
2025-07-22, 16:23:58, 1
Index	Phase	Displacement	Time	Pos X	Pos Y	Pos Z	Rot A	Rot B	Piezo Z	Force A	Force B	Gripper	Voltage A	Voltage B	Temperature	Amplitude force	Amplitude pos	Stiffness	Phase shift	Phase excitation	Force A raw	Displacement raw	HMax	HMax raw	Real Force	Real Stiffness	Contact Depth	Area	Hardness	Reduced Mod.
[#]	[#]	[um]	[s]	[um]	[um]	[um]	[m°]	[m°]	[um]	[uN]	[uN]	[V]	[V]	[V]	[°C]	[uN]	[um]	[N/m]	[°]	[°]	[uN]	[um]	[um]	[um]	[uN]	[N/m]	[um]	[um^2]	[MPa]	[MPa]
666	1.000000	0.002209	7.37156e+06	-43789.1	1005.82	-29778	0.000000	0.000000	6.002792	0.002327	NaN	0.000000	0.001746	0.001637	28.0817	0.125546	0.001023	122.779	165.574	-162.234	-0.016016	0.000977	-1.019521	-1.020753	0.002327	122.779	-1.019535	-4.156227E+13	-5.599879E-17	NaN
666	1.000000	0.010220	7.37156e+06	-43789.1	1005.82	-29778	0.000000	0.000000	6.010803	0.013678	NaN	0.000000	0.001763	0.001687	28.0814	0.041272	0.000961	42.937	128.403	-161.254	0.005506	0.008868	-1.011511	-1.012863	0.013678	42.937	-1.011749	-3.265334E+13	-4.188756E-16	NaN
666	1.000000	0.018161	7.37157e+06	-43789.1	1005.82	-29778	0.000000	0.000000	6.018740	-0.082271	NaN	0.000000	0.001791	0.001631	28.0814	0.024881	0.001831	13.592	-33.7523	-163.32	-0.101093	0.016871	-1.003569	-1.004860	-0.082271	13.592	-0.999029	-2.201414E+13	3.737184E-15	NaN
666	1.000000	0.026211	7.37157e+06	-43789.1	1005.82	-29778	0.000000	0.000000	6.026789	-0.109180	NaN	0.000000	0.001786	0.001632	28.0826	0.096812	0.001869	51.8089	111.636	-164.921	-0.056045	0.024858	-0.995520	-0.996872	-0.109180	51.8089	-0.993939	-1.880020E+13	5.807393E-15	NaN
666	1.000000	0.034160	7.37157e+06	-43789.1	1005.82	-29778	0.000000	0.000000	6.034739	-0.066544	NaN	0.000000	0.001746	0.001687	28.0825	0.069970	0.001805	38.775	-45.8103	-163.892	-0.125532	0.032818	-0.987571	-0.988912	-0.066544	38.775	-0.986284	-1.482724E+13	4.487977E-15	NaN
666	1.000000	0.042183	7.37157e+06	-43789.1	1005.82	-29778	0.000000	0.000000	6.042761	-0.107446	NaN	0.000000	0.001733	0.001638	28.0826	0.055133	0.001941	28.3999	-166.398	-163.901	-0.025133	0.040855	-0.979547	-0.980876	-0.107446	28.3999	-0.976710	-1.101747E+13	9.752350E-15	NaN
666	1.000000	0.050197	7.37157e+06	-43789.1	1005.82	-29778	0.000000	0.000000	6.050778	-0.032736	NaN	0.000000	0.001775	0.001632	28.0822	0.089390	0.002060	43.3841	154.322	-164.408	-0.002378	0.048852	-0.971534	-0.972879	-0.032736	43.3841	-0.970968	-9.219437E+12	3.550711E-15	NaN
666	1.000000	0.058186	7.37157e+06	-43789.1	1005.82	-29778	0.000000	0.000000	6.058765	-0.094324	NaN	0.000000	0.001779	0.001641	28.0826	0.092743	0.002006	46.2257	-126.951	-167.432	-0.067022	0.056880	-0.963544	-0.964851	-0.094324	46.2257	-0.962014	-6.982605E+12	1.350841E-14	NaN
666	1.000000	0.066195	7.37157e+06	-43789.1	1005.82	-29778	0.000000	0.000000	6.066775	-0.049146	NaN	0.000000	0.001783	0.001652	28.0821	0.136428	0.002038	66.9384	176.707	-164.44	0.023379	0.064857	-0.955535	-0.956874	-0.049146	66.9384	-0.954985	-5.613686E+12	8.754732E-15	NaN
666	1.000000	0.074184	7.37157e+06	-43789.1	1005.82	-29778	0.000000	0.000000	6.074764	-0.063814	NaN	0.000000	0.001759	0.001647	28.0825	0.101090	0.002104	48.0361	-1.179874	-162.82	-0.041654	0.072873	-0.947547	-0.948858	-0.063814	48.0361	-0.946550	-4.320150E+12	1.477120E-14	NaN
666	1.000000	0.082174	7.37157e+06	-43789.1	1005.82	-29778	0.000000	0.000000	6.082757	0.008414	NaN	0.000000	0.001757	0.001623	28.0822	0.095115	0.002105	45.1831	86.417	-164.6	-0.030213	0.080894	-0.939556	-0.940836	0.008414	45.1831	-0.939696	-3.491679E+12	-2.409829E-15	NaN
666	1.000000	0.090200	7.37157e+06	-43789.1	1005.82	-29778	0.000000	0.000000	6.090779	-0.067844	NaN	0.000000	0.001795	0.001656	28.0822	0.098957	0.001869	52.9467	-113.605	-166.512	-0.078661	0.088865	-0.931531	-0.932865	-0.067844	52.9467	-0.930570	-2.629574E+12	2.580039E-14	NaN
666	1.000000	0.098185	7.37157e+06	-43789.1	1005.82	-29778	0.000000	0.000000	6.098765	-0.039030	NaN	0.000000	0.001787	0.001677	28.0824	0.084008	0.001958	42.9075	132.845	-165.007	-0.000420	0.096900	-0.923546	-0.924830	-0.039030	42.9075	-0.922864	-2.069517E+12	1.885938E-14	NaN
666	1.000000	0.106186	7.37157e+06	-43789.1	1005.82	-29778	0.000000	0.000000	6.106769	0.012388	NaN	0.000000	0.001798	0.001671	28.082	0.049059	0.002043	24.0179	-111.213	-165.153	-0.014385	0.104859	-0.915544	-0.916872	0.012388	24.0179	-0.915931	-1.668263E+12	-7.425827E-15	NaN
666	1.000000	0.114201	7.37157e+06	-43789.1	1005.82	-29778	0.000000	0.000000	6.114783	-0.021929	NaN	0.000000	0.001713	0.001647	28.0823	0.043189	0.001970	21.9189	-5.435511	-166.399	-0.118220	0.112899	-0.907529	-0.908832	-0.021929	21.9189	-0.906779	-1.255023E+12	1.747261E-14	NaN
666	1.000000	0.122180	7.37157e+06	-43789.1	1005.82	-29778	0.000000	0.000000	6.122761	-0.023538	NaN	0.000000	0.001738	0.001603	28.082	0.061196	0.001941	31.5259	-99.0378	-163.808	0.016060	0.120823	-0.899550	-0.900907	-0.023538	31.5259	-0.898990	-9.849725E+11	2.389729E-14	NaN
666	1.000000	0.130186	7.37157e+06	-43789.1	1005.82	-29778	0.000000	0.000000	6.130763	-0.125524	NaN	0.000000	0.001707	0.001607	28.0821	0.064300	0.001977	32.5303	-170.749	-161.461	-0.077186	0.128895	-0.891545	-0.892836	-0.125524	32.5303	-0.888651	-7.139660E+11	1.758120E-13	NaN
666	1.000000	0.138216	7.37157e+06	-43789.1	1005.82	-29778	0.000000	0.000000	6.138797	-0.016988	NaN	0.000000	0.001695	0.001653	28.0822	0.070031	0.002072	33.8009	-83.1823	-167.606	-0.002578	0.136930	-0.883515	-0.884800	-0.016988	33.8009	-0.883138	-6.013715E+11	2.824820E-14	NaN
666	1.000000	0.146178	7.37157e+06	-43789.1	1005.82	-29778	0.000000	0.000000	6.146757	-0.074143	NaN	0.000000	0.001680	0.001665	28.0822	0.031873	0.001980	16.0942	22.9613	-165.731	-0.027242	0.144884	-0.875553	-0.876847	-0.074143	16.0942	-0.872098	-4.264071E+11	1.738777E-13	NaN
666	1.000000	0.154184	7.37157e+06	-43789.1	1005.82	-29778	0.000000	0.000000	6.154765	-0.043231	NaN	0.000000	0.001700	0.001669	28.0826	0.052270	0.001975	26.4606	83.0693	-162.852	-0.017484	0.152893	-0.867546	-0.868837	-0.043231	26.4606	-0.866321	-3.561764E+11	1.213758E-13	NaN
666	1.000000	0.162212	7.37157e+06	-43789.1	1005.82	-29778	0.000000	0.000000	6.162792	-0.065640	NaN	0.000000	0.001715	0.001673	28.081	0.088861	0.001912	46.4789	60.869	-168.514	-0.058342	0.160897	-0.859518	-0.860834	-0.065640	46.4789	-0.858459	-2.787818E+11	2.354520E-13	NaN
666	1.000000	0.170238	7.37157e+06	-43789.1	1005.82	-29778	0.000000	0.000000	6.170819	-0.026124	NaN	0.000000	0.001713	0.001609	28.0808	0.071224	0.001982	35.9355	18.2035	-160.184	-0.055450	0.168912	-0.851493	-0.852818	-0.026124	35.9355	-0.850948	-2.205828E+11	1.184307E-13	NaN
666	1.000000	0.178210	7.37157e+06	-43789.1	1005.82	-29778	0.000000	0.000000	6.178790	-0.048705	NaN	0.000000	0.001737	0.001602	28.0808	0.159848	0.002029	78.7648	-98.2942	-166.173	-0.191285	0.176904	-0.843520	-0.844827	-0.048705	78.7648	-0.843057	-1.724644E+11	2.824075E-13	NaN
666	1.000000	0.186232	7.37157e+06	-43789.1	1005.82	-29778	0.000000	0.000000	6.186812	-0.046850	NaN	0.000000	0.001709	0.001582	28.0809	0.012474	0.001973	6.321283	83.1494	-165.078	-0.062084	0.184877	-0.835499	-0.836853	-0.046850	6.321283	-0.829940	-1.145444E+11	4.090148E-13	NaN
666	1.000000	0.194226	7.37157e+06	-43789.1	1005.82	-29778	0.000000	0.000000	6.194806	-0.056531	NaN	0.000000	0.001744	0.001643	28.0812	0.081489	0.002020	40.339	128.889	-162.187	-0.023408	0.192896	-0.827505	-0.828835	-0.056531	40.339	-0.826454	-1.027345E+11	5.502658E-13	NaN
666	1.000000	0.202233	7.37157e+06	-43789.1	1005.82	-29778	0.000000	0.000000	6.202815	0.001184	NaN	0.000000	0.001732	0.001676	28.0808	0.082787	0.002064	40.1059	-88.6406	-166.218	0.017624	0.200915	-0.819498	-0.820816	0.001184	40.1059	-0.819520	-8.273689E+10	-1.430697E-14	NaN
666	1.000000	0.210227	7.37157e+06	-43789.1	1005.82	-29778	0.000000	0.000000	6.210806	-0.076626	NaN	0.000000	0.001738	0.001630	28.0812	0.075990	0.001925	39.4727	117.743	-163.964	0.001871	0.208934	-0.811503	-0.812797	-0.076626	39.4727	-0.810047	-6.154810E+10	1.244981E-12	NaN
666	1.000000	0.218241	7.37157e+06	-43789.1	1005.82	-29778	0.000000	0.000000	6.218820	-0.084608	NaN	0.000000	0.001724	0.001641	28.0808	0.040268	0.002058	19.5681	-130.243	-161.504	-0.007597	0.216902	-0.803489	-0.804829	-0.084608	19.5681	-0.800247	-4.531176E+10	1.867239E-12	NaN
666	1.000000	0.226210	7.37157e+06	-43789.1	1005.82	-29778	0.000000	0.000000	6.226792	-0.008267	NaN	0.000000	0.001718	0.001679	28.081	0.071550	0.001934	37.0035	-10.7967	-169.29	-0.030421	0.224955	-0.795520	-0.796776	-0.008267	37.0035	-0.795353	-3.888426E+10	2.126002E-13	NaN
666	1.000000	0.234216	7.37157e+06	-43789.1	1005.82	-29778	0.000000	0.000000	6.234800	0.025982	NaN	0.000000	0.001738	0.001671	28.0812	0.041041	0.002113	19.4237	-146.676	-162.706	-0.072512	0.232917	-0.787514	-0.788813	0.025982	19.4237	-0.788517	-3.140111E+10	-8.274321E-13	NaN
666	1.000000	0.242234	7.37157e+06	-43789.1	1005.82	-29778	0.000000	0.000000	6.242815	-0.042383	NaN	0.000000	0.001712	0.001650	28.081	0.085588	0.001978	43.2714	140.815	-162.114	-0.003903	0.240930	-0.779496	-0.780801	-0.042383	43.2714	-0.778762	-2.314206E+10	1.831446E-12	NaN
666	1.000000	0.250278	7.37157e+06	-43789.1	1005.82	-29778	0.000000	0.000000	6.250859	-0.030481	NaN	0.000000	0.001697	0.001666	28.0813	0.075160	0.001854	40.5293	49.301	-164.475	-0.165309	0.248931	-0.771452	-0.772800	-0.030481	40.5293	-0.770888	-1.808761E+10	1.685210E-12	NaN
666	1.000000	0.258259	7.37157e+06	-43789.1	1005.82	-29778	0.000000	0.000000	6.258840	-0.029993	NaN	0.000000	0.001778	0.001672	28.0811	0.057220	0.001844	31.0337	-48.1613	-168.118	0.007938	0.256950	-0.763472	-0.764780	-0.029993	31.0337	-0.762747	-1.401756E+10	2.139639E-12	NaN
666	1.000000	0.266254	7.37157e+06	-43789.1	1005.82	-29778	0.000000	0.000000	6.266834	-0.065614	NaN	0.000000	0.001775	0.001645	28.0812	0.073508	0.002042	36.003	-90.4117	-165.559	-0.094372	0.264918	-0.755477	-0.756812	-0.065614	36.003	-0.754110	-1.069437E+10	6.135409E-12	NaN
666	1.000000	0.274214	7.37157e+06	-43789.1	1005.82	-29778	0.000000	0.000000	6.274796	-0.003719	NaN	0.000000	0.001743	0.001643	28.0815	0.038248	0.002042	18.7318	103.607	-163.204	-0.094628	0.272970	-0.747517	-0.748761	-0.003719	18.7318	-0.747368	-8.657392E+9	4.295239E-13	NaN
666	1.000000	0.282278	7.37157e+06	-43789.1	1005.82	-29778	0.000000	0.000000	6.282859	-0.023499	NaN	0.000000	0.001730	0.001656	28.0811	0.050113	0.002006	24.9805	159.473	-163.746	-0.061129	0.280937	-0.739453	-0.740793	-0.023499	24.9805	-0.738747	-6.606839E+9	3.556743E-12	NaN
666	1.000000	0.290258	7.37157e+06	-43789.1	1005.82	-29778	0.000000	0.000000	6.290840	-0.026463	NaN	0.000000	0.001715	0.001661	28.0813	0.032111	0.002046	15.6984	157.141	-166.785	-0.010217	0.288958	-0.731472	-0.732772	-0.026463	15.6984	-0.730208	-5.054079E+9	5.236000E-12	NaN
666	1.000000	0.298265	7.37157e+06	-43789.1	1005.82	-29778	0.000000	0.000000	6.298843	-0.098652	NaN	0.000000	0.001722	0.001649	28.0822	0.178058	0.001976	90.0934	-150.917	-165.482	-0.027148	0.296987	-0.723466	-0.724744	-0.098652	90.0934	-0.722644	-3.985981E+9	2.474981E-11	NaN
666	1.000000	0.306258	7.37157e+06	-43789.1	1005.82	-29778	0.000000	0.000000	6.306837	-0.075653	NaN	0.000000	0.001689	0.001640	28.0827	0.035838	0.002129	16.8327	179.422	-161.247	0.000114	0.304940	-0.715473	-0.716790	-0.075653	16.8327	-0.712102	-2.862404E+9	2.642981E-11	NaN
666	1.000000	0.314301	7.37157e+06	-43789.1	1005.82	-29778	0.000000	0.000000	6.314882	-0.028664	NaN	0.000000	0.001714	0.001646	28.0822	0.128539	0.001970	65.2336	53.9301	-164.171	0.026257	0.313006	-0.707429	-0.708725	-0.028664	65.2336	-0.707100	-2.446046E+9	1.171858E-11	NaN
666	1.000000	0.322277	7.37157e+06	-43789.1	1005.82	-29778	0.000000	0.000000	6.322856	-0.096087	NaN	0.000000	0.001722	0.001653	28.0822	0.081377	0.002054	39.6255	-3.407015	-165.899	-0.021526	0.320941	-0.699453	-0.700789	-0.096087	39.6255	-0.697634	-1.816449E+9	5.289843E-11	NaN
666	1.000000	0.330275	7.37157e+06	-43789.1	1005.82	-29778	0.000000	0.000000	6.330853	-0.087320	NaN	0.000000	0.001720	0.001648	28.0821	0.091653	0.002065	44.3805	127.65	-163.887	-0.104112	0.328927	-0.691456	-0.692803	-0.087320	44.3805	-0.689980	-1.427734E+9	6.115987E-11	NaN
666	1.000000	0.338329	7.37157e+06	-43789.1	1005.82	-29778	0.000000	0.000000	6.338911	-0.008620	NaN	0.000000	0.001703	0.001669	28.0822	0.008785	0.001965	4.470563	86.9451	-167.337	-0.009165	0.336968	-0.683402	-0.684763	-0.008620	4.470563	-0.681956	-1.109041E+9	7.772842E-12	NaN
666	1.000000	0.346309	7.37157e+06	-43789.1	1005.82	-29778	0.000000	0.000000	6.346887	-0.098427	NaN	0.000000	0.001678	0.001669	28.0824	0.022873	0.002070	11.0498	85.4534	-163.961	-0.054224	0.345001	-0.675421	-0.676729	-0.098427	11.0498	-0.668741	-7.313972E+8	1.345740E-10	NaN
666	1.000000	0.354305	7.37157e+06	-43789.1	1005.82	-29778	0.000000	0.000000	6.354886	-0.034929	NaN	0.000000	0.001688	0.001682	28.0821	0.022799	0.002120	10.7532	-69.8902	-162.453	0.021988	0.352967	-0.667426	-0.668763	-0.034929	10.7532	-0.664989	-6.498278E+8	5.375134E-11	NaN
666	1.000000	0.362325	7.37157e+06	-43789.1	1005.82	-29778	0.000000	0.000000	6.362904	-0.094005	NaN	0.000000	0.001684	0.001705	28.0822	0.076913	0.001989	38.6601	-25.3457	-165.031	-0.111564	0.360971	-0.659405	-0.660760	-0.094005	38.6601	-0.657582	-5.144463E+8	1.827305E-10	NaN
666	1.000000	0.370302	7.37157e+06	-43789.1	1005.82	-29778	0.000000	0.000000	6.370882	-0.046583	NaN	0.000000	0.001698	0.001743	28.0821	0.083938	0.001952	42.9955	165.547	-167.017	-0.076025	0.368994	-0.651429	-0.652736	-0.046583	42.9955	-0.650616	-4.129336E+8	1.128106E-10	NaN
666	1.000000	0.378291	7.37157e+06	-43789.1	1005.82	-29778	0.000000	0.000000	6.378875	0.030434	NaN	0.000000	0.001702	0.001758	28.0823	0.078326	0.002004	39.0901	-120.504	-166.842	0.082735	0.376999	-0.643439	-0.644731	0.030434	39.0901	-0.644023	-3.353343E+8	-9.075661E-11	NaN
666	1.000000	0.386306	7.37157e+06	-43789.1	1005.82	-29778	0.000000	0.000000	6.386888	-0.009512	NaN	0.000000	0.001704	0.001723	28.0823	0.014671	0.002036	7.205662	86.9103	-164.187	-0.111070	0.384973	-0.635425	-0.636758	-0.009512	7.205662	-0.634435	-2.476905E+8	3.840150E-11	NaN
666	1.000000	0.394293	7.37157e+06	-43789.1	1005.82	-29778	0.000000	0.000000	6.394875	-0.014251	NaN	0.000000	0.001678	0.001763	28.082	0.073378	0.002012	36.466	-139.107	-165.718	0.002688	0.393025	-0.627437	-0.628706	-0.014251	36.466	-0.627144	-1.966975E+8	7.245173E-11	NaN
666	1.000000	0.402321	7.37157e+06	-43789.1	1005.82	-29778	0.000000	0.000000	6.402902	-0.027957	NaN	0.000000	0.001671	0.001745	28.0823	0.071928	0.001886	38.1307	-111.699	-163.198	-0.050509	0.401028	-0.619410	-0.620702	-0.027957	38.1307	-0.618860	-1.513429E+8	1.847245E-10	NaN
666	1.000000	0.410289	7.37157e+06	-43789.1	1005.82	-29778	0.000000	0.000000	6.410868	-0.075077	NaN	0.000000	0.001707	0.001748	28.0823	0.047706	0.002144	22.2538	107.246	-166.557	-0.109709	0.409032	-0.611441	-0.612698	-0.075077	22.2538	-0.608911	-1.104412E+8	6.797934E-10	NaN
666	1.000000	0.418353	7.37157e+06	-43789.1	1005.82	-29778	0.000000	0.000000	6.418934	-0.038635	NaN	0.000000	0.001717	0.001752	28.0821	0.059738	0.001931	30.9423	-157.626	-158.684	-0.053605	0.417019	-0.603378	-0.604712	-0.038635	30.9423	-0.602441	-8.996530E+7	4.294452E-10	NaN
666	1.000000	0.426346	7.37157e+06	-43789.1	1005.82	-29778	0.000000	0.000000	6.426925	-0.070868	NaN	0.000000	0.001702	0.001717	28.0822	0.143392	0.001977	72.5334	111.022	-165.002	-0.172292	0.424981	-0.595385	-0.596749	-0.070868	72.5334	-0.594652	-7.027281E+7	1.008468E-9	NaN
666	1.000000	0.434327	7.37157e+06	-43789.1	1005.82	-29778	0.000000	0.000000	6.434907	-0.058874	NaN	0.000000	0.001694	0.001740	28.0813	0.050865	0.002090	24.34	131.048	-166.131	-0.139200	0.433032	-0.587403	-0.588699	-0.058874	24.34	-0.585589	-5.270354E+7	1.117078E-9	NaN
666	1.000000	0.442369	7.37157e+06	-43789.1	1005.82	-29778	0.000000	0.000000	6.442953	0.054090	NaN	0.000000	0.001658	0.001707	28.0812	0.060314	0.001993	30.2609	5.686605	-165.02	-0.018927	0.441069	-0.579362	-0.580662	0.054090	30.2609	-0.580702	-4.512527E+7	-1.198656E-9	NaN
666	1.000000	0.450321	7.37157e+06	-43789.1	1005.82	-29778	0.000000	0.000000	6.450903	-0.003499	NaN	0.000000	0.001659	0.001722	28.0809	0.051578	0.001902	27.1241	11.0337	-160.986	-0.018743	0.449018	-0.571410	-0.572713	-0.003499	27.1241	-0.571313	-3.347919E+7	1.045155E-10	NaN
666	1.000000	0.458356	7.37157e+06	-43789.1	1005.82	-29778	0.000000	0.000000	6.458937	-0.038876	NaN	0.000000	0.001660	0.001760	28.0809	0.051801	0.002162	23.9606	87.1377	-164.367	-0.043685	0.457024	-0.563375	-0.564707	-0.038876	23.9606	-0.562158	-2.501644E+7	1.554010E-9	NaN
666	1.000000	0.466355	7.37157e+06	-43789.1	1005.82	-29778	0.000000	0.000000	6.466934	-0.088143	NaN	0.000000	0.001685	0.001722	28.0808	0.034021	0.002011	16.9178	129.764	-163.435	-0.047347	0.465037	-0.555375	-0.556693	-0.088143	16.9178	-0.551468	-1.779449E+7	4.953391E-9	NaN
666	1.000000	0.474327	7.37157e+06	-43789.1	1005.82	-29778	0.000000	0.000000	6.474909	-0.003929	NaN	0.000000	0.001634	0.001720	28.0811	0.012780	0.002114	6.046681	35.452	-164.131	-0.032978	0.473037	-0.547404	-0.548694	-0.003929	6.046681	-0.546916	-1.538991E+7	2.552964E-10	NaN
666	1.000000	0.482339	7.37157e+06	-43789.1	1005.82	-29778	0.000000	0.000000	6.482920	-0.031608	NaN	0.000000	0.001703	0.001683	28.081	0.147865	0.001939	76.2388	-12.3713	-165.464	-0.057180	0.481013	-0.539392	-0.540718	-0.031608	76.2388	-0.539081	-1.198415E+7	2.637491E-9	NaN
666	1.000000	0.490353	7.37157e+06	-43789.1	1005.82	-29778	0.000000	0.000000	6.490934	-0.032450	NaN	0.000000	0.001668	0.001724	28.0809	0.077446	0.001919	40.36	-82.5944	-164.317	0.049575	0.489026	-0.531378	-0.532705	-0.032450	40.36	-0.530775	-9.19041e+06	3.530828E-9	NaN
666	1.000000	0.498388	7.37157e+06	-43789.1	1005.82	-29778	0.000000	0.000000	6.498970	-0.009327	NaN	0.000000	0.001668	0.001717	28.081	0.025379	0.002059	12.3258	-13.0588	-162.98	-0.050315	0.497065	-0.523343	-0.524665	-0.009327	12.3258	-0.522775	-7.11521e+06	1.310916E-9	NaN
666	1.000000	0.506376	7.37157e+06	-43789.1	1005.82	-29778	0.000000	0.000000	6.506957	-0.025624	NaN	0.000000	0.001648	0.001734	28.081	0.074185	0.001949	38.0599	129.41	-162.254	-0.054611	0.505063	-0.515355	-0.516667	-0.025624	38.0599	-0.514850	-5.52005e+06	4.642061E-9	NaN
666	1.000000	0.514384	7.37157e+06	-43789.1	1005.82	-29778	0.000000	0.000000	6.514964	-0.048123	NaN	0.000000	0.001616	0.001711	28.0811	0.119153	0.002024	58.8557	44.841	-162.062	0.003143	0.513067	-0.507347	-0.508664	-0.048123	58.8557	-0.506734	-4.25508e+06	1.130943E-8	NaN
666	1.000000	0.522394	7.37157e+06	-43789.1	1005.82	-29778	0.000000	0.000000	6.522974	-0.061768	NaN	0.000000	0.001645	0.001701	28.0811	0.106551	0.001862	57.2154	-40.1428	-162.614	-0.090372	0.521037	-0.499336	-0.500694	-0.061768	57.2154	-0.498526	-3.26932e+06	1.889328E-8	NaN
666	1.000000	0.530364	7.37157e+06	-43789.1	1005.82	-29778	0.000000	0.000000	6.530945	-0.055879	NaN	0.000000	0.001655	0.001717	28.0808	0.056648	0.001954	28.9848	-121.357	-166.353	-0.062392	0.529060	-0.491366	-0.492670	-0.055879	28.9848	-0.489920	-2.479e+06	2.254115E-8	NaN
666	1.000000	0.538376	7.37157e+06	-43789.1	1005.82	-29778	0.000000	0.000000	6.538961	0.047641	NaN	0.000000	0.001602	0.001710	28.0808	0.054411	0.002045	26.6111	-23.7196	-163.794	0.057153	0.537031	-0.483354	-0.484700	0.047641	26.6111	-0.484697	-2.09533e+06	-2.273697E-8	NaN
666	1.000000	0.546385	7.37157e+06	-43789.1	1005.82	-29778	0.000000	0.000000	6.546966	-0.050096	NaN	0.000000	0.001632	0.001727	28.0809	0.066291	0.002159	30.7113	-140.175	-166.397	-0.036575	0.545100	-0.475345	-0.476630	-0.050096	30.7113	-0.474122	-1.49003e+06	3.362091E-8	NaN
666	1.000000	0.554391	7.37157e+06	-43789.1	1005.82	-29778	0.000000	0.000000	6.554973	-0.008226	NaN	0.000000	0.001680	0.001701	28.0811	0.064251	0.002115	30.3768	172.697	-165.536	-0.021786	0.553053	-0.467340	-0.468677	-0.008226	30.3768	-0.467137	-1.18916e+06	6.917228E-9	NaN
666	1.000000	0.562402	7.37157e+06	-43789.1	1005.82	-29778	0.000000	0.000000	6.562981	-0.097826	NaN	0.000000	0.001629	0.001731	28.081	0.192860	0.001997	96.5942	-131.017	-164.617	-0.076524	0.561088	-0.459328	-0.460643	-0.097826	96.5942	-0.458569	-901365	1.085311E-7	NaN
666	1.000000	0.570397	7.37157e+06	-43789.1	1005.82	-29778	0.000000	0.000000	6.570979	-0.028442	NaN	0.000000	0.001586	0.001744	28.0818	0.027197	0.002067	13.1572	63.784	-163.979	-0.053494	0.569089	-0.451333	-0.452641	-0.028442	13.1572	-0.449712	-676525	4.204159E-8	NaN
666	1.000000	0.578363	7.37157e+06	-43789.1	1005.82	-29778	0.000000	0.000000	6.578945	-0.023357	NaN	0.000000	0.001645	0.001716	28.0824	0.090670	0.001945	46.6088	56.0394	-163.948	-0.063569	0.577114	-0.443367	-0.444617	-0.023357	46.6088	-0.442991	-543963	4.293881E-8	NaN
666	1.000000	0.586392	7.37157e+06	-43789.1	1005.82	-29778	0.000000	0.000000	6.586973	-0.041533	NaN	0.000000	0.001638	0.001745	28.0823	0.031420	0.001918	16.3823	55.5232	-168.003	-0.027065	0.585128	-0.435338	-0.436603	-0.041533	16.3823	-0.433437	-398713	1.041682E-7	NaN
666	1.000000	0.594416	7.37157e+06	-43789.1	1005.82	-29778	0.000000	0.000000	6.594993	-0.108778	NaN	0.000000	0.001612	0.001773	28.0826	0.049162	0.001748	28.1251	34.4413	-165.8	-0.095747	0.593085	-0.427315	-0.428646	-0.108778	28.1251	-0.424414	-297156	3.660644E-7	NaN
666	1.000000	0.602379	7.37157e+06	-43789.1	1005.82	-29778	0.000000	0.000000	6.602960	-0.020499	NaN	0.000000	0.001648	0.001742	28.0821	0.110784	0.001963	56.4351	-159.945	-164.926	-0.040804	0.601093	-0.419352	-0.420637	-0.020499	56.4351	-0.419079	-249664	8.210576E-8	NaN
666	1.000000	0.610398	7.37157e+06	-43789.1	1005.82	-29778	0.000000	0.000000	6.610979	-0.028872	NaN	0.000000	0.001682	0.001749	28.0822	0.065554	0.002038	32.1586	-105.67	-166.271	0.050149	0.609032	-0.411332	-0.412699	-0.028872	32.1586	-0.410659	-189571	1.522995E-7	NaN
666	1.000000	0.618393	7.37157e+06	-43789.1	1005.82	-29778	0.000000	0.000000	6.618973	-0.050656	NaN	0.000000	0.001650	0.001709	28.0822	0.082363	0.001946	42.3299	-158.997	-165.686	-0.160812	0.617140	-0.403338	-0.404591	-0.050656	42.3299	-0.402440	-144804	3.498221E-7	NaN
666	1.000000	0.626426	7.37157e+06	-43789.1	1005.82	-29778	0.000000	0.000000	6.627005	-0.092536	NaN	0.000000	0.001668	0.001693	28.0824	0.023863	0.001979	12.0576	164.27	-163.629	-0.130429	0.625126	-0.395304	-0.396604	-0.092536	12.0576	-0.389548	-94777.3	9.763479E-7	NaN
666	1.000000	0.634410	7.37157e+06	-43789.1	1005.82	-29778	0.000000	0.000000	6.634989	-0.070220	NaN	0.000000	0.001643	0.001721	28.0822	0.047756	0.002020	23.6438	-155.128	-165.368	0.046983	0.633091	-0.387321	-0.388640	-0.070220	23.6438	-0.385093	-81831.9	8.580980E-7	NaN
666	1.000000	0.642405	7.37157e+06	-43789.1	1005.82	-29778	0.000000	0.000000	6.642984	-0.086059	NaN	0.000000	0.001600	0.001689	28.0821	0.008029	0.002152	3.731108	-93.7226	-164.755	-0.083522	0.641084	-0.379325	-0.380647	-0.086059	3.731108	-0.362026	-38117.6	2.257731E-6	NaN
666	1.000000	0.650438	7.37157e+06	-43789.1	1005.82	-29778	0.000000	0.000000	6.651022	0.022177	NaN	0.000000	0.001603	0.001719	28.0824	0.044959	0.002029	22.1613	-89.6747	-164.241	-0.026151	0.649181	-0.371292	-0.372550	0.022177	22.1613	-0.372043	-53153.7	-4.172174E-7	NaN
666	1.000000	0.658424	7.37157e+06	-43789.1	1005.82	-29778	0.000000	0.000000	6.659003	-0.082536	NaN	0.000000	0.001641	0.001709	28.0823	0.061087	0.001921	31.8061	-105.462	-165.197	-0.128917	0.657093	-0.363306	-0.364637	-0.082536	31.8061	-0.361360	-37282	2.213835E-6	NaN
666	1.000000	0.666428	7.37157e+06	-43789.1	1005.82	-29778	0.000000	0.000000	6.667007	-0.077710	NaN	0.000000	0.001660	0.001731	28.0823	0.076483	0.001967	38.887	-122.375	-161.713	-0.101486	0.665116	-0.355302	-0.356615	-0.077710	38.887	-0.353803	-28984.2	2.681102E-6	NaN
666	1.000000	0.674431	7.37157e+06	-43789.1	1005.82	-29778	0.000000	0.000000	6.675007	-0.147730	NaN	0.000000	0.001673	0.001697	28.0827	0.089325	0.002043	43.7117	152.779	-163.622	-0.126161	0.673152	-0.347300	-0.348579	-0.147730	43.7117	-0.344765	-21425.9	6.894946E-6	NaN
666	1.000000	0.682420	7.37157e+06	-43789.1	1005.82	-29778	0.000000	0.000000	6.682998	-0.096272	NaN	0.000000	0.001674	0.001738	28.0823	0.058830	0.002148	27.3853	134.541	-167.651	-0.069354	0.681141	-0.339310	-0.340590	-0.096272	27.3853	-0.336674	-16331.8	5.894793E-6	NaN
666	1.000000	0.690430	7.37157e+06	-43789.1	1005.82	-29778	0.000000	0.000000	6.691008	-0.097697	NaN	0.000000	0.001624	0.001707	28.0821	0.030296	0.002022	14.9865	-56.5322	-162.793	-0.088166	0.689133	-0.331300	-0.332598	-0.097697	14.9865	-0.326411	-11557	8.453488E-6	NaN
666	1.000000	0.698430	7.37157e+06	-43789.1	1005.82	-29778	0.000000	0.000000	6.699014	0.056213	NaN	0.000000	0.001642	0.001703	28.0825	0.064230	0.001939	33.1293	-81.5517	-163.18	0.011287	0.697108	-0.323301	-0.324622	0.056213	33.1293	-0.324573	-10861.1	-5.175623E-6	NaN
666	1.000000	0.706427	7.37157e+06	-43789.1	1005.82	-29778	0.000000	0.000000	6.707009	-0.009086	NaN	0.000000	0.001617	0.001724	28.0821	0.046467	0.002071	22.4328	-13.6256	-166.797	-0.074492	0.705138	-0.315304	-0.316593	-0.009086	22.4328	-0.315000	-7851.39	1.157205E-6	NaN
666	1.000000	0.714429	7.37157e+06	-43789.1	1005.82	-29778	0.000000	0.000000	6.715012	0.007661	NaN	0.000000	0.001660	0.001721	28.0812	0.083024	0.001954	42.4919	149.118	-165.187	0.046225	0.713112	-0.307301	-0.308618	0.007661	42.4919	-0.307436	-6068.61	-1.262413E-6	NaN
666	1.000000	0.722457	7.37157e+06	-43789.1	1005.82	-29778	0.000000	0.000000	6.723038	-0.017892	NaN	0.000000	0.001678	0.001727	28.0814	0.091309	0.002052	44.5061	-59.3282	-165.086	-0.012025	0.721118	-0.299274	-0.300612	-0.017892	44.5061	-0.298972	-4542.86	3.938519E-6	NaN
666	1.000000	0.730443	7.37157e+06	-43789.1	1005.82	-29778	0.000000	0.000000	6.731023	-0.062130	NaN	0.000000	0.001688	0.001726	28.0811	0.059175	0.002125	27.8427	70.9256	-165.012	-0.098622	0.729198	-0.291287	-0.292533	-0.062130	27.8427	-0.289614	-3292.39	1.887070E-5	NaN
666	1.000000	0.738485	7.37157e+06	-43789.1	1005.82	-29778	0.000000	0.000000	6.739065	-0.059910	NaN	0.000000	0.001690	0.001744	28.081	0.034552	0.002021	17.0939	23.7779	-164.657	-0.076792	0.737145	-0.283245	-0.284586	-0.059910	17.0939	-0.280617	-2411.4	2.484448E-5	NaN
666	1.000000	0.746467	7.37157e+06	-43789.1	1005.82	-29778	0.000000	0.000000	6.747047	-0.062140	NaN	0.000000	0.001653	0.001731	28.0809	0.080341	0.002022	39.7262	-122.028	-168.075	-0.026666	0.745163	-0.275264	-0.276568	-0.062140	39.7262	-0.274090	-1921.43	3.234068E-5	NaN
666	1.000000	0.754449	7.37157e+06	-43789.1	1005.82	-29778	0.000000	0.000000	6.755029	-0.050902	NaN	0.000000	0.001649	0.001708	28.081	0.094800	0.001986	47.7377	81.2497	-167.424	-0.009069	0.753168	-0.267281	-0.268563	-0.050902	47.7377	-0.266482	-1472.28	3.457403E-5	NaN
666	1.000000	0.762457	7.37157e+06	-43789.1	1005.82	-29778	0.000000	0.000000	6.763036	-0.079466	NaN	0.000000	0.001659	0.001694	28.081	0.031601	0.001929	16.3778	-98.6507	-165.379	-0.072631	0.761135	-0.259274	-0.260596	-0.079466	16.3778	-0.255635	-1004.35	7.912181E-5	NaN
666	1.000000	0.770451	7.37157e+06	-43789.1	1005.82	-29778	0.000000	0.000000	6.771031	-0.062523	NaN	0.000000	0.001661	0.001725	28.0812	0.046952	0.001958	23.9804	-178.46	-166.494	-0.060311	0.769098	-0.251279	-0.252632	-0.062523	23.9804	-0.249324	-802.607	7.789997E-5	NaN
666	1.000000	0.778477	7.37157e+06	-43789.1	1005.82	-29778	0.000000	0.000000	6.779057	-0.055102	NaN	0.000000	0.001697	0.001720	28.0814	0.045940	0.002051	22.3964	-163.922	-165.56	-0.123934	0.777200	-0.243254	-0.244531	-0.055102	22.3964	-0.241409	-604.701	9.112195E-5	NaN
666	1.000000	0.786479	7.37157e+06	-43789.1	1005.82	-29778	0.000000	0.000000	6.787056	-0.125946	NaN	0.000000	0.001668	0.001706	28.0811	0.007885	0.001912	4.124712	116.613	-162.633	-0.097499	0.785162	-0.235252	-0.236568	-0.125946	4.124712	-0.212351	-209.329	0.000602	NaN
666	1.000000	0.794484	7.37157e+06	-43789.1	1005.82	-29778	0.000000	0.000000	6.795063	-0.086727	NaN	0.000000	0.001652	0.001669	28.081	0.044217	0.001979	22.3466	97.1592	-165.42	-0.022038	0.793183	-0.227247	-0.228547	-0.086727	22.3466	-0.224336	-325.673	0.000266	NaN
666	1.000000	0.802483	7.37157e+06	-43789.1	1005.82	-29778	0.000000	0.000000	6.803061	-0.088797	NaN	0.000000	0.001682	0.001736	28.0809	0.069221	0.002132	32.4748	92.5482	-166.627	-0.031260	0.801150	-0.219248	-0.220581	-0.088797	32.4748	-0.217197	-250.498	0.000354	NaN
666	1.000000	0.810495	7.37157e+06	-43789.1	1005.82	-29778	0.000000	0.000000	6.811075	-0.058217	NaN	0.000000	0.001685	0.001726	28.0811	0.081804	0.001920	42.6087	-144.57	-162.406	0.003228	0.809158	-0.211235	-0.212573	-0.058217	42.6087	-0.210210	-193.298	0.000301	NaN
666	1.000000	0.818457	7.37157e+06	-43789.1	1005.82	-29778	0.000000	0.000000	6.819039	-0.017745	NaN	0.000000	0.001656	0.001697	28.081	0.056385	0.001973	28.5758	-139.044	-167.403	0.026863	0.817121	-0.203273	-0.204610	-0.017745	28.5758	-0.202807	-146.466	0.000121	NaN
666	1.000000	0.826471	7.37157e+06	-43789.1	1005.82	-29778	0.000000	0.000000	6.827050	-0.079892	NaN	0.000000	0.001704	0.001694	28.0811	0.085201	0.001887	45.1559	161.317	-163.262	-0.053747	0.825176	-0.195259	-0.196555	-0.079892	45.1559	-0.193932	-104.593	0.000764	NaN
666	1.000000	0.834497	7.37157e+06	-43789.1	1005.82	-29778	0.000000	0.000000	6.835076	-0.088965	NaN	0.000000	0.001678	0.001694	28.0813	0.114300	0.001982	57.6655	22.8939	-168.254	-0.118879	0.833218	-0.187233	-0.188512	-0.088965	57.6655	-0.186076	-77.3128	0.001151	NaN
666	1.000000	0.842500	7.37157e+06	-43789.1	1005.82	-29778	0.000000	0.000000	6.843083	0.028482	NaN	0.000000	0.001670	0.001707	28.0812	0.057794	0.002123	27.2261	-155.815	-164.213	0.085976	0.841191	-0.179231	-0.180539	0.028482	27.2261	-0.180015	-61.0559	-0.000466	NaN
666	1.000000	0.850485	7.37157e+06	-43789.1	1005.82	-29778	0.000000	0.000000	6.851067	-0.003267	NaN	0.000000	0.001695	0.001720	28.0823	0.025095	0.002081	12.0595	139.016	-164.387	0.021869	0.849231	-0.171246	-0.172500	-0.003267	12.0595	-0.171042	-42.8248	7.628584E-5	NaN
666	1.000000	0.858522	7.37157e+06	-43789.1	1005.82	-29778	0.000000	0.000000	6.859103	-0.045725	NaN	0.000000	0.001669	0.001700	28.0823	0.119711	0.002008	59.6311	-42.3814	-166.55	0.018902	0.857201	-0.163208	-0.164530	-0.045725	59.6311	-0.162633	-30.5231	0.001498	NaN
666	1.000000	0.866492	7.37157e+06	-43789.1	1005.82	-29778	0.000000	0.000000	6.867073	-0.025048	NaN	0.000000	0.001694	0.001696	28.0824	0.016143	0.001887	8.556264	42.9573	-161.886	0.017045	0.865268	-0.155239	-0.156462	-0.025048	8.556264	-0.153043	-20.572	0.001218	NaN
666	1.000000	0.874517	7.37157e+06	-43789.1	1005.82	-29778	0.000000	0.000000	6.875099	-0.008894	NaN	0.000000	0.001622	0.001710	28.0828	0.117515	0.001962	59.8856	98.4125	-165.017	-0.079710	0.873231	-0.147213	-0.148500	-0.008894	59.8856	-0.147102	-16.03	0.000555	NaN
666	1.000000	0.882534	7.37157e+06	-43789.1	1005.82	-29778	0.000000	0.000000	6.883113	-0.078709	NaN	0.000000	0.001672	0.001695	28.0821	0.086698	0.001952	44.4061	67.7892	-165.86	-0.036330	0.881202	-0.139196	-0.140529	-0.078709	44.4061	-0.137867	-10.7836	0.007299	NaN
666	1.000000	0.890488	7.37157e+06	-43789.1	1005.82	-29778	0.000000	0.000000	6.891066	-0.098950	NaN	0.000000	0.001644	0.001676	28.0821	0.016491	0.002023	8.152291	17.4828	-162.805	-0.036954	0.889193	-0.131243	-0.132538	-0.098950	8.152291	-0.122139	-5.334254	0.018550	NaN
666	1.000000	0.898516	7.37157e+06	-43789.1	1005.82	-29778	0.000000	0.000000	6.899099	0.018800	NaN	0.000000	0.001698	0.001717	28.0821	0.018778	0.002066	9.089980	151.576	-162.451	-0.028563	0.897196	-0.123214	-0.124534	0.018800	9.089980	-0.124765	-6.016558	-0.003125	NaN
666	1.000000	0.906543	7.37157e+06	-43789.1	1005.82	-29778	0.000000	0.000000	6.907124	-0.036903	NaN	0.000000	0.001665	0.001710	28.0822	0.133877	0.002070	64.6764	164.43	-164.961	-0.036058	0.905262	-0.115187	-0.116469	-0.036903	64.6764	-0.114759	-3.776963	0.009771	NaN
666	1.000000	0.914535	7.37157e+06	-43789.1	1005.82	-29778	0.000000	0.000000	6.915113	-0.093593	NaN	0.000000	0.001659	0.001709	28.0822	0.063673	0.001929	33.0015	28.9783	-166.322	-0.049395	0.913261	-0.107196	-0.108469	-0.093593	33.0015	-0.105069	-2.358621	0.039681	NaN
666	1.000000	0.922520	7.37157e+06	-43789.1	1005.82	-29778	0.000000	0.000000	6.923101	-0.033627	NaN	0.000000	0.001683	0.001709	28.082	0.021695	0.001957	11.0878	165.954	-166.819	0.012680	0.921225	-0.099211	-0.100506	-0.033627	11.0878	-0.096936	-1.560614	0.021547	NaN
666	1.000000	0.930511	7.37157e+06	-43789.1	1005.82	-29778	0.000000	0.000000	6.931092	-0.050384	NaN	0.000000	0.001659	0.001717	28.0824	0.029191	0.001997	14.6185	145.925	-167.379	-0.098248	0.929294	-0.091219	-0.092436	-0.050384	14.6185	-0.088634	-1.003780	0.050194	NaN
666	1.000000	0.938538	7.37157e+06	-43789.1	1005.82	-29778	0.000000	0.000000	6.939122	0.019304	NaN	0.000000	0.001675	0.001710	28.0822	0.048495	0.002018	24.0303	132.941	-166.549	-0.019568	0.937203	-0.083192	-0.084528	0.019304	24.0303	-0.083795	-0.768055	-0.025134	NaN
666	1.000000	0.946572	7.37157e+06	-43789.1	1005.82	-29778	0.000000	0.000000	6.947149	-0.116331	NaN	0.000000	0.001662	0.001741	28.0824	0.084172	0.002064	40.7892	51.9928	-162.938	-0.129952	0.945222	-0.075159	-0.076509	-0.116331	40.7892	-0.073020	-0.410148	0.283632	NaN
666	1.000000	0.954535	7.37157e+06	-43789.1	1005.82	-29778	0.000000	0.000000	6.955112	-0.133423	NaN	0.000000	0.001680	0.001699	28.0822	0.059073	0.001978	29.8699	-9.825266	-165.043	-0.117465	0.953199	-0.067196	-0.068531	-0.133423	29.8699	-0.063845	-0.231431	0.576514	NaN
666	1.000000	0.962527	7.37157e+06	-43789.1	1005.82	-29778	0.000000	0.000000	6.963106	-0.088117	NaN	0.000000	0.001688	0.001713	28.082	0.127431	0.002041	62.4433	48.1351	-168.291	-0.054754	0.961241	-0.059203	-0.060490	-0.088117	62.4433	-0.058145	-0.159211	0.553461	NaN
666	1.000000	0.970567	7.37157e+06	-43789.1	1005.82	-29778	0.000000	0.000000	6.971146	-0.099832	NaN	0.000000	0.001579	0.001709	28.0824	0.088993	0.002028	43.8832	-156.074	-162.644	-0.086564	0.969275	-0.051163	-0.052455	-0.099832	43.8832	-0.049457	-0.087861	1.136256	NaN
666	1.000000	0.978556	7.37157e+06	-43789.1	1005.82	-29778	0.000000	0.000000	6.979137	-0.033337	NaN	0.000000	0.001581	0.001729	28.0821	0.123294	0.001940	63.5408	123.967	-165.743	-0.053903	0.977262	-0.043174	-0.044468	-0.033337	63.5408	-0.042781	-0.054970	0.606454	NaN
666	1.000000	0.986579	7.37157e+06	-43789.1	1005.82	-29778	0.000000	0.000000	6.987161	-0.008166	NaN	0.000000	0.001589	0.001699	28.0812	0.127214	0.001928	65.9875	-85.6245	-164.995	-0.041003	0.985225	-0.035152	-0.036505	-0.008166	65.9875	-0.035059	-0.032152	0.253993	NaN
666	1.000000	0.994566	7.37157e+06	-43789.1	1005.82	-29778	0.000000	0.000000	6.995150	0.038883	NaN	0.000000	0.001581	0.001704	28.081	0.097661	0.002054	47.5395	-30.5248	-164.144	0.032001	0.993256	-0.027165	-0.028474	0.038883	47.5395	-0.027778	-0.019997	-1.944468	NaN
666	1.000000	1.002585	7.37157e+06	-43789.1	1005.82	-29778	0.000000	0.000000	7.003165	-0.048792	NaN	0.000000	0.001564	0.001736	28.0812	0.099962	0.002041	48.9851	-89.4403	-165.544	0.030939	1.001224	-0.019146	-0.020507	-0.048792	48.9851	-0.018399	-0.011431	4.268495	NaN
666	1.000000	1.010570	7.37157e+06	-43789.1	1005.82	-29778	0.000000	0.000000	7.011150	-0.059254	NaN	0.000000	0.001557	0.001693	28.0811	0.165458	0.002041	81.0866	-174.059	-168.134	-0.074209	1.009238	-0.011161	-0.012492	-0.059254	81.0866	-0.010613	-0.006737	8.794997	NaN
666	1.000000	1.018544	7.37157e+06	-43789.1	1005.82	-29778	0.000000	0.000000	7.019139	0.323426	NaN	0.000000	0.001609	0.001728	28.0811	0.617406	0.001988	310.575	13.7176	-168.275	0.022503	1.017252	-0.003187	-0.004478	0.323426	310.575	-0.003968	-0.002758	-117.264	NaN
666	2.000000	1.025999	7.37157e+06	-43789.1	1005.82	-29778	0.000000	0.000000	7.026972	9.525802	NaN	0.000000	0.001620	0.001724	28.0813	8.551911	0.001690	5059.47	9.004045	-171.354	8.310767	1.025161	0.004268	0.003431	9.525802	5059.47	0.002856	0.002259	4216.7	97255.4
666	2.000000	1.028153	7.37157e+06	-43789.1	1005.82	-29778	0.000000	0.000000	7.029191	11.0853	NaN	0.000000	0.001605	0.001736	28.0808	10.8739	0.001660	6549.8	6.822598	-171.82	11.7511	1.027905	0.006422	0.006174	11.0853	6549.8	0.005153	0.004273	2594.08	91542
666	2.000000	1.030134	7.37157e+06	-43789.1	1005.82	-29778	0.000000	0.000000	7.031368	15.8437	NaN	0.000000	0.001601	0.001728	28.0813	13.1537	0.001637	8037.33	4.526650	-171.739	15.1354	1.029808	0.008404	0.008078	15.8437	8037.33	0.006925	0.005960	2658.25	95116.1
666	2.000000	1.032136	7.37157e+06	-43789.1	1005.82	-29778	0.000000	0.000000	7.033482	18.5918	NaN	0.000000	0.001605	0.001694	28.0808	15.4078	0.001686	9139.21	6.807277	-174.746	18.8932	1.031778	0.010405	0.010048	18.5918	9139.21	0.008880	0.007963	2334.87	93573.4
666	2.000000	1.034103	7.37157e+06	-43789.1	1005.82	-29778	0.000000	0.000000	7.035714	25.0224	NaN	0.000000	0.001589	0.001711	28.0812	18.0166	0.001764	10214.8	5.212609	-175.002	24.5173	1.033754	0.012373	0.012024	25.0224	10214.8	0.010535	0.009782	2557.88	94357.9
666	2.000000	1.036166	7.37157e+06	-43789.1	1005.82	-29778	0.000000	0.000000	7.037926	28.6452	NaN	0.000000	0.001600	0.001721	28.081	20.4132	0.001670	12221.2	3.944502	-174.594	28.7283	1.035814	0.014436	0.014083	28.6452	12221.2	0.012678	0.012312	2326.57	100628
666	2.000000	1.038107	7.37157e+06	-43789.1	1005.82	-29778	0.000000	0.000000	7.040052	33.1704	NaN	0.000000	0.001587	0.001728	28.0813	22.4777	0.001744	12886.6	6.364218	-178.18	33.5765	1.037787	0.016376	0.016057	33.1704	12886.6	0.014446	0.014553	2279.25	97596
666	2.000000	1.040082	7.37157e+06	-43789.1	1005.82	-29778	0.000000	0.000000	7.042150	36.1324	NaN	0.000000	0.001571	0.001716	28.0821	24.9064	0.001773	14044.6	5.236124	-178.973	34.9462	1.039829	0.018352	0.018099	36.1324	14044.6	0.016422	0.017229	2097.19	97757.9
666	2.000000	1.042060	7.37157e+06	-43789.1	1005.82	-29778	0.000000	0.000000	7.044443	43.8026	NaN	0.000000	0.001614	0.001744	28.0811	25.9396	0.001628	15935.7	2.951157	-176.862	43.256	1.041771	0.020329	0.020041	43.8026	15935.7	0.018268	0.019893	2201.89	103227
666	2.000000	1.044026	7.37157e+06	-43789.1	1005.82	-29778	0.000000	0.000000	7.046705	51.0302	NaN	0.000000	0.001627	0.001753	28.081	29.0498	0.001722	16873.2	2.472870	-177.297	49.1964	1.043726	0.022295	0.021996	51.0302	16873.2	0.020027	0.022584	2259.53	102581
666	2.000000	1.046086	7.37157e+06	-43789.1	1005.82	-29778	0.000000	0.000000	7.048986	56.4015	NaN	0.000000	0.001592	0.001737	28.0809	31.4203	0.001900	16540.3	8.742373	178.794	54.6459	1.045668	0.024355	0.023937	56.4015	16540.3	0.021798	0.025446	2216.51	94733.9
666	2.000000	1.048073	7.37157e+06	-43789.1	1005.82	-29778	0.000000	0.000000	7.051191	61.6905	NaN	0.000000	0.001605	0.001737	28.0811	33.6316	0.001852	18159.5	5.217261	179.988	61.214	1.047755	0.026342	0.026025	61.6905	18159.5	0.023794	0.028859	2137.69	97665.4
666	2.000000	1.050039	7.37157e+06	-43789.1	1005.82	-29778	0.000000	0.000000	7.053462	69.1081	NaN	0.000000	0.001569	0.001757	28.0827	34.7241	0.001810	19180.7	1.156597	-175.833	67.6287	1.049774	0.028309	0.028043	69.1081	19180.7	0.025606	0.032128	2151.01	97767.3
666	2.000000	1.052048	7.37157e+06	-43789.1	1005.82	-29778	0.000000	0.000000	7.055790	76.8763	NaN	0.000000	0.001610	0.001729	28.0822	36.7797	0.001759	20909.1	6.409801	177.005	77.3162	1.051706	0.030317	0.029976	76.8763	20909.1	0.027560	0.035837	2145.15	100912
666	2.000000	1.054058	7.37157e+06	-43789.1	1005.82	-29778	0.000000	0.000000	7.057985	81.3619	NaN	0.000000	0.001589	0.001732	28.0824	38.9622	0.001844	21128.5	3.359886	-178.967	83.9471	1.053738	0.032328	0.032008	81.3619	21128.5	0.029440	0.039590	2055.11	97017.3
666	2.000000	1.056080	7.37157e+06	-43789.1	1005.82	-29778	0.000000	0.000000	7.060556	94.7359	NaN	0.000000	0.001608	0.001739	28.0822	40.4597	0.001784	22682.7	3.376635	179.986	93.2316	1.055674	0.034349	0.033943	94.7359	22682.7	0.031217	0.043304	2187.71	99587.5
666	2.000000	1.058010	7.37157e+06	-43789.1	1005.82	-29778	0.000000	0.000000	7.062857	103.764	NaN	0.000000	0.001585	0.001699	28.0822	42.6303	0.001865	22855.9	4.931650	178.392	102.215	1.057675	0.036279	0.035945	103.764	22855.9	0.032874	0.046912	2211.86	96411.5
666	2.000000	1.060016	7.37157e+06	-43789.1	1005.82	-29778	0.000000	0.000000	7.065204	112.063	NaN	0.000000	0.001579	0.001729	28.0835	44.5002	0.001805	24651.9	4.306558	178.502	110.421	1.059748	0.038285	0.038018	112.063	24651.9	0.034876	0.051457	2177.79	99289.1
666	2.000000	1.062087	7.37157e+06	-43789.1	1005.82	-29778	0.000000	0.000000	7.067628	120.65	NaN	0.000000	0.001569	0.001756	28.0822	45.3557	0.001786	25400.1	6.328106	177.252	120.436	1.061660	0.040356	0.039930	120.65	25400.1	0.036794	0.056005	2154.28	98061.1
666	2.000000	1.064012	7.37157e+06	-43789.1	1005.82	-29778	0.000000	0.000000	7.069788	126.358	NaN	0.000000	0.001616	0.001713	28.0823	46.997	0.001759	26721.3	3.662863	178.542	125.233	1.063664	0.042282	0.041934	126.358	26721.3	0.038735	0.060800	2078.26	99010
666	2.000000	1.066045	7.37157e+06	-43789.1	1005.82	-29778	0.000000	0.000000	7.072286	137.657	NaN	0.000000	0.001606	0.001760	28.0823	50.0217	0.001919	26067.1	8.532276	174.988	137.47	1.065646	0.044315	0.043916	137.657	26067.1	0.040354	0.064946	2119.56	93452.1
666	2.000000	1.068005	7.37157e+06	-43789.1	1005.82	-29778	0.000000	0.000000	7.074712	148.999	NaN	0.000000	0.001600	0.001730	28.0821	51.1564	0.001743	29351.1	5.596008	175.426	147.899	1.067726	0.046275	0.045995	148.999	29351.1	0.042467	0.070561	2111.65	100952
666	2.000000	1.070040	7.37157e+06	-43789.1	1005.82	-29778	0.000000	0.000000	7.077191	159.818	NaN	0.000000	0.001594	0.001742	28.0826	52.9497	0.001807	29297.6	1.137317	-179.113	159.004	1.069650	0.048309	0.047919	159.818	29297.6	0.044218	0.075383	2120.09	97492.2
666	2.000000	1.072001	7.37157e+06	-43789.1	1005.82	-29778	0.000000	0.000000	7.079640	171.683	NaN	0.000000	0.001611	0.001723	28.0822	53.9697	0.001825	29569.4	3.507928	177.437	170.131	1.071700	0.050271	0.049970	171.683	29569.4	0.045916	0.080210	2140.42	95389.8
666	2.000000	1.073981	7.37157e+06	-43789.1	1005.82	-29778	0.000000	0.000000	7.082050	182.161	NaN	0.000000	0.001570	0.001729	28.0826	57.4556	0.001912	30042.8	8.293336	173.178	180.265	1.073667	0.052250	0.051937	182.161	30042.8	0.047703	0.085445	2131.91	93901.1
666	2.000000	1.076019	7.37157e+06	-43789.1	1005.82	-29778	0.000000	0.000000	7.084692	196.852	NaN	0.000000	0.001582	0.001739	28.0824	58.0158	0.001820	31877.9	4.840847	176.943	196.489	1.075630	0.054288	0.053900	196.852	31877.9	0.049657	0.091356	2154.79	96359.8
666	2.000000	1.077977	7.37157e+06	-43789.1	1005.82	-29778	0.000000	0.000000	7.087044	206.438	NaN	0.000000	0.001612	0.001743	28.0826	59.4069	0.001852	32082.7	4.098855	178.133	206.257	1.077670	0.056246	0.055939	206.438	32082.7	0.051420	0.096854	2131.44	94186
666	2.000000	1.079947	7.37157e+06	-43789.1	1005.82	-29778	0.000000	0.000000	7.089541	219.239	NaN	0.000000	0.001587	0.001729	28.0824	61.395	0.001803	34056.5	5.721427	174.364	215.973	1.079630	0.058217	0.057899	219.239	34056.5	0.053389	0.103175	2124.93	96869.3
666	2.000000	1.082011	7.37157e+06	-43789.1	1005.82	-29778	0.000000	0.000000	7.092111	231.556	NaN	0.000000	0.001572	0.001737	28.0823	61.968	0.001645	37661.8	6.495403	172.409	230.582	1.081697	0.060280	0.059966	231.556	37661.8	0.055669	0.110738	2091.03	103401
666	2.000000	1.084001	7.37157e+06	-43789.1	1005.82	-29778	0.000000	0.000000	7.094557	242.634	NaN	0.000000	0.001679	0.001734	28.0814	63.3578	0.001799	35212.4	1.722342	178.335	243	1.083656	0.062271	0.061926	242.634	35212.4	0.057103	0.115625	2098.45	94611.2
666	2.000000	1.086021	7.37157e+06	-43789.1	1005.82	-29778	0.000000	0.000000	7.097198	257.756	NaN	0.000000	0.001667	0.001742	28.0811	65.972	0.001707	38644	4.506106	175.251	255.611	1.085628	0.064291	0.063898	257.756	38644	0.059288	0.123268	2091.03	100561
666	2.000000	1.087985	7.37157e+06	-43789.1	1005.82	-29778	0.000000	0.000000	7.099653	269.695	NaN	0.000000	0.001682	0.001747	28.0815	67.1994	0.001681	39986.1	5.803642	173.716	270.014	1.087546	0.066255	0.065816	269.695	39986.1	0.061196	0.130133	2072.46	101272
666	2.000000	1.089968	7.37157e+06	-43789.1	1005.82	-29778	0.000000	0.000000	7.102101	281.013	NaN	0.000000	0.001612	0.001712	28.0812	70.5284	0.001789	39422.5	2.107118	177.159	278.509	1.089725	0.068238	0.067994	281.013	39422.5	0.062892	0.136381	2060.5	97530.4
666	2.000000	1.091910	7.37157e+06	-43789.1	1005.82	-29778	0.000000	0.000000	7.104621	295.073	NaN	0.000000	0.001657	0.001721	28.0811	70.8926	0.001722	41175.4	5.184720	173.325	290.259	1.091609	0.070180	0.069878	295.073	41175.4	0.064805	0.143601	2054.82	99273.4
666	2.000000	1.093915	7.37157e+06	-43789.1	1005.82	-29778	0.000000	0.000000	7.106990	303.952	NaN	0.000000	0.001662	0.001721	28.0812	73.4146	0.001634	44927.8	3.626473	173.958	299.404	1.093745	0.072184	0.072015	303.952	44927.8	0.067110	0.152531	1992.73	105102
666	2.000000	1.096040	7.37157e+06	-43789.1	1005.82	-29778	0.000000	0.000000	7.109914	323.388	NaN	0.000000	0.001638	0.001767	28.081	76.0209	0.001778	42750.4	4.312886	174.352	323.406	1.095678	0.074309	0.073947	323.388	42750.4	0.068636	0.158584	2039.23	98080.9
666	2.000000	1.098032	7.37157e+06	-43789.1	1005.82	-29778	0.000000	0.000000	7.112275	332.368	NaN	0.000000	0.001641	0.001744	28.0811	77.3129	0.001831	42235.4	1.117662	177.423	332.8	1.097719	0.076301	0.075988	332.368	42235.4	0.070399	0.165715	2005.66	94791.5
666	2.000000	1.100013	7.37157e+06	-43789.1	1005.82	-29778	0.000000	0.000000	7.114653	342.011	NaN	0.000000	0.001630	0.001762	28.0812	80.347	0.001792	44841.4	2.079601	175.784	341.742	1.099760	0.078282	0.078030	342.011	44841.4	0.072562	0.174666	1958.08	98027.6
666	2.000000	1.102002	7.37157e+06	-43789.1	1005.82	-29778	0.000000	0.000000	7.117492	362.701	NaN	0.000000	0.001650	0.001753	28.0811	81.4903	0.001742	46774.3	4.654193	173.406	362.459	1.101670	0.080272	0.079940	362.701	46774.3	0.074456	0.182685	1985.39	99983.9
666	2.000000	1.104061	7.37157e+06	-43789.1	1005.82	-29778	0.000000	0.000000	7.119953	372.46	NaN	0.000000	0.001654	0.001765	28.0815	85.2425	0.001816	46935.4	6.035024	171.866	376.505	1.103556	0.082331	0.081825	372.46	46935.4	0.076379	0.191001	1950.05	98119.7
666	2.000000	1.105941	7.37157e+06	-43789.1	1005.82	-29778	0.000000	0.000000	7.122686	393.218	NaN	0.000000	0.001660	0.001778	28.0811	86.2454	0.001786	48283.8	2.727884	175.314	390.418	1.105591	0.084211	0.083860	393.218	48283.8	0.078103	0.198601	1979.94	98988.3
666	2.000000	1.107974	7.37157e+06	-43789.1	1005.82	-29778	0.000000	0.000000	7.125263	406.446	NaN	0.000000	0.001611	0.001767	28.0812	87.5384	0.001778	49240.5	6.003799	171.919	405.965	1.107665	0.086244	0.085935	406.446	49240.5	0.080053	0.207369	1960.01	98792.3
666	2.000000	1.109969	7.37157e+06	-43789.1	1005.82	-29778	0.000000	0.000000	7.127742	418.246	NaN	0.000000	0.001643	0.001790	28.0812	90.5558	0.001783	50787	3.582768	173.515	415.671	1.109613	0.088238	0.087882	418.246	50787	0.082062	0.216586	1931.09	99703.5
666	2.000000	1.112083	7.37157e+06	-43789.1	1005.82	-29778	0.000000	0.000000	7.130359	430.46	NaN	0.000000	0.001618	0.001803	28.0812	92.0431	0.001914	48088.6	7.091220	170.709	436.183	1.111675	0.090353	0.089944	430.46	48088.6	0.083639	0.223954	1922.09	92840.2
666	2.000000	1.113972	7.37157e+06	-43789.1	1005.82	-29778	0.000000	0.000000	7.133068	450.427	NaN	0.000000	0.001599	0.001765	28.0816	94.2058	0.001883	50033.4	7.514667	169.966	447.734	1.113541	0.092241	0.091811	450.427	50033.4	0.085489	0.232741	1935.31	94753.8
666	2.000000	1.115943	7.37157e+06	-43789.1	1005.82	-29778	0.000000	0.000000	7.135681	466.033	NaN	0.000000	0.001602	0.001771	28.0811	93.8398	0.001721	54533.9	3.155378	173.646	463.461	1.115650	0.094213	0.093919	466.033	54533.9	0.087803	0.243955	1910.32	100875
666	2.000000	1.117938	7.37157e+06	-43789.1	1005.82	-29778	0.000000	0.000000	7.138516	486.499	NaN	0.000000	0.001605	0.001762	28.0829	95.9859	0.001783	53820.3	7.556730	170.099	484.531	1.117546	0.096207	0.095815	486.499	53820.3	0.089428	0.251974	1930.75	97958.3
666	2.000000	1.119922	7.37157e+06	-43789.1	1005.82	-29778	0.000000	0.000000	7.141037	499.538	NaN	0.000000	0.001593	0.001778	28.0823	99.2484	0.001813	54734.5	7.386923	169.698	496.572	1.119582	0.098191	0.097851	499.538	54734.5	0.091347	0.261604	1909.52	97771.4
666	2.000000	1.121944	7.37157e+06	-43789.1	1005.82	-29778	0.000000	0.000000	7.143356	506.779	NaN	0.000000	0.001621	0.001773	28.0826	99.007	0.001871	52920.9	-0.309434	177.194	504.03	1.121780	0.100213	0.100049	506.779	52920.9	0.093031	0.270197	1875.59	93016.5
666	2.000000	1.123982	7.37157e+06	-43789.1	1005.82	-29778	0.000000	0.000000	7.146610	536.37	NaN	0.000000	0.001617	0.001775	28.0824	102.678	0.001869	54949.2	6.115157	170.821	535.885	1.123573	0.102251	0.101842	536.37	54949.2	0.094930	0.280039	1915.34	94869.1
666	2.000000	1.124444	7.37157e+06	-43789.1	1005.82	-29778	0.000000	0.000000	7.147076	536.445	NaN	0.000000	0.001609	0.001762	28.0822	102.691	0.001912	53700.9	5.145897	-8.310648	534.969	1.124210	0.102714	0.102479	536.445	53700.9	0.095222	0.281563	1905.24	92462.7