File: remote_trans/data/nanoindenter/0828-1/data/Data_2025-08-06,11h17m57s/2025-07-22_16-23-58_1_1117.txt
2025-07-22, 16:23:58, 1
Index	Phase	Displacement	Time	Pos X	Pos Y	Pos Z	Rot A	Rot B	Piezo Z	Force A	Force B	Gripper	Voltage A	Voltage B	Temperature	Amplitude force	Amplitude pos	Stiffness	Phase shift	Phase excitation	Force A raw	Displacement raw	HMax	HMax raw	Real Force	Real Stiffness	Contact Depth	Area	Hardness	Reduced Mod.
[#]	[#]	[um]	[s]	[um]	[um]	[um]	[m°]	[m°]	[um]	[uN]	[uN]	[V]	[V]	[V]	[°C]	[uN]	[um]	[N/m]	[°]	[°]	[uN]	[um]	[um]	[um]	[uN]	[N/m]	[um]	[um^2]	[MPa]	[MPa]
1117	1.000000	0.002797	7.37598e+06	-55989.1	1055.82	-29740.1	0.000000	0.000000	6.002799	-0.003192	NaN	0.000000	0.001575	0.001810	28.082	0.011963	0.000967	12.376	-169.715	-163.428	0.042506	0.001556	-1.129036	-1.130277	-0.003192	12.376	-1.128843	-1.222076E+15	2.611632E-18	NaN
1117	1.000000	0.012874	7.37598e+06	-55989.1	1055.82	-29740.1	0.000000	0.000000	6.012876	-0.025285	NaN	0.000000	0.001578	0.001785	28.0817	0.018606	0.001232	15.1012	-133.196	21.608	0.008232	0.011443	-1.118958	-1.120390	-0.025285	15.1012	-1.117703	-8.662576E+14	2.918918E-17	NaN
1117	1.000000	0.022725	7.37598e+06	-55989.1	1055.82	-29740.1	0.000000	0.000000	6.022731	0.092706	NaN	0.000000	0.001568	0.001755	28.0817	0.110923	0.001642	67.5574	-44.4448	-165.565	0.057994	0.021419	-1.109108	-1.110414	0.092706	67.5574	-1.110137	-6.856880E+14	-1.352010E-16	NaN
1117	1.000000	0.032752	7.37598e+06	-55989.1	1055.82	-29740.1	0.000000	0.000000	6.032754	0.001382	NaN	0.000000	0.001565	0.001729	28.0815	0.040036	0.001907	20.9945	-148.035	18.2555	0.003174	0.031443	-1.099081	-1.100390	0.001382	20.9945	-1.099130	-4.879713E+14	-2.832865E-18	NaN
1117	1.000000	0.042729	7.37598e+06	-55989.1	1055.82	-29740.1	0.000000	0.000000	6.042730	-0.048526	NaN	0.000000	0.001552	0.001756	28.082	0.024126	0.002123	11.3632	-97.0663	-167.198	-0.043980	0.041408	-1.089104	-1.090425	-0.048526	11.3632	-1.085901	-3.241655E+14	1.496963E-16	NaN
1117	1.000000	0.052720	7.37598e+06	-55989.1	1055.82	-29740.1	0.000000	0.000000	6.052724	0.052596	NaN	0.000000	0.001575	0.001744	28.0815	0.083128	0.002064	40.2791	-95.3189	10.0523	0.106135	0.051366	-1.079113	-1.080467	0.052596	40.2791	-1.080092	-2.708695E+14	-1.941749E-16	NaN
1117	1.000000	0.062739	7.37598e+06	-55989.1	1055.82	-29740.1	0.000000	0.000000	6.062739	-0.056428	NaN	0.000000	0.001568	0.001747	28.0828	0.033230	0.001926	17.2566	112.216	-165.764	-0.073918	0.061423	-1.069093	-1.070410	-0.056428	17.2566	-1.066641	-1.786734E+14	3.158144E-16	NaN
1117	1.000000	0.072735	7.37598e+06	-55989.1	1055.82	-29740.1	0.000000	0.000000	6.072739	0.037380	NaN	0.000000	0.001532	0.001751	28.0829	0.040789	0.002090	19.5204	-177.472	14.3747	0.008957	0.071351	-1.059098	-1.060482	0.037380	19.5204	-1.060534	-1.479089E+14	-2.527235E-16	NaN
1117	1.000000	0.082733	7.37598e+06	-55989.1	1055.82	-29740.1	0.000000	0.000000	6.082737	0.042184	NaN	0.000000	0.001509	0.001776	28.083	0.110189	0.002071	53.2042	113.076	-166.813	0.113135	0.081476	-1.049100	-1.050357	0.042184	53.2042	-1.049695	-1.057567E+14	-3.988810E-16	NaN
1117	1.000000	0.092767	7.37598e+06	-55989.1	1055.82	-29740.1	0.000000	0.000000	6.092771	0.039879	NaN	0.000000	0.001527	0.001754	28.0829	0.046514	0.001973	23.5714	-51.6748	16.4133	-0.024002	0.091395	-1.039065	-1.040437	0.039879	23.5714	-1.040334	-7.915226E+13	-5.038253E-16	NaN
1117	1.000000	0.102747	7.37598e+06	-55989.1	1055.82	-29740.1	0.000000	0.000000	6.102749	-0.004579	NaN	0.000000	0.001548	0.001748	28.0828	0.077403	0.002046	37.8245	-105.098	-163.223	0.032664	0.101459	-1.029086	-1.030373	-0.004579	37.8245	-1.028995	-5.571398E+13	8.218160E-17	NaN
1117	1.000000	0.112782	7.37598e+06	-55989.1	1055.82	-29740.1	0.000000	0.000000	6.112784	-0.009379	NaN	0.000000	0.001530	0.001799	28.0831	0.105141	0.001919	54.7964	-160.483	16.1305	0.078262	0.111426	-1.019051	-1.020407	-0.009379	54.7964	-1.018922	-4.078023E+13	2.299780E-16	NaN
1117	1.000000	0.122769	7.37598e+06	-55989.1	1055.82	-29740.1	0.000000	0.000000	6.122772	0.019033	NaN	0.000000	0.001559	0.001780	28.083	0.092923	0.002092	44.4125	152.484	-164.974	0.018300	0.121440	-1.009064	-1.010393	0.019033	44.4125	-1.009385	-3.034664E+13	-6.272008E-16	NaN
1117	1.000000	0.132767	7.37598e+06	-55989.1	1055.82	-29740.1	0.000000	0.000000	6.132766	-0.077335	NaN	0.000000	0.001573	0.001769	28.0828	0.018222	0.002045	8.909491	168.431	17.3503	-0.037183	0.131413	-0.999066	-1.000420	-0.077335	8.909491	-0.992556	-1.801084E+13	4.293805E-15	NaN
1117	1.000000	0.142788	7.37598e+06	-55989.1	1055.82	-29740.1	0.000000	0.000000	6.142790	0.001771	NaN	0.000000	0.001545	0.001801	28.0828	0.054676	0.001871	29.2219	67.8352	-166.123	-0.010075	0.141470	-0.989045	-0.990363	0.001771	29.2219	-0.989090	-1.617565E+13	-1.094587E-16	NaN
1117	1.000000	0.152763	7.37598e+06	-55989.1	1055.82	-29740.1	0.000000	0.000000	6.152764	-0.031220	NaN	0.000000	0.001556	0.001782	28.0832	0.058586	0.002099	27.9122	89.187	13.6708	-0.002367	0.151431	-0.979069	-0.980402	-0.031220	27.9122	-0.978231	-1.154971E+13	2.703083E-15	NaN
1117	1.000000	0.162816	7.37598e+06	-55989.1	1055.82	-29740.1	0.000000	0.000000	6.162819	0.000718	NaN	0.000000	0.001552	0.001752	28.0828	0.152439	0.001959	77.8289	-41.4815	-164.197	0.004487	0.161475	-0.969017	-0.970358	0.000718	77.8289	-0.969024	-8.679696E+12	-8.271258E-17	NaN
1117	1.000000	0.172820	7.37598e+06	-55989.1	1055.82	-29740.1	0.000000	0.000000	6.172824	0.041670	NaN	0.000000	0.001553	0.001741	28.083	0.068210	0.002010	33.9389	170.303	14.4636	-0.036610	0.171428	-0.959013	-0.960405	0.041670	33.9389	-0.959934	-6.546036E+12	-6.365734E-15	NaN
1117	1.000000	0.182789	7.37598e+06	-55989.1	1055.82	-29740.1	0.000000	0.000000	6.182792	0.002423	NaN	0.000000	0.001585	0.001772	28.083	0.158591	0.002039	77.7685	144.912	-163.799	0.056023	0.181517	-0.949043	-0.950316	0.002423	77.7685	-0.949067	-4.671350E+12	-5.186389E-16	NaN
1117	1.000000	0.192791	7.37598e+06	-55989.1	1055.82	-29740.1	0.000000	0.000000	6.192793	-0.007023	NaN	0.000000	0.001584	0.001802	28.0819	0.070875	0.002011	35.2504	-96.4268	13.4558	0.021413	0.191446	-0.939042	-0.940387	-0.007023	35.2504	-0.938892	-3.405568E+12	2.062169E-15	NaN
1117	1.000000	0.202816	7.37598e+06	-55989.1	1055.82	-29740.1	0.000000	0.000000	6.202822	0.082294	NaN	0.000000	0.001569	0.001766	28.0814	0.098399	0.001921	51.2162	128.458	-164.095	0.022863	0.201488	-0.929017	-0.930345	0.082294	51.2162	-0.930222	-2.601290E+12	-3.163581E-14	NaN
1117	1.000000	0.212805	7.37598e+06	-55989.1	1055.82	-29740.1	0.000000	0.000000	6.212809	0.032871	NaN	0.000000	0.001557	0.001770	28.0814	0.011975	0.002037	5.878062	5.110692	13.7808	0.069714	0.211465	-0.919028	-0.920368	0.032871	5.878062	-0.923222	-2.092674E+12	-1.570760E-14	NaN
1117	1.000000	0.222784	7.37598e+06	-55989.1	1055.82	-29740.1	0.000000	0.000000	6.222786	-0.017040	NaN	0.000000	0.001562	0.001778	28.0817	0.093743	0.001940	48.3126	145.109	-167.111	-0.044848	0.221458	-0.909049	-0.910375	-0.017040	48.3126	-0.908784	-1.335798E+12	1.275612E-14	NaN
1117	1.000000	0.232813	7.37598e+06	-55989.1	1055.82	-29740.1	0.000000	0.000000	6.232815	0.003707	NaN	0.000000	0.001532	0.001786	28.0814	0.016767	0.002122	7.902132	28.8928	14.8725	-0.051458	0.231464	-0.899020	-0.900369	0.003707	7.902132	-0.899372	-9.967384E+11	-3.719357E-15	NaN
1117	1.000000	0.242819	7.37598e+06	-55989.1	1055.82	-29740.1	0.000000	0.000000	6.242821	0.002691	NaN	0.000000	0.001591	0.001778	28.0813	0.055349	0.001971	28.0873	-28.1017	-169.474	-0.046182	0.241531	-0.889014	-0.890302	0.002691	28.0873	-0.889086	-7.236992E+11	-3.718201E-15	NaN
1117	1.000000	0.252830	7.37598e+06	-55989.1	1055.82	-29740.1	0.000000	0.000000	6.252832	-0.013414	NaN	0.000000	0.001657	0.001702	28.0816	0.095599	0.002027	47.1592	-4.093083	12.9508	0.080308	0.251438	-0.879003	-0.880395	-0.013414	47.1592	-0.878790	-5.252176E+11	2.554053E-14	NaN
1117	1.000000	0.262848	7.37598e+06	-55989.1	1055.82	-29740.1	0.000000	0.000000	6.262853	0.060242	NaN	0.000000	0.001625	0.001730	28.0817	0.051327	0.002041	25.1427	140.819	-163.46	0.102116	0.261523	-0.868985	-0.870310	0.060242	25.1427	-0.870782	-4.092771E+11	-1.471913E-13	NaN
1117	1.000000	0.272848	7.37598e+06	-55989.1	1055.82	-29740.1	0.000000	0.000000	6.272852	0.030734	NaN	0.000000	0.001624	0.001684	28.0818	0.021173	0.002094	10.1102	-14.3558	14.6386	0.010074	0.271423	-0.858985	-0.860410	0.030734	10.1102	-0.861265	-3.042541E+11	-1.010140E-13	NaN
1117	1.000000	0.282824	7.37598e+06	-55989.1	1055.82	-29740.1	0.000000	0.000000	6.282826	-0.004679	NaN	0.000000	0.001533	0.001690	28.0816	0.065484	0.001935	33.8391	23.5657	-166.098	0.022183	0.281538	-0.849009	-0.850295	-0.004679	33.8391	-0.848905	-2.069739E+11	2.260508E-14	NaN
1117	1.000000	0.292832	7.37598e+06	-55989.1	1055.82	-29740.1	0.000000	0.000000	6.292834	0.001600	NaN	0.000000	0.001568	0.001682	28.0819	0.058411	0.001920	30.417	-100.042	15.7354	0.042758	0.291479	-0.839001	-0.840354	0.001600	30.417	-0.839040	-1.521564E+11	-1.051482E-14	NaN
1117	1.000000	0.302842	7.37598e+06	-55989.1	1055.82	-29740.1	0.000000	0.000000	6.302847	0.051701	NaN	0.000000	0.001593	0.001667	28.0815	0.061672	0.002052	30.0583	104.58	-164.514	-0.004150	0.301570	-0.828990	-0.830263	0.051701	30.0583	-0.830280	-1.157669E+11	-4.465963E-13	NaN
1117	1.000000	0.312865	7.37598e+06	-55989.1	1055.82	-29740.1	0.000000	0.000000	6.312871	0.081382	NaN	0.000000	0.001645	0.001661	28.0816	0.037817	0.002013	18.789	-26.8777	15.0183	0.036708	0.311458	-0.818968	-0.820374	0.081382	18.789	-0.822216	-9.000377E+10	-9.042075E-13	NaN
1117	1.000000	0.322840	7.37598e+06	-55989.1	1055.82	-29740.1	0.000000	0.000000	6.322842	-0.014248	NaN	0.000000	0.001594	0.001684	28.0815	0.023361	0.001882	12.4141	124.766	-163.222	0.007543	0.321557	-0.808993	-0.810276	-0.014248	12.4141	-0.808132	-5.797271E+10	2.457741E-13	NaN
1117	1.000000	0.332865	7.37598e+06	-55989.1	1055.82	-29740.1	0.000000	0.000000	6.332867	-0.003611	NaN	0.000000	0.001627	0.001659	28.083	0.049105	0.001981	24.7897	14.7893	13.5443	-0.004441	0.331540	-0.798968	-0.800292	-0.003611	24.7897	-0.798859	-4.338790E+10	8.322919E-14	NaN
1117	1.000000	0.342855	7.37598e+06	-55989.1	1055.82	-29740.1	0.000000	0.000000	6.342860	0.077035	NaN	0.000000	0.001616	0.001684	28.0826	0.077606	0.002064	37.5976	-145.305	-162.956	0.109494	0.341549	-0.788978	-0.790284	0.077035	37.5976	-0.790515	-3.342518E+10	-2.304704E-12	NaN
1117	1.000000	0.352866	7.37598e+06	-55989.1	1055.82	-29740.1	0.000000	0.000000	6.352869	0.015811	NaN	0.000000	0.001586	0.001627	28.0827	0.055468	0.001881	29.4962	-52.7536	14.7131	0.024660	0.351460	-0.778967	-0.780373	0.015811	29.4962	-0.779369	-2.358594E+10	-6.703498E-13	NaN
1117	1.000000	0.362874	7.37598e+06	-55989.1	1055.82	-29740.1	0.000000	0.000000	6.362876	-0.009087	NaN	0.000000	0.001587	0.001672	28.0827	0.017573	0.002093	8.397004	-28.5733	-168.612	-0.023354	0.361562	-0.768959	-0.770271	-0.009087	8.397004	-0.768147	-1.660009E+10	5.474090E-13	NaN
1117	1.000000	0.372876	7.37598e+06	-55989.1	1055.82	-29740.1	0.000000	0.000000	6.372881	0.045204	NaN	0.000000	0.001591	0.001699	28.0827	0.021358	0.001962	10.8873	36.7605	13.9705	0.027342	0.371543	-0.758956	-0.760290	0.045204	10.8873	-0.762070	-1.372355E+10	-3.293873E-12	NaN
1117	1.000000	0.382883	7.37598e+06	-55989.1	1055.82	-29740.1	0.000000	0.000000	6.382887	0.028066	NaN	0.000000	0.001617	0.001722	28.0827	0.093664	0.001933	48.4568	124.447	-161.073	-0.007460	0.381575	-0.748949	-0.750258	0.028066	48.4568	-0.749384	-9.222135E+9	-3.043351E-12	NaN
1117	1.000000	0.392873	7.37598e+06	-55989.1	1055.82	-29740.1	0.000000	0.000000	6.392875	0.008017	NaN	0.000000	0.001647	0.001708	28.0826	0.023162	0.002098	11.042	-82.9475	15.2921	0.011393	0.391565	-0.738960	-0.740268	0.008017	11.042	-0.739505	-6.765628E+9	-1.184928E-12	NaN
1117	1.000000	0.402879	7.37598e+06	-55989.1	1055.82	-29740.1	0.000000	0.000000	6.402878	-0.078108	NaN	0.000000	0.001625	0.001703	28.0829	0.071263	0.001988	35.8443	115.49	-168.564	-0.050718	0.401617	-0.728954	-0.730216	-0.078108	35.8443	-0.727320	-4.616132E+9	1.692066E-11	NaN
1117	1.000000	0.412899	7.37598e+06	-55989.1	1055.82	-29740.1	0.000000	0.000000	6.412899	-0.058135	NaN	0.000000	0.001640	0.001662	28.0827	0.065104	0.001982	32.8468	103.465	13.9533	-0.108187	0.411485	-0.718933	-0.720347	-0.058135	32.8468	-0.717606	-3.402679E+9	1.708520E-11	NaN
1117	1.000000	0.422916	7.37598e+06	-55989.1	1055.82	-29740.1	0.000000	0.000000	6.422922	0.066917	NaN	0.000000	0.001598	0.001703	28.0826	0.023765	0.001977	12.0198	141.143	-163.25	0.043082	0.421599	-0.708916	-0.710234	0.066917	12.0198	-0.713092	-2.952831E+9	-2.266196E-11	NaN
1117	1.000000	0.432916	7.37598e+06	-55989.1	1055.82	-29740.1	0.000000	0.000000	6.432919	0.014275	NaN	0.000000	0.001609	0.001690	28.0828	0.110985	0.002080	53.369	59.2114	12.1463	0.011480	0.431585	-0.698917	-0.700248	0.014275	53.369	-0.699118	-1.903198E+9	-7.500514E-12	NaN
1117	1.000000	0.442900	7.37598e+06	-55989.1	1055.82	-29740.1	0.000000	0.000000	6.442902	-0.001853	NaN	0.000000	0.001595	0.001683	28.0828	0.022353	0.001878	11.9011	-161.361	-165.151	-0.006326	0.441606	-0.688933	-0.690226	-0.001853	11.9011	-0.688816	-1.376383E+9	1.346325E-12	NaN
1117	1.000000	0.452904	7.37598e+06	-55989.1	1055.82	-29740.1	0.000000	0.000000	6.452905	-0.043739	NaN	0.000000	0.001570	0.001702	28.0826	0.026815	0.002025	13.2417	-44.89	13.5083	-0.029225	0.451497	-0.678928	-0.680336	-0.043739	13.2417	-0.676451	-9.325278E+8	4.690347E-11	NaN
1117	1.000000	0.462895	7.37598e+06	-55989.1	1055.82	-29740.1	0.000000	0.000000	6.462901	0.080172	NaN	0.000000	0.001487	0.001671	28.0826	0.065849	0.001915	34.3904	22.387	-164.656	0.089232	0.461622	-0.668937	-0.670211	0.080172	34.3904	-0.670686	-7.776372E+8	-1.030966E-10	NaN
1117	1.000000	0.472926	7.37598e+06	-55989.1	1055.82	-29740.1	0.000000	0.000000	6.472930	0.045184	NaN	0.000000	0.001507	0.001666	28.0816	0.017616	0.001985	8.873060	39.2909	11.7615	0.013648	0.471565	-0.658907	-0.660267	0.045184	8.873060	-0.662726	-6.050751E+8	-7.467449E-11	NaN
1117	1.000000	0.482906	7.37598e+06	-55989.1	1055.82	-29740.1	0.000000	0.000000	6.482909	0.007917	NaN	0.000000	0.001530	0.001673	28.0813	0.085528	0.001958	43.6914	-26.2504	-166.827	-0.090725	0.481690	-0.648927	-0.650143	0.007917	43.6914	-0.649063	-3.931745E+8	-2.013667E-11	NaN
1117	1.000000	0.492944	7.37598e+06	-55989.1	1055.82	-29740.1	0.000000	0.000000	6.492947	0.030075	NaN	0.000000	0.001522	0.001689	28.0814	0.022637	0.001976	11.456	-112.488	14.4232	0.043323	0.491566	-0.638889	-0.640267	0.030075	11.456	-0.640858	-3.034338E+8	-9.911420E-11	NaN
1117	1.000000	0.502939	7.37598e+06	-55989.1	1055.82	-29740.1	0.000000	0.000000	6.502941	8.507844E-5	NaN	0.000000	0.001518	0.001681	28.0816	0.073738	0.002001	36.853	47.346	-164.537	0.009266	0.501638	-0.628894	-0.630195	8.507844E-5	36.853	-0.628896	-2.079021E+8	-4.092236E-13	NaN
1117	1.000000	0.512947	7.37598e+06	-55989.1	1055.82	-29740.1	0.000000	0.000000	6.512948	-0.016669	NaN	0.000000	0.001556	0.001712	28.0815	0.032788	0.002030	16.15	-148.541	13.6463	-0.114272	0.511562	-0.618886	-0.620271	-0.016669	16.15	-0.618112	-1.478024E+8	1.127772E-10	NaN
1117	1.000000	0.522924	7.37598e+06	-55989.1	1055.82	-29740.1	0.000000	0.000000	6.522928	0.044349	NaN	0.000000	0.001520	0.001697	28.0813	0.047991	0.001908	25.1527	48.5884	-161.548	0.067190	0.521632	-0.608909	-0.610201	0.044349	25.1527	-0.610231	-1.151578E+8	-3.851182E-10	NaN
1117	1.000000	0.532949	7.37598e+06	-55989.1	1055.82	-29740.1	0.000000	0.000000	6.532949	-0.049602	NaN	0.000000	0.001544	0.001715	28.0814	0.041977	0.001997	21.0172	-88.8773	10.7995	-0.022743	0.531607	-0.598884	-0.600226	-0.049602	21.0172	-0.597114	-7.598070E+7	6.528249E-10	NaN
1117	1.000000	0.542943	7.37598e+06	-55989.1	1055.82	-29740.1	0.000000	0.000000	6.542946	0.004038	NaN	0.000000	0.001522	0.001705	28.0816	0.037539	0.002084	18.0153	53.0093	-166.082	0.043793	0.541606	-0.588890	-0.590227	0.004038	18.0153	-0.589058	-5.884065E+7	-6.863335E-11	NaN
1117	1.000000	0.552950	7.37598e+06	-55989.1	1055.82	-29740.1	0.000000	0.000000	6.552954	0.016703	NaN	0.000000	0.001533	0.001714	28.0815	0.123677	0.002053	60.2484	-78.4328	16.8207	-0.072034	0.551616	-0.578882	-0.580217	0.016703	60.2484	-0.579090	-4.287155E+7	-3.896067E-10	NaN
1117	1.000000	0.562973	7.37598e+06	-55989.1	1055.82	-29740.1	0.000000	0.000000	6.562977	0.043780	NaN	0.000000	0.001542	0.001694	28.0815	0.055262	0.001992	27.7459	-139.266	-164.23	0.041807	0.561636	-0.568860	-0.570196	0.043780	27.7459	-0.570043	-3.215328E+7	-1.361599E-9	NaN
1117	1.000000	0.572969	7.37598e+06	-55989.1	1055.82	-29740.1	0.000000	0.000000	6.572971	-0.026655	NaN	0.000000	0.001548	0.001675	28.0814	0.133368	0.002075	64.2649	40.3512	15.0431	-0.071910	0.571635	-0.558863	-0.560197	-0.026655	64.2649	-0.558552	-2.230233E+7	1.195160E-9	NaN
1117	1.000000	0.582961	7.37598e+06	-55989.1	1055.82	-29740.1	0.000000	0.000000	6.582963	-0.014856	NaN	0.000000	0.001502	0.001710	28.0816	0.031116	0.002073	15.0137	111.039	-167.361	0.007413	0.581692	-0.548871	-0.550141	-0.014856	15.0137	-0.548129	-1.599711E+7	9.286548E-10	NaN
1117	1.000000	0.592985	7.37598e+06	-55989.1	1055.82	-29740.1	0.000000	0.000000	6.592990	0.052400	NaN	0.000000	0.001537	0.001715	28.0814	0.036099	0.002053	17.5874	-144.889	16.7644	-0.012111	0.591588	-0.538847	-0.540245	0.052400	17.5874	-0.541082	-1.277504E+7	-4.101788E-9	NaN
1117	1.000000	0.602989	7.37598e+06	-55989.1	1055.82	-29740.1	0.000000	0.000000	6.602993	0.039816	NaN	0.000000	0.001527	0.001728	28.0826	0.088081	0.001944	45.3088	66.322	-167.959	0.046705	0.601677	-0.528844	-0.530155	0.039816	45.3088	-0.529503	-8.82413e+06	-4.512176E-9	NaN
1117	1.000000	0.612987	7.37598e+06	-55989.1	1055.82	-29740.1	0.000000	0.000000	6.612989	0.009432	NaN	0.000000	0.001522	0.001710	28.0827	0.006395	0.002056	3.109670	158.183	13.6767	-0.003936	0.611639	-0.518846	-0.520194	0.009432	3.109670	-0.521121	-6.74818e+06	-1.397731E-9	NaN
1117	1.000000	0.623003	7.37598e+06	-55989.1	1055.82	-29740.1	0.000000	0.000000	6.623005	-0.007656	NaN	0.000000	0.001519	0.001708	28.0827	0.031031	0.001984	15.6436	-170.993	-168.091	0.013427	0.621714	-0.508829	-0.510119	-0.007656	15.6436	-0.508462	-4.49776e+06	1.702109E-9	NaN
1117	1.000000	0.633009	7.37598e+06	-55989.1	1055.82	-29740.1	0.000000	0.000000	6.633011	-0.004272	NaN	0.000000	0.001506	0.001726	28.0826	0.083679	0.001951	42.8869	-125.099	14.6738	-0.044764	0.631626	-0.498824	-0.500206	-0.004272	42.8869	-0.498750	-3.29285e+06	1.297370E-9	NaN
1117	1.000000	0.643018	7.37598e+06	-55989.1	1055.82	-29740.1	0.000000	0.000000	6.643022	0.031901	NaN	0.000000	0.001567	0.001729	28.0826	0.067803	0.001972	34.3849	-114.247	-166.604	-0.054821	0.641645	-0.488814	-0.490188	0.031901	34.3849	-0.489510	-2.44652e+06	-1.303928E-8	NaN
1117	1.000000	0.652987	7.37598e+06	-55989.1	1055.82	-29740.1	0.000000	0.000000	6.652991	0.047576	NaN	0.000000	0.001535	0.001710	28.0826	0.053316	0.002029	26.2768	15.2637	14.607	-0.003050	0.651573	-0.478846	-0.480260	0.047576	26.2768	-0.480204	-1.81293e+06	-2.624278E-8	NaN
1117	1.000000	0.663001	7.37598e+06	-55989.1	1055.82	-29740.1	0.000000	0.000000	6.663004	0.001644	NaN	0.000000	0.001548	0.001703	28.0826	0.082602	0.001964	42.0565	-60.8193	-163.798	-0.034248	0.661665	-0.468831	-0.470168	0.001644	42.0565	-0.468861	-1.25726e+06	-1.307489E-9	NaN
1117	1.000000	0.673017	7.37598e+06	-55989.1	1055.82	-29740.1	0.000000	0.000000	6.673020	0.021659	NaN	0.000000	0.001513	0.001655	28.0826	0.111113	0.002078	53.4787	94.9834	14.3978	0.067872	0.671720	-0.458816	-0.460112	0.021659	53.4787	-0.459120	-917584	-2.360384E-8	NaN
1117	1.000000	0.683002	7.37598e+06	-55989.1	1055.82	-29740.1	0.000000	0.000000	6.683004	-0.013466	NaN	0.000000	0.001516	0.001685	28.0825	0.028193	0.002116	13.3225	-71.0518	-168.073	-0.037809	0.681691	-0.448831	-0.450142	-0.013466	13.3225	-0.448073	-641496	2.099118E-8	NaN
1117	1.000000	0.693010	7.37598e+06	-55989.1	1055.82	-29740.1	0.000000	0.000000	6.693014	0.052094	NaN	0.000000	0.001562	0.001691	28.0828	0.060613	0.001871	32.3968	140.684	13.1491	0.076894	0.691619	-0.438823	-0.440214	0.052094	32.3968	-0.440029	-494056	-1.054412E-7	NaN
1117	1.000000	0.703025	7.37598e+06	-55989.1	1055.82	-29740.1	0.000000	0.000000	6.703027	-0.026045	NaN	0.000000	0.001550	0.001693	28.0825	0.087280	0.001835	47.5553	-51.7672	-167.482	0.026131	0.701713	-0.428808	-0.430120	-0.026045	47.5553	-0.428397	-338357	7.697438E-8	NaN
1117	1.000000	0.713037	7.37598e+06	-55989.1	1055.82	-29740.1	0.000000	0.000000	6.713036	-0.068973	NaN	0.000000	0.001537	0.001672	28.0827	0.032458	0.001982	16.3797	131.389	16.261	-0.043147	0.711648	-0.418796	-0.420185	-0.068973	16.3797	-0.415638	-223107	3.091501E-7	NaN
1117	1.000000	0.723037	7.37598e+06	-55989.1	1055.82	-29740.1	0.000000	0.000000	6.723039	0.008080	NaN	0.000000	0.001526	0.001720	28.0826	0.017976	0.001993	9.018176	131.94	-164.042	0.033386	0.721727	-0.408796	-0.410106	0.008080	9.018176	-0.409468	-182321	-4.431926E-8	NaN
1117	1.000000	0.733031	7.37598e+06	-55989.1	1055.82	-29740.1	0.000000	0.000000	6.733033	-0.015847	NaN	0.000000	0.001502	0.001718	28.0826	0.071603	0.002043	35.0395	118.272	16.1115	-0.006041	0.731694	-0.398802	-0.400138	-0.015847	35.0395	-0.398463	-127077	1.247059E-7	NaN
1117	1.000000	0.743026	7.37598e+06	-55989.1	1055.82	-29740.1	0.000000	0.000000	6.743029	0.009747	NaN	0.000000	0.001572	0.001720	28.0813	0.124626	0.001969	63.2817	-114.971	-165.714	0.011212	0.741728	-0.388807	-0.390105	0.009747	63.2817	-0.388922	-92843.1	-1.049871E-7	NaN
1117	1.000000	0.753056	7.37598e+06	-55989.1	1055.82	-29740.1	0.000000	0.000000	6.753058	0.005396	NaN	0.000000	0.001564	0.001743	28.0817	0.075234	0.001959	38.4004	-66.4969	16.3918	-0.037007	0.751726	-0.378777	-0.380107	0.005396	38.4004	-0.378882	-66657.2	-8.094835E-8	NaN
1117	1.000000	0.763018	7.37598e+06	-55989.1	1055.82	-29740.1	0.000000	0.000000	6.763025	0.105306	NaN	0.000000	0.001535	0.001701	28.0816	0.023859	0.002033	11.7382	-75.9041	-166.479	0.066176	0.761763	-0.368815	-0.370070	0.105306	11.7382	-0.375543	-59686.6	-1.764309E-6	NaN
1117	1.000000	0.773045	7.37598e+06	-55989.1	1055.82	-29740.1	0.000000	0.000000	6.773049	0.023993	NaN	0.000000	0.001551	0.001674	28.0814	0.075504	0.002105	35.8661	-24.4253	11.6137	0.049348	0.771681	-0.358788	-0.360152	0.023993	35.8661	-0.359289	-34799.3	-6.894616E-7	NaN
1117	1.000000	0.783058	7.37598e+06	-55989.1	1055.82	-29740.1	0.000000	0.000000	6.783062	0.038433	NaN	0.000000	0.001599	0.001657	28.0814	0.044795	0.002059	21.7593	8.543956	-167.388	-0.000621	0.781739	-0.348774	-0.350094	0.038433	21.7593	-0.350099	-25611.9	-1.500593E-6	NaN
1117	1.000000	0.793034	7.37598e+06	-55989.1	1055.82	-29740.1	0.000000	0.000000	6.793038	0.038469	NaN	0.000000	0.001604	0.001662	28.0814	0.073690	0.001865	39.5022	-144.214	13.6053	0.031195	0.791731	-0.338799	-0.340102	0.038469	39.5022	-0.339529	-17975.8	-2.140057E-6	NaN
1117	1.000000	0.803054	7.37598e+06	-55989.1	1055.82	-29740.1	0.000000	0.000000	6.803055	-0.015645	NaN	0.000000	0.001621	0.001686	28.0815	0.057069	0.001900	30.0371	92.6571	-164.686	0.015309	0.801718	-0.328779	-0.330115	-0.015645	30.0371	-0.328388	-12355	1.266331E-6	NaN
1117	1.000000	0.813042	7.37598e+06	-55989.1	1055.82	-29740.1	0.000000	0.000000	6.813045	-0.008315	NaN	0.000000	0.001660	0.001708	28.0813	0.069765	0.001887	36.9694	89.777	12.2477	0.061117	0.811700	-0.318790	-0.320133	-0.008315	36.9694	-0.318622	-8878.58	9.365753E-7	NaN
1117	1.000000	0.823092	7.37598e+06	-55989.1	1055.82	-29740.1	0.000000	0.000000	6.823091	-0.070023	NaN	0.000000	0.001678	0.001736	28.0813	0.032130	0.001994	16.1148	-141.238	-166.015	-0.004563	0.821782	-0.308741	-0.310051	-0.070023	16.1148	-0.305482	-5676.85	1.233483E-5	NaN
1117	1.000000	0.833084	7.37598e+06	-55989.1	1055.82	-29740.1	0.000000	0.000000	6.833087	0.023197	NaN	0.000000	0.001602	0.001691	28.0811	0.113851	0.001956	58.192	-153.598	16.3664	0.083093	0.831653	-0.298749	-0.300179	0.023197	58.192	-0.299048	-4554.71	-5.092929E-6	NaN
1117	1.000000	0.843084	7.37598e+06	-55989.1	1055.82	-29740.1	0.000000	0.000000	6.843089	0.068046	NaN	0.000000	0.001604	0.001718	28.0814	0.087369	0.001985	44.0074	-15.2338	-164.403	0.032590	0.841722	-0.288749	-0.290111	0.068046	44.0074	-0.289909	-3326.09	-2.045835E-5	NaN
1117	1.000000	0.853077	7.37598e+06	-55989.1	1055.82	-29740.1	0.000000	0.000000	6.853080	0.014501	NaN	0.000000	0.001617	0.001713	28.0813	0.125569	0.001941	64.6814	-141.318	10.6273	0.034014	0.851720	-0.278755	-0.280113	0.014501	64.6814	-0.278923	-2273.65	-6.377683E-6	NaN
1117	1.000000	0.863091	7.37598e+06	-55989.1	1055.82	-29740.1	0.000000	0.000000	6.863094	0.028115	NaN	0.000000	0.001597	0.001734	28.0812	0.032295	0.001978	16.3277	179.59	-162.851	-0.018242	0.861733	-0.268742	-0.270100	0.028115	16.3277	-0.270034	-1667.46	-1.686085E-5	NaN
1117	1.000000	0.873082	7.37598e+06	-55989.1	1055.82	-29740.1	0.000000	0.000000	6.873088	0.068859	NaN	0.000000	0.001546	0.001695	28.0817	0.097595	0.002015	48.4339	130.417	20.9791	0.083251	0.871725	-0.258750	-0.260107	0.068859	48.4339	-0.259817	-1164.42	-5.913616E-5	NaN
1117	1.000000	0.883095	7.37598e+06	-55989.1	1055.82	-29740.1	0.000000	0.000000	6.883100	0.052445	NaN	0.000000	0.001554	0.001710	28.0826	0.084710	0.001940	43.6584	-71.4632	-165.844	0.049989	0.881777	-0.248738	-0.250055	0.052445	43.6584	-0.249638	-811.66	-6.461392E-5	NaN
1117	1.000000	0.893097	7.37598e+06	-55989.1	1055.82	-29740.1	0.000000	0.000000	6.893101	0.027021	NaN	0.000000	0.001572	0.001712	28.0827	0.054470	0.002071	26.3024	-52.4459	15.3545	0.014268	0.891752	-0.238735	-0.240080	0.027021	26.3024	-0.239506	-564.718	-4.784946E-5	NaN
1117	1.000000	0.903117	7.37598e+06	-55989.1	1055.82	-29740.1	0.000000	0.000000	6.903119	-0.028369	NaN	0.000000	0.001630	0.001719	28.0825	0.038933	0.002151	18.1009	155.362	-165.359	-0.016550	0.901789	-0.228715	-0.230044	-0.028369	18.1009	-0.227540	-366.113	7.748578E-5	NaN
1117	1.000000	0.913094	7.37598e+06	-55989.1	1055.82	-29740.1	0.000000	0.000000	6.913097	0.023847	NaN	0.000000	0.001620	0.001713	28.0827	0.040376	0.002084	19.3723	137.753	10.6879	0.010388	0.911699	-0.218739	-0.220134	0.023847	19.3723	-0.219662	-274.331	-8.692747E-5	NaN
1117	1.000000	0.923098	7.37598e+06	-55989.1	1055.82	-29740.1	0.000000	0.000000	6.923100	-0.014384	NaN	0.000000	0.001626	0.001682	28.0826	0.014420	0.002015	7.154922	-106.468	-170.159	-0.105741	0.921794	-0.208735	-0.210039	-0.014384	7.154922	-0.207227	-172.911	8.318826E-5	NaN
1117	1.000000	0.933121	7.37598e+06	-55989.1	1055.82	-29740.1	0.000000	0.000000	6.933125	0.037824	NaN	0.000000	0.001585	0.001689	28.0827	0.129270	0.002173	59.4794	-38.3463	14.6907	0.145486	0.931737	-0.198712	-0.200096	0.037824	59.4794	-0.199189	-127.749	-0.000296	NaN
1117	1.000000	0.943098	7.37598e+06	-55989.1	1055.82	-29740.1	0.000000	0.000000	6.943100	0.000576	NaN	0.000000	0.001568	0.001707	28.0828	0.066606	0.001993	33.423	138.828	-168.484	0.020642	0.941821	-0.188735	-0.190012	0.000576	33.423	-0.188748	-85.7214	-6.717953E-6	NaN
1117	1.000000	0.953136	7.37598e+06	-55989.1	1055.82	-29740.1	0.000000	0.000000	6.953139	0.015147	NaN	0.000000	0.001573	0.001655	28.0826	0.139404	0.002108	66.1165	-135.423	15.0492	0.111075	0.951772	-0.178697	-0.180060	0.015147	66.1165	-0.178869	-58.3711	-0.000260	NaN
1117	1.000000	0.963119	7.37598e+06	-55989.1	1055.82	-29740.1	0.000000	0.000000	6.963124	0.055422	NaN	0.000000	0.001602	0.001681	28.0827	0.074934	0.001903	39.3845	-91.8377	-162.498	0.029459	0.961803	-0.168714	-0.170030	0.055422	39.3845	-0.169769	-40.7005	-0.001362	NaN
1117	1.000000	0.973148	7.37598e+06	-55989.1	1055.82	-29740.1	0.000000	0.000000	6.973149	-0.020940	NaN	0.000000	0.001567	0.001667	28.0827	0.116379	0.001928	60.3714	-86.8935	12.5782	-0.006925	0.971749	-0.158685	-0.160083	-0.020940	60.3714	-0.158425	-25.7005	0.000815	NaN
1117	1.000000	0.983110	7.37598e+06	-55989.1	1055.82	-29740.1	0.000000	0.000000	6.983112	-0.005501	NaN	0.000000	0.001574	0.001685	28.0829	0.073542	0.001921	38.2811	-56.7679	-166.087	0.003725	0.981818	-0.148723	-0.150015	-0.005501	38.2811	-0.148615	-17.0883	0.000322	NaN
1117	1.000000	0.993127	7.37598e+06	-55989.1	1055.82	-29740.1	0.000000	0.000000	6.993133	0.070707	NaN	0.000000	0.001581	0.001668	28.0826	0.130733	0.002074	63.026	106.997	14.2692	0.069962	0.991803	-0.138706	-0.140030	0.070707	63.026	-0.139547	-11.5998	-0.006095	NaN
1117	1.000000	1.003141	7.37598e+06	-55989.1	1055.82	-29740.1	0.000000	0.000000	7.003145	0.047134	NaN	0.000000	0.001568	0.001651	28.083	0.039802	0.001934	20.5838	165.098	-168.004	0.057443	1.001869	-0.128692	-0.129964	0.047134	20.5838	-0.130409	-7.761739	-0.006073	NaN
1117	1.000000	1.013111	7.37598e+06	-55989.1	1055.82	-29740.1	0.000000	0.000000	7.013114	0.021123	NaN	0.000000	0.001583	0.001656	28.0814	0.044366	0.001948	22.7746	108.692	15.4117	0.033366	1.011762	-0.118722	-0.120071	0.021123	22.7746	-0.119418	-4.702335	-0.004492	NaN
1117	1.000000	1.023112	7.37598e+06	-55989.1	1055.82	-29740.1	0.000000	0.000000	7.023118	0.078188	NaN	0.000000	0.001573	0.001672	28.0815	0.080076	0.002034	39.3728	-37.4044	-167.624	0.031377	1.021832	-0.108721	-0.110000	0.078188	39.3728	-0.110210	-3.036005	-0.025754	NaN
1117	1.000000	1.033134	7.37598e+06	-55989.1	1055.82	-29740.1	0.000000	0.000000	7.033140	0.091563	NaN	0.000000	0.001550	0.001673	28.0815	0.065003	0.002058	31.5892	-127.52	12.5568	0.041315	1.031800	-0.098699	-0.100032	0.091563	31.5892	-0.100873	-1.910183	-0.047934	NaN
1117	1.000000	1.043154	7.37598e+06	-55989.1	1055.82	-29740.1	0.000000	0.000000	7.043157	0.026327	NaN	0.000000	0.001581	0.001700	28.0813	0.062487	0.002100	29.7582	160.027	-168.073	0.037392	1.041833	-0.088679	-0.090000	0.026327	29.7582	-0.089342	-1.043180	-0.025237	NaN
1117	1.000000	1.053138	7.37598e+06	-55989.1	1055.82	-29740.1	0.000000	0.000000	7.053141	0.018240	NaN	0.000000	0.001593	0.001680	28.0816	0.010229	0.002060	4.965224	-117.279	9.466652	0.027732	1.051750	-0.078695	-0.080083	0.018240	4.965224	-0.081450	-0.672618	-0.027118	NaN
1117	1.000000	1.063152	7.37598e+06	-55989.1	1055.82	-29740.1	0.000000	0.000000	7.063155	0.008227	NaN	0.000000	0.001579	0.001672	28.0813	0.081904	0.001972	41.5379	-55.0455	-171.185	-0.000630	1.061857	-0.068681	-0.069975	0.008227	41.5379	-0.068829	-0.317252	-0.025933	NaN
1117	1.000000	1.073157	7.37598e+06	-55989.1	1055.82	-29740.1	0.000000	0.000000	7.073162	0.064553	NaN	0.000000	0.001563	0.001631	28.0815	0.030763	0.002086	14.7442	92.5798	16.6607	0.004282	1.071837	-0.058676	-0.059996	0.064553	14.7442	-0.061959	-0.204808	-0.315188	NaN
1117	1.000000	1.083169	7.37598e+06	-55989.1	1055.82	-29740.1	0.000000	0.000000	7.083172	0.009019	NaN	0.000000	0.001582	0.001703	28.0813	0.025935	0.001981	13.0897	-127.049	-166.981	-0.023764	1.081852	-0.048664	-0.049981	0.009019	13.0897	-0.049181	-0.086184	-0.104648	NaN
1117	1.000000	1.093164	7.37598e+06	-55989.1	1055.82	-29740.1	0.000000	0.000000	7.093166	-0.002753	NaN	0.000000	0.001649	0.001688	28.0816	0.042656	0.002088	20.4335	171.891	14.363	0.003645	1.091846	-0.038669	-0.039987	-0.002753	20.4335	-0.038568	-0.040924	0.067271	NaN
1117	1.000000	1.103142	7.37598e+06	-55989.1	1055.82	-29740.1	0.000000	0.000000	7.103141	-0.074633	NaN	0.000000	0.001623	0.001699	28.0814	0.123253	0.002045	60.2803	119.29	-167.136	-0.015425	1.101886	-0.028691	-0.029946	-0.074633	60.2803	-0.027763	-0.019977	3.735892	NaN
1117	1.000000	1.113208	7.37598e+06	-55989.1	1055.82	-29740.1	0.000000	0.000000	7.113210	-0.022967	NaN	0.000000	0.001698	0.001723	28.0814	0.095208	0.002001	47.5828	-83.189	15.2553	-0.080165	1.111866	-0.018625	-0.019967	-0.022967	47.5828	-0.018263	-0.011339	2.025564	NaN
1117	1.000000	1.123162	7.37598e+06	-55989.1	1055.82	-29740.1	0.000000	0.000000	7.123165	0.017151	NaN	0.000000	0.001726	0.001695	28.0815	0.035008	0.002008	17.4315	-174.007	-165.219	0.036113	1.121843	-0.008671	-0.009989	0.017151	17.4315	-0.009409	-0.006048	-2.835712	NaN
1117	1.000000	1.133132	7.37598e+06	-55989.1	1055.82	-29740.1	0.000000	0.000000	7.133253	2.877744	NaN	0.000000	0.001702	0.001670	28.0815	3.761827	0.001988	1892.59	12.3933	8.944357	1.318659	1.131854	0.001299	2.081941E-5	2.877744	1892.59	0.000159	0.000119	24205.5	158585
1117	2.000000	1.139731	7.37598e+06	-55989.1	1055.82	-29740.1	0.000000	0.000000	7.140135	9.757038	NaN	0.000000	0.001695	0.001657	28.0815	10.1834	0.001730	5885.96	11.1212	-177.483	9.685026	1.139489	0.007899	0.007656	9.757038	5885.96	0.006655	0.005695	1713.14	71257
1117	2.000000	1.142190	7.37598e+06	-55989.1	1055.82	-29740.1	0.000000	0.000000	7.142811	15.0297	NaN	0.000000	0.001753	0.001693	28.0827	12.9642	0.001629	7959.57	10.8722	-0.218173	13.9282	1.141914	0.010357	0.010081	15.0297	7959.57	0.008941	0.008028	1872.05	81160.8
1117	2.000000	1.144644	7.37598e+06	-55989.1	1055.82	-29740.1	0.000000	0.000000	7.145375	17.7179	NaN	0.000000	0.001698	0.001734	28.0827	16.1227	0.001744	9242.55	7.153124	-178.392	16.4019	1.144418	0.012811	0.012586	17.7179	9242.55	0.011373	0.010748	1648.5	81452.4
1117	2.000000	1.147153	7.37598e+06	-55989.1	1055.82	-29740.1	0.000000	0.000000	7.148181	24.9382	NaN	0.000000	0.001626	0.001677	28.0825	17.9779	0.001603	11214.5	6.708352	0.693397	22.2444	1.146776	0.015320	0.014943	24.9382	11214.5	0.013652	0.013530	1843.21	88086.4
1117	2.000000	1.149637	7.37598e+06	-55989.1	1055.82	-29740.1	0.000000	0.000000	7.150801	28.2169	NaN	0.000000	0.001635	0.001665	28.0826	20.855	0.001808	11536.9	9.189957	179.028	28.1633	1.149303	0.017804	0.017470	28.2169	11536.9	0.015970	0.016601	1699.72	81808
1117	2.000000	1.152167	7.37598e+06	-55989.1	1055.82	-29740.1	0.000000	0.000000	7.153505	32.4656	NaN	0.000000	0.001645	0.001702	28.0828	23.9601	0.001849	12959.4	7.704635	-0.883870	33.0646	1.151819	0.020335	0.019986	32.4656	12959.4	0.018456	0.020174	1609.31	83361.7
1117	2.000000	1.154623	7.37598e+06	-55989.1	1055.82	-29740.1	0.000000	0.000000	7.156278	40.1777	NaN	0.000000	0.001632	0.001708	28.0828	26.3321	0.001817	14495.7	4.436780	-179.198	39.073	1.154324	0.022790	0.022492	40.1777	14495.7	0.020712	0.023673	1697.21	86077.3
1117	2.000000	1.157174	7.37598e+06	-55989.1	1055.82	-29740.1	0.000000	0.000000	7.159050	45.5271	NaN	0.000000	0.001652	0.001719	28.0827	28.62	0.001829	15646.6	7.810603	-2.529702	45.7036	1.156882	0.025342	0.025049	45.5271	15646.6	0.023159	0.027752	1640.49	85811.3
1117	2.000000	1.159647	7.37598e+06	-55989.1	1055.82	-29740.1	0.000000	0.000000	7.162056	58.5026	NaN	0.000000	0.001632	0.001686	28.0827	31.253	0.001809	17276.6	4.991863	179.002	56.8099	1.159291	0.027814	0.027458	58.5026	17276.6	0.025274	0.031516	1856.27	88912.9
1117	2.000000	1.162143	7.37598e+06	-55989.1	1055.82	-29740.1	0.000000	0.000000	7.164722	62.6202	NaN	0.000000	0.001642	0.001674	28.0826	33.887	0.001844	18381.1	8.540660	-3.738483	63.3708	1.161743	0.030310	0.029910	62.6202	18381.1	0.027755	0.036219	1728.92	88242.2
1117	2.000000	1.164617	7.37598e+06	-55989.1	1055.82	-29740.1	0.000000	0.000000	7.167367	66.8059	NaN	0.000000	0.001636	0.001706	28.0827	36.7272	0.001805	20351.1	8.296871	174.437	66.5995	1.164318	0.032784	0.032485	66.8059	20351.1	0.030322	0.041414	1613.14	91367
1117	2.000000	1.167117	7.37598e+06	-55989.1	1055.82	-29740.1	0.000000	0.000000	7.170368	78.9574	NaN	0.000000	0.001663	0.001725	28.0827	38.2805	0.001877	20398.7	5.720636	-2.686535	76.8709	1.166820	0.035284	0.034987	78.9574	20398.7	0.032381	0.045824	1723.06	87062.1
1117	2.000000	1.169640	7.37598e+06	-55989.1	1055.82	-29740.1	0.000000	0.000000	7.173317	89.3316	NaN	0.000000	0.001659	0.001682	28.0825	40.072	0.001812	22112.6	4.256964	178.137	90.0308	1.169294	0.037807	0.037461	89.3316	22112.6	0.034777	0.051228	1743.79	89260
1117	2.000000	1.172162	7.37598e+06	-55989.1	1055.82	-29740.1	0.000000	0.000000	7.176090	95.4371	NaN	0.000000	0.001649	0.001681	28.0827	43.4152	0.001902	22822.5	6.510490	-4.378298	96.5385	1.171735	0.040329	0.039902	95.4371	22822.5	0.037193	0.056975	1675.08	87356.6
1117	2.000000	1.174690	7.37598e+06	-55989.1	1055.82	-29740.1	0.000000	0.000000	7.179017	105.117	NaN	0.000000	0.001652	0.001766	28.0826	45.0332	0.001840	24480	4.130380	177.256	107.751	1.174407	0.042857	0.042575	105.117	24480	0.039636	0.063092	1666.09	89042.4
1117	2.000000	1.177202	7.37598e+06	-55989.1	1055.82	-29740.1	0.000000	0.000000	7.181985	116.214	NaN	0.000000	0.001669	0.001762	28.0814	46.486	0.001689	27522.8	4.744606	-3.418172	118.88	1.176725	0.045369	0.044893	116.214	27522.8	0.042202	0.069844	1663.91	95148.4
1117	2.000000	1.179627	7.37598e+06	-55989.1	1055.82	-29740.1	0.000000	0.000000	7.184939	129.065	NaN	0.000000	0.001671	0.001719	28.0816	49.5737	0.001791	27685.1	8.018329	172.843	129.512	1.179181	0.047794	0.047349	129.065	27685.1	0.044298	0.075606	1707.07	91990.2
1117	2.000000	1.182121	7.37598e+06	-55989.1	1055.82	-29740.1	0.000000	0.000000	7.187608	133.32	NaN	0.000000	0.001672	0.001755	28.0816	53.023	0.001870	28354.9	6.382347	-6.363411	132.401	1.181755	0.050288	0.049922	133.32	28354.9	0.046762	0.082668	1612.7	90101.5
1117	2.000000	1.184703	7.37598e+06	-55989.1	1055.82	-29740.1	0.000000	0.000000	7.190872	149.882	NaN	0.000000	0.001762	0.001737	28.0814	54.3941	0.001904	28567	6.256839	174.763	153.115	1.184255	0.052870	0.052422	149.882	28567	0.048935	0.089150	1681.23	87412.9
1117	2.000000	1.187100	7.37598e+06	-55989.1	1055.82	-29740.1	0.000000	0.000000	7.193635	158.798	NaN	0.000000	0.001722	0.001732	28.0813	56.5287	0.001818	31092.4	8.063236	-9.277747	154.609	1.186756	0.055267	0.054923	158.798	31092.4	0.051436	0.096905	1638.69	91254.6
1117	2.000000	1.189629	7.37598e+06	-55989.1	1055.82	-29740.1	0.000000	0.000000	7.196665	170.983	NaN	0.000000	0.001599	0.001775	28.0816	58.7877	0.001796	32726.9	8.355083	170.854	172.8	1.189291	0.057796	0.057458	170.983	32726.9	0.053877	0.104774	1631.93	92374.5
1117	2.000000	1.192073	7.37598e+06	-55989.1	1055.82	-29740.1	0.000000	0.000000	7.199651	184.16	NaN	0.000000	0.001601	0.001777	28.0816	60.7609	0.001872	32455.1	6.473175	-7.451766	183.005	1.191752	0.060240	0.059919	184.16	32455.1	0.055984	0.111803	1647.18	88680.5
1117	2.000000	1.194578	7.37598e+06	-55989.1	1055.82	-29740.1	0.000000	0.000000	7.202428	190.76	NaN	0.000000	0.001601	0.001752	28.0815	62.455	0.001767	35335.3	-0.078035	177.496	188.108	1.194393	0.062745	0.062560	190.76	35335.3	0.058696	0.121175	1574.26	92742
1117	2.000000	1.197075	7.37598e+06	-55989.1	1055.82	-29740.1	0.000000	0.000000	7.205763	211.126	NaN	0.000000	0.001676	0.001774	28.0814	64.7985	0.001800	35994.3	3.548300	-5.203041	208.09	1.196733	0.065242	0.064901	211.126	35994.3	0.060843	0.128847	1638.57	91615.4
1117	2.000000	1.199605	7.37598e+06	-55989.1	1055.82	-29740.1	0.000000	0.000000	7.208745	222.12	NaN	0.000000	0.001638	0.001742	28.0814	67.0573	0.001761	38068.8	4.662615	172.322	222.039	1.199297	0.067772	0.067464	222.12	38068.8	0.063396	0.138267	1606.46	93537.1
1117	2.000000	1.202124	7.37598e+06	-55989.1	1055.82	-29740.1	0.000000	0.000000	7.211962	239.1	NaN	0.000000	0.001643	0.001767	28.0815	69.1902	0.001766	39168.3	4.723413	-6.958922	240.219	1.201757	0.070291	0.069924	239.1	39168.3	0.065712	0.147085	1625.58	93308.9
1117	2.000000	1.204539	7.37598e+06	-55989.1	1055.82	-29740.1	0.000000	0.000000	7.215009	254.446	NaN	0.000000	0.001709	0.001748	28.0814	72.2675	0.001708	42322.7	3.484152	172.993	251.136	1.204186	0.072707	0.072353	254.446	42322.7	0.068197	0.156833	1622.4	97640.1
1117	2.000000	1.207101	7.37598e+06	-55989.1	1055.82	-29740.1	0.000000	0.000000	7.218148	268.463	NaN	0.000000	0.001713	0.001735	28.0815	73.833	0.001696	43536.8	3.381295	-6.339783	268.175	1.206732	0.075268	0.074900	268.463	43536.8	0.070644	0.166716	1610.3	97418.2
1117	2.000000	1.209509	7.37598e+06	-55989.1	1055.82	-29740.1	0.000000	0.000000	7.221328	287.232	NaN	0.000000	0.001717	0.001738	28.0827	76.5474	0.001737	44061.3	3.065690	173.786	284.458	1.209180	0.077676	0.077347	287.232	44061.3	0.072787	0.175610	1635.62	96062.9
1117	2.000000	1.212046	7.37598e+06	-55989.1	1055.82	-29740.1	0.000000	0.000000	7.224337	298.694	NaN	0.000000	0.001738	0.001765	28.0828	79.0926	0.001741	45429.3	3.002255	-7.203268	295.604	1.211772	0.080214	0.079939	298.694	45429.3	0.075282	0.186238	1603.83	96177.9
1117	2.000000	1.214537	7.37598e+06	-55989.1	1055.82	-29740.1	0.000000	0.000000	7.227333	310.966	NaN	0.000000	0.001670	0.001761	28.0825	83.105	0.001929	43088.4	3.191098	173.331	308.996	1.214293	0.082705	0.082461	310.966	43088.4	0.077292	0.195009	1594.63	89146.9
1117	2.000000	1.216976	7.37598e+06	-55989.1	1055.82	-29740.1	0.000000	0.000000	7.230490	328.433	NaN	0.000000	0.001639	0.001736	28.0828	85.0897	0.001884	45169.4	7.259151	-10.216	321.1	1.216564	0.085143	0.084731	328.433	45169.4	0.079690	0.205722	1596.49	90986.5
1117	2.000000	1.219630	7.37598e+06	-55989.1	1055.82	-29740.1	0.000000	0.000000	7.233734	342.773	NaN	0.000000	0.001620	0.001748	28.0831	85.6811	0.001731	49496.2	4.575355	171.179	348.309	1.219274	0.087797	0.087441	342.773	49496.2	0.082604	0.219102	1564.44	96609.9
1117	2.000000	1.222086	7.37598e+06	-55989.1	1055.82	-29740.1	0.000000	0.000000	7.236921	360.564	NaN	0.000000	0.001626	0.001745	28.0828	88.0147	0.001813	48546.3	1.923892	-5.988797	359.618	1.221745	0.090253	0.089912	360.564	48546.3	0.084682	0.228889	1575.28	92708.1
1117	2.000000	1.224526	7.37598e+06	-55989.1	1055.82	-29740.1	0.000000	0.000000	7.240229	381.631	NaN	0.000000	0.001642	0.001753	28.0826	90.5155	0.001673	54090.9	3.450500	171.772	379.756	1.224186	0.092694	0.092353	381.631	54090.9	0.087402	0.241993	1577.03	100461
1117	2.000000	1.227028	7.37598e+06	-55989.1	1055.82	-29740.1	0.000000	0.000000	7.243312	395.768	NaN	0.000000	0.001639	0.001753	28.0827	93.2773	0.001819	51273.2	7.789505	-12.0475	389.893	1.226598	0.095195	0.094766	395.768	51273.2	0.089406	0.251866	1571.34	93342.4
1117	2.000000	1.229553	7.37598e+06	-55989.1	1055.82	-29740.1	0.000000	0.000000	7.246737	417.643	NaN	0.000000	0.001661	0.001732	28.0827	94.4633	0.001770	53371.8	4.759704	170.668	419.407	1.229232	0.097720	0.097399	417.643	53371.8	0.091852	0.264167	1580.98	94873.8
1117	2.000000	1.232033	7.37598e+06	-55989.1	1055.82	-29740.1	0.000000	0.000000	7.250035	437.523	NaN	0.000000	0.001618	0.001732	28.0826	97.7681	0.001883	51915.4	7.700313	-11.7508	434.809	1.231654	0.100200	0.099821	437.523	51915.4	0.093880	0.274573	1593.46	90519
1117	2.000000	1.234549	7.37598e+06	-55989.1	1055.82	-29740.1	0.000000	0.000000	7.253166	452.484	NaN	0.000000	0.001608	0.001773	28.0826	99.5957	0.001939	51367.8	2.356339	173.361	452.864	1.234205	0.102716	0.102372	452.484	51367.8	0.096109	0.286234	1580.82	87721.2
1117	2.000000	1.236959	7.37598e+06	-55989.1	1055.82	-29740.1	0.000000	0.000000	7.256292	469.867	NaN	0.000000	0.001638	0.001744	28.0828	100.501	0.001831	54894.5	1.997503	-7.160219	460.857	1.236638	0.105126	0.104805	469.867	54894.5	0.098707	0.300100	1565.7	91552.1