File: remote_trans/data/nanoindenter/0828-1/data/Data_2025-08-06,11h17m57s/2025-07-22_16-23-58_1_690.txt
2025-07-22, 16:23:58, 1
Index	Phase	Displacement	Time	Pos X	Pos Y	Pos Z	Rot A	Rot B	Piezo Z	Force A	Force B	Gripper	Voltage A	Voltage B	Temperature	Amplitude force	Amplitude pos	Stiffness	Phase shift	Phase excitation	Force A raw	Displacement raw	HMax	HMax raw	Real Force	Real Stiffness	Contact Depth	Area	Hardness	Reduced Mod.
[#]	[#]	[um]	[s]	[um]	[um]	[um]	[m°]	[m°]	[um]	[uN]	[uN]	[V]	[V]	[V]	[°C]	[uN]	[um]	[N/m]	[°]	[°]	[uN]	[um]	[um]	[um]	[uN]	[N/m]	[um]	[um^2]	[MPa]	[MPa]
690	1.000000	0.002919	7.3718e+06	-42589.1	1005.82	-29782.1	0.000000	0.000000	6.002808	-0.028273	NaN	0.000000	0.001677	0.001769	28.0821	0.034849	0.000989	35.236	-104.506	-164.952	-0.023964	0.001614	-1.170779	-1.172083	-0.028273	35.236	-1.170177	-4.377785E+15	6.458369E-18	NaN
690	1.000000	0.012961	7.3718e+06	-42589.1	1005.82	-29782.1	0.000000	0.000000	6.012854	0.057857	NaN	0.000000	0.001694	0.001776	28.0819	0.025255	0.001243	20.3198	-7.034714	22.3279	0.068580	0.011558	-1.160736	-1.162139	0.057857	20.3198	-1.162872	-3.494281E+15	-1.655766E-17	NaN
690	1.000000	0.022847	7.3718e+06	-42589.1	1005.82	-29782.1	0.000000	0.000000	6.022738	-0.000393	NaN	0.000000	0.001702	0.001784	28.0819	0.051024	0.001660	30.7381	-145.1	-165.667	0.036788	0.021495	-1.150850	-1.152202	-0.000393	30.7381	-1.150840	-2.410382E+15	1.629197E-19	NaN
690	1.000000	0.032861	7.3718e+06	-42589.1	1005.82	-29782.1	0.000000	0.000000	6.032755	0.072679	NaN	0.000000	0.001727	0.001800	28.0819	0.051765	0.002080	24.8914	-116.416	13.5894	0.066632	0.031498	-1.140836	-1.142199	0.072679	24.8914	-1.143026	-1.893707E+15	-3.837915E-17	NaN
690	1.000000	0.042859	7.3718e+06	-42589.1	1005.82	-29782.1	0.000000	0.000000	6.042751	0.041378	NaN	0.000000	0.001703	0.001823	28.082	0.091726	0.001804	50.8555	-70.0282	-164.337	0.071403	0.041534	-1.130839	-1.132163	0.041378	50.8555	-1.131449	-1.324511E+15	-3.124019E-17	NaN
690	1.000000	0.052860	7.3718e+06	-42589.1	1005.82	-29782.1	0.000000	0.000000	6.052754	0.082187	NaN	0.000000	0.001708	0.001824	28.0818	0.053283	0.001944	27.4115	-149.006	12.8006	0.051324	0.051550	-1.120837	-1.122147	0.082187	27.4115	-1.123086	-1.022997E+15	-8.033963E-17	NaN
690	1.000000	0.062867	7.3718e+06	-42589.1	1005.82	-29782.1	0.000000	0.000000	6.062760	0.057920	NaN	0.000000	0.001727	0.001769	28.0818	0.129266	0.001907	67.7848	-43.5977	-164.891	0.050119	0.061596	-1.110831	-1.112101	0.057920	67.7848	-1.111471	-7.145542E+14	-8.105692E-17	NaN
690	1.000000	0.072849	7.3718e+06	-42589.1	1005.82	-29782.1	0.000000	0.000000	6.072739	-0.028746	NaN	0.000000	0.001662	0.001802	28.0819	0.026633	0.001953	13.6383	94.2536	14.7857	-0.019617	0.071464	-1.100848	-1.102233	-0.028746	13.6383	-1.099267	-4.900425E+14	5.865958E-17	NaN
690	1.000000	0.082866	7.3718e+06	-42589.1	1005.82	-29782.1	0.000000	0.000000	6.082757	0.002327	NaN	0.000000	0.001684	0.001786	28.0819	0.082099	0.002027	40.4963	44.5439	-163.197	-0.030642	0.081563	-1.090832	-1.092134	0.002327	40.4963	-1.090875	-3.780566E+14	-6.154468E-18	NaN
690	1.000000	0.092855	7.3718e+06	-42589.1	1005.82	-29782.1	0.000000	0.000000	6.092746	0.014429	NaN	0.000000	0.001675	0.001797	28.082	0.004228	0.002005	2.108361	-122.573	12.6094	-0.052906	0.091496	-1.080843	-1.082201	0.014429	2.108361	-1.085975	-3.249150E+14	-4.440934E-17	NaN
690	1.000000	0.102897	7.3718e+06	-42589.1	1005.82	-29782.1	0.000000	0.000000	6.102787	-0.003941	NaN	0.000000	0.001655	0.001790	28.082	0.110154	0.001986	55.476	-84.6247	-165.941	-0.041588	0.101577	-1.070801	-1.072120	-0.003941	55.476	-1.070747	-2.028753E+14	1.942516E-17	NaN
690	1.000000	0.112880	7.3718e+06	-42589.1	1005.82	-29782.1	0.000000	0.000000	6.112771	0.007733	NaN	0.000000	0.001654	0.001813	28.0809	0.064844	0.002028	31.976	57.9326	16.0093	0.041570	0.111518	-1.060817	-1.062179	0.007733	31.976	-1.060999	-1.500528E+14	-5.153301E-17	NaN
690	1.000000	0.122857	7.3718e+06	-42589.1	1005.82	-29782.1	0.000000	0.000000	6.122749	0.018242	NaN	0.000000	0.001688	0.001803	28.0806	0.020430	0.001838	11.1158	-0.560949	-165.915	0.037643	0.121569	-1.050840	-1.052129	0.018242	11.1158	-1.052071	-1.138293E+14	-1.602610E-16	NaN
690	1.000000	0.132919	7.3718e+06	-42589.1	1005.82	-29782.1	0.000000	0.000000	6.132810	0.004825	NaN	0.000000	0.001685	0.001801	28.0807	0.087312	0.001966	44.4208	15.2022	14.0037	0.042374	0.131594	-1.040778	-1.042103	0.004825	44.4208	-1.040860	-8.045014E+13	-5.998077E-17	NaN
690	1.000000	0.142896	7.3718e+06	-42589.1	1005.82	-29782.1	0.000000	0.000000	6.142788	0.037929	NaN	0.000000	0.001664	0.001789	28.0806	0.108949	0.001856	58.7093	151.016	-167.298	0.069271	0.141605	-1.030801	-1.032092	0.037929	58.7093	-1.031286	-5.981025E+13	-6.341576E-16	NaN
690	1.000000	0.152904	7.3718e+06	-42589.1	1005.82	-29782.1	0.000000	0.000000	6.152796	0.021641	NaN	0.000000	0.001663	0.001785	28.0808	0.084644	0.002003	42.2523	-98.6195	17.7423	0.074644	0.151494	-1.020793	-1.022203	0.021641	42.2523	-1.021177	-4.373126E+13	-4.948610E-16	NaN
690	1.000000	0.162873	7.3718e+06	-42589.1	1005.82	-29782.1	0.000000	0.000000	6.162765	0.036790	NaN	0.000000	0.001654	0.001825	28.0806	0.060210	0.001967	30.6031	163.964	-164.389	0.046863	0.161577	-1.010825	-1.012120	0.036790	30.6031	-1.011726	-3.262974E+13	-1.127487E-15	NaN
690	1.000000	0.172895	7.3718e+06	-42589.1	1005.82	-29782.1	0.000000	0.000000	6.172788	0.047085	NaN	0.000000	0.001657	0.001790	28.0807	0.022975	0.002042	11.2487	-40.1907	12.3256	0.058562	0.171493	-1.000802	-1.002204	0.047085	11.2487	-1.003942	-2.563502E+13	-1.836748E-15	NaN
690	1.000000	0.182876	7.3718e+06	-42589.1	1005.82	-29782.1	0.000000	0.000000	6.182772	0.110901	NaN	0.000000	0.001683	0.001802	28.0806	0.113694	0.002076	54.7569	-117.813	-163.474	0.136790	0.181612	-0.990821	-0.992085	0.110901	54.7569	-0.992340	-1.789057E+13	-6.198861E-15	NaN
690	1.000000	0.192900	7.3718e+06	-42589.1	1005.82	-29782.1	0.000000	0.000000	6.192790	-0.019462	NaN	0.000000	0.001718	0.001770	28.0809	0.073927	0.001956	37.7858	172.895	10.0633	0.026523	0.191508	-0.980798	-0.982189	-0.019462	37.7858	-0.980411	-1.235809E+13	1.574831E-15	NaN
690	1.000000	0.202905	7.3718e+06	-42589.1	1005.82	-29782.1	0.000000	0.000000	6.202797	0.040190	NaN	0.000000	0.001703	0.001786	28.0807	0.061594	0.002065	29.8249	173.993	-162.657	0.094681	0.201636	-0.970793	-0.972062	0.040190	29.8249	-0.971803	-9.461577E+12	-4.247698E-15	NaN
690	1.000000	0.212907	7.3718e+06	-42589.1	1005.82	-29782.1	0.000000	0.000000	6.212799	0.024727	NaN	0.000000	0.001703	0.001825	28.081	0.090016	0.001942	46.3413	53.3997	11.4917	0.034803	0.211557	-0.960791	-0.962140	0.024727	46.3413	-0.961191	-6.806475E+12	-3.632820E-15	NaN
690	1.000000	0.222903	7.3718e+06	-42589.1	1005.82	-29782.1	0.000000	0.000000	6.222791	-0.056242	NaN	0.000000	0.001717	0.001767	28.081	0.075103	0.002082	36.0788	36.4521	-165.08	0.006955	0.221618	-0.950795	-0.952079	-0.056242	36.0788	-0.949625	-4.753090E+12	1.183263E-14	NaN
690	1.000000	0.232912	7.3718e+06	-42589.1	1005.82	-29782.1	0.000000	0.000000	6.232802	-0.029600	NaN	0.000000	0.001752	0.001811	28.0808	0.031805	0.001966	16.1762	-59.52	11.4655	-0.042848	0.231552	-0.940785	-0.942145	-0.029600	16.1762	-0.939412	-3.461066E+12	8.552406E-15	NaN
690	1.000000	0.242941	7.3718e+06	-42589.1	1005.82	-29782.1	0.000000	0.000000	6.242831	-0.011272	NaN	0.000000	0.001712	0.001799	28.0816	0.042143	0.001996	21.1137	-138.613	-164.147	0.065724	0.241653	-0.930756	-0.932044	-0.011272	21.1137	-0.930356	-2.612160E+12	4.315192E-15	NaN
690	1.000000	0.252947	7.3718e+06	-42589.1	1005.82	-29782.1	0.000000	0.000000	6.252837	-0.036234	NaN	0.000000	0.001709	0.001794	28.0821	0.037938	0.002067	18.355	78.8794	15.5304	-0.025236	0.251584	-0.920750	-0.922113	-0.036234	18.355	-0.919269	-1.850710E+12	1.957851E-14	NaN
690	1.000000	0.262926	7.3718e+06	-42589.1	1005.82	-29782.1	0.000000	0.000000	6.262816	-0.009717	NaN	0.000000	0.001725	0.001789	28.0819	0.054590	0.001900	28.7288	-8.412616	-166.477	-0.045618	0.261601	-0.910772	-0.912096	-0.009717	28.7288	-0.910518	-1.409804E+12	6.892569E-15	NaN
690	1.000000	0.272933	7.3718e+06	-42589.1	1005.82	-29782.1	0.000000	0.000000	6.272823	-0.029382	NaN	0.000000	0.001714	0.001819	28.0821	0.089935	0.001901	47.3113	-75.1395	10.9813	-0.044652	0.271581	-0.900764	-0.902116	-0.029382	47.3113	-0.900299	-1.025890E+12	2.864004E-14	NaN
690	1.000000	0.282926	7.3718e+06	-42589.1	1005.82	-29782.1	0.000000	0.000000	6.282818	0.027536	NaN	0.000000	0.001699	0.001783	28.0817	0.086998	0.002071	42.0153	159.376	-167.819	-0.009116	0.281706	-0.890771	-0.891991	0.027536	42.0153	-0.891263	-7.744378E+11	-3.555632E-14	NaN
690	1.000000	0.292967	7.3718e+06	-42589.1	1005.82	-29782.1	0.000000	0.000000	6.292860	0.043535	NaN	0.000000	0.001705	0.001762	28.0822	0.047300	0.001918	24.6661	118.047	12.3503	-0.003932	0.291585	-0.880730	-0.882112	0.043535	24.6661	-0.882054	-5.814142E+11	-7.487744E-14	NaN
690	1.000000	0.302980	7.3718e+06	-42589.1	1005.82	-29782.1	0.000000	0.000000	6.302870	-0.006795	NaN	0.000000	0.001715	0.001779	28.0819	0.062780	0.002054	30.5683	-151.406	-165.577	-0.028201	0.301611	-0.870717	-0.872086	-0.006795	30.5683	-0.870551	-4.063445E+11	1.672187E-14	NaN
690	1.000000	0.312951	7.3718e+06	-42589.1	1005.82	-29782.1	0.000000	0.000000	6.312843	0.023610	NaN	0.000000	0.001721	0.001797	28.0822	0.096458	0.002151	44.8495	102.91	13.5213	0.076999	0.311579	-0.860746	-0.862118	0.023610	44.8495	-0.861141	-3.030839E+11	-7.790024E-14	NaN
690	1.000000	0.323005	7.3718e+06	-42589.1	1005.82	-29782.1	0.000000	0.000000	6.322898	0.063089	NaN	0.000000	0.001729	0.001786	28.0816	0.147015	0.001945	75.5841	53.1887	-167.674	0.074485	0.321631	-0.850692	-0.852067	0.063089	75.5841	-0.851318	-2.231471E+11	-2.827233E-13	NaN
690	1.000000	0.332963	7.3718e+06	-42589.1	1005.82	-29782.1	0.000000	0.000000	6.332858	0.100041	NaN	0.000000	0.001723	0.001750	28.0818	0.217988	0.002000	108.972	121.894	11.1557	0.097661	0.331576	-0.840734	-0.842121	0.100041	108.972	-0.841423	-1.638961E+11	-6.103913E-13	NaN
690	1.000000	0.342957	7.3718e+06	-42589.1	1005.82	-29782.1	0.000000	0.000000	6.342848	-0.007298	NaN	0.000000	0.001712	0.001789	28.0816	0.071129	0.001905	37.3384	164.073	-167.25	0.062829	0.341691	-0.830740	-0.832006	-0.007298	37.3384	-0.830593	-1.169026E+11	6.242923E-14	NaN
690	1.000000	0.352966	7.3718e+06	-42589.1	1005.82	-29782.1	0.000000	0.000000	6.352858	0.012426	NaN	0.000000	0.001735	0.001801	28.0815	0.120803	0.001921	62.8731	-114.791	13.7744	-0.002410	0.351625	-0.820731	-0.822072	0.012426	62.8731	-0.820879	-8.632462E+10	-1.439489E-13	NaN
690	1.000000	0.362983	7.3718e+06	-42589.1	1005.82	-29782.1	0.000000	0.000000	6.362873	-0.013482	NaN	0.000000	0.001718	0.001800	28.0818	0.068510	0.002002	34.2207	-139.113	-163.86	0.008522	0.361649	-0.810714	-0.812048	-0.013482	34.2207	-0.810419	-6.226663E+10	2.165281E-13	NaN
690	1.000000	0.372982	7.3718e+06	-42589.1	1005.82	-29782.1	0.000000	0.000000	6.372872	-0.016482	NaN	0.000000	0.001700	0.001776	28.0818	0.083928	0.001972	42.5632	-145.978	14.3792	0.028347	0.371616	-0.800715	-0.802081	-0.016482	42.5632	-0.800425	-4.556502E+10	3.617195E-13	NaN
690	1.000000	0.382988	7.3718e+06	-42589.1	1005.82	-29782.1	0.000000	0.000000	6.382880	0.016061	NaN	0.000000	0.001730	0.001809	28.0804	0.046542	0.001986	23.4383	152.519	-165.29	0.009244	0.381689	-0.790709	-0.792008	0.016061	23.4383	-0.791223	-3.417360E+10	-4.699954E-13	NaN
690	1.000000	0.392979	7.3718e+06	-42589.1	1005.82	-29782.1	0.000000	0.000000	6.392870	0.005611	NaN	0.000000	0.001767	0.001826	28.0804	0.076116	0.001999	38.0679	-7.137586	13.1585	0.006341	0.391685	-0.780719	-0.782012	0.005611	38.0679	-0.780829	-2.468871E+10	-2.272771E-13	NaN
690	1.000000	0.403017	7.3718e+06	-42589.1	1005.82	-29782.1	0.000000	0.000000	6.402911	0.079679	NaN	0.000000	0.001761	0.001835	28.0805	0.087622	0.002046	42.8166	-143.891	-164.964	0.101383	0.401732	-0.770680	-0.771965	0.079679	42.8166	-0.772076	-1.877291E+10	-4.244336E-12	NaN
690	1.000000	0.413025	7.3718e+06	-42589.1	1005.82	-29782.1	0.000000	0.000000	6.412917	0.023333	NaN	0.000000	0.001782	0.001805	28.0803	0.129283	0.002016	64.1175	-14.1905	15.6645	0.033466	0.411685	-0.760672	-0.762012	0.023333	64.1175	-0.760945	-1.324813E+10	-1.761225E-12	NaN
690	1.000000	0.423036	7.3718e+06	-42589.1	1005.82	-29782.1	0.000000	0.000000	6.422928	0.026488	NaN	0.000000	0.001804	0.001804	28.0804	0.099876	0.001930	51.7556	4.263396	-164.429	0.067503	0.421739	-0.750662	-0.751958	0.026488	51.7556	-0.751045	-9.715157E+9	-2.726488E-12	NaN
690	1.000000	0.433021	7.3718e+06	-42589.1	1005.82	-29782.1	0.000000	0.000000	6.432913	0.023007	NaN	0.000000	0.001794	0.001810	28.0802	0.034794	0.001989	17.4972	-17.6948	15.8294	0.044512	0.431635	-0.740676	-0.742062	0.023007	17.4972	-0.741662	-7.239310E+9	-3.178112E-12	NaN
690	1.000000	0.443032	7.3718e+06	-42589.1	1005.82	-29782.1	0.000000	0.000000	6.442924	0.025636	NaN	0.000000	0.001774	0.001767	28.0804	0.046288	0.002041	22.6772	27.9573	-163.522	0.015728	0.441689	-0.730665	-0.732008	0.025636	22.6772	-0.731513	-5.265349E+9	-4.868755E-12	NaN
690	1.000000	0.453011	7.3718e+06	-42589.1	1005.82	-29782.1	0.000000	0.000000	6.452905	0.061574	NaN	0.000000	0.001683	0.001796	28.0803	0.131116	0.002061	63.6128	-162.683	10.5564	0.057545	0.451689	-0.720686	-0.722008	0.061574	63.6128	-0.721412	-3.834673E+9	-1.605714E-11	NaN
690	1.000000	0.463044	7.3718e+06	-42589.1	1005.82	-29782.1	0.000000	0.000000	6.462937	0.054598	NaN	0.000000	0.001692	0.001825	28.0803	0.143293	0.002044	70.0975	-17.8181	-166.593	0.037192	0.461707	-0.710653	-0.711990	0.054598	70.0975	-0.711237	-2.785700E+9	-1.959927E-11	NaN
690	1.000000	0.473029	7.3718e+06	-42589.1	1005.82	-29782.1	0.000000	0.000000	6.472919	-0.012575	NaN	0.000000	0.001649	0.001811	28.0804	0.072412	0.001981	36.5538	-2.920242	17.4379	0.015709	0.471654	-0.700668	-0.702043	-0.012575	36.5538	-0.700410	-1.982127E+9	6.344323E-12	NaN
690	1.000000	0.483045	7.3718e+06	-42589.1	1005.82	-29782.1	0.000000	0.000000	6.482938	0.065316	NaN	0.000000	0.001714	0.001776	28.0804	0.035405	0.001971	17.9602	-146.65	-165.315	0.014304	0.481723	-0.690652	-0.691974	0.065316	17.9602	-0.693380	-1.588921E+9	-4.110710E-11	NaN
690	1.000000	0.493058	7.3718e+06	-42589.1	1005.82	-29782.1	0.000000	0.000000	6.492950	0.015378	NaN	0.000000	0.001740	0.001820	28.0803	0.097054	0.002094	46.3389	-49.5174	13.5573	-0.070122	0.491689	-0.680639	-0.682008	0.015378	46.3389	-0.680888	-1.072380E+9	-1.434025E-11	NaN
690	1.000000	0.503025	7.3718e+06	-42589.1	1005.82	-29782.1	0.000000	0.000000	6.502916	0.013166	NaN	0.000000	0.001787	0.001816	28.0806	0.046220	0.002054	22.5027	-160.642	-164.557	0.110915	0.501764	-0.670672	-0.671933	0.013166	22.5027	-0.671111	-7.881294E+8	-1.670527E-11	NaN
690	1.000000	0.513055	7.3718e+06	-42589.1	1005.82	-29782.1	0.000000	0.000000	6.512946	0.007520	NaN	0.000000	0.001773	0.001765	28.0804	0.039216	0.001998	19.6245	-94.4168	14.7492	-0.076658	0.511666	-0.660643	-0.662031	0.007520	19.6245	-0.660930	-5.717502E+8	-1.315192E-11	NaN
690	1.000000	0.523038	7.3718e+06	-42589.1	1005.82	-29782.1	0.000000	0.000000	6.522925	-0.079022	NaN	0.000000	0.001766	0.001792	28.0818	0.048819	0.002001	24.4005	49.0073	-164.77	-0.060274	0.521757	-0.650659	-0.651940	-0.079022	24.4005	-0.648231	-3.829818E+8	2.063324E-10	NaN
690	1.000000	0.533050	7.3718e+06	-42589.1	1005.82	-29782.1	0.000000	0.000000	6.532940	-0.028845	NaN	0.000000	0.001780	0.001750	28.0816	0.076994	0.002115	36.3963	103.981	11.8048	0.005840	0.531666	-0.640647	-0.642031	-0.028845	36.3963	-0.640053	-2.958124E+8	9.751122E-11	NaN
690	1.000000	0.543073	7.3718e+06	-42589.1	1005.82	-29782.1	0.000000	0.000000	6.542962	-0.040475	NaN	0.000000	0.001764	0.001774	28.0818	0.086436	0.002021	42.7763	-178.414	-166.757	-0.027512	0.541741	-0.630624	-0.631956	-0.040475	42.7763	-0.629915	-2.147106E+8	1.885075E-10	NaN
690	1.000000	0.553072	7.3718e+06	-42589.1	1005.82	-29782.1	0.000000	0.000000	6.552966	0.073768	NaN	0.000000	0.001738	0.001784	28.0819	0.067681	0.001971	34.3428	-137.219	12.423	0.007482	0.551646	-0.620625	-0.622051	0.073768	34.3428	-0.622236	-1.684091E+8	-4.380297E-10	NaN
690	1.000000	0.563073	7.3718e+06	-42589.1	1005.82	-29782.1	0.000000	0.000000	6.562967	0.076378	NaN	0.000000	0.001679	0.001775	28.0818	0.049546	0.001936	25.5862	-127.596	-165.893	0.031408	0.561806	-0.610624	-0.611891	0.076378	25.5862	-0.612863	-1.251694E+8	-6.101934E-10	NaN
690	1.000000	0.573056	7.3718e+06	-42589.1	1005.82	-29782.1	0.000000	0.000000	6.572946	-0.020596	NaN	0.000000	0.001699	0.001799	28.0816	0.073933	0.002075	35.6345	166.691	10.718	0.012565	0.571704	-0.600641	-0.601994	-0.020596	35.6345	-0.600208	-8.381555E+7	2.457343E-10	NaN
690	1.000000	0.583054	7.3718e+06	-42589.1	1005.82	-29782.1	0.000000	0.000000	6.582944	-0.020398	NaN	0.000000	0.001690	0.001803	28.0821	0.071708	0.002142	33.4724	176.777	-163.909	-0.040206	0.581770	-0.590643	-0.591927	-0.020398	33.4724	-0.590186	-6.098592E+7	3.344773E-10	NaN
690	1.000000	0.593087	7.3718e+06	-42589.1	1005.82	-29782.1	0.000000	0.000000	6.592977	-0.032905	NaN	0.000000	0.001708	0.001780	28.0817	0.027435	0.001838	14.9247	133.428	15.4691	-0.008409	0.591707	-0.580610	-0.581990	-0.032905	14.9247	-0.578957	-4.268995E+7	7.707910E-10	NaN
690	1.000000	0.603083	7.3718e+06	-42589.1	1005.82	-29782.1	0.000000	0.000000	6.602974	-0.009825	NaN	0.000000	0.001704	0.001800	28.0819	0.051431	0.002054	25.0341	105.482	-164.712	0.032040	0.601757	-0.570614	-0.571940	-0.009825	25.0341	-0.570320	-3.243762E+7	3.028950E-10	NaN
690	1.000000	0.613096	7.3718e+06	-42589.1	1005.82	-29782.1	0.000000	0.000000	6.612986	-0.015294	NaN	0.000000	0.001673	0.001764	28.0819	0.052845	0.001924	27.4733	-63.5155	16.0517	0.013864	0.611751	-0.560601	-0.561946	-0.015294	27.4733	-0.560184	-2.349198E+7	6.510183E-10	NaN
690	1.000000	0.623094	7.3718e+06	-42589.1	1005.82	-29782.1	0.000000	0.000000	6.622986	0.021289	NaN	0.000000	0.001707	0.001739	28.082	0.091731	0.002083	44.0423	67.2527	-164.947	0.030345	0.621758	-0.550603	-0.551939	0.021289	44.0423	-0.550966	-1.751195E+7	-1.215709E-9	NaN
690	1.000000	0.633111	7.3718e+06	-42589.1	1005.82	-29782.1	0.000000	0.000000	6.633001	-0.029925	NaN	0.000000	0.001687	0.001778	28.0818	0.058361	0.001995	29.2593	11.8917	14.5935	-0.006453	0.631732	-0.540586	-0.541965	-0.029925	29.2593	-0.539819	-1.227008E+7	2.438888E-9	NaN
690	1.000000	0.643090	7.3718e+06	-42589.1	1005.82	-29782.1	0.000000	0.000000	6.642983	0.054172	NaN	0.000000	0.001651	0.001792	28.0819	0.053909	0.001967	27.4055	-22.9227	-167.238	0.076582	0.641808	-0.530608	-0.531889	0.054172	27.4055	-0.532090	-9.5851e+06	-5.651686E-9	NaN
690	1.000000	0.653099	7.3718e+06	-42589.1	1005.82	-29782.1	0.000000	0.000000	6.652989	-0.002717	NaN	0.000000	0.001651	0.001793	28.0807	0.016491	0.001955	8.436747	-99.0533	15.303	0.071287	0.651705	-0.520599	-0.521993	-0.002717	8.436747	-0.520357	-6.58513e+06	4.125616E-10	NaN
690	1.000000	0.663126	7.3718e+06	-42589.1	1005.82	-29782.1	0.000000	0.000000	6.663017	0.005247	NaN	0.000000	0.001672	0.001789	28.0806	0.043687	0.002018	21.6483	153.259	-169.862	-0.038174	0.661819	-0.510571	-0.511878	0.005247	21.6483	-0.510753	-4.84062e+06	-1.083885E-9	NaN
690	1.000000	0.673121	7.3718e+06	-42589.1	1005.82	-29782.1	0.000000	0.000000	6.673010	-0.044098	NaN	0.000000	0.001677	0.001820	28.0806	0.092812	0.002077	44.6937	65.6567	15.3635	-0.029650	0.671777	-0.500576	-0.501920	-0.044098	44.6937	-0.499836	-3.40984e+06	1.293262E-8	NaN
690	1.000000	0.683142	7.3718e+06	-42589.1	1005.82	-29782.1	0.000000	0.000000	6.683034	0.044264	NaN	0.000000	0.001679	0.001795	28.0805	0.066602	0.002097	31.7667	-96.0784	-166.052	0.075353	0.681769	-0.490555	-0.491928	0.044264	31.7667	-0.491601	-2.61671e+06	-1.691573E-8	NaN
690	1.000000	0.693164	7.3718e+06	-42589.1	1005.82	-29782.1	0.000000	0.000000	6.693055	0.014227	NaN	0.000000	0.001684	0.001797	28.0807	0.085454	0.002049	41.7138	-105.276	15.3194	0.049311	0.691777	-0.480533	-0.481920	0.014227	41.7138	-0.480789	-1.84745e+06	-7.700692E-9	NaN
690	1.000000	0.703139	7.3718e+06	-42589.1	1005.82	-29782.1	0.000000	0.000000	6.703031	0.026687	NaN	0.000000	0.001698	0.001789	28.0806	0.064134	0.001960	32.726	-55.4784	-168.976	-0.022252	0.701766	-0.470558	-0.471932	0.026687	32.726	-0.471169	-1.35459e+06	-1.970108E-8	NaN
690	1.000000	0.713120	7.3718e+06	-42589.1	1005.82	-29782.1	0.000000	0.000000	6.713010	-0.028939	NaN	0.000000	0.001710	0.001800	28.0807	0.090027	0.002005	44.8925	-97.9504	14.6716	-0.034755	0.711826	-0.460577	-0.461871	-0.028939	44.8925	-0.460094	-946963	3.055957E-8	NaN
690	1.000000	0.723139	7.3718e+06	-42589.1	1005.82	-29782.1	0.000000	0.000000	6.723028	-0.029348	NaN	0.000000	0.001670	0.001807	28.0809	0.108643	0.002075	52.3636	31.4417	-164.224	-0.057821	0.721807	-0.450559	-0.451890	-0.029348	52.3636	-0.450138	-685944	4.278438E-8	NaN
690	1.000000	0.733142	7.3718e+06	-42589.1	1005.82	-29782.1	0.000000	0.000000	6.733031	-0.044174	NaN	0.000000	0.001683	0.001799	28.0809	0.094709	0.001976	47.9285	-47.9573	8.383107	0.018784	0.731793	-0.440555	-0.441904	-0.044174	47.9285	-0.439864	-491412	8.989156E-8	NaN
690	1.000000	0.743139	7.3718e+06	-42589.1	1005.82	-29782.1	0.000000	0.000000	6.743027	-0.070538	NaN	0.000000	0.001697	0.001761	28.0808	0.064156	0.001969	32.5821	-86.2903	-170.624	0.050473	0.741787	-0.430558	-0.431910	-0.070538	32.5821	-0.428934	-344335	2.048518E-7	NaN
690	1.000000	0.753176	7.3718e+06	-42589.1	1005.82	-29782.1	0.000000	0.000000	6.753068	0.004883	NaN	0.000000	0.001714	0.001796	28.0806	0.053836	0.002047	26.3056	-81.897	13.4676	-0.001838	0.751735	-0.420521	-0.421962	0.004883	26.3056	-0.420660	-262890	-1.857286E-8	NaN
690	1.000000	0.763150	7.3718e+06	-42589.1	1005.82	-29782.1	0.000000	0.000000	6.763042	0.032187	NaN	0.000000	0.001715	0.001822	28.081	0.113378	0.001963	57.7483	-31.8293	-165.31	0.048429	0.761840	-0.410547	-0.411857	0.032187	57.7483	-0.410965	-191482	-1.680954E-7	NaN
690	1.000000	0.773158	7.3718e+06	-42589.1	1005.82	-29782.1	0.000000	0.000000	6.773048	-0.016415	NaN	0.000000	0.001719	0.001835	28.0808	0.112475	0.001951	57.6628	33.9509	14.2247	0.007182	0.771785	-0.400539	-0.401913	-0.016415	57.6628	-0.400326	-135094	1.215040E-7	NaN
690	1.000000	0.783177	7.3718e+06	-42589.1	1005.82	-29782.1	0.000000	0.000000	6.783072	0.094521	NaN	0.000000	0.001698	0.001809	28.0809	0.082196	0.001943	42.2992	-96.9864	-165.62	0.113115	0.781809	-0.390520	-0.391888	0.094521	42.2992	-0.392196	-103411	-9.140305E-7	NaN
690	1.000000	0.793114	7.3718e+06	-42589.1	1005.82	-29782.1	0.000000	0.000000	6.793006	0.020678	NaN	0.000000	0.001710	0.001767	28.0822	0.017019	0.002090	8.144285	-144.257	15.7083	-0.088497	0.791790	-0.380583	-0.381907	0.020678	8.144285	-0.382487	-75087	-2.753823E-7	NaN
690	1.000000	0.803141	7.3718e+06	-42589.1	1005.82	-29782.1	0.000000	0.000000	6.803028	-0.084337	NaN	0.000000	0.001725	0.001811	28.0821	0.057581	0.002084	27.6273	-27.7393	-166.785	-0.105031	0.801848	-0.370556	-0.371849	-0.084337	27.6273	-0.368267	-46898.8	1.798272E-6	NaN
690	1.000000	0.813161	7.3718e+06	-42589.1	1005.82	-29782.1	0.000000	0.000000	6.813052	-0.003892	NaN	0.000000	0.001658	0.001779	28.0823	0.145211	0.001986	73.099	11.9638	13.5551	-0.065796	0.811881	-0.360536	-0.361816	-0.003892	73.099	-0.360496	-36225.3	1.074488E-7	NaN
690	1.000000	0.823160	7.3718e+06	-42589.1	1005.82	-29782.1	0.000000	0.000000	6.823051	0.000425	NaN	0.000000	0.001671	0.001809	28.0821	0.041222	0.001980	20.8146	-115.208	-164.999	0.013120	0.821891	-0.350537	-0.351806	0.000425	20.8146	-0.350552	-26002.6	-1.633112E-8	NaN
690	1.000000	0.833177	7.3718e+06	-42589.1	1005.82	-29782.1	0.000000	0.000000	6.833067	-0.029874	NaN	0.000000	0.001650	0.001769	28.0823	0.049130	0.002095	23.4562	32.0006	12.3607	-0.019454	0.831823	-0.340520	-0.341874	-0.029874	23.4562	-0.339565	-17997.3	1.659917E-6	NaN
690	1.000000	0.843195	7.3718e+06	-42589.1	1005.82	-29782.1	0.000000	0.000000	6.843087	0.029615	NaN	0.000000	0.001680	0.001796	28.0821	0.073526	0.001942	37.8688	101.604	-165.863	-0.015253	0.841809	-0.330502	-0.331888	0.029615	37.8688	-0.331089	-13532.9	-2.188376E-6	NaN
690	1.000000	0.853187	7.3718e+06	-42589.1	1005.82	-29782.1	0.000000	0.000000	6.853076	-0.027214	NaN	0.000000	0.001657	0.001818	28.0822	0.057392	0.002021	28.3996	174.383	15.0677	0.014959	0.851829	-0.320511	-0.321868	-0.027214	28.3996	-0.319792	-9237.92	2.945954E-6	NaN
690	1.000000	0.863212	7.3718e+06	-42589.1	1005.82	-29782.1	0.000000	0.000000	6.863105	0.048022	NaN	0.000000	0.001698	0.001821	28.082	0.116298	0.002075	56.0363	-96.5197	-167.165	0.080031	0.861875	-0.310485	-0.311822	0.048022	56.0363	-0.311128	-6882.51	-6.977335E-6	NaN
690	1.000000	0.873224	7.3718e+06	-42589.1	1005.82	-29782.1	0.000000	0.000000	6.873116	0.029116	NaN	0.000000	0.001688	0.001800	28.0822	0.152356	0.002014	75.659	-156.789	14.871	0.023791	0.871819	-0.300473	-0.301879	0.029116	75.659	-0.300762	-4830.32	-6.027840E-6	NaN
690	1.000000	0.883194	7.3718e+06	-42589.1	1005.82	-29782.1	0.000000	0.000000	6.883089	0.094824	NaN	0.000000	0.001711	0.001782	28.0822	0.044752	0.001986	22.5342	-140.726	-167.192	0.124323	0.881891	-0.290503	-0.291807	0.094824	22.5342	-0.293659	-3784.88	-2.505324E-5	NaN
690	1.000000	0.893207	7.3718e+06	-42589.1	1005.82	-29782.1	0.000000	0.000000	6.893095	-0.086324	NaN	0.000000	0.001715	0.001767	28.0822	0.013725	0.001994	6.882966	1.746050	12.1714	-0.027990	0.891844	-0.280490	-0.281853	-0.086324	6.882966	-0.271084	-1729.86	4.990202E-5	NaN
690	1.000000	0.903188	7.3718e+06	-42589.1	1005.82	-29782.1	0.000000	0.000000	6.903082	0.053396	NaN	0.000000	0.001662	0.001788	28.0821	0.048603	0.001910	25.4477	-139.853	-166.641	-0.067907	0.901864	-0.270509	-0.271833	0.053396	25.4477	-0.272082	-1791.32	-2.980836E-5	NaN
690	1.000000	0.913215	7.3718e+06	-42589.1	1005.82	-29782.1	0.000000	0.000000	6.913108	0.037416	NaN	0.000000	0.001671	0.001789	28.082	0.109040	0.002066	52.7708	121.164	12.0957	0.033414	0.911769	-0.260482	-0.261928	0.037416	52.7708	-0.261014	-1214.63	-3.080405E-5	NaN
690	1.000000	0.923206	7.3718e+06	-42589.1	1005.82	-29782.1	0.000000	0.000000	6.923098	0.023411	NaN	0.000000	0.001659	0.001809	28.0821	0.044904	0.001872	23.9807	53.0317	-163.087	-0.058823	0.921929	-0.250491	-0.251769	0.023411	23.9807	-0.251223	-858.771	-2.726159E-5	NaN
690	1.000000	0.933235	7.3718e+06	-42589.1	1005.82	-29782.1	0.000000	0.000000	6.933127	0.025762	NaN	0.000000	0.001679	0.001796	28.0808	0.177915	0.002012	88.4381	127.464	10.9844	0.026247	0.931881	-0.240462	-0.241816	0.025762	88.4381	-0.240681	-589.093	-4.373220E-5	NaN
690	1.000000	0.943240	7.3718e+06	-42589.1	1005.82	-29782.1	0.000000	0.000000	6.943133	0.042914	NaN	0.000000	0.001642	0.001779	28.0808	0.048612	0.002006	24.2349	-88.559	-165.971	0.024343	0.941919	-0.230457	-0.231779	0.042914	24.2349	-0.231785	-427.242	-0.000100	NaN
690	1.000000	0.953232	7.3718e+06	-42589.1	1005.82	-29782.1	0.000000	0.000000	6.953124	0.034328	NaN	0.000000	0.001647	0.001744	28.081	0.069536	0.001896	36.669	-159.407	14.1177	0.039961	0.951935	-0.220465	-0.221762	0.034328	36.669	-0.221167	-289.948	-0.000118	NaN
690	1.000000	0.963245	7.3718e+06	-42589.1	1005.82	-29782.1	0.000000	0.000000	6.963136	-0.011766	NaN	0.000000	0.001708	0.001752	28.0807	0.090903	0.001995	45.5605	76.0017	-168.82	0.011105	0.961917	-0.210452	-0.211781	-0.011766	45.5605	-0.210258	-193.641	6.076100E-5	NaN
690	1.000000	0.973267	7.3718e+06	-42589.1	1005.82	-29782.1	0.000000	0.000000	6.973161	0.056217	NaN	0.000000	0.001723	0.001796	28.081	0.044255	0.002017	21.9452	-52.3879	13.9611	0.033596	0.971855	-0.200430	-0.201842	0.056217	21.9452	-0.202351	-143.968	-0.000390	NaN
690	1.000000	0.983247	7.3718e+06	-42589.1	1005.82	-29782.1	0.000000	0.000000	6.983137	-0.003921	NaN	0.000000	0.001654	0.001764	28.0808	0.049488	0.001953	25.3426	115.42	-166.628	0.052192	0.981985	-0.190451	-0.191712	-0.003921	25.3426	-0.190335	-91.1205	4.303517E-5	NaN
690	1.000000	0.993260	7.3718e+06	-42589.1	1005.82	-29782.1	0.000000	0.000000	6.993152	0.032318	NaN	0.000000	0.001663	0.001781	28.0809	0.078546	0.002034	38.6242	-107.465	10.4873	0.014177	0.991875	-0.180438	-0.181822	0.032318	38.6242	-0.181065	-63.6168	-0.000508	NaN
690	1.000000	1.003273	7.3718e+06	-42589.1	1005.82	-29782.1	0.000000	0.000000	7.003162	-0.036346	NaN	0.000000	0.001644	0.001770	28.081	0.094584	0.002025	46.7066	-163.545	-167.837	-0.000287	1.001974	-0.170424	-0.171723	-0.036346	46.7066	-0.169841	-40.8172	0.000890	NaN
690	1.000000	1.013247	7.3718e+06	-42589.1	1005.82	-29782.1	0.000000	0.000000	7.013140	0.051407	NaN	0.000000	0.001690	0.001773	28.081	0.094186	0.001981	47.5521	-56.0627	14.3347	0.006577	1.011901	-0.160450	-0.161796	0.051407	47.5521	-0.161261	-28.8644	-0.001781	NaN
690	1.000000	1.023245	7.3718e+06	-42589.1	1005.82	-29782.1	0.000000	0.000000	7.023138	0.039221	NaN	0.000000	0.001666	0.001751	28.081	0.055951	0.002037	27.4705	21.5109	-165.974	0.053527	1.021953	-0.150452	-0.151744	0.039221	27.4705	-0.151523	-19.307	-0.002031	NaN
690	1.000000	1.033255	7.3718e+06	-42589.1	1005.82	-29782.1	0.000000	0.000000	7.033145	-0.017174	NaN	0.000000	0.001605	0.001808	28.0807	0.044103	0.002080	21.2061	-67.8843	10.0624	-0.020620	1.031960	-0.140443	-0.141738	-0.017174	21.2061	-0.139835	-11.7455	0.001462	NaN
690	1.000000	1.043275	7.3718e+06	-42589.1	1005.82	-29782.1	0.000000	0.000000	7.043167	0.031846	NaN	0.000000	0.001595	0.001794	28.0812	0.075697	0.002000	37.8513	99.9815	-166.342	0.084222	1.041940	-0.130422	-0.131757	0.031846	37.8513	-0.131053	-7.987873	-0.003987	NaN
690	1.000000	1.053258	7.3718e+06	-42589.1	1005.82	-29782.1	0.000000	0.000000	7.053147	-0.039741	NaN	0.000000	0.001573	0.001792	28.0807	0.126188	0.001964	64.2457	-170.39	11.8649	-0.057017	1.051963	-0.120439	-0.121734	-0.039741	64.2457	-0.119975	-4.825937	0.008235	NaN
690	1.000000	1.063282	7.3718e+06	-42589.1	1005.82	-29782.1	0.000000	0.000000	7.063172	-0.006544	NaN	0.000000	0.001566	0.001773	28.0821	0.085226	0.001962	43.4296	-127.481	-167.426	-0.042748	1.061993	-0.110416	-0.111704	-0.006544	43.4296	-0.110303	-3.049656	0.002146	NaN
690	1.000000	1.073278	7.3718e+06	-42589.1	1005.82	-29782.1	0.000000	0.000000	7.073169	-0.004031	NaN	0.000000	0.001652	0.001807	28.082	0.026225	0.002008	13.0613	114.654	14.4431	0.054568	1.071965	-0.100419	-0.101733	-0.004031	13.0613	-0.100187	-1.844695	0.002185	NaN
690	1.000000	1.083296	7.3718e+06	-42589.1	1005.82	-29782.1	0.000000	0.000000	7.083184	-0.087041	NaN	0.000000	0.001656	0.001796	28.0825	0.048706	0.002107	23.1122	-17.7437	-166.608	-0.052971	1.082018	-0.090401	-0.091679	-0.087041	23.1122	-0.087576	-0.947383	0.091876	NaN
690	1.000000	1.093242	7.3718e+06	-42589.1	1005.82	-29782.1	0.000000	0.000000	7.093134	0.015943	NaN	0.000000	0.001655	0.001749	28.082	0.077585	0.001982	39.1389	-23.1033	14.6436	0.061557	1.091905	-0.080455	-0.081792	0.015943	39.1389	-0.080760	-0.646621	-0.024656	NaN
690	1.000000	1.103279	7.3718e+06	-42589.1	1005.82	-29782.1	0.000000	0.000000	7.103172	0.059738	NaN	0.000000	0.001614	0.001762	28.0822	0.173987	0.002107	82.5766	17.051	-167.874	0.074133	1.101978	-0.070418	-0.071719	0.059738	82.5766	-0.070961	-0.361861	-0.165085	NaN
690	1.000000	1.113298	7.3718e+06	-42589.1	1005.82	-29782.1	0.000000	0.000000	7.113193	0.098591	NaN	0.000000	0.001601	0.001790	28.0819	0.255707	0.001934	132.228	61.1578	17.2884	0.212836	1.111908	-0.060399	-0.061789	0.098591	132.228	-0.060958	-0.191826	-0.513958	NaN
690	1.000000	1.123311	7.3718e+06	-42589.1	1005.82	-29782.1	0.000000	0.000000	7.123210	0.187421	NaN	0.000000	0.001631	0.001781	28.0822	0.200182	0.001884	106.233	7.507420	-168.286	0.207538	1.121960	-0.050386	-0.051737	0.187421	106.233	-0.051709	-0.102746	-1.824122	NaN
690	1.000000	1.133316	7.3718e+06	-42589.1	1005.82	-29782.1	0.000000	0.000000	7.133218	0.280089	NaN	0.000000	0.001629	0.001771	28.0822	0.293005	0.002110	138.878	18.8606	16.0426	0.300829	1.131948	-0.040382	-0.041750	0.280089	138.878	-0.041894	-0.051647	-5.423167	NaN
690	1.000000	1.143272	7.3718e+06	-42589.1	1005.82	-29782.1	0.000000	0.000000	7.143182	0.449354	NaN	0.000000	0.001615	0.001803	28.0822	0.337660	0.002017	167.386	54.072	-164.777	0.438012	1.142032	-0.030425	-0.031665	0.449354	167.386	-0.032438	-0.026975	-16.6584	NaN
690	1.000000	1.153309	7.3718e+06	-42589.1	1005.82	-29782.1	0.000000	0.000000	7.153223	0.545060	NaN	0.000000	0.001636	0.001802	28.0822	0.319903	0.002079	153.899	28.0004	13.6719	0.525821	1.151946	-0.020388	-0.021751	0.545060	153.899	-0.023044	-0.015016	-36.2997	NaN
690	1.000000	1.163318	7.3718e+06	-42589.1	1005.82	-29782.1	0.000000	0.000000	7.163233	0.586688	NaN	0.000000	0.001642	0.001810	28.0823	0.546313	0.002063	264.755	21.5595	-168.87	0.641647	1.162057	-0.010379	-0.011640	0.586688	264.755	-0.012041	-0.007552	-77.6868	NaN
690	1.000000	1.173270	7.3718e+06	-42589.1	1005.82	-29782.1	0.000000	0.000000	7.173297	3.294850	NaN	0.000000	0.001621	0.001792	28.0821	4.087693	0.001852	2207.64	14.9482	10.1596	2.065177	1.171956	-0.000427	-0.001741	3.294850	2207.64	-0.001546	-0.001122	-2936.14	NaN
690	2.000000	1.179853	7.3718e+06	-42589.1	1005.82	-29782.1	0.000000	0.000000	7.180160	10.1277	NaN	0.000000	0.001612	0.001781	28.0822	9.232354	0.001607	5743.36	9.159887	-175.02	10.0039	1.179553	0.006156	0.005856	10.1277	5743.36	0.004833	0.003982	2543.42	83155.9
690	2.000000	1.182313	7.3718e+06	-42589.1	1005.82	-29782.1	0.000000	0.000000	7.182762	13.5863	NaN	0.000000	0.001639	0.001836	28.0823	12.0797	0.001693	7133.88	3.791778	8.249768	12.5711	1.182013	0.008616	0.008316	13.5863	7133.88	0.007187	0.006220	2184.34	82643.5
690	2.000000	1.184800	7.3718e+06	-42589.1	1005.82	-29782.1	0.000000	0.000000	7.185370	16.5216	NaN	0.000000	0.001616	0.001789	28.081	14.6957	0.001860	7902.7	7.476541	-173.869	16.183	1.184538	0.011102	0.010841	16.5216	7902.7	0.009534	0.008669	1905.91	77548.5
690	2.000000	1.187328	7.3718e+06	-42589.1	1005.82	-29782.1	0.000000	0.000000	7.188085	21.0505	NaN	0.000000	0.001581	0.001820	28.0808	17.1019	0.001803	9484.31	7.272882	3.389703	20.6743	1.186914	0.013631	0.013217	21.0505	9484.31	0.011967	0.011450	1838.45	80979.2
690	2.000000	1.189758	7.3718e+06	-42589.1	1005.82	-29782.1	0.000000	0.000000	7.190712	25.8761	NaN	0.000000	0.001631	0.001768	28.081	19.5782	0.001787	10954.6	6.713514	-176.934	24.8461	1.189503	0.016061	0.015806	25.8761	10954.6	0.014289	0.014349	1803.32	83552.2
690	2.000000	1.192254	7.3718e+06	-42589.1	1005.82	-29782.1	0.000000	0.000000	7.193476	32.375	NaN	0.000000	0.001601	0.001819	28.0811	21.6355	0.001851	11689.4	5.810269	3.830478	30.8643	1.191961	0.018557	0.018264	32.375	11689.4	0.016480	0.017310	1870.33	81174.4
690	2.000000	1.194777	7.3718e+06	-42589.1	1005.82	-29782.1	0.000000	0.000000	7.196202	37.3157	NaN	0.000000	0.001626	0.001828	28.0807	24.3408	0.001768	13765.9	5.642532	-178.53	37.4577	1.194501	0.021080	0.020804	37.3157	13765.9	0.019047	0.021067	1771.29	86651.4
690	2.000000	1.197254	7.3718e+06	-42589.1	1005.82	-29782.1	0.000000	0.000000	7.199025	45.7534	NaN	0.000000	0.001632	0.001777	28.0807	25.9928	0.001675	15513.7	5.426613	0.356968	42.8196	1.196878	0.023557	0.023181	45.7534	15513.7	0.021345	0.024700	1852.4	90187.1
690	2.000000	1.199729	7.3718e+06	-42589.1	1005.82	-29782.1	0.000000	0.000000	7.201833	53.8391	NaN	0.000000	0.001637	0.001783	28.0809	28.3103	0.001778	15925.8	6.657313	178.424	51.7984	1.199381	0.026032	0.025684	53.8391	15925.8	0.023497	0.028337	1899.93	86435.8
690	2.000000	1.202292	7.37181e+06	-42589.1	1005.82	-29782.1	0.000000	0.000000	7.204584	58.4192	NaN	0.000000	0.001635	0.001802	28.0807	31.2416	0.001784	17512.4	3.073251	1.904224	57.0048	1.201858	0.028595	0.028161	58.4192	17512.4	0.026093	0.033034	1768.48	88032.1
690	2.000000	1.204766	7.37181e+06	-42589.1	1005.82	-29782.1	0.000000	0.000000	7.207306	64.4615	NaN	0.000000	0.001643	0.001793	28.0807	34.5647	0.001872	18462.7	7.384969	176.921	63.9435	1.204532	0.031069	0.030835	64.4615	18462.7	0.028450	0.037592	1714.75	87000.1
690	2.000000	1.207263	7.37181e+06	-42589.1	1005.82	-29782.1	0.000000	0.000000	7.210258	75.5078	NaN	0.000000	0.001605	0.001807	28.0808	36.4203	0.001776	20506.7	6.730976	-3.397166	73.9773	1.206821	0.033566	0.033123	75.5078	20506.7	0.030805	0.042428	1779.68	90958.8
690	2.000000	1.209738	7.37181e+06	-42589.1	1005.82	-29782.1	0.000000	0.000000	7.213098	84.3909	NaN	0.000000	0.001629	0.001734	28.0808	39.5859	0.001851	21386.9	7.168893	176.16	83.7929	1.209393	0.036041	0.035696	84.3909	21386.9	0.033082	0.047374	1781.39	89774.3
690	2.000000	1.212215	7.37181e+06	-42589.1	1005.82	-29782.1	0.000000	0.000000	7.215857	91.2591	NaN	0.000000	0.001598	0.001794	28.081	40.7508	0.001783	22861.5	4.688640	-2.632331	87.9089	1.211880	0.038518	0.038183	91.2591	22861.5	0.035524	0.052974	1722.73	90750.3
690	2.000000	1.214703	7.37181e+06	-42589.1	1005.82	-29782.1	0.000000	0.000000	7.218743	100.934	NaN	0.000000	0.001599	0.001774	28.0807	44.1331	0.001851	23845.9	4.568738	177.864	97.7775	1.214425	0.041006	0.040728	100.934	23845.9	0.037832	0.058544	1724.05	90041.6
690	2.000000	1.217233	7.37181e+06	-42589.1	1005.82	-29782.1	0.000000	0.000000	7.221709	111.551	NaN	0.000000	0.001613	0.001817	28.0808	46.2588	0.001695	27295.6	7.671445	-6.527004	108.92	1.216857	0.043536	0.043159	111.551	27295.6	0.040471	0.065252	1709.56	97627.1
690	2.000000	1.219742	7.37181e+06	-42589.1	1005.82	-29782.1	0.000000	0.000000	7.224617	121.264	NaN	0.000000	0.001633	0.001781	28.0822	48.1187	0.001735	27738.9	5.593560	174.631	122.759	1.219494	0.046045	0.045797	121.264	27738.9	0.042766	0.071372	1699.04	94863.4
690	2.000000	1.222238	7.37181e+06	-42589.1	1005.82	-29782.1	0.000000	0.000000	7.227608	133.298	NaN	0.000000	0.001619	0.001780	28.082	51.1627	0.001782	28712.7	2.717944	-1.757430	134.033	1.221881	0.048541	0.048184	133.298	28712.7	0.045059	0.077755	1714.34	94077
690	2.000000	1.224689	7.37181e+06	-42589.1	1005.82	-29782.1	0.000000	0.000000	7.230517	144.473	NaN	0.000000	0.001630	0.001753	28.0822	54.4498	0.001854	29371.8	5.569722	174.783	141.656	1.224455	0.050991	0.050758	144.473	29371.8	0.047302	0.084258	1714.65	92448.2
690	2.000000	1.227205	7.37181e+06	-42589.1	1005.82	-29782.1	0.000000	0.000000	7.233629	158.962	NaN	0.000000	0.001699	0.001800	28.082	55.7327	0.001863	29912.2	3.733996	-3.157180	156.367	1.226837	0.053508	0.053139	158.962	29912.2	0.049522	0.090942	1747.94	90623.1
690	2.000000	1.229708	7.37181e+06	-42589.1	1005.82	-29782.1	0.000000	0.000000	7.236517	168.324	NaN	0.000000	0.001728	0.001786	28.082	57.1368	0.001809	31588.1	0.965528	178.985	167.805	1.229366	0.056011	0.055669	168.324	31588.1	0.052014	0.098740	1704.72	91843.9
690	2.000000	1.232260	7.37181e+06	-42589.1	1005.82	-29782.1	0.000000	0.000000	7.239449	177.564	NaN	0.000000	0.001701	0.001771	28.0818	62.757	0.002033	30870.3	9.376458	-8.674061	178.823	1.231756	0.058563	0.058059	177.564	30870.3	0.054249	0.105998	1675.16	86629.2
690	2.000000	1.234659	7.37181e+06	-42589.1	1005.82	-29782.1	0.000000	0.000000	7.242607	196.017	NaN	0.000000	0.001714	0.001745	28.0819	62.7074	0.001792	34999.1	3.697359	174.922	193.133	1.234401	0.060962	0.060704	196.017	34999.1	0.056762	0.114453	1712.64	94518.3
690	2.000000	1.237173	7.37181e+06	-42589.1	1005.82	-29782.1	0.000000	0.000000	7.245533	206.054	NaN	0.000000	0.001729	0.001798	28.0823	64.5504	0.001757	36735.1	4.799084	-6.174061	201.923	1.236880	0.063476	0.063183	206.054	36735.1	0.059269	0.123201	1672.5	95619.7
690	2.000000	1.239655	7.37181e+06	-42589.1	1005.82	-29782.1	0.000000	0.000000	7.248800	225.145	NaN	0.000000	0.001704	0.001751	28.0821	66.7005	0.001672	39898.9	5.932845	171.947	221.844	1.239342	0.065958	0.065645	225.145	39898.9	0.061726	0.132070	1704.74	100307
690	2.000000	1.242094	7.37181e+06	-42589.1	1005.82	-29782.1	0.000000	0.000000	7.251828	239.504	NaN	0.000000	0.001712	0.001774	28.0822	70.0917	0.001836	38179.5	5.205911	-6.897996	233.05	1.241808	0.068397	0.068111	239.504	38179.5	0.063692	0.139379	1718.37	93434.1
690	2.000000	1.244713	7.37181e+06	-42589.1	1005.82	-29782.1	0.000000	0.000000	7.255069	254.61	NaN	0.000000	0.001692	0.001792	28.0819	72.3617	0.001741	41556.5	2.597452	175.241	253.916	1.244348	0.071016	0.070651	254.61	41556.5	0.066421	0.149835	1699.27	98085.7
690	2.000000	1.247226	7.37181e+06	-42589.1	1005.82	-29782.1	0.000000	0.000000	7.258160	268.685	NaN	0.000000	0.001694	0.001780	28.0823	74.0385	0.001778	41634.9	5.851568	-8.133349	266.991	1.246904	0.073528	0.073207	268.685	41634.9	0.068688	0.158793	1692.04	95458.5
690	2.000000	1.249603	7.37181e+06	-42589.1	1005.82	-29782.1	0.000000	0.000000	7.261097	282.305	NaN	0.000000	0.001699	0.001788	28.0817	75.3677	0.001773	42505	3.589299	173.672	277.446	1.249397	0.075906	0.075700	282.305	42505	0.070924	0.167869	1681.7	94782.5
690	2.000000	1.252165	7.37181e+06	-42589.1	1005.82	-29782.1	0.000000	0.000000	7.264371	299.642	NaN	0.000000	0.001699	0.001786	28.0807	79.2682	0.001737	45622.2	8.773061	-11.522	296.941	1.251782	0.078468	0.078084	299.642	45622.2	0.073542	0.178793	1675.91	98576.7
690	2.000000	1.254673	7.37181e+06	-42589.1	1005.82	-29782.1	0.000000	0.000000	7.267440	313.296	NaN	0.000000	0.001679	0.001800	28.0805	81.4035	0.001763	46181.1	0.891091	175.776	311.309	1.254492	0.080976	0.080795	313.296	46181.1	0.075888	0.188860	1658.88	97088.6
690	2.000000	1.257322	7.37181e+06	-42589.1	1005.82	-29782.1	0.000000	0.000000	7.270542	324.294	NaN	0.000000	0.001654	0.001793	28.081	85.0381	0.001810	46977.9	5.529331	-8.522765	328.716	1.256909	0.083625	0.083212	324.294	46977.9	0.078448	0.200140	1620.33	95940
690	2.000000	1.259669	7.37181e+06	-42589.1	1005.82	-29782.1	0.000000	0.000000	7.273715	344.396	NaN	0.000000	0.001745	0.001736	28.0806	87.6789	0.001868	46944.1	4.875574	172.024	342.799	1.259357	0.085972	0.085660	344.396	46944.1	0.080470	0.209266	1645.73	93757.4
690	2.000000	1.262162	7.37181e+06	-42589.1	1005.82	-29782.1	0.000000	0.000000	7.276741	357.383	NaN	0.000000	0.001730	0.001738	28.0807	89.0832	0.001694	52595.1	4.345490	-8.968734	353.239	1.261848	0.088465	0.088151	357.383	52595.1	0.083369	0.222681	1604.91	101830
690	2.000000	1.264724	7.37181e+06	-42589.1	1005.82	-29782.1	0.000000	0.000000	7.279978	373.784	NaN	0.000000	0.001775	0.001766	28.0808	92.9537	0.001916	48514.9	2.430981	173.944	374.97	1.264446	0.091027	0.090749	373.784	48514.9	0.085248	0.231588	1614	92106.4
690	2.000000	1.267271	7.37181e+06	-42589.1	1005.82	-29782.1	0.000000	0.000000	7.283447	396.23	NaN	0.000000	0.001780	0.001764	28.0803	94.4242	0.001724	54779.4	5.982127	-10.3534	397.584	1.266914	0.093574	0.093217	396.23	54779.4	0.088149	0.245651	1612.98	100979
690	2.000000	1.269615	7.37181e+06	-42589.1	1005.82	-29782.1	0.000000	0.000000	7.286682	417.894	NaN	0.000000	0.001775	0.001794	28.0802	96.0504	0.001701	56469.8	6.004702	168.715	413.193	1.269310	0.095918	0.095613	417.894	56469.8	0.090368	0.256671	1628.13	101836
690	2.000000	1.272125	7.37181e+06	-42589.1	1005.82	-29782.1	0.000000	0.000000	7.289882	434.711	NaN	0.000000	0.001667	0.001792	28.0802	97.9565	0.001685	58146.8	2.476061	-7.401455	428.587	1.271829	0.098428	0.098132	434.711	58146.8	0.092820	0.269115	1615.33	102407
690	2.000000	1.274648	7.37181e+06	-42589.1	1005.82	-29782.1	0.000000	0.000000	7.293016	449.569	NaN	0.000000	0.001684	0.001765	28.0805	101.77	0.001844	55182.5	3.931250	171.368	449.447	1.274477	0.100950	0.100780	449.569	55182.5	0.094840	0.279569	1608.08	95352.1
690	2.000000	1.277084	7.37181e+06	-42589.1	1005.82	-29782.1	0.000000	0.000000	7.296199	467.737	NaN	0.000000	0.001754	0.001747	28.0803	103.535	0.001897	54588	3.936490	-8.231479	461.903	1.276877	0.103386	0.103179	467.737	54588	0.096960	0.290740	1608.78	92494.9