File: remote_trans/data/nanoindenter/0828-1/data/Data_2025-08-06,11h17m57s/2025-07-22_16-23-58_1_714.txt
2025-07-22, 16:23:58, 1
Index	Phase	Displacement	Time	Pos X	Pos Y	Pos Z	Rot A	Rot B	Piezo Z	Force A	Force B	Gripper	Voltage A	Voltage B	Temperature	Amplitude force	Amplitude pos	Stiffness	Phase shift	Phase excitation	Force A raw	Displacement raw	HMax	HMax raw	Real Force	Real Stiffness	Contact Depth	Area	Hardness	Reduced Mod.
[#]	[#]	[um]	[s]	[um]	[um]	[um]	[m°]	[m°]	[um]	[uN]	[uN]	[V]	[V]	[V]	[°C]	[uN]	[um]	[N/m]	[°]	[°]	[uN]	[um]	[um]	[um]	[uN]	[N/m]	[um]	[um^2]	[MPa]	[MPa]
714	1.000000	0.002837	7.37204e+06	-41389.1	1005.82	-29786.3	0.000000	0.000000	6.002829	0.023096	NaN	0.000000	0.001680	0.001667	28.0824	0.031498	0.000916	34.3999	59.3393	-171.339	0.015745	0.001567	-1.146881	-1.148151	0.023096	34.3999	-1.147385	-2.166505E+15	-1.066053E-17	NaN
714	1.000000	0.012874	7.37204e+06	-41389.1	1005.82	-29786.3	0.000000	0.000000	6.012860	-0.118585	NaN	0.000000	0.001666	0.001633	28.0821	0.022460	0.001150	19.536	117.348	16.9936	-0.083095	0.011447	-1.136844	-1.138271	-0.118585	19.536	-1.132292	-1.359440E+15	8.723060E-17	NaN
714	1.000000	0.022775	7.37204e+06	-41389.1	1005.82	-29786.3	0.000000	0.000000	6.022764	-0.053309	NaN	0.000000	0.001620	0.001620	28.0821	0.032665	0.001678	19.4623	76.5831	-166.546	-0.074134	0.021423	-1.126943	-1.128295	-0.053309	19.4623	-1.124889	-1.081574E+15	4.928813E-17	NaN
714	1.000000	0.032776	7.37204e+06	-41389.1	1005.82	-29786.3	0.000000	0.000000	6.032766	-0.007514	NaN	0.000000	0.001614	0.001669	28.0824	0.092515	0.002053	45.0653	-111.485	12.9552	0.077616	0.031455	-1.116942	-1.118263	-0.007514	45.0653	-1.116817	-8.428901E+14	8.915152E-18	NaN
714	1.000000	0.042762	7.37204e+06	-41389.1	1005.82	-29786.3	0.000000	0.000000	6.042750	-0.077743	NaN	0.000000	0.001576	0.001692	28.0824	0.084359	0.002029	41.5714	54.4807	-167.58	-0.073196	0.041477	-1.106956	-1.108241	-0.077743	41.5714	-1.105554	-5.951365E+14	1.306310E-16	NaN
714	1.000000	0.052750	7.37204e+06	-41389.1	1005.82	-29786.3	0.000000	0.000000	6.052740	-0.047364	NaN	0.000000	0.001611	0.001614	28.0821	0.058161	0.001973	29.4805	16.9815	15.039	0.003795	0.051363	-1.096968	-1.098355	-0.047364	29.4805	-1.095763	-4.397299E+14	1.077113E-16	NaN
714	1.000000	0.062802	7.37204e+06	-41389.1	1005.82	-29786.3	0.000000	0.000000	6.062792	-0.045329	NaN	0.000000	0.001568	0.001654	28.0837	0.046696	0.002035	22.9456	-121.516	-162.574	-0.123149	0.061425	-1.086916	-1.088293	-0.045329	22.9456	-1.085434	-3.195195E+14	1.418655E-16	NaN
714	1.000000	0.072765	7.37204e+06	-41389.1	1005.82	-29786.3	0.000000	0.000000	6.072757	0.020901	NaN	0.000000	0.001598	0.001662	28.0836	0.054650	0.001841	29.6801	127.872	14.5484	0.020535	0.071401	-1.076953	-1.078317	0.020901	29.6801	-1.077482	-2.498579E+14	-8.365206E-17	NaN
714	1.000000	0.082768	7.37204e+06	-41389.1	1005.82	-29786.3	0.000000	0.000000	6.082759	-0.011657	NaN	0.000000	0.001623	0.001675	28.0844	0.093846	0.002009	46.7122	59.6036	-165.012	-0.010703	0.081552	-1.066950	-1.068166	-0.011657	46.7122	-1.066763	-1.793474E+14	6.499917E-17	NaN
714	1.000000	0.092758	7.37204e+06	-41389.1	1005.82	-29786.3	0.000000	0.000000	6.092749	-0.022788	NaN	0.000000	0.001573	0.001654	28.0833	0.047944	0.001898	25.2568	-159.767	15.6155	-0.020043	0.091464	-1.056960	-1.058254	-0.022788	25.2568	-1.056283	-1.296785E+14	1.757285E-16	NaN
714	1.000000	0.102753	7.37204e+06	-41389.1	1005.82	-29786.3	0.000000	0.000000	6.102742	-0.072663	NaN	0.000000	0.001617	0.001638	28.0832	0.074526	0.002076	35.8997	-134.52	-166.354	-0.066263	0.101479	-1.046965	-1.048239	-0.072663	35.8997	-1.045447	-9.272578E+13	7.836366E-16	NaN
714	1.000000	0.112793	7.37204e+06	-41389.1	1005.82	-29786.3	0.000000	0.000000	6.112782	-0.036216	NaN	0.000000	0.001572	0.001632	28.0835	0.020181	0.002004	10.0715	153.301	15.7241	0.013717	0.111462	-1.036925	-1.038256	-0.036216	10.0715	-1.034229	-6.551709E+13	5.527649E-16	NaN
714	1.000000	0.122781	7.37204e+06	-41389.1	1005.82	-29786.3	0.000000	0.000000	6.122772	-0.025549	NaN	0.000000	0.001628	0.001639	28.0834	0.050432	0.002025	24.9056	165.195	-163.696	0.022541	0.121452	-1.026937	-1.028266	-0.025549	24.9056	-1.026167	-5.104164E+13	5.005468E-16	NaN
714	1.000000	0.132793	7.37204e+06	-41389.1	1005.82	-29786.3	0.000000	0.000000	6.132782	-0.039665	NaN	0.000000	0.001617	0.001618	28.0833	0.041486	0.002014	20.6024	32.4352	15.0774	-0.040905	0.131379	-1.016925	-1.018339	-0.039665	20.6024	-1.015481	-3.665629E+13	1.082091E-15	NaN
714	1.000000	0.142819	7.37204e+06	-41389.1	1005.82	-29786.3	0.000000	0.000000	6.142810	-0.015035	NaN	0.000000	0.001592	0.001615	28.0832	0.090537	0.002005	45.15	-173.711	-169.401	0.035426	0.141492	-1.006899	-1.008226	-0.015035	45.15	-1.006649	-2.787936E+13	5.392872E-16	NaN
714	1.000000	0.152793	7.37204e+06	-41389.1	1005.82	-29786.3	0.000000	0.000000	6.152782	-0.060796	NaN	0.000000	0.001643	0.001624	28.0835	0.107631	0.002022	53.2216	42.6279	10.4532	-0.082030	0.151432	-0.996925	-0.998286	-0.060796	53.2216	-0.996068	-2.008314E+13	3.027201E-15	NaN
714	1.000000	0.162789	7.37204e+06	-41389.1	1005.82	-29786.3	0.000000	0.000000	6.162783	0.043904	NaN	0.000000	0.001607	0.001684	28.083	0.061363	0.001920	31.965	78.1143	-166.366	0.110378	0.161510	-0.986929	-0.988208	0.043904	31.965	-0.987959	-1.561778E+13	-2.811168E-15	NaN
714	1.000000	0.172838	7.37204e+06	-41389.1	1005.82	-29786.3	0.000000	0.000000	6.172828	-0.043142	NaN	0.000000	0.001654	0.001666	28.0831	0.030531	0.001936	15.7731	121.371	11.5317	-0.027226	0.171497	-0.976880	-0.978221	-0.043142	15.7731	-0.974828	-1.039267E+13	4.151198E-15	NaN
714	1.000000	0.182802	7.37204e+06	-41389.1	1005.82	-29786.3	0.000000	0.000000	6.182790	-0.071627	NaN	0.000000	0.001631	0.001657	28.0831	0.123968	0.002172	57.0687	99.1551	-165.397	-0.082617	0.181538	-0.966916	-0.968180	-0.071627	57.0687	-0.965975	-7.896116E+12	9.071184E-15	NaN
714	1.000000	0.192797	7.37204e+06	-41389.1	1005.82	-29786.3	0.000000	0.000000	6.192784	-0.100941	NaN	0.000000	0.001609	0.001668	28.0833	0.066457	0.002095	31.7192	14.6274	16.3008	-0.120591	0.191452	-0.956921	-0.958266	-0.100941	31.7192	-0.954534	-5.535709E+12	1.823446E-14	NaN
714	1.000000	0.202820	7.37204e+06	-41389.1	1005.82	-29786.3	0.000000	0.000000	6.202809	-0.052524	NaN	0.000000	0.001651	0.001654	28.0818	0.167178	0.001965	85.0582	-168.144	-169.743	-0.029515	0.201483	-0.946898	-0.948235	-0.052524	85.0582	-0.946435	-4.304749E+12	1.220135E-14	NaN
714	1.000000	0.212819	7.37204e+06	-41389.1	1005.82	-29786.3	0.000000	0.000000	6.212810	-0.013976	NaN	0.000000	0.001611	0.001657	28.0822	0.004396	0.002048	2.146394	-11.5748	11.5276	0.009441	0.211424	-0.936899	-0.938294	-0.013976	2.146394	-0.932016	-2.750417E+12	5.081380E-15	NaN
714	1.000000	0.222797	7.37204e+06	-41389.1	1005.82	-29786.3	0.000000	0.000000	6.222785	-0.074817	NaN	0.000000	0.001655	0.001642	28.0823	0.142490	0.001975	72.1593	75.9431	-165.117	-0.069090	0.221526	-0.926921	-0.928192	-0.074817	72.1593	-0.926143	-2.291614E+12	3.264804E-14	NaN
714	1.000000	0.232842	7.37204e+06	-41389.1	1005.82	-29786.3	0.000000	0.000000	6.232828	-0.118958	NaN	0.000000	0.001619	0.001643	28.0821	0.085364	0.001963	43.4869	-65.7288	15.6358	-0.054712	0.231494	-0.916876	-0.918224	-0.118958	43.4869	-0.914824	-1.611835E+12	7.380276E-14	NaN
714	1.000000	0.242825	7.37204e+06	-41389.1	1005.82	-29786.3	0.000000	0.000000	6.242815	-0.051697	NaN	0.000000	0.001636	0.001648	28.082	0.096982	0.001998	48.5384	-126.327	-164.455	-0.013751	0.241520	-0.906893	-0.908198	-0.051697	48.5384	-0.906094	-1.228566E+12	4.207924E-14	NaN
714	1.000000	0.252824	7.37204e+06	-41389.1	1005.82	-29786.3	0.000000	0.000000	6.252810	-0.131689	NaN	0.000000	0.001639	0.001650	28.0819	0.018544	0.002101	8.825941	38.6129	14.2767	-0.122912	0.251495	-0.896894	-0.898223	-0.131689	8.825941	-0.885704	-6.513756E+11	2.021708E-13	NaN
714	1.000000	0.262892	7.37204e+06	-41389.1	1005.82	-29786.3	0.000000	0.000000	6.262878	-0.118756	NaN	0.000000	0.001616	0.001663	28.0823	0.016895	0.002040	8.283282	94.3118	-161.65	-0.047567	0.261542	-0.886826	-0.888176	-0.118756	8.283282	-0.876074	-4.826224E+11	2.460651E-13	NaN
714	1.000000	0.272864	7.37204e+06	-41389.1	1005.82	-29786.3	0.000000	0.000000	6.272854	-0.040364	NaN	0.000000	0.001642	0.001651	28.082	0.074194	0.001959	37.8744	118.612	14.2516	-0.096486	0.271473	-0.876854	-0.878245	-0.040364	37.8744	-0.876055	-4.823355E+11	8.368511E-14	NaN
714	1.000000	0.282846	7.37204e+06	-41389.1	1005.82	-29786.3	0.000000	0.000000	6.282834	-0.086394	NaN	0.000000	0.001604	0.001679	28.0819	0.059968	0.001969	30.4502	9.927325	-166.753	-0.100296	0.281491	-0.866872	-0.868227	-0.086394	30.4502	-0.864744	-3.390989E+11	2.547738E-13	NaN
714	1.000000	0.292856	7.37204e+06	-41389.1	1005.82	-29786.3	0.000000	0.000000	6.292846	-0.026547	NaN	0.000000	0.001598	0.001666	28.0823	0.047147	0.002059	22.895	117.336	12.4256	-0.040361	0.291507	-0.856862	-0.858211	-0.026547	22.895	-0.855992	-2.581493E+11	1.028376E-13	NaN
714	1.000000	0.302863	7.37204e+06	-41389.1	1005.82	-29786.3	0.000000	0.000000	6.302851	-0.088740	NaN	0.000000	0.001601	0.001666	28.0821	0.054762	0.002116	25.8787	-139.436	-168.242	-0.077873	0.301600	-0.846855	-0.848118	-0.088740	25.8787	-0.844283	-1.791907E+11	4.952277E-13	NaN
714	1.000000	0.312869	7.37204e+06	-41389.1	1005.82	-29786.3	0.000000	0.000000	6.312862	0.034044	NaN	0.000000	0.001645	0.001695	28.0822	0.032447	0.002037	15.9278	111.211	14.4709	-0.021664	0.311506	-0.836849	-0.838212	0.034044	15.9278	-0.838452	-1.493908E+11	-2.278885E-13	NaN
714	1.000000	0.322866	7.37204e+06	-41389.1	1005.82	-29786.3	0.000000	0.000000	6.322857	-0.007104	NaN	0.000000	0.001590	0.001669	28.0821	0.085510	0.002007	42.6036	-176.873	-164.401	-0.029349	0.321562	-0.826852	-0.828156	-0.007104	42.6036	-0.826727	-1.036151E+11	6.855979E-14	NaN
714	1.000000	0.332874	7.37204e+06	-41389.1	1005.82	-29786.3	0.000000	0.000000	6.332866	0.013395	NaN	0.000000	0.001614	0.001687	28.0823	0.143370	0.002014	71.1927	75.0135	15.3377	-0.012099	0.331514	-0.816844	-0.818204	0.013395	71.1927	-0.816985	-7.643976E+10	-1.752383E-13	NaN
714	1.000000	0.342902	7.37204e+06	-41389.1	1005.82	-29786.3	0.000000	0.000000	6.342891	-0.064477	NaN	0.000000	0.001580	0.001699	28.0833	0.135277	0.001972	68.5968	102.077	-163.27	-0.057464	0.341543	-0.806816	-0.808175	-0.064477	68.5968	-0.806111	-5.442575E+10	1.184678E-12	NaN
714	1.000000	0.352885	7.37204e+06	-41389.1	1005.82	-29786.3	0.000000	0.000000	6.352873	-0.064494	NaN	0.000000	0.001623	0.001654	28.0835	0.039116	0.002183	17.9164	46.5226	14.7195	-0.122878	0.351534	-0.796833	-0.798184	-0.064494	17.9164	-0.794134	-3.742986E+10	1.723069E-12	NaN
714	1.000000	0.362900	7.37204e+06	-41389.1	1005.82	-29786.3	0.000000	0.000000	6.362890	-0.032435	NaN	0.000000	0.001588	0.001666	28.0837	0.027574	0.001977	13.9454	-23.4374	-164.982	-0.022117	0.361577	-0.786818	-0.788141	-0.032435	13.9454	-0.785074	-2.819460E+10	1.150380E-12	NaN
714	1.000000	0.372886	7.37204e+06	-41389.1	1005.82	-29786.3	0.000000	0.000000	6.372876	-0.036738	NaN	0.000000	0.001585	0.001648	28.0837	0.060382	0.001977	30.5376	43.5639	15.5732	-0.028611	0.371546	-0.776832	-0.778172	-0.036738	30.5376	-0.775929	-2.117928E+10	1.734636E-12	NaN
714	1.000000	0.382903	7.37204e+06	-41389.1	1005.82	-29786.3	0.000000	0.000000	6.382891	-0.061097	NaN	0.000000	0.001631	0.001678	28.0835	0.049637	0.002037	24.3691	-173.302	-164.129	-0.041466	0.381610	-0.766815	-0.768108	-0.061097	24.3691	-0.764935	-1.501170E+10	4.069932E-12	NaN
714	1.000000	0.392925	7.37204e+06	-41389.1	1005.82	-29786.3	0.000000	0.000000	6.392917	0.001535	NaN	0.000000	0.001637	0.001664	28.0834	0.142473	0.001986	71.7312	-157.222	16.0294	-0.041349	0.391536	-0.756793	-0.758182	0.001535	71.7312	-0.756809	-1.163808E+10	-1.318759E-13	NaN
714	1.000000	0.402899	7.37204e+06	-41389.1	1005.82	-29786.3	0.000000	0.000000	6.402890	0.011884	NaN	0.000000	0.001608	0.001673	28.0841	0.060313	0.002162	27.902	-75.0985	-166.022	-0.082095	0.401635	-0.746819	-0.748083	0.011884	27.902	-0.747139	-8.595486E+9	-1.382610E-12	NaN
714	1.000000	0.412903	7.37204e+06	-41389.1	1005.82	-29786.3	0.000000	0.000000	6.412889	-0.123678	NaN	0.000000	0.001607	0.001700	28.0834	0.056724	0.002074	27.3467	148.002	11.9713	0.004580	0.411568	-0.736815	-0.738150	-0.123678	27.3467	-0.733423	-5.590555E+9	2.212263E-11	NaN
714	1.000000	0.422898	7.37204e+06	-41389.1	1005.82	-29786.3	0.000000	0.000000	6.422887	-0.037328	NaN	0.000000	0.001588	0.001714	28.0834	0.065756	0.002096	31.3779	-149.022	-164.687	-0.060241	0.421589	-0.726820	-0.728129	-0.037328	31.3779	-0.725928	-4.418815E+9	8.447541E-12	NaN
714	1.000000	0.432899	7.37204e+06	-41389.1	1005.82	-29786.3	0.000000	0.000000	6.432891	0.016712	NaN	0.000000	0.001589	0.001690	28.0835	0.086727	0.002041	42.5022	-56.7701	17.3584	-0.041721	0.431559	-0.716819	-0.718159	0.016712	42.5022	-0.717114	-3.350465E+9	-4.988106E-12	NaN
714	1.000000	0.442921	7.37204e+06	-41389.1	1005.82	-29786.3	0.000000	0.000000	6.442910	-0.054330	NaN	0.000000	0.001616	0.001690	28.0838	0.049510	0.001828	27.0815	-46.4667	-166.84	0.019943	0.441652	-0.706797	-0.708066	-0.054330	27.0815	-0.705293	-2.310991E+9	2.350952E-11	NaN
714	1.000000	0.452960	7.37204e+06	-41389.1	1005.82	-29786.3	0.000000	0.000000	6.452947	-0.109544	NaN	0.000000	0.001649	0.001658	28.0828	0.065788	0.001884	34.922	82.0755	13.6881	-0.050535	0.451558	-0.696758	-0.698160	-0.109544	34.922	-0.694405	-1.641003E+9	6.675417E-11	NaN
714	1.000000	0.462925	7.37204e+06	-41389.1	1005.82	-29786.3	0.000000	0.000000	6.462912	-0.103679	NaN	0.000000	0.001625	0.001702	28.0833	0.053975	0.002040	26.4605	102.988	-166.993	-0.092174	0.461633	-0.686793	-0.688085	-0.103679	26.4605	-0.683854	-1.177361E+9	8.806012E-11	NaN
714	1.000000	0.472950	7.37204e+06	-41389.1	1005.82	-29786.3	0.000000	0.000000	6.472939	-0.043745	NaN	0.000000	0.001618	0.001662	28.0821	0.018825	0.002058	9.149355	86.8776	14.6366	-0.047472	0.471593	-0.676768	-0.678125	-0.043745	9.149355	-0.673182	-8.412803E+8	5.199871E-11	NaN
714	1.000000	0.482941	7.37204e+06	-41389.1	1005.82	-29786.3	0.000000	0.000000	6.482927	-0.134594	NaN	0.000000	0.001647	0.001688	28.0822	0.051569	0.001926	26.7818	20.0321	-168.12	-0.036591	0.481621	-0.666777	-0.668097	-0.134594	26.7818	-0.663008	-6.104658E+8	2.204768E-10	NaN
714	1.000000	0.492966	7.37204e+06	-41389.1	1005.82	-29786.3	0.000000	0.000000	6.492956	-0.029262	NaN	0.000000	0.001686	0.001689	28.082	0.112655	0.002105	53.51	-157.015	13.1031	-0.002811	0.491608	-0.656752	-0.658110	-0.029262	53.51	-0.656342	-4.947192E+8	5.914833E-11	NaN
714	1.000000	0.502943	7.37204e+06	-41389.1	1005.82	-29786.3	0.000000	0.000000	6.502934	-0.008039	NaN	0.000000	0.001677	0.001685	28.0821	0.084499	0.001953	43.2727	91.5366	-164.39	-0.055321	0.501633	-0.646775	-0.648085	-0.008039	43.2727	-0.646635	-3.641712E+8	2.207358E-11	NaN
714	1.000000	0.512950	7.37204e+06	-41389.1	1005.82	-29786.3	0.000000	0.000000	6.512940	-0.017112	NaN	0.000000	0.001712	0.001660	28.0817	0.086140	0.002044	42.1357	84.0834	16.8687	0.008726	0.511640	-0.636768	-0.638078	-0.017112	42.1357	-0.636464	-2.640963E+8	6.479397E-11	NaN
714	1.000000	0.522964	7.37204e+06	-41389.1	1005.82	-29786.3	0.000000	0.000000	6.522952	-0.079651	NaN	0.000000	0.001680	0.001687	28.082	0.181061	0.001982	91.3354	-54.6508	-166.886	-0.019107	0.521630	-0.626754	-0.628088	-0.079651	91.3354	-0.626100	-1.903059E+8	4.185439E-10	NaN
714	1.000000	0.532951	7.37204e+06	-41389.1	1005.82	-29786.3	0.000000	0.000000	6.532941	-0.029666	NaN	0.000000	0.001612	0.001701	28.082	0.160369	0.001901	84.3628	63.9738	14.8507	-0.041431	0.531602	-0.616767	-0.618116	-0.029666	84.3628	-0.616504	-1.404651E+8	2.111971E-10	NaN
714	1.000000	0.542981	7.37204e+06	-41389.1	1005.82	-29786.3	0.000000	0.000000	6.542971	-0.016378	NaN	0.000000	0.001628	0.001696	28.0822	0.091954	0.001977	46.5092	124.759	-164.642	-0.065988	0.541644	-0.606737	-0.608074	-0.016378	46.5092	-0.606473	-1.022306E+8	1.602069E-10	NaN
714	1.000000	0.552974	7.37204e+06	-41389.1	1005.82	-29786.3	0.000000	0.000000	6.552961	-0.082183	NaN	0.000000	0.001637	0.001713	28.0825	0.068725	0.002041	33.6668	121.505	11.9356	-0.133621	0.551576	-0.596744	-0.598142	-0.082183	33.6668	-0.594914	-7.085835E+7	1.159826E-9	NaN
714	1.000000	0.562983	7.37204e+06	-41389.1	1005.82	-29786.3	0.000000	0.000000	6.562975	0.002428	NaN	0.000000	0.001647	0.001635	28.0821	0.076948	0.001939	39.6814	176.438	-165.187	-0.055997	0.561681	-0.586735	-0.588037	0.002428	39.6814	-0.586780	-5.473582E+7	-4.436088E-11	NaN
714	1.000000	0.573005	7.37204e+06	-41389.1	1005.82	-29786.3	0.000000	0.000000	6.572995	-0.031764	NaN	0.000000	0.001677	0.001694	28.0822	0.016240	0.002072	7.838803	144.935	14.9309	0.057572	0.571650	-0.576713	-0.578068	-0.031764	7.838803	-0.573674	-3.608968E+7	8.801448E-10	NaN
714	1.000000	0.582968	7.37204e+06	-41389.1	1005.82	-29786.3	0.000000	0.000000	6.582958	-0.042080	NaN	0.000000	0.001663	0.001682	28.0823	0.098874	0.001898	52.0952	-76.5835	-168.571	-0.030371	0.581688	-0.566750	-0.568030	-0.042080	52.0952	-0.566144	-2.840128E+7	1.481624E-9	NaN
714	1.000000	0.592999	7.37204e+06	-41389.1	1005.82	-29786.3	0.000000	0.000000	6.592989	-0.047854	NaN	0.000000	0.001653	0.001682	28.0823	0.018753	0.001878	9.983998	-163.785	13.8206	-0.013749	0.591617	-0.556719	-0.558101	-0.047854	9.983998	-0.553124	-1.875932E+7	2.550927E-9	NaN
714	1.000000	0.603003	7.37204e+06	-41389.1	1005.82	-29786.3	0.000000	0.000000	6.602991	-0.079708	NaN	0.000000	0.001650	0.001674	28.0822	0.073091	0.002107	34.6825	-158.387	-166.183	-0.083515	0.601734	-0.546715	-0.547984	-0.079708	34.6825	-0.544991	-1.447292E+7	5.507373E-9	NaN
714	1.000000	0.613010	7.37204e+06	-41389.1	1005.82	-29786.3	0.000000	0.000000	6.612997	-0.092461	NaN	0.000000	0.001659	0.001664	28.0837	0.058969	0.002176	27.1031	-106.319	17.0886	-0.065343	0.611594	-0.536708	-0.538124	-0.092461	27.1031	-0.534150	-1.023745E+7	9.031623E-9	NaN
714	1.000000	0.622996	7.37204e+06	-41389.1	1005.82	-29786.3	0.000000	0.000000	6.622985	-0.045471	NaN	0.000000	0.001666	0.001683	28.0837	0.068458	0.002080	32.9129	96.1794	-164.394	-0.018861	0.621745	-0.526722	-0.527973	-0.045471	32.9129	-0.525686	-7.80983e+06	5.822325E-9	NaN
714	1.000000	0.633009	7.37204e+06	-41389.1	1005.82	-29786.3	0.000000	0.000000	6.632998	-0.044784	NaN	0.000000	0.001642	0.001704	28.0838	0.126606	0.002034	62.2592	-48.0903	17.3773	-0.050692	0.631627	-0.516709	-0.518091	-0.044784	62.2592	-0.516169	-5.75849e+06	7.777104E-9	NaN
714	1.000000	0.643004	7.37204e+06	-41389.1	1005.82	-29786.3	0.000000	0.000000	6.642994	-0.032050	NaN	0.000000	0.001663	0.001658	28.0836	0.065046	0.002095	31.047	-144.148	-166.595	-0.072257	0.641688	-0.506714	-0.508030	-0.032050	31.047	-0.505940	-4.14802e+06	7.726634E-9	NaN
714	1.000000	0.653003	7.37204e+06	-41389.1	1005.82	-29786.3	0.000000	0.000000	6.652993	-0.043725	NaN	0.000000	0.001591	0.001661	28.0838	0.108180	0.001864	58.0416	-167.785	13.1405	-0.059202	0.651643	-0.496715	-0.498075	-0.043725	58.0416	-0.496150	-3.02892e+06	1.443574E-8	NaN
714	1.000000	0.663037	7.37204e+06	-41389.1	1005.82	-29786.3	0.000000	0.000000	6.663028	-0.019902	NaN	0.000000	0.001625	0.001709	28.0835	0.035516	0.001982	17.9151	-128.681	-171.289	0.083481	0.661738	-0.486681	-0.487980	-0.019902	17.9151	-0.485848	-2.17443e+06	9.152733E-9	NaN
714	1.000000	0.673022	7.37204e+06	-41389.1	1005.82	-29786.3	0.000000	0.000000	6.673012	-0.028969	NaN	0.000000	0.001590	0.001660	28.0836	0.055763	0.002034	27.4125	139.475	14.5067	-0.101266	0.671684	-0.476696	-0.478034	-0.028969	27.4125	-0.475904	-1.57819e+06	1.835589E-8	NaN
714	1.000000	0.682983	7.37204e+06	-41389.1	1005.82	-29786.3	0.000000	0.000000	6.682969	-0.124930	NaN	0.000000	0.001613	0.001655	28.0834	0.078962	0.001844	42.8299	90.5134	-167.061	-0.034340	0.681759	-0.466735	-0.467959	-0.124930	42.8299	-0.464547	-1.09369e+06	1.142280E-7	NaN
714	1.000000	0.693051	7.37204e+06	-41389.1	1005.82	-29786.3	0.000000	0.000000	6.693039	-0.059593	NaN	0.000000	0.001579	0.001622	28.0838	0.018206	0.002106	8.646010	120.145	12.4943	-0.039543	0.691669	-0.456668	-0.458049	-0.059593	8.646010	-0.451498	-716864	8.312978E-8	NaN
714	1.000000	0.703043	7.37204e+06	-41389.1	1005.82	-29786.3	0.000000	0.000000	6.703031	-0.069063	NaN	0.000000	0.001617	0.001681	28.0834	0.056679	0.002046	27.6995	-14.1416	-169.545	0.058734	0.701685	-0.446675	-0.448033	-0.069063	27.6995	-0.444805	-576957	1.197027E-7	NaN
714	1.000000	0.713033	7.37204e+06	-41389.1	1005.82	-29786.3	0.000000	0.000000	6.713023	-0.030223	NaN	0.000000	0.001632	0.001668	28.0834	0.103117	0.002091	49.3126	86.1117	14.1146	-0.044052	0.711666	-0.436685	-0.438052	-0.030223	49.3126	-0.436225	-436582	6.922575E-8	NaN
714	1.000000	0.723035	7.37204e+06	-41389.1	1005.82	-29786.3	0.000000	0.000000	6.723025	-0.018966	NaN	0.000000	0.001637	0.001662	28.0832	0.136125	0.001956	69.5987	-94.2939	-161.778	-0.033213	0.721739	-0.426683	-0.427979	-0.018966	69.5987	-0.426479	-317852	5.966921E-8	NaN
714	1.000000	0.733042	7.37204e+06	-41389.1	1005.82	-29786.3	0.000000	0.000000	6.733032	-0.023181	NaN	0.000000	0.001596	0.001653	28.0836	0.063590	0.001964	32.3857	-151.943	15.1271	-0.060600	0.731676	-0.416676	-0.418042	-0.023181	32.3857	-0.416139	-226794	1.022123E-7	NaN
714	1.000000	0.743061	7.37204e+06	-41389.1	1005.82	-29786.3	0.000000	0.000000	6.743050	-0.056549	NaN	0.000000	0.001607	0.001653	28.0831	0.036465	0.001961	18.5966	-146.506	-164.899	-0.063023	0.741758	-0.406657	-0.407960	-0.056549	18.5966	-0.404376	-154301	3.664835E-7	NaN
714	1.000000	0.753086	7.37204e+06	-41389.1	1005.82	-29786.3	0.000000	0.000000	6.753075	-0.047548	NaN	0.000000	0.001611	0.001665	28.0819	0.141690	0.002020	70.1547	48.3525	10.7699	-0.079838	0.751712	-0.396632	-0.398006	-0.047548	70.1547	-0.396124	-117674	4.040625E-7	NaN
714	1.000000	0.763079	7.37204e+06	-41389.1	1005.82	-29786.3	0.000000	0.000000	6.763069	-0.018446	NaN	0.000000	0.001610	0.001636	28.0822	0.055209	0.002119	26.0563	149.698	-165.625	0.001613	0.761762	-0.386639	-0.387956	-0.018446	26.0563	-0.386108	-84617.7	2.179963E-7	NaN
714	1.000000	0.773075	7.37204e+06	-41389.1	1005.82	-29786.3	0.000000	0.000000	6.773061	-0.119911	NaN	0.000000	0.001588	0.001656	28.0822	0.068681	0.001881	36.5174	40.0479	13.2202	-0.043415	0.771713	-0.376644	-0.378005	-0.119911	36.5174	-0.374181	-57054.8	2.101678E-6	NaN
714	1.000000	0.783098	7.37204e+06	-41389.1	1005.82	-29786.3	0.000000	0.000000	6.783087	-0.057070	NaN	0.000000	0.001571	0.001655	28.0824	0.049988	0.001895	26.3763	-140.314	-161.806	-0.064328	0.781723	-0.366620	-0.367995	-0.057070	26.3763	-0.364997	-42073.4	1.356451E-6	NaN
714	1.000000	0.793069	7.37204e+06	-41389.1	1005.82	-29786.3	0.000000	0.000000	6.793057	-0.087336	NaN	0.000000	0.001609	0.001669	28.0821	0.041668	0.002110	19.7487	150.798	12.0899	-0.051547	0.791718	-0.356649	-0.358000	-0.087336	19.7487	-0.353332	-28532.2	3.060964E-6	NaN
714	1.000000	0.803051	7.37204e+06	-41389.1	1005.82	-29786.3	0.000000	0.000000	6.803041	-0.037348	NaN	0.000000	0.001599	0.001686	28.0824	0.135032	0.002012	67.1281	161.176	-164.402	0.052142	0.801748	-0.346667	-0.347970	-0.037348	67.1281	-0.346250	-22517.8	1.658600E-6	NaN
714	1.000000	0.813083	7.37204e+06	-41389.1	1005.82	-29786.3	0.000000	0.000000	6.813074	-0.014092	NaN	0.000000	0.001614	0.001649	28.0822	0.063954	0.001952	32.7714	121.564	13.1652	0.022378	0.811691	-0.336635	-0.338027	-0.014092	32.7714	-0.336312	-16134.4	8.734399E-7	NaN
714	1.000000	0.823102	7.37204e+06	-41389.1	1005.82	-29786.3	0.000000	0.000000	6.823090	-0.071410	NaN	0.000000	0.001590	0.001649	28.0822	0.030730	0.002011	15.2816	150.979	-164.53	-0.054463	0.821797	-0.326616	-0.327921	-0.071410	15.2816	-0.323111	-10337.1	6.908175E-6	NaN
714	1.000000	0.833070	7.37204e+06	-41389.1	1005.82	-29786.3	0.000000	0.000000	6.833061	0.002531	NaN	0.000000	0.001605	0.001667	28.0821	0.098821	0.001915	51.6073	-108.845	16.6845	-0.003990	0.831765	-0.316648	-0.317953	0.002531	51.6073	-0.316685	-8313.91	-3.044380E-7	NaN
714	1.000000	0.843080	7.37204e+06	-41389.1	1005.82	-29786.3	0.000000	0.000000	6.843071	0.002397	NaN	0.000000	0.001590	0.001645	28.0821	0.033823	0.001934	17.4865	28.0938	-170.434	-0.058042	0.841818	-0.306638	-0.307900	0.002397	17.4865	-0.306741	-5926.3	-4.044867E-7	NaN
714	1.000000	0.853061	7.37204e+06	-41389.1	1005.82	-29786.3	0.000000	0.000000	6.853049	-0.090925	NaN	0.000000	0.001574	0.001630	28.0816	0.035492	0.001955	18.1527	-69.3806	11.0501	-0.099230	0.851714	-0.296657	-0.298004	-0.090925	18.1527	-0.292900	-3687.3	2.465906E-5	NaN
714	1.000000	0.863107	7.37204e+06	-41389.1	1005.82	-29786.3	0.000000	0.000000	6.863099	-0.005220	NaN	0.000000	0.001583	0.001638	28.082	0.120019	0.001957	61.3174	137.247	-163.811	-0.038340	0.861770	-0.286611	-0.287948	-0.005220	61.3174	-0.286547	-2961.46	1.762721E-6	NaN
714	1.000000	0.873099	7.37204e+06	-41389.1	1005.82	-29786.3	0.000000	0.000000	6.873088	-0.052627	NaN	0.000000	0.001576	0.001652	28.0823	0.094581	0.002074	45.6098	35.1652	13.5826	-0.086766	0.871720	-0.276619	-0.277998	-0.052627	45.6098	-0.275754	-2036.17	2.584602E-5	NaN
714	1.000000	0.883093	7.37204e+06	-41389.1	1005.82	-29786.3	0.000000	0.000000	6.883085	0.031477	NaN	0.000000	0.001576	0.001634	28.0833	0.048336	0.002086	23.176	-16.5003	-165.505	0.024160	0.881777	-0.266625	-0.267941	0.031477	23.176	-0.267644	-1533.54	-2.052601E-5	NaN
714	1.000000	0.893092	7.37204e+06	-41389.1	1005.82	-29786.3	0.000000	0.000000	6.893081	-0.049943	NaN	0.000000	0.001568	0.001615	28.0843	0.046837	0.002066	22.6648	146.788	13.8504	-0.064727	0.891680	-0.256626	-0.258039	-0.049943	22.6648	-0.254974	-981.093	5.090517E-5	NaN
714	1.000000	0.903090	7.37204e+06	-41389.1	1005.82	-29786.3	0.000000	0.000000	6.903080	-0.024660	NaN	0.000000	0.001568	0.001646	28.0835	0.010672	0.002016	5.294662	62.8623	-166.405	-0.053809	0.901795	-0.246628	-0.247923	-0.024660	5.294662	-0.243135	-643.334	3.833113E-5	NaN
714	1.000000	0.913111	7.37204e+06	-41389.1	1005.82	-29786.3	0.000000	0.000000	6.913099	-0.081330	NaN	0.000000	0.001566	0.001637	28.0835	0.058423	0.001923	30.377	0.418047	12.5867	-0.012213	0.911792	-0.236607	-0.237927	-0.081330	30.377	-0.234599	-473.089	0.000172	NaN
714	1.000000	0.923141	7.37204e+06	-41389.1	1005.82	-29786.3	0.000000	0.000000	6.923133	0.006781	NaN	0.000000	0.001542	0.001633	28.0834	0.094417	0.002066	45.7008	18.0546	-168.698	0.015435	0.921824	-0.226577	-0.227894	0.006781	45.7008	-0.226688	-354.912	-1.910479E-5	NaN
714	1.000000	0.933112	7.37204e+06	-41389.1	1005.82	-29786.3	0.000000	0.000000	6.933102	-0.036954	NaN	0.000000	0.001555	0.001617	28.0833	0.049771	0.002024	24.5963	-113.504	17.3696	-0.020321	0.931744	-0.216606	-0.217974	-0.036954	24.5963	-0.215479	-235.081	0.000157	NaN
714	1.000000	0.943137	7.37204e+06	-41389.1	1005.82	-29786.3	0.000000	0.000000	6.943125	-0.071387	NaN	0.000000	0.001557	0.001637	28.0838	0.110044	0.002057	53.5098	33.0538	-166.133	-0.078031	0.941789	-0.206581	-0.207929	-0.071387	53.5098	-0.205581	-162.564	0.000439	NaN
714	1.000000	0.953122	7.37204e+06	-41389.1	1005.82	-29786.3	0.000000	0.000000	6.953111	-0.046843	NaN	0.000000	0.001545	0.001693	28.0832	0.082738	0.002063	40.1091	83.7617	13.3922	0.009709	0.951785	-0.196596	-0.197933	-0.046843	40.1091	-0.195721	-111.978	0.000418	NaN
714	1.000000	0.963121	7.37204e+06	-41389.1	1005.82	-29786.3	0.000000	0.000000	6.963110	-0.064019	NaN	0.000000	0.001538	0.001696	28.0835	0.073488	0.002035	36.1183	-140.75	-166.603	0.098283	0.961873	-0.186597	-0.187845	-0.064019	36.1183	-0.185268	-74.9279	0.000854	NaN
714	1.000000	0.973156	7.37204e+06	-41389.1	1005.82	-29786.3	0.000000	0.000000	6.973149	0.037936	NaN	0.000000	0.001554	0.001671	28.0833	0.134108	0.001940	69.1201	-154.956	15.153	-0.044371	0.971747	-0.176562	-0.177971	0.037936	69.1201	-0.176973	-54.1777	-0.000700	NaN
714	1.000000	0.983125	7.37204e+06	-41389.1	1005.82	-29786.3	0.000000	0.000000	6.983116	-0.002567	NaN	0.000000	0.001577	0.001651	28.0837	0.030717	0.002048	14.9952	156.676	-165.06	-0.002969	0.981817	-0.166593	-0.167901	-0.002567	14.9952	-0.166465	-35.6437	7.201557E-5	NaN
714	1.000000	0.993133	7.37204e+06	-41389.1	1005.82	-29786.3	0.000000	0.000000	6.993121	-0.074915	NaN	0.000000	0.001588	0.001669	28.0834	0.089221	0.001954	45.6654	-124.57	12.879	-0.065385	0.991831	-0.156585	-0.157887	-0.074915	45.6654	-0.155354	-22.6442	0.003308	NaN
714	1.000000	1.003135	7.37204e+06	-41389.1	1005.82	-29786.3	0.000000	0.000000	7.003124	-0.054827	NaN	0.000000	0.001577	0.001647	28.0835	0.071729	0.002016	35.5807	-50.2884	-165.298	-0.049771	1.001869	-0.146583	-0.147849	-0.054827	35.5807	-0.145427	-14.9303	0.003672	NaN
714	1.000000	1.013161	7.37204e+06	-41389.1	1005.82	-29786.3	0.000000	0.000000	7.013151	-0.013685	NaN	0.000000	0.001572	0.001652	28.0835	0.100305	0.001827	54.8918	-92.7008	15.4753	-0.002983	1.011805	-0.136557	-0.137913	-0.013685	54.8918	-0.136370	-10.1016	0.001355	NaN
714	1.000000	1.023159	7.37204e+06	-41389.1	1005.82	-29786.3	0.000000	0.000000	7.023147	-0.080476	NaN	0.000000	0.001595	0.001737	28.0825	0.006519	0.002052	3.176450	21.3794	-166.793	-0.014607	1.021918	-0.126559	-0.127800	-0.080476	3.176450	-0.107558	-2.667350	0.030171	NaN
714	1.000000	1.033151	7.37204e+06	-41389.1	1005.82	-29786.3	0.000000	0.000000	7.033140	-0.036889	NaN	0.000000	0.001600	0.001752	28.0825	0.054168	0.002104	25.7474	173.767	12.5685	-0.008540	1.031813	-0.116567	-0.117905	-0.036889	25.7474	-0.115493	-3.910697	0.009433	NaN
714	1.000000	1.043189	7.37204e+06	-41389.1	1005.82	-29786.3	0.000000	0.000000	7.043178	-0.051742	NaN	0.000000	0.001581	0.001756	28.0823	0.065437	0.001898	34.4787	141.835	-166.162	-0.003675	1.041844	-0.106529	-0.107874	-0.051742	34.4787	-0.105404	-2.398225	0.021575	NaN
714	1.000000	1.053176	7.37204e+06	-41389.1	1005.82	-29786.3	0.000000	0.000000	7.053166	-0.034715	NaN	0.000000	0.001607	0.001719	28.0825	0.200717	0.002002	100.243	3.845376	14.1517	-0.026142	1.051832	-0.096542	-0.097886	-0.034715	100.243	-0.096282	-1.508435	0.023014	NaN
714	1.000000	1.063188	7.37204e+06	-41389.1	1005.82	-29786.3	0.000000	0.000000	7.063180	0.011230	NaN	0.000000	0.001563	0.001727	28.0823	0.074892	0.001931	38.7904	158.401	-167.75	0.032821	1.061882	-0.086530	-0.087836	0.011230	38.7904	-0.086747	-0.905172	-0.012407	NaN
714	1.000000	1.073214	7.37204e+06	-41389.1	1005.82	-29786.3	0.000000	0.000000	7.073204	-0.011162	NaN	0.000000	0.001626	0.001699	28.0821	0.071533	0.002102	34.0379	-110.654	10.1604	0.017195	1.071860	-0.076504	-0.077858	-0.011162	34.0379	-0.076258	-0.497663	0.022429	NaN
714	1.000000	1.083167	7.37204e+06	-41389.1	1005.82	-29786.3	0.000000	0.000000	7.083158	-0.012384	NaN	0.000000	0.001570	0.001698	28.0823	0.087162	0.001808	48.2104	-44.5558	-167.739	-0.007202	1.081865	-0.066551	-0.067853	-0.012384	48.2104	-0.066359	-0.271699	0.045581	NaN
714	1.000000	1.093182	7.37204e+06	-41389.1	1005.82	-29786.3	0.000000	0.000000	7.093172	-0.037098	NaN	0.000000	0.001595	0.001735	28.0822	0.074878	0.001955	38.2976	49.2836	8.480875	-0.063847	1.091845	-0.056536	-0.057873	-0.037098	38.2976	-0.055809	-0.136052	0.272674	NaN
714	1.000000	1.103185	7.37204e+06	-41389.1	1005.82	-29786.3	0.000000	0.000000	7.103176	-0.002804	NaN	0.000000	0.001546	0.001742	28.0822	0.039981	0.002104	19.0033	-91.8855	-168.342	0.026773	1.101912	-0.046533	-0.047806	-0.002804	19.0033	-0.046423	-0.071035	0.039470	NaN
714	1.000000	1.113215	7.37204e+06	-41389.1	1005.82	-29786.3	0.000000	0.000000	7.113203	-0.095017	NaN	0.000000	0.001571	0.001724	28.0822	0.110385	0.002122	52.0087	78.8878	14.1013	-0.006238	1.111808	-0.036503	-0.037910	-0.095017	52.0087	-0.035132	-0.032313	2.940488	NaN
714	1.000000	1.123195	7.37204e+06	-41389.1	1005.82	-29786.3	0.000000	0.000000	7.123186	-0.021227	NaN	0.000000	0.001600	0.001729	28.0821	0.118949	0.001823	65.2629	-102.511	-166.008	-0.011984	1.121881	-0.026523	-0.027837	-0.021227	65.2629	-0.026279	-0.018230	1.164398	NaN
714	1.000000	1.133210	7.37204e+06	-41389.1	1005.82	-29786.3	0.000000	0.000000	7.133201	0.007689	NaN	0.000000	0.001614	0.001725	28.0821	0.188618	0.001961	96.183	-115.9	13.7432	0.022804	1.131818	-0.016508	-0.017900	0.007689	96.183	-0.016568	-0.010237	-0.751129	NaN
714	1.000000	1.143212	7.37204e+06	-41389.1	1005.82	-29786.3	0.000000	0.000000	7.143209	0.140903	NaN	0.000000	0.001588	0.001746	28.0822	0.344258	0.002147	160.33	5.168528	-166.345	0.012529	1.141855	-0.006506	-0.007863	0.140903	160.33	-0.007165	-0.004739	-29.7328	NaN
714	2.000000	1.152888	7.37204e+06	-41389.1	1005.82	-29786.3	0.000000	0.000000	7.153314	10.5698	NaN	0.000000	0.001694	0.001763	28.0823	8.810556	0.001703	5173.34	8.611751	6.636728	8.097998	1.151787	0.003170	0.002069	10.5698	5173.34	0.001638	0.001264	8362.19	132944
714	2.000000	1.155682	7.37204e+06	-41389.1	1005.82	-29786.3	0.000000	0.000000	7.156270	14.4982	NaN	0.000000	0.001620	0.001719	28.0836	12.196	0.001749	6972.75	7.045853	-174.978	13.4132	1.155319	0.005964	0.005601	14.4982	6972.75	0.004405	0.003597	4030.81	106223
714	2.000000	1.158197	7.37204e+06	-41389.1	1005.82	-29786.3	0.000000	0.000000	7.158910	17.5655	NaN	0.000000	0.001624	0.001715	28.0834	14.1796	0.001633	8682.95	9.917709	1.853948	16.8471	1.157846	0.008479	0.008128	17.5655	8682.95	0.006962	0.005996	2929.52	102449
714	2.000000	1.160684	7.37204e+06	-41389.1	1005.82	-29786.3	0.000000	0.000000	7.161569	21.7497	NaN	0.000000	0.001613	0.001697	28.0835	17.6762	0.001731	10210.3	9.549468	179.991	22.7796	1.160351	0.010966	0.010633	21.7497	10210.3	0.009368	0.008488	2562.45	101254
714	2.000000	1.163158	7.37204e+06	-41389.1	1005.82	-29786.3	0.000000	0.000000	7.164285	27.6213	NaN	0.000000	0.001624	0.001713	28.0838	20.4912	0.001787	11469.1	3.523978	3.967042	26.711	1.162854	0.013440	0.013136	27.6213	11469.1	0.011634	0.011055	2498.64	99662.9
714	2.000000	1.165637	7.37204e+06	-41389.1	1005.82	-29786.3	0.000000	0.000000	7.167120	36.3189	NaN	0.000000	0.001619	0.001697	28.0839	23.6302	0.001817	13005.4	2.248230	-175.266	36.7546	1.165343	0.015918	0.015625	36.3189	13005.4	0.013824	0.013749	2641.55	101335
714	2.000000	1.168157	7.37204e+06	-41389.1	1005.82	-29786.3	0.000000	0.000000	7.169856	41.5606	NaN	0.000000	0.001580	0.001725	28.0842	25.564	0.001716	14899.3	6.513815	0.817098	43.4173	1.167770	0.018439	0.018052	41.5606	14899.3	0.016347	0.017124	2427.07	104025
714	2.000000	1.170634	7.37204e+06	-41389.1	1005.82	-29786.3	0.000000	0.000000	7.172663	49.5895	NaN	0.000000	0.001648	0.001752	28.0837	28.1514	0.001801	15627.3	3.811225	-178.385	50.3166	1.170326	0.020916	0.020608	49.5895	15627.3	0.018536	0.020293	2443.63	100226
714	2.000000	1.173138	7.37204e+06	-41389.1	1005.82	-29786.3	0.000000	0.000000	7.175613	60.427	NaN	0.000000	0.001739	0.001754	28.0842	30.1503	0.001838	16408.1	5.418209	1.332289	60.3243	1.172725	0.023420	0.023007	60.427	16408.1	0.020658	0.023587	2561.87	97610
714	2.000000	1.175575	7.37204e+06	-41389.1	1005.82	-29786.3	0.000000	0.000000	7.178200	64.0878	NaN	0.000000	0.001702	0.001716	28.0834	32.4628	0.001772	18320.5	0.563052	-177.519	62.0524	1.175337	0.025857	0.025619	64.0878	18320.5	0.023234	0.027880	2298.69	100245
714	2.000000	1.178143	7.37204e+06	-41389.1	1005.82	-29786.3	0.000000	0.000000	7.181116	72.5541	NaN	0.000000	0.001658	0.001715	28.0839	34.7269	0.001674	20747.9	4.433020	-1.850014	72.4367	1.177818	0.028425	0.028100	72.5541	20747.9	0.025802	0.032491	2233.04	105163
714	2.000000	1.180624	7.37204e+06	-41389.1	1005.82	-29786.3	0.000000	0.000000	7.184090	84.5619	NaN	0.000000	0.001655	0.001711	28.0837	36.9248	0.001783	20713.6	7.025955	175.958	84.8751	1.180313	0.030906	0.030595	84.5619	20713.6	0.027844	0.036393	2323.55	99201.4
714	2.000000	1.183027	7.37204e+06	-41389.1	1005.82	-29786.3	0.000000	0.000000	7.186855	93.3685	NaN	0.000000	0.001673	0.001704	28.0858	38.9257	0.001790	21744.7	0.788939	1.144341	89.107	1.182718	0.033309	0.033000	93.3685	21744.7	0.030088	0.040927	2281.35	98202.6
714	2.000000	1.185582	7.37204e+06	-41389.1	1005.82	-29786.3	0.000000	0.000000	7.189877	104.722	NaN	0.000000	0.001687	0.001726	28.0855	41.8598	0.001618	25873.7	1.058129	179.466	102.896	1.185311	0.035864	0.035592	104.722	25873.7	0.032828	0.046810	2237.17	109260
714	2.000000	1.188088	7.37204e+06	-41389.1	1005.82	-29786.3	0.000000	0.000000	7.192899	117.264	NaN	0.000000	0.001668	0.001753	28.083	44.3108	0.001785	24830.3	4.123946	-2.347950	114.331	1.187611	0.038370	0.037893	117.264	24830.3	0.034828	0.051346	2283.78	100115
714	2.000000	1.190510	7.37204e+06	-41389.1	1005.82	-29786.3	0.000000	0.000000	7.195954	132.678	NaN	0.000000	0.001703	0.001708	28.0824	45.5709	0.001732	26311.4	0.358041	-179.036	129.42	1.190200	0.040792	0.040482	132.678	26311.4	0.037010	0.056530	2347.05	101107
714	2.000000	1.193021	7.37204e+06	-41389.1	1005.82	-29786.3	0.000000	0.000000	7.198685	138.033	NaN	0.000000	0.001733	0.001701	28.0825	49.4397	0.001725	28656	3.873133	-4.489686	131.765	1.192656	0.043303	0.042938	138.033	28656	0.039690	0.063230	2183.02	104118
714	2.000000	1.195578	7.37204e+06	-41389.1	1005.82	-29786.3	0.000000	0.000000	7.201703	149.255	NaN	0.000000	0.001698	0.001737	28.0823	52.2756	0.001843	28364.3	2.097026	178.181	147.578	1.195336	0.045860	0.045618	149.255	28364.3	0.041913	0.069067	2161.02	98607.7
714	2.000000	1.198010	7.37204e+06	-41389.1	1005.82	-29786.3	0.000000	0.000000	7.204922	168.385	NaN	0.000000	0.001698	0.001752	28.0822	53.9518	0.001709	31574	4.012310	-3.872901	164.125	1.197724	0.048292	0.048006	168.385	31574	0.044293	0.075592	2227.54	104921
714	2.000000	1.200530	7.37204e+06	-41389.1	1005.82	-29786.3	0.000000	0.000000	7.208116	184.798	NaN	0.000000	0.001690	0.001784	28.0821	56.516	0.001971	28678	1.568518	179.727	182.535	1.200216	0.050812	0.050498	184.798	28678	0.045979	0.080390	2298.76	92410.4
714	2.000000	1.202987	7.37204e+06	-41389.1	1005.82	-29786.3	0.000000	0.000000	7.211129	198.306	NaN	0.000000	0.001663	0.001742	28.0826	59.0121	0.001772	33303.4	4.968676	-5.793794	193.413	1.202647	0.053269	0.052929	198.306	33303.4	0.048804	0.088751	2234.41	102135
714	2.000000	1.205495	7.37204e+06	-41389.1	1005.82	-29786.3	0.000000	0.000000	7.214354	215.776	NaN	0.000000	0.001680	0.001799	28.0821	62.3393	0.001859	33542.5	3.275184	175.791	211.049	1.205233	0.055777	0.055515	215.776	33542.5	0.050952	0.095380	2262.28	99229.4
714	2.000000	1.208037	7.37204e+06	-41389.1	1005.82	-29786.3	0.000000	0.000000	7.217580	232.433	NaN	0.000000	0.001679	0.001750	28.0825	64.0259	0.001812	35331.1	4.559739	-5.461105	227.711	1.207641	0.058319	0.057923	232.433	35331.1	0.053385	0.103162	2253.09	100501
714	2.000000	1.210443	7.37204e+06	-41389.1	1005.82	-29786.3	0.000000	0.000000	7.220839	253.174	NaN	0.000000	0.001688	0.001670	28.082	65.5636	0.001768	37092.8	5.730101	172.881	248.091	1.210106	0.060725	0.060388	253.174	37092.8	0.055606	0.110525	2290.65	101937
714	2.000000	1.212961	7.37204e+06	-41389.1	1005.82	-29786.3	0.000000	0.000000	7.223658	260.506	NaN	0.000000	0.001675	0.001742	28.0826	69.9949	0.001869	37444.7	8.467047	-10.2765	255.162	1.212582	0.063243	0.062864	260.506	37444.7	0.058025	0.118821	2192.43	99247
714	2.000000	1.215498	7.37204e+06	-41389.1	1005.82	-29786.3	0.000000	0.000000	7.226849	276.423	NaN	0.000000	0.001670	0.001754	28.0824	71.5076	0.001765	40510.6	3.878142	173.34	273.414	1.215197	0.065780	0.065479	276.423	40510.6	0.060662	0.128193	2156.3	103374
714	2.000000	1.217948	7.37204e+06	-41389.1	1005.82	-29786.3	0.000000	0.000000	7.230068	295.126	NaN	0.000000	0.001677	0.001750	28.0822	72.8849	0.001822	40008.9	3.253973	-5.720259	288.034	1.217703	0.068230	0.067985	295.126	40008.9	0.062698	0.135659	2175.5	99244.5
714	2.000000	1.220465	7.37204e+06	-41389.1	1005.82	-29786.3	0.000000	0.000000	7.232657	296.869	NaN	0.000000	0.001703	0.001727	28.082	74.7412	0.001785	41862.5	3.056194	173.72	290.863	1.220245	0.070747	0.070527	296.869	41862.5	0.065428	0.145989	2033.5	100101
714	2.000000	1.223068	7.37204e+06	-41389.1	1005.82	-29786.3	0.000000	0.000000	7.236546	328.142	NaN	0.000000	0.001698	0.001729	28.0838	76.6303	0.001716	44650.6	-0.132759	-3.320835	326.765	1.222744	0.073350	0.073026	328.142	44650.6	0.067839	0.155407	2111.5	103482
714	2.000000	1.225581	7.37204e+06	-41389.1	1005.82	-29786.3	0.000000	0.000000	7.239853	347.481	NaN	0.000000	0.001692	0.001739	28.0832	80.8337	0.001769	45707.5	5.999947	170.507	348.863	1.225236	0.075863	0.075518	347.481	45707.5	0.070161	0.164744	2109.22	102886
714	2.000000	1.227968	7.37204e+06	-41389.1	1005.82	-29786.3	0.000000	0.000000	7.243202	370.897	NaN	0.000000	0.001701	0.001672	28.0834	82.4524	0.001735	47530.8	9.056471	-11.983	363.443	1.227513	0.078250	0.077795	370.897	47530.8	0.072398	0.173978	2131.87	104112
714	2.000000	1.230471	7.37204e+06	-41389.1	1005.82	-29786.3	0.000000	0.000000	7.246320	385.857	NaN	0.000000	0.001687	0.001689	28.0831	84.2336	0.001802	46744.2	8.551919	168.673	381.327	1.230094	0.080753	0.080376	385.857	46744.2	0.074562	0.183140	2106.89	99795
714	2.000000	1.232976	7.37204e+06	-41389.1	1005.82	-29786.3	0.000000	0.000000	7.249546	403.409	NaN	0.000000	0.001702	0.001717	28.0838	87.6601	0.001839	47659.4	4.641641	-8.182842	397.784	1.232639	0.083258	0.082921	403.409	47659.4	0.076909	0.193325	2086.69	99032.5
714	2.000000	1.235598	7.37204e+06	-41389.1	1005.82	-29786.3	0.000000	0.000000	7.252695	416.231	NaN	0.000000	0.001675	0.001710	28.0835	91.6297	0.001831	50053	9.150424	166.968	421.769	1.235257	0.085880	0.085539	416.231	50053	0.079643	0.205512	2025.34	100875
714	2.000000	1.237946	7.37204e+06	-41389.1	1005.82	-29786.3	0.000000	0.000000	7.256220	444.862	NaN	0.000000	0.001711	0.001691	28.0836	90.6821	0.001831	49537.9	2.803623	-6.640819	438.526	1.237626	0.088228	0.087908	444.862	49537.9	0.081493	0.213955	2079.23	97847.6
714	2.000000	1.240579	7.37204e+06	-41389.1	1005.82	-29786.3	0.000000	0.000000	7.259778	467.372	NaN	0.000000	0.001691	0.001737	28.0836	92.6698	0.001803	51399.6	4.192378	171.889	471.221	1.240217	0.090861	0.090499	467.372	51399.6	0.084042	0.225851	2069.39	98814.8
714	2.000000	1.243013	7.37204e+06	-41389.1	1005.82	-29786.3	0.000000	0.000000	7.263054	487.856	NaN	0.000000	0.001677	0.001726	28.0838	95.2018	0.001840	51737.5	3.022148	-7.012999	484.629	1.242601	0.093295	0.092883	487.856	51737.5	0.086223	0.236270	2064.83	97246.6
714	2.000000	1.245488	7.37204e+06	-41389.1	1005.82	-29786.3	0.000000	0.000000	7.266315	506.978	NaN	0.000000	0.001705	0.001732	28.0835	97.0576	0.001862	52111.7	-0.099973	175.961	506.308	1.245272	0.095770	0.095554	506.978	52111.7	0.088474	0.247250	2050.46	95750.2
714	2.000000	1.247948	7.37204e+06	-41389.1	1005.82	-29786.3	0.000000	0.000000	7.270022	537.327	NaN	0.000000	0.001701	0.001761	28.0837	100.082	0.001654	60512	5.722794	-10.9607	531.205	1.247708	0.098230	0.097990	537.327	60512	0.091570	0.262739	2045.1	107858
714	2.000000	1.250515	7.37204e+06	-41389.1	1005.82	-29786.3	0.000000	0.000000	7.273450	558.281	NaN	0.000000	0.001704	0.001753	28.0838	102.991	0.001759	58559.6	4.214734	171.172	558.446	1.250104	0.100797	0.100386	558.281	58559.6	0.093647	0.273370	2042.22	102328
714	2.000000	1.251462	7.37204e+06	-41389.1	1005.82	-29786.3	0.000000	0.000000	7.274946	571.612	NaN	0.000000	0.001700	0.001723	28.0839	104.056	0.001758	59175.5	4.177028	171.44	567.093	1.251116	0.101744	0.101398	571.612	59175.5	0.094500	0.277794	2057.69	102578