File: remote_trans/data/nanoindenter/0828-1/data/Data_2025-08-06,11h17m57s/2025-07-22_16-23-58_1_620.txt
2025-07-22, 16:23:58, 1
Index	Phase	Displacement	Time	Pos X	Pos Y	Pos Z	Rot A	Rot B	Piezo Z	Force A	Force B	Gripper	Voltage A	Voltage B	Temperature	Amplitude force	Amplitude pos	Stiffness	Phase shift	Phase excitation	Force A raw	Displacement raw	HMax	HMax raw	Real Force	Real Stiffness	Contact Depth	Area	Hardness	Reduced Mod.
[#]	[#]	[um]	[s]	[um]	[um]	[um]	[m°]	[m°]	[um]	[uN]	[uN]	[V]	[V]	[V]	[°C]	[uN]	[um]	[N/m]	[°]	[°]	[uN]	[um]	[um]	[um]	[uN]	[N/m]	[um]	[um^2]	[MPa]	[MPa]
620	1.000000	0.003041	7.37112e+06	-46089.1	1005.82	-29770.3	0.000000	0.000000	6.002818	-0.046139	NaN	0.000000	0.001481	0.001755	28.083	0.030154	0.000941	32.031	171.224	-158.843	-0.069580	0.001776	-1.075244	-1.076508	-0.046139	32.031	-1.074164	-2.254894E+14	2.046184E-16	NaN
620	1.000000	0.010996	7.37112e+06	-46089.1	1005.82	-29770.3	0.000000	0.000000	6.010774	-0.019920	NaN	0.000000	0.001522	0.001747	28.0828	0.039698	0.000868	45.7481	47.1211	-169.788	-0.065712	0.009642	-1.067289	-1.068643	-0.019920	45.7481	-1.066963	-1.804599E+14	1.103843E-16	NaN
620	1.000000	0.018954	7.37112e+06	-46089.1	1005.82	-29770.3	0.000000	0.000000	6.018733	-0.009551	NaN	0.000000	0.001543	0.001700	28.0827	0.049200	0.001791	27.4736	-59.4339	-167.008	0.029466	0.017687	-1.059331	-1.060598	-0.009551	27.4736	-1.059070	-1.413601E+14	6.756720E-17	NaN
620	1.000000	0.026997	7.37112e+06	-46089.1	1005.82	-29770.3	0.000000	0.000000	6.026777	-0.004378	NaN	0.000000	0.001537	0.001720	28.083	0.059582	0.001809	32.9425	47.6627	-161.496	-0.029096	0.025698	-1.051287	-1.052587	-0.004378	32.9425	-1.051188	-1.107589E+14	3.952550E-17	NaN
620	1.000000	0.034970	7.37112e+06	-46089.1	1005.82	-29770.3	0.000000	0.000000	6.034747	-0.062019	NaN	0.000000	0.001543	0.001735	28.0828	0.066094	0.001839	35.9364	-148.342	-161.026	0.013869	0.033684	-1.043314	-1.044601	-0.062019	35.9364	-1.042020	-8.339315E+13	7.436963E-16	NaN
620	1.000000	0.042982	7.37112e+06	-46089.1	1005.82	-29770.3	0.000000	0.000000	6.042760	-0.039940	NaN	0.000000	0.001511	0.001749	28.0832	0.084406	0.001975	42.7428	-131.509	-162.912	-0.034318	0.041659	-1.035302	-1.036625	-0.039940	42.7428	-1.034602	-6.627810E+13	6.026160E-16	NaN
620	1.000000	0.050988	7.37112e+06	-46089.1	1005.82	-29770.3	0.000000	0.000000	6.050763	-0.097626	NaN	0.000000	0.001507	0.001728	28.0835	0.018506	0.001987	9.315865	-77.892	-167.336	-0.046538	0.049705	-1.027297	-1.028580	-0.097626	9.315865	-1.019437	-4.143627E+13	2.356041E-15	NaN
620	1.000000	0.058968	7.37112e+06	-46089.1	1005.82	-29770.3	0.000000	0.000000	6.058747	-0.020676	NaN	0.000000	0.001503	0.001725	28.0832	0.033166	0.002045	16.217	-80.4096	-165.756	-0.031915	0.057659	-1.019316	-1.020625	-0.020676	16.217	-1.018360	-4.007621E+13	5.159214E-16	NaN
620	1.000000	0.066964	7.37112e+06	-46089.1	1005.82	-29770.3	0.000000	0.000000	6.066745	0.032707	NaN	0.000000	0.001512	0.001731	28.0833	0.086586	0.002074	41.744	-74.8124	-167.252	-0.041795	0.065640	-1.011320	-1.012645	0.032707	41.744	-1.011908	-3.281418E+13	-9.967327E-16	NaN
620	1.000000	0.074974	7.37112e+06	-46089.1	1005.82	-29770.3	0.000000	0.000000	6.074755	0.042635	NaN	0.000000	0.001513	0.001728	28.0829	0.019444	0.002016	9.645396	-8.428494	-165.002	-0.038547	0.073640	-1.003311	-1.004645	0.042635	9.645396	-1.006626	-2.785942E+13	-1.530375E-15	NaN
620	1.000000	0.082970	7.37112e+06	-46089.1	1005.82	-29770.3	0.000000	0.000000	6.082750	0.019218	NaN	0.000000	0.001508	0.001733	28.0832	0.090057	0.002060	43.7127	-12.7727	-160.78	0.095610	0.081644	-0.995315	-0.996641	0.019218	43.7127	-0.995645	-1.982103E+13	-9.695739E-16	NaN
620	1.000000	0.090969	7.37112e+06	-46089.1	1005.82	-29770.3	0.000000	0.000000	6.090749	0.029849	NaN	0.000000	0.001496	0.001741	28.0831	0.065273	0.002100	31.0783	153.693	-164.214	0.025308	0.089657	-0.987316	-0.988628	0.029849	31.0783	-0.988036	-1.565537E+13	-1.906616E-15	NaN
620	1.000000	0.098961	7.37112e+06	-46089.1	1005.82	-29770.3	0.000000	0.000000	6.098742	0.049632	NaN	0.000000	0.001513	0.001734	28.0821	0.069529	0.002116	32.8515	16.5806	-160.799	0.031905	0.097652	-0.979324	-0.980633	0.049632	32.8515	-0.980457	-1.237571E+13	-4.010458E-15	NaN
620	1.000000	0.106978	7.37112e+06	-46089.1	1005.82	-29770.3	0.000000	0.000000	6.106758	0.026087	NaN	0.000000	0.001511	0.001691	28.0818	0.084548	0.001844	45.8524	66.5296	-163.398	0.046025	0.105666	-0.971307	-0.972618	0.026087	45.8524	-0.971734	-9.441280E+12	-2.763070E-15	NaN
620	1.000000	0.115001	7.37112e+06	-46089.1	1005.82	-29770.3	0.000000	0.000000	6.114781	0.018356	NaN	0.000000	0.001500	0.001721	28.0817	0.162231	0.001997	81.2352	100.507	-166.743	-0.013971	0.113689	-0.963284	-0.964596	0.018356	81.2352	-0.963453	-7.301667E+12	-2.514010E-15	NaN
620	1.000000	0.122991	7.37112e+06	-46089.1	1005.82	-29770.3	0.000000	0.000000	6.122768	-0.053969	NaN	0.000000	0.001469	0.001722	28.0817	0.115554	0.001990	58.0697	91.2602	-161.197	-0.033781	0.121686	-0.955294	-0.956599	-0.053969	58.0697	-0.954597	-5.546473E+12	9.730255E-15	NaN
620	1.000000	0.131000	7.37112e+06	-46089.1	1005.82	-29770.3	0.000000	0.000000	6.130778	-0.025001	NaN	0.000000	0.001476	0.001709	28.0818	0.036364	0.002004	18.1496	-127.639	-162.834	-0.055084	0.129625	-0.947285	-0.948660	-0.025001	18.1496	-0.946252	-4.280265E+12	5.840934E-15	NaN
620	1.000000	0.139004	7.37112e+06	-46089.1	1005.82	-29770.3	0.000000	0.000000	6.138782	-0.023209	NaN	0.000000	0.001471	0.001718	28.0818	0.019824	0.002050	9.671447	44.8408	-165.313	-0.006255	0.137705	-0.939281	-0.940580	-0.023209	9.671447	-0.937481	-3.259497E+12	7.120480E-15	NaN
620	1.000000	0.147001	7.37112e+06	-46089.1	1005.82	-29770.3	0.000000	0.000000	6.146781	0.013271	NaN	0.000000	0.001493	0.001736	28.0817	0.101146	0.002078	48.6657	-110.203	-164.976	0.023587	0.145777	-0.931284	-0.932508	0.013271	48.6657	-0.931488	-2.705705E+12	-4.904938E-15	NaN
620	1.000000	0.155017	7.37112e+06	-46089.1	1005.82	-29770.3	0.000000	0.000000	6.154795	-0.049873	NaN	0.000000	0.001492	0.001722	28.0816	0.040940	0.001992	20.5541	-7.209382	-163.439	-0.132695	0.153680	-0.923267	-0.924605	-0.049873	20.5541	-0.921447	-1.980380E+12	2.518377E-14	NaN
620	1.000000	0.163023	7.37112e+06	-46089.1	1005.82	-29770.3	0.000000	0.000000	6.162801	-0.033410	NaN	0.000000	0.001502	0.001691	28.0816	0.026353	0.001999	13.1799	14.4353	-164.141	-0.096209	0.161650	-0.915262	-0.916635	-0.033410	13.1799	-0.913361	-1.540124E+12	2.169336E-14	NaN
620	1.000000	0.171017	7.37112e+06	-46089.1	1005.82	-29770.3	0.000000	0.000000	6.170802	0.123606	NaN	0.000000	0.001449	0.001755	28.0815	0.024997	0.002032	12.3011	-70.7386	-165.929	0.116384	0.169725	-0.907268	-0.908560	0.123606	12.3011	-0.914804	-1.610802E+12	-7.673563E-14	NaN
620	1.000000	0.179031	7.37112e+06	-46089.1	1005.82	-29770.3	0.000000	0.000000	6.178808	-0.060027	NaN	0.000000	0.001475	0.001726	28.0821	0.106369	0.001945	54.6816	37.8736	-165.351	-0.016630	0.177693	-0.899253	-0.900592	-0.060027	54.6816	-0.898430	-9.679451E+11	6.201471E-14	NaN
620	1.000000	0.187017	7.37112e+06	-46089.1	1005.82	-29770.3	0.000000	0.000000	6.186799	0.066705	NaN	0.000000	0.001490	0.001730	28.0817	0.058099	0.001920	30.2602	29.5524	-164.385	0.060339	0.185723	-0.891268	-0.892562	0.066705	30.2602	-0.892921	-8.154590E+11	-8.180094E-14	NaN
620	1.000000	0.195037	7.37112e+06	-46089.1	1005.82	-29770.3	0.000000	0.000000	6.194818	0.040367	NaN	0.000000	0.001462	0.001760	28.0818	0.207330	0.002071	100.09	-124.695	-164.922	0.075736	0.193695	-0.883247	-0.884589	0.040367	100.09	-0.883550	-6.091334E+11	-6.627027E-14	NaN
620	1.000000	0.203044	7.37112e+06	-46089.1	1005.82	-29770.3	0.000000	0.000000	6.202825	0.052633	NaN	0.000000	0.001484	0.001702	28.0818	0.043643	0.002067	21.1144	87.2777	-163.006	0.058204	0.201741	-0.875241	-0.876544	0.052633	21.1144	-0.877111	-4.984610E+11	-1.055916E-13	NaN
620	1.000000	0.211037	7.37112e+06	-46089.1	1005.82	-29770.3	0.000000	0.000000	6.210811	-0.114929	NaN	0.000000	0.001474	0.001677	28.0816	0.050202	0.002066	24.2942	84.9695	-164.45	-0.023809	0.209743	-0.867248	-0.868542	-0.114929	24.2942	-0.863700	-3.282465E+11	3.501307E-13	NaN
620	1.000000	0.219038	7.37112e+06	-46089.1	1005.82	-29770.3	0.000000	0.000000	6.218819	0.054538	NaN	0.000000	0.001484	0.001738	28.0816	0.057991	0.002021	28.6922	-163.018	-161.201	0.149475	0.217792	-0.859247	-0.860492	0.054538	28.6922	-0.860673	-2.986935E+11	-1.825880E-13	NaN
620	1.000000	0.227034	7.37112e+06	-46089.1	1005.82	-29770.3	0.000000	0.000000	6.226813	-0.013503	NaN	0.000000	0.001462	0.001694	28.0816	0.065161	0.002057	31.6826	-119.355	-164.97	0.016535	0.225782	-0.851251	-0.852503	-0.013503	31.6826	-0.850931	-2.204674E+11	6.124508E-14	NaN
620	1.000000	0.235076	7.37112e+06	-46089.1	1005.82	-29770.3	0.000000	0.000000	6.234856	0.011505	NaN	0.000000	0.001485	0.001710	28.0828	0.135030	0.001947	69.354	-52.6301	-163.881	0.003566	0.233749	-0.843208	-0.844536	0.011505	69.354	-0.843333	-1.739568E+11	-6.613994E-14	NaN
620	1.000000	0.243035	7.37112e+06	-46089.1	1005.82	-29770.3	0.000000	0.000000	6.242813	-0.036075	NaN	0.000000	0.001448	0.001711	28.0831	0.098688	0.001944	50.7692	-105.975	-163.204	-0.047362	0.241710	-0.835250	-0.836575	-0.036075	50.7692	-0.834717	-1.329579E+11	2.713242E-13	NaN
620	1.000000	0.251080	7.37112e+06	-46089.1	1005.82	-29770.3	0.000000	0.000000	6.250856	-0.095616	NaN	0.000000	0.001437	0.001767	28.0834	0.080065	0.002091	38.2973	106.263	-164.593	-0.059300	0.249738	-0.827205	-0.828546	-0.095616	38.2973	-0.825332	-9.919902E+10	9.638764E-13	NaN
620	1.000000	0.259068	7.37112e+06	-46089.1	1005.82	-29770.3	0.000000	0.000000	6.258849	0.052984	NaN	0.000000	0.001511	0.001772	28.0829	0.067505	0.002048	32.9648	-46.7156	-164.915	-0.071605	0.257766	-0.819217	-0.820518	0.052984	32.9648	-0.820423	-8.510244E+10	-6.225920E-13	NaN
620	1.000000	0.267046	7.37112e+06	-46089.1	1005.82	-29770.3	0.000000	0.000000	6.266824	-0.024489	NaN	0.000000	0.001506	0.001780	28.083	0.013203	0.002049	6.444582	-132.013	-166.967	-0.017481	0.265697	-0.811239	-0.812588	-0.024489	6.444582	-0.808389	-5.844025E+10	4.190399E-13	NaN
620	1.000000	0.275061	7.37112e+06	-46089.1	1005.82	-29770.3	0.000000	0.000000	6.274838	-0.057649	NaN	0.000000	0.001509	0.001731	28.0834	0.114090	0.001923	59.3211	-73.7102	-164.784	-0.016338	0.273780	-0.803223	-0.804505	-0.057649	59.3211	-0.802495	-4.860967E+10	1.185965E-12	NaN
620	1.000000	0.283058	7.37112e+06	-46089.1	1005.82	-29770.3	0.000000	0.000000	6.282835	-0.042429	NaN	0.000000	0.001552	0.001729	28.083	0.053989	0.001984	27.211	41.7466	-163.897	-0.037887	0.281793	-0.795227	-0.796492	-0.042429	27.211	-0.794057	-3.734085E+10	1.136273E-12	NaN
620	1.000000	0.291077	7.37112e+06	-46089.1	1005.82	-29770.3	0.000000	0.000000	6.290856	-0.011989	NaN	0.000000	0.001528	0.001742	28.0831	0.040183	0.001974	20.3514	-66.7222	-164.445	0.020632	0.289740	-0.787207	-0.788545	-0.011989	20.3514	-0.786766	-2.972698E+10	4.033050E-13	NaN
620	1.000000	0.299055	7.37112e+06	-46089.1	1005.82	-29770.3	0.000000	0.000000	6.298836	0.030368	NaN	0.000000	0.001510	0.001729	28.0826	0.145813	0.002041	71.4362	60.225	-166.954	0.008865	0.297738	-0.779230	-0.780547	0.030368	71.4362	-0.779549	-2.371911E+10	-1.280317E-12	NaN
620	1.000000	0.307083	7.37112e+06	-46089.1	1005.82	-29770.3	0.000000	0.000000	6.306862	-0.018509	NaN	0.000000	0.001538	0.001762	28.0828	0.032406	0.001880	17.2408	-88.9317	-165.716	0.045692	0.305833	-0.771201	-0.772451	-0.018509	17.2408	-0.770396	-1.781119E+10	1.039200E-12	NaN
620	1.000000	0.315073	7.37112e+06	-46089.1	1005.82	-29770.3	0.000000	0.000000	6.314852	0.005850	NaN	0.000000	0.001520	0.001733	28.0827	0.124933	0.001899	65.7852	15.0452	-163.98	-0.066224	0.313739	-0.763212	-0.764546	0.005850	65.7852	-0.763279	-1.425291E+10	-4.104479E-13	NaN
620	1.000000	0.323095	7.37112e+06	-46089.1	1005.82	-29770.3	0.000000	0.000000	6.322878	0.101991	NaN	0.000000	0.001557	0.001736	28.0828	0.039535	0.001998	19.7886	147.618	-164.409	0.113706	0.321809	-0.755190	-0.756476	0.101991	19.7886	-0.759056	-1.248688E+10	-8.167824E-12	NaN
620	1.000000	0.331090	7.37112e+06	-46089.1	1005.82	-29770.3	0.000000	0.000000	6.330867	-0.044878	NaN	0.000000	0.001581	0.001749	28.0829	0.050611	0.002019	25.0684	32.0971	-165.203	-0.014010	0.329778	-0.747195	-0.748507	-0.044878	25.0684	-0.745852	-8.255718E+9	5.435949E-12	NaN
620	1.000000	0.339066	7.37112e+06	-46089.1	1005.82	-29770.3	0.000000	0.000000	6.338845	0.000738	NaN	0.000000	0.001517	0.001692	28.083	0.091731	0.002065	44.42	34.7494	-163.76	-0.088510	0.337756	-0.739219	-0.740529	0.000738	44.42	-0.739231	-6.707861E+9	-1.099838E-13	NaN
620	1.000000	0.347078	7.37112e+06	-46089.1	1005.82	-29770.3	0.000000	0.000000	6.346855	-0.039201	NaN	0.000000	0.001545	0.001694	28.0831	0.061461	0.001890	32.5264	-137.56	-166.84	-0.046036	0.345789	-0.731207	-0.732496	-0.039201	32.5264	-0.730303	-5.069203E+9	7.733091E-12	NaN
620	1.000000	0.355072	7.37112e+06	-46089.1	1005.82	-29770.3	0.000000	0.000000	6.354848	-0.060713	NaN	0.000000	0.001554	0.001721	28.0826	0.109710	0.001974	55.5688	23.6614	-165.403	-0.121150	0.353775	-0.723213	-0.724510	-0.060713	55.5688	-0.722394	-3.954730E+9	1.535211E-11	NaN
620	1.000000	0.363091	7.37112e+06	-46089.1	1005.82	-29770.3	0.000000	0.000000	6.362872	0.027083	NaN	0.000000	0.001534	0.001703	28.083	0.073058	0.001952	37.4357	-125.449	-162.86	0.056166	0.361784	-0.715194	-0.716501	0.027083	37.4357	-0.715736	-3.208591E+9	-8.440819E-12	NaN
620	1.000000	0.371091	7.37112e+06	-46089.1	1005.82	-29770.3	0.000000	0.000000	6.370872	0.058416	NaN	0.000000	0.001438	0.001728	28.0826	0.047524	0.002032	23.3887	-48.846	-165.627	-0.018665	0.369795	-0.707194	-0.708490	0.058416	23.3887	-0.709067	-2.602075E+9	-2.244996E-11	NaN
620	1.000000	0.379101	7.37112e+06	-46089.1	1005.82	-29770.3	0.000000	0.000000	6.378882	0.044950	NaN	0.000000	0.001471	0.001781	28.082	0.060814	0.002038	29.8459	119.076	-165.865	0.002984	0.377834	-0.699184	-0.700451	0.044950	29.8459	-0.700313	-1.976108E+9	-2.274655E-11	NaN
620	1.000000	0.387099	7.37112e+06	-46089.1	1005.82	-29770.3	0.000000	0.000000	6.386877	-0.031048	NaN	0.000000	0.001493	0.001720	28.0822	0.064696	0.002043	31.6676	92.545	-161.229	-0.064138	0.385801	-0.691186	-0.692484	-0.031048	31.6676	-0.690450	-1.449014E+9	2.142713E-11	NaN
620	1.000000	0.395087	7.37112e+06	-46089.1	1005.82	-29770.3	0.000000	0.000000	6.394865	-0.047378	NaN	0.000000	0.001515	0.001803	28.082	0.134988	0.002051	65.8036	-38.4347	-167.868	-0.043821	0.393779	-0.683197	-0.684505	-0.047378	65.8036	-0.682657	-1.133822E+9	4.178635E-11	NaN
620	1.000000	0.403116	7.37112e+06	-46089.1	1005.82	-29770.3	0.000000	0.000000	6.402897	0.021538	NaN	0.000000	0.001462	0.001783	28.082	0.056027	0.002001	27.9945	-63.0795	-167.988	0.038439	0.401760	-0.675168	-0.676525	0.021538	27.9945	-0.675745	-9.120291E+8	-2.361532E-11	NaN
620	1.000000	0.411116	7.37112e+06	-46089.1	1005.82	-29770.3	0.000000	0.000000	6.410897	0.041440	NaN	0.000000	0.001491	0.001771	28.0821	0.068822	0.002029	33.9149	24.4223	-162.532	0.043633	0.409790	-0.667169	-0.668495	0.041440	33.9149	-0.668086	-7.164516E+8	-5.784089E-11	NaN
620	1.000000	0.419164	7.37112e+06	-46089.1	1005.82	-29770.3	0.000000	0.000000	6.418942	-0.034502	NaN	0.000000	0.001490	0.001775	28.0826	0.109637	0.002067	53.0426	62.6352	-169.62	-0.066900	0.417838	-0.659120	-0.660447	-0.034502	53.0426	-0.658633	-5.317873E+8	6.487928E-11	NaN
620	1.000000	0.427115	7.37112e+06	-46089.1	1005.82	-29770.3	0.000000	0.000000	6.426895	0.016786	NaN	0.000000	0.001499	0.001754	28.0823	0.133416	0.001812	73.6195	-147.72	-163.144	-0.000468	0.425857	-0.651170	-0.652428	0.016786	73.6195	-0.651341	-4.224867E+8	-3.973109E-11	NaN
620	1.000000	0.435121	7.37112e+06	-46089.1	1005.82	-29770.3	0.000000	0.000000	6.434902	0.051573	NaN	0.000000	0.001508	0.001675	28.0821	0.043963	0.001937	22.695	-51.4854	-165.075	0.072401	0.433761	-0.643164	-0.644524	0.051573	22.695	-0.644868	-3.444058E+8	-1.497437E-10	NaN
620	1.000000	0.443124	7.37112e+06	-46089.1	1005.82	-29770.3	0.000000	0.000000	6.442906	0.058733	NaN	0.000000	0.001507	0.001730	28.0823	0.034277	0.001998	17.1532	-58.5143	-163.82	0.034127	0.441795	-0.635161	-0.636489	0.058733	17.1532	-0.637729	-2.748668E+8	-2.136787E-10	NaN
620	1.000000	0.451152	7.37112e+06	-46089.1	1005.82	-29770.3	0.000000	0.000000	6.450933	0.040527	NaN	0.000000	0.001518	0.001748	28.0821	0.044114	0.001963	22.468	-62.3046	-162.155	0.043579	0.449804	-0.627133	-0.628481	0.040527	22.468	-0.628485	-2.052219E+8	-1.974812E-10	NaN
620	1.000000	0.459126	7.37112e+06	-46089.1	1005.82	-29770.3	0.000000	0.000000	6.458903	-0.062357	NaN	0.000000	0.001547	0.001735	28.0821	0.072376	0.001934	37.4182	166.6	-163.508	-0.065463	0.457872	-0.619159	-0.620413	-0.062357	37.4182	-0.617909	-1.468546E+8	4.246205E-10	NaN
620	1.000000	0.467153	7.37112e+06	-46089.1	1005.82	-29770.3	0.000000	0.000000	6.466931	-0.036937	NaN	0.000000	0.001526	0.001740	28.0821	0.073156	0.002126	34.407	-138.183	-164.781	0.023734	0.465839	-0.611132	-0.612445	-0.036937	34.407	-0.610326	-1.155062E+8	3.197869E-10	NaN
620	1.000000	0.475158	7.37112e+06	-46089.1	1005.82	-29770.3	0.000000	0.000000	6.474938	0.019915	NaN	0.000000	0.001503	0.001735	28.082	0.084833	0.001935	43.8472	74.9368	-165.889	-0.017717	0.473815	-0.603127	-0.604470	0.019915	43.8472	-0.603467	-9.294091E+7	-2.142805E-10	NaN
620	1.000000	0.483143	7.37112e+06	-46089.1	1005.82	-29770.3	0.000000	0.000000	6.482925	0.051001	NaN	0.000000	0.001519	0.001761	28.0821	0.030574	0.002059	14.8477	152.253	-163.293	0.057350	0.481805	-0.595141	-0.596480	0.051001	14.8477	-0.597718	-7.745025E+7	-6.584949E-10	NaN
620	1.000000	0.491151	7.37112e+06	-46089.1	1005.82	-29770.3	0.000000	0.000000	6.490929	-0.034095	NaN	0.000000	0.001514	0.001756	28.0821	0.056654	0.001998	28.3568	-81.6229	-164.547	-0.042242	0.489799	-0.587134	-0.588485	-0.034095	28.3568	-0.586232	-5.379046E+7	6.338449E-10	NaN
620	1.000000	0.499146	7.37112e+06	-46089.1	1005.82	-29770.3	0.000000	0.000000	6.498922	-0.076110	NaN	0.000000	0.001493	0.001739	28.082	0.063703	0.002003	31.8061	-105.614	-164.324	-0.100713	0.497836	-0.579139	-0.580449	-0.076110	31.8061	-0.577344	-4.055670E+7	1.876641E-9	NaN
620	1.000000	0.507121	7.37112e+06	-46089.1	1005.82	-29770.3	0.000000	0.000000	6.506898	-0.069479	NaN	0.000000	0.001534	0.001710	28.0822	0.028825	0.001860	15.4956	120.366	-164.997	-0.101879	0.505868	-0.571164	-0.572417	-0.069479	15.4956	-0.567801	-2.993929E+7	2.320653E-9	NaN
620	1.000000	0.515153	7.37112e+06	-46089.1	1005.82	-29770.3	0.000000	0.000000	6.514935	0.071219	NaN	0.000000	0.001557	0.001778	28.0832	0.009146	0.002058	4.444173	-57.7836	-163.236	0.019592	0.513815	-0.563132	-0.564470	0.071219	4.444173	-0.575151	-3.782545E+7	-1.882835E-9	NaN
620	1.000000	0.523172	7.37112e+06	-46089.1	1005.82	-29770.3	0.000000	0.000000	6.522950	-0.011204	NaN	0.000000	0.001577	0.001734	28.0835	0.082554	0.001998	41.3278	-87.2104	-167.284	0.037039	0.521850	-0.555113	-0.556435	-0.011204	41.3278	-0.554910	-1.985827E+7	5.642126E-10	NaN
620	1.000000	0.531164	7.37112e+06	-46089.1	1005.82	-29770.3	0.000000	0.000000	6.530942	-0.028883	NaN	0.000000	0.001514	0.001775	28.0835	0.080083	0.001888	42.4101	-4.973626	-166.736	-0.051738	0.529892	-0.547120	-0.548393	-0.028883	42.4101	-0.546610	-1.524007E+7	1.895202E-9	NaN
620	1.000000	0.539172	7.37112e+06	-46089.1	1005.82	-29770.3	0.000000	0.000000	6.538952	0.016039	NaN	0.000000	0.001503	0.001757	28.0838	0.133399	0.002198	60.6779	-85.6859	-165.765	-0.025737	0.537891	-0.539113	-0.540394	0.016039	60.6779	-0.539311	-1.207253E+7	-1.328518E-9	NaN
620	1.000000	0.547164	7.37112e+06	-46089.1	1005.82	-29770.3	0.000000	0.000000	6.546943	-0.029465	NaN	0.000000	0.001528	0.001756	28.0835	0.066201	0.001897	34.9015	-60.4096	-164.334	0.065265	0.545814	-0.531120	-0.532471	-0.029465	34.9015	-0.530487	-9.10627e+06	3.235714E-9	NaN
620	1.000000	0.555189	7.37112e+06	-46089.1	1005.82	-29770.3	0.000000	0.000000	6.554971	0.052098	NaN	0.000000	0.001519	0.001730	28.0835	0.046572	0.001861	25.0216	-108.058	-166.191	0.086174	0.553907	-0.523095	-0.524378	0.052098	25.0216	-0.524657	-7.5569e+06	-6.894064E-9	NaN
620	1.000000	0.563188	7.37112e+06	-46089.1	1005.82	-29770.3	0.000000	0.000000	6.562966	-0.026103	NaN	0.000000	0.001546	0.001698	28.0835	0.021293	0.002086	10.2077	87.6112	-165.991	0.020113	0.561832	-0.515097	-0.516452	-0.026103	10.2077	-0.513179	-5.23223e+06	4.988909E-9	NaN
620	1.000000	0.571179	7.37112e+06	-46089.1	1005.82	-29770.3	0.000000	0.000000	6.570954	-0.104350	NaN	0.000000	0.001530	0.001769	28.0837	0.046791	0.001928	24.2748	169.141	-165.771	-0.071024	0.569880	-0.507106	-0.508405	-0.104350	24.2748	-0.503882	-3.88292e+06	2.687407E-8	NaN
620	1.000000	0.579206	7.37112e+06	-46089.1	1005.82	-29770.3	0.000000	0.000000	6.578986	0.013532	NaN	0.000000	0.001520	0.001717	28.0838	0.010042	0.001969	5.100025	-145.74	-164.986	0.037262	0.577875	-0.499079	-0.500410	0.013532	5.100025	-0.501069	-3.54752e+06	-3.814546E-9	NaN
620	1.000000	0.587173	7.37112e+06	-46089.1	1005.82	-29770.3	0.000000	0.000000	6.586954	0.029559	NaN	0.000000	0.001550	0.001705	28.0837	0.137380	0.002081	66.0251	-129.161	-163.678	0.000494	0.585884	-0.491111	-0.492400	0.029559	66.0251	-0.491447	-2.60382e+06	-1.135198E-8	NaN
620	1.000000	0.595204	7.37112e+06	-46089.1	1005.82	-29770.3	0.000000	0.000000	6.594983	-0.014955	NaN	0.000000	0.001546	0.001727	28.0838	0.166449	0.002022	82.3256	-37.464	-168.65	-0.000186	0.593923	-0.483081	-0.484362	-0.014955	82.3256	-0.482945	-1.98034e+06	7.551567E-9	NaN
620	1.000000	0.603177	7.37112e+06	-46089.1	1005.82	-29770.3	0.000000	0.000000	6.602958	0.031204	NaN	0.000000	0.001500	0.001733	28.0836	0.025574	0.001971	12.9725	33.375	-165.93	0.046205	0.601849	-0.475107	-0.476435	0.031204	12.9725	-0.476911	-1.63034e+06	-1.913934E-8	NaN
620	1.000000	0.611205	7.37112e+06	-46089.1	1005.82	-29770.3	0.000000	0.000000	6.610982	-0.059374	NaN	0.000000	0.001511	0.001732	28.0836	0.060421	0.002064	29.2728	-111.335	-165.012	-0.095042	0.609919	-0.467080	-0.468366	-0.059374	29.2728	-0.465559	-1.13003e+06	5.254224E-8	NaN
620	1.000000	0.619221	7.37112e+06	-46089.1	1005.82	-29770.3	0.000000	0.000000	6.619001	0.004359	NaN	0.000000	0.001501	0.001758	28.0836	0.191461	0.001907	100.386	-45.542	-165.163	0.046552	0.617914	-0.459063	-0.460371	0.004359	100.386	-0.459096	-916882	-4.753805E-9	NaN
620	1.000000	0.627213	7.37112e+06	-46089.1	1005.82	-29770.3	0.000000	0.000000	6.626991	-0.039298	NaN	0.000000	0.001495	0.001745	28.0837	0.061138	0.001878	32.5555	92.1727	-163.285	0.026040	0.625913	-0.451072	-0.452372	-0.039298	32.5555	-0.450167	-686578	5.723739E-8	NaN
620	1.000000	0.635200	7.37112e+06	-46089.1	1005.82	-29770.3	0.000000	0.000000	6.634977	-0.041390	NaN	0.000000	0.001470	0.001753	28.0837	0.064857	0.002101	30.8639	-53.9756	-162.113	-0.005917	0.633910	-0.443085	-0.444375	-0.041390	30.8639	-0.442079	-528086	7.837650E-8	NaN
620	1.000000	0.643223	7.37112e+06	-46089.1	1005.82	-29770.3	0.000000	0.000000	6.643000	-0.064637	NaN	0.000000	0.001524	0.001737	28.0833	0.124252	0.001916	64.8477	-170.741	-166.149	-0.002721	0.641908	-0.435062	-0.436377	-0.064637	64.8477	-0.434314	-410263	1.575501E-7	NaN
620	1.000000	0.651230	7.37112e+06	-46089.1	1005.82	-29770.3	0.000000	0.000000	6.651007	-0.058027	NaN	0.000000	0.001494	0.001730	28.0826	0.096343	0.001913	50.3723	129.054	-165.903	-0.019832	0.649883	-0.427055	-0.428402	-0.058027	50.3723	-0.426191	-314883	1.842805E-7	NaN
620	1.000000	0.659252	7.37112e+06	-46089.1	1005.82	-29770.3	0.000000	0.000000	6.659030	-0.024610	NaN	0.000000	0.001483	0.001771	28.0822	0.041242	0.001964	20.9964	-133.511	-165.373	0.014160	0.657898	-0.419033	-0.420387	-0.024610	20.9964	-0.418154	-242229	1.015966E-7	NaN
620	1.000000	0.667255	7.37112e+06	-46089.1	1005.82	-29770.3	0.000000	0.000000	6.667037	0.051086	NaN	0.000000	0.001512	0.001744	28.0824	0.049441	0.002011	24.5822	112.43	-168.585	-0.021071	0.665948	-0.411030	-0.412336	0.051086	24.5822	-0.412588	-201928	-2.529910E-7	NaN
620	1.000000	0.675239	7.37112e+06	-46089.1	1005.82	-29770.3	0.000000	0.000000	6.675019	0.017478	NaN	0.000000	0.001540	0.001697	28.0823	0.054031	0.001881	28.7289	-96.8856	-167.241	0.036753	0.673931	-0.403046	-0.404354	0.017478	28.7289	-0.403502	-149937	-1.165662E-7	NaN
620	1.000000	0.683232	7.37112e+06	-46089.1	1005.82	-29770.3	0.000000	0.000000	6.683008	-0.082728	NaN	0.000000	0.001536	0.001718	28.0822	0.010509	0.002045	5.139068	-147.94	-164.956	-0.020446	0.681953	-0.395053	-0.396332	-0.082728	5.139068	-0.382979	-76317.2	1.084000E-6	NaN
620	1.000000	0.691263	7.37112e+06	-46089.1	1005.82	-29770.3	0.000000	0.000000	6.691044	0.044801	NaN	0.000000	0.001508	0.001711	28.0825	0.057143	0.002063	27.6992	-26.5867	-164.646	0.014240	0.689886	-0.387022	-0.388398	0.044801	27.6992	-0.388235	-90763.6	-4.935955E-7	NaN
620	1.000000	0.699221	7.37112e+06	-46089.1	1005.82	-29770.3	0.000000	0.000000	6.698999	-0.044611	NaN	0.000000	0.001578	0.001684	28.082	0.080353	0.001997	40.2332	-52.4835	-169.633	-0.044909	0.697912	-0.379063	-0.380372	-0.044611	40.2332	-0.378232	-65238.6	6.838084E-7	NaN
620	1.000000	0.707239	7.37112e+06	-46089.1	1005.82	-29770.3	0.000000	0.000000	6.707019	0.016521	NaN	0.000000	0.001576	0.001720	28.0822	0.106445	0.001986	53.6072	-105.378	-164.179	0.019392	0.705921	-0.371046	-0.372363	0.016521	53.6072	-0.371277	-51822.4	-3.188067E-7	NaN
620	1.000000	0.715253	7.37112e+06	-46089.1	1005.82	-29770.3	0.000000	0.000000	6.715032	0.001208	NaN	0.000000	0.001535	0.001740	28.0822	0.073119	0.002058	35.5288	-98.0079	-161.56	0.014972	0.713934	-0.363032	-0.364351	0.001208	35.5288	-0.363058	-39447.6	-3.061821E-8	NaN
620	1.000000	0.723272	7.37112e+06	-46089.1	1005.82	-29770.3	0.000000	0.000000	6.723054	0.076166	NaN	0.000000	0.001555	0.001714	28.0821	0.074575	0.002115	35.2602	-102.476	-163.251	0.051361	0.721952	-0.355013	-0.356333	0.076166	35.2602	-0.356633	-31852.5	-2.391207E-6	NaN
620	1.000000	0.731249	7.37112e+06	-46089.1	1005.82	-29770.3	0.000000	0.000000	6.731028	-0.010183	NaN	0.000000	0.001507	0.001764	28.0824	0.059916	0.002100	28.5379	162.375	-166.925	-0.031085	0.729958	-0.347036	-0.348327	-0.010183	28.5379	-0.346768	-22912.1	4.444269E-7	NaN
620	1.000000	0.739245	7.37112e+06	-46089.1	1005.82	-29770.3	0.000000	0.000000	6.739024	-0.012911	NaN	0.000000	0.001494	0.001688	28.0821	0.136289	0.002166	62.9167	-115.775	-166.611	-0.019924	0.737961	-0.339040	-0.340324	-0.012911	62.9167	-0.338886	-17591.8	7.339370E-7	NaN
620	1.000000	0.747269	7.37112e+06	-46089.1	1005.82	-29770.3	0.000000	0.000000	6.747048	-0.010972	NaN	0.000000	0.001503	0.001696	28.0822	0.042045	0.002115	19.8814	-80.1028	-166.509	-0.015978	0.745934	-0.331015	-0.332351	-0.010972	19.8814	-0.330602	-13312.5	8.241876E-7	NaN
620	1.000000	0.755256	7.37112e+06	-46089.1	1005.82	-29770.3	0.000000	0.000000	6.755037	0.042809	NaN	0.000000	0.001579	0.001677	28.0823	0.100663	0.002050	49.1021	77.9636	-162.648	0.025420	0.753898	-0.323029	-0.324387	0.042809	49.1021	-0.323683	-10538.8	-4.062042E-6	NaN
620	1.000000	0.763299	7.37112e+06	-46089.1	1005.82	-29770.3	0.000000	0.000000	6.763077	-0.027908	NaN	0.000000	0.001575	0.001710	28.0824	0.051692	0.001963	26.3286	-64.9938	-164.8	-0.073143	0.761954	-0.314986	-0.316331	-0.027908	26.3286	-0.314191	-7638.44	3.653637E-6	NaN
620	1.000000	0.771280	7.37112e+06	-46089.1	1005.82	-29770.3	0.000000	0.000000	6.771059	-0.030084	NaN	0.000000	0.001561	0.001666	28.0825	0.100352	0.002048	48.9883	-112.056	-163.951	0.047620	0.769955	-0.307004	-0.308330	-0.030084	48.9883	-0.306544	-5886.49	5.110659E-6	NaN
620	1.000000	0.779247	7.37112e+06	-46089.1	1005.82	-29770.3	0.000000	0.000000	6.779026	-0.014849	NaN	0.000000	0.001577	0.001690	28.0823	0.103526	0.002146	48.2509	161.323	-165.229	0.049777	0.777979	-0.299038	-0.300305	-0.014849	48.2509	-0.298807	-4517.22	3.287264E-6	NaN
620	1.000000	0.787272	7.37112e+06	-46089.1	1005.82	-29770.3	0.000000	0.000000	6.787050	-0.020377	NaN	0.000000	0.001536	0.001725	28.0838	0.103423	0.001927	53.66	-53.1092	-165.552	0.015570	0.785991	-0.291013	-0.292293	-0.020377	53.66	-0.290728	-3421.46	5.955633E-6	NaN
620	1.000000	0.795304	7.37112e+06	-46089.1	1005.82	-29770.4	0.000000	0.000000	6.795084	0.017614	NaN	0.000000	0.001597	0.001683	28.0835	0.031071	0.002064	15.0541	-36.9433	-170.152	0.035142	0.793940	-0.282981	-0.284344	0.017614	15.0541	-0.283858	-2698.33	-6.527901E-6	NaN
620	1.000000	0.803282	7.37112e+06	-46089.1	1005.82	-29770.4	0.000000	0.000000	6.803061	-0.003948	NaN	0.000000	0.001542	0.001716	28.0836	0.063114	0.001950	32.3608	-69.2148	-165.002	-0.045808	0.802003	-0.275003	-0.276282	-0.003948	32.3608	-0.274911	-1977.22	1.996763E-6	NaN
620	1.000000	0.811281	7.37112e+06	-46089.1	1005.82	-29770.4	0.000000	0.000000	6.811061	0.024473	NaN	0.000000	0.001547	0.001691	28.0837	0.054403	0.001911	28.4658	51.751	-163.873	0.019314	0.809937	-0.267004	-0.268348	0.024473	28.4658	-0.267649	-1533.8	-1.595570E-5	NaN
620	1.000000	0.819291	7.37112e+06	-46089.1	1005.82	-29770.4	0.000000	0.000000	6.819072	0.038067	NaN	0.000000	0.001638	0.001696	28.0836	0.083276	0.001970	42.2635	104.2	-162.283	-0.032084	0.818000	-0.258994	-0.260284	0.038067	42.2635	-0.259669	-1158.36	-3.286252E-5	NaN
620	1.000000	0.827302	7.37112e+06	-46089.1	1005.82	-29770.4	0.000000	0.000000	6.827081	-0.004604	NaN	0.000000	0.001600	0.001674	28.0836	0.063472	0.002091	30.3511	-137.53	-164.253	-0.052651	0.826000	-0.250983	-0.252285	-0.004604	30.3511	-0.250869	-848.015	5.428935E-6	NaN
620	1.000000	0.835275	7.37112e+06	-46089.1	1005.82	-29770.4	0.000000	0.000000	6.835056	0.024198	NaN	0.000000	0.001598	0.001717	28.0836	0.090337	0.002069	43.6569	160.486	-165.068	0.001621	0.834023	-0.243009	-0.244262	0.024198	43.6569	-0.243425	-650.069	-3.722439E-5	NaN
620	1.000000	0.843311	7.37112e+06	-46089.1	1005.82	-29770.4	0.000000	0.000000	6.843092	0.047411	NaN	0.000000	0.001581	0.001684	28.0836	0.032252	0.001971	16.3652	32.9289	-164.833	0.015239	0.841992	-0.234974	-0.236293	0.047411	16.3652	-0.237146	-518.697	-9.140329E-5	NaN
620	1.000000	0.851297	7.37112e+06	-46089.1	1005.82	-29770.4	0.000000	0.000000	6.851075	-0.034007	NaN	0.000000	0.001547	0.001675	28.0839	0.057299	0.002038	28.1161	-158.201	-163.717	-0.018016	0.850011	-0.226987	-0.228274	-0.034007	28.1161	-0.226080	-347.121	9.796791E-5	NaN
620	1.000000	0.859330	7.37112e+06	-46089.1	1005.82	-29770.4	0.000000	0.000000	6.859110	-0.005075	NaN	0.000000	0.001563	0.001720	28.0839	0.068071	0.001998	34.0633	0.076374	-166.326	0.027764	0.857992	-0.218954	-0.220293	-0.005075	34.0633	-0.218843	-266.174	1.906593E-5	NaN
620	1.000000	0.867307	7.37112e+06	-46089.1	1005.82	-29770.4	0.000000	0.000000	6.867085	-0.014945	NaN	0.000000	0.001578	0.001698	28.0836	0.102776	0.001909	53.8502	-28.2274	-164.753	0.026217	0.865922	-0.210978	-0.212363	-0.014945	53.8502	-0.210770	-197.371	7.572259E-5	NaN
620	1.000000	0.875292	7.37112e+06	-46089.1	1005.82	-29770.4	0.000000	0.000000	6.875069	-0.043224	NaN	0.000000	0.001559	0.001702	28.0835	0.057752	0.001908	30.2687	105.203	-168.701	-0.059678	0.873991	-0.202993	-0.204294	-0.043224	30.2687	-0.201922	-141.658	0.000305	NaN
620	1.000000	0.883328	7.37112e+06	-46089.1	1005.82	-29770.4	0.000000	0.000000	6.883108	0.007050	NaN	0.000000	0.001562	0.001697	28.0838	0.043655	0.002063	21.1605	37.031	-165.644	0.021415	0.882005	-0.194957	-0.196280	0.007050	21.1605	-0.195206	-109.805	-6.420204E-5	NaN
620	1.000000	0.891342	7.37112e+06	-46089.1	1005.82	-29770.4	0.000000	0.000000	6.891121	-0.020454	NaN	0.000000	0.001540	0.001692	28.0837	0.043041	0.002071	20.7873	-55.5453	-167.423	-0.082987	0.890001	-0.186942	-0.188284	-0.020454	20.7873	-0.186204	-77.698	0.000263	NaN
620	1.000000	0.899315	7.37112e+06	-46089.1	1005.82	-29770.4	0.000000	0.000000	6.899093	-0.037168	NaN	0.000000	0.001532	0.001643	28.0839	0.062459	0.002012	31.0373	-136.481	-165.937	-0.058073	0.898023	-0.178970	-0.180262	-0.037168	31.0373	-0.178072	-56.5712	0.000657	NaN
620	1.000000	0.907320	7.37112e+06	-46089.1	1005.82	-29770.4	0.000000	0.000000	6.907099	-0.011027	NaN	0.000000	0.001534	0.001690	28.0836	0.120533	0.002091	57.6433	107.383	-168.616	-0.056684	0.905986	-0.170965	-0.172299	-0.011027	57.6433	-0.170822	-42.4492	0.000260	NaN
620	1.000000	0.915328	7.37112e+06	-46089.1	1005.82	-29770.4	0.000000	0.000000	6.915107	1.935638E-5	NaN	0.000000	0.001537	0.001700	28.0839	0.075864	0.002110	35.9484	145.765	-163.682	0.016554	0.914021	-0.162957	-0.164263	1.935638E-5	35.9484	-0.162957	-30.9277	-6.258595E-7	NaN
620	1.000000	0.923336	7.37112e+06	-46089.1	1005.82	-29770.4	0.000000	0.000000	6.923113	-0.048957	NaN	0.000000	0.001556	0.001736	28.0828	0.040327	0.002080	19.3842	50.9813	-165.256	-0.011205	0.921964	-0.154949	-0.156321	-0.048957	19.3842	-0.153055	-20.5819	0.002379	NaN
620	1.000000	0.931315	7.37112e+06	-46089.1	1005.82	-29770.4	0.000000	0.000000	6.931095	0.006405	NaN	0.000000	0.001572	0.001689	28.0824	0.053155	0.001948	27.2811	174.356	-162.688	-0.084421	0.930028	-0.146970	-0.148257	0.006405	27.2811	-0.147146	-16.0598	-0.000399	NaN
620	1.000000	0.939294	7.37112e+06	-46089.1	1005.82	-29770.4	0.000000	0.000000	6.939074	0.024312	NaN	0.000000	0.001615	0.001712	28.0825	0.080321	0.001926	41.7121	-158.402	-164.612	0.105888	0.938041	-0.138991	-0.140244	0.024312	41.7121	-0.139428	-11.5403	-0.002107	NaN
620	1.000000	0.947333	7.37112e+06	-46089.1	1005.82	-29770.4	0.000000	0.000000	6.947113	0.011937	NaN	0.000000	0.001585	0.001715	28.0824	0.051145	0.002108	24.2617	-106.743	-165.79	0.020940	0.946085	-0.130952	-0.132200	0.011937	24.2617	-0.131321	-8.083611	-0.001477	NaN
620	1.000000	0.955349	7.37112e+06	-46089.1	1005.82	-29770.4	0.000000	0.000000	6.955128	-0.003274	NaN	0.000000	0.001562	0.001730	28.0825	0.104751	0.001981	52.8884	-0.394138	-166.229	0.086023	0.954084	-0.122936	-0.124200	-0.003274	52.8884	-0.122889	-5.521454	0.000593	NaN
620	1.000000	0.963353	7.37112e+06	-46089.1	1005.82	-29770.4	0.000000	0.000000	6.963132	-0.011041	NaN	0.000000	0.001611	0.001712	28.0825	0.011759	0.002130	5.521838	130.925	-166.002	0.038608	0.962025	-0.114931	-0.116260	-0.011041	5.521838	-0.113432	-3.545411	0.003114	NaN
620	1.000000	0.971336	7.37112e+06	-46089.1	1005.82	-29770.4	0.000000	0.000000	6.971112	-0.068555	NaN	0.000000	0.001592	0.001722	28.0825	0.032337	0.002016	16.0438	-62.102	-167.093	-0.050170	0.970012	-0.106949	-0.108273	-0.068555	16.0438	-0.103744	-2.207800	0.031051	NaN
620	1.000000	0.979340	7.37112e+06	-46089.1	1005.82	-29770.4	0.000000	0.000000	6.979118	-0.033781	NaN	0.000000	0.001585	0.001703	28.0833	0.016102	0.002082	7.732836	-132.812	-162.589	-0.021965	0.978026	-0.098945	-0.100259	-0.033781	7.732836	-0.095668	-1.460881	0.023124	NaN
620	1.000000	0.987349	7.37112e+06	-46089.1	1005.82	-29770.4	0.000000	0.000000	6.987130	0.022925	NaN	0.000000	0.001584	0.001736	28.0825	0.054931	0.001986	27.6626	-32.0946	-168.609	0.008932	0.986064	-0.090936	-0.092221	0.022925	27.6626	-0.091557	-1.175388	-0.019504	NaN
620	1.000000	0.995382	7.37112e+06	-46089.1	1005.82	-29770.4	0.000000	0.000000	6.995162	0.018537	NaN	0.000000	0.001597	0.001719	28.0828	0.101494	0.001921	52.8347	161.221	-163.987	-0.023580	0.994028	-0.082903	-0.084257	0.018537	52.8347	-0.083166	-0.741350	-0.025004	NaN
620	1.000000	1.003372	7.37112e+06	-46089.1	1005.82	-29770.4	0.000000	0.000000	7.003149	-0.051364	NaN	0.000000	0.001574	0.001685	28.0826	0.087703	0.001884	46.5403	-99.0534	-166.889	-0.028467	1.002069	-0.074913	-0.076216	-0.051364	46.5403	-0.074085	-0.437302	0.117457	NaN
620	1.000000	1.011354	7.37112e+06	-46089.1	1005.82	-29770.4	0.000000	0.000000	7.011132	-0.024336	NaN	0.000000	0.001554	0.001684	28.0823	0.059759	0.001955	30.5715	88.5969	-169.242	-0.033483	1.010027	-0.066931	-0.068258	-0.024336	30.5715	-0.066334	-0.271270	0.089713	NaN
620	1.000000	1.019383	7.37112e+06	-46089.1	1005.82	-29770.4	0.000000	0.000000	7.019161	-0.025484	NaN	0.000000	0.001568	0.001692	28.0825	0.065056	0.002124	30.6238	-80.4923	-166.536	-0.072612	1.018099	-0.058902	-0.060185	-0.025484	30.6238	-0.058278	-0.160626	0.158652	NaN
620	1.000000	1.027367	7.37112e+06	-46089.1	1005.82	-29770.4	0.000000	0.000000	7.027145	-0.035850	NaN	0.000000	0.001593	0.001652	28.0823	0.068404	0.001961	34.8824	72.0831	-163.115	-0.017475	1.026020	-0.050918	-0.052265	-0.035850	34.8824	-0.050147	-0.092189	0.388872	NaN
620	1.000000	1.035389	7.37112e+06	-46089.1	1005.82	-29770.4	0.000000	0.000000	7.035167	-0.038109	NaN	0.000000	0.001559	0.001715	28.0826	0.125291	0.001882	66.5699	-54.7588	-163.747	0.012629	1.034115	-0.042895	-0.044170	-0.038109	66.5699	-0.042466	-0.053766	0.708797	NaN
620	1.000000	1.043379	7.37112e+06	-46089.1	1005.82	-29770.4	0.000000	0.000000	7.043161	0.061646	NaN	0.000000	0.001586	0.001688	28.0823	0.057724	0.001968	29.3313	-26.0973	-161.82	0.046207	1.042105	-0.034906	-0.036179	0.061646	29.3313	-0.036482	-0.035432	-1.739816	NaN
620	1.000000	1.051396	7.37112e+06	-46089.1	1005.82	-29770.4	0.000000	0.000000	7.051175	-0.010728	NaN	0.000000	0.001584	0.001713	28.083	0.083430	0.002089	39.947	63.3497	-162.902	-0.081471	1.050071	-0.026889	-0.028214	-0.010728	39.947	-0.026688	-0.018692	0.573908	NaN
620	1.000000	1.059395	7.37112e+06	-46089.1	1005.82	-29770.4	0.000000	0.000000	7.059174	-0.006240	NaN	0.000000	0.001561	0.001687	28.0837	0.069709	0.001807	38.5838	-31.095	-164.36	-0.025147	1.058038	-0.018889	-0.020247	-0.006240	38.5838	-0.018768	-0.011683	0.534091	NaN
620	1.000000	1.067388	7.37112e+06	-46089.1	1005.82	-29770.4	0.000000	0.000000	7.067167	-0.012450	NaN	0.000000	0.001581	0.001729	28.0837	0.084697	0.002099	40.3583	-50.2422	-165.801	-0.028480	1.066109	-0.010897	-0.012175	-0.012450	40.3583	-0.010665	-0.006767	1.839815	NaN
620	1.000000	1.075366	7.37112e+06	-46089.1	1005.82	-29770.4	0.000000	0.000000	7.075170	0.616431	NaN	0.000000	0.001550	0.001747	28.0837	0.925995	0.002146	431.4	13.0281	-165.787	0.090940	1.074013	-0.002919	-0.004272	0.616431	431.4	-0.003991	-0.002773	-222.307	NaN
620	2.000000	1.082779	7.37112e+06	-46089.1	1005.82	-29770.4	0.000000	0.000000	7.082955	9.655175	NaN	0.000000	0.001596	0.001731	28.0836	8.324270	0.001712	4862.41	8.597810	-171.309	8.396025	1.082031	0.004494	0.003746	9.655175	4862.41	0.003004	0.002384	4050.48	90990.8
620	2.000000	1.084940	7.37112e+06	-46089.1	1005.82	-29770.4	0.000000	0.000000	7.085288	13.8404	NaN	0.000000	0.001578	0.001736	28.0838	10.2267	0.001613	6339.14	7.998845	-174.59	13.2695	1.084562	0.006655	0.006277	13.8404	6339.14	0.005018	0.004149	3335.5	89910.4
620	2.000000	1.086900	7.37112e+06	-46089.1	1005.82	-29770.4	0.000000	0.000000	7.087363	16.641	NaN	0.000000	0.001558	0.001746	28.0834	12.8666	0.001795	7167.92	6.911223	-173.26	16.2078	1.086568	0.008615	0.008284	16.641	7167.92	0.006874	0.005909	2816.08	85192.1
620	2.000000	1.088930	7.37112e+06	-46089.1	1005.82	-29770.4	0.000000	0.000000	7.089661	23.161	NaN	0.000000	0.001581	0.001769	28.0834	14.8644	0.001669	8904.53	3.740878	-172.181	22.104	1.088601	0.010645	0.010316	23.161	8904.53	0.008694	0.007766	2982.38	92318.1
620	2.000000	1.090895	7.37112e+06	-46089.1	1005.82	-29770.4	0.000000	0.000000	7.091772	26.7118	NaN	0.000000	0.001577	0.001750	28.0833	16.7331	0.001659	10087	6.087524	-176.334	26.8688	1.090580	0.012610	0.012295	26.7118	10087	0.010624	0.009883	2702.72	92700.9
620	2.000000	1.092825	7.37112e+06	-46089.1	1005.82	-29770.4	0.000000	0.000000	7.093860	30.5326	NaN	0.000000	0.001556	0.001760	28.0834	19.6995	0.001790	11003.2	5.218487	-176.064	28.3854	1.092504	0.014540	0.014220	30.5326	11003.2	0.012459	0.012045	2534.95	91599.7
620	2.000000	1.094831	7.37112e+06	-46089.1	1005.82	-29770.4	0.000000	0.000000	7.096086	35.9045	NaN	0.000000	0.001601	0.001717	28.0837	21.1854	0.001724	12289.6	8.570065	179.552	34.5316	1.094532	0.016546	0.016247	35.9045	12289.6	0.014355	0.014435	2487.39	93456.5
620	2.000000	1.096825	7.37112e+06	-46089.1	1005.82	-29770.4	0.000000	0.000000	7.098248	39.9822	NaN	0.000000	0.001588	0.001742	28.0834	23.4301	0.001794	13063.1	4.671103	-176.923	39.0005	1.096612	0.018540	0.018328	39.9822	13063.1	0.016245	0.016982	2354.45	91586.4
620	2.000000	1.098888	7.37112e+06	-46089.1	1005.82	-29770.4	0.000000	0.000000	7.100591	46.7922	NaN	0.000000	0.001491	0.001746	28.0837	25.4443	0.001796	14168.7	5.668496	-177.351	47.0699	1.098537	0.020603	0.020252	46.7922	14168.7	0.018127	0.019683	2377.24	92268.5
620	2.000000	1.100822	7.37112e+06	-46089.1	1005.82	-29770.4	0.000000	0.000000	7.102662	50.1034	NaN	0.000000	0.001501	0.001723	28.0833	26.9313	0.001765	15256.2	3.597271	-177.304	48.5344	1.100526	0.022538	0.022241	50.1034	15256.2	0.020075	0.022660	2211.13	92596.5
620	2.000000	1.102819	7.37112e+06	-46089.1	1005.82	-29770.4	0.000000	0.000000	7.104863	55.0862	NaN	0.000000	0.001506	0.001746	28.0834	29.6398	0.001808	16397.7	1.974475	-177.351	53.01	1.102610	0.024535	0.024325	55.0862	16397.7	0.022015	0.025808	2134.46	93256.4
620	2.000000	1.104796	7.37112e+06	-46089.1	1005.82	-29770.4	0.000000	0.000000	7.107246	64.9559	NaN	0.000000	0.001510	0.001737	28.0837	29.9564	0.001642	18246.7	0.578423	-177.073	62.5449	1.104514	0.026512	0.026229	64.9559	18246.7	0.023842	0.028942	2244.34	97992.5
620	2.000000	1.106771	7.37112e+06	-46089.1	1005.82	-29770.4	0.000000	0.000000	7.109294	66.7345	NaN	0.000000	0.001530	0.001738	28.0834	34.2233	0.001772	19312.7	6.552221	176.898	64.6009	1.106540	0.028486	0.028255	66.7345	19312.7	0.025895	0.032663	2043.1	97630.3
620	2.000000	1.108861	7.37112e+06	-46089.1	1005.82	-29770.4	0.000000	0.000000	7.111671	73.7173	NaN	0.000000	0.001542	0.001746	28.0838	35.7463	0.001712	20883.2	4.726711	178.774	72.044	1.108473	0.030576	0.030188	73.7173	20883.2	0.027929	0.036560	2016.32	99785.1
620	2.000000	1.110787	7.37112e+06	-46089.1	1005.82	-29770.4	0.000000	0.000000	7.113829	79.3805	NaN	0.000000	0.001524	0.001777	28.0821	37.3663	0.001847	20230	3.482898	-179.762	77.7858	1.110469	0.032502	0.032184	79.3805	20230	0.029559	0.039835	1992.74	92605.7
620	2.000000	1.112786	7.37112e+06	-46089.1	1005.82	-29770.4	0.000000	0.000000	7.116205	88.528	NaN	0.000000	0.001556	0.001773	28.0824	39.7739	0.001869	21277.3	7.967038	175.066	86.6241	1.112464	0.034502	0.034179	88.528	21277.3	0.031381	0.043655	2027.91	93040.6
620	2.000000	1.114804	7.37112e+06	-46089.1	1005.82	-29770.4	0.000000	0.000000	7.118576	97.1246	NaN	0.000000	0.001558	0.001766	28.0829	41.0845	0.001891	21729.4	5.512434	178.035	95.7653	1.114513	0.036520	0.036228	97.1246	21729.4	0.033167	0.047565	2041.94	91028.5
620	2.000000	1.116829	7.37112e+06	-46089.1	1005.82	-29770.4	0.000000	0.000000	7.120927	105.044	NaN	0.000000	0.001535	0.001762	28.0821	42.9684	0.001849	23238.5	4.897421	178.282	105.291	1.116435	0.038545	0.038150	105.044	23238.5	0.035154	0.052106	2015.95	93011.5
620	2.000000	1.118756	7.37112e+06	-46089.1	1005.82	-29770.4	0.000000	0.000000	7.123204	113.559	NaN	0.000000	0.001559	0.001774	28.0826	45.1211	0.001714	26330.3	6.048084	175.071	110.259	1.118477	0.040471	0.040193	113.559	26330.3	0.037237	0.057082	1989.41	100689
620	2.000000	1.120812	7.37112e+06	-46089.1	1005.82	-29770.4	0.000000	0.000000	7.125674	123.627	NaN	0.000000	0.001563	0.001766	28.082	45.7569	0.001751	26128.4	2.462088	179.359	122.087	1.120486	0.042527	0.042201	123.627	26128.4	0.038979	0.061416	2012.97	96326.8
620	2.000000	1.122756	7.37112e+06	-46089.1	1005.82	-29770.4	0.000000	0.000000	7.128074	134.733	NaN	0.000000	0.001554	0.001713	28.0822	49.1028	0.001730	28375.1	6.267678	174.379	132.065	1.122482	0.044472	0.044197	134.733	28375.1	0.040910	0.066402	2029.04	100605
620	2.000000	1.124783	7.37112e+06	-46089.1	1005.82	-29770.4	0.000000	0.000000	7.130405	142.116	NaN	0.000000	0.001531	0.001786	28.0821	49.786	0.001724	28873.5	6.038365	174.442	139.724	1.124486	0.046498	0.046201	142.116	28873.5	0.042807	0.071483	1988.12	98667.1
620	2.000000	1.126761	7.37112e+06	-46089.1	1005.82	-29770.4	0.000000	0.000000	7.132740	150.801	NaN	0.000000	0.001541	0.001775	28.082	53.2893	0.001840	28962.5	3.436602	176.635	148.862	1.126409	0.048477	0.048124	150.801	28962.5	0.044572	0.076376	1974.46	95748.4
620	2.000000	1.128730	7.37112e+06	-46089.1	1005.82	-29770.4	0.000000	0.000000	7.134934	156.288	NaN	0.000000	0.001532	0.001764	28.0823	55.5483	0.001755	31649.4	6.203224	172.778	153.204	1.128533	0.050445	0.050248	156.288	31649.4	0.046741	0.082607	1891.94	100607
620	2.000000	1.130790	7.37112e+06	-46089.1	1005.82	-29770.4	0.000000	0.000000	7.137724	174.041	NaN	0.000000	0.001500	0.001814	28.0823	55.9811	0.001779	31469.3	3.633418	176.93	173.006	1.130430	0.052505	0.052145	174.041	31469.3	0.048357	0.087403	1991.26	97251.9
620	2.000000	1.132792	7.37112e+06	-46089.1	1005.82	-29770.4	0.000000	0.000000	7.140323	188.569	NaN	0.000000	0.001522	0.001780	28.0824	58.7981	0.001851	31770.7	1.613181	178.621	186.623	1.132513	0.054507	0.054228	188.569	31770.7	0.050056	0.092586	2036.69	95395.4
620	2.000000	1.134816	7.37112e+06	-46089.1	1005.82	-29770.4	0.000000	0.000000	7.142771	198.872	NaN	0.000000	0.001520	0.001771	28.0821	60.3103	0.001772	34027.1	6.055497	173.56	199.711	1.134396	0.056531	0.056112	198.872	34027.1	0.052148	0.099168	2005.41	98721.7
620	2.000000	1.136675	7.37112e+06	-46089.1	1005.82	-29770.4	0.000000	0.000000	7.145099	210.278	NaN	0.000000	0.001488	0.001842	28.0817	61.7204	0.001640	37635.9	3.335655	175.028	203.703	1.136335	0.058390	0.058051	210.278	37635.9	0.054200	0.105835	1986.85	105697
620	2.000000	1.138717	7.37112e+06	-46089.1	1005.82	-29770.4	0.000000	0.000000	7.147631	222.208	NaN	0.000000	0.001512	0.001757	28.082	64.4592	0.001774	36338.1	3.100260	175.607	216.194	1.138496	0.060432	0.060211	222.208	36338.1	0.055846	0.111336	1995.83	99498.8
620	2.000000	1.140797	7.37112e+06	-46089.1	1005.82	-29770.4	0.000000	0.000000	7.150345	237.633	NaN	0.000000	0.001532	0.001790	28.0818	67.5981	0.001928	35067.4	6.577392	173.232	238.161	1.140394	0.062512	0.062109	237.633	35067.4	0.057430	0.116752	2035.36	93765.5
620	2.000000	1.142789	7.37112e+06	-46089.1	1005.82	-29770.4	0.000000	0.000000	7.152835	249.727	NaN	0.000000	0.001529	0.001781	28.0822	68.5634	0.001770	38732.6	5.280231	173.2	249.089	1.142446	0.064505	0.064161	249.727	38732.6	0.059669	0.124624	2003.84	100242
620	2.000000	1.144779	7.37112e+06	-46089.1	1005.82	-29770.4	0.000000	0.000000	7.155361	262.784	NaN	0.000000	0.001534	0.001754	28.083	69.1972	0.001735	39890.3	3.125306	175.624	264.286	1.144417	0.066495	0.066132	262.784	39890.3	0.061554	0.131439	1999.29	100526
620	2.000000	1.146803	7.37112e+06	-46089.1	1005.82	-29770.4	0.000000	0.000000	7.157749	271.638	NaN	0.000000	0.001531	0.001764	28.083	71.868	0.001778	40410.2	4.815254	173.374	274.001	1.146538	0.068519	0.068253	271.638	40410.2	0.063477	0.138571	1960.28	99180.8
620	2.000000	1.148716	7.37112e+06	-46089.1	1005.82	-29770.4	0.000000	0.000000	7.160525	292.631	NaN	0.000000	0.001534	0.001788	28.0832	73.7228	0.001822	40457.8	6.878813	171.453	288.363	1.148374	0.070431	0.070089	292.631	40457.8	0.065007	0.144371	2026.93	97282.6
620	2.000000	1.150849	7.37112e+06	-46089.1	1005.82	-29770.4	0.000000	0.000000	7.163065	302.517	NaN	0.000000	0.001519	0.001791	28.0831	75.1171	0.001678	44769.5	6.103003	171.102	308.304	1.150466	0.072564	0.072181	302.517	44769.5	0.067497	0.154054	1963.71	104212
620	2.000000	1.152668	7.37112e+06	-46089.1	1005.82	-29770.4	0.000000	0.000000	7.165647	321.09	NaN	0.000000	0.001504	0.001778	28.0835	78.1031	0.001783	43808.6	2.943753	174.53	316.415	1.152531	0.074383	0.074246	321.09	43808.6	0.068886	0.159586	2012.02	100193
620	2.000000	1.154719	7.37112e+06	-46089.1	1005.82	-29770.4	0.000000	0.000000	7.168482	340.162	NaN	0.000000	0.001520	0.001782	28.083	80.3319	0.001871	42944.9	6.043695	171.482	337.306	1.154291	0.076434	0.076006	340.162	42944.9	0.070494	0.166102	2047.91	96271.5
620	2.000000	1.156721	7.37112e+06	-46089.1	1005.82	-29770.4	0.000000	0.000000	7.170886	349.924	NaN	0.000000	0.001520	0.001779	28.0831	82.2595	0.001705	48241.3	3.091096	173.412	347.118	1.156421	0.078437	0.078136	349.924	48241.3	0.072996	0.176490	1982.68	104914
620	2.000000	1.158832	7.37112e+06	-46089.1	1005.82	-29770.4	0.000000	0.000000	7.173828	370.17	NaN	0.000000	0.001577	0.001776	28.0829	84.9447	0.001778	47773	5.205121	172.576	371.842	1.158332	0.080547	0.080048	370.17	47773	0.074735	0.183883	2013.08	101785
620	2.000000	1.160726	7.37112e+06	-46089.1	1005.82	-29770.4	0.000000	0.000000	7.176513	389.39	NaN	0.000000	0.001572	0.001747	28.0833	86.4808	0.001677	51565.9	6.479246	169.952	387.907	1.160243	0.082442	0.081958	389.39	51565.9	0.076778	0.192749	2020.19	107310
620	2.000000	1.162703	7.37112e+06	-46089.1	1005.82	-29770.4	0.000000	0.000000	7.178849	398.13	NaN	0.000000	0.001583	0.001757	28.0836	89.205	0.001794	49732.1	3.173629	173.773	393.898	1.162384	0.084418	0.084099	398.13	49732.1	0.078414	0.199989	1990.75	101603
620	2.000000	1.164830	7.37112e+06	-46089.1	1005.82	-29770.4	0.000000	0.000000	7.181743	416.794	NaN	0.000000	0.001589	0.001758	28.0832	90.6604	0.001843	49187.9	3.339868	173.525	420.301	1.164458	0.086545	0.086173	416.794	49187.9	0.080190	0.207991	2003.91	98539.3
620	2.000000	1.166675	7.37112e+06	-46089.1	1005.82	-29770.4	0.000000	0.000000	7.184406	436.676	NaN	0.000000	0.001600	0.001740	28.0832	93.3424	0.001819	51311.4	2.929046	173.19	430.145	1.166324	0.088391	0.088039	436.676	51311.4	0.082008	0.216335	2018.52	100791
620	2.000000	1.168713	7.37112e+06	-46089.1	1005.82	-29770.4	0.000000	0.000000	7.187217	455.495	NaN	0.000000	0.001576	0.001697	28.0832	94.876	0.001838	51625.6	1.263365	175.625	451.8	1.168456	0.090428	0.090171	455.495	51625.6	0.083810	0.224760	2026.58	99489.9
620	2.000000	1.170703	7.37112e+06	-46089.1	1005.82	-29770.4	0.000000	0.000000	7.189802	469.947	NaN	0.000000	0.001507	0.001729	28.0833	96.4488	0.001810	53273.1	1.911424	174.273	467.085	1.170375	0.092418	0.092090	469.947	53273.1	0.085802	0.234244	2006.23	100565
620	2.000000	1.172682	7.37112e+06	-46089.1	1005.82	-29770.4	0.000000	0.000000	7.192722	492.856	NaN	0.000000	0.001498	0.001784	28.0835	98.0697	0.001804	54347.9	4.163718	171.981	487.359	1.172347	0.094397	0.094062	492.856	54347.9	0.087595	0.242938	2028.73	100741
620	2.000000	1.174680	7.37112e+06	-46089.1	1005.82	-29770.4	0.000000	0.000000	7.195351	508.216	NaN	0.000000	0.001518	0.001792	28.0835	99.2237	0.001808	54877	6.202776	169.629	505.277	1.174328	0.096395	0.096043	508.216	54877	0.089449	0.252081	2016.08	99860.4
620	2.000000	1.176673	7.37112e+06	-46089.1	1005.82	-29770.4	0.000000	0.000000	7.197930	522.449	NaN	0.000000	0.001483	0.001749	28.0834	101.251	0.001819	55677.8	2.251882	173.552	516.87	1.176359	0.098388	0.098074	522.449	55677.8	0.091351	0.261625	1996.94	99452.5
620	2.000000	1.178656	7.37112e+06	-46089.1	1005.82	-29770.4	0.000000	0.000000	7.200477	536.185	NaN	0.000000	0.001502	0.001759	28.0823	102.946	0.001801	57168.1	2.628579	173.295	528.656	1.178387	0.100371	0.100102	536.185	57168.1	0.093337	0.271771	1972.93	100190
620	2.000000	1.180671	7.37112e+06	-46089.1	1005.82	-29770.4	0.000000	0.000000	7.203381	557.786	NaN	0.000000	0.001488	0.001785	28.0821	105.597	0.001853	56993.8	6.654868	168.988	553.009	1.180385	0.102387	0.102100	557.786	56993.8	0.095047	0.280647	1987.5	98292.5
620	2.000000	1.181207	7.37112e+06	-46089.1	1005.82	-29770.4	0.000000	0.000000	7.204151	563.494	NaN	0.000000	0.001494	0.001768	28.082	105.51	0.001866	56534.4	5.618408	-10.2451	559.167	1.180850	0.102922	0.102565	563.494	56534.4	0.095446	0.282742	1992.96	97138.3