File: remote_trans/data/nanoindenter/0828-1/data/Data_2025-08-06,11h17m57s/2025-07-22_16-23-58_1_584.txt
2025-07-22, 16:23:58, 1
Index	Phase	Displacement	Time	Pos X	Pos Y	Pos Z	Rot A	Rot B	Piezo Z	Force A	Force B	Gripper	Voltage A	Voltage B	Temperature	Amplitude force	Amplitude pos	Stiffness	Phase shift	Phase excitation	Force A raw	Displacement raw	HMax	HMax raw	Real Force	Real Stiffness	Contact Depth	Area	Hardness	Reduced Mod.
[#]	[#]	[um]	[s]	[um]	[um]	[um]	[m°]	[m°]	[um]	[uN]	[uN]	[V]	[V]	[V]	[°C]	[uN]	[um]	[N/m]	[°]	[°]	[uN]	[um]	[um]	[um]	[uN]	[N/m]	[um]	[um^2]	[MPa]	[MPa]
584	1.000000	0.002528	7.37076e+06	-47889.1	1005.82	-29764.3	0.000000	0.000000	6.002822	0.040989	NaN	0.000000	0.001525	0.001784	28.0808	0.076110	0.001011	75.2528	136.156	-167.95	0.035654	0.001246	-1.177627	-1.178909	0.040989	75.2528	-1.178036	-5.579032E+15	-7.346982E-18	NaN
584	1.000000	0.012581	7.37076e+06	-47889.1	1005.82	-29764.3	0.000000	0.000000	6.012873	-0.002433	NaN	0.000000	0.001569	0.001768	28.0801	0.072684	0.001194	60.8881	83.381	16.9976	0.010914	0.011132	-1.167574	-1.169023	-0.002433	60.8881	-1.167544	-4.036251E+15	6.027634E-19	NaN
584	1.000000	0.022451	7.37076e+06	-47889.1	1005.82	-29764.3	0.000000	0.000000	6.022743	-0.008280	NaN	0.000000	0.001583	0.001778	28.0803	0.099419	0.001726	57.5907	-142.502	-165.732	-0.051585	0.021092	-1.157704	-1.159063	-0.008280	57.5907	-1.157596	-2.969233E+15	2.788647E-18	NaN
584	1.000000	0.032489	7.37076e+06	-47889.1	1005.82	-29764.3	0.000000	0.000000	6.032779	-0.044685	NaN	0.000000	0.001593	0.001735	28.0804	0.070334	0.001870	37.6137	159.792	13.1012	-0.055609	0.031146	-1.147666	-1.149009	-0.044685	37.6137	-1.146775	-2.126121E+15	2.101730E-17	NaN
584	1.000000	0.042461	7.37076e+06	-47889.1	1005.82	-29764.3	0.000000	0.000000	6.042752	-0.042295	NaN	0.000000	0.001577	0.001751	28.0807	0.036594	0.001980	18.4849	-55.0662	-169.524	-0.015825	0.041180	-1.137694	-1.138975	-0.042295	18.4849	-1.135978	-1.523350E+15	2.776471E-17	NaN
584	1.000000	0.052468	7.37076e+06	-47889.1	1005.82	-29764.3	0.000000	0.000000	6.052760	-0.013302	NaN	0.000000	0.001611	0.001753	28.0805	0.067649	0.001982	34.1306	-162.797	15.8285	-0.069800	0.051100	-1.127687	-1.129056	-0.013302	34.1306	-1.127395	-1.168624E+15	1.138244E-17	NaN
584	1.000000	0.062464	7.37076e+06	-47889.1	1005.82	-29764.3	0.000000	0.000000	6.062754	-0.056902	NaN	0.000000	0.001585	0.001743	28.0807	0.120716	0.001917	62.9762	-84.2033	-166.273	0.031683	0.061157	-1.117691	-1.118998	-0.056902	62.9762	-1.117014	-8.480127E+14	6.710088E-17	NaN
584	1.000000	0.072476	7.37076e+06	-47889.1	1005.82	-29764.3	0.000000	0.000000	6.072767	-0.037081	NaN	0.000000	0.001626	0.001761	28.0809	0.029810	0.002036	14.64	-147.74	15.5641	-0.080499	0.071100	-1.107679	-1.109055	-0.037081	14.64	-1.105780	-5.993014E+14	6.187387E-17	NaN
584	1.000000	0.082466	7.37076e+06	-47889.1	1005.82	-29764.3	0.000000	0.000000	6.082758	-0.019465	NaN	0.000000	0.001637	0.001733	28.0806	0.053780	0.002052	26.2105	-124.057	-167.534	-0.022900	0.081166	-1.097689	-1.098989	-0.019465	26.2105	-1.097132	-4.587358E+14	4.243289E-17	NaN
584	1.000000	0.092453	7.37076e+06	-47889.1	1005.82	-29764.3	0.000000	0.000000	6.092745	-0.004891	NaN	0.000000	0.001628	0.001777	28.0809	0.051133	0.001905	26.8484	-15.5473	16.2353	0.069504	0.091100	-1.087702	-1.089056	-0.004891	26.8484	-1.087565	-3.412868E+14	1.433014E-17	NaN
584	1.000000	0.102491	7.37076e+06	-47889.1	1005.82	-29764.3	0.000000	0.000000	6.102782	-0.022671	NaN	0.000000	0.001560	0.001786	28.081	0.069586	0.001958	35.54	-162.63	-164.962	0.024805	0.101128	-1.077664	-1.079027	-0.022671	35.54	-1.077186	-2.475836E+14	9.156716E-17	NaN
584	1.000000	0.112480	7.37076e+06	-47889.1	1005.82	-29764.3	0.000000	0.000000	6.112772	-0.002796	NaN	0.000000	0.001591	0.001775	28.0808	0.036789	0.002096	17.5528	-105.999	14.0642	0.005982	0.111102	-1.067675	-1.069053	-0.002796	17.5528	-1.067556	-1.838019E+14	1.521090E-17	NaN
584	1.000000	0.122472	7.37076e+06	-47889.1	1005.82	-29764.3	0.000000	0.000000	6.122763	-0.032180	NaN	0.000000	0.001588	0.001755	28.0811	0.060869	0.001893	32.1526	168.828	-166.304	-0.129078	0.121132	-1.057683	-1.059023	-0.032180	32.1526	-1.056933	-1.323120E+14	2.432136E-16	NaN
584	1.000000	0.132492	7.37076e+06	-47889.1	1005.82	-29764.3	0.000000	0.000000	6.132783	-0.024412	NaN	0.000000	0.001581	0.001758	28.081	0.076473	0.001926	39.7077	-136.75	12.3	-0.012373	0.131107	-1.047663	-1.049048	-0.024412	39.7077	-1.047202	-9.790493E+13	2.493442E-16	NaN
584	1.000000	0.142517	7.37076e+06	-47889.1	1005.82	-29764.3	0.000000	0.000000	6.142811	0.026841	NaN	0.000000	0.001580	0.001774	28.0798	0.057275	0.002094	27.3495	-132.116	-171.337	0.007128	0.141171	-1.037638	-1.038984	0.026841	27.3495	-1.038374	-7.449072E+13	-3.603284E-16	NaN
584	1.000000	0.152468	7.37076e+06	-47889.1	1005.82	-29764.3	0.000000	0.000000	6.152757	-0.072852	NaN	0.000000	0.001576	0.001748	28.0798	0.064858	0.002080	31.1825	139.84	10.2999	-0.102007	0.151167	-1.027687	-1.028988	-0.072852	31.1825	-1.025935	-5.067558E+13	1.437610E-15	NaN
584	1.000000	0.162491	7.37076e+06	-47889.1	1005.82	-29764.3	0.000000	0.000000	6.162779	-0.115397	NaN	0.000000	0.001602	0.001768	28.0797	0.053818	0.001930	27.8801	-161.486	-169.166	-0.139290	0.161201	-1.017664	-1.018954	-0.115397	27.8801	-1.014560	-3.562449E+13	3.239270E-15	NaN
584	1.000000	0.172485	7.37076e+06	-47889.1	1005.82	-29764.3	0.000000	0.000000	6.172774	-0.077493	NaN	0.000000	0.001569	0.001760	28.0797	0.022774	0.001897	12.0034	85.4662	17.2812	-0.021192	0.171212	-1.007670	-1.008943	-0.077493	12.0034	-1.002828	-2.476533E+13	3.129103E-15	NaN
584	1.000000	0.182516	7.37076e+06	-47889.1	1005.82	-29764.3	0.000000	0.000000	6.182808	-0.017758	NaN	0.000000	0.001605	0.001751	28.0797	0.042630	0.001980	21.5267	-84.825	-163.344	-0.087367	0.181197	-0.997639	-0.998958	-0.017758	21.5267	-0.997020	-2.068470E+13	8.585008E-16	NaN
584	1.000000	0.192553	7.37076e+06	-47889.1	1005.82	-29764.3	0.000000	0.000000	6.192843	-0.056935	NaN	0.000000	0.001598	0.001716	28.0796	0.055983	0.002121	26.3887	-13.9252	15.6816	-0.014472	0.191120	-0.987602	-0.989035	-0.056935	26.3887	-0.985984	-1.468989E+13	3.875780E-15	NaN
584	1.000000	0.202516	7.37076e+06	-47889.1	1005.82	-29764.3	0.000000	0.000000	6.202809	0.001091	NaN	0.000000	0.001609	0.001696	28.0794	0.046397	0.002128	21.8035	138.257	-167.381	0.024377	0.201197	-0.977639	-0.978958	0.001091	21.8035	-0.977676	-1.135272E+13	-9.611067E-17	NaN
584	1.000000	0.212513	7.37076e+06	-47889.1	1005.82	-29764.3	0.000000	0.000000	6.212803	-0.074788	NaN	0.000000	0.001603	0.001719	28.0796	0.062722	0.001982	31.6488	-25.8218	14.1616	-0.086561	0.211112	-0.967642	-0.969043	-0.074788	31.6488	-0.965869	-7.870288E+12	9.502596E-15	NaN
584	1.000000	0.222524	7.37076e+06	-47889.1	1005.82	-29764.3	0.000000	0.000000	6.222817	0.006310	NaN	0.000000	0.001579	0.001720	28.0806	0.053466	0.001936	27.6214	111.623	-168.619	0.016932	0.221281	-0.957631	-0.958874	0.006310	27.6214	-0.957802	-6.126807E+12	-1.029860E-15	NaN
584	1.000000	0.232522	7.37076e+06	-47889.1	1005.82	-29764.3	0.000000	0.000000	6.232814	0.003902	NaN	0.000000	0.001590	0.001720	28.0794	0.084489	0.002027	41.6847	151.773	12.6348	0.012946	0.231133	-0.947633	-0.949022	0.003902	41.6847	-0.947703	-4.477685E+12	-8.715288E-16	NaN
584	1.000000	0.242529	7.37076e+06	-47889.1	1005.82	-29764.3	0.000000	0.000000	6.242821	-0.003969	NaN	0.000000	0.001612	0.001712	28.0795	0.105822	0.001891	55.9594	128.027	-166.999	0.054215	0.241169	-0.937626	-0.938986	-0.003969	55.9594	-0.937573	-3.268842E+12	1.214141E-15	NaN
584	1.000000	0.252547	7.37076e+06	-47889.1	1005.82	-29764.3	0.000000	0.000000	6.252837	-0.070392	NaN	0.000000	0.001593	0.001726	28.0795	0.048135	0.001989	24.204	163.045	8.458618	-0.072053	0.251175	-0.927608	-0.928980	-0.070392	24.204	-0.925426	-2.241109E+12	3.140949E-14	NaN
584	1.000000	0.262559	7.37076e+06	-47889.1	1005.82	-29764.3	0.000000	0.000000	6.262850	-0.042988	NaN	0.000000	0.001589	0.001732	28.0795	0.024207	0.002039	11.8724	-133.884	-167.118	-0.097372	0.261276	-0.917596	-0.918879	-0.042988	11.8724	-0.914880	-1.614623E+12	2.662405E-14	NaN
584	1.000000	0.272559	7.37076e+06	-47889.1	1005.82	-29764.3	0.000000	0.000000	6.272852	0.013064	NaN	0.000000	0.001607	0.001746	28.0796	0.031340	0.001970	15.9091	-153.387	10.5926	0.015961	0.271209	-0.907596	-0.908946	0.013064	15.9091	-0.908212	-1.312245E+12	-9.955137E-15	NaN
584	1.000000	0.282560	7.37076e+06	-47889.1	1005.82	-29764.3	0.000000	0.000000	6.282855	0.051368	NaN	0.000000	0.001612	0.001694	28.0806	0.067836	0.002080	32.6185	-177.443	-163.48	0.007565	0.281242	-0.897595	-0.898913	0.051368	32.6185	-0.898776	-9.784259E+11	-5.250068E-14	NaN
584	1.000000	0.292571	7.37076e+06	-47889.1	1005.82	-29764.3	0.000000	0.000000	6.292864	0.011315	NaN	0.000000	0.001615	0.001724	28.0807	0.028567	0.002050	13.9337	168.938	12.9088	0.008687	0.291193	-0.887584	-0.888962	0.011315	13.9337	-0.888193	-7.038663E+11	-1.607526E-14	NaN
584	1.000000	0.302547	7.37076e+06	-47889.1	1005.82	-29764.3	0.000000	0.000000	6.302839	-0.002434	NaN	0.000000	0.001603	0.001706	28.0806	0.048369	0.002151	22.4894	82.0622	-167.038	0.031611	0.301265	-0.877608	-0.878890	-0.002434	22.4894	-0.877527	-5.049669E+11	4.819972E-15	NaN
584	1.000000	0.312551	7.37076e+06	-47889.1	1005.82	-29764.3	0.000000	0.000000	6.312845	0.047799	NaN	0.000000	0.001597	0.001701	28.0804	0.080488	0.002076	38.7767	-77.6881	10.7596	0.064166	0.311266	-0.867604	-0.868889	0.047799	38.7767	-0.868529	-3.815377E+11	-1.252786E-13	NaN
584	1.000000	0.322567	7.37076e+06	-47889.1	1005.82	-29764.3	0.000000	0.000000	6.322857	-0.056513	NaN	0.000000	0.001615	0.001735	28.0805	0.031277	0.001999	15.6455	-144.818	-169.625	-0.076051	0.321227	-0.857588	-0.858928	-0.056513	15.6455	-0.854879	-2.493431E+11	2.266494E-13	NaN
584	1.000000	0.332550	7.37076e+06	-47889.1	1005.82	-29764.3	0.000000	0.000000	6.332843	0.013616	NaN	0.000000	0.001583	0.001724	28.0804	0.034448	0.001993	17.2818	135.306	12.3646	-0.006179	0.331228	-0.847605	-0.848927	0.013616	17.2818	-0.848196	-2.024452E+11	-6.725588E-14	NaN
584	1.000000	0.342561	7.37076e+06	-47889.1	1005.82	-29764.3	0.000000	0.000000	6.342853	-0.015696	NaN	0.000000	0.001582	0.001720	28.0807	0.056549	0.002010	28.1383	-119.934	-167.704	-0.050551	0.341238	-0.837594	-0.838917	-0.015696	28.1383	-0.837176	-1.435578E+11	1.093373E-13	NaN
584	1.000000	0.352552	7.37076e+06	-47889.1	1005.82	-29764.3	0.000000	0.000000	6.352846	0.044711	NaN	0.000000	0.001604	0.001731	28.0805	0.119060	0.002034	58.5361	-144.072	13.4858	-0.003651	0.351210	-0.827603	-0.828946	0.044711	58.5361	-0.828176	-1.084067E+11	-4.124336E-13	NaN
584	1.000000	0.362588	7.37076e+06	-47889.1	1005.82	-29764.3	0.000000	0.000000	6.362883	0.056626	NaN	0.000000	0.001667	0.001736	28.081	0.033852	0.002083	16.2499	-34.592	-167.847	-0.009381	0.361221	-0.817567	-0.818934	0.056626	16.2499	-0.820181	-8.446188E+10	-6.704367E-13	NaN
584	1.000000	0.372598	7.37076e+06	-47889.1	1005.82	-29764.3	0.000000	0.000000	6.372889	-0.027640	NaN	0.000000	0.001615	0.001718	28.0801	0.050779	0.002035	24.9568	112.395	13.7236	0.007426	0.371217	-0.807557	-0.808938	-0.027640	24.9568	-0.806726	-5.548228E+10	4.981716E-13	NaN
584	1.000000	0.382587	7.37076e+06	-47889.1	1005.82	-29764.3	0.000000	0.000000	6.382877	-0.059092	NaN	0.000000	0.001668	0.001687	28.0802	0.064293	0.001969	32.6509	63.1597	-169.295	-0.070373	0.381273	-0.797568	-0.798882	-0.059092	32.6509	-0.796211	-3.994161E+10	1.479454E-12	NaN
584	1.000000	0.392606	7.37076e+06	-47889.1	1005.82	-29764.3	0.000000	0.000000	6.392895	-0.070275	NaN	0.000000	0.001668	0.001723	28.0803	0.097684	0.002197	44.459	83.3042	13.7103	-0.025898	0.391237	-0.787549	-0.788918	-0.070275	44.459	-0.786364	-2.935575E+10	2.393918E-12	NaN
584	1.000000	0.402622	7.37076e+06	-47889.1	1005.82	-29764.3	0.000000	0.000000	6.402913	-0.039932	NaN	0.000000	0.001596	0.001719	28.0807	0.045329	0.001895	23.9218	49.7108	-166.676	-0.040823	0.401283	-0.777533	-0.778872	-0.039932	23.9218	-0.776281	-2.141379E+10	1.864792E-12	NaN
584	1.000000	0.412603	7.37076e+06	-47889.1	1005.82	-29764.3	0.000000	0.000000	6.412895	-0.030098	NaN	0.000000	0.001556	0.001713	28.0791	0.043772	0.001950	22.4481	166.225	20.8592	-0.007011	0.411242	-0.767552	-0.768913	-0.030098	22.4481	-0.766546	-1.578839E+10	1.906363E-12	NaN
584	1.000000	0.422615	7.37076e+06	-47889.1	1005.82	-29764.3	0.000000	0.000000	6.422908	0.021985	NaN	0.000000	0.001566	0.001688	28.0792	0.034230	0.001925	17.7803	80.3515	-162.329	0.021803	0.421254	-0.757540	-0.758901	0.021985	17.7803	-0.758467	-1.225891E+10	-1.793356E-12	NaN
584	1.000000	0.432595	7.37076e+06	-47889.1	1005.82	-29764.3	0.000000	0.000000	6.432884	-0.072605	NaN	0.000000	0.001561	0.001683	28.0791	0.132956	0.001926	69.0347	163.783	12.2323	-0.005869	0.431254	-0.747560	-0.748901	-0.072605	69.0347	-0.746771	-8.496989E+9	8.544750E-12	NaN
584	1.000000	0.442632	7.37076e+06	-47889.1	1005.82	-29764.3	0.000000	0.000000	6.442922	-0.044960	NaN	0.000000	0.001557	0.001692	28.0794	0.082519	0.002024	40.7603	116.627	-166.942	-0.034951	0.441316	-0.737523	-0.738839	-0.044960	40.7603	-0.736696	-6.195139E+9	7.257341E-12	NaN
584	1.000000	0.452619	7.37076e+06	-47889.1	1005.82	-29764.3	0.000000	0.000000	6.452910	-0.032821	NaN	0.000000	0.001608	0.001670	28.0793	0.049817	0.002037	24.4512	-1.951686	16.9965	-0.061830	0.451269	-0.727536	-0.728886	-0.032821	24.4512	-0.726529	-4.502966E+9	7.288755E-12	NaN
584	1.000000	0.462657	7.37076e+06	-47889.1	1005.82	-29764.3	0.000000	0.000000	6.462947	-0.060734	NaN	0.000000	0.001643	0.001650	28.0794	0.035798	0.002040	17.5484	-50.1736	-164.817	-0.157713	0.461357	-0.717498	-0.718798	-0.060734	17.5484	-0.714902	-3.125630E+9	1.943112E-11	NaN
584	1.000000	0.472629	7.37076e+06	-47889.1	1005.82	-29764.3	0.000000	0.000000	6.472922	0.003185	NaN	0.000000	0.001652	0.001668	28.0794	0.108210	0.002062	52.4825	-129.144	12.2211	-0.047917	0.471224	-0.707526	-0.708931	0.003185	52.4825	-0.707572	-2.482586E+9	-1.283051E-12	NaN
584	1.000000	0.482600	7.37076e+06	-47889.1	1005.82	-29764.3	0.000000	0.000000	6.482892	-0.016092	NaN	0.000000	0.001619	0.001688	28.0794	0.058697	0.001991	29.4866	-101.949	-167.425	-0.011579	0.481356	-0.697555	-0.698799	-0.016092	29.4866	-0.697145	-1.788727E+9	8.996067E-12	NaN
584	1.000000	0.492653	7.37076e+06	-47889.1	1005.82	-29764.3	0.000000	0.000000	6.492943	-0.037115	NaN	0.000000	0.001541	0.001705	28.0794	0.029116	0.002017	14.4328	97.5511	13.4459	-0.023804	0.491287	-0.687502	-0.688868	-0.037115	14.4328	-0.685574	-1.242846E+9	2.986306E-11	NaN
584	1.000000	0.502669	7.37076e+06	-47889.1	1005.82	-29764.3	0.000000	0.000000	6.502960	-0.031785	NaN	0.000000	0.001574	0.001695	28.0793	0.139222	0.002016	69.054	63.9859	-167.841	-0.059967	0.501304	-0.677486	-0.678851	-0.031785	69.054	-0.677141	-9.530256E+8	3.335200E-11	NaN
584	1.000000	0.512667	7.37076e+06	-47889.1	1005.82	-29764.3	0.000000	0.000000	6.512958	-0.016003	NaN	0.000000	0.001590	0.001708	28.0795	0.071718	0.002007	35.7333	82.7552	15.2517	-0.010769	0.511273	-0.667488	-0.668882	-0.016003	35.7333	-0.667153	-6.956876E+8	2.300369E-11	NaN
584	1.000000	0.522674	7.37076e+06	-47889.1	1005.82	-29764.3	0.000000	0.000000	6.522963	-0.064885	NaN	0.000000	0.001549	0.001699	28.0795	0.071681	0.001926	37.223	-105.775	-164.205	-0.085190	0.521349	-0.657481	-0.658806	-0.064885	37.223	-0.656174	-4.921014E+8	1.318525E-10	NaN
584	1.000000	0.532660	7.37076e+06	-47889.1	1005.82	-29764.3	0.000000	0.000000	6.532951	-0.024620	NaN	0.000000	0.001565	0.001700	28.0795	0.037819	0.001929	19.6084	-0.206675	11.4674	-0.021022	0.531338	-0.647495	-0.648817	-0.024620	19.6084	-0.646554	-3.632316E+8	6.778026E-11	NaN
584	1.000000	0.542674	7.37076e+06	-47889.1	1005.82	-29764.3	0.000000	0.000000	6.542964	-0.072966	NaN	0.000000	0.001562	0.001652	28.0795	0.135513	0.001923	70.4707	-164.593	-164.364	-0.023196	0.541281	-0.637481	-0.638874	-0.072966	70.4707	-0.636704	-2.661113E+8	2.741939E-10	NaN
584	1.000000	0.552669	7.37076e+06	-47889.1	1005.82	-29764.3	0.000000	0.000000	6.552960	-0.042123	NaN	0.000000	0.001616	0.001685	28.081	0.007546	0.001933	3.903296	154.593	9.160715	-0.074806	0.551364	-0.627486	-0.628791	-0.042123	3.903296	-0.619392	-1.539144E+8	2.736811E-10	NaN
584	1.000000	0.562670	7.37076e+06	-47889.1	1005.82	-29764.3	0.000000	0.000000	6.562960	-0.043823	NaN	0.000000	0.001576	0.001730	28.0806	0.092615	0.002025	45.7331	-148.211	-172.025	-0.036684	0.561358	-0.617485	-0.618797	-0.043823	45.7331	-0.616767	-1.416388E+8	3.094024E-10	NaN
584	1.000000	0.572681	7.37076e+06	-47889.1	1005.82	-29764.3	0.000000	0.000000	6.572973	-0.022114	NaN	0.000000	0.001574	0.001672	28.0808	0.040059	0.001947	20.5791	43.0727	11.824	-0.002672	0.571280	-0.607474	-0.608875	-0.022114	20.5791	-0.606668	-1.028640E+8	2.149867E-10	NaN
584	1.000000	0.582682	7.37076e+06	-47889.1	1005.82	-29764.3	0.000000	0.000000	6.582972	-0.063687	NaN	0.000000	0.001579	0.001668	28.0806	0.071759	0.002005	35.7851	-37.7373	-166.401	-0.076640	0.581386	-0.597473	-0.598769	-0.063687	35.7851	-0.596138	-7.366542E+7	8.645383E-10	NaN
584	1.000000	0.592708	7.37076e+06	-47889.1	1005.82	-29764.3	0.000000	0.000000	6.592999	-0.034742	NaN	0.000000	0.001597	0.001707	28.0812	0.032607	0.001877	17.3687	164.441	11.2938	-0.072060	0.591342	-0.587447	-0.588813	-0.034742	17.3687	-0.585947	-5.330538E+7	6.517596E-10	NaN
584	1.000000	0.602672	7.37076e+06	-47889.1	1005.82	-29764.3	0.000000	0.000000	6.602965	0.011479	NaN	0.000000	0.001582	0.001691	28.0806	0.077210	0.002054	37.5914	-102.14	-166.383	-0.057092	0.601298	-0.577483	-0.578857	0.011479	37.5914	-0.577712	-4.103426E+7	-2.797389E-10	NaN
584	1.000000	0.612672	7.37076e+06	-47889.1	1005.82	-29764.3	0.000000	0.000000	6.612963	-0.038038	NaN	0.000000	0.001612	0.001669	28.0808	0.006106	0.002088	2.924993	-136.994	10.8175	0.002172	0.611282	-0.567483	-0.568873	-0.038038	2.924993	-0.557729	-2.172517E+7	1.750884E-9	NaN
584	1.000000	0.622713	7.37076e+06	-47889.1	1005.82	-29764.3	0.000000	0.000000	6.623005	0.003972	NaN	0.000000	0.001561	0.001680	28.0808	0.018974	0.001982	9.570991	-120.157	-165.063	0.006821	0.621390	-0.557442	-0.558765	0.003972	9.570991	-0.557754	-2.174191E+7	-1.827096E-10	NaN
584	1.000000	0.632685	7.37076e+06	-47889.1	1005.82	-29764.3	0.000000	0.000000	6.632976	-0.047689	NaN	0.000000	0.001588	0.001678	28.0808	0.031740	0.001882	16.8642	-169.298	12.3711	-0.061435	0.631327	-0.547470	-0.548828	-0.047689	16.8642	-0.545349	-1.463904E+7	3.257673E-9	NaN
584	1.000000	0.642736	7.37076e+06	-47889.1	1005.82	-29764.3	0.000000	0.000000	6.643026	-0.066818	NaN	0.000000	0.001563	0.001653	28.0807	0.074258	0.002089	35.5466	170.666	-167.342	-0.105029	0.641424	-0.537419	-0.538731	-0.066818	35.5466	-0.536009	-1.086399E+7	6.150400E-9	NaN
584	1.000000	0.652681	7.37076e+06	-47889.1	1005.82	-29764.3	0.000000	0.000000	6.652973	-0.012785	NaN	0.000000	0.001581	0.001697	28.0806	0.047862	0.002060	23.2293	-3.598701	14.549	-0.049818	0.651362	-0.527474	-0.528794	-0.012785	23.2293	-0.527061	-8.16121e+06	1.566529E-9	NaN
584	1.000000	0.662716	7.37076e+06	-47889.1	1005.82	-29764.3	0.000000	0.000000	6.663009	0.008239	NaN	0.000000	0.001558	0.001710	28.0806	0.021277	0.002015	10.5608	-158.752	-169.2	-0.006803	0.661296	-0.517439	-0.518859	0.008239	10.5608	-0.518024	-6.11096e+06	-1.348239E-9	NaN
584	1.000000	0.672746	7.37076e+06	-47889.1	1005.82	-29764.3	0.000000	0.000000	6.673036	-0.060855	NaN	0.000000	0.001568	0.001665	28.0806	0.019251	0.001899	10.1392	-122.16	11.0575	-0.126286	0.671340	-0.507409	-0.508815	-0.060855	10.1392	-0.502908	-3.76334e+06	1.617053E-8	NaN
584	1.000000	0.682725	7.37076e+06	-47889.1	1005.82	-29764.3	0.000000	0.000000	6.683018	-0.002184	NaN	0.000000	0.001605	0.001700	28.0804	0.037297	0.002082	17.9179	93.7737	-166.869	0.045523	0.681363	-0.497430	-0.498792	-0.002184	17.9179	-0.497338	-3.14685e+06	6.938757E-10	NaN
584	1.000000	0.692722	7.37076e+06	-47889.1	1005.82	-29764.3	0.000000	0.000000	6.693011	-0.086610	NaN	0.000000	0.001588	0.001689	28.0793	0.119875	0.001953	61.3919	70.3496	13.8678	-0.055394	0.691369	-0.487433	-0.488786	-0.086610	61.3919	-0.486375	-2.21168e+06	3.916030E-8	NaN
584	1.000000	0.702741	7.37076e+06	-47889.1	1005.82	-29764.3	0.000000	0.000000	6.703031	-0.045168	NaN	0.000000	0.001577	0.001728	28.0797	0.106574	0.001965	54.2452	-87.0623	-167.666	-0.060253	0.701420	-0.477414	-0.478735	-0.045168	54.2452	-0.476790	-1.62397e+06	2.781344E-8	NaN
584	1.000000	0.712753	7.37076e+06	-47889.1	1005.82	-29764.3	0.000000	0.000000	6.713045	-0.003408	NaN	0.000000	0.001573	0.001711	28.0794	0.054979	0.002038	26.977	-94.3751	14.2656	-0.077577	0.711329	-0.467402	-0.468826	-0.003408	26.977	-0.467307	-1.19573e+06	2.850191E-9	NaN
584	1.000000	0.722745	7.37076e+06	-47889.1	1005.82	-29764.3	0.000000	0.000000	6.723038	0.014862	NaN	0.000000	0.001600	0.001689	28.0792	0.194934	0.002038	95.668	36.3048	-166.604	-0.038431	0.721440	-0.457410	-0.458715	0.014862	95.668	-0.457527	-871474	-1.705419E-8	NaN
584	1.000000	0.732754	7.37076e+06	-47889.1	1005.82	-29764.3	0.000000	0.000000	6.733045	-0.038837	NaN	0.000000	0.001587	0.001694	28.0794	0.083072	0.002027	40.9761	-129.577	10.1658	-0.028677	0.731335	-0.447401	-0.448820	-0.038837	40.9761	-0.446690	-613365	6.331775E-8	NaN
584	1.000000	0.742727	7.37076e+06	-47889.1	1005.82	-29764.3	0.000000	0.000000	6.743022	0.052328	NaN	0.000000	0.001587	0.001668	28.0796	0.095823	0.001870	51.2349	-110.883	-164.311	-0.035494	0.741428	-0.437428	-0.438727	0.052328	51.2349	-0.438194	-465445	-1.124267E-7	NaN
584	1.000000	0.752778	7.37076e+06	-47889.1	1005.82	-29764.3	0.000000	0.000000	6.753071	0.019713	NaN	0.000000	0.001562	0.001681	28.0794	0.064157	0.002019	31.7807	136.702	11.8458	-0.023745	0.751433	-0.427377	-0.428722	0.019713	31.7807	-0.427843	-332302	-5.932302E-8	NaN
584	1.000000	0.762805	7.37076e+06	-47889.1	1005.82	-29764.3	0.000000	0.000000	6.763096	-0.032295	NaN	0.000000	0.001575	0.001649	28.0796	0.074597	0.002005	37.2027	83.623	-165.902	-0.023309	0.761412	-0.417350	-0.418743	-0.032295	37.2027	-0.416699	-230981	1.398167E-7	NaN
584	1.000000	0.772775	7.37076e+06	-47889.1	1005.82	-29764.3	0.000000	0.000000	6.773066	-0.024381	NaN	0.000000	0.001557	0.001698	28.0797	0.044526	0.002093	21.2703	-33.0158	12.0422	-0.106667	0.771384	-0.407380	-0.408771	-0.024381	21.2703	-0.406520	-165537	1.472870E-7	NaN
584	1.000000	0.782761	7.37076e+06	-47889.1	1005.82	-29764.3	0.000000	0.000000	6.783050	-0.086227	NaN	0.000000	0.001570	0.001703	28.0795	0.130346	0.001994	65.3709	-117.756	-164.255	-0.002304	0.781419	-0.397394	-0.398736	-0.086227	65.3709	-0.396405	-118767	7.260198E-7	NaN
584	1.000000	0.792759	7.37076e+06	-47889.1	1005.82	-29764.3	0.000000	0.000000	6.793054	0.071323	NaN	0.000000	0.001596	0.001665	28.0796	0.037685	0.001974	19.0908	-130.093	12.7775	0.001577	0.791387	-0.387396	-0.388768	0.071323	19.0908	-0.390198	-96828.1	-7.365972E-7	NaN
584	1.000000	0.802765	7.37076e+06	-47889.1	1005.82	-29764.3	0.000000	0.000000	6.803055	-0.042933	NaN	0.000000	0.001584	0.001704	28.0798	0.031958	0.001946	16.4183	69.8416	-167.073	-0.031617	0.801443	-0.377390	-0.378712	-0.042933	16.4183	-0.375429	-59461.9	7.220252E-7	NaN
584	1.000000	0.812757	7.37076e+06	-47889.1	1005.82	-29764.3	0.000000	0.000000	6.813047	-0.045983	NaN	0.000000	0.001582	0.001710	28.0797	0.088691	0.001856	47.7977	88.6833	13.3001	-0.079350	0.811368	-0.367398	-0.368787	-0.045983	47.7977	-0.366677	-44487.8	1.033616E-6	NaN
584	1.000000	0.822760	7.37076e+06	-47889.1	1005.82	-29764.3	0.000000	0.000000	6.823049	-0.069794	NaN	0.000000	0.001603	0.001700	28.081	0.099853	0.001897	52.6417	106.847	-170.743	-0.064243	0.821550	-0.357395	-0.358605	-0.069794	52.6417	-0.356401	-31606.8	2.208184E-6	NaN
584	1.000000	0.832818	7.37076e+06	-47889.1	1005.82	-29764.3	0.000000	0.000000	6.833107	-0.082858	NaN	0.000000	0.001564	0.001717	28.0809	0.119002	0.001938	61.4195	22.821	12.384	-0.022628	0.831465	-0.347337	-0.348690	-0.082858	61.4195	-0.346325	-22575	3.670336E-6	NaN
584	1.000000	0.842821	7.37076e+06	-47889.1	1005.82	-29764.3	0.000000	0.000000	6.843111	-0.042722	NaN	0.000000	0.001579	0.001702	28.0811	0.043125	0.002064	20.8898	-165.821	-170.091	-0.111903	0.841488	-0.337334	-0.338667	-0.042722	20.8898	-0.335800	-15859.1	2.693851E-6	NaN
584	1.000000	0.852767	7.37076e+06	-47889.1	1005.82	-29764.3	0.000000	0.000000	6.853055	-0.097646	NaN	0.000000	0.001572	0.001722	28.081	0.068597	0.001996	34.3743	-95.2593	14.0684	-0.094048	0.851427	-0.327388	-0.328728	-0.097646	34.3743	-0.325258	-11115.4	8.784815E-6	NaN
584	1.000000	0.862809	7.37076e+06	-47889.1	1005.82	-29764.3	0.000000	0.000000	6.863099	-0.060917	NaN	0.000000	0.001578	0.001708	28.0809	0.082400	0.002018	40.8387	77.8605	-168.177	0.048889	0.861466	-0.317346	-0.318689	-0.060917	40.8387	-0.316228	-8185.72	7.441913E-6	NaN
584	1.000000	0.872775	7.37076e+06	-47889.1	1005.82	-29764.3	0.000000	0.000000	6.873066	-0.048679	NaN	0.000000	0.001546	0.001666	28.0807	0.090514	0.002163	41.8478	115.769	13.6423	-0.053227	0.871472	-0.307380	-0.308683	-0.048679	41.8478	-0.306507	-5879.2	8.279830E-6	NaN
584	1.000000	0.882812	7.37076e+06	-47889.1	1005.82	-29764.3	0.000000	0.000000	6.883103	-0.037241	NaN	0.000000	0.001552	0.001665	28.0813	0.091371	0.001900	48.0775	55.3573	-163.611	-0.081795	0.881490	-0.297343	-0.298665	-0.037241	48.0775	-0.296762	-4211.03	8.843643E-6	NaN
584	1.000000	0.892855	7.37076e+06	-47889.1	1005.82	-29764.3	0.000000	0.000000	6.893145	-0.070689	NaN	0.000000	0.001581	0.001705	28.081	0.069748	0.002046	34.0819	-166.301	15.3403	-0.023245	0.891417	-0.287300	-0.288738	-0.070689	34.0819	-0.285744	-2880.39	2.454136E-5	NaN
584	1.000000	0.902836	7.37076e+06	-47889.1	1005.82	-29764.3	0.000000	0.000000	6.903127	-0.015934	NaN	0.000000	0.001588	0.001686	28.0809	0.085600	0.002019	42.3992	-173.031	-165.953	0.036981	0.901522	-0.277319	-0.278633	-0.015934	42.3992	-0.277038	-2129.26	7.483111E-6	NaN
584	1.000000	0.912822	7.37076e+06	-47889.1	1005.82	-29764.3	0.000000	0.000000	6.913112	-0.047820	NaN	0.000000	0.001564	0.001690	28.0808	0.105959	0.002063	51.3514	164.044	10.4097	-0.118478	0.911413	-0.267333	-0.268742	-0.047820	51.3514	-0.266635	-1480.2	3.230661E-5	NaN
584	1.000000	0.922818	7.37076e+06	-47889.1	1005.82	-29764.3	0.000000	0.000000	6.923111	0.022789	NaN	0.000000	0.001580	0.001683	28.0811	0.118974	0.001960	60.6897	-114.606	-167.114	0.046226	0.921528	-0.257337	-0.258627	0.022789	60.6897	-0.257619	-1077.42	-2.115158E-5	NaN
584	1.000000	0.932852	7.37076e+06	-47889.1	1005.82	-29764.3	0.000000	0.000000	6.933145	0.003059	NaN	0.000000	0.001551	0.001701	28.0808	0.085870	0.002125	40.4038	-104.967	13.4421	-0.033823	0.931434	-0.247303	-0.248721	0.003059	40.4038	-0.247359	-748.301	-4.087972E-6	NaN
584	1.000000	0.942847	7.37076e+06	-47889.1	1005.82	-29764.3	0.000000	0.000000	6.943141	0.026580	NaN	0.000000	0.001538	0.001654	28.0808	0.048674	0.002187	22.2538	-155.401	-169.161	0.057654	0.941549	-0.237308	-0.238606	0.026580	22.2538	-0.238203	-538.846	-4.932826E-5	NaN
584	1.000000	0.952835	7.37076e+06	-47889.1	1005.82	-29764.3	0.000000	0.000000	6.953128	0.007300	NaN	0.000000	0.001523	0.001660	28.0807	0.063116	0.002104	29.9985	78.8456	16.5718	-0.027137	0.951477	-0.227320	-0.228678	0.007300	29.9985	-0.227502	-365.612	-1.996723E-5	NaN
584	1.000000	0.962846	7.37076e+06	-47889.1	1005.82	-29764.3	0.000000	0.000000	6.963136	-0.066376	NaN	0.000000	0.001570	0.001699	28.0794	0.192629	0.002059	93.5347	54.5828	-166.909	-0.093816	0.961516	-0.217309	-0.218639	-0.066376	93.5347	-0.216776	-246.635	0.000269	NaN
584	1.000000	0.972829	7.37076e+06	-47889.1	1005.82	-29764.3	0.000000	0.000000	6.973120	-0.014486	NaN	0.000000	0.001594	0.001682	28.0793	0.097525	0.002035	47.9349	-75.6397	13.137	0.008134	0.971457	-0.207326	-0.208698	-0.014486	47.9349	-0.207100	-172.09	8.417850E-5	NaN
584	1.000000	0.982852	7.37076e+06	-47889.1	1005.82	-29764.3	0.000000	0.000000	6.983144	-0.008521	NaN	0.000000	0.001574	0.001672	28.0795	0.093766	0.002010	46.6567	155.608	-161.45	-0.033290	0.981584	-0.197303	-0.198571	-0.008521	46.6567	-0.197166	-118.312	7.202335E-5	NaN
584	1.000000	0.992837	7.37076e+06	-47889.1	1005.82	-29764.3	0.000000	0.000000	6.993130	0.006049	NaN	0.000000	0.001613	0.001651	28.0797	0.091475	0.001949	46.9347	32.3305	13.8695	0.034022	0.991514	-0.187318	-0.188641	0.006049	46.9347	-0.187414	-81.4204	-7.429358E-5	NaN
584	1.000000	1.002867	7.37076e+06	-47889.1	1005.82	-29764.3	0.000000	0.000000	7.003159	-0.005739	NaN	0.000000	0.001613	0.001677	28.0797	0.123690	0.002062	59.9719	135.661	-166.672	-0.040571	1.001556	-0.177288	-0.178599	-0.005739	59.9719	-0.177216	-54.6982	0.000105	NaN
584	1.000000	1.012833	7.37076e+06	-47889.1	1005.82	-29764.3	0.000000	0.000000	7.013123	-0.053039	NaN	0.000000	0.001606	0.001639	28.0793	0.065813	0.002071	31.7715	161.031	11.3456	-0.072111	1.011444	-0.167322	-0.168711	-0.053039	31.7715	-0.166070	-35.0811	0.001512	NaN
584	1.000000	1.022875	7.37076e+06	-47889.1	1005.82	-29764.3	0.000000	0.000000	7.023167	-0.013559	NaN	0.000000	0.001588	0.001636	28.0802	0.084736	0.002012	42.1203	-23.8601	-164.315	-0.012933	1.021512	-0.157280	-0.158643	-0.013559	42.1203	-0.157038	-24.2751	0.000559	NaN
584	1.000000	1.032867	7.37076e+06	-47889.1	1005.82	-29764.3	0.000000	0.000000	7.033161	0.042044	NaN	0.000000	0.001577	0.001681	28.0796	0.136311	0.002004	68.0189	-104.44	11.8797	0.030881	1.031482	-0.147288	-0.148673	0.042044	68.0189	-0.147752	-16.4769	-0.002552	NaN
584	1.000000	1.042877	7.37076e+06	-47889.1	1005.82	-29764.3	0.000000	0.000000	7.043168	-0.026156	NaN	0.000000	0.001572	0.001697	28.0796	0.027662	0.001878	14.7324	150.696	-166.635	-0.025610	1.041566	-0.137278	-0.138589	-0.026156	14.7324	-0.135947	-9.916006	0.002638	NaN
584	1.000000	1.052893	7.37076e+06	-47889.1	1005.82	-29764.3	0.000000	0.000000	7.053183	-0.058131	NaN	0.000000	0.001578	0.001704	28.0797	0.019356	0.002013	9.617458	21.8135	15.6596	-0.015587	1.051547	-0.127262	-0.128608	-0.058131	9.617458	-0.122729	-5.480982	0.010606	NaN
584	1.000000	1.062877	7.37076e+06	-47889.1	1005.82	-29764.3	0.000000	0.000000	7.063165	-0.113684	NaN	0.000000	0.001578	0.001697	28.0796	0.110288	0.002047	53.8901	-152.739	-162.964	-0.032580	1.061587	-0.117278	-0.118568	-0.113684	53.8901	-0.115696	-3.948427	0.028792	NaN
584	1.000000	1.072897	7.37076e+06	-47889.1	1005.82	-29764.3	0.000000	0.000000	7.073187	-0.045060	NaN	0.000000	0.001564	0.001684	28.0796	0.039449	0.002081	18.9582	-131.651	15.8939	-0.049845	1.071489	-0.107258	-0.108666	-0.045060	18.9582	-0.105476	-2.406808	0.018722	NaN
584	1.000000	1.082909	7.37076e+06	-47889.1	1005.82	-29764.3	0.000000	0.000000	7.083200	-0.016164	NaN	0.000000	0.001571	0.001687	28.0796	0.074239	0.001990	37.2989	28.3796	-166.864	-0.022991	1.081588	-0.097246	-0.098567	-0.016164	37.2989	-0.096921	-1.559402	0.010365	NaN
584	1.000000	1.092871	7.37076e+06	-47889.1	1005.82	-29764.3	0.000000	0.000000	7.093161	-0.058672	NaN	0.000000	0.001580	0.001685	28.0798	0.062872	0.002059	30.5373	-127.346	13.2986	-0.007895	1.091538	-0.087284	-0.088617	-0.058672	30.5373	-0.085843	-0.861061	0.068140	NaN
584	1.000000	1.102890	7.37077e+06	-47889.1	1005.82	-29764.3	0.000000	0.000000	7.103184	0.045982	NaN	0.000000	0.001577	0.001697	28.0813	0.008704	0.001994	4.365150	-31.3936	-166.638	0.042048	1.101671	-0.077265	-0.078484	0.045982	4.365150	-0.085166	-0.829247	-0.055450	NaN
584	1.000000	1.112883	7.37077e+06	-47889.1	1005.82	-29764.3	0.000000	0.000000	7.113176	0.011602	NaN	0.000000	0.001575	0.001685	28.0808	0.060770	0.001937	31.3768	-41.2037	14.686	-0.039114	1.111556	-0.067272	-0.068599	0.011602	31.3768	-0.067549	-0.292870	-0.039614	NaN
584	1.000000	1.122883	7.37077e+06	-47889.1	1005.82	-29764.3	0.000000	0.000000	7.123172	-0.077940	NaN	0.000000	0.001586	0.001693	28.0808	0.112806	0.002044	55.1928	-160.827	-168.615	-0.140507	1.121601	-0.057272	-0.058554	-0.077940	55.1928	-0.056213	-0.139824	0.557414	NaN
584	1.000000	1.132865	7.37077e+06	-47889.1	1005.82	-29764.3	0.000000	0.000000	7.133155	-0.049546	NaN	0.000000	0.001587	0.001681	28.081	0.055785	0.002012	27.7305	50.3062	12.7492	-0.038095	1.131573	-0.047290	-0.048582	-0.049546	27.7305	-0.045950	-0.068712	0.721067	NaN
584	1.000000	1.142890	7.37077e+06	-47889.1	1005.82	-29764.3	0.000000	0.000000	7.143183	0.028937	NaN	0.000000	0.001530	0.001697	28.0807	0.048965	0.002098	23.3397	-79.455	-169.291	0.099382	1.141596	-0.037265	-0.038559	0.028937	23.3397	-0.038195	-0.039879	-0.725623	NaN
584	1.000000	1.152898	7.37077e+06	-47889.1	1005.82	-29764.3	0.000000	0.000000	7.153188	-0.064417	NaN	0.000000	0.001549	0.001702	28.0809	0.035219	0.002042	17.2471	42.4451	13.4736	-0.079820	1.151577	-0.027257	-0.028578	-0.064417	17.2471	-0.024456	-0.016328	3.945064	NaN
584	1.000000	1.162919	7.37077e+06	-47889.1	1005.82	-29764.3	0.000000	0.000000	7.163211	-0.004134	NaN	0.000000	0.001546	0.001685	28.0808	0.066694	0.001983	33.6408	121.578	-167.211	0.006791	1.161595	-0.017236	-0.018560	-0.004134	33.6408	-0.017144	-0.010603	0.389868	NaN
584	1.000000	1.172886	7.37077e+06	-47889.1	1005.82	-29764.3	0.000000	0.000000	7.173177	-0.043102	NaN	0.000000	0.001516	0.001719	28.081	0.039713	0.001988	19.9756	-0.600151	14.5518	-0.081295	1.171563	-0.007269	-0.008592	-0.043102	19.9756	-0.005651	-0.003822	11.2779	NaN
584	1.000000	1.182882	7.37077e+06	-47889.1	1005.82	-29764.3	0.000000	0.000000	7.183373	4.833882	NaN	0.000000	0.001527	0.001692	28.0805	5.528095	0.001784	3098.87	12.9233	-172.347	3.660312	1.181600	0.002727	0.001445	4.833882	3098.87	0.001557	0.001200	4028.04	81728.7
584	2.000000	1.188007	7.37077e+06	-47889.1	1005.82	-29764.3	0.000000	0.000000	7.188758	11.1374	NaN	0.000000	0.001507	0.001710	28.0809	10.4418	0.001538	6788.79	5.889741	5.799055	9.860216	1.187640	0.007852	0.007485	11.1374	6788.79	0.006622	0.005663	1966.75	82423.1
584	2.000000	1.190498	7.37077e+06	-47889.1	1005.82	-29764.3	0.000000	0.000000	7.191366	13.9966	NaN	0.000000	0.001549	0.001677	28.081	13.9376	0.001854	7515.7	8.039418	-175.569	14.1199	1.190153	0.010343	0.009998	13.9966	7515.7	0.008946	0.008034	1742.28	76610.8
584	2.000000	1.192994	7.37077e+06	-47889.1	1005.82	-29764.3	0.000000	0.000000	7.194011	17.6148	NaN	0.000000	0.001528	0.001701	28.0811	15.9923	0.001736	9214.55	6.109629	4.765877	16.4492	1.192637	0.012839	0.012482	17.6148	9214.55	0.011406	0.010786	1633.12	81062
584	2.000000	1.195450	7.37077e+06	-47889.1	1005.82	-29764.3	0.000000	0.000000	7.196618	21.307	NaN	0.000000	0.001611	0.001709	28.0808	17.7806	0.001602	11095.6	3.667898	-176.65	20.9703	1.195152	0.015295	0.014997	21.307	11095.6	0.013855	0.013788	1545.3	86331.9
584	2.000000	1.197928	7.37077e+06	-47889.1	1005.82	-29764.3	0.000000	0.000000	7.199327	26.9249	NaN	0.000000	0.001587	0.001709	28.0795	20.9572	0.001699	12333.7	6.842214	1.453056	26.0277	1.197584	0.017773	0.017429	26.9249	12333.7	0.016135	0.016829	1599.87	86861.9
584	2.000000	1.200460	7.37077e+06	-47889.1	1005.82	-29764.3	0.000000	0.000000	7.202120	33.2563	NaN	0.000000	0.001600	0.001693	28.0797	24.266	0.001824	13302.3	2.953505	-175.41	33.196	1.200062	0.020305	0.019907	33.2563	13302.3	0.018430	0.020135	1651.69	85649.9
584	2.000000	1.202953	7.37077e+06	-47889.1	1005.82	-29764.3	0.000000	0.000000	7.204851	39.0379	NaN	0.000000	0.001635	0.001673	28.0796	26.5217	0.001794	14784.6	8.934685	-3.208773	38.5559	1.202523	0.022798	0.022368	39.0379	14784.6	0.020818	0.023844	1637.22	87477
584	2.000000	1.205412	7.37077e+06	-47889.1	1005.82	-29764.3	0.000000	0.000000	7.207513	43.9975	NaN	0.000000	0.001630	0.001699	28.0795	27.8002	0.001689	16463.6	3.261594	-179.119	43.5138	1.205171	0.025257	0.025016	43.9975	16463.6	0.023252	0.027913	1576.25	90031.9
584	2.000000	1.207957	7.37077e+06	-47889.1	1005.82	-29764.3	0.000000	0.000000	7.210280	49.3902	NaN	0.000000	0.001651	0.001706	28.0796	31.2988	0.001808	17308.2	7.408977	-2.337454	50.856	1.207513	0.027802	0.027358	49.3902	17308.2	0.025662	0.032230	1532.41	88083.1
584	2.000000	1.210368	7.37077e+06	-47889.1	1005.82	-29764.3	0.000000	0.000000	7.213142	60.3599	NaN	0.000000	0.001655	0.001726	28.0797	33.2009	0.001720	19305.2	4.432865	178.722	58.0223	1.210021	0.030213	0.029866	60.3599	19305.2	0.027868	0.036440	1656.41	92396.8
584	2.000000	1.212888	7.37077e+06	-47889.1	1005.82	-29764.3	0.000000	0.000000	7.215960	67.6085	NaN	0.000000	0.001677	0.001721	28.0794	34.95	0.001796	19457.3	5.699918	-1.274548	64.7091	1.212530	0.032733	0.032375	67.6085	19457.3	0.030127	0.041007	1648.72	87786.8
584	2.000000	1.215345	7.37077e+06	-47889.1	1005.82	-29764.3	0.000000	0.000000	7.218761	75.9933	NaN	0.000000	0.001682	0.001701	28.0795	36.9889	0.001713	21592.3	3.385949	178.065	73.4719	1.215124	0.035190	0.034969	75.9933	21592.3	0.032550	0.046195	1645.04	91785.2
584	2.000000	1.217890	7.37077e+06	-47889.1	1005.82	-29764.3	0.000000	0.000000	7.221705	85.6904	NaN	0.000000	0.001648	0.001716	28.0795	40.118	0.001871	21439.8	3.069897	0.334554	85.0685	1.217412	0.037735	0.037257	85.6904	21439.8	0.034737	0.051135	1675.75	86623.1
584	2.000000	1.220435	7.37077e+06	-47889.1	1005.82	-29764.3	0.000000	0.000000	7.224496	91.6492	NaN	0.000000	0.001677	0.001691	28.0798	43.5956	0.001808	24107.7	8.093740	173.103	92.2224	1.220068	0.040280	0.039913	91.6492	24107.7	0.037429	0.057553	1592.43	91810.9
584	2.000000	1.222950	7.37077e+06	-47889.1	1005.82	-29764.3	0.000000	0.000000	7.227472	102.873	NaN	0.000000	0.001667	0.001682	28.0796	43.22	0.001716	25179.7	-1.361790	3.188505	102.84	1.222551	0.042795	0.042396	102.873	25179.7	0.039731	0.063335	1624.27	91411.9
584	2.000000	1.225452	7.37077e+06	-47889.1	1005.82	-29764.3	0.000000	0.000000	7.230227	109.027	NaN	0.000000	0.001677	0.001688	28.0795	47.9826	0.001889	25401.6	9.123526	171.139	112.352	1.225127	0.045297	0.044972	109.027	25401.6	0.042078	0.069508	1568.56	88027.2
584	2.000000	1.227821	7.37077e+06	-47889.1	1005.82	-29764.3	0.000000	0.000000	7.233038	119.757	NaN	0.000000	0.001656	0.001689	28.0795	49.1325	0.001774	27696.4	0.064560	-0.507440	115.548	1.227609	0.047666	0.047454	119.757	27696.4	0.044424	0.075959	1576.59	91813.5
584	2.000000	1.230399	7.37077e+06	-47889.1	1005.82	-29764.3	0.000000	0.000000	7.236126	132.18	NaN	0.000000	0.001642	0.001719	28.0799	52.2578	0.001779	29382.7	4.833494	175.422	131.864	1.230035	0.050244	0.049880	132.18	29382.7	0.046870	0.082985	1592.82	93189.3
584	2.000000	1.232862	7.37077e+06	-47889.1	1005.82	-29764.3	0.000000	0.000000	7.239057	143.566	NaN	0.000000	0.001608	0.001670	28.0808	53.9564	0.001844	29254.2	4.431113	-4.127080	139.964	1.232534	0.052707	0.052379	143.566	29254.2	0.049027	0.089428	1605.38	89376.5
584	2.000000	1.235359	7.37077e+06	-47889.1	1005.82	-29764.3	0.000000	0.000000	7.242008	154.603	NaN	0.000000	0.001621	0.001757	28.0807	55.3977	0.001766	31361.2	3.093107	176.376	152.879	1.235055	0.055204	0.054900	154.603	31361.2	0.051507	0.097127	1591.77	91938.2
584	2.000000	1.237892	7.37077e+06	-47889.1	1005.82	-29764.3	0.000000	0.000000	7.245039	166.724	NaN	0.000000	0.001629	0.001686	28.0811	58.8551	0.001809	32541.5	5.779668	-6.965685	164.787	1.237436	0.057737	0.057281	166.724	32541.5	0.053894	0.104829	1590.43	91826.8
584	2.000000	1.240405	7.37077e+06	-47889.1	1005.82	-29764.3	0.000000	0.000000	7.248123	180.608	NaN	0.000000	0.001648	0.001717	28.0808	62.0745	0.001725	35980.4	8.505295	169.657	182.829	1.240069	0.060250	0.059914	180.608	35980.4	0.056486	0.113508	1591.14	97572.1
584	2.000000	1.242857	7.37077e+06	-47889.1	1005.82	-29764.3	0.000000	0.000000	7.251249	197.002	NaN	0.000000	0.001567	0.001725	28.0808	61.9692	0.001747	35471.7	1.476616	-2.524658	193.173	1.242512	0.062702	0.062357	197.002	35471.7	0.058536	0.120612	1633.35	93316.7
584	2.000000	1.245263	7.37077e+06	-47889.1	1005.82	-29764.3	0.000000	0.000000	7.254334	213.522	NaN	0.000000	0.001566	0.001728	28.0808	64.947	0.001774	36607.6	3.024054	175.261	208.261	1.244966	0.065108	0.064811	213.522	36607.6	0.060734	0.128452	1662.27	93319.8
584	2.000000	1.247818	7.37077e+06	-47889.1	1005.82	-29764.3	0.000000	0.000000	7.257316	223.917	NaN	0.000000	0.001533	0.001687	28.081	68.713	0.001693	40586	6.340124	-9.318685	219.299	1.247467	0.067663	0.067312	223.917	40586	0.063525	0.138751	1613.8	99547.6
584	2.000000	1.250420	7.37077e+06	-47889.1	1005.82	-29764.3	0.000000	0.000000	7.260414	235.97	NaN	0.000000	0.001543	0.001688	28.0806	72.0745	0.001860	38744.8	3.398650	174.257	238.104	1.250066	0.070265	0.069911	235.97	38744.8	0.065697	0.147027	1604.95	92318.3
584	2.000000	1.252829	7.37077e+06	-47889.1	1005.82	-29764.3	0.000000	0.000000	7.263900	262.161	NaN	0.000000	0.001517	0.001706	28.0807	72.697	0.001839	39530	3.930968	-5.077310	257.3	1.252412	0.072674	0.072257	262.161	39530	0.067700	0.154858	1692.91	91776.9
584	2.000000	1.255318	7.37077e+06	-47889.1	1005.82	-29764.3	0.000000	0.000000	7.266722	270.277	NaN	0.000000	0.001541	0.001699	28.0807	75.848	0.001678	45207.4	8.816047	167.531	267.444	1.254995	0.075163	0.074840	270.277	45207.4	0.070679	0.166861	1619.77	101113
584	2.000000	1.257741	7.37077e+06	-47889.1	1005.82	-29764.3	0.000000	0.000000	7.269763	285.285	NaN	0.000000	0.001544	0.001694	28.0807	79.6658	0.001916	41572	3.323999	-5.852313	279.312	1.257444	0.077586	0.077289	285.285	41572	0.072439	0.174152	1638.13	91014.3
584	2.000000	1.260331	7.37077e+06	-47889.1	1005.82	-29764.3	0.000000	0.000000	7.273186	305.56	NaN	0.000000	0.001553	0.001706	28.0808	81.8761	0.001801	45455.4	6.237990	170.727	304.654	1.259965	0.080176	0.079810	305.56	45455.4	0.075134	0.185597	1646.36	96399.2
584	2.000000	1.262891	7.37077e+06	-47889.1	1005.82	-29764.3	0.000000	0.000000	7.276180	316.116	NaN	0.000000	0.001578	0.001733	28.0806	83.2471	0.001717	48497	4.222402	-7.567733	317.149	1.262529	0.082736	0.082374	316.116	48497	0.077847	0.197467	1600.86	99710.6
584	2.000000	1.265228	7.37077e+06	-47889.1	1005.82	-29764.3	0.000000	0.000000	7.279523	340.591	NaN	0.000000	0.001529	0.001683	28.0806	85.001	0.001707	49807.4	3.444911	172.468	334.238	1.265032	0.085073	0.084877	340.591	49807.4	0.079944	0.206875	1646.36	100049
584	2.000000	1.267825	7.37077e+06	-47889.1	1005.82	-29764.3	0.000000	0.000000	7.282567	351.445	NaN	0.000000	0.001536	0.001715	28.0793	89.8718	0.001890	47541.1	5.540414	-9.243322	348.122	1.267406	0.087670	0.087251	351.445	47541.1	0.082126	0.216883	1620.43	93267.4
584	2.000000	1.270281	7.37077e+06	-47889.1	1005.82	-29764.3	0.000000	0.000000	7.285962	374.308	NaN	0.000000	0.001517	0.001710	28.0797	91.1082	0.001805	50479.6	5.270971	170.843	370.093	1.269924	0.090126	0.089769	374.308	50479.6	0.084564	0.228327	1639.35	96518.5
584	2.000000	1.272844	7.37077e+06	-47889.1	1005.82	-29764.3	0.000000	0.000000	7.289265	392.286	NaN	0.000000	0.001560	0.001722	28.0794	92.7704	0.001831	50671.3	6.351010	-9.917273	389.831	1.272429	0.092689	0.092274	392.286	50671.3	0.086883	0.239464	1638.19	94605.2
584	2.000000	1.275299	7.37077e+06	-47889.1	1005.82	-29764.3	0.000000	0.000000	7.292590	413.461	NaN	0.000000	0.001560	0.001734	28.0799	95.1378	0.001811	52525.7	7.723534	168.882	410.754	1.274863	0.095144	0.094708	413.461	52525.7	0.089240	0.251042	1646.98	95779.2
584	2.000000	1.277787	7.37077e+06	-47889.1	1005.82	-29764.3	0.000000	0.000000	7.295480	423.231	NaN	0.000000	0.001577	0.001729	28.0794	99.0286	0.001888	52458.7	6.734019	-11.0414	418.52	1.277456	0.097632	0.097301	423.231	52458.7	0.091581	0.262793	1610.51	93494
584	2.000000	1.280214	7.37077e+06	-47889.1	1005.82	-29764.3	0.000000	0.000000	7.298904	447.463	NaN	0.000000	0.001544	0.001715	28.0798	99.4109	0.001841	54001.1	4.431402	171.403	441.592	1.279939	0.100059	0.099784	447.463	54001.1	0.093845	0.274393	1630.74	94186.5
584	2.000000	1.282696	7.37077e+06	-47889.1	1005.82	-29764.3	0.000000	0.000000	7.302380	471.64	NaN	0.000000	0.001581	0.001718	28.0797	100.609	0.001852	54332.4	4.987817	-8.774818	461.472	1.282357	0.102541	0.102202	471.64	54332.4	0.096031	0.285818	1650.14	92851.2
584	2.000000	1.284720	7.37077e+06	-47889.1	1005.82	-29764.3	0.000000	0.000000	7.305072	487.904	NaN	0.000000	0.001580	0.001702	28.0795	102.404	0.001842	55593.7	2.788984	-7.172815	481.449	1.284392	0.104565	0.104237	487.904	55593.7	0.097983	0.296203	1647.2	93326.3