File: remote_trans/data/nanoindenter/0828-1/data/Data_2025-08-06,11h17m57s/2025-07-22_16-23-58_1_801.txt
2025-07-22, 16:23:58, 1
Index	Phase	Displacement	Time	Pos X	Pos Y	Pos Z	Rot A	Rot B	Piezo Z	Force A	Force B	Gripper	Voltage A	Voltage B	Temperature	Amplitude force	Amplitude pos	Stiffness	Phase shift	Phase excitation	Force A raw	Displacement raw	HMax	HMax raw	Real Force	Real Stiffness	Contact Depth	Area	Hardness	Reduced Mod.
[#]	[#]	[um]	[s]	[um]	[um]	[um]	[m°]	[m°]	[um]	[uN]	[uN]	[V]	[V]	[V]	[°C]	[uN]	[um]	[N/m]	[°]	[°]	[uN]	[um]	[um]	[um]	[uN]	[N/m]	[um]	[um^2]	[MPa]	[MPa]
801	1.000000	0.002934	7.37289e+06	-40189.1	1055.82	-29790.9	0.000000	0.000000	6.002806	0.075308	NaN	0.000000	0.001665	0.001690	28.0819	0.057999	0.000981	59.1523	87.3982	-167.313	-0.069218	0.001653	-1.094909	-1.096190	0.075308	59.1523	-1.095864	-4.411060E+14	-1.707251E-16	NaN
801	1.000000	0.013002	7.37289e+06	-40189.1	1055.82	-29790.9	0.000000	0.000000	6.012871	0.005642	NaN	0.000000	0.001677	0.001723	28.0818	0.213999	0.001190	179.881	-94.8503	18.3739	-0.028313	0.011528	-1.084841	-1.086316	0.005642	179.881	-1.084864	-3.139416E+14	-1.797137E-17	NaN
801	1.000000	0.022878	7.37289e+06	-40189.1	1055.82	-29790.9	0.000000	0.000000	6.022746	-0.018104	NaN	0.000000	0.001657	0.001708	28.0813	0.117578	0.001635	71.9079	64.8218	-162.311	0.025079	0.021572	-1.074965	-1.076271	-0.018104	71.9079	-1.074776	-2.298015E+14	7.878171E-17	NaN
801	1.000000	0.032878	7.37289e+06	-40189.1	1055.82	-29790.9	0.000000	0.000000	6.032748	0.019263	NaN	0.000000	0.001642	0.001703	28.0813	0.030825	0.001942	15.8721	-124.97	9.914400	0.001167	0.031479	-1.064965	-1.066364	0.019263	15.8721	-1.065875	-1.744895E+14	-1.103962E-16	NaN
801	1.000000	0.042869	7.37289e+06	-40189.1	1055.82	-29790.9	0.000000	0.000000	6.042741	0.066085	NaN	0.000000	0.001586	0.001714	28.0815	0.065400	0.002044	31.9996	86.7789	-164.865	0.028629	0.041585	-1.054974	-1.056258	0.066085	31.9996	-1.056523	-1.306436E+14	-5.058454E-16	NaN
801	1.000000	0.052877	7.37289e+06	-40189.1	1055.82	-29790.9	0.000000	0.000000	6.052747	0.046564	NaN	0.000000	0.001614	0.001676	28.0812	0.099002	0.001903	52.0281	162.136	16.1258	0.025410	0.051516	-1.044966	-1.046327	0.046564	52.0281	-1.045637	-9.327478E+13	-4.992085E-16	NaN
801	1.000000	0.062891	7.37289e+06	-40189.1	1055.82	-29790.9	0.000000	0.000000	6.062761	0.052156	NaN	0.000000	0.001614	0.001718	28.0813	0.092669	0.002051	45.1861	-8.793562	-164.021	0.104861	0.061572	-1.034953	-1.036271	0.052156	45.1861	-1.035818	-6.882291E+13	-7.578308E-16	NaN
801	1.000000	0.072876	7.37289e+06	-40189.1	1055.82	-29790.9	0.000000	0.000000	6.072744	-0.004961	NaN	0.000000	0.001624	0.001696	28.0813	0.054064	0.001884	28.6988	143.708	14.4429	-0.019987	0.071490	-1.024967	-1.026353	-0.004961	28.6988	-1.024838	-4.898214E+13	1.012870E-16	NaN
801	1.000000	0.082900	7.37289e+06	-40189.1	1055.82	-29790.9	0.000000	0.000000	6.082771	0.039252	NaN	0.000000	0.001669	0.001704	28.0813	0.033596	0.002013	16.689	-102.62	-167.032	0.014147	0.081549	-1.014943	-1.016294	0.039252	16.689	-1.016707	-3.807478E+13	-1.030920E-15	NaN
801	1.000000	0.092898	7.37289e+06	-40189.1	1055.82	-29790.9	0.000000	0.000000	6.092767	0.005193	NaN	0.000000	0.001634	0.001716	28.0812	0.038679	0.002073	18.6604	95.606	15.4738	0.101417	0.091500	-1.004945	-1.006343	0.005193	18.6604	-1.005154	-2.661669E+13	-1.950923E-16	NaN
801	1.000000	0.102899	7.37289e+06	-40189.1	1055.82	-29790.9	0.000000	0.000000	6.102768	0.004676	NaN	0.000000	0.001600	0.001728	28.0812	0.123899	0.001937	63.9805	120.595	-167.071	0.021436	0.101574	-0.994944	-0.996269	0.004676	63.9805	-0.994999	-1.942809E+13	-2.406689E-16	NaN
801	1.000000	0.112906	7.37289e+06	-40189.1	1055.82	-29790.9	0.000000	0.000000	6.112773	-0.027805	NaN	0.000000	0.001626	0.001672	28.0812	0.073745	0.002030	36.3267	112.855	10.8883	-0.046390	0.111522	-0.984937	-0.986321	-0.027805	36.3267	-0.984363	-1.396973E+13	1.990355E-15	NaN
801	1.000000	0.122918	7.37289e+06	-40189.1	1055.82	-29790.9	0.000000	0.000000	6.122784	-0.064055	NaN	0.000000	0.001602	0.001657	28.0812	0.002363	0.001976	1.196077	-61.3027	-161.914	-0.002889	0.121618	-0.974925	-0.976225	-0.064055	1.196077	-0.934759	-2.995168E+12	2.138627E-14	NaN
801	1.000000	0.132898	7.37289e+06	-40189.1	1055.82	-29790.9	0.000000	0.000000	6.132767	0.016554	NaN	0.000000	0.001587	0.001685	28.0801	0.047840	0.001994	23.9862	-49.8838	15.6595	0.002272	0.131510	-0.964945	-0.966334	0.016554	23.9862	-0.965463	-7.771541E+12	-2.130076E-15	NaN
801	1.000000	0.142933	7.37289e+06	-40189.1	1055.82	-29790.9	0.000000	0.000000	6.142802	0.011299	NaN	0.000000	0.001568	0.001648	28.08	0.028251	0.001996	14.1527	-5.979464	-164.685	0.078330	0.141607	-0.954910	-0.956236	0.011299	14.1527	-0.955508	-5.705714E+12	-1.980243E-15	NaN
801	1.000000	0.152901	7.37289e+06	-40189.1	1055.82	-29790.9	0.000000	0.000000	6.152769	-0.026329	NaN	0.000000	0.001593	0.001666	28.0804	0.142489	0.002037	69.9642	-169.334	15.3257	0.001748	0.151514	-0.944942	-0.946329	-0.026329	69.9642	-0.944659	-4.073751E+12	6.463046E-15	NaN
801	1.000000	0.162904	7.37289e+06	-40189.1	1055.82	-29790.9	0.000000	0.000000	6.162773	-0.008189	NaN	0.000000	0.001586	0.001687	28.0801	0.036433	0.002104	17.3137	-103.873	-169.637	0.036370	0.161621	-0.934939	-0.936222	-0.008189	17.3137	-0.934584	-2.978928E+12	2.749113E-15	NaN
801	1.000000	0.172930	7.37289e+06	-40189.1	1055.82	-29790.9	0.000000	0.000000	6.172800	0.022167	NaN	0.000000	0.001605	0.001710	28.0801	0.063655	0.002019	31.5306	104.321	14.367	0.041358	0.171584	-0.924913	-0.926259	0.022167	31.5306	-0.925440	-2.242054E+12	-9.886750E-15	NaN
801	1.000000	0.182920	7.37289e+06	-40189.1	1055.82	-29790.9	0.000000	0.000000	6.182789	0.008813	NaN	0.000000	0.001609	0.001711	28.0804	0.056426	0.001975	28.5631	-8.711312	-164.687	-0.001829	0.181659	-0.914923	-0.916184	0.008813	28.5631	-0.915154	-1.628461E+12	-5.412101E-15	NaN
801	1.000000	0.192937	7.37289e+06	-40189.1	1055.82	-29790.9	0.000000	0.000000	6.192807	0.040991	NaN	0.000000	0.001576	0.001700	28.0804	0.042389	0.001935	21.9087	-8.113481	15.9459	0.037733	0.191598	-0.904906	-0.906245	0.040991	21.9087	-0.906309	-1.236826E+12	-3.314233E-14	NaN
801	1.000000	0.202962	7.37289e+06	-40189.1	1055.82	-29790.9	0.000000	0.000000	6.202830	-0.022260	NaN	0.000000	0.001628	0.001712	28.0803	0.017833	0.002223	8.021062	67.0509	-163.948	-0.006957	0.201660	-0.894881	-0.896183	-0.022260	8.021062	-0.892799	-8.123730E+11	2.740079E-14	NaN
801	1.000000	0.212934	7.37289e+06	-40189.1	1055.82	-29790.9	0.000000	0.000000	6.212802	-0.017662	NaN	0.000000	0.001690	0.001708	28.0802	0.177574	0.002049	86.6468	44.1746	16.3301	0.090106	0.211596	-0.884909	-0.886247	-0.017662	86.6468	-0.884756	-6.324369E+11	2.792655E-14	NaN
801	1.000000	0.222958	7.37289e+06	-40189.1	1055.82	-29790.9	0.000000	0.000000	6.222824	-0.066323	NaN	0.000000	0.001676	0.001668	28.0806	0.037282	0.001982	18.8123	127.637	-166.335	0.014406	0.221689	-0.874885	-0.876154	-0.066323	18.8123	-0.872241	-4.283175E+11	1.548450E-13	NaN
801	1.000000	0.232941	7.37289e+06	-40189.1	1055.82	-29790.9	0.000000	0.000000	6.232813	0.074556	NaN	0.000000	0.001575	0.001713	28.0804	0.002594	0.001966	1.319197	67.8354	15.2193	0.030062	0.231602	-0.864902	-0.866241	0.074556	1.319197	-0.907289	-1.275092E+12	-5.847104E-14	NaN
801	1.000000	0.242975	7.37289e+06	-40189.1	1055.82	-29790.9	0.000000	0.000000	6.242845	0.033277	NaN	0.000000	0.001619	0.001691	28.0805	0.163274	0.002000	81.6545	-60.7502	-162.661	-0.004623	0.241647	-0.854868	-0.856196	0.033277	81.6545	-0.855173	-2.516433E+11	-1.322390E-13	NaN
801	1.000000	0.252949	7.37289e+06	-40189.1	1055.82	-29790.9	0.000000	0.000000	6.252817	-0.006091	NaN	0.000000	0.001650	0.001686	28.0804	0.050250	0.001988	25.2724	109.182	12.58	-0.088865	0.251601	-0.844894	-0.846242	-0.006091	25.2724	-0.844713	-1.816111E+11	3.353713E-14	NaN
801	1.000000	0.262968	7.37289e+06	-40189.1	1055.82	-29790.9	0.000000	0.000000	6.262837	0.020572	NaN	0.000000	0.001657	0.001740	28.0823	0.073180	0.002049	35.7227	-50.1525	-168.75	0.047470	0.261628	-0.834875	-0.836215	0.020572	35.7227	-0.835307	-1.354290E+11	-1.519035E-13	NaN
801	1.000000	0.272950	7.37289e+06	-40189.1	1055.82	-29790.9	0.000000	0.000000	6.272820	0.015990	NaN	0.000000	0.001710	0.001769	28.0817	0.106019	0.002042	51.9156	-170.275	14.5292	0.002564	0.271585	-0.824893	-0.826258	0.015990	51.9156	-0.825124	-9.855610E+10	-1.622466E-13	NaN
801	1.000000	0.282963	7.37289e+06	-40189.1	1055.82	-29790.9	0.000000	0.000000	6.282835	0.083495	NaN	0.000000	0.001612	0.001722	28.082	0.075947	0.002084	36.4376	19.97	-166.994	0.093928	0.281645	-0.814880	-0.816198	0.083495	36.4376	-0.816599	-7.552362E+10	-1.105548E-12	NaN
801	1.000000	0.292947	7.37289e+06	-40189.1	1055.82	-29790.9	0.000000	0.000000	6.292817	0.014283	NaN	0.000000	0.001659	0.001677	28.0818	0.068499	0.001946	35.195	-33.0306	15.042	0.033947	0.291614	-0.804896	-0.806229	0.014283	35.195	-0.805200	-5.289804E+10	-2.700109E-13	NaN
801	1.000000	0.302994	7.37289e+06	-40189.1	1055.82	-29790.9	0.000000	0.000000	6.302863	0.002492	NaN	0.000000	0.001678	0.001692	28.0821	0.117243	0.001961	59.7931	-17.5905	-167.876	0.071443	0.301710	-0.794849	-0.796133	0.002492	59.7931	-0.794880	-3.831382E+10	-6.503122E-14	NaN
801	1.000000	0.313004	7.37289e+06	-40189.1	1055.82	-29790.9	0.000000	0.000000	6.312871	-0.036116	NaN	0.000000	0.001660	0.001689	28.0816	0.052833	0.001923	27.4678	-64.6439	13.5572	0.002327	0.311682	-0.784839	-0.786161	-0.036116	27.4678	-0.783853	-2.713860E+10	1.330812E-12	NaN
801	1.000000	0.323001	7.37289e+06	-40189.1	1055.82	-29790.9	0.000000	0.000000	6.322870	0.006024	NaN	0.000000	0.001680	0.001677	28.0817	0.019865	0.002033	9.770301	-76.4261	-167.069	-0.038067	0.321701	-0.774842	-0.776143	0.006024	9.770301	-0.775304	-2.076878E+10	-2.900279E-13	NaN
801	1.000000	0.333024	7.37289e+06	-40189.1	1055.82	-29790.9	0.000000	0.000000	6.332893	0.006820	NaN	0.000000	0.001676	0.001684	28.0817	0.115887	0.002113	54.8526	-105.009	16.7697	0.051917	0.331638	-0.764819	-0.766205	0.006820	54.8526	-0.764912	-1.500089E+10	-4.546145E-13	NaN
801	1.000000	0.343011	7.37289e+06	-40189.1	1055.82	-29790.9	0.000000	0.000000	6.342881	0.011909	NaN	0.000000	0.001697	0.001703	28.0816	0.061640	0.002063	29.8739	53.8403	-165.874	-0.028931	0.341680	-0.754832	-0.756163	0.011909	29.8739	-0.755131	-1.104201E+10	-1.078495E-12	NaN
801	1.000000	0.352984	7.37289e+06	-40189.1	1055.82	-29790.9	0.000000	0.000000	6.352851	-0.049764	NaN	0.000000	0.001613	0.001672	28.0816	0.086570	0.002041	42.413	39.0805	16.6565	0.039190	0.351630	-0.744859	-0.746213	-0.049764	42.413	-0.743979	-7.784680E+9	6.392520E-12	NaN
801	1.000000	0.362999	7.37289e+06	-40189.1	1055.82	-29790.9	0.000000	0.000000	6.362869	0.036054	NaN	0.000000	0.001613	0.001700	28.0816	0.073911	0.002033	36.3518	75.4392	-163.44	0.015446	0.361734	-0.734845	-0.736109	0.036054	36.3518	-0.735588	-5.983555E+9	-6.025483E-12	NaN
801	1.000000	0.373010	7.37289e+06	-40189.1	1055.82	-29790.9	0.000000	0.000000	6.372880	0.024116	NaN	0.000000	0.001616	0.001677	28.0811	0.099078	0.001875	52.8466	-58.3733	13.0311	0.019669	0.371664	-0.724833	-0.726179	0.024116	52.8466	-0.725175	-4.315586E+9	-5.588157E-12	NaN
801	1.000000	0.383008	7.37289e+06	-40189.1	1055.82	-29790.9	0.000000	0.000000	6.382877	0.032523	NaN	0.000000	0.001615	0.001680	28.0815	0.075387	0.001940	38.856	-68.6766	-164.621	0.005880	0.381713	-0.714836	-0.716130	0.032523	38.856	-0.715463	-3.181214E+9	-1.022343E-11	NaN
801	1.000000	0.393019	7.37289e+06	-40189.1	1055.82	-29790.9	0.000000	0.000000	6.392885	-0.050108	NaN	0.000000	0.001622	0.001638	28.0812	0.039642	0.002078	19.0777	88.1098	12.8712	-0.047990	0.391626	-0.704824	-0.706217	-0.050108	19.0777	-0.702855	-2.140473E+9	2.340980E-11	NaN
801	1.000000	0.403043	7.37289e+06	-40189.1	1055.82	-29790.9	0.000000	0.000000	6.402910	-0.031394	NaN	0.000000	0.001619	0.001637	28.0804	0.014413	0.002005	7.190117	-161.97	-165.106	-0.009813	0.401746	-0.694800	-0.696097	-0.031394	7.190117	-0.691525	-1.498870E+9	2.094531E-11	NaN
801	1.000000	0.413054	7.37289e+06	-40189.1	1055.82	-29790.9	0.000000	0.000000	6.412923	-0.004664	NaN	0.000000	0.001682	0.001657	28.0801	0.066617	0.001924	34.633	105.573	16.2887	0.007426	0.411671	-0.684789	-0.686172	-0.004664	34.633	-0.684688	-1.208670E+9	3.859019E-12	NaN
801	1.000000	0.423033	7.37289e+06	-40189.1	1055.82	-29790.9	0.000000	0.000000	6.422899	-0.060885	NaN	0.000000	0.001673	0.001701	28.0799	0.087508	0.002013	43.4699	67.9973	-168.531	0.007242	0.421748	-0.674811	-0.676095	-0.060885	43.4699	-0.673760	-8.567348E+8	7.106578E-11	NaN
801	1.000000	0.433059	7.37289e+06	-40189.1	1055.82	-29790.9	0.000000	0.000000	6.432926	-0.051832	NaN	0.000000	0.001703	0.001683	28.0803	0.065718	0.002000	32.8554	-55.1149	15.345	-0.085470	0.431590	-0.664784	-0.666253	-0.051832	32.8554	-0.663601	-6.219916E+8	8.333248E-11	NaN
801	1.000000	0.443045	7.37289e+06	-40189.1	1055.82	-29790.9	0.000000	0.000000	6.442913	-0.036949	NaN	0.000000	0.001685	0.001687	28.0805	0.034677	0.001911	18.142	155.465	-166.545	0.001339	0.441718	-0.654798	-0.656126	-0.036949	18.142	-0.653270	-4.490149E+8	8.228901E-11	NaN
801	1.000000	0.453077	7.37289e+06	-40189.1	1055.82	-29790.9	0.000000	0.000000	6.452948	0.047666	NaN	0.000000	0.001680	0.001678	28.08	0.070890	0.002021	35.0708	-141.405	13.3013	0.027054	0.451655	-0.644766	-0.646188	0.047666	35.0708	-0.645785	-3.545254E+8	-1.344499E-10	NaN
801	1.000000	0.463066	7.37289e+06	-40189.1	1055.82	-29790.9	0.000000	0.000000	6.462933	-0.026976	NaN	0.000000	0.001668	0.001685	28.0803	0.116863	0.001994	58.597	-128.709	-168.074	0.091698	0.461770	-0.634777	-0.636073	-0.026976	58.597	-0.634432	-2.476722E+8	1.089197E-10	NaN
801	1.000000	0.473052	7.37289e+06	-40189.1	1055.82	-29790.9	0.000000	0.000000	6.472926	0.113981	NaN	0.000000	0.001656	0.001679	28.0806	0.068062	0.001990	34.1941	78.6617	14.7491	0.092733	0.471705	-0.624791	-0.626138	0.113981	34.1941	-0.627291	-1.976123E+8	-5.767910E-10	NaN
801	1.000000	0.483032	7.37289e+06	-40189.1	1055.82	-29790.9	0.000000	0.000000	6.482903	0.052825	NaN	0.000000	0.001611	0.001700	28.0802	0.081836	0.001835	44.5887	-9.440014	-165.803	0.033067	0.481739	-0.614811	-0.616104	0.052825	44.5887	-0.615699	-1.369323E+8	-3.857756E-10	NaN
801	1.000000	0.493081	7.37289e+06	-40189.1	1055.82	-29790.9	0.000000	0.000000	6.492952	0.057865	NaN	0.000000	0.001646	0.001697	28.0802	0.011653	0.002043	5.703731	11.8015	15.7743	0.095938	0.491705	-0.604763	-0.606138	0.057865	5.703731	-0.612371	-1.232360E+8	-4.695493E-10	NaN
801	1.000000	0.503065	7.37289e+06	-40189.1	1055.82	-29790.9	0.000000	0.000000	6.502934	0.016486	NaN	0.000000	0.001643	0.001695	28.0801	0.102495	0.002081	49.2628	113.026	-165.391	0.101310	0.501737	-0.594778	-0.596106	0.016486	49.2628	-0.595029	-7.111826E+7	-2.318041E-10	NaN
801	1.000000	0.513080	7.37289e+06	-40189.1	1055.82	-29790.9	0.000000	0.000000	6.512948	-0.006681	NaN	0.000000	0.001695	0.001680	28.0805	0.034860	0.001939	17.9796	-178.451	14.1713	0.020092	0.511727	-0.584764	-0.586116	-0.006681	17.9796	-0.584485	-5.088722E+7	1.312973E-10	NaN
801	1.000000	0.523084	7.37289e+06	-40189.1	1055.82	-29790.9	0.000000	0.000000	6.522952	-0.014097	NaN	0.000000	0.001709	0.001654	28.0801	0.074661	0.001951	38.272	-104.8	-161.06	0.020348	0.521763	-0.574759	-0.576080	-0.014097	38.272	-0.574482	-3.702974E+7	3.806884E-10	NaN
801	1.000000	0.533073	7.37289e+06	-40189.1	1055.82	-29790.9	0.000000	0.000000	6.532942	0.011158	NaN	0.000000	0.001704	0.001685	28.0807	0.035250	0.002155	16.3536	-143.694	14.1847	0.031343	0.531750	-0.564770	-0.566093	0.011158	16.3536	-0.565282	-2.763256E+7	-4.037880E-10	NaN
801	1.000000	0.543074	7.37289e+06	-40189.1	1055.82	-29790.9	0.000000	0.000000	6.542939	-0.080127	NaN	0.000000	0.001643	0.001733	28.0814	0.034282	0.001925	17.811	127.553	-166.078	-0.081724	0.541814	-0.554769	-0.556029	-0.080127	17.811	-0.551395	-1.775338E+7	4.513326E-9	NaN
801	1.000000	0.553096	7.37289e+06	-40189.1	1055.82	-29790.9	0.000000	0.000000	6.552967	0.049558	NaN	0.000000	0.001646	0.001688	28.0817	0.060593	0.002089	29.0116	-100.342	14.5361	-0.025425	0.551720	-0.544747	-0.546123	0.049558	29.0116	-0.546028	-1.495972E+7	-3.312756E-9	NaN
801	1.000000	0.563086	7.37289e+06	-40189.1	1055.82	-29790.9	0.000000	0.000000	6.562952	-0.059625	NaN	0.000000	0.001646	0.001688	28.082	0.143613	0.001918	74.8627	-7.584408	-168.959	-0.070995	0.561814	-0.534757	-0.536029	-0.059625	74.8627	-0.534160	-1.024073E+7	5.822314E-9	NaN
801	1.000000	0.573126	7.37289e+06	-40189.1	1055.82	-29790.9	0.000000	0.000000	6.572994	-0.015908	NaN	0.000000	0.001643	0.001690	28.0818	0.064973	0.001927	33.7228	104.797	11.8031	0.043681	0.571695	-0.524717	-0.526148	-0.015908	33.7228	-0.524363	-7.48623e+06	2.124929E-9	NaN
801	1.000000	0.583109	7.37289e+06	-40189.1	1055.82	-29790.9	0.000000	0.000000	6.582979	0.041270	NaN	0.000000	0.001619	0.001691	28.0815	0.037842	0.001935	19.556	142.183	-167.593	0.019278	0.581856	-0.514734	-0.515987	0.041270	19.556	-0.516317	-5.78579e+06	-7.133068E-9	NaN
801	1.000000	0.593109	7.37289e+06	-40189.1	1055.82	-29790.9	0.000000	0.000000	6.592976	-0.040779	NaN	0.000000	0.001620	0.001697	28.0815	0.032481	0.002032	15.986	121.681	14.5376	-0.038818	0.591734	-0.504734	-0.506109	-0.040779	15.986	-0.502821	-3.75284e+06	1.086611E-8	NaN
801	1.000000	0.603126	7.37289e+06	-40189.1	1055.82	-29790.9	0.000000	0.000000	6.602996	0.033108	NaN	0.000000	0.001603	0.001698	28.0814	0.064066	0.002123	30.1757	142.32	-166.42	-0.072648	0.601783	-0.494717	-0.496060	0.033108	30.1757	-0.495540	-2.97011e+06	-1.114702E-8	NaN
801	1.000000	0.613103	7.37289e+06	-40189.1	1055.82	-29790.9	0.000000	0.000000	6.612973	0.022680	NaN	0.000000	0.001606	0.001653	28.0815	0.091322	0.002061	44.3085	-92.9426	12.6375	0.028322	0.611773	-0.484740	-0.486070	0.022680	44.3085	-0.485124	-2.12434e+06	-1.067608E-8	NaN
801	1.000000	0.623131	7.37289e+06	-40189.1	1055.82	-29790.9	0.000000	0.000000	6.623003	0.098621	NaN	0.000000	0.001633	0.001656	28.0817	0.102980	0.002044	50.3766	50.6879	-166.817	0.021316	0.621813	-0.474712	-0.476030	0.098621	50.3766	-0.476181	-1.59236e+06	-6.193374E-8	NaN
801	1.000000	0.633127	7.37289e+06	-40189.1	1055.82	-29790.9	0.000000	0.000000	6.632997	0.043671	NaN	0.000000	0.001652	0.001651	28.0814	0.059854	0.002090	28.6404	-105.099	14.2947	0.062139	0.631794	-0.464716	-0.466049	0.043671	28.6404	-0.465860	-1.14109e+06	-3.827132E-8	NaN
801	1.000000	0.643132	7.37289e+06	-40189.1	1055.82	-29790.9	0.000000	0.000000	6.642998	-0.061273	NaN	0.000000	0.001654	0.001619	28.0815	0.046634	0.001973	23.6389	-166.35	-162.508	-0.024096	0.641822	-0.454711	-0.456021	-0.061273	23.6389	-0.452767	-746962	8.202898E-8	NaN
801	1.000000	0.653107	7.37289e+06	-40189.1	1055.82	-29790.9	0.000000	0.000000	6.652975	-0.004193	NaN	0.000000	0.001646	0.001637	28.0815	0.076843	0.001945	39.5134	13.0202	12.6491	-0.016973	0.651747	-0.444736	-0.446096	-0.004193	39.5134	-0.444657	-574183	7.302932E-9	NaN
801	1.000000	0.663109	7.37289e+06	-40189.1	1055.82	-29790.9	0.000000	0.000000	6.662977	0.001266	NaN	0.000000	0.001602	0.001652	28.0816	0.088159	0.001953	45.1404	167.959	-165.706	-0.087812	0.661796	-0.434734	-0.436047	0.001266	45.1404	-0.434755	-416195	-3.042813E-9	NaN
801	1.000000	0.673164	7.37289e+06	-40189.1	1055.82	-29790.9	0.000000	0.000000	6.673032	-0.011969	NaN	0.000000	0.001640	0.001661	28.0802	0.048308	0.001932	25.0055	104.303	8.686145	-0.050028	0.671753	-0.424679	-0.426090	-0.011969	25.0055	-0.424320	-296242	4.040161E-8	NaN
801	1.000000	0.683121	7.37289e+06	-40189.1	1055.82	-29790.9	0.000000	0.000000	6.682990	0.010162	NaN	0.000000	0.001635	0.001703	28.0802	0.101106	0.002073	48.7649	89.3221	-164.888	-0.025384	0.681875	-0.414722	-0.415968	0.010162	48.7649	-0.414878	-217632	-4.669408E-8	NaN
801	1.000000	0.693174	7.37289e+06	-40189.1	1055.82	-29790.9	0.000000	0.000000	6.693040	-0.048189	NaN	0.000000	0.001668	0.001636	28.0805	0.106084	0.001986	53.4031	-164.226	11.6302	-0.005518	0.691796	-0.404669	-0.406047	-0.048189	53.4031	-0.403993	-152370	3.162647E-7	NaN
801	1.000000	0.703126	7.37289e+06	-40189.1	1055.82	-29790.9	0.000000	0.000000	6.702999	0.107547	NaN	0.000000	0.001625	0.001649	28.0802	0.039593	0.002091	18.937	-127.478	-164.915	0.018108	0.701816	-0.394717	-0.396027	0.107547	18.937	-0.398977	-129241	-8.321455E-7	NaN
801	1.000000	0.713156	7.37289e+06	-40189.1	1055.82	-29790.9	0.000000	0.000000	6.713023	-0.054015	NaN	0.000000	0.001662	0.001628	28.0803	0.053040	0.001964	27.0008	158.889	15.7302	-0.006011	0.711795	-0.384687	-0.386049	-0.054015	27.0008	-0.383186	-76840.7	7.029511E-7	NaN
801	1.000000	0.723193	7.37289e+06	-40189.1	1055.82	-29790.9	0.000000	0.000000	6.723063	0.035835	NaN	0.000000	0.001634	0.001636	28.0804	0.103645	0.002041	50.773	-151.381	-171.319	-0.056663	0.721874	-0.374650	-0.375969	0.035835	50.773	-0.375179	-58971.8	-6.076671E-7	NaN
801	1.000000	0.733158	7.37289e+06	-40189.1	1055.82	-29790.9	0.000000	0.000000	6.733026	-0.012023	NaN	0.000000	0.001650	0.001654	28.0804	0.084038	0.001937	43.3961	104.281	14.776	-0.029839	0.731765	-0.364686	-0.366078	-0.012023	43.3961	-0.364478	-41354	2.907329E-7	NaN
801	1.000000	0.743173	7.37289e+06	-40189.1	1055.82	-29790.9	0.000000	0.000000	6.743041	-0.028696	NaN	0.000000	0.001651	0.001664	28.0802	0.052805	0.001909	27.6678	76.1415	-167.401	-0.056545	0.741878	-0.354670	-0.355965	-0.028696	27.6678	-0.353892	-29070	9.871261E-7	NaN
801	1.000000	0.753198	7.37289e+06	-40189.1	1055.82	-29790.9	0.000000	0.000000	6.753067	-0.005393	NaN	0.000000	0.001653	0.001643	28.0802	0.044006	0.001936	22.7285	169.617	16.7785	0.000488	0.751778	-0.344645	-0.346065	-0.005393	22.7285	-0.344467	-21213	2.542312E-7	NaN
801	1.000000	0.763166	7.37289e+06	-40189.1	1055.82	-29790.9	0.000000	0.000000	6.763035	0.009590	NaN	0.000000	0.001673	0.001649	28.0803	0.036965	0.001999	18.4961	37.0563	-164.059	0.024571	0.761873	-0.334677	-0.335970	0.009590	18.4961	-0.335066	-15472.1	-6.198358E-7	NaN
801	1.000000	0.773202	7.37289e+06	-40189.1	1055.82	-29790.9	0.000000	0.000000	6.773071	0.007556	NaN	0.000000	0.001683	0.001675	28.0804	0.135176	0.001898	71.2137	-169.134	16.9645	-0.063100	0.771826	-0.324641	-0.326017	0.007556	71.2137	-0.324720	-10915.2	-6.922761E-7	NaN
801	1.000000	0.783188	7.37289e+06	-40189.1	1055.82	-29790.9	0.000000	0.000000	6.783057	0.007071	NaN	0.000000	0.001648	0.001665	28.0804	0.071766	0.001972	36.4018	109.41	-165.34	-0.007278	0.781850	-0.314655	-0.315993	0.007071	36.4018	-0.314801	-7798.4	-9.067512E-7	NaN
801	1.000000	0.793192	7.37289e+06	-40189.1	1055.82	-29790.9	0.000000	0.000000	6.793060	-0.005789	NaN	0.000000	0.001663	0.001652	28.0801	0.091447	0.002031	45.0198	-129.377	13.559	0.014152	0.791863	-0.304651	-0.305981	-0.005789	45.0198	-0.304555	-5499.74	1.052591E-6	NaN
801	1.000000	0.803200	7.37289e+06	-40189.1	1055.82	-29790.9	0.000000	0.000000	6.803067	-0.035945	NaN	0.000000	0.001640	0.001698	28.0805	0.097040	0.002037	47.6395	139.714	-170.65	-0.083745	0.801813	-0.294644	-0.296030	-0.035945	47.6395	-0.294078	-3839.82	9.361056E-6	NaN
801	1.000000	0.813195	7.37289e+06	-40189.1	1055.82	-29790.9	0.000000	0.000000	6.813062	-0.027593	NaN	0.000000	0.001625	0.001657	28.0814	0.113565	0.001959	57.964	-116.302	12.267	-0.048918	0.811870	-0.284648	-0.285973	-0.027593	57.964	-0.284291	-2739.09	1.007368E-5	NaN
801	1.000000	0.823173	7.37289e+06	-40189.1	1055.82	-29790.9	0.000000	0.000000	6.823041	-0.013166	NaN	0.000000	0.001638	0.001676	28.0816	0.071018	0.001950	36.4186	59.1027	-163.406	0.041817	0.821882	-0.274670	-0.275961	-0.013166	36.4186	-0.274399	-1942.24	6.778518E-6	NaN
801	1.000000	0.833196	7.37289e+06	-40189.1	1055.82	-29790.9	0.000000	0.000000	6.833066	0.044528	NaN	0.000000	0.001609	0.001652	28.0814	0.046556	0.002063	22.5659	-46.0557	13.632	0.052061	0.831834	-0.264647	-0.266009	0.044528	22.5659	-0.266127	-1454.05	-3.062331E-5	NaN
801	1.000000	0.843209	7.37289e+06	-40189.1	1055.82	-29790.9	0.000000	0.000000	6.843078	0.019776	NaN	0.000000	0.001619	0.001670	28.0819	0.064301	0.002135	30.1211	26.4973	-167.801	0.052686	0.841897	-0.254634	-0.255946	0.019776	30.1211	-0.255127	-986.435	-2.004768E-5	NaN
801	1.000000	0.853211	7.37289e+06	-40189.1	1055.82	-29790.9	0.000000	0.000000	6.853078	-0.030743	NaN	0.000000	0.001643	0.001671	28.0814	0.044191	0.001929	22.904	-171.409	15.0215	-0.027382	0.851852	-0.244632	-0.245991	-0.030743	22.904	-0.243626	-654.753	4.695376E-5	NaN
801	1.000000	0.863222	7.37289e+06	-40189.1	1055.82	-29790.9	0.000000	0.000000	6.863091	0.025649	NaN	0.000000	0.001623	0.001704	28.0815	0.143544	0.001860	77.1589	-147.669	-162.6	0.146816	0.861938	-0.234621	-0.235905	0.025649	77.1589	-0.234871	-477.771	-5.368561E-5	NaN
801	1.000000	0.873213	7.37289e+06	-40189.1	1055.82	-29790.9	0.000000	0.000000	6.873078	-0.075531	NaN	0.000000	0.001607	0.001684	28.0813	0.058087	0.001987	29.2328	-147.981	13.957	0.017149	0.871852	-0.224630	-0.225992	-0.075531	29.2328	-0.222692	-306.643	0.000246	NaN
801	1.000000	0.883240	7.37289e+06	-40189.1	1055.82	-29790.9	0.000000	0.000000	6.883111	0.039896	NaN	0.000000	0.001590	0.001695	28.0818	0.106264	0.002016	52.7112	-30.2111	-168.229	-0.027813	0.881901	-0.214603	-0.215942	0.039896	52.7112	-0.215170	-232.409	-0.000172	NaN
801	1.000000	0.893257	7.37289e+06	-40189.1	1055.82	-29790.9	0.000000	0.000000	6.893125	-0.030233	NaN	0.000000	0.001604	0.001670	28.0813	0.034722	0.001945	17.8474	23.4027	15.0169	0.060447	0.891821	-0.204586	-0.206022	-0.030233	17.8474	-0.203315	-149.294	0.000203	NaN
801	1.000000	0.903263	7.37289e+06	-40189.1	1055.82	-29790.9	0.000000	0.000000	6.903131	-0.023429	NaN	0.000000	0.001633	0.001660	28.0814	0.032717	0.002042	16.0261	29.7404	-165.401	0.039463	0.901894	-0.194580	-0.195949	-0.023429	16.0261	-0.193483	-102.813	0.000228	NaN
801	1.000000	0.913208	7.37289e+06	-40189.1	1055.82	-29790.9	0.000000	0.000000	6.913077	0.012222	NaN	0.000000	0.001636	0.001629	28.0813	0.003241	0.002026	1.599402	72.4078	17.1392	-0.055736	0.911887	-0.184635	-0.185956	0.012222	1.599402	-0.190366	-91.2312	-0.000134	NaN
801	1.000000	0.923216	7.37289e+06	-40189.1	1055.82	-29790.9	0.000000	0.000000	6.923086	0.039431	NaN	0.000000	0.001619	0.001661	28.0816	0.078476	0.001889	41.5339	-90.9134	-164.448	-0.017109	0.921887	-0.174627	-0.175956	0.039431	41.5339	-0.175339	-50.7927	-0.000776	NaN
801	1.000000	0.933274	7.37289e+06	-40189.1	1055.82	-29790.9	0.000000	0.000000	6.933141	-0.038419	NaN	0.000000	0.001613	0.001655	28.0813	0.015915	0.002104	7.565336	107.52	13.7471	-0.051474	0.931900	-0.164569	-0.165943	-0.038419	7.565336	-0.160760	-28.28	0.001359	NaN
801	1.000000	0.943208	7.37289e+06	-40189.1	1055.82	-29790.9	0.000000	0.000000	6.943076	-0.011613	NaN	0.000000	0.001685	0.001644	28.0809	0.168944	0.001946	86.8006	-57.3219	-167.255	0.049508	0.941940	-0.154636	-0.155903	-0.011613	86.8006	-0.154535	-21.8883	0.000531	NaN
801	1.000000	0.953258	7.37289e+06	-40189.1	1055.82	-29790.9	0.000000	0.000000	6.953127	-0.004738	NaN	0.000000	0.001720	0.001624	28.08	0.023852	0.001854	12.8684	135.606	13.8684	-0.046509	0.951895	-0.144585	-0.145948	-0.004738	12.8684	-0.144309	-14.2352	0.000333	NaN
801	1.000000	0.963247	7.37289e+06	-40189.1	1055.82	-29790.9	0.000000	0.000000	6.963116	0.008928	NaN	0.000000	0.001685	0.001631	28.0801	0.063930	0.002030	31.4869	129.832	-164.973	0.096702	0.961950	-0.134596	-0.135893	0.008928	31.4869	-0.134809	-9.432636	-0.000947	NaN
801	1.000000	0.973252	7.37289e+06	-40189.1	1055.82	-29790.9	0.000000	0.000000	6.973118	-0.059884	NaN	0.000000	0.001670	0.001620	28.0801	0.084964	0.001969	43.1543	62.3687	13.8781	-0.124390	0.971920	-0.124591	-0.125923	-0.059884	43.1543	-0.123550	-5.691459	0.010522	NaN
801	1.000000	0.983251	7.37289e+06	-40189.1	1055.82	-29790.9	0.000000	0.000000	6.983119	-0.004867	NaN	0.000000	0.001707	0.001689	28.0803	0.073532	0.002008	36.6148	-67.1829	-167.249	-0.095982	0.981979	-0.114592	-0.115864	-0.004867	36.6148	-0.114492	-3.729341	0.001305	NaN
801	1.000000	0.993280	7.37289e+06	-40189.1	1055.82	-29790.9	0.000000	0.000000	6.993149	0.016058	NaN	0.000000	0.001702	0.001743	28.0804	0.051092	0.001956	26.1193	-106.614	12.0151	0.057896	0.991892	-0.104563	-0.105951	0.016058	26.1193	-0.105024	-2.353416	-0.006823	NaN
801	1.000000	1.003269	7.37289e+06	-40189.1	1055.82	-29790.9	0.000000	0.000000	7.003136	-0.027638	NaN	0.000000	0.001683	0.001741	28.0801	0.057011	0.001898	30.0425	142.143	-165.961	0.026446	1.001926	-0.094574	-0.095917	-0.027638	30.0425	-0.093885	-1.330198	0.020777	NaN
801	1.000000	1.013306	7.37289e+06	-40189.1	1055.82	-29790.9	0.000000	0.000000	7.013173	-0.026335	NaN	0.000000	0.001674	0.001749	28.0802	0.027703	0.002033	13.6295	41.9709	13.4268	-0.076125	1.011872	-0.084537	-0.085971	-0.026335	13.6295	-0.083088	-0.738120	0.035679	NaN
801	1.000000	1.023261	7.37289e+06	-40189.1	1055.82	-29790.9	0.000000	0.000000	7.023127	-0.049830	NaN	0.000000	0.001673	0.001748	28.0802	0.085532	0.002087	40.9846	-144.922	-163.184	0.010112	1.021982	-0.074582	-0.075861	-0.049830	40.9846	-0.073670	-0.426542	0.116823	NaN
801	1.000000	1.033281	7.37289e+06	-40189.1	1055.82	-29790.9	0.000000	0.000000	7.033151	0.021020	NaN	0.000000	0.001677	0.001741	28.0802	0.045656	0.002056	22.2025	-63.7362	14.3969	0.046683	1.031933	-0.064562	-0.065910	0.021020	22.2025	-0.065272	-0.253575	-0.082894	NaN
801	1.000000	1.043309	7.37289e+06	-40189.1	1055.82	-29790.9	0.000000	0.000000	7.043175	-0.044868	NaN	0.000000	0.001673	0.001744	28.0802	0.035228	0.001926	18.2862	101.416	-166.979	0.006687	1.042025	-0.054534	-0.055818	-0.044868	18.2862	-0.052694	-0.109972	0.407996	NaN
801	1.000000	1.053302	7.37289e+06	-40189.1	1055.82	-29790.9	0.000000	0.000000	7.053171	0.002398	NaN	0.000000	0.001664	0.001766	28.0802	0.051904	0.001986	26.1395	151.147	13.5835	0.029928	1.051965	-0.044541	-0.045878	0.002398	26.1395	-0.044610	-0.062526	-0.038345	NaN
801	1.000000	1.063296	7.37289e+06	-40189.1	1055.82	-29790.9	0.000000	0.000000	7.063163	-0.035352	NaN	0.000000	0.001658	0.001739	28.0802	0.050380	0.001896	26.5664	35.3101	-164.338	-0.094475	1.062020	-0.034547	-0.035823	-0.035352	26.5664	-0.033549	-0.029042	1.217271	NaN
801	1.000000	1.073317	7.37289e+06	-40189.1	1055.82	-29790.9	0.000000	0.000000	7.073185	0.001480	NaN	0.000000	0.001587	0.001705	28.0802	0.103933	0.001891	54.9488	157.954	12.4787	-0.070427	1.071955	-0.024526	-0.025888	0.001480	54.9488	-0.024547	-0.016418	-0.090129	NaN
801	1.000000	1.083311	7.37289e+06	-40189.1	1055.82	-29790.9	0.000000	0.000000	7.083179	-0.012000	NaN	0.000000	0.001585	0.001699	28.0811	0.017525	0.002038	8.600105	-29.3658	-162.646	-0.006153	1.081981	-0.014532	-0.015862	-0.012000	8.600105	-0.013485	-0.008383	1.431479	NaN
801	1.000000	1.093297	7.37289e+06	-40189.1	1055.82	-29790.9	0.000000	0.000000	7.093164	-0.049639	NaN	0.000000	0.001648	0.001703	28.0815	0.026218	0.002021	12.9736	-151.92	15.7726	0.015944	1.091945	-0.004546	-0.005898	-0.049639	12.9736	-0.001676	-0.001214	40.9023	NaN
801	1.000000	1.103293	7.3729e+06	-40189.1	1055.82	-29790.9	0.000000	0.000000	7.103161	0.001024	NaN	0.000000	0.001643	0.001724	28.0813	0.062959	0.001934	32.5536	24.3166	-168.173	0.010437	1.101958	0.005450	0.004115	0.001024	32.5536	0.005426	0.004526	0.226175	442.111
801	1.000000	1.113331	7.3729e+06	-40189.1	1055.82	-29790.9	0.000000	0.000000	7.113204	0.111450	NaN	0.000000	0.001675	0.001756	28.0815	0.276240	0.002080	132.784	51.748	14.1813	0.172548	1.111989	0.015488	0.014146	0.111450	132.784	0.014859	0.015097	7.381995	987.342
801	1.000000	1.123305	7.3729e+06	-40189.1	1055.82	-29790.9	0.000000	0.000000	7.123354	4.381942	NaN	0.000000	0.001704	0.001742	28.0813	4.790834	0.001692	2832.19	4.737223	-166.885	2.766705	1.121986	0.025462	0.024142	4.381942	2832.19	0.024302	0.029758	147.255	15000.2
801	2.000000	1.129394	7.3729e+06	-40189.1	1055.82	-29790.9	0.000000	0.000000	7.129718	11.0793	NaN	0.000000	0.001687	0.001709	28.0822	9.648391	0.001694	5694.27	8.469999	8.522852	10.5002	1.128982	0.031551	0.031139	11.0793	5694.27	0.030092	0.040934	270.662	25713.9
801	2.000000	1.131838	7.3729e+06	-40189.1	1055.82	-29790.9	0.000000	0.000000	7.132268	13.6492	NaN	0.000000	0.001676	0.001738	28.0814	11.7483	0.001693	6938.63	3.752561	-170.919	12.8004	1.131523	0.033995	0.033680	13.6492	6938.63	0.032520	0.046129	295.894	29516.3
801	2.000000	1.134303	7.3729e+06	-40189.1	1055.82	-29790.9	0.000000	0.000000	7.134799	15.2553	NaN	0.000000	0.001619	0.001743	28.0813	14.0782	0.001880	7489.5	7.836358	4.779364	14.509	1.133994	0.036460	0.036151	15.2553	7489.5	0.034932	0.051589	295.711	30126.6
801	2.000000	1.136785	7.3729e+06	-40189.1	1055.82	-29790.9	0.000000	0.000000	7.137491	20.3822	NaN	0.000000	0.001584	0.001693	28.0814	16.0468	0.001671	9603.22	4.435840	-174.631	19.4533	1.136464	0.038942	0.038621	20.3822	9603.22	0.037350	0.057359	355.346	36634.6
801	2.000000	1.139291	7.3729e+06	-40189.1	1055.82	-29790.9	0.000000	0.000000	7.140247	26.4609	NaN	0.000000	0.001602	0.001730	28.0821	17.9423	0.001640	10941.6	2.084258	6.475629	25.4304	1.138938	0.041448	0.041095	26.4609	10941.6	0.039634	0.063086	419.443	39800.3
801	2.000000	1.141750	7.3729e+06	-40189.1	1055.82	-29790.9	0.000000	0.000000	7.142907	31.3437	NaN	0.000000	0.001638	0.001693	28.0813	20.2619	0.001691	11985.6	8.272286	178.86	30.2952	1.141466	0.043907	0.043623	31.3437	11985.6	0.041946	0.069153	453.249	41641.5
801	2.000000	1.144288	7.3729e+06	-40189.1	1055.82	-29790.9	0.000000	0.000000	7.145679	37.0516	NaN	0.000000	0.001585	0.001697	28.0814	23.3951	0.001788	13085.1	5.484571	2.698628	36.8796	1.143846	0.046444	0.046003	37.0516	13085.1	0.044321	0.075671	489.643	43459.6
801	2.000000	1.146741	7.3729e+06	-40189.1	1055.82	-29790.9	0.000000	0.000000	7.148237	39.5981	NaN	0.000000	0.001662	0.001709	28.0812	26.2721	0.001723	15251.8	3.082730	-178.72	38.7449	1.146502	0.048898	0.048659	39.5981	15251.8	0.046951	0.083223	475.808	48302.9
801	2.000000	1.149237	7.3729e+06	-40189.1	1055.82	-29790.9	0.000000	0.000000	7.151223	51.5139	NaN	0.000000	0.001681	0.001716	28.0819	29.3908	0.001859	15814.2	7.243414	-1.717574	48.5077	1.148917	0.051394	0.051074	51.5139	15814.2	0.048951	0.089199	577.518	48377.4
801	2.000000	1.151727	7.3729e+06	-40189.1	1055.82	-29790.9	0.000000	0.000000	7.154001	58.5317	NaN	0.000000	0.001676	0.001722	28.0801	31.0874	0.001809	17185.1	4.607573	-179.937	57.041	1.151486	0.053884	0.053643	58.5317	17185.1	0.051330	0.096567	606.126	50525.6
801	2.000000	1.154221	7.3729e+06	-40189.1	1055.82	-29790.9	0.000000	0.000000	7.156845	67.0352	NaN	0.000000	0.001642	0.001708	28.0802	33.8297	0.001952	17328.8	6.757883	-2.040201	64.9213	1.153867	0.056378	0.056024	67.0352	17328.8	0.053477	0.103463	647.915	49220.8
801	2.000000	1.156866	7.3729e+06	-40189.1	1055.82	-29790.9	0.000000	0.000000	7.159533	68.1185	NaN	0.000000	0.001691	0.001737	28.08	35.4471	0.001865	19004.2	4.169493	-179.25	73.2204	1.156534	0.059022	0.058691	68.1185	19004.2	0.056334	0.112992	602.86	51653.4
801	2.000000	1.159283	7.3729e+06	-40189.1	1055.82	-29790.9	0.000000	0.000000	7.162539	82.4305	NaN	0.000000	0.001702	0.001700	28.0804	37.2383	0.001684	22113.1	5.345837	-2.037390	81.967	1.158891	0.061440	0.061048	82.4305	22113.1	0.058644	0.120992	681.288	58082.3
801	2.000000	1.161716	7.3729e+06	-40189.1	1055.82	-29790.9	0.000000	0.000000	7.165242	88.9991	NaN	0.000000	0.001687	0.001691	28.0801	39.8677	0.001832	21761.3	3.463226	178.781	87.2065	1.161436	0.063873	0.063593	88.9991	21761.3	0.060805	0.128712	691.461	55417.9
801	2.000000	1.164230	7.3729e+06	-40189.1	1055.82	-29790.9	0.000000	0.000000	7.168310	102.484	NaN	0.000000	0.001704	0.001659	28.0805	42.8931	0.001690	25378.6	3.051885	-1.608784	99.3644	1.163759	0.066387	0.065916	102.484	25378.6	0.063358	0.138126	741.965	62388.3
801	2.000000	1.166765	7.3729e+06	-40189.1	1055.82	-29790.9	0.000000	0.000000	7.170946	104.955	NaN	0.000000	0.001680	0.001654	28.0804	45.3349	0.001710	26516.5	1.981730	178.196	104.084	1.166514	0.068922	0.068671	104.955	26516.5	0.065953	0.148016	709.076	62970.2
801	2.000000	1.169270	7.3729e+06	-40189.1	1055.82	-29790.9	0.000000	0.000000	7.173984	117.912	NaN	0.000000	0.001639	0.001638	28.0802	48.5468	0.001831	26510.5	7.049271	-5.789818	116.915	1.168885	0.071427	0.071042	117.912	26510.5	0.068091	0.156408	753.878	61243.7
801	2.000000	1.171724	7.3729e+06	-40189.1	1055.82	-29790.9	0.000000	0.000000	7.177044	132.649	NaN	0.000000	0.001628	0.001675	28.0802	50.1291	0.001738	28843.7	5.404513	175.106	131.752	1.171285	0.073881	0.073442	132.649	28843.7	0.070432	0.165849	799.82	64709.7
801	2.000000	1.174342	7.3729e+06	-40189.1	1055.82	-29790.9	0.000000	0.000000	7.179908	138.638	NaN	0.000000	0.001599	0.001706	28.0804	51.5844	0.001867	27629.1	5.695346	-3.958318	142.767	1.173845	0.076499	0.076002	138.638	27629.1	0.072736	0.175395	790.434	60274.2
801	2.000000	1.176809	7.3729e+06	-40189.1	1055.82	-29790.9	0.000000	0.000000	7.182526	142.305	NaN	0.000000	0.001623	0.001733	28.0804	54.8338	0.001889	29021.1	4.585219	175.483	145.337	1.176629	0.078966	0.078786	142.305	29021.1	0.075288	0.186263	764.001	61436.1
801	2.000000	1.179208	7.3729e+06	-40189.1	1055.82	-29790.9	0.000000	0.000000	7.185808	163.81	NaN	0.000000	0.001586	0.001718	28.0802	55.8246	0.001754	31834.6	6.479657	-6.896730	160.91	1.178835	0.081364	0.080992	163.81	31834.6	0.077505	0.195951	835.976	65705.1
801	2.000000	1.181665	7.3729e+06	-40189.1	1055.82	-29790.9	0.000000	0.000000	7.188713	174.72	NaN	0.000000	0.001612	0.001712	28.08	56.9063	0.001805	31526.5	3.522925	176.107	172.122	1.181388	0.083822	0.083545	174.72	31526.5	0.079665	0.205611	849.763	63522.2
801	2.000000	1.184167	7.3729e+06	-40189.1	1055.82	-29790.9	0.000000	0.000000	7.191660	185.533	NaN	0.000000	0.001587	0.001703	28.0822	60.6629	0.001825	33247.9	7.786485	-9.026155	179.947	1.183843	0.086324	0.086000	185.533	33247.9	0.082139	0.216943	855.213	65217.6
801	2.000000	1.186717	7.3729e+06	-40189.1	1055.82	-29790.9	0.000000	0.000000	7.194979	204.246	NaN	0.000000	0.001602	0.001721	28.0814	62.0826	0.001684	36866.4	4.973680	173.099	201.879	1.186342	0.088874	0.088499	204.246	36866.4	0.084718	0.229060	891.67	70376.6
801	2.000000	1.189272	7.3729e+06	-40189.1	1055.82	-29790.9	0.000000	0.000000	7.197981	215.132	NaN	0.000000	0.001613	0.001691	28.0815	63.8614	0.001703	37497.4	5.028267	-5.959757	215.904	1.188701	0.091429	0.090857	215.132	37497.4	0.087126	0.240648	893.971	69836.6
801	2.000000	1.191645	7.3729e+06	-40189.1	1055.82	-29790.9	0.000000	0.000000	7.200933	229.221	NaN	0.000000	0.001590	0.001686	28.0813	66.2334	0.001708	38789.4	5.981083	172.478	224.547	1.191339	0.093802	0.093496	229.221	38789.4	0.089370	0.251686	910.741	70641.1
801	2.000000	1.194098	7.3729e+06	-40189.1	1055.82	-29790.9	0.000000	0.000000	7.203724	237.448	NaN	0.000000	0.001630	0.001723	28.0818	67.5544	0.001795	37636.7	4.147292	-6.184726	229.955	1.193850	0.096255	0.096007	237.448	37636.7	0.091523	0.262498	904.572	67115.3
801	2.000000	1.196704	7.3729e+06	-40189.1	1055.82	-29790.9	0.000000	0.000000	7.207018	254.186	NaN	0.000000	0.001613	0.001662	28.0814	70.5231	0.001848	38165.5	2.765832	175.887	255.04	1.196401	0.098861	0.098558	254.186	38165.5	0.093866	0.274501	925.992	66553.7
801	2.000000	1.199173	7.3729e+06	-40189.1	1055.82	-29790.9	0.000000	0.000000	7.210057	268.052	NaN	0.000000	0.001651	0.001682	28.0817	72.3559	0.001725	41936.3	6.732233	-9.416920	263.826	1.198884	0.101330	0.101041	268.052	41936.3	0.096536	0.288488	929.163	71334.6
801	2.000000	1.201670	7.3729e+06	-40189.1	1055.82	-29790.9	0.000000	0.000000	7.213436	289.527	NaN	0.000000	0.001679	0.001656	28.0815	73.7799	0.001798	41027.9	3.963897	173.791	288.108	1.201294	0.103827	0.103451	289.527	41027.9	0.098534	0.299168	967.774	68532.2
801	2.000000	1.204236	7.3729e+06	-40189.1	1055.82	-29790.9	0.000000	0.000000	7.216604	304.157	NaN	0.000000	0.001709	0.001683	28.0819	77.51	0.001847	41963.2	4.817108	-7.312509	303.852	1.203806	0.106393	0.105963	304.157	41963.2	0.100957	0.312361	973.737	68598.4
801	2.000000	1.206704	7.3729e+06	-40189.1	1055.82	-29790.9	0.000000	0.000000	7.219806	322.028	NaN	0.000000	0.001676	0.001697	28.0813	79.755	0.001817	43893.7	6.647987	170.372	322.19	1.206430	0.108861	0.108587	322.028	43893.7	0.103358	0.325700	988.728	70269.5
801	2.000000	1.209164	7.3729e+06	-40189.1	1055.82	-29790.9	0.000000	0.000000	7.223056	341.252	NaN	0.000000	0.001697	0.001675	28.0817	79.9803	0.001762	45381.3	2.615004	-5.527020	337.761	1.208806	0.111321	0.110963	341.252	45381.3	0.105681	0.338853	1007.08	71226.9
801	2.000000	1.211711	7.3729e+06	-40189.1	1055.82	-29790.9	0.000000	0.000000	7.226241	356.774	NaN	0.000000	0.001667	0.001689	28.0815	82.7968	0.001759	47067.5	5.010091	171.656	358.384	1.211312	0.113867	0.113469	356.774	47067.5	0.108182	0.353289	1009.86	72348.4
801	2.000000	1.214194	7.3729e+06	-40189.1	1055.82	-29790.9	0.000000	0.000000	7.229230	369.087	NaN	0.000000	0.001661	0.001692	28.0816	83.6807	0.001749	47833.2	0.675974	-3.944197	367.303	1.213886	0.116351	0.116043	369.087	47833.2	0.110564	0.367297	1004.87	72109.7
801	2.000000	1.216636	7.3729e+06	-40189.1	1055.82	-29790.9	0.000000	0.000000	7.232494	389.082	NaN	0.000000	0.001687	0.001679	28.0814	87.9106	0.001819	48331.4	3.079351	173.32	385.01	1.216377	0.118793	0.118534	389.082	48331.4	0.112755	0.380412	1022.79	71593.7
801	2.000000	1.219170	7.3729e+06	-40189.1	1055.82	-29790.9	0.000000	0.000000	7.235680	404.943	NaN	0.000000	0.001651	0.001669	28.0803	90.4852	0.001786	50668.3	6.497813	-10.5244	401.48	1.218865	0.121327	0.121022	404.943	50668.3	0.115333	0.396121	1022.27	73552.1
801	2.000000	1.221546	7.3729e+06	-40189.1	1055.82	-29790.9	0.000000	0.000000	7.239091	430.132	NaN	0.000000	0.001662	0.001712	28.0804	92.4785	0.001851	49953.7	7.976449	167.943	423.837	1.221260	0.123703	0.123417	430.132	49953.7	0.117245	0.407967	1054.33	71454.4
801	2.000000	1.224102	7.3729e+06	-40189.1	1055.82	-29790.9	0.000000	0.000000	7.242584	452.94	NaN	0.000000	0.001651	0.001670	28.0801	93.7202	0.001722	54428.8	5.364037	-9.519050	446.163	1.223733	0.126259	0.125889	452.94	54428.8	0.120017	0.425439	1064.64	76240.1
801	2.000000	1.226644	7.3729e+06	-40189.1	1055.82	-29790.9	0.000000	0.000000	7.245655	465.807	NaN	0.000000	0.001682	0.001680	28.0802	98.8301	0.001895	52148.5	8.554141	167.804	463.773	1.226321	0.128801	0.128478	465.807	52148.5	0.122102	0.438808	1061.53	71924.6