File: remote_trans/data/nanoindenter/0828-1/data/Data_2025-08-06,11h17m57s/2025-07-22_16-23-58_1_1056.txt
2025-07-22, 16:23:58, 1
Index	Phase	Displacement	Time	Pos X	Pos Y	Pos Z	Rot A	Rot B	Piezo Z	Force A	Force B	Gripper	Voltage A	Voltage B	Temperature	Amplitude force	Amplitude pos	Stiffness	Phase shift	Phase excitation	Force A raw	Displacement raw	HMax	HMax raw	Real Force	Real Stiffness	Contact Depth	Area	Hardness	Reduced Mod.
[#]	[#]	[um]	[s]	[um]	[um]	[um]	[m°]	[m°]	[um]	[uN]	[uN]	[V]	[V]	[V]	[°C]	[uN]	[um]	[N/m]	[°]	[°]	[uN]	[um]	[um]	[um]	[uN]	[N/m]	[um]	[um^2]	[MPa]	[MPa]
1056	1.000000	0.003280	7.37537e+06	-52939.1	1055.82	-29747.2	0.000000	0.000000	6.002829	0.089473	NaN	0.000000	0.001689	0.001707	28.0811	0.078169	0.001010	77.3916	55.1818	-168.369	0.008620	0.001959	-1.699511	-1.700832	0.089473	77.3916	-1.700378	-5.145889E+22	-1.738728E-24	NaN
1056	1.000000	0.015265	7.37537e+06	-52939.1	1055.82	-29747.2	0.000000	0.000000	6.014815	0.119362	NaN	0.000000	0.001628	0.001727	28.0827	0.041752	0.001711	24.3993	-137.264	-167.421	0.079405	0.014126	-1.687526	-1.688665	0.119362	24.3993	-1.691195	-3.885673E+22	-3.071857E-24	NaN
1056	1.000000	0.027259	7.37537e+06	-52939.1	1055.82	-29747.2	0.000000	0.000000	6.026805	0.015102	NaN	0.000000	0.001683	0.001731	28.0827	0.050905	0.001945	26.1749	-109.819	-167.19	0.005285	0.025983	-1.675532	-1.676808	0.015102	26.1749	-1.675964	-2.438353E+22	-6.193713E-25	NaN
1056	1.000000	0.039199	7.37537e+06	-52939.1	1055.82	-29747.2	0.000000	0.000000	6.038747	0.054459	NaN	0.000000	0.001630	0.001726	28.0826	0.061757	0.001993	30.9843	173.069	-166.845	0.029990	0.037853	-1.663592	-1.664938	0.054459	30.9843	-1.664910	-1.738584E+22	-3.132403E-24	NaN
1056	1.000000	0.051199	7.37537e+06	-52939.1	1055.82	-29747.2	0.000000	0.000000	6.050747	0.052485	NaN	0.000000	0.001659	0.001733	28.0827	0.033291	0.001981	16.8054	88.0823	-166.205	0.004408	0.049875	-1.651592	-1.652916	0.052485	16.8054	-1.653934	-1.242566E+22	-4.223887E-24	NaN
1056	1.000000	0.063189	7.37537e+06	-52939.1	1055.82	-29747.2	0.000000	0.000000	6.062734	-0.010390	NaN	0.000000	0.001670	0.001665	28.0826	0.100184	0.002104	47.6249	-149.611	-165.893	0.069167	0.061931	-1.639602	-1.640859	-0.010390	47.6249	-1.639438	-7.973241E+21	1.303099E-24	NaN
1056	1.000000	0.075195	7.37537e+06	-52939.1	1055.82	-29747.2	0.000000	0.000000	6.074739	-0.024075	NaN	0.000000	0.001686	0.001678	28.0827	0.083359	0.001944	42.8845	-21.5106	-167.797	0.032300	0.073911	-1.627596	-1.628880	-0.024075	42.8845	-1.627175	-5.477682E+21	4.395057E-24	NaN
1056	1.000000	0.087180	7.37537e+06	-52939.1	1055.82	-29747.2	0.000000	0.000000	6.086727	0.054194	NaN	0.000000	0.001636	0.001713	28.0827	0.061697	0.001986	31.0683	172.671	-166.859	0.097503	0.085910	-1.615611	-1.616880	0.054194	31.0683	-1.616919	-4.001587E+21	-1.354323E-23	NaN
1056	1.000000	0.099216	7.37537e+06	-52939.1	1055.82	-29747.2	0.000000	0.000000	6.098762	0.000953	NaN	0.000000	0.001649	0.001702	28.0827	0.070757	0.001919	36.8808	-6.181393	-167.397	0.034806	0.097924	-1.603574	-1.604866	0.000953	36.8808	-1.603594	-2.660867E+21	-3.583044E-25	NaN
1056	1.000000	0.111198	7.37537e+06	-52939.1	1055.82	-29747.2	0.000000	0.000000	6.110747	0.092285	NaN	0.000000	0.001588	0.001673	28.0828	0.046535	0.002113	22.0273	146.182	-165.126	0.134715	0.109909	-1.591593	-1.592882	0.092285	22.0273	-1.594735	-2.028597E+21	-4.549205E-23	NaN
1056	1.000000	0.123211	7.37537e+06	-52939.1	1055.82	-29747.2	0.000000	0.000000	6.122756	0.003913	NaN	0.000000	0.001595	0.001710	28.0828	0.103261	0.001999	51.651	-179.909	-166.574	0.058305	0.121854	-1.579580	-1.580937	0.003913	51.651	-1.579637	-1.277476E+21	-3.063010E-24	NaN
1056	1.000000	0.135225	7.37537e+06	-52939.1	1055.82	-29747.2	0.000000	0.000000	6.134772	0.039431	NaN	0.000000	0.001642	0.001706	28.0825	0.084235	0.002071	40.6648	-167.395	-165.886	0.083192	0.133954	-1.567566	-1.568837	0.039431	40.6648	-1.568293	-9.024680E+20	-4.369194E-23	NaN
1056	1.000000	0.147207	7.37537e+06	-52939.1	1055.82	-29747.2	0.000000	0.000000	6.146754	0.046624	NaN	0.000000	0.001621	0.001728	28.0814	0.036483	0.002007	18.1773	91.7083	-164.731	0.038516	0.145927	-1.555584	-1.556863	0.046624	18.1773	-1.557508	-6.484997E+20	-7.189549E-23	NaN
1056	1.000000	0.159223	7.37537e+06	-52939.1	1055.82	-29747.2	0.000000	0.000000	6.158771	0.071691	NaN	0.000000	0.001623	0.001713	28.0814	0.061576	0.002083	29.5643	62.0485	-169.277	0.034937	0.157894	-1.543568	-1.544897	0.071691	29.5643	-1.545386	-4.472912E+20	-1.602788E-22	NaN
1056	1.000000	0.171255	7.37537e+06	-52939.1	1055.82	-29747.2	0.000000	0.000000	6.170801	0.022937	NaN	0.000000	0.001657	0.001689	28.0814	0.041854	0.001890	22.1434	-102.865	-164.585	0.008910	0.169911	-1.531536	-1.532880	0.022937	22.1434	-1.532313	-2.996195E+20	-7.655475E-23	NaN
1056	1.000000	0.183265	7.37537e+06	-52939.1	1055.82	-29747.2	0.000000	0.000000	6.182812	0.040537	NaN	0.000000	0.001610	0.001690	28.0817	0.057527	0.001918	29.9858	60.9167	-167.288	0.124472	0.181969	-1.519525	-1.520822	0.040537	29.9858	-1.520539	-2.088442E+20	-1.941027E-22	NaN
1056	1.000000	0.195251	7.37537e+06	-52939.1	1055.82	-29747.2	0.000000	0.000000	6.194797	0.031677	NaN	0.000000	0.001629	0.001733	28.0816	0.049356	0.001994	24.757	148.159	-162.558	0.132492	0.193944	-1.507540	-1.508847	0.031677	24.757	-1.508500	-1.443809E+20	-2.193997E-22	NaN
1056	1.000000	0.207280	7.37537e+06	-52939.1	1055.82	-29747.2	0.000000	0.000000	6.206831	0.123146	NaN	0.000000	0.001641	0.001737	28.0815	0.083838	0.001910	43.8956	-159.181	-164.905	0.110396	0.205935	-1.495510	-1.496856	0.123146	43.8956	-1.497615	-1.034051E+20	-1.190912E-21	NaN
1056	1.000000	0.219255	7.37537e+06	-52939.1	1055.82	-29747.2	0.000000	0.000000	6.218804	0.093361	NaN	0.000000	0.001720	0.001704	28.0816	0.032248	0.001997	16.1459	115.204	-166.406	0.052836	0.218008	-1.483536	-1.484783	0.093361	16.1459	-1.487872	-7.669687E+19	-1.217268E-21	NaN
1056	1.000000	0.231303	7.37537e+06	-52939.1	1055.82	-29747.2	0.000000	0.000000	6.230848	-0.002883	NaN	0.000000	0.001689	0.001710	28.0813	0.064265	0.001985	32.3696	-176.847	-164.01	0.017625	0.229976	-1.471488	-1.472815	-0.002883	32.3696	-1.471421	-4.630253E+19	6.225713E-23	NaN
1056	1.000000	0.243298	7.37537e+06	-52939.1	1055.82	-29747.2	0.000000	0.000000	6.242845	0.026928	NaN	0.000000	0.001673	0.001712	28.0813	0.064951	0.002104	30.8739	-120.683	-165.761	0.052101	0.241966	-1.459492	-1.460825	0.026928	30.8739	-1.460147	-3.276234E+19	-8.219257E-22	NaN
1056	1.000000	0.255283	7.37537e+06	-52939.1	1055.82	-29747.2	0.000000	0.000000	6.254831	0.063529	NaN	0.000000	0.001673	0.001733	28.0814	0.090524	0.002002	45.2131	29.0301	-168.121	0.051810	0.253935	-1.447508	-1.448856	0.063529	45.2131	-1.448562	-2.296029E+19	-2.766928E-21	NaN
1056	1.000000	0.267306	7.37537e+06	-52939.1	1055.82	-29747.2	0.000000	0.000000	6.266850	-0.033674	NaN	0.000000	0.001646	0.001706	28.0812	0.026969	0.001969	13.6975	64.5181	-169.002	-0.032475	0.265966	-1.435485	-1.436825	-0.033674	13.6975	-1.433641	-1.452383E+19	2.318549E-21	NaN
1056	1.000000	0.279309	7.37537e+06	-52939.1	1055.82	-29747.2	0.000000	0.000000	6.278856	0.052364	NaN	0.000000	0.001622	0.001716	28.0817	0.080498	0.001945	41.395	87.4637	-165.485	0.032582	0.277974	-1.423482	-1.424817	0.052364	41.395	-1.424431	-1.094670E+19	-4.783564E-21	NaN
1056	1.000000	0.291334	7.37537e+06	-52939.1	1055.82	-29747.2	0.000000	0.000000	6.290883	0.104489	NaN	0.000000	0.001672	0.001674	28.0827	0.161458	0.001971	81.9064	-11.0511	-166.819	0.113222	0.289969	-1.411457	-1.412822	0.104489	81.9064	-1.412414	-7.569017E+18	-1.380486E-20	NaN
1056	1.000000	0.303288	7.37537e+06	-52939.1	1055.82	-29747.2	0.000000	0.000000	6.302833	0.005181	NaN	0.000000	0.001658	0.001731	28.0828	0.144637	0.001950	74.191	3.062301	-167.566	0.010011	0.301978	-1.399503	-1.400813	0.005181	74.191	-1.399555	-5.099577E+18	-1.016014E-21	NaN
1056	1.000000	0.315292	7.37537e+06	-52939.1	1055.82	-29747.2	0.000000	0.000000	6.314838	0.008084	NaN	0.000000	0.001649	0.001703	28.0827	0.111699	0.001952	57.2172	-101.288	-166.393	-0.012470	0.313982	-1.387499	-1.388809	0.008084	57.2172	-1.387605	-3.532708E+18	-2.288242E-21	NaN
1056	1.000000	0.327319	7.37537e+06	-52939.1	1055.82	-29747.2	0.000000	0.000000	6.326865	0.037133	NaN	0.000000	0.001646	0.001734	28.0825	0.100714	0.002032	49.5565	115.579	-168.576	0.066840	0.325994	-1.375472	-1.376797	0.037133	49.5565	-1.376034	-2.475828E+18	-1.499802E-20	NaN
1056	1.000000	0.339336	7.37537e+06	-52939.1	1055.82	-29747.2	0.000000	0.000000	6.338885	0.080413	NaN	0.000000	0.001633	0.001723	28.0826	0.062000	0.001927	32.1703	64.0663	-169.194	0.072204	0.337987	-1.363455	-1.364804	0.080413	32.1703	-1.365329	-1.781794E+18	-4.513007E-20	NaN
1056	1.000000	0.351310	7.37537e+06	-52939.1	1055.82	-29747.2	0.000000	0.000000	6.350856	0.027676	NaN	0.000000	0.001644	0.001763	28.0824	0.043279	0.001963	22.0464	40.7001	-165.469	-0.020113	0.350035	-1.351481	-1.352756	0.027676	22.0464	-1.352423	-1.198316E+18	-2.309555E-20	NaN
1056	1.000000	0.363313	7.37537e+06	-52939.1	1055.82	-29747.2	0.000000	0.000000	6.362859	0.034177	NaN	0.000000	0.001607	0.001740	28.0825	0.087613	0.001895	46.234	-111.828	-163.989	0.114369	0.362025	-1.339478	-1.340766	0.034177	46.234	-1.340032	-8.187397E+17	-4.174315E-20	NaN
1056	1.000000	0.375356	7.37537e+06	-52939.1	1055.82	-29747.2	0.000000	0.000000	6.374902	0.015318	NaN	0.000000	0.001635	0.001739	28.0828	0.042594	0.002200	19.3567	-128.231	-165.626	0.072246	0.374061	-1.327435	-1.328730	0.015318	19.3567	-1.328028	-5.660263E+17	-2.706234E-20	NaN
1056	1.000000	0.387327	7.37537e+06	-52939.1	1055.82	-29747.2	0.000000	0.000000	6.386872	-0.019132	NaN	0.000000	0.001633	0.001778	28.0829	0.061589	0.001998	30.8183	-166.088	-168.543	0.032695	0.386014	-1.315464	-1.316777	-0.019132	30.8183	-1.314998	-3.791281E+17	5.046232E-20	NaN
1056	1.000000	0.399335	7.37537e+06	-52939.1	1055.82	-29747.2	0.000000	0.000000	6.398880	0.015897	NaN	0.000000	0.001637	0.001802	28.0826	0.075280	0.001998	37.6831	-151.128	-164.256	0.058829	0.398028	-1.303456	-1.304763	0.015897	37.6831	-1.303773	-2.684167E+17	-5.922570E-20	NaN
1056	1.000000	0.411344	7.37537e+06	-52939.1	1055.82	-29747.2	0.000000	0.000000	6.410893	0.086403	NaN	0.000000	0.001654	0.001770	28.0824	0.082586	0.001932	42.7495	-26.662	-163.187	0.071831	0.410004	-1.291446	-1.292787	0.086403	42.7495	-1.292962	-1.924628E+17	-4.489358E-19	NaN
1056	1.000000	0.423387	7.37537e+06	-52939.1	1055.82	-29747.2	0.000000	0.000000	6.422935	0.062413	NaN	0.000000	0.001693	0.001738	28.0811	0.074873	0.002124	35.2494	-139.901	-165.482	0.082015	0.422079	-1.279403	-1.280712	0.062413	35.2494	-1.280731	-1.320882E+17	-4.725078E-19	NaN
1056	1.000000	0.435364	7.37537e+06	-52939.1	1055.82	-29747.2	0.000000	0.000000	6.434910	0.029809	NaN	0.000000	0.001716	0.001783	28.0812	0.085444	0.002041	41.8642	151.527	-166.455	-0.015643	0.434049	-1.267427	-1.268741	0.029809	41.8642	-1.267961	-8.915105E+16	-3.343615E-19	NaN
1056	1.000000	0.447362	7.37537e+06	-52939.1	1055.82	-29747.2	0.000000	0.000000	6.446912	0.097090	NaN	0.000000	0.001711	0.001740	28.0812	0.005559	0.001940	2.865392	-95.5333	-168.533	0.090231	0.446104	-1.255428	-1.256687	0.097090	2.865392	-1.280841	-1.325354E+17	-7.325620E-19	NaN
1056	1.000000	0.459368	7.37537e+06	-52939.1	1055.82	-29747.2	0.000000	0.000000	6.458915	0.027762	NaN	0.000000	0.001719	0.001776	28.0811	0.057470	0.001923	29.8917	-77.2492	-167.034	0.001478	0.458040	-1.243423	-1.244751	0.027762	29.8917	-1.244119	-4.278110E+16	-6.489230E-19	NaN
1056	1.000000	0.471361	7.37537e+06	-52939.1	1055.82	-29747.2	0.000000	0.000000	6.470905	-0.024233	NaN	0.000000	0.001693	0.001723	28.0818	0.054795	0.001997	27.4351	99.4621	-167.46	0.012442	0.470058	-1.231430	-1.232732	-0.024233	27.4351	-1.230767	-2.835355E+16	8.546891E-19	NaN
1056	1.000000	0.483378	7.37537e+06	-52939.1	1055.82	-29747.2	0.000000	0.000000	6.482927	0.085304	NaN	0.000000	0.001629	0.001786	28.0813	0.114995	0.002043	56.2862	-10.9593	-167.122	0.056650	0.482051	-1.219413	-1.220740	0.085304	56.2862	-1.220549	-2.069461E+16	-4.122056E-18	NaN
1056	1.000000	0.495366	7.37537e+06	-52939.1	1055.82	-29747.2	0.000000	0.000000	6.494912	0.001071	NaN	0.000000	0.001677	0.001783	28.0813	0.044186	0.002037	21.6917	-85.027	-164.603	0.026787	0.494043	-1.207424	-1.208747	0.001071	21.6917	-1.207461	-1.382466E+16	-7.747225E-20	NaN
1056	1.000000	0.507396	7.37537e+06	-52939.1	1055.82	-29747.2	0.000000	0.000000	6.506943	0.050044	NaN	0.000000	0.001667	0.001741	28.0814	0.061674	0.002135	28.8931	-146.952	-164.817	0.093223	0.506106	-1.195395	-1.196685	0.050044	28.8931	-1.196694	-9.919292E+15	-5.045162E-18	NaN
1056	1.000000	0.519373	7.37537e+06	-52939.1	1055.82	-29747.2	0.000000	0.000000	6.518923	0.115695	NaN	0.000000	0.001646	0.001762	28.0812	0.044456	0.001984	22.4106	120.708	-169.173	0.121953	0.518071	-1.183418	-1.184720	0.115695	22.4106	-1.187290	-7.422066E+15	-1.558799E-17	NaN
1056	1.000000	0.531416	7.37537e+06	-52939.1	1055.82	-29747.2	0.000000	0.000000	6.530961	-0.004956	NaN	0.000000	0.001685	0.001743	28.0812	0.082566	0.001955	42.2304	169.72	-168.292	-0.071405	0.530085	-1.171375	-1.172706	-0.004956	42.2304	-1.171287	-4.530286E+15	1.094012E-18	NaN
1056	1.000000	0.543424	7.37537e+06	-52939.1	1055.82	-29747.2	0.000000	0.000000	6.542969	-0.022482	NaN	0.000000	0.001659	0.001795	28.0812	0.074419	0.001881	39.5724	0.427899	-168.202	0.015808	0.542124	-1.159366	-1.160667	-0.022482	39.5724	-1.158940	-3.095037E+15	7.263945E-18	NaN
1056	1.000000	0.555407	7.37537e+06	-52939.1	1055.82	-29747.2	0.000000	0.000000	6.554953	0.022065	NaN	0.000000	0.001638	0.001783	28.082	0.065248	0.002124	30.7156	70.5361	-164.892	0.053930	0.554115	-1.147384	-1.148676	0.022065	30.7156	-1.147923	-2.202770E+15	-1.001687E-17	NaN
1056	1.000000	0.567416	7.37537e+06	-52939.1	1055.82	-29747.2	0.000000	0.000000	6.566961	0.002901	NaN	0.000000	0.001641	0.001791	28.0825	0.121320	0.001960	61.9125	-167.707	-168.232	0.028861	0.566129	-1.135375	-1.136661	0.002901	61.9125	-1.135410	-1.496877E+15	-1.938224E-18	NaN
1056	1.000000	0.579404	7.37537e+06	-52939.1	1055.82	-29747.2	0.000000	0.000000	6.578951	0.035677	NaN	0.000000	0.001658	0.001762	28.0825	0.084537	0.002100	40.2649	-115.641	-168.959	-0.041803	0.578186	-1.123387	-1.124605	0.035677	40.2649	-1.124051	-1.053962E+15	-3.385015E-17	NaN
1056	1.000000	0.591424	7.37537e+06	-52939.1	1055.82	-29747.2	0.000000	0.000000	6.590971	0.032072	NaN	0.000000	0.001637	0.001783	28.0829	0.037508	0.001897	19.7696	-17.058	-168.919	0.024207	0.590128	-1.111366	-1.112663	0.032072	19.7696	-1.112583	-7.395262E+14	-4.336898E-17	NaN
1056	1.000000	0.603440	7.37537e+06	-52939.1	1055.82	-29747.2	0.000000	0.000000	6.602987	0.044085	NaN	0.000000	0.001638	0.001814	28.0828	0.021451	0.001885	11.3819	-33.1796	-167.022	0.008933	0.602113	-1.099351	-1.100678	0.044085	11.3819	-1.102256	-5.374682E+14	-8.202391E-17	NaN
1056	1.000000	0.615471	7.37537e+06	-52939.1	1055.82	-29747.2	0.000000	0.000000	6.615018	0.029521	NaN	0.000000	0.001543	0.001779	28.0825	0.075849	0.001902	39.889	-105.376	-169.43	-0.020360	0.614098	-1.087320	-1.088692	0.029521	39.889	-1.087875	-3.445658E+14	-8.567619E-17	NaN
1056	1.000000	0.627430	7.37537e+06	-52939.1	1055.82	-29747.2	0.000000	0.000000	6.626975	0.003721	NaN	0.000000	0.001573	0.001786	28.0825	0.063498	0.001926	32.9614	26.0547	-166.345	-0.021083	0.626119	-1.075361	-1.076672	0.003721	32.9614	-1.075446	-2.346086E+14	-1.586252E-17	NaN
1056	1.000000	0.639437	7.37537e+06	-52939.1	1055.82	-29747.2	0.000000	0.000000	6.638984	0.032718	NaN	0.000000	0.001577	0.001748	28.0825	0.046878	0.001977	23.7072	-138.554	-166.674	0.110012	0.638097	-1.063353	-1.064694	0.032718	23.7072	-1.064389	-1.666454E+14	-1.963344E-16	NaN
1056	1.000000	0.651425	7.37537e+06	-52939.1	1055.82	-29747.2	0.000000	0.000000	6.650970	-0.003380	NaN	0.000000	0.001546	0.001771	28.0826	0.022634	0.002005	11.2859	8.321424	-167.83	0.078863	0.650179	-1.051366	-1.052612	-0.003380	11.2859	-1.051142	-1.106013E+14	3.056221E-17	NaN
1056	1.000000	0.663461	7.37537e+06	-52939.1	1055.82	-29747.2	0.000000	0.000000	6.663006	-0.012585	NaN	0.000000	0.001536	0.001765	28.0825	0.051337	0.001976	25.9775	-18.1783	-168.324	0.031639	0.662226	-1.039330	-1.040565	-0.012585	25.9775	-1.038966	-7.586926E+13	1.658717E-16	NaN
1056	1.000000	0.675472	7.37537e+06	-52939.1	1055.82	-29747.2	0.000000	0.000000	6.675020	0.089328	NaN	0.000000	0.001591	0.001763	28.0825	0.028139	0.002014	13.9718	-113.786	-162.592	0.073264	0.674162	-1.027319	-1.028629	0.089328	13.9718	-1.032114	-6.136470E+13	-1.455683E-15	NaN
1056	1.000000	0.687501	7.37537e+06	-52939.1	1055.82	-29747.2	0.000000	0.000000	6.687050	0.074498	NaN	0.000000	0.001573	0.001770	28.0827	0.091415	0.002036	44.8992	9.981316	-164.067	0.008696	0.686171	-1.015289	-1.016620	0.074498	44.8992	-1.016534	-3.787163E+13	-1.967130E-15	NaN
1056	1.000000	0.699482	7.37538e+06	-52939.1	1055.82	-29747.2	0.000000	0.000000	6.699029	0.031424	NaN	0.000000	0.001552	0.001774	28.0818	0.134681	0.001840	73.2125	126.825	-167.465	-0.070632	0.698164	-1.003309	-1.004626	0.031424	73.2125	-1.003630	-2.538894E+13	-1.237692E-15	NaN
1056	1.000000	0.711478	7.37538e+06	-52939.1	1055.82	-29747.2	0.000000	0.000000	6.711027	0.090360	NaN	0.000000	0.001558	0.001717	28.0815	0.095477	0.001966	48.5651	-95.1152	-164.726	0.141876	0.710198	-0.991313	-0.992593	0.090360	48.5651	-0.992708	-1.809603E+13	-4.993349E-15	NaN
1056	1.000000	0.723502	7.37538e+06	-52939.1	1055.82	-29747.2	0.000000	0.000000	6.723049	0.055759	NaN	0.000000	0.001571	0.001741	28.0813	0.050916	0.001920	26.5227	27.089	-167.002	0.030263	0.722146	-0.979289	-0.980644	0.055759	26.5227	-0.980866	-1.253367E+13	-4.448717E-15	NaN
1056	1.000000	0.735511	7.37538e+06	-52939.1	1055.82	-29747.2	0.000000	0.000000	6.735059	0.053001	NaN	0.000000	0.001537	0.001730	28.0815	0.067971	0.002002	33.9564	27.062	-165.702	0.126575	0.734238	-0.967280	-0.968553	0.053001	33.9564	-0.968450	-8.526606E+12	-6.215994E-15	NaN
1056	1.000000	0.747510	7.37538e+06	-52939.1	1055.82	-29747.2	0.000000	0.000000	6.747059	0.108101	NaN	0.000000	0.001642	0.001757	28.0813	0.071744	0.002065	34.75	52.2014	-167.829	0.094903	0.746199	-0.955281	-0.956591	0.108101	34.75	-0.957614	-6.091213E+12	-1.774707E-14	NaN
1056	1.000000	0.759518	7.37538e+06	-52939.1	1055.82	-29747.2	0.000000	0.000000	6.759066	0.070700	NaN	0.000000	0.001606	0.001735	28.0815	0.083990	0.002058	40.8088	115.747	-168.82	0.021744	0.758179	-0.943273	-0.944612	0.070700	40.8088	-0.944572	-4.062708E+12	-1.740208E-14	NaN
1056	1.000000	0.771495	7.37538e+06	-52939.1	1055.82	-29747.2	0.000000	0.000000	6.771042	0.045553	NaN	0.000000	0.001542	0.001735	28.0813	0.108664	0.002040	53.2757	80.2313	-164.434	0.016278	0.770189	-0.931296	-0.932602	0.045553	53.2757	-0.931937	-2.743726E+12	-1.660260E-14	NaN
1056	1.000000	0.783510	7.37538e+06	-52939.1	1055.82	-29747.1	0.000000	0.000000	6.783057	0.042171	NaN	0.000000	0.001576	0.001734	28.0813	0.051248	0.002004	25.578	-117.779	-167.523	0.098909	0.782196	-0.919281	-0.920595	0.042171	25.578	-0.920518	-1.923949E+12	-2.191917E-14	NaN
1056	1.000000	0.795506	7.37538e+06	-52939.1	1055.82	-29747.1	0.000000	0.000000	6.795051	0.009496	NaN	0.000000	0.001560	0.001751	28.0819	0.125054	0.001917	65.231	-98.7733	-164.455	0.061158	0.794211	-0.907285	-0.908579	0.009496	65.231	-0.907394	-1.279277E+12	-7.423085E-15	NaN
1056	1.000000	0.807521	7.37538e+06	-52939.1	1055.82	-29747.1	0.000000	0.000000	6.807067	0.035441	NaN	0.000000	0.001578	0.001748	28.0816	0.021523	0.002034	10.5805	70.599	-165.912	0.017921	0.806235	-0.895270	-0.896555	0.035441	10.5805	-0.897782	-9.486320E+11	-3.736014E-14	NaN
1056	1.000000	0.819558	7.37538e+06	-52939.1	1055.82	-29747.1	0.000000	0.000000	6.819105	0.049477	NaN	0.000000	0.001553	0.001714	28.0813	0.037162	0.002012	18.4742	-149.256	-167.357	0.022919	0.818209	-0.883233	-0.884582	0.049477	18.4742	-0.885241	-6.420682E+11	-7.705886E-14	NaN
1056	1.000000	0.831530	7.37538e+06	-52939.1	1055.82	-29747.1	0.000000	0.000000	6.831075	-0.002598	NaN	0.000000	0.001594	0.001736	28.0828	0.119483	0.002001	59.7048	103.085	-171.073	0.042652	0.830276	-0.871261	-0.872515	-0.002598	59.7048	-0.871228	-4.150084E+11	6.260330E-15	NaN
1056	1.000000	0.843522	7.37538e+06	-52939.1	1055.82	-29747.1	0.000000	0.000000	6.843068	0.024164	NaN	0.000000	0.001551	0.001732	28.0827	0.031305	0.001999	15.6594	-64.5217	-168.717	-0.028625	0.842288	-0.859269	-0.860502	0.024164	15.6594	-0.860427	-2.964118E+11	-8.152184E-14	NaN
1056	1.000000	0.855541	7.37538e+06	-52939.1	1055.82	-29747.1	0.000000	0.000000	6.855084	-0.050892	NaN	0.000000	0.001589	0.001753	28.0827	0.076606	0.001918	39.9448	11.8149	-165.178	0.064667	0.854262	-0.847250	-0.848529	-0.050892	39.9448	-0.846294	-1.907884E+11	2.667439E-13	NaN
1056	1.000000	0.867547	7.37538e+06	-52939.1	1055.82	-29747.1	0.000000	0.000000	6.867091	-0.021212	NaN	0.000000	0.001597	0.001746	28.0826	0.082957	0.001937	42.8213	-6.008929	-165.924	0.032056	0.866203	-0.835244	-0.836588	-0.021212	42.8213	-0.834872	-1.336025E+11	1.587725E-13	NaN
1056	1.000000	0.879535	7.37538e+06	-52939.1	1055.82	-29747.1	0.000000	0.000000	6.879081	0.002528	NaN	0.000000	0.001591	0.001757	28.0826	0.072633	0.002051	35.4088	32.6795	-164.732	0.016934	0.878228	-0.823255	-0.824563	0.002528	35.4088	-0.823309	-9.312773E+10	-2.714827E-14	NaN
1056	1.000000	0.891561	7.37538e+06	-52939.1	1055.82	-29747.1	0.000000	0.000000	6.891106	-0.008038	NaN	0.000000	0.001580	0.001722	28.0828	0.086788	0.002099	41.3381	49.0495	-169.38	-0.001302	0.890246	-0.811230	-0.812545	-0.008038	41.3381	-0.811084	-6.357351E+10	1.264304E-13	NaN
1056	1.000000	0.903564	7.37538e+06	-52939.1	1055.82	-29747.1	0.000000	0.000000	6.903111	0.052909	NaN	0.000000	0.001617	0.001710	28.0826	0.083450	0.002057	40.5702	107.224	-170.181	0.098522	0.902171	-0.799227	-0.800619	0.052909	40.5702	-0.800205	-4.525272E+10	-1.169194E-12	NaN
1056	1.000000	0.915552	7.37538e+06	-52939.1	1055.82	-29747.1	0.000000	0.000000	6.915098	0.021882	NaN	0.000000	0.001554	0.001739	28.0826	0.006104	0.001960	3.113896	-27.3503	-167.12	0.060824	0.914193	-0.787239	-0.788598	0.021882	3.113896	-0.792509	-3.557585E+10	-6.150664E-13	NaN
1056	1.000000	0.927578	7.37538e+06	-52939.1	1055.82	-29747.1	0.000000	0.000000	6.927125	0.048596	NaN	0.000000	0.001572	0.001722	28.0827	0.045683	0.002030	22.5067	-112.334	-165.556	0.050153	0.926293	-0.775213	-0.776497	0.048596	22.5067	-0.776832	-2.178617E+10	-2.230605E-12	NaN
1056	1.000000	0.939571	7.37538e+06	-52939.1	1055.82	-29747.1	0.000000	0.000000	6.939119	0.056438	NaN	0.000000	0.001565	0.001749	28.0826	0.113773	0.002030	56.048	101.921	-163.406	0.087402	0.938214	-0.763220	-0.764577	0.056438	56.048	-0.763975	-1.456704E+10	-3.874329E-12	NaN
1056	1.000000	0.951609	7.37538e+06	-52939.1	1055.82	-29747.1	0.000000	0.000000	6.951156	0.046216	NaN	0.000000	0.001541	0.001744	28.0826	0.112911	0.002042	55.3021	-167.976	-167.016	0.005582	0.950264	-0.751181	-0.752527	0.046216	55.3021	-0.751808	-9.950217E+9	-4.644709E-12	NaN
1056	1.000000	0.963582	7.37538e+06	-52939.1	1055.82	-29747.1	0.000000	0.000000	6.963131	0.081186	NaN	0.000000	0.001568	0.001781	28.0823	0.088885	0.001935	45.9342	158.354	-165.984	-0.009621	0.962251	-0.739208	-0.740540	0.081186	45.9342	-0.740534	-6.987613E+9	-1.161857E-11	NaN
1056	1.000000	0.975613	7.37538e+06	-52939.1	1055.82	-29747.1	0.000000	0.000000	6.975161	0.062665	NaN	0.000000	0.001569	0.001728	28.0816	0.068488	0.001945	35.217	-136.151	-167.486	0.037589	0.974279	-0.727178	-0.728512	0.062665	35.217	-0.728512	-4.792155E+9	-1.307651E-11	NaN
1056	1.000000	0.987605	7.37538e+06	-52939.1	1055.82	-29747.1	0.000000	0.000000	6.987152	0.040325	NaN	0.000000	0.001567	0.001751	28.0818	0.045967	0.002023	22.7248	-133.94	-164.202	-0.087149	0.986272	-0.715186	-0.716519	0.040325	22.7248	-0.716516	-3.288203E+9	-1.226350E-11	NaN
1056	1.000000	0.999590	7.37538e+06	-52939.1	1055.82	-29747.1	0.000000	0.000000	6.999136	0.025292	NaN	0.000000	0.001562	0.001739	28.0816	0.065046	0.001900	34.2361	171.465	-166.514	0.044496	0.998300	-0.703201	-0.704490	0.025292	34.2361	-0.703755	-2.201915E+9	-1.148639E-11	NaN
1056	1.000000	1.011606	7.37538e+06	-52939.1	1055.82	-29747.1	0.000000	0.000000	7.011153	0.046370	NaN	0.000000	0.001551	0.001714	28.0816	0.139815	0.002094	66.766	78.7759	-167.432	0.076187	1.010335	-0.691185	-0.692456	0.046370	66.766	-0.691706	-1.507419E+9	-3.076120E-11	NaN
1056	1.000000	1.023598	7.37538e+06	-52939.1	1055.82	-29747.1	0.000000	0.000000	7.023145	0.038789	NaN	0.000000	0.001543	0.001694	28.0816	0.055284	0.002024	27.3202	27.5476	-165.832	0.057663	1.022281	-0.679193	-0.680510	0.038789	27.3202	-0.680258	-1.051308E+9	-3.689639E-11	NaN
1056	1.000000	1.035617	7.37538e+06	-52939.1	1055.82	-29747.1	0.000000	0.000000	7.035162	0.009982	NaN	0.000000	0.001528	0.001765	28.0814	0.037761	0.001924	19.6224	-128.249	-169.716	-0.026291	1.034283	-0.667174	-0.668508	0.009982	19.6224	-0.667556	-7.045860E+8	-1.416682E-11	NaN
1056	1.000000	1.047613	7.37538e+06	-52939.1	1055.82	-29747.1	0.000000	0.000000	7.047161	0.055298	NaN	0.000000	0.001548	0.001749	28.0814	0.090830	0.001933	46.9958	176.217	-164.185	0.103622	1.046318	-0.655178	-0.656472	0.055298	46.9958	-0.656060	-4.903363E+8	-1.127757E-10	NaN
1056	1.000000	1.059617	7.37538e+06	-52939.1	1055.82	-29747.1	0.000000	0.000000	7.059165	0.088169	NaN	0.000000	0.001535	0.001726	28.0814	0.088725	0.001873	47.3783	-140.003	-169.288	0.115749	1.058298	-0.643174	-0.644492	0.088169	47.3783	-0.644570	-3.411769E+8	-2.584256E-10	NaN
1056	1.000000	1.071641	7.37538e+06	-52939.1	1055.82	-29747.1	0.000000	0.000000	7.071190	0.077381	NaN	0.000000	0.001542	0.001717	28.0815	0.067734	0.002105	32.1848	-98.9626	-163.687	0.067044	1.070369	-0.631150	-0.632422	0.077381	32.1848	-0.632953	-2.363566E+8	-3.273926E-10	NaN
1056	1.000000	1.083642	7.37538e+06	-52939.1	1055.82	-29747.1	0.000000	0.000000	7.083191	0.095055	NaN	0.000000	0.001510	0.001728	28.0821	0.077242	0.002075	37.2196	15.678	-168.13	0.132506	1.082287	-0.619149	-0.620504	0.095055	37.2196	-0.621065	-1.622805E+8	-5.857431E-10	NaN
1056	1.000000	1.095626	7.37538e+06	-52939.1	1055.82	-29747.1	0.000000	0.000000	7.095171	0.004012	NaN	0.000000	0.001560	0.001729	28.0818	0.102149	0.002024	50.4716	-146.357	-166.237	0.068754	1.094318	-0.607165	-0.608472	0.004012	50.4716	-0.607225	-1.046949E+8	-3.832134E-11	NaN
1056	1.000000	1.107657	7.37538e+06	-52939.1	1055.82	-29747.1	0.000000	0.000000	7.107203	0.035952	NaN	0.000000	0.001535	0.001731	28.0827	0.100834	0.002043	49.3563	-112.817	-169.182	0.057140	1.106302	-0.595134	-0.596489	0.035952	49.3563	-0.595681	-7.260386E+7	-4.951868E-10	NaN
1056	1.000000	1.119669	7.37538e+06	-52939.1	1055.82	-29747.1	0.000000	0.000000	7.119216	0.026115	NaN	0.000000	0.001536	0.001727	28.0827	0.069673	0.001976	35.2594	70.1922	-165.01	0.008052	1.118354	-0.583121	-0.584437	0.026115	35.2594	-0.583677	-4.959797E+7	-5.265422E-10	NaN
1056	1.000000	1.131639	7.37538e+06	-52939.1	1055.82	-29747.1	0.000000	0.000000	7.131187	0.063377	NaN	0.000000	0.001517	0.001716	28.0827	0.042641	0.001937	22.0123	-168.423	-169.858	0.032522	1.130379	-0.571152	-0.572412	0.063377	22.0123	-0.573311	-3.567600E+7	-1.776458E-9	NaN
1056	1.000000	1.143642	7.37538e+06	-52939.1	1055.82	-29747.1	0.000000	0.000000	7.143190	0.058679	NaN	0.000000	0.001523	0.001749	28.0831	0.049180	0.001978	24.8653	-179.758	-162.741	0.080571	1.142373	-0.559149	-0.560417	0.058679	24.8653	-0.560919	-2.404833E+7	-2.440033E-9	NaN
1056	1.000000	1.155673	7.37538e+06	-52939.1	1055.82	-29747.1	0.000000	0.000000	7.155220	0.030912	NaN	0.000000	0.001532	0.001756	28.0828	0.096642	0.001967	49.1298	15.769	-167.763	-0.040124	1.154345	-0.547118	-0.548446	0.030912	49.1298	-0.547589	-1.572401E+7	-1.965938E-9	NaN
1056	1.000000	1.167659	7.37538e+06	-52939.1	1055.82	-29747.1	0.000000	0.000000	7.167206	0.034736	NaN	0.000000	0.001508	0.001733	28.0828	0.023419	0.001978	11.8393	-91.8188	-164.4	0.108427	1.166341	-0.535132	-0.536450	0.034736	11.8393	-0.537332	-1.133320E+7	-3.064966E-9	NaN
1056	1.000000	1.179664	7.37538e+06	-52939.1	1055.82	-29747.1	0.000000	0.000000	7.179212	0.070358	NaN	0.000000	0.001515	0.001742	28.083	0.081273	0.002088	38.9188	72.6223	-167.404	0.064295	1.178359	-0.523127	-0.524432	0.070358	38.9188	-0.524483	-7.5149e+06	-9.362420E-9	NaN
1056	1.000000	1.191659	7.37538e+06	-52939.1	1055.82	-29747.1	0.000000	0.000000	7.191204	-0.009348	NaN	0.000000	0.001529	0.001717	28.0831	0.065579	0.001902	34.4851	152.298	-162.679	0.038437	1.190346	-0.511131	-0.512445	-0.009348	34.4851	-0.510928	-4.86791e+06	1.920270E-9	NaN
1056	1.000000	1.203669	7.37538e+06	-52939.1	1055.82	-29747.1	0.000000	0.000000	7.203217	0.058788	NaN	0.000000	0.001532	0.001762	28.0829	0.123430	0.002019	61.1348	-58.1468	-163.8	0.081254	1.202387	-0.499122	-0.500404	0.058788	61.1348	-0.499843	-3.41056e+06	-1.723699E-8	NaN
1056	1.000000	1.215657	7.37538e+06	-52939.1	1055.82	-29747.1	0.000000	0.000000	7.215203	0.008096	NaN	0.000000	0.001585	0.001748	28.0827	0.106235	0.001976	53.764	-142.646	-166.156	0.103705	1.214350	-0.487134	-0.488441	0.008096	53.764	-0.487247	-2.27461e+06	-3.559141E-9	NaN
1056	1.000000	1.227646	7.37538e+06	-52939.1	1055.82	-29747.1	0.000000	0.000000	7.227195	0.088120	NaN	0.000000	0.001520	0.001738	28.0827	0.089162	0.002024	44.0527	140.059	-166.721	0.096281	1.226382	-0.475144	-0.476409	0.088120	44.0527	-0.476645	-1.61638e+06	-5.451718E-8	NaN
1056	1.000000	1.239665	7.37538e+06	-52939.1	1055.82	-29747.1	0.000000	0.000000	7.239213	0.083429	NaN	0.000000	0.001560	0.001787	28.0817	0.027613	0.001977	13.9663	163.256	-167.146	0.098718	1.238345	-0.463126	-0.464446	0.083429	13.9663	-0.467606	-1.20734e+06	-6.910156E-8	NaN
1056	1.000000	1.251708	7.37538e+06	-52939.1	1055.82	-29747.1	0.000000	0.000000	7.251256	0.076517	NaN	0.000000	0.001580	0.001759	28.0815	0.054913	0.001982	27.702	-115.331	-164.244	0.042801	1.250364	-0.451083	-0.452427	0.076517	27.702	-0.453154	-756397	-1.011600E-7	NaN
1056	1.000000	1.263702	7.37538e+06	-52939.1	1055.82	-29747.1	0.000000	0.000000	7.263248	0.009226	NaN	0.000000	0.001577	0.001768	28.0815	0.103335	0.002037	50.7184	-155.849	-168.038	-0.016529	1.262390	-0.439089	-0.440401	0.009226	50.7184	-0.439225	-481311	-1.916820E-8	NaN
1056	1.000000	1.275698	7.37538e+06	-52939.1	1055.82	-29747.1	0.000000	0.000000	7.275247	0.087133	NaN	0.000000	0.001503	0.001733	28.0816	0.045377	0.001989	22.8142	-104.999	-166.407	0.107008	1.274382	-0.427093	-0.428409	0.087133	22.8142	-0.429957	-356008	-2.447494E-7	NaN
1056	1.000000	1.287705	7.37538e+06	-52939.1	1055.82	-29747.1	0.000000	0.000000	7.287249	-0.018644	NaN	0.000000	0.001536	0.001728	28.082	0.040982	0.001852	22.1243	-128.003	-169.569	0.004051	1.286413	-0.415086	-0.416378	-0.018644	22.1243	-0.414454	-214636	8.686247E-8	NaN
1056	1.000000	1.299726	7.37538e+06	-52939.1	1055.82	-29747.1	0.000000	0.000000	7.299274	0.062219	NaN	0.000000	0.001546	0.001742	28.0815	0.188728	0.001973	95.6666	62.8051	-165.842	0.081658	1.298439	-0.403065	-0.404352	0.062219	95.6666	-0.403552	-150186	-4.142761E-7	NaN
1056	1.000000	1.311720	7.37538e+06	-52939.1	1055.82	-29747.1	0.000000	0.000000	7.311265	0.018617	NaN	0.000000	0.001560	0.001743	28.0814	0.014860	0.002083	7.132826	-40.3331	-166.847	0.028208	1.310394	-0.391071	-0.392397	0.018617	7.132826	-0.393029	-106285	-1.751615E-7	NaN
1056	1.000000	1.323731	7.37538e+06	-52939.1	1055.82	-29747.1	0.000000	0.000000	7.323279	0.078833	NaN	0.000000	0.001544	0.001715	28.0813	0.125362	0.001987	63.1011	-26.7817	-164.348	0.110005	1.322450	-0.379060	-0.380341	0.078833	63.1011	-0.379997	-69159.3	-1.139872E-6	NaN
1056	1.000000	1.335723	7.37538e+06	-52939.1	1055.82	-29747.1	0.000000	0.000000	7.335271	0.077109	NaN	0.000000	0.001530	0.001707	28.0814	0.015839	0.001954	8.107558	23.1379	-168.091	0.033631	1.334389	-0.367068	-0.368401	0.077109	8.107558	-0.374201	-57093	-1.350590E-6	NaN
1056	1.000000	1.347773	7.37538e+06	-52939.1	1055.82	-29747.1	0.000000	0.000000	7.347319	0.020694	NaN	0.000000	0.001480	0.001746	28.0815	0.062821	0.001913	32.8365	58.6997	-167.077	-0.030554	1.346438	-0.355018	-0.356353	0.020694	32.8365	-0.355491	-30662.1	-6.749054E-7	NaN
1056	1.000000	1.359761	7.37538e+06	-52939.1	1055.82	-29747.1	0.000000	0.000000	7.359308	0.040424	NaN	0.000000	0.001509	0.001755	28.0812	0.039045	0.001972	19.8023	82.8169	-165.495	-0.013258	1.358472	-0.343030	-0.344319	0.040424	19.8023	-0.344561	-21279.7	-1.899650E-6	NaN
1056	1.000000	1.371758	7.37538e+06	-52939.1	1055.82	-29747.1	0.000000	0.000000	7.371305	0.046956	NaN	0.000000	0.001501	0.001732	28.0815	0.085680	0.001967	43.5651	137.307	-167.102	-0.073691	1.370458	-0.331033	-0.332333	0.046956	43.5651	-0.331841	-13880.5	-3.382869E-6	NaN
1056	1.000000	1.383776	7.37538e+06	-52939.1	1055.82	-29747.1	0.000000	0.000000	7.383324	0.064925	NaN	0.000000	0.001519	0.001762	28.0826	0.037954	0.002015	18.8345	58.6071	-167.281	-0.019208	1.382439	-0.319015	-0.320352	0.064925	18.8345	-0.321600	-9821.61	-6.610420E-6	NaN
1056	1.000000	1.395770	7.37538e+06	-52939.1	1055.82	-29747.1	0.000000	0.000000	7.395316	0.024977	NaN	0.000000	0.001514	0.001763	28.0827	0.065108	0.002064	31.5388	6.716357	-166.641	0.028517	1.394481	-0.307021	-0.308310	0.024977	31.5388	-0.307615	-6105.76	-4.090786E-6	NaN
1056	1.000000	1.407767	7.37538e+06	-52939.1	1055.82	-29747.1	0.000000	0.000000	7.407314	0.048719	NaN	0.000000	0.001569	0.001731	28.0825	0.046035	0.001991	23.1244	-107.959	-167.188	0.053516	1.406408	-0.295024	-0.296382	0.048719	23.1244	-0.296604	-4188.19	-1.163237E-5	NaN
1056	1.000000	1.419798	7.37538e+06	-52939.1	1055.82	-29747.1	0.000000	0.000000	7.419345	0.043067	NaN	0.000000	0.001538	0.001731	28.0825	0.042555	0.002068	20.5774	140.357	-166.99	0.004717	1.418456	-0.282992	-0.284335	0.043067	20.5774	-0.284562	-2764.93	-1.557631E-5	NaN
1056	1.000000	1.431771	7.37538e+06	-52939.1	1055.82	-29747.1	0.000000	0.000000	7.431316	-0.012818	NaN	0.000000	0.001537	0.001767	28.0828	0.073899	0.001955	37.8027	-126.17	-170.111	-0.081702	1.430478	-0.271020	-0.272313	-0.012818	37.8027	-0.270766	-1710.71	7.492832E-6	NaN
1056	1.000000	1.443791	7.37538e+06	-52939.1	1055.82	-29747.1	0.000000	0.000000	7.443336	-0.004515	NaN	0.000000	0.001500	0.001764	28.0824	0.049067	0.001932	25.3907	-49.916	-166.769	0.133031	1.442469	-0.259000	-0.260322	-0.004515	25.3907	-0.258867	-1126	4.010096E-6	NaN
1056	1.000000	1.455778	7.37538e+06	-52939.1	1055.82	-29747.1	0.000000	0.000000	7.455324	0.026762	NaN	0.000000	0.001531	0.001759	28.0827	0.094000	0.001976	47.573	-21.7672	-166.601	0.054265	1.454481	-0.247013	-0.248310	0.026762	47.573	-0.247435	-750.313	-3.566741E-5	NaN
1056	1.000000	1.467783	7.37538e+06	-52939.1	1055.82	-29747.1	0.000000	0.000000	7.467330	0.041604	NaN	0.000000	0.001543	0.001760	28.0828	0.166779	0.001968	84.7413	117.831	-166.095	0.058484	1.466494	-0.235007	-0.236297	0.041604	84.7413	-0.235376	-486.571	-8.550516E-5	NaN
1056	1.000000	1.479818	7.37538e+06	-52939.1	1055.82	-29747.1	0.000000	0.000000	7.479364	0.019166	NaN	0.000000	0.001522	0.001744	28.0827	0.077216	0.002118	36.4605	139.65	-165.727	-0.014332	1.478526	-0.222973	-0.224265	0.019166	36.4605	-0.223367	-314.32	-6.097718E-5	NaN
1056	1.000000	1.491814	7.37538e+06	-52939.1	1055.82	-29747.1	0.000000	0.000000	7.491362	0.080797	NaN	0.000000	0.001534	0.001740	28.083	0.017709	0.001993	8.886346	-157.521	-163.524	0.025243	1.490495	-0.210977	-0.212296	0.080797	8.886346	-0.217796	-256.099	-0.000315	NaN
1056	1.000000	1.503790	7.37538e+06	-52939.1	1055.82	-29747.1	0.000000	0.000000	7.503337	0.044700	NaN	0.000000	0.001544	0.001787	28.0825	0.020207	0.002018	10.0116	-126.367	-167.25	0.061726	1.502458	-0.199001	-0.200333	0.044700	10.0116	-0.202349	-143.959	-0.000311	NaN
1056	1.000000	1.515811	7.37538e+06	-52939.1	1055.82	-29747.1	0.000000	0.000000	7.515359	0.057662	NaN	0.000000	0.001558	0.001777	28.0813	0.056339	0.002057	27.3929	124.42	-162.765	0.050713	1.514503	-0.186979	-0.188288	0.057662	27.3929	-0.188558	-85.0965	-0.000678	NaN
1056	1.000000	1.527835	7.37538e+06	-52939.1	1055.82	-29747.1	0.000000	0.000000	7.527382	0.043573	NaN	0.000000	0.001567	0.001777	28.0813	0.063215	0.001904	33.2087	-66.6381	-169.352	0.027553	1.526572	-0.174956	-0.176219	0.043573	33.2087	-0.175940	-52.014	-0.000838	NaN
1056	1.000000	1.539843	7.37538e+06	-52939.1	1055.82	-29747.1	0.000000	0.000000	7.539390	0.046529	NaN	0.000000	0.001533	0.001758	28.0816	0.021906	0.002005	10.9261	66.6509	-167.686	0.099236	1.538550	-0.162948	-0.164241	0.046529	10.9261	-0.166142	-35.1828	-0.001322	NaN
1056	1.000000	1.551842	7.37538e+06	-52939.1	1055.82	-29747.1	0.000000	0.000000	7.551388	0.020187	NaN	0.000000	0.001494	0.001747	28.0816	0.081316	0.002065	39.3747	25.7556	-165.747	-0.031711	1.550532	-0.150948	-0.152258	0.020187	39.3747	-0.151333	-19.1544	-0.001054	NaN
1056	1.000000	1.563835	7.37538e+06	-52939.1	1055.82	-29747.1	0.000000	0.000000	7.563383	0.063663	NaN	0.000000	0.001513	0.001744	28.0817	0.048420	0.002156	22.4578	43.8191	-168.562	0.064334	1.562550	-0.138956	-0.140241	0.063663	22.4578	-0.141082	-12.3954	-0.005136	NaN
1056	1.000000	1.575847	7.37538e+06	-52939.1	1055.82	-29747.1	0.000000	0.000000	7.575392	0.006580	NaN	0.000000	0.001544	0.001749	28.0818	0.095937	0.001936	49.5422	-99.2809	-170.108	-0.003913	1.574522	-0.126944	-0.128269	0.006580	49.5422	-0.127043	-6.672251	-0.000986	NaN
1056	1.000000	1.587882	7.37538e+06	-52939.1	1055.82	-29747.1	0.000000	0.000000	7.587429	0.044006	NaN	0.000000	0.001515	0.001779	28.0815	0.029432	0.002049	14.3655	57.9892	-163.32	-0.004714	1.586569	-0.114909	-0.116222	0.044006	14.3655	-0.117206	-4.240080	-0.010379	NaN
1056	1.000000	1.599881	7.37538e+06	-52939.1	1055.82	-29747.1	0.000000	0.000000	7.599426	-0.022443	NaN	0.000000	0.001607	0.001764	28.0818	0.108851	0.002028	53.6685	18.4319	-168.502	0.007221	1.598507	-0.102909	-0.104284	-0.022443	53.6685	-0.102596	-2.084120	0.010769	NaN
1056	1.000000	1.611862	7.37538e+06	-52939.1	1055.82	-29747.1	0.000000	0.000000	7.611409	0.037801	NaN	0.000000	0.001609	0.001739	28.0816	0.105746	0.002096	50.45	124.231	-165.183	0.013912	1.610559	-0.090928	-0.092232	0.037801	50.45	-0.091490	-1.171201	-0.032275	NaN
1056	1.000000	1.623874	7.37538e+06	-52939.1	1055.82	-29747.1	0.000000	0.000000	7.623421	0.034821	NaN	0.000000	0.001520	0.001739	28.0815	0.080343	0.002029	39.5881	119.523	-166.123	0.092043	1.622558	-0.078917	-0.080233	0.034821	39.5881	-0.079576	-0.604058	-0.057645	NaN
1056	1.000000	1.635875	7.37538e+06	-52939.1	1055.82	-29747.1	0.000000	0.000000	7.635423	0.076378	NaN	0.000000	0.001518	0.001742	28.0816	0.033034	0.002096	15.7571	177.203	-164.472	0.049683	1.634525	-0.066916	-0.068266	0.076378	15.7571	-0.070551	-0.352879	-0.216443	NaN
1056	1.000000	1.647928	7.37538e+06	-52939.1	1055.82	-29747.1	0.000000	0.000000	7.647475	0.029024	NaN	0.000000	0.001606	0.001733	28.0824	0.106117	0.001983	53.5046	159.842	-167.11	0.014507	1.646577	-0.054863	-0.056214	0.029024	53.5046	-0.055269	-0.131159	-0.221291	NaN
1056	1.000000	1.659894	7.37538e+06	-52939.1	1055.82	-29747.1	0.000000	0.000000	7.659442	0.068522	NaN	0.000000	0.001609	0.001713	28.083	0.108370	0.002127	50.9417	-28.4162	-169.979	0.083721	1.658518	-0.042897	-0.044273	0.068522	50.9417	-0.043906	-0.059502	-1.151599	NaN
1056	1.000000	1.671875	7.37538e+06	-52939.1	1055.82	-29747.1	0.000000	0.000000	7.671425	0.121971	NaN	0.000000	0.001566	0.001720	28.0827	0.092864	0.001902	48.8292	40.025	-167.33	0.172404	1.670547	-0.030916	-0.032244	0.121971	48.8292	-0.032789	-0.027609	-4.417776	NaN
1056	1.000000	1.683923	7.37538e+06	-52939.1	1055.82	-29747.1	0.000000	0.000000	7.683470	0.049243	NaN	0.000000	0.001625	0.001735	28.0826	0.073921	0.002082	35.5001	111.453	-164.187	0.119247	1.682563	-0.018868	-0.020228	0.049243	35.5001	-0.019908	-0.012493	-3.941461	NaN
1056	1.000000	1.695918	7.37538e+06	-52939.1	1055.82	-29747.1	0.000000	0.000000	7.695464	0.007628	NaN	0.000000	0.001616	0.001756	28.0826	0.122129	0.002020	60.4683	32.8395	-164.722	0.024254	1.694632	-0.006873	-0.008159	0.007628	60.4683	-0.006967	-0.004621	-1.650812	NaN
1056	1.000000	1.707896	7.37538e+06	-52939.1	1055.82	-29747.1	0.000000	0.000000	7.707628	4.535493	NaN	0.000000	0.001603	0.001718	28.0827	4.491111	0.001841	2439.53	15.1018	-169.953	4.329540	1.706625	0.005105	0.003834	4.535493	2439.53	0.003711	0.002987	1518.4	40781.2
1056	2.000000	1.715413	7.37538e+06	-52939.1	1055.82	-29747.1	0.000000	0.000000	7.715375	10.1261	NaN	0.000000	0.001583	0.001763	28.0826	9.989945	0.001763	5667.63	7.033912	-173.758	9.486209	1.715077	0.012623	0.012287	10.1261	5667.63	0.011283	0.010642	951.515	50195.2
1056	2.000000	1.718360	7.37538e+06	-52939.1	1055.82	-29747.1	0.000000	0.000000	7.718450	13.244	NaN	0.000000	0.001616	0.001742	28.0827	12.3702	0.001655	7476.11	7.739465	-176.288	12.6295	1.718032	0.015569	0.015241	13.244	7476.11	0.014240	0.014286	927.071	57147.3
1056	2.000000	1.721335	7.37538e+06	-52939.1	1055.82	-29747.1	0.000000	0.000000	7.721624	18.0844	NaN	0.000000	0.001628	0.001744	28.0829	15.5519	0.001772	8778.33	9.216122	-179.688	17.3272	1.720982	0.018544	0.018191	18.0844	8778.33	0.016999	0.018044	1002.21	59705.3
1056	2.000000	1.724317	7.37538e+06	-52939.1	1055.82	-29747.1	0.000000	0.000000	7.724681	19.9122	NaN	0.000000	0.001606	0.001734	28.0826	18.0994	0.001913	9463.45	5.065127	-174.591	18.6786	1.724035	0.021526	0.021245	19.9122	9463.45	0.019948	0.022460	886.56	57692.2
1056	2.000000	1.727317	7.37538e+06	-52939.1	1055.82	-29747.1	0.000000	0.000000	7.728082	29.6594	NaN	0.000000	0.001600	0.001738	28.0838	19.6474	0.001798	10927.8	4.760628	-174.034	29.8922	1.727036	0.024526	0.024245	29.6594	10927.8	0.022491	0.026608	1114.67	61206.5
1056	2.000000	1.730289	7.37538e+06	-52939.1	1055.82	-29747.1	0.000000	0.000000	7.731245	34.2979	NaN	0.000000	0.001599	0.001765	28.0827	23.0838	0.001763	13093.1	5.584740	-178.995	32.9678	1.729918	0.027498	0.027127	34.2979	13093.1	0.025533	0.031993	1072.04	66878.6
1056	2.000000	1.733273	7.37538e+06	-52939.1	1055.82	-29747.1	0.000000	0.000000	7.734299	36.0095	NaN	0.000000	0.001610	0.001761	28.0814	26.308	0.001904	13816.7	5.737502	-179.107	35.0623	1.733022	0.030482	0.030231	36.0095	13816.7	0.028527	0.037746	953.992	64974.2
1056	2.000000	1.736242	7.37538e+06	-52939.1	1055.82	-29747.1	0.000000	0.000000	7.737585	43.712	NaN	0.000000	0.001641	0.001707	28.0816	28.9187	0.001846	15664.2	5.899182	179.339	42.2606	1.735997	0.033451	0.033206	43.712	15664.2	0.031358	0.043606	1002.43	68534.3
1056	2.000000	1.739324	7.37538e+06	-52939.1	1055.82	-29747.1	0.000000	0.000000	7.740950	50.5928	NaN	0.000000	0.001603	0.001759	28.0815	31.7567	0.001793	17709	5.367366	178.58	50.6079	1.739056	0.036533	0.036265	50.5928	17709	0.034391	0.050337	1005.08	72114.8
1056	2.000000	1.742279	7.37538e+06	-52939.1	1055.82	-29747.1	0.000000	0.000000	7.744432	63.4098	NaN	0.000000	0.001615	0.001767	28.0817	33.1401	0.001832	18087.9	0.586580	-175.604	62.6752	1.741849	0.039488	0.039058	63.4098	18087.9	0.036859	0.056163	1129.03	69732.7
1056	2.000000	1.745240	7.37538e+06	-52939.1	1055.82	-29747.1	0.000000	0.000000	7.747534	66.8293	NaN	0.000000	0.001567	0.001755	28.0814	36.1308	0.001792	20163.8	6.258861	177.043	65.0834	1.744983	0.042449	0.042192	66.8293	20163.8	0.039964	0.063934	1045.28	72858
1056	2.000000	1.748197	7.37538e+06	-52939.1	1055.82	-29747.1	0.000000	0.000000	7.751010	79.4609	NaN	0.000000	0.001514	0.001711	28.0815	37.7983	0.001724	21924.6	5.335792	177.924	76.6096	1.747888	0.045406	0.045097	79.4609	21924.6	0.042688	0.071159	1116.67	75091.3
1056	2.000000	1.751249	7.37538e+06	-52939.1	1055.82	-29747.1	0.000000	0.000000	7.754468	89.3124	NaN	0.000000	0.001475	0.001754	28.0817	40.6064	0.001693	23981.9	3.588219	178.42	89.2544	1.750950	0.048458	0.048159	89.3124	23981.9	0.045665	0.079487	1123.61	77716
1056	2.000000	1.754237	7.37538e+06	-52939.1	1055.82	-29747.1	0.000000	0.000000	7.757935	100.99	NaN	0.000000	0.001528	0.001754	28.0815	43.9001	0.001808	24283	2.798870	179.249	100.576	1.753910	0.051446	0.051119	100.99	24283	0.048327	0.087311	1156.68	75083.1
1056	2.000000	1.757169	7.37538e+06	-52939.1	1055.82	-29747.1	0.000000	0.000000	7.761201	109.099	NaN	0.000000	0.001554	0.001733	28.082	46.8477	0.001816	25801.2	2.745526	177.956	105.002	1.756967	0.054378	0.054176	109.099	25801.2	0.051207	0.096179	1134.33	76010.5
1056	2.000000	1.760252	7.37538e+06	-52939.1	1055.82	-29747.1	0.000000	0.000000	7.764807	121.812	NaN	0.000000	0.001553	0.001751	28.0813	48.7182	0.001781	27359.7	0.048188	-179.074	119.881	1.759896	0.057461	0.057106	121.812	27359.7	0.054122	0.105577	1153.77	76930.8
1056	2.000000	1.763224	7.37538e+06	-52939.1	1055.82	-29747.1	0.000000	0.000000	7.768348	135.637	NaN	0.000000	0.001551	0.001708	28.0812	52.9955	0.001844	28746.9	6.364882	173.752	133.949	1.762898	0.060433	0.060108	135.637	28746.9	0.056895	0.114909	1180.38	77479.5
1056	2.000000	1.766216	7.37538e+06	-52939.1	1055.82	-29747.1	0.000000	0.000000	7.771774	146.183	NaN	0.000000	0.001538	0.001741	28.0825	55.6592	0.001884	29539.5	4.343573	175.223	144.145	1.766022	0.063425	0.063231	146.183	29539.5	0.059714	0.124784	1171.49	76400.6
1056	2.000000	1.769271	7.37538e+06	-52939.1	1055.82	-29747.1	0.000000	0.000000	7.775434	160.915	NaN	0.000000	0.001564	0.001728	28.0823	57.3967	0.001843	31136.2	2.705653	178.02	161.435	1.768898	0.066480	0.066107	160.915	31136.2	0.062604	0.135310	1189.23	77334.6
1056	2.000000	1.772272	7.37538e+06	-52939.1	1055.82	-29747.1	0.000000	0.000000	7.778992	174.449	NaN	0.000000	0.001590	0.001734	28.0826	60.5722	0.001836	32996.1	6.799590	172.966	174.689	1.771847	0.069481	0.069056	174.449	32996.1	0.065516	0.146328	1192.18	78808.4
1056	2.000000	1.775236	7.37538e+06	-52939.1	1055.82	-29747.1	0.000000	0.000000	7.782761	194.01	NaN	0.000000	0.001570	0.001696	28.0823	62.4262	0.001875	33289.9	5.050842	173.842	192.492	1.774912	0.072445	0.072122	194.01	33289.9	0.068075	0.156344	1240.92	76921.1
1056	2.000000	1.778202	7.37538e+06	-52939.1	1055.82	-29747.1	0.000000	0.000000	7.786408	210.597	NaN	0.000000	0.001577	0.001696	28.0828	65.0779	0.001879	34643.2	4.366323	174.103	208.689	1.777890	0.075411	0.075100	210.597	34643.2	0.070851	0.167569	1256.78	77320.4
1056	2.000000	1.781206	7.37538e+06	-52939.1	1055.82	-29747.1	0.000000	0.000000	7.789836	220.886	NaN	0.000000	0.001558	0.001718	28.0826	67.1665	0.001783	37679.7	4.935804	173.179	219.906	1.780851	0.078415	0.078061	220.886	37679.7	0.074019	0.180818	1221.59	80958
1056	2.000000	1.784278	7.37538e+06	-52939.1	1055.82	-29747.1	0.000000	0.000000	7.793635	238.554	NaN	0.000000	0.001578	0.001714	28.0823	71.4883	0.001933	36991.3	8.570007	171.153	240.548	1.783824	0.081487	0.081034	238.554	36991.3	0.076650	0.192188	1241.25	77092.1
1056	2.000000	1.787160	7.37538e+06	-52939.1	1055.82	-29747.1	0.000000	0.000000	7.797354	258.916	NaN	0.000000	0.001633	0.001723	28.0824	72.4094	0.001766	40997.6	2.740405	175.151	254.459	1.786749	0.084369	0.083958	258.916	40997.6	0.079633	0.205464	1260.15	82634.9
1056	2.000000	1.790253	7.37538e+06	-52939.1	1055.82	-29747.1	0.000000	0.000000	7.800744	266.131	NaN	0.000000	0.001648	0.001727	28.0822	76.6547	0.001880	40771.1	5.576813	171.92	267.758	1.789997	0.087462	0.087206	266.131	40771.1	0.082566	0.218929	1215.61	79611.2
1056	2.000000	1.793108	7.37538e+06	-52939.1	1055.82	-29747.1	0.000000	0.000000	7.804727	293.566	NaN	0.000000	0.001633	0.001721	28.0824	77.0448	0.001800	42792.9	1.486360	176.051	286.671	1.792793	0.090317	0.090002	293.566	42792.9	0.085172	0.231223	1269.62	81307.3
1056	2.000000	1.796162	7.37538e+06	-52939.1	1055.82	-29747.1	0.000000	0.000000	7.808526	311.652	NaN	0.000000	0.001592	0.001721	28.0826	80.2939	0.001726	46511	2.658310	174.086	307.108	1.795833	0.093372	0.093042	311.652	46511	0.088346	0.246622	1263.69	85568.4
1056	2.000000	1.799223	7.37538e+06	-52939.1	1055.82	-29747.1	0.000000	0.000000	7.812545	334.956	NaN	0.000000	0.001572	0.001727	28.0821	84.3403	0.001816	46453.7	5.049666	172.304	335.149	1.798859	0.096433	0.096068	334.956	46453.7	0.091025	0.259977	1288.41	83238.8
1056	2.000000	1.802192	7.37538e+06	-52939.1	1055.82	-29747.1	0.000000	0.000000	7.816258	353.038	NaN	0.000000	0.001571	0.001703	28.0811	85.6566	0.001744	49121.7	4.202547	172.589	352.388	1.801842	0.099401	0.099051	353.038	49121.7	0.094011	0.275256	1282.58	85541.8
1056	2.000000	1.805208	7.37538e+06	-52939.1	1055.82	-29747.1	0.000000	0.000000	7.819818	366.281	NaN	0.000000	0.001554	0.001697	28.0811	87.6195	0.001826	47973.6	2.670384	173.741	366.156	1.805012	0.102417	0.102221	366.281	47973.6	0.096691	0.289312	1266.04	81487.7
1056	2.000000	1.808092	7.37538e+06	-52939.1	1055.82	-29747.1	0.000000	0.000000	7.823799	392.945	NaN	0.000000	0.001544	0.001711	28.0821	90.0552	0.001771	50861.4	2.428879	173.715	387.652	1.807782	0.105302	0.104991	392.945	50861.4	0.099507	0.304436	1290.73	84219.7
1056	2.000000	1.811201	7.37538e+06	-52939.1	1055.82	-29747.1	0.000000	0.000000	7.827748	413.363	NaN	0.000000	0.001595	0.001739	28.0821	93.4196	0.001858	50273.9	2.826591	173.772	414.461	1.810809	0.108411	0.108018	413.363	50273.9	0.102244	0.319478	1293.87	81263.4
1056	2.000000	1.812197	7.37538e+06	-52939.1	1055.82	-29747.1	0.000000	0.000000	7.828883	416.765	NaN	0.000000	0.001592	0.001746	28.0812	95.5727	0.001816	52633.4	7.146557	169.353	415.95	1.811899	0.109406	0.109109	416.765	52633.4	0.103467	0.326313	1277.19	84181.7