File: remote_trans/data/nanoindenter/0828-1/data/Data_2025-08-06,11h17m57s/2025-07-22_16-23-58_1_19.txt
2025-07-22, 16:23:58, 1
Index	Phase	Displacement	Time	Pos X	Pos Y	Pos Z	Rot A	Rot B	Piezo Z	Force A	Force B	Gripper	Voltage A	Voltage B	Temperature	Amplitude force	Amplitude pos	Stiffness	Phase shift	Phase excitation	Force A raw	Displacement raw	HMax	HMax raw	Real Force	Real Stiffness	Contact Depth	Area	Hardness	Reduced Mod.
[#]	[#]	[um]	[s]	[um]	[um]	[um]	[m°]	[m°]	[um]	[uN]	[uN]	[V]	[V]	[V]	[°C]	[uN]	[um]	[N/m]	[°]	[°]	[uN]	[um]	[um]	[um]	[uN]	[N/m]	[um]	[um^2]	[MPa]	[MPa]
19	1.000000	0.003147	7.36523e+06	-39589.1	955.818	-29794	0.000000	0.000000	6.002815	0.005402	NaN	0.000000	0.001595	0.001643	28.127	0.104001	0.000961	108.208	19.1401	-164.375	0.039066	0.001825	-1.056577	-1.057898	0.005402	108.208	-1.056614	-1.310134E+14	-4.123422E-17	NaN
19	1.000000	0.011093	7.36523e+06	-39589.1	955.818	-29794	0.000000	0.000000	6.010760	-0.027390	NaN	0.000000	0.001657	0.001620	28.1285	0.118643	0.001081	109.796	-114.804	-163.41	-0.034486	0.009774	-1.048631	-1.049950	-0.027390	109.796	-1.048443	-1.017395E+14	2.692209E-16	NaN
19	1.000000	0.019104	7.36523e+06	-39589.1	955.818	-29794	0.000000	0.000000	6.018773	0.010824	NaN	0.000000	0.001641	0.001608	28.128	0.064176	0.001626	39.4613	-0.198012	-165.133	-0.005083	0.017832	-1.040619	-1.041892	0.010824	39.4613	-1.040825	-8.036370E+13	-1.346927E-16	NaN
19	1.000000	0.027111	7.36523e+06	-39589.1	955.818	-29794	0.000000	0.000000	6.026781	0.046238	NaN	0.000000	0.001664	0.001649	28.1283	0.065328	0.001843	35.4473	-10.6346	-164.072	0.042188	0.025779	-1.032612	-1.033944	0.046238	35.4473	-1.033591	-6.423546E+13	-7.198186E-16	NaN
19	1.000000	0.035097	7.36523e+06	-39589.1	955.818	-29794	0.000000	0.000000	6.034765	-0.011258	NaN	0.000000	0.001622	0.001612	28.128	0.044170	0.001821	24.2569	-60.7984	-161.131	0.009479	0.033750	-1.024626	-1.025973	-0.011258	24.2569	-1.024278	-4.814047E+13	2.338566E-16	NaN
19	1.000000	0.043076	7.36523e+06	-39589.1	955.818	-29794	0.000000	0.000000	6.042743	-0.000647	NaN	0.000000	0.001655	0.001658	28.1284	0.027930	0.001995	14.0024	100.266	-168.811	-0.024660	0.041709	-1.016648	-1.018015	-0.000647	14.0024	-1.016613	-3.796481E+13	1.703980E-17	NaN
19	1.000000	0.051098	7.36523e+06	-39589.1	955.818	-29794	0.000000	0.000000	6.050768	0.052346	NaN	0.000000	0.001630	0.001657	28.1271	0.066204	0.002141	30.927	-121.058	-168.081	0.097885	0.049777	-1.008625	-1.009946	0.052346	30.927	-1.009895	-3.082942E+13	-1.697923E-15	NaN
19	1.000000	0.059116	7.36523e+06	-39589.1	955.817	-29794	0.000000	0.000000	6.058784	0.021203	NaN	0.000000	0.001639	0.001640	28.1271	0.104393	0.002073	50.3632	-28.3077	-167.262	0.014458	0.057702	-1.000608	-1.002022	0.021203	50.3632	-1.000924	-2.334557E+13	-9.082291E-16	NaN
19	1.000000	0.067077	7.36523e+06	-39589.1	955.818	-29794	0.000000	0.000000	6.066747	0.052560	NaN	0.000000	0.001635	0.001621	28.1286	0.077470	0.001966	39.4101	27.3768	-166.661	0.093499	0.065747	-0.992647	-0.993976	0.052560	39.4101	-0.993647	-1.863059E+13	-2.821141E-15	NaN
19	1.000000	0.075080	7.36523e+06	-39589.1	955.818	-29794	0.000000	0.000000	6.074747	-0.030052	NaN	0.000000	0.001646	0.001658	28.1283	0.028146	0.001929	14.5949	173.097	-163.182	-0.012537	0.073843	-0.984643	-0.985880	-0.030052	14.5949	-0.983099	-1.343244E+13	2.237290E-15	NaN
19	1.000000	0.083085	7.36523e+06	-39589.1	955.818	-29794	0.000000	0.000000	6.082756	0.078526	NaN	0.000000	0.001670	0.001652	28.1282	0.012683	0.002015	6.293558	32.4493	-166.193	0.073993	0.081774	-0.976639	-0.977950	0.078526	6.293558	-0.985997	-1.469582E+13	-5.343402E-15	NaN
19	1.000000	0.091096	7.36523e+06	-39589.1	955.818	-29794	0.000000	0.000000	6.090762	-0.056207	NaN	0.000000	0.001611	0.001632	28.1295	0.068285	0.001959	34.8506	84.2062	-164.164	0.022476	0.089778	-0.968627	-0.969945	-0.056207	34.8506	-0.967418	-8.257737E+12	6.806641E-15	NaN
19	1.000000	0.099083	7.36523e+06	-39589.1	955.818	-29794	0.000000	0.000000	6.098750	-0.030987	NaN	0.000000	0.001603	0.001660	28.1292	0.071922	0.001975	36.4183	176.039	-168.376	0.030836	0.097791	-0.960640	-0.961933	-0.030987	36.4183	-0.960002	-6.559894E+12	4.723756E-15	NaN
19	1.000000	0.107098	7.36523e+06	-39589.1	955.819	-29794	0.000000	0.000000	6.106764	-0.038669	NaN	0.000000	0.001595	0.001634	28.1293	0.069161	0.002035	33.9813	102.805	-161.906	-0.011645	0.105779	-0.952626	-0.953944	-0.038669	33.9813	-0.951772	-5.080742E+12	7.610945E-15	NaN
19	1.000000	0.115116	7.36523e+06	-39589.1	955.819	-29794	0.000000	0.000000	6.114786	0.038155	NaN	0.000000	0.001586	0.001649	28.1292	0.027758	0.001902	14.5905	-142.033	-166.655	-0.031163	0.113780	-0.944607	-0.945943	0.038155	14.5905	-0.946569	-4.322620E+12	-8.826878E-15	NaN
19	1.000000	0.123112	7.36523e+06	-39589.1	955.819	-29794	0.000000	0.000000	6.122780	-0.013037	NaN	0.000000	0.001589	0.001663	28.129	0.170107	0.001956	86.9696	176.573	-166.95	0.020678	0.121831	-0.936611	-0.937893	-0.013037	86.9696	-0.936499	-3.161513E+12	4.123658E-15	NaN
19	1.000000	0.131140	7.36523e+06	-39589.1	955.818	-29794	0.000000	0.000000	6.130808	0.015909	NaN	0.000000	0.001586	0.001609	28.1281	0.123984	0.001987	62.4037	-90.1226	-164.006	0.041593	0.129799	-0.928584	-0.929924	0.015909	62.4037	-0.928775	-2.486908E+12	-6.397102E-15	NaN
19	1.000000	0.139142	7.36523e+06	-39589.1	955.818	-29794	0.000000	0.000000	6.138809	-0.018197	NaN	0.000000	0.001574	0.001627	28.1277	0.067263	0.001905	35.3129	-129.6	-167.768	0.017794	0.137795	-0.920581	-0.921929	-0.018197	35.3129	-0.920195	-1.904735E+12	9.553577E-15	NaN
19	1.000000	0.147113	7.36523e+06	-39589.1	955.818	-29794	0.000000	0.000000	6.146781	0.019560	NaN	0.000000	0.001580	0.001708	28.1276	0.038638	0.002047	18.8778	35.3853	-165.598	0.005401	0.145833	-0.912611	-0.913890	0.019560	18.8778	-0.913388	-1.541420E+12	-1.268986E-14	NaN
19	1.000000	0.155106	7.36523e+06	-39589.1	955.818	-29794	0.000000	0.000000	6.154774	-0.002055	NaN	0.000000	0.001556	0.001697	28.1277	0.114980	0.002109	54.5243	-93.6261	-164.767	0.019620	0.153817	-0.904617	-0.905906	-0.002055	54.5243	-0.904589	-1.172372E+12	1.752992E-15	NaN
19	1.000000	0.163128	7.36523e+06	-39589.1	955.819	-29794	0.000000	0.000000	6.162798	0.042840	NaN	0.000000	0.001555	0.001678	28.1276	0.103791	0.002111	49.1699	-87.8777	-166.478	0.000224	0.161822	-0.896595	-0.897902	0.042840	49.1699	-0.897249	-9.330171E+11	-4.591602E-14	NaN
19	1.000000	0.171104	7.36523e+06	-39589.1	955.818	-29794	0.000000	0.000000	6.170771	-0.010647	NaN	0.000000	0.001541	0.001708	28.1288	0.048553	0.002055	23.6241	-0.846273	-165.938	-0.003839	0.169805	-0.888620	-0.889919	-0.010647	23.6241	-0.888282	-7.058074E+11	1.508467E-14	NaN
19	1.000000	0.179141	7.36523e+06	-39589.1	955.818	-29794	0.000000	0.000000	6.178808	-0.023157	NaN	0.000000	0.001530	0.001687	28.1285	0.068247	0.002042	33.4176	116.722	-163.049	-0.048891	0.177822	-0.880582	-0.881901	-0.023157	33.4176	-0.880062	-5.464519E+11	4.237621E-14	NaN
19	1.000000	0.187147	7.36523e+06	-39589.1	955.819	-29794	0.000000	0.000000	6.186816	0.033062	NaN	0.000000	0.001583	0.001719	28.1291	0.020070	0.001889	10.6239	-146.979	-166.518	-0.046697	0.185781	-0.872576	-0.873942	0.033062	10.6239	-0.874910	-4.654461E+11	-7.103286E-14	NaN
19	1.000000	0.195137	7.36523e+06	-39589.1	955.818	-29794	0.000000	0.000000	6.194800	-0.120571	NaN	0.000000	0.001580	0.001664	28.1287	0.044571	0.001966	22.6669	159.335	-170.248	-0.167111	0.193814	-0.864587	-0.865910	-0.120571	22.6669	-0.860597	-2.979934E+11	4.046090E-13	NaN
19	1.000000	0.203121	7.36523e+06	-39589.1	955.818	-29794	0.000000	0.000000	6.202792	0.090661	NaN	0.000000	0.001599	0.001677	28.1269	0.118514	0.002031	58.3558	11.1965	-164.73	0.067253	0.201871	-0.856603	-0.857853	0.090661	58.3558	-0.857768	-2.728399E+11	-3.322868E-13	NaN
19	1.000000	0.211163	7.36523e+06	-39589.1	955.818	-29794	0.000000	0.000000	6.210832	0.042547	NaN	0.000000	0.001530	0.001696	28.1262	0.121855	0.001880	64.8267	-155.697	-166.673	0.040723	0.209820	-0.848561	-0.849903	0.042547	64.8267	-0.849053	-2.079286E+11	-2.046239E-13	NaN
19	1.000000	0.219143	7.36523e+06	-39589.1	955.818	-29794	0.000000	0.000000	6.218811	0.010707	NaN	0.000000	0.001550	0.001667	28.1261	0.112356	0.002087	53.8345	-128.686	-164.318	-0.030695	0.217858	-0.840581	-0.841866	0.010707	53.8345	-0.840730	-1.603904E+11	-6.675870E-14	NaN
19	1.000000	0.227167	7.36523e+06	-39589.1	955.817	-29794	0.000000	0.000000	6.226835	0.000865	NaN	0.000000	0.001559	0.001628	28.1263	0.037578	0.002147	17.5038	-83.651	-168.38	0.014258	0.225872	-0.832556	-0.833852	0.000865	17.5038	-0.832593	-1.244320E+11	-6.951382E-15	NaN
19	1.000000	0.235182	7.36523e+06	-39589.1	955.818	-29794	0.000000	0.000000	6.234850	0.019378	NaN	0.000000	0.001532	0.001685	28.1262	0.048208	0.001908	25.264	-50.7849	-169.319	-0.021820	0.233898	-0.824542	-0.825825	0.019378	25.264	-0.825117	-9.853503E+10	-1.966573E-13	NaN
19	1.000000	0.243173	7.36523e+06	-39589.1	955.819	-29794	0.000000	0.000000	6.242842	0.027216	NaN	0.000000	0.001536	0.001674	28.1258	0.069225	0.002026	34.1734	-172.281	-165.198	0.053603	0.241891	-0.816551	-0.817833	0.027216	34.1734	-0.817148	-7.683054E+10	-3.542394E-13	NaN
19	1.000000	0.251164	7.36523e+06	-39589.1	955.817	-29794	0.000000	0.000000	6.250833	0.009020	NaN	0.000000	0.001582	0.001667	28.1273	0.032095	0.002055	15.6163	-177.903	-164.888	-0.003287	0.249853	-0.808559	-0.809870	0.009020	15.6163	-0.808992	-5.955254E+10	-1.514654E-13	NaN
19	1.000000	0.259160	7.36523e+06	-39589.1	955.818	-29794	0.000000	0.000000	6.258826	-0.028650	NaN	0.000000	0.001557	0.001644	28.1273	0.085610	0.002117	40.4317	-23.2259	-166.144	0.007455	0.257852	-0.800564	-0.801871	-0.028650	40.4317	-0.800032	-4.500928E+10	6.365370E-13	NaN
19	1.000000	0.267160	7.36523e+06	-39589.1	955.819	-29794	0.000000	0.000000	6.266829	0.033318	NaN	0.000000	0.001582	0.001653	28.1275	0.155961	0.002061	75.6729	-110.119	-164.966	0.034603	0.265914	-0.792563	-0.793809	0.033318	75.6729	-0.792894	-3.600641E+10	-9.253316E-13	NaN
19	1.000000	0.275173	7.36523e+06	-39589.1	955.818	-29794	0.000000	0.000000	6.274842	0.025177	NaN	0.000000	0.001569	0.001648	28.1274	0.046560	0.002018	23.076	-178.607	-168.114	0.088507	0.273875	-0.784551	-0.785848	0.025177	23.076	-0.785369	-2.845640E+10	-8.847463E-13	NaN
19	1.000000	0.283204	7.36523e+06	-39589.1	955.818	-29794	0.000000	0.000000	6.282872	-0.000551	NaN	0.000000	0.001559	0.001639	28.1268	0.121033	0.001944	62.2715	150.078	-164.117	0.070955	0.281819	-0.776519	-0.777904	-0.000551	62.2715	-0.776513	-2.156942E+10	2.555355E-14	NaN
19	1.000000	0.291170	7.36523e+06	-39589.1	955.819	-29794	0.000000	0.000000	6.290838	0.010845	NaN	0.000000	0.001522	0.001656	28.1258	0.048213	0.001967	24.5123	137.921	-166.934	0.009010	0.289840	-0.768554	-0.769883	0.010845	24.5123	-0.768885	-1.698834E+10	-6.383858E-13	NaN
19	1.000000	0.299189	7.36523e+06	-39589.1	955.819	-29794	0.000000	0.000000	6.298858	0.051395	NaN	0.000000	0.001626	0.001648	28.1257	0.092186	0.001922	47.9718	-138.641	-167.658	0.064073	0.297861	-0.760535	-0.761862	0.051395	47.9718	-0.761338	-1.341252E+10	-3.831864E-12	NaN
19	1.000000	0.307193	7.36523e+06	-39589.1	955.819	-29794	0.000000	0.000000	6.306862	0.035795	NaN	0.000000	0.001618	0.001632	28.1256	0.051598	0.001951	26.4499	-14.6332	-165.353	-0.002103	0.305860	-0.752531	-0.753863	0.035795	26.4499	-0.753546	-1.050705E+10	-3.406765E-12	NaN
19	1.000000	0.315224	7.36523e+06	-39589.1	955.819	-29794	0.000000	0.000000	6.314894	0.045264	NaN	0.000000	0.001626	0.001666	28.1257	0.063821	0.001929	33.0871	-82.5493	-167.5	-0.031310	0.313906	-0.744499	-0.745818	0.045264	33.0871	-0.745525	-8.171412E+9	-5.539339E-12	NaN
19	1.000000	0.323207	7.36523e+06	-39589.1	955.819	-29794	0.000000	0.000000	6.322875	-0.003740	NaN	0.000000	0.001606	0.001640	28.1257	0.036540	0.001972	18.5268	142.899	-165.326	-0.028536	0.321893	-0.736516	-0.737831	-0.003740	18.5268	-0.736365	-6.131077E+9	6.100239E-13	NaN
19	1.000000	0.331213	7.36523e+06	-39589.1	955.818	-29794	0.000000	0.000000	6.330881	0.009718	NaN	0.000000	0.001640	0.001681	28.1266	0.041187	0.001959	21.0244	-59.5848	-165.55	0.082505	0.329942	-0.728511	-0.729782	0.009718	21.0244	-0.728857	-4.844326E+9	-2.005971E-12	NaN
19	1.000000	0.339190	7.36523e+06	-39589.1	955.818	-29794	0.000000	0.000000	6.338859	0.012635	NaN	0.000000	0.001646	0.001688	28.1276	0.149552	0.002123	70.4486	-145.798	-166.54	0.020138	0.337880	-0.720533	-0.721843	0.012635	70.4486	-0.720668	-3.746083E+9	-3.372970E-12	NaN
19	1.000000	0.347189	7.36523e+06	-39589.1	955.818	-29794	0.000000	0.000000	6.346855	-0.044239	NaN	0.000000	0.001634	0.001699	28.1283	0.075737	0.002122	35.697	-147.356	-163.012	-0.024639	0.345933	-0.712534	-0.713790	-0.044239	35.697	-0.711605	-2.818045E+9	1.569862E-11	NaN
19	1.000000	0.355194	7.36523e+06	-39589.1	955.818	-29794	0.000000	0.000000	6.354863	0.014299	NaN	0.000000	0.001620	0.001679	28.1276	0.146010	0.002023	72.1796	-13.1158	-168.665	-0.085147	0.353944	-0.704529	-0.705779	0.014299	72.1796	-0.704678	-2.266758E+9	-6.307969E-12	NaN
19	1.000000	0.363195	7.36523e+06	-39589.1	955.818	-29794	0.000000	0.000000	6.362864	0.027871	NaN	0.000000	0.001611	0.001675	28.1284	0.051603	0.001939	26.6141	7.586275	-166.411	0.012700	0.361910	-0.696529	-0.697814	0.027871	26.6141	-0.697314	-1.798249E+9	-1.549883E-11	NaN
19	1.000000	0.371199	7.36523e+06	-39589.1	955.818	-29794	0.000000	0.000000	6.370869	0.050982	NaN	0.000000	0.001639	0.001700	28.1268	0.032867	0.001974	16.6513	177.898	-166.816	0.023790	0.369930	-0.688525	-0.689794	0.050982	16.6513	-0.690821	-1.466020E+9	-3.477594E-11	NaN
19	1.000000	0.379220	7.36523e+06	-39589.1	955.819	-29794	0.000000	0.000000	6.378889	0.008456	NaN	0.000000	0.001642	0.001648	28.1265	0.074655	0.001872	39.8769	-26.144	-164.696	0.004094	0.378002	-0.680503	-0.681721	0.008456	39.8769	-0.680662	-1.064783E+9	-7.941090E-12	NaN
19	1.000000	0.387228	7.36523e+06	-39589.1	955.818	-29794	0.000000	0.000000	6.386898	0.056505	NaN	0.000000	0.001621	0.001633	28.1264	0.088415	0.001941	45.54	-160.919	-166.679	0.104751	0.385875	-0.672496	-0.673849	0.056505	45.54	-0.673426	-8.477713E+8	-6.665145E-11	NaN
19	1.000000	0.395201	7.36523e+06	-39589.1	955.817	-29794	0.000000	0.000000	6.394872	0.061568	NaN	0.000000	0.001624	0.001668	28.1265	0.048896	0.002027	24.1221	127.886	-168.339	0.011276	0.393916	-0.664522	-0.665807	0.061568	24.1221	-0.666436	-6.801587E+8	-9.052053E-11	NaN
19	1.000000	0.403248	7.36523e+06	-39589.1	955.819	-29794	0.000000	0.000000	6.402917	0.031214	NaN	0.000000	0.001596	0.001666	28.1266	0.083138	0.002086	39.8586	26.789	-165.624	0.040580	0.401942	-0.656476	-0.657782	0.031214	39.8586	-0.657063	-5.060977E+8	-6.167509E-11	NaN
19	1.000000	0.411250	7.36523e+06	-39589.1	955.818	-29794	0.000000	0.000000	6.410919	0.030527	NaN	0.000000	0.001610	0.001688	28.1277	0.085206	0.002024	42.0896	-15.1023	-167.173	0.077418	0.409917	-0.648474	-0.649806	0.030527	42.0896	-0.649018	-3.926153E+8	-7.775238E-11	NaN
19	1.000000	0.419229	7.36523e+06	-39589.1	955.819	-29794	0.000000	0.000000	6.418898	0.032641	NaN	0.000000	0.001609	0.001654	28.1281	0.106555	0.002022	52.7042	-36.1762	-167.487	0.036100	0.417913	-0.640494	-0.641810	0.032641	52.7042	-0.640959	-3.044010E+8	-1.072294E-10	NaN
19	1.000000	0.427267	7.36523e+06	-39589.1	955.819	-29794	0.000000	0.000000	6.426935	-0.015339	NaN	0.000000	0.001600	0.001664	28.1274	0.011034	0.001910	5.778377	28.4295	-166.872	0.027472	0.425919	-0.632456	-0.633805	-0.015339	5.778377	-0.630465	-2.184791E+8	7.020788E-11	NaN
19	1.000000	0.435245	7.36523e+06	-39589.1	955.818	-29794	0.000000	0.000000	6.434912	-0.019150	NaN	0.000000	0.001605	0.001658	28.1279	0.030031	0.001988	15.1027	-119.746	-161.059	0.058183	0.433950	-0.624479	-0.625774	-0.019150	15.1027	-0.623528	-1.754348E+8	1.091602E-10	NaN
19	1.000000	0.443246	7.36523e+06	-39589.1	955.819	-29794	0.000000	0.000000	6.442914	0.021867	NaN	0.000000	0.001542	0.001647	28.1276	0.037465	0.001987	18.854	18.1621	-167.028	0.073269	0.441943	-0.616478	-0.617781	0.021867	18.854	-0.617348	-1.442692E+8	-1.515723E-10	NaN
19	1.000000	0.451222	7.36523e+06	-39589.1	955.818	-29794	0.000000	0.000000	6.450890	0.013269	NaN	0.000000	0.001548	0.001604	28.1264	0.084047	0.002120	39.6504	-156.699	-164.793	0.067474	0.449909	-0.608502	-0.609814	0.013269	39.6504	-0.608753	-1.098879E+8	-1.207502E-10	NaN
19	1.000000	0.459304	7.36523e+06	-39589.1	955.819	-29794	0.000000	0.000000	6.458973	0.032104	NaN	0.000000	0.001521	0.001627	28.1266	0.140186	0.002048	68.4564	-160.455	-168.383	0.073926	0.457956	-0.600419	-0.601767	0.032104	68.4564	-0.600771	-8.532547E+7	-3.762540E-10	NaN
19	1.000000	0.467251	7.36523e+06	-39589.1	955.818	-29794	0.000000	0.000000	6.466917	-0.034750	NaN	0.000000	0.001535	0.001670	28.1263	0.105168	0.001898	55.4115	-164.098	-163.751	0.033914	0.465932	-0.592472	-0.593791	-0.034750	55.4115	-0.592002	-6.460504E+7	5.378841E-10	NaN
19	1.000000	0.475250	7.36523e+06	-39589.1	955.818	-29794	0.000000	0.000000	6.474919	0.047309	NaN	0.000000	0.001571	0.001622	28.125	0.100271	0.001956	51.2656	-130.376	-162.705	0.057561	0.473966	-0.584474	-0.585757	0.047309	51.2656	-0.585166	-5.200014E+7	-9.097836E-10	NaN
19	1.000000	0.483269	7.36523e+06	-39589.1	955.818	-29794	0.000000	0.000000	6.482940	0.072326	NaN	0.000000	0.001546	0.001599	28.1249	0.036402	0.002105	17.2943	-97.2025	-165.323	-0.020533	0.481972	-0.576454	-0.577751	0.072326	17.2943	-0.579591	-4.355895E+7	-1.660428E-9	NaN
19	1.000000	0.491266	7.36523e+06	-39589.1	955.819	-29794	0.000000	0.000000	6.490935	0.027859	NaN	0.000000	0.001581	0.001647	28.1258	0.025717	0.002006	12.8179	-34.392	-167.019	0.004666	0.489943	-0.568457	-0.569780	0.027859	12.8179	-0.570087	-3.219865E+7	-8.652135E-10	NaN
19	1.000000	0.499302	7.36523e+06	-39589.1	955.819	-29794	0.000000	0.000000	6.498972	0.044550	NaN	0.000000	0.001600	0.001680	28.126	0.024028	0.002142	11.2192	-157.605	-168.255	0.080573	0.497954	-0.560421	-0.561769	0.044550	11.2192	-0.563399	-2.602512E+7	-1.711799E-9	NaN
19	1.000000	0.507272	7.36523e+06	-39589.1	955.818	-29794	0.000000	0.000000	6.506941	0.033584	NaN	0.000000	0.001624	0.001679	28.1257	0.021571	0.002008	10.7446	-34.9897	-165.189	0.117169	0.506012	-0.552452	-0.553712	0.033584	10.7446	-0.554796	-1.978630E+7	-1.697327E-9	NaN
19	1.000000	0.515283	7.36523e+06	-39589.1	955.82	-29794	0.000000	0.000000	6.514951	0.002821	NaN	0.000000	0.001621	0.001676	28.1261	0.168518	0.001959	86.0406	-78.1018	-166.103	-0.064865	0.513989	-0.544441	-0.545734	0.002821	86.0406	-0.544465	-1.423207E+7	-1.982012E-10	NaN
19	1.000000	0.523294	7.36523e+06	-39589.1	955.817	-29794	0.000000	0.000000	6.522962	-0.012070	NaN	0.000000	0.001606	0.001691	28.1256	0.131263	0.001912	68.6614	173.207	-167.052	0.074832	0.521958	-0.536429	-0.537766	-0.012070	68.6614	-0.536297	-1.096459E+7	1.100776E-9	NaN
19	1.000000	0.531297	7.36523e+06	-39589.1	955.817	-29794	0.000000	0.000000	6.530962	-0.064014	NaN	0.000000	0.001627	0.001687	28.1247	0.052079	0.001932	26.9602	111.256	-166.792	-0.108798	0.529982	-0.528426	-0.529741	-0.064014	26.9602	-0.526645	-8.05334e+06	7.948779E-9	NaN
19	1.000000	0.539271	7.36523e+06	-39589.1	955.818	-29794	0.000000	0.000000	6.538939	0.005071	NaN	0.000000	0.001604	0.001657	28.1246	0.022498	0.001970	11.4217	-37.2213	-165.645	0.010489	0.537954	-0.520453	-0.521769	0.005071	11.4217	-0.520786	-6.67612e+06	-7.595769E-10	NaN
19	1.000000	0.547308	7.36523e+06	-39589.1	955.819	-29794	0.000000	0.000000	6.546977	0.021079	NaN	0.000000	0.001589	0.001700	28.1243	0.014887	0.002095	7.104777	44.4601	-164.84	-0.003620	0.546003	-0.512415	-0.513720	0.021079	7.104777	-0.514640	-5.48307e+06	-3.844413E-9	NaN
19	1.000000	0.555306	7.36523e+06	-39589.1	955.818	-29794	0.000000	0.000000	6.554971	-0.067766	NaN	0.000000	0.001635	0.001725	28.1248	0.043497	0.001925	22.6012	38.016	-166.251	-0.055801	0.554001	-0.504417	-0.505723	-0.067766	22.6012	-0.502168	-3.67505e+06	1.843959E-8	NaN
19	1.000000	0.563298	7.36523e+06	-39589.1	955.819	-29794	0.000000	0.000000	6.562968	0.039336	NaN	0.000000	0.001640	0.001675	28.1246	0.024298	0.001910	12.7245	154.202	-168.705	0.095449	0.561964	-0.496425	-0.497760	0.039336	12.7245	-0.498744	-3.29221e+06	-1.194817E-8	NaN
19	1.000000	0.571294	7.36523e+06	-39589.1	955.818	-29794	0.000000	0.000000	6.570965	0.074231	NaN	0.000000	0.001642	0.001686	28.1254	0.084855	0.002044	41.5237	-149.789	-169.598	0.103723	0.569979	-0.488429	-0.489745	0.074231	41.5237	-0.489770	-2.46705e+06	-3.008907E-8	NaN
19	1.000000	0.579299	7.36523e+06	-39589.1	955.818	-29794	0.000000	0.000000	6.578967	-0.008063	NaN	0.000000	0.001652	0.001668	28.1253	0.132443	0.002022	65.4995	-32.6432	-166.617	-0.045281	0.578016	-0.480424	-0.481708	-0.008063	65.4995	-0.480332	-1.82043e+06	4.429153E-9	NaN
19	1.000000	0.587302	7.36523e+06	-39589.1	955.818	-29794	0.000000	0.000000	6.586970	-0.017063	NaN	0.000000	0.001633	0.001711	28.126	0.054518	0.002068	26.3645	22.835	-164.207	-0.057182	0.585955	-0.472421	-0.473769	-0.017063	26.3645	-0.471936	-1.38852e+06	1.228850E-8	NaN
19	1.000000	0.595303	7.36523e+06	-39589.1	955.818	-29794	0.000000	0.000000	6.594972	0.033855	NaN	0.000000	0.001591	0.001671	28.1254	0.029936	0.001992	15.0291	-74.3674	-167.914	0.046129	0.594024	-0.464421	-0.465699	0.033855	15.0291	-0.466110	-1.15036e+06	-2.942985E-8	NaN
19	1.000000	0.603304	7.36523e+06	-39589.1	955.819	-29794	0.000000	0.000000	6.602972	0.000272	NaN	0.000000	0.001594	0.001698	28.1259	0.136392	0.002035	67.0095	140.972	-167.158	-0.011656	0.602011	-0.456419	-0.457712	0.000272	67.0095	-0.456422	-840862	-3.235313E-10	NaN
19	1.000000	0.611303	7.36523e+06	-39589.1	955.818	-29794	0.000000	0.000000	6.610970	-0.022078	NaN	0.000000	0.001640	0.001653	28.126	0.078195	0.002023	38.6561	30.7809	-167.144	-0.049793	0.610019	-0.448420	-0.449705	-0.022078	38.6561	-0.447992	-639815	3.450678E-8	NaN
19	1.000000	0.619308	7.36523e+06	-39589.1	955.819	-29794	0.000000	0.000000	6.618978	0.057568	NaN	0.000000	0.001607	0.001675	28.1261	0.026195	0.002120	12.3577	-31.528	-168.189	0.081703	0.618041	-0.440416	-0.441683	0.057568	12.3577	-0.443909	-560424	-1.027218E-7	NaN
19	1.000000	0.627322	7.36523e+06	-39589.1	955.819	-29794	0.000000	0.000000	6.626989	-0.030594	NaN	0.000000	0.001611	0.001658	28.1257	0.035769	0.002039	17.5452	-164.818	-164.706	-0.098153	0.625991	-0.432401	-0.433732	-0.030594	17.5452	-0.431093	-369425	8.281541E-8	NaN
19	1.000000	0.635302	7.36523e+06	-39589.1	955.818	-29794	0.000000	0.000000	6.634970	0.004742	NaN	0.000000	0.001631	0.001679	28.1259	0.035316	0.001878	18.8037	105.707	-164.334	-0.000815	0.634031	-0.424422	-0.425692	0.004742	18.8037	-0.424611	-299066	-1.585574E-8	NaN
19	1.000000	0.643355	7.36523e+06	-39589.1	955.818	-29794	0.000000	0.000000	6.643021	-0.045369	NaN	0.000000	0.001607	0.001643	28.1261	0.104288	0.002096	49.7626	123.874	-166.889	0.038648	0.642034	-0.416369	-0.417690	-0.045369	49.7626	-0.415685	-223451	2.030396E-7	NaN
19	1.000000	0.651345	7.36523e+06	-39589.1	955.819	-29794	0.000000	0.000000	6.651014	0.010296	NaN	0.000000	0.001536	0.001662	28.1267	0.092644	0.002167	42.762	-84.4674	-168.88	0.026243	0.650048	-0.408378	-0.409676	0.010296	42.762	-0.408559	-176970	-5.817878E-8	NaN
19	1.000000	0.659358	7.36523e+06	-39589.1	955.819	-29794	0.000000	0.000000	6.659024	-0.052586	NaN	0.000000	0.001560	0.001644	28.1266	0.014935	0.001829	8.164759	15.9496	-168.747	0.115468	0.658025	-0.400365	-0.401699	-0.052586	8.164759	-0.395535	-115418	4.556151E-7	NaN
19	1.000000	0.667361	7.36523e+06	-39589.1	955.819	-29794	0.000000	0.000000	6.667033	0.100454	NaN	0.000000	0.001603	0.001659	28.1264	0.006225	0.002056	3.028105	-129.522	-164.349	0.031626	0.666019	-0.392362	-0.393705	0.100454	3.028105	-0.417243	-235124	-4.272398E-7	NaN
19	1.000000	0.675363	7.36523e+06	-39589.1	955.818	-29794	0.000000	0.000000	6.675032	0.032897	NaN	0.000000	0.001572	0.001629	28.1265	0.078043	0.002091	37.328	136.489	-165.778	0.043255	0.674010	-0.384360	-0.385714	0.032897	37.328	-0.385021	-81637.7	-4.029674E-7	NaN
19	1.000000	0.683343	7.36523e+06	-39589.1	955.819	-29794	0.000000	0.000000	6.683012	0.033876	NaN	0.000000	0.001581	0.001662	28.1266	0.122415	0.001946	62.9155	65.4526	-164.307	-0.035991	0.682036	-0.376381	-0.377688	0.033876	62.9155	-0.376784	-62189.3	-5.447223E-7	NaN
19	1.000000	0.691350	7.36523e+06	-39589.1	955.819	-29794	0.000000	0.000000	6.691014	-0.080687	NaN	0.000000	0.001548	0.001679	28.1254	0.082744	0.001935	42.7578	-102.064	-163.127	-0.024161	0.690047	-0.368374	-0.369677	-0.080687	42.7578	-0.366958	-44905.4	1.796819E-6	NaN
19	1.000000	0.699360	7.36523e+06	-39589.1	955.819	-29794	0.000000	0.000000	6.699030	0.072515	NaN	0.000000	0.001559	0.001652	28.1257	0.054842	0.002036	26.9354	93.1861	-169.893	0.109073	0.698036	-0.360364	-0.361688	0.072515	26.9354	-0.362383	-38572.5	-1.879953E-6	NaN
19	1.000000	0.707360	7.36523e+06	-39589.1	955.819	-29794	0.000000	0.000000	6.707027	-0.022801	NaN	0.000000	0.001580	0.001678	28.1255	0.100034	0.002019	49.5483	106.769	-165.738	0.008571	0.706079	-0.352363	-0.353644	-0.022801	49.5483	-0.352018	-27307.2	8.349930E-7	NaN
19	1.000000	0.715390	7.36523e+06	-39589.1	955.818	-29794	0.000000	0.000000	6.715059	0.039420	NaN	0.000000	0.001571	0.001656	28.1254	0.048986	0.001953	25.0773	-24.8803	-169.179	0.055628	0.714075	-0.344334	-0.345649	0.039420	25.0773	-0.345513	-21969.1	-1.794335E-6	NaN
19	1.000000	0.723353	7.36523e+06	-39589.1	955.819	-29794	0.000000	0.000000	6.723019	-0.043127	NaN	0.000000	0.001590	0.001656	28.1254	0.069803	0.002048	34.0788	-43.8059	-166.551	-0.106702	0.722080	-0.336370	-0.337643	-0.043127	34.0788	-0.335421	-15658.1	2.754295E-6	NaN
19	1.000000	0.731381	7.36523e+06	-39589.1	955.819	-29794	0.000000	0.000000	6.731051	0.057314	NaN	0.000000	0.001586	0.001639	28.1262	0.121750	0.001981	61.4698	23.3648	-167.087	0.055043	0.730086	-0.328343	-0.329638	0.057314	61.4698	-0.329042	-12630.4	-4.537759E-6	NaN
19	1.000000	0.739341	7.36523e+06	-39589.1	955.818	-29794	0.000000	0.000000	6.739009	0.021693	NaN	0.000000	0.001561	0.001651	28.1264	0.089872	0.002048	43.8867	149.31	-165.752	0.024912	0.738103	-0.320383	-0.321621	0.021693	43.8867	-0.320753	-9543.9	-2.272949E-6	NaN
19	1.000000	0.747370	7.36523e+06	-39589.1	955.818	-29794	0.000000	0.000000	6.747039	0.015627	NaN	0.000000	0.001570	0.001668	28.1253	0.070286	0.002035	34.5367	10.7713	-165.482	-0.032166	0.746007	-0.312353	-0.313716	0.015627	34.5367	-0.312693	-7258.95	-2.152734E-6	NaN
19	1.000000	0.755391	7.36523e+06	-39589.1	955.818	-29794	0.000000	0.000000	6.755059	0.020786	NaN	0.000000	0.001555	0.001651	28.1252	0.035483	0.002049	17.3198	-160.287	-164.722	0.032714	0.754060	-0.304333	-0.305663	0.020786	17.3198	-0.305233	-5628.76	-3.692747E-6	NaN
19	1.000000	0.763410	7.36523e+06	-39589.1	955.819	-29794	0.000000	0.000000	6.763079	0.022874	NaN	0.000000	0.001572	0.001641	28.1256	0.103441	0.002094	49.4087	-56.5461	-165.94	0.030829	0.762084	-0.296313	-0.297639	0.022874	49.4087	-0.296661	-4196.37	-5.450902E-6	NaN
19	1.000000	0.771388	7.36523e+06	-39589.1	955.818	-29794	0.000000	0.000000	6.771058	0.047011	NaN	0.000000	0.001554	0.001688	28.1243	0.064983	0.002053	31.6507	54.4527	-165.14	0.041041	0.770073	-0.288335	-0.289651	0.047011	31.6507	-0.289449	-3273.79	-1.435994E-5	NaN
19	1.000000	0.779423	7.36523e+06	-39589.1	955.818	-29794	0.000000	0.000000	6.779092	0.041699	NaN	0.000000	0.001549	0.001673	28.1242	0.121144	0.002146	56.4564	-160.423	-169.876	0.005982	0.778092	-0.280301	-0.281631	0.041699	56.4564	-0.280855	-2431.41	-1.714997E-5	NaN
19	1.000000	0.787369	7.36523e+06	-39589.1	955.818	-29794	0.000000	0.000000	6.787037	0.000470	NaN	0.000000	0.001542	0.001682	28.1242	0.111060	0.001912	58.0759	-15.0734	-168.458	-0.002252	0.786102	-0.272355	-0.273622	0.000470	58.0759	-0.272361	-1808.83	-2.599562E-7	NaN
19	1.000000	0.795402	7.36523e+06	-39589.1	955.818	-29794	0.000000	0.000000	6.795066	-0.100164	NaN	0.000000	0.001560	0.001701	28.1241	0.010821	0.001959	5.524105	52.3845	-167.786	-0.042681	0.794131	-0.264321	-0.265592	-0.100164	5.524105	-0.250722	-843.581	0.000119	NaN
19	1.000000	0.803397	7.36523e+06	-39589.1	955.819	-29794	0.000000	0.000000	6.803066	0.027212	NaN	0.000000	0.001598	0.001698	28.1238	0.072421	0.001889	38.3353	73.471	-167.045	-0.028081	0.802098	-0.256326	-0.257626	0.027212	38.3353	-0.256859	-1048.82	-2.594538E-5	NaN
19	1.000000	0.811396	7.36523e+06	-39589.1	955.818	-29794	0.000000	0.000000	6.811067	0.080259	NaN	0.000000	0.001555	0.001667	28.1249	0.041570	0.001943	21.3958	104.73	-167.621	0.071066	0.810032	-0.248327	-0.249692	0.080259	21.3958	-0.251141	-856.252	-9.373293E-5	NaN
19	1.000000	0.819397	7.36523e+06	-39589.1	955.818	-29794	0.000000	0.000000	6.819065	0.000910	NaN	0.000000	0.001555	0.001643	28.1251	0.065775	0.002070	31.7768	57.4767	-165.41	-0.012544	0.818109	-0.240327	-0.241614	0.000910	31.7768	-0.240348	-582.093	-1.563359E-6	NaN
19	1.000000	0.827396	7.36523e+06	-39589.1	955.818	-29794	0.000000	0.000000	6.827065	0.031401	NaN	0.000000	0.001569	0.001654	28.1249	0.077073	0.001979	38.9436	-55.1442	-169.232	-0.048693	0.826143	-0.232327	-0.233580	0.031401	38.9436	-0.232932	-445.386	-7.050378E-5	NaN
19	1.000000	0.835410	7.36523e+06	-39589.1	955.819	-29794	0.000000	0.000000	6.835077	-0.025730	NaN	0.000000	0.001532	0.001705	28.1245	0.104775	0.001901	55.13	-118.488	-167.42	0.028501	0.834113	-0.224314	-0.225611	-0.025730	55.13	-0.223964	-321.266	8.009041E-5	NaN
19	1.000000	0.843422	7.36523e+06	-39589.1	955.818	-29794	0.000000	0.000000	6.843091	0.020597	NaN	0.000000	0.001582	0.001674	28.1241	0.116660	0.002039	57.2198	71.3547	-164.719	0.042003	0.842080	-0.216301	-0.217644	0.020597	57.2198	-0.216571	-244.771	-8.414911E-5	NaN
19	1.000000	0.851416	7.36523e+06	-39589.1	955.819	-29794	0.000000	0.000000	6.851083	-0.005438	NaN	0.000000	0.001565	0.001710	28.1237	0.108732	0.001944	55.9229	-45.8656	-168.565	-0.009383	0.850119	-0.208308	-0.209604	-0.005438	55.9229	-0.208235	-179.555	3.028840E-5	NaN
19	1.000000	0.859403	7.36523e+06	-39589.1	955.818	-29794	0.000000	0.000000	6.859069	-0.052705	NaN	0.000000	0.001568	0.001691	28.124	0.020661	0.002030	10.1773	-75.2114	-168.16	-0.093347	0.858109	-0.200320	-0.201615	-0.052705	10.1773	-0.196436	-115.071	0.000458	NaN
19	1.000000	0.867427	7.36523e+06	-39589.1	955.82	-29794	0.000000	0.000000	6.867092	-0.072594	NaN	0.000000	0.001556	0.001672	28.1235	0.040660	0.002105	19.3169	15.6476	-164.818	-0.079397	0.866057	-0.192296	-0.193667	-0.072594	19.3169	-0.189478	-88.1663	0.000823	NaN
19	1.000000	0.875437	7.36523e+06	-39589.1	955.819	-29794	0.000000	0.000000	6.875105	0.008605	NaN	0.000000	0.001557	0.001708	28.1234	0.023549	0.001917	12.2851	-26.3654	-166.843	-0.029361	0.874162	-0.184286	-0.185561	0.008605	12.2851	-0.184812	-73.6136	-0.000117	NaN
19	1.000000	0.883433	7.36523e+06	-39589.1	955.818	-29794	0.000000	0.000000	6.883104	0.071826	NaN	0.000000	0.001562	0.001677	28.125	0.038941	0.002030	19.1805	163.802	-168.921	0.059914	0.882114	-0.176290	-0.177610	0.071826	19.1805	-0.179099	-58.9005	-0.001219	NaN
19	1.000000	0.891444	7.36523e+06	-39589.1	955.819	-29794	0.000000	0.000000	6.891113	0.048042	NaN	0.000000	0.001541	0.001657	28.126	0.031249	0.001968	15.8789	-177.446	-164.65	-0.027675	0.890140	-0.168280	-0.169584	0.048042	15.8789	-0.170549	-41.9896	-0.001144	NaN
19	1.000000	0.899423	7.36523e+06	-39589.1	955.819	-29794	0.000000	0.000000	6.899092	0.025831	NaN	0.000000	0.001512	0.001700	28.1258	0.108520	0.001975	54.948	-133.182	-166.657	-0.033452	0.898117	-0.160301	-0.161607	0.025831	54.948	-0.160653	-28.1569	-0.000917	NaN
19	1.000000	0.907426	7.36523e+06	-39589.1	955.818	-29794	0.000000	0.000000	6.907093	-0.029568	NaN	0.000000	0.001521	0.001680	28.1259	0.068117	0.002066	32.9648	-128.599	-168.27	0.036336	0.906129	-0.152297	-0.153594	-0.029568	32.9648	-0.151625	-19.3897	0.001525	NaN
19	1.000000	0.915435	7.36523e+06	-39589.1	955.819	-29794	0.000000	0.000000	6.915106	0.073934	NaN	0.000000	0.001526	0.001690	28.1259	0.043383	0.001982	21.8888	-54.223	-167.513	0.075552	0.914155	-0.144289	-0.145568	0.073934	21.8888	-0.146822	-15.841	-0.004667	NaN
19	1.000000	0.923437	7.36523e+06	-39589.1	955.819	-29794	0.000000	0.000000	6.923108	0.062064	NaN	0.000000	0.001535	0.001695	28.1259	0.100863	0.002037	49.524	-2.227355	-169.783	0.085075	0.922193	-0.136286	-0.137530	0.062064	49.524	-0.137226	-10.4865	-0.005918	NaN
19	1.000000	0.931456	7.36523e+06	-39589.1	955.818	-29794	0.000000	0.000000	6.931123	-0.027643	NaN	0.000000	0.001542	0.001690	28.1249	0.062779	0.002025	31.0094	-135.873	-164.377	0.016256	0.930140	-0.128267	-0.129583	-0.027643	31.0094	-0.127599	-6.841664	0.004040	NaN
19	1.000000	0.939487	7.36523e+06	-39589.1	955.817	-29794	0.000000	0.000000	6.939159	0.087296	NaN	0.000000	0.001557	0.001647	28.1247	0.088974	0.002053	43.3347	-105.954	-164.338	0.128512	0.938156	-0.120236	-0.121567	0.087296	43.3347	-0.121747	-5.238636	-0.016664	NaN
19	1.000000	0.947451	7.36523e+06	-39589.1	955.819	-29794	0.000000	0.000000	6.947118	-0.024601	NaN	0.000000	0.001526	0.001648	28.1243	0.084838	0.001972	43.03	-124.39	-163.902	0.038047	0.946086	-0.112272	-0.113637	-0.024601	43.03	-0.111843	-3.285307	0.007488	NaN
19	1.000000	0.955438	7.36523e+06	-39589.1	955.818	-29794	0.000000	0.000000	6.955108	0.045075	NaN	0.000000	0.001500	0.001660	28.1243	0.085122	0.001913	44.4979	120.633	-165.209	0.096299	0.954202	-0.104285	-0.105521	0.045075	44.4979	-0.105045	-2.355844	-0.019133	NaN
19	1.000000	0.963458	7.36523e+06	-39589.1	955.818	-29794	0.000000	0.000000	6.963126	0.001939	NaN	0.000000	0.001506	0.001679	28.1245	0.042835	0.002014	21.2685	57.7677	-167.305	-0.002985	0.962165	-0.096265	-0.097559	0.001939	21.2685	-0.096334	-1.512476	-0.001282	NaN
19	1.000000	0.971441	7.36523e+06	-39589.1	955.818	-29794	0.000000	0.000000	6.971111	0.056413	NaN	0.000000	0.001487	0.001636	28.1256	0.081783	0.001921	42.5657	23.3747	-165.976	0.009087	0.970086	-0.088283	-0.089637	0.056413	42.5657	-0.089277	-1.039458	-0.054271	NaN
19	1.000000	0.979488	7.36523e+06	-39589.1	955.818	-29794	0.000000	0.000000	6.979155	-0.010139	NaN	0.000000	0.001527	0.001653	28.1253	0.041941	0.001933	21.6987	-29.8788	-164.973	-0.012935	0.978157	-0.080236	-0.081566	-0.010139	21.6987	-0.079885	-0.614924	0.016488	NaN
19	1.000000	0.987479	7.36523e+06	-39589.1	955.817	-29794	0.000000	0.000000	6.987144	-0.067290	NaN	0.000000	0.001518	0.001681	28.1256	0.021957	0.002015	10.897	105.273	-165.86	-0.028505	0.986163	-0.072244	-0.073560	-0.067290	10.897	-0.067613	-0.294042	0.228845	NaN
19	1.000000	0.995488	7.36523e+06	-39589.1	955.817	-29794	0.000000	0.000000	6.995155	-0.025202	NaN	0.000000	0.001527	0.001690	28.1251	0.025787	0.002173	11.8687	170.234	-167.973	0.044821	0.994182	-0.064236	-0.065542	-0.025202	11.8687	-0.062643	-0.214125	0.117699	NaN
19	1.000000	1.003487	7.36523e+06	-39589.1	955.817	-29794	0.000000	0.000000	7.003158	0.080512	NaN	0.000000	0.001544	0.001639	28.1256	0.053199	0.001981	26.8569	-65.0355	-161.802	0.084691	1.002149	-0.056237	-0.057574	0.080512	26.8569	-0.058485	-0.162865	-0.494352	NaN
19	1.000000	1.011460	7.36523e+06	-39589.1	955.818	-29794	0.000000	0.000000	7.011128	-0.018063	NaN	0.000000	0.001540	0.001640	28.1247	0.068510	0.001991	34.4131	-99.0738	-168.366	-0.062625	1.010205	-0.048263	-0.049519	-0.018063	34.4131	-0.047869	-0.078628	0.229730	NaN
19	1.000000	1.019512	7.36523e+06	-39589.1	955.819	-29794	0.000000	0.000000	7.019181	0.007970	NaN	0.000000	0.001507	0.001649	28.1229	0.087480	0.001952	44.8193	15.8393	-168.605	0.002597	1.018210	-0.040211	-0.041513	0.007970	44.8193	-0.040344	-0.046325	-0.172043	NaN
19	1.000000	1.027509	7.36523e+06	-39589.1	955.819	-29794	0.000000	0.000000	7.027179	0.043362	NaN	0.000000	0.001508	0.001670	28.123	0.022726	0.001994	11.3966	-158.558	-166.529	0.052332	1.026160	-0.032214	-0.033564	0.043362	11.3966	-0.035068	-0.032172	-1.347816	NaN
19	1.000000	1.035499	7.36523e+06	-39589.1	955.818	-29794	0.000000	0.000000	7.035171	0.088579	NaN	0.000000	0.001540	0.001650	28.1232	0.017194	0.001888	9.105966	-176.76	-167.584	0.078717	1.034181	-0.024224	-0.025543	0.088579	9.105966	-0.031520	-0.025394	-3.488203	NaN
19	1.000000	1.043473	7.36523e+06	-39589.1	955.819	-29794	0.000000	0.000000	7.043141	0.004966	NaN	0.000000	0.001555	0.001593	28.1231	0.127375	0.002050	62.1214	-150.588	-168.632	0.002073	1.042212	-0.016251	-0.017512	0.004966	62.1214	-0.016311	-0.010076	-0.492896	NaN
19	1.000000	1.051509	7.36523e+06	-39589.1	955.818	-29794	0.000000	0.000000	7.051177	0.011512	NaN	0.000000	0.001553	0.001634	28.1245	0.055202	0.001963	28.1229	-9.230595	-166.773	0.077565	1.050192	-0.008215	-0.009532	0.011512	28.1229	-0.008522	-0.005536	-2.079413	NaN
19	1.000000	1.059496	7.36523e+06	-39589.1	955.819	-29794	0.000000	0.000000	7.059162	-0.035431	NaN	0.000000	0.001562	0.001652	28.1242	0.095307	0.002144	44.4608	-121.705	-166.875	0.038221	1.058209	-0.000228	-0.001514	-0.035431	44.4608	0.000370	0.000278	-127.271	2434.57
19	1.000000	1.067459	7.36523e+06	-39589.1	955.818	-29794	0.000000	0.000000	7.067157	0.721971	NaN	0.000000	0.001570	0.001645	28.1237	1.042459	0.001967	530.029	13.1585	-168.944	0.293362	1.066189	0.007736	0.006466	0.721971	530.029	0.006714	0.005753	125.496	6384.53
19	1.000000	1.075475	7.36523e+06	-39589.1	955.818	-29794	0.000000	0.000000	7.075410	6.499323	NaN	0.000000	0.001545	0.001684	28.1238	4.494408	0.001765	2546.91	12.0479	-170.581	5.509176	1.074185	0.015751	0.014462	6.499323	2546.91	0.013838	0.013766	472.115	19832.4
19	2.000000	1.080130	7.36523e+06	-39589.1	955.819	-29794	0.000000	0.000000	7.080175	9.181550	NaN	0.000000	0.001588	0.001649	28.124	7.355251	0.001761	4175.78	9.993702	-175.238	9.427895	1.079784	0.020407	0.020060	9.181550	4175.78	0.018758	0.020627	445.113	26563.7
19	2.000000	1.082072	7.36523e+06	-39589.1	955.818	-29794	0.000000	0.000000	7.082196	11.0986	NaN	0.000000	0.001596	0.001641	28.1243	8.415383	0.001618	5201.68	4.193999	-172.92	10.6147	1.081752	0.022348	0.022029	11.0986	5201.68	0.020748	0.023731	467.681	30850.1
19	2.000000	1.084036	7.36523e+06	-39589.1	955.819	-29794	0.000000	0.000000	7.084196	11.9939	NaN	0.000000	0.001601	0.001665	28.1223	9.989546	0.001918	5208.01	8.568001	-174.295	11.0624	1.083738	0.024312	0.024015	11.9939	5208.01	0.022585	0.026768	448.07	29082.9
19	2.000000	1.086059	7.36523e+06	-39589.1	955.819	-29794	0.000000	0.000000	7.086309	14.1731	NaN	0.000000	0.001506	0.001628	28.1228	11.7972	0.001870	6307.89	8.558717	-176.581	14.1207	1.085723	0.026335	0.026000	14.1731	6307.89	0.024650	0.030382	466.491	33063.3
19	2.000000	1.088028	7.36523e+06	-39589.1	955.819	-29794	0.000000	0.000000	7.088431	17.8783	NaN	0.000000	0.001530	0.001625	28.123	12.7727	0.001748	7305.25	2.270398	-169.668	18.0547	1.087743	0.028305	0.028020	17.8783	7305.25	0.026469	0.033743	529.831	36334.1
19	2.000000	1.090047	7.36523e+06	-39589.1	955.818	-29794	0.000000	0.000000	7.090473	18.4547	NaN	0.000000	0.001529	0.001637	28.1227	15.2189	0.001960	7765.12	7.447241	-175.762	18.9555	1.089742	0.030323	0.030019	18.4547	7765.12	0.028541	0.037774	488.556	36502.7
19	2.000000	1.092024	7.36523e+06	-39589.1	955.818	-29794	0.000000	0.000000	7.092527	20.3424	NaN	0.000000	0.001531	0.001648	28.1239	16.5968	0.001876	8847.8	10.5212	-178.548	21.0842	1.091609	0.032300	0.031885	20.3424	8847.8	0.030576	0.041946	484.97	39469.8
19	2.000000	1.093986	7.36523e+06	-39589.1	955.818	-29794	0.000000	0.000000	7.094655	24.3577	NaN	0.000000	0.001523	0.001618	28.1236	18.7708	0.001819	10318.3	5.716181	-176.905	23.0213	1.093670	0.034263	0.033947	24.3577	10318.3	0.032492	0.046067	528.738	43922.4
19	2.000000	1.096066	7.36523e+06	-39589.1	955.819	-29794	0.000000	0.000000	7.096885	28.0103	NaN	0.000000	0.001532	0.001641	28.1236	21.0919	0.001890	11157.8	8.025550	-178.572	28.0124	1.095675	0.036343	0.035952	28.0103	11157.8	0.034460	0.050496	554.701	45365.1
19	2.000000	1.098022	7.36523e+06	-39589.1	955.819	-29794	0.000000	0.000000	7.099014	32.2443	NaN	0.000000	0.001523	0.001638	28.1251	22.4886	0.001749	12855.5	6.048871	-179.801	32.0416	1.097668	0.038298	0.037945	32.2443	12855.5	0.036417	0.055097	585.232	50037.9
19	2.000000	1.100046	7.36523e+06	-39589.1	955.82	-29794	0.000000	0.000000	7.101196	36.0499	NaN	0.000000	0.001565	0.001634	28.1249	25.5936	0.001770	14460.4	7.514074	178.426	39.1914	1.099688	0.040323	0.039965	36.0499	14460.4	0.038453	0.060092	599.91	53894.6
19	2.000000	1.101940	7.36523e+06	-39589.1	955.82	-29794	0.000000	0.000000	7.103467	45.2233	NaN	0.000000	0.001517	0.001647	28.1239	25.5262	0.001724	14807.6	1.092386	-175.323	42.8592	1.101627	0.042217	0.041904	45.2233	14807.6	0.039926	0.063838	708.405	53544.7
19	2.000000	1.103969	7.36523e+06	-39589.1	955.819	-29794	0.000000	0.000000	7.105458	44.3101	NaN	0.000000	0.001500	0.001671	28.1241	28.8835	0.001842	15682.4	7.330791	177.462	41.9255	1.103622	0.044245	0.043898	44.3101	15682.4	0.042126	0.069639	636.282	54294.9
19	2.000000	1.106058	7.36523e+06	-39589.1	955.819	-29794	0.000000	0.000000	7.107676	47.4693	NaN	0.000000	0.001517	0.001650	28.1243	30.4258	0.001745	17436.4	2.020511	-177.947	49.4581	1.105722	0.046334	0.045999	47.4693	17436.4	0.044292	0.075591	627.977	57942.2
19	2.000000	1.107939	7.36523e+06	-39589.1	955.82	-29794	0.000000	0.000000	7.109893	55.6272	NaN	0.000000	0.001602	0.001659	28.1236	32.5179	0.001837	17705.1	8.639044	175.651	54.5252	1.107612	0.048216	0.047889	55.6272	17705.1	0.045859	0.080046	694.943	57174.6
19	2.000000	1.109995	7.36523e+06	-39589.1	955.82	-29794	0.000000	0.000000	7.112106	59.453	NaN	0.000000	0.001622	0.001647	28.1235	35.1551	0.001845	19052.1	4.476977	177.599	58.7585	1.109619	0.050271	0.049896	59.453	19052.1	0.047931	0.086125	690.311	59313.1
19	2.000000	1.111944	7.36523e+06	-39589.1	955.819	-29794	0.000000	0.000000	7.114465	69.4132	NaN	0.000000	0.001635	0.001650	28.1245	36.543	0.001827	19998.5	8.134370	174.325	68.848	1.111603	0.052221	0.051879	69.4132	19998.5	0.049618	0.091235	760.816	60490.7
19	2.000000	1.113919	7.36523e+06	-39589.1	955.82	-29794	0.000000	0.000000	7.116653	74.6015	NaN	0.000000	0.001619	0.001619	28.1244	38.5091	0.001820	21163	5.244221	176.731	70.9797	1.113642	0.054196	0.053919	74.6015	21163	0.051552	0.097270	766.95	61995.4
19	2.000000	1.116030	7.36523e+06	-39589.1	955.819	-29794	0.000000	0.000000	7.119108	82.9982	NaN	0.000000	0.001596	0.001640	28.1255	40.9304	0.001879	21787.7	8.344726	174.489	83.2721	1.115631	0.056306	0.055907	82.9982	21787.7	0.053449	0.103371	802.912	61913.5
19	2.000000	1.117945	7.36523e+06	-39589.1	955.819	-29794	0.000000	0.000000	7.121438	93.0786	NaN	0.000000	0.001598	0.001632	28.1246	41.0548	0.001791	22923.2	3.750284	178.036	91.6768	1.117625	0.058222	0.057902	93.0786	22923.2	0.055176	0.109081	853.296	63412.2
19	2.000000	1.119960	7.36523e+06	-39589.1	955.819	-29794	0.000000	0.000000	7.123661	98.1335	NaN	0.000000	0.001607	0.001636	28.1244	44.3756	0.001780	24923.7	5.758393	175.103	97.5018	1.119698	0.060237	0.059975	98.1335	24923.7	0.057284	0.116248	844.172	66787
19	2.000000	1.121945	7.36523e+06	-39589.1	955.82	-29794	0.000000	0.000000	7.126100	109.192	NaN	0.000000	0.001618	0.001649	28.1236	45.0102	0.001804	24953.2	4.485025	176.683	109.944	1.121639	0.062221	0.061915	109.192	24953.2	0.058939	0.122033	894.776	65262.2
19	2.000000	1.123903	7.36523e+06	-39589.1	955.819	-29794	0.000000	0.000000	7.128641	123.391	NaN	0.000000	0.001615	0.001648	28.1234	47.3293	0.001747	27096.4	7.402632	172.421	118.752	1.123553	0.064179	0.063830	123.391	27096.4	0.060764	0.128561	959.782	69044.6
19	2.000000	1.126030	7.36523e+06	-39589.1	955.819	-29794	0.000000	0.000000	7.130868	125.797	NaN	0.000000	0.001601	0.001696	28.1234	49.6538	0.001844	26927.2	5.937609	175.69	127.129	1.125542	0.066307	0.065818	125.797	26927.2	0.062803	0.136052	924.627	66698.1
19	2.000000	1.127900	7.36523e+06	-39589.1	955.819	-29794	0.000000	0.000000	7.133223	137.613	NaN	0.000000	0.001617	0.001644	28.1235	50.5739	0.001872	27022.3	2.334890	178.525	134.276	1.127585	0.068177	0.067862	137.613	27022.3	0.064358	0.141896	969.817	65540.7
19	2.000000	1.130034	7.36523e+06	-39589.1	955.819	-29794	0.000000	0.000000	7.135620	144.031	NaN	0.000000	0.001645	0.001657	28.1231	53.7138	0.001829	29362.3	6.474285	173.214	147.765	1.129604	0.070310	0.069881	144.031	29362.3	0.066631	0.150654	956.034	69115.1
19	2.000000	1.131928	7.36523e+06	-39589.1	955.819	-29794	0.000000	0.000000	7.138087	157.968	NaN	0.000000	0.001640	0.001635	28.123	53.6567	0.001782	30103.1	5.022529	175.11	156.399	1.131520	0.072205	0.071797	157.968	30103.1	0.068269	0.157117	1005.41	69386.1
19	2.000000	1.133907	7.36523e+06	-39589.1	955.819	-29794	0.000000	0.000000	7.140554	169.83	NaN	0.000000	0.001586	0.001640	28.1227	56.9569	0.001832	31097.9	2.843607	177.06	168.063	1.133556	0.074183	0.073833	169.83	31097.9	0.070088	0.164444	1032.75	70064
19	2.000000	1.135880	7.36523e+06	-39589.1	955.818	-29794	0.000000	0.000000	7.142818	176.927	NaN	0.000000	0.001597	0.001625	28.123	59.1815	0.001756	33708.5	3.658974	175.137	172.337	1.135586	0.076156	0.075862	176.927	33708.5	0.072219	0.173234	1021.32	73993.9
19	2.000000	1.137938	7.36523e+06	-39589.1	955.818	-29794	0.000000	0.000000	7.145359	188.657	NaN	0.000000	0.001596	0.001624	28.123	60.7164	0.001816	33440.4	4.164513	173.813	186.925	1.137669	0.078215	0.077945	188.657	33440.4	0.073984	0.180670	1044.21	71878.9
19	2.000000	1.139958	7.36523e+06	-39589.1	955.818	-29794	0.000000	0.000000	7.147678	195.95	NaN	0.000000	0.001535	0.001646	28.1227	62.2119	0.001750	35558.5	4.895749	172.5	196.344	1.139631	0.080235	0.079907	195.95	35558.5	0.076102	0.189791	1032.45	74572.5
19	2.000000	1.141913	7.36523e+06	-39589.1	955.819	-29794	0.000000	0.000000	7.150306	212.31	NaN	0.000000	0.001518	0.001622	28.1215	62.9782	0.001771	35554.2	7.292652	171.243	210.259	1.141514	0.082190	0.081790	212.31	35554.2	0.077711	0.196863	1078.46	73212
19	2.000000	1.143986	7.36523e+06	-39589.1	955.819	-29794	0.000000	0.000000	7.152889	224.741	NaN	0.000000	0.001491	0.001633	28.1219	66.6056	0.001774	37551.1	4.889088	173.201	226.108	1.143617	0.084262	0.083894	224.741	37551.1	0.079773	0.206102	1090.44	75571
19	2.000000	1.146023	7.36523e+06	-39589.1	955.819	-29794	0.000000	0.000000	7.155376	235.677	NaN	0.000000	0.001541	0.001648	28.1214	68.3484	0.001708	40016.1	4.852578	172.261	237.564	1.145554	0.086299	0.085831	235.677	40016.1	0.081882	0.215754	1092.34	78709.7
19	2.000000	1.147857	7.36523e+06	-39589.1	955.818	-29794	0.000000	0.000000	7.157714	247.952	NaN	0.000000	0.001517	0.001622	28.1217	69.029	0.001816	38004.1	3.008049	173.967	245.5	1.147726	0.088133	0.088002	247.952	38004.1	0.083240	0.222078	1116.51	73680.2
19	2.000000	1.149947	7.36523e+06	-39589.1	955.819	-29794	0.000000	0.000000	7.160330	260.76	NaN	0.000000	0.001537	0.001634	28.1212	72.7901	0.001893	38443.7	7.574741	170	259.564	1.149695	0.090224	0.089971	260.76	38443.7	0.085136	0.231053	1128.57	73070.6
19	2.000000	1.151853	7.36523e+06	-39589.1	955.82	-29794	0.000000	0.000000	7.162785	274.111	NaN	0.000000	0.001537	0.001628	28.1226	72.0701	0.001853	38891.4	1.214602	176.087	269.209	1.151609	0.092130	0.091885	274.111	38891.4	0.086844	0.239275	1145.59	72640.4
19	2.000000	1.153849	7.36523e+06	-39589.1	955.819	-29794	0.000000	0.000000	7.165078	281.326	NaN	0.000000	0.001564	0.001692	28.1229	74.7731	0.001820	41088.2	4.016799	172.407	277.535	1.153603	0.094126	0.093879	281.326	41088.2	0.088990	0.249804	1126.19	75108.7
19	2.000000	1.155870	7.36523e+06	-39589.1	955.82	-29794	0.000000	0.000000	7.167713	296.27	NaN	0.000000	0.001572	0.001652	28.122	77.2655	0.001824	42364.7	5.642669	170.406	291.562	1.155630	0.096146	0.095906	296.27	42364.7	0.090901	0.259355	1142.33	76002.8
19	2.000000	1.157846	7.36523e+06	-39589.1	955.818	-29794	0.000000	0.000000	7.170485	315.662	NaN	0.000000	0.001527	0.001663	28.1234	78.2934	0.001773	44155.8	2.701100	173.648	310.124	1.157560	0.098122	0.097836	315.662	44155.8	0.092761	0.268808	1174.3	77810.7
19	2.000000	1.159971	7.36523e+06	-39589.1	955.819	-29794	0.000000	0.000000	7.173100	327.557	NaN	0.000000	0.001585	0.001664	28.1221	82.4403	0.001864	44216.9	3.593533	172.621	328.285	1.159681	0.100248	0.099957	327.557	44216.9	0.094692	0.278794	1174.91	76510.2
19	2.000000	1.161940	7.36523e+06	-39589.1	955.819	-29794	0.000000	0.000000	7.175945	348.874	NaN	0.000000	0.001568	0.001621	28.1218	82.3573	0.001752	47012.5	5.013550	170.94	349.86	1.161544	0.102217	0.101821	348.874	47012.5	0.096651	0.289100	1206.76	79884.5
19	2.000000	1.163854	7.36523e+06	-39589.1	955.819	-29794	0.000000	0.000000	7.178639	367.858	NaN	0.000000	0.001550	0.001671	28.1221	83.2607	0.001751	47541.4	1.385294	174.343	364.887	1.163450	0.104131	0.103727	367.858	47541.4	0.098328	0.298057	1234.19	79560.1
19	2.000000	1.165930	7.36523e+06	-39589.1	955.819	-29794	0.000000	0.000000	7.181083	376.819	NaN	0.000000	0.001586	0.001653	28.1222	85.8624	0.001791	47945.5	1.520632	174.531	375.094	1.165631	0.106207	0.105907	376.819	47945.5	0.100312	0.308825	1220.17	78825.3
19	2.000000	1.167901	7.36523e+06	-39589.1	955.819	-29794	0.000000	0.000000	7.183720	393.043	NaN	0.000000	0.001599	0.001678	28.1231	87.8835	0.001727	50900.1	6.697000	168.771	392.484	1.167473	0.108177	0.107749	393.043	50900.1	0.102386	0.320266	1227.24	82174.2
19	2.000000	1.169949	7.36523e+06	-39589.1	955.819	-29794	0.000000	0.000000	7.185951	397.483	NaN	0.000000	0.001560	0.001654	28.1225	90.4775	0.001825	49564	1.850874	173.384	397.925	1.169845	0.110226	0.110121	397.483	49564	0.104211	0.330500	1202.67	78768.8
19	2.000000	1.171877	7.36523e+06	-39589.1	955.819	-29794	0.000000	0.000000	7.189077	426.641	NaN	0.000000	0.001541	0.001630	28.1235	90.9507	0.001781	51074.2	2.223555	173.279	426.799	1.171626	0.112153	0.111903	426.641	51074.2	0.105888	0.340038	1254.69	80022.2
19	2.000000	1.173927	7.36523e+06	-39589.1	955.82	-29794	0.000000	0.000000	7.191539	436.677	NaN	0.000000	0.001604	0.001660	28.124	95.1797	0.001951	48787.5	8.759718	167.363	438.134	1.173624	0.114203	0.113901	436.677	48787.5	0.107490	0.349266	1250.27	75423
19	2.000000	1.175847	7.36523e+06	-39589.1	955.819	-29794	0.000000	0.000000	7.194484	461.59	NaN	0.000000	0.001557	0.001673	28.124	95.8484	0.001788	53596.9	6.758455	168.448	458.62	1.175557	0.116124	0.115833	461.59	53596.9	0.109665	0.361978	1275.19	81390.2
19	2.000000	1.177386	7.36523e+06	-39589.1	955.819	-29794	0.000000	0.000000	7.196623	476.221	NaN	0.000000	0.001535	0.001656	28.0849	95.7645	0.001697	56437.8	2.129820	-7.429826	474.152	1.177065	0.117662	0.117342	476.221	56437.8	0.111334	0.371880	1280.57	84555.5