File: remote_trans/data/nanoindenter/0828-1/data/Data_2025-08-06,11h17m57s/2025-07-22_16-23-58_1_694.txt
2025-07-22, 16:23:58, 1
Index	Phase	Displacement	Time	Pos X	Pos Y	Pos Z	Rot A	Rot B	Piezo Z	Force A	Force B	Gripper	Voltage A	Voltage B	Temperature	Amplitude force	Amplitude pos	Stiffness	Phase shift	Phase excitation	Force A raw	Displacement raw	HMax	HMax raw	Real Force	Real Stiffness	Contact Depth	Area	Hardness	Reduced Mod.
[#]	[#]	[um]	[s]	[um]	[um]	[um]	[m°]	[m°]	[um]	[uN]	[uN]	[V]	[V]	[V]	[°C]	[uN]	[um]	[N/m]	[°]	[°]	[uN]	[um]	[um]	[um]	[uN]	[N/m]	[um]	[um^2]	[MPa]	[MPa]
694	1.000000	0.002845	7.37184e+06	-42389.1	1005.82	-29782.8	0.000000	0.000000	6.002782	0.031574	NaN	0.000000	0.001699	0.001726	28.0809	0.096194	0.000928	103.68	125.33	-169.607	-0.011491	0.001575	-1.089900	-1.091170	0.031574	103.68	-1.090128	-3.694333E+14	-8.546678E-17	NaN
694	1.000000	0.012911	7.37184e+06	-42389.1	1005.82	-29782.8	0.000000	0.000000	6.012846	-0.008745	NaN	0.000000	0.001757	0.001719	28.0802	0.062915	0.001198	52.5132	27.5231	12.3861	0.035402	0.011487	-1.079834	-1.081258	-0.008745	52.5132	-1.079710	-2.676812E+14	3.266787E-17	NaN
694	1.000000	0.022803	7.37184e+06	-42389.1	1005.82	-29782.8	0.000000	0.000000	6.022740	0.037259	NaN	0.000000	0.001746	0.001756	28.0804	0.111358	0.001844	60.4048	-93.4113	-164.777	0.073051	0.021547	-1.069942	-1.071199	0.037259	60.4048	-1.070405	-2.007363E+14	-1.856131E-16	NaN
694	1.000000	0.032813	7.37184e+06	-42389.1	1005.82	-29782.8	0.000000	0.000000	6.032748	-0.010542	NaN	0.000000	0.001726	0.001729	28.081	0.035635	0.001896	18.7949	-163.476	14.5026	0.011426	0.031439	-1.059932	-1.061306	-0.010542	18.7949	-1.059512	-1.433040E+14	7.356497E-17	NaN
694	1.000000	0.042811	7.37184e+06	-42389.1	1005.82	-29782.8	0.000000	0.000000	6.042745	-0.044706	NaN	0.000000	0.001797	0.001753	28.0804	0.036344	0.002012	18.0595	17.5191	-166.878	0.032241	0.041493	-1.049934	-1.051252	-0.044706	18.0595	-1.048078	-1.005943E+14	4.444230E-16	NaN
694	1.000000	0.052812	7.37184e+06	-42389.1	1005.82	-29782.8	0.000000	0.000000	6.052744	-0.077064	NaN	0.000000	0.001754	0.001734	28.0809	0.035686	0.002118	16.8485	-47.7703	15.6217	-0.027519	0.051421	-1.039933	-1.041324	-0.077064	16.8485	-1.036503	-7.029761E+13	1.096254E-15	NaN
694	1.000000	0.062822	7.37184e+06	-42389.1	1005.82	-29782.8	0.000000	0.000000	6.062757	-0.021311	NaN	0.000000	0.001769	0.001706	28.0805	0.104428	0.001948	53.6074	47.7811	-168.284	-0.121058	0.061504	-1.029923	-1.031242	-0.021311	53.6074	-1.029625	-5.681180E+13	3.751083E-16	NaN
694	1.000000	0.072823	7.37184e+06	-42389.1	1005.82	-29782.8	0.000000	0.000000	6.072757	-0.020397	NaN	0.000000	0.001774	0.001705	28.081	0.029526	0.001971	14.9833	16.6768	13.1364	0.009536	0.071486	-1.019923	-1.021259	-0.020397	14.9833	-1.018902	-4.075439E+13	5.004979E-16	NaN
694	1.000000	0.082825	7.37184e+06	-42389.1	1005.82	-29782.8	0.000000	0.000000	6.082761	0.009058	NaN	0.000000	0.001793	0.001758	28.0817	0.067806	0.002060	32.91	26.4004	-164.37	-0.004293	0.081510	-1.009920	-1.011235	0.009058	32.91	-1.010127	-3.105180E+13	-2.917047E-16	NaN
694	1.000000	0.092818	7.37184e+06	-42389.1	1005.82	-29782.8	0.000000	0.000000	6.092752	-0.036415	NaN	0.000000	0.001791	0.001736	28.0819	0.056044	0.002054	27.285	96.6011	13.4488	-0.000900	0.091527	-0.999928	-1.001219	-0.036415	27.285	-0.998927	-2.194403E+13	1.659464E-15	NaN
694	1.000000	0.102820	7.37184e+06	-42389.1	1005.82	-29782.8	0.000000	0.000000	6.102757	0.036388	NaN	0.000000	0.001800	0.001712	28.0818	0.089338	0.001781	50.1654	0.415301	-167.338	-0.039189	0.101528	-0.989925	-0.991217	0.036388	50.1654	-0.990470	-1.688245E+13	-2.155401E-15	NaN
694	1.000000	0.112816	7.37184e+06	-42389.1	1005.82	-29782.8	0.000000	0.000000	6.112750	-0.046201	NaN	0.000000	0.001805	0.001743	28.0825	0.154573	0.001993	77.5743	-171.995	13.3804	-0.046897	0.111457	-0.979929	-0.981288	-0.046201	77.5743	-0.979483	-1.200713E+13	3.847779E-15	NaN
694	1.000000	0.122836	7.37184e+06	-42389.1	1005.82	-29782.8	0.000000	0.000000	6.122768	-0.100727	NaN	0.000000	0.001791	0.001749	28.082	0.036464	0.002095	17.4079	-172.95	-165.187	-0.128423	0.121589	-0.969909	-0.971157	-0.100727	17.4079	-0.965569	-7.797351E+12	1.291806E-14	NaN
694	1.000000	0.132843	7.37184e+06	-42389.1	1005.82	-29782.8	0.000000	0.000000	6.132778	-0.024385	NaN	0.000000	0.001805	0.001715	28.0821	0.100345	0.002038	49.247	99.1111	14.1576	0.089269	0.131465	-0.959902	-0.961280	-0.024385	49.247	-0.959531	-6.464658E+12	3.772039E-15	NaN
694	1.000000	0.142843	7.37184e+06	-42389.1	1005.82	-29782.8	0.000000	0.000000	6.142779	0.012979	NaN	0.000000	0.001750	0.001709	28.082	0.071041	0.001947	36.4868	18.6297	-162.579	0.029352	0.141539	-0.949903	-0.951206	0.012979	36.4868	-0.950170	-4.834078E+12	-2.684911E-15	NaN
694	1.000000	0.152868	7.37184e+06	-42389.1	1005.82	-29782.8	0.000000	0.000000	6.152804	0.002877	NaN	0.000000	0.001817	0.001732	28.082	0.086620	0.001890	45.8315	-73.2932	12.057	-0.043764	0.151457	-0.939877	-0.941289	0.002877	45.8315	-0.939924	-3.516562E+12	-8.181761E-16	NaN
694	1.000000	0.162864	7.37184e+06	-42389.1	1005.82	-29782.8	0.000000	0.000000	6.162799	-0.031826	NaN	0.000000	0.001792	0.001705	28.0818	0.059621	0.002063	28.8954	95.0567	-163.999	-0.130643	0.161505	-0.929881	-0.931240	-0.031826	28.8954	-0.929055	-2.508659E+12	1.268665E-14	NaN
694	1.000000	0.172849	7.37184e+06	-42389.1	1005.82	-29782.8	0.000000	0.000000	6.172787	0.055156	NaN	0.000000	0.001745	0.001676	28.0819	0.061152	0.002032	30.0937	132.091	16.5743	0.074136	0.171475	-0.919896	-0.921271	0.055156	30.0937	-0.921271	-1.969531E+12	-2.800469E-14	NaN
694	1.000000	0.182850	7.37184e+06	-42389.1	1005.82	-29782.8	0.000000	0.000000	6.182786	0.023069	NaN	0.000000	0.001732	0.001729	28.082	0.062698	0.001995	31.4285	-12.9919	-166.869	-0.008132	0.181527	-0.909895	-0.911218	0.023069	31.4285	-0.910446	-1.406652E+12	-1.640013E-14	NaN
694	1.000000	0.192845	7.37184e+06	-42389.1	1005.82	-29782.8	0.000000	0.000000	6.192779	-0.049389	NaN	0.000000	0.001706	0.001715	28.0819	0.038610	0.002019	19.1204	-83.978	13.053	-0.002181	0.191478	-0.899900	-0.901268	-0.049389	19.1204	-0.897963	-9.539814E+11	5.177173E-14	NaN
694	1.000000	0.202866	7.37184e+06	-42389.1	1005.82	-29782.8	0.000000	0.000000	6.202801	-0.005295	NaN	0.000000	0.001695	0.001681	28.082	0.099226	0.002019	49.1538	125.314	-165.242	-0.073206	0.201579	-0.889879	-0.891166	-0.005295	49.1538	-0.889799	-7.399332E+11	7.156695E-15	NaN
694	1.000000	0.212856	7.37184e+06	-42389.1	1005.82	-29782.8	0.000000	0.000000	6.212788	-0.082424	NaN	0.000000	0.001695	0.001715	28.0809	0.005247	0.002053	2.555739	-66.0185	11.7727	-0.111969	0.211498	-0.879889	-0.881247	-0.082424	2.555739	-0.855701	-2.558166E+11	3.222001E-13	NaN
694	1.000000	0.222879	7.37184e+06	-42389.1	1005.82	-29782.8	0.000000	0.000000	6.222815	0.016250	NaN	0.000000	0.001744	0.001721	28.0811	0.058343	0.001958	29.7968	62.9287	-162.693	0.035865	0.221570	-0.869866	-0.871176	0.016250	29.7968	-0.870275	-4.028727E+11	-4.033638E-14	NaN
694	1.000000	0.232902	7.37184e+06	-42389.1	1005.82	-29782.8	0.000000	0.000000	6.232835	-0.063440	NaN	0.000000	0.001786	0.001697	28.0808	0.053866	0.002028	26.557	-106.612	13.4661	-0.040991	0.231504	-0.859844	-0.861241	-0.063440	26.557	-0.858052	-2.752662E+11	2.304677E-13	NaN
694	1.000000	0.242931	7.37184e+06	-42389.1	1005.82	-29782.8	0.000000	0.000000	6.242868	0.014829	NaN	0.000000	0.001696	0.001765	28.0809	0.069860	0.002057	33.9635	-158.4	-168.266	-0.038463	0.241527	-0.849814	-0.851218	0.014829	33.9635	-0.850141	-2.151063E+11	-6.893822E-14	NaN
694	1.000000	0.252906	7.37184e+06	-42389.1	1005.82	-29782.8	0.000000	0.000000	6.252842	0.023966	NaN	0.000000	0.001736	0.001714	28.0809	0.097783	0.001990	49.1427	91.1178	15.6954	0.073258	0.251497	-0.839839	-0.841249	0.023966	49.1427	-0.840205	-1.577875E+11	-1.518878E-13	NaN
694	1.000000	0.262905	7.37184e+06	-42389.1	1005.82	-29782.8	0.000000	0.000000	6.262838	-0.062071	NaN	0.000000	0.001711	0.001722	28.081	0.064324	0.001905	33.7684	35.5301	-162.574	-0.099925	0.261535	-0.829840	-0.831211	-0.062071	33.7684	-0.828462	-1.093796E+11	5.674822E-13	NaN
694	1.000000	0.272907	7.37184e+06	-42389.1	1005.82	-29782.8	0.000000	0.000000	6.272842	-0.019991	NaN	0.000000	0.001746	0.001736	28.0812	0.088615	0.002068	42.8521	110.543	14.0626	-0.077855	0.271553	-0.819838	-0.821193	-0.019991	42.8521	-0.819488	-8.265546E+10	2.418568E-13	NaN
694	1.000000	0.282873	7.37184e+06	-42389.1	1005.82	-29782.8	0.000000	0.000000	6.282807	-0.043761	NaN	0.000000	0.001714	0.001698	28.0812	0.060057	0.002030	29.5884	130.233	-167.557	-0.018832	0.281631	-0.809872	-0.811114	-0.043761	29.5884	-0.808763	-5.912695E+10	7.401134E-13	NaN
694	1.000000	0.292929	7.37184e+06	-42389.1	1005.82	-29782.8	0.000000	0.000000	6.292864	-0.000258	NaN	0.000000	0.001703	0.001687	28.0813	0.073917	0.001982	37.2959	-96.9192	15.0037	-0.054823	0.291568	-0.799817	-0.801178	-0.000258	37.2959	-0.799811	-4.469956E+10	5.761959E-15	NaN
694	1.000000	0.302915	7.37184e+06	-42389.1	1005.82	-29782.8	0.000000	0.000000	6.302850	-0.003138	NaN	0.000000	0.001720	0.001688	28.0811	0.049626	0.001915	25.9172	-62.1573	-167.808	-0.020362	0.301606	-0.789830	-0.791139	-0.003138	25.9172	-0.789740	-3.262477E+10	9.617349E-14	NaN
694	1.000000	0.312913	7.37184e+06	-42389.1	1005.82	-29782.8	0.000000	0.000000	6.312847	-0.038028	NaN	0.000000	0.001734	0.001691	28.0814	0.081695	0.001951	41.8722	-103.326	13.214	-0.015822	0.311540	-0.779832	-0.781205	-0.038028	41.8722	-0.779151	-2.342602E+10	1.623318E-12	NaN
694	1.000000	0.322941	7.37184e+06	-42389.1	1005.82	-29782.8	0.000000	0.000000	6.322879	0.062479	NaN	0.000000	0.001725	0.001718	28.0813	0.045105	0.001965	22.9492	-60.6474	-166.057	0.013568	0.321605	-0.769805	-0.771141	0.062479	22.9492	-0.771847	-1.863855E+10	-3.352124E-12	NaN
694	1.000000	0.332944	7.37184e+06	-42389.1	1005.82	-29782.8	0.000000	0.000000	6.332880	0.005739	NaN	0.000000	0.001703	0.001713	28.0813	0.038790	0.002025	19.1592	79.7245	13.8177	-0.055753	0.331604	-0.759801	-0.761141	0.005739	19.1592	-0.760026	-1.287232E+10	-4.458503E-13	NaN
694	1.000000	0.342898	7.37184e+06	-42389.1	1005.82	-29782.8	0.000000	0.000000	6.342832	-0.037178	NaN	0.000000	0.001739	0.001725	28.0814	0.055364	0.002009	27.5525	-88.6571	-163.574	0.013156	0.341649	-0.749847	-0.751096	-0.037178	27.5525	-0.748835	-9.064945E+9	4.101273E-12	NaN
694	1.000000	0.352920	7.37184e+06	-42389.1	1005.82	-29782.8	0.000000	0.000000	6.352855	0.001036	NaN	0.000000	0.001708	0.001725	28.0825	0.014004	0.002067	6.775526	52.4445	12.8323	-0.007853	0.351590	-0.739826	-0.741156	0.001036	6.775526	-0.739940	-6.858742E+9	-1.510386E-13	NaN
694	1.000000	0.362946	7.37184e+06	-42389.1	1005.82	-29782.8	0.000000	0.000000	6.362879	-0.065679	NaN	0.000000	0.001735	0.001710	28.0827	0.072771	0.002049	35.5097	124.385	-165.635	-0.054136	0.361649	-0.729799	-0.731096	-0.065679	35.5097	-0.728412	-4.777123E+9	1.374860E-11	NaN
694	1.000000	0.372929	7.37184e+06	-42389.1	1005.82	-29782.8	0.000000	0.000000	6.372862	-0.054070	NaN	0.000000	0.001764	0.001708	28.0822	0.088595	0.001994	44.431	-145.63	15.211	-0.000285	0.371560	-0.719817	-0.721185	-0.054070	44.431	-0.718904	-3.544272E+9	1.525554E-11	NaN
694	1.000000	0.382967	7.37184e+06	-42389.1	1005.82	-29782.8	0.000000	0.000000	6.382903	0.015058	NaN	0.000000	0.001762	0.001693	28.0825	0.116023	0.001879	61.7393	69.1983	-166.982	0.019713	0.381626	-0.709778	-0.711119	0.015058	61.7393	-0.709961	-2.676207E+9	-5.626577E-12	NaN
694	1.000000	0.392947	7.37184e+06	-42389.1	1005.82	-29782.8	0.000000	0.000000	6.392877	-0.127751	NaN	0.000000	0.001747	0.001725	28.082	0.024836	0.001918	12.9458	5.301794	11.3631	-0.108554	0.391589	-0.699799	-0.701157	-0.127751	12.9458	-0.692398	-1.540574E+9	8.292422E-11	NaN
694	1.000000	0.402977	7.37184e+06	-42389.1	1005.82	-29782.8	0.000000	0.000000	6.402908	-0.095500	NaN	0.000000	0.001740	0.001717	28.0824	0.062493	0.002010	31.0839	-60.4669	-165.39	-0.079355	0.401708	-0.689769	-0.691038	-0.095500	31.0839	-0.687464	-1.319053E+9	7.240014E-11	NaN
694	1.000000	0.412943	7.37184e+06	-42389.1	1005.82	-29782.8	0.000000	0.000000	6.412877	-0.026098	NaN	0.000000	0.001804	0.001698	28.0821	0.041470	0.002021	20.5215	170.896	14.7598	-0.100441	0.411510	-0.679803	-0.681236	-0.026098	20.5215	-0.678849	-1.005690E+9	2.595031E-11	NaN
694	1.000000	0.422972	7.37184e+06	-42389.1	1005.82	-29782.8	0.000000	0.000000	6.422905	-0.056856	NaN	0.000000	0.001788	0.001725	28.0822	0.039206	0.002083	18.8252	-155.66	-168.16	-0.108490	0.421684	-0.669773	-0.671062	-0.056856	18.8252	-0.667508	-7.035254E+8	8.081591E-11	NaN
694	1.000000	0.432984	7.37184e+06	-42389.1	1005.82	-29782.8	0.000000	0.000000	6.432917	-0.058161	NaN	0.000000	0.001814	0.001728	28.0823	0.034341	0.001942	17.6875	137.672	14.7094	-0.040376	0.431646	-0.659761	-0.661099	-0.058161	17.6875	-0.657295	-5.098150E+8	1.140828E-10	NaN
694	1.000000	0.442984	7.37184e+06	-42389.1	1005.82	-29782.8	0.000000	0.000000	6.442917	-0.046263	NaN	0.000000	0.001816	0.001727	28.0822	0.077749	0.001977	39.3219	146.856	-166.1	-0.066414	0.441641	-0.649762	-0.651105	-0.046263	39.3219	-0.648879	-3.909080E+8	1.183478E-10	NaN
694	1.000000	0.452990	7.37184e+06	-42389.1	1005.82	-29782.8	0.000000	0.000000	6.452926	0.008611	NaN	0.000000	0.001754	0.001673	28.0822	0.060560	0.002009	30.1395	161.48	18.6268	-0.061520	0.451547	-0.639756	-0.641199	0.008611	30.1395	-0.639970	-2.950383E+8	-2.918772E-11	NaN
694	1.000000	0.462984	7.37184e+06	-42389.1	1005.82	-29782.8	0.000000	0.000000	6.462915	-0.100708	NaN	0.000000	0.001744	0.001691	28.0821	0.045161	0.002000	22.5832	-149.163	-165.708	-0.053347	0.461695	-0.629762	-0.631050	-0.100708	22.5832	-0.626417	-1.922258E+8	5.239053E-10	NaN
694	1.000000	0.473005	7.37184e+06	-42389.1	1005.82	-29782.8	0.000000	0.000000	6.472943	0.039795	NaN	0.000000	0.001736	0.001700	28.0824	0.135903	0.002179	62.371	158.849	12.9581	-0.001440	0.471620	-0.619740	-0.621125	0.039795	62.371	-0.620219	-1.579928E+8	-2.518763E-10	NaN
694	1.000000	0.482984	7.37184e+06	-42389.1	1005.82	-29782.8	0.000000	0.000000	6.482916	-0.095408	NaN	0.000000	0.001710	0.001686	28.0821	0.072950	0.001758	41.5047	67.4582	-166.014	-0.062005	0.481656	-0.609761	-0.611089	-0.095408	41.5047	-0.608037	-1.074257E+8	8.881278E-10	NaN
694	1.000000	0.493005	7.37184e+06	-42389.1	1005.82	-29782.8	0.000000	0.000000	6.492938	-0.078498	NaN	0.000000	0.001720	0.001753	28.0809	0.049474	0.001855	26.673	-168.76	15.9123	-0.075379	0.491646	-0.599740	-0.601099	-0.078498	26.673	-0.597533	-7.699763E+7	1.019487E-9	NaN
694	1.000000	0.503020	7.37184e+06	-42389.1	1005.82	-29782.8	0.000000	0.000000	6.502955	-0.013202	NaN	0.000000	0.001745	0.001729	28.0809	0.107980	0.001999	54.0091	100.316	-169.963	-0.024443	0.501721	-0.589726	-0.591024	-0.013202	54.0091	-0.589542	-5.975227E+7	2.209468E-10	NaN
694	1.000000	0.513006	7.37184e+06	-42389.1	1005.82	-29782.8	0.000000	0.000000	6.512938	-0.089651	NaN	0.000000	0.001796	0.001727	28.0814	0.060596	0.001924	31.4952	-76.5136	15.0609	0.011945	0.511635	-0.579739	-0.581111	-0.089651	31.4952	-0.577604	-4.089396E+7	2.192271E-9	NaN
694	1.000000	0.522992	7.37184e+06	-42389.1	1005.82	-29782.8	0.000000	0.000000	6.522927	-0.009405	NaN	0.000000	0.001770	0.001711	28.0808	0.144640	0.002063	70.0966	155.021	-167.582	-0.070824	0.521736	-0.569753	-0.571010	-0.009405	70.0966	-0.569653	-3.175643E+7	2.961606E-10	NaN
694	1.000000	0.532989	7.37184e+06	-42389.1	1005.82	-29782.8	0.000000	0.000000	6.532925	5.639293E-5	NaN	0.000000	0.001754	0.001721	28.0809	0.070635	0.001834	38.5193	-130.767	14.6993	-0.069977	0.531657	-0.559756	-0.561089	5.639293E-5	38.5193	-0.559757	-2.317519E+7	-2.433332E-12	NaN
694	1.000000	0.543023	7.37184e+06	-42389.1	1005.82	-29782.8	0.000000	0.000000	6.542955	-0.079394	NaN	0.000000	0.001741	0.001754	28.0811	0.094282	0.002075	45.4376	-158.665	-165.441	-0.073912	0.541715	-0.549723	-0.551030	-0.079394	45.4376	-0.548412	-1.614208E+7	4.918420E-9	NaN
694	1.000000	0.553024	7.37184e+06	-42389.1	1005.82	-29782.8	0.000000	0.000000	6.552958	-0.046137	NaN	0.000000	0.001753	0.001723	28.081	0.055941	0.002001	27.957	-131.043	12.754	-0.048116	0.551720	-0.539721	-0.541025	-0.046137	27.957	-0.538483	-1.175765E+7	3.923978E-9	NaN
694	1.000000	0.563011	7.37184e+06	-42389.1	1005.82	-29782.8	0.000000	0.000000	6.562947	0.022644	NaN	0.000000	0.001733	0.001750	28.081	0.042279	0.002079	20.3339	67.0218	-166.755	-0.020589	0.561701	-0.529735	-0.531044	0.022644	20.3339	-0.530570	-9.13033e+06	-2.480040E-9	NaN
694	1.000000	0.573044	7.37184e+06	-42389.1	1005.82	-29782.8	0.000000	0.000000	6.572981	0.025544	NaN	0.000000	0.001755	0.001746	28.0811	0.106411	0.002008	53.0056	163.52	12.5812	0.007340	0.571685	-0.519701	-0.521061	0.025544	53.0056	-0.520063	-6.52337e+06	-3.915739E-9	NaN
694	1.000000	0.583049	7.37184e+06	-42389.1	1005.82	-29782.8	0.000000	0.000000	6.582982	-0.060954	NaN	0.000000	0.001769	0.001705	28.0808	0.056633	0.002081	27.2139	-96.4234	-165.139	-0.105927	0.581721	-0.509696	-0.511025	-0.060954	27.2139	-0.508016	-4.43383e+06	1.374737E-8	NaN
694	1.000000	0.593045	7.37184e+06	-42389.1	1005.82	-29782.8	0.000000	0.000000	6.592979	-0.044588	NaN	0.000000	0.001770	0.001744	28.081	0.075451	0.002077	36.3297	67.1365	10.7646	0.073506	0.591679	-0.499700	-0.501067	-0.044588	36.3297	-0.498780	-3.29605e+06	1.352758E-8	NaN
694	1.000000	0.603047	7.37184e+06	-42389.1	1005.82	-29782.8	0.000000	0.000000	6.602981	-0.036399	NaN	0.000000	0.001735	0.001719	28.0808	0.089083	0.002052	43.4174	-47.8394	-168.989	-0.077391	0.601748	-0.489698	-0.490997	-0.036399	43.4174	-0.489069	-2.41205e+06	1.509036E-8	NaN
694	1.000000	0.613084	7.37184e+06	-42389.1	1005.82	-29782.8	0.000000	0.000000	6.613017	-0.063117	NaN	0.000000	0.001735	0.001735	28.0812	0.074465	0.001913	38.9359	-20.6127	17.226	-0.089575	0.611701	-0.479661	-0.481044	-0.063117	38.9359	-0.478445	-1.713e+06	3.684585E-8	NaN
694	1.000000	0.623050	7.37184e+06	-42389.1	1005.82	-29782.8	0.000000	0.000000	6.622980	-0.128460	NaN	0.000000	0.001745	0.001736	28.0818	0.060457	0.001928	31.3561	152.958	-163.398	-0.091462	0.621738	-0.469695	-0.471008	-0.128460	31.3561	-0.466623	-1.16957e+06	1.098348E-7	NaN
694	1.000000	0.633100	7.37184e+06	-42389.1	1005.82	-29782.8	0.000000	0.000000	6.633032	-0.078692	NaN	0.000000	0.001726	0.001762	28.0823	0.063228	0.001964	32.1883	0.471466	16.403	-0.017740	0.631770	-0.459645	-0.460975	-0.078692	32.1883	-0.457812	-879551	8.946827E-8	NaN
694	1.000000	0.643065	7.37184e+06	-42389.1	1005.82	-29782.8	0.000000	0.000000	6.642996	-0.098326	NaN	0.000000	0.001736	0.001745	28.0819	0.030215	0.001941	15.5625	-90.6254	-164.903	-0.094956	0.641840	-0.449681	-0.450906	-0.098326	15.5625	-0.444942	-579532	1.696640E-7	NaN
694	1.000000	0.653062	7.37184e+06	-42389.1	1005.82	-29782.8	0.000000	0.000000	6.652993	-0.090863	NaN	0.000000	0.001736	0.001748	28.0822	0.083983	0.002093	40.1319	165.258	14.5169	-0.063653	0.651749	-0.439684	-0.440997	-0.090863	40.1319	-0.437986	-462305	1.965434E-7	NaN
694	1.000000	0.663085	7.37184e+06	-42389.1	1005.82	-29782.8	0.000000	0.000000	6.663019	-0.033450	NaN	0.000000	0.001792	0.001732	28.0823	0.045188	0.001997	22.6306	-12.4204	-164.098	-0.019911	0.661793	-0.429660	-0.430952	-0.033450	22.6306	-0.428552	-340071	9.836059E-8	NaN
694	1.000000	0.673096	7.37184e+06	-42389.1	1005.82	-29782.8	0.000000	0.000000	6.673029	-0.059130	NaN	0.000000	0.001834	0.001726	28.0822	0.031334	0.001987	15.7709	-148.456	15.6333	-0.086844	0.671704	-0.419650	-0.421041	-0.059130	15.7709	-0.416838	-232031	2.548370E-7	NaN
694	1.000000	0.683085	7.37184e+06	-42389.1	1005.82	-29782.8	0.000000	0.000000	6.683017	-0.090164	NaN	0.000000	0.001757	0.001767	28.082	0.112732	0.001995	56.5087	157.882	-163.138	-0.058011	0.681744	-0.409660	-0.411001	-0.090164	56.5087	-0.408463	-176418	5.110831E-7	NaN
694	1.000000	0.693081	7.37184e+06	-42389.1	1005.82	-29782.8	0.000000	0.000000	6.693011	-0.115611	NaN	0.000000	0.001772	0.001718	28.0824	0.061666	0.002011	30.6673	59.3231	11.9589	-0.112416	0.691692	-0.399665	-0.401054	-0.115611	30.6673	-0.396837	-120468	9.596844E-7	NaN
694	1.000000	0.703110	7.37184e+06	-42389.1	1005.82	-29782.8	0.000000	0.000000	6.703044	-0.045735	NaN	0.000000	0.001798	0.001761	28.0821	0.076450	0.001846	41.4137	128.25	-167.026	-0.002475	0.701823	-0.389635	-0.390922	-0.045735	41.4137	-0.388807	-92491	4.944754E-7	NaN
694	1.000000	0.713090	7.37184e+06	-42389.1	1005.82	-29782.8	0.000000	0.000000	6.713025	0.003922	NaN	0.000000	0.001763	0.001718	28.0824	0.069437	0.001868	37.1803	-95.9295	15.2374	-0.027777	0.711706	-0.379656	-0.381039	0.003922	37.1803	-0.379735	-68562.2	-5.719920E-8	NaN
694	1.000000	0.723095	7.37184e+06	-42389.1	1005.82	-29782.8	0.000000	0.000000	6.723029	-0.043794	NaN	0.000000	0.001731	0.001760	28.0821	0.024624	0.002024	12.1638	-41.0941	-167.201	-0.075886	0.721778	-0.369650	-0.370967	-0.043794	12.1638	-0.366950	-44893	9.755211E-7	NaN
694	1.000000	0.733106	7.37184e+06	-42389.1	1005.82	-29782.8	0.000000	0.000000	6.733039	-0.050527	NaN	0.000000	0.001711	0.001735	28.0821	0.054703	0.002045	26.7464	-174.265	14.9152	-0.029030	0.731708	-0.359639	-0.361037	-0.050527	26.7464	-0.358223	-33584.9	1.504446E-6	NaN
694	1.000000	0.743122	7.37184e+06	-42389.1	1005.82	-29782.8	0.000000	0.000000	6.743054	-0.084262	NaN	0.000000	0.001687	0.001752	28.0819	0.055942	0.002129	26.2819	-74.7399	-163.674	-0.056878	0.741801	-0.349624	-0.350944	-0.084262	26.2819	-0.347219	-23260.5	3.622529E-6	NaN
694	1.000000	0.753100	7.37184e+06	-42389.1	1005.82	-29782.8	0.000000	0.000000	6.753033	-0.051517	NaN	0.000000	0.001728	0.001682	28.0821	0.056744	0.001937	29.2886	-110.723	13.2814	0.002266	0.751802	-0.339646	-0.340943	-0.051517	29.2886	-0.338327	-17264.5	2.984002E-6	NaN
694	1.000000	0.763133	7.37184e+06	-42389.1	1005.82	-29782.8	0.000000	0.000000	6.763068	-0.032186	NaN	0.000000	0.001712	0.001686	28.0812	0.112152	0.001970	56.9233	84.882	-162.866	-0.059065	0.761827	-0.329612	-0.330918	-0.032186	56.9233	-0.329188	-12692.8	2.535806E-6	NaN
694	1.000000	0.773105	7.37184e+06	-42389.1	1005.82	-29782.8	0.000000	0.000000	6.773043	0.065066	NaN	0.000000	0.001711	0.001710	28.0811	0.136798	0.001891	72.3543	-169.835	14.8339	0.003437	0.771772	-0.319640	-0.320974	0.065066	72.3543	-0.320315	-9403.05	-6.919617E-6	NaN
694	1.000000	0.783124	7.37184e+06	-42389.1	1005.82	-29782.8	0.000000	0.000000	6.783059	-0.018404	NaN	0.000000	0.001677	0.001675	28.0812	0.024927	0.002114	11.7893	88.8261	-165.934	-0.158722	0.781854	-0.309621	-0.310892	-0.018404	11.7893	-0.308450	-6282.23	2.929564E-6	NaN
694	1.000000	0.793123	7.37184e+06	-42389.1	1005.82	-29782.8	0.000000	0.000000	6.793059	-0.004340	NaN	0.000000	0.001742	0.001722	28.0813	0.056131	0.002005	27.9929	17.4118	15.2661	0.005299	0.791804	-0.299622	-0.300942	-0.004340	27.9929	-0.299506	-4626.76	9.380912E-7	NaN
694	1.000000	0.803094	7.37184e+06	-42389.1	1005.82	-29782.8	0.000000	0.000000	6.803028	-0.034702	NaN	0.000000	0.001720	0.001733	28.0815	0.138251	0.001897	72.8978	151.623	-165.055	-0.073869	0.801854	-0.289651	-0.290892	-0.034702	72.8978	-0.289294	-3256.33	1.065675E-5	NaN
694	1.000000	0.813126	7.37184e+06	-42389.1	1005.82	-29782.8	0.000000	0.000000	6.813062	-0.003418	NaN	0.000000	0.001716	0.001723	28.0813	0.069083	0.002025	34.1216	-172.086	9.993081	-0.096168	0.811765	-0.279619	-0.280980	-0.003418	34.1216	-0.279544	-2323.22	1.471327E-6	NaN
694	1.000000	0.823135	7.37184e+06	-42389.1	1005.82	-29782.8	0.000000	0.000000	6.823068	-0.071747	NaN	0.000000	0.001717	0.001746	28.0813	0.024341	0.002012	12.0974	67.9024	-166.956	0.017674	0.821830	-0.269610	-0.270916	-0.071747	12.0974	-0.265162	-1405.61	5.104341E-5	NaN
694	1.000000	0.833129	7.37184e+06	-42389.1	1005.82	-29782.8	0.000000	0.000000	6.833062	-0.074730	NaN	0.000000	0.001692	0.001716	28.0812	0.068218	0.002082	32.7589	-169.415	13.1188	-0.015593	0.831767	-0.259616	-0.260978	-0.074730	32.7589	-0.257905	-1088.38	6.866111E-5	NaN
694	1.000000	0.843128	7.37184e+06	-42389.1	1005.82	-29782.8	0.000000	0.000000	6.843063	-0.002101	NaN	0.000000	0.001731	0.001745	28.0812	0.078336	0.001938	40.431	20.523	-165.543	0.030441	0.841821	-0.249618	-0.250924	-0.002101	40.431	-0.249579	-809.939	2.594311E-6	NaN
694	1.000000	0.853179	7.37184e+06	-42389.1	1005.82	-29782.8	0.000000	0.000000	6.853112	-0.067268	NaN	0.000000	0.001699	0.001734	28.081	0.118265	0.001973	59.9537	-163.327	14.9304	-0.108249	0.851796	-0.239567	-0.240949	-0.067268	59.9537	-0.238725	-549.069	0.000123	NaN
694	1.000000	0.863155	7.37184e+06	-42389.1	1005.82	-29782.8	0.000000	0.000000	6.863092	0.046970	NaN	0.000000	0.001698	0.001761	28.0811	0.062677	0.001966	31.876	-17.7223	-166.605	-0.027659	0.861850	-0.229591	-0.230896	0.046970	31.876	-0.230696	-410.679	-0.000114	NaN
694	1.000000	0.873139	7.37184e+06	-42389.1	1005.82	-29782.8	0.000000	0.000000	6.873076	0.021315	NaN	0.000000	0.001735	0.001747	28.0812	0.019388	0.001924	10.0773	133.006	13.7531	0.051244	0.871810	-0.219606	-0.220936	0.021315	10.0773	-0.221193	-290.216	-7.344406E-5	NaN
694	1.000000	0.883135	7.37184e+06	-42389.1	1005.82	-29782.8	0.000000	0.000000	6.883070	-0.017695	NaN	0.000000	0.001761	0.001735	28.0809	0.078594	0.001995	39.389	178.739	-165.627	0.005890	0.881848	-0.209610	-0.210898	-0.017695	39.389	-0.209273	-186.657	9.479853E-5	NaN
694	1.000000	0.893185	7.37184e+06	-42389.1	1005.82	-29782.8	0.000000	0.000000	6.893119	-0.028027	NaN	0.000000	0.001769	0.001719	28.081	0.134679	0.002087	64.5254	125.228	14.5652	-0.083095	0.891804	-0.199560	-0.200941	-0.028027	64.5254	-0.199235	-127.972	0.000219	NaN
694	1.000000	0.903151	7.37184e+06	-42389.1	1005.82	-29782.8	0.000000	0.000000	6.903080	-0.157734	NaN	0.000000	0.001758	0.001703	28.0822	0.094950	0.001951	48.6598	93.1676	-164.847	-0.132538	0.901830	-0.189594	-0.190915	-0.157734	48.6598	-0.187163	-80.6335	0.001956	NaN
694	1.000000	0.913165	7.37184e+06	-42389.1	1005.82	-29782.8	0.000000	0.000000	6.913098	-0.058618	NaN	0.000000	0.001750	0.001731	28.0824	0.043188	0.002007	21.5194	9.399813	10.4154	-0.012452	0.911804	-0.179580	-0.180941	-0.058618	21.5194	-0.177537	-55.3945	0.001058	NaN
694	1.000000	0.923175	7.37184e+06	-42389.1	1005.82	-29782.8	0.000000	0.000000	6.923109	-0.049172	NaN	0.000000	0.001709	0.001726	28.0823	0.017581	0.001986	8.854627	136.081	-168.05	-0.145872	0.921850	-0.169570	-0.170895	-0.049172	8.854627	-0.165405	-34.1521	0.001440	NaN
694	1.000000	0.933177	7.37184e+06	-42389.1	1005.82	-29782.8	0.000000	0.000000	6.933111	-0.040638	NaN	0.000000	0.001718	0.001712	28.0821	0.018522	0.002010	9.215986	108.07	15.7741	-0.080934	0.931777	-0.159568	-0.160969	-0.040638	9.215986	-0.156261	-23.5091	0.001729	NaN
694	1.000000	0.943193	7.37184e+06	-42389.1	1005.82	-29782.8	0.000000	0.000000	6.943130	0.031567	NaN	0.000000	0.001760	0.001706	28.0827	0.066185	0.001880	35.213	-159.444	-162.775	0.028304	0.941858	-0.149552	-0.150887	0.031567	35.213	-0.150225	-18.2853	-0.001726	NaN
694	1.000000	0.953202	7.37184e+06	-42389.1	1005.82	-29782.8	0.000000	0.000000	6.953138	0.020463	NaN	0.000000	0.001683	0.001712	28.0822	0.065826	0.002065	31.8718	64.6908	13.6638	-0.025158	0.951830	-0.139544	-0.140915	0.020463	31.8718	-0.140025	-11.8425	-0.001728	NaN
694	1.000000	0.963190	7.37184e+06	-42389.1	1005.82	-29782.8	0.000000	0.000000	6.963125	-0.015103	NaN	0.000000	0.001713	0.001731	28.0823	0.039355	0.002078	18.9408	124.794	-163.668	-0.067816	0.961930	-0.129555	-0.130816	-0.015103	18.9408	-0.128957	-7.273016	0.002077	NaN
694	1.000000	0.973212	7.37184e+06	-42389.1	1005.82	-29782.8	0.000000	0.000000	6.973144	-0.095305	NaN	0.000000	0.001648	0.001784	28.0823	0.011366	0.001990	5.710417	95.3918	14.6291	-0.078675	0.971807	-0.119533	-0.120938	-0.095305	5.710417	-0.107016	-2.597189	0.036695	NaN
694	1.000000	0.983190	7.37184e+06	-42389.1	1005.82	-29782.8	0.000000	0.000000	6.983122	-0.088487	NaN	0.000000	0.001698	0.001743	28.0823	0.112577	0.002026	55.5678	-138.331	-166.249	-0.113925	0.981889	-0.109555	-0.110856	-0.088487	55.5678	-0.108361	-2.774439	0.031894	NaN
694	1.000000	0.993230	7.37184e+06	-42389.1	1005.82	-29782.8	0.000000	0.000000	6.993166	-0.006756	NaN	0.000000	0.001723	0.001755	28.0825	0.017625	0.001852	9.514195	39.8289	12.2498	0.025767	0.991846	-0.099515	-0.100900	-0.006756	9.514195	-0.098982	-1.734430	0.003895	NaN
694	1.000000	1.003211	7.37184e+06	-42389.1	1005.82	-29782.8	0.000000	0.000000	7.003148	0.035072	NaN	0.000000	0.001687	0.001692	28.0822	0.111882	0.002053	54.4972	-58.0097	-167.372	0.028286	1.001899	-0.089535	-0.090847	0.035072	54.4972	-0.090017	-1.081989	-0.032414	NaN
694	1.000000	1.013191	7.37184e+06	-42389.1	1005.82	-29782.8	0.000000	0.000000	7.013125	-0.030104	NaN	0.000000	0.001673	0.001719	28.0824	0.039642	0.002104	18.8424	-36.5978	11.7592	-0.054019	1.011855	-0.079554	-0.080891	-0.030104	18.8424	-0.078356	-0.562795	0.053490	NaN
694	1.000000	1.023200	7.37184e+06	-42389.1	1005.82	-29782.8	0.000000	0.000000	7.023134	-0.022507	NaN	0.000000	0.001731	0.001728	28.0823	0.122571	0.002047	59.8902	-161.8	-165.063	-0.091667	1.021909	-0.069546	-0.070837	-0.022507	59.8902	-0.069264	-0.325924	0.069058	NaN
694	1.000000	1.033198	7.37184e+06	-42389.1	1005.82	-29782.8	0.000000	0.000000	7.033132	-0.041844	NaN	0.000000	0.001726	0.001744	28.0812	0.060291	0.001942	31.0438	177.035	13.9181	0.020228	1.031846	-0.059547	-0.060900	-0.041844	31.0438	-0.058536	-0.163423	0.256047	NaN
694	1.000000	1.043219	7.37184e+06	-42389.1	1005.82	-29782.8	0.000000	0.000000	7.043155	0.022738	NaN	0.000000	0.001734	0.001771	28.0809	0.083497	0.002043	40.8715	-175.702	-166.008	0.099870	1.041914	-0.049527	-0.050832	0.022738	40.8715	-0.049944	-0.090894	-0.250161	NaN
694	1.000000	1.053240	7.37184e+06	-42389.1	1005.82	-29782.8	0.000000	0.000000	7.053173	-0.063943	NaN	0.000000	0.001716	0.001737	28.0809	0.090019	0.001945	46.2883	-12.1295	12.1354	0.003462	1.051858	-0.039505	-0.040888	-0.063943	46.2883	-0.038469	-0.040645	1.573201	NaN
694	1.000000	1.063237	7.37184e+06	-42389.1	1005.82	-29782.8	0.000000	0.000000	7.063167	-0.129241	NaN	0.000000	0.001758	0.001723	28.081	0.033545	0.002101	15.9663	4.154422	-164.294	-0.095515	1.061923	-0.029509	-0.030823	-0.129241	15.9663	-0.023438	-0.015369	8.409294	NaN
694	1.000000	1.073227	7.37184e+06	-42389.1	1005.82	-29782.8	0.000000	0.000000	7.073158	-0.116051	NaN	0.000000	0.001716	0.001765	28.0809	0.123706	0.002057	60.1331	-123.638	16.2078	-0.148642	1.071919	-0.019519	-0.020827	-0.116051	60.1331	-0.018071	-0.011210	10.3524	NaN
694	1.000000	1.083261	7.37184e+06	-42389.1	1005.82	-29782.8	0.000000	0.000000	7.083194	-0.072779	NaN	0.000000	0.001684	0.001755	28.081	0.072656	0.001966	36.9588	-152.846	-165.536	-0.044999	1.081923	-0.009484	-0.010823	-0.072779	36.9588	-0.008007	-0.005236	13.9	NaN
694	1.000000	1.093233	7.37184e+06	-42389.1	1005.82	-29782.8	0.000000	0.000000	7.093186	0.416041	NaN	0.000000	0.001607	0.001758	28.0811	0.842268	0.001920	438.685	8.117823	15.7043	0.071604	1.091862	0.000488	-0.000884	0.416041	438.685	-0.000223	-0.000166	-2502.6	NaN
694	2.000000	1.101751	7.37184e+06	-42389.1	1005.82	-29782.8	0.000000	0.000000	7.102041	8.633769	NaN	0.000000	0.001605	0.001714	28.081	8.831769	0.001651	5348.79	6.562036	-170.477	8.818851	1.101398	0.009006	0.008652	8.633769	5348.79	0.007795	0.006832	1263.66	59121.2
694	2.000000	1.104207	7.37184e+06	-42389.1	1005.82	-29782.8	0.000000	0.000000	7.104645	12.2316	NaN	0.000000	0.001616	0.001734	28.0826	12.094	0.001795	6737.83	10.0946	3.470985	11.7789	1.103876	0.011462	0.011130	12.2316	6737.83	0.010100	0.009293	1316.2	63857.7
694	2.000000	1.106680	7.37184e+06	-42389.1	1005.82	-29782.8	0.000000	0.000000	7.107384	18.698	NaN	0.000000	0.001609	0.001737	28.0812	15.404	0.001737	8866.58	6.357543	-176.244	18.344	1.106345	0.013934	0.013600	18.698	8866.58	0.012353	0.011915	1569.24	74212.4
694	2.000000	1.109227	7.37184e+06	-42389.1	1005.82	-29782.8	0.000000	0.000000	7.110116	23.2194	NaN	0.000000	0.001625	0.001760	28.0819	17.4011	0.001655	10515.6	7.676861	1.692032	22.6192	1.108839	0.016481	0.016094	23.2194	10515.6	0.014825	0.015053	1542.52	78306.2
694	2.000000	1.111683	7.37184e+06	-42389.1	1005.82	-29782.8	0.000000	0.000000	7.112766	27.8976	NaN	0.000000	0.001630	0.001778	28.081	19.897	0.001738	11449.5	9.005136	-178.649	28.3321	1.111314	0.018938	0.018569	27.8976	11449.5	0.017111	0.018204	1532.52	77531.9
694	2.000000	1.114142	7.37184e+06	-42389.1	1005.82	-29782.8	0.000000	0.000000	7.115374	31.5369	NaN	0.000000	0.001595	0.001790	28.0821	22.7161	0.001641	13840.8	6.534643	-0.722341	30.4184	1.113864	0.021397	0.021119	31.5369	13840.8	0.019688	0.022054	1429.97	85150.8
694	2.000000	1.116624	7.37184e+06	-42389.1	1005.82	-29782.8	0.000000	0.000000	7.118145	38.5812	NaN	0.000000	0.001656	0.001753	28.0808	26.3276	0.001818	14478	7.387810	178.636	37.8424	1.116432	0.023878	0.023686	38.5812	14478	0.021880	0.025582	1508.12	82701.5
694	2.000000	1.119125	7.37184e+06	-42389.1	1005.82	-29782.8	0.000000	0.000000	7.121092	49.4384	NaN	0.000000	0.001615	0.001730	28.0829	27.9568	0.001789	15628.8	5.362491	1.015704	47.2566	1.118740	0.026380	0.025995	49.4384	15628.8	0.024007	0.029234	1691.12	83513
694	2.000000	1.121654	7.37184e+06	-42389.1	1005.82	-29782.8	0.000000	0.000000	7.123867	55.4149	NaN	0.000000	0.001643	0.001760	28.0822	31.2863	0.001958	15982.5	9.500843	177.139	57.2101	1.121351	0.028909	0.028605	55.4149	15982.5	0.026309	0.033439	1657.18	79852.8
694	2.000000	1.124168	7.37184e+06	-42389.1	1005.82	-29782.8	0.000000	0.000000	7.126705	63.3003	NaN	0.000000	0.001655	0.001707	28.0827	32.94	0.001873	17590.9	2.192610	2.469995	62.7859	1.123794	0.031423	0.031049	63.3003	17590.9	0.028724	0.038140	1659.69	82294.5
694	2.000000	1.126705	7.37184e+06	-42389.1	1005.82	-29782.8	0.000000	0.000000	7.129574	71.3784	NaN	0.000000	0.001637	0.001738	28.0822	35.9582	0.001866	19267.1	5.557019	178.888	74.2412	1.126378	0.033960	0.033633	71.3784	19267.1	0.031181	0.043227	1651.24	84666.6
694	2.000000	1.129179	7.37184e+06	-42389.1	1005.82	-29782.8	0.000000	0.000000	7.132476	81.7883	NaN	0.000000	0.001603	0.001764	28.0821	38.0051	0.001901	19996.2	7.477377	-2.977227	82.0001	1.128749	0.036433	0.036004	81.7883	19996.2	0.033366	0.048009	1703.6	83379.5
694	2.000000	1.131637	7.37184e+06	-42389.1	1005.82	-29782.8	0.000000	0.000000	7.135346	91.8352	NaN	0.000000	0.001670	0.001706	28.0821	40.4964	0.001804	22445.5	5.187416	177.255	91.3486	1.131271	0.038891	0.038525	91.8352	22445.5	0.035823	0.053679	1710.83	88512
694	2.000000	1.134086	7.37184e+06	-42389.1	1005.82	-29782.8	0.000000	0.000000	7.138313	104.419	NaN	0.000000	0.001685	0.001681	28.0827	42.4874	0.001708	24872.5	3.648533	-2.380856	102.119	1.133692	0.041340	0.040947	104.419	24872.5	0.038192	0.059438	1756.77	93209.5
694	2.000000	1.136589	7.37184e+06	-42389.1	1005.82	-29782.8	0.000000	0.000000	7.141292	116.009	NaN	0.000000	0.001661	0.001669	28.0821	46.0301	0.001813	25393.5	6.195207	175.735	115.763	1.136282	0.043844	0.043536	116.009	25393.5	0.040417	0.065111	1781.71	90921.8
694	2.000000	1.139157	7.37184e+06	-42389.1	1005.82	-29782.8	0.000000	0.000000	7.144360	128.157	NaN	0.000000	0.001626	0.001714	28.0823	48.2959	0.001798	26858.9	7.250232	-5.148499	129.549	1.138732	0.046412	0.045986	128.157	26858.9	0.042833	0.071555	1791.02	91736.2
694	2.000000	1.141619	7.37184e+06	-42389.1	1005.82	-29782.8	0.000000	0.000000	7.147201	137.382	NaN	0.000000	0.001656	0.001722	28.0824	50.4506	0.001796	28095.7	6.842974	173.657	137.087	1.141254	0.048873	0.048509	137.382	28095.7	0.045206	0.078173	1757.4	91808.9
694	2.000000	1.144060	7.37184e+06	-42389.1	1005.82	-29782.8	0.000000	0.000000	7.150280	152.907	NaN	0.000000	0.001630	0.001749	28.0827	51.868	0.001805	28736.2	5.323828	-5.521516	150.744	1.143761	0.051315	0.051015	152.907	28736.2	0.047324	0.084321	1813.39	90413.6
694	2.000000	1.146585	7.37184e+06	-42389.1	1005.82	-29782.8	0.000000	0.000000	7.153279	164.42	NaN	0.000000	0.001625	0.001717	28.0821	54.8803	0.001868	29371.9	6.680944	173.918	164.117	1.146297	0.053840	0.053552	164.42	29371.9	0.049642	0.091309	1800.71	88807.4
694	2.000000	1.149125	7.37184e+06	-42389.1	1005.82	-29782.8	0.000000	0.000000	7.156350	177.346	NaN	0.000000	0.001608	0.001706	28.0823	55.7205	0.001705	32671.6	2.168982	-2.517716	176.265	1.148774	0.056380	0.056029	177.346	32671.6	0.052309	0.099683	1779.1	94543.6
694	2.000000	1.151641	7.37184e+06	-42389.1	1005.82	-29782.8	0.000000	0.000000	7.159344	189.006	NaN	0.000000	0.001621	0.001723	28.0822	59.2808	0.001794	33051.9	6.847708	173.201	190.63	1.151222	0.058895	0.058477	189.006	33051.9	0.054606	0.107181	1763.43	92238.2
694	2.000000	1.153994	7.37184e+06	-42389.1	1005.82	-29782.8	0.000000	0.000000	7.162271	202.95	NaN	0.000000	0.001600	0.001694	28.0813	62.0948	0.001810	34302	5.942461	-6.948237	195.541	1.153651	0.061248	0.060906	202.95	34302	0.056811	0.114622	1770.6	92567.6
694	2.000000	1.156506	7.37184e+06	-42389.1	1005.82	-29782.8	0.000000	0.000000	7.165344	216.598	NaN	0.000000	0.001643	0.001678	28.0807	64.4033	0.001789	35998.1	3.794746	174.819	213.296	1.156314	0.063761	0.063568	216.598	35998.1	0.059248	0.123126	1759.16	93730.1
694	2.000000	1.159060	7.37184e+06	-42389.1	1005.82	-29782.8	0.000000	0.000000	7.168660	235.126	NaN	0.000000	0.001608	0.001724	28.0812	66.6612	0.001909	34910.6	5.640257	-5.991381	230.923	1.158702	0.066315	0.065957	235.126	34910.6	0.061264	0.130379	1803.4	88333.8
694	2.000000	1.161664	7.37184e+06	-42389.1	1005.82	-29782.8	0.000000	0.000000	7.171884	250.245	NaN	0.000000	0.001596	0.001689	28.0811	70.4607	0.001872	37632.6	11.0656	167.602	255.452	1.161204	0.068918	0.068459	250.245	37632.6	0.063931	0.140281	1783.88	91798.8
694	2.000000	1.164073	7.37184e+06	-42389.1	1005.82	-29782.8	0.000000	0.000000	7.174895	264.88	NaN	0.000000	0.001581	0.001746	28.081	70.8014	0.001819	38927.7	0.882752	-2.955926	261.375	1.163799	0.071328	0.071054	264.88	38927.7	0.066225	0.149070	1776.88	92116.3
694	2.000000	1.166518	7.37184e+06	-42389.1	1005.82	-29782.8	0.000000	0.000000	7.178058	282.354	NaN	0.000000	0.001578	0.001723	28.0807	73.7909	0.001767	41768	3.822503	173.506	277.981	1.166328	0.073773	0.073583	282.354	41768	0.068703	0.158850	1777.49	95746.6
694	2.000000	1.168988	7.37184e+06	-42389.1	1005.82	-29782.8	0.000000	0.000000	7.181428	304.25	NaN	0.000000	0.001610	0.001717	28.081	74.6922	0.001788	41765.2	6.122405	-8.111837	297.471	1.168726	0.076242	0.075981	304.25	41765.2	0.070779	0.167271	1818.91	93299.1
694	2.000000	1.171618	7.37184e+06	-42389.1	1005.82	-29782.8	0.000000	0.000000	7.184329	310.851	NaN	0.000000	0.001602	0.001708	28.0811	77.6365	0.001745	44495.9	3.691926	173.212	310.349	1.171338	0.078872	0.078592	310.851	44495.9	0.073633	0.179179	1734.87	96039.4
694	2.000000	1.173978	7.37184e+06	-42389.1	1005.82	-29782.8	0.000000	0.000000	7.187629	333.72	NaN	0.000000	0.001615	0.001699	28.081	80.7816	0.001741	46411.7	7.217445	-10.5924	326.438	1.173579	0.081232	0.080833	333.72	46411.7	0.075840	0.188651	1768.99	97627.4
694	2.000000	1.176464	7.37184e+06	-42389.1	1005.82	-29782.8	0.000000	0.000000	7.190424	341.209	NaN	0.000000	0.001626	0.001731	28.0808	84.0105	0.001779	47222	5.382171	171.008	336.619	1.176339	0.083719	0.083593	341.209	47222	0.078300	0.199480	1710.49	96598.1
694	2.000000	1.179108	7.37184e+06	-42389.1	1005.82	-29782.8	0.000000	0.000000	7.193933	362.276	NaN	0.000000	0.001630	0.001713	28.0808	85.1687	0.001815	46925.2	1.844529	-4.950893	361.727	1.178815	0.086363	0.086069	362.276	46925.2	0.080573	0.209735	1727.3	93614.6
694	2.000000	1.181552	7.37184e+06	-42389.1	1005.82	-29782.8	0.000000	0.000000	7.197186	381.949	NaN	0.000000	0.001638	0.001729	28.0811	87.5147	0.001781	49124.5	4.098185	171.932	381.983	1.181241	0.088807	0.088496	381.949	49124.5	0.082975	0.220839	1729.54	95506.7
694	2.000000	1.184036	7.37184e+06	-42389.1	1005.82	-29782.8	0.000000	0.000000	7.200400	399.73	NaN	0.000000	0.001614	0.001749	28.0806	91.0491	0.001891	48159.7	8.639914	-12.5515	395.93	1.183751	0.091290	0.091005	399.73	48159.7	0.085065	0.230714	1732.58	91605.3
694	2.000000	1.186544	7.37184e+06	-42389.1	1005.82	-29782.8	0.000000	0.000000	7.203749	420.165	NaN	0.000000	0.001669	0.001743	28.0819	91.2064	0.001759	51854.6	2.764158	173.328	417.836	1.186239	0.093799	0.093494	420.165	51854.6	0.087722	0.243557	1725.12	95997.6
694	2.000000	1.188968	7.37185e+06	-42389.1	1005.82	-29782.8	0.000000	0.000000	7.206755	434.333	NaN	0.000000	0.001672	0.001726	28.082	93.6949	0.001836	51040.4	4.900392	-8.291525	426.27	1.188729	0.096223	0.095983	434.333	51040.4	0.089841	0.254034	1709.75	92521.2
694	2.000000	1.191469	7.37185e+06	-42389.1	1005.82	-29782.8	0.000000	0.000000	7.210303	459.815	NaN	0.000000	0.001687	0.001745	28.082	96.507	0.001785	54078.7	6.659621	169.188	455.881	1.191170	0.098724	0.098424	459.815	54078.7	0.092347	0.266690	1724.16	95674.4
694	2.000000	1.193908	7.37185e+06	-42389.1	1005.82	-29782.8	0.000000	0.000000	7.213616	481.08	NaN	0.000000	0.001672	0.001759	28.0818	98.9452	0.001856	53307.7	4.685323	-8.428144	471.279	1.193530	0.101163	0.100785	481.08	53307.7	0.094395	0.277246	1735.21	92497.5
694	2.000000	1.196428	7.37185e+06	-42389.1	1005.82	-29782.8	0.000000	0.000000	7.217067	503.749	NaN	0.000000	0.001664	0.001746	28.0818	101.817	0.001854	54917.6	4.433091	171.403	498.318	1.196158	0.103682	0.103412	503.749	54917.6	0.096803	0.289905	1737.64	93187.4
694	2.000000	1.199065	7.37185e+06	-42389.1	1005.82	-29782.8	0.000000	0.000000	7.220513	523.421	NaN	0.000000	0.001664	0.001729	28.082	103.732	0.001848	56116.8	5.917085	-10.123	521.795	1.198728	0.106320	0.105983	523.421	56116.8	0.099324	0.303443	1724.94	93073.8
694	2.000000	1.199546	7.37185e+06	-42389.1	1005.82	-29782.8	0.000000	0.000000	7.221126	526.636	NaN	0.000000	0.001658	0.001743	28.0819	105.222	0.001859	56598.3	3.846347	171.879	525.343	1.199243	0.106800	0.106498	526.636	56598.3	0.099822	0.306146	1720.21	93457