File: remote_trans/data/nanoindenter/0828-1/data/Data_2025-08-06,11h17m57s/2025-07-22_16-23-58_1_42.txt
2025-07-22, 16:23:58, 1
Index	Phase	Displacement	Time	Pos X	Pos Y	Pos Z	Rot A	Rot B	Piezo Z	Force A	Force B	Gripper	Voltage A	Voltage B	Temperature	Amplitude force	Amplitude pos	Stiffness	Phase shift	Phase excitation	Force A raw	Displacement raw	HMax	HMax raw	Real Force	Real Stiffness	Contact Depth	Area	Hardness	Reduced Mod.
[#]	[#]	[um]	[s]	[um]	[um]	[um]	[m°]	[m°]	[um]	[uN]	[uN]	[V]	[V]	[V]	[°C]	[uN]	[um]	[N/m]	[°]	[°]	[uN]	[um]	[um]	[um]	[uN]	[N/m]	[um]	[um^2]	[MPa]	[MPa]
42	1.000000	0.002464	7.36545e+06	-40739.1	955.819	-29789.4	0.000000	0.000000	6.002789	-0.015282	NaN	0.000000	0.001616	0.001789	28.082	0.057115	0.000843	67.7616	-17.2849	-163.079	-0.034859	0.001223	-1.118797	-1.120038	-0.015282	67.7616	-1.118628	-8.913707E+14	1.714469E-17	NaN
42	1.000000	0.012562	7.36545e+06	-40739.1	955.819	-29789.4	0.000000	0.000000	6.012889	0.035738	NaN	0.000000	0.001687	0.001756	28.1148	0.098449	0.001311	75.1235	-144.901	16.977	0.013192	0.011127	-1.108699	-1.110133	0.035738	75.1235	-1.109056	-6.631520E+14	-5.389067E-17	NaN
42	1.000000	0.022430	7.36545e+06	-40739.1	955.819	-29789.4	0.000000	0.000000	6.022755	-0.018586	NaN	0.000000	0.001609	0.001760	28.1258	0.041545	0.001835	22.6439	149.674	-164.173	-0.002049	0.021098	-1.098831	-1.100162	-0.018586	22.6439	-1.098215	-4.743602E+14	3.918021E-17	NaN
42	1.000000	0.032431	7.36545e+06	-40739.1	955.818	-29789.4	0.000000	0.000000	6.032755	-0.047090	NaN	0.000000	0.001595	0.001769	28.0876	0.041539	0.001949	21.3109	39.9128	13.7738	-0.074169	0.031125	-1.088829	-1.090136	-0.047090	21.3109	-1.087172	-3.371599E+14	1.396673E-16	NaN
42	1.000000	0.042402	7.36545e+06	-40739.1	955.82	-29789.4	0.000000	0.000000	6.042725	-0.069785	NaN	0.000000	0.001645	0.001765	28.0842	0.136834	0.001980	69.1007	58.1403	-165.63	-0.041859	0.041115	-1.078858	-1.080146	-0.069785	69.1007	-1.078101	-2.546905E+14	2.739974E-16	NaN
42	1.000000	0.052429	7.36545e+06	-40739.1	955.819	-29789.4	0.000000	0.000000	6.052753	-0.063219	NaN	0.000000	0.001608	0.001784	28.1157	0.075661	0.001979	38.2407	-178.471	16.8282	0.034340	0.051076	-1.068831	-1.070184	-0.063219	38.2407	-1.067591	-1.840031E+14	3.435735E-16	NaN
42	1.000000	0.062425	7.36545e+06	-40739.1	955.819	-29789.4	0.000000	0.000000	6.062749	-0.030999	NaN	0.000000	0.001611	0.001780	28.1257	0.035979	0.002059	17.4764	-70.7162	-166.024	-0.090781	0.061140	-1.058836	-1.060120	-0.030999	17.4764	-1.057505	-1.346771E+14	2.301696E-16	NaN
42	1.000000	0.072443	7.36545e+06	-40739.1	955.82	-29789.4	0.000000	0.000000	6.072766	-0.063576	NaN	0.000000	0.001624	0.001762	28.0862	0.144844	0.002035	71.1919	-106.913	12.3581	-0.079989	0.071077	-1.048817	-1.050183	-0.063576	71.1919	-1.048147	-1.008113E+14	6.306452E-16	NaN
42	1.000000	0.082407	7.36545e+06	-40739.1	955.819	-29789.4	0.000000	0.000000	6.082729	-0.078400	NaN	0.000000	0.001659	0.001802	28.0821	0.038240	0.001978	19.3357	-31.5668	-165.93	-0.018817	0.081143	-1.038854	-1.040117	-0.078400	19.3357	-1.035813	-6.881073E+13	1.139355E-15	NaN
42	1.000000	0.092433	7.36545e+06	-40739.1	955.818	-29789.4	0.000000	0.000000	6.092755	-0.104656	NaN	0.000000	0.001665	0.001742	28.1158	0.046251	0.002022	22.8689	-30.4938	18.1069	-0.117513	0.091095	-1.028827	-1.030165	-0.104656	22.8689	-1.025395	-4.983477E+13	2.100061E-15	NaN
42	1.000000	0.102447	7.36545e+06	-40739.1	955.819	-29789.4	0.000000	0.000000	6.102771	-0.049426	NaN	0.000000	0.001670	0.001767	28.1274	0.110963	0.002079	53.3708	94.7532	-163.195	-0.073697	0.101111	-1.018813	-1.020150	-0.049426	53.3708	-1.018118	-3.977734E+13	1.242558E-15	NaN
42	1.000000	0.112436	7.36545e+06	-40739.1	955.818	-29789.5	0.000000	0.000000	6.112763	0.036750	NaN	0.000000	0.001663	0.001771	28.0886	0.034623	0.001844	18.7742	92.8901	15.1241	0.052011	0.111074	-1.008825	-1.010187	0.036750	18.7742	-1.010293	-3.121218E+13	-1.177438E-15	NaN
42	1.000000	0.122458	7.36545e+06	-40739.1	955.818	-29789.5	0.000000	0.000000	6.122783	-0.019792	NaN	0.000000	0.001670	0.001741	28.0857	0.105767	0.002056	51.4431	-33.5014	-164.823	0.028289	0.121128	-0.998803	-1.000133	-0.019792	51.4431	-0.998514	-2.166530E+13	9.135367E-16	NaN
42	1.000000	0.132448	7.36545e+06	-40739.1	955.818	-29789.5	0.000000	0.000000	6.132772	-0.043882	NaN	0.000000	0.001633	0.001744	28.117	0.065527	0.002037	32.169	1.425847	15.6967	-0.077241	0.131126	-0.988813	-0.990134	-0.043882	32.169	-0.987789	-1.553601E+13	2.824517E-15	NaN
42	1.000000	0.142465	7.36545e+06	-40739.1	955.818	-29789.5	0.000000	0.000000	6.142788	-0.064409	NaN	0.000000	0.001648	0.001817	28.1283	0.062925	0.002044	30.7868	10.2605	-163.954	-0.061103	0.141130	-0.978795	-0.980131	-0.064409	30.7868	-0.977226	-1.119538E+13	5.753172E-15	NaN
42	1.000000	0.152444	7.36545e+06	-40739.1	955.818	-29789.5	0.000000	0.000000	6.152770	0.002455	NaN	0.000000	0.001643	0.001770	28.0871	0.052327	0.001964	26.6375	-53.3291	17.2711	0.049285	0.151106	-0.968816	-0.970154	0.002455	26.6375	-0.968885	-8.642539E+12	-2.841162E-16	NaN
42	1.000000	0.162460	7.36545e+06	-40739.1	955.817	-29789.5	0.000000	0.000000	6.162785	-0.021482	NaN	0.000000	0.001637	0.001761	28.0838	0.064311	0.001959	32.8212	-133.944	-165.469	-0.032225	0.161212	-0.958800	-0.960048	-0.021482	32.8212	-0.958309	-6.224100E+12	3.451458E-15	NaN
42	1.000000	0.172499	7.36545e+06	-40739.1	955.818	-29789.5	0.000000	0.000000	6.172823	-0.042805	NaN	0.000000	0.001609	0.001749	28.1149	0.101752	0.001994	51.0388	-63.2208	13.3391	-0.034125	0.171068	-0.948762	-0.950193	-0.042805	51.0388	-0.948133	-4.537755E+12	9.433085E-15	NaN
42	1.000000	0.182484	7.36545e+06	-40739.1	955.818	-29789.5	0.000000	0.000000	6.182810	-0.014248	NaN	0.000000	0.001624	0.001725	28.1287	0.013035	0.001990	6.551148	67.2692	-166.618	0.059995	0.181126	-0.938776	-0.940134	-0.014248	6.551148	-0.937145	-3.225615E+12	4.417126E-15	NaN
42	1.000000	0.192503	7.36545e+06	-40739.1	955.818	-29789.5	0.000000	0.000000	6.192827	-0.033674	NaN	0.000000	0.001627	0.001764	28.0894	0.052291	0.002114	24.7299	31.5297	15.9782	-0.061921	0.191126	-0.928758	-0.930135	-0.033674	24.7299	-0.927736	-2.407939E+12	1.398461E-14	NaN
42	1.000000	0.202503	7.36545e+06	-40739.1	955.818	-29789.5	0.000000	0.000000	6.202826	-0.049785	NaN	0.000000	0.001604	0.001733	28.084	0.019073	0.001958	9.740824	149.192	-162.96	-0.056393	0.201146	-0.918758	-0.920114	-0.049785	9.740824	-0.914924	-1.616856E+12	3.079128E-14	NaN
42	1.000000	0.212513	7.36545e+06	-40739.1	955.818	-29789.5	0.000000	0.000000	6.212835	-0.094916	NaN	0.000000	0.001608	0.001755	28.1156	0.153056	0.001908	80.2134	168.758	15.5316	-0.021073	0.211118	-0.908747	-0.910143	-0.094916	80.2134	-0.907859	-1.297926E+12	7.312896E-14	NaN
42	1.000000	0.222477	7.36545e+06	-40739.1	955.818	-29789.5	0.000000	0.000000	6.222803	0.003569	NaN	0.000000	0.001616	0.001728	28.1267	0.075633	0.001912	39.5479	52.5387	-166.891	-0.056899	0.221163	-0.898783	-0.900098	0.003569	39.5479	-0.898851	-9.807110E+11	-3.639554E-15	NaN
42	1.000000	0.232507	7.36545e+06	-40739.1	955.818	-29789.5	0.000000	0.000000	6.232832	-0.014634	NaN	0.000000	0.001642	0.001754	28.0874	0.033404	0.001944	17.1846	-142.142	16.4218	0.053057	0.231101	-0.888753	-0.890159	-0.014634	17.1846	-0.888115	-7.021483E+11	2.084132E-14	NaN
42	1.000000	0.242503	7.36545e+06	-40739.1	955.819	-29789.5	0.000000	0.000000	6.242829	-0.004856	NaN	0.000000	0.001670	0.001777	28.0828	0.030441	0.002070	14.706	52.2491	-166.534	-0.054424	0.241258	-0.878757	-0.880003	-0.004856	14.706	-0.878510	-5.206574E+11	9.326842E-15	NaN
42	1.000000	0.252502	7.36545e+06	-40739.1	955.818	-29789.5	0.000000	0.000000	6.252830	0.058619	NaN	0.000000	0.001622	0.001832	28.1132	0.034698	0.001945	17.8441	88.8374	14.0144	0.013556	0.251181	-0.868758	-0.870080	0.058619	17.8441	-0.871222	-4.149338E+11	-1.412732E-13	NaN
42	1.000000	0.262500	7.36545e+06	-40739.1	955.819	-29789.5	0.000000	0.000000	6.262822	-0.085285	NaN	0.000000	0.001636	0.001791	28.1266	0.065500	0.001908	34.333	-13.2754	-163.238	-0.067025	0.261233	-0.858761	-0.860027	-0.085285	34.333	-0.856898	-2.655370E+11	3.211812E-13	NaN
42	1.000000	0.272512	7.36545e+06	-40739.1	955.819	-29789.5	0.000000	0.000000	6.272833	-0.110520	NaN	0.000000	0.001616	0.001795	28.0877	0.042293	0.001945	21.7459	18.1176	12.4884	-0.098234	0.271168	-0.848749	-0.850092	-0.110520	21.7459	-0.844937	-1.828813E+11	6.043291E-13	NaN
42	1.000000	0.282520	7.36545e+06	-40739.1	955.819	-29789.5	0.000000	0.000000	6.282842	-0.071728	NaN	0.000000	0.001589	0.001797	28.084	0.060810	0.002021	30.0859	119.323	-167.185	-0.058080	0.281230	-0.838741	-0.840030	-0.071728	30.0859	-0.836953	-1.425625E+11	5.031340E-13	NaN
42	1.000000	0.292548	7.36545e+06	-40739.1	955.819	-29789.5	0.000000	0.000000	6.292872	-0.048258	NaN	0.000000	0.001593	0.001774	28.1152	0.081926	0.001812	45.2108	86.0899	13.4462	-0.048232	0.291191	-0.828712	-0.830069	-0.048258	45.2108	-0.827912	-1.075176E+11	4.488383E-13	NaN
42	1.000000	0.302532	7.36545e+06	-40739.1	955.818	-29789.5	0.000000	0.000000	6.302856	-0.034974	NaN	0.000000	0.001596	0.001762	28.127	0.186436	0.001993	93.5303	4.074562	-162.134	-0.041006	0.301232	-0.818728	-0.820028	-0.034974	93.5303	-0.818448	-8.001351E+10	4.370991E-13	NaN
42	1.000000	0.312565	7.36545e+06	-40739.1	955.818	-29789.5	0.000000	0.000000	6.312891	0.018059	NaN	0.000000	0.001600	0.001772	28.0869	0.081942	0.002036	40.2424	131.442	17.5432	-0.055214	0.311207	-0.808696	-0.810053	0.018059	40.2424	-0.809032	-5.962645E+10	-3.028654E-13	NaN
42	1.000000	0.322571	7.36546e+06	-40739.1	955.819	-29789.5	0.000000	0.000000	6.322893	-0.085981	NaN	0.000000	0.001635	0.001808	28.0824	0.029546	0.001865	15.8406	0.277305	-168.516	-0.092170	0.321288	-0.798689	-0.799973	-0.085981	15.8406	-0.794618	-3.800161E+10	2.262573E-12	NaN
42	1.000000	0.332539	7.36546e+06	-40739.1	955.818	-29789.5	0.000000	0.000000	6.332864	-0.011118	NaN	0.000000	0.001581	0.001742	28.1129	0.178502	0.001835	97.2761	-151.247	16.6795	0.008799	0.331153	-0.788722	-0.790107	-0.011118	97.2761	-0.788636	-3.151790E+10	3.527641E-13	NaN
42	1.000000	0.342559	7.36546e+06	-40739.1	955.819	-29789.5	0.000000	0.000000	6.342885	0.013011	NaN	0.000000	0.001604	0.001782	28.1277	0.043145	0.002032	21.2275	-49.9198	-164.592	0.037680	0.341244	-0.778701	-0.780016	0.013011	21.2275	-0.779161	-2.343321E+10	-5.552424E-13	NaN
42	1.000000	0.352555	7.36546e+06	-40739.1	955.818	-29789.5	0.000000	0.000000	6.352877	-0.101372	NaN	0.000000	0.001619	0.001776	28.09	0.027193	0.001952	13.9278	-66.2602	12.923	-0.050653	0.351243	-0.768705	-0.770017	-0.101372	13.9278	-0.763246	-1.423848E+10	7.119570E-12	NaN
42	1.000000	0.362569	7.36546e+06	-40739.1	955.819	-29789.5	0.000000	0.000000	6.362893	-0.060291	NaN	0.000000	0.001612	0.001821	28.0835	0.054667	0.001965	27.8223	139.592	-165.094	-0.167817	0.361214	-0.758691	-0.760046	-0.060291	27.8223	-0.757066	-1.173220E+10	5.138958E-12	NaN
42	1.000000	0.372561	7.36546e+06	-40739.1	955.818	-29789.5	0.000000	0.000000	6.372885	-0.047805	NaN	0.000000	0.001580	0.001842	28.1153	0.114086	0.002061	55.3575	42.3466	17.6421	-0.017655	0.371217	-0.748699	-0.750043	-0.047805	55.3575	-0.748051	-8.844938E+9	5.404746E-12	NaN
42	1.000000	0.382581	7.36546e+06	-40739.1	955.818	-29789.5	0.000000	0.000000	6.382903	-0.094554	NaN	0.000000	0.001618	0.001803	28.129	0.109614	0.002159	50.7795	-149.071	-167.606	-0.179642	0.381233	-0.738680	-0.740028	-0.094554	50.7795	-0.737283	-6.310280E+9	1.498417E-11	NaN
42	1.000000	0.392545	7.36546e+06	-40739.1	955.818	-29789.5	0.000000	0.000000	6.392871	-0.014181	NaN	0.000000	0.001619	0.001791	28.0884	0.019353	0.002078	9.315449	-147.042	16.3063	-0.018209	0.391257	-0.728715	-0.730003	-0.014181	9.315449	-0.727573	-4.652986E+9	3.047787E-12	NaN
42	1.000000	0.402569	7.36546e+06	-40739.1	955.818	-29789.5	0.000000	0.000000	6.402895	-0.000606	NaN	0.000000	0.001605	0.001821	28.0838	0.041716	0.002016	20.6882	-141.201	-163.475	-0.038900	0.401310	-0.718692	-0.719951	-0.000606	20.6882	-0.718670	-3.518265E+9	1.723093E-13	NaN
42	1.000000	0.412585	7.36546e+06	-40739.1	955.818	-29789.5	0.000000	0.000000	6.412912	0.022133	NaN	0.000000	0.001626	0.001756	28.1139	0.042677	0.001975	21.6112	128.911	13.9845	0.068237	0.411222	-0.708675	-0.710038	0.022133	21.6112	-0.709443	-2.632970E+9	-8.405998E-12	NaN
42	1.000000	0.422579	7.36546e+06	-40739.1	955.818	-29789.5	0.000000	0.000000	6.422905	-0.002831	NaN	0.000000	0.001626	0.001770	28.1283	0.060897	0.002086	29.1874	-134.631	-163.171	-0.088298	0.421274	-0.698681	-0.699987	-0.002831	29.1874	-0.698608	-1.872953E+9	1.511490E-12	NaN
42	1.000000	0.432572	7.36546e+06	-40739.1	955.819	-29789.5	0.000000	0.000000	6.432898	-0.003032	NaN	0.000000	0.001604	0.001757	28.088	0.020740	0.002045	10.1418	3.444176	15.3534	-0.053890	0.431268	-0.688688	-0.689992	-0.003032	10.1418	-0.688464	-1.361217E+9	2.227444E-12	NaN
42	1.000000	0.442622	7.36546e+06	-40739.1	955.818	-29789.5	0.000000	0.000000	6.442945	-0.061251	NaN	0.000000	0.001589	0.001789	28.0823	0.029133	0.001855	15.7042	25.2317	-164.77	-0.052941	0.441270	-0.678639	-0.679990	-0.061251	15.7042	-0.675713	-9.111079E+8	6.722701E-11	NaN
42	1.000000	0.452586	7.36546e+06	-40739.1	955.818	-29789.5	0.000000	0.000000	6.452908	-0.088024	NaN	0.000000	0.001605	0.001780	28.1135	0.043125	0.002020	21.3446	-25.7074	15.0824	-0.162947	0.451252	-0.668674	-0.670009	-0.088024	21.3446	-0.665581	-6.620641E+8	1.329538E-10	NaN
42	1.000000	0.462611	7.36546e+06	-40739.1	955.818	-29789.5	0.000000	0.000000	6.462938	0.038268	NaN	0.000000	0.001608	0.001768	28.1276	0.046746	0.002053	22.7694	54.4016	-163.672	0.092405	0.461318	-0.658649	-0.659943	0.038268	22.7694	-0.659910	-5.536472E+8	-6.912048E-11	NaN
42	1.000000	0.472601	7.36546e+06	-40739.1	955.818	-29789.5	0.000000	0.000000	6.472927	-0.012809	NaN	0.000000	0.001624	0.001818	28.0881	0.105718	0.002036	51.9166	114.011	18.5302	0.008252	0.471286	-0.648659	-0.649975	-0.012809	51.9166	-0.648474	-3.859362E+8	3.319020E-11	NaN
42	1.000000	0.482618	7.36546e+06	-40739.1	955.818	-29789.5	0.000000	0.000000	6.482943	-0.004864	NaN	0.000000	0.001635	0.001845	28.0818	0.086141	0.001934	44.5389	-117.86	-165.617	0.012505	0.481305	-0.638643	-0.639955	-0.004864	44.5389	-0.638561	-2.821904E+8	1.723710E-11	NaN
42	1.000000	0.492610	7.36546e+06	-40739.1	955.818	-29789.5	0.000000	0.000000	6.492932	-0.105924	NaN	0.000000	0.001643	0.001794	28.1116	0.069432	0.002035	34.1123	154.218	14.7982	-0.075030	0.491222	-0.628650	-0.630038	-0.105924	34.1123	-0.626321	-1.916446E+8	5.527130E-10	NaN
42	1.000000	0.502630	7.36546e+06	-40739.1	955.819	-29789.5	0.000000	0.000000	6.502953	-0.073426	NaN	0.000000	0.001638	0.001799	28.1269	0.044012	0.002072	21.2435	150.911	-166.825	-0.063120	0.501372	-0.618630	-0.619889	-0.073426	21.2435	-0.616038	-1.384088E+8	5.305012E-10	NaN
42	1.000000	0.512632	7.36546e+06	-40739.1	955.818	-29789.5	0.000000	0.000000	6.512956	-0.059683	NaN	0.000000	0.001613	0.001803	28.0865	0.062594	0.001937	32.3168	-142.517	13.3195	-0.114943	0.511275	-0.608628	-0.609985	-0.059683	32.3168	-0.607243	-1.047550E+8	5.697354E-10	NaN
42	1.000000	0.522648	7.36546e+06	-40739.1	955.818	-29789.5	0.000000	0.000000	6.522972	-0.027324	NaN	0.000000	0.001645	0.001881	28.0815	0.082929	0.001890	43.883	129.514	-163.206	0.036845	0.521370	-0.598613	-0.599890	-0.027324	43.883	-0.598146	-7.850900E+7	3.480346E-10	NaN
42	1.000000	0.532648	7.36546e+06	-40739.1	955.818	-29789.5	0.000000	0.000000	6.532972	-0.025432	NaN	0.000000	0.001659	0.001816	28.112	0.013258	0.002044	6.486404	-20.8061	14.7845	0.024444	0.531284	-0.588613	-0.589976	-0.025432	6.486404	-0.585672	-5.284281E+7	4.812777E-10	NaN
42	1.000000	0.542636	7.36546e+06	-40739.1	955.818	-29789.5	0.000000	0.000000	6.542959	-0.085933	NaN	0.000000	0.001603	0.001829	28.127	0.071611	0.002060	34.7696	-149.097	-166.655	-0.060807	0.541335	-0.578624	-0.579925	-0.085933	34.7696	-0.576770	-3.982391E+7	2.157818E-9	NaN
42	1.000000	0.552659	7.36546e+06	-40739.1	955.818	-29789.5	0.000000	0.000000	6.552983	-0.027834	NaN	0.000000	0.001660	0.001788	28.0868	0.072972	0.002050	35.5973	148.725	13.9464	0.026553	0.551301	-0.568602	-0.569960	-0.027834	35.5973	-0.568015	-3.014416E+7	9.233536E-10	NaN
42	1.000000	0.562673	7.36546e+06	-40739.1	955.818	-29789.5	0.000000	0.000000	6.562998	-0.033563	NaN	0.000000	0.001634	0.001766	28.0802	0.014203	0.002045	6.946944	-97.9066	-164.161	-0.004180	0.561352	-0.558587	-0.559908	-0.033563	6.946944	-0.554964	-1.989229E+7	1.687254E-9	NaN
42	1.000000	0.572651	7.36546e+06	-40739.1	955.819	-29789.5	0.000000	0.000000	6.572975	-0.043814	NaN	0.000000	0.001670	0.001819	28.1112	0.049859	0.002007	24.8411	62.6117	15.844	-0.003159	0.571303	-0.548609	-0.549957	-0.043814	24.8411	-0.547286	-1.557265E+7	2.813497E-9	NaN
42	1.000000	0.582641	7.36546e+06	-40739.1	955.819	-29789.5	0.000000	0.000000	6.582966	0.001276	NaN	0.000000	0.001627	0.001808	28.1276	0.060167	0.001909	31.5172	30.4712	-164.799	0.027089	0.581342	-0.538620	-0.539919	0.001276	31.5172	-0.538650	-1.182049E+7	-1.079628E-10	NaN
42	1.000000	0.592632	7.36546e+06	-40739.1	955.818	-29789.5	0.000000	0.000000	6.592956	-0.046629	NaN	0.000000	0.001643	0.001804	28.0877	0.008270	0.001922	4.302826	32.9514	14.3402	-0.003466	0.591311	-0.528628	-0.529949	-0.046629	4.302826	-0.520501	-6.61549e+06	7.048507E-9	NaN
42	1.000000	0.602668	7.36546e+06	-40739.1	955.819	-29789.5	0.000000	0.000000	6.602994	0.011604	NaN	0.000000	0.001609	0.001789	28.0814	0.042090	0.002045	20.5851	157.099	-163.581	-0.010677	0.601340	-0.518593	-0.519921	0.011604	20.5851	-0.519015	-6.30816e+06	-1.839521E-9	NaN
42	1.000000	0.612637	7.36546e+06	-40739.1	955.818	-29789.5	0.000000	0.000000	6.612960	-0.072580	NaN	0.000000	0.001636	0.001818	28.1125	0.061020	0.001999	30.5288	4.704832	17.1867	-0.097954	0.611303	-0.508623	-0.509957	-0.072580	30.5288	-0.506840	-4.26968e+06	1.699898E-8	NaN
42	1.000000	0.622665	7.36546e+06	-40739.1	955.818	-29789.5	0.000000	0.000000	6.622987	-0.096759	NaN	0.000000	0.001652	0.001812	28.1275	0.091114	0.002117	43.0464	-172.084	-166.133	-0.040245	0.621406	-0.498596	-0.499854	-0.096759	43.0464	-0.496910	-3.10382e+06	3.117420E-8	NaN
42	1.000000	0.632659	7.36546e+06	-40739.1	955.817	-29789.5	0.000000	0.000000	6.632983	-0.044891	NaN	0.000000	0.001637	0.001790	28.0883	0.049013	0.002012	24.3654	-179.051	16.9275	-0.088880	0.631316	-0.488601	-0.489945	-0.044891	24.3654	-0.487219	-2.27261e+06	1.975308E-8	NaN
42	1.000000	0.642697	7.36546e+06	-40739.1	955.819	-29789.5	0.000000	0.000000	6.643020	-0.061490	NaN	0.000000	0.001619	0.001801	28.0817	0.071152	0.001969	36.1426	-27.3587	-162.215	-0.020394	0.641327	-0.478563	-0.479933	-0.061490	36.1426	-0.477287	-1.65022e+06	3.726161E-8	NaN
42	1.000000	0.652702	7.36546e+06	-40739.1	955.818	-29789.5	0.000000	0.000000	6.653024	-0.108477	NaN	0.000000	0.001618	0.001800	28.1122	0.105228	0.001858	56.6482	-74.5542	13.1442	-0.167000	0.651356	-0.468558	-0.469904	-0.108477	56.6482	-0.467122	-1.18858e+06	9.126586E-8	NaN
42	1.000000	0.662689	7.36546e+06	-40739.1	955.818	-29789.5	0.000000	0.000000	6.663016	0.042274	NaN	0.000000	0.001620	0.001774	28.129	0.021369	0.001845	11.5801	-55.3144	-167.103	0.078294	0.661415	-0.458571	-0.459845	0.042274	11.5801	-0.461309	-984954	-4.291981E-8	NaN
42	1.000000	0.672696	7.36546e+06	-40739.1	955.819	-29789.5	0.000000	0.000000	6.673023	0.014164	NaN	0.000000	0.001616	0.001784	28.0882	0.113907	0.002065	55.1504	121.368	14.6728	0.051538	0.671295	-0.448564	-0.449966	0.014164	55.1504	-0.448757	-655889	-2.159525E-8	NaN
42	1.000000	0.682708	7.36546e+06	-40739.1	955.819	-29789.5	0.000000	0.000000	6.683032	-0.051962	NaN	0.000000	0.001603	0.001813	28.083	0.111618	0.001966	56.7791	-119.587	-165.814	0.021473	0.681424	-0.438552	-0.439836	-0.051962	56.7791	-0.437865	-460501	1.128389E-7	NaN
42	1.000000	0.692712	7.36546e+06	-40739.1	955.818	-29789.5	0.000000	0.000000	6.693037	-0.027517	NaN	0.000000	0.001630	0.001820	28.1131	0.108338	0.002013	53.8239	65.3711	13.8199	0.017346	0.691312	-0.428548	-0.429948	-0.027517	53.8239	-0.428165	-335807	8.194415E-8	NaN
42	1.000000	0.702699	7.36546e+06	-40739.1	955.817	-29789.5	0.000000	0.000000	6.703024	-0.019898	NaN	0.000000	0.001621	0.001806	28.129	0.134579	0.001894	71.0396	38.833	-166.448	-0.028905	0.701394	-0.418561	-0.419866	-0.019898	71.0396	-0.418351	-243793	8.161797E-8	NaN
42	1.000000	0.712682	7.36546e+06	-40739.1	955.819	-29789.5	0.000000	0.000000	6.713005	-0.068988	NaN	0.000000	0.001626	0.001815	28.0888	0.106624	0.002048	52.0543	-118.428	18.3387	-0.122826	0.711357	-0.408578	-0.409903	-0.068988	52.0543	-0.407584	-171410	4.024698E-7	NaN
42	1.000000	0.722699	7.36546e+06	-40739.1	955.818	-29789.5	0.000000	0.000000	6.723023	-0.048065	NaN	0.000000	0.001585	0.001773	28.0821	0.073921	0.001951	37.8952	-25.854	-169.413	-0.009891	0.721412	-0.398561	-0.399848	-0.048065	37.8952	-0.397610	-123566	3.889823E-7	NaN
42	1.000000	0.732727	7.36546e+06	-40739.1	955.817	-29789.5	0.000000	0.000000	6.733050	-0.067902	NaN	0.000000	0.001584	0.001814	28.1125	0.124230	0.001963	63.2898	-165.6	20.1293	-0.052854	0.731371	-0.388533	-0.389889	-0.067902	63.2898	-0.387729	-89261.7	7.607110E-7	NaN
42	1.000000	0.742735	7.36546e+06	-40739.1	955.818	-29789.5	0.000000	0.000000	6.743059	-0.043383	NaN	0.000000	0.001607	0.001805	28.1292	0.065810	0.002028	32.4463	-127.129	-168.457	-0.047493	0.741444	-0.378526	-0.379816	-0.043383	32.4463	-0.377523	-63727	6.807628E-7	NaN
42	1.000000	0.752721	7.36546e+06	-40739.1	955.818	-29789.5	0.000000	0.000000	6.753044	-0.060508	NaN	0.000000	0.001599	0.001814	28.0902	0.130303	0.002000	65.1485	-93.2955	18.2435	-0.041751	0.751394	-0.368540	-0.369866	-0.060508	65.1485	-0.367843	-46243.5	1.308468E-6	NaN
42	1.000000	0.762702	7.36546e+06	-40739.1	955.818	-29789.5	0.000000	0.000000	6.763027	-0.035603	NaN	0.000000	0.001638	0.001821	28.0822	0.108423	0.002062	52.5738	163.617	-162.934	-0.029385	0.761441	-0.358558	-0.359820	-0.035603	52.5738	-0.358050	-33392.5	1.066210E-6	NaN
42	1.000000	0.772744	7.36546e+06	-40739.1	955.819	-29789.5	0.000000	0.000000	6.773066	-0.089702	NaN	0.000000	0.001612	0.001793	28.1112	0.077401	0.001997	38.7498	131.724	18.3806	-0.153817	0.771309	-0.348516	-0.349952	-0.089702	38.7498	-0.346780	-22921	3.913520E-6	NaN
42	1.000000	0.782742	7.36546e+06	-40739.1	955.818	-29789.5	0.000000	0.000000	6.783068	-0.016069	NaN	0.000000	0.001565	0.001803	28.128	0.044002	0.001898	23.183	-109.922	-165.673	-0.016697	0.781444	-0.338518	-0.339817	-0.016069	23.183	-0.337998	-17075	9.410812E-7	NaN
42	1.000000	0.792772	7.36546e+06	-40739.1	955.818	-29789.5	0.000000	0.000000	6.793096	-0.052190	NaN	0.000000	0.001604	0.001773	28.0884	0.063875	0.001834	34.8336	99.5234	15.85	-0.036375	0.791360	-0.328488	-0.329901	-0.052190	34.8336	-0.327364	-11935.2	4.372835E-6	NaN
42	1.000000	0.802744	7.36546e+06	-40739.1	955.818	-29789.5	0.000000	0.000000	6.803070	0.011812	NaN	0.000000	0.001607	0.001791	28.0812	0.023821	0.002073	11.4912	163.99	-164.505	0.006917	0.801477	-0.318517	-0.319783	0.011812	11.4912	-0.319288	-9081.4	-1.300712E-6	NaN
42	1.000000	0.812731	7.36546e+06	-40739.1	955.818	-29789.5	0.000000	0.000000	6.813055	-0.065674	NaN	0.000000	0.001580	0.001797	28.1104	0.101940	0.002016	50.5582	153.104	14.5903	-0.097556	0.811407	-0.308529	-0.309853	-0.065674	50.5582	-0.307555	-6093.16	1.077832E-5	NaN
42	1.000000	0.822734	7.36546e+06	-40739.1	955.819	-29789.5	0.000000	0.000000	6.823059	-0.013224	NaN	0.000000	0.001613	0.001777	28.1282	0.017058	0.002039	8.363827	99.5339	-162.316	-0.048389	0.821464	-0.298526	-0.299796	-0.013224	8.363827	-0.297340	-4295.46	3.078705E-6	NaN
42	1.000000	0.832732	7.36546e+06	-40739.1	955.819	-29789.5	0.000000	0.000000	6.833056	-0.046434	NaN	0.000000	0.001593	0.001742	28.0884	0.023427	0.001933	12.1221	109.022	13.7744	-0.102073	0.831390	-0.288528	-0.289870	-0.046434	12.1221	-0.285655	-2871.51	1.617052E-5	NaN
42	1.000000	0.842755	7.36546e+06	-40739.1	955.818	-29789.5	0.000000	0.000000	6.843078	-0.078484	NaN	0.000000	0.001625	0.001766	28.0814	0.023640	0.002083	11.3463	178.036	-162.834	-0.082241	0.841428	-0.278505	-0.279832	-0.078484	11.3463	-0.273317	-1870.27	4.196399E-5	NaN
42	1.000000	0.852791	7.36546e+06	-40739.1	955.819	-29789.5	0.000000	0.000000	6.853114	-0.064110	NaN	0.000000	0.001601	0.001789	28.1112	0.057052	0.002056	27.7435	-72.4068	17.5568	-0.033781	0.851456	-0.268469	-0.269804	-0.064110	27.7435	-0.266736	-1485.48	4.315780E-5	NaN
42	1.000000	0.862771	7.36546e+06	-40739.1	955.819	-29789.5	0.000000	0.000000	6.863094	-0.070731	NaN	0.000000	0.001634	0.001754	28.1279	0.073285	0.002046	35.8183	36.8788	-160.383	-0.111633	0.861472	-0.258489	-0.259788	-0.070731	35.8183	-0.257008	-1054.4	6.708194E-5	NaN
42	1.000000	0.872735	7.36546e+06	-40739.1	955.819	-29789.5	0.000000	0.000000	6.873060	-0.024917	NaN	0.000000	0.001684	0.001764	28.0876	0.103661	0.001944	53.3163	-95.2646	18.2532	-0.073910	0.871419	-0.248525	-0.249841	-0.024917	53.3163	-0.248175	-770.388	3.234291E-5	NaN
42	1.000000	0.882764	7.36546e+06	-40739.1	955.817	-29789.5	0.000000	0.000000	6.883087	-0.073580	NaN	0.000000	0.001652	0.001795	28.0804	0.028763	0.001906	15.0944	75.4153	-164.584	-0.047707	0.881445	-0.238496	-0.239815	-0.073580	15.0944	-0.234840	-477.245	0.000154	NaN
42	1.000000	0.892771	7.36546e+06	-40739.1	955.818	-29789.5	0.000000	0.000000	6.893095	-0.029589	NaN	0.000000	0.001671	0.001779	28.1102	0.029216	0.002028	14.4073	72.201	14.1869	-0.021169	0.891408	-0.228489	-0.229852	-0.029589	14.4073	-0.226949	-358.309	8.257990E-5	NaN
42	1.000000	0.902772	7.36546e+06	-40739.1	955.818	-29789.5	0.000000	0.000000	6.903096	-0.044350	NaN	0.000000	0.001681	0.001814	28.1298	0.046624	0.002050	22.7445	5.735675	-165.416	-0.069763	0.901522	-0.218488	-0.219738	-0.044350	22.7445	-0.217025	-248.914	0.000178	NaN
42	1.000000	0.912793	7.36546e+06	-40739.1	955.818	-29789.5	0.000000	0.000000	6.913115	-0.097235	NaN	0.000000	0.001628	0.001759	28.0897	0.022262	0.002063	10.7892	10.8264	15.2571	-0.066091	0.911464	-0.208467	-0.209796	-0.097235	10.7892	-0.201708	-140.517	0.000692	NaN
42	1.000000	0.922796	7.36546e+06	-40739.1	955.818	-29789.5	0.000000	0.000000	6.923117	-0.116124	NaN	0.000000	0.001612	0.001780	28.083	0.102502	0.001974	51.9323	18.046	-164.747	-0.088907	0.921491	-0.198465	-0.199769	-0.116124	51.9323	-0.196788	-116.62	0.000996	NaN
42	1.000000	0.932803	7.36546e+06	-40739.1	955.818	-29789.5	0.000000	0.000000	6.933127	-0.061236	NaN	0.000000	0.001612	0.001766	28.1111	0.090280	0.002014	44.8164	-67.233	17.3041	-0.114997	0.931412	-0.188457	-0.189848	-0.061236	44.8164	-0.187432	-81.4766	0.000752	NaN
42	1.000000	0.942755	7.36546e+06	-40739.1	955.818	-29789.5	0.000000	0.000000	6.943077	-0.093123	NaN	0.000000	0.001594	0.001755	28.1296	0.144889	0.002052	70.6174	-141.438	-164.951	-0.083208	0.941493	-0.178505	-0.179767	-0.093123	70.6174	-0.177516	-55.3488	0.001682	NaN
42	1.000000	0.952792	7.36546e+06	-40739.1	955.818	-29789.5	0.000000	0.000000	6.953117	-0.005817	NaN	0.000000	0.001567	0.001756	28.09	0.100927	0.002041	49.4597	-40.2753	16.2862	-0.102780	0.951392	-0.168468	-0.169868	-0.005817	49.4597	-0.168380	-38.4979	0.000151	NaN
42	1.000000	0.962808	7.36546e+06	-40739.1	955.818	-29789.5	0.000000	0.000000	6.963131	-0.059006	NaN	0.000000	0.001604	0.001785	28.0811	0.086441	0.001925	44.8993	19.3099	-165.774	-0.025607	0.961488	-0.158453	-0.159772	-0.059006	44.8993	-0.157467	-24.7078	0.002388	NaN
42	1.000000	0.972830	7.36546e+06	-40739.1	955.818	-29789.5	0.000000	0.000000	6.973153	-0.064158	NaN	0.000000	0.001587	0.001742	28.1103	0.070130	0.002035	34.4667	-41.6844	15.3062	-0.039632	0.971484	-0.148430	-0.149777	-0.064158	34.4667	-0.147034	-15.984	0.004014	NaN
42	1.000000	0.982834	7.36546e+06	-40739.1	955.818	-29789.5	0.000000	0.000000	6.983157	-0.071326	NaN	0.000000	0.001579	0.001755	28.1303	0.136665	0.002046	66.7914	120.521	-165.923	-0.021569	0.981493	-0.138426	-0.139768	-0.071326	66.7914	-0.137625	-10.6706	0.006684	NaN
42	1.000000	0.992806	7.36546e+06	-40739.1	955.818	-29789.5	0.000000	0.000000	6.993131	-0.027291	NaN	0.000000	0.001610	0.001778	28.0903	0.058066	0.002141	27.1162	85.8356	13.4751	-0.015283	0.991422	-0.128454	-0.129838	-0.027291	27.1162	-0.127700	-6.872886	0.003971	NaN
42	1.000000	1.002847	7.36546e+06	-40739.1	955.819	-29789.5	0.000000	0.000000	7.003171	-0.027944	NaN	0.000000	0.001567	0.001813	28.0825	0.011286	0.001978	5.706980	-45.6037	-167.845	-0.055397	1.001496	-0.118414	-0.119764	-0.027944	5.706980	-0.114741	-3.773737	0.007405	NaN
42	1.000000	1.012826	7.36546e+06	-40739.1	955.82	-29789.5	0.000000	0.000000	7.013149	-0.082936	NaN	0.000000	0.001586	0.001800	28.1115	0.062057	0.001981	31.3285	-138.805	15.9465	-0.070415	1.011563	-0.108434	-0.109697	-0.082936	31.3285	-0.106449	-2.525545	0.032839	NaN
42	1.000000	1.022824	7.36546e+06	-40739.1	955.82	-29789.5	0.000000	0.000000	7.023147	-0.077508	NaN	0.000000	0.001587	0.001831	28.1298	0.059749	0.001962	30.4548	-123.218	-167.577	-0.071356	1.021568	-0.098436	-0.099693	-0.077508	30.4548	-0.096527	-1.527787	0.050732	NaN
42	1.000000	1.032814	7.36546e+06	-40739.1	955.819	-29789.5	0.000000	0.000000	7.033137	-0.073162	NaN	0.000000	0.001587	0.001815	28.0895	0.070017	0.002053	34.1071	-139.998	13.2243	-0.080455	1.031434	-0.088446	-0.089826	-0.073162	34.1071	-0.086838	-0.909696	0.080424	NaN
42	1.000000	1.042859	7.36546e+06	-40739.1	955.82	-29789.5	0.000000	0.000000	7.043183	-0.052195	NaN	0.000000	0.001557	0.001816	28.0809	0.066699	0.002071	32.199	165.205	-163.187	-0.018390	1.041510	-0.078401	-0.079751	-0.052195	32.199	-0.077186	-0.525579	0.099310	NaN
42	1.000000	1.052836	7.36546e+06	-40739.1	955.819	-29789.5	0.000000	0.000000	7.053158	-0.077455	NaN	0.000000	0.001554	0.001818	28.1091	0.162657	0.002172	74.8835	-128.315	13.0452	-0.037771	1.051507	-0.068425	-0.069753	-0.077455	74.8835	-0.067649	-0.294703	0.262824	NaN
42	1.000000	1.062857	7.36546e+06	-40739.1	955.819	-29789.5	0.000000	0.000000	7.063181	-0.049610	NaN	0.000000	0.001592	0.001827	28.1295	0.063994	0.001902	33.6501	-141.836	-163.638	0.003340	1.061527	-0.058403	-0.059733	-0.049610	33.6501	-0.057297	-0.150420	0.329811	NaN
42	1.000000	1.072878	7.36546e+06	-40739.1	955.819	-29789.5	0.000000	0.000000	7.073202	-0.035447	NaN	0.000000	0.001599	0.001756	28.0899	0.095557	0.001899	50.315	-27.4307	17.169	0.014932	1.071498	-0.048383	-0.049762	-0.035447	50.315	-0.047854	-0.078544	0.451304	NaN
42	1.000000	1.082846	7.36546e+06	-40739.1	955.82	-29789.5	0.000000	0.000000	7.083172	0.001277	NaN	0.000000	0.001626	0.001766	28.0811	0.109008	0.002094	52.0497	-169.038	-168.55	-0.056414	1.081551	-0.038414	-0.039709	0.001277	52.0497	-0.038433	-0.040542	-0.031504	NaN
42	1.000000	1.092852	7.36546e+06	-40739.1	955.819	-29789.5	0.000000	0.000000	7.093178	-0.017851	NaN	0.000000	0.001610	0.001777	28.1097	0.055818	0.002092	26.6789	147.208	16.0005	-0.079427	1.091509	-0.028408	-0.029751	-0.017851	26.6789	-0.027906	-0.020157	0.885605	NaN
42	1.000000	1.102871	7.36546e+06	-40739.1	955.819	-29789.5	0.000000	0.000000	7.103194	-0.079155	NaN	0.000000	0.001569	0.001761	28.1286	0.054028	0.002055	26.2904	106.19	-163.183	-0.107201	1.101524	-0.018389	-0.019736	-0.079155	26.2904	-0.016131	-0.009964	7.944252	NaN
42	1.000000	1.112852	7.36546e+06	-40739.1	955.82	-29789.5	0.000000	0.000000	7.113174	-0.102568	NaN	0.000000	0.001567	0.001774	28.0891	0.088804	0.002012	44.1463	78.6507	13.8989	-0.138001	1.111561	-0.008408	-0.009700	-0.102568	44.1463	-0.006665	-0.004440	23.1018	NaN
42	1.000000	1.122861	7.36546e+06	-40739.1	955.819	-29789.5	0.000000	0.000000	7.123253	1.623179	NaN	0.000000	0.001579	0.001779	28.0806	2.464942	0.001945	1267.62	11.1349	-168.722	0.345938	1.121510	0.001600	0.000250	1.623179	1267.62	0.000640	0.000484	3352.59	52634.4
42	2.000000	1.129020	7.36546e+06	-40739.1	955.82	-29789.5	0.000000	0.000000	7.129750	9.847790	NaN	0.000000	0.001573	0.001796	28.1081	10.0358	0.001640	6118.92	4.312297	11.2875	9.080502	1.128667	0.007759	0.007407	9.847790	6118.92	0.006552	0.005595	1760.07	74738.3
42	2.000000	1.131470	7.36546e+06	-40739.1	955.821	-29789.5	0.000000	0.000000	7.132349	13.4581	NaN	0.000000	0.001557	0.001805	28.1291	12.4105	0.001715	7237.11	6.982340	-172.806	12.9484	1.131213	0.010209	0.009953	13.4581	7237.11	0.008815	0.007894	1704.92	74421.6
42	2.000000	1.133991	7.36546e+06	-40739.1	955.821	-29789.5	0.000000	0.000000	7.134992	16.4379	NaN	0.000000	0.001578	0.001803	28.0904	14.9675	0.001889	7924.99	10.7118	5.896632	18.0463	1.133676	0.012730	0.012415	16.4379	7924.99	0.011175	0.010517	1563.05	70604.9
42	2.000000	1.136448	7.36546e+06	-40739.1	955.821	-29789.5	0.000000	0.000000	7.137603	20.1635	NaN	0.000000	0.001577	0.001810	28.0817	17.8678	0.001746	10232.9	4.950505	-174.594	18.6124	1.136133	0.015188	0.014873	20.1635	10232.9	0.013710	0.013604	1482.21	80157.4
42	2.000000	1.138952	7.36546e+06	-40739.1	955.82	-29789.5	0.000000	0.000000	7.140420	27.7996	NaN	0.000000	0.001558	0.001749	28.1101	20.1776	0.001825	11058.8	7.994407	2.774077	26.0415	1.138567	0.017691	0.017306	27.7996	11058.8	0.015806	0.016375	1697.68	78957
42	2.000000	1.141440	7.36546e+06	-40739.1	955.819	-29789.5	0.000000	0.000000	7.143011	30.3003	NaN	0.000000	0.001576	0.001758	28.13	23.0864	0.001714	13467.8	4.671475	-177.47	30.089	1.141107	0.020179	0.019847	30.3003	13467.8	0.018492	0.020228	1497.94	86515.5
42	2.000000	1.143940	7.36546e+06	-40739.1	955.82	-29789.5	0.000000	0.000000	7.145866	38.9331	NaN	0.000000	0.001629	0.001769	28.091	26.2903	0.001713	15345	5.542162	1.236968	38.9336	1.143536	0.022680	0.022276	38.9331	15345	0.020777	0.023778	1637.34	90918
42	2.000000	1.146415	7.36546e+06	-40739.1	955.819	-29789.5	0.000000	0.000000	7.148567	44.4329	NaN	0.000000	0.001642	0.001747	28.0813	29.2562	0.001775	16483	4.596655	-179.557	42.8055	1.146167	0.025154	0.024907	44.4329	16483	0.023133	0.027706	1603.73	90473.8
42	2.000000	1.148930	7.36546e+06	-40739.1	955.82	-29789.5	0.000000	0.000000	7.151344	50.8184	NaN	0.000000	0.001611	0.001747	28.1098	31.5007	0.001862	16913.6	7.039433	-0.616645	48.7223	1.148646	0.027669	0.027386	50.8184	16913.6	0.025416	0.031777	1599.24	86687.1
42	2.000000	1.151408	7.36546e+06	-40739.1	955.819	-29789.5	0.000000	0.000000	7.154022	55.6931	NaN	0.000000	0.001625	0.001768	28.1302	33.9887	0.001847	18397.7	6.353976	179.132	56.9093	1.151192	0.030147	0.029932	55.6931	18397.7	0.027877	0.036458	1527.6	88031.9
42	2.000000	1.153893	7.36546e+06	-40739.1	955.819	-29789.5	0.000000	0.000000	7.157047	68.8258	NaN	0.000000	0.001655	0.001747	28.0919	36.1682	0.001847	19582.3	5.219853	-0.096867	67.3995	1.153545	0.032633	0.032285	68.8258	19582.3	0.029997	0.040736	1689.54	88643
42	2.000000	1.156386	7.36546e+06	-40739.1	955.82	-29789.5	0.000000	0.000000	7.159913	77.8771	NaN	0.000000	0.001637	0.001718	28.0834	38.6715	0.001738	22253.7	3.399251	-179.5	75.0635	1.156016	0.035126	0.034755	77.8771	22253.7	0.032501	0.046088	1689.75	94706.9
42	2.000000	1.158925	7.36546e+06	-40739.1	955.819	-29789.5	0.000000	0.000000	7.163024	91.8151	NaN	0.000000	0.001618	0.001739	28.1099	40.7432	0.001753	23246.2	9.126405	-5.133112	90.1598	1.158522	0.037664	0.037262	91.8151	23246.2	0.034702	0.051054	1798.38	93995.7
42	2.000000	1.161335	7.36546e+06	-40739.1	955.82	-29789.5	0.000000	0.000000	7.165750	99.5028	NaN	0.000000	0.001629	0.001748	28.13	43.3113	0.001809	23947.5	4.762181	177.774	96.4441	1.161054	0.040075	0.039793	99.5028	23947.5	0.036958	0.056404	1764.11	92125.4
42	2.000000	1.163892	7.36546e+06	-40739.1	955.82	-29789.5	0.000000	0.000000	7.168653	107.922	NaN	0.000000	0.001595	0.001725	28.0913	46.4965	0.001842	25238.5	5.593462	-3.095579	105.925	1.163518	0.042632	0.042257	107.922	25238.5	0.039425	0.062550	1725.38	92198.8
42	2.000000	1.166386	7.36546e+06	-40739.1	955.82	-29789.5	0.000000	0.000000	7.171523	117.086	NaN	0.000000	0.001608	0.001732	28.0817	48.4332	0.001753	27630	4.414672	177.041	116.234	1.166119	0.045125	0.044859	117.086	27630	0.041947	0.069157	1693.04	95991.9
42	2.000000	1.168865	7.36546e+06	-40739.1	955.82	-29789.5	0.000000	0.000000	7.174538	130.102	NaN	0.000000	0.001632	0.001706	28.1086	50.3399	0.001855	27133.6	3.976335	-1.820430	126.04	1.168497	0.047605	0.047236	130.102	27133.6	0.044009	0.074798	1739.39	90643.3
42	2.000000	1.171428	7.36546e+06	-40739.1	955.82	-29789.5	0.000000	0.000000	7.177662	143.778	NaN	0.000000	0.001676	0.001675	28.1304	52.2118	0.001641	31813.7	5.230511	175.324	146.221	1.171045	0.050168	0.049784	143.778	31813.7	0.046778	0.082715	1738.23	101064
42	2.000000	1.173893	7.36546e+06	-40739.1	955.819	-29789.5	0.000000	0.000000	7.180388	150.118	NaN	0.000000	0.001683	0.001668	28.0901	56.479	0.001859	30379.7	5.129859	-4.368638	147.878	1.173638	0.052632	0.052378	150.118	30379.7	0.048926	0.089123	1684.4	92974
42	2.000000	1.176321	7.36546e+06	-40739.1	955.819	-29789.5	0.000000	0.000000	7.183462	165.832	NaN	0.000000	0.001691	0.001676	28.0813	58.7816	0.001722	34134.4	5.812596	174.395	163.811	1.176028	0.055061	0.054768	165.832	34134.4	0.051417	0.096845	1712.35	100214
42	2.000000	1.178872	7.36546e+06	-40739.1	955.819	-29789.5	0.000000	0.000000	7.186577	179.554	NaN	0.000000	0.001590	0.001676	28.1084	60.3661	0.001683	35869.7	5.687285	-6.501294	176.237	1.178556	0.057611	0.057296	179.554	35869.7	0.053857	0.104707	1714.82	101277
42	2.000000	1.181377	7.36546e+06	-40739.1	955.82	-29789.5	0.000000	0.000000	7.189750	195.816	NaN	0.000000	0.001580	0.001677	28.1292	62.7912	0.001758	35723.9	5.139870	174.453	195.338	1.181023	0.060117	0.059763	195.816	35723.9	0.056006	0.111876	1750.3	97580.7
42	2.000000	1.183872	7.36546e+06	-40739.1	955.819	-29789.5	0.000000	0.000000	7.192677	206.305	NaN	0.000000	0.001568	0.001704	28.0891	66.1703	0.001729	38274.3	5.830147	-7.081020	205.742	1.183585	0.062612	0.062324	206.305	38274.3	0.058569	0.120729	1708.83	100641
42	2.000000	1.186306	7.36546e+06	-40739.1	955.82	-29789.5	0.000000	0.000000	7.196051	229.197	NaN	0.000000	0.001602	0.001717	28.0803	69.3907	0.001853	37442	6.173674	173.006	225.879	1.185985	0.065046	0.064725	229.197	37442	0.060455	0.127444	1798.41	95823.6
42	2.000000	1.188945	7.36546e+06	-40739.1	955.82	-29789.5	0.000000	0.000000	7.199165	240.767	NaN	0.000000	0.001616	0.001693	28.1068	70.5959	0.001730	40805.7	6.086485	-7.265077	242.507	1.188508	0.067684	0.067248	240.767	40805.7	0.063259	0.137754	1747.8	100448
42	2.000000	1.191328	7.36546e+06	-40739.1	955.82	-29789.5	0.000000	0.000000	7.202405	261.611	NaN	0.000000	0.001596	0.001711	28.1295	72.3153	0.001740	41568.9	3.054626	175.812	260.686	1.190961	0.070068	0.069700	261.611	41568.9	0.065348	0.145679	1795.8	99504.6
42	2.000000	1.193852	7.36546e+06	-40739.1	955.819	-29789.5	0.000000	0.000000	7.205509	275.715	NaN	0.000000	0.001579	0.001724	28.0901	76.4863	0.001771	43196.4	9.539569	-11.6962	272.615	1.193430	0.072592	0.072169	275.715	43196.4	0.067805	0.155274	1775.67	100155
42	2.000000	1.196218	7.36546e+06	-40739.1	955.819	-29789.5	0.000000	0.000000	7.208279	285.558	NaN	0.000000	0.001572	0.001725	28.0818	77.905	0.001780	43764.3	2.539141	175.124	278.263	1.195950	0.074957	0.074690	285.558	43764.3	0.070064	0.164348	1737.53	98630.6
42	2.000000	1.198933	7.36546e+06	-40739.1	955.819	-29789.5	0.000000	0.000000	7.211539	298.798	NaN	0.000000	0.001544	0.001734	28.1074	80.1304	0.001772	45210.6	3.944389	-6.354770	299.912	1.198704	0.077673	0.077444	298.798	45210.6	0.072716	0.175313	1704.37	98652.1
42	2.000000	1.201258	7.36546e+06	-40739.1	955.82	-29789.5	0.000000	0.000000	7.215014	326.811	NaN	0.000000	0.001558	0.001718	28.1294	81.9606	0.001749	46866	7.600318	169.692	323.764	1.200956	0.079997	0.079696	326.811	46866	0.074767	0.184020	1775.96	99815.6
42	2.000000	1.203797	7.36546e+06	-40739.1	955.819	-29789.5	0.000000	0.000000	7.218086	339.749	NaN	0.000000	0.001566	0.001713	28.0897	85.7066	0.001924	44551.2	6.664510	-8.631436	335.503	1.203390	0.082537	0.082129	339.749	44551.2	0.076818	0.192921	1761.07	92670.8
42	2.000000	1.206285	7.36546e+06	-40739.1	955.819	-29789.5	0.000000	0.000000	7.221192	354.804	NaN	0.000000	0.001575	0.001683	28.081	87.0213	0.001814	47982.4	4.819227	172.387	351.047	1.206063	0.085025	0.084802	354.804	47982.4	0.079479	0.204770	1732.7	96877.3
42	2.000000	1.208805	7.36546e+06	-40739.1	955.82	-29789.5	0.000000	0.000000	7.224508	374.197	NaN	0.000000	0.001585	0.001723	28.1072	88.8027	0.001810	49052.8	5.529301	-8.239649	369.29	1.208486	0.087544	0.087226	374.197	49052.8	0.081823	0.215479	1736.58	96546
42	2.000000	1.211289	7.36546e+06	-40739.1	955.819	-29789.5	0.000000	0.000000	7.227713	391.73	NaN	0.000000	0.001578	0.001736	28.1309	91.0114	0.001812	50235.4	4.193119	172.695	387.727	1.210960	0.090029	0.089700	391.73	50235.4	0.084180	0.226507	1729.44	96436.6
42	2.000000	1.213775	7.36546e+06	-40739.1	955.819	-29789.5	0.000000	0.000000	7.231139	414.599	NaN	0.000000	0.001590	0.001705	28.0927	93.4143	0.001819	51359.2	3.427442	-6.233854	409.535	1.213523	0.092514	0.092262	414.599	51359.2	0.086460	0.237416	1746.3	96302.2
42	2.000000	1.216336	7.36546e+06	-40739.1	955.819	-29789.5	0.000000	0.000000	7.234386	431.271	NaN	0.000000	0.001564	0.001695	28.0839	96.9505	0.001817	53364.9	5.024534	171.663	432.175	1.215990	0.095076	0.094729	431.271	53364.9	0.089015	0.249926	1725.59	97526.5
42	2.000000	1.218759	7.36546e+06	-40739.1	955.819	-29789.5	0.000000	0.000000	7.237742	453.989	NaN	0.000000	0.001559	0.001748	28.1081	97.8912	0.001806	54211	3.323004	-6.107118	447.7	1.218413	0.097498	0.097153	453.989	54211	0.091218	0.260952	1739.74	96957.3
42	2.000000	1.221261	7.36546e+06	-40739.1	955.82	-29789.5	0.000000	0.000000	7.241072	474.116	NaN	0.000000	0.001569	0.001707	28.1308	101.461	0.001775	57150.6	6.448238	169.507	470.226	1.220944	0.100001	0.099684	474.116	57150.6	0.093779	0.274054	1730.01	99741.6
42	2.000000	1.223760	7.36546e+06	-40739.1	955.82	-29789.5	0.000000	0.000000	7.244565	498.326	NaN	0.000000	0.001581	0.001738	28.0905	103.812	0.001738	59716.5	7.241081	-11.1768	494.338	1.223402	0.102500	0.102142	498.326	59716.5	0.096241	0.286929	1736.76	101855
42	2.000000	1.226326	7.36546e+06	-40739.1	955.82	-29789.5	0.000000	0.000000	7.247860	516.066	NaN	0.000000	0.001585	0.001699	28.0808	106.19	0.001608	66021.8	2.855759	172.108	513.272	1.225989	0.105065	0.104728	516.066	66021.8	0.099203	0.302784	1704.4	109621