File: remote_trans/data/nanoindenter/0828-1/data/Data_2025-08-06,11h17m57s/2025-07-22_16-23-58_1_325.txt
2025-07-22, 16:23:58, 1
Index	Phase	Displacement	Time	Pos X	Pos Y	Pos Z	Rot A	Rot B	Piezo Z	Force A	Force B	Gripper	Voltage A	Voltage B	Temperature	Amplitude force	Amplitude pos	Stiffness	Phase shift	Phase excitation	Force A raw	Displacement raw	HMax	HMax raw	Real Force	Real Stiffness	Contact Depth	Area	Hardness	Reduced Mod.
[#]	[#]	[um]	[s]	[um]	[um]	[um]	[m°]	[m°]	[um]	[uN]	[uN]	[V]	[V]	[V]	[°C]	[uN]	[um]	[N/m]	[°]	[°]	[uN]	[um]	[um]	[um]	[uN]	[N/m]	[um]	[um^2]	[MPa]	[MPa]
325	1.000000	0.002341	7.36824e+06	-54889.1	955.817	-29743	0.000000	0.000000	6.002800	-0.018571	NaN	0.000000	0.001688	0.001629	28.0794	0.191410	0.001012	189.223	150.67	-163.815	-0.017986	0.001105	-1.084985	-1.086221	-0.018571	189.223	-1.084911	-3.143956E+14	5.906761E-17	NaN
325	1.000000	0.010318	7.36824e+06	-54889.1	955.818	-29743	0.000000	0.000000	6.010778	0.019476	NaN	0.000000	0.001675	0.001650	28.079	0.031493	0.001076	29.262	-12.5422	-164.769	0.001082	0.008945	-1.077008	-1.078380	0.019476	29.262	-1.077507	-2.500532E+14	-7.788729E-17	NaN
325	1.000000	0.018288	7.36824e+06	-54889.1	955.818	-29743	0.000000	0.000000	6.018745	-0.063821	NaN	0.000000	0.001669	0.001643	28.078	0.120263	0.001698	70.845	-55.7361	-160.186	-0.050399	0.016925	-1.069038	-1.070401	-0.063821	70.845	-1.068362	-1.884453E+14	3.386686E-16	NaN
325	1.000000	0.026353	7.36824e+06	-54889.1	955.818	-29743	0.000000	0.000000	6.026810	-0.064384	NaN	0.000000	0.001671	0.001658	28.078	0.056506	0.001808	31.2485	-52.9501	-166.151	-0.035387	0.024994	-1.060973	-1.062331	-0.064384	31.2485	-1.059428	-1.429323E+14	4.504502E-16	NaN
325	1.000000	0.034284	7.36824e+06	-54889.1	955.817	-29743	0.000000	0.000000	6.034742	-0.042289	NaN	0.000000	0.001673	0.001626	28.0779	0.102340	0.001916	53.407	81.0344	-162.66	-0.042814	0.032960	-1.053041	-1.054366	-0.042289	53.407	-1.052447	-1.151624E+14	3.672102E-16	NaN
325	1.000000	0.042274	7.36824e+06	-54889.1	955.817	-29743	0.000000	0.000000	6.042732	-0.035724	NaN	0.000000	0.001679	0.001651	28.078	0.046131	0.002005	23.0072	35.6145	-164.391	0.062806	0.041009	-1.045051	-1.046316	-0.035724	23.0072	-1.043887	-8.835497E+13	4.043219E-16	NaN
325	1.000000	0.050285	7.36824e+06	-54889.1	955.818	-29743	0.000000	0.000000	6.050743	-0.040636	NaN	0.000000	0.001659	0.001667	28.0781	0.064275	0.002001	32.1148	49.0271	-167.803	-0.061043	0.048992	-1.037040	-1.038334	-0.040636	32.1148	-1.036091	-6.940712E+13	5.854743E-16	NaN
325	1.000000	0.058266	7.36824e+06	-54889.1	955.818	-29743	0.000000	0.000000	6.058724	-0.047497	NaN	0.000000	0.001663	0.001684	28.0782	0.081727	0.001986	41.1558	53.8848	-166.986	0.012100	0.056998	-1.029059	-1.030328	-0.047497	41.1558	-1.028194	-5.434819E+13	8.739403E-16	NaN
325	1.000000	0.066280	7.36824e+06	-54889.1	955.817	-29743	0.000000	0.000000	6.066741	0.016883	NaN	0.000000	0.001670	0.001693	28.078	0.125431	0.002084	60.1793	168.03	-164.512	0.036557	0.064963	-1.021045	-1.022362	0.016883	60.1793	-1.021256	-4.383770E+13	-3.851340E-16	NaN
325	1.000000	0.074306	7.36824e+06	-54889.1	955.818	-29743	0.000000	0.000000	6.074763	-0.054921	NaN	0.000000	0.001647	0.001656	28.0779	0.065431	0.002155	30.3665	-151.645	-164.683	-0.016671	0.073026	-1.013020	-1.014300	-0.054921	30.3665	-1.011663	-3.256615E+13	1.686430E-15	NaN
325	1.000000	0.082325	7.36824e+06	-54889.1	955.818	-29743	0.000000	0.000000	6.082783	-0.037790	NaN	0.000000	0.001655	0.001617	28.078	0.009264	0.001963	4.719293	172.974	-164.527	-0.040604	0.080985	-1.005001	-1.006341	-0.037790	4.719293	-0.998995	-2.199071E+13	1.718466E-15	NaN
325	1.000000	0.090268	7.36824e+06	-54889.1	955.817	-29743	0.000000	0.000000	6.090726	-0.043806	NaN	0.000000	0.001701	0.001656	28.0779	0.102832	0.001958	52.5249	-172.342	-163.471	-0.088561	0.088967	-0.997057	-0.998358	-0.043806	52.5249	-0.996432	-2.031059E+13	2.156799E-15	NaN
325	1.000000	0.098340	7.36824e+06	-54889.1	955.818	-29743	0.000000	0.000000	6.098799	-0.021098	NaN	0.000000	0.001673	0.001639	28.0782	0.077747	0.002071	37.5436	-53.2361	-161.916	0.013418	0.097015	-0.988986	-0.990310	-0.021098	37.5436	-0.988564	-1.591385E+13	1.325735E-15	NaN
325	1.000000	0.106320	7.36824e+06	-54889.1	955.817	-29743	0.000000	0.000000	6.106781	0.039370	NaN	0.000000	0.001656	0.001675	28.078	0.109136	0.002052	53.195	53.1631	-164.207	-0.008493	0.104989	-0.981006	-0.982337	0.039370	53.195	-0.981561	-1.280667E+13	-3.074163E-15	NaN
325	1.000000	0.114331	7.36824e+06	-54889.1	955.818	-29743	0.000000	0.000000	6.114788	-0.068276	NaN	0.000000	0.001583	0.001680	28.0779	0.056459	0.002079	27.161	-30.5641	-162.731	-0.119792	0.112991	-0.972995	-0.974335	-0.068276	27.161	-0.971109	-9.260052E+12	7.373126E-15	NaN
325	1.000000	0.122334	7.36824e+06	-54889.1	955.818	-29743	0.000000	0.000000	6.122793	-0.021230	NaN	0.000000	0.001592	0.001706	28.0787	0.053115	0.001923	27.6279	10.5691	-163.941	-0.034831	0.121017	-0.964992	-0.966308	-0.021230	27.6279	-0.964415	-7.523016E+12	2.822037E-15	NaN
325	1.000000	0.130306	7.36824e+06	-54889.1	955.818	-29743	0.000000	0.000000	6.130763	-0.056949	NaN	0.000000	0.001581	0.001732	28.0779	0.094262	0.001949	48.3644	172.552	-166.094	-0.025927	0.129005	-0.957020	-0.958321	-0.056949	48.3644	-0.956137	-5.818122E+12	9.788193E-15	NaN
325	1.000000	0.138327	7.36824e+06	-54889.1	955.818	-29743	0.000000	0.000000	6.138787	0.000698	NaN	0.000000	0.001607	0.001721	28.078	0.068429	0.001993	34.3342	86.0982	-165.653	-0.021439	0.137045	-0.948998	-0.950281	0.000698	34.3342	-0.949014	-4.663647E+12	-1.495909E-16	NaN
325	1.000000	0.146306	7.36824e+06	-54889.1	955.817	-29743	0.000000	0.000000	6.146765	3.098962E-5	NaN	0.000000	0.001618	0.001691	28.0779	0.008424	0.002005	4.200564	87.8709	-162.503	-0.082000	0.145000	-0.941020	-0.942326	3.098962E-5	4.200564	-0.941025	-3.638899E+12	-8.516208E-18	NaN
325	1.000000	0.154340	7.36824e+06	-54889.1	955.818	-29743	0.000000	0.000000	6.154797	-0.057118	NaN	0.000000	0.001581	0.001698	28.0787	0.074204	0.001914	38.7719	168.633	-162.551	-0.030031	0.153017	-0.932986	-0.934309	-0.057118	38.7719	-0.931881	-2.738950E+12	2.085389E-14	NaN
325	1.000000	0.162331	7.36824e+06	-54889.1	955.818	-29743	0.000000	0.000000	6.162790	0.003172	NaN	0.000000	0.001556	0.001714	28.0792	0.063571	0.002001	31.7668	162.017	-160.948	-0.060797	0.160980	-0.924995	-0.926346	0.003172	31.7668	-0.925070	-2.216417E+12	-1.431045E-15	NaN
325	1.000000	0.170342	7.36824e+06	-54889.1	955.818	-29743	0.000000	0.000000	6.170801	-0.013675	NaN	0.000000	0.001555	0.001687	28.0789	0.066074	0.002015	32.7988	-152.989	-167.229	0.009589	0.169016	-0.916983	-0.918310	-0.013675	32.7988	-0.916671	-1.707075E+12	8.010853E-15	NaN
325	1.000000	0.178310	7.36824e+06	-54889.1	955.819	-29743	0.000000	0.000000	6.178770	-0.001728	NaN	0.000000	0.001634	0.001658	28.0795	0.018504	0.001849	10.0064	150.858	-164.061	0.021824	0.176991	-0.909016	-0.910335	-0.001728	10.0064	-0.908886	-1.340034E+12	1.289507E-15	NaN
325	1.000000	0.186314	7.36824e+06	-54889.1	955.817	-29743	0.000000	0.000000	6.186770	-0.086612	NaN	0.000000	0.001602	0.001669	28.0789	0.037462	0.001927	19.438	-113.863	-164.228	-0.012755	0.185074	-0.901012	-0.902252	-0.086612	19.438	-0.897670	-9.453151E+11	9.162276E-14	NaN
325	1.000000	0.194366	7.36824e+06	-54889.1	955.817	-29743	0.000000	0.000000	6.194825	-0.019332	NaN	0.000000	0.001594	0.001683	28.0792	0.125870	0.002175	57.8588	72.0245	-167.451	0.005362	0.193059	-0.892959	-0.894266	-0.019332	57.8588	-0.892709	-8.100826E+11	2.386397E-14	NaN
325	1.000000	0.202346	7.36824e+06	-54889.1	955.818	-29743	0.000000	0.000000	6.202807	0.020656	NaN	0.000000	0.001622	0.001662	28.0789	0.087951	0.001992	44.1527	-157.499	-165.011	-0.062781	0.201016	-0.884979	-0.886310	0.020656	44.1527	-0.885330	-6.438429E+11	-3.208256E-14	NaN
325	1.000000	0.210341	7.36824e+06	-54889.1	955.818	-29743	0.000000	0.000000	6.210802	0.033546	NaN	0.000000	0.001603	0.001684	28.0789	0.064765	0.001904	34.0065	-156.875	-162.298	0.047585	0.209081	-0.876985	-0.878245	0.033546	34.0065	-0.877724	-5.080808E+11	-6.602536E-14	NaN
325	1.000000	0.218363	7.36824e+06	-54889.1	955.817	-29743	0.000000	0.000000	6.218820	-0.046488	NaN	0.000000	0.001610	0.001680	28.079	0.101579	0.001984	51.1979	57.5953	-165.634	-0.017288	0.217073	-0.868963	-0.870253	-0.046488	51.1979	-0.868282	-3.786171E+11	1.227833E-13	NaN
325	1.000000	0.226380	7.36824e+06	-54889.1	955.818	-29743	0.000000	0.000000	6.226839	-0.001601	NaN	0.000000	0.001607	0.001666	28.0789	0.015773	0.001955	8.066789	4.048726	-163.98	0.045600	0.225056	-0.860946	-0.862269	-0.001601	8.066789	-0.860797	-2.998535E+11	5.340893E-15	NaN
325	1.000000	0.234341	7.36824e+06	-54889.1	955.818	-29743	0.000000	0.000000	6.234800	-0.004938	NaN	0.000000	0.001597	0.001651	28.0793	0.011023	0.002044	5.391412	61.0933	-162.962	0.069539	0.233037	-0.852985	-0.854288	-0.004938	5.391412	-0.852298	-2.300651E+11	2.146358E-14	NaN
325	1.000000	0.242403	7.36825e+06	-54889.1	955.819	-29743	0.000000	0.000000	6.242861	-0.034527	NaN	0.000000	0.001606	0.001689	28.0789	0.068343	0.001992	34.312	53.2968	-163.576	0.004260	0.241078	-0.844923	-0.846248	-0.034527	34.312	-0.844168	-1.785493E+11	1.933776E-13	NaN
325	1.000000	0.250371	7.36825e+06	-54889.1	955.818	-29743	0.000000	0.000000	6.250832	0.039440	NaN	0.000000	0.001602	0.001671	28.079	0.083482	0.001981	42.1511	131.969	-164.606	-0.025672	0.249039	-0.836955	-0.838287	0.039440	42.1511	-0.837657	-1.457284E+11	-2.706439E-13	NaN
325	1.000000	0.258403	7.36825e+06	-54889.1	955.818	-29743	0.000000	0.000000	6.258863	0.001462	NaN	0.000000	0.001582	0.001696	28.079	0.042808	0.001996	21.4505	-142.318	-163.779	0.064223	0.257049	-0.828922	-0.830276	0.001462	21.4505	-0.828973	-1.111400E+11	-1.315670E-14	NaN
325	1.000000	0.266365	7.36825e+06	-54889.1	955.817	-29743	0.000000	0.000000	6.266825	0.012744	NaN	0.000000	0.001625	0.001677	28.079	0.076072	0.001849	41.1462	-94.918	-165.479	0.050485	0.265104	-0.820961	-0.822222	0.012744	41.1462	-0.821193	-8.717501E+10	-1.461830E-13	NaN
325	1.000000	0.274400	7.36825e+06	-54889.1	955.818	-29743	0.000000	0.000000	6.274858	-0.035345	NaN	0.000000	0.001601	0.001649	28.0793	0.071810	0.001984	36.1991	-66.6398	-163.472	-0.069859	0.273073	-0.812926	-0.814252	-0.035345	36.1991	-0.812193	-6.581525E+10	5.370269E-13	NaN
325	1.000000	0.282391	7.36825e+06	-54889.1	955.818	-29743	0.000000	0.000000	6.282853	0.036441	NaN	0.000000	0.001585	0.001669	28.0788	0.056750	0.001973	28.7569	-38.6637	-162.431	0.052080	0.281139	-0.804934	-0.806186	0.036441	28.7569	-0.805884	-5.404166E+10	-6.743139E-13	NaN
325	1.000000	0.290385	7.36825e+06	-54889.1	955.818	-29743	0.000000	0.000000	6.290845	0.017352	NaN	0.000000	0.001594	0.001687	28.0785	0.091991	0.002070	44.4506	25.8367	-162.115	-0.020784	0.289087	-0.796940	-0.798239	0.017352	44.4506	-0.797233	-4.123850E+10	-4.207818E-13	NaN
325	1.000000	0.298390	7.36825e+06	-54889.1	955.818	-29743	0.000000	0.000000	6.298847	-0.061025	NaN	0.000000	0.001589	0.001694	28.0777	0.055179	0.002141	25.7754	50.0551	-164.905	-0.058338	0.297105	-0.788936	-0.790220	-0.061025	25.7754	-0.787160	-3.009587E+10	2.027680E-12	NaN
325	1.000000	0.306410	7.36825e+06	-54889.1	955.818	-29743	0.000000	0.000000	6.306871	0.016407	NaN	0.000000	0.001577	0.001649	28.0776	0.055099	0.001951	28.244	123.366	-163.997	-0.004738	0.305004	-0.780915	-0.782321	0.016407	28.244	-0.781351	-2.509510E+10	-6.537900E-13	NaN
325	1.000000	0.314410	7.36825e+06	-54889.1	955.818	-29743	0.000000	0.000000	6.314870	0.016582	NaN	0.000000	0.001564	0.001626	28.078	0.046099	0.001972	23.3817	156.22	-163.76	0.010517	0.313058	-0.772915	-0.774267	0.016582	23.3817	-0.773447	-1.959620E+10	-8.461717E-13	NaN
325	1.000000	0.322412	7.36825e+06	-54889.1	955.818	-29743	0.000000	0.000000	6.322868	-0.088432	NaN	0.000000	0.001599	0.001703	28.0778	0.058894	0.002166	27.196	113.92	-164.74	-0.064210	0.321107	-0.764914	-0.766218	-0.088432	27.196	-0.762475	-1.389856E+10	6.362647E-12	NaN
325	1.000000	0.330426	7.36825e+06	-54889.1	955.819	-29743	0.000000	0.000000	6.330885	-0.017487	NaN	0.000000	0.001604	0.001662	28.0782	0.053484	0.001945	27.4986	-150.084	-163.559	-0.021689	0.329067	-0.756900	-0.758258	-0.017487	27.4986	-0.756423	-1.149821E+10	1.520844E-12	NaN
325	1.000000	0.338407	7.36825e+06	-54889.1	955.818	-29743	0.000000	0.000000	6.338864	-0.069199	NaN	0.000000	0.001600	0.001666	28.0778	0.027868	0.001938	14.3796	-118.841	-163.326	-0.070816	0.337064	-0.748919	-0.750262	-0.069199	14.3796	-0.745310	-8.116389E+9	8.525867E-12	NaN
325	1.000000	0.346426	7.36825e+06	-54889.1	955.818	-29743	0.000000	0.000000	6.346886	-0.003132	NaN	0.000000	0.001586	0.001666	28.0776	0.071634	0.002032	35.2492	-7.379273	-164.73	0.021117	0.345118	-0.740899	-0.742207	-0.003132	35.2492	-0.740832	-7.053325E+9	4.440787E-13	NaN
325	1.000000	0.354418	7.36825e+06	-54889.1	955.818	-29743	0.000000	0.000000	6.354875	-0.075464	NaN	0.000000	0.001584	0.001659	28.0779	0.113361	0.002055	55.1718	-169.515	-164.33	-0.115760	0.353135	-0.732907	-0.734191	-0.075464	55.1718	-0.731882	-5.326608E+9	1.416742E-11	NaN
325	1.000000	0.362391	7.36825e+06	-54889.1	955.818	-29743	0.000000	0.000000	6.362852	0.037609	NaN	0.000000	0.001603	0.001675	28.0776	0.149966	0.001955	76.6981	88.4665	-164.984	0.023369	0.361093	-0.724935	-0.726233	0.037609	76.6981	-0.725302	-4.332852E+9	-8.679999E-12	NaN
325	1.000000	0.370422	7.36825e+06	-54889.1	955.819	-29743	0.000000	0.000000	6.370881	-0.016099	NaN	0.000000	0.001573	0.001699	28.078	0.056935	0.001977	28.7986	68.2515	-167.246	-0.062725	0.369136	-0.716903	-0.718190	-0.016099	28.7986	-0.716484	-3.284849E+9	4.900843E-12	NaN
325	1.000000	0.378410	7.36825e+06	-54889.1	955.817	-29743	0.000000	0.000000	6.378868	-0.038507	NaN	0.000000	0.001596	0.001670	28.0778	0.019647	0.002033	9.662675	43.289	-167.193	-0.038820	0.377082	-0.708916	-0.710243	-0.038507	9.662675	-0.705927	-2.357514E+9	1.633378E-11	NaN
325	1.000000	0.386442	7.36825e+06	-54889.1	955.817	-29743	0.000000	0.000000	6.386903	0.017721	NaN	0.000000	0.001577	0.001654	28.0775	0.040758	0.001950	20.8995	28.7335	-165.321	0.050095	0.385107	-0.700883	-0.702219	0.017721	20.8995	-0.701519	-2.052481E+9	-8.634067E-12	NaN
325	1.000000	0.394388	7.36825e+06	-54889.1	955.817	-29743	0.000000	0.000000	6.394847	-0.031930	NaN	0.000000	0.001584	0.001677	28.0776	0.072381	0.001865	38.8053	-177.537	-161.882	-0.034898	0.393100	-0.692937	-0.694226	-0.031930	38.8053	-0.692320	-1.536821E+9	2.077645E-11	NaN
325	1.000000	0.402429	7.36825e+06	-54889.1	955.818	-29743	0.000000	0.000000	6.402888	-0.022109	NaN	0.000000	0.001623	0.001666	28.0776	0.010396	0.002009	5.173578	-136.961	-166.191	-0.057447	0.401133	-0.684896	-0.686193	-0.022109	5.173578	-0.681691	-1.099856E+9	2.010172E-11	NaN
325	1.000000	0.410427	7.36825e+06	-54889.1	955.818	-29743	0.000000	0.000000	6.410887	0.005470	NaN	0.000000	0.001590	0.001635	28.0778	0.041190	0.001838	22.4161	-102.267	-165.577	-0.054108	0.409103	-0.676899	-0.678223	0.005470	22.4161	-0.677082	-9.512366E+8	-5.750102E-12	NaN
325	1.000000	0.418466	7.36825e+06	-54889.1	955.817	-29743	0.000000	0.000000	6.418927	0.038090	NaN	0.000000	0.001591	0.001664	28.0776	0.116914	0.001947	60.0369	-114.772	-165.895	0.023436	0.417079	-0.668859	-0.670247	0.038090	60.0369	-0.669335	-7.452310E+8	-5.111139E-11	NaN
325	1.000000	0.426460	7.36825e+06	-54889.1	955.818	-29743	0.000000	0.000000	6.426917	-0.064052	NaN	0.000000	0.001572	0.001643	28.078	0.039108	0.001956	19.9945	102.032	-166.981	0.016996	0.425167	-0.660866	-0.662159	-0.064052	19.9945	-0.658463	-5.289485E+8	1.210927E-10	NaN
325	1.000000	0.434437	7.36825e+06	-54889.1	955.817	-29743	0.000000	0.000000	6.434897	0.006971	NaN	0.000000	0.001605	0.001649	28.0785	0.130039	0.002125	61.195	154.011	-168.734	-0.050236	0.433139	-0.652889	-0.654186	0.006971	61.195	-0.652974	-4.448405E+8	-1.566993E-11	NaN
325	1.000000	0.442460	7.36825e+06	-54889.1	955.818	-29743	0.000000	0.000000	6.442917	-0.057841	NaN	0.000000	0.001600	0.001664	28.0788	0.074363	0.001972	37.7128	-57.5468	-162.719	-0.012097	0.441165	-0.644866	-0.646160	-0.057841	37.7128	-0.643715	-3.320907E+8	1.741721E-10	NaN
325	1.000000	0.450450	7.36825e+06	-54889.1	955.817	-29743	0.000000	0.000000	6.450910	-0.012724	NaN	0.000000	0.001593	0.001668	28.0789	0.058175	0.002013	28.9007	-102.628	-169.505	-0.034169	0.449154	-0.636875	-0.638172	-0.012724	28.9007	-0.636545	-2.647750E+8	4.805465E-11	NaN
325	1.000000	0.458467	7.36825e+06	-54889.1	955.818	-29743	0.000000	0.000000	6.458924	-0.065407	NaN	0.000000	0.001587	0.001645	28.0789	0.088408	0.002060	42.9228	143.569	-163.3	-0.128236	0.457106	-0.628859	-0.630220	-0.065407	42.9228	-0.627716	-2.002870E+8	3.265683E-10	NaN
325	1.000000	0.466448	7.36825e+06	-54889.1	955.818	-29743	0.000000	0.000000	6.466904	-0.085280	NaN	0.000000	0.001601	0.001674	28.079	0.060071	0.001937	31.0086	-89.2301	-166.214	-0.075767	0.465143	-0.620877	-0.622182	-0.085280	31.0086	-0.618815	-1.511258E+8	5.642995E-10	NaN
325	1.000000	0.474460	7.36825e+06	-54889.1	955.818	-29743	0.000000	0.000000	6.474919	-0.028544	NaN	0.000000	0.001598	0.001658	28.0787	0.070946	0.002026	35.0099	-90.8794	-169.267	0.074059	0.473114	-0.612865	-0.614211	-0.028544	35.0099	-0.612254	-1.227780E+8	2.324808E-10	NaN
325	1.000000	0.482463	7.36825e+06	-54889.1	955.817	-29743	0.000000	0.000000	6.482921	-0.028053	NaN	0.000000	0.001603	0.001664	28.0789	0.068431	0.002032	33.6707	-125.955	-163.951	0.066986	0.481105	-0.604863	-0.606221	-0.028053	33.6707	-0.604238	-9.523826E+7	2.945604E-10	NaN
325	1.000000	0.490493	7.36825e+06	-54889.1	955.818	-29743	0.000000	0.000000	6.490953	0.003956	NaN	0.000000	0.001622	0.001662	28.0787	0.152125	0.001981	76.7777	113.032	-165.338	-0.058046	0.489174	-0.596832	-0.598152	0.003956	76.7777	-0.596871	-7.539778E+7	-5.247482E-11	NaN
325	1.000000	0.498458	7.36825e+06	-54889.1	955.817	-29743	0.000000	0.000000	6.498919	0.011762	NaN	0.000000	0.001583	0.001677	28.0786	0.089523	0.002067	43.3035	-26.9262	-164.017	0.087527	0.497175	-0.588867	-0.590150	0.011762	43.3035	-0.589071	-5.886482E+7	-1.998201E-10	NaN
325	1.000000	0.506467	7.36825e+06	-54889.1	955.818	-29743	0.000000	0.000000	6.506924	-0.060239	NaN	0.000000	0.001557	0.001632	28.0789	0.134976	0.002029	66.5141	147.653	-163.307	-0.068672	0.505200	-0.580858	-0.582125	-0.060239	66.5141	-0.580179	-4.438099E+7	1.357308E-9	NaN
325	1.000000	0.514490	7.36825e+06	-54889.1	955.818	-29743	0.000000	0.000000	6.514950	0.016258	NaN	0.000000	0.001554	0.001657	28.0787	0.054730	0.002105	26.0015	-6.657232	-163.658	0.006282	0.513218	-0.572836	-0.574108	0.016258	26.0015	-0.573305	-3.566889E+7	-4.558173E-10	NaN
325	1.000000	0.522482	7.36825e+06	-54889.1	955.817	-29743	0.000000	0.000000	6.522936	-0.130764	NaN	0.000000	0.001590	0.001646	28.079	0.061199	0.001795	34.0848	153.526	-168.778	-0.139837	0.521171	-0.564844	-0.566155	-0.130764	34.0848	-0.561966	-2.486430E+7	5.259105E-9	NaN
325	1.000000	0.530517	7.36825e+06	-54889.1	955.818	-29743	0.000000	0.000000	6.530974	-0.060178	NaN	0.000000	0.001591	0.001627	28.0786	0.129935	0.001911	67.977	-157.257	-162.799	-0.019137	0.529199	-0.556809	-0.558127	-0.060178	67.977	-0.556145	-2.065526E+7	2.913429E-9	NaN
325	1.000000	0.538525	7.36825e+06	-54889.1	955.818	-29743	0.000000	0.000000	6.538983	-0.023076	NaN	0.000000	0.001605	0.001622	28.0788	0.086643	0.002031	42.6691	78.8787	-163.955	-0.036325	0.537143	-0.548801	-0.550182	-0.023076	42.6691	-0.548395	-1.613343E+7	1.430313E-9	NaN
325	1.000000	0.546510	7.36825e+06	-54889.1	955.818	-29743	0.000000	0.000000	6.546970	0.007372	NaN	0.000000	0.001618	0.001686	28.0787	0.041364	0.002042	20.2553	-45.0393	-165.359	-0.024944	0.545219	-0.540815	-0.542107	0.007372	20.2553	-0.541088	-1.277762E+7	-5.769145E-10	NaN
325	1.000000	0.554487	7.36825e+06	-54889.1	955.818	-29743	0.000000	0.000000	6.554944	-0.052953	NaN	0.000000	0.001572	0.001669	28.0783	0.078268	0.001969	39.7524	-179.004	-165.545	-0.001487	0.553171	-0.532839	-0.534155	-0.052953	39.7524	-0.531840	-9.50868e+06	5.568930E-9	NaN
325	1.000000	0.562509	7.36825e+06	-54889.1	955.818	-29743	0.000000	0.000000	6.562970	0.037423	NaN	0.000000	0.001596	0.001681	28.0787	0.091956	0.002060	44.6341	-147.464	-164.798	0.077439	0.561256	-0.524817	-0.526069	0.037423	44.6341	-0.525446	-7.75007e+06	-4.828757E-9	NaN
325	1.000000	0.570513	7.36825e+06	-54889.1	955.818	-29743	0.000000	0.000000	6.570974	0.025962	NaN	0.000000	0.001583	0.001654	28.0775	0.171188	0.002117	80.8569	28.2371	-163.62	-0.023078	0.569204	-0.516813	-0.518121	0.025962	80.8569	-0.517053	-5.92392e+06	-4.382515E-9	NaN
325	1.000000	0.578525	7.36825e+06	-54889.1	955.817	-29743	0.000000	0.000000	6.578983	-0.038755	NaN	0.000000	0.001624	0.001616	28.0776	0.157748	0.002014	78.3127	-170.484	-167.786	0.025023	0.577201	-0.508800	-0.510124	-0.038755	78.3127	-0.508429	-4.49295e+06	8.625730E-9	NaN
325	1.000000	0.586511	7.36825e+06	-54889.1	955.818	-29743	0.000000	0.000000	6.586970	-0.023045	NaN	0.000000	0.001591	0.001627	28.0777	0.037096	0.001985	18.6874	-128.067	-164.181	-0.041115	0.585180	-0.500815	-0.502146	-0.023045	18.6874	-0.499890	-3.4157e+06	6.746760E-9	NaN
325	1.000000	0.594519	7.36825e+06	-54889.1	955.817	-29743	0.000000	0.000000	6.594979	0.022211	NaN	0.000000	0.001603	0.001622	28.0775	0.061246	0.001925	31.8145	118.878	-164.256	0.041087	0.593208	-0.492807	-0.494117	0.022211	31.8145	-0.493330	-2.76643e+06	-8.028739E-9	NaN
325	1.000000	0.602513	7.36825e+06	-54889.1	955.818	-29743	0.000000	0.000000	6.602971	-0.039117	NaN	0.000000	0.001630	0.001665	28.0776	0.016570	0.002119	7.819570	59.6361	-165.568	0.039396	0.601226	-0.484812	-0.486100	-0.039117	7.819570	-0.481060	-1.86368e+06	2.098924E-8	NaN
325	1.000000	0.610559	7.36825e+06	-54889.1	955.818	-29743	0.000000	0.000000	6.611016	-0.059633	NaN	0.000000	0.001605	0.001640	28.0776	0.089402	0.001841	48.5632	-156.158	-164.416	-0.000413	0.609207	-0.476766	-0.478119	-0.059633	48.5632	-0.475845	-1.57524e+06	3.785669E-8	NaN
325	1.000000	0.618522	7.36825e+06	-54889.1	955.818	-29743	0.000000	0.000000	6.618980	-0.044358	NaN	0.000000	0.001609	0.001639	28.0776	0.073691	0.002048	35.9823	-155.244	-167.664	-0.011631	0.617256	-0.468803	-0.470069	-0.044358	35.9823	-0.467878	-1.218e+06	3.641902E-8	NaN
325	1.000000	0.626538	7.36825e+06	-54889.1	955.819	-29743	0.000000	0.000000	6.626995	-0.060665	NaN	0.000000	0.001619	0.001667	28.0779	0.027293	0.001956	13.9525	57.1312	-165.133	-0.057244	0.625230	-0.460787	-0.462096	-0.060665	13.9525	-0.457526	-871462	6.961265E-8	NaN
325	1.000000	0.634512	7.36825e+06	-54889.1	955.818	-29743	0.000000	0.000000	6.634971	-0.036222	NaN	0.000000	0.001591	0.001674	28.0775	0.021790	0.002064	10.5589	-13.178	-165.335	-0.038655	0.633269	-0.452813	-0.454056	-0.036222	10.5589	-0.450240	-688219	5.263196E-8	NaN
325	1.000000	0.642527	7.36825e+06	-54889.1	955.818	-29743	0.000000	0.000000	6.642984	-0.057123	NaN	0.000000	0.001590	0.001655	28.0776	0.089426	0.001976	45.2564	-10.8067	-163.283	-0.058103	0.641202	-0.444799	-0.446124	-0.057123	45.2564	-0.443852	-559384	1.021174E-7	NaN
325	1.000000	0.650522	7.36825e+06	-54889.1	955.818	-29743	0.000000	0.000000	6.650981	-0.019750	NaN	0.000000	0.001602	0.001652	28.0776	0.075533	0.002052	36.8028	179.272	-162.091	-0.065334	0.649273	-0.436803	-0.438053	-0.019750	36.8028	-0.436401	-439079	4.497983E-8	NaN
325	1.000000	0.658543	7.36825e+06	-54889.1	955.817	-29743	0.000000	0.000000	6.659004	0.035673	NaN	0.000000	0.001605	0.001572	28.0776	0.064190	0.001980	32.4125	176.122	-162.846	-0.023202	0.657240	-0.428782	-0.430086	0.035673	32.4125	-0.429608	-351977	-1.013512E-7	NaN
325	1.000000	0.666543	7.36825e+06	-54889.1	955.818	-29743	0.000000	0.000000	6.667004	0.015668	NaN	0.000000	0.001599	0.001600	28.0778	0.021403	0.001965	10.8935	-58.1891	-165.597	0.022489	0.665219	-0.420782	-0.422107	0.015668	10.8935	-0.421861	-273403	-5.730857E-8	NaN
325	1.000000	0.674523	7.36825e+06	-54889.1	955.819	-29743	0.000000	0.000000	6.674980	-0.052599	NaN	0.000000	0.001609	0.001590	28.0777	0.085505	0.002039	41.9379	150.679	-163.538	-0.129553	0.673255	-0.412803	-0.414071	-0.052599	41.9379	-0.411862	-197187	2.667447E-7	NaN
325	1.000000	0.682566	7.36825e+06	-54889.1	955.817	-29743	0.000000	0.000000	6.683023	-0.082413	NaN	0.000000	0.001610	0.001628	28.0779	0.058413	0.002060	28.357	167.145	-166.211	-0.021691	0.681297	-0.404759	-0.406028	-0.082413	28.357	-0.402579	-145467	5.665384E-7	NaN
325	1.000000	0.690577	7.36825e+06	-54889.1	955.818	-29743	0.000000	0.000000	6.691037	0.006595	NaN	0.000000	0.001606	0.001624	28.0777	0.068692	0.001909	35.9874	-115.219	-166.906	-0.070484	0.689189	-0.396748	-0.398137	0.006595	35.9874	-0.396885	-120658	-5.465517E-8	NaN
325	1.000000	0.698569	7.36825e+06	-54889.1	955.819	-29743	0.000000	0.000000	6.699027	-0.059707	NaN	0.000000	0.001589	0.001616	28.0777	0.027875	0.001994	13.9809	-10.2726	-164.608	-0.137886	0.697228	-0.388756	-0.390098	-0.059707	13.9809	-0.385553	-83083	7.186409E-7	NaN
325	1.000000	0.706588	7.36825e+06	-54889.1	955.818	-29743	0.000000	0.000000	6.707046	-0.033829	NaN	0.000000	0.001621	0.001625	28.0788	0.067682	0.002020	33.5101	-171.037	-164.31	-0.039571	0.705188	-0.380738	-0.382138	-0.033829	33.5101	-0.379981	-69121.5	4.894138E-7	NaN
325	1.000000	0.714572	7.36825e+06	-54889.1	955.817	-29743	0.000000	0.000000	6.715029	-0.062533	NaN	0.000000	0.001580	0.001600	28.0791	0.043462	0.001998	21.7504	131.026	-165.671	-0.071959	0.713290	-0.372754	-0.374035	-0.062533	21.7504	-0.370597	-50667.5	1.234190E-6	NaN
325	1.000000	0.722606	7.36825e+06	-54889.1	955.818	-29743	0.000000	0.000000	6.723065	-0.026251	NaN	0.000000	0.001581	0.001596	28.0791	0.138292	0.001923	71.93	16.0199	-164.808	-0.011967	0.721295	-0.364719	-0.366031	-0.026251	71.93	-0.364446	-41310.2	6.354695E-7	NaN
325	1.000000	0.730586	7.36825e+06	-54889.1	955.818	-29743	0.000000	0.000000	6.731044	-0.042093	NaN	0.000000	0.001553	0.001610	28.079	0.045654	0.002013	22.6784	0.881176	-165.577	-0.110402	0.729301	-0.356739	-0.358025	-0.042093	22.6784	-0.355347	-30515.8	1.379370E-6	NaN
325	1.000000	0.738584	7.36825e+06	-54889.1	955.817	-29743	0.000000	0.000000	6.739045	0.032539	NaN	0.000000	0.001628	0.001626	28.0789	0.082154	0.002024	40.5945	95.1177	-165.211	-0.061363	0.737246	-0.348742	-0.350080	0.032539	40.5945	-0.349343	-24972.7	-1.302966E-6	NaN
325	1.000000	0.746571	7.36825e+06	-54889.1	955.818	-29743	0.000000	0.000000	6.747027	-0.090684	NaN	0.000000	0.001591	0.001620	28.0789	0.016269	0.002038	7.984626	18.2851	-166.905	-0.062229	0.745256	-0.340755	-0.342069	-0.090684	7.984626	-0.332237	-14066.7	6.446714E-6	NaN
325	1.000000	0.754565	7.36825e+06	-54889.1	955.818	-29743	0.000000	0.000000	6.755025	-0.000750	NaN	0.000000	0.001576	0.001625	28.079	0.068360	0.002033	33.6306	25.6666	-164.556	-0.077815	0.753310	-0.332760	-0.334016	-0.000750	33.6306	-0.332744	-14308.9	5.244794E-8	NaN
325	1.000000	0.762576	7.36825e+06	-54889.1	955.817	-29743	0.000000	0.000000	6.763037	0.022428	NaN	0.000000	0.001558	0.001667	28.079	0.080314	0.002009	39.9672	113.121	-167.252	0.008087	0.761309	-0.324749	-0.326017	0.022428	39.9672	-0.325170	-11082.4	-2.023778E-6	NaN
325	1.000000	0.770613	7.36825e+06	-54889.1	955.817	-29743	0.000000	0.000000	6.771069	-0.072935	NaN	0.000000	0.001586	0.001658	28.0794	0.048452	0.001858	26.071	104.041	-165.115	-0.085466	0.769269	-0.316713	-0.318056	-0.072935	26.071	-0.314615	-7749.26	9.411836E-6	NaN
325	1.000000	0.778613	7.36825e+06	-54889.1	955.818	-29743	0.000000	0.000000	6.779070	-0.075248	NaN	0.000000	0.001608	0.001606	28.0792	0.080822	0.001969	41.055	-75.8182	-165.487	-0.020628	0.777287	-0.308712	-0.310039	-0.075248	41.055	-0.307338	-6048.24	1.244128E-5	NaN
325	1.000000	0.786612	7.36825e+06	-54889.1	955.818	-29743	0.000000	0.000000	6.787073	0.036732	NaN	0.000000	0.001586	0.001619	28.0789	0.050446	0.001941	25.9838	-78.1834	-164.779	-0.006207	0.785276	-0.300714	-0.302049	0.036732	25.9838	-0.301774	-5000.7	-7.345342E-6	NaN
325	1.000000	0.794597	7.36825e+06	-54889.1	955.818	-29743	0.000000	0.000000	6.795056	-0.009475	NaN	0.000000	0.001590	0.001595	28.0789	0.020723	0.001913	10.8305	-13.4567	-161.377	0.043138	0.793249	-0.292728	-0.294077	-0.009475	10.8305	-0.292072	-3583.65	2.644025E-6	NaN
325	1.000000	0.802593	7.36825e+06	-54889.1	955.818	-29743	0.000000	0.000000	6.803049	-0.078931	NaN	0.000000	0.001588	0.001629	28.079	0.036465	0.002036	17.9085	-66.26	-164.278	-0.017330	0.801343	-0.284733	-0.285983	-0.078931	17.9085	-0.281427	-2480.24	3.182397E-5	NaN
325	1.000000	0.810616	7.36825e+06	-54889.1	955.818	-29743	0.000000	0.000000	6.811074	-0.036280	NaN	0.000000	0.001553	0.001630	28.0792	0.046715	0.002082	22.4339	177.035	-162.898	-0.100242	0.809291	-0.276710	-0.278035	-0.036280	22.4339	-0.275497	-2018.01	1.797815E-5	NaN
325	1.000000	0.818608	7.36825e+06	-54889.1	955.819	-29743	0.000000	0.000000	6.819068	0.011332	NaN	0.000000	0.001548	0.001627	28.0791	0.111727	0.001835	60.8864	106.405	-165.051	-0.021366	0.817290	-0.268718	-0.270035	0.011332	60.8864	-0.268857	-1600.17	-7.082000E-6	NaN
325	1.000000	0.826637	7.36825e+06	-54889.1	955.818	-29743	0.000000	0.000000	6.827091	-0.131358	NaN	0.000000	0.001566	0.001629	28.079	0.063707	0.001934	32.9439	-138.578	-163.706	-0.113952	0.825324	-0.260689	-0.262002	-0.131358	32.9439	-0.257699	-1080.46	0.000122	NaN
325	1.000000	0.834643	7.36825e+06	-54889.1	955.818	-29743	0.000000	0.000000	6.835101	-0.042815	NaN	0.000000	0.001595	0.001630	28.0793	0.004301	0.002064	2.084094	-104.997	-165.773	-0.018023	0.833269	-0.252682	-0.254057	-0.042815	2.084094	-0.237275	-521.101	8.216287E-5	NaN
325	1.000000	0.842639	7.36825e+06	-54889.1	955.817	-29743	0.000000	0.000000	6.843097	-0.047764	NaN	0.000000	0.001646	0.001643	28.0777	0.108381	0.002033	53.2994	78.9114	-164.542	-0.045044	0.841313	-0.244686	-0.246013	-0.047764	53.2994	-0.244014	-663.935	7.194058E-5	NaN
325	1.000000	0.850633	7.36825e+06	-54889.1	955.819	-29743	0.000000	0.000000	6.851090	-0.056740	NaN	0.000000	0.001673	0.001669	28.0777	0.152995	0.001945	78.6431	-50.2273	-164.641	-0.140970	0.849373	-0.236693	-0.237953	-0.056740	78.6431	-0.236152	-500.403	0.000113	NaN
325	1.000000	0.858608	7.36825e+06	-54889.1	955.818	-29743	0.000000	0.000000	6.859066	-0.035009	NaN	0.000000	0.001583	0.001663	28.0778	0.019878	0.002068	9.612788	-115.024	-168.355	-0.000305	0.857281	-0.228718	-0.230044	-0.035009	9.612788	-0.225986	-345.933	0.000101	NaN
325	1.000000	0.866644	7.36825e+06	-54889.1	955.819	-29743	0.000000	0.000000	6.867104	0.008624	NaN	0.000000	0.001585	0.001643	28.0779	0.032036	0.001970	16.2627	81.2819	-166.631	0.037075	0.865314	-0.220682	-0.222011	0.008624	16.2627	-0.221080	-289.012	-2.983973E-5	NaN
325	1.000000	0.874648	7.36825e+06	-54889.1	955.817	-29743	0.000000	0.000000	6.875106	-0.021805	NaN	0.000000	0.001575	0.001630	28.0781	0.118984	0.002022	58.8392	167.11	-164.579	-0.027090	0.873272	-0.212678	-0.214054	-0.021805	58.8392	-0.212400	-209.71	0.000104	NaN
325	1.000000	0.882656	7.36825e+06	-54889.1	955.817	-29743	0.000000	0.000000	6.883115	-0.015702	NaN	0.000000	0.001660	0.001635	28.0777	0.133542	0.002082	64.1289	-142.55	-165.294	-0.099824	0.881368	-0.204670	-0.205958	-0.015702	64.1289	-0.204486	-156.018	0.000101	NaN
325	1.000000	0.890662	7.36825e+06	-54889.1	955.817	-29743	0.000000	0.000000	6.891120	-0.035037	NaN	0.000000	0.001679	0.001644	28.0777	0.053363	0.001985	26.8808	58.4571	-164.844	-0.056485	0.889320	-0.196663	-0.198005	-0.035037	26.8808	-0.195686	-111.83	0.000313	NaN
325	1.000000	0.898680	7.36825e+06	-54889.1	955.818	-29743	0.000000	0.000000	6.899137	-0.082453	NaN	0.000000	0.001644	0.001619	28.0776	0.062284	0.001993	31.2507	-49.244	-165.575	-0.013846	0.897378	-0.188645	-0.189948	-0.082453	31.2507	-0.186666	-79.0998	0.001042	NaN
325	1.000000	0.906675	7.36825e+06	-54889.1	955.817	-29743	0.000000	0.000000	6.907137	0.057094	NaN	0.000000	0.001660	0.001644	28.0778	0.017442	0.001965	8.873912	91.484	-163.714	0.070565	0.905342	-0.180650	-0.181984	0.057094	8.873912	-0.185476	-75.5353	-0.000756	NaN
325	1.000000	0.914634	7.36825e+06	-54889.1	955.818	-29743	0.000000	0.000000	6.915092	-0.020298	NaN	0.000000	0.001646	0.001637	28.0781	0.092336	0.002027	45.5444	127.876	-163.536	0.007923	0.913409	-0.172692	-0.173917	-0.020298	45.5444	-0.172358	-45.1287	0.000450	NaN
325	1.000000	0.922660	7.36825e+06	-54889.1	955.818	-29743	0.000000	0.000000	6.923118	-0.044141	NaN	0.000000	0.001632	0.001666	28.0777	0.136457	0.002018	67.6295	-147.3	-165.965	-0.032784	0.921394	-0.164666	-0.165932	-0.044141	67.6295	-0.164176	-32.4955	0.001358	NaN
325	1.000000	0.930643	7.36825e+06	-54889.1	955.817	-29743	0.000000	0.000000	6.931105	0.045234	NaN	0.000000	0.001677	0.001661	28.0781	0.022477	0.002056	10.9327	-62.1865	-167.533	0.005356	0.929340	-0.156682	-0.157985	0.045234	10.9327	-0.159785	-27.1752	-0.001665	NaN
325	1.000000	0.938674	7.36825e+06	-54889.1	955.817	-29743	0.000000	0.000000	6.939134	0.015458	NaN	0.000000	0.001673	0.001653	28.0781	0.078775	0.001779	44.2745	-18.6328	-164.669	-0.018352	0.937367	-0.148652	-0.149958	0.015458	44.2745	-0.148914	-17.3046	-0.000893	NaN
325	1.000000	0.946679	7.36825e+06	-54889.1	955.817	-29743	0.000000	0.000000	6.947139	-0.009329	NaN	0.000000	0.001666	0.001678	28.0778	0.072104	0.002111	34.1624	130.443	-161.272	-0.002729	0.945339	-0.140646	-0.141986	-0.009329	34.1624	-0.140441	-12.0574	0.000774	NaN
325	1.000000	0.954661	7.36825e+06	-54889.1	955.818	-29743	0.000000	0.000000	6.955119	-0.020492	NaN	0.000000	0.001675	0.001624	28.078	0.106188	0.002088	50.8585	-71.0761	-168.684	0.031694	0.953345	-0.132665	-0.133981	-0.020492	50.8585	-0.132363	-8.466740	0.002420	NaN
325	1.000000	0.962703	7.36825e+06	-54889.1	955.818	-29743	0.000000	0.000000	6.963161	-0.041868	NaN	0.000000	0.001642	0.001662	28.078	0.050995	0.001983	25.7146	-88.7023	-165.766	0.008912	0.961385	-0.124623	-0.125940	-0.041868	25.7146	-0.123401	-5.652801	0.007407	NaN
325	1.000000	0.970691	7.36825e+06	-54889.1	955.818	-29743	0.000000	0.000000	6.971149	-0.024801	NaN	0.000000	0.001653	0.001602	28.0778	0.062242	0.002000	31.1135	-27.8841	-164.205	-0.066166	0.969320	-0.116635	-0.118005	-0.024801	31.1135	-0.116037	-4.012672	0.006181	NaN
325	1.000000	0.978683	7.36825e+06	-54889.1	955.818	-29743	0.000000	0.000000	6.979144	0.030560	NaN	0.000000	0.001577	0.001662	28.0792	0.012196	0.002032	6.002420	81.6433	-163.812	-0.031479	0.977367	-0.108642	-0.109959	0.030560	6.002420	-0.112460	-3.384233	-0.009030	NaN
325	1.000000	0.986705	7.36825e+06	-54889.1	955.819	-29743	0.000000	0.000000	6.987164	-0.032316	NaN	0.000000	0.001612	0.001659	28.0791	0.105619	0.001971	53.5919	87.4392	-165.568	-0.039708	0.985449	-0.100620	-0.101876	-0.032316	53.5919	-0.100168	-1.842877	0.017536	NaN
325	1.000000	0.994694	7.36825e+06	-54889.1	955.818	-29743	0.000000	0.000000	6.995149	-0.116291	NaN	0.000000	0.001596	0.001647	28.0792	0.062397	0.001978	31.5405	164.676	-161.993	-0.079885	0.993378	-0.092632	-0.093948	-0.116291	31.5405	-0.089866	-1.073202	0.108359	NaN
325	1.000000	1.002700	7.36825e+06	-54889.1	955.817	-29743	0.000000	0.000000	7.003157	-0.057713	NaN	0.000000	0.001630	0.001640	28.0792	0.055899	0.002042	27.3787	-50.8887	-161.926	-0.064114	1.001395	-0.084626	-0.085931	-0.057713	27.3787	-0.083045	-0.736307	0.078382	NaN
325	1.000000	1.010669	7.36825e+06	-54889.1	955.817	-29743	0.000000	0.000000	7.011130	0.017783	NaN	0.000000	0.001591	0.001655	28.0793	0.075737	0.002130	35.5565	-149.667	-166.436	-0.044343	1.009372	-0.076656	-0.077954	0.017783	35.5565	-0.077031	-0.520837	-0.034142	NaN
325	1.000000	1.018684	7.36825e+06	-54889.1	955.817	-29743	0.000000	0.000000	7.019142	-0.047494	NaN	0.000000	0.001585	0.001659	28.0793	0.057134	0.001944	29.3941	23.6145	-165.152	-0.116501	1.017391	-0.068642	-0.069935	-0.047494	29.3941	-0.067430	-0.290678	0.163390	NaN
325	1.000000	1.026744	7.36825e+06	-54889.1	955.817	-29743	0.000000	0.000000	7.027207	0.085870	NaN	0.000000	0.001602	0.001654	28.0791	0.073667	0.001989	37.032	-110.332	-164.941	0.082835	1.025369	-0.060582	-0.061957	0.085870	37.032	-0.062321	-0.209683	-0.409521	NaN
325	1.000000	1.034700	7.36825e+06	-54889.1	955.818	-29743	0.000000	0.000000	7.035157	-0.057808	NaN	0.000000	0.001573	0.001662	28.0786	0.081220	0.001948	41.6956	-84.9853	-171.108	0.000672	1.033396	-0.052625	-0.053929	-0.057808	41.6956	-0.051586	-0.101869	0.567477	NaN
325	1.000000	1.042705	7.36825e+06	-54889.1	955.817	-29743	0.000000	0.000000	7.043164	-0.011551	NaN	0.000000	0.001566	0.001628	28.0789	0.096789	0.001938	49.9386	-86.3498	-161.558	0.056016	1.041384	-0.044620	-0.045942	-0.011551	49.9386	-0.044447	-0.061813	0.186862	NaN
325	1.000000	1.050709	7.36825e+06	-54889.1	955.818	-29743	0.000000	0.000000	7.051168	-0.025317	NaN	0.000000	0.001571	0.001665	28.079	0.048545	0.002004	24.2243	41.8192	-163.904	-0.073725	1.049407	-0.036617	-0.037918	-0.025317	24.2243	-0.035833	-0.033892	0.746991	NaN
325	1.000000	1.058692	7.36825e+06	-54889.1	955.817	-29743	0.000000	0.000000	7.059152	0.006479	NaN	0.000000	0.001585	0.001650	28.0791	0.025303	0.002026	12.4869	140.033	-165.802	0.017638	1.057350	-0.028633	-0.029976	0.006479	12.4869	-0.029022	-0.021622	-0.299622	NaN
325	1.000000	1.066692	7.36825e+06	-54889.1	955.819	-29743	0.000000	0.000000	7.067153	0.032572	NaN	0.000000	0.001584	0.001657	28.0793	0.113656	0.002004	56.7268	-5.773509	-162.85	-0.005146	1.065405	-0.020633	-0.021921	0.032572	56.7268	-0.021064	-0.013368	-2.436598	NaN
325	1.000000	1.074688	7.36825e+06	-54889.1	955.817	-29743	0.000000	0.000000	7.075148	0.009275	NaN	0.000000	0.001623	0.001693	28.079	0.044295	0.001926	23.0002	9.100808	-162.633	0.004359	1.073405	-0.012638	-0.013920	0.009275	23.0002	-0.012940	-0.008068	-1.149668	NaN
325	1.000000	1.082734	7.36825e+06	-54889.1	955.819	-29743	0.000000	0.000000	7.083191	-0.058858	NaN	0.000000	0.001591	0.001655	28.079	0.028410	0.002006	14.1634	-18.3337	-166.714	-0.108236	1.081419	-0.004591	-0.005907	-0.058858	14.1634	-0.001475	-0.001072	54.9285	NaN
325	1.000000	1.090698	7.36825e+06	-54889.1	955.818	-29743	0.000000	0.000000	7.091252	2.296516	NaN	0.000000	0.001563	0.001665	28.079	2.938243	0.001945	1510.87	8.815166	-168.237	1.033083	1.089412	0.003372	0.002086	2.296516	1510.87	0.002232	0.001743	1317.28	33060.1
325	2.000000	1.097272	7.36825e+06	-54889.1	955.818	-29743	0.000000	0.000000	7.098125	9.561678	NaN	0.000000	0.001592	0.001661	28.0793	8.993660	0.001565	5748.39	10.1262	-174.017	10.0485	1.096904	0.009946	0.009579	9.561678	5748.39	0.008698	0.007771	1230.49	59578.7
325	2.000000	1.099310	7.36825e+06	-54889.1	955.817	-29743	0.000000	0.000000	7.100283	12.4775	NaN	0.000000	0.001533	0.001659	28.0792	11.4706	0.001722	6660.41	8.723547	-171.792	12.0696	1.098917	0.011985	0.011591	12.4775	6660.41	0.010580	0.009833	1268.99	61367.5
325	2.000000	1.101262	7.36825e+06	-54889.1	955.818	-29743	0.000000	0.000000	7.102304	14.1436	NaN	0.000000	0.001624	0.001670	28.0777	13.3145	0.001809	7358.17	9.351222	-174.614	14.018	1.100906	0.013937	0.013580	14.1436	7358.17	0.012495	0.012088	1170.03	61145
325	2.000000	1.103223	7.36825e+06	-54889.1	955.818	-29743	0.000000	0.000000	7.104401	17.4565	NaN	0.000000	0.001595	0.001643	28.078	15.5127	0.001767	8778.31	4.620249	-172.112	17.3641	1.102942	0.015898	0.015616	17.4565	8778.31	0.014406	0.014502	1203.77	66600.3
325	2.000000	1.105224	7.36825e+06	-54889.1	955.818	-29743	0.000000	0.000000	7.106582	21.8445	NaN	0.000000	0.001580	0.001684	28.0778	16.8948	0.001684	10031.4	6.138468	-175.083	21.6706	1.104918	0.017898	0.017592	21.8445	10031.4	0.016265	0.017010	1284.25	70273.1
325	2.000000	1.107203	7.36825e+06	-54889.1	955.818	-29743	0.000000	0.000000	7.108729	25.9183	NaN	0.000000	0.001575	0.001640	28.0783	19.7068	0.001782	11057.7	3.689040	-173.18	26.2459	1.106860	0.019878	0.019534	25.9183	11057.7	0.018120	0.019673	1317.44	72027.9
325	2.000000	1.109252	7.36825e+06	-54889.1	955.819	-29743	0.000000	0.000000	7.111000	31.3336	NaN	0.000000	0.001600	0.001646	28.078	22.0071	0.001737	12672.3	5.409034	-176.865	31.3643	1.108889	0.021926	0.021563	31.3336	12672.3	0.020072	0.022655	1383.07	76921
325	2.000000	1.111188	7.36825e+06	-54889.1	955.819	-29743	0.000000	0.000000	7.113209	37.9687	NaN	0.000000	0.001578	0.001667	28.0777	24.0001	0.001761	13626.1	1.833484	-173.645	37.0137	1.110854	0.023862	0.023528	37.9687	13626.1	0.021772	0.025404	1494.6	78108
325	2.000000	1.113185	7.36825e+06	-54889.1	955.819	-29743	0.000000	0.000000	7.115491	44.8845	NaN	0.000000	0.001607	0.001684	28.0781	26.1001	0.001759	14833.9	2.918455	-175.426	43.5403	1.112875	0.025859	0.025549	44.8845	14833.9	0.023590	0.028500	1574.88	80279.6
325	2.000000	1.115149	7.36825e+06	-54889.1	955.818	-29743	0.000000	0.000000	7.117719	51.3043	NaN	0.000000	0.001586	0.001647	28.0776	27.2874	0.001736	15719.9	3.799729	-175.331	49.947	1.114802	0.027823	0.027477	51.3043	15719.9	0.025376	0.031703	1618.3	80663.3
325	2.000000	1.117117	7.36825e+06	-54889.1	955.819	-29743	0.000000	0.000000	7.119773	53.3905	NaN	0.000000	0.001592	0.001611	28.0782	30.1588	0.001919	15717.9	4.295709	-176.127	52.0801	1.116868	0.029791	0.029542	53.3905	15717.9	0.027244	0.035224	1515.73	76515
325	2.000000	1.119191	7.36825e+06	-54889.1	955.819	-29743	0.000000	0.000000	7.122227	62.6314	NaN	0.000000	0.001573	0.001620	28.0781	31.8467	0.001665	19130.5	6.217687	178.364	61.9266	1.118785	0.031866	0.031459	62.6314	19130.5	0.029410	0.039530	1584.4	87909.3
325	2.000000	1.121130	7.36825e+06	-54889.1	955.819	-29743	0.000000	0.000000	7.124438	69.2559	NaN	0.000000	0.001561	0.001637	28.0779	33.4277	0.001711	19540.6	3.856085	-179.521	67.4626	1.120773	0.033804	0.033447	69.2559	19540.6	0.031146	0.043152	1604.92	85942.7
325	2.000000	1.123121	7.36825e+06	-54889.1	955.82	-29743	0.000000	0.000000	7.126590	73.1613	NaN	0.000000	0.001531	0.001658	28.0783	35.1072	0.001730	20289.3	1.624080	-177.461	71.4013	1.122922	0.035795	0.035596	73.1613	20289.3	0.033091	0.047394	1543.7	85149.2
325	2.000000	1.125097	7.36825e+06	-54889.1	955.819	-29743	0.000000	0.000000	7.128953	82.5656	NaN	0.000000	0.001533	0.001673	28.0778	36.4182	0.001841	19783.3	3.255521	-177.079	80.2682	1.124736	0.037771	0.037410	82.5656	19783.3	0.034641	0.050914	1621.68	80104.2
325	2.000000	1.127152	7.36825e+06	-54889.1	955.821	-29743	0.000000	0.000000	7.131106	84.9543	NaN	0.000000	0.001580	0.001676	28.0788	39.1249	0.001824	21452.8	4.513910	179.952	84.2082	1.126826	0.039827	0.039501	84.9543	21452.8	0.036857	0.056157	1512.8	82709.3
325	2.000000	1.129184	7.36825e+06	-54889.1	955.82	-29743	0.000000	0.000000	7.133412	91.629	NaN	0.000000	0.001567	0.001665	28.078	40.695	0.001715	23730.3	5.707244	178.489	91.9559	1.128872	0.041858	0.041546	91.629	23730.3	0.038962	0.061373	1492.97	87515.6
325	2.000000	1.131130	7.36825e+06	-54889.1	955.819	-29743	0.000000	0.000000	7.135698	99.8797	NaN	0.000000	0.001570	0.001650	28.078	41.6308	0.001740	23921.1	0.977347	-177.911	99.4199	1.130808	0.043804	0.043483	99.8797	23921.1	0.040673	0.065778	1518.43	85214.4
325	2.000000	1.133106	7.36825e+06	-54889.1	955.819	-29743	0.000000	0.000000	7.138011	108.057	NaN	0.000000	0.001599	0.001697	28.0784	44.6109	0.001797	24827.9	3.858594	178.388	105.122	1.132781	0.045780	0.045456	108.057	24827.9	0.042516	0.070693	1528.54	85315.2
325	2.000000	1.135126	7.36825e+06	-54889.1	955.819	-29743	0.000000	0.000000	7.140411	117.296	NaN	0.000000	0.001571	0.001642	28.0793	46.0106	0.001844	24955.1	5.943802	176.935	116.196	1.134820	0.047801	0.047495	117.296	24955.1	0.044276	0.075544	1552.68	82953.1
325	2.000000	1.137071	7.36825e+06	-54889.1	955.82	-29743	0.000000	0.000000	7.142743	126.718	NaN	0.000000	0.001547	0.001675	28.0799	48.3154	0.001722	28061.9	7.088842	174.482	124.349	1.136817	0.049745	0.049491	126.718	28061.9	0.046358	0.081490	1555.02	89812.8
325	2.000000	1.139222	7.36825e+06	-54889.1	955.819	-29743	0.000000	0.000000	7.145196	134.048	NaN	0.000000	0.001581	0.001648	28.0792	50.0414	0.001779	28126.2	7.455531	176.018	137.479	1.138708	0.051896	0.051383	134.048	28126.2	0.048322	0.087297	1535.53	86973.1
325	2.000000	1.141116	7.36825e+06	-54889.1	955.819	-29743	0.000000	0.000000	7.147524	144.6	NaN	0.000000	0.001586	0.001646	28.0791	52.0608	0.001852	28103.2	5.349622	176.104	143.787	1.140743	0.053790	0.053418	144.6	28103.2	0.049931	0.092201	1568.31	84559.3
325	2.000000	1.143080	7.36825e+06	-54889.1	955.819	-29743	0.000000	0.000000	7.149779	151.669	NaN	0.000000	0.001587	0.001697	28.0795	53.7063	0.001918	27996.3	5.604386	176.161	148.784	1.142802	0.055754	0.055476	151.669	27996.3	0.051691	0.097713	1552.2	81827.4
325	2.000000	1.145129	7.36825e+06	-54889.1	955.818	-29743	0.000000	0.000000	7.152104	158.37	NaN	0.000000	0.001573	0.001675	28.0791	53.3428	0.001583	33707.5	5.914423	174.276	160.752	1.144860	0.057804	0.057535	158.37	33707.5	0.054280	0.106100	1492.64	94545.5
325	2.000000	1.147077	7.36825e+06	-54889.1	955.819	-29743	0.000000	0.000000	7.154430	167.576	NaN	0.000000	0.001542	0.001684	28.0794	56.5285	0.001859	30404.5	1.697932	179.602	164.737	1.146738	0.059751	0.059413	167.576	30404.5	0.055618	0.110564	1515.64	83542
325	2.000000	1.149139	7.36825e+06	-54889.1	955.818	-29743	0.000000	0.000000	7.156909	177.723	NaN	0.000000	0.001549	0.001655	28.0793	58.0849	0.001621	35824.8	4.966893	174.31	178.017	1.148799	0.061813	0.061473	177.723	35824.8	0.058093	0.119058	1492.74	94858.9
325	2.000000	1.151293	7.36825e+06	-54889.1	955.818	-29743	0.000000	0.000000	7.159111	178.878	NaN	0.000000	0.001598	0.001655	28.079	60.2523	0.001787	33719.2	5.895351	174.45	189.361	1.150958	0.063967	0.063633	178.878	33719.2	0.059989	0.125768	1422.29	86869.3
325	2.000000	1.153110	7.36825e+06	-54889.1	955.819	-29743	0.000000	0.000000	7.161470	192.064	NaN	0.000000	0.001578	0.001649	28.0791	61.1994	0.001745	35068.7	2.259001	177.05	189.862	1.152880	0.065784	0.065555	192.064	35068.7	0.061677	0.131889	1456.26	88224.5
325	2.000000	1.155030	7.36825e+06	-54889.1	955.818	-29743	0.000000	0.000000	7.164056	208.245	NaN	0.000000	0.001582	0.001656	28.0792	62.1437	0.001732	35873.9	3.786673	175.582	204.78	1.154810	0.067704	0.067485	208.245	35873.9	0.063351	0.138097	1507.96	88198
325	2.000000	1.156991	7.36825e+06	-54889.1	955.818	-29743	0.000000	0.000000	7.166383	217.142	NaN	0.000000	0.001588	0.001677	28.0794	65.4744	0.001828	35810.3	3.858137	175.367	210.911	1.156668	0.069665	0.069342	217.142	35810.3	0.065117	0.144795	1499.65	85981.4
325	2.000000	1.159139	7.36825e+06	-54889.1	955.818	-29743	0.000000	0.000000	7.168867	225.304	NaN	0.000000	0.001581	0.001666	28.0793	66.2713	0.001710	38749.9	1.582527	177.742	225.004	1.158861	0.071813	0.071536	225.304	38749.9	0.067453	0.153880	1464.15	90251.1
325	2.000000	1.161088	7.36825e+06	-54889.1	955.819	-29743	0.000000	0.000000	7.171335	237.917	NaN	0.000000	0.001580	0.001668	28.0792	68.8024	0.001797	38276.8	3.831331	175.582	238.743	1.160688	0.073763	0.073363	237.917	38276.8	0.069101	0.160450	1482.81	87304.8
325	2.000000	1.163150	7.36825e+06	-54889.1	955.819	-29743	0.000000	0.000000	7.173950	251.371	NaN	0.000000	0.001544	0.001665	28.079	71.6979	0.001822	39353.2	5.487342	173.915	253.687	1.162697	0.075824	0.075372	251.371	39353.2	0.071034	0.168318	1493.43	87637.2
325	2.000000	1.165050	7.36825e+06	-54889.1	955.819	-29743	0.000000	0.000000	7.176398	264.69	NaN	0.000000	0.001537	0.001689	28.0791	71.7928	0.001760	40802.8	2.731477	175.781	260.525	1.164802	0.077725	0.077476	264.69	40802.8	0.072860	0.175914	1504.65	88881.8
325	2.000000	1.167034	7.36825e+06	-54889.1	955.817	-29743	0.000000	0.000000	7.178959	278.718	NaN	0.000000	0.001552	0.001609	28.0792	75.738	0.001836	41259.9	4.728481	174.182	275.896	1.166662	0.079708	0.079337	278.718	41259.9	0.074642	0.183481	1519.06	88004.7
325	2.000000	1.169126	7.36825e+06	-54889.1	955.819	-29743	0.000000	0.000000	7.181471	288.93	NaN	0.000000	0.001547	0.001649	28.078	77.9709	0.001827	42668.9	6.859132	171.869	289.523	1.168830	0.081801	0.081505	288.93	42668.9	0.076722	0.192503	1500.91	88851.8
325	2.000000	1.171071	7.36825e+06	-54889.1	955.82	-29743	0.000000	0.000000	7.183993	302.951	NaN	0.000000	0.001554	0.001646	28.0782	78.7029	0.001837	42835.4	4.250897	174.298	300.141	1.170762	0.083745	0.083437	302.951	42835.4	0.078441	0.200110	1513.92	87486.6
325	2.000000	1.173198	7.36825e+06	-54889.1	955.82	-29743	0.000000	0.000000	7.186381	309.305	NaN	0.000000	0.001566	0.001678	28.078	81.8189	0.001755	46620.3	6.316971	171.488	314.038	1.172852	0.085872	0.085526	309.305	46620.3	0.080896	0.211214	1464.41	92680.1
325	2.000000	1.175076	7.36825e+06	-54889.1	955.819	-29743	0.000000	0.000000	7.188994	327.164	NaN	0.000000	0.001609	0.001717	28.0778	82.7628	0.001796	46086.4	7.283217	170.119	325.186	1.174766	0.087751	0.087440	327.164	46086.4	0.082427	0.218278	1498.84	90124
325	2.000000	1.177044	7.36825e+06	-54889.1	955.819	-29743	0.000000	0.000000	7.191596	342.595	NaN	0.000000	0.001576	0.001681	28.0777	83.9953	0.001835	45782.4	3.576731	174.675	341.011	1.176681	0.089718	0.089355	342.595	45782.4	0.084106	0.226155	1514.87	87956.6
325	2.000000	1.179097	7.36825e+06	-54889.1	955.82	-29743	0.000000	0.000000	7.194060	352.559	NaN	0.000000	0.001556	0.001671	28.078	85.555	0.001725	49603.5	2.245940	174.914	351.344	1.178804	0.091772	0.091479	352.559	49603.5	0.086441	0.237324	1485.56	93028.1
325	2.000000	1.181086	7.36825e+06	-54889.1	955.819	-29743	0.000000	0.000000	7.196418	361.523	NaN	0.000000	0.001528	0.001654	28.0782	87.2213	0.001694	51492.3	6.341836	170.39	362.567	1.180828	0.093761	0.093502	361.523	51492.3	0.088495	0.247356	1461.55	94591.9
325	2.000000	1.183143	7.36825e+06	-54889.1	955.82	-29743	0.000000	0.000000	7.198943	372.899	NaN	0.000000	0.001507	0.001659	28.0779	89.9708	0.001715	52470.8	3.953009	172.803	375.153	1.182861	0.095818	0.095536	372.899	52470.8	0.090488	0.257274	1449.43	94513.3
325	2.000000	1.185066	7.36825e+06	-54889.1	955.82	-29743	0.000000	0.000000	7.201546	389.45	NaN	0.000000	0.001564	0.001678	28.0781	91.077	0.001782	51114.1	6.426443	170.479	388.358	1.184790	0.097741	0.097465	389.45	51114.1	0.092026	0.265056	1469.31	90708
325	2.000000	1.187004	7.36825e+06	-54889.1	955.82	-29743	0.000000	0.000000	7.204165	406.016	NaN	0.000000	0.001547	0.001684	28.0779	94.0723	0.001778	52898.9	3.462545	173.28	402.696	1.186692	0.099678	0.099366	406.016	52898.9	0.093922	0.274792	1477.54	92197.2
325	2.000000	1.188992	7.36825e+06	-54889.1	955.82	-29743	0.000000	0.000000	7.206807	421.894	NaN	0.000000	0.001552	0.001680	28.078	96.7307	0.001857	52090.3	5.728462	171.35	416.977	1.188841	0.101667	0.101515	421.894	52090.3	0.095592	0.283508	1488.12	89381.5
325	2.000000	1.191111	7.36825e+06	-54889.1	955.819	-29743	0.000000	0.000000	7.209480	435.372	NaN	0.000000	0.001611	0.001702	28.0781	97.7234	0.001790	54607.8	4.035655	172.665	438.987	1.190739	0.103786	0.103414	435.372	54607.8	0.097806	0.295257	1474.56	91818
325	2.000000	1.193082	7.36825e+06	-54889.1	955.819	-29743	0.000000	0.000000	7.212323	456.581	NaN	0.000000	0.001625	0.001688	28.0778	100.809	0.001803	55910.1	5.507122	171.297	456.535	1.192713	0.105756	0.105387	456.581	55910.1	0.099631	0.305111	1496.44	92477.2
325	2.000000	1.195140	7.36825e+06	-54889.1	955.82	-29743	0.000000	0.000000	7.214862	468.263	NaN	0.000000	0.001611	0.001687	28.0781	101.233	0.001778	56936.1	5.195220	171.109	471.304	1.194813	0.107815	0.107487	468.263	56936.1	0.101646	0.316164	1481.08	92513.4