File: remote_trans/data/nanoindenter/0828-1/data/Data_2025-08-06,11h17m57s/2025-07-22_16-23-58_1_348.txt
2025-07-22, 16:23:58, 1
Index	Phase	Displacement	Time	Pos X	Pos Y	Pos Z	Rot A	Rot B	Piezo Z	Force A	Force B	Gripper	Voltage A	Voltage B	Temperature	Amplitude force	Amplitude pos	Stiffness	Phase shift	Phase excitation	Force A raw	Displacement raw	HMax	HMax raw	Real Force	Real Stiffness	Contact Depth	Area	Hardness	Reduced Mod.
[#]	[#]	[um]	[s]	[um]	[um]	[um]	[m°]	[m°]	[um]	[uN]	[uN]	[V]	[V]	[V]	[°C]	[uN]	[um]	[N/m]	[°]	[°]	[uN]	[um]	[um]	[um]	[uN]	[N/m]	[um]	[um^2]	[MPa]	[MPa]
348	1.000000	0.002302	7.36846e+06	-56039.1	955.819	-29740.3	0.000000	0.000000	6.002794	-0.037519	NaN	0.000000	0.001557	0.001647	28.0815	0.086676	0.001004	86.3252	-6.504447	-163.63	-0.029067	0.001093	-1.111464	-1.112673	-0.037519	86.3252	-1.111138	-7.072277E+14	5.305032E-17	NaN
348	1.000000	0.012375	7.36846e+06	-56039.1	955.82	-29740.3	0.000000	0.000000	6.012867	-0.018656	NaN	0.000000	0.001518	0.001665	28.0803	0.079191	0.001258	62.963	109.131	21.7929	-0.054143	0.010910	-1.101391	-1.102856	-0.018656	62.963	-1.101169	-5.197094E+14	3.589725E-17	NaN
348	1.000000	0.022265	7.36846e+06	-56039.1	955.819	-29740.3	0.000000	0.000000	6.022760	0.038140	NaN	0.000000	0.001519	0.001671	28.08	0.042602	0.001687	25.2519	141.797	-162.638	0.013137	0.020925	-1.091501	-1.092841	0.038140	25.2519	-1.092634	-3.991831E+14	-9.554555E-17	NaN
348	1.000000	0.032261	7.36846e+06	-56039.1	955.818	-29740.3	0.000000	0.000000	6.032751	-0.068983	NaN	0.000000	0.001515	0.001663	28.0799	0.056125	0.001795	31.2719	41.3608	17.0562	-0.015944	0.030963	-1.081505	-1.082803	-0.068983	31.2719	-1.079851	-2.688514E+14	2.565842E-16	NaN
348	1.000000	0.042253	7.36846e+06	-56039.1	955.819	-29740.3	0.000000	0.000000	6.042745	-0.042021	NaN	0.000000	0.001532	0.001643	28.0804	0.043240	0.001973	21.9208	-144.837	-164.482	-0.044264	0.040898	-1.071513	-1.072868	-0.042021	21.9208	-1.070075	-1.987000E+14	2.114777E-16	NaN
348	1.000000	0.052272	7.36846e+06	-56039.1	955.818	-29740.3	0.000000	0.000000	6.052762	-0.071345	NaN	0.000000	0.001540	0.001645	28.0799	0.096906	0.001911	50.703	118.262	15.7893	-0.106962	0.050906	-1.061494	-1.062860	-0.071345	50.703	-1.060439	-1.474761E+14	4.837732E-16	NaN
348	1.000000	0.062277	7.36846e+06	-56039.1	955.819	-29740.3	0.000000	0.000000	6.062770	-0.006424	NaN	0.000000	0.001535	0.001655	28.0801	0.020216	0.002097	9.641907	-6.649649	-163.338	0.031537	0.060983	-1.051489	-1.052783	-0.006424	9.641907	-1.050989	-1.100799E+14	5.835659E-17	NaN
348	1.000000	0.072291	7.36846e+06	-56039.1	955.819	-29740.3	0.000000	0.000000	6.072786	0.038352	NaN	0.000000	0.001545	0.001697	28.0799	0.092353	0.001980	46.6491	-23.8517	16.3602	-0.005053	0.070892	-1.041475	-1.042874	0.038352	46.6491	-1.042091	-8.357768E+13	-4.588726E-16	NaN
348	1.000000	0.082254	7.36846e+06	-56039.1	955.819	-29740.3	0.000000	0.000000	6.082751	0.081001	NaN	0.000000	0.001493	0.001628	28.0801	0.057933	0.001907	30.3836	-14.3112	-162.301	0.080922	0.080928	-1.031512	-1.032838	0.081001	30.3836	-1.033511	-6.407804E+13	-1.264104E-15	NaN
348	1.000000	0.092278	7.36846e+06	-56039.1	955.818	-29740.3	0.000000	0.000000	6.092772	0.007898	NaN	0.000000	0.001518	0.001663	28.0796	0.067812	0.002037	33.294	-38.5386	16.3003	0.015294	0.090977	-1.021488	-1.022789	0.007898	33.294	-1.021666	-4.439811E+13	-1.778851E-16	NaN
348	1.000000	0.102280	7.36846e+06	-56039.1	955.819	-29740.3	0.000000	0.000000	6.102774	0.025136	NaN	0.000000	0.001530	0.001662	28.0799	0.006521	0.002061	3.163548	73.5794	-162.471	0.033889	0.101009	-1.011486	-1.012757	0.025136	3.163548	-1.017446	-3.895668E+13	-6.452392E-16	NaN
348	1.000000	0.112277	7.36846e+06	-56039.1	955.819	-29740.3	0.000000	0.000000	6.112768	-0.050934	NaN	0.000000	0.001558	0.001680	28.0801	0.083276	0.002006	41.5156	-66.8881	16.1249	-0.126595	0.110877	-1.001489	-1.002889	-0.050934	41.5156	-1.000569	-2.309024E+13	2.205868E-15	NaN
348	1.000000	0.122297	7.36846e+06	-56039.1	955.818	-29740.3	0.000000	0.000000	6.122790	-0.022077	NaN	0.000000	0.001549	0.001652	28.0799	0.101172	0.002052	49.3135	149.257	-163.49	-0.032133	0.120981	-0.991469	-0.992785	-0.022077	49.3135	-0.991133	-1.723339E+13	1.281066E-15	NaN
348	1.000000	0.132284	7.36846e+06	-56039.1	955.819	-29740.3	0.000000	0.000000	6.132774	-0.059883	NaN	0.000000	0.001518	0.001640	28.0798	0.029776	0.002042	14.5802	-50.3095	16.2157	0.002996	0.130961	-0.981483	-0.982805	-0.059883	14.5802	-0.978402	-1.161136E+13	5.157280E-15	NaN
348	1.000000	0.142273	7.36846e+06	-56039.1	955.818	-29740.3	0.000000	0.000000	6.142765	-0.019973	NaN	0.000000	0.001506	0.001659	28.08	0.031693	0.002062	15.3662	134.412	-166.277	-0.030073	0.140918	-0.971493	-0.972848	-0.019973	15.3662	-0.970518	-9.091727E+12	2.196782E-15	NaN
348	1.000000	0.152328	7.36846e+06	-56039.1	955.819	-29740.3	0.000000	0.000000	6.152820	-0.027160	NaN	0.000000	0.001551	0.001669	28.0815	0.106961	0.001894	56.4811	-150.966	15.3649	0.042597	0.150961	-0.961438	-0.962805	-0.027160	56.4811	-0.961077	-6.782559E+12	4.004356E-15	NaN
348	1.000000	0.162296	7.36846e+06	-56039.1	955.818	-29740.3	0.000000	0.000000	6.162787	-0.041423	NaN	0.000000	0.001538	0.001696	28.0812	0.060270	0.001972	30.5646	153.856	-164.834	-0.157371	0.161003	-0.951470	-0.952763	-0.041423	30.5646	-0.950454	-4.876960E+12	8.493531E-15	NaN
348	1.000000	0.172286	7.36846e+06	-56039.1	955.817	-29740.3	0.000000	0.000000	6.172777	-0.053798	NaN	0.000000	0.001509	0.001662	28.0814	0.136202	0.002034	66.9673	-6.705354	15.4741	-0.045235	0.170938	-0.941480	-0.942828	-0.053798	66.9673	-0.940878	-3.622232E+12	1.485209E-14	NaN
348	1.000000	0.182304	7.36846e+06	-56039.1	955.819	-29740.3	0.000000	0.000000	6.182796	-0.033909	NaN	0.000000	0.001526	0.001677	28.0814	0.102414	0.002023	50.6353	172.532	-162.695	0.005008	0.180986	-0.931462	-0.932780	-0.033909	50.6353	-0.930959	-2.661617E+12	1.274010E-14	NaN
348	1.000000	0.192323	7.36846e+06	-56039.1	955.819	-29740.3	0.000000	0.000000	6.192814	-0.050268	NaN	0.000000	0.001573	0.001682	28.0816	0.022512	0.001925	11.6921	-81.9751	12.908	-0.045247	0.190969	-0.921443	-0.922797	-0.050268	11.6921	-0.918218	-1.791226E+12	2.806367E-14	NaN
348	1.000000	0.202310	7.36846e+06	-56039.1	955.817	-29740.3	0.000000	0.000000	6.202799	-0.109460	NaN	0.000000	0.001518	0.001668	28.0812	0.063727	0.002022	31.5239	55.7089	-166.283	-0.028578	0.201028	-0.911456	-0.912738	-0.109460	31.5239	-0.908852	-1.338600E+12	8.177222E-14	NaN
348	1.000000	0.212338	7.36846e+06	-56039.1	955.818	-29740.3	0.000000	0.000000	6.212826	-0.128781	NaN	0.000000	0.001514	0.001698	28.0814	0.138289	0.002157	64.104	-62.7062	14.0724	-0.069083	0.211004	-0.901428	-0.902762	-0.128781	64.104	-0.899922	-1.013929E+12	1.270116E-13	NaN
348	1.000000	0.222308	7.36846e+06	-56039.1	955.818	-29740.3	0.000000	0.000000	6.222800	-0.033274	NaN	0.000000	0.001556	0.001648	28.0814	0.072797	0.002064	35.274	131.97	-163.445	-0.130890	0.221034	-0.891458	-0.892732	-0.033274	35.274	-0.890750	-7.621773E+11	4.365687E-14	NaN
348	1.000000	0.232353	7.36846e+06	-56039.1	955.817	-29740.3	0.000000	0.000000	6.232847	0.015296	NaN	0.000000	0.001552	0.001687	28.0813	0.034203	0.002121	16.126	-149.755	13.9148	-0.036138	0.230955	-0.881413	-0.882811	0.015296	16.126	-0.882124	-5.826883E+11	-2.625013E-14	NaN
348	1.000000	0.242351	7.36846e+06	-56039.1	955.818	-29740.3	0.000000	0.000000	6.242841	-0.079717	NaN	0.000000	0.001561	0.001667	28.0811	0.051298	0.001962	26.1481	-38.6254	-163.146	-0.011852	0.240974	-0.871415	-0.872792	-0.079717	26.1481	-0.869128	-3.887300E+11	2.050697E-13	NaN
348	1.000000	0.252344	7.36846e+06	-56039.1	955.818	-29740.3	0.000000	0.000000	6.252839	0.046259	NaN	0.000000	0.001532	0.001708	28.0813	0.143788	0.001918	74.963	79.7517	12.2594	0.013388	0.250981	-0.861423	-0.862785	0.046259	74.963	-0.861885	-3.101980E+11	-1.491281E-13	NaN
348	1.000000	0.262347	7.36846e+06	-56039.1	955.819	-29740.3	0.000000	0.000000	6.262839	-0.040711	NaN	0.000000	0.001567	0.001655	28.0814	0.044716	0.001946	22.9843	-145.979	-164.901	0.012714	0.261053	-0.851419	-0.852713	-0.040711	22.9843	-0.850090	-2.147640E+11	1.895614E-13	NaN
348	1.000000	0.272327	7.36847e+06	-56039.1	955.818	-29740.3	0.000000	0.000000	6.272819	-0.011631	NaN	0.000000	0.001564	0.001701	28.0813	0.079079	0.002002	39.506	154.47	13.3565	-0.058873	0.271023	-0.841440	-0.842743	-0.011631	39.506	-0.841219	-1.628557E+11	7.141772E-14	NaN
348	1.000000	0.282364	7.36847e+06	-56039.1	955.819	-29740.3	0.000000	0.000000	6.282858	0.003944	NaN	0.000000	0.001545	0.001726	28.08	0.079173	0.002015	39.2975	62.1979	-168.462	0.046723	0.280984	-0.831402	-0.832782	0.003944	39.2975	-0.831477	-1.201716E+11	-3.281666E-14	NaN
348	1.000000	0.292362	7.36847e+06	-56039.1	955.819	-29740.3	0.000000	0.000000	6.292856	0.021588	NaN	0.000000	0.001528	0.001721	28.0802	0.068012	0.002014	33.7712	-160.494	14.3422	0.040397	0.291001	-0.821404	-0.822765	0.021588	33.7712	-0.821883	-8.907290E+10	-2.423669E-13	NaN
348	1.000000	0.302344	7.36847e+06	-56039.1	955.818	-29740.3	0.000000	0.000000	6.302837	-0.004690	NaN	0.000000	0.001509	0.001706	28.0804	0.061693	0.001895	32.5594	46.6529	-162.723	0.031989	0.301031	-0.811422	-0.812735	-0.004690	32.5594	-0.811314	-6.403140E+10	7.325064E-14	NaN
348	1.000000	0.312335	7.36847e+06	-56039.1	955.819	-29740.3	0.000000	0.000000	6.312826	-0.062025	NaN	0.000000	0.001555	0.001701	28.0804	0.073402	0.002155	34.0687	122.778	14.5896	0.043179	0.311054	-0.801431	-0.802712	-0.062025	34.0687	-0.800065	-4.505588E+10	1.376624E-12	NaN
348	1.000000	0.322395	7.36847e+06	-56039.1	955.818	-29740.3	0.000000	0.000000	6.322888	0.006185	NaN	0.000000	0.001500	0.001706	28.0802	0.031932	0.001894	16.8627	-28.4218	-164.409	0.001544	0.321001	-0.791371	-0.792765	0.006185	16.8627	-0.791647	-3.462940E+10	-1.786168E-13	NaN
348	1.000000	0.332354	7.36847e+06	-56039.1	955.817	-29740.3	0.000000	0.000000	6.332847	0.009794	NaN	0.000000	0.001560	0.001680	28.0806	0.138146	0.002100	65.7986	158.501	13.0089	-0.030079	0.330948	-0.781412	-0.782818	0.009794	65.7986	-0.781524	-2.523117E+10	-3.881863E-13	NaN
348	1.000000	0.342372	7.36847e+06	-56039.1	955.818	-29740.3	0.000000	0.000000	6.342866	0.010238	NaN	0.000000	0.001562	0.001726	28.0802	0.122231	0.001995	61.2617	66.9285	-168.304	0.052626	0.341057	-0.771394	-0.772709	0.010238	61.2617	-0.771519	-1.844859E+10	-5.549323E-13	NaN
348	1.000000	0.352375	7.36847e+06	-56039.1	955.818	-29740.3	0.000000	0.000000	6.352866	-0.059304	NaN	0.000000	0.001550	0.001751	28.0803	0.090229	0.001917	47.0665	-133.057	15.1804	0.014235	0.351015	-0.761391	-0.762751	-0.059304	47.0665	-0.760446	-1.304274E+10	4.546892E-12	NaN
348	1.000000	0.362354	7.36847e+06	-56039.1	955.818	-29740.3	0.000000	0.000000	6.362843	-0.098388	NaN	0.000000	0.001588	0.001702	28.0802	0.026178	0.001961	13.3504	148.251	-163.395	-0.020190	0.361116	-0.751413	-0.752651	-0.098388	13.3504	-0.745885	-8.264224E+9	1.190533E-11	NaN
348	1.000000	0.372384	7.36847e+06	-56039.1	955.819	-29740.3	0.000000	0.000000	6.372873	-0.109887	NaN	0.000000	0.001565	0.001697	28.0805	0.117960	0.002018	58.4437	-42.2601	17.8562	-0.065053	0.371049	-0.741382	-0.742717	-0.109887	58.4437	-0.739972	-6.865518E+9	1.600563E-11	NaN
348	1.000000	0.382409	7.36847e+06	-56039.1	955.818	-29740.3	0.000000	0.000000	6.382901	-0.027938	NaN	0.000000	0.001523	0.001712	28.0802	0.029522	0.001907	15.481	47.7468	-166.743	-0.054866	0.381094	-0.731357	-0.732672	-0.027938	15.481	-0.730004	-5.021791E+9	5.563452E-12	NaN
348	1.000000	0.392400	7.36847e+06	-56039.1	955.818	-29740.3	0.000000	0.000000	6.392890	-0.078793	NaN	0.000000	0.001594	0.001668	28.0812	0.032539	0.001954	16.651	85.7861	13.404	-0.037810	0.391088	-0.721366	-0.722678	-0.078793	16.651	-0.717817	-3.425340E+9	2.300306E-11	NaN
348	1.000000	0.402407	7.36847e+06	-56039.1	955.819	-29740.3	0.000000	0.000000	6.402896	-0.109974	NaN	0.000000	0.001569	0.001711	28.0804	0.024654	0.002033	12.1246	156.463	-162.922	-0.058258	0.401118	-0.711359	-0.712648	-0.109974	12.1246	-0.704556	-2.258096E+9	4.870189E-11	NaN
348	1.000000	0.412414	7.36847e+06	-56039.1	955.818	-29740.3	0.000000	0.000000	6.412905	-0.068346	NaN	0.000000	0.001588	0.001668	28.0804	0.085693	0.002081	41.1741	104.363	12.5144	-0.009912	0.411035	-0.701352	-0.702731	-0.068346	41.1741	-0.700107	-1.963312E+9	3.481161E-11	NaN
348	1.000000	0.422407	7.36847e+06	-56039.1	955.818	-29740.3	0.000000	0.000000	6.422902	0.049695	NaN	0.000000	0.001563	0.001679	28.0815	0.021060	0.002004	10.5089	70.182	-167.729	-0.019484	0.421114	-0.691359	-0.692652	0.049695	10.5089	-0.694906	-1.667043E+9	-2.981027E-11	NaN
348	1.000000	0.432409	7.36847e+06	-56039.1	955.817	-29740.3	0.000000	0.000000	6.432901	-0.033014	NaN	0.000000	0.001547	0.001714	28.0813	0.028562	0.002048	13.9453	-126.645	14.8153	0.076188	0.431060	-0.681357	-0.682706	-0.033014	13.9453	-0.679582	-1.029158E+9	3.207909E-11	NaN
348	1.000000	0.442413	7.36847e+06	-56039.1	955.818	-29740.3	0.000000	0.000000	6.442906	-0.003009	NaN	0.000000	0.001573	0.001687	28.0816	0.079043	0.001896	41.6936	20.1118	-164.698	-0.048377	0.441137	-0.671353	-0.672629	-0.003009	41.6936	-0.671299	-7.928097E+8	3.795920E-12	NaN
348	1.000000	0.452413	7.36847e+06	-56039.1	955.818	-29740.3	0.000000	0.000000	6.452907	0.016565	NaN	0.000000	0.001513	0.001666	28.0815	0.052259	0.001919	27.2394	146.708	15.4663	-0.016956	0.451083	-0.661353	-0.662683	0.016565	27.2394	-0.661809	-5.878286E+8	-2.818038E-11	NaN
348	1.000000	0.462424	7.36847e+06	-56039.1	955.818	-29740.3	0.000000	0.000000	6.462919	0.034675	NaN	0.000000	0.001526	0.001714	28.0815	0.061372	0.002079	29.5259	-120.518	-165.642	0.038236	0.461153	-0.651342	-0.652613	0.034675	29.5259	-0.652222	-4.344111E+8	-7.982063E-11	NaN
348	1.000000	0.472463	7.36847e+06	-56039.1	955.819	-29740.3	0.000000	0.000000	6.472958	0.047320	NaN	0.000000	0.001545	0.001695	28.0814	0.127356	0.001935	65.8099	-114.304	16.6286	-0.032001	0.471041	-0.641303	-0.642725	0.047320	65.8099	-0.641843	-3.130193E+8	-1.511736E-10	NaN
348	1.000000	0.482450	7.36847e+06	-56039.1	955.819	-29740.3	0.000000	0.000000	6.482941	-0.058200	NaN	0.000000	0.001542	0.001727	28.0819	0.056470	0.001867	30.2406	-101.068	-164.713	-0.018460	0.481131	-0.631316	-0.632635	-0.058200	30.2406	-0.629872	-2.144227E+8	2.714246E-10	NaN
348	1.000000	0.492404	7.36847e+06	-56039.1	955.819	-29740.3	0.000000	0.000000	6.492895	-0.062917	NaN	0.000000	0.001537	0.001789	28.0815	0.073528	0.002045	35.9587	10.5615	17.4191	-0.016510	0.491098	-0.621362	-0.622668	-0.062917	35.9587	-0.620050	-1.571508E+8	4.003606E-10	NaN
348	1.000000	0.502440	7.36847e+06	-56039.1	955.818	-29740.3	0.000000	0.000000	6.502933	0.002950	NaN	0.000000	0.001615	0.001734	28.0814	0.075620	0.001994	37.925	63.1098	-165.499	0.001675	0.501149	-0.611326	-0.612617	0.002950	37.925	-0.611385	-1.194437E+8	-2.470165E-11	NaN
348	1.000000	0.512465	7.36847e+06	-56039.1	955.819	-29740.3	0.000000	0.000000	6.512954	-0.098566	NaN	0.000000	0.001604	0.001714	28.0815	0.076669	0.001990	38.5279	126.185	14.461	-0.086274	0.511076	-0.601301	-0.602690	-0.098566	38.5279	-0.599382	-8.164968E+7	1.207184E-9	NaN
348	1.000000	0.522453	7.36847e+06	-56039.1	955.818	-29740.3	0.000000	0.000000	6.522947	0.004228	NaN	0.000000	0.001530	0.001722	28.0817	0.054607	0.002072	26.3565	-43.7076	-161.439	-0.025651	0.521124	-0.591313	-0.592642	0.004228	26.3565	-0.591433	-6.344848E+7	-6.663032E-11	NaN
348	1.000000	0.532479	7.36847e+06	-56039.1	955.818	-29740.3	0.000000	0.000000	6.532970	-0.032723	NaN	0.000000	0.001560	0.001703	28.0814	0.174177	0.002005	86.8794	-170.598	13.0974	-0.030272	0.531074	-0.581287	-0.582692	-0.032723	86.8794	-0.581005	-4.556106E+7	7.182258E-10	NaN
348	1.000000	0.542423	7.36847e+06	-56039.1	955.818	-29740.3	0.000000	0.000000	6.542916	0.001848	NaN	0.000000	0.001546	0.001698	28.0816	0.115939	0.002030	57.1069	149.552	-164.117	0.089263	0.541152	-0.571343	-0.572614	0.001848	57.1069	-0.571367	-3.353699E+7	-5.509254E-11	NaN
348	1.000000	0.552463	7.36847e+06	-56039.1	955.819	-29740.3	0.000000	0.000000	6.552956	-0.019384	NaN	0.000000	0.001558	0.001722	28.0814	0.018728	0.001986	9.427710	144.244	13.3967	-0.041592	0.551139	-0.561303	-0.562628	-0.019384	9.427710	-0.559761	-2.317747E+7	8.363391E-10	NaN
348	1.000000	0.562463	7.36847e+06	-56039.1	955.818	-29740.3	0.000000	0.000000	6.562957	0.022732	NaN	0.000000	0.001557	0.001725	28.0802	0.039962	0.001999	19.9946	-7.874412	-165.219	0.082691	0.561178	-0.551303	-0.552588	0.022732	19.9946	-0.552156	-1.818923E+7	-1.249724E-9	NaN
348	1.000000	0.572448	7.36847e+06	-56039.1	955.819	-29740.3	0.000000	0.000000	6.572937	-0.082008	NaN	0.000000	0.001528	0.001720	28.0801	0.103551	0.002011	51.4999	-97.1399	15.9248	0.000780	0.571115	-0.541319	-0.542651	-0.082008	51.4999	-0.540124	-1.239028E+7	6.618717E-9	NaN
348	1.000000	0.582492	7.36847e+06	-56039.1	955.818	-29740.3	0.000000	0.000000	6.582983	-0.039890	NaN	0.000000	0.001579	0.001742	28.08	0.053046	0.001981	26.7736	42.5202	-164.55	-0.059227	0.581193	-0.531274	-0.532573	-0.039890	26.7736	-0.530157	-9.01064e+06	4.427026E-9	NaN
348	1.000000	0.592493	7.36847e+06	-56039.1	955.818	-29740.3	0.000000	0.000000	6.592982	-0.091135	NaN	0.000000	0.001571	0.001709	28.0801	0.035484	0.002109	16.8278	13.8915	18.2334	-0.112561	0.591061	-0.521273	-0.522705	-0.091135	16.8278	-0.517211	-5.95395e+06	1.530661E-8	NaN
348	1.000000	0.602498	7.36847e+06	-56039.1	955.817	-29740.3	0.000000	0.000000	6.602989	-0.038189	NaN	0.000000	0.001590	0.001752	28.0802	0.112484	0.001956	57.5091	68.8217	-163.297	-0.040781	0.601210	-0.511268	-0.512556	-0.038189	57.5091	-0.510770	-4.84331e+06	7.884893E-9	NaN
348	1.000000	0.612482	7.36847e+06	-56039.1	955.818	-29740.3	0.000000	0.000000	6.612972	-0.067240	NaN	0.000000	0.001566	0.001729	28.0799	0.032531	0.002037	15.9685	-35.0101	13.8801	-0.116032	0.611108	-0.501284	-0.502658	-0.067240	15.9685	-0.498126	-3.22754e+06	2.083327E-8	NaN
348	1.000000	0.622512	7.36847e+06	-56039.1	955.818	-29740.3	0.000000	0.000000	6.623001	-0.081580	NaN	0.000000	0.001613	0.001757	28.0803	0.014389	0.002080	6.917274	25.6345	-163.853	-0.063903	0.621178	-0.491254	-0.492588	-0.081580	6.917274	-0.482409	-1.94646e+06	4.191229E-8	NaN
348	1.000000	0.632498	7.36847e+06	-56039.1	955.817	-29740.3	0.000000	0.000000	6.632990	-0.042692	NaN	0.000000	0.001581	0.001766	28.08	0.058709	0.001955	30.0363	-32.1976	15.5599	-0.122205	0.631124	-0.481268	-0.482643	-0.042692	30.0363	-0.480202	-1.81281e+06	2.355039E-8	NaN
348	1.000000	0.642523	7.36847e+06	-56039.1	955.819	-29740.3	0.000000	0.000000	6.643014	-0.054561	NaN	0.000000	0.001600	0.001743	28.0801	0.126380	0.002127	59.4259	93.153	-166.039	0.006613	0.641256	-0.471243	-0.472510	-0.054561	59.4259	-0.470555	-1.32797e+06	4.108567E-8	NaN
348	1.000000	0.652494	7.36847e+06	-56039.1	955.818	-29740.3	0.000000	0.000000	6.652985	-0.047380	NaN	0.000000	0.001583	0.001708	28.0799	0.067709	0.001968	34.4129	-141.553	12.4616	-0.035753	0.651197	-0.461272	-0.462569	-0.047380	34.4129	-0.460239	-951434	4.979894E-8	NaN
348	1.000000	0.662523	7.36847e+06	-56039.1	955.819	-29740.3	0.000000	0.000000	6.663011	-0.138148	NaN	0.000000	0.001553	0.001739	28.0804	0.088145	0.001956	45.0532	-22.2232	-164.779	-0.043851	0.661227	-0.451243	-0.452539	-0.138148	45.0532	-0.448943	-659870	2.093557E-7	NaN
348	1.000000	0.672505	7.36847e+06	-56039.1	955.818	-29740.3	0.000000	0.000000	6.672998	0.016081	NaN	0.000000	0.001540	0.001749	28.08	0.058693	0.002040	28.7653	-87.9241	13.8426	-0.049897	0.671166	-0.441262	-0.442600	0.016081	28.7653	-0.441681	-521293	-3.084842E-8	NaN
348	1.000000	0.682534	7.36847e+06	-56039.1	955.82	-29740.3	0.000000	0.000000	6.683029	0.032491	NaN	0.000000	0.001516	0.001719	28.0801	0.129610	0.001948	66.548	32.3791	-162.67	0.000341	0.681196	-0.431232	-0.432570	0.032491	66.548	-0.431598	-375545	-8.651770E-8	NaN
348	1.000000	0.692533	7.36847e+06	-56039.1	955.819	-29740.3	0.000000	0.000000	6.693025	-0.034451	NaN	0.000000	0.001565	0.001688	28.0813	0.037774	0.001998	18.9104	-44.7539	21.118	-0.009456	0.691196	-0.421233	-0.422570	-0.034451	18.9104	-0.419866	-256164	1.344864E-7	NaN
348	1.000000	0.702502	7.36847e+06	-56039.1	955.819	-29740.3	0.000000	0.000000	6.702993	-0.038848	NaN	0.000000	0.001561	0.001669	28.0807	0.147884	0.001874	78.9077	65.6376	-164.536	-0.006659	0.701172	-0.411264	-0.412594	-0.038848	78.9077	-0.410895	-191041	2.033475E-7	NaN
348	1.000000	0.712517	7.36847e+06	-56039.1	955.818	-29740.3	0.000000	0.000000	6.713010	-0.012937	NaN	0.000000	0.001583	0.001685	28.0811	0.094284	0.001974	47.7525	103.076	16.681	0.033606	0.711211	-0.401249	-0.402555	-0.012937	47.7525	-0.401046	-138327	9.352645E-8	NaN
348	1.000000	0.722538	7.36847e+06	-56039.1	955.818	-29740.3	0.000000	0.000000	6.723030	-0.020361	NaN	0.000000	0.001599	0.001693	28.0811	0.024248	0.002043	11.8702	165.67	-163.079	0.036606	0.721223	-0.391228	-0.392543	-0.020361	11.8702	-0.389942	-96014.4	2.120654E-7	NaN
348	1.000000	0.732532	7.36847e+06	-56039.1	955.819	-29740.3	0.000000	0.000000	6.733023	-0.053547	NaN	0.000000	0.001559	0.001688	28.0811	0.050390	0.002009	25.0848	-160.844	15.3558	-0.045019	0.731218	-0.381234	-0.382548	-0.053547	25.0848	-0.379633	-68331	7.836351E-7	NaN
348	1.000000	0.742535	7.36847e+06	-56039.1	955.818	-29740.3	0.000000	0.000000	6.743028	-0.011296	NaN	0.000000	0.001612	0.001718	28.0811	0.060420	0.001963	30.7776	-28.0571	-167.415	-0.070071	0.741204	-0.371231	-0.372562	-0.011296	30.7776	-0.370955	-51272.4	2.203050E-7	NaN
348	1.000000	0.752561	7.36847e+06	-56039.1	955.819	-29740.3	0.000000	0.000000	6.753051	-0.076965	NaN	0.000000	0.001555	0.001698	28.0809	0.077946	0.002187	35.6337	118.757	12.2654	-0.032431	0.751170	-0.361205	-0.362596	-0.076965	35.6337	-0.359585	-35143.3	2.190030E-6	NaN
348	1.000000	0.762568	7.36847e+06	-56039.1	955.818	-29740.3	0.000000	0.000000	6.763059	-0.052678	NaN	0.000000	0.001527	0.001688	28.081	0.092336	0.002035	45.3708	67.9346	-165.265	0.006877	0.761209	-0.351198	-0.352557	-0.052678	45.3708	-0.350327	-25807.6	2.041187E-6	NaN
348	1.000000	0.772578	7.36847e+06	-56039.1	955.817	-29740.3	0.000000	0.000000	6.773070	-0.026044	NaN	0.000000	0.001536	0.001685	28.0809	0.051425	0.002091	24.5893	-165.127	16.6868	-0.043641	0.771143	-0.341189	-0.342623	-0.026044	24.5893	-0.340394	-18505.4	1.407343E-6	NaN
348	1.000000	0.782539	7.36847e+06	-56039.1	955.818	-29740.3	0.000000	0.000000	6.783032	0.010693	NaN	0.000000	0.001532	0.001718	28.0812	0.053445	0.001936	27.6006	-81.6971	-166.166	-0.065577	0.781292	-0.331227	-0.332474	0.010693	27.6006	-0.331518	-13730	-7.787742E-7	NaN
348	1.000000	0.792559	7.36847e+06	-56039.1	955.819	-29740.3	0.000000	0.000000	6.793048	-0.097521	NaN	0.000000	0.001572	0.001708	28.0811	0.067713	0.002067	32.7516	88.3297	15.3391	-0.064102	0.791244	-0.321207	-0.322522	-0.097521	32.7516	-0.318974	-8985.23	1.085347E-5	NaN
348	1.000000	0.802556	7.36847e+06	-56039.1	955.818	-29740.3	0.000000	0.000000	6.803045	-0.092262	NaN	0.000000	0.001552	0.001733	28.081	0.141874	0.001949	72.8022	-116.779	-165.816	-0.083977	0.801277	-0.311210	-0.312489	-0.092262	72.8022	-0.310260	-6681.93	1.380768E-5	NaN
348	1.000000	0.812546	7.36847e+06	-56039.1	955.818	-29740.3	0.000000	0.000000	6.813036	-0.085691	NaN	0.000000	0.001581	0.001663	28.081	0.077125	0.001925	40.0702	-113.297	17.1646	-0.076117	0.811203	-0.301220	-0.302563	-0.085691	40.0702	-0.299616	-4644.29	1.845076E-5	NaN
348	1.000000	0.822569	7.36847e+06	-56039.1	955.818	-29740.3	0.000000	0.000000	6.823060	-0.042095	NaN	0.000000	0.001516	0.001724	28.0812	0.096018	0.001906	50.369	133.419	-168.92	-0.026340	0.821254	-0.291198	-0.292512	-0.042095	50.369	-0.290571	-3402.91	1.237033E-5	NaN
348	1.000000	0.832591	7.36847e+06	-56039.1	955.818	-29740.3	0.000000	0.000000	6.833080	-0.108997	NaN	0.000000	0.001562	0.001750	28.0797	0.087748	0.002033	43.1563	109.176	18.9932	-0.128459	0.831202	-0.281175	-0.282564	-0.108997	43.1563	-0.279281	-2302.07	4.734759E-5	NaN
348	1.000000	0.842590	7.36847e+06	-56039.1	955.819	-29740.3	0.000000	0.000000	6.843084	0.013181	NaN	0.000000	0.001555	0.001733	28.0797	0.058823	0.002053	28.6489	-96.6372	-165.113	0.047329	0.841295	-0.271176	-0.272471	0.013181	28.6489	-0.271521	-1756.53	-7.504252E-6	NaN
348	1.000000	0.852614	7.36847e+06	-56039.1	955.819	-29740.3	0.000000	0.000000	6.853107	-0.012437	NaN	0.000000	0.001561	0.001691	28.0799	0.068869	0.001973	34.8991	-169.183	12.5505	-0.041696	0.851192	-0.261152	-0.262574	-0.012437	34.8991	-0.260885	-1209.13	1.028550E-5	NaN
348	1.000000	0.862593	7.36847e+06	-56039.1	955.818	-29740.3	0.000000	0.000000	6.863083	-0.063193	NaN	0.000000	0.001541	0.001706	28.0799	0.034285	0.002196	15.6117	179.501	-160.905	-0.074481	0.861240	-0.251173	-0.252526	-0.063193	15.6117	-0.248137	-769.365	8.213634E-5	NaN
348	1.000000	0.872586	7.36847e+06	-56039.1	955.819	-29740.3	0.000000	0.000000	6.873079	0.005095	NaN	0.000000	0.001562	0.001732	28.0798	0.156544	0.002046	76.5016	39.8689	14.1724	-0.048215	0.871245	-0.241180	-0.242521	0.005095	76.5016	-0.241230	-600.835	-8.479675E-6	NaN
348	1.000000	0.882590	7.36847e+06	-56039.1	955.818	-29740.3	0.000000	0.000000	6.883081	-0.057376	NaN	0.000000	0.001552	0.001699	28.0798	0.083909	0.001922	43.6528	8.071540	-162.328	0.082507	0.881324	-0.231176	-0.232442	-0.057376	43.6528	-0.230190	-403.202	0.000142	NaN
348	1.000000	0.892618	7.36847e+06	-56039.1	955.818	-29740.3	0.000000	0.000000	6.893110	-0.014189	NaN	0.000000	0.001595	0.001680	28.08	0.046152	0.001949	23.6782	54.3617	14.6266	-0.051839	0.891229	-0.221149	-0.222538	-0.014189	23.6782	-0.220699	-284.999	4.978544E-5	NaN
348	1.000000	0.902620	7.36847e+06	-56039.1	955.819	-29740.3	0.000000	0.000000	6.903109	-0.097610	NaN	0.000000	0.001614	0.001706	28.0799	0.124051	0.002027	61.2077	-176.782	-162.579	-0.128629	0.901311	-0.211146	-0.212455	-0.097610	61.2077	-0.209950	-191.43	0.000510	NaN
348	1.000000	0.912595	7.36847e+06	-56039.1	955.818	-29740.3	0.000000	0.000000	6.913085	-0.092056	NaN	0.000000	0.001551	0.001722	28.0799	0.132254	0.001913	69.1186	79.9126	16.2337	-0.025610	0.911258	-0.201171	-0.202508	-0.092056	69.1186	-0.200172	-132.593	0.000694	NaN
348	1.000000	0.922654	7.36847e+06	-56039.1	955.818	-29740.3	0.000000	0.000000	6.923147	0.012428	NaN	0.000000	0.001558	0.001708	28.0798	0.068412	0.002016	33.9359	5.819325	-167.187	-0.033747	0.921262	-0.191112	-0.192504	0.012428	33.9359	-0.191387	-94.8796	-0.000131	NaN
348	1.000000	0.932605	7.36847e+06	-56039.1	955.817	-29740.3	0.000000	0.000000	6.933096	-0.053493	NaN	0.000000	0.001533	0.001659	28.0801	0.018611	0.002056	9.053618	-125.553	17.8512	-0.114845	0.931290	-0.181161	-0.182476	-0.053493	9.053618	-0.176730	-53.6608	0.000997	NaN
348	1.000000	0.942646	7.36847e+06	-56039.1	955.819	-29740.3	0.000000	0.000000	6.943140	0.033450	NaN	0.000000	0.001551	0.001687	28.0799	0.147127	0.001993	73.819	-118.369	-163.929	0.094409	0.941311	-0.171120	-0.172455	0.033450	73.819	-0.171460	-43.544	-0.000768	NaN
348	1.000000	0.952598	7.36847e+06	-56039.1	955.819	-29740.3	0.000000	0.000000	6.953087	-0.103160	NaN	0.000000	0.001572	0.001662	28.08	0.113904	0.002031	56.0696	-84.3743	14.0855	-0.160256	0.951283	-0.161168	-0.162483	-0.103160	56.0696	-0.159788	-27.1782	0.003796	NaN
348	1.000000	0.962647	7.36847e+06	-56039.1	955.818	-29740.3	0.000000	0.000000	6.963136	-0.081172	NaN	0.000000	0.001550	0.001692	28.0802	0.085809	0.002014	42.6032	116.603	-163.064	-0.088865	0.961294	-0.151119	-0.152472	-0.081172	42.6032	-0.149690	-17.8796	0.004540	NaN
348	1.000000	0.972635	7.36847e+06	-56039.1	955.818	-29740.3	0.000000	0.000000	6.973125	-0.081550	NaN	0.000000	0.001547	0.001702	28.0813	0.020016	0.001992	10.05	157.674	11.7537	-0.030368	0.971254	-0.141131	-0.142512	-0.081550	10.05	-0.135045	-9.531200	0.008556	NaN
348	1.000000	0.982621	7.36847e+06	-56039.1	955.818	-29740.3	0.000000	0.000000	6.983114	-0.002264	NaN	0.000000	0.001568	0.001724	28.0811	0.038636	0.001952	19.7904	77.6142	-165.321	-0.049900	0.981331	-0.131145	-0.132435	-0.002264	19.7904	-0.131059	-7.989960	0.000283	NaN
348	1.000000	0.992641	7.36847e+06	-56039.1	955.818	-29740.3	0.000000	0.000000	6.993133	-0.043060	NaN	0.000000	0.001559	0.001702	28.081	0.047796	0.001840	25.9822	43.1534	16.468	-0.023135	0.991313	-0.121125	-0.122453	-0.043060	25.9822	-0.119882	-4.805001	0.008961	NaN
348	1.000000	1.002652	7.36847e+06	-56039.1	955.818	-29740.3	0.000000	0.000000	7.003144	-0.026588	NaN	0.000000	0.001548	0.001701	28.0814	0.104894	0.002070	50.6689	-90.7491	-163.771	0.030064	1.001373	-0.111114	-0.112393	-0.026588	50.6689	-0.110721	-3.112051	0.008544	NaN
348	1.000000	1.012650	7.36847e+06	-56039.1	955.817	-29740.3	0.000000	0.000000	7.013140	-0.069370	NaN	0.000000	0.001616	0.001742	28.0815	0.048793	0.002037	23.9548	55.5011	14.2811	-0.073690	1.011283	-0.101117	-0.102484	-0.069370	23.9548	-0.098945	-1.731062	0.040074	NaN
348	1.000000	1.022657	7.36847e+06	-56039.1	955.818	-29740.3	0.000000	0.000000	7.023148	-0.062540	NaN	0.000000	0.001550	0.001721	28.0811	0.098439	0.001950	50.4801	98.1319	-164.706	-0.043446	1.021366	-0.091109	-0.092400	-0.062540	50.4801	-0.090180	-1.091512	0.057297	NaN
348	1.000000	1.032687	7.36847e+06	-56039.1	955.818	-29740.3	0.000000	0.000000	7.033178	-0.040190	NaN	0.000000	0.001555	0.001711	28.0809	0.104619	0.001935	54.0802	-135.211	11.5546	-0.128282	1.031307	-0.081079	-0.082459	-0.040190	54.0802	-0.080522	-0.637844	0.063009	NaN
348	1.000000	1.042639	7.36847e+06	-56039.1	955.818	-29740.3	0.000000	0.000000	7.043131	-0.015524	NaN	0.000000	0.001541	0.001704	28.0814	0.097056	0.002017	48.1197	-160.239	-166.032	-0.028470	1.041366	-0.071127	-0.072400	-0.015524	48.1197	-0.070885	-0.360188	0.043100	NaN
348	1.000000	1.052679	7.36847e+06	-56039.1	955.817	-29740.3	0.000000	0.000000	7.053173	0.030214	NaN	0.000000	0.001534	0.001685	28.0812	0.063702	0.002058	30.9527	-105.98	17.1985	0.018996	1.051373	-0.061087	-0.062393	0.030214	30.9527	-0.061819	-0.202943	-0.148878	NaN
348	1.000000	1.062643	7.36847e+06	-56039.1	955.818	-29740.3	0.000000	0.000000	7.063137	0.009655	NaN	0.000000	0.001516	0.001681	28.0812	0.044834	0.002087	21.4796	85.2542	-165.084	0.028650	1.061367	-0.051123	-0.052399	0.009655	21.4796	-0.051460	-0.100987	-0.095602	NaN
348	1.000000	1.072691	7.36847e+06	-56039.1	955.818	-29740.3	0.000000	0.000000	7.073182	-0.049503	NaN	0.000000	0.001586	0.001740	28.0812	0.020163	0.001912	10.5436	-36.4012	15.2947	-0.064010	1.071308	-0.041075	-0.042458	-0.049503	10.5436	-0.037554	-0.038146	1.297712	NaN
348	1.000000	1.082659	7.36847e+06	-56039.1	955.818	-29740.3	0.000000	0.000000	7.083152	-0.010380	NaN	0.000000	0.001575	0.001736	28.0814	0.088394	0.001882	46.9689	-37.5764	-164.085	0.012301	1.081384	-0.031107	-0.032382	-0.010380	46.9689	-0.030941	-0.024455	0.424444	NaN
348	1.000000	1.092680	7.36847e+06	-56039.1	955.818	-29740.3	0.000000	0.000000	7.093171	-0.057546	NaN	0.000000	0.001540	0.001795	28.0811	0.099722	0.002171	45.9418	31.4919	14.8677	-0.104330	1.091292	-0.021086	-0.022474	-0.057546	45.9418	-0.020147	-0.012669	4.542121	NaN
348	1.000000	1.102675	7.36847e+06	-56039.1	955.818	-29740.3	0.000000	0.000000	7.103170	0.034196	NaN	0.000000	0.001447	0.001756	28.08	0.071485	0.001985	36.0098	-39.9288	-161.942	0.061363	1.101397	-0.011091	-0.012369	0.034196	36.0098	-0.011803	-0.007416	-4.611096	NaN
348	1.000000	1.112700	7.36847e+06	-56039.1	955.819	-29740.3	0.000000	0.000000	7.113193	0.006140	NaN	0.000000	0.001437	0.001801	28.0801	0.107392	0.002098	51.1848	33.7676	15.8388	-0.023016	1.111295	-0.001066	-0.002471	0.006140	51.1848	-0.001156	-0.000845	-7.263882	NaN
348	2.000000	1.122103	7.36847e+06	-56039.1	955.818	-29740.3	0.000000	0.000000	7.122985	9.452664	NaN	0.000000	0.001454	0.001821	28.0803	8.987714	0.001628	5520.34	12.4872	-177.123	9.030014	1.121328	0.008337	0.007562	9.452664	5520.34	0.007053	0.006086	1553.08	64648.6
348	2.000000	1.124774	7.36847e+06	-56039.1	955.818	-29740.3	0.000000	0.000000	7.125827	13.6043	NaN	0.000000	0.001471	0.001776	28.08	11.6248	0.001553	7483.45	9.007528	6.557981	13.2472	1.124362	0.011008	0.010596	13.6043	7483.45	0.009645	0.008789	1547.83	72928.6
348	2.000000	1.127231	7.36847e+06	-56039.1	955.818	-29740.3	0.000000	0.000000	7.128405	16.5437	NaN	0.000000	0.001473	0.001769	28.0801	14.1302	0.001716	8232.3	4.574036	-171.272	16.4405	1.126861	0.013465	0.013095	16.5437	8232.3	0.011958	0.011439	1446.2	70322
348	2.000000	1.129669	7.36847e+06	-56039.1	955.818	-29740.3	0.000000	0.000000	7.131040	21.3311	NaN	0.000000	0.001493	0.001778	28.0801	16.9364	0.001667	10160.9	5.034141	6.366612	20.6245	1.129333	0.015903	0.015567	21.3311	10160.9	0.014328	0.014400	1481.31	77361
348	2.000000	1.132171	7.36847e+06	-56039.1	955.817	-29740.3	0.000000	0.000000	7.133733	25.9959	NaN	0.000000	0.001469	0.001809	28.0801	20.3409	0.001794	11335.4	6.709058	-176.687	25.7608	1.131876	0.018405	0.018110	25.9959	11335.4	0.016685	0.017598	1477.23	78069.2
348	2.000000	1.134664	7.36847e+06	-56039.1	955.818	-29740.3	0.000000	0.000000	7.136395	30.086	NaN	0.000000	0.001494	0.001789	28.0799	22.1259	0.001750	12646.8	4.036460	5.100771	28.2653	1.134300	0.020898	0.020534	30.086	12646.8	0.019114	0.021169	1421.21	79414.7
348	2.000000	1.137177	7.36847e+06	-56039.1	955.818	-29740.3	0.000000	0.000000	7.139190	36.9437	NaN	0.000000	0.001525	0.001775	28.0799	25.1082	0.001780	14104.5	8.950391	178.712	36.7594	1.136799	0.023411	0.023033	36.9437	14104.5	0.021447	0.024867	1485.68	81719.3
348	2.000000	1.139658	7.36847e+06	-56039.1	955.817	-29740.3	0.000000	0.000000	7.141830	40.8077	NaN	0.000000	0.001513	0.001732	28.0802	27.3217	0.001675	16310.2	6.850410	-0.459487	40.2597	1.139298	0.025892	0.025532	40.8077	16310.2	0.024015	0.029249	1395.19	87132.3
348	2.000000	1.142170	7.36847e+06	-56039.1	955.818	-29740.3	0.000000	0.000000	7.144605	47.2051	NaN	0.000000	0.001557	0.001771	28.08	30.4182	0.001823	16684.9	5.509994	-178.618	47.4174	1.141886	0.028404	0.028120	47.2051	16684.9	0.026282	0.033389	1413.8	83424.8
348	2.000000	1.144624	7.36847e+06	-56039.1	955.817	-29740.3	0.000000	0.000000	7.147364	54.6088	NaN	0.000000	0.001531	0.001756	28.0798	32.4752	0.001929	16835.7	4.260566	3.395874	52.1972	1.144295	0.030858	0.030529	54.6088	16835.7	0.028425	0.037543	1454.57	79385.4
348	2.000000	1.147154	7.36847e+06	-56039.1	955.818	-29740.3	0.000000	0.000000	7.150161	61.1006	NaN	0.000000	0.001539	0.001760	28.0801	35.1302	0.001853	18956.2	2.203936	-176.479	61.9081	1.146840	0.033388	0.033073	61.1006	18956.2	0.030971	0.042780	1428.26	83734.8
348	2.000000	1.149607	7.36847e+06	-56039.1	955.817	-29740.3	0.000000	0.000000	7.152911	68.3386	NaN	0.000000	0.001535	0.001783	28.0801	37.6556	0.001776	21206.3	4.978990	-1.591489	65.5132	1.149275	0.035841	0.035509	68.3386	21206.3	0.033424	0.048139	1419.61	88305.6
348	2.000000	1.152125	7.36847e+06	-56039.1	955.818	-29740.3	0.000000	0.000000	7.155662	73.9997	NaN	0.000000	0.001550	0.001780	28.0812	39.8389	0.001860	21421.3	2.960185	-179.357	73.5172	1.151917	0.038359	0.038151	73.9997	21421.3	0.035768	0.053550	1381.89	84574.8
348	2.000000	1.154693	7.36847e+06	-56039.1	955.817	-29740.3	0.000000	0.000000	7.158732	86.1759	NaN	0.000000	0.001520	0.001802	28.081	41.9285	0.001790	23428.8	5.110585	-1.526565	86.7644	1.154308	0.040927	0.040542	86.1759	23428.8	0.038169	0.059381	1451.24	87841.6
348	2.000000	1.157131	7.36847e+06	-56039.1	955.818	-29740.3	0.000000	0.000000	7.161503	94.2999	NaN	0.000000	0.001527	0.001824	28.0812	43.8889	0.001987	22083.7	2.035567	-177.19	93.9413	1.156793	0.043365	0.043027	94.2999	22083.7	0.040162	0.064448	1463.2	79477.2
348	2.000000	1.159614	7.36847e+06	-56039.1	955.818	-29740.3	0.000000	0.000000	7.164468	105.985	NaN	0.000000	0.001552	0.001800	28.0812	45.8828	0.001747	26261.2	3.729510	-1.041398	104.898	1.159235	0.045848	0.045468	105.985	26261.2	0.042821	0.071523	1481.84	89715
348	2.000000	1.162097	7.36847e+06	-56039.1	955.818	-29740.3	0.000000	0.000000	7.167176	111.474	NaN	0.000000	0.001534	0.001819	28.0811	49.7893	0.001944	25618	2.935012	179.356	109.195	1.161849	0.048331	0.048083	111.474	25618	0.045067	0.077778	1433.22	83924.4
348	2.000000	1.164584	7.36847e+06	-56039.1	955.818	-29740.3	0.000000	0.000000	7.170321	127.473	NaN	0.000000	0.001516	0.001792	28.0812	50.502	0.001868	27036.4	1.369956	1.701369	125.04	1.164281	0.050818	0.050515	127.473	27036.4	0.047282	0.084197	1514	85128.4
348	2.000000	1.167074	7.36847e+06	-56039.1	955.818	-29740.3	0.000000	0.000000	7.173139	135.442	NaN	0.000000	0.001524	0.001810	28.0813	52.3564	0.001757	29794.7	5.947990	175.446	133.876	1.166754	0.053308	0.052988	135.442	29794.7	0.049898	0.092100	1470.6	89698
348	2.000000	1.169570	7.36847e+06	-56039.1	955.818	-29740.3	0.000000	0.000000	7.176093	146.571	NaN	0.000000	0.001544	0.001815	28.0812	54.0055	0.001810	29842.6	-0.263109	1.506816	143.367	1.169347	0.055804	0.055581	146.571	29842.6	0.052121	0.099080	1479.32	86619.8
348	2.000000	1.172087	7.36847e+06	-56039.1	955.818	-29740.3	0.000000	0.000000	7.178974	155.428	NaN	0.000000	0.001526	0.001792	28.0811	57.1464	0.001849	30906	4.348602	176.939	156.547	1.171857	0.058321	0.058091	155.428	30906	0.054549	0.106991	1452.72	86326
348	2.000000	1.174575	7.36847e+06	-56039.1	955.818	-29740.3	0.000000	0.000000	7.182339	176.744	NaN	0.000000	0.001510	0.001811	28.0811	58.7272	0.001732	33907.2	6.615945	-6.022697	174.285	1.174167	0.060809	0.060401	176.744	33907.2	0.056900	0.114926	1537.89	91380.9
348	2.000000	1.177143	7.36847e+06	-56039.1	955.818	-29740.3	0.000000	0.000000	7.185342	187.308	NaN	0.000000	0.001520	0.001839	28.0812	60.8272	0.001898	32044.4	9.808220	172.929	190.257	1.176649	0.063377	0.062883	187.308	32044.4	0.058993	0.122223	1532.51	83743.1
348	2.000000	1.179490	7.36847e+06	-56039.1	955.817	-29740.3	0.000000	0.000000	7.188136	198.176	NaN	0.000000	0.001503	0.001802	28.0815	63.695	0.001721	37003.9	6.208885	-6.555374	190.191	1.179152	0.065724	0.065386	198.176	37003.9	0.061708	0.132003	1501.3	93052.7
348	2.000000	1.182047	7.36847e+06	-56039.1	955.818	-29740.3	0.000000	0.000000	7.191164	209.63	NaN	0.000000	0.001537	0.001827	28.0814	66.2409	0.001875	35329.7	0.865773	178.814	207.164	1.181897	0.068281	0.068131	209.63	35329.7	0.063831	0.139903	1498.4	86297.9
348	2.000000	1.184557	7.36847e+06	-56039.1	955.819	-29740.3	0.000000	0.000000	7.194384	226.873	NaN	0.000000	0.001523	0.001821	28.0808	68.9807	0.001785	38638.8	4.935615	-5.926504	221.554	1.184285	0.070791	0.070519	226.873	38638.8	0.066387	0.149703	1515.49	91239.3
348	2.000000	1.187036	7.36847e+06	-56039.1	955.817	-29740.3	0.000000	0.000000	7.197662	246.311	NaN	0.000000	0.001567	0.001840	28.0802	71.1948	0.001818	39159.4	3.312204	176.159	243.398	1.186830	0.073270	0.073064	246.311	39159.4	0.068552	0.158249	1556.47	89937
348	2.000000	1.189584	7.36847e+06	-56039.1	955.818	-29740.3	0.000000	0.000000	7.200944	264.142	NaN	0.000000	0.001539	0.001821	28.08	74.2986	0.001817	40897.4	3.114220	-4.092795	262.603	1.189224	0.075818	0.075458	264.142	40897.4	0.070974	0.168074	1571.58	91142
348	2.000000	1.192028	7.36847e+06	-56039.1	955.817	-29740.3	0.000000	0.000000	7.204268	285.524	NaN	0.000000	0.001567	0.001829	28.08	76.0928	0.001670	45560.4	0.984393	177.193	281.98	1.191723	0.078262	0.077957	285.524	45560.4	0.073562	0.178880	1596.18	98419.2
348	2.000000	1.194590	7.36847e+06	-56039.1	955.818	-29740.3	0.000000	0.000000	7.207776	308.531	NaN	0.000000	0.001595	0.001804	28.08	78.9325	0.001752	45064.3	5.360137	-6.752829	304.776	1.194082	0.080824	0.080316	308.531	45064.3	0.075689	0.187996	1641.16	94958
348	2.000000	1.196981	7.36847e+06	-56039.1	955.817	-29740.3	0.000000	0.000000	7.211117	331.622	NaN	0.000000	0.001594	0.001825	28.0801	81.2113	0.001630	49830.7	2.567077	175.091	327.547	1.196592	0.083215	0.082826	331.622	49830.7	0.078224	0.199140	1665.27	102021
348	2.000000	1.199595	7.36847e+06	-56039.1	955.818	-29740.3	0.000000	0.000000	7.214501	350.343	NaN	0.000000	0.001573	0.001807	28.0801	84.7525	0.001816	46673.9	4.831817	-6.379613	348.623	1.199160	0.085829	0.085394	350.343	46673.9	0.080199	0.208033	1684.08	93493.5
348	2.000000	1.202004	7.36847e+06	-56039.1	955.818	-29740.3	0.000000	0.000000	7.217794	371.816	NaN	0.000000	0.001563	0.001788	28.08	87.9613	0.001910	46063.1	6.231391	171.693	368.652	1.201756	0.088238	0.087990	371.816	46063.1	0.082184	0.217154	1712.22	90311.3
348	2.000000	1.204497	7.36847e+06	-56039.1	955.818	-29740.3	0.000000	0.000000	7.221406	399.041	NaN	0.000000	0.001564	0.001802	28.0802	89.6448	0.001871	47919.8	6.517557	-8.468791	392.589	1.204141	0.090731	0.090375	399.041	47919.8	0.084485	0.227952	1750.55	91699.4
348	2.000000	1.206971	7.36847e+06	-56039.1	955.818	-29740.3	0.000000	0.000000	7.224791	421.166	NaN	0.000000	0.001567	0.001845	28.0802	90.4021	0.001819	49702.3	3.668099	173.981	417.647	1.206704	0.093205	0.092938	421.166	49702.3	0.086850	0.239304	1759.96	92827
348	2.000000	1.209487	7.36847e+06	-56039.1	955.818	-29740.3	0.000000	0.000000	7.228352	446.574	NaN	0.000000	0.001580	0.001837	28.0802	92.9537	0.001843	50425.2	3.149800	-5.568484	440.244	1.209166	0.095721	0.095400	446.574	50425.2	0.089079	0.250243	1784.56	92095.8
348	2.000000	1.212043	7.36847e+06	-56039.1	955.818	-29740.3	0.000000	0.000000	7.231807	468.435	NaN	0.000000	0.001569	0.001813	28.0799	95.0858	0.001815	52396.3	1.963222	175.206	466.396	1.211768	0.098277	0.098002	468.435	52396.3	0.091572	0.262745	1782.85	93391.3
348	2.000000	1.214593	7.36847e+06	-56039.1	955.819	-29740.3	0.000000	0.000000	7.235561	497.683	NaN	0.000000	0.001509	0.001799	28.0802	96.2274	0.001642	58597.2	4.365517	-7.531018	497.103	1.214189	0.100827	0.100423	497.683	58597.2	0.094457	0.277573	1792.98	101616
348	2.000000	1.216971	7.36847e+06	-56039.1	955.819	-29740.3	0.000000	0.000000	7.238751	517.437	NaN	0.000000	0.001526	0.001825	28.08	98.8367	0.001788	55270.6	4.555373	171.891	513.052	1.216737	0.103205	0.102971	517.437	55270.6	0.096183	0.286624	1805.28	94321.6
348	2.000000	1.219487	7.36847e+06	-56039.1	955.818	-29740.3	0.000000	0.000000	7.242624	550.409	NaN	0.000000	0.001499	0.001803	28.0813	102.067	0.001809	56426	4.338040	-7.682751	545.356	1.219211	0.105721	0.105445	550.409	56426	0.098405	0.298474	1844.08	94362.5
348	2.000000	1.220565	7.36847e+06	-56039.1	955.818	-29740.3	0.000000	0.000000	7.244095	559.957	NaN	0.000000	0.001540	0.001788	28.0811	102.8	0.001812	56719.2	5.351555	-8.408906	558.191	1.220191	0.106799	0.106425	559.957	56719.2	0.099395	0.303824	1843.03	94013.8