File: remote_trans/data/nanoindenter/0828-1/data/Data_2025-08-06,11h17m57s/2025-07-22_16-23-58_1_717.txt
2025-07-22, 16:23:58, 1
Index	Phase	Displacement	Time	Pos X	Pos Y	Pos Z	Rot A	Rot B	Piezo Z	Force A	Force B	Gripper	Voltage A	Voltage B	Temperature	Amplitude force	Amplitude pos	Stiffness	Phase shift	Phase excitation	Force A raw	Displacement raw	HMax	HMax raw	Real Force	Real Stiffness	Contact Depth	Area	Hardness	Reduced Mod.
[#]	[#]	[um]	[s]	[um]	[um]	[um]	[m°]	[m°]	[um]	[uN]	[uN]	[V]	[V]	[V]	[°C]	[uN]	[um]	[N/m]	[°]	[°]	[uN]	[um]	[um]	[um]	[uN]	[N/m]	[um]	[um^2]	[MPa]	[MPa]
717	1.000000	0.002992	7.37207e+06	-41239.1	1005.82	-29786.9	0.000000	0.000000	6.002805	0.000435	NaN	0.000000	0.001613	0.001715	28.0819	0.083077	0.000949	87.5081	51.0789	-161.098	-0.000506	0.001731	-1.109509	-1.110770	0.000435	87.5081	-1.109512	-6.725788E+14	-6.474807E-19	NaN
717	1.000000	0.013071	7.37207e+06	-41239.1	1005.82	-29786.9	0.000000	0.000000	6.012884	0.009193	NaN	0.000000	0.001599	0.001729	28.0816	0.045549	0.001302	34.9971	165.021	18.1791	-0.099873	0.011643	-1.099430	-1.100857	0.009193	34.9971	-1.099627	-4.955174E+14	-1.855264E-17	NaN
717	1.000000	0.022965	7.37207e+06	-41239.1	1005.82	-29786.9	0.000000	0.000000	6.022778	-0.010035	NaN	0.000000	0.001609	0.001711	28.0814	0.079719	0.001748	45.5997	-39.9947	-164.891	-0.098299	0.021627	-1.089535	-1.090874	-0.010035	45.5997	-1.089370	-3.608732E+14	2.780893E-17	NaN
717	1.000000	0.032967	7.37207e+06	-41239.1	1005.82	-29786.9	0.000000	0.000000	6.032776	-0.112919	NaN	0.000000	0.001608	0.001699	28.0818	0.028517	0.001903	14.9889	-148.858	13.1275	-0.086812	0.031551	-1.079533	-1.080950	-0.112919	14.9889	-1.073883	-2.235382E+14	5.051442E-16	NaN
717	1.000000	0.042939	7.37207e+06	-41239.1	1005.82	-29786.9	0.000000	0.000000	6.042751	-0.011393	NaN	0.000000	0.001601	0.001715	28.0818	0.063189	0.001944	32.5006	55.8389	-165.615	0.022371	0.041633	-1.069562	-1.070867	-0.011393	32.5006	-1.069299	-1.939840E+14	5.873071E-17	NaN
717	1.000000	0.052925	7.37207e+06	-41239.1	1005.82	-29786.9	0.000000	0.000000	6.052740	0.044482	NaN	0.000000	0.001596	0.001719	28.0818	0.092770	0.002021	45.8973	-175.299	11.3963	0.011352	0.051618	-1.059575	-1.060883	0.044482	45.8973	-1.060302	-1.468510E+14	-3.029054E-16	NaN
717	1.000000	0.062937	7.37207e+06	-41239.1	1005.82	-29786.9	0.000000	0.000000	6.062748	-0.048360	NaN	0.000000	0.001596	0.001708	28.0814	0.085397	0.001948	43.8388	-16.4303	-161.752	-0.032061	0.061616	-1.049563	-1.050885	-0.048360	43.8388	-1.048736	-1.026639E+14	4.710520E-16	NaN
717	1.000000	0.072937	7.37207e+06	-41239.1	1005.82	-29786.9	0.000000	0.000000	6.072751	0.030618	NaN	0.000000	0.001584	0.001706	28.0817	0.085734	0.001981	43.2783	62.4679	15.0407	-0.026467	0.071607	-1.039564	-1.040893	0.030618	43.2783	-1.040094	-7.856638E+13	-3.897030E-16	NaN
717	1.000000	0.082965	7.37207e+06	-41239.1	1005.82	-29786.9	0.000000	0.000000	6.082776	-0.067236	NaN	0.000000	0.001636	0.001676	28.0813	0.070867	0.002019	35.1068	56.7245	-169.315	-0.007226	0.081647	-1.029535	-1.030853	-0.067236	35.1068	-1.028099	-5.418811E+13	1.240780E-15	NaN
717	1.000000	0.092962	7.37207e+06	-41239.1	1005.82	-29786.9	0.000000	0.000000	6.092773	-0.039752	NaN	0.000000	0.001615	0.001695	28.0817	0.048722	0.002146	22.7069	-123.484	15.2879	-0.049143	0.091575	-1.019539	-1.020925	-0.039752	22.7069	-1.018226	-3.990965E+13	9.960448E-16	NaN
717	1.000000	0.102944	7.37207e+06	-41239.1	1005.82	-29786.9	0.000000	0.000000	6.102756	-0.013386	NaN	0.000000	0.001613	0.001739	28.0814	0.039249	0.002077	18.8999	-169.005	-169.821	0.009674	0.101580	-1.009556	-1.010920	-0.013386	18.8999	-1.009025	-3.000981E+13	4.460582E-16	NaN
717	1.000000	0.112964	7.37207e+06	-41239.1	1005.82	-29786.9	0.000000	0.000000	6.112774	-0.071347	NaN	0.000000	0.001645	0.001737	28.0818	0.059741	0.002074	28.8026	173.941	13.8872	-0.073959	0.111557	-0.999536	-1.000943	-0.071347	28.8026	-0.997678	-2.111097E+13	3.379600E-15	NaN
717	1.000000	0.122967	7.37207e+06	-41239.1	1005.82	-29786.9	0.000000	0.000000	6.122777	-0.048191	NaN	0.000000	0.001604	0.001702	28.0827	0.079036	0.001992	39.6767	-44.7095	-165.262	-0.066041	0.121685	-0.989534	-0.990815	-0.048191	39.6767	-0.988623	-1.594279E+13	3.022750E-15	NaN
717	1.000000	0.132969	7.37207e+06	-41239.1	1005.82	-29786.9	0.000000	0.000000	6.132781	-0.020819	NaN	0.000000	0.001611	0.001703	28.0828	0.101248	0.001966	51.5039	69.4603	17.0405	-0.121918	0.131585	-0.979532	-0.980916	-0.020819	51.5039	-0.979228	-1.191281E+13	1.747586E-15	NaN
717	1.000000	0.142996	7.37207e+06	-41239.1	1005.82	-29786.9	0.000000	0.000000	6.142807	-0.039985	NaN	0.000000	0.001639	0.001702	28.0826	0.045295	0.001995	22.7056	57.0578	-164.41	-0.042824	0.141706	-0.969504	-0.970794	-0.039985	22.7056	-0.968183	-8.456293E+12	4.728390E-15	NaN
717	1.000000	0.152952	7.37207e+06	-41239.1	1005.82	-29786.9	0.000000	0.000000	6.152761	-0.071533	NaN	0.000000	0.001624	0.001696	28.0829	0.095737	0.002042	46.8875	74.651	15.8809	-0.055451	0.151664	-0.959549	-0.960837	-0.071533	46.8875	-0.958405	-6.242530E+12	1.145903E-14	NaN
717	1.000000	0.162964	7.37207e+06	-41239.1	1005.82	-29786.9	0.000000	0.000000	6.162776	-0.035143	NaN	0.000000	0.001617	0.001715	28.0826	0.127835	0.001935	66.0786	45.9274	-165.549	0.021466	0.161687	-0.949536	-0.950814	-0.035143	66.0786	-0.949137	-4.681565E+12	7.506781E-15	NaN
717	1.000000	0.172981	7.37207e+06	-41239.1	1005.82	-29786.9	0.000000	0.000000	6.172793	-0.012111	NaN	0.000000	0.001632	0.001743	28.0827	0.061557	0.001909	32.2388	-117.077	14.7196	0.028826	0.171618	-0.939519	-0.940883	-0.012111	32.2388	-0.939238	-3.442325E+12	3.518148E-15	NaN
717	1.000000	0.183014	7.37207e+06	-41239.1	1005.82	-29786.9	0.000000	0.000000	6.182826	-0.011687	NaN	0.000000	0.001605	0.001688	28.0827	0.079367	0.002034	39.011	-168.434	-166.473	-0.032972	0.181641	-0.929486	-0.930859	-0.011687	39.011	-0.929262	-2.524831E+12	4.628837E-15	NaN
717	1.000000	0.192994	7.37207e+06	-41239.1	1005.82	-29786.9	0.000000	0.000000	6.192807	0.002537	NaN	0.000000	0.001647	0.001707	28.0827	0.046053	0.002061	22.3411	-176.266	12.5056	-0.068063	0.191635	-0.919506	-0.920866	0.002537	22.3411	-0.919591	-1.869341E+12	-1.357316E-15	NaN
717	1.000000	0.203011	7.37207e+06	-41239.1	1005.82	-29786.9	0.000000	0.000000	6.202820	-0.099946	NaN	0.000000	0.001626	0.001689	28.0825	0.066186	0.001887	35.0661	56.6155	-166.567	-0.020416	0.201686	-0.909489	-0.910814	-0.099946	35.0661	-0.907351	-1.277571E+12	7.823135E-14	NaN
717	1.000000	0.212997	7.37207e+06	-41239.1	1005.82	-29786.9	0.000000	0.000000	6.212805	-0.113761	NaN	0.000000	0.001641	0.001676	28.0826	0.064882	0.001825	35.5515	122.818	11.1688	-0.108387	0.211604	-0.899504	-0.900896	-0.113761	35.5515	-0.897104	-9.288187E+11	1.224792E-13	NaN
717	1.000000	0.223031	7.37207e+06	-41239.1	1005.82	-29786.9	0.000000	0.000000	6.222842	-0.042386	NaN	0.000000	0.001595	0.001741	28.0828	0.063495	0.002095	30.3049	-17.2666	-164.15	0.042809	0.221691	-0.889470	-0.890809	-0.042386	30.3049	-0.888421	-7.088733E+11	5.979337E-14	NaN
717	1.000000	0.232997	7.37207e+06	-41239.1	1005.82	-29786.9	0.000000	0.000000	6.232806	-0.095697	NaN	0.000000	0.001613	0.001718	28.0826	0.044864	0.001943	23.0938	44.3636	14.0973	-0.107087	0.231623	-0.879503	-0.880877	-0.095697	23.0938	-0.876395	-4.874786E+11	1.963098E-13	NaN
717	1.000000	0.243021	7.37207e+06	-41239.1	1005.82	-29786.9	0.000000	0.000000	6.242829	-0.121097	NaN	0.000000	0.001617	0.001705	28.0825	0.031852	0.002044	15.5828	1.583222	-167.271	0.020226	0.241727	-0.869479	-0.870773	-0.121097	15.5828	-0.863651	-3.277392E+11	3.694906E-13	NaN
717	1.000000	0.252993	7.37207e+06	-41239.1	1005.82	-29786.9	0.000000	0.000000	6.252804	-0.052783	NaN	0.000000	0.001613	0.001669	28.0816	0.049641	0.002028	24.4765	112.577	17.7617	-0.065381	0.251684	-0.859507	-0.860816	-0.052783	24.4765	-0.857890	-2.738777E+11	1.927249E-13	NaN
717	1.000000	0.263044	7.37207e+06	-41239.1	1005.82	-29786.9	0.000000	0.000000	6.262851	-0.138926	NaN	0.000000	0.001612	0.001744	28.0813	0.037356	0.002041	18.3033	-161.227	-164.266	-0.161198	0.261735	-0.849456	-0.850765	-0.138926	18.3033	-0.843764	-1.763107E+11	7.879633E-13	NaN
717	1.000000	0.273011	7.37207e+06	-41239.1	1005.82	-29786.9	0.000000	0.000000	6.272820	-0.099764	NaN	0.000000	0.001607	0.001742	28.0814	0.134303	0.001905	70.4945	-44.95	13.0671	-0.231960	0.271674	-0.839490	-0.840827	-0.099764	70.4945	-0.838428	-1.492786E+11	6.683104E-13	NaN
717	1.000000	0.283038	7.37207e+06	-41239.1	1005.82	-29786.9	0.000000	0.000000	6.282848	-0.060162	NaN	0.000000	0.001623	0.001700	28.0812	0.088937	0.001971	45.1197	-44.866	-163.893	-0.074554	0.281759	-0.829463	-0.830741	-0.060162	45.1197	-0.828463	-1.093819E+11	5.500162E-13	NaN
717	1.000000	0.293041	7.37207e+06	-41239.1	1005.82	-29786.9	0.000000	0.000000	6.292856	0.045191	NaN	0.000000	0.001604	0.001714	28.0814	0.054966	0.002089	26.3086	68.1254	12.8306	0.082700	0.291652	-0.819460	-0.820848	0.045191	26.3086	-0.820748	-8.597122E+10	-5.256548E-13	NaN
717	1.000000	0.303033	7.37207e+06	-41239.1	1005.82	-29786.9	0.000000	0.000000	6.302844	-0.037766	NaN	0.000000	0.001604	0.001734	28.0812	0.085565	0.002078	41.1684	74.9826	-165.896	-0.040382	0.301814	-0.809468	-0.810686	-0.037766	41.1684	-0.808780	-5.915844E+10	6.383944E-13	NaN
717	1.000000	0.313047	7.37207e+06	-41239.1	1005.82	-29786.9	0.000000	0.000000	6.312858	-0.040241	NaN	0.000000	0.001556	0.001704	28.0811	0.048243	0.002110	22.8647	-44.6656	14.896	-0.040634	0.311700	-0.799454	-0.800801	-0.040241	22.8647	-0.798134	-4.241573E+10	9.487218E-13	NaN
717	1.000000	0.323020	7.37207e+06	-41239.1	1005.82	-29786.9	0.000000	0.000000	6.322833	-0.004444	NaN	0.000000	0.001582	0.001717	28.0812	0.131365	0.002036	64.5081	118.454	-166.488	0.057239	0.321733	-0.789480	-0.790767	-0.004444	64.5081	-0.789428	-3.230871E+10	1.375404E-13	NaN
717	1.000000	0.333050	7.37207e+06	-41239.1	1005.82	-29786.9	0.000000	0.000000	6.332861	-0.056594	NaN	0.000000	0.001593	0.001721	28.0814	0.088447	0.002002	44.182	157.816	14.033	-0.078653	0.331730	-0.779450	-0.780770	-0.056594	44.182	-0.778490	-2.294603E+10	2.466386E-12	NaN
717	1.000000	0.343064	7.37207e+06	-41239.1	1005.82	-29786.9	0.000000	0.000000	6.342875	-0.041517	NaN	0.000000	0.001609	0.001732	28.0815	0.057495	0.001872	30.7205	-154.673	-163.811	0.027857	0.341748	-0.769437	-0.770753	-0.041517	30.7205	-0.768423	-1.674413E+10	2.479520E-12	NaN
717	1.000000	0.353050	7.37207e+06	-41239.1	1005.82	-29786.9	0.000000	0.000000	6.352861	-0.050504	NaN	0.000000	0.001636	0.001725	28.081	0.079719	0.002010	39.6515	104.28	15.2398	-0.068513	0.351688	-0.759450	-0.760812	-0.050504	39.6515	-0.758495	-1.226956E+10	4.116198E-12	NaN
717	1.000000	0.363044	7.37207e+06	-41239.1	1005.82	-29786.9	0.000000	0.000000	6.362854	-0.055939	NaN	0.000000	0.001616	0.001691	28.0814	0.090892	0.002018	45.0434	132.512	-164.124	-0.084024	0.361746	-0.749457	-0.750755	-0.055939	45.0434	-0.748525	-8.977242E+9	6.231171E-12	NaN
717	1.000000	0.373101	7.37207e+06	-41239.1	1005.82	-29786.9	0.000000	0.000000	6.372913	-0.030381	NaN	0.000000	0.001627	0.001725	28.0814	0.106819	0.001939	55.1005	-20.0859	14.9578	-0.042958	0.371698	-0.739399	-0.740802	-0.030381	55.1005	-0.738986	-6.656418E+9	4.564094E-12	NaN
717	1.000000	0.383073	7.37207e+06	-41239.1	1005.82	-29786.9	0.000000	0.000000	6.382886	-0.006241	NaN	0.000000	0.001595	0.001712	28.0813	0.033031	0.002059	16.0389	-33.7472	-165.832	0.012519	0.381768	-0.729427	-0.730732	-0.006241	16.0389	-0.729135	-4.886755E+9	1.277106E-12	NaN
717	1.000000	0.393077	7.37207e+06	-41239.1	1005.82	-29786.9	0.000000	0.000000	6.392887	-0.057588	NaN	0.000000	0.001596	0.001714	28.0825	0.088109	0.002033	43.3293	-166.238	10.8226	-0.093511	0.391730	-0.719423	-0.720770	-0.057588	43.3293	-0.718427	-3.491523E+9	1.649370E-11	NaN
717	1.000000	0.403085	7.37207e+06	-41239.1	1005.82	-29786.9	0.000000	0.000000	6.402897	-0.011599	NaN	0.000000	0.001647	0.001708	28.0827	0.062963	0.001996	31.5484	62.6186	-164.196	-0.151557	0.401813	-0.709416	-0.710687	-0.011599	31.5484	-0.709140	-2.608035E+9	4.447328E-12	NaN
717	1.000000	0.413115	7.37207e+06	-41239.1	1005.82	-29786.9	0.000000	0.000000	6.412925	-0.072750	NaN	0.000000	0.001652	0.001715	28.0825	0.046353	0.001959	23.66	112.227	15.1874	-0.056141	0.411750	-0.699385	-0.700750	-0.072750	23.66	-0.697079	-1.784991E+9	4.075664E-11	NaN
717	1.000000	0.423110	7.37207e+06	-41239.1	1005.82	-29786.9	0.000000	0.000000	6.422922	-0.022502	NaN	0.000000	0.001641	0.001711	28.0823	0.137294	0.002090	65.6978	-75.9486	-160.932	-0.061970	0.421797	-0.689391	-0.690703	-0.022502	65.6978	-0.689134	-1.390206E+9	1.618636E-11	NaN
717	1.000000	0.433105	7.37207e+06	-41239.1	1005.82	-29786.9	0.000000	0.000000	6.432917	-0.019755	NaN	0.000000	0.001622	0.001698	28.0822	0.054926	0.002014	27.2666	-123.09	16.6971	-0.064855	0.431718	-0.679395	-0.680782	-0.019755	27.2666	-0.678852	-1.005774E+9	1.964127E-11	NaN
717	1.000000	0.443123	7.37207e+06	-41239.1	1005.82	-29786.9	0.000000	0.000000	6.442934	-0.038858	NaN	0.000000	0.001592	0.001694	28.0825	0.043343	0.002016	21.4995	-159.546	-165.027	0.007706	0.441801	-0.669377	-0.670699	-0.038858	21.4995	-0.668022	-7.150127E+8	5.434611E-11	NaN
717	1.000000	0.453081	7.37207e+06	-41239.1	1005.82	-29786.9	0.000000	0.000000	6.452891	-0.072362	NaN	0.000000	0.001642	0.001692	28.0823	0.012365	0.002037	6.069002	-65.7684	16.4538	-0.113096	0.451765	-0.659420	-0.660735	-0.072362	6.069002	-0.650477	-4.111274E+8	1.760095E-10	NaN
717	1.000000	0.463108	7.37207e+06	-41239.1	1005.82	-29786.9	0.000000	0.000000	6.462918	-0.071570	NaN	0.000000	0.001654	0.001699	28.0823	0.042840	0.002016	21.2474	-133.153	-164.761	-0.007494	0.461771	-0.649393	-0.650730	-0.071570	21.2474	-0.646866	-3.668374E+8	1.950989E-10	NaN
717	1.000000	0.473094	7.37207e+06	-41239.1	1005.82	-29786.9	0.000000	0.000000	6.472906	-0.021252	NaN	0.000000	0.001616	0.001704	28.0823	0.068352	0.001785	38.2879	90.3761	14.5144	0.047693	0.471800	-0.639406	-0.640701	-0.021252	38.2879	-0.638990	-2.860403E+8	7.429630E-11	NaN
717	1.000000	0.483122	7.37207e+06	-41239.1	1005.82	-29786.9	0.000000	0.000000	6.482934	-0.020063	NaN	0.000000	0.001645	0.001735	28.0825	0.076813	0.002005	38.3195	-6.793300	-165.003	0.019857	0.481828	-0.629379	-0.630672	-0.020063	38.3195	-0.628986	-2.084972E+8	9.622471E-11	NaN
717	1.000000	0.493128	7.37207e+06	-41239.1	1005.82	-29786.9	0.000000	0.000000	6.492943	0.037629	NaN	0.000000	0.001620	0.001713	28.0824	0.045048	0.002086	21.5913	125.295	11.3173	0.062688	0.491764	-0.619372	-0.620736	0.037629	21.5913	-0.620679	-1.603127E+8	-2.347226E-10	NaN
717	1.000000	0.503127	7.37207e+06	-41239.1	1005.82	-29786.9	0.000000	0.000000	6.502936	-0.092054	NaN	0.000000	0.001630	0.001721	28.0824	0.149599	0.002113	70.7942	-137.92	-166.802	-0.005614	0.501789	-0.609373	-0.610712	-0.092054	70.7942	-0.608398	-1.086605E+8	8.471708E-10	NaN
717	1.000000	0.513150	7.37207e+06	-41239.1	1005.82	-29786.9	0.000000	0.000000	6.512961	-0.060959	NaN	0.000000	0.001650	0.001727	28.0826	0.049504	0.002052	24.1201	-144.652	14.3253	0.064080	0.511800	-0.599350	-0.600701	-0.060959	24.1201	-0.597455	-7.680669E+7	7.936613E-10	NaN
717	1.000000	0.523147	7.37207e+06	-41239.1	1005.82	-29786.9	0.000000	0.000000	6.522960	-0.000901	NaN	0.000000	0.001628	0.001715	28.0825	0.085697	0.001924	44.5492	-15.3724	-167.317	-0.090526	0.521829	-0.589353	-0.590671	-0.000901	44.5492	-0.589338	-5.936657E+7	1.517358E-11	NaN
717	1.000000	0.533135	7.37207e+06	-41239.1	1005.82	-29786.9	0.000000	0.000000	6.532947	-0.016999	NaN	0.000000	0.001664	0.001736	28.0815	0.087364	0.001947	44.8771	-19.1236	14.5622	-0.108076	0.531779	-0.579366	-0.580721	-0.016999	44.8771	-0.579082	-4.285989E+7	3.966079E-10	NaN
717	1.000000	0.543158	7.37207e+06	-41239.1	1005.82	-29786.9	0.000000	0.000000	6.542969	-0.060400	NaN	0.000000	0.001602	0.001708	28.0814	0.090282	0.002032	44.4261	-136.753	-163.929	-0.092309	0.541833	-0.569342	-0.570667	-0.060400	44.4261	-0.568322	-3.044034E+7	1.984220E-9	NaN
717	1.000000	0.553153	7.37207e+06	-41239.1	1005.82	-29786.9	0.000000	0.000000	6.552963	-0.065804	NaN	0.000000	0.001623	0.001715	28.083	0.095238	0.001943	49.0202	114.535	18.1343	0.011091	0.551774	-0.559348	-0.560727	-0.065804	49.0202	-0.558341	-2.215252E+7	2.970480E-9	NaN
717	1.000000	0.563150	7.37207e+06	-41239.1	1005.82	-29786.9	0.000000	0.000000	6.562962	-0.033133	NaN	0.000000	0.001599	0.001711	28.0813	0.082518	0.001965	41.9853	-20.7297	-163.795	-0.025996	0.561886	-0.549350	-0.550614	-0.033133	41.9853	-0.548758	-1.632140E+7	2.030050E-9	NaN
717	1.000000	0.573171	7.37207e+06	-41239.1	1005.82	-29786.9	0.000000	0.000000	6.572981	-0.068242	NaN	0.000000	0.001575	0.001744	28.0813	0.029663	0.001995	14.8703	62.7673	14.6822	-0.077691	0.571802	-0.539329	-0.540698	-0.068242	14.8703	-0.535888	-1.082197E+7	6.305907E-9	NaN
717	1.000000	0.583168	7.37207e+06	-41239.1	1005.82	-29786.9	0.000000	0.000000	6.582978	-0.073046	NaN	0.000000	0.001587	0.001715	28.0812	0.078217	0.002059	37.9826	-45.1333	-168.741	-0.084815	0.581859	-0.529332	-0.530642	-0.073046	37.9826	-0.527890	-8.38035e+06	8.716303E-9	NaN
717	1.000000	0.593143	7.37207e+06	-41239.1	1005.82	-29786.9	0.000000	0.000000	6.592955	-0.032845	NaN	0.000000	0.001610	0.001735	28.0814	0.092025	0.001956	47.0538	-151.706	15.2764	-0.098878	0.591815	-0.519357	-0.520685	-0.032845	47.0538	-0.518834	-6.27157e+06	5.237046E-9	NaN
717	1.000000	0.603180	7.37207e+06	-41239.1	1005.82	-29786.9	0.000000	0.000000	6.602992	-0.037246	NaN	0.000000	0.001622	0.001757	28.0812	0.045787	0.002112	21.6847	-111.023	-167.843	-0.024304	0.601847	-0.509320	-0.510654	-0.037246	21.6847	-0.508032	-4.43604e+06	8.396272E-9	NaN
717	1.000000	0.613145	7.37207e+06	-41239.1	1005.82	-29786.9	0.000000	0.000000	6.612954	-0.096502	NaN	0.000000	0.001630	0.001726	28.0813	0.057472	0.001939	29.6386	-7.183728	12.7611	-0.082069	0.611867	-0.499355	-0.500633	-0.096502	29.6386	-0.496913	-3.10414e+06	3.108819E-8	NaN
717	1.000000	0.623194	7.37207e+06	-41239.1	1005.82	-29786.9	0.000000	0.000000	6.623001	-0.123496	NaN	0.000000	0.001637	0.001738	28.0814	0.057486	0.001913	30.0463	115.643	-164.907	-0.162404	0.621824	-0.489307	-0.490676	-0.123496	30.0463	-0.486224	-2.20095e+06	5.611004E-8	NaN
717	1.000000	0.633202	7.37207e+06	-41239.1	1005.82	-29786.9	0.000000	0.000000	6.633011	-0.102940	NaN	0.000000	0.001651	0.001699	28.0816	0.049803	0.002013	24.7467	130.751	13.3377	-0.076572	0.631857	-0.479298	-0.480644	-0.102940	24.7467	-0.476178	-1.59224e+06	6.465100E-8	NaN
717	1.000000	0.643172	7.37207e+06	-41239.1	1005.82	-29786.9	0.000000	0.000000	6.642982	-0.071074	NaN	0.000000	0.001667	0.001737	28.0812	0.072733	0.002011	36.1743	166.776	-166.791	-0.145836	0.641921	-0.469328	-0.470579	-0.071074	36.1743	-0.467855	-1.21706e+06	5.839849E-8	NaN
717	1.000000	0.653152	7.37207e+06	-41239.1	1005.82	-29786.9	0.000000	0.000000	6.652963	-0.053342	NaN	0.000000	0.001655	0.001727	28.0815	0.075505	0.001998	37.7934	-80.7106	14.9323	-0.050816	0.651837	-0.459348	-0.460664	-0.053342	37.7934	-0.458290	-893261	5.971581E-8	NaN
717	1.000000	0.663191	7.37207e+06	-41239.1	1005.82	-29786.9	0.000000	0.000000	6.663005	0.009989	NaN	0.000000	0.001661	0.001716	28.0823	0.081337	0.001959	41.5237	-167.513	-167.121	0.003383	0.661865	-0.449309	-0.450635	0.009989	41.5237	-0.449490	-671667	-1.487145E-8	NaN
717	1.000000	0.673194	7.37207e+06	-41239.1	1005.82	-29786.9	0.000000	0.000000	6.673005	-0.038111	NaN	0.000000	0.001694	0.001695	28.0824	0.093076	0.002010	46.3054	124.323	16.8971	0.046062	0.671810	-0.439307	-0.440690	-0.038111	46.3054	-0.438689	-473001	8.057308E-8	NaN
717	1.000000	0.683191	7.37207e+06	-41239.1	1005.82	-29786.9	0.000000	0.000000	6.683002	-0.050013	NaN	0.000000	0.001638	0.001680	28.0824	0.117327	0.001996	58.7846	0.361892	-166.458	-0.078390	0.681898	-0.429310	-0.430603	-0.050013	58.7846	-0.428671	-341400	1.464944E-7	NaN
717	1.000000	0.693221	7.37207e+06	-41239.1	1005.82	-29786.9	0.000000	0.000000	6.693033	-0.023450	NaN	0.000000	0.001607	0.001717	28.0822	0.043362	0.001967	22.0476	159.263	17.386	-0.123642	0.691846	-0.419279	-0.420654	-0.023450	22.0476	-0.418481	-244834	9.577777E-8	NaN
717	1.000000	0.703204	7.37207e+06	-41239.1	1005.82	-29786.9	0.000000	0.000000	6.703014	-0.057985	NaN	0.000000	0.001599	0.001759	28.0825	0.077122	0.001998	38.598	-87.0501	-165.143	0.025616	0.701882	-0.409296	-0.410618	-0.057985	38.598	-0.408170	-174730	3.318552E-7	NaN
717	1.000000	0.713233	7.37207e+06	-41239.1	1005.82	-29786.9	0.000000	0.000000	6.713045	-0.022003	NaN	0.000000	0.001617	0.001758	28.0822	0.046299	0.001976	23.4312	-154.554	16.8035	-0.040190	0.711834	-0.399267	-0.400667	-0.022003	23.4312	-0.398563	-127495	1.725774E-7	NaN
717	1.000000	0.723218	7.37207e+06	-41239.1	1005.82	-29786.9	0.000000	0.000000	6.723028	-0.067494	NaN	0.000000	0.001648	0.001719	28.0822	0.102656	0.001992	51.5217	10.446	-164.855	-0.096201	0.721878	-0.389282	-0.390622	-0.067494	51.5217	-0.388300	-90957.3	7.420455E-7	NaN
717	1.000000	0.733243	7.37207e+06	-41239.1	1005.82	-29786.9	0.000000	0.000000	6.733054	-0.054867	NaN	0.000000	0.001646	0.001726	28.0823	0.053486	0.002177	24.5685	14.0766	16.5587	-0.088685	0.731876	-0.379257	-0.380625	-0.054867	24.5685	-0.377582	-63852.2	8.592837E-7	NaN
717	1.000000	0.743207	7.37207e+06	-41239.1	1005.82	-29786.9	0.000000	0.000000	6.743018	-0.036271	NaN	0.000000	0.001622	0.001728	28.0822	0.049455	0.002014	24.5543	125.143	-164.381	-0.037002	0.741941	-0.369293	-0.370559	-0.036271	24.5543	-0.368186	-46772.3	7.754731E-7	NaN
717	1.000000	0.753231	7.37207e+06	-41239.1	1005.82	-29786.9	0.000000	0.000000	6.753044	0.009625	NaN	0.000000	0.001627	0.001738	28.0822	0.061984	0.001949	31.8074	-165.344	14.4946	-0.096699	0.751869	-0.359269	-0.360631	0.009625	31.8074	-0.359496	-35039.9	-2.746919E-7	NaN
717	1.000000	0.763245	7.37207e+06	-41239.1	1005.82	-29786.9	0.000000	0.000000	6.763058	-0.008708	NaN	0.000000	0.001639	0.001749	28.0823	0.036933	0.001984	18.6128	115.536	-163.272	-0.089451	0.761863	-0.349255	-0.350637	-0.008708	18.6128	-0.348904	-24609.1	3.538622E-7	NaN
717	1.000000	0.773228	7.37207e+06	-41239.1	1005.82	-29786.9	0.000000	0.000000	6.773040	-0.024579	NaN	0.000000	0.001652	0.001735	28.0825	0.079555	0.002011	39.5639	-82.2413	14.1074	-0.045914	0.771900	-0.339272	-0.340601	-0.024579	39.5639	-0.338806	-17544.7	1.400948E-6	NaN
717	1.000000	0.783244	7.37207e+06	-41239.1	1005.82	-29786.9	0.000000	0.000000	6.783055	-0.050491	NaN	0.000000	0.001657	0.001721	28.0822	0.024603	0.001985	12.3932	102.511	-167.694	-0.045861	0.781929	-0.329256	-0.330571	-0.050491	12.3932	-0.326201	-11475.1	4.400059E-6	NaN
717	1.000000	0.793243	7.37207e+06	-41239.1	1005.82	-29786.9	0.000000	0.000000	6.793049	-0.144360	NaN	0.000000	0.001612	0.001742	28.0825	0.056560	0.002013	28.1037	-54.6355	12.3589	-0.112422	0.791864	-0.319258	-0.320636	-0.144360	28.1037	-0.315405	-7960.28	1.813507E-5	NaN
717	1.000000	0.803242	7.37207e+06	-41239.1	1005.82	-29786.9	0.000000	0.000000	6.803053	-0.050232	NaN	0.000000	0.001598	0.001730	28.0814	0.075002	0.002053	36.5346	168.692	-167.99	-0.133100	0.801929	-0.309258	-0.310571	-0.050232	36.5346	-0.308227	-6234.52	8.057146E-6	NaN
717	1.000000	0.813250	7.37207e+06	-41239.1	1005.82	-29786.9	0.000000	0.000000	6.813063	-0.000268	NaN	0.000000	0.001595	0.001699	28.0813	0.129211	0.002009	64.332	-10.1632	13.8505	-0.013451	0.811922	-0.299250	-0.300579	-0.000268	64.332	-0.299247	-4585.94	5.846629E-8	NaN
717	1.000000	0.823250	7.37207e+06	-41239.1	1005.82	-29786.9	0.000000	0.000000	6.823059	-0.085031	NaN	0.000000	0.001612	0.001695	28.0814	0.060182	0.002048	29.3844	1.221590	-166.166	-0.081638	0.821978	-0.289250	-0.290523	-0.085031	29.3844	-0.287080	-3016.56	2.818818E-5	NaN
717	1.000000	0.833273	7.37207e+06	-41239.1	1005.82	-29786.9	0.000000	0.000000	6.833082	-0.079444	NaN	0.000000	0.001604	0.001695	28.0813	0.114705	0.002007	57.1572	-174.138	15.5696	-0.151655	0.831877	-0.279228	-0.280623	-0.079444	57.1572	-0.278185	-2216.03	3.584989E-5	NaN
717	1.000000	0.843286	7.37207e+06	-41239.1	1005.82	-29786.9	0.000000	0.000000	6.843096	-0.055382	NaN	0.000000	0.001625	0.001778	28.0818	0.097008	0.002024	47.9304	65.3968	-166.06	-0.115914	0.841962	-0.269215	-0.270538	-0.055382	47.9304	-0.268348	-1571.87	3.523300E-5	NaN
717	1.000000	0.853274	7.37207e+06	-41239.1	1005.82	-29786.9	0.000000	0.000000	6.853086	-0.042857	NaN	0.000000	0.001594	0.001732	28.0813	0.046281	0.001963	23.582	-172.693	17.6164	-0.037874	0.851946	-0.259226	-0.260554	-0.042857	23.582	-0.257863	-1086.76	3.943565E-5	NaN
717	1.000000	0.863279	7.37207e+06	-41239.1	1005.82	-29786.9	0.000000	0.000000	6.863092	-0.001221	NaN	0.000000	0.001604	0.001718	28.0813	0.026205	0.002072	12.6476	5.580971	-164.87	-0.077387	0.861983	-0.249222	-0.250517	-0.001221	12.6476	-0.249149	-797.635	1.530846E-6	NaN
717	1.000000	0.873285	7.37207e+06	-41239.1	1005.82	-29786.9	0.000000	0.000000	6.873095	-0.072498	NaN	0.000000	0.001627	0.001700	28.0813	0.077596	0.002073	37.4314	63.3031	12.6052	-0.068832	0.871921	-0.239216	-0.240579	-0.072498	37.4314	-0.237763	-530.361	0.000137	NaN
717	1.000000	0.883302	7.37207e+06	-41239.1	1005.82	-29786.9	0.000000	0.000000	6.883112	-0.063246	NaN	0.000000	0.001710	0.001703	28.0815	0.072804	0.002000	36.4017	74.2084	-167.534	-0.009830	0.882027	-0.229198	-0.230473	-0.063246	36.4017	-0.227895	-370.888	0.000171	NaN
717	1.000000	0.893284	7.37207e+06	-41239.1	1005.82	-29786.9	0.000000	0.000000	6.893094	-0.076084	NaN	0.000000	0.001706	0.001732	28.0814	0.062294	0.001964	31.719	148.071	14.7216	-0.142950	0.891907	-0.219216	-0.220593	-0.076084	31.719	-0.217417	-252.54	0.000301	NaN
717	1.000000	0.903324	7.37207e+06	-41239.1	1005.82	-29786.9	0.000000	0.000000	6.903133	-0.104465	NaN	0.000000	0.001654	0.001721	28.0815	0.053087	0.001910	27.7892	-40.3146	-165.547	-0.065316	0.901982	-0.209176	-0.210518	-0.104465	27.7892	-0.206357	-167.366	0.000624	NaN
717	1.000000	0.913314	7.37207e+06	-41239.1	1005.82	-29786.9	0.000000	0.000000	6.913125	-0.028102	NaN	0.000000	0.001689	0.001734	28.0817	0.069835	0.002014	34.6803	-112.813	13.5544	0.029630	0.911907	-0.199187	-0.200594	-0.028102	34.6803	-0.198579	-124.831	0.000225	NaN
717	1.000000	0.923264	7.37207e+06	-41239.1	1005.82	-29786.9	0.000000	0.000000	6.923076	-0.029005	NaN	0.000000	0.001679	0.001702	28.0814	0.021549	0.001947	11.0694	-134.274	-167.023	-0.068388	0.921984	-0.189236	-0.190517	-0.029005	11.0694	-0.187271	-80.9702	0.000358	NaN
717	1.000000	0.933319	7.37207e+06	-41239.1	1005.82	-29786.9	0.000000	0.000000	6.933128	-0.089500	NaN	0.000000	0.001711	0.001727	28.0816	0.054877	0.002042	26.871	-176.718	16.2822	-0.051864	0.931976	-0.179181	-0.180524	-0.089500	26.871	-0.176683	-53.5619	0.001671	NaN
717	1.000000	0.943300	7.37207e+06	-41239.1	1005.82	-29786.9	0.000000	0.000000	6.943112	-0.017416	NaN	0.000000	0.001714	0.001760	28.0828	0.022174	0.002019	10.981	-67.7448	-165.037	-0.060215	0.942000	-0.169200	-0.170500	-0.017416	10.981	-0.168011	-37.9308	0.000459	NaN
717	1.000000	0.953303	7.37207e+06	-41239.1	1005.82	-29786.9	0.000000	0.000000	6.953113	-0.079103	NaN	0.000000	0.001706	0.001699	28.083	0.008920	0.002058	4.334839	-90.7662	16.2659	0.001804	0.951930	-0.159197	-0.160571	-0.079103	4.334839	-0.145511	-14.9835	0.005279	NaN
717	1.000000	0.963304	7.37207e+06	-41239.1	1005.82	-29786.9	0.000000	0.000000	6.963117	0.006835	NaN	0.000000	0.001707	0.001685	28.0829	0.058466	0.002034	28.7384	95.2593	-167.445	-0.052472	0.962031	-0.149196	-0.150469	0.006835	28.7384	-0.149375	-17.6437	-0.000387	NaN
717	1.000000	0.973343	7.37207e+06	-41239.1	1005.82	-29786.9	0.000000	0.000000	6.973156	0.005509	NaN	0.000000	0.001707	0.001677	28.083	0.061977	0.001983	31.2508	-90.7849	16.8748	0.023132	0.971960	-0.139157	-0.140541	0.005509	31.2508	-0.139290	-11.4712	-0.000480	NaN
717	1.000000	0.983339	7.37207e+06	-41239.1	1005.82	-29786.9	0.000000	0.000000	6.983150	-0.027192	NaN	0.000000	0.001717	0.001709	28.0828	0.034621	0.002011	17.2194	126.283	-165.926	0.018968	0.982043	-0.129162	-0.130458	-0.027192	17.2194	-0.127977	-6.959507	0.003907	NaN
717	1.000000	0.993342	7.37207e+06	-41239.1	1005.82	-29786.9	0.000000	0.000000	6.993152	-0.073696	NaN	0.000000	0.001676	0.001647	28.0828	0.124086	0.002146	57.8139	49.3434	16.7656	-0.040089	0.991963	-0.119158	-0.120538	-0.073696	57.8139	-0.118202	-4.442898	0.016587	NaN
717	1.000000	1.003356	7.37207e+06	-41239.1	1005.82	-29786.9	0.000000	0.000000	7.003170	0.028638	NaN	0.000000	0.001720	0.001660	28.0828	0.067999	0.002019	33.6869	111.601	-165.238	-0.057217	1.002075	-0.109144	-0.110426	0.028638	33.6869	-0.109782	-2.973510	-0.009631	NaN
717	1.000000	1.013311	7.37207e+06	-41239.1	1005.82	-29786.9	0.000000	0.000000	7.013121	-0.074920	NaN	0.000000	0.001682	0.001689	28.0828	0.144540	0.002082	69.4074	-100.415	14.5002	-0.026170	1.011970	-0.099189	-0.100530	-0.074920	69.4074	-0.098380	-1.681506	0.044555	NaN
717	1.000000	1.023344	7.37207e+06	-41239.1	1005.82	-29786.9	0.000000	0.000000	7.023148	-0.214893	NaN	0.000000	0.001679	0.001645	28.083	0.147093	0.001955	75.2262	-157.269	-166.242	-0.125315	1.021998	-0.089156	-0.090502	-0.214893	75.2262	-0.087013	-0.918547	0.233949	NaN
717	1.000000	1.033322	7.37207e+06	-41239.1	1005.82	-29786.9	0.000000	0.000000	7.033133	-0.036425	NaN	0.000000	0.001709	0.001646	28.0829	0.030366	0.001934	15.6999	118.222	11.259	0.047234	1.031980	-0.079178	-0.080521	-0.036425	15.6999	-0.077438	-0.533430	0.068285	NaN
717	1.000000	1.043342	7.37207e+06	-41239.1	1005.82	-29786.9	0.000000	0.000000	7.043155	0.005425	NaN	0.000000	0.001694	0.001718	28.0825	0.057534	0.002012	28.5883	-39.526	-165.489	-0.027518	1.042010	-0.069158	-0.070490	0.005425	28.5883	-0.069300	-0.326666	-0.016607	NaN
717	1.000000	1.053344	7.37207e+06	-41239.1	1005.82	-29786.9	0.000000	0.000000	7.053153	-0.105678	NaN	0.000000	0.001683	0.001695	28.0829	0.091331	0.001920	47.5629	-111.848	11.7997	-0.025646	1.052029	-0.059156	-0.060472	-0.105678	47.5629	-0.057490	-0.152378	0.693526	NaN
717	1.000000	1.063371	7.37207e+06	-41239.1	1005.82	-29786.9	0.000000	0.000000	7.063184	0.000969	NaN	0.000000	0.001721	0.001700	28.0827	0.053815	0.002040	26.3824	-93.5772	-166.813	-0.039796	1.062035	-0.049129	-0.050465	0.000969	26.3824	-0.049157	-0.086038	-0.011268	NaN
717	1.000000	1.073353	7.37207e+06	-41239.1	1005.82	-29786.9	0.000000	0.000000	7.073165	-0.021553	NaN	0.000000	0.001670	0.001689	28.0817	0.041244	0.001888	21.8442	-72.5307	16.9746	-0.006946	1.071990	-0.039148	-0.040510	-0.021553	21.8442	-0.038408	-0.040471	0.532553	NaN
717	1.000000	1.083358	7.37207e+06	-41239.1	1005.82	-29786.9	0.000000	0.000000	7.083169	-0.040091	NaN	0.000000	0.001694	0.001669	28.0812	0.049884	0.002035	24.5134	88.9455	-163.064	-0.046969	1.082094	-0.029142	-0.030406	-0.040091	24.5134	-0.027916	-0.020169	1.987821	NaN
717	1.000000	1.093369	7.37207e+06	-41239.1	1005.82	-29786.9	0.000000	0.000000	7.093179	-0.052736	NaN	0.000000	0.001699	0.001727	28.0814	0.064885	0.002052	31.6246	20.0296	15.6396	-0.139275	1.092003	-0.019132	-0.020497	-0.052736	31.6246	-0.017881	-0.011084	4.757931	NaN
717	1.000000	1.103389	7.37207e+06	-41239.1	1005.82	-29786.9	0.000000	0.000000	7.103200	-0.044909	NaN	0.000000	0.001673	0.001683	28.0814	0.076126	0.002078	36.6383	110.267	-165.539	0.001106	1.102092	-0.009111	-0.010408	-0.044909	36.6383	-0.008192	-0.005344	8.404070	NaN
717	1.000000	1.113321	7.37207e+06	-41239.1	1005.82	-29786.9	0.000000	0.000000	7.113285	3.665443	NaN	0.000000	0.001602	0.001695	28.0814	4.117331	0.001961	2099.92	8.837399	12.5287	1.934337	1.111995	0.000821	-0.000505	3.665443	2099.92	-0.000488	-0.000361	-10141.2	NaN
717	2.000000	1.119061	7.37207e+06	-41239.1	1005.82	-29786.9	0.000000	0.000000	7.119243	8.968473	NaN	0.000000	0.001659	0.001682	28.0811	8.378874	0.001763	4752.98	4.960977	-170.767	8.181120	1.118737	0.006561	0.006237	8.968473	4752.98	0.005146	0.004267	2102.02	66481.2
717	2.000000	1.121565	7.37207e+06	-41239.1	1005.82	-29786.9	0.000000	0.000000	7.121893	12.5292	NaN	0.000000	0.001657	0.001673	28.0819	10.0703	0.001706	5903.61	4.367414	10.0277	11.6764	1.121194	0.009065	0.008694	12.5292	5903.61	0.007473	0.006506	1925.87	66871.7
717	2.000000	1.124038	7.37207e+06	-41239.1	1005.82	-29786.9	0.000000	0.000000	7.124479	15.2759	NaN	0.000000	0.001643	0.001631	28.081	12.2374	0.001770	6912.68	4.960152	-170.795	14.7268	1.123712	0.011538	0.011211	15.2759	6912.68	0.009880	0.009049	1688.19	66393.7
717	2.000000	1.126485	7.37207e+06	-41239.1	1005.82	-29786.9	0.000000	0.000000	7.127096	19.4359	NaN	0.000000	0.001640	0.001732	28.0816	15.0195	0.001837	8175.81	10.0173	2.373534	18.3594	1.126151	0.013984	0.013650	19.4359	8175.81	0.012201	0.011732	1656.64	68962.9
717	2.000000	1.128959	7.37207e+06	-41239.1	1005.82	-29786.9	0.000000	0.000000	7.129816	25.4077	NaN	0.000000	0.001630	0.001723	28.0812	17.199	0.001771	9708.79	3.094588	-172.215	24.4049	1.128689	0.016459	0.016188	25.4077	9708.79	0.014496	0.014619	1737.99	73363.5
717	2.000000	1.131518	7.37207e+06	-41239.1	1005.82	-29786.9	0.000000	0.000000	7.132540	29.4128	NaN	0.000000	0.001623	0.001704	28.0822	19.221	0.001743	11025.7	6.732879	3.533548	28.5158	1.131080	0.019018	0.018579	29.4128	11025.7	0.017017	0.018070	1627.75	74938.6
717	2.000000	1.133983	7.37207e+06	-41239.1	1005.82	-29786.9	0.000000	0.000000	7.135163	33.2724	NaN	0.000000	0.001596	0.001726	28.0812	21.7821	0.001817	11987	7.671268	-178.862	32.4444	1.133588	0.021483	0.021088	33.2724	11987	0.019401	0.021610	1539.71	74500.8
717	2.000000	1.136468	7.37207e+06	-41239.1	1005.82	-29786.9	0.000000	0.000000	7.137897	39.3214	NaN	0.000000	0.001647	0.001717	28.0814	24.2427	0.001934	12536.2	7.046994	2.650297	39.3224	1.136146	0.023968	0.023646	39.3214	12536.2	0.021615	0.025144	1563.83	72230.6
717	2.000000	1.138944	7.37207e+06	-41239.1	1005.82	-29786.9	0.000000	0.000000	7.140718	47.7066	NaN	0.000000	0.001613	0.001725	28.0813	26.353	0.001850	14248.1	6.458718	-178.501	47.4494	1.138716	0.026444	0.026215	47.7066	14248.1	0.023933	0.029103	1639.26	76306.9
717	2.000000	1.141516	7.37207e+06	-41239.1	1005.82	-29786.9	0.000000	0.000000	7.143609	55.4932	NaN	0.000000	0.001670	0.001701	28.0828	28.0173	0.001648	16996.5	4.358430	1.653145	55.4509	1.141074	0.029015	0.028574	55.4932	16996.5	0.026566	0.033927	1635.66	84306.1
717	2.000000	1.143958	7.37207e+06	-41239.1	1005.82	-29786.9	0.000000	0.000000	7.146325	62.1493	NaN	0.000000	0.001656	0.001664	28.0824	30.84	0.001785	17275.7	5.942158	179.588	61.4698	1.143697	0.031457	0.031196	62.1493	17275.7	0.028759	0.038211	1626.46	80744.5
717	2.000000	1.146420	7.37207e+06	-41239.1	1005.82	-29786.9	0.000000	0.000000	7.149253	73.4903	NaN	0.000000	0.001627	0.001662	28.0826	32.9553	0.001723	19129.1	5.564299	-1.420305	71.6233	1.146097	0.033920	0.033597	73.4903	19129.1	0.031038	0.042923	1712.14	84357.3
717	2.000000	1.148927	7.37207e+06	-41239.1	1005.82	-29786.9	0.000000	0.000000	7.152062	80.847	NaN	0.000000	0.001646	0.001688	28.0826	35.5738	0.001642	21666.2	1.876766	-179.165	80.0207	1.148643	0.036427	0.036143	80.847	21666.2	0.033628	0.048600	1663.53	89792.5
717	2.000000	1.151467	7.37207e+06	-41239.1	1005.82	-29786.9	0.000000	0.000000	7.154903	88.1564	NaN	0.000000	0.001617	0.001690	28.0826	37.8373	0.001818	20812.1	3.681739	1.761905	86.6733	1.151120	0.038967	0.038619	88.1564	20812.1	0.035790	0.053602	1644.66	82129.7
717	2.000000	1.153917	7.37207e+06	-41239.1	1005.82	-29786.9	0.000000	0.000000	7.157813	99.3557	NaN	0.000000	0.001626	0.001717	28.0824	41.6581	0.001839	22647.9	4.288730	178.714	97.7337	1.153572	0.041417	0.041071	99.3557	22647.9	0.038127	0.059277	1676.13	84988.3
717	2.000000	1.156388	7.37207e+06	-41239.1	1005.82	-29786.9	0.000000	0.000000	7.160702	109.521	NaN	0.000000	0.001616	0.001711	28.0833	45.4989	0.001855	24532.1	8.844413	-6.860143	105.594	1.156028	0.043888	0.043528	109.521	24532.1	0.040539	0.065430	1673.87	87623.3
717	2.000000	1.158913	7.37207e+06	-41239.1	1005.82	-29786.9	0.000000	0.000000	7.163766	122.63	NaN	0.000000	0.001623	0.001687	28.0826	47.4236	0.001920	24694.3	6.600641	176.902	121.647	1.158630	0.046413	0.046130	122.63	24694.3	0.042689	0.071161	1723.27	84576.5
717	2.000000	1.161452	7.37207e+06	-41239.1	1005.82	-29786.9	0.000000	0.000000	7.166837	135.584	NaN	0.000000	0.001622	0.001695	28.0823	48.4425	0.001857	26086.9	5.707298	-2.330814	133.618	1.161023	0.048952	0.048523	135.584	26086.9	0.045054	0.077740	1744.08	85481.9
717	2.000000	1.163894	7.37207e+06	-41239.1	1005.82	-29786.9	0.000000	0.000000	7.169647	144.535	NaN	0.000000	0.001649	0.001694	28.0824	50.8804	0.001843	27610.1	3.034680	178.435	142.162	1.163643	0.051394	0.051143	144.535	27610.1	0.047468	0.084747	1705.49	86652.4
717	2.000000	1.166389	7.37207e+06	-41239.1	1005.82	-29786.9	0.000000	0.000000	7.172843	161.601	NaN	0.000000	0.001690	0.001684	28.0831	52.9763	0.001780	29759.5	6.510363	-5.339197	158.032	1.166035	0.053888	0.053535	161.601	29759.5	0.049816	0.091845	1759.51	89716.6
717	2.000000	1.168828	7.37207e+06	-41239.1	1005.82	-29786.9	0.000000	0.000000	7.175818	174.651	NaN	0.000000	0.001668	0.001688	28.0823	55.716	0.001889	29494.5	3.491184	177.931	169.834	1.168573	0.056327	0.056073	174.651	29494.5	0.051886	0.098332	1776.14	85934.4
717	2.000000	1.171384	7.37207e+06	-41239.1	1005.82	-29786.9	0.000000	0.000000	7.178956	188.802	NaN	0.000000	0.001685	0.001652	28.0837	56.3119	0.001772	31777.5	0.326106	0.672113	184.924	1.171044	0.058884	0.058544	188.802	31777.5	0.054428	0.106589	1771.32	88927.6
717	2.000000	1.173892	7.37207e+06	-41239.1	1005.82	-29786.9	0.000000	0.000000	7.181960	200.886	NaN	0.000000	0.001710	0.001702	28.0825	58.8633	0.001848	31860.3	4.982565	175.877	199.34	1.173588	0.061391	0.061087	200.886	31860.3	0.056662	0.114113	1760.42	86169.9
717	2.000000	1.176434	7.37207e+06	-41239.1	1005.82	-29786.9	0.000000	0.000000	7.185036	213.858	NaN	0.000000	0.001693	0.001708	28.0814	62.4245	0.001808	34533	7.700687	-8.533744	212.629	1.176144	0.063934	0.063643	213.858	34533	0.059289	0.123272	1734.84	89861.7
717	2.000000	1.178923	7.37207e+06	-41239.1	1005.82	-29786.9	0.000000	0.000000	7.188095	227.728	NaN	0.000000	0.001613	0.001702	28.0813	64.0787	0.001754	36534.5	4.162823	174.9	227.36	1.178720	0.066423	0.066220	227.728	36534.5	0.061748	0.132150	1723.25	91821.2
717	2.000000	1.181448	7.37207e+06	-41239.1	1005.82	-29786.9	0.000000	0.000000	7.191449	247.907	NaN	0.000000	0.001663	0.001705	28.0813	66.2376	0.001790	36994.6	7.358107	-7.726536	246.236	1.180899	0.068947	0.068399	247.907	36994.6	0.063921	0.140244	1767.69	90254.8
717	2.000000	1.183897	7.37207e+06	-41239.1	1005.82	-29786.9	0.000000	0.000000	7.194643	266.027	NaN	0.000000	0.001626	0.001711	28.0814	67.9314	0.001817	37394.6	2.688208	176.375	265.032	1.183509	0.071397	0.071008	266.027	37394.6	0.066061	0.148436	1792.21	88677.4
717	2.000000	1.186345	7.37207e+06	-41239.1	1005.82	-29786.9	0.000000	0.000000	7.197616	278.789	NaN	0.000000	0.001625	0.001665	28.0814	70.307	0.001674	42008.4	2.655310	-4.654555	274.163	1.186057	0.073845	0.073556	278.789	42008.4	0.068868	0.159512	1747.76	96097.6
717	2.000000	1.188923	7.37207e+06	-41239.1	1005.82	-29786.9	0.000000	0.000000	7.200572	288.007	NaN	0.000000	0.001650	0.001717	28.0812	75.0622	0.001753	42822.8	7.473500	169.561	287.636	1.188778	0.076423	0.076278	288.007	42822.8	0.071378	0.169740	1696.75	94963.3
717	2.000000	1.191367	7.37207e+06	-41239.1	1005.82	-29786.9	0.000000	0.000000	7.203992	311.734	NaN	0.000000	0.001621	0.001669	28.0813	76.0963	0.001788	42563.6	4.978938	-7.185747	307.669	1.191098	0.078867	0.078598	311.734	42563.6	0.073374	0.178084	1750.49	92150.9
717	2.000000	1.193854	7.37207e+06	-41239.1	1005.82	-29786.9	0.000000	0.000000	7.207270	330.999	NaN	0.000000	0.001614	0.001708	28.0815	78.0977	0.001844	42358.5	3.828132	174.799	329.187	1.193494	0.081353	0.080994	330.999	42358.5	0.075493	0.187146	1768.67	89459
717	2.000000	1.196216	7.37207e+06	-41239.1	1005.82	-29786.9	0.000000	0.000000	7.210494	351.994	NaN	0.000000	0.001653	0.001704	28.0812	79.679	0.001758	45322.4	4.189640	-6.274912	341.5	1.195982	0.083715	0.083482	351.994	45322.4	0.077890	0.197658	1780.83	93138.5
717	2.000000	1.198882	7.37207e+06	-41239.1	1005.82	-29786.9	0.000000	0.000000	7.213988	372.127	NaN	0.000000	0.001693	0.001696	28.0811	82.7148	0.001774	46623.5	3.381475	174.615	369.746	1.198578	0.086382	0.086078	372.127	46623.5	0.080395	0.208927	1781.14	93192.4
717	2.000000	1.201323	7.37207e+06	-41239.1	1005.82	-29786.9	0.000000	0.000000	7.217360	394.786	NaN	0.000000	0.001703	0.001718	28.0814	84.5998	0.001784	47432.8	6.790636	-8.620607	387.628	1.200945	0.088822	0.088445	394.786	47432.8	0.082580	0.218994	1802.73	92605.5
717	2.000000	1.203955	7.37207e+06	-41239.1	1005.82	-29786.9	0.000000	0.000000	7.220706	412.142	NaN	0.000000	0.001711	0.001717	28.0816	88.3101	0.001888	46783.9	6.686069	171.141	416.097	1.203499	0.091455	0.090998	412.142	46783.9	0.084848	0.229675	1794.46	89189.3
717	2.000000	1.206349	7.37207e+06	-41239.1	1005.82	-29786.9	0.000000	0.000000	7.223791	428.957	NaN	0.000000	0.001710	0.001692	28.0815	89.629	0.001810	49526.4	2.399242	-4.918923	424.884	1.205964	0.093849	0.093464	428.957	49526.4	0.087353	0.241753	1774.36	92028.8
717	2.000000	1.208907	7.37207e+06	-41239.1	1005.82	-29786.9	0.000000	0.000000	7.227305	452.22	NaN	0.000000	0.001684	0.001681	28.0825	92.9579	0.001804	51515.7	3.971723	173.162	452.299	1.208505	0.096407	0.096005	452.22	51515.7	0.089823	0.253946	1780.77	93399
717	2.000000	1.211391	7.37207e+06	-41239.1	1005.82	-29786.9	0.000000	0.000000	7.230704	474.503	NaN	0.000000	0.001697	0.001725	28.0825	94.8498	0.001883	50359	6.142849	-8.278589	471.043	1.210873	0.098890	0.098372	474.503	50359	0.091824	0.264025	1797.19	89542.2
717	2.000000	1.213906	7.37207e+06	-41239.1	1005.82	-29786.9	0.000000	0.000000	7.233709	486.406	NaN	0.000000	0.001671	0.001728	28.0827	96.902	0.001894	51172.6	3.751651	173.332	487.914	1.213634	0.101405	0.101134	486.406	51172.6	0.094277	0.276633	1758.31	88891.2
717	2.000000	1.215846	7.37207e+06	-41239.1	1005.82	-29786.9	0.000000	0.000000	7.236378	504.133	NaN	0.000000	0.001735	0.001727	28.0827	98.2844	0.001842	53369.8	1.536566	175.024	502.179	1.215563	0.103346	0.103062	504.133	53369.8	0.096262	0.287037	1756.34	91012.3