File: remote_trans/data/nanoindenter/0828-1/data/Data_2025-08-06,11h17m57s/2025-07-22_16-23-58_1_1132.txt
2025-07-22, 16:23:58, 1
Index	Phase	Displacement	Time	Pos X	Pos Y	Pos Z	Rot A	Rot B	Piezo Z	Force A	Force B	Gripper	Voltage A	Voltage B	Temperature	Amplitude force	Amplitude pos	Stiffness	Phase shift	Phase excitation	Force A raw	Displacement raw	HMax	HMax raw	Real Force	Real Stiffness	Contact Depth	Area	Hardness	Reduced Mod.
[#]	[#]	[um]	[s]	[um]	[um]	[um]	[m°]	[m°]	[um]	[uN]	[uN]	[V]	[V]	[V]	[°C]	[uN]	[um]	[N/m]	[°]	[°]	[uN]	[um]	[um]	[um]	[uN]	[N/m]	[um]	[um^2]	[MPa]	[MPa]
1132	1.000000	0.002055	7.37612e+06	-56739.1	1055.82	-29738.2	0.000000	0.000000	6.002783	0.009677	NaN	0.000000	0.001639	0.001758	28.0845	0.018314	0.000990	18.507	-36.1568	-166.592	-0.032758	0.000781	-1.101583	-1.102857	0.009677	18.507	-1.101975	-5.328215E+14	-1.816119E-17	NaN
1132	1.000000	0.012129	7.37612e+06	-56739.1	1055.82	-29738.2	0.000000	0.000000	6.012858	0.032532	NaN	0.000000	0.001664	0.001752	28.0844	0.013200	0.001207	10.9332	128.673	18.4694	0.101399	0.010707	-1.091509	-1.092931	0.032532	10.9332	-1.093740	-4.130801E+14	-7.875477E-17	NaN
1132	1.000000	0.022008	7.37612e+06	-56739.1	1055.82	-29738.2	0.000000	0.000000	6.022736	0.025094	NaN	0.000000	0.001640	0.001720	28.0833	0.117941	0.001581	74.5843	87.5123	-165.419	-0.006016	0.020740	-1.081630	-1.082898	0.025094	74.5843	-1.081882	-2.862873E+14	-8.765305E-17	NaN
1132	1.000000	0.032044	7.37612e+06	-56739.1	1055.82	-29738.2	0.000000	0.000000	6.032771	-0.009141	NaN	0.000000	0.001649	0.001708	28.0833	0.027729	0.001996	13.8946	78.8737	17.0901	-0.034042	0.030705	-1.071594	-1.072934	-0.009141	13.8946	-1.071100	-2.051032E+14	4.456656E-17	NaN
1132	1.000000	0.042013	7.37612e+06	-56739.1	1055.82	-29738.2	0.000000	0.000000	6.042744	0.090710	NaN	0.000000	0.001654	0.001696	28.0834	0.062943	0.002005	31.3914	9.863339	-165.758	0.032242	0.040703	-1.061625	-1.062935	0.090710	31.3914	-1.063792	-1.635980E+14	-5.544705E-16	NaN
1132	1.000000	0.052011	7.37612e+06	-56739.1	1055.82	-29738.2	0.000000	0.000000	6.052740	0.029401	NaN	0.000000	0.001662	0.001667	28.0833	0.051483	0.001929	26.6955	-4.576165	10.9741	0.027976	0.050607	-1.051627	-1.053031	0.029401	26.6955	-1.052453	-1.151814E+14	-2.552589E-16	NaN
1132	1.000000	0.061991	7.37612e+06	-56739.1	1055.82	-29738.2	0.000000	0.000000	6.062717	-0.018832	NaN	0.000000	0.001728	0.001695	28.0832	0.081630	0.001944	41.9843	-7.736778	-166.624	-0.141725	0.060689	-1.041647	-1.042949	-0.018832	41.9843	-1.041311	-8.158220E+13	2.308364E-16	NaN
1132	1.000000	0.072046	7.37612e+06	-56739.1	1055.82	-29738.2	0.000000	0.000000	6.072772	-0.032837	NaN	0.000000	0.001739	0.001679	28.0835	0.066033	0.002054	32.1504	-142.639	12.5024	-0.060401	0.070673	-1.031592	-1.032965	-0.032837	32.1504	-1.030826	-5.896395E+13	5.568960E-16	NaN
1132	1.000000	0.082046	7.37612e+06	-56739.1	1055.82	-29738.2	0.000000	0.000000	6.082774	0.017877	NaN	0.000000	0.001724	0.001651	28.0836	0.028603	0.001966	14.5493	179.305	-164.201	-0.044880	0.080743	-1.021592	-1.022895	0.017877	14.5493	-1.022513	-4.557913E+13	-3.922285E-16	NaN
1132	1.000000	0.092036	7.37612e+06	-56739.1	1055.82	-29738.2	0.000000	0.000000	6.092764	0.024864	NaN	0.000000	0.001732	0.001645	28.0836	0.100589	0.002040	49.3161	-95.3533	10.0065	0.025055	0.090621	-1.011602	-1.013017	0.024864	49.3161	-1.011980	-3.288790E+13	-7.560254E-16	NaN
1132	1.000000	0.102035	7.37613e+06	-56739.1	1055.82	-29738.2	0.000000	0.000000	6.102761	-0.012049	NaN	0.000000	0.001714	0.001714	28.0833	0.101639	0.001966	51.7051	165.282	-165.174	0.017853	0.100692	-1.001603	-1.002946	-0.012049	51.7051	-1.001429	-2.371395E+13	5.080933E-16	NaN
1132	1.000000	0.112047	7.37613e+06	-56739.1	1055.82	-29738.2	0.000000	0.000000	6.112773	-0.031236	NaN	0.000000	0.001703	0.001735	28.0837	0.025389	0.001924	13.1991	17.3378	15.5647	-0.042483	0.110688	-0.991591	-0.992950	-0.031236	13.1991	-0.989816	-1.654397E+13	1.888054E-15	NaN
1132	1.000000	0.122038	7.37613e+06	-56739.1	1055.82	-29738.2	0.000000	0.000000	6.122765	-0.022792	NaN	0.000000	0.001715	0.001685	28.0834	0.103087	0.002102	49.0444	142.049	-165.356	0.065355	0.120716	-0.981600	-0.982922	-0.022792	49.0444	-0.981251	-1.268427E+13	1.796834E-15	NaN
1132	1.000000	0.132065	7.37613e+06	-56739.1	1055.82	-29738.2	0.000000	0.000000	6.132795	0.075604	NaN	0.000000	0.001713	0.001725	28.0836	0.159643	0.002101	75.9679	8.305423	12.7445	0.057233	0.130733	-0.971573	-0.972905	0.075604	75.9679	-0.972319	-9.614387E+12	-7.863672E-15	NaN
1132	1.000000	0.142061	7.37613e+06	-56739.1	1055.82	-29738.2	0.000000	0.000000	6.142792	0.100411	NaN	0.000000	0.001723	0.001702	28.0835	0.102086	0.002107	48.4492	133.141	-167.375	0.088113	0.140743	-0.961577	-0.962895	0.100411	48.4492	-0.963132	-7.229192E+12	-1.388968E-14	NaN
1132	1.000000	0.152019	7.37613e+06	-56739.1	1055.82	-29738.2	0.000000	0.000000	6.152748	0.041273	NaN	0.000000	0.001702	0.001714	28.0849	0.102450	0.001969	52.0337	31.5111	13.6216	-0.013831	0.150748	-0.951619	-0.952890	0.041273	52.0337	-0.952214	-5.150933E+12	-8.012707E-15	NaN
1132	1.000000	0.162063	7.37613e+06	-56739.1	1055.82	-29738.2	0.000000	0.000000	6.162792	0.058070	NaN	0.000000	0.001762	0.001689	28.0846	0.069185	0.001972	35.0877	150.536	-166.94	0.088692	0.160732	-0.941575	-0.942906	0.058070	35.0877	-0.942817	-3.847110E+12	-1.509458E-14	NaN
1132	1.000000	0.172067	7.37613e+06	-56739.1	1055.82	-29738.2	0.000000	0.000000	6.172793	-0.053338	NaN	0.000000	0.001726	0.001683	28.0844	0.041619	0.002047	20.3297	-64.0234	13.0179	-0.016156	0.170705	-0.931571	-0.932933	-0.053338	20.3297	-0.929603	-2.551747E+12	2.090242E-14	NaN
1132	1.000000	0.182052	7.37613e+06	-56739.1	1055.82	-29738.2	0.000000	0.000000	6.182780	0.008186	NaN	0.000000	0.001725	0.001711	28.0846	0.032834	0.002090	15.7069	130.59	-168.24	-0.078542	0.180771	-0.921586	-0.922867	0.008186	15.7069	-0.921977	-2.013243E+12	-4.066096E-15	NaN
1132	1.000000	0.192078	7.37613e+06	-56739.1	1055.82	-29738.2	0.000000	0.000000	6.192807	0.030721	NaN	0.000000	0.001746	0.001729	28.0848	0.087751	0.001961	44.7551	-124.794	13.7485	-0.028145	0.190708	-0.911560	-0.912930	0.030721	44.7551	-0.912074	-1.479728E+12	-2.076118E-14	NaN
1132	1.000000	0.202116	7.37613e+06	-56739.1	1055.82	-29738.2	0.000000	0.000000	6.202843	-0.006870	NaN	0.000000	0.001742	0.001709	28.0847	0.161076	0.002106	76.4725	-13.7582	-166.62	0.025016	0.200784	-0.901522	-0.902854	-0.006870	76.4725	-0.901455	-1.063470E+12	6.460324E-15	NaN
1132	1.000000	0.212061	7.37613e+06	-56739.1	1055.82	-29738.2	0.000000	0.000000	6.212789	0.006776	NaN	0.000000	0.001668	0.001737	28.0846	0.111396	0.001974	56.4177	-141.338	13.3698	-0.011881	0.210744	-0.891577	-0.892894	0.006776	56.4177	-0.891667	-7.842358E+11	-8.639929E-15	NaN
1132	1.000000	0.222069	7.37613e+06	-56739.1	1055.82	-29738.2	0.000000	0.000000	6.222797	0.036739	NaN	0.000000	0.001670	0.001726	28.085	0.120328	0.001963	61.3106	120.717	-167.449	0.071284	0.220782	-0.881569	-0.882856	0.036739	61.3106	-0.882019	-5.807771E+11	-6.325845E-14	NaN
1132	1.000000	0.232117	7.37613e+06	-56739.1	1055.82	-29738.2	0.000000	0.000000	6.232847	0.072857	NaN	0.000000	0.001662	0.001697	28.0845	0.064919	0.001982	32.7619	-11.6437	12.5024	0.045890	0.230662	-0.871521	-0.872976	0.072857	32.7619	-0.873189	-4.411494E+11	-1.651537E-13	NaN
1132	1.000000	0.242090	7.37613e+06	-56739.1	1055.82	-29738.2	0.000000	0.000000	6.242817	-0.012219	NaN	0.000000	0.001685	0.001707	28.0846	0.134961	0.002108	64.0278	-95.8505	-164.621	0.064555	0.240805	-0.861548	-0.862833	-0.012219	64.0278	-0.861405	-3.055849E+11	3.998596E-14	NaN
1132	1.000000	0.252087	7.37613e+06	-56739.1	1055.82	-29738.2	0.000000	0.000000	6.252813	-0.030998	NaN	0.000000	0.001658	0.001723	28.0844	0.078111	0.001995	39.1541	165.272	11.8805	0.048575	0.250735	-0.851551	-0.852903	-0.030998	39.1541	-0.850958	-2.206513E+11	1.404823E-13	NaN
1132	1.000000	0.262080	7.37613e+06	-56739.1	1055.82	-29738.2	0.000000	0.000000	6.262808	0.019333	NaN	0.000000	0.001659	0.001682	28.0849	0.086950	0.002054	42.3312	34.3562	-167.142	-0.027820	0.260824	-0.841558	-0.842814	0.019333	42.3312	-0.841901	-1.663587E+11	-1.162125E-13	NaN
1132	1.000000	0.272094	7.37613e+06	-56739.1	1055.82	-29738.2	0.000000	0.000000	6.272824	0.045668	NaN	0.000000	0.001687	0.001745	28.0847	0.106015	0.002076	51.055	44.8695	13.8964	0.036370	0.270741	-0.831544	-0.832897	0.045668	51.055	-0.832215	-1.229701E+11	-3.713723E-13	NaN
1132	1.000000	0.282109	7.37613e+06	-56739.1	1055.82	-29738.2	0.000000	0.000000	6.282835	-0.029430	NaN	0.000000	0.001706	0.001705	28.0847	0.086792	0.001983	43.764	26.9884	-165.157	0.017912	0.280799	-0.821529	-0.822839	-0.029430	43.764	-0.821025	-8.671766E+10	3.393785E-13	NaN
1132	1.000000	0.292124	7.37613e+06	-56739.1	1055.82	-29738.2	0.000000	0.000000	6.292852	0.022609	NaN	0.000000	0.001637	0.001729	28.0838	0.049325	0.002102	23.466	-147.342	9.320892	0.024768	0.290774	-0.811514	-0.812864	0.022609	23.466	-0.812237	-6.590456E+10	-3.430612E-13	NaN
1132	1.000000	0.302157	7.37613e+06	-56739.1	1055.82	-29738.2	0.000000	0.000000	6.302885	0.038026	NaN	0.000000	0.001697	0.001742	28.0835	0.023937	0.002141	11.1816	-158.172	-163.178	-0.079635	0.300806	-0.801481	-0.802832	0.038026	11.1816	-0.804032	-5.100224E+10	-7.455703E-13	NaN
1132	1.000000	0.312142	7.37613e+06	-56739.1	1055.82	-29738.2	0.000000	0.000000	6.312868	-0.036990	NaN	0.000000	0.001741	0.001700	28.0836	0.066879	0.001899	35.2103	70.2386	15.8924	-0.008618	0.310748	-0.791496	-0.792890	-0.036990	35.2103	-0.790708	-3.362751E+10	1.100000E-12	NaN
1132	1.000000	0.322143	7.37613e+06	-56739.1	1055.82	-29738.2	0.000000	0.000000	6.322871	0.025142	NaN	0.000000	0.001740	0.001715	28.0834	0.064495	0.002078	31.0426	144.405	-167.628	0.061402	0.320813	-0.781495	-0.782825	0.025142	31.0426	-0.782103	-2.569243E+10	-9.785920E-13	NaN
1132	1.000000	0.332148	7.37613e+06	-56739.1	1055.82	-29738.2	0.000000	0.000000	6.332873	-0.060183	NaN	0.000000	0.001749	0.001696	28.0834	0.074532	0.001970	37.8388	23.4918	11.1864	-0.077004	0.330822	-0.771490	-0.772816	-0.060183	37.8388	-0.770297	-1.775590E+10	3.389463E-12	NaN
1132	1.000000	0.342148	7.37613e+06	-56739.1	1055.82	-29738.2	0.000000	0.000000	6.342878	0.060627	NaN	0.000000	0.001723	0.001736	28.0833	0.005015	0.002087	2.402511	89.8144	-169.143	0.069347	0.340812	-0.761490	-0.762826	0.060627	2.402511	-0.780416	-2.437179E+10	-2.487579E-12	NaN
1132	1.000000	0.352151	7.37613e+06	-56739.1	1055.82	-29738.2	0.000000	0.000000	6.352882	0.088662	NaN	0.000000	0.001696	0.001733	28.0834	0.065151	0.001965	33.1522	-157.403	14.7487	-0.033038	0.350811	-0.751487	-0.752827	0.088662	33.1522	-0.753493	-1.048964E+10	-8.452352E-12	NaN
1132	1.000000	0.362143	7.37613e+06	-56739.1	1055.82	-29738.2	0.000000	0.000000	6.362871	0.016589	NaN	0.000000	0.001706	0.001726	28.0835	0.085035	0.002007	42.3717	31.2991	-169.56	0.012441	0.360867	-0.741495	-0.742771	0.016589	42.3717	-0.741788	-7.267984E+9	-2.282520E-12	NaN
1132	1.000000	0.372157	7.37613e+06	-56739.1	1055.82	-29738.2	0.000000	0.000000	6.372886	0.024319	NaN	0.000000	0.001700	0.001712	28.0831	0.097314	0.002018	48.229	-22.8963	10.2344	0.031176	0.370758	-0.731481	-0.732880	0.024319	48.229	-0.731859	-5.322807E+9	-4.568751E-12	NaN
1132	1.000000	0.382137	7.37613e+06	-56739.1	1055.82	-29738.2	0.000000	0.000000	6.382866	0.036128	NaN	0.000000	0.001702	0.001713	28.0834	0.047337	0.001995	23.7263	151.319	-167.23	0.053624	0.380816	-0.721501	-0.722822	0.036128	23.7263	-0.722643	-3.985766E+9	-9.064260E-12	NaN
1132	1.000000	0.392136	7.37613e+06	-56739.1	1055.82	-29738.2	0.000000	0.000000	6.392865	0.051303	NaN	0.000000	0.001670	0.001763	28.083	0.177282	0.002057	86.1669	168.923	11.3027	0.052096	0.390840	-0.711502	-0.712798	0.051303	86.1669	-0.711949	-2.848661E+9	-1.800956E-11	NaN
1132	1.000000	0.402182	7.37613e+06	-56739.1	1055.82	-29738.2	0.000000	0.000000	6.402911	0.035936	NaN	0.000000	0.001707	0.001758	28.0834	0.025921	0.002017	12.85	165.129	-168.442	0.015214	0.400890	-0.701456	-0.702748	0.035936	12.85	-0.703554	-2.188040E+9	-1.642399E-11	NaN
1132	1.000000	0.412179	7.37613e+06	-56739.1	1055.82	-29738.2	0.000000	0.000000	6.412908	0.048573	NaN	0.000000	0.001673	0.001741	28.0832	0.065516	0.002061	31.7879	8.702653	15.0994	-0.023706	0.410836	-0.691459	-0.692802	0.048573	31.7879	-0.692605	-1.550667E+9	-3.132362E-11	NaN
1132	1.000000	0.422150	7.37613e+06	-56739.1	1055.82	-29738.2	0.000000	0.000000	6.422878	0.028177	NaN	0.000000	0.001668	0.001732	28.0836	0.044319	0.001934	22.92	40.692	-165.469	0.038139	0.420890	-0.681488	-0.682748	0.028177	22.92	-0.682410	-1.125032E+9	-2.504551E-11	NaN
1132	1.000000	0.432182	7.37613e+06	-56739.1	1055.82	-29738.2	0.000000	0.000000	6.432910	0.015344	NaN	0.000000	0.001673	0.001735	28.0845	0.088258	0.002177	40.5394	-159.46	14.5683	0.016118	0.430831	-0.671456	-0.672807	0.015344	40.5394	-0.671740	-8.039109E+8	-1.908677E-11	NaN
1132	1.000000	0.442182	7.37613e+06	-56739.1	1055.82	-29738.2	0.000000	0.000000	6.442908	-0.045229	NaN	0.000000	0.001698	0.001772	28.0847	0.053656	0.001871	28.6827	37.9793	-168.099	0.028228	0.440840	-0.661456	-0.662798	-0.045229	28.6827	-0.660273	-5.600266E+8	8.076236E-11	NaN
1132	1.000000	0.452199	7.37613e+06	-56739.1	1055.82	-29738.2	0.000000	0.000000	6.452927	-0.000257	NaN	0.000000	0.001699	0.001744	28.0844	0.031694	0.001862	17.0183	86.7366	9.787424	0.086592	0.450819	-0.651439	-0.652819	-0.000257	17.0183	-0.651427	-4.236467E+8	6.068383E-13	NaN
1132	1.000000	0.462169	7.37613e+06	-56739.1	1055.82	-29738.2	0.000000	0.000000	6.462896	-0.014325	NaN	0.000000	0.001682	0.001748	28.0849	0.032736	0.001941	16.8664	-135.588	-169.007	0.018484	0.460874	-0.641469	-0.642764	-0.014325	16.8664	-0.640832	-3.031817E+8	4.724754E-11	NaN
1132	1.000000	0.472173	7.37613e+06	-56739.1	1055.82	-29738.2	0.000000	0.000000	6.472901	0.015197	NaN	0.000000	0.001675	0.001731	28.0846	0.037441	0.001952	19.1813	-92.4566	13.6169	-0.066832	0.470865	-0.631465	-0.632773	0.015197	19.1813	-0.632059	-2.297732E+8	-6.613893E-11	NaN
1132	1.000000	0.482166	7.37613e+06	-56739.1	1055.82	-29738.2	0.000000	0.000000	6.482893	-0.017467	NaN	0.000000	0.001672	0.001770	28.0845	0.021139	0.001854	11.4004	-173.909	-165.934	-0.066205	0.480928	-0.621472	-0.622710	-0.017467	11.4004	-0.620323	-1.585138E+8	1.101911E-10	NaN
1132	1.000000	0.492179	7.37613e+06	-56739.1	1055.82	-29738.2	0.000000	0.000000	6.492904	-0.063822	NaN	0.000000	0.001668	0.001767	28.0843	0.070912	0.002024	35.034	-114.765	13.4951	-0.074769	0.490859	-0.611459	-0.612779	-0.063822	35.034	-0.610093	-1.146545E+8	5.566461E-10	NaN
1132	1.000000	0.502214	7.37613e+06	-56739.1	1055.82	-29738.2	0.000000	0.000000	6.502941	0.008212	NaN	0.000000	0.001675	0.001766	28.0844	0.039502	0.002134	18.5133	-111.375	-165.72	0.057905	0.500903	-0.601424	-0.602735	0.008212	18.5133	-0.601757	-8.803502E+7	-9.327627E-11	NaN
1132	1.000000	0.512224	7.37613e+06	-56739.1	1055.82	-29738.2	0.000000	0.000000	6.512950	-0.034163	NaN	0.000000	0.001683	0.001725	28.0841	0.129637	0.001908	67.9547	-129.998	16.3349	-0.020363	0.510891	-0.591414	-0.592747	-0.034163	67.9547	-0.591037	-6.265565E+7	5.452484E-10	NaN
1132	1.000000	0.522214	7.37613e+06	-56739.1	1055.82	-29738.2	0.000000	0.000000	6.522941	-0.013824	NaN	0.000000	0.001694	0.001750	28.0844	0.047393	0.001994	23.7726	148.7	-163.292	0.017797	0.520911	-0.581424	-0.582727	-0.013824	23.7726	-0.580988	-4.553684E+7	3.035779E-10	NaN
1132	1.000000	0.532230	7.37613e+06	-56739.1	1055.82	-29738.2	0.000000	0.000000	6.532957	-0.004388	NaN	0.000000	0.001694	0.001745	28.0844	0.076585	0.002042	37.5026	-53.4155	16.7527	0.006501	0.530887	-0.571408	-0.572752	-0.004388	37.5026	-0.571320	-3.348660E+7	1.310461E-10	NaN
1132	1.000000	0.542204	7.37613e+06	-56739.1	1055.82	-29738.2	0.000000	0.000000	6.542935	0.081574	NaN	0.000000	0.001699	0.001789	28.0848	0.088395	0.001949	45.3513	-2.748845	-163.379	0.087550	0.540939	-0.561434	-0.562699	0.081574	45.3513	-0.562783	-2.551959E+7	-3.196540E-9	NaN
1132	1.000000	0.552210	7.37613e+06	-56739.1	1055.82	-29738.2	0.000000	0.000000	6.552939	0.032297	NaN	0.000000	0.001688	0.001755	28.0845	0.036793	0.002129	17.2832	-173.936	14.6545	0.043158	0.550816	-0.551428	-0.552822	0.032297	17.2832	-0.552830	-1.858414E+7	-1.737876E-9	NaN
1132	1.000000	0.562229	7.37613e+06	-56739.1	1055.82	-29738.2	0.000000	0.000000	6.562956	0.000465	NaN	0.000000	0.001685	0.001720	28.0833	0.034221	0.002024	16.9083	-46.1942	-165.327	0.041634	0.560962	-0.541409	-0.542676	0.000465	16.9083	-0.541430	-1.291771E+7	-3.598975E-11	NaN
1132	1.000000	0.572231	7.37613e+06	-56739.1	1055.82	-29738.2	0.000000	0.000000	6.572959	0.016477	NaN	0.000000	0.001681	0.001757	28.0833	0.063433	0.002041	31.0763	-45.2037	13.8896	0.085443	0.570826	-0.531407	-0.532812	0.016477	31.0763	-0.531804	-9.49797e+06	-1.734842E-9	NaN
1132	1.000000	0.582231	7.37613e+06	-56739.1	1055.82	-29738.2	0.000000	0.000000	6.582961	0.067877	NaN	0.000000	0.001720	0.001730	28.0833	0.076452	0.001950	39.2065	78.9067	-165.672	-0.006644	0.580920	-0.521407	-0.522718	0.067877	39.2065	-0.522705	-7.09926e+06	-9.561094E-9	NaN
1132	1.000000	0.592244	7.37613e+06	-56739.1	1055.82	-29738.2	0.000000	0.000000	6.592973	0.042514	NaN	0.000000	0.001686	0.001716	28.0833	0.117616	0.002043	57.576	-162.047	10.8904	-0.023035	0.590901	-0.511394	-0.512737	0.042514	57.576	-0.511948	-5.02972e+06	-8.452578E-9	NaN
1132	1.000000	0.602247	7.37613e+06	-56739.1	1055.82	-29738.2	0.000000	0.000000	6.602973	-0.024766	NaN	0.000000	0.001676	0.001711	28.0833	0.112293	0.001987	56.5179	142.859	-165.685	0.038384	0.600955	-0.501391	-0.502683	-0.024766	56.5179	-0.501063	-3.54685e+06	6.982656E-9	NaN
1132	1.000000	0.612283	7.37613e+06	-56739.1	1055.82	-29738.2	0.000000	0.000000	6.613009	-0.027096	NaN	0.000000	0.001708	0.001682	28.0836	0.036302	0.002003	18.1282	-120.628	14.5327	-0.045992	0.610899	-0.491355	-0.492739	-0.027096	18.1282	-0.490234	-2.50415e+06	1.082065E-8	NaN
1132	1.000000	0.622265	7.37613e+06	-56739.1	1055.82	-29738.2	0.000000	0.000000	6.622993	0.019690	NaN	0.000000	0.001681	0.001728	28.0833	0.065737	0.002126	30.9261	-30.6139	-169.115	0.024721	0.620953	-0.481373	-0.482685	0.019690	30.9261	-0.481850	-1.91172e+06	-1.029984E-8	NaN
1132	1.000000	0.632228	7.37613e+06	-56739.1	1055.82	-29738.2	0.000000	0.000000	6.632954	-0.031101	NaN	0.000000	0.001673	0.001720	28.0836	0.100003	0.002031	49.248	-119.118	14.9168	0.101583	0.630883	-0.471410	-0.472755	-0.031101	49.248	-0.470936	-1.34443e+06	2.313328E-8	NaN
1132	1.000000	0.642270	7.37613e+06	-56739.1	1055.82	-29738.2	0.000000	0.000000	6.642998	0.016987	NaN	0.000000	0.001715	0.001685	28.0833	0.034173	0.001957	17.4585	-160.975	-165.973	0.029227	0.640930	-0.461368	-0.462708	0.016987	17.4585	-0.462098	-1.0104e+06	-1.681216E-8	NaN
1132	1.000000	0.652285	7.37613e+06	-56739.1	1055.82	-29738.2	0.000000	0.000000	6.653013	0.024770	NaN	0.000000	0.001671	0.001723	28.0835	0.064551	0.001952	33.0743	162.338	15.7725	0.009988	0.650939	-0.451353	-0.452699	0.024770	33.0743	-0.451915	-726609	-3.408988E-8	NaN
1132	1.000000	0.662304	7.37613e+06	-56739.1	1055.82	-29738.2	0.000000	0.000000	6.663032	0.024124	NaN	0.000000	0.001710	0.001727	28.0832	0.041964	0.001989	21.1005	-146.172	-164.342	0.064901	0.660949	-0.441334	-0.442689	0.024124	21.1005	-0.442191	-530011	-4.551536E-8	NaN
1132	1.000000	0.672284	7.37613e+06	-56739.1	1055.82	-29738.2	0.000000	0.000000	6.673009	-0.045211	NaN	0.000000	0.001714	0.001700	28.0834	0.077604	0.001921	40.4017	101.405	12.3288	0.025233	0.670950	-0.431354	-0.432688	-0.045211	40.4017	-0.430515	-362532	1.247096E-7	NaN
1132	1.000000	0.682290	7.37613e+06	-56739.1	1055.82	-29738.2	0.000000	0.000000	6.683018	0.025213	NaN	0.000000	0.001695	0.001696	28.0835	0.012893	0.002074	6.217345	30.1116	-170.791	-0.057715	0.680925	-0.421348	-0.422713	0.025213	6.217345	-0.424390	-296918	-8.491650E-8	NaN
1132	1.000000	0.692298	7.37613e+06	-56739.1	1055.82	-29738.2	0.000000	0.000000	6.693025	-0.013757	NaN	0.000000	0.001698	0.001719	28.0835	0.120324	0.002026	59.3928	-147.187	12.1058	-0.045437	0.690922	-0.411340	-0.412716	-0.013757	59.3928	-0.411166	-192744	7.137669E-8	NaN
1132	1.000000	0.702287	7.37613e+06	-56739.1	1055.82	-29738.2	0.000000	0.000000	6.703016	0.053707	NaN	0.000000	0.001717	0.001682	28.0847	0.057910	0.002107	27.48	148.134	-167.059	0.062582	0.700957	-0.401351	-0.402681	0.053707	27.48	-0.402817	-146607	-3.663320E-7	NaN
1132	1.000000	0.712306	7.37613e+06	-56739.1	1055.82	-29738.2	0.000000	0.000000	6.713033	-0.004831	NaN	0.000000	0.001766	0.001702	28.0849	0.118713	0.001990	59.6445	-58.026	13.1651	0.032807	0.710947	-0.391332	-0.392691	-0.004831	59.6445	-0.391271	-100310	4.816361E-8	NaN
1132	1.000000	0.722303	7.37613e+06	-56739.1	1055.82	-29738.2	0.000000	0.000000	6.723033	0.059230	NaN	0.000000	0.001759	0.001696	28.0851	0.023175	0.002039	11.3638	42.0002	-164.659	0.117913	0.721035	-0.381335	-0.382603	0.059230	11.3638	-0.385244	-82240.6	-7.202082E-7	NaN
1132	1.000000	0.732331	7.37613e+06	-56739.1	1055.82	-29738.2	0.000000	0.000000	6.733057	-0.018639	NaN	0.000000	0.001652	0.001736	28.0847	0.167889	0.001986	84.5564	25.9694	14.3639	0.020415	0.730945	-0.371307	-0.372693	-0.018639	84.5564	-0.371142	-51590.6	3.612936E-7	NaN
1132	1.000000	0.742314	7.37613e+06	-56739.1	1055.82	-29738.2	0.000000	0.000000	6.743045	0.084948	NaN	0.000000	0.001693	0.001733	28.0846	0.051148	0.001982	25.8111	161.434	-168.505	0.106925	0.741027	-0.361324	-0.362611	0.084948	25.8111	-0.363793	-40423.2	-2.101478E-6	NaN
1132	1.000000	0.752293	7.37613e+06	-56739.1	1055.82	-29738.2	0.000000	0.000000	6.753022	0.024176	NaN	0.000000	0.001727	0.001763	28.0847	0.055337	0.001938	28.5529	-87.8951	13.9372	0.010939	0.750944	-0.351345	-0.352694	0.024176	28.5529	-0.351980	-27272.4	-8.864528E-7	NaN
1132	1.000000	0.762336	7.37613e+06	-56739.1	1055.82	-29738.2	0.000000	0.000000	6.763065	0.039943	NaN	0.000000	0.001741	0.001767	28.0847	0.043386	0.001982	21.8934	175.671	-167.217	0.027918	0.761046	-0.341302	-0.342592	0.039943	21.8934	-0.342670	-19973.3	-1.999820E-6	NaN
1132	1.000000	0.772343	7.37613e+06	-56739.1	1055.82	-29738.2	0.000000	0.000000	6.773073	0.057156	NaN	0.000000	0.001792	0.001759	28.0847	0.086133	0.002040	42.2125	93.8744	14.9341	0.131221	0.770954	-0.331295	-0.332684	0.057156	42.2125	-0.332311	-14101.7	-4.053160E-6	NaN
1132	1.000000	0.782330	7.37613e+06	-56739.1	1055.82	-29738.2	0.000000	0.000000	6.783058	0.028040	NaN	0.000000	0.001734	0.001709	28.0848	0.084594	0.002081	40.6527	74.4222	-163.717	-0.003060	0.780996	-0.321308	-0.322642	0.028040	40.6527	-0.321826	-9896.86	-2.833212E-6	NaN
1132	1.000000	0.792306	7.37613e+06	-56739.1	1055.82	-29738.2	0.000000	0.000000	6.793034	0.021927	NaN	0.000000	0.001743	0.001730	28.0848	0.144653	0.002021	71.5581	19.0467	15.1882	0.039501	0.790948	-0.311332	-0.312690	0.021927	71.5581	-0.311562	-6984.91	-3.139187E-6	NaN
1132	1.000000	0.802327	7.37613e+06	-56739.1	1055.82	-29738.2	0.000000	0.000000	6.803054	0.006056	NaN	0.000000	0.001746	0.001688	28.0845	0.078501	0.001961	40.0245	-158.808	-169.456	-0.042018	0.800966	-0.301311	-0.302672	0.006056	40.0245	-0.301425	-4941.23	-1.225621E-6	NaN
1132	1.000000	0.812328	7.37613e+06	-56739.1	1055.82	-29738.2	0.000000	0.000000	6.813057	0.022553	NaN	0.000000	0.001702	0.001734	28.0848	0.046877	0.002022	23.1825	141.586	10.4729	-0.010081	0.810962	-0.291310	-0.292676	0.022553	23.1825	-0.292039	-3579.58	-6.300574E-6	NaN
1132	1.000000	0.822335	7.37613e+06	-56739.1	1055.82	-29738.2	0.000000	0.000000	6.823063	0.011265	NaN	0.000000	0.001738	0.001755	28.0846	0.057491	0.002087	27.5424	77.014	-165.946	0.074574	0.821080	-0.281303	-0.282558	0.011265	27.5424	-0.281610	-2495.96	-4.513386E-6	NaN
1132	1.000000	0.832311	7.37613e+06	-56739.1	1055.82	-29738.2	0.000000	0.000000	6.833040	0.035394	NaN	0.000000	0.001736	0.001740	28.0848	0.070897	0.002239	31.6629	-168.3	15.4699	0.007873	0.831044	-0.271327	-0.272594	0.035394	31.6629	-0.272165	-1796.5	-1.970150E-5	NaN
1132	1.000000	0.842361	7.37613e+06	-56739.1	1055.82	-29738.2	0.000000	0.000000	6.843090	0.029090	NaN	0.000000	0.001739	0.001733	28.0832	0.041427	0.002011	20.5982	52.8323	-167.221	-0.015994	0.841061	-0.261277	-0.262577	0.029090	20.5982	-0.262336	-1272.57	-2.285909E-5	NaN
1132	1.000000	0.852343	7.37613e+06	-56739.1	1055.82	-29738.2	0.000000	0.000000	6.853074	0.073290	NaN	0.000000	0.001733	0.001749	28.0835	0.056929	0.001906	29.8656	72.2217	12.7584	0.109627	0.850964	-0.251295	-0.252674	0.073290	29.8656	-0.253135	-919.149	-7.973668E-5	NaN
1132	1.000000	0.862385	7.37613e+06	-56739.1	1055.82	-29738.2	0.000000	0.000000	6.863114	0.041915	NaN	0.000000	0.001712	0.001685	28.0833	0.060424	0.001886	32.0393	-69.9487	-161.468	0.004250	0.861096	-0.241253	-0.242542	0.041915	32.0393	-0.242234	-622.89	-6.729053E-5	NaN
1132	1.000000	0.872373	7.37613e+06	-56739.1	1055.82	-29738.2	0.000000	0.000000	6.873103	0.073407	NaN	0.000000	0.001745	0.001718	28.0836	0.105111	0.002026	51.8686	-152.449	11.1728	0.013589	0.870986	-0.231265	-0.232652	0.073407	51.8686	-0.232327	-435.722	-0.000168	NaN
1132	1.000000	0.882355	7.37613e+06	-56739.1	1055.82	-29738.2	0.000000	0.000000	6.883080	-0.045724	NaN	0.000000	0.001743	0.001721	28.0835	0.045957	0.001939	23.7	38.129	-167.978	-0.077376	0.881050	-0.221283	-0.222588	-0.045724	23.7	-0.219836	-276.097	0.000166	NaN
1132	1.000000	0.892376	7.37613e+06	-56739.1	1055.82	-29738.2	0.000000	0.000000	6.893102	-0.009619	NaN	0.000000	0.001681	0.001675	28.0835	0.072660	0.002092	34.7403	-12.9503	15.156	0.047479	0.891011	-0.211263	-0.212627	-0.009619	34.7403	-0.211055	-199.475	4.822071E-5	NaN
1132	1.000000	0.902416	7.37613e+06	-56739.1	1055.82	-29738.2	0.000000	0.000000	6.903145	0.035861	NaN	0.000000	0.001646	0.001706	28.0834	0.031885	0.002040	15.6261	-36.1181	-166.785	0.026546	0.901062	-0.201222	-0.202576	0.035861	15.6261	-0.202943	-147.217	-0.000244	NaN
1132	1.000000	0.912379	7.37613e+06	-56739.1	1055.82	-29738.2	0.000000	0.000000	6.913106	0.003611	NaN	0.000000	0.001648	0.001696	28.0834	0.078895	0.002081	37.9125	-37.8879	13.4068	0.067921	0.910997	-0.191259	-0.192641	0.003611	37.9125	-0.191331	-94.6741	-3.814648E-5	NaN
1132	1.000000	0.922334	7.37613e+06	-56739.1	1055.82	-29738.2	0.000000	0.000000	6.923061	0.001059	NaN	0.000000	0.001675	0.001735	28.0833	0.132494	0.001942	68.2289	-174.807	-165.44	0.017889	0.921089	-0.181304	-0.182549	0.001059	68.2289	-0.181316	-64.2435	-1.648833E-5	NaN
1132	1.000000	0.932387	7.37613e+06	-56739.1	1055.82	-29738.2	0.000000	0.000000	6.933116	0.048341	NaN	0.000000	0.001740	0.001724	28.0831	0.086558	0.002020	42.857	-36.1913	13.6213	0.048743	0.930994	-0.171251	-0.172644	0.048341	42.857	-0.172097	-44.663	-0.001082	NaN
1132	1.000000	0.942409	7.37613e+06	-56739.1	1055.82	-29738.2	0.000000	0.000000	6.943136	-7.821204E-5	NaN	0.000000	0.001635	0.001689	28.0835	0.037492	0.001983	18.9115	-72.3436	-168.196	-0.033321	0.941105	-0.161229	-0.162533	-7.821204E-5	18.9115	-0.161226	-28.823	2.713532E-6	NaN
1132	1.000000	0.952377	7.37613e+06	-56739.1	1055.82	-29738.2	0.000000	0.000000	6.953106	0.037912	NaN	0.000000	0.001619	0.001707	28.083	0.027243	0.001972	13.8182	82.3464	12.3142	0.062363	0.951052	-0.151261	-0.152586	0.037912	13.8182	-0.153318	-20.809	-0.001822	NaN
1132	1.000000	0.962399	7.37613e+06	-56739.1	1055.82	-29738.2	0.000000	0.000000	6.963127	0.026532	NaN	0.000000	0.001637	0.001703	28.0834	0.030944	0.002092	14.791	172.928	-166.225	-0.002310	0.961095	-0.141240	-0.142543	0.026532	14.791	-0.142585	-13.2229	-0.002007	NaN
1132	1.000000	0.972385	7.37613e+06	-56739.1	1055.82	-29738.2	0.000000	0.000000	6.973112	-0.017644	NaN	0.000000	0.001623	0.001703	28.0844	0.018335	0.002056	8.917988	-112.01	14.0156	0.022580	0.971071	-0.131253	-0.132567	-0.017644	8.917988	-0.129769	-7.542583	0.002339	NaN
1132	1.000000	0.982377	7.37613e+06	-56739.1	1055.82	-29738.2	0.000000	0.000000	6.983107	0.067804	NaN	0.000000	0.001621	0.001663	28.0848	0.053385	0.001889	28.2611	-24.1303	-169.633	0.044032	0.981085	-0.121261	-0.122553	0.067804	28.2611	-0.123060	-5.565015	-0.012184	NaN
1132	1.000000	0.992418	7.37613e+06	-56739.1	1055.82	-29738.2	0.000000	0.000000	6.993147	0.056301	NaN	0.000000	0.001650	0.001685	28.0844	0.072029	0.002067	34.8493	28.3414	10.4966	0.057208	0.991052	-0.111220	-0.112586	0.056301	34.8493	-0.112432	-3.379614	-0.016659	NaN
1132	1.000000	1.002413	7.37613e+06	-56739.1	1055.82	-29738.2	0.000000	0.000000	7.003142	0.025899	NaN	0.000000	0.001633	0.001711	28.0845	0.117002	0.001932	60.5614	146.139	-164.089	0.039606	1.001132	-0.101225	-0.102506	0.025899	60.5614	-0.101546	-1.976494	-0.013103	NaN
1132	1.000000	1.012424	7.37613e+06	-56739.1	1055.82	-29738.2	0.000000	0.000000	7.013151	-0.011297	NaN	0.000000	0.001641	0.001704	28.0845	0.045050	0.002054	21.9332	122.476	13.5177	-0.050961	1.011022	-0.091214	-0.092616	-0.011297	21.9332	-0.090828	-1.130283	0.009995	NaN
1132	1.000000	1.022436	7.37613e+06	-56739.1	1055.82	-29738.2	0.000000	0.000000	7.023165	0.050259	NaN	0.000000	0.001684	0.001706	28.0842	0.057722	0.002066	27.9344	-24.5824	-163.971	0.069003	1.021126	-0.081202	-0.082512	0.050259	27.9344	-0.082552	-0.716070	-0.070187	NaN
1132	1.000000	1.032437	7.37613e+06	-56739.1	1055.82	-29738.2	0.000000	0.000000	7.033163	-0.036647	NaN	0.000000	0.001672	0.001692	28.0841	0.026930	0.001913	14.0783	52.6032	15.4109	-0.051622	1.031093	-0.071201	-0.072545	-0.036647	14.0783	-0.069249	-0.325617	0.112546	NaN
1132	1.000000	1.042442	7.37613e+06	-56739.1	1055.82	-29738.2	0.000000	0.000000	7.043172	0.050069	NaN	0.000000	0.001673	0.001722	28.0844	0.041418	0.002052	20.1866	-133.76	-166.999	-0.059255	1.041093	-0.061196	-0.062545	0.050069	20.1866	-0.063056	-0.219931	-0.227659	NaN
1132	1.000000	1.052437	7.37613e+06	-56739.1	1055.82	-29738.2	0.000000	0.000000	7.053162	-0.055573	NaN	0.000000	0.001665	0.001714	28.0844	0.090236	0.002119	42.5838	-48.2151	11.8342	-0.039540	1.051050	-0.051201	-0.052589	-0.055573	42.5838	-0.050223	-0.092676	0.599648	NaN
1132	1.000000	1.062458	7.37613e+06	-56739.1	1055.82	-29738.2	0.000000	0.000000	7.063186	0.009307	NaN	0.000000	0.001692	0.001761	28.0842	0.047957	0.002103	22.7988	123.743	-166.223	0.018362	1.061180	-0.041180	-0.042458	0.009307	22.7988	-0.041486	-0.050187	-0.185444	NaN
1132	1.000000	1.072446	7.37613e+06	-56739.1	1055.82	-29738.2	0.000000	0.000000	7.073174	0.018457	NaN	0.000000	0.001670	0.001742	28.0839	0.109337	0.001915	57.0873	-80.658	14.5002	0.033449	1.071062	-0.031192	-0.032576	0.018457	57.0873	-0.031435	-0.025253	-0.730891	NaN
1132	1.000000	1.082443	7.37613e+06	-56739.1	1055.82	-29738.2	0.000000	0.000000	7.083171	0.030047	NaN	0.000000	0.001684	0.001756	28.0844	0.096763	0.002111	45.8313	15.8971	-163.769	-0.012032	1.081144	-0.021195	-0.022494	0.030047	45.8313	-0.021687	-0.013864	-2.167183	NaN
1132	1.000000	1.092473	7.37613e+06	-56739.1	1055.82	-29738.2	0.000000	0.000000	7.093202	0.030977	NaN	0.000000	0.001659	0.001731	28.084	0.063574	0.001972	32.2443	-24.5308	13.7214	-0.011694	1.091046	-0.011165	-0.012592	0.030977	32.2443	-0.011885	-0.007463	-4.150673	NaN
1132	1.000000	1.102419	7.37613e+06	-56739.1	1055.82	-29738.2	0.000000	0.000000	7.103270	3.001820	NaN	0.000000	0.001660	0.001744	28.0843	3.820163	0.002016	1894.64	17.4354	-169.599	2.156510	1.101123	-0.001219	-0.002515	3.001820	1894.64	-0.002408	-0.001720	-1745.38	NaN
1132	2.000000	1.108562	7.37613e+06	-56739.1	1055.82	-29738.2	0.000000	0.000000	7.109626	8.191931	NaN	0.000000	0.001687	0.001735	28.0828	8.726310	0.001668	5230.66	7.862914	6.971008	7.095635	1.108258	0.004924	0.004620	8.191931	5230.66	0.003749	0.003020	2712.54	86961
1132	2.000000	1.111080	7.37613e+06	-56739.1	1055.82	-29738.2	0.000000	0.000000	7.112341	12.9662	NaN	0.000000	0.001660	0.001730	28.0835	12.4635	0.001916	6506.33	10.7941	-175.013	12.9968	1.110732	0.007442	0.007094	12.9662	6506.33	0.005948	0.005015	2585.61	83942.8
1132	2.000000	1.113575	7.37613e+06	-56739.1	1055.82	-29738.2	0.000000	0.000000	7.115117	19.8004	NaN	0.000000	0.001679	0.001717	28.083	15.1029	0.001778	8493	7.885003	6.066709	19.172	1.113151	0.009937	0.009513	19.8004	8493	0.008188	0.007237	2736.13	91214.9
1132	2.000000	1.115997	7.37613e+06	-56739.1	1055.82	-29738.2	0.000000	0.000000	7.117747	24.8641	NaN	0.000000	0.001664	0.001788	28.0832	17.6328	0.001585	11122.2	4.122463	-175.68	23.0257	1.115706	0.012359	0.012068	24.8641	11122.2	0.010682	0.009949	2499.13	101876
1132	2.000000	1.118513	7.37613e+06	-56739.1	1055.82	-29738.2	0.000000	0.000000	7.120518	31.0344	NaN	0.000000	0.001695	0.001746	28.0829	21.4539	0.001768	12132.5	10.8275	-3.770225	28.8752	1.118138	0.014875	0.014500	31.0344	12132.5	0.012957	0.012657	2452.02	98528.6
1132	2.000000	1.121020	7.37613e+06	-56739.1	1055.82	-29738.2	0.000000	0.000000	7.123198	35.2508	NaN	0.000000	0.001644	0.001714	28.0832	23.7409	0.001962	12098.2	7.039107	-177.49	34.0335	1.120742	0.017382	0.017104	35.2508	12098.2	0.015197	0.015549	2267.1	88642.8
1132	2.000000	1.123559	7.37613e+06	-56739.1	1055.82	-29738.2	0.000000	0.000000	7.126110	44.3401	NaN	0.000000	0.001664	0.001702	28.0831	25.8434	0.001786	14468.8	7.148666	0.806905	44.3159	1.123185	0.019921	0.019547	44.3401	14468.8	0.017622	0.018943	2340.76	96047.2
1132	2.000000	1.126010	7.37613e+06	-56739.1	1055.82	-29738.2	0.000000	0.000000	7.128900	52.5855	NaN	0.000000	0.001695	0.001715	28.0834	28.1188	0.001643	17113.1	7.445534	177.424	52.6321	1.125610	0.022372	0.021972	52.5855	17113.1	0.020067	0.022648	2321.9	103894
1132	2.000000	1.128498	7.37613e+06	-56739.1	1055.82	-29738.2	0.000000	0.000000	7.131623	58.2882	NaN	0.000000	0.001700	0.001712	28.0832	31.6425	0.001977	16009	5.868303	-0.037358	56.5279	1.128159	0.024860	0.024521	58.2882	16009	0.022129	0.025999	2241.96	90711.1
1132	2.000000	1.130934	7.37613e+06	-56739.1	1055.82	-29738.2	0.000000	0.000000	7.134418	67.0129	NaN	0.000000	0.001671	0.001708	28.0832	33.5442	0.001925	17426.1	7.206239	177.657	65.456	1.130684	0.027296	0.027046	67.0129	17426.1	0.024412	0.029954	2237.21	91991.7
1132	2.000000	1.133521	7.37613e+06	-56739.1	1055.82	-29738.2	0.000000	0.000000	7.137278	73.6358	NaN	0.000000	0.001663	0.001651	28.0831	34.6365	0.001713	20214.5	2.874061	1.242491	73.3133	1.133154	0.029883	0.029516	73.6358	20214.5	0.027151	0.035045	2101.2	98656.2
1132	2.000000	1.135981	7.37613e+06	-56739.1	1055.82	-29738.2	0.000000	0.000000	7.140147	83.5647	NaN	0.000000	0.001726	0.001679	28.083	37.3977	0.001820	20545.6	5.210755	178.126	82.6644	1.135669	0.032343	0.032031	83.5647	20545.6	0.029293	0.039291	2126.84	94699.7
1132	2.000000	1.138459	7.37613e+06	-56739.1	1055.82	-29738.2	0.000000	0.000000	7.142975	92.1007	NaN	0.000000	0.001699	0.001681	28.083	39.5366	0.001646	24020.8	3.240123	-2.347935	89.3978	1.138142	0.034821	0.034504	92.1007	24020.8	0.031945	0.044872	2052.53	103603
1132	2.000000	1.140928	7.37613e+06	-56739.1	1055.82	-29738.2	0.000000	0.000000	7.145708	98.4989	NaN	0.000000	0.001710	0.001650	28.0834	42.6656	0.001770	24101.7	2.277418	179.878	95.5161	1.140621	0.037290	0.036983	98.4989	24101.7	0.034225	0.049957	1971.65	98519.1
1132	2.000000	1.143518	7.37613e+06	-56739.1	1055.82	-29738.2	0.000000	0.000000	7.148808	110.88	NaN	0.000000	0.001636	0.001685	28.0842	44.49	0.001590	27981.4	6.945238	-6.803604	110.275	1.143182	0.039880	0.039544	110.88	27981.4	0.036908	0.056283	1970.06	107759
1132	2.000000	1.145974	7.37613e+06	-56739.1	1055.82	-29738.2	0.000000	0.000000	7.151735	122.348	NaN	0.000000	0.001666	0.001683	28.0844	46.4115	0.001714	27082.6	4.554888	175.386	121.932	1.145725	0.042336	0.042087	122.348	27082.6	0.038948	0.061337	1994.69	99908.6
1132	2.000000	1.148419	7.37613e+06	-56739.1	1055.82	-29738.2	0.000000	0.000000	7.154675	134.384	NaN	0.000000	0.001666	0.001705	28.0844	48.554	0.001657	29309.9	0.472551	0.567536	130.882	1.148021	0.044781	0.044383	134.384	29309.9	0.041342	0.067543	1989.62	103038
1132	2.000000	1.150947	7.37613e+06	-56739.1	1055.82	-29738.2	0.000000	0.000000	7.157452	140.428	NaN	0.000000	0.001660	0.001720	28.0844	54.3559	0.001952	27840.4	7.099105	173.401	138.661	1.150649	0.047309	0.047011	140.428	27840.4	0.043526	0.073458	1911.67	93848.5
1132	2.000000	1.153500	7.37613e+06	-56739.1	1055.82	-29738.2	0.000000	0.000000	7.160549	153.66	NaN	0.000000	0.001681	0.001713	28.0843	55.4384	0.001868	29681.4	1.441200	-0.824265	151.787	1.153147	0.049862	0.049509	153.66	29681.4	0.045979	0.080391	1911.4	95642.8
1132	2.000000	1.155951	7.37613e+06	-56739.1	1055.82	-29738.2	0.000000	0.000000	7.163453	164.647	NaN	0.000000	0.001642	0.001688	28.0846	58.1083	0.001812	32061.5	5.141154	174.49	163.598	1.155650	0.052313	0.052012	164.647	32061.5	0.048462	0.087718	1877.01	98903.9
1132	2.000000	1.158483	7.37613e+06	-56739.1	1055.82	-29738.2	0.000000	0.000000	7.166449	175.954	NaN	0.000000	0.001647	0.001701	28.0845	61.401	0.001920	31985.3	4.327382	-4.854742	174.861	1.158170	0.054845	0.054531	175.954	31985.3	0.050719	0.094649	1859.02	94987.4
1132	2.000000	1.160938	7.37613e+06	-56739.1	1055.82	-29738.2	0.000000	0.000000	7.169484	190.022	NaN	0.000000	0.001640	0.001712	28.0845	62.8982	0.001780	35345.6	3.977261	175.246	189.113	1.160681	0.057300	0.057043	190.022	35345.6	0.053268	0.102782	1848.79	100728
1132	2.000000	1.163472	7.37613e+06	-56739.1	1055.82	-29738.2	0.000000	0.000000	7.172759	208.043	NaN	0.000000	0.001629	0.001715	28.0845	64.5554	0.001748	36936.3	5.704706	-6.810024	206.449	1.163008	0.059834	0.059370	208.043	36936.3	0.055610	0.110537	1882.1	101501
1132	2.000000	1.165884	7.37613e+06	-56739.1	1055.82	-29738.2	0.000000	0.000000	7.175700	220.897	NaN	0.000000	0.001660	0.001705	28.0845	65.4918	0.001747	37496.8	0.499308	178.382	218.114	1.165570	0.062246	0.061931	220.897	37496.8	0.057828	0.118135	1869.88	99673.4
1132	2.000000	1.168455	7.37613e+06	-56739.1	1055.82	-29738.2	0.000000	0.000000	7.178827	234.411	NaN	0.000000	0.001670	0.001722	28.0844	69.775	0.001626	42923.8	5.635977	-8.021229	232.885	1.168006	0.064817	0.064368	234.411	42923.8	0.060721	0.128408	1825.52	109440
1132	2.000000	1.170810	7.37613e+06	-56739.1	1055.82	-29738.2	0.000000	0.000000	7.181689	246.733	NaN	0.000000	0.001664	0.001677	28.0845	73.3734	0.001920	38213.5	4.078696	174.707	241.008	1.170624	0.067172	0.066986	246.733	38213.5	0.062330	0.134294	1837.26	95271.1
1132	2.000000	1.173392	7.37613e+06	-56739.1	1055.82	-29738.2	0.000000	0.000000	7.185078	266.377	NaN	0.000000	0.001666	0.001714	28.0847	74.5222	0.001820	40942.7	2.484910	-4.765752	260.789	1.173081	0.069754	0.069443	266.377	40942.7	0.064874	0.143864	1851.59	98622.1
1132	2.000000	1.175914	7.37613e+06	-56739.1	1055.82	-29738.2	0.000000	0.000000	7.188311	283.649	NaN	0.000000	0.001652	0.001683	28.0833	76.5722	0.001805	42430.4	4.859682	172.928	281.496	1.175455	0.072276	0.071817	283.649	42430.4	0.067262	0.153129	1852.36	99065.4
1132	2.000000	1.178395	7.37613e+06	-56739.1	1055.82	-29738.2	0.000000	0.000000	7.191488	300.559	NaN	0.000000	0.001655	0.001745	28.0835	79.434	0.001821	43631.9	2.767473	-5.353994	297.956	1.178138	0.074757	0.074500	300.559	43631.9	0.069591	0.162426	1850.43	98912.1
1132	2.000000	1.181026	7.37613e+06	-56739.1	1055.82	-29738.2	0.000000	0.000000	7.194474	309.199	NaN	0.000000	0.001681	0.001727	28.0835	82.269	0.001764	46648.3	0.449061	176.752	315.684	1.180714	0.077388	0.077076	309.199	46648.3	0.072417	0.174058	1776.41	102156
1132	2.000000	1.183404	7.37613e+06	-56739.1	1055.82	-29738.2	0.000000	0.000000	7.198042	338.121	NaN	0.000000	0.001675	0.001708	28.0838	84.7131	0.001791	47293	7.070165	-10.0269	332.592	1.182954	0.079766	0.079316	338.121	47293	0.074404	0.182462	1853.1	101154
1132	2.000000	1.185904	7.37613e+06	-56739.1	1055.82	-29738.2	0.000000	0.000000	7.201284	356.136	NaN	0.000000	0.001666	0.001709	28.0833	86.8912	0.001814	47910.9	5.937076	171.282	355.959	1.185591	0.082266	0.081953	356.136	47910.9	0.076691	0.192367	1851.34	99802.7
1132	2.000000	1.188325	7.37613e+06	-56739.1	1055.82	-29738.2	0.000000	0.000000	7.204319	371.071	NaN	0.000000	0.001683	0.001658	28.0838	89.4634	0.001789	50000.6	7.740775	-11.1048	364.337	1.188008	0.084687	0.084370	371.071	50000.6	0.079121	0.203158	1826.51	101352
1132	2.000000	1.190842	7.37613e+06	-56739.1	1055.82	-29738.2	0.000000	0.000000	7.207306	382.501	NaN	0.000000	0.001672	0.001673	28.0835	91.7641	0.001699	54007.7	3.173507	172.623	377.643	1.190635	0.087204	0.086997	382.501	54007.7	0.081892	0.215800	1772.48	106219
1132	2.000000	1.193403	7.37613e+06	-56739.1	1055.82	-29738.2	0.000000	0.000000	7.211112	412.749	NaN	0.000000	0.001655	0.001704	28.0838	93.6183	0.001871	50039.9	1.919811	-4.930028	407.946	1.193059	0.089765	0.089421	412.749	50039.9	0.083579	0.223668	1845.36	96669.2
1132	2.000000	1.195902	7.37613e+06	-56739.1	1055.82	-29738.2	0.000000	0.000000	7.214497	434.275	NaN	0.000000	0.001653	0.001703	28.0834	96.2777	0.001844	52201.1	4.208346	172.613	433.4	1.195556	0.092264	0.091918	434.275	52201.1	0.086025	0.235315	1845.5	98316.8
1132	2.000000	1.198387	7.37613e+06	-56739.1	1055.82	-29738.2	0.000000	0.000000	7.217737	452.637	NaN	0.000000	0.001638	0.001691	28.0836	97.6218	0.001813	53859.4	2.377003	-6.367778	446.453	1.198094	0.094749	0.094456	452.637	53859.4	0.088446	0.247116	1831.68	98988.5
1132	2.000000	1.200790	7.37613e+06	-56739.1	1055.82	-29738.2	0.000000	0.000000	7.221148	477.145	NaN	0.000000	0.001646	0.001713	28.0834	100.45	0.001781	56407.2	4.734568	170.873	471.056	1.200591	0.097152	0.096953	477.145	56407.2	0.090808	0.258883	1843.09	101288
1132	2.000000	1.203522	7.37613e+06	-56739.1	1055.82	-29738.2	0.000000	0.000000	7.224824	500.073	NaN	0.000000	0.001644	0.001705	28.0835	102.931	0.001762	58424.8	7.703302	-11.8894	503.147	1.203193	0.099884	0.099555	500.073	58424.8	0.093465	0.272430	1835.61	102269
1132	2.000000	1.205999	7.37613e+06	-56739.1	1055.82	-29738.2	0.000000	0.000000	7.228397	526.73	NaN	0.000000	0.001659	0.001714	28.0828	104.794	0.001821	57546.3	3.494488	172.551	531.728	1.205557	0.102361	0.101919	526.73	57546.3	0.095496	0.283001	1861.23	98831.7