File: remote_trans/data/nanoindenter/0828-1/data/Data_2025-08-06,11h17m57s/2025-07-22_16-23-58_1_258.txt
2025-07-22, 16:23:58, 1
Index	Phase	Displacement	Time	Pos X	Pos Y	Pos Z	Rot A	Rot B	Piezo Z	Force A	Force B	Gripper	Voltage A	Voltage B	Temperature	Amplitude force	Amplitude pos	Stiffness	Phase shift	Phase excitation	Force A raw	Displacement raw	HMax	HMax raw	Real Force	Real Stiffness	Contact Depth	Area	Hardness	Reduced Mod.
[#]	[#]	[um]	[s]	[um]	[um]	[um]	[m°]	[m°]	[um]	[uN]	[uN]	[V]	[V]	[V]	[°C]	[uN]	[um]	[N/m]	[°]	[°]	[uN]	[um]	[um]	[um]	[uN]	[N/m]	[um]	[um^2]	[MPa]	[MPa]
258	1.000000	0.002502	7.36758e+06	-51539.1	955.819	-29752.2	0.000000	0.000000	6.002837	-0.062095	NaN	0.000000	0.001619	0.001625	28.0808	0.026615	0.000956	27.8543	76.8775	-165.676	-0.089404	0.001219	-1.109304	-1.110587	-0.062095	27.8543	-1.107632	-6.346086E+14	9.784800E-17	NaN
258	1.000000	0.012531	7.36758e+06	-51539.1	955.818	-29752.2	0.000000	0.000000	6.012869	0.007815	NaN	0.000000	0.001622	0.001689	28.0806	0.025034	0.001182	21.1824	-109.141	14.2862	0.001328	0.011142	-1.099275	-1.100665	0.007815	21.1824	-1.099551	-4.943624E+14	-1.580783E-17	NaN
258	1.000000	0.022433	7.36758e+06	-51539.1	955.819	-29752.2	0.000000	0.000000	6.022770	-0.002676	NaN	0.000000	0.001630	0.001679	28.0806	0.074424	0.001770	42.0508	-169.32	-166.406	0.013200	0.021142	-1.089373	-1.090664	-0.002676	42.0508	-1.089326	-3.603770E+14	7.426525E-18	NaN
258	1.000000	0.032412	7.36758e+06	-51539.1	955.819	-29752.2	0.000000	0.000000	6.032748	-0.033186	NaN	0.000000	0.001680	0.001649	28.0806	0.082969	0.002071	40.0621	-155.288	13.9347	-0.038477	0.031047	-1.079394	-1.080759	-0.033186	40.0621	-1.078773	-2.600387E+14	1.276214E-16	NaN
258	1.000000	0.042427	7.36758e+06	-51539.1	955.819	-29752.2	0.000000	0.000000	6.042764	0.006831	NaN	0.000000	0.001598	0.001678	28.081	0.068828	0.001995	34.4994	-121.024	-167.559	0.053163	0.041109	-1.069379	-1.070697	0.006831	34.4994	-1.069528	-1.953635E+14	-3.496519E-17	NaN
258	1.000000	0.052392	7.36758e+06	-51539.1	955.819	-29752.2	0.000000	0.000000	6.052729	-0.017275	NaN	0.000000	0.001601	0.001698	28.0796	0.064928	0.002171	29.9007	-101.197	11.8144	-0.002823	0.051075	-1.059414	-1.060731	-0.017275	29.9007	-1.058980	-1.409677E+14	1.225455E-16	NaN
258	1.000000	0.062401	7.36758e+06	-51539.1	955.819	-29752.2	0.000000	0.000000	6.062739	0.027914	NaN	0.000000	0.001590	0.001687	28.0798	0.070956	0.002083	34.0697	-72.9988	-166.99	0.103884	0.061073	-1.049405	-1.050733	0.027914	34.0697	-1.050020	-1.068265E+14	-2.613017E-16	NaN
258	1.000000	0.072420	7.36758e+06	-51539.1	955.818	-29752.2	0.000000	0.000000	6.072757	-0.000827	NaN	0.000000	0.001570	0.001704	28.0797	0.029443	0.001871	15.7343	-99.2873	15.3322	0.000959	0.071057	-1.039386	-1.040750	-0.000827	15.7343	-1.039347	-7.676871E+13	1.077088E-17	NaN
258	1.000000	0.082456	7.36758e+06	-51539.1	955.817	-29752.2	0.000000	0.000000	6.082795	0.040404	NaN	0.000000	0.001592	0.001614	28.08	0.070918	0.002077	34.1436	117.155	-167.591	-0.007958	0.081120	-1.029350	-1.030686	0.040404	34.1436	-1.030238	-5.789996E+13	-6.978175E-16	NaN
258	1.000000	0.092413	7.36758e+06	-51539.1	955.819	-29752.2	0.000000	0.000000	6.092753	0.062623	NaN	0.000000	0.001550	0.001647	28.0797	0.111974	0.002004	55.8615	-141.827	8.597590	-0.016233	0.091049	-1.019393	-1.020757	0.062623	55.8615	-1.020233	-4.247110E+13	-1.474488E-15	NaN
258	1.000000	0.102439	7.36758e+06	-51539.1	955.819	-29752.2	0.000000	0.000000	6.102777	0.019238	NaN	0.000000	0.001561	0.001639	28.0796	0.032473	0.002019	16.08	105.726	-168.609	-0.014838	0.101102	-1.009367	-1.010704	0.019238	16.08	-1.010265	-3.118493E+13	-6.168980E-16	NaN
258	1.000000	0.112437	7.36758e+06	-51539.1	955.817	-29752.2	0.000000	0.000000	6.112772	-0.036334	NaN	0.000000	0.001531	0.001677	28.0797	0.069464	0.002136	32.5235	78.53	13.9398	-0.022402	0.111092	-0.999369	-1.000715	-0.036334	32.5235	-0.998531	-2.167690E+13	1.676146E-15	NaN
258	1.000000	0.122422	7.36758e+06	-51539.1	955.819	-29752.2	0.000000	0.000000	6.122756	-0.065313	NaN	0.000000	0.001540	0.001658	28.0799	0.028465	0.001838	15.4894	-144.448	-164.502	-0.009800	0.121119	-0.989384	-0.990687	-0.065313	15.4894	-0.986222	-1.479872E+13	4.413430E-15	NaN
258	1.000000	0.132442	7.36758e+06	-51539.1	955.819	-29752.2	0.000000	0.000000	6.132780	0.044344	NaN	0.000000	0.001545	0.001665	28.0798	0.123759	0.001901	65.1046	-122.78	15.0695	0.032761	0.131075	-0.979365	-0.980731	0.044344	65.1046	-0.979875	-1.215436E+13	-3.648430E-15	NaN
258	1.000000	0.142468	7.36758e+06	-51539.1	955.819	-29752.2	0.000000	0.000000	6.142805	0.000387	NaN	0.000000	0.001549	0.001660	28.08	0.119608	0.001830	65.3474	11.6521	-165.673	-0.003337	0.141146	-0.969338	-0.970660	0.000387	65.3474	-0.969343	-8.766108E+12	-4.419903E-17	NaN
258	1.000000	0.152485	7.36758e+06	-51539.1	955.819	-29752.2	0.000000	0.000000	6.152822	-0.010109	NaN	0.000000	0.001551	0.001685	28.08	0.088894	0.002147	41.3945	-150.654	17.6488	0.043222	0.151054	-0.959321	-0.960752	-0.010109	41.3945	-0.959138	-6.386204E+12	1.583007E-15	NaN
258	1.000000	0.162459	7.36758e+06	-51539.1	955.819	-29752.2	0.000000	0.000000	6.162794	-0.049106	NaN	0.000000	0.001524	0.001701	28.0797	0.083732	0.001994	41.9996	119.685	-167.299	0.027734	0.161117	-0.949347	-0.950689	-0.049106	41.9996	-0.948470	-4.585626E+12	1.070862E-14	NaN
258	1.000000	0.172453	7.36758e+06	-51539.1	955.818	-29752.2	0.000000	0.000000	6.172788	-0.045519	NaN	0.000000	0.001564	0.001701	28.0795	0.094755	0.001933	49.0231	-145.725	11.8548	-0.015320	0.171183	-0.939353	-0.940623	-0.045519	49.0231	-0.938657	-3.380736E+12	1.346427E-14	NaN
258	1.000000	0.182447	7.36758e+06	-51539.1	955.818	-29752.2	0.000000	0.000000	6.182781	-0.070395	NaN	0.000000	0.001540	0.001684	28.0797	0.082546	0.001808	45.6534	3.383316	-167.709	-0.027400	0.181173	-0.929359	-0.930633	-0.070395	45.6534	-0.928202	-2.443062E+12	2.881416E-14	NaN
258	1.000000	0.192479	7.36758e+06	-51539.1	955.818	-29752.2	0.000000	0.000000	6.192817	0.025119	NaN	0.000000	0.001519	0.001664	28.081	0.090891	0.001988	45.7248	-112.98	13.0947	-0.009902	0.191104	-0.919328	-0.920702	0.025119	45.7248	-0.919740	-1.877976E+12	-1.337552E-14	NaN
258	1.000000	0.202456	7.36758e+06	-51539.1	955.819	-29752.2	0.000000	0.000000	6.202794	0.043559	NaN	0.000000	0.001552	0.001674	28.0808	0.065631	0.001980	33.1473	-53.9799	-167.631	0.053970	0.201106	-0.909351	-0.910700	0.043559	33.1473	-0.910336	-1.401852E+12	-3.107231E-14	NaN
258	1.000000	0.212433	7.36758e+06	-51539.1	955.818	-29752.2	0.000000	0.000000	6.212767	-0.067746	NaN	0.000000	0.001557	0.001638	28.0808	0.050897	0.002064	24.6638	-42.7026	15.2138	-0.060307	0.211103	-0.899373	-0.900703	-0.067746	24.6638	-0.897313	-9.348778E+11	7.246492E-14	NaN
258	1.000000	0.222478	7.36758e+06	-51539.1	955.818	-29752.2	0.000000	0.000000	6.222813	-0.055259	NaN	0.000000	0.001583	0.001659	28.0808	0.053377	0.001876	28.4481	-119.163	-166.832	-0.104084	0.221174	-0.889328	-0.890632	-0.055259	28.4481	-0.887871	-6.968413E+11	7.929879E-14	NaN
258	1.000000	0.232469	7.36758e+06	-51539.1	955.818	-29752.2	0.000000	0.000000	6.232805	-0.028884	NaN	0.000000	0.001577	0.001658	28.0808	0.193934	0.002108	92.0113	50.7758	10.4434	-0.081669	0.231124	-0.879337	-0.880683	-0.028884	92.0113	-0.879101	-5.303389E+11	5.446341E-14	NaN
258	1.000000	0.242515	7.36758e+06	-51539.1	955.818	-29752.2	0.000000	0.000000	6.242849	-0.076637	NaN	0.000000	0.001545	0.001639	28.0809	0.061629	0.002001	30.7926	169.504	-165.91	-0.075678	0.241202	-0.869291	-0.870604	-0.076637	30.7926	-0.867425	-3.686359E+11	2.078944E-13	NaN
258	1.000000	0.252517	7.36758e+06	-51539.1	955.818	-29752.2	0.000000	0.000000	6.252854	-0.011297	NaN	0.000000	0.001589	0.001592	28.0808	0.071945	0.002006	35.865	27.3751	15.5325	-0.049862	0.251170	-0.859289	-0.860636	-0.011297	35.865	-0.859053	-2.839866E+11	3.978003E-14	NaN
258	1.000000	0.262512	7.36758e+06	-51539.1	955.819	-29752.2	0.000000	0.000000	6.262849	0.002087	NaN	0.000000	0.001616	0.001587	28.0809	0.062475	0.001975	31.6254	88.2448	-167.018	0.010910	0.261171	-0.849294	-0.850635	0.002087	31.6254	-0.849344	-2.098220E+11	-9.946749E-15	NaN
258	1.000000	0.272513	7.36758e+06	-51539.1	955.819	-29752.2	0.000000	0.000000	6.272850	-0.009128	NaN	0.000000	0.001596	0.001618	28.0808	0.080240	0.002055	39.0524	88.4739	11.1362	0.026099	0.271172	-0.839293	-0.840634	-0.009128	39.0524	-0.839118	-1.525244E+11	5.984654E-14	NaN
258	1.000000	0.282522	7.36758e+06	-51539.1	955.817	-29752.2	0.000000	0.000000	6.282860	0.024552	NaN	0.000000	0.001576	0.001603	28.0807	0.135835	0.001898	71.5592	173.632	-169.215	-0.004338	0.281221	-0.829285	-0.830586	0.024552	71.5592	-0.829542	-1.131294E+11	-2.170242E-13	NaN
258	1.000000	0.292518	7.36758e+06	-51539.1	955.818	-29752.2	0.000000	0.000000	6.292853	-0.035923	NaN	0.000000	0.001579	0.001617	28.0807	0.063428	0.001955	32.4442	-12.9431	13.3401	-0.058885	0.291192	-0.819288	-0.820614	-0.035923	32.4442	-0.818458	-8.003830E+10	4.488201E-13	NaN
258	1.000000	0.302532	7.36758e+06	-51539.1	955.818	-29752.2	0.000000	0.000000	6.302870	0.027722	NaN	0.000000	0.001534	0.001595	28.0815	0.110405	0.002141	51.5619	-9.146464	-168.018	-0.005905	0.301165	-0.809275	-0.810641	0.027722	51.5619	-0.809678	-6.084144E+10	-4.556424E-13	NaN
258	1.000000	0.312552	7.36758e+06	-51539.1	955.819	-29752.2	0.000000	0.000000	6.312891	0.037228	NaN	0.000000	0.001546	0.001598	28.0808	0.146837	0.002015	72.8643	22.7121	10.0473	0.020651	0.311102	-0.799254	-0.800705	0.037228	72.8643	-0.799637	-4.445698E+10	-8.373909E-13	NaN
258	1.000000	0.322522	7.36758e+06	-51539.1	955.818	-29752.2	0.000000	0.000000	6.322860	0.027464	NaN	0.000000	0.001610	0.001661	28.0803	0.079076	0.002023	39.0972	-74.2408	-169.533	0.046244	0.321209	-0.789284	-0.790597	0.027464	39.0972	-0.789811	-3.269776E+10	-8.399491E-13	NaN
258	1.000000	0.332524	7.36758e+06	-51539.1	955.819	-29752.2	0.000000	0.000000	6.332862	0.016228	NaN	0.000000	0.001641	0.001638	28.0796	0.025883	0.002090	12.3857	-11.2466	12.5722	-0.007368	0.331165	-0.779282	-0.780641	0.016228	12.3857	-0.780264	-2.425633E+10	-6.690158E-13	NaN
258	1.000000	0.342546	7.36758e+06	-51539.1	955.818	-29752.2	0.000000	0.000000	6.342881	-0.054633	NaN	0.000000	0.001630	0.001592	28.0798	0.017110	0.002018	8.477768	-122.273	-168.081	-0.124006	0.341219	-0.769260	-0.770587	-0.054633	8.477768	-0.764427	-1.477486E+10	3.697672E-12	NaN
258	1.000000	0.352575	7.36758e+06	-51539.1	955.818	-29752.2	0.000000	0.000000	6.352912	0.011721	NaN	0.000000	0.001647	0.001587	28.0793	0.064099	0.001929	33.2362	117.481	13.9671	-0.053895	0.351184	-0.759232	-0.760622	0.011721	33.2362	-0.759496	-1.266037E+10	-9.258413E-13	NaN
258	1.000000	0.362542	7.36758e+06	-51539.1	955.818	-29752.2	0.000000	0.000000	6.362881	0.046416	NaN	0.000000	0.001633	0.001601	28.0796	0.102439	0.001921	53.328	170.148	-166.094	-0.019004	0.361251	-0.749264	-0.750555	0.046416	53.328	-0.749917	-9.377465E+9	-4.949781E-12	NaN
258	1.000000	0.372559	7.36758e+06	-51539.1	955.817	-29752.2	0.000000	0.000000	6.372893	-0.060613	NaN	0.000000	0.001611	0.001596	28.0796	0.072442	0.002007	36.0913	98.8173	14.0344	0.046966	0.371173	-0.739247	-0.740633	-0.060613	36.0913	-0.737988	-6.451301E+9	9.395505E-12	NaN
258	1.000000	0.382579	7.36758e+06	-51539.1	955.818	-29752.2	0.000000	0.000000	6.382913	-0.073115	NaN	0.000000	0.001607	0.001627	28.0796	0.042120	0.002053	20.517	-76.9663	-166.291	-0.081566	0.381229	-0.729228	-0.730578	-0.073115	20.517	-0.726555	-4.506599E+9	1.622401E-11	NaN
258	1.000000	0.392574	7.36758e+06	-51539.1	955.819	-29752.2	0.000000	0.000000	6.392911	0.001293	NaN	0.000000	0.001605	0.001580	28.0796	0.077750	0.001987	39.1277	-85.7785	12.3611	0.099482	0.391213	-0.719232	-0.720593	0.001293	39.1277	-0.719257	-3.583782E+9	-3.608193E-13	NaN
258	1.000000	0.402549	7.36758e+06	-51539.1	955.818	-29752.2	0.000000	0.000000	6.402889	0.075447	NaN	0.000000	0.001580	0.001604	28.0796	0.070103	0.001979	35.4148	-36.9623	-166.347	0.088649	0.401250	-0.709257	-0.710556	0.075447	35.4148	-0.710855	-2.752392E+9	-2.741160E-11	NaN
258	1.000000	0.412587	7.36758e+06	-51539.1	955.818	-29752.2	0.000000	0.000000	6.412926	0.047959	NaN	0.000000	0.001571	0.001639	28.0797	0.098426	0.001977	49.7897	-155.582	12.1316	0.074294	0.411206	-0.699219	-0.700600	0.047959	49.7897	-0.699942	-1.953154E+9	-2.455483E-11	NaN
258	1.000000	0.422526	7.36758e+06	-51539.1	955.818	-29752.2	0.000000	0.000000	6.422866	0.060601	NaN	0.000000	0.001560	0.001635	28.0794	0.093543	0.001974	47.3762	43.8601	-165.944	-0.010129	0.421273	-0.689280	-0.690533	0.060601	47.3762	-0.690239	-1.439422E+9	-4.210082E-11	NaN
258	1.000000	0.432600	7.36758e+06	-51539.1	955.818	-29752.2	0.000000	0.000000	6.432936	-0.021067	NaN	0.000000	0.001599	0.001584	28.0795	0.054685	0.002121	25.7882	-164.929	17.4014	0.018017	0.431221	-0.679206	-0.680585	-0.021067	25.7882	-0.678593	-9.976197E+8	2.111775E-11	NaN
258	1.000000	0.442573	7.36758e+06	-51539.1	955.819	-29752.2	0.000000	0.000000	6.442908	-0.041245	NaN	0.000000	0.001619	0.001605	28.0793	0.083336	0.002099	39.7007	-103.661	-168.441	-0.013022	0.441290	-0.669233	-0.670517	-0.041245	39.7007	-0.668454	-7.248176E+8	5.690394E-11	NaN
258	1.000000	0.452557	7.36758e+06	-51539.1	955.818	-29752.2	0.000000	0.000000	6.452896	0.027515	NaN	0.000000	0.001597	0.001614	28.0795	0.104645	0.002031	51.5222	178.341	15.5008	0.067236	0.451236	-0.659249	-0.660570	0.027515	51.5222	-0.659649	-5.491154E+8	-5.010835E-11	NaN
258	1.000000	0.462598	7.36758e+06	-51539.1	955.818	-29752.2	0.000000	0.000000	6.462934	-0.037620	NaN	0.000000	0.001608	0.001631	28.0807	0.045984	0.002090	22.0061	124.825	-166.15	-0.064693	0.461318	-0.649208	-0.650488	-0.037620	22.0061	-0.647926	-3.793122E+8	9.918054E-11	NaN
258	1.000000	0.472594	7.36758e+06	-51539.1	955.819	-29752.2	0.000000	0.000000	6.472931	-0.001890	NaN	0.000000	0.001652	0.001619	28.0808	0.024923	0.002012	12.3872	129.361	9.242100	0.043781	0.471244	-0.639212	-0.640562	-0.001890	12.3872	-0.639098	-2.870172E+8	6.583263E-12	NaN
258	1.000000	0.482611	7.36758e+06	-51539.1	955.818	-29752.2	0.000000	0.000000	6.482950	0.051061	NaN	0.000000	0.001634	0.001625	28.0807	0.110280	0.002059	53.5637	178.219	-165.966	0.061276	0.481262	-0.629195	-0.630544	0.051061	53.5637	-0.629910	-2.146769E+8	-2.378497E-10	NaN
258	1.000000	0.492614	7.36758e+06	-51539.1	955.818	-29752.2	0.000000	0.000000	6.492951	-0.003495	NaN	0.000000	0.001594	0.001662	28.0808	0.058110	0.001855	31.3185	-53.9461	12.572	-0.000487	0.491254	-0.619192	-0.620552	-0.003495	31.3185	-0.619108	-1.525379E+8	2.291166E-11	NaN
258	1.000000	0.502630	7.36758e+06	-51539.1	955.818	-29752.2	0.000000	0.000000	6.502968	0.018868	NaN	0.000000	0.001586	0.001644	28.0806	0.076602	0.001959	39.0939	151.703	-166.576	-0.029378	0.501270	-0.609176	-0.610536	0.018868	39.0939	-0.609538	-1.126562E+8	-1.674847E-10	NaN
258	1.000000	0.512616	7.36758e+06	-51539.1	955.818	-29752.2	0.000000	0.000000	6.512954	0.025564	NaN	0.000000	0.001597	0.001615	28.0806	0.050724	0.002040	24.8596	-123.063	14.8755	-0.013983	0.511250	-0.599190	-0.600557	0.025564	24.8596	-0.599961	-8.316257E+7	-3.074011E-10	NaN
258	1.000000	0.522645	7.36758e+06	-51539.1	955.818	-29752.2	0.000000	0.000000	6.522983	0.030802	NaN	0.000000	0.001620	0.001688	28.081	0.008792	0.002006	4.382245	107.017	-167.941	0.053100	0.521282	-0.589162	-0.590524	0.030802	4.382245	-0.594433	-6.978637E+7	-4.413723E-10	NaN
258	1.000000	0.532595	7.36758e+06	-51539.1	955.818	-29752.2	0.000000	0.000000	6.532931	-0.016800	NaN	0.000000	0.001580	0.001626	28.0807	0.150984	0.001979	76.299	-146.249	12.4376	-0.014102	0.531243	-0.579211	-0.580563	-0.016800	76.299	-0.579046	-4.281140E+7	3.924237E-10	NaN
258	1.000000	0.542631	7.36758e+06	-51539.1	955.818	-29752.2	0.000000	0.000000	6.542965	-0.055473	NaN	0.000000	0.001601	0.001698	28.0808	0.100494	0.002117	47.4789	-161.53	-167.962	-0.047112	0.541331	-0.569176	-0.570475	-0.055473	47.4789	-0.568299	-3.041795E+7	1.823707E-9	NaN
258	1.000000	0.552589	7.36758e+06	-51539.1	955.818	-29752.2	0.000000	0.000000	6.552925	-0.025044	NaN	0.000000	0.001605	0.001650	28.0808	0.069863	0.001912	36.5434	159.527	11.9607	-0.039548	0.551252	-0.559217	-0.560554	-0.025044	36.5434	-0.558703	-2.240997E+7	1.117518E-9	NaN
258	1.000000	0.562621	7.36758e+06	-51539.1	955.819	-29752.2	0.000000	0.000000	6.562959	0.008938	NaN	0.000000	0.001594	0.001654	28.0811	0.057247	0.002059	27.8057	167.676	-166.151	-0.034999	0.561334	-0.549185	-0.550472	0.008938	27.8057	-0.549426	-1.667255E+7	-5.360784E-10	NaN
258	1.000000	0.572600	7.36758e+06	-51539.1	955.818	-29752.2	0.000000	0.000000	6.572938	0.002534	NaN	0.000000	0.001643	0.001654	28.0808	0.090455	0.001954	46.2993	-138.065	12.5587	-0.037825	0.571219	-0.539206	-0.540587	0.002534	46.2993	-0.539247	-1.204786E+7	-2.103473E-10	NaN
258	1.000000	0.582642	7.36758e+06	-51539.1	955.818	-29752.2	0.000000	0.000000	6.582980	0.029027	NaN	0.000000	0.001600	0.001646	28.0808	0.085098	0.002038	41.7572	81.1274	-168.426	-0.004066	0.581289	-0.529164	-0.530517	0.029027	41.7572	-0.529685	-8.87576e+06	-3.270412E-9	NaN
258	1.000000	0.592662	7.36758e+06	-51539.1	955.819	-29752.2	0.000000	0.000000	6.592999	-0.004740	NaN	0.000000	0.001634	0.001612	28.0809	0.122704	0.002054	59.7366	-27.6216	15.5448	0.045199	0.591272	-0.519144	-0.520534	-0.004740	59.7366	-0.519085	-6.32222e+06	7.497196E-10	NaN
258	1.000000	0.602640	7.36758e+06	-51539.1	955.818	-29752.2	0.000000	0.000000	6.602976	-0.023976	NaN	0.000000	0.001598	0.001648	28.0797	0.078137	0.002062	37.8869	53.6086	-168.378	-0.052894	0.601374	-0.509167	-0.510432	-0.023976	37.8869	-0.508692	-4.53101e+06	5.291611E-9	NaN
258	1.000000	0.612671	7.36758e+06	-51539.1	955.819	-29752.2	0.000000	0.000000	6.613007	-0.015321	NaN	0.000000	0.001605	0.001602	28.0796	0.050985	0.001897	26.8771	-96.4375	14.4293	-0.049544	0.611334	-0.499136	-0.500473	-0.015321	26.8771	-0.498708	-3.28846e+06	4.658946E-9	NaN
258	1.000000	0.622644	7.36758e+06	-51539.1	955.818	-29752.2	0.000000	0.000000	6.622981	0.015410	NaN	0.000000	0.001596	0.001599	28.0799	0.093160	0.001933	48.2058	-112.013	-168.124	0.019360	0.621342	-0.489163	-0.490464	0.015410	48.2058	-0.489402	-2.43803e+06	-6.320753E-9	NaN
258	1.000000	0.632686	7.36758e+06	-51539.1	955.819	-29752.2	0.000000	0.000000	6.633022	-0.024742	NaN	0.000000	0.001548	0.001666	28.0799	0.085279	0.002032	41.9621	-21.8181	13.7964	-0.004555	0.631267	-0.479120	-0.480539	-0.024742	41.9621	-0.478677	-1.72588e+06	1.433570E-8	NaN
258	1.000000	0.642659	7.36758e+06	-51539.1	955.818	-29752.2	0.000000	0.000000	6.642994	-0.033542	NaN	0.000000	0.001588	0.001660	28.0799	0.088373	0.002148	41.1407	-117.998	-169.846	-0.028656	0.641335	-0.469147	-0.470471	-0.033542	41.1407	-0.468536	-1.24415e+06	2.695983E-8	NaN
258	1.000000	0.652658	7.36758e+06	-51539.1	955.818	-29752.2	0.000000	0.000000	6.652995	0.020082	NaN	0.000000	0.001576	0.001672	28.0797	0.035494	0.002084	17.0336	-159.792	11.2264	0.002774	0.651313	-0.459149	-0.460493	0.020082	17.0336	-0.460033	-945103	-2.124885E-8	NaN
258	1.000000	0.662671	7.36758e+06	-51539.1	955.819	-29752.2	0.000000	0.000000	6.663008	0.005473	NaN	0.000000	0.001635	0.001647	28.0797	0.122392	0.001854	66.0166	-33.328	-166.685	-0.005241	0.661344	-0.449135	-0.450462	0.005473	66.0166	-0.449197	-665329	-8.225562E-9	NaN
258	1.000000	0.672689	7.36758e+06	-51539.1	955.819	-29752.2	0.000000	0.000000	6.673026	0.014343	NaN	0.000000	0.001642	0.001626	28.08	0.067142	0.001957	34.3046	-155.141	13.9258	-0.066778	0.671336	-0.439118	-0.440470	0.014343	34.3046	-0.439431	-484545	-2.960093E-8	NaN
258	1.000000	0.682690	7.36758e+06	-51539.1	955.818	-29752.2	0.000000	0.000000	6.683030	0.063588	NaN	0.000000	0.001629	0.001598	28.0798	0.039104	0.002129	18.3699	-47.3873	-164.667	0.014113	0.681382	-0.429116	-0.430424	0.063588	18.3699	-0.431712	-376949	-1.686920E-7	NaN
258	1.000000	0.692672	7.36758e+06	-51539.1	955.817	-29752.2	0.000000	0.000000	6.693012	0.070458	NaN	0.000000	0.001620	0.001606	28.0795	0.095491	0.002134	44.754	-161.905	14.1476	0.044895	0.691344	-0.419134	-0.420462	0.070458	44.754	-0.420315	-259947	-2.710476E-7	NaN
258	1.000000	0.702689	7.36758e+06	-51539.1	955.818	-29752.2	0.000000	0.000000	6.703026	0.005514	NaN	0.000000	0.001595	0.001582	28.0796	0.042918	0.001921	22.3465	51.1096	-161.608	0.012275	0.701352	-0.409117	-0.410454	0.005514	22.3465	-0.409302	-181332	-3.040998E-8	NaN
258	1.000000	0.712685	7.36758e+06	-51539.1	955.819	-29752.2	0.000000	0.000000	6.713022	-0.002735	NaN	0.000000	0.001601	0.001605	28.0797	0.083021	0.001975	42.0399	-25.3205	13.6564	0.056291	0.711356	-0.399121	-0.400450	-0.002735	42.0399	-0.399072	-129647	2.109857E-8	NaN
258	1.000000	0.722710	7.36758e+06	-51539.1	955.818	-29752.2	0.000000	0.000000	6.723047	0.001669	NaN	0.000000	0.001574	0.001572	28.0796	0.063395	0.001993	31.808	-120.241	-168.03	-0.014578	0.721330	-0.389097	-0.390476	0.001669	31.808	-0.389136	-93498.7	-1.784902E-8	NaN
258	1.000000	0.732708	7.36758e+06	-51539.1	955.819	-29752.2	0.000000	0.000000	6.733042	-0.080493	NaN	0.000000	0.001584	0.001605	28.0802	0.042331	0.001944	21.7714	19.7488	16.8268	-0.096975	0.731378	-0.379098	-0.380429	-0.080493	21.7714	-0.376325	-61251.2	1.314151E-6	NaN
258	1.000000	0.742707	7.36758e+06	-51539.1	955.818	-29752.2	0.000000	0.000000	6.743043	-0.035394	NaN	0.000000	0.001539	0.001607	28.0808	0.040161	0.001920	20.9189	-156.602	-164.884	0.029451	0.741357	-0.369099	-0.370449	-0.035394	20.9189	-0.367830	-46223.4	7.657163E-7	NaN
258	1.000000	0.752702	7.36758e+06	-51539.1	955.818	-29752.2	0.000000	0.000000	6.753040	0.015702	NaN	0.000000	0.001626	0.001646	28.0809	0.159866	0.001893	84.4522	-159.041	13.3101	0.013912	0.751336	-0.359104	-0.360470	0.015702	84.4522	-0.359243	-34745.8	-4.519122E-7	NaN
258	1.000000	0.762719	7.36758e+06	-51539.1	955.819	-29752.2	0.000000	0.000000	6.763056	0.009197	NaN	0.000000	0.001635	0.001628	28.0807	0.068987	0.002109	32.7066	-79.585	-166.447	0.000354	0.761407	-0.349087	-0.350399	0.009197	32.7066	-0.349298	-24935.5	-3.688240E-7	NaN
258	1.000000	0.772741	7.36758e+06	-51539.1	955.819	-29752.2	0.000000	0.000000	6.773077	-0.014541	NaN	0.000000	0.001622	0.001649	28.0809	0.052758	0.002126	24.8195	141.217	18.1065	-0.003427	0.771385	-0.339065	-0.340421	-0.014541	24.8195	-0.338626	-17438.8	8.338301E-7	NaN
258	1.000000	0.782726	7.36758e+06	-51539.1	955.819	-29752.2	0.000000	0.000000	6.783062	-0.033245	NaN	0.000000	0.001583	0.001632	28.0809	0.058782	0.002073	28.3542	-130.178	-163.496	-0.005392	0.781413	-0.329080	-0.330394	-0.033245	28.3542	-0.328201	-12277	2.707936E-6	NaN
258	1.000000	0.792745	7.36758e+06	-51539.1	955.818	-29752.2	0.000000	0.000000	6.793079	-0.067885	NaN	0.000000	0.001659	0.001630	28.0807	0.042720	0.002116	20.1896	-88.3783	15.7906	0.014368	0.791367	-0.319061	-0.320439	-0.067885	20.1896	-0.316540	-8272.94	8.205616E-6	NaN
258	1.000000	0.802722	7.36758e+06	-51539.1	955.818	-29752.2	0.000000	0.000000	6.803059	0.014679	NaN	0.000000	0.001650	0.001648	28.0807	0.034170	0.001824	18.7302	136.465	-163.968	0.092133	0.801356	-0.309084	-0.310450	0.014679	18.7302	-0.309672	-6549.41	-2.241243E-6	NaN
258	1.000000	0.812751	7.36758e+06	-51539.1	955.818	-29752.2	0.000000	0.000000	6.813089	0.030901	NaN	0.000000	0.001654	0.001599	28.0808	0.024843	0.001959	12.6803	149.458	15.6474	0.028892	0.811376	-0.299055	-0.300430	0.030901	12.6803	-0.300883	-4850.34	-6.370893E-6	NaN
258	1.000000	0.822733	7.36758e+06	-51539.1	955.818	-29752.2	0.000000	0.000000	6.823071	0.033595	NaN	0.000000	0.001656	0.001652	28.081	0.038396	0.001949	19.7023	59.5531	-163.945	0.006883	0.821380	-0.289073	-0.290426	0.033595	19.7023	-0.290352	-3377.36	-9.947109E-6	NaN
258	1.000000	0.832751	7.36758e+06	-51539.1	955.818	-29752.2	0.000000	0.000000	6.833088	0.008072	NaN	0.000000	0.001662	0.001621	28.0808	0.060848	0.002104	28.9175	-135.266	12.2179	-0.002530	0.831369	-0.279056	-0.280438	0.008072	28.9175	-0.279265	-2300.8	-3.508429E-6	NaN
258	1.000000	0.842734	7.36758e+06	-51539.1	955.817	-29752.2	0.000000	0.000000	6.843072	0.024983	NaN	0.000000	0.001654	0.001640	28.0807	0.084164	0.001967	42.7967	165.244	-171.064	0.015671	0.841425	-0.269072	-0.270381	0.024983	42.7967	-0.269510	-1637.15	-1.526026E-5	NaN
258	1.000000	0.852767	7.36758e+06	-51539.1	955.819	-29752.2	0.000000	0.000000	6.853103	-0.012277	NaN	0.000000	0.001641	0.001656	28.0809	0.114555	0.001957	58.5496	-30.069	13.6035	-0.028177	0.851348	-0.259039	-0.260458	-0.012277	58.5496	-0.258882	-1126.61	1.089777E-5	NaN
258	1.000000	0.862750	7.36758e+06	-51539.1	955.818	-29752.2	0.000000	0.000000	6.863087	-0.007173	NaN	0.000000	0.001645	0.001684	28.081	0.070787	0.002090	33.8732	16.4485	-167.981	0.076099	0.861435	-0.249056	-0.250372	-0.007173	33.8732	-0.248897	-790.496	9.073578E-6	NaN
258	1.000000	0.872765	7.36758e+06	-51539.1	955.818	-29752.2	0.000000	0.000000	6.873101	-0.030762	NaN	0.000000	0.001668	0.001636	28.0799	0.050769	0.001984	25.5899	46.6792	13.4841	-0.055374	0.871404	-0.239041	-0.240402	-0.030762	25.5899	-0.238139	-537.604	5.722061E-5	NaN
258	1.000000	0.882779	7.36758e+06	-51539.1	955.818	-29752.2	0.000000	0.000000	6.883113	-0.060352	NaN	0.000000	0.001612	0.001642	28.0798	0.099707	0.002041	48.8467	-153.09	-163.006	-0.067941	0.881423	-0.229027	-0.230383	-0.060352	48.8467	-0.228101	-373.673	0.000162	NaN
258	1.000000	0.892770	7.36758e+06	-51539.1	955.819	-29752.2	0.000000	0.000000	6.893108	0.031542	NaN	0.000000	0.001605	0.001646	28.0798	0.021305	0.002013	10.5837	-149.301	11.7872	0.028240	0.891373	-0.219037	-0.220433	0.031542	10.5837	-0.221272	-291.061	-0.000108	NaN
258	1.000000	0.902757	7.36758e+06	-51539.1	955.818	-29752.2	0.000000	0.000000	6.903095	0.034813	NaN	0.000000	0.001578	0.001635	28.0799	0.068813	0.001877	36.6682	-154.252	-170.109	0.026421	0.901484	-0.209049	-0.210322	0.034813	36.6682	-0.209761	-190.087	-0.000183	NaN
258	1.000000	0.912785	7.36758e+06	-51539.1	955.817	-29752.2	0.000000	0.000000	6.913123	0.021015	NaN	0.000000	0.001572	0.001621	28.0799	0.129462	0.001937	66.8379	165.867	11.0414	0.122474	0.911472	-0.199021	-0.200335	0.021015	66.8379	-0.199257	-128.081	-0.000164	NaN
258	1.000000	0.922805	7.36758e+06	-51539.1	955.819	-29752.2	0.000000	0.000000	6.923141	-0.027726	NaN	0.000000	0.001578	0.001649	28.0798	0.026264	0.001997	13.1509	134.735	-166.636	-0.012659	0.921457	-0.189001	-0.190349	-0.027726	13.1509	-0.187420	-81.4378	0.000340	NaN
258	1.000000	0.932787	7.36758e+06	-51539.1	955.819	-29752.2	0.000000	0.000000	6.933126	0.045495	NaN	0.000000	0.001581	0.001638	28.0799	0.020408	0.002049	9.959529	-162.707	11.9253	0.073038	0.931431	-0.179019	-0.180375	0.045495	9.959529	-0.182445	-67.1382	-0.000678	NaN
258	1.000000	0.942769	7.36758e+06	-51539.1	955.819	-29752.2	0.000000	0.000000	6.943106	-0.013727	NaN	0.000000	0.001588	0.001653	28.0796	0.173128	0.002063	83.9386	66.4924	-167.558	0.006620	0.941539	-0.169037	-0.170267	-0.013727	83.9386	-0.168914	-39.3309	0.000349	NaN
258	1.000000	0.952766	7.36758e+06	-51539.1	955.817	-29752.2	0.000000	0.000000	6.953103	0.001683	NaN	0.000000	0.001563	0.001669	28.0797	0.043090	0.002016	21.3739	-116.502	12.8552	0.025364	0.951406	-0.159040	-0.160400	0.001683	21.3739	-0.159099	-26.4219	-6.368032E-5	NaN
258	1.000000	0.962785	7.36758e+06	-51539.1	955.82	-29752.2	0.000000	0.000000	6.963123	0.029792	NaN	0.000000	0.001593	0.001652	28.0795	0.067987	0.002049	33.1779	-70.1721	-164.42	-0.025483	0.961463	-0.149021	-0.150344	0.029792	33.1779	-0.149695	-17.8829	-0.001666	NaN
258	1.000000	0.972780	7.36758e+06	-51539.1	955.82	-29752.2	0.000000	0.000000	6.973113	-0.091060	NaN	0.000000	0.001565	0.001668	28.0796	0.036396	0.001978	18.398	5.783894	12.6732	-0.082510	0.971458	-0.139026	-0.140348	-0.091060	18.398	-0.135314	-9.644597	0.009442	NaN
258	1.000000	0.982776	7.36758e+06	-51539.1	955.818	-29752.2	0.000000	0.000000	6.983111	-0.056774	NaN	0.000000	0.001562	0.001660	28.0793	0.092812	0.002125	43.6783	83.3752	-163.889	-0.030173	0.981488	-0.129030	-0.130318	-0.056774	43.6783	-0.128055	-6.983904	0.008129	NaN
258	1.000000	0.992810	7.36758e+06	-51539.1	955.82	-29752.2	0.000000	0.000000	6.993147	0.010102	NaN	0.000000	0.001544	0.001683	28.0795	0.040682	0.002018	20.1604	106.83	12.139	0.088343	0.991424	-0.118997	-0.120383	0.010102	20.1604	-0.119372	-4.692435	-0.002153	NaN
258	1.000000	1.002837	7.36758e+06	-51539.1	955.819	-29752.2	0.000000	0.000000	7.003172	-0.056924	NaN	0.000000	0.001587	0.001693	28.0792	0.049392	0.001983	24.9108	94.5583	-162.604	-0.126347	1.001533	-0.108969	-0.110273	-0.056924	24.9108	-0.107255	-2.627915	0.021661	NaN
258	1.000000	1.012820	7.36758e+06	-51539.1	955.819	-29752.2	0.000000	0.000000	7.013156	-0.022935	NaN	0.000000	0.001571	0.001676	28.0809	0.136193	0.001966	69.2658	94.2088	11.6983	0.002009	1.011476	-0.098986	-0.100330	-0.022935	69.2658	-0.098738	-1.712747	0.013391	NaN
258	1.000000	1.022816	7.36758e+06	-51539.1	955.819	-29752.2	0.000000	0.000000	7.023153	0.005841	NaN	0.000000	0.001582	0.001667	28.0805	0.081900	0.001967	41.6422	66.2153	-167.331	0.007624	1.021531	-0.088990	-0.090275	0.005841	41.6422	-0.089095	-1.029286	-0.005675	NaN
258	1.000000	1.032811	7.36758e+06	-51539.1	955.818	-29752.2	0.000000	0.000000	7.033146	-0.039270	NaN	0.000000	0.001606	0.001648	28.0805	0.034513	0.002013	17.1427	107.357	11.0096	0.011820	1.031491	-0.078995	-0.080315	-0.039270	17.1427	-0.077277	-0.528408	0.074317	NaN
258	1.000000	1.042853	7.36758e+06	-51539.1	955.819	-29752.2	0.000000	0.000000	7.043190	-0.011580	NaN	0.000000	0.001578	0.001693	28.0806	0.060193	0.002122	28.3635	-71.811	-168.414	0.012553	1.041510	-0.068953	-0.070296	-0.011580	28.3635	-0.068647	-0.313663	0.036917	NaN
258	1.000000	1.052811	7.36758e+06	-51539.1	955.819	-29752.2	0.000000	0.000000	7.053148	-0.013607	NaN	0.000000	0.001597	0.001666	28.0805	0.088023	0.001938	45.4082	-117.279	15.5703	0.010445	1.051474	-0.058995	-0.060332	-0.013607	45.4082	-0.058770	-0.165990	0.081975	NaN
258	1.000000	1.062867	7.36758e+06	-51539.1	955.819	-29752.2	0.000000	0.000000	7.063203	-0.036973	NaN	0.000000	0.001617	0.001674	28.0805	0.126643	0.001969	64.3119	147.863	-166.967	0.036003	1.061515	-0.048939	-0.050291	-0.036973	64.3119	-0.048508	-0.082224	0.449665	NaN
258	1.000000	1.072861	7.36758e+06	-51539.1	955.818	-29752.2	0.000000	0.000000	7.073196	-0.038131	NaN	0.000000	0.001575	0.001674	28.0805	0.070890	0.001895	37.3998	-49.7774	15.8863	0.003787	1.071430	-0.038945	-0.040377	-0.038131	37.3998	-0.038181	-0.039839	0.957124	NaN
258	1.000000	1.082813	7.36758e+06	-51539.1	955.819	-29752.2	0.000000	0.000000	7.083148	-0.053503	NaN	0.000000	0.001568	0.001697	28.0808	0.095125	0.002024	47.0077	19.153	-170.602	-0.035305	1.081539	-0.028993	-0.030267	-0.053503	47.0077	-0.028140	-0.020453	2.615860	NaN
258	1.000000	1.092834	7.36758e+06	-51539.1	955.819	-29752.2	0.000000	0.000000	7.093170	-0.018041	NaN	0.000000	0.001576	0.001696	28.0806	0.072492	0.002011	36.0545	-154.799	12.5688	0.005047	1.091474	-0.018972	-0.020332	-0.018041	36.0545	-0.018597	-0.011566	1.559872	NaN
258	1.000000	1.102842	7.36758e+06	-51539.1	955.819	-29752.2	0.000000	0.000000	7.103176	-0.074426	NaN	0.000000	0.001595	0.001662	28.0807	0.076631	0.001910	40.1104	95.6424	-168.634	-0.062008	1.101527	-0.008964	-0.010279	-0.074426	40.1104	-0.007573	-0.004980	14.9438	NaN
258	1.000000	1.112857	7.36758e+06	-51539.1	955.819	-29752.2	0.000000	0.000000	7.113197	0.084589	NaN	0.000000	0.001597	0.001660	28.0807	0.236802	0.002157	109.799	33.7841	14.8675	0.030878	1.111503	0.001051	-0.000303	0.084589	109.799	0.000473	0.000357	237.095	5310.96
258	1.000000	1.122734	7.36758e+06	-51539.1	955.819	-29752.2	0.000000	0.000000	7.123400	8.002083	NaN	0.000000	0.001563	0.001660	28.0811	7.468236	0.001593	4689.18	10.6819	-174.171	6.543868	1.121509	0.010928	0.009703	8.002083	4689.18	0.009648	0.008793	910.088	45688.9
258	2.000000	1.125966	7.36758e+06	-51539.1	955.819	-29752.2	0.000000	0.000000	7.126833	12.8952	NaN	0.000000	0.001605	0.001638	28.0818	10.9777	0.001563	7023.87	7.585120	3.998892	12.066	1.125581	0.014160	0.013775	12.8952	7023.87	0.012783	0.012441	1036.48	57532.9
258	2.000000	1.128414	7.36758e+06	-51539.1	955.818	-29752.2	0.000000	0.000000	7.129448	16.9557	NaN	0.000000	0.001607	0.001604	28.0804	14.0778	0.001628	8647.98	5.366507	-177.293	16.2652	1.128115	0.016608	0.016309	16.9557	8647.98	0.015137	0.015469	1096.1	63526.5
258	2.000000	1.130879	7.36758e+06	-51539.1	955.82	-29752.2	0.000000	0.000000	7.132139	22.4454	NaN	0.000000	0.001607	0.001645	28.0795	17.1892	0.001772	9699.46	5.462960	3.036440	21.4694	1.130581	0.019073	0.018775	22.4454	9699.46	0.017337	0.018529	1211.35	65101.5
258	2.000000	1.133430	7.36758e+06	-51539.1	955.818	-29752.2	0.000000	0.000000	7.134818	25.5585	NaN	0.000000	0.001623	0.001653	28.0805	19.9852	0.001817	10996.5	5.171267	-177.214	27.7078	1.133154	0.021624	0.021348	25.5585	10996.5	0.019881	0.022356	1143.27	67195
258	2.000000	1.135867	7.36758e+06	-51539.1	955.819	-29752.2	0.000000	0.000000	7.137580	33.466	NaN	0.000000	0.001645	0.001635	28.0796	21.2831	0.001669	12750.2	1.908124	4.167454	31.2394	1.135514	0.024061	0.023708	33.466	12750.2	0.022092	0.025937	1290.28	72331.9
258	2.000000	1.138334	7.36758e+06	-51539.1	955.819	-29752.2	0.000000	0.000000	7.140311	39.8865	NaN	0.000000	0.001695	0.001620	28.0801	23.6352	0.001760	13432.7	2.801692	-176.88	38.1246	1.138129	0.026528	0.026323	39.8865	13432.7	0.024301	0.029756	1340.45	71145.9
258	2.000000	1.140836	7.36758e+06	-51539.1	955.819	-29752.2	0.000000	0.000000	7.143104	46.9695	NaN	0.000000	0.001677	0.001645	28.0796	26.3918	0.001723	15321.8	4.175521	0.239086	44.979	1.140456	0.029029	0.028649	46.9695	15321.8	0.026730	0.034239	1371.82	75652.5
258	2.000000	1.143348	7.36758e+06	-51539.1	955.819	-29752.2	0.000000	0.000000	7.145851	52.668	NaN	0.000000	0.001692	0.001644	28.0803	29.9257	0.001786	16753.1	6.484626	177.083	50.8372	1.142953	0.031542	0.031147	52.668	16753.1	0.029184	0.039070	1348.05	77436.8
258	2.000000	1.145906	7.36758e+06	-51539.1	955.82	-29752.2	0.000000	0.000000	7.148705	59.8555	NaN	0.000000	0.001648	0.001661	28.0793	31.2091	0.001793	17402.9	3.230214	1.600407	60.9083	1.145503	0.034100	0.033697	59.8555	17402.9	0.031520	0.043954	1361.77	75839.3
258	2.000000	1.148322	7.36758e+06	-51539.1	955.819	-29752.2	0.000000	0.000000	7.151509	69.284	NaN	0.000000	0.001696	0.001645	28.0799	33.511	0.001729	19376.3	3.170655	179.716	69.1905	1.147996	0.036516	0.036190	69.284	19376.3	0.033835	0.049067	1412.03	79919.1
258	2.000000	1.150860	7.36758e+06	-51539.1	955.82	-29752.2	0.000000	0.000000	7.154228	73.6944	NaN	0.000000	0.001693	0.001683	28.0798	36.8767	0.001788	20623.1	3.435197	-0.831087	73.8055	1.150498	0.039054	0.038692	73.6944	20623.1	0.036374	0.054994	1340.05	80347.4
258	2.000000	1.153301	7.36758e+06	-51539.1	955.818	-29752.2	0.000000	0.000000	7.156975	81.1574	NaN	0.000000	0.001726	0.001637	28.0799	39.5713	0.001879	21058	1.316468	-179.583	78.8122	1.153086	0.041495	0.041280	81.1574	21058	0.038604	0.060471	1342.1	78238
258	2.000000	1.155856	7.36758e+06	-51539.1	955.819	-29752.2	0.000000	0.000000	7.160112	95.2761	NaN	0.000000	0.001674	0.001637	28.0796	40.9038	0.001758	23270.3	2.338378	-0.904051	94.4291	1.155382	0.044050	0.043576	95.2761	23270.3	0.040979	0.066584	1430.92	82393
258	2.000000	1.158297	7.36758e+06	-51539.1	955.819	-29752.2	0.000000	0.000000	7.162823	101.861	NaN	0.000000	0.001683	0.001613	28.0798	42.6134	0.001750	24347.9	2.943915	177.682	99.5598	1.158030	0.046491	0.046224	101.861	24347.9	0.043353	0.072982	1395.71	82343.3
258	2.000000	1.160753	7.36758e+06	-51539.1	955.819	-29752.2	0.000000	0.000000	7.165863	116.057	NaN	0.000000	0.001690	0.001640	28.0797	46.1927	0.001843	25061.9	6.423655	-4.928256	111.424	1.160420	0.048947	0.048614	116.057	25061.9	0.045474	0.078939	1470.21	81497
258	2.000000	1.163299	7.36758e+06	-51539.1	955.819	-29752.2	0.000000	0.000000	7.168885	127.643	NaN	0.000000	0.001674	0.001657	28.0811	48.9334	0.001824	26820.9	6.057455	173.868	125.41	1.163080	0.051493	0.051274	127.643	26820.9	0.047924	0.086103	1482.44	83509.7
258	2.000000	1.165803	7.36758e+06	-51539.1	955.819	-29752.2	0.000000	0.000000	7.171862	139.127	NaN	0.000000	0.001663	0.001653	28.0807	50.3156	0.001821	27628.1	5.740117	-5.275108	137.567	1.165420	0.053997	0.053614	139.127	27628.1	0.050221	0.093096	1494.44	82729
258	2.000000	1.168299	7.36758e+06	-51539.1	955.819	-29752.2	0.000000	0.000000	7.174949	153.516	NaN	0.000000	0.001674	0.001625	28.0814	53.1582	0.001849	28745.3	7.174855	172.789	152.409	1.167919	0.056493	0.056113	153.516	28745.3	0.052488	0.100257	1531.23	82943.7
258	2.000000	1.170797	7.36758e+06	-51539.1	955.819	-29752.2	0.000000	0.000000	7.177725	160.267	NaN	0.000000	0.001680	0.001632	28.081	55.011	0.001813	30345.6	2.220618	-3.062866	158.147	1.170559	0.058991	0.058752	160.267	30345.6	0.055030	0.108591	1475.88	84134
258	2.000000	1.173311	7.36758e+06	-51539.1	955.819	-29752.2	0.000000	0.000000	7.180849	175.08	NaN	0.000000	0.001642	0.001625	28.0813	57.8312	0.001757	32923.6	3.985069	173.887	173.432	1.173043	0.061505	0.061237	175.08	32923.6	0.057517	0.117055	1495.7	87919.5
258	2.000000	1.175861	7.36758e+06	-51539.1	955.819	-29752.2	0.000000	0.000000	7.183696	182.331	NaN	0.000000	0.001637	0.001612	28.0808	60.3032	0.001784	33795.1	5.642661	-7.528430	182.748	1.175623	0.064055	0.063816	182.331	33795.1	0.060008	0.125839	1448.93	87040.1
258	2.000000	1.178364	7.36758e+06	-51539.1	955.819	-29752.2	0.000000	0.000000	7.186882	198.928	NaN	0.000000	0.001649	0.001654	28.081	62.0432	0.001752	35402.8	5.110430	172.948	203.108	1.178001	0.066558	0.066194	198.928	35402.8	0.062344	0.134348	1480.7	88246.1
258	2.000000	1.180810	7.36758e+06	-51539.1	955.819	-29752.2	0.000000	0.000000	7.189981	214.797	NaN	0.000000	0.001597	0.001660	28.081	63.8519	0.001780	35878.1	2.177101	-4.200505	213.476	1.180449	0.069004	0.068642	214.797	35878.1	0.064514	0.142490	1507.46	86838.2
258	2.000000	1.183261	7.36758e+06	-51539.1	955.819	-29752.2	0.000000	0.000000	7.193119	231.517	NaN	0.000000	0.001546	0.001657	28.081	67.7605	0.001800	37648.5	7.432047	170.216	228.582	1.182939	0.071455	0.071133	231.517	37648.5	0.066843	0.151481	1528.35	88377.5
258	2.000000	1.185699	7.36758e+06	-51539.1	955.819	-29752.2	0.000000	0.000000	7.196405	252.133	NaN	0.000000	0.001580	0.001631	28.0806	68.3464	0.001727	39576.5	3.814120	-6.470936	244.767	1.185344	0.073893	0.073538	252.133	39576.5	0.069115	0.160507	1570.85	90253.2
258	2.000000	1.188310	7.36758e+06	-51539.1	955.82	-29752.2	0.000000	0.000000	7.199535	264.756	NaN	0.000000	0.001587	0.001651	28.0808	70.3765	0.001819	38698.7	4.362843	172.834	265.854	1.188022	0.076503	0.076216	264.756	38698.7	0.071372	0.169715	1560	85824.1
258	2.000000	1.190799	7.36758e+06	-51539.1	955.819	-29752.2	0.000000	0.000000	7.202825	284.243	NaN	0.000000	0.001649	0.001619	28.0809	73.5449	0.001720	42769.9	8.318235	-11.2026	283.288	1.190377	0.078992	0.078571	284.243	42769.9	0.074008	0.180773	1572.38	91906.1
258	2.000000	1.193396	7.36758e+06	-51539.1	955.819	-29752.2	0.000000	0.000000	7.206018	298.715	NaN	0.000000	0.001670	0.001664	28.0809	76.3953	0.001609	47484.8	2.145024	173.748	305.428	1.193009	0.081590	0.081203	298.715	47484.8	0.076872	0.193160	1546.46	98711.7
258	2.000000	1.195789	7.36758e+06	-51539.1	955.819	-29752.2	0.000000	0.000000	7.209205	318.028	NaN	0.000000	0.001695	0.001619	28.0808	78.8909	0.001665	47394.6	9.850125	-14.1834	316.774	1.195395	0.083983	0.083588	318.028	47394.6	0.078950	0.202390	1571.36	96251.6
258	2.000000	1.198219	7.36758e+06	-51539.1	955.819	-29752.2	0.000000	0.000000	7.212435	337.474	NaN	0.000000	0.001672	0.001624	28.0797	80.5611	0.001764	45678.7	6.438850	169.958	333.757	1.197917	0.086413	0.086110	337.474	45678.7	0.080872	0.211104	1598.61	90831.9
258	2.000000	1.200721	7.36758e+06	-51539.1	955.817	-29752.2	0.000000	0.000000	7.215747	357.167	NaN	0.000000	0.001634	0.001640	28.0795	84.3495	0.001837	45917.9	2.654593	-6.662278	352.04	1.200414	0.088915	0.088607	357.167	45917.9	0.083081	0.221335	1613.7	89172.4
258	2.000000	1.203304	7.36758e+06	-51539.1	955.819	-29752.2	0.000000	0.000000	7.218909	371.256	NaN	0.000000	0.001660	0.001621	28.0796	87.9577	0.001839	47831.6	6.186049	169.633	370.883	1.203048	0.091498	0.091242	371.256	47831.6	0.085677	0.233640	1589.01	90409.6
258	2.000000	1.205734	7.36758e+06	-51539.1	955.818	-29752.2	0.000000	0.000000	7.222328	395.32	NaN	0.000000	0.001623	0.001638	28.0797	87.8118	0.001674	52467	2.414452	-6.365389	389.595	1.205388	0.093927	0.093581	395.32	52467	0.088276	0.246279	1605.17	96592.9
258	2.000000	1.208337	7.36758e+06	-51539.1	955.819	-29752.2	0.000000	0.000000	7.225466	408.32	NaN	0.000000	0.001673	0.001666	28.0798	91.1875	0.001700	53630.8	3.095634	172.031	409.939	1.207967	0.096531	0.096160	408.32	53630.8	0.090821	0.258949	1576.84	96289.9
258	2.000000	1.210641	7.36758e+06	-51539.1	955.82	-29752.2	0.000000	0.000000	7.228917	436.209	NaN	0.000000	0.001587	0.001636	28.0797	94.3932	0.001670	56508.3	4.652460	-9.758787	427.236	1.210308	0.098835	0.098502	436.209	56508.3	0.093046	0.270272	1613.96	99308.3
258	2.000000	1.213161	7.36758e+06	-51539.1	955.819	-29752.2	0.000000	0.000000	7.231986	449.561	NaN	0.000000	0.001596	0.001642	28.0797	98.0477	0.001774	55255.6	5.732234	169.501	444.031	1.212838	0.101354	0.101032	449.561	55255.6	0.095252	0.281726	1595.74	95112.2
258	2.000000	1.215799	7.36758e+06	-51539.1	955.82	-29752.2	0.000000	0.000000	7.235722	476.26	NaN	0.000000	0.001563	0.001620	28.0796	99.977	0.001901	52604.9	5.119054	-8.768851	474.068	1.215364	0.103993	0.103558	476.26	52604.9	0.097202	0.292031	1630.85	88937.5
258	2.000000	1.218168	7.36758e+06	-51539.1	955.82	-29752.2	0.000000	0.000000	7.238965	497.508	NaN	0.000000	0.001583	0.001616	28.0795	101.458	0.001734	58509.7	6.135933	168.756	494.317	1.217861	0.106362	0.106055	497.508	58509.7	0.099985	0.307037	1620.35	96473
258	2.000000	1.220699	7.36758e+06	-51539.1	955.82	-29752.2	0.000000	0.000000	7.242122	512.713	NaN	0.000000	0.001570	0.001648	28.0795	103.561	0.001741	59476.8	3.374441	-8.965762	508.344	1.220433	0.108893	0.108627	512.713	59476.8	0.102428	0.320502	1599.72	95985.4
258	2.000000	1.222189	7.36758e+06	-51539.1	955.82	-29752.2	0.000000	0.000000	7.244190	526.789	NaN	0.000000	0.001596	0.001665	28.0798	104.597	0.001738	60180.5	4.305177	170.286	523.292	1.221924	0.110382	0.110118	526.789	60180.5	0.103817	0.328281	1604.69	95963.6