File: remote_trans/data/nanoindenter/0828-1/data/Data_2025-08-06,11h17m57s/2025-07-22_16-23-58_1_157.txt
2025-07-22, 16:23:58, 1
Index	Phase	Displacement	Time	Pos X	Pos Y	Pos Z	Rot A	Rot B	Piezo Z	Force A	Force B	Gripper	Voltage A	Voltage B	Temperature	Amplitude force	Amplitude pos	Stiffness	Phase shift	Phase excitation	Force A raw	Displacement raw	HMax	HMax raw	Real Force	Real Stiffness	Contact Depth	Area	Hardness	Reduced Mod.
[#]	[#]	[um]	[s]	[um]	[um]	[um]	[m°]	[m°]	[um]	[uN]	[uN]	[V]	[V]	[V]	[°C]	[uN]	[um]	[N/m]	[°]	[°]	[uN]	[um]	[um]	[um]	[uN]	[N/m]	[um]	[um^2]	[MPa]	[MPa]
157	1.000000	0.002767	7.36658e+06	-46489.1	955.818	-29769.4	0.000000	0.000000	6.002801	-0.048155	NaN	0.000000	0.001608	0.001686	28.13	0.081046	0.000853	95.053	1.816624	-168.689	0.049751	0.001527	-1.119874	-1.121113	-0.048155	95.053	-1.119494	-9.155526E+14	5.259687E-17	NaN
157	1.000000	0.012845	7.36658e+06	-46489.1	955.819	-29769.4	0.000000	0.000000	6.012882	0.013487	NaN	0.000000	0.001586	0.001660	28.0973	0.189390	0.001216	155.805	137.939	13.276	-0.006745	0.011358	-1.109795	-1.111283	0.013487	155.805	-1.109860	-6.798478E+14	-1.983757E-17	NaN
157	1.000000	0.022743	7.36658e+06	-46489.1	955.819	-29769.4	0.000000	0.000000	6.022779	-0.009214	NaN	0.000000	0.001602	0.001714	28.0789	0.069674	0.001704	40.8863	-138.151	-167.568	0.057356	0.021438	-1.099898	-1.101202	-0.009214	40.8863	-1.099728	-4.970764E+14	1.853586E-17	NaN
157	1.000000	0.032699	7.36658e+06	-46489.1	955.819	-29769.4	0.000000	0.000000	6.032735	-0.006080	NaN	0.000000	0.001600	0.001690	28.0962	0.039024	0.001959	19.9204	-70.0502	16.5354	-0.006620	0.031356	-1.089942	-1.091285	-0.006080	19.9204	-1.089713	-3.647156E+14	1.667056E-17	NaN
157	1.000000	0.042689	7.36658e+06	-46489.1	955.819	-29769.4	0.000000	0.000000	6.042725	0.006657	NaN	0.000000	0.001606	0.001679	28.1277	0.089160	0.001898	46.9686	-95.7583	-163.814	-0.001950	0.041454	-1.079952	-1.081186	0.006657	46.9686	-1.080058	-2.705858E+14	-2.460318E-17	NaN
157	1.000000	0.052716	7.36658e+06	-46489.1	955.818	-29769.4	0.000000	0.000000	6.052752	-0.002560	NaN	0.000000	0.001627	0.001681	28.0946	0.056866	0.001962	28.98	98.2522	11.6982	-0.128542	0.051342	-1.069925	-1.071299	-0.002560	28.98	-1.069859	-1.973747E+14	1.297265E-17	NaN
157	1.000000	0.062706	7.36658e+06	-46489.1	955.818	-29769.4	0.000000	0.000000	6.062741	-0.032396	NaN	0.000000	0.001622	0.001724	28.077	0.052177	0.002039	25.5863	81.5219	-164.817	-0.037827	0.061361	-1.059935	-1.061279	-0.032396	25.5863	-1.058985	-1.409870E+14	2.297798E-16	NaN
157	1.000000	0.072757	7.36658e+06	-46489.1	955.819	-29769.4	0.000000	0.000000	6.072790	-0.079605	NaN	0.000000	0.001605	0.001735	28.0941	0.074903	0.002015	37.1707	-41.0184	15.5748	-0.123584	0.071375	-1.049883	-1.051265	-0.079605	37.1707	-1.048277	-1.012173E+14	7.864762E-16	NaN
157	1.000000	0.082731	7.36658e+06	-46489.1	955.818	-29769.4	0.000000	0.000000	6.082766	-0.022476	NaN	0.000000	0.001613	0.001725	28.1286	0.044010	0.001909	23.0574	-139.49	-164.257	-0.087102	0.081448	-1.039910	-1.041193	-0.022476	23.0574	-1.039179	-7.637012E+13	2.943045E-16	NaN
157	1.000000	0.092749	7.36658e+06	-46489.1	955.818	-29769.4	0.000000	0.000000	6.092783	-0.049079	NaN	0.000000	0.001620	0.001698	28.0952	0.067910	0.002099	32.3549	135.617	13.5791	0.001172	0.091371	-1.029892	-1.031269	-0.049079	32.3549	-1.028754	-5.529919E+13	8.875181E-16	NaN
157	1.000000	0.102735	7.36658e+06	-46489.1	955.818	-29769.4	0.000000	0.000000	6.102769	-0.033859	NaN	0.000000	0.001592	0.001718	28.0768	0.015627	0.002018	7.745465	170.482	-167.962	0.006984	0.101445	-1.019906	-1.021196	-0.033859	7.745465	-1.016627	-3.798157E+13	8.914706E-16	NaN
157	1.000000	0.112717	7.36658e+06	-46489.1	955.818	-29769.4	0.000000	0.000000	6.112752	-0.019657	NaN	0.000000	0.001629	0.001743	28.0939	0.113204	0.002077	54.5059	76.4173	17.0348	-0.014711	0.111407	-1.009923	-1.011233	-0.019657	54.5059	-1.009653	-3.059920E+13	6.424182E-16	NaN
157	1.000000	0.122739	7.36658e+06	-46489.1	955.818	-29769.4	0.000000	0.000000	6.122776	0.021994	NaN	0.000000	0.001632	0.001696	28.1277	0.099484	0.001966	50.6057	136.415	-164.617	-0.060783	0.121436	-0.999902	-1.001205	0.021994	50.6057	-1.000228	-2.284717E+13	-9.626616E-16	NaN
157	1.000000	0.132731	7.36658e+06	-46489.1	955.818	-29769.4	0.000000	0.000000	6.132765	-0.043176	NaN	0.000000	0.001589	0.001662	28.0948	0.048834	0.001903	25.6562	-98.5792	12.8887	-0.097395	0.131410	-0.989910	-0.991230	-0.043176	25.6562	-0.988647	-1.595491E+13	2.706132E-15	NaN
157	1.000000	0.142780	7.36658e+06	-46489.1	955.818	-29769.4	0.000000	0.000000	6.142816	0.005316	NaN	0.000000	0.001617	0.001690	28.0765	0.045253	0.002039	22.1989	-144.495	-165.304	0.069437	0.141467	-0.979861	-0.981174	0.005316	22.1989	-0.980040	-1.221665E+13	-4.351617E-16	NaN
157	1.000000	0.152761	7.36658e+06	-46489.1	955.819	-29769.4	0.000000	0.000000	6.152794	-0.077962	NaN	0.000000	0.001640	0.001700	28.0943	0.105018	0.001923	54.6166	-178.749	12.6032	-0.105772	0.151358	-0.969880	-0.971283	-0.077962	54.6166	-0.968809	-8.622133E+12	9.042064E-15	NaN
157	1.000000	0.162755	7.36658e+06	-46489.1	955.818	-29769.4	0.000000	0.000000	6.162790	-0.027240	NaN	0.000000	0.001662	0.001710	28.1287	0.097785	0.002071	47.2244	-47.6712	-166.885	0.087977	0.161460	-0.959885	-0.961180	-0.027240	47.2244	-0.959453	-6.448994E+12	4.223919E-15	NaN
157	1.000000	0.172773	7.36658e+06	-46489.1	955.818	-29769.4	0.000000	0.000000	6.172806	-0.083579	NaN	0.000000	0.001706	0.001713	28.0967	0.054230	0.002098	25.8536	-4.990860	13.5282	-0.086718	0.171399	-0.949868	-0.951242	-0.083579	25.8536	-0.947443	-4.441629E+12	1.881724E-14	NaN
157	1.000000	0.182772	7.36658e+06	-46489.1	955.818	-29769.4	0.000000	0.000000	6.182807	-0.033220	NaN	0.000000	0.001715	0.001721	28.0783	0.066204	0.002014	32.8744	-46.3979	-168.781	-0.032634	0.181495	-0.939868	-0.941146	-0.033220	32.8744	-0.939110	-3.428751E+12	9.688702E-15	NaN
157	1.000000	0.192757	7.36658e+06	-46489.1	955.82	-29769.4	0.000000	0.000000	6.192790	-0.063340	NaN	0.000000	0.001722	0.001713	28.094	0.102675	0.001995	51.4573	-95.9351	14.6746	0.048853	0.191413	-0.929884	-0.931227	-0.063340	51.4573	-0.928960	-2.501304E+12	2.532286E-14	NaN
157	1.000000	0.202804	7.36658e+06	-46489.1	955.819	-29769.4	0.000000	0.000000	6.202838	-0.035888	NaN	0.000000	0.001723	0.001732	28.1293	0.057826	0.001924	30.0571	70.4199	-165.802	-0.017714	0.201451	-0.919837	-0.921190	-0.035888	30.0571	-0.918941	-1.831940E+12	1.958999E-14	NaN
157	1.000000	0.212770	7.36658e+06	-46489.1	955.819	-29769.4	0.000000	0.000000	6.212803	-0.069399	NaN	0.000000	0.001697	0.001724	28.0966	0.069666	0.001926	36.1775	30.238	12.1719	-0.072612	0.211400	-0.909871	-0.911240	-0.069399	36.1775	-0.908432	-1.321259E+12	5.252519E-14	NaN
157	1.000000	0.222797	7.36658e+06	-46489.1	955.819	-29769.4	0.000000	0.000000	6.222829	-0.084629	NaN	0.000000	0.001711	0.001723	28.0774	0.063457	0.002001	31.7109	170.583	-167.477	-0.035555	0.221426	-0.899844	-0.901215	-0.084629	31.7109	-0.897843	-9.504156E+11	8.904435E-14	NaN
157	1.000000	0.232774	7.36658e+06	-46489.1	955.818	-29769.4	0.000000	0.000000	6.232807	-0.068616	NaN	0.000000	0.001709	0.001752	28.0939	0.127203	0.002169	58.6558	157.671	16.1443	-0.044940	0.231427	-0.889867	-0.891214	-0.068616	58.6558	-0.888990	-7.215313E+11	9.509720E-14	NaN
157	1.000000	0.242812	7.36658e+06	-46489.1	955.818	-29769.4	0.000000	0.000000	6.242845	-0.074889	NaN	0.000000	0.001684	0.001728	28.13	0.060433	0.001918	31.511	36.1919	-163.15	-0.107343	0.241471	-0.879829	-0.881170	-0.074889	31.511	-0.878046	-5.132000E+11	1.459262E-13	NaN
157	1.000000	0.252818	7.36658e+06	-46489.1	955.818	-29769.4	0.000000	0.000000	6.252854	0.005902	NaN	0.000000	0.001688	0.001727	28.0977	0.060123	0.002027	29.6617	6.665191	11.6572	-0.007308	0.251447	-0.869823	-0.871194	0.005902	29.6617	-0.869972	-3.990886E+11	-1.478819E-14	NaN
157	1.000000	0.262823	7.36658e+06	-46489.1	955.818	-29769.4	0.000000	0.000000	6.262860	0.023117	NaN	0.000000	0.001671	0.001706	28.0778	0.071690	0.002056	34.8641	94.4464	-165.639	0.013120	0.261531	-0.859818	-0.861110	0.023117	34.8641	-0.860315	-2.953821E+11	-7.826292E-14	NaN
157	1.000000	0.272807	7.36658e+06	-46489.1	955.82	-29769.4	0.000000	0.000000	6.272842	-0.012727	NaN	0.000000	0.001723	0.001697	28.0928	0.054740	0.002081	26.3074	113.272	15.7778	-0.065675	0.271502	-0.849834	-0.851138	-0.012727	26.3074	-0.849471	-2.106572E+11	6.041341E-14	NaN
157	1.000000	0.282829	7.36658e+06	-46489.1	955.818	-29769.4	0.000000	0.000000	6.282864	-0.024375	NaN	0.000000	0.001722	0.001703	28.1287	0.059390	0.001922	30.9014	-33.4681	-166.838	-0.051873	0.281509	-0.839811	-0.841132	-0.024375	30.9014	-0.839220	-1.530106E+11	1.593046E-13	NaN
157	1.000000	0.292813	7.36658e+06	-46489.1	955.817	-29769.4	0.000000	0.000000	6.292845	-0.104449	NaN	0.000000	0.001671	0.001719	28.0964	0.034630	0.001908	18.1507	12.4297	14.5648	-0.102007	0.291406	-0.829827	-0.831235	-0.104449	18.1507	-0.825511	-9.975625E+10	1.047039E-12	NaN
157	1.000000	0.302814	7.36658e+06	-46489.1	955.819	-29769.4	0.000000	0.000000	6.302848	-0.042068	NaN	0.000000	0.001720	0.001718	28.0788	0.012429	0.002034	6.110048	48.538	-163.43	0.041359	0.301515	-0.819827	-0.821126	-0.042068	6.110048	-0.814663	-7.109344E+10	5.917302E-13	NaN
157	1.000000	0.312822	7.36658e+06	-46489.1	955.819	-29769.4	0.000000	0.000000	6.312855	-0.072728	NaN	0.000000	0.001714	0.001716	28.0931	0.032791	0.001914	17.1289	35.2315	11.3359	-0.031593	0.311424	-0.809819	-0.811217	-0.072728	17.1289	-0.806635	-5.532311E+10	1.314606E-12	NaN
157	1.000000	0.322841	7.36658e+06	-46489.1	955.818	-29769.4	0.000000	0.000000	6.322875	-0.044784	NaN	0.000000	0.001688	0.001744	28.129	0.065150	0.001877	34.7114	-166.875	-171.338	-0.035856	0.321569	-0.799800	-0.801072	-0.044784	34.7114	-0.798833	-4.335251E+10	1.033010E-12	NaN
157	1.000000	0.332832	7.36658e+06	-46489.1	955.818	-29769.4	0.000000	0.000000	6.332866	-0.046474	NaN	0.000000	0.001701	0.001725	28.0957	0.029243	0.001956	14.9508	-131.021	14.2409	-0.031583	0.331473	-0.789809	-0.791168	-0.046474	14.9508	-0.787478	-3.039651E+10	1.528910E-12	NaN
157	1.000000	0.342821	7.36658e+06	-46489.1	955.819	-29769.4	0.000000	0.000000	6.342858	0.026182	NaN	0.000000	0.001643	0.001722	28.0765	0.054640	0.002021	27.0336	-125.172	-164.897	0.052887	0.341532	-0.779819	-0.781109	0.026182	27.0336	-0.780546	-2.447081E+10	-1.069923E-12	NaN
157	1.000000	0.352857	7.36658e+06	-46489.1	955.817	-29769.4	0.000000	0.000000	6.352890	-0.068341	NaN	0.000000	0.001651	0.001698	28.093	0.060668	0.001970	30.7923	-100.997	12.6721	-0.048247	0.351529	-0.769784	-0.771112	-0.068341	30.7923	-0.768119	-1.658567E+10	4.120468E-12	NaN
157	1.000000	0.362853	7.36658e+06	-46489.1	955.82	-29769.4	0.000000	0.000000	6.362886	-0.075265	NaN	0.000000	0.001683	0.001690	28.1271	0.060283	0.002056	29.3277	90.5149	-169.3	-0.014651	0.361538	-0.759787	-0.761103	-0.075265	29.3277	-0.757863	-1.202879E+10	6.257030E-12	NaN
157	1.000000	0.372859	7.36658e+06	-46489.1	955.818	-29769.4	0.000000	0.000000	6.372890	-0.119582	NaN	0.000000	0.001665	0.001707	28.0949	0.101623	0.001984	51.2116	84.5775	18.419	-0.062635	0.371516	-0.749782	-0.751125	-0.119582	51.2116	-0.748031	-8.839148E+9	1.352865E-11	NaN
157	1.000000	0.382868	7.36658e+06	-46489.1	955.818	-29769.4	0.000000	0.000000	6.382901	-0.069880	NaN	0.000000	0.001657	0.001669	28.0776	0.050216	0.001996	25.1561	-87.9424	-165.591	-0.069786	0.381596	-0.739773	-0.741044	-0.069880	25.1561	-0.737689	-6.391163E+9	1.093382E-11	NaN
157	1.000000	0.392845	7.36658e+06	-46489.1	955.818	-29769.4	0.000000	0.000000	6.392876	-0.115827	NaN	0.000000	0.001649	0.001689	28.0924	0.123740	0.001843	67.1313	-153.961	15.6187	0.047967	0.391528	-0.729796	-0.731113	-0.115827	67.1313	-0.728502	-4.790569E+9	2.417804E-11	NaN
157	1.000000	0.402884	7.36658e+06	-46489.1	955.818	-29769.4	0.000000	0.000000	6.402918	-0.033546	NaN	0.000000	0.001645	0.001706	28.1285	0.128003	0.002130	60.1017	-138.15	-165.231	5.296165E-5	0.401604	-0.719757	-0.721036	-0.033546	60.1017	-0.719338	-3.592925E+9	9.336563E-12	NaN
157	1.000000	0.412871	7.36658e+06	-46489.1	955.818	-29769.4	0.000000	0.000000	6.412903	-0.079145	NaN	0.000000	0.001651	0.001677	28.0978	0.032250	0.002009	16.051	48.8607	13.3211	0.036936	0.411434	-0.709770	-0.711207	-0.079145	16.051	-0.706072	-2.368282E+9	3.341876E-11	NaN
157	1.000000	0.422868	7.36658e+06	-46489.1	955.819	-29769.4	0.000000	0.000000	6.422904	0.003706	NaN	0.000000	0.001683	0.001685	28.0762	0.057922	0.002001	28.9474	83.6456	-168.959	0.045929	0.421639	-0.699773	-0.701002	0.003706	28.9474	-0.699869	-1.948662E+9	-1.901655E-12	NaN
157	1.000000	0.432872	7.36658e+06	-46489.1	955.819	-29769.4	0.000000	0.000000	6.432910	0.056254	NaN	0.000000	0.001671	0.001684	28.0919	0.036732	0.001990	18.454	-12.094	7.376165	0.062610	0.431483	-0.689769	-0.691158	0.056254	18.454	-0.692055	-1.524053E+9	-3.691065E-11	NaN
157	1.000000	0.442894	7.36658e+06	-46489.1	955.818	-29769.4	0.000000	0.000000	6.442928	-0.041959	NaN	0.000000	0.001641	0.001716	28.1275	0.109849	0.002115	51.9361	-174.915	-165.536	-0.039337	0.441605	-0.679747	-0.681035	-0.041959	51.9361	-0.679141	-1.014980E+9	4.133983E-11	NaN
157	1.000000	0.452870	7.36658e+06	-46489.1	955.818	-29769.4	0.000000	0.000000	6.452904	-0.044488	NaN	0.000000	0.001678	0.001654	28.098	0.040894	0.002059	19.8647	3.874884	13.9929	0.004230	0.451553	-0.669771	-0.671088	-0.044488	19.8647	-0.668091	-7.165734E+8	6.208404E-11	NaN
157	1.000000	0.462893	7.36658e+06	-46489.1	955.819	-29769.4	0.000000	0.000000	6.462931	0.051691	NaN	0.000000	0.001681	0.001704	28.0793	0.034943	0.002018	17.3118	-33.6226	-163.887	0.007623	0.461554	-0.659748	-0.661087	0.051691	17.3118	-0.661987	-5.911375E+8	-8.744362E-11	NaN
157	1.000000	0.472879	7.36658e+06	-46489.1	955.818	-29769.4	0.000000	0.000000	6.472917	0.054718	NaN	0.000000	0.001682	0.001702	28.0943	0.048974	0.001883	26.0124	17.876	15.5594	0.067175	0.471500	-0.649762	-0.651141	0.054718	26.0124	-0.651340	-4.224740E+8	-1.295185E-10	NaN
157	1.000000	0.482876	7.36658e+06	-46489.1	955.818	-29769.4	0.000000	0.000000	6.482912	-0.011521	NaN	0.000000	0.001652	0.001648	28.1295	0.030399	0.002036	14.9341	63.9391	-166.426	-0.072403	0.481613	-0.639764	-0.641028	-0.011521	14.9341	-0.639186	-2.878172E+8	4.002824E-11	NaN
157	1.000000	0.492911	7.36658e+06	-46489.1	955.818	-29769.4	0.000000	0.000000	6.492946	-0.017687	NaN	0.000000	0.001634	0.001687	28.0995	0.134051	0.002025	66.2056	-135.9	16.3337	-0.078627	0.491524	-0.629730	-0.631117	-0.017687	66.2056	-0.629529	-2.121086E+8	8.338586E-11	NaN
157	1.000000	0.502892	7.36658e+06	-46489.1	955.818	-29769.4	0.000000	0.000000	6.502925	-0.074439	NaN	0.000000	0.001661	0.001695	28.076	0.027788	0.002006	13.8519	138.084	-169.195	0.027729	0.501601	-0.619748	-0.621039	-0.074439	13.8519	-0.615718	-1.370131E+8	5.432976E-10	NaN
157	1.000000	0.512911	7.36658e+06	-46489.1	955.818	-29769.4	0.000000	0.000000	6.512945	-0.046178	NaN	0.000000	0.001638	0.001675	28.0922	0.055473	0.001990	27.869	-19.4207	14.1642	-0.095125	0.511594	-0.609730	-0.611046	-0.046178	27.869	-0.608487	-1.089671E+8	4.237814E-10	NaN
157	1.000000	0.522910	7.36658e+06	-46489.1	955.819	-29769.4	0.000000	0.000000	6.522945	-0.031315	NaN	0.000000	0.001683	0.001706	28.1285	0.174807	0.001912	91.4059	53.9056	-168.103	-0.003453	0.521595	-0.599731	-0.601045	-0.031315	91.4059	-0.599474	-8.188621E+7	3.824244E-10	NaN
157	1.000000	0.532951	7.36658e+06	-46489.1	955.819	-29769.4	0.000000	0.000000	6.532984	-0.068597	NaN	0.000000	0.001700	0.001714	28.0978	0.098066	0.002006	48.8877	-141.688	15.4164	-0.052235	0.531608	-0.589690	-0.591033	-0.068597	48.8877	-0.588638	-5.806113E+7	1.181455E-9	NaN
157	1.000000	0.542905	7.36658e+06	-46489.1	955.819	-29769.4	0.000000	0.000000	6.542942	0.009889	NaN	0.000000	0.001682	0.001685	28.0781	0.038937	0.001936	20.113	-157.644	-168.878	-0.034589	0.541654	-0.579735	-0.580986	0.009889	20.113	-0.580104	-4.427564E+7	-2.233605E-10	NaN
157	1.000000	0.552929	7.36658e+06	-46489.1	955.818	-29769.4	0.000000	0.000000	6.552963	-0.026003	NaN	0.000000	0.001671	0.001717	28.0937	0.108371	0.002017	53.742	111.439	16.093	-0.012003	0.551533	-0.569712	-0.571108	-0.026003	53.742	-0.569349	-3.145135E+7	8.267755E-10	NaN
157	1.000000	0.562952	7.36658e+06	-46489.1	955.818	-29769.4	0.000000	0.000000	6.562986	-0.038500	NaN	0.000000	0.001652	0.001677	28.1293	0.078439	0.002084	37.6358	-144.525	-165.646	-0.017049	0.561626	-0.559689	-0.561015	-0.038500	37.6358	-0.558922	-2.256644E+7	1.706090E-9	NaN
157	1.000000	0.572958	7.36658e+06	-46489.1	955.818	-29769.4	0.000000	0.000000	6.572995	0.018793	NaN	0.000000	0.001639	0.001686	28.0993	0.071514	0.001984	36.0363	-108.186	14.7133	0.011433	0.571571	-0.549683	-0.551070	0.018793	36.0363	-0.550074	-1.702064E+7	-1.104142E-9	NaN
157	1.000000	0.582954	7.36658e+06	-46489.1	955.818	-29769.4	0.000000	0.000000	6.582986	-0.106145	NaN	0.000000	0.001649	0.001701	28.076	0.035091	0.001893	18.5361	46.7881	-166.715	-0.055574	0.581573	-0.539687	-0.541068	-0.106145	18.5361	-0.535392	-1.065189E+7	9.964865E-9	NaN
157	1.000000	0.592952	7.36658e+06	-46489.1	955.819	-29769.4	0.000000	0.000000	6.592984	-0.101702	NaN	0.000000	0.001675	0.001704	28.0911	0.089273	0.002069	43.1553	157.476	10.8648	-0.149662	0.591580	-0.529689	-0.531060	-0.101702	43.1553	-0.527921	-8.38881e+06	1.212350E-8	NaN
157	1.000000	0.602948	7.36658e+06	-46489.1	955.818	-29769.4	0.000000	0.000000	6.602981	-0.066542	NaN	0.000000	0.001659	0.001750	28.1274	0.064168	0.001969	32.5939	117.708	-166.511	-0.087100	0.601681	-0.519693	-0.520960	-0.066542	32.5939	-0.518162	-6.13808e+06	1.084084E-8	NaN
157	1.000000	0.612950	7.36658e+06	-46489.1	955.819	-29769.4	0.000000	0.000000	6.612986	0.018903	NaN	0.000000	0.001632	0.001720	28.0968	0.020581	0.002107	9.769157	65.6283	12.4617	-0.029958	0.611633	-0.509691	-0.511007	0.018903	9.769157	-0.511142	-4.90146e+06	-3.856543E-9	NaN
157	1.000000	0.622966	7.36658e+06	-46489.1	955.819	-29769.4	0.000000	0.000000	6.623002	-0.006455	NaN	0.000000	0.001646	0.001736	28.0787	0.059071	0.002007	29.4369	133.609	-169.701	0.044333	0.621653	-0.499674	-0.500988	-0.006455	29.4369	-0.499510	-3.37428e+06	1.913067E-9	NaN
157	1.000000	0.632948	7.36658e+06	-46489.1	955.818	-29769.4	0.000000	0.000000	6.632983	-0.023034	NaN	0.000000	0.001646	0.001728	28.0925	0.096073	0.002081	46.1711	65.6344	11.9774	-0.026797	0.631583	-0.489693	-0.491057	-0.023034	46.1711	-0.489319	-2.43148e+06	9.473353E-9	NaN
157	1.000000	0.642948	7.36658e+06	-46489.1	955.818	-29769.4	0.000000	0.000000	6.642981	-0.049322	NaN	0.000000	0.001691	0.001702	28.1285	0.055991	0.002053	27.269	-154.299	-164.382	0.011686	0.641639	-0.479693	-0.481002	-0.049322	27.269	-0.478337	-1.70702e+06	2.889388E-8	NaN
157	1.000000	0.652973	7.36658e+06	-46489.1	955.818	-29769.4	0.000000	0.000000	6.653006	-0.078722	NaN	0.000000	0.001667	0.001724	28.0988	0.125347	0.001969	63.6498	85.8622	11.4572	-0.028355	0.651604	-0.469667	-0.471036	-0.078722	63.6498	-0.468740	-1.25237e+06	6.285845E-8	NaN
157	1.000000	0.663000	7.36658e+06	-46489.1	955.819	-29769.4	0.000000	0.000000	6.663035	-0.032010	NaN	0.000000	0.001680	0.001726	28.0782	0.077655	0.002065	37.6061	-47.2894	-167.114	-0.046429	0.661687	-0.459641	-0.460953	-0.032010	37.6061	-0.459002	-914100	3.501786E-8	NaN
157	1.000000	0.673005	7.36658e+06	-46489.1	955.818	-29769.4	0.000000	0.000000	6.673040	-0.029346	NaN	0.000000	0.001646	0.001707	28.0903	0.056557	0.001861	30.3913	-10.8359	15.0654	-0.002960	0.671643	-0.449636	-0.450998	-0.029346	30.3913	-0.448912	-659194	4.451755E-8	NaN
157	1.000000	0.682976	7.36658e+06	-46489.1	955.818	-29769.4	0.000000	0.000000	6.683011	-0.044424	NaN	0.000000	0.001680	0.001707	28.1272	0.093294	0.002175	42.8926	-127.241	-165.87	-0.002297	0.681662	-0.439664	-0.440979	-0.044424	42.8926	-0.438888	-476058	9.331552E-8	NaN
157	1.000000	0.692997	7.36658e+06	-46489.1	955.818	-29769.4	0.000000	0.000000	6.693029	-0.087246	NaN	0.000000	0.001674	0.001701	28.0975	0.052180	0.002018	25.8618	-156.569	11.3492	-0.012544	0.691593	-0.429644	-0.431048	-0.087246	25.8618	-0.427114	-324502	2.688620E-7	NaN
157	1.000000	0.702998	7.36658e+06	-46489.1	955.82	-29769.4	0.000000	0.000000	6.703034	0.009270	NaN	0.000000	0.001676	0.001709	28.0775	0.019594	0.001984	9.876246	-19.241	-162.319	0.034903	0.701693	-0.419643	-0.420948	0.009270	9.876246	-0.420347	-260218	-3.562558E-8	NaN
157	1.000000	0.713009	7.36658e+06	-46489.1	955.818	-29769.4	0.000000	0.000000	6.713041	-0.080069	NaN	0.000000	0.001631	0.001722	28.0912	0.096590	0.001928	50.0978	135.192	16.6662	0.002694	0.711623	-0.409632	-0.411017	-0.080069	50.0978	-0.408433	-176245	4.543049E-7	NaN
157	1.000000	0.722979	7.36658e+06	-46489.1	955.818	-29769.4	0.000000	0.000000	6.723013	-0.048578	NaN	0.000000	0.001670	0.001685	28.1295	0.091348	0.001967	46.4356	-76.4955	-164.419	0.002615	0.721673	-0.399661	-0.400968	-0.048578	46.4356	-0.398877	-128817	3.771097E-7	NaN
157	1.000000	0.733019	7.36658e+06	-46489.1	955.817	-29769.4	0.000000	0.000000	6.733054	-0.024640	NaN	0.000000	0.001678	0.001725	28.1002	0.037738	0.002024	18.6416	-85.1625	14.0895	-0.031991	0.731607	-0.389622	-0.391034	-0.024640	18.6416	-0.388631	-91955	2.679520E-7	NaN
157	1.000000	0.743002	7.36658e+06	-46489.1	955.819	-29769.4	0.000000	0.000000	6.743037	-0.030968	NaN	0.000000	0.001679	0.001734	28.0783	0.104445	0.002160	48.3629	97.411	-163.797	-0.043809	0.741683	-0.379639	-0.380957	-0.030968	48.3629	-0.379158	-67268	4.603699E-7	NaN
157	1.000000	0.752981	7.36658e+06	-46489.1	955.818	-29769.4	0.000000	0.000000	6.753016	-0.031892	NaN	0.000000	0.001665	0.001733	28.091	0.032592	0.002012	16.2021	-162.284	15.3222	-0.102212	0.751650	-0.369660	-0.370991	-0.031892	16.2021	-0.368183	-46768.9	6.818966E-7	NaN
157	1.000000	0.762998	7.36658e+06	-46489.1	955.819	-29769.4	0.000000	0.000000	6.763033	-0.013264	NaN	0.000000	0.001677	0.001698	28.1289	0.054706	0.001920	28.4875	-8.968979	-164.761	0.003958	0.761704	-0.359643	-0.360937	-0.013264	28.4875	-0.359294	-34804.6	3.811018E-7	NaN
157	1.000000	0.773005	7.36658e+06	-46489.1	955.819	-29769.4	0.000000	0.000000	6.773041	-0.002840	NaN	0.000000	0.001708	0.001696	28.1002	0.083561	0.001946	42.9336	-117.991	14.8764	-0.021686	0.771674	-0.349636	-0.350966	-0.002840	42.9336	-0.349586	-25176.7	1.128041E-7	NaN
157	1.000000	0.783046	7.36658e+06	-46489.1	955.818	-29769.4	0.000000	0.000000	6.783078	-0.091595	NaN	0.000000	0.001675	0.001728	28.0788	0.056407	0.001913	29.4877	108.188	-165.924	-0.105648	0.781746	-0.339595	-0.340895	-0.091595	29.4877	-0.337265	-16659.6	5.498039E-6	NaN
157	1.000000	0.793053	7.36658e+06	-46489.1	955.818	-29769.4	0.000000	0.000000	6.793088	-0.009805	NaN	0.000000	0.001638	0.001716	28.0933	0.096550	0.001990	48.5286	104.532	12.1332	-0.021123	0.791626	-0.329588	-0.331014	-0.009805	48.5286	-0.329437	-12799.7	7.659958E-7	NaN
157	1.000000	0.803005	7.36658e+06	-46489.1	955.819	-29769.4	0.000000	0.000000	6.803041	0.005057	NaN	0.000000	0.001675	0.001721	28.1293	0.066885	0.002065	32.386	100.958	-164.434	0.022255	0.801722	-0.319636	-0.320919	0.005057	32.386	-0.319753	-9225.77	-5.481518E-7	NaN
157	1.000000	0.813038	7.36658e+06	-46489.1	955.819	-29769.4	0.000000	0.000000	6.813069	-0.106057	NaN	0.000000	0.001648	0.001710	28.1002	0.082669	0.002072	39.9078	169.728	13.3056	-0.147181	0.811712	-0.309603	-0.310929	-0.106057	39.9078	-0.307610	-6104.66	1.737306E-5	NaN
157	1.000000	0.823062	7.36658e+06	-46489.1	955.818	-29769.4	0.000000	0.000000	6.823096	-0.035190	NaN	0.000000	0.001623	0.001679	28.0766	0.076206	0.002047	37.2355	21.2992	-165.026	-0.008288	0.821752	-0.299579	-0.300889	-0.035190	37.2355	-0.298870	-4527	7.773355E-6	NaN
157	1.000000	0.833033	7.36658e+06	-46489.1	955.817	-29769.4	0.000000	0.000000	6.833067	-0.041884	NaN	0.000000	0.001674	0.001682	28.0914	0.066642	0.002111	31.5623	173.387	14.8813	-0.021312	0.831671	-0.289608	-0.290970	-0.041884	31.5623	-0.288613	-3180.61	1.316843E-5	NaN
157	1.000000	0.843048	7.36658e+06	-46489.1	955.818	-29769.4	0.000000	0.000000	6.843085	0.005632	NaN	0.000000	0.001660	0.001691	28.1281	0.026997	0.002017	13.384	-25.2195	-164.872	-0.034488	0.841768	-0.279592	-0.280873	0.005632	13.384	-0.279908	-2352.78	-2.393770E-6	NaN
157	1.000000	0.853064	7.36658e+06	-46489.1	955.818	-29769.4	0.000000	0.000000	6.853097	-0.066624	NaN	0.000000	0.001635	0.001682	28.0998	0.065332	0.001935	33.7556	128.198	17.2732	-0.077586	0.851729	-0.269577	-0.270912	-0.066624	33.7556	-0.268097	-1558.08	4.275997E-5	NaN
157	1.000000	0.863071	7.36658e+06	-46489.1	955.82	-29769.4	0.000000	0.000000	6.863107	0.003339	NaN	0.000000	0.001623	0.001715	28.0776	0.101659	0.001931	52.6495	172.241	-168.091	-0.009949	0.861722	-0.259570	-0.260919	0.003339	52.6495	-0.259618	-1156.27	-2.887634E-6	NaN
157	1.000000	0.873053	7.36658e+06	-46489.1	955.818	-29769.4	0.000000	0.000000	6.873086	-0.062525	NaN	0.000000	0.001621	0.001712	28.0901	0.054956	0.002000	27.4845	-33.0461	13.5963	-0.033254	0.871669	-0.249588	-0.250972	-0.062525	27.4845	-0.247881	-762.373	8.201423E-5	NaN
157	1.000000	0.883082	7.36658e+06	-46489.1	955.818	-29769.4	0.000000	0.000000	6.883115	-0.076558	NaN	0.000000	0.001616	0.001690	28.1278	0.074700	0.001964	38.027	-158.976	-165.006	0.006334	0.881702	-0.239559	-0.240939	-0.076558	38.027	-0.238049	-535.854	0.000143	NaN
157	1.000000	0.893075	7.36658e+06	-46489.1	955.82	-29769.4	0.000000	0.000000	6.893106	-0.114638	NaN	0.000000	0.001587	0.001702	28.0996	0.170209	0.002010	84.6957	129.015	15.6026	-0.054667	0.891707	-0.229566	-0.230934	-0.114638	84.6957	-0.228551	-379.856	0.000302	NaN
157	1.000000	0.903071	7.36658e+06	-46489.1	955.817	-29769.4	0.000000	0.000000	6.903107	0.005793	NaN	0.000000	0.001621	0.001674	28.0767	0.104050	0.002155	48.2754	-172.557	-163.71	-0.016361	0.901765	-0.219569	-0.220876	0.005793	48.2754	-0.219659	-274.304	-2.111863E-5	NaN
157	1.000000	0.913090	7.36658e+06	-46489.1	955.817	-29769.4	0.000000	0.000000	6.913125	-0.020044	NaN	0.000000	0.001604	0.001681	28.0893	0.084087	0.001873	44.9056	-17.8311	13.5307	-0.079644	0.911735	-0.209550	-0.210906	-0.020044	44.9056	-0.209216	-186.255	0.000108	NaN
157	1.000000	0.923093	7.36658e+06	-46489.1	955.819	-29769.4	0.000000	0.000000	6.923128	-0.021110	NaN	0.000000	0.001631	0.001678	28.1267	0.130880	0.002003	65.3342	48.2082	-164.15	0.011256	0.921793	-0.199548	-0.200848	-0.021110	65.3342	-0.199306	-128.317	0.000165	NaN
157	1.000000	0.933082	7.36658e+06	-46489.1	955.818	-29769.4	0.000000	0.000000	6.933116	-0.029374	NaN	0.000000	0.001674	0.001705	28.0988	0.028512	0.002112	13.4982	-145.326	16.5791	-0.112319	0.931765	-0.189559	-0.190876	-0.029374	13.4982	-0.187927	-83.0493	0.000354	NaN
157	1.000000	0.943100	7.36658e+06	-46489.1	955.818	-29769.4	0.000000	0.000000	6.943137	0.018038	NaN	0.000000	0.001606	0.001682	28.0772	0.034078	0.001936	17.6047	29.7045	-167.176	-0.076218	0.941806	-0.179541	-0.180834	0.018038	17.6047	-0.180309	-61.7626	-0.000292	NaN
157	1.000000	0.953080	7.36658e+06	-46489.1	955.818	-29769.4	0.000000	0.000000	6.953114	-0.055948	NaN	0.000000	0.001623	0.001669	28.0895	0.055086	0.002052	26.847	-23.7277	16.5128	-0.076789	0.951776	-0.169561	-0.170865	-0.055948	26.847	-0.167998	-37.9113	0.001476	NaN
157	1.000000	0.963113	7.36658e+06	-46489.1	955.818	-29769.4	0.000000	0.000000	6.963148	-0.022987	NaN	0.000000	0.001671	0.001685	28.1281	0.129871	0.002042	63.6131	99.0118	-165.343	-0.025939	0.961763	-0.159527	-0.160878	-0.022987	63.6131	-0.159256	-26.5925	0.000864	NaN
157	1.000000	0.973087	7.36658e+06	-46489.1	955.818	-29769.4	0.000000	0.000000	6.973122	-0.029103	NaN	0.000000	0.001619	0.001690	28.0998	0.112172	0.001974	56.8148	113.721	11.4317	-0.001323	0.971676	-0.149554	-0.150964	-0.029103	56.8148	-0.149170	-17.4922	0.001664	NaN
157	1.000000	0.983124	7.36658e+06	-46489.1	955.817	-29769.4	0.000000	0.000000	6.983159	-0.017924	NaN	0.000000	0.001648	0.001669	28.0766	0.017536	0.001950	8.990723	-105.193	-165.89	-0.035514	0.981758	-0.139517	-0.140883	-0.017924	8.990723	-0.138022	-10.8566	0.001651	NaN
157	1.000000	0.993133	7.36658e+06	-46489.1	955.819	-29769.4	0.000000	0.000000	6.993167	-0.041502	NaN	0.000000	0.001647	0.001710	28.0907	0.048202	0.001991	24.2133	28.8081	14.3368	-0.081826	0.991777	-0.129508	-0.130864	-0.041502	24.2133	-0.128223	-7.036834	0.005898	NaN
157	1.000000	1.003100	7.36658e+06	-46489.1	955.818	-29769.4	0.000000	0.000000	7.003133	-0.076800	NaN	0.000000	0.001637	0.001683	28.1293	0.066678	0.001984	33.6144	-30.5714	-163.211	0.035373	1.001832	-0.119540	-0.120809	-0.076800	33.6144	-0.117827	-4.365419	0.017593	NaN
157	1.000000	1.013129	7.36658e+06	-46489.1	955.819	-29769.4	0.000000	0.000000	7.013166	0.011498	NaN	0.000000	0.001678	0.001726	28.1012	0.048611	0.001917	25.3525	-41.4517	15.5423	-0.030966	1.011825	-0.109512	-0.110816	0.011498	25.3525	-0.109852	-2.983630	-0.003854	NaN
157	1.000000	1.023147	7.36658e+06	-46489.1	955.819	-29769.4	0.000000	0.000000	7.023179	-0.073889	NaN	0.000000	0.001648	0.001708	28.08	0.142796	0.002007	71.1522	-92.2667	-164.714	-0.008229	1.021838	-0.099494	-0.100802	-0.073889	71.1522	-0.098715	-1.710793	0.043190	NaN
157	1.000000	1.033127	7.36658e+06	-46489.1	955.818	-29769.4	0.000000	0.000000	7.033161	-0.032168	NaN	0.000000	0.001644	0.001702	28.0916	0.032234	0.002004	16.0888	-27.775	14.0517	-0.017640	1.031784	-0.089514	-0.090857	-0.032168	16.0888	-0.088015	-0.970398	0.033149	NaN
157	1.000000	1.043139	7.36658e+06	-46489.1	955.818	-29769.4	0.000000	0.000000	7.043174	-0.021938	NaN	0.000000	0.001637	0.001696	28.1291	0.023778	0.002029	11.7185	-75.888	-164.198	-0.092730	1.041801	-0.079502	-0.080839	-0.021938	11.7185	-0.078097	-0.554380	0.039573	NaN
157	1.000000	1.053129	7.36658e+06	-46489.1	955.818	-29769.4	0.000000	0.000000	7.053161	-0.081578	NaN	0.000000	0.001654	0.001695	28.102	0.078157	0.002052	38.0886	63.1684	11.9958	-0.054475	1.051796	-0.069512	-0.070845	-0.081578	38.0886	-0.067906	-0.299482	0.272396	NaN
157	1.000000	1.063141	7.36658e+06	-46489.1	955.818	-29769.4	0.000000	0.000000	7.063174	-0.056509	NaN	0.000000	0.001650	0.001705	28.0787	0.044513	0.002021	22.0274	93.4749	-165.951	-0.048482	1.061849	-0.059500	-0.060792	-0.056509	22.0274	-0.057576	-0.153261	0.368710	NaN
157	1.000000	1.073143	7.36658e+06	-46489.1	955.818	-29769.4	0.000000	0.000000	7.073179	0.016113	NaN	0.000000	0.001652	0.001708	28.0901	0.025615	0.001944	13.1794	8.065371	12.4703	0.097749	1.071744	-0.049498	-0.050897	0.016113	13.1794	-0.050415	-0.093924	-0.171552	NaN
157	1.000000	1.083137	7.36658e+06	-46489.1	955.818	-29769.4	0.000000	0.000000	7.083171	-0.047052	NaN	0.000000	0.001634	0.001693	28.1283	0.045848	0.002058	22.2777	105.797	-164.768	-0.077366	1.081891	-0.039503	-0.040750	-0.047052	22.2777	-0.037919	-0.039124	1.202644	NaN
157	1.000000	1.093133	7.36658e+06	-46489.1	955.818	-29769.4	0.000000	0.000000	7.093165	-0.086590	NaN	0.000000	0.001574	0.001700	28.1014	0.083256	0.001969	42.2807	124.549	13.5223	0.001032	1.091782	-0.029508	-0.030859	-0.086590	42.2807	-0.027972	-0.020239	4.278315	NaN
157	1.000000	1.103167	7.36658e+06	-46489.1	955.82	-29769.4	0.000000	0.000000	7.103202	-0.030557	NaN	0.000000	0.001597	0.001700	28.0786	0.105984	0.002016	52.5826	-74.6661	-166.026	0.048606	1.101860	-0.019474	-0.020781	-0.030557	52.5826	-0.019038	-0.011871	2.574162	NaN
157	1.000000	1.113142	7.36658e+06	-46489.1	955.819	-29769.4	0.000000	0.000000	7.113178	-0.005636	NaN	0.000000	0.001621	0.001681	28.0916	0.109285	0.002011	54.3495	104.727	14.8063	-0.037146	1.111810	-0.009499	-0.010830	-0.005636	54.3495	-0.009421	-0.006056	0.930639	NaN
157	1.000000	1.123161	7.36658e+06	-46489.1	955.819	-29769.4	0.000000	0.000000	7.123209	0.293714	NaN	0.000000	0.001630	0.001682	28.1294	0.628567	0.002081	301.982	12.6595	-165.77	0.064036	1.121870	0.000521	-0.000771	0.293714	301.982	-0.000209	-0.000155	-1889.47	NaN
157	2.000000	1.132156	7.36658e+06	-46489.1	955.82	-29769.4	0.000000	0.000000	7.132595	9.787957	NaN	0.000000	0.001617	0.001692	28.1017	9.279781	0.001759	5275.59	9.286461	8.544315	8.899060	1.131566	0.009516	0.008926	9.787957	5275.59	0.008124	0.007170	1365.09	56921.8
157	2.000000	1.134697	7.36658e+06	-46489.1	955.819	-29769.4	0.000000	0.000000	7.135245	12.4529	NaN	0.000000	0.001635	0.001627	28.0779	11.2426	0.001642	6846.19	9.227525	-175.474	12.3312	1.134413	0.012056	0.011773	12.4529	6846.19	0.010692	0.009961	1250.19	62672.1
157	2.000000	1.137166	7.36658e+06	-46489.1	955.82	-29769.4	0.000000	0.000000	7.137856	15.9099	NaN	0.000000	0.001657	0.001700	28.0895	13.787	0.001646	8373.7	6.660496	4.711393	15.3648	1.136790	0.014525	0.014150	15.9099	8373.7	0.013100	0.012835	1239.59	67529.8
157	2.000000	1.139638	7.36658e+06	-46489.1	955.819	-29769.4	0.000000	0.000000	7.140436	18.5313	NaN	0.000000	0.001629	0.001673	28.127	16.6487	0.001921	8667.54	4.070484	-171.718	18.1314	1.139384	0.016998	0.016744	18.5313	8667.54	0.015394	0.015814	1171.8	62971.3
157	2.000000	1.142155	7.36658e+06	-46489.1	955.819	-29769.4	0.000000	0.000000	7.143134	22.9268	NaN	0.000000	0.001646	0.001685	28.1021	19.1986	0.001861	10314.9	10.2663	0.960627	22.633	1.141820	0.019515	0.019180	22.9268	10314.9	0.017848	0.019272	1189.63	67884.6
157	2.000000	1.144624	7.36658e+06	-46489.1	955.82	-29769.4	0.000000	0.000000	7.145899	30.1528	NaN	0.000000	0.001646	0.001728	28.0774	21.1666	0.001815	11662.6	10.1262	-179.064	31.1911	1.144326	0.021983	0.021686	30.1528	11662.6	0.020044	0.022611	1333.54	70861.2
157	2.000000	1.147114	7.36658e+06	-46489.1	955.821	-29769.4	0.000000	0.000000	7.148526	33.4552	NaN	0.000000	0.001638	0.001728	28.0894	23.9985	0.001792	13394.9	5.220457	1.885149	32.5895	1.146808	0.024474	0.024167	33.4552	13394.9	0.022600	0.026794	1248.59	74763.6
157	2.000000	1.149611	7.36658e+06	-46489.1	955.82	-29769.4	0.000000	0.000000	7.151241	38.772	NaN	0.000000	0.001684	0.001701	28.1277	26.7259	0.001853	14419.7	4.313061	-176.529	37.744	1.149318	0.026970	0.026678	38.772	14419.7	0.024953	0.030931	1253.51	74909.1
157	2.000000	1.152145	7.36658e+06	-46489.1	955.82	-29769.4	0.000000	0.000000	7.154166	48.2956	NaN	0.000000	0.001659	0.001747	28.1036	28.9264	0.001685	17162.2	8.201572	-2.711956	48.0544	1.151702	0.029504	0.029061	48.2956	17162.2	0.027393	0.035514	1359.91	83204.5
157	2.000000	1.154558	7.36658e+06	-46489.1	955.82	-29769.4	0.000000	0.000000	7.156802	53.7074	NaN	0.000000	0.001625	0.001670	28.0778	31.1395	0.001756	17733.7	5.214865	179.539	51.2655	1.154235	0.031918	0.031594	53.7074	17733.7	0.029646	0.040014	1342.22	80997
157	2.000000	1.157049	7.36658e+06	-46489.1	955.821	-29769.4	0.000000	0.000000	7.159429	57.04	NaN	0.000000	0.001635	0.001722	28.0888	34.0867	0.001760	19362.3	4.939871	-0.998570	52.5855	1.156703	0.034408	0.034063	57.04	19362.3	0.032198	0.045424	1255.73	83001.8
157	2.000000	1.159532	7.36658e+06	-46489.1	955.821	-29769.4	0.000000	0.000000	7.162357	67.8488	NaN	0.000000	0.001635	0.001731	28.1265	36.3322	0.001952	18610.6	2.102770	-176.439	64.2358	1.159221	0.036891	0.036580	67.8488	18610.6	0.034157	0.049801	1362.41	76193
157	2.000000	1.162134	7.36658e+06	-46489.1	955.821	-29769.4	0.000000	0.000000	7.165179	73.2161	NaN	0.000000	0.001661	0.001685	28.1009	38.8991	0.001855	20969.9	5.389742	-1.121657	72.9158	1.161813	0.039493	0.039173	73.2161	20969.9	0.036874	0.056200	1302.78	80816.6
157	2.000000	1.164570	7.36658e+06	-46489.1	955.82	-29769.4	0.000000	0.000000	7.167872	79.4447	NaN	0.000000	0.001655	0.001754	28.0785	41.0369	0.001780	23058.5	7.370538	175.822	78.3994	1.164298	0.041929	0.041657	79.4447	23058.5	0.039345	0.062347	1274.23	84371.6
157	2.000000	1.167041	7.36658e+06	-46489.1	955.82	-29769.4	0.000000	0.000000	7.170822	91.1072	NaN	0.000000	0.001673	0.001744	28.0903	43.3421	0.001812	23923.9	8.427002	-5.602582	88.2389	1.166723	0.044400	0.044082	91.1072	23923.9	0.041544	0.068079	1338.26	83772.2
157	2.000000	1.169547	7.36658e+06	-46489.1	955.821	-29769.4	0.000000	0.000000	7.173651	98.9574	NaN	0.000000	0.001664	0.001778	28.1286	45.7407	0.001728	26466.8	7.006044	174.491	96.7908	1.169303	0.046906	0.046662	98.9574	26466.8	0.044102	0.075059	1318.39	88261.7
157	2.000000	1.172066	7.36658e+06	-46489.1	955.82	-29769.4	0.000000	0.000000	7.176512	107.277	NaN	0.000000	0.001663	0.001797	28.1029	47.7393	0.001949	24498.9	9.006094	-6.036421	104.672	1.171711	0.049425	0.049070	107.277	24498.9	0.046141	0.080860	1326.7	78714.2
157	2.000000	1.174544	7.36658e+06	-46489.1	955.82	-29769.4	0.000000	0.000000	7.179404	117.345	NaN	0.000000	0.001678	0.001762	28.0781	49.7079	0.001729	28751.2	7.389168	172.992	116.159	1.174249	0.051903	0.051609	117.345	28751.2	0.048842	0.088868	1320.44	88116.1
157	2.000000	1.177091	7.36658e+06	-46489.1	955.82	-29769.4	0.000000	0.000000	7.182438	129.215	NaN	0.000000	0.001660	0.001744	28.0902	52.9538	0.001933	27391.9	6.773505	-4.353798	128.212	1.176631	0.054450	0.053990	129.215	27391.9	0.050912	0.095252	1356.55	81088.2
157	2.000000	1.179553	7.36658e+06	-46489.1	955.819	-29769.4	0.000000	0.000000	7.185019	132.08	NaN	0.000000	0.001629	0.001738	28.1277	54.488	0.001891	28819.3	7.881839	173.394	130.407	1.179303	0.056913	0.056662	132.08	28819.3	0.053475	0.103457	1276.67	81860.9
157	2.000000	1.182068	7.36658e+06	-46489.1	955.82	-29769.4	0.000000	0.000000	7.188106	146.003	NaN	0.000000	0.001633	0.001764	28.1023	56.4934	0.001831	30862.3	5.023315	-4.530443	143.438	1.181798	0.059427	0.059157	146.003	30862.3	0.055879	0.111446	1310.07	84463.4
157	2.000000	1.184526	7.36658e+06	-46489.1	955.82	-29769.4	0.000000	0.000000	7.191075	158.44	NaN	0.000000	0.001668	0.001743	28.0803	58.1859	0.001765	32962	2.459883	177.552	156.694	1.184248	0.061885	0.061607	158.44	32962	0.058280	0.119714	1323.49	87039.2
157	2.000000	1.187056	7.36658e+06	-46489.1	955.821	-29769.4	0.000000	0.000000	7.194394	177.627	NaN	0.000000	0.001678	0.001745	28.0898	60.1975	0.001879	32044.2	2.320132	-1.550804	174.992	1.186649	0.064415	0.064008	177.627	32044.2	0.060258	0.126733	1401.58	82238.7
157	2.000000	1.189519	7.36658e+06	-46489.1	955.82	-29769.4	0.000000	0.000000	7.197309	188.614	NaN	0.000000	0.001662	0.001717	28.1289	62.8094	0.001734	36228.3	3.887793	175.02	185.843	1.189251	0.066878	0.066610	188.614	36228.3	0.062973	0.136686	1379.91	89528.2
157	2.000000	1.192031	7.36658e+06	-46489.1	955.819	-29769.4	0.000000	0.000000	7.200477	204.581	NaN	0.000000	0.001630	0.001715	28.1039	64.3273	0.001736	37053.2	4.055604	-4.812835	201.864	1.191727	0.069390	0.069086	204.581	37053.2	0.065249	0.145302	1407.97	88810.2
157	2.000000	1.194552	7.36658e+06	-46489.1	955.821	-29769.4	0.000000	0.000000	7.203546	217.898	NaN	0.000000	0.001640	0.001670	28.0794	66.2784	0.001725	38425.8	3.980687	174.883	216.504	1.194131	0.071911	0.071490	217.898	38425.8	0.067658	0.154692	1408.59	89261
157	2.000000	1.197086	7.36658e+06	-46489.1	955.819	-29769.4	0.000000	0.000000	7.206440	226.669	NaN	0.000000	0.001662	0.001699	28.0885	70.6828	0.001757	40239.8	7.050960	-9.055537	225.695	1.196783	0.074445	0.074142	226.669	40239.8	0.070221	0.164987	1373.86	90511.6
157	2.000000	1.199568	7.36658e+06	-46489.1	955.821	-29769.4	0.000000	0.000000	7.209513	241.027	NaN	0.000000	0.001656	0.001717	28.1264	72.6824	0.001858	39120.7	1.855883	176.779	241.465	1.199361	0.076927	0.076720	241.027	39120.7	0.072307	0.173598	1388.42	85784.3
157	2.000000	1.201973	7.36658e+06	-46489.1	955.82	-29769.4	0.000000	0.000000	7.212803	262.574	NaN	0.000000	0.001626	0.001675	28.1021	73.9401	0.001795	41198.8	2.560732	-4.217528	256.749	1.201602	0.079332	0.078961	262.574	41198.8	0.074552	0.183096	1434.08	87966.6
157	2.000000	1.204631	7.36658e+06	-46489.1	955.82	-29769.4	0.000000	0.000000	7.215922	273.786	NaN	0.000000	0.001670	0.001689	28.0785	75.4479	0.001845	40890.7	2.869033	175.791	277.569	1.204285	0.081990	0.081644	273.786	40890.7	0.076968	0.193583	1414.31	84911
157	2.000000	1.207027	7.36658e+06	-46489.1	955.821	-29769.4	0.000000	0.000000	7.218934	288.753	NaN	0.000000	0.001649	0.001678	28.0895	78.3442	0.001849	42371.2	4.448878	-6.216188	286.114	1.206720	0.084387	0.084079	288.753	42371.2	0.079275	0.203852	1416.48	85740.5
157	2.000000	1.209494	7.36658e+06	-46489.1	955.82	-29769.4	0.000000	0.000000	7.222308	310.835	NaN	0.000000	0.001639	0.001710	28.1274	80.7142	0.001802	44793	4.640247	173.286	308.708	1.209145	0.086853	0.086504	310.835	44793	0.081649	0.214675	1447.93	88326.8
157	2.000000	1.211934	7.36658e+06	-46489.1	955.82	-29769.4	0.000000	0.000000	7.225542	330.132	NaN	0.000000	0.001629	0.001679	28.1032	82.4825	0.001827	45139.2	4.090971	-6.062719	322.841	1.211637	0.089294	0.088996	330.132	45139.2	0.083808	0.224751	1468.88	86991.5
157	2.000000	1.214537	7.36658e+06	-46489.1	955.82	-29769.4	0.000000	0.000000	7.228555	340.1	NaN	0.000000	0.001657	0.001673	28.0765	84.5892	0.001748	48388	3.151383	174.36	341.377	1.214181	0.091896	0.091540	340.1	48388	0.086625	0.238214	1427.71	90579
157	2.000000	1.216957	7.36658e+06	-46489.1	955.821	-29769.4	0.000000	0.000000	7.231596	355.227	NaN	0.000000	0.001671	0.001694	28.087	87.5672	0.001751	50017.9	2.415574	-5.440112	350.585	1.216723	0.094316	0.094082	355.227	50017.9	0.088990	0.249801	1422.04	91432.7
157	2.000000	1.219467	7.36658e+06	-46489.1	955.821	-29769.4	0.000000	0.000000	7.234900	374.54	NaN	0.000000	0.001653	0.001688	28.1256	91.1455	0.001804	50515.2	4.525641	172.605	371.325	1.219252	0.096826	0.096611	374.54	50515.2	0.091265	0.261193	1433.96	90305.6
157	2.000000	1.221951	7.36658e+06	-46489.1	955.82	-29769.4	0.000000	0.000000	7.238127	392.599	NaN	0.000000	0.001691	0.001644	28.1025	91.3439	0.001716	53223.8	1.155256	-4.212527	385.942	1.221645	0.099310	0.099005	392.599	53223.8	0.093778	0.274049	1432.59	92889.2
157	2.000000	1.224636	7.36658e+06	-46489.1	955.82	-29769.4	0.000000	0.000000	7.241381	406.448	NaN	0.000000	0.001620	0.001663	28.0785	94.3798	0.001833	51486.9	3.370559	173.894	414.276	1.224257	0.101996	0.101616	406.448	51486.9	0.096075	0.286051	1420.89	87952.5
157	2.000000	1.226944	7.36658e+06	-46489.1	955.82	-29769.4	0.000000	0.000000	7.244697	430.954	NaN	0.000000	0.001663	0.001628	28.088	97.2085	0.001801	53979	6.320657	-9.108742	425.513	1.226433	0.104303	0.103792	430.954	53979	0.098316	0.297992	1446.19	90343.2
157	2.000000	1.229501	7.36658e+06	-46489.1	955.82	-29769.4	0.000000	0.000000	7.248088	451.272	NaN	0.000000	0.001655	0.001695	28.127	100.086	0.001766	56683.9	5.857169	171.016	449.995	1.229208	0.106860	0.106567	451.272	56683.9	0.100889	0.311988	1446.44	92718
157	2.000000	1.230440	7.36658e+06	-46489.1	955.82	-29769.4	0.000000	0.000000	7.249318	458.323	NaN	0.000000	0.001648	0.001679	28.0779	100.466	0.001855	54167.3	5.260997	171.509	454.277	1.230108	0.107800	0.107467	458.323	54167.3	0.101454	0.315099	1454.54	88163