File: remote_trans/data/nanoindenter/0828-1/data/Data_2025-08-06,11h17m57s/2025-07-22_16-23-58_1_1057.txt
2025-07-22, 16:23:58, 1
Index	Phase	Displacement	Time	Pos X	Pos Y	Pos Z	Rot A	Rot B	Piezo Z	Force A	Force B	Gripper	Voltage A	Voltage B	Temperature	Amplitude force	Amplitude pos	Stiffness	Phase shift	Phase excitation	Force A raw	Displacement raw	HMax	HMax raw	Real Force	Real Stiffness	Contact Depth	Area	Hardness	Reduced Mod.
[#]	[#]	[um]	[s]	[um]	[um]	[um]	[m°]	[m°]	[um]	[uN]	[uN]	[V]	[V]	[V]	[°C]	[uN]	[um]	[N/m]	[°]	[°]	[uN]	[um]	[um]	[um]	[uN]	[N/m]	[um]	[um^2]	[MPa]	[MPa]
1057	1.000000	0.002822	7.37538e+06	-52989.1	1055.82	-29747.6	0.000000	0.000000	6.002815	0.032749	NaN	0.000000	0.001553	0.001701	28.0847	0.045262	0.000928	48.7827	133.545	-170.639	0.025891	0.001587	-1.096762	-1.097997	0.032749	48.7827	-1.097265	-4.606326E+14	-7.109660E-17	NaN
1057	1.000000	0.012863	7.37538e+06	-52989.1	1055.82	-29747.6	0.000000	0.000000	6.012858	0.082135	NaN	0.000000	0.001609	0.001663	28.0832	0.085599	0.001282	66.7445	-175.256	19.5583	0.101872	0.011426	-1.086721	-1.088158	0.082135	66.7445	-1.087644	-3.421149E+14	-2.400806E-16	NaN
1057	1.000000	0.022752	7.37538e+06	-52989.1	1055.82	-29747.6	0.000000	0.000000	6.022747	0.075523	NaN	0.000000	0.001551	0.001717	28.083	0.050276	0.001751	28.7202	-155.38	-167.613	0.090529	0.021519	-1.076832	-1.078065	0.075523	28.7202	-1.078804	-2.602882E+14	-2.901508E-16	NaN
1057	1.000000	0.032757	7.37538e+06	-52989.1	1055.82	-29747.6	0.000000	0.000000	6.032749	0.030283	NaN	0.000000	0.001603	0.001662	28.0831	0.097337	0.001999	48.6858	-70.7801	14.7259	0.002202	0.031416	-1.066827	-1.068168	0.030283	48.6858	-1.067294	-1.823189E+14	-1.661015E-16	NaN
1057	1.000000	0.042756	7.37538e+06	-52989.1	1055.82	-29747.6	0.000000	0.000000	6.042746	-0.029968	NaN	0.000000	0.001571	0.001698	28.0835	0.059433	0.001892	31.4093	120.324	-166.912	-0.062218	0.041483	-1.056828	-1.058101	-0.029968	31.4093	-1.056113	-1.289973E+14	2.323159E-16	NaN
1057	1.000000	0.052805	7.37538e+06	-52989.1	1055.82	-29747.6	0.000000	0.000000	6.052795	-0.021481	NaN	0.000000	0.001565	0.001699	28.0832	0.112214	0.001908	58.8118	-5.000844	15.0343	-0.030968	0.051398	-1.046779	-1.048186	-0.021481	58.8118	-1.046505	-9.581511E+13	2.241918E-16	NaN
1057	1.000000	0.062776	7.37538e+06	-52989.1	1055.82	-29747.6	0.000000	0.000000	6.062765	-0.055168	NaN	0.000000	0.001583	0.001673	28.0831	0.101696	0.002033	50.023	38.7987	-166.143	-0.030701	0.061458	-1.036808	-1.038126	-0.055168	50.023	-1.035981	-6.917103E+13	7.975553E-16	NaN
1057	1.000000	0.072754	7.37538e+06	-52989.1	1055.82	-29747.6	0.000000	0.000000	6.072743	-0.063387	NaN	0.000000	0.001592	0.001707	28.0832	0.074024	0.001964	37.694	153.625	13.4539	-0.042573	0.071410	-1.026830	-1.028175	-0.063387	37.694	-1.025569	-5.010393E+13	1.265104E-15	NaN
1057	1.000000	0.082789	7.37538e+06	-52989.1	1055.82	-29747.6	0.000000	0.000000	6.082779	-0.025195	NaN	0.000000	0.001589	0.001714	28.0834	0.012004	0.002016	5.955232	64.5971	-166.585	-0.008590	0.081471	-1.016795	-1.018113	-0.025195	5.955232	-1.013622	-3.460455E+13	7.280835E-16	NaN
1057	1.000000	0.092789	7.37539e+06	-52989.1	1055.82	-29747.6	0.000000	0.000000	6.092782	0.023978	NaN	0.000000	0.001607	0.001634	28.0833	0.080622	0.001979	40.7442	167.357	17.0399	0.034572	0.091400	-1.006795	-1.008184	0.023978	40.7442	-1.007236	-2.839089E+13	-8.445521E-16	NaN
1057	1.000000	0.102768	7.37539e+06	-52989.1	1055.82	-29747.6	0.000000	0.000000	6.102759	-0.009339	NaN	0.000000	0.001597	0.001639	28.0833	0.092527	0.002046	45.2236	124.028	-166.768	0.012076	0.101486	-0.996816	-0.998098	-0.009339	45.2236	-0.996661	-2.045577E+13	4.565292E-16	NaN
1057	1.000000	0.112798	7.37539e+06	-52989.1	1055.82	-29747.6	0.000000	0.000000	6.112789	0.003614	NaN	0.000000	0.001545	0.001680	28.0832	0.113803	0.001911	59.5669	34.7205	16.0791	0.033716	0.111434	-0.986786	-0.988150	0.003614	59.5669	-0.986832	-1.508146E+13	-2.396350E-16	NaN
1057	1.000000	0.122777	7.37539e+06	-52989.1	1055.82	-29747.6	0.000000	0.000000	6.122767	-0.021971	NaN	0.000000	0.001585	0.001662	28.0833	0.066560	0.002045	32.5551	26.5056	-168.427	-0.002459	0.121488	-0.976807	-0.978096	-0.021971	32.5551	-0.976301	-1.087869E+13	2.019650E-15	NaN
1057	1.000000	0.132785	7.37539e+06	-52989.1	1055.82	-29747.6	0.000000	0.000000	6.132776	-0.003198	NaN	0.000000	0.001603	0.001670	28.0834	0.074124	0.002121	34.955	-152.427	13.1324	0.072700	0.131406	-0.966799	-0.968178	-0.003198	34.955	-0.966731	-8.083486E+12	3.956737E-16	NaN
1057	1.000000	0.142805	7.37539e+06	-52989.1	1055.82	-29747.6	0.000000	0.000000	6.142798	0.044436	NaN	0.000000	0.001559	0.001644	28.0843	0.064053	0.002161	29.6402	-164.729	-164.719	0.063805	0.141457	-0.956779	-0.958127	0.044436	29.6402	-0.957904	-6.146223E+12	-7.229773E-15	NaN
1057	1.000000	0.152798	7.37539e+06	-52989.1	1055.82	-29747.6	0.000000	0.000000	6.152786	-0.079817	NaN	0.000000	0.001579	0.001663	28.085	0.090420	0.002090	43.2606	115.146	10.9726	0.006246	0.151454	-0.946786	-0.948131	-0.079817	43.2606	-0.945403	-4.168894E+12	1.914595E-14	NaN
1057	1.000000	0.162803	7.37539e+06	-52989.1	1055.82	-29747.6	0.000000	0.000000	6.162792	-0.051645	NaN	0.000000	0.001558	0.001687	28.0846	0.106312	0.001918	55.4295	135.65	-166.06	-0.053720	0.161500	-0.936781	-0.938084	-0.051645	55.4295	-0.936082	-3.120884E+12	1.654812E-14	NaN
1057	1.000000	0.172798	7.37539e+06	-52989.1	1055.82	-29747.6	0.000000	0.000000	6.172783	-0.144492	NaN	0.000000	0.001573	0.001653	28.0845	0.104294	0.002037	51.1979	-59.0845	13.7333	-0.197797	0.171444	-0.926786	-0.928140	-0.144492	51.1979	-0.924669	-2.188986E+12	6.600848E-14	NaN
1057	1.000000	0.182801	7.37539e+06	-52989.1	1055.82	-29747.6	0.000000	0.000000	6.182790	-0.062733	NaN	0.000000	0.001552	0.001651	28.0844	0.101923	0.001964	51.8849	170.695	-166.594	-0.069386	0.181572	-0.916783	-0.918012	-0.062733	51.8849	-0.915876	-1.665419E+12	3.766788E-14	NaN
1057	1.000000	0.192803	7.37539e+06	-52989.1	1055.82	-29747.6	0.000000	0.000000	6.192791	-0.067964	NaN	0.000000	0.001579	0.001672	28.085	0.100751	0.001886	53.4205	-60.857	13.5017	-0.086723	0.191494	-0.906781	-0.908090	-0.067964	53.4205	-0.905827	-1.218409E+12	5.578131E-14	NaN
1057	1.000000	0.202855	7.37539e+06	-52989.1	1055.82	-29747.6	0.000000	0.000000	6.202847	0.005911	NaN	0.000000	0.001576	0.001634	28.0846	0.038592	0.002202	17.5236	-150.722	-164.641	-0.063760	0.201459	-0.896729	-0.898125	0.005911	17.5236	-0.896982	-9.252910E+11	-6.388300E-15	NaN
1057	1.000000	0.212830	7.37539e+06	-52989.1	1055.82	-29747.6	0.000000	0.000000	6.212823	0.026564	NaN	0.000000	0.001556	0.001647	28.0847	0.092141	0.002021	45.59	13.4153	12.8822	0.054848	0.211443	-0.886754	-0.888141	0.026564	45.59	-0.887191	-6.822416E+11	-3.893582E-14	NaN
1057	1.000000	0.222829	7.37539e+06	-52989.1	1055.82	-29747.6	0.000000	0.000000	6.222818	-0.047834	NaN	0.000000	0.001553	0.001663	28.0845	0.054549	0.002075	26.2897	-77.6478	-161.815	0.033243	0.221535	-0.876756	-0.878049	-0.047834	26.2897	-0.875391	-4.724666E+11	1.012422E-13	NaN
1057	1.000000	0.232848	7.37539e+06	-52989.1	1055.82	-29747.6	0.000000	0.000000	6.232840	0.004727	NaN	0.000000	0.001559	0.001685	28.0849	0.133481	0.001882	70.9156	-32.7671	16.0806	-0.007969	0.231443	-0.866736	-0.868141	0.004727	70.9156	-0.866786	-3.613703E+11	-1.308090E-14	NaN
1057	1.000000	0.242840	7.37539e+06	-52989.1	1055.82	-29747.6	0.000000	0.000000	6.242833	0.041113	NaN	0.000000	0.001584	0.001662	28.0847	0.018951	0.002116	8.957906	-75.9195	-163.383	0.030675	0.241521	-0.856744	-0.858063	0.041113	8.957906	-0.860186	-2.942011E+11	-1.397454E-13	NaN
1057	1.000000	0.252831	7.37539e+06	-52989.1	1055.82	-29747.6	0.000000	0.000000	6.252822	-0.002058	NaN	0.000000	0.001579	0.001651	28.0852	0.065614	0.002000	32.8142	-29.0508	13.4212	-0.004873	0.251466	-0.846753	-0.848118	-0.002058	32.8142	-0.846706	-1.932563E+11	1.065014E-14	NaN
1057	1.000000	0.262818	7.37539e+06	-52989.1	1055.82	-29747.6	0.000000	0.000000	6.262810	0.001822	NaN	0.000000	0.001560	0.001646	28.0853	0.140271	0.002018	69.4969	102.226	-168.149	-0.018398	0.261519	-0.836766	-0.838065	0.001822	69.4969	-0.836785	-1.418205E+11	-1.285066E-14	NaN
1057	1.000000	0.272854	7.37539e+06	-52989.1	1055.82	-29747.6	0.000000	0.000000	6.272845	0.000255	NaN	0.000000	0.001603	0.001636	28.085	0.039701	0.002107	18.8467	157.619	16.4233	0.019988	0.271509	-0.826730	-0.828075	0.000255	18.8467	-0.826740	-1.036562E+11	-2.456152E-15	NaN
1057	1.000000	0.282865	7.37539e+06	-52989.1	1055.82	-29747.6	0.000000	0.000000	6.282853	-0.064177	NaN	0.000000	0.001564	0.001622	28.0837	0.095954	0.002027	47.3458	-30.1585	-168.597	-0.041076	0.281577	-0.816720	-0.818007	-0.064177	47.3458	-0.815703	-7.344017E+10	8.738677E-13	NaN
1057	1.000000	0.292882	7.37539e+06	-52989.1	1055.82	-29747.6	0.000000	0.000000	6.292874	0.020979	NaN	0.000000	0.001608	0.001674	28.0837	0.093388	0.001941	48.1014	-62.0253	11.909	-0.053001	0.291486	-0.806702	-0.808098	0.020979	48.1014	-0.807030	-5.601010E+10	-3.745516E-13	NaN
1057	1.000000	0.302845	7.37539e+06	-52989.1	1055.82	-29747.6	0.000000	0.000000	6.302837	0.028100	NaN	0.000000	0.001577	0.001641	28.0839	0.049713	0.002070	24.0118	73.2823	-165.575	-0.021779	0.301557	-0.796739	-0.798027	0.028100	24.0118	-0.797617	-4.173641E+10	-6.732725E-13	NaN
1057	1.000000	0.312883	7.37539e+06	-52989.1	1055.82	-29747.6	0.000000	0.000000	6.312875	-0.001361	NaN	0.000000	0.001581	0.001652	28.0839	0.106163	0.002043	51.9684	103.81	14.6565	0.015707	0.311495	-0.786701	-0.788089	-0.001361	51.9684	-0.786681	-2.964843E+10	4.589107E-14	NaN
1057	1.000000	0.322882	7.37539e+06	-52989.1	1055.82	-29747.6	0.000000	0.000000	6.322874	0.011770	NaN	0.000000	0.001568	0.001662	28.0836	0.061175	0.002003	30.5409	-38.2614	-167.081	0.017712	0.321539	-0.776702	-0.778045	0.011770	30.5409	-0.776991	-2.189471E+10	-5.375936E-13	NaN
1057	1.000000	0.332877	7.37539e+06	-52989.1	1055.82	-29747.6	0.000000	0.000000	6.332863	-0.120649	NaN	0.000000	0.001584	0.001657	28.0838	0.074822	0.001948	38.4127	-72.8404	12.8229	-0.176676	0.331510	-0.766707	-0.768075	-0.120649	38.4127	-0.764351	-1.473985E+10	8.185242E-12	NaN
1057	1.000000	0.342858	7.37539e+06	-52989.1	1055.82	-29747.6	0.000000	0.000000	6.342849	-0.012178	NaN	0.000000	0.001623	0.001621	28.0836	0.121554	0.001968	61.7681	111.064	-164.735	-0.023108	0.341607	-0.756726	-0.757977	-0.012178	61.7681	-0.756578	-1.155427E+10	1.053979E-12	NaN
1057	1.000000	0.352888	7.37539e+06	-52989.1	1055.82	-29747.6	0.000000	0.000000	6.352877	-0.046698	NaN	0.000000	0.001653	0.001664	28.0837	0.015277	0.001952	7.824934	-4.162207	12.563	-0.026375	0.351522	-0.746696	-0.748062	-0.046698	7.824934	-0.742221	-7.367145E+9	6.338669E-12	NaN
1057	1.000000	0.362874	7.37539e+06	-52989.1	1055.82	-29747.6	0.000000	0.000000	6.362865	-0.007353	NaN	0.000000	0.001652	0.001641	28.0837	0.050126	0.001945	25.7702	-161.555	-170.5	0.049187	0.361619	-0.736710	-0.737965	-0.007353	25.7702	-0.736496	-6.156393E+9	1.194329E-12	NaN
1057	1.000000	0.372896	7.37539e+06	-52989.1	1055.82	-29747.6	0.000000	0.000000	6.372885	-0.039765	NaN	0.000000	0.001666	0.001636	28.0841	0.087650	0.001959	44.7463	-44.1314	13.7803	-0.034536	0.371532	-0.726688	-0.728052	-0.039765	44.7463	-0.726022	-4.431814E+9	8.972555E-12	NaN
1057	1.000000	0.382889	7.37539e+06	-52989.1	1055.82	-29747.6	0.000000	0.000000	6.382881	0.016457	NaN	0.000000	0.001654	0.001719	28.0836	0.036870	0.002063	17.8746	-78.8499	-162.521	0.070851	0.381604	-0.716695	-0.717980	0.016457	17.8746	-0.717386	-3.379247E+9	-4.869984E-12	NaN
1057	1.000000	0.392904	7.37539e+06	-52989.1	1055.82	-29747.6	0.000000	0.000000	6.392898	0.045484	NaN	0.000000	0.001627	0.001744	28.084	0.050412	0.002157	23.3724	171.723	15.7272	0.042004	0.391538	-0.706680	-0.708046	0.045484	23.3724	-0.708139	-2.527268E+9	-1.799746E-11	NaN
1057	1.000000	0.402907	7.37539e+06	-52989.1	1055.82	-29747.6	0.000000	0.000000	6.402898	-0.001591	NaN	0.000000	0.001636	0.001723	28.0839	0.061209	0.002027	30.1923	-25.8925	-165.294	-0.000866	0.401635	-0.696678	-0.697949	-0.001591	30.1923	-0.696638	-1.760406E+9	9.038423E-13	NaN
1057	1.000000	0.412927	7.37539e+06	-52989.1	1055.82	-29747.6	0.000000	0.000000	6.412919	0.005638	NaN	0.000000	0.001593	0.001685	28.084	0.070115	0.001992	35.2056	-37.1193	17.0611	-0.000276	0.411570	-0.686657	-0.688014	0.005638	35.2056	-0.686777	-1.290810E+9	-4.367820E-12	NaN
1057	1.000000	0.422924	7.37539e+06	-52989.1	1055.82	-29747.6	0.000000	0.000000	6.422913	-0.054773	NaN	0.000000	0.001594	0.001693	28.0851	0.011848	0.002049	5.781820	176.591	-167.103	-0.064258	0.421593	-0.676660	-0.677991	-0.054773	5.781820	-0.669555	-7.504120E+8	7.298997E-11	NaN
1057	1.000000	0.432940	7.37539e+06	-52989.1	1055.82	-29747.6	0.000000	0.000000	6.432930	-0.027603	NaN	0.000000	0.001538	0.001724	28.0851	0.017514	0.002074	8.446278	48.3461	13.1269	0.041811	0.431522	-0.666644	-0.668062	-0.027603	8.446278	-0.664193	-6.337173E+8	4.355711E-11	NaN
1057	1.000000	0.442943	7.37539e+06	-52989.1	1055.82	-29747.6	0.000000	0.000000	6.442933	-0.027091	NaN	0.000000	0.001605	0.001703	28.0857	0.084718	0.002114	40.0811	97.4562	-162.252	-0.024206	0.441653	-0.656641	-0.657931	-0.027091	40.0811	-0.656134	-4.914814E+8	5.512111E-11	NaN
1057	1.000000	0.452956	7.37539e+06	-52989.1	1055.82	-29747.6	0.000000	0.000000	6.452945	-0.055264	NaN	0.000000	0.001590	0.001668	28.0849	0.021535	0.001988	10.8306	147.183	14.2626	-0.094219	0.451537	-0.646628	-0.648048	-0.055264	10.8306	-0.642801	-3.226408E+8	1.712870E-10	NaN
1057	1.000000	0.462956	7.37539e+06	-52989.1	1055.82	-29747.6	0.000000	0.000000	6.462946	-0.024059	NaN	0.000000	0.001574	0.001662	28.0852	0.110525	0.001795	61.5837	-155.777	-164.993	-0.018966	0.461647	-0.636628	-0.637937	-0.024059	61.5837	-0.636335	-2.630254E+8	9.147153E-11	NaN
1057	1.000000	0.472940	7.37539e+06	-52989.1	1055.82	-29747.6	0.000000	0.000000	6.472932	-0.002816	NaN	0.000000	0.001603	0.001672	28.0851	0.056733	0.002049	27.6925	-69.4977	11.5063	0.001397	0.471546	-0.626644	-0.628038	-0.002816	27.6925	-0.626567	-1.931422E+8	1.457969E-11	NaN
1057	1.000000	0.482930	7.37539e+06	-52989.1	1055.82	-29747.6	0.000000	0.000000	6.482919	-0.053319	NaN	0.000000	0.001583	0.001708	28.0852	0.059155	0.001988	29.7527	96.32	-166.41	-0.052273	0.481647	-0.616654	-0.617937	-0.053319	29.7527	-0.615310	-1.352567E+8	3.942056E-10	NaN
1057	1.000000	0.492942	7.37539e+06	-52989.1	1055.82	-29747.6	0.000000	0.000000	6.492931	-0.064057	NaN	0.000000	0.001598	0.001699	28.0848	0.085241	0.002010	42.4025	44.0331	14.1756	-0.052351	0.491573	-0.606642	-0.608011	-0.064057	42.4025	-0.605509	-9.915410E+7	6.460367E-10	NaN
1057	1.000000	0.502961	7.37539e+06	-52989.1	1055.82	-29747.6	0.000000	0.000000	6.502953	0.017108	NaN	0.000000	0.001552	0.001714	28.085	0.053960	0.002087	25.8568	62.7848	-167.49	-0.005066	0.501634	-0.596623	-0.597950	0.017108	25.8568	-0.597120	-7.599495E+7	-2.251159E-10	NaN
1057	1.000000	0.512971	7.37539e+06	-52989.1	1055.82	-29747.6	0.000000	0.000000	6.512962	0.008885	NaN	0.000000	0.001541	0.001688	28.0851	0.155171	0.002036	76.2132	73.0427	15.3241	-0.077065	0.511582	-0.586613	-0.588002	0.008885	76.2132	-0.586701	-5.459759E+7	-1.627396E-10	NaN
1057	1.000000	0.522984	7.37539e+06	-52989.1	1055.82	-29747.6	0.000000	0.000000	6.522975	-0.008980	NaN	0.000000	0.001553	0.001672	28.0851	0.129734	0.002029	63.9496	59.2777	-165.975	-0.003308	0.521641	-0.576600	-0.577943	-0.008980	63.9496	-0.576495	-3.947675E+7	2.274645E-10	NaN
1057	1.000000	0.532948	7.37539e+06	-52989.1	1055.82	-29747.6	0.000000	0.000000	6.532940	0.020909	NaN	0.000000	0.001568	0.001676	28.085	0.042085	0.001931	21.7919	15.8017	11.7896	0.015169	0.531609	-0.566636	-0.567975	0.020909	21.7919	-0.567356	-2.951805E+7	-7.083409E-10	NaN
1057	1.000000	0.542964	7.37539e+06	-52989.1	1055.82	-29747.6	0.000000	0.000000	6.542954	-0.036426	NaN	0.000000	0.001572	0.001685	28.0848	0.028558	0.002030	14.0654	126.744	-165.749	0.004171	0.541631	-0.556620	-0.557953	-0.036426	14.0654	-0.554677	-1.971155E+7	1.847965E-9	NaN
1057	1.000000	0.552982	7.37539e+06	-52989.1	1055.82	-29747.6	0.000000	0.000000	6.552973	0.004516	NaN	0.000000	0.001531	0.001674	28.0839	0.109494	0.001965	55.7128	169.505	13.44	0.008058	0.551566	-0.546602	-0.548018	0.004516	55.7128	-0.546663	-1.526599E+7	-2.958098E-10	NaN
1057	1.000000	0.562990	7.37539e+06	-52989.1	1055.82	-29747.6	0.000000	0.000000	6.562979	-0.068690	NaN	0.000000	0.001594	0.001684	28.0837	0.153187	0.002053	74.6058	106.418	-163.63	-0.115778	0.561662	-0.536594	-0.537922	-0.068690	74.6058	-0.535903	-1.082735E+7	6.344130E-9	NaN
1057	1.000000	0.572977	7.37539e+06	-52989.1	1055.82	-29747.6	0.000000	0.000000	6.572966	-0.040373	NaN	0.000000	0.001613	0.001659	28.0838	0.016266	0.001912	8.508903	12.9404	16.5942	-0.021882	0.571592	-0.526607	-0.527992	-0.040373	8.508903	-0.523049	-7.17776e+06	5.624780E-9	NaN
1057	1.000000	0.582974	7.37539e+06	-52989.1	1055.82	-29747.6	0.000000	0.000000	6.582966	0.013206	NaN	0.000000	0.001630	0.001668	28.0837	0.096331	0.001927	49.9829	113.697	-165.072	-0.014238	0.581667	-0.516610	-0.517918	0.013206	49.9829	-0.516808	-5.87755e+06	-2.246932E-9	NaN
1057	1.000000	0.592994	7.37539e+06	-52989.1	1055.82	-29747.6	0.000000	0.000000	6.592981	-0.117613	NaN	0.000000	0.001573	0.001673	28.0839	0.089882	0.001902	47.2474	49.0622	13.1735	-0.112065	0.591635	-0.506590	-0.507949	-0.117613	47.2474	-0.504723	-3.98912e+06	2.948334E-8	NaN
1057	1.000000	0.603013	7.37539e+06	-52989.1	1055.82	-29747.6	0.000000	0.000000	6.603003	-0.035069	NaN	0.000000	0.001539	0.001642	28.0836	0.089100	0.002006	44.4174	88.8376	-169.655	-0.031021	0.601670	-0.496571	-0.497914	-0.035069	44.4174	-0.495979	-3.01233e+06	1.164167E-8	NaN
1057	1.000000	0.613002	7.37539e+06	-52989.1	1055.82	-29747.6	0.000000	0.000000	6.612992	-0.030543	NaN	0.000000	0.001569	0.001654	28.0835	0.037371	0.002117	17.6523	-34.966	16.1399	0.050957	0.611648	-0.486582	-0.487936	-0.030543	17.6523	-0.485284	-2.13533e+06	1.430367E-8	NaN
1057	1.000000	0.623018	7.37539e+06	-52989.1	1055.82	-29747.6	0.000000	0.000000	6.623009	-0.023004	NaN	0.000000	0.001587	0.001641	28.0837	0.038706	0.002071	18.6914	-38.6904	-163.238	-0.055008	0.621660	-0.476566	-0.477924	-0.023004	18.6914	-0.475643	-1.56496e+06	1.469951E-8	NaN
1057	1.000000	0.633001	7.37539e+06	-52989.1	1055.82	-29747.6	0.000000	0.000000	6.632991	-0.020532	NaN	0.000000	0.001593	0.001674	28.0836	0.015508	0.001990	7.793565	-129.538	14.0011	-0.079954	0.631621	-0.466583	-0.467963	-0.020532	7.793565	-0.464608	-1.09582e+06	1.873656E-8	NaN
1057	1.000000	0.643018	7.37539e+06	-52989.1	1055.82	-29747.6	0.000000	0.000000	6.643010	0.012424	NaN	0.000000	0.001610	0.001669	28.0834	0.089450	0.002002	44.6875	-129.223	-164.628	-0.002209	0.641729	-0.456566	-0.457855	0.012424	44.6875	-0.456775	-850504	-1.460806E-8	NaN
1057	1.000000	0.653014	7.37539e+06	-52989.1	1055.82	-29747.6	0.000000	0.000000	6.653004	-0.032416	NaN	0.000000	0.001619	0.001645	28.0836	0.085520	0.001966	43.5048	100.471	14.4587	-0.036888	0.651593	-0.446570	-0.447991	-0.032416	43.5048	-0.446011	-599995	5.402698E-8	NaN
1057	1.000000	0.663012	7.37539e+06	-52989.1	1055.82	-29747.6	0.000000	0.000000	6.663003	-0.008710	NaN	0.000000	0.001564	0.001636	28.0839	0.033932	0.001882	18.0291	46.82	-164.875	-0.076419	0.661706	-0.436572	-0.437878	-0.008710	18.0291	-0.436209	-436354	1.996076E-8	NaN
1057	1.000000	0.673032	7.37539e+06	-52989.1	1055.82	-29747.6	0.000000	0.000000	6.673023	-0.003471	NaN	0.000000	0.001581	0.001645	28.0836	0.018000	0.001826	9.857434	-66.1826	14.8211	-0.037425	0.671713	-0.426552	-0.427871	-0.003471	9.857434	-0.426288	-315879	1.098796E-8	NaN
1057	1.000000	0.683005	7.37539e+06	-52989.1	1055.82	-29747.6	0.000000	0.000000	6.682995	-0.044341	NaN	0.000000	0.001603	0.001654	28.0834	0.055880	0.002094	26.6815	178.536	-166.027	0.009089	0.681719	-0.416579	-0.417865	-0.044341	26.6815	-0.415332	-220890	2.007392E-7	NaN
1057	1.000000	0.692991	7.37539e+06	-52989.1	1055.82	-29747.6	0.000000	0.000000	6.692984	0.053128	NaN	0.000000	0.001585	0.001631	28.085	0.045414	0.001923	23.614	43.0555	11.3405	-0.096062	0.691677	-0.406593	-0.407907	0.053128	23.614	-0.408281	-175366	-3.029539E-7	NaN
1057	1.000000	0.703003	7.37539e+06	-52989.1	1055.82	-29747.6	0.000000	0.000000	6.702994	-0.019834	NaN	0.000000	0.001585	0.001625	28.0849	0.067149	0.001947	34.492	-55.2324	-163.883	0.018080	0.701728	-0.396581	-0.397856	-0.019834	34.492	-0.396150	-117774	1.684075E-7	NaN
1057	1.000000	0.713065	7.37539e+06	-52989.1	1055.82	-29747.6	0.000000	0.000000	6.713054	-0.048365	NaN	0.000000	0.001595	0.001684	28.0847	0.044037	0.002086	21.1099	-101.077	16.9427	0.015115	0.711647	-0.386519	-0.387937	-0.048365	21.1099	-0.384801	-81047	5.967515E-7	NaN
1057	1.000000	0.723059	7.37539e+06	-52989.1	1055.82	-29747.6	0.000000	0.000000	6.723050	-0.008944	NaN	0.000000	0.001572	0.001678	28.0847	0.008687	0.001903	4.566071	-162.667	-167.763	-0.009540	0.721711	-0.376525	-0.377873	-0.008944	4.566071	-0.375056	-58732.8	1.522835E-7	NaN
1057	1.000000	0.733027	7.37539e+06	-52989.1	1055.82	-29747.6	0.000000	0.000000	6.733018	0.009734	NaN	0.000000	0.001581	0.001690	28.0851	0.142203	0.001897	74.9506	50.7475	14.1686	0.084273	0.731664	-0.366557	-0.367920	0.009734	74.9506	-0.366655	-44455.2	-2.189548E-7	NaN
1057	1.000000	0.743048	7.37539e+06	-52989.1	1055.82	-29747.6	0.000000	0.000000	6.743039	-0.006552	NaN	0.000000	0.001610	0.001672	28.0847	0.062175	0.002136	29.1112	96.4754	-166.171	-0.055251	0.741731	-0.356536	-0.357853	-0.006552	29.1112	-0.356367	-31571.6	2.075362E-7	NaN
1057	1.000000	0.753040	7.37539e+06	-52989.1	1055.82	-29747.6	0.000000	0.000000	6.753033	0.038464	NaN	0.000000	0.001590	0.001685	28.085	0.127824	0.002036	62.7938	-127.604	11.2842	-0.023285	0.751685	-0.346544	-0.347899	0.038464	62.7938	-0.347004	-23093.2	-1.665601E-6	NaN
1057	1.000000	0.763071	7.37539e+06	-52989.1	1055.82	-29747.6	0.000000	0.000000	6.763066	0.093284	NaN	0.000000	0.001587	0.001659	28.0847	0.021118	0.001985	10.6386	-54.0058	-166.812	0.065787	0.761782	-0.336513	-0.337802	0.093284	10.6386	-0.343090	-20256.3	-4.605184E-6	NaN
1057	1.000000	0.773039	7.37539e+06	-52989.1	1055.82	-29747.6	0.000000	0.000000	6.773031	0.023877	NaN	0.000000	0.001602	0.001611	28.085	0.057012	0.001850	30.8133	-166.13	15.2787	0.070601	0.771745	-0.326545	-0.327839	0.023877	30.8133	-0.327126	-11839.7	-2.016736E-6	NaN
1057	1.000000	0.783057	7.37539e+06	-52989.1	1055.82	-29747.6	0.000000	0.000000	6.783048	-0.019904	NaN	0.000000	0.001582	0.001638	28.0846	0.123786	0.001839	67.3056	-155.802	-164.922	-0.026595	0.781712	-0.316527	-0.317872	-0.019904	67.3056	-0.316305	-8207.31	2.425171E-6	NaN
1057	1.000000	0.793060	7.37539e+06	-52989.1	1055.82	-29747.6	0.000000	0.000000	6.793053	0.034415	NaN	0.000000	0.001609	0.001627	28.0847	0.070671	0.002030	34.8179	-170.475	15.2844	-0.038003	0.791719	-0.306524	-0.307865	0.034415	34.8179	-0.307265	-6033.22	-5.704209E-6	NaN
1057	1.000000	0.803051	7.37539e+06	-52989.1	1055.82	-29747.6	0.000000	0.000000	6.803040	-0.040034	NaN	0.000000	0.001622	0.001654	28.0846	0.094734	0.002145	44.1614	-77.5723	-166.679	0.021840	0.801739	-0.296533	-0.297845	-0.040034	44.1614	-0.295853	-4081.58	9.808457E-6	NaN
1057	1.000000	0.813044	7.37539e+06	-52989.1	1055.82	-29747.6	0.000000	0.000000	6.813036	0.018280	NaN	0.000000	0.001614	0.001618	28.0849	0.066429	0.001984	33.4843	-15.9892	12.3442	0.036448	0.811721	-0.286540	-0.287863	0.018280	33.4843	-0.286949	-3002.94	-6.087207E-6	NaN
1057	1.000000	0.823071	7.37539e+06	-52989.1	1055.82	-29747.6	0.000000	0.000000	6.823062	0.003355	NaN	0.000000	0.001603	0.001628	28.0844	0.025318	0.002030	12.4737	-172.25	-162.063	-0.000110	0.821784	-0.276513	-0.277800	0.003355	12.4737	-0.276715	-2105.48	-1.593367E-6	NaN
1057	1.000000	0.833081	7.37539e+06	-52989.1	1055.82	-29747.6	0.000000	0.000000	6.833070	-0.049793	NaN	0.000000	0.001644	0.001614	28.0834	0.047034	0.002040	23.0505	-0.417777	12.4022	-0.064901	0.831728	-0.266503	-0.267856	-0.049793	23.0505	-0.264883	-1391.9	3.577356E-5	NaN
1057	1.000000	0.843088	7.37539e+06	-52989.1	1055.82	-29747.6	0.000000	0.000000	6.843080	0.000938	NaN	0.000000	0.001619	0.001631	28.0837	0.089167	0.001995	44.6849	-110.05	-165.791	-0.027264	0.841785	-0.256496	-0.257799	0.000938	44.6849	-0.256512	-1036.02	-9.057372E-7	NaN
1057	1.000000	0.853095	7.37539e+06	-52989.1	1055.82	-29747.6	0.000000	0.000000	6.853084	-0.060265	NaN	0.000000	0.001539	0.001671	28.0836	0.008219	0.002026	4.056793	11.157	12.771	0.044584	0.851733	-0.246489	-0.247851	-0.060265	4.056793	-0.235348	-486.08	0.000124	NaN
1057	1.000000	0.863122	7.37539e+06	-52989.1	1055.82	-29747.6	0.000000	0.000000	6.863116	0.049879	NaN	0.000000	0.001575	0.001627	28.0835	0.034110	0.001868	18.2624	-147.102	-166.596	0.027549	0.861817	-0.236462	-0.237767	0.049879	18.2624	-0.238510	-544.833	-9.154846E-5	NaN
1057	1.000000	0.873072	7.37539e+06	-52989.1	1055.82	-29747.6	0.000000	0.000000	6.873064	0.015203	NaN	0.000000	0.001544	0.001644	28.0835	0.190392	0.001889	100.801	-162.653	14.3163	0.051598	0.871771	-0.226512	-0.227813	0.015203	100.801	-0.226625	-354.092	-4.293648E-5	NaN
1057	1.000000	0.883099	7.37539e+06	-52989.1	1055.82	-29747.6	0.000000	0.000000	6.883093	0.066002	NaN	0.000000	0.001525	0.001621	28.0837	0.132597	0.002053	64.6018	151.85	-169.666	-0.006662	0.881832	-0.216485	-0.217752	0.066002	64.6018	-0.217251	-250.995	-0.000263	NaN
1057	1.000000	0.893104	7.37539e+06	-52989.1	1055.82	-29747.6	0.000000	0.000000	6.893094	-0.031986	NaN	0.000000	0.001539	0.001637	28.0835	0.086541	0.001917	45.1546	-121.135	14.8778	-0.041366	0.891777	-0.206480	-0.207807	-0.031986	45.1546	-0.205949	-164.823	0.000194	NaN
1057	1.000000	0.903120	7.37539e+06	-52989.1	1055.82	-29747.6	0.000000	0.000000	6.903115	0.090825	NaN	0.000000	0.001587	0.001640	28.0836	0.066284	0.001993	33.2574	-156.833	-165.392	0.089459	0.901751	-0.196464	-0.197833	0.090825	33.2574	-0.198512	-124.513	-0.000729	NaN
1057	1.000000	0.913118	7.37539e+06	-52989.1	1055.82	-29747.6	0.000000	0.000000	6.913105	-0.088486	NaN	0.000000	0.001576	0.001680	28.0834	0.024181	0.001866	12.9572	-135.695	15.1406	-0.086065	0.911800	-0.186466	-0.187784	-0.088486	12.9572	-0.181345	-64.315	0.001376	NaN
1057	1.000000	0.923089	7.37539e+06	-52989.1	1055.82	-29747.6	0.000000	0.000000	6.923077	-0.079330	NaN	0.000000	0.001572	0.001694	28.0835	0.083439	0.001967	42.4281	34.8482	-164.461	-0.013136	0.921845	-0.176495	-0.177739	-0.079330	42.4281	-0.175092	-50.3001	0.001577	NaN
1057	1.000000	0.933130	7.37539e+06	-52989.1	1055.82	-29747.6	0.000000	0.000000	6.933123	0.037328	NaN	0.000000	0.001571	0.001652	28.083	0.018641	0.002046	9.112511	137.826	17.415	-0.008744	0.931803	-0.166454	-0.167781	0.037328	9.112511	-0.169526	-40.3065	-0.000926	NaN
1057	1.000000	0.943132	7.37539e+06	-52989.1	1055.82	-29747.6	0.000000	0.000000	6.943123	-0.005494	NaN	0.000000	0.001593	0.001726	28.0837	0.111659	0.002062	54.1444	162.863	-166.333	0.057710	0.941812	-0.156452	-0.157772	-0.005494	54.1444	-0.156376	-23.6213	0.000233	NaN
1057	1.000000	0.953131	7.37539e+06	-52989.1	1055.82	-29747.6	0.000000	0.000000	6.953123	0.012470	NaN	0.000000	0.001571	0.001693	28.0835	0.042345	0.001962	21.581	-130.342	11.476	0.029857	0.951792	-0.146453	-0.147793	0.012470	21.581	-0.146886	-15.8843	-0.000785	NaN
1057	1.000000	0.963133	7.37539e+06	-52989.1	1055.82	-29747.6	0.000000	0.000000	6.963122	-0.040197	NaN	0.000000	0.001610	0.001692	28.0852	0.035337	0.001863	18.9666	-5.080170	-165.062	-0.025144	0.961850	-0.136451	-0.137734	-0.040197	18.9666	-0.134862	-9.454773	0.004252	NaN
1057	1.000000	0.973124	7.37539e+06	-52989.1	1055.82	-29747.6	0.000000	0.000000	6.973113	-0.062170	NaN	0.000000	0.001634	0.001676	28.0848	0.021517	0.002055	10.4691	56.4778	13.4328	0.014022	0.971751	-0.126460	-0.127833	-0.062170	10.4691	-0.122006	-5.301556	0.011727	NaN
1057	1.000000	0.983152	7.37539e+06	-52989.1	1055.82	-29747.6	0.000000	0.000000	6.983141	-0.059392	NaN	0.000000	0.001622	0.001667	28.085	0.028088	0.001946	14.4357	104.164	-163.963	-0.019684	0.981790	-0.116432	-0.117794	-0.059392	14.4357	-0.113346	-3.530904	0.016821	NaN
1057	1.000000	0.993125	7.37539e+06	-52989.1	1055.82	-29747.6	0.000000	0.000000	6.993115	-0.046053	NaN	0.000000	0.001667	0.001671	28.0853	0.190165	0.002039	93.2626	-54.6181	15.8554	-0.068261	0.991784	-0.106459	-0.107800	-0.046053	93.2626	-0.106088	-2.480969	0.018563	NaN
1057	1.000000	1.003134	7.37539e+06	-52989.1	1055.82	-29747.6	0.000000	0.000000	7.003128	0.061998	NaN	0.000000	0.001621	0.001641	28.0851	0.063568	0.001930	32.9389	174.333	-165.865	0.061690	1.001854	-0.096450	-0.097730	0.061998	32.9389	-0.097862	-1.637221	-0.037868	NaN
1057	1.000000	1.013160	7.37539e+06	-52989.1	1055.82	-29747.6	0.000000	0.000000	7.013153	0.043857	NaN	0.000000	0.001596	0.001660	28.0852	0.086214	0.001984	43.46	-137.338	13.8553	0.062758	1.011774	-0.086424	-0.087810	0.043857	43.46	-0.087181	-0.927031	-0.047309	NaN
1057	1.000000	1.023142	7.37539e+06	-52989.1	1055.82	-29747.6	0.000000	0.000000	7.023133	-0.001055	NaN	0.000000	0.001635	0.001658	28.0852	0.046826	0.001992	23.5068	-149.781	-168.157	0.014922	1.021853	-0.076442	-0.077731	-0.001055	23.5068	-0.076408	-0.502087	0.002101	NaN
1057	1.000000	1.033202	7.37539e+06	-52989.1	1055.82	-29747.6	0.000000	0.000000	7.033193	0.008155	NaN	0.000000	0.001642	0.001648	28.0851	0.074063	0.002014	36.7789	84.0755	13.8466	0.044083	1.031805	-0.066382	-0.067779	0.008155	36.7789	-0.066549	-0.274982	-0.029657	NaN
1057	1.000000	1.043157	7.37539e+06	-52989.1	1055.82	-29747.6	0.000000	0.000000	7.043149	0.010673	NaN	0.000000	0.001589	0.001612	28.0849	0.157223	0.001902	82.643	-19.2581	-166.135	-0.070538	1.041861	-0.056427	-0.057723	0.010673	82.643	-0.056524	-0.142785	-0.074751	NaN
1057	1.000000	1.053158	7.37539e+06	-52989.1	1055.82	-29747.6	0.000000	0.000000	7.053152	0.049945	NaN	0.000000	0.001583	0.001659	28.0847	0.024596	0.002122	11.5929	-166.349	18.2377	0.070180	1.051789	-0.046426	-0.047795	0.049945	11.5929	-0.049657	-0.089095	-0.560581	NaN
1057	1.000000	1.063182	7.37539e+06	-52989.1	1055.82	-29747.6	0.000000	0.000000	7.063172	-0.040353	NaN	0.000000	0.001591	0.001657	28.0851	0.034418	0.001933	17.8093	81.0944	-166.538	-0.048673	1.061805	-0.036402	-0.037779	-0.040353	17.8093	-0.034702	-0.031385	1.285709	NaN
1057	1.000000	1.073177	7.37539e+06	-52989.1	1055.82	-29747.6	0.000000	0.000000	7.073169	0.031294	NaN	0.000000	0.001553	0.001653	28.0846	0.097220	0.001863	52.182	-112.725	12.3919	-0.007700	1.071836	-0.026407	-0.027748	0.031294	52.182	-0.026857	-0.018888	-1.656845	NaN
1057	1.000000	1.083181	7.37539e+06	-52989.1	1055.82	-29747.6	0.000000	0.000000	7.083171	-0.027683	NaN	0.000000	0.001567	0.001645	28.085	0.107814	0.001973	54.6547	-114.918	-165.411	-0.024307	1.081876	-0.016404	-0.017708	-0.027683	54.6547	-0.016024	-0.009898	2.796983	NaN
1057	1.000000	1.093200	7.37539e+06	-52989.1	1055.82	-29747.6	0.000000	0.000000	7.093192	0.021771	NaN	0.000000	0.001566	0.001662	28.0848	0.116011	0.002057	56.3897	169.655	15.4537	-0.077038	1.091824	-0.006384	-0.007760	0.021771	56.3897	-0.006674	-0.004445	-4.897778	NaN
1057	1.000000	1.103175	7.37539e+06	-52989.1	1055.82	-29747.6	0.000000	0.000000	7.103345	4.358564	NaN	0.000000	0.001555	0.001618	28.0839	5.054694	0.001885	2681.74	10.5939	-168.962	2.888011	1.101834	0.003590	0.002250	4.358564	2681.74	0.002372	0.001858	2346.45	56849.1
1057	2.000000	1.108316	7.37539e+06	-52989.1	1055.82	-29747.6	0.000000	0.000000	7.108665	8.677282	NaN	0.000000	0.001579	0.001631	28.0837	9.492670	0.001752	5416.72	12.8146	3.144984	7.945458	1.107980	0.008732	0.008396	8.677282	5416.72	0.007531	0.006564	1321.9	61082.5
1057	2.000000	1.110804	7.37539e+06	-52989.1	1055.82	-29747.6	0.000000	0.000000	7.111286	11.9334	NaN	0.000000	0.001572	0.001687	28.0837	12.129	0.001710	7092.98	9.046617	-175.507	11.371	1.110494	0.011220	0.010910	11.9334	7092.98	0.009958	0.009135	1306.34	67802.8
1057	2.000000	1.113331	7.37539e+06	-52989.1	1055.82	-29747.6	0.000000	0.000000	7.113983	16.0584	NaN	0.000000	0.001591	0.001632	28.0837	14.5071	0.001666	8707.95	10.3637	2.103301	15.3798	1.112934	0.013747	0.013350	16.0584	8707.95	0.012364	0.011929	1346.18	72843.4
1057	2.000000	1.115793	7.37539e+06	-52989.1	1055.82	-29747.6	0.000000	0.000000	7.116628	20.5125	NaN	0.000000	0.001577	0.001658	28.0836	17.0941	0.001758	9724.11	4.952725	-174.072	19.4926	1.115418	0.016209	0.015834	20.5125	9724.11	0.014627	0.014791	1386.79	73049.8
1057	2.000000	1.118231	7.37539e+06	-52989.1	1055.82	-29747.6	0.000000	0.000000	7.119293	26.0555	NaN	0.000000	0.001629	0.001669	28.0835	19.2622	0.001717	11221.1	4.799072	3.783056	24.6321	1.117951	0.018647	0.018367	26.0555	11221.1	0.016905	0.017910	1454.79	76605.4
1057	2.000000	1.120756	7.37539e+06	-52989.1	1055.82	-29747.6	0.000000	0.000000	7.121978	29.9184	NaN	0.000000	0.001560	0.001624	28.0838	22.7432	0.001848	12307	5.527705	-177.4	29.085	1.120470	0.021172	0.020886	29.9184	12307	0.019348	0.021529	1389.7	76633.2
1057	2.000000	1.123235	7.37539e+06	-52989.1	1055.82	-29747.6	0.000000	0.000000	7.124842	39.296	NaN	0.000000	0.001572	0.001641	28.0835	25.0587	0.001742	14388.4	8.832085	-1.994823	37.8355	1.122867	0.023651	0.023283	39.296	14388.4	0.021602	0.025123	1564.13	82936.8
1057	2.000000	1.125739	7.37539e+06	-52989.1	1055.82	-29747.6	0.000000	0.000000	7.127577	44.9038	NaN	0.000000	0.001606	0.001662	28.0836	27.1034	0.001700	15942.8	3.431421	-178.698	44.4864	1.125381	0.026155	0.025797	44.9038	15942.8	0.024043	0.029297	1532.7	85099.3
1057	2.000000	1.128214	7.37539e+06	-52989.1	1055.82	-29747.6	0.000000	0.000000	7.130349	52.1057	NaN	0.000000	0.001589	0.001663	28.0835	30.0669	0.001756	17126.9	6.429957	-1.603661	50.8849	1.127926	0.028630	0.028342	52.1057	17126.9	0.026349	0.033515	1554.7	85473.5
1057	2.000000	1.130757	7.37539e+06	-52989.1	1055.82	-29747.6	0.000000	0.000000	7.133199	59.5795	NaN	0.000000	0.001684	0.001659	28.0836	33.3792	0.001888	17683.4	8.309096	176.284	59.308	1.130374	0.031173	0.030790	59.5795	17683.4	0.028646	0.037985	1568.5	82895.9
1057	2.000000	1.133198	7.37539e+06	-52989.1	1055.82	-29747.6	0.000000	0.000000	7.135984	67.9613	NaN	0.000000	0.001649	0.001665	28.0835	34.754	0.001763	19713.7	5.346146	-2.076741	64.8497	1.132785	0.033614	0.033201	67.9613	19713.7	0.031028	0.042901	1584.12	86957.3
1057	2.000000	1.135659	7.37539e+06	-52989.1	1055.82	-29747.6	0.000000	0.000000	7.138918	79.4672	NaN	0.000000	0.001634	0.001653	28.0836	36.0621	0.001698	21237.3	1.956832	-179.133	76.9887	1.135422	0.036075	0.035838	79.4672	21237.3	0.033268	0.047791	1662.82	88756.9
1057	2.000000	1.138192	7.37539e+06	-52989.1	1055.82	-29747.6	0.000000	0.000000	7.141925	90.9779	NaN	0.000000	0.001648	0.001654	28.0839	39.2706	0.001775	22128.3	6.737498	-3.704833	88.9039	1.137837	0.038608	0.038253	90.9779	22128.3	0.035524	0.052974	1717.42	87840.1
1057	2.000000	1.140742	7.37539e+06	-52989.1	1055.82	-29747.6	0.000000	0.000000	7.144724	97.0254	NaN	0.000000	0.001630	0.001647	28.0846	42.211	0.001735	24330.2	5.522312	175.408	96.7908	1.140455	0.041158	0.040871	97.0254	24330.2	0.038167	0.059378	1634.04	91223.6
1057	2.000000	1.143203	7.37539e+06	-52989.1	1055.82	-29747.6	0.000000	0.000000	7.147637	108.027	NaN	0.000000	0.001602	0.001639	28.0846	44.1372	0.001728	25548.1	8.407175	-6.910050	105.62	1.142918	0.043619	0.043334	108.027	25548.1	0.040447	0.065190	1657.11	91420
1057	2.000000	1.145655	7.37539e+06	-52989.1	1055.82	-29747.6	0.000000	0.000000	7.150540	118.976	NaN	0.000000	0.001601	0.001630	28.0847	47.1021	0.001848	25483.9	6.708827	174.774	117.734	1.145348	0.046071	0.045764	118.976	25483.9	0.042569	0.070837	1679.58	87480.1
1057	2.000000	1.148195	7.37539e+06	-52989.1	1055.82	-29747.6	0.000000	0.000000	7.153599	131.605	NaN	0.000000	0.001578	0.001671	28.0847	50.7543	0.001886	26910.3	8.620050	-7.772271	130.757	1.147721	0.048611	0.048137	131.605	26910.3	0.044943	0.077426	1699.75	88358.2
1057	2.000000	1.150715	7.37539e+06	-52989.1	1055.82	-29747.6	0.000000	0.000000	7.156601	143.319	NaN	0.000000	0.001548	0.001685	28.0848	52.3833	0.001839	28484.6	3.165818	177.447	142.188	1.150376	0.051131	0.050792	143.319	28484.6	0.047358	0.084421	1697.68	89569.1
1057	2.000000	1.153195	7.37539e+06	-52989.1	1055.82	-29747.6	0.000000	0.000000	7.159496	153.395	NaN	0.000000	0.001554	0.001623	28.0848	54.1867	0.001797	30150	5.075205	-4.509083	150.253	1.152814	0.053611	0.053230	153.395	30150	0.049795	0.091782	1671.31	90924.7
1057	2.000000	1.155660	7.37539e+06	-52989.1	1055.82	-29747.6	0.000000	0.000000	7.162500	166.519	NaN	0.000000	0.001572	0.001622	28.0848	56.9848	0.001837	31022.8	4.831938	175.226	163.826	1.155275	0.056076	0.055691	166.519	31022.8	0.052051	0.098857	1684.45	90146.9
1057	2.000000	1.158158	7.37539e+06	-52989.1	1055.82	-29747.6	0.000000	0.000000	7.165810	186.277	NaN	0.000000	0.001523	0.001659	28.0847	60.2167	0.001793	33579.1	8.135340	-8.230146	181.747	1.157670	0.058574	0.058086	186.277	33579.1	0.054413	0.106540	1748.43	93990.9
1057	2.000000	1.160618	7.37539e+06	-52989.1	1055.82	-29747.6	0.000000	0.000000	7.168812	199.433	NaN	0.000000	0.001558	0.001608	28.0848	62.3442	0.001810	34450	3.820564	175.531	197.513	1.160388	0.061034	0.060804	199.433	34450	0.056692	0.114215	1746.12	93132.3
1057	2.000000	1.163236	7.37539e+06	-52989.1	1055.82	-29747.6	0.000000	0.000000	7.171935	211.724	NaN	0.000000	0.001579	0.001637	28.0849	64.5586	0.001787	36120.5	6.208644	-6.918082	211.964	1.162763	0.063652	0.063179	211.724	36120.5	0.059256	0.123152	1719.2	94038.5
1057	2.000000	1.165682	7.37539e+06	-52989.1	1055.82	-29747.6	0.000000	0.000000	7.174875	223.744	NaN	0.000000	0.001612	0.001627	28.0847	66.4754	0.001718	38684.3	4.915613	173.527	225.261	1.165264	0.066097	0.065680	223.744	38684.3	0.061760	0.132194	1692.55	97208.3
1057	2.000000	1.168155	7.37539e+06	-52989.1	1055.82	-29747.6	0.000000	0.000000	7.178079	241.5	NaN	0.000000	0.001639	0.001612	28.0848	71.0834	0.001888	37655	8.639588	-10.1077	239.44	1.167721	0.068571	0.068137	241.5	37655	0.063761	0.139638	1729.47	92064.8
1057	2.000000	1.170614	7.37539e+06	-52989.1	1055.82	-29747.6	0.000000	0.000000	7.181095	255.031	NaN	0.000000	0.001640	0.001621	28.0846	72.8174	0.001815	40120.3	8.493682	168.716	251.756	1.170487	0.071030	0.070903	255.031	40120.3	0.066263	0.149219	1709.11	94891.2
1057	2.000000	1.173278	7.37539e+06	-52989.1	1055.82	-29747.6	0.000000	0.000000	7.184081	262.859	NaN	0.000000	0.001569	0.001656	28.0837	74.2674	0.001860	39918.2	4.740341	-7.086787	265.657	1.173035	0.073694	0.073451	262.859	39918.2	0.068755	0.159062	1652.56	91445.4
1057	2.000000	1.175726	7.37539e+06	-52989.1	1055.82	-29747.6	0.000000	0.000000	7.187500	286.472	NaN	0.000000	0.001566	0.001631	28.0833	76.5151	0.001768	43280.3	5.331970	171.892	287.908	1.175308	0.076142	0.075724	286.472	43280.3	0.071178	0.168912	1695.99	96212.9
1057	2.000000	1.178097	7.37539e+06	-52989.1	1055.82	-29747.6	0.000000	0.000000	7.190659	305.626	NaN	0.000000	0.001539	0.001669	28.0836	79.9991	0.001933	41375.4	6.271837	-8.655013	300.828	1.177698	0.078513	0.078114	305.626	41375.4	0.072973	0.176392	1732.65	90006.8
1057	2.000000	1.180500	7.37539e+06	-52989.1	1055.82	-29747.6	0.000000	0.000000	7.193723	321.725	NaN	0.000000	0.001569	0.001715	28.0835	81.6473	0.001891	43167.3	6.271226	170.726	313.184	1.180214	0.080916	0.080630	321.725	43167.3	0.075326	0.186426	1725.75	91343
1057	2.000000	1.183221	7.37539e+06	-52989.1	1055.82	-29747.6	0.000000	0.000000	7.197266	341.693	NaN	0.000000	0.001591	0.001695	28.0838	82.5173	0.001764	46789.8	2.978495	-5.859341	340.131	1.182822	0.083637	0.083238	341.693	46789.8	0.078160	0.198854	1718.31	95864.2
1057	2.000000	1.185784	7.37539e+06	-52989.1	1055.82	-29747.6	0.000000	0.000000	7.200424	356.172	NaN	0.000000	0.001557	0.001687	28.0835	85.5111	0.001678	50957.4	5.628909	170.672	364.827	1.185425	0.086200	0.085841	356.172	50957.4	0.080957	0.211495	1684.07	101235
1057	2.000000	1.188169	7.37539e+06	-52989.1	1055.82	-29747.6	0.000000	0.000000	7.203832	381.026	NaN	0.000000	0.001500	0.001717	28.0838	89.2817	0.001797	49685.6	6.484902	-10.1942	380.938	1.187635	0.088585	0.088051	381.026	49685.6	0.082834	0.220176	1730.55	96742.9
1057	2.000000	1.190652	7.37539e+06	-52989.1	1055.82	-29747.6	0.000000	0.000000	7.207189	402.287	NaN	0.000000	0.001542	0.001685	28.0839	92.1123	0.001777	51835.4	5.057794	170.908	402.271	1.190332	0.091068	0.090748	402.287	51835.4	0.085247	0.231582	1737.12	98411.7
1057	2.000000	1.193188	7.37539e+06	-52989.1	1055.82	-29747.6	0.000000	0.000000	7.210436	419.58	NaN	0.000000	0.001573	0.001694	28.0838	94.4907	0.001815	52051	7.591986	-11.8266	416.963	1.192833	0.093604	0.093249	419.58	52051	0.087558	0.242756	1728.4	96519.9
1057	2.000000	1.195649	7.37539e+06	-52989.1	1055.82	-29747.6	0.000000	0.000000	7.213973	445.734	NaN	0.000000	0.001564	0.001700	28.0838	94.9299	0.001778	53391.3	1.967909	173.719	444.245	1.195284	0.096065	0.095700	445.734	53391.3	0.089804	0.253849	1755.9	96818
1057	2.000000	1.198219	7.37539e+06	-52989.1	1055.82	-29747.6	0.000000	0.000000	7.216755	450.887	NaN	0.000000	0.001575	0.001679	28.0839	98.9369	0.001843	53671.4	2.963383	-7.176097	451.624	1.197810	0.098635	0.098226	450.887	53671.4	0.092334	0.266626	1691.08	94965.3
1057	2.000000	1.200730	7.37539e+06	-52989.1	1055.82	-29747.6	0.000000	0.000000	7.219941	467.288	NaN	0.000000	0.001538	0.001699	28.0837	101.286	0.001730	58545.9	4.243250	170.465	470.579	1.200622	0.101146	0.101038	467.288	58545.9	0.095160	0.281242	1661.52	100862
1057	2.000000	1.203025	7.37539e+06	-52989.1	1055.82	-29747.6	0.000000	0.000000	7.223698	502.826	NaN	0.000000	0.001637	0.001668	28.0839	102.969	0.001732	59458.4	4.478481	-9.479467	493.015	1.202763	0.103441	0.103179	502.826	59458.4	0.097099	0.291479	1725.08	100620
1057	2.000000	1.205263	7.37539e+06	-52989.1	1055.82	-29747.6	0.000000	0.000000	7.226709	521.635	NaN	0.000000	0.001616	0.001669	28.0838	106.457	0.001818	58549.5	7.768042	-12.9984	525.804	1.204851	0.105679	0.105267	521.635	58549.5	0.098997	0.301670	1729.16	97393.5