File: remote_trans/data/nanoindenter/0828-1/data/Data_2025-08-06,11h17m57s/2025-07-22_16-23-58_1_708.txt
2025-07-22, 16:23:58, 1
Index	Phase	Displacement	Time	Pos X	Pos Y	Pos Z	Rot A	Rot B	Piezo Z	Force A	Force B	Gripper	Voltage A	Voltage B	Temperature	Amplitude force	Amplitude pos	Stiffness	Phase shift	Phase excitation	Force A raw	Displacement raw	HMax	HMax raw	Real Force	Real Stiffness	Contact Depth	Area	Hardness	Reduced Mod.
[#]	[#]	[um]	[s]	[um]	[um]	[um]	[m°]	[m°]	[um]	[uN]	[uN]	[V]	[V]	[V]	[°C]	[uN]	[um]	[N/m]	[°]	[°]	[uN]	[um]	[um]	[um]	[uN]	[N/m]	[um]	[um^2]	[MPa]	[MPa]
708	1.000000	0.002767	7.37198e+06	-41689.1	1005.82	-29785.3	0.000000	0.000000	6.002793	0.026558	NaN	0.000000	0.001608	0.001756	28.0832	0.084208	0.001107	76.0779	98.8718	-169.7	-0.001797	0.001521	-1.188060	-1.189305	0.026558	76.0779	-1.188321	-7.661992E+15	-3.466206E-18	NaN
708	1.000000	0.012822	7.37198e+06	-41689.1	1005.82	-29785.3	0.000000	0.000000	6.012844	-0.057993	NaN	0.000000	0.001630	0.001768	28.0831	0.084359	0.001247	67.6744	-123.205	16.2371	-0.086739	0.011335	-1.178005	-1.179492	-0.057993	67.6744	-1.177362	-5.464208E+15	1.061332E-17	NaN
708	1.000000	0.022713	7.37198e+06	-41689.1	1005.82	-29785.3	0.000000	0.000000	6.022738	0.010400	NaN	0.000000	0.001631	0.001791	28.0816	0.007894	0.001732	4.557376	126.765	-166.409	0.025473	0.021389	-1.168114	-1.169438	0.010400	4.557376	-1.169825	-4.330576E+15	-2.401585E-18	NaN
708	1.000000	0.032737	7.37198e+06	-41689.1	1005.82	-29785.3	0.000000	0.000000	6.032764	0.067132	NaN	0.000000	0.001623	0.001773	28.082	0.013281	0.001999	6.643661	-23.233	11.3323	0.007937	0.031368	-1.158089	-1.159459	0.067132	6.643661	-1.165668	-3.809179E+15	-1.762371E-17	NaN
708	1.000000	0.042704	7.37198e+06	-41689.1	1005.82	-29785.3	0.000000	0.000000	6.042732	0.059376	NaN	0.000000	0.001628	0.001768	28.0822	0.058553	0.001900	30.8174	-68.9317	-170.874	0.053097	0.041414	-1.148122	-1.149412	0.059376	30.8174	-1.149567	-2.317462E+15	-2.562121E-17	NaN
708	1.000000	0.052720	7.37198e+06	-41689.1	1005.82	-29785.3	0.000000	0.000000	6.052742	-0.064977	NaN	0.000000	0.001627	0.001758	28.082	0.110989	0.001928	57.5765	-93.0169	18.3472	-0.020394	0.051406	-1.138106	-1.139420	-0.064977	57.5765	-1.137260	-1.584849E+15	4.099885E-17	NaN
708	1.000000	0.062703	7.37198e+06	-41689.1	1005.82	-29785.3	0.000000	0.000000	6.062729	0.028801	NaN	0.000000	0.001623	0.001791	28.0819	0.026941	0.002109	12.7761	27.1521	-164.855	-0.000199	0.061455	-1.128124	-1.129371	0.028801	12.7761	-1.129814	-1.259309E+15	-2.287009E-17	NaN
708	1.000000	0.072707	7.37198e+06	-41689.1	1005.82	-29785.3	0.000000	0.000000	6.072730	-0.041379	NaN	0.000000	0.001712	0.001754	28.0821	0.072990	0.001946	37.5091	12.0941	14.619	-0.014394	0.071345	-1.118120	-1.119482	-0.041379	37.5091	-1.117292	-8.553444E+14	4.837660E-17	NaN
708	1.000000	0.082719	7.37198e+06	-41689.1	1005.82	-29785.3	0.000000	0.000000	6.082742	-0.054775	NaN	0.000000	0.001668	0.001803	28.0818	0.051729	0.002169	23.853	64.1478	-166.061	-0.075092	0.081422	-1.108107	-1.109405	-0.054775	23.853	-1.106385	-6.106141E+14	8.970495E-17	NaN
708	1.000000	0.092734	7.37198e+06	-41689.1	1005.82	-29785.3	0.000000	0.000000	6.092758	-0.008036	NaN	0.000000	0.001685	0.001801	28.0816	0.025590	0.001922	13.3148	126.182	12.9255	0.052016	0.091399	-1.098092	-1.099427	-0.008036	13.3148	-1.097640	-4.659965E+14	1.724566E-17	NaN
708	1.000000	0.102765	7.37198e+06	-41689.1	1005.82	-29785.3	0.000000	0.000000	6.102791	0.034456	NaN	0.000000	0.001597	0.001744	28.0813	0.095720	0.001931	49.5624	-12.7078	-164.896	0.040202	0.101432	-1.088061	-1.089395	0.034456	49.5624	-1.088583	-3.521923E+14	-9.783339E-17	NaN
708	1.000000	0.112727	7.37198e+06	-41689.1	1005.82	-29785.3	0.000000	0.000000	6.112751	-0.028105	NaN	0.000000	0.001623	0.001751	28.0815	0.033030	0.001938	17.0467	-116.6	12.2948	0.001547	0.111425	-1.078099	-1.079401	-0.028105	17.0467	-1.076862	-2.451184E+14	1.146575E-16	NaN
708	1.000000	0.122751	7.37198e+06	-41689.1	1005.82	-29785.3	0.000000	0.000000	6.122775	-0.034475	NaN	0.000000	0.001587	0.001782	28.0813	0.082023	0.001942	42.2462	-108.136	-166.885	-0.022348	0.121499	-1.068075	-1.069327	-0.034475	42.2462	-1.067463	-1.832748E+14	1.881065E-16	NaN
708	1.000000	0.132765	7.37198e+06	-41689.1	1005.82	-29785.3	0.000000	0.000000	6.132789	-0.018171	NaN	0.000000	0.001613	0.001743	28.0813	0.055200	0.002001	27.5819	101.061	14.4197	-0.078392	0.131403	-1.058062	-1.059423	-0.018171	27.5819	-1.057567	-1.349365E+14	1.346668E-16	NaN
708	1.000000	0.142736	7.37198e+06	-41689.1	1005.82	-29785.3	0.000000	0.000000	6.142760	-0.014413	NaN	0.000000	0.001628	0.001750	28.0816	0.061616	0.002141	28.7811	123.106	-167.369	0.026871	0.141444	-1.048090	-1.049382	-0.014413	28.7811	-1.047714	-9.946911E+13	1.448981E-16	NaN
708	1.000000	0.152738	7.37198e+06	-41689.1	1005.82	-29785.3	0.000000	0.000000	6.152763	0.018227	NaN	0.000000	0.001704	0.001775	28.0815	0.074129	0.002165	34.2476	-134.233	15.4623	-0.001029	0.151395	-1.038088	-1.039432	0.018227	34.2476	-1.038488	-7.475314E+13	-2.438268E-16	NaN
708	1.000000	0.162781	7.37198e+06	-41689.1	1005.82	-29785.3	0.000000	0.000000	6.162805	-0.020370	NaN	0.000000	0.001679	0.001755	28.0829	0.048697	0.001893	25.7243	-106.833	-162.874	-0.009985	0.161458	-1.028045	-1.029368	-0.020370	25.7243	-1.027451	-5.311278E+13	3.835151E-16	NaN
708	1.000000	0.172801	7.37198e+06	-41689.1	1005.82	-29785.3	0.000000	0.000000	6.172826	0.015358	NaN	0.000000	0.001685	0.001760	28.0827	0.029142	0.001968	14.8113	-81.8201	9.757852	-0.001442	0.171379	-1.018026	-1.019447	0.015358	14.8113	-1.018803	-4.063043E+13	-3.779823E-16	NaN
708	1.000000	0.182760	7.37198e+06	-41689.1	1005.82	-29785.3	0.000000	0.000000	6.182785	-0.001087	NaN	0.000000	0.001688	0.001760	28.083	0.101287	0.001974	51.3124	1.005427	-166.235	0.041418	0.181471	-1.008066	-1.009356	-0.001087	51.3124	-1.008050	-2.911622E+13	3.732559E-17	NaN
708	1.000000	0.192789	7.37198e+06	-41689.1	1005.82	-29785.3	0.000000	0.000000	6.192814	0.008298	NaN	0.000000	0.001689	0.001759	28.0828	0.062482	0.002140	29.1963	-86.7219	12.4677	0.021548	0.191428	-0.998037	-0.999398	0.008298	29.1963	-0.998250	-2.148876E+13	-3.861482E-16	NaN
708	1.000000	0.202777	7.37198e+06	-41689.1	1005.82	-29785.3	0.000000	0.000000	6.202802	0.002122	NaN	0.000000	0.001682	0.001789	28.0828	0.075041	0.001957	38.335	-157.825	-170.522	0.032668	0.201488	-0.988049	-0.989339	0.002122	38.335	-0.988091	-1.568176E+13	-1.353377E-16	NaN
708	1.000000	0.212799	7.37198e+06	-41689.1	1005.82	-29785.3	0.000000	0.000000	6.212825	0.021137	NaN	0.000000	0.001680	0.001756	28.0829	0.078647	0.002024	38.8655	-160.701	10.7467	-0.044428	0.211401	-0.978027	-0.979425	0.021137	38.8655	-0.978435	-1.162328E+13	-1.818524E-15	NaN
708	1.000000	0.222790	7.37198e+06	-41689.1	1005.82	-29785.3	0.000000	0.000000	6.222813	-0.033229	NaN	0.000000	0.001648	0.001726	28.0831	0.015935	0.002002	7.961132	96.3959	-165.473	-0.046207	0.221475	-0.968036	-0.969352	-0.033229	7.961132	-0.964906	-7.638424E+12	4.350306E-15	NaN
708	1.000000	0.232799	7.37198e+06	-41689.1	1005.82	-29785.3	0.000000	0.000000	6.232823	-0.005513	NaN	0.000000	0.001620	0.001789	28.0828	0.032225	0.001965	16.3977	-92.1388	13.227	0.078049	0.231419	-0.958028	-0.959408	-0.005513	16.3977	-0.957776	-6.121785E+12	9.005254E-16	NaN
708	1.000000	0.242820	7.37198e+06	-41689.1	1005.82	-29785.3	0.000000	0.000000	6.242847	0.057639	NaN	0.000000	0.001619	0.001761	28.0829	0.082011	0.001979	41.4311	-115.824	-167.165	0.060236	0.241502	-0.948006	-0.949324	0.057639	41.4311	-0.949050	-4.668886E+12	-1.234528E-14	NaN
708	1.000000	0.252793	7.37198e+06	-41689.1	1005.82	-29785.3	0.000000	0.000000	6.252817	-0.009061	NaN	0.000000	0.001669	0.001814	28.0831	0.078866	0.001934	40.7824	-68.4987	10.9216	-0.086790	0.251397	-0.938033	-0.939430	-0.009061	40.7824	-0.937867	-3.298773E+12	2.746802E-15	NaN
708	1.000000	0.262795	7.37198e+06	-41689.1	1005.82	-29785.3	0.000000	0.000000	6.262816	-0.078449	NaN	0.000000	0.001695	0.001750	28.0824	0.053986	0.001836	29.4027	130.757	-168.019	-0.038827	0.261495	-0.928032	-0.929331	-0.078449	29.4027	-0.926030	-2.283592E+12	3.435313E-14	NaN
708	1.000000	0.272792	7.37198e+06	-41689.1	1005.82	-29785.3	0.000000	0.000000	6.272817	-0.003459	NaN	0.000000	0.001734	0.001758	28.0828	0.068714	0.001918	35.8319	-160.168	17.447	0.027607	0.271436	-0.918034	-0.919391	-0.003459	35.8319	-0.917962	-1.776994E+12	1.946786E-15	NaN
708	1.000000	0.282822	7.37198e+06	-41689.1	1005.82	-29785.3	0.000000	0.000000	6.282845	-0.044280	NaN	0.000000	0.001695	0.001781	28.0828	0.086528	0.002155	40.1435	123.816	-165.282	-0.004203	0.281513	-0.908004	-0.909313	-0.044280	40.1435	-0.907177	-1.270654E+12	3.484782E-14	NaN
708	1.000000	0.292842	7.37198e+06	-41689.1	1005.82	-29785.3	0.000000	0.000000	6.292867	0.009006	NaN	0.000000	0.001678	0.001780	28.0828	0.061949	0.002023	30.6266	-144.396	17.1406	0.053222	0.291505	-0.897984	-0.899321	0.009006	30.6266	-0.898205	-9.611938E+11	-9.369544E-15	NaN
708	1.000000	0.302816	7.37198e+06	-41689.1	1005.82	-29785.3	0.000000	0.000000	6.302840	-0.001173	NaN	0.000000	0.001725	0.001764	28.0816	0.087977	0.002182	40.3151	-20.0071	-171.491	0.018880	0.301548	-0.888011	-0.889278	-0.001173	40.3151	-0.887989	-6.994001E+11	1.676840E-15	NaN
708	1.000000	0.312833	7.37198e+06	-41689.1	1005.82	-29785.3	0.000000	0.000000	6.312858	-0.007148	NaN	0.000000	0.001711	0.001759	28.0815	0.046478	0.002097	22.1601	-66.2745	13.0602	0.007142	0.311515	-0.877993	-0.879312	-0.007148	22.1601	-0.877751	-5.085045E+11	1.405679E-14	NaN
708	1.000000	0.322826	7.37198e+06	-41689.1	1005.82	-29785.3	0.000000	0.000000	6.322851	0.013534	NaN	0.000000	0.001716	0.001740	28.0818	0.045111	0.001996	22.5985	88.6575	-169.424	0.063335	0.321541	-0.868000	-0.869285	0.013534	22.5985	-0.868449	-3.805963E+11	-3.555970E-14	NaN
708	1.000000	0.332850	7.37198e+06	-41689.1	1005.82	-29785.3	0.000000	0.000000	6.332872	-0.070186	NaN	0.000000	0.001707	0.001754	28.0816	0.088968	0.001915	46.4667	-20.1672	16.774	-0.089092	0.331510	-0.857977	-0.859317	-0.070186	46.4667	-0.856844	-2.650923E+11	2.647614E-13	NaN
708	1.000000	0.342870	7.37198e+06	-41689.1	1005.82	-29785.3	0.000000	0.000000	6.342894	-0.031450	NaN	0.000000	0.001697	0.001766	28.0817	0.041002	0.002115	19.3847	-70.6986	-167.695	0.030459	0.341521	-0.847956	-0.849305	-0.031450	19.3847	-0.846739	-1.934546E+11	1.625715E-13	NaN
708	1.000000	0.352853	7.37198e+06	-41689.1	1005.82	-29785.3	0.000000	0.000000	6.352876	-0.050467	NaN	0.000000	0.001701	0.001715	28.0818	0.049963	0.002052	24.3464	-137.01	14.1807	0.011873	0.351478	-0.837973	-0.839348	-0.050467	24.3464	-0.836419	-1.402068E+11	3.599439E-13	NaN
708	1.000000	0.362843	7.37198e+06	-41689.1	1005.82	-29785.3	0.000000	0.000000	6.362868	0.007486	NaN	0.000000	0.001716	0.001762	28.0817	0.031812	0.001933	16.4563	81.2399	-164.225	0.002200	0.361556	-0.827984	-0.829270	0.007486	16.4563	-0.828325	-1.089128E+11	-6.873833E-14	NaN
708	1.000000	0.372861	7.37198e+06	-41689.1	1005.82	-29785.3	0.000000	0.000000	6.372886	0.008011	NaN	0.000000	0.001722	0.001712	28.0815	0.039995	0.001865	21.4499	44.6764	11.8312	0.045264	0.371497	-0.817965	-0.819330	0.008011	21.4499	-0.818245	-7.950825E+10	-1.007536E-13	NaN
708	1.000000	0.382868	7.37198e+06	-41689.1	1005.82	-29785.3	0.000000	0.000000	6.382893	-0.003939	NaN	0.000000	0.001693	0.001754	28.0813	0.133271	0.001958	68.0656	77.9159	-163.512	0.012844	0.381556	-0.807958	-0.809270	-0.003939	68.0656	-0.807915	-5.758125E+10	6.840117E-14	NaN
708	1.000000	0.392847	7.37198e+06	-41689.1	1005.82	-29785.3	0.000000	0.000000	6.392871	-0.028778	NaN	0.000000	0.001640	0.001742	28.0818	0.019276	0.001939	9.940323	-81.3475	17.0931	0.002688	0.391527	-0.797979	-0.799300	-0.028778	9.940323	-0.795807	-3.944077E+10	7.296620E-13	NaN
708	1.000000	0.402868	7.37198e+06	-41689.1	1005.82	-29785.3	0.000000	0.000000	6.402893	0.001787	NaN	0.000000	0.001629	0.001755	28.0813	0.049454	0.001992	24.8291	-121.978	-167.599	0.055303	0.401579	-0.787959	-0.789248	0.001787	24.8291	-0.788013	-3.090934E+10	-5.781603E-14	NaN
708	1.000000	0.412876	7.37198e+06	-41689.1	1005.82	-29785.3	0.000000	0.000000	6.412900	-0.021743	NaN	0.000000	0.001613	0.001752	28.0816	0.085701	0.002027	42.2765	-20.9643	14.0633	-0.064195	0.411464	-0.777950	-0.779363	-0.021743	42.2765	-0.777565	-2.229126E+10	9.753905E-13	NaN
708	1.000000	0.422874	7.37198e+06	-41689.1	1005.82	-29785.3	0.000000	0.000000	6.422898	-0.003101	NaN	0.000000	0.001639	0.001760	28.082	0.048252	0.002050	23.5428	115.353	-168.16	-0.062730	0.421515	-0.767953	-0.769311	-0.003101	23.5428	-0.767854	-1.644843E+10	1.885430E-13	NaN
708	1.000000	0.432893	7.37198e+06	-41689.1	1005.82	-29785.3	0.000000	0.000000	6.432917	-0.005056	NaN	0.000000	0.001610	0.001702	28.0829	0.070220	0.001974	35.5812	-92.8251	15.265	-0.047883	0.431562	-0.757933	-0.759264	-0.005056	35.5812	-0.757827	-1.201534E+10	4.208109E-13	NaN
708	1.000000	0.442905	7.37198e+06	-41689.1	1005.82	-29785.3	0.000000	0.000000	6.442930	0.005477	NaN	0.000000	0.001626	0.001760	28.0825	0.042980	0.002057	20.8919	-79.7891	-166.276	0.029426	0.441570	-0.747921	-0.749256	0.005477	20.8919	-0.748118	-8.863330E+9	-6.179353E-13	NaN
708	1.000000	0.452889	7.37198e+06	-41689.1	1005.82	-29785.3	0.000000	0.000000	6.452914	0.008839	NaN	0.000000	0.001647	0.001743	28.0827	0.092270	0.001963	47.0137	-50.8603	16.5455	0.014853	0.451531	-0.737938	-0.739295	0.008839	47.0137	-0.738079	-6.469727E+9	-1.366205E-12	NaN
708	1.000000	0.462898	7.37198e+06	-41689.1	1005.82	-29785.3	0.000000	0.000000	6.462923	0.001412	NaN	0.000000	0.001650	0.001758	28.0826	0.011710	0.001977	5.923426	34.7932	-164.948	0.032728	0.461607	-0.727928	-0.729220	0.001412	5.923426	-0.728107	-4.731529E+9	-2.984804E-13	NaN
708	1.000000	0.472892	7.37198e+06	-41689.1	1005.82	-29785.3	0.000000	0.000000	6.472917	0.007760	NaN	0.000000	0.001611	0.001738	28.0828	0.037004	0.001829	20.2345	7.394502	11.3013	0.017777	0.471561	-0.717934	-0.719265	0.007760	20.2345	-0.718222	-3.469105E+9	-2.236976E-12	NaN
708	1.000000	0.482871	7.37198e+06	-41689.1	1005.82	-29785.3	0.000000	0.000000	6.482896	0.021359	NaN	0.000000	0.001614	0.001756	28.0825	0.188566	0.002115	89.1736	155.866	-165.103	0.032352	0.481595	-0.707956	-0.709232	0.021359	89.1736	-0.708135	-2.526958E+9	-8.452509E-12	NaN
708	1.000000	0.492885	7.37198e+06	-41689.1	1005.82	-29785.3	0.000000	0.000000	6.492909	-0.015171	NaN	0.000000	0.001605	0.001756	28.0829	0.095352	0.001874	50.8904	82.853	13.5735	-0.023189	0.491542	-0.697941	-0.699285	-0.015171	50.8904	-0.697718	-1.821211E+9	8.330043E-12	NaN
708	1.000000	0.502916	7.37198e+06	-41689.1	1005.82	-29785.3	0.000000	0.000000	6.502942	0.029593	NaN	0.000000	0.001590	0.001713	28.0829	0.020614	0.002084	9.889363	-71.6372	-169.572	0.011415	0.501626	-0.687910	-0.689200	0.029593	9.889363	-0.690154	-1.435576E+9	-2.061425E-11	NaN
708	1.000000	0.512908	7.37198e+06	-41689.1	1005.82	-29785.3	0.000000	0.000000	6.512930	-0.082075	NaN	0.000000	0.001602	0.001759	28.0825	0.067264	0.001985	33.886	-71.6811	13.9563	-0.006342	0.511503	-0.677918	-0.679323	-0.082075	33.886	-0.676101	-9.223104E+8	8.898803E-11	NaN
708	1.000000	0.522916	7.37198e+06	-41689.1	1005.82	-29785.3	0.000000	0.000000	6.522939	-0.045125	NaN	0.000000	0.001571	0.001774	28.0825	0.019870	0.002041	9.734040	-30.1436	-169.432	-0.098274	0.521602	-0.667910	-0.669224	-0.045125	9.734040	-0.664433	-6.385319E+8	7.066978E-11	NaN
708	1.000000	0.532937	7.37198e+06	-41689.1	1005.82	-29785.3	0.000000	0.000000	6.532960	-0.039838	NaN	0.000000	0.001641	0.001769	28.0828	0.095908	0.001926	49.8016	-122.081	13.9135	-0.004060	0.531589	-0.657890	-0.659238	-0.039838	49.8016	-0.657290	-5.097302E+8	7.815567E-11	NaN
708	1.000000	0.542973	7.37198e+06	-41689.1	1005.82	-29785.3	0.000000	0.000000	6.542996	-0.037618	NaN	0.000000	0.001589	0.001764	28.0827	0.163006	0.002022	80.5975	159.088	-164.973	-0.043883	0.541595	-0.647854	-0.649231	-0.037618	80.5975	-0.647504	-3.742927E+8	1.005047E-10	NaN
708	1.000000	0.552943	7.37198e+06	-41689.1	1005.82	-29785.3	0.000000	0.000000	6.552966	-0.061709	NaN	0.000000	0.001620	0.001703	28.0828	0.067558	0.002157	31.3253	159.387	12.9931	-0.036190	0.551526	-0.637883	-0.639300	-0.061709	31.3253	-0.636405	-2.636100E+8	2.340902E-10	NaN
708	1.000000	0.562916	7.37198e+06	-41689.1	1005.82	-29785.3	0.000000	0.000000	6.562940	0.002680	NaN	0.000000	0.001625	0.001713	28.0829	0.045961	0.002027	22.6774	-37.9455	-163.188	-0.044010	0.561644	-0.627911	-0.629183	0.002680	22.6774	-0.627999	-2.020912E+8	-1.325934E-11	NaN
708	1.000000	0.572946	7.37198e+06	-41689.1	1005.82	-29785.3	0.000000	0.000000	6.572970	-0.024317	NaN	0.000000	0.001635	0.001764	28.0819	0.106828	0.002079	51.3778	127.559	11.3195	0.051798	0.571571	-0.617880	-0.619256	-0.024317	51.3778	-0.617525	-1.450826E+8	1.676072E-10	NaN
708	1.000000	0.582927	7.37198e+06	-41689.1	1005.82	-29785.3	0.000000	0.000000	6.582951	-0.019016	NaN	0.000000	0.001626	0.001747	28.0814	0.055052	0.001890	29.122	137.24	-168.129	-0.056422	0.581640	-0.607900	-0.609186	-0.019016	29.122	-0.607410	-1.053111E+8	1.805737E-10	NaN
708	1.000000	0.592930	7.37198e+06	-41689.1	1005.82	-29785.3	0.000000	0.000000	6.592956	0.026490	NaN	0.000000	0.001611	0.001763	28.0815	0.208284	0.001995	104.405	-178.502	10.8637	-0.001152	0.591532	-0.597896	-0.599294	0.026490	104.405	-0.598087	-7.836186E+7	-3.380432E-10	NaN
708	1.000000	0.602960	7.37198e+06	-41689.1	1005.82	-29785.3	0.000000	0.000000	6.602982	-0.061243	NaN	0.000000	0.001651	0.001720	28.0817	0.100839	0.002019	49.9355	-169.94	-165.407	0.094533	0.601631	-0.587866	-0.589195	-0.061243	49.9355	-0.586947	-5.502527E+7	1.112996E-9	NaN
708	1.000000	0.612965	7.37198e+06	-41689.1	1005.82	-29785.3	0.000000	0.000000	6.612990	-0.001260	NaN	0.000000	0.001599	0.001731	28.0819	0.055401	0.002005	27.6312	98.0591	14.2898	0.027850	0.611661	-0.577861	-0.579165	-0.001260	27.6312	-0.577827	-4.118414E+7	3.060455E-11	NaN
708	1.000000	0.622963	7.37198e+06	-41689.1	1005.82	-29785.3	0.000000	0.000000	6.622987	-0.010074	NaN	0.000000	0.001601	0.001705	28.0817	0.106291	0.002077	51.181	23.7766	-167.79	-0.049263	0.621652	-0.567864	-0.569174	-0.010074	51.181	-0.567716	-2.985858E+7	3.374059E-10	NaN
708	1.000000	0.632980	7.37198e+06	-41689.1	1005.82	-29785.3	0.000000	0.000000	6.633007	0.043784	NaN	0.000000	0.001622	0.001666	28.0818	0.042640	0.002075	20.5451	164.327	14.3055	-0.056542	0.631646	-0.557846	-0.559180	0.043784	20.5451	-0.559445	-2.294531E+7	-1.908175E-9	NaN
708	1.000000	0.642933	7.37198e+06	-41689.1	1005.82	-29785.3	0.000000	0.000000	6.642955	-0.047720	NaN	0.000000	0.001623	0.001694	28.082	0.025004	0.002035	12.2844	-169.604	-166.803	0.055049	0.641668	-0.547894	-0.549158	-0.047720	12.2844	-0.544980	-1.446787E+7	3.298308E-9	NaN
708	1.000000	0.652988	7.37198e+06	-41689.1	1005.82	-29785.3	0.000000	0.000000	6.653012	-0.016985	NaN	0.000000	0.001595	0.001765	28.0818	0.069711	0.002031	34.3166	96.6312	14.8944	-0.021486	0.651636	-0.537839	-0.539191	-0.016985	34.3166	-0.537467	-1.138220E+7	1.492249E-9	NaN
708	1.000000	0.662982	7.37198e+06	-41689.1	1005.82	-29785.3	0.000000	0.000000	6.663006	-0.011104	NaN	0.000000	0.001612	0.001786	28.0817	0.109117	0.001927	56.6129	69.7193	-165.293	0.067094	0.661658	-0.527845	-0.529168	-0.011104	56.6129	-0.527698	-8.329e+06	1.333125E-9	NaN
708	1.000000	0.672968	7.37198e+06	-41689.1	1005.82	-29785.3	0.000000	0.000000	6.672992	-0.012699	NaN	0.000000	0.001628	0.001771	28.0818	0.114021	0.002022	56.3903	-33.4277	12.2478	-0.150625	0.671602	-0.517858	-0.519225	-0.012699	56.3903	-0.517689	-6.04583e+06	2.100410E-9	NaN
708	1.000000	0.682996	7.37198e+06	-41689.1	1005.82	-29785.3	0.000000	0.000000	6.683020	0.002015	NaN	0.000000	0.001625	0.001753	28.082	0.080274	0.001944	41.2966	57.7305	-170.031	0.002489	0.681668	-0.507831	-0.509158	0.002015	41.2966	-0.507867	-4.41271e+06	-4.565727E-10	NaN
708	1.000000	0.692994	7.37198e+06	-41689.1	1005.82	-29785.3	0.000000	0.000000	6.693018	-0.001213	NaN	0.000000	0.001636	0.001752	28.0818	0.056015	0.002081	26.9217	72.515	11.3589	0.066241	0.691689	-0.497833	-0.499137	-0.001213	26.9217	-0.497799	-3.19377e+06	3.799430E-10	NaN
708	1.000000	0.703019	7.37198e+06	-41689.1	1005.82	-29785.3	0.000000	0.000000	6.703045	0.015862	NaN	0.000000	0.001658	0.001778	28.082	0.091391	0.002089	43.7463	35.1014	-168.97	-0.036174	0.701652	-0.487807	-0.489175	0.015862	43.7463	-0.488079	-2.33638e+06	-6.789239E-9	NaN
708	1.000000	0.712996	7.37198e+06	-41689.1	1005.82	-29785.3	0.000000	0.000000	6.713021	0.011697	NaN	0.000000	0.001624	0.001798	28.0831	0.068835	0.001901	36.2011	-162.309	11.1973	0.006845	0.711617	-0.477830	-0.479209	0.011697	36.2011	-0.478073	-1.69256e+06	-6.910718E-9	NaN
708	1.000000	0.723031	7.37198e+06	-41689.1	1005.82	-29785.3	0.000000	0.000000	6.723057	0.015720	NaN	0.000000	0.001660	0.001781	28.0832	0.050843	0.002124	23.9379	55.2779	-168.698	-0.025924	0.721686	-0.467795	-0.469141	0.015720	23.9379	-0.468288	-1.2342e+06	-1.273731E-8	NaN
708	1.000000	0.733012	7.37198e+06	-41689.1	1005.82	-29785.3	0.000000	0.000000	6.733034	-0.055015	NaN	0.000000	0.001627	0.001786	28.0829	0.073650	0.002027	36.3284	118.848	12.5844	-0.011725	0.731653	-0.457815	-0.459173	-0.055015	36.3284	-0.456679	-847871	6.488639E-8	NaN
708	1.000000	0.743034	7.37198e+06	-41689.1	1005.82	-29785.3	0.000000	0.000000	6.743060	0.035414	NaN	0.000000	0.001641	0.001752	28.0829	0.094150	0.001927	48.8703	-27.8388	-170.073	0.082606	0.741644	-0.447793	-0.449183	0.035414	48.8703	-0.448336	-647004	-5.473544E-8	NaN
708	1.000000	0.753025	7.37198e+06	-41689.1	1005.82	-29785.3	0.000000	0.000000	6.753050	0.004245	NaN	0.000000	0.001618	0.001778	28.0831	0.113078	0.002020	55.9786	-20.4526	13.3133	0.022159	0.751656	-0.437801	-0.439170	0.004245	55.9786	-0.437858	-460392	-9.220911E-9	NaN
708	1.000000	0.763018	7.37198e+06	-41689.1	1005.82	-29785.3	0.000000	0.000000	6.763042	-0.022751	NaN	0.000000	0.001649	0.001764	28.0828	0.063617	0.002041	31.1727	-169.496	-162.46	0.038502	0.761710	-0.427809	-0.429117	-0.022751	31.1727	-0.427261	-326063	6.977464E-8	NaN
708	1.000000	0.773058	7.37198e+06	-41689.1	1005.82	-29785.3	0.000000	0.000000	6.773082	-0.016524	NaN	0.000000	0.001592	0.001766	28.0828	0.065984	0.001963	33.6111	-178.157	15.6162	-0.041614	0.771611	-0.417769	-0.419215	-0.016524	33.6111	-0.417400	-236334	6.991818E-8	NaN
708	1.000000	0.783034	7.37198e+06	-41689.1	1005.82	-29785.3	0.000000	0.000000	6.783057	-0.039981	NaN	0.000000	0.001634	0.001773	28.083	0.022383	0.001827	12.2517	13.8405	-170.115	-0.024527	0.781743	-0.407792	-0.409083	-0.039981	12.2517	-0.405345	-159280	2.510102E-7	NaN
708	1.000000	0.793028	7.37198e+06	-41689.1	1005.82	-29785.3	0.000000	0.000000	6.793053	0.007637	NaN	0.000000	0.001644	0.001776	28.0829	0.050268	0.002073	24.2469	-170.153	15.4054	0.124567	0.791694	-0.397798	-0.399132	0.007637	24.2469	-0.398034	-125301	-6.094964E-8	NaN
708	1.000000	0.803011	7.37198e+06	-41689.1	1005.82	-29785.3	0.000000	0.000000	6.803034	-0.038338	NaN	0.000000	0.001651	0.001774	28.0828	0.033685	0.001862	18.0928	134.817	-169.314	-0.083690	0.801763	-0.387815	-0.389064	-0.038338	18.0928	-0.386226	-84947.5	4.513158E-7	NaN
708	1.000000	0.813039	7.37198e+06	-41689.1	1005.82	-29785.3	0.000000	0.000000	6.813065	0.024287	NaN	0.000000	0.001634	0.001810	28.0829	0.078859	0.002032	38.8146	-98.1706	14.7879	-0.021620	0.811684	-0.377787	-0.379142	0.024287	38.8146	-0.378256	-65291.3	-3.719751E-7	NaN
708	1.000000	0.823038	7.37198e+06	-41689.1	1005.82	-29785.3	0.000000	0.000000	6.823062	-0.007850	NaN	0.000000	0.001669	0.001777	28.0831	0.077844	0.001910	40.7456	-137.077	-166.39	-0.021735	0.821770	-0.367788	-0.369057	-0.007850	40.7456	-0.367644	-45938.7	1.708873E-7	NaN
708	1.000000	0.833027	7.37198e+06	-41689.1	1005.82	-29785.3	0.000000	0.000000	6.833052	0.011161	NaN	0.000000	0.001643	0.001776	28.0829	0.119735	0.001928	62.1118	77.4143	11.9799	-0.005370	0.831624	-0.357799	-0.359202	0.011161	62.1118	-0.357934	-33263.4	-3.355363E-7	NaN
708	1.000000	0.843061	7.37198e+06	-41689.1	1005.82	-29785.3	0.000000	0.000000	6.843090	0.101903	NaN	0.000000	0.001661	0.001760	28.0817	0.056770	0.001942	29.2307	-93.4215	-167.902	0.083212	0.841744	-0.347765	-0.349082	0.101903	29.2307	-0.350380	-25853	-3.941632E-6	NaN
708	1.000000	0.853059	7.37198e+06	-41689.1	1005.82	-29785.3	0.000000	0.000000	6.853082	-0.043168	NaN	0.000000	0.001659	0.001759	28.0816	0.045000	0.002057	21.8725	-92.591	13.7866	-0.008937	0.851710	-0.337767	-0.339116	-0.043168	21.8725	-0.336287	-16120.8	2.677791E-6	NaN
708	1.000000	0.863073	7.37198e+06	-41689.1	1005.82	-29785.3	0.000000	0.000000	6.863098	0.001806	NaN	0.000000	0.001674	0.001795	28.0819	0.112048	0.002083	53.8002	81.8798	-166.018	-0.035978	0.861765	-0.327753	-0.329061	0.001806	53.8002	-0.327778	-12103.1	-1.492288E-7	NaN
708	1.000000	0.873076	7.37198e+06	-41689.1	1005.82	-29785.3	0.000000	0.000000	6.873098	-0.059588	NaN	0.000000	0.001661	0.001782	28.0819	0.113353	0.002069	54.7781	161.847	14.4939	-0.063577	0.871676	-0.317751	-0.319150	-0.059588	54.7781	-0.316935	-8384.66	7.106763E-6	NaN
708	1.000000	0.883085	7.37198e+06	-41689.1	1005.82	-29785.3	0.000000	0.000000	6.883109	-0.015376	NaN	0.000000	0.001626	0.001787	28.0818	0.041340	0.001970	20.9874	45.9261	-167.771	0.015047	0.881787	-0.307741	-0.309040	-0.015376	20.9874	-0.307192	-6018.19	2.554858E-6	NaN
708	1.000000	0.893049	7.37198e+06	-41689.1	1005.82	-29785.3	0.000000	0.000000	6.893075	0.024073	NaN	0.000000	0.001628	0.001766	28.0819	0.010445	0.001941	5.381139	167.466	7.891474	-0.024829	0.891718	-0.297777	-0.299109	0.024073	5.381139	-0.301132	-4892.02	-4.920919E-6	NaN
708	1.000000	0.903091	7.37198e+06	-41689.1	1005.82	-29785.3	0.000000	0.000000	6.903111	-0.094133	NaN	0.000000	0.001634	0.001763	28.0819	0.051747	0.001922	26.9267	-19.8584	-169.292	-0.016374	0.901751	-0.287736	-0.289076	-0.094133	26.9267	-0.285114	-2818.23	3.340158E-5	NaN
708	1.000000	0.913069	7.37198e+06	-41689.1	1005.82	-29785.3	0.000000	0.000000	6.913093	-0.028297	NaN	0.000000	0.001593	0.001791	28.082	0.061633	0.002008	30.6962	-121.963	14.6204	0.044680	0.911752	-0.277757	-0.279074	-0.028297	30.6962	-0.277066	-2131.35	1.327633E-5	NaN
708	1.000000	0.923105	7.37198e+06	-41689.1	1005.82	-29785.3	0.000000	0.000000	6.923127	-0.063351	NaN	0.000000	0.001591	0.001775	28.0819	0.070764	0.002045	34.6071	-96.3395	-163.169	-0.062831	0.921761	-0.267722	-0.269065	-0.063351	34.6071	-0.266349	-1465.41	4.323101E-5	NaN
708	1.000000	0.933096	7.37198e+06	-41689.1	1005.82	-29785.3	0.000000	0.000000	6.933120	-0.017433	NaN	0.000000	0.001628	0.001779	28.082	0.071138	0.001966	36.1832	-116.489	14.3835	0.002917	0.931761	-0.257730	-0.259065	-0.017433	36.1832	-0.257369	-1067.94	1.632367E-5	NaN
708	1.000000	0.943114	7.37198e+06	-41689.1	1005.82	-29785.3	0.000000	0.000000	6.943141	0.057680	NaN	0.000000	0.001586	0.001772	28.0819	0.026646	0.002106	12.6511	-129.535	-167.716	-0.032003	0.941767	-0.247713	-0.249059	0.057680	12.6511	-0.251132	-855.984	-6.738415E-5	NaN
708	1.000000	0.953080	7.37198e+06	-41689.1	1005.82	-29785.3	0.000000	0.000000	6.953103	-0.051298	NaN	0.000000	0.001625	0.001801	28.0818	0.086267	0.001889	45.6678	-154.203	14.3955	0.002528	0.951746	-0.237746	-0.239080	-0.051298	45.6678	-0.236904	-514.18	9.976662E-5	NaN
708	1.000000	0.963103	7.37198e+06	-41689.1	1005.82	-29785.3	0.000000	0.000000	6.963127	-0.017273	NaN	0.000000	0.001625	0.001736	28.082	0.059075	0.002003	29.4879	-141.598	-166.579	-0.019334	0.961813	-0.227723	-0.229014	-0.017273	29.4879	-0.227284	-362.713	4.762071E-5	NaN
708	1.000000	0.973095	7.37198e+06	-41689.1	1005.82	-29785.3	0.000000	0.000000	6.973121	0.016745	NaN	0.000000	0.001670	0.001750	28.082	0.021889	0.001905	11.4874	18.5362	15.2795	-0.041938	0.971761	-0.217731	-0.219066	0.016745	11.4874	-0.218824	-265.994	-6.295088E-5	NaN
708	1.000000	0.983106	7.37198e+06	-41689.1	1005.82	-29785.3	0.000000	0.000000	6.983129	-0.037059	NaN	0.000000	0.001688	0.001769	28.0831	0.073913	0.002041	36.2084	2.087905	-167.457	-0.066781	0.981851	-0.207720	-0.208975	-0.037059	36.2084	-0.206953	-171.144	0.000217	NaN
708	1.000000	0.993131	7.37198e+06	-41689.1	1005.82	-29785.3	0.000000	0.000000	6.993156	-6.967650E-5	NaN	0.000000	0.001696	0.001780	28.083	0.039151	0.001946	20.1167	122.302	13.3206	-0.008701	0.991740	-0.197695	-0.199086	-6.967650E-5	20.1167	-0.197693	-120.702	5.772601E-7	NaN
708	1.000000	1.003118	7.37198e+06	-41689.1	1005.82	-29785.3	0.000000	0.000000	7.003137	-0.124320	NaN	0.000000	0.001698	0.001748	28.0833	0.067609	0.001978	34.1727	-37.9289	-166.746	-0.114995	1.001805	-0.187709	-0.189021	-0.124320	34.1727	-0.184980	-74.0963	0.001678	NaN
708	1.000000	1.013132	7.37198e+06	-41689.1	1005.82	-29785.3	0.000000	0.000000	7.013154	-0.055480	NaN	0.000000	0.001667	0.001756	28.0831	0.121314	0.001918	63.2458	-80.2227	12.997	-0.063972	1.011777	-0.177695	-0.179049	-0.055480	63.2458	-0.177037	-54.313	0.001021	NaN
708	1.000000	1.023113	7.37198e+06	-41689.1	1005.82	-29785.3	0.000000	0.000000	7.023140	0.055411	NaN	0.000000	0.001629	0.001774	28.083	0.095637	0.002019	47.3681	-112.058	-166.369	0.090564	1.021829	-0.167714	-0.168998	0.055411	47.3681	-0.168591	-38.8246	-0.001427	NaN
708	1.000000	1.033097	7.37198e+06	-41689.1	1005.82	-29785.3	0.000000	0.000000	7.033118	-0.096722	NaN	0.000000	0.001623	0.001759	28.083	0.078377	0.001900	41.2527	37.4126	12.5594	-0.077781	1.031770	-0.157729	-0.159057	-0.096722	41.2527	-0.155971	-23.2287	0.004164	NaN
708	1.000000	1.043125	7.37198e+06	-41689.1	1005.82	-29785.3	0.000000	0.000000	7.043148	-0.051532	NaN	0.000000	0.001633	0.001790	28.0831	0.080605	0.001967	40.9797	22.327	-170.146	-0.040785	1.041831	-0.147701	-0.148995	-0.051532	40.9797	-0.146758	-15.7981	0.003262	NaN
708	1.000000	1.053140	7.37198e+06	-41689.1	1005.82	-29785.3	0.000000	0.000000	7.053164	-0.018790	NaN	0.000000	0.001646	0.001774	28.0828	0.081524	0.002095	38.9158	-124.027	14.669	-0.032613	1.051818	-0.137686	-0.139008	-0.018790	38.9158	-0.137324	-10.5315	0.001784	NaN
708	1.000000	1.063124	7.37198e+06	-41689.1	1005.82	-29785.3	0.000000	0.000000	7.063150	0.017798	NaN	0.000000	0.001652	0.001763	28.0829	0.092466	0.001886	49.0178	-70.0915	-165.15	0.007058	1.061837	-0.127702	-0.128989	0.017798	49.0178	-0.127974	-6.958607	-0.002558	NaN
708	1.000000	1.073151	7.37198e+06	-41689.1	1005.82	-29785.3	0.000000	0.000000	7.073177	0.025213	NaN	0.000000	0.001616	0.001760	28.0829	0.095736	0.001903	50.3203	149.705	13.7218	0.020922	1.071733	-0.117675	-0.119093	0.025213	50.3203	-0.118051	-4.411569	-0.005715	NaN
708	1.000000	1.083147	7.37198e+06	-41689.1	1005.82	-29785.3	0.000000	0.000000	7.083174	0.061829	NaN	0.000000	0.001590	0.001741	28.0828	0.114071	0.002013	56.6715	51.8114	-168.655	0.004101	1.081839	-0.107679	-0.108988	0.061829	56.6715	-0.108498	-2.793058	-0.022137	NaN
708	1.000000	1.093163	7.37198e+06	-41689.1	1005.82	-29785.3	0.000000	0.000000	7.093186	-0.054171	NaN	0.000000	0.001577	0.001759	28.0827	0.093370	0.001949	47.9189	-22.5557	11.199	-0.089932	1.091794	-0.097663	-0.099033	-0.054171	47.9189	-0.096815	-1.550828	0.034931	NaN
708	1.000000	1.103156	7.37198e+06	-41689.1	1005.82	-29785.3	0.000000	0.000000	7.103182	0.014097	NaN	0.000000	0.001612	0.001774	28.0828	0.061480	0.001913	32.1372	89.8486	-166.567	0.022084	1.101871	-0.087670	-0.088955	0.014097	32.1372	-0.087999	-0.969570	-0.014539	NaN
708	1.000000	1.113141	7.37198e+06	-41689.1	1005.82	-29785.3	0.000000	0.000000	7.113166	-0.001408	NaN	0.000000	0.001647	0.001774	28.0826	0.064762	0.002022	32.0216	98.1402	12.4987	-0.019508	1.111813	-0.077685	-0.079014	-0.001408	32.0216	-0.077652	-0.540154	0.002607	NaN
708	1.000000	1.123150	7.37198e+06	-41689.1	1005.82	-29785.3	0.000000	0.000000	7.123174	-0.010661	NaN	0.000000	0.001610	0.001740	28.0817	0.059310	0.001982	29.9181	-38.5548	-164.311	0.043606	1.121853	-0.067676	-0.068973	-0.010661	29.9181	-0.067409	-0.290298	0.036726	NaN
708	1.000000	1.133165	7.37198e+06	-41689.1	1005.82	-29785.3	0.000000	0.000000	7.133188	-0.047330	NaN	0.000000	0.001625	0.001764	28.0817	0.073935	0.002066	35.7822	156.725	15.7834	0.008890	1.131769	-0.057661	-0.059057	-0.047330	35.7822	-0.056669	-0.144194	0.328242	NaN
708	1.000000	1.143186	7.37198e+06	-41689.1	1005.82	-29785.3	0.000000	0.000000	7.143210	-0.007578	NaN	0.000000	0.001618	0.001791	28.0818	0.036614	0.002045	17.9015	84.1438	-168.127	-0.037781	1.141849	-0.047641	-0.048978	-0.007578	17.9015	-0.047323	-0.075673	0.100143	NaN
708	1.000000	1.153159	7.37198e+06	-41689.1	1005.82	-29785.3	0.000000	0.000000	7.153186	0.068845	NaN	0.000000	0.001597	0.001771	28.0818	0.066295	0.001990	33.3182	-95.5151	16.8711	0.029282	1.151830	-0.037667	-0.038996	0.068845	33.3182	-0.039217	-0.042816	-1.607922	NaN
708	1.000000	1.163200	7.37198e+06	-41689.1	1005.82	-29785.3	0.000000	0.000000	7.163226	0.034756	NaN	0.000000	0.001611	0.001826	28.082	0.077605	0.002016	38.5037	118.587	-167.646	-0.077962	1.161883	-0.027627	-0.028943	0.034756	38.5037	-0.028304	-0.020665	-1.681923	NaN
708	1.000000	1.173188	7.37198e+06	-41689.1	1005.82	-29785.3	0.000000	0.000000	7.173211	-0.040289	NaN	0.000000	0.001620	0.001780	28.0817	0.077993	0.001925	40.5223	171.094	15.8717	-0.084153	1.171874	-0.017639	-0.018953	-0.040289	40.5223	-0.016893	-0.010442	3.858250	NaN
708	1.000000	1.183182	7.37198e+06	-41689.1	1005.82	-29785.3	0.000000	0.000000	7.183210	0.076625	NaN	0.000000	0.001656	0.001751	28.0819	0.213673	0.002091	102.181	35.7635	-166.932	-0.014025	1.181907	-0.007644	-0.008920	0.076625	102.181	-0.008207	-0.005353	-14.3155	NaN
708	2.000000	1.192250	7.37198e+06	-41689.1	1005.82	-29785.3	0.000000	0.000000	7.192657	9.307269	NaN	0.000000	0.001596	0.001769	28.082	8.925808	0.001417	6297.86	3.643607	9.139533	7.779013	1.191709	0.001424	0.000882	9.307269	6297.86	0.000315	0.000237	39246.6	373642
708	2.000000	1.194819	7.37198e+06	-41689.1	1005.82	-29785.3	0.000000	0.000000	7.195501	15.9735	NaN	0.000000	0.001592	0.001782	28.0821	14.9334	0.001726	8650.88	9.025187	-178.901	15.341	1.194479	0.003993	0.003653	15.9735	8650.88	0.002608	0.002053	7781.67	174450
708	2.000000	1.197347	7.37198e+06	-41689.1	1005.82	-29785.3	0.000000	0.000000	7.198392	24.8141	NaN	0.000000	0.001584	0.001798	28.0819	17.3303	0.001763	9831.14	4.892917	6.196778	24.1096	1.196897	0.006521	0.006071	24.8141	9831.14	0.004628	0.003796	6536.45	145780
708	2.000000	1.199769	7.37198e+06	-41689.1	1005.82	-29785.3	0.000000	0.000000	7.201062	30.85	NaN	0.000000	0.001602	0.001797	28.0825	20.8905	0.001874	11149.1	7.540529	-179.5	28.8928	1.199417	0.008943	0.008591	30.85	11149.1	0.006867	0.005903	5226.04	132578
708	2.000000	1.202273	7.37198e+06	-41689.1	1005.82	-29785.3	0.000000	0.000000	7.203743	35.1751	NaN	0.000000	0.001584	0.001780	28.082	23.8626	0.001791	13326.2	1.369390	5.973670	34.7973	1.201930	0.011446	0.011104	35.1751	13326.2	0.009467	0.008595	4092.54	131328
708	2.000000	1.204707	7.37198e+06	-41689.1	1005.82	-29785.3	0.000000	0.000000	7.206526	43.6638	NaN	0.000000	0.001620	0.001821	28.0821	27.057	0.001800	15030.1	3.350162	-178.498	41.3086	1.204430	0.013881	0.013604	43.6638	15030.1	0.011702	0.011135	3921.41	130136
708	2.000000	1.207271	7.37198e+06	-41689.1	1005.82	-29785.3	0.000000	0.000000	7.209294	48.6181	NaN	0.000000	0.001571	0.001773	28.0831	28.1721	0.001784	15787.6	2.874786	2.733805	46.7196	1.206929	0.016445	0.016103	48.6181	15787.6	0.014135	0.014149	3436.11	121262
708	2.000000	1.209716	7.37198e+06	-41689.1	1005.82	-29785.3	0.000000	0.000000	7.212176	59.2782	NaN	0.000000	0.001593	0.001806	28.0839	31.2936	0.001868	16753.4	7.981336	177.13	57.9339	1.209403	0.018889	0.018577	59.2782	16753.4	0.016236	0.016968	3493.44	117505
708	2.000000	1.212199	7.37198e+06	-41689.1	1005.82	-29785.3	0.000000	0.000000	7.214732	61.052	NaN	0.000000	0.001605	0.001779	28.0835	33.4725	0.001750	19122.7	5.676999	-3.199197	57.9178	1.211997	0.021372	0.021170	61.052	19122.7	0.018978	0.020961	2912.59	120674
708	2.000000	1.214760	7.37198e+06	-41689.1	1005.82	-29785.3	0.000000	0.000000	7.217582	68.0497	NaN	0.000000	0.001596	0.001764	28.0832	36.8686	0.001896	19440.8	7.331257	174.942	66.9217	1.214390	0.023934	0.023564	68.0497	19440.8	0.021309	0.024641	2761.68	113151
708	2.000000	1.217256	7.37198e+06	-41689.1	1005.82	-29785.3	0.000000	0.000000	7.220386	75.557	NaN	0.000000	0.001687	0.001781	28.0834	37.5325	0.001847	20326.1	5.086498	-1.913102	76.5553	1.216802	0.026430	0.025976	75.557	20326.1	0.023642	0.028591	2642.7	109828
708	2.000000	1.219726	7.37198e+06	-41689.1	1005.82	-29785.3	0.000000	0.000000	7.223211	84.1933	NaN	0.000000	0.001634	0.001745	28.0838	39.8658	0.001785	22339.8	7.261017	175.212	83.9267	1.219319	0.028900	0.028492	84.1933	22339.8	0.026073	0.032997	2551.55	112361
708	2.000000	1.222195	7.37198e+06	-41689.1	1005.82	-29785.3	0.000000	0.000000	7.226124	95.0136	NaN	0.000000	0.001592	0.001742	28.0834	42.4921	0.001924	22079.6	8.165922	-5.809833	91.7861	1.221756	0.031368	0.030929	95.0136	22079.6	0.028141	0.036978	2569.44	104904
708	2.000000	1.224681	7.37198e+06	-41689.1	1005.82	-29785.3	0.000000	0.000000	7.228870	101.318	NaN	0.000000	0.001637	0.001727	28.0832	44.0318	0.001834	24006.1	4.520527	176.744	100.283	1.224485	0.033855	0.033659	101.318	24006.1	0.030689	0.042184	2401.79	106787
708	2.000000	1.227204	7.37198e+06	-41689.1	1005.82	-29785.3	0.000000	0.000000	7.231849	112.429	NaN	0.000000	0.001648	0.001713	28.0832	46.3289	0.001858	24936.2	5.099289	-3.827031	110.798	1.226949	0.036378	0.036123	112.429	24936.2	0.032996	0.047183	2382.81	104884
708	2.000000	1.229665	7.37198e+06	-41689.1	1005.82	-29785.3	0.000000	0.000000	7.234825	124.949	NaN	0.000000	0.001619	0.001701	28.0835	48.4377	0.001786	27125.1	6.546829	174.386	123.946	1.229399	0.038839	0.038573	124.949	27125.1	0.035384	0.052645	2373.43	108011
708	2.000000	1.232260	7.37198e+06	-41689.1	1005.82	-29785.3	0.000000	0.000000	7.237564	128.451	NaN	0.000000	0.001637	0.001670	28.0831	50.4544	0.001704	29613	4.600386	-5.414367	128.762	1.232016	0.041434	0.041189	128.451	29613	0.038181	0.059411	2162.09	111000
708	2.000000	1.234662	7.37198e+06	-41689.1	1005.82	-29785.3	0.000000	0.000000	7.240680	145.85	NaN	0.000000	0.001613	0.001721	28.0836	53.0256	0.001776	29851.1	1.590562	177.621	143.331	1.234413	0.043835	0.043586	145.85	29851.1	0.040171	0.064471	2262.27	107412
708	2.000000	1.237138	7.37198e+06	-41689.1	1005.82	-29785.3	0.000000	0.000000	7.243721	159.59	NaN	0.000000	0.001598	0.001702	28.083	55.7403	0.001761	31659.3	5.990515	-6.782161	154.142	1.236854	0.046311	0.046027	159.59	31659.3	0.042531	0.070732	2256.27	108759
708	2.000000	1.239617	7.37198e+06	-41689.1	1005.82	-29785.3	0.000000	0.000000	7.246672	171.066	NaN	0.000000	0.001578	0.001722	28.0835	59.3708	0.001838	32297.3	9.235934	169.164	166.897	1.239403	0.048790	0.048577	171.066	32297.3	0.044818	0.077071	2219.58	106290
708	2.000000	1.242197	7.37198e+06	-41689.1	1005.82	-29785.3	0.000000	0.000000	7.249880	186.328	NaN	0.000000	0.001570	0.001727	28.0817	61.2988	0.001970	31115.6	4.787296	-4.853013	185.973	1.241769	0.051371	0.050942	186.328	31115.6	0.046880	0.083013	2244.55	98668.3
708	2.000000	1.244694	7.37198e+06	-41689.1	1005.82	-29785.3	0.000000	0.000000	7.252917	199.474	NaN	0.000000	0.001601	0.001695	28.0819	62.3284	0.001654	37683.9	5.526791	171.161	197.553	1.244413	0.053868	0.053587	199.474	37683.9	0.049898	0.092099	2165.88	113450
708	2.000000	1.247255	7.37199e+06	-41689.1	1005.82	-29785.3	0.000000	0.000000	7.256105	214.736	NaN	0.000000	0.001649	0.001746	28.0819	64.1718	0.001779	36072.7	5.462140	-7.438452	216.56	1.246884	0.056429	0.056057	214.736	36072.7	0.051964	0.098581	2178.28	104968
708	2.000000	1.249659	7.37199e+06	-41689.1	1005.82	-29785.3	0.000000	0.000000	7.259217	231.968	NaN	0.000000	0.001612	0.001703	28.082	65.7063	0.001725	38083.6	5.248598	172.535	229.399	1.249308	0.058833	0.058481	231.968	38083.6	0.054265	0.106050	2187.35	106845
708	2.000000	1.252169	7.37199e+06	-41689.1	1005.82	-29785.3	0.000000	0.000000	7.262379	247.834	NaN	0.000000	0.001651	0.001722	28.0817	69.0183	0.001745	39554.6	8.189777	-10.5596	246.592	1.251722	0.061343	0.060896	247.834	39554.6	0.056644	0.114048	2173.06	107010
708	2.000000	1.254572	7.37199e+06	-41689.1	1005.82	-29785.3	0.000000	0.000000	7.265321	260.944	NaN	0.000000	0.001702	0.001700	28.0818	70.9627	0.001775	39987	0.829705	175.814	255.314	1.254355	0.063745	0.063529	260.944	39987	0.058851	0.121721	2143.79	104715
708	2.000000	1.257138	7.37199e+06	-41689.1	1005.82	-29785.3	0.000000	0.000000	7.268716	281.11	NaN	0.000000	0.001701	0.001720	28.082	73.3409	0.001708	42937.9	6.273724	-9.508908	276.459	1.256724	0.066312	0.065898	281.11	42937.9	0.061402	0.130883	2147.81	108436
708	2.000000	1.259704	7.37199e+06	-41689.1	1005.82	-29785.3	0.000000	0.000000	7.271977	298.03	NaN	0.000000	0.001622	0.001771	28.0822	75.8444	0.001670	45414.7	8.046889	168.902	299.574	1.259255	0.068877	0.068429	298.03	45414.7	0.063956	0.140373	2123.13	110746
708	2.000000	1.262188	7.37199e+06	-41689.1	1005.82	-29785.3	0.000000	0.000000	7.275040	312.117	NaN	0.000000	0.001637	0.001726	28.0817	79.7018	0.001739	45834	8.383451	-12.0936	310.941	1.261826	0.071361	0.071000	312.117	45834	0.066254	0.149185	2092.16	108417
708	2.000000	1.264548	7.37199e+06	-41689.1	1005.82	-29785.3	0.000000	0.000000	7.277828	322.525	NaN	0.000000	0.001636	0.001789	28.0818	81.6366	0.001699	48043.6	4.109669	171.104	315.314	1.264362	0.073722	0.073535	322.525	48043.6	0.068687	0.158787	2031.19	110154
708	2.000000	1.267103	7.37199e+06	-41689.1	1005.82	-29785.3	0.000000	0.000000	7.281406	347.405	NaN	0.000000	0.001612	0.001767	28.0818	83.2665	0.001788	46568.6	4.466478	-8.182144	340.359	1.266806	0.076277	0.075980	347.405	46568.6	0.070682	0.166872	2081.86	104153
708	2.000000	1.269683	7.37199e+06	-41689.1	1005.82	-29785.3	0.000000	0.000000	7.284957	371.051	NaN	0.000000	0.001655	0.001772	28.0817	84.9183	0.001716	49488.9	3.211940	173.277	371.914	1.269293	0.078856	0.078467	371.051	49488.9	0.073233	0.177488	2090.57	107324
708	2.000000	1.272089	7.37199e+06	-41689.1	1005.82	-29785.3	0.000000	0.000000	7.287973	385.872	NaN	0.000000	0.001617	0.001765	28.0816	89.1711	0.001735	51400.5	6.348592	-10.8381	378.6	1.271746	0.081263	0.080920	385.872	51400.5	0.075633	0.187753	2055.21	108379
708	2.000000	1.274637	7.37199e+06	-41689.1	1005.82	-29785.3	0.000000	0.000000	7.291161	401.464	NaN	0.000000	0.001589	0.001755	28.0822	92.8204	0.001863	49811.9	6.229447	169.16	400.343	1.274425	0.083811	0.083599	401.464	49811.9	0.077766	0.197106	2036.79	102508
708	2.000000	1.277218	7.37199e+06	-41689.1	1005.82	-29785.3	0.000000	0.000000	7.294771	426.5	NaN	0.000000	0.001623	0.001735	28.0831	93.0237	0.001766	52686.3	1.596316	-5.977275	424.6	1.276710	0.086392	0.085884	426.5	52686.3	0.080321	0.208586	2044.72	105397
708	2.000000	1.279614	7.37199e+06	-41689.1	1005.82	-29785.3	0.000000	0.000000	7.298005	446.891	NaN	0.000000	0.001625	0.001732	28.0829	94.8373	0.001763	53797.5	3.768148	171.77	445.27	1.279249	0.088787	0.088422	446.891	53797.5	0.082557	0.218887	2041.65	105057
708	2.000000	1.282090	7.37199e+06	-41689.1	1005.82	-29785.3	0.000000	0.000000	7.301412	469.56	NaN	0.000000	0.001651	0.001742	28.0827	97.9413	0.001872	52307.7	4.718036	-8.583973	463.579	1.281710	0.091263	0.090884	469.56	52307.7	0.084531	0.228167	2057.96	100049
708	2.000000	1.284644	7.37199e+06	-41689.1	1005.82	-29785.3	0.000000	0.000000	7.304804	489.917	NaN	0.000000	0.001618	0.001716	28.0829	100.612	0.001811	55544.5	2.303495	172.985	489.79	1.284267	0.093818	0.093441	489.917	55544.5	0.087203	0.241022	2032.66	103368
708	2.000000	1.287109	7.37199e+06	-41689.1	1005.82	-29785.3	0.000000	0.000000	7.308020	508.211	NaN	0.000000	0.001653	0.001726	28.0832	101.44	0.001698	59746.9	2.615534	-8.006321	501.565	1.286826	0.096282	0.096000	508.211	59746.9	0.089903	0.254343	1998.13	108238
708	2.000000	1.289746	7.37199e+06	-41689.1	1005.82	-29785.3	0.000000	0.000000	7.311537	529.619	NaN	0.000000	0.001633	0.001729	28.0831	104.852	0.001801	58204.5	8.668745	166.349	536.047	1.289299	0.098920	0.098473	529.619	58204.5	0.092095	0.265406	1995.5	103222
708	2.000000	1.290484	7.37199e+06	-41689.1	1005.82	-29785.3	0.000000	0.000000	7.312762	541.448	NaN	0.000000	0.001648	0.001728	28.0832	105.085	0.001721	61067.3	6.390814	168.041	531.433	1.290250	0.099658	0.099423	541.448	61067.3	0.093008	0.270079	2004.78	107358