File: remote_trans/data/nanoindenter/0828-1/data/Data_2025-08-06,11h17m57s/2025-07-22_16-23-58_1_65.txt
2025-07-22, 16:23:58, 1
Index	Phase	Displacement	Time	Pos X	Pos Y	Pos Z	Rot A	Rot B	Piezo Z	Force A	Force B	Gripper	Voltage A	Voltage B	Temperature	Amplitude force	Amplitude pos	Stiffness	Phase shift	Phase excitation	Force A raw	Displacement raw	HMax	HMax raw	Real Force	Real Stiffness	Contact Depth	Area	Hardness	Reduced Mod.
[#]	[#]	[um]	[s]	[um]	[um]	[um]	[m°]	[m°]	[um]	[uN]	[uN]	[V]	[V]	[V]	[°C]	[uN]	[um]	[N/m]	[°]	[°]	[uN]	[um]	[um]	[um]	[uN]	[N/m]	[um]	[um^2]	[MPa]	[MPa]
65	1.000000	0.002279	7.36568e+06	-41889.1	955.818	-29784.6	0.000000	0.000000	6.002830	0.056425	NaN	0.000000	0.001565	0.001640	28.0946	0.076122	0.000959	79.3436	160.465	-169.25	-0.001054	0.000986	-1.788162	-1.789455	0.056425	79.3436	-1.788695	-7.658124E+23	-7.367933E-26	NaN
65	1.000000	0.014285	7.36568e+06	-41889.1	955.819	-29784.6	0.000000	0.000000	6.014834	0.011038	NaN	0.000000	0.001537	0.001681	28.1011	0.027360	0.001504	18.1879	-95.771	-164.183	-0.016335	0.013082	-1.776156	-1.777358	0.011038	18.1879	-1.776611	-5.293415E+23	-2.085253E-26	NaN
65	1.000000	0.026246	7.36568e+06	-41889.1	955.818	-29784.6	0.000000	0.000000	6.026796	0.016972	NaN	0.000000	0.001599	0.001702	28.0933	0.043133	0.001737	24.8299	-12.9157	-161.51	-0.025167	0.024868	-1.764195	-1.765573	0.016972	24.8299	-1.764708	-3.678961E+23	-4.613151E-26	NaN
65	1.000000	0.038209	7.36568e+06	-41889.1	955.818	-29784.6	0.000000	0.000000	6.038758	0.007717	NaN	0.000000	0.001584	0.001650	28.1005	0.033110	0.001813	18.2596	133.956	-163.235	0.044802	0.036868	-1.752232	-1.753573	0.007717	18.2596	-1.752549	-2.536953E+23	-3.041906E-26	NaN
65	1.000000	0.050214	7.36568e+06	-41889.1	955.818	-29784.6	0.000000	0.000000	6.050764	0.033054	NaN	0.000000	0.001569	0.001626	28.0936	0.097197	0.002093	46.4351	133.572	-166.878	-0.038480	0.048914	-1.740227	-1.741527	0.033054	46.4351	-1.740761	-1.769266E+23	-1.868260E-25	NaN
65	1.000000	0.062233	7.36568e+06	-41889.1	955.819	-29784.6	0.000000	0.000000	6.062783	0.023546	NaN	0.000000	0.001588	0.001669	28.102	0.063011	0.002057	30.6279	-87.1681	-164.071	0.049140	0.060920	-1.728208	-1.729521	0.023546	30.6279	-1.728785	-1.226766E+23	-1.919381E-25	NaN
65	1.000000	0.074231	7.36568e+06	-41889.1	955.818	-29784.6	0.000000	0.000000	6.074781	0.036661	NaN	0.000000	0.001555	0.001643	28.0947	0.040658	0.001948	20.8676	-114.555	-162.944	0.012053	0.072912	-1.716210	-1.717529	0.036661	20.8676	-1.717528	-8.694833E+22	-4.216367E-25	NaN
65	1.000000	0.086214	7.36568e+06	-41889.1	955.818	-29784.6	0.000000	0.000000	6.086763	0.018722	NaN	0.000000	0.001608	0.001665	28.1015	0.048974	0.002092	23.4088	78.8823	-164.522	-0.019267	0.084876	-1.704227	-1.705565	0.018722	23.4088	-1.704827	-5.896057E+22	-3.175397E-25	NaN
65	1.000000	0.098221	7.36568e+06	-41889.1	955.818	-29784.6	0.000000	0.000000	6.098769	-0.007573	NaN	0.000000	0.001627	0.001642	28.0932	0.072560	0.001982	36.6165	-45.361	-165.169	-0.068740	0.096936	-1.692220	-1.693505	-0.007573	36.6165	-1.692065	-3.990465E+22	1.897678E-25	NaN
65	1.000000	0.110222	7.36568e+06	-41889.1	955.817	-29784.6	0.000000	0.000000	6.110770	-0.039114	NaN	0.000000	0.001630	0.001634	28.1009	0.122528	0.002005	61.1171	-162.881	-163.962	-0.014338	0.108884	-1.680218	-1.681557	-0.039114	61.1171	-1.679738	-2.736822E+22	1.429192E-24	NaN
65	1.000000	0.122248	7.36568e+06	-41889.1	955.818	-29784.6	0.000000	0.000000	6.122796	-0.025959	NaN	0.000000	0.001613	0.001676	28.092	0.037580	0.001929	19.4769	-127.157	-163.972	0.011399	0.120945	-1.668193	-1.669496	-0.025959	19.4769	-1.667193	-1.864397E+22	1.392349E-24	NaN
65	1.000000	0.134235	7.36568e+06	-41889.1	955.819	-29784.6	0.000000	0.000000	6.134780	-0.108089	NaN	0.000000	0.001579	0.001668	28.1003	0.035158	0.001957	17.9693	71.1812	-164.87	-0.079815	0.132956	-1.656206	-1.657484	-0.108089	17.9693	-1.651694	-1.160249E+22	9.316015E-24	NaN
65	1.000000	0.146244	7.36568e+06	-41889.1	955.818	-29784.6	0.000000	0.000000	6.146791	-0.024822	NaN	0.000000	0.001601	0.001650	28.0937	0.059614	0.002065	28.8681	19.4469	-163.438	0.013154	0.144982	-1.644197	-1.645458	-0.024822	28.8681	-1.643552	-9.043260E+21	2.744827E-24	NaN
65	1.000000	0.158252	7.36568e+06	-41889.1	955.818	-29784.6	0.000000	0.000000	6.158802	0.028546	NaN	0.000000	0.001616	0.001625	28.1008	0.081165	0.002117	38.3459	67.9305	-162.692	0.047384	0.156919	-1.632189	-1.633522	0.028546	38.3459	-1.632747	-6.496573E+21	-4.394076E-24	NaN
65	1.000000	0.170270	7.36568e+06	-41889.1	955.819	-29784.6	0.000000	0.000000	6.170821	0.048270	NaN	0.000000	0.001607	0.001638	28.0937	0.058670	0.002087	28.1115	48.0273	-163.431	0.019133	0.168960	-1.620171	-1.621480	0.048270	28.1115	-1.621458	-4.598209E+21	-1.049765E-23	NaN
65	1.000000	0.182251	7.36568e+06	-41889.1	955.818	-29784.6	0.000000	0.000000	6.182801	0.032308	NaN	0.000000	0.001593	0.001652	28.0991	0.055459	0.002123	26.1275	99.8864	-163.137	0.077426	0.180942	-1.608190	-1.609499	0.032308	26.1275	-1.609118	-3.151275E+21	-1.025227E-23	NaN
65	1.000000	0.194282	7.36568e+06	-41889.1	955.818	-29784.6	0.000000	0.000000	6.194832	0.027074	NaN	0.000000	0.001603	0.001665	28.0937	0.031226	0.001942	16.0823	-2.211792	-162.068	0.072007	0.192969	-1.596159	-1.597472	0.027074	16.0823	-1.597421	-2.202561E+21	-1.229206E-23	NaN
65	1.000000	0.206267	7.36568e+06	-41889.1	955.818	-29784.6	0.000000	0.000000	6.206818	0.060768	NaN	0.000000	0.001602	0.001654	28.0994	0.050044	0.001925	25.9963	7.965423	-161.668	0.039247	0.204959	-1.584174	-1.585481	0.060768	25.9963	-1.585927	-1.548959E+21	-3.923165E-23	NaN
65	1.000000	0.218251	7.36568e+06	-41889.1	955.818	-29784.6	0.000000	0.000000	6.218799	-0.021519	NaN	0.000000	0.001605	0.001651	28.0941	0.045169	0.001860	24.2779	-86.1531	-163.747	-0.020924	0.216948	-1.572190	-1.573493	-0.021519	24.2779	-1.571526	-9.964101E+20	2.159626E-23	NaN
65	1.000000	0.230259	7.36568e+06	-41889.1	955.818	-29784.6	0.000000	0.000000	6.230807	-0.035674	NaN	0.000000	0.001638	0.001672	28.0993	0.083156	0.002132	39.0037	-147.257	-162.114	-0.080907	0.228960	-1.560182	-1.561481	-0.035674	39.0037	-1.559496	-6.892328E+20	5.175911E-23	NaN
65	1.000000	0.242270	7.36568e+06	-41889.1	955.819	-29784.6	0.000000	0.000000	6.242822	0.072653	NaN	0.000000	0.001622	0.001667	28.095	0.067402	0.001963	34.3306	-50.4114	-166.767	0.129154	0.241021	-1.548170	-1.549420	0.072653	34.3306	-1.549758	-5.114117E+20	-1.420634E-22	NaN
65	1.000000	0.254302	7.36568e+06	-41889.1	955.818	-29784.6	0.000000	0.000000	6.254851	-0.004009	NaN	0.000000	0.001593	0.001695	28.1013	0.029779	0.002052	14.511	-95.1152	-164.313	-0.037122	0.252953	-1.536138	-1.537488	-0.004009	14.511	-1.535931	-3.347618E+20	1.197551E-23	NaN
65	1.000000	0.266288	7.36568e+06	-41889.1	955.818	-29784.6	0.000000	0.000000	6.266839	0.052663	NaN	0.000000	0.001581	0.001682	28.0948	0.067049	0.001808	37.0771	-168.695	-163.211	-0.012819	0.265000	-1.524153	-1.525441	0.052663	37.0771	-1.525218	-2.410532E+20	-2.184699E-22	NaN
65	1.000000	0.278309	7.36568e+06	-41889.1	955.818	-29784.6	0.000000	0.000000	6.278860	0.049560	NaN	0.000000	0.001630	0.001662	28.0999	0.065861	0.001999	32.9462	114.029	-165.288	0.006279	0.276973	-1.512132	-1.513468	0.049560	32.9462	-1.513260	-1.670720E+20	-2.966383E-22	NaN
65	1.000000	0.290328	7.36568e+06	-41889.1	955.818	-29784.6	0.000000	0.000000	6.290877	0.000593	NaN	0.000000	0.001605	0.001678	28.094	0.096585	0.002033	47.5046	49.6861	-163.649	0.063434	0.288990	-1.500112	-1.501451	0.000593	47.5046	-1.500122	-1.116694E+20	-5.309137E-24	NaN
65	1.000000	0.302287	7.36568e+06	-41889.1	955.818	-29784.6	0.000000	0.000000	6.302839	0.077682	NaN	0.000000	0.001648	0.001624	28.1007	0.126347	0.002116	59.7152	96.1775	-165.765	0.111054	0.300999	-1.488154	-1.489442	0.077682	59.7152	-1.489129	-7.971149E+19	-9.745443E-22	NaN
65	1.000000	0.314279	7.36568e+06	-41889.1	955.818	-29784.6	0.000000	0.000000	6.314828	0.001756	NaN	0.000000	0.001616	0.001673	28.0949	0.052131	0.002011	25.9244	157.555	-162.099	-0.109479	0.313069	-1.476161	-1.477372	0.001756	25.9244	-1.476212	-5.363434E+19	-3.274683E-23	NaN
65	1.000000	0.326327	7.36568e+06	-41889.1	955.819	-29784.6	0.000000	0.000000	6.326879	0.061172	NaN	0.000000	0.001691	0.001674	28.1003	0.048413	0.001931	25.0722	49.4775	-163.154	0.097056	0.324978	-1.464114	-1.465463	0.061172	25.0722	-1.465944	-3.914022E+19	-1.562906E-21	NaN
65	1.000000	0.338339	7.36568e+06	-41889.1	955.819	-29784.6	0.000000	0.000000	6.338889	0.023329	NaN	0.000000	0.001679	0.001673	28.0941	0.063146	0.002121	29.7733	-132.529	-164.044	0.036117	0.337037	-1.452102	-1.453404	0.023329	29.7733	-1.452689	-2.606093E+19	-8.951713E-22	NaN
65	1.000000	0.350323	7.36568e+06	-41889.1	955.818	-29784.6	0.000000	0.000000	6.350873	0.035743	NaN	0.000000	0.001694	0.001660	28.0986	0.027503	0.001921	14.3146	178.433	-161.841	-0.051978	0.348992	-1.440118	-1.441449	0.035743	14.3146	-1.441991	-1.876682E+19	-1.904561E-21	NaN
65	1.000000	0.362345	7.36568e+06	-41889.1	955.818	-29784.6	0.000000	0.000000	6.362893	-0.008598	NaN	0.000000	0.001665	0.001677	28.0942	0.038213	0.002077	18.3985	11.996	-163.865	0.010764	0.360995	-1.428096	-1.429446	-0.008598	18.3985	-1.427746	-1.211951E+19	7.094051E-22	NaN
65	1.000000	0.374341	7.36568e+06	-41889.1	955.818	-29784.6	0.000000	0.000000	6.374891	0.039596	NaN	0.000000	0.001652	0.001690	28.0999	0.070187	0.002028	34.6029	-81.1484	-165.73	0.011546	0.373023	-1.416100	-1.417417	0.039596	34.6029	-1.416958	-8.702472E+18	-4.549915E-21	NaN
65	1.000000	0.386354	7.36568e+06	-41889.1	955.818	-29784.6	0.000000	0.000000	6.386904	0.017794	NaN	0.000000	0.001628	0.001706	28.0958	0.054403	0.002053	26.499	-49.4836	-166.908	0.045559	0.385025	-1.404087	-1.405416	0.017794	26.499	-1.404590	-5.952445E+18	-2.989281E-21	NaN
65	1.000000	0.398348	7.36568e+06	-41889.1	955.818	-29784.6	0.000000	0.000000	6.398897	-0.005829	NaN	0.000000	0.001642	0.001721	28.0992	0.053279	0.002147	24.814	34.5627	-166.857	0.071767	0.397063	-1.392093	-1.393378	-0.005829	24.814	-1.391916	-4.033026E+18	1.445198E-21	NaN
65	1.000000	0.410340	7.36568e+06	-41889.1	955.818	-29784.6	0.000000	0.000000	6.410890	0.036471	NaN	0.000000	0.001609	0.001675	28.0956	0.094376	0.002126	44.3847	-96.9762	-164.656	0.031195	0.408999	-1.380101	-1.381442	0.036471	44.3847	-1.380717	-2.858984E+18	-1.275677E-20	NaN
65	1.000000	0.422353	7.36568e+06	-41889.1	955.818	-29784.6	0.000000	0.000000	6.422904	0.032505	NaN	0.000000	0.001575	0.001645	28.0976	0.118495	0.002017	58.7586	-22.9461	-165.884	0.031892	0.421013	-1.368087	-1.369428	0.032505	58.7586	-1.368502	-1.964285E+18	-1.654817E-20	NaN
65	1.000000	0.434355	7.36568e+06	-41889.1	955.818	-29784.6	0.000000	0.000000	6.434905	0.026051	NaN	0.000000	0.001598	0.001682	28.094	0.117062	0.002051	57.0866	-148.905	-167.689	0.081630	0.433069	-1.356086	-1.357372	0.026051	57.0866	-1.356428	-1.355312E+18	-1.922155E-20	NaN
65	1.000000	0.446370	7.36568e+06	-41889.1	955.819	-29784.6	0.000000	0.000000	6.446918	-0.012975	NaN	0.000000	0.001614	0.001669	28.0975	0.069638	0.001961	35.5197	14.1253	-163.639	-0.040499	0.445119	-1.344071	-1.345322	-0.012975	35.5197	-1.343797	-9.191969E+17	1.411565E-20	NaN
65	1.000000	0.458365	7.36568e+06	-41889.1	955.819	-29784.6	0.000000	0.000000	6.458912	-0.041855	NaN	0.000000	0.001596	0.001680	28.0953	0.032887	0.002111	15.5819	114.082	-164.497	-0.013487	0.457078	-1.332076	-1.333363	-0.041855	15.5819	-1.330061	-6.025472E+17	6.946348E-20	NaN
65	1.000000	0.470379	7.36568e+06	-41889.1	955.818	-29784.6	0.000000	0.000000	6.470928	0.004407	NaN	0.000000	0.001571	0.001697	28.0985	0.064533	0.001933	33.3768	149.011	-163.911	0.061840	0.469106	-1.320062	-1.321335	0.004407	33.3768	-1.320161	-4.443751E+17	-9.917919E-21	NaN
65	1.000000	0.482376	7.36568e+06	-41889.1	955.819	-29784.6	0.000000	0.000000	6.482923	-0.043041	NaN	0.000000	0.001554	0.001707	28.0947	0.074369	0.001894	39.2572	2.657543	-163.865	-0.016112	0.481096	-1.308064	-1.309345	-0.043041	39.2572	-1.307242	-2.986528E+17	1.441160E-19	NaN
65	1.000000	0.494385	7.36568e+06	-41889.1	955.818	-29784.6	0.000000	0.000000	6.494933	-0.022837	NaN	0.000000	0.001562	0.001666	28.0989	0.072746	0.001935	37.5982	124.255	-166.85	0.012080	0.493065	-1.296056	-1.297376	-0.022837	37.5982	-1.295601	-2.087394E+17	1.094041E-19	NaN
65	1.000000	0.506377	7.36568e+06	-41889.1	955.818	-29784.6	0.000000	0.000000	6.506922	-0.083782	NaN	0.000000	0.001591	0.001662	28.0944	0.074480	0.002047	36.3794	18.3674	-168.035	-0.182106	0.505080	-1.284064	-1.285361	-0.083782	36.3794	-1.282337	-1.387802E+17	6.037045E-19	NaN
65	1.000000	0.518384	7.36568e+06	-41889.1	955.819	-29784.6	0.000000	0.000000	6.518933	-0.016632	NaN	0.000000	0.001584	0.001642	28.0982	0.045818	0.001926	23.7861	-165.073	-162.057	-0.015970	0.517095	-1.272056	-1.273346	-0.016632	23.7861	-1.271532	-9.951204E+16	1.671384E-19	NaN
65	1.000000	0.530422	7.36568e+06	-41889.1	955.818	-29784.6	0.000000	0.000000	6.530969	-0.026606	NaN	0.000000	0.001590	0.001661	28.0962	0.014506	0.002048	7.081717	-142.29	-163.147	0.086154	0.529129	-1.260019	-1.261312	-0.026606	7.081717	-1.257201	-6.400914E+16	4.156640E-19	NaN
65	1.000000	0.542429	7.36568e+06	-41889.1	955.818	-29784.6	0.000000	0.000000	6.542980	0.045989	NaN	0.000000	0.001582	0.001671	28.0992	0.089673	0.001971	45.5067	-21.2684	-165.763	0.099393	0.541126	-1.248012	-1.249315	0.045989	45.5067	-1.248770	-4.937042E+16	-9.315151E-19	NaN
65	1.000000	0.554406	7.36568e+06	-41889.1	955.817	-29784.6	0.000000	0.000000	6.554953	-0.056034	NaN	0.000000	0.001578	0.001681	28.0969	0.060975	0.002073	29.4127	-49.5938	-165.501	-0.030961	0.553065	-1.236035	-1.237376	-0.056034	29.4127	-1.234606	-3.191336E+16	1.755829E-18	NaN
65	1.000000	0.566443	7.36568e+06	-41889.1	955.818	-29784.6	0.000000	0.000000	6.566992	-0.014483	NaN	0.000000	0.001578	0.001687	28.1	0.094251	0.001949	48.3707	15.9172	-164.715	-0.008497	0.565137	-1.223997	-1.225304	-0.014483	48.3707	-1.223773	-2.285606E+16	6.336451E-19	NaN
65	1.000000	0.578453	7.36568e+06	-41889.1	955.818	-29784.6	0.000000	0.000000	6.579003	0.027333	NaN	0.000000	0.001583	0.001726	28.0958	0.067482	0.001993	33.8509	-102.243	-164.93	0.012849	0.577071	-1.211987	-1.213369	0.027333	33.8509	-1.212593	-1.619404E+16	-1.687870E-18	NaN
65	1.000000	0.590435	7.36568e+06	-41889.1	955.818	-29784.6	0.000000	0.000000	6.590985	0.019255	NaN	0.000000	0.001573	0.001655	28.0983	0.023494	0.001994	11.785	-85.9339	-161.018	0.033945	0.589078	-1.200006	-1.201363	0.019255	11.785	-1.201231	-1.140869E+16	-1.687743E-18	NaN
65	1.000000	0.602432	7.36568e+06	-41889.1	955.819	-29784.6	0.000000	0.000000	6.602984	0.063578	NaN	0.000000	0.001593	0.001649	28.0959	0.070942	0.002016	35.1854	-31.8403	-168.634	0.067029	0.601109	-1.188009	-1.189332	0.063578	35.1854	-1.189364	-7.912313E+15	-8.035327E-18	NaN
65	1.000000	0.614430	7.36568e+06	-41889.1	955.819	-29784.6	0.000000	0.000000	6.614978	-0.023259	NaN	0.000000	0.001594	0.001676	28.0989	0.077759	0.001971	39.4545	-153.938	-164.629	0.000825	0.613139	-1.176011	-1.177302	-0.023259	39.4545	-1.175568	-5.170100E+15	4.498686E-18	NaN
65	1.000000	0.626444	7.36568e+06	-41889.1	955.818	-29784.5	0.000000	0.000000	6.626990	-0.072868	NaN	0.000000	0.001598	0.001630	28.0971	0.164942	0.002074	79.5291	57.8174	-166.195	-0.173123	0.625143	-1.163997	-1.165297	-0.072868	79.5291	-1.163310	-3.541844E+15	2.057335E-17	NaN
65	1.000000	0.638461	7.36568e+06	-41889.1	955.818	-29784.5	0.000000	0.000000	6.639010	-0.015196	NaN	0.000000	0.001569	0.001711	28.0995	0.071471	0.002023	35.3329	-61.8323	-164.021	-0.038528	0.637120	-1.151979	-1.153321	-0.015196	35.3329	-1.151657	-2.471904E+15	6.147428E-18	NaN
65	1.000000	0.650466	7.36568e+06	-41889.1	955.817	-29784.5	0.000000	0.000000	6.651016	0.033380	NaN	0.000000	0.001531	0.001705	28.097	0.146510	0.001986	73.7689	-142.06	-162.024	0.054671	0.649185	-1.139975	-1.141255	0.033380	73.7689	-1.140315	-1.741630E+15	-1.916574E-17	NaN
65	1.000000	0.662435	7.36568e+06	-41889.1	955.818	-29784.5	0.000000	0.000000	6.662984	0.006107	NaN	0.000000	0.001576	0.001688	28.0979	0.070357	0.002007	35.0548	44.2099	-164.231	0.007254	0.661095	-1.128006	-1.129345	0.006107	35.0548	-1.128137	-1.195714E+15	-5.107617E-18	NaN
65	1.000000	0.674488	7.36568e+06	-41889.1	955.819	-29784.5	0.000000	0.000000	6.675036	-0.018251	NaN	0.000000	0.001588	0.001699	28.095	0.057135	0.002145	26.6329	95.8824	-162.818	-0.047376	0.673203	-1.115953	-1.117238	-0.018251	26.6329	-1.115439	-8.077476E+14	2.259498E-17	NaN
65	1.000000	0.686496	7.36568e+06	-41889.1	955.818	-29784.5	0.000000	0.000000	6.687045	0.004565	NaN	0.000000	0.001584	0.001698	28.097	0.011418	0.001933	5.908091	-36.6005	-163.935	-0.083388	0.685194	-1.103944	-1.105247	0.004565	5.908091	-1.104524	-5.764901E+14	-7.917804E-18	NaN
65	1.000000	0.698505	7.36568e+06	-41889.1	955.818	-29784.5	0.000000	0.000000	6.699058	0.103088	NaN	0.000000	0.001565	0.001692	28.0955	0.028740	0.002016	14.2582	-105.614	-164.53	0.061287	0.697160	-1.091936	-1.093281	0.103088	14.2582	-1.097359	-4.619671E+14	-2.231508E-16	NaN
65	1.000000	0.710504	7.36568e+06	-41889.1	955.818	-29784.5	0.000000	0.000000	6.711055	0.042347	NaN	0.000000	0.001569	0.001720	28.0972	0.088584	0.001961	45.1783	45.7227	-165.079	0.081593	0.709228	-1.079937	-1.081212	0.042347	45.1783	-1.080640	-2.754935E+14	-1.537131E-16	NaN
65	1.000000	0.722488	7.36568e+06	-41889.1	955.819	-29784.5	0.000000	0.000000	6.723042	0.114881	NaN	0.000000	0.001554	0.001683	28.0959	0.034549	0.001999	17.2861	-98.5964	-160.643	0.144120	0.721158	-1.067952	-1.069282	0.114881	17.2861	-1.072937	-2.170919E+14	-5.291809E-16	NaN
65	1.000000	0.734494	7.36568e+06	-41889.1	955.818	-29784.5	0.000000	0.000000	6.735045	0.054073	NaN	0.000000	0.001570	0.001695	28.0968	0.052336	0.002059	25.4221	-31.7009	-165.324	0.007451	0.733204	-1.055947	-1.057237	0.054073	25.4221	-1.057543	-1.348326E+14	-4.010349E-16	NaN
65	1.000000	0.746500	7.36568e+06	-41889.1	955.819	-29784.5	0.000000	0.000000	6.747050	0.024539	NaN	0.000000	0.001583	0.001660	28.0946	0.057007	0.002032	28.0555	-12.5336	-162.426	0.027552	0.745213	-1.043941	-1.045228	0.024539	28.0555	-1.044597	-9.031900E+13	-2.716956E-16	NaN
65	1.000000	0.758493	7.36568e+06	-41889.1	955.818	-29784.5	0.000000	0.000000	6.759040	-0.029758	NaN	0.000000	0.001581	0.001665	28.0966	0.027901	0.002024	13.7853	35.7777	-165.87	-0.031465	0.757233	-1.031948	-1.033208	-0.029758	13.7853	-1.030329	-5.806441E+13	5.124931E-16	NaN
65	1.000000	0.770508	7.36568e+06	-41889.1	955.818	-29784.5	0.000000	0.000000	6.771053	-0.097821	NaN	0.000000	0.001510	0.001642	28.0951	0.086531	0.001917	45.136	139.392	-162.91	-0.030980	0.769186	-1.019932	-1.021255	-0.097821	45.136	-1.018307	-4.001039E+13	2.444883E-15	NaN
65	1.000000	0.782504	7.36568e+06	-41889.1	955.818	-29784.5	0.000000	0.000000	6.783057	0.095130	NaN	0.000000	0.001518	0.001624	28.0971	0.201934	0.002136	94.5386	-111.881	-162.611	0.061259	0.781149	-1.007937	-1.009292	0.095130	94.5386	-1.008692	-2.970100E+13	-3.202914E-15	NaN
65	1.000000	0.794521	7.36568e+06	-41889.1	955.818	-29784.5	0.000000	0.000000	6.795070	-0.004755	NaN	0.000000	0.001522	0.001671	28.0956	0.132135	0.002029	65.121	120.258	-163.181	0.005664	0.793236	-0.995920	-0.997205	-0.004755	65.121	-0.995865	-1.995686E+13	2.382584E-16	NaN
65	1.000000	0.806528	7.36568e+06	-41889.1	955.818	-29784.5	0.000000	0.000000	6.807075	-0.040724	NaN	0.000000	0.001545	0.001683	28.098	0.069386	0.002066	33.5848	1.562494	-164.066	-0.031779	0.805277	-0.983913	-0.985163	-0.040724	33.5848	-0.983004	-1.339289E+13	3.040708E-15	NaN
65	1.000000	0.818518	7.36568e+06	-41889.1	955.818	-29784.5	0.000000	0.000000	6.819066	-0.018431	NaN	0.000000	0.001527	0.001657	28.0963	0.052693	0.001900	27.7403	-6.808667	-164.021	0.012529	0.817247	-0.971923	-0.973193	-0.018431	27.7403	-0.971425	-9.351154E+12	1.970989E-15	NaN
65	1.000000	0.830510	7.36568e+06	-41889.1	955.819	-29784.5	0.000000	0.000000	6.831059	0.002862	NaN	0.000000	0.001529	0.001655	28.0976	0.087218	0.002062	42.2974	97.5963	-165.757	-0.042454	0.829212	-0.959931	-0.961229	0.002862	42.2974	-0.959982	-6.555757E+12	-4.366303E-16	NaN
65	1.000000	0.842549	7.36568e+06	-41889.1	955.818	-29784.5	0.000000	0.000000	6.843097	-0.023969	NaN	0.000000	0.001561	0.001654	28.0971	0.021877	0.001936	11.2996	-135.64	-161.07	0.000389	0.841246	-0.947891	-0.949195	-0.023969	11.2996	-0.946300	-4.286771E+12	5.591433E-15	NaN
65	1.000000	0.854534	7.36568e+06	-41889.1	955.818	-29784.5	0.000000	0.000000	6.855084	0.031870	NaN	0.000000	0.001544	0.001686	28.0961	0.045141	0.002046	22.0596	139.838	-166.159	-0.005670	0.853211	-0.935907	-0.937229	0.031870	22.0596	-0.936991	-3.210225E+12	-9.927635E-15	NaN
65	1.000000	0.866556	7.36568e+06	-41889.1	955.818	-29784.5	0.000000	0.000000	6.867102	-0.062200	NaN	0.000000	0.001542	0.001666	28.0975	0.056629	0.001904	29.7437	-168.007	-165.128	0.089117	0.865289	-0.923885	-0.925152	-0.062200	29.7437	-0.922317	-2.034632E+12	3.057073E-14	NaN
65	1.000000	0.878556	7.36568e+06	-41889.1	955.818	-29784.5	0.000000	0.000000	6.879108	0.079517	NaN	0.000000	0.001563	0.001696	28.0979	0.029729	0.001955	15.2039	72.5768	-164.294	-0.018691	0.877232	-0.911885	-0.913209	0.079517	15.2039	-0.915808	-1.661871E+12	-4.784767E-14	NaN
65	1.000000	0.890563	7.36568e+06	-41889.1	955.818	-29784.5	0.000000	0.000000	6.891110	-0.046012	NaN	0.000000	0.001525	0.001687	28.0984	0.032313	0.002023	15.9709	-164.873	-163.378	-0.092723	0.889230	-0.899877	-0.901210	-0.046012	15.9709	-0.897717	-9.466988E+11	4.860223E-14	NaN
65	1.000000	0.902534	7.36568e+06	-41889.1	955.818	-29784.5	0.000000	0.000000	6.903084	0.028633	NaN	0.000000	0.001544	0.001687	28.0967	0.060873	0.001978	30.7809	177.648	-168.08	-0.028454	0.901270	-0.887907	-0.889171	0.028633	30.7809	-0.888604	-7.129329E+11	-4.016287E-14	NaN
65	1.000000	0.914565	7.36568e+06	-41889.1	955.819	-29784.5	0.000000	0.000000	6.915116	0.031637	NaN	0.000000	0.001562	0.001661	28.0968	0.091702	0.001973	46.4786	-123.093	-165.235	0.007515	0.913251	-0.875875	-0.877190	0.031637	46.4786	-0.876386	-4.873367E+11	-6.491835E-14	NaN
65	1.000000	0.926568	7.36568e+06	-41889.1	955.818	-29784.5	0.000000	0.000000	6.927118	0.023497	NaN	0.000000	0.001554	0.001724	28.0973	0.045184	0.002015	22.423	8.933926	-163.813	0.041162	0.925247	-0.863873	-0.865194	0.023497	22.423	-0.864659	-3.381986E+11	-6.947611E-14	NaN
65	1.000000	0.938574	7.36568e+06	-41889.1	955.819	-29784.5	0.000000	0.000000	6.939125	0.053655	NaN	0.000000	0.001548	0.001680	28.0971	0.126290	0.001915	65.953	-5.667030	-166.079	0.019648	0.937245	-0.851867	-0.853196	0.053655	65.953	-0.852477	-2.313528E+11	-2.319199E-13	NaN
65	1.000000	0.950582	7.36568e+06	-41889.1	955.819	-29784.5	0.000000	0.000000	6.951133	0.041068	NaN	0.000000	0.001531	0.001688	28.0965	0.044679	0.001994	22.4075	160.041	-166.774	0.047033	0.949271	-0.839858	-0.841170	0.041068	22.4075	-0.841233	-1.629287E+11	-2.520593E-13	NaN
65	1.000000	0.962561	7.36568e+06	-41889.1	955.817	-29784.5	0.000000	0.000000	6.963110	0.010284	NaN	0.000000	0.001501	0.001696	28.0975	0.061425	0.002069	29.6921	-68.4169	-163.316	0.085033	0.961307	-0.827880	-0.829134	0.010284	29.6921	-0.828140	-1.082858E+11	-9.497004E-14	NaN
65	1.000000	0.974605	7.36568e+06	-41889.1	955.819	-29784.5	0.000000	0.000000	6.975153	-0.043035	NaN	0.000000	0.001507	0.001699	28.0963	0.070477	0.002097	33.614	-148.966	-164.673	0.030421	0.973282	-0.815835	-0.817159	-0.043035	33.614	-0.814875	-7.156598E+10	6.013325E-13	NaN
65	1.000000	0.986564	7.36568e+06	-41889.1	955.819	-29784.5	0.000000	0.000000	6.987114	0.034653	NaN	0.000000	0.001559	0.001655	28.0964	0.071946	0.001907	37.7302	-136.835	-164.913	0.093983	0.985249	-0.803877	-0.805192	0.034653	37.7302	-0.804566	-5.186040E+10	-6.681995E-13	NaN
65	1.000000	0.998591	7.36568e+06	-41889.1	955.819	-29784.5	0.000000	0.000000	6.999140	0.022405	NaN	0.000000	0.001536	0.001655	28.0953	0.023139	0.002026	11.423	-83.4443	-166.449	0.019504	0.997307	-0.791850	-0.793134	0.022405	11.423	-0.793321	-3.649114E+10	-6.139770E-13	NaN
65	1.000000	1.010637	7.36568e+06	-41889.1	955.819	-29784.5	0.000000	0.000000	7.011184	-0.047094	NaN	0.000000	0.001564	0.001610	28.0965	0.052185	0.002067	25.2523	-33.4495	-166.833	-0.057773	1.009285	-0.779804	-0.781156	-0.047094	25.2523	-0.778405	-2.288535E+10	2.057817E-12	NaN
65	1.000000	1.022580	7.36568e+06	-41889.1	955.819	-29784.5	0.000000	0.000000	7.023129	0.000298	NaN	0.000000	0.001521	0.001657	28.0963	0.078654	0.001984	39.6486	84.6436	-164.862	-0.104253	1.021298	-0.767861	-0.769143	0.000298	39.6486	-0.767867	-1.645506E+10	-1.810663E-14	NaN
65	1.000000	1.034610	7.36568e+06	-41889.1	955.819	-29784.5	0.000000	0.000000	7.035157	-0.024079	NaN	0.000000	0.001538	0.001685	28.0978	0.036955	0.001924	19.2034	-94.1936	-166.148	-0.036544	1.033305	-0.755831	-0.757136	-0.024079	19.2034	-0.754891	-1.095938E+10	2.197124E-12	NaN
65	1.000000	1.046613	7.36568e+06	-41889.1	955.819	-29784.5	0.000000	0.000000	7.047162	0.005340	NaN	0.000000	0.001586	0.001753	28.0957	0.096082	0.002048	46.9239	-151.837	-165.563	-0.033215	1.045269	-0.743828	-0.745171	0.005340	46.9239	-0.743914	-7.768804E+9	-6.873538E-13	NaN
65	1.000000	1.058647	7.36568e+06	-41889.1	955.818	-29784.5	0.000000	0.000000	7.059196	-0.006061	NaN	0.000000	0.001578	0.001704	28.0969	0.152168	0.002014	75.5612	-143.433	-165.491	-0.023597	1.057338	-0.731794	-0.733103	-0.006061	75.5612	-0.731733	-5.301909E+9	1.143245E-12	NaN
65	1.000000	1.070599	7.36568e+06	-41889.1	955.819	-29784.5	0.000000	0.000000	7.071149	0.041060	NaN	0.000000	0.001562	0.001675	28.095	0.150600	0.001977	76.1872	98.4204	-167.376	0.040318	1.069377	-0.719842	-0.721064	0.041060	76.1872	-0.720246	-3.696842E+9	-1.110671E-11	NaN
65	1.000000	1.082638	7.36568e+06	-41889.1	955.819	-29784.5	0.000000	0.000000	7.083186	-0.021994	NaN	0.000000	0.001598	0.001692	28.0985	0.077192	0.001956	39.4557	150.013	-167.576	-0.034312	1.081305	-0.707802	-0.709136	-0.021994	39.4557	-0.707384	-2.468026E+9	8.911643E-12	NaN
65	1.000000	1.094641	7.36568e+06	-41889.1	955.819	-29784.5	0.000000	0.000000	7.095190	0.012682	NaN	0.000000	0.001560	0.001688	28.0959	0.041043	0.001899	21.6158	108.703	-169.373	0.047338	1.093320	-0.695800	-0.697121	0.012682	21.6158	-0.696240	-1.738520E+9	-7.294857E-12	NaN
65	1.000000	1.106630	7.36568e+06	-41889.1	955.82	-29784.5	0.000000	0.000000	7.107178	-0.022979	NaN	0.000000	0.001549	0.001698	28.1001	0.133875	0.002009	66.6362	-177.019	-164.145	0.025327	1.105314	-0.683811	-0.685127	-0.022979	66.6362	-0.683552	-1.166214E+9	1.970377E-11	NaN
65	1.000000	1.118645	7.36568e+06	-41889.1	955.82	-29784.5	0.000000	0.000000	7.119196	0.036425	NaN	0.000000	0.001537	0.001728	28.0969	0.009155	0.002011	4.553287	76.2639	-165.528	0.023965	1.117339	-0.671796	-0.673102	0.036425	4.553287	-0.677795	-9.728633E+8	-3.744081E-11	NaN
65	1.000000	1.130627	7.36568e+06	-41889.1	955.819	-29784.5	0.000000	0.000000	7.131179	0.077824	NaN	0.000000	0.001565	0.001763	28.0994	0.129175	0.001928	67.0153	27.1829	-163	0.021166	1.129319	-0.659814	-0.661122	0.077824	67.0153	-0.660685	-5.673436E+8	-1.371734E-10	NaN
65	1.000000	1.142626	7.36568e+06	-41889.1	955.819	-29784.5	0.000000	0.000000	7.143176	0.008112	NaN	0.000000	0.001562	0.001701	28.0966	0.021997	0.001893	11.6209	-110.316	-163.14	-0.019115	1.141365	-0.647814	-0.649076	0.008112	11.6209	-0.648338	-3.842827E+8	-2.111004E-11	NaN
65	1.000000	1.154661	7.36568e+06	-41889.1	955.82	-29784.5	0.000000	0.000000	7.155209	-0.012745	NaN	0.000000	0.001553	0.001657	28.0988	0.049891	0.002074	24.0534	-122.084	-168.663	-0.002819	1.153362	-0.635780	-0.637079	-0.012745	24.0534	-0.635383	-2.552254E+8	4.993770E-11	NaN
65	1.000000	1.166657	7.36568e+06	-41889.1	955.82	-29784.5	0.000000	0.000000	7.167207	0.022128	NaN	0.000000	0.001564	0.001704	28.0956	0.137547	0.001962	70.1141	5.504865	-163.151	0.036538	1.165364	-0.623783	-0.625077	0.022128	70.1141	-0.624020	-1.781888E+8	-1.241848E-10	NaN
65	1.000000	1.178677	7.36568e+06	-41889.1	955.819	-29784.5	0.000000	0.000000	7.179224	-0.050384	NaN	0.000000	0.001587	0.001718	28.0999	0.050612	0.002009	25.1878	99.4365	-167.434	-0.080024	1.177420	-0.611764	-0.613020	-0.050384	25.1878	-0.610263	-1.152761E+8	4.370703E-10	NaN
65	1.000000	1.190648	7.36568e+06	-41889.1	955.82	-29784.5	0.000000	0.000000	7.191197	0.018089	NaN	0.000000	0.001562	0.001710	28.0968	0.137139	0.001979	69.2907	-23.291	-162.317	0.083692	1.189337	-0.599793	-0.601104	0.018089	69.2907	-0.599989	-8.323542E+7	-2.173290E-10	NaN
65	1.000000	1.202681	7.36568e+06	-41889.1	955.82	-29784.5	0.000000	0.000000	7.203230	-0.007212	NaN	0.000000	0.001592	0.001706	28.0992	0.083220	0.001985	41.9244	-44.3315	-162.606	0.003192	1.201401	-0.587759	-0.589040	-0.007212	41.9244	-0.587630	-5.623321E+7	1.282531E-10	NaN
65	1.000000	1.214695	7.36568e+06	-41889.1	955.819	-29784.5	0.000000	0.000000	7.215242	-0.031459	NaN	0.000000	0.001546	0.001721	28.0945	0.070981	0.001798	39.4709	8.000805	-166.11	0.066861	1.213325	-0.575746	-0.577116	-0.031459	39.4709	-0.575148	-3.782203E+7	8.317626E-10	NaN
65	1.000000	1.226725	7.36568e+06	-41889.1	955.82	-29784.5	0.000000	0.000000	7.227276	0.053367	NaN	0.000000	0.001564	0.001754	28.0971	0.077451	0.001968	39.3524	-79.0051	-163.794	0.149932	1.225367	-0.563716	-0.565073	0.053367	39.3524	-0.564733	-2.715427E+7	-1.965319E-9	NaN
65	1.000000	1.238719	7.36568e+06	-41889.1	955.821	-29784.5	0.000000	0.000000	7.239267	-0.019375	NaN	0.000000	0.001555	0.001689	28.0941	0.033474	0.002028	16.503	-152.628	-165.405	-0.051407	1.237378	-0.551722	-0.553063	-0.019375	16.503	-0.550842	-1.744265E+7	1.110797E-9	NaN
65	1.000000	1.250678	7.36568e+06	-41889.1	955.819	-29784.5	0.000000	0.000000	7.251225	-0.046856	NaN	0.000000	0.001551	0.001707	28.0983	0.006171	0.001947	3.169564	-135.657	-163.289	-0.028600	1.249441	-0.539763	-0.541000	-0.046856	3.169564	-0.528675	-8.5936e+06	5.452390E-9	NaN
65	1.000000	1.262702	7.36568e+06	-41889.1	955.82	-29784.5	0.000000	0.000000	7.263252	0.027412	NaN	0.000000	0.001556	0.001711	28.0953	0.092176	0.002114	43.595	118.726	-167.313	-0.049327	1.261453	-0.527739	-0.528988	0.027412	43.595	-0.528210	-8.46671e+06	-3.237665E-9	NaN
65	1.000000	1.274696	7.36568e+06	-41889.1	955.82	-29784.5	0.000000	0.000000	7.275242	-0.090860	NaN	0.000000	0.001568	0.001715	28.0995	0.038751	0.001851	20.9324	13.8793	-166.022	-0.024272	1.273452	-0.515744	-0.516989	-0.090860	20.9324	-0.512489	-5.11771e+06	1.775401E-8	NaN
65	1.000000	1.286706	7.36568e+06	-41889.1	955.82	-29784.5	0.000000	0.000000	7.287255	0.003481	NaN	0.000000	0.001540	0.001647	28.0945	0.071458	0.001943	36.7717	94.4288	-164.366	-0.017735	1.285402	-0.503735	-0.505039	0.003481	36.7717	-0.503806	-3.87341e+06	-8.986777E-10	NaN
65	1.000000	1.298704	7.36568e+06	-41889.1	955.82	-29784.5	0.000000	0.000000	7.299253	0.020155	NaN	0.000000	0.001522	0.001721	28.0977	0.099625	0.002064	48.2633	57.1418	-167.944	-0.011830	1.297381	-0.491737	-0.493060	0.020155	48.2633	-0.492050	-2.65486e+06	-7.591659E-9	NaN
65	1.000000	1.310753	7.36568e+06	-41889.1	955.819	-29784.5	0.000000	0.000000	7.311302	0.000280	NaN	0.000000	0.001517	0.001726	28.094	0.050272	0.001952	25.7587	-1.148647	-167.852	0.058763	1.309427	-0.479688	-0.481014	0.000280	25.7587	-0.479696	-1.78349e+06	-1.570905E-10	NaN
65	1.000000	1.322708	7.36568e+06	-41889.1	955.819	-29784.5	0.000000	0.000000	7.323258	0.045943	NaN	0.000000	0.001611	0.001755	28.0979	0.071178	0.002029	35.0778	-162.621	-167.256	-0.045404	1.321432	-0.467733	-0.469008	0.045943	35.0778	-0.468716	-1.25139e+06	-3.671354E-8	NaN
65	1.000000	1.334729	7.36568e+06	-41889.1	955.82	-29784.5	0.000000	0.000000	7.335276	-0.057449	NaN	0.000000	0.001536	0.001712	28.0931	0.068485	0.001994	34.3506	12.7368	-165.633	0.036336	1.333391	-0.455712	-0.457050	-0.057449	34.3506	-0.454457	-789010	7.281127E-8	NaN
65	1.000000	1.346765	7.36568e+06	-41889.1	955.82	-29784.5	0.000000	0.000000	7.347318	0.087683	NaN	0.000000	0.001531	0.001724	28.1002	0.063508	0.002057	30.8698	67.7953	-165.704	0.067632	1.345438	-0.443676	-0.445003	0.087683	30.8698	-0.445806	-596012	-1.471168E-7	NaN
65	1.000000	1.358737	7.36568e+06	-41889.1	955.82	-29784.5	0.000000	0.000000	7.359284	-0.027438	NaN	0.000000	0.001505	0.001746	28.0951	0.036335	0.002059	17.6506	170.169	-165.908	0.001469	1.357448	-0.431704	-0.432993	-0.027438	17.6506	-0.430538	-362808	7.562575E-8	NaN
65	1.000000	1.370744	7.36568e+06	-41889.1	955.82	-29784.5	0.000000	0.000000	7.371291	-0.058709	NaN	0.000000	0.001522	0.001741	28.1003	0.028428	0.001962	14.4919	145.788	-166.148	-0.059431	1.369475	-0.419697	-0.420966	-0.058709	14.4919	-0.416658	-230675	2.545093E-7	NaN
65	1.000000	1.382774	7.36568e+06	-41889.1	955.82	-29784.5	0.000000	0.000000	7.383323	-0.016575	NaN	0.000000	0.001540	0.001747	28.094	0.072829	0.001925	37.837	-77.6043	-166.107	0.013641	1.381437	-0.407667	-0.409004	-0.016575	37.837	-0.407338	-170032	9.748283E-8	NaN
65	1.000000	1.394768	7.36568e+06	-41889.1	955.82	-29784.5	0.000000	0.000000	7.395315	-0.039717	NaN	0.000000	0.001558	0.001727	28.1	0.117628	0.001980	59.41	44.3681	-162.723	0.046133	1.393453	-0.395673	-0.396987	-0.039717	59.41	-0.395172	-114048	3.482492E-7	NaN
65	1.000000	1.406777	7.36568e+06	-41889.1	955.819	-29784.5	0.000000	0.000000	7.407327	0.022724	NaN	0.000000	0.001555	0.001724	28.0951	0.203190	0.002094	97.043	-24.5525	-169.374	0.028801	1.405492	-0.383663	-0.384949	0.022724	97.043	-0.383839	-78514.3	-2.894230E-7	NaN
65	1.000000	1.418776	7.36568e+06	-41889.1	955.819	-29784.5	0.000000	0.000000	7.419323	-0.047441	NaN	0.000000	0.001584	0.001688	28.1011	0.070960	0.001973	35.9579	-0.476321	-167.476	-0.051488	1.417515	-0.371664	-0.372926	-0.047441	35.9579	-0.370675	-50798	9.339083E-7	NaN
65	1.000000	1.430787	7.36568e+06	-41889.1	955.819	-29784.5	0.000000	0.000000	7.431331	-0.114561	NaN	0.000000	0.001582	0.001724	28.0961	0.122264	0.002053	59.5677	54.5436	-164.733	-0.087426	1.429471	-0.359654	-0.360970	-0.114561	59.5677	-0.358211	-33572.3	3.412366E-6	NaN
65	1.000000	1.442790	7.36568e+06	-41889.1	955.82	-29784.5	0.000000	0.000000	7.443339	-0.010962	NaN	0.000000	0.001583	0.001728	28.1016	0.025888	0.002087	12.4046	-15.6174	-167.282	0.016392	1.441510	-0.347651	-0.348931	-0.010962	12.4046	-0.346988	-23081	4.749481E-7	NaN
65	1.000000	1.454799	7.36568e+06	-41889.1	955.82	-29784.5	0.000000	0.000000	7.455347	-0.005672	NaN	0.000000	0.001567	0.001748	28.0947	0.111892	0.001988	56.2886	119.566	-164.274	-0.033267	1.453578	-0.335642	-0.336863	-0.005672	56.2886	-0.335566	-15734.8	3.604542E-7	NaN
65	1.000000	1.466820	7.36568e+06	-41889.1	955.819	-29784.5	0.000000	0.000000	7.467370	0.019915	NaN	0.000000	0.001561	0.001746	28.1005	0.061061	0.002084	29.3037	145.591	-164.594	0.091381	1.465508	-0.323621	-0.324933	0.019915	29.3037	-0.324130	-10699.6	-1.861254E-6	NaN
65	1.000000	1.478824	7.36568e+06	-41889.1	955.819	-29784.5	0.000000	0.000000	7.479375	0.040793	NaN	0.000000	0.001555	0.001694	28.0942	0.041152	0.001853	22.2068	14.3939	-166.105	0.120771	1.477507	-0.311617	-0.312933	0.040793	22.2068	-0.312994	-7333.88	-5.562312E-6	NaN
65	1.000000	1.490812	7.36568e+06	-41889.1	955.82	-29784.5	0.000000	0.000000	7.491364	0.074681	NaN	0.000000	0.001522	0.001737	28.0992	0.092798	0.001933	48.0084	-116.971	-164.641	0.036452	1.489502	-0.299628	-0.300939	0.074681	48.0084	-0.300795	-4835.81	-1.544342E-5	NaN
65	1.000000	1.502804	7.36568e+06	-41889.1	955.82	-29784.5	0.000000	0.000000	7.503353	0.009022	NaN	0.000000	0.001541	0.001718	28.0935	0.113429	0.002000	56.7042	-145.572	-165.077	-0.007297	1.501542	-0.287637	-0.288899	0.009022	56.7042	-0.287756	-3087.9	-2.921672E-6	NaN
65	1.000000	1.514807	7.36568e+06	-41889.1	955.82	-29784.5	0.000000	0.000000	7.515356	-0.017549	NaN	0.000000	0.001555	0.001708	28.0998	0.077526	0.001988	38.9946	84.6981	-164.976	-0.006567	1.513530	-0.275633	-0.276911	-0.017549	38.9946	-0.275296	-2003.92	8.757298E-6	NaN
65	1.000000	1.526806	7.36568e+06	-41889.1	955.821	-29784.5	0.000000	0.000000	7.527352	-0.079452	NaN	0.000000	0.001560	0.001752	28.0941	0.125440	0.002036	61.611	72.2473	-163.696	-0.042933	1.525485	-0.263634	-0.264956	-0.079452	61.611	-0.262667	-1287.51	6.170986E-5	NaN
65	1.000000	1.538843	7.36568e+06	-41889.1	955.82	-29784.5	0.000000	0.000000	7.539391	-0.034712	NaN	0.000000	0.001552	0.001764	28.0989	0.027849	0.002003	13.906	-33.464	-167.008	-0.038156	1.537556	-0.251598	-0.252884	-0.034712	13.906	-0.249726	-814.183	4.263364E-5	NaN
65	1.000000	1.550832	7.36568e+06	-41889.1	955.82	-29784.5	0.000000	0.000000	7.551380	-0.012827	NaN	0.000000	0.001544	0.001708	28.0926	0.072258	0.001955	36.9644	76.9592	-165.451	0.058262	1.549468	-0.239609	-0.240973	-0.012827	36.9644	-0.239349	-561.539	2.284221E-5	NaN
65	1.000000	1.562847	7.36568e+06	-41889.1	955.82	-29784.5	0.000000	0.000000	7.563399	0.077489	NaN	0.000000	0.001538	0.001720	28.0997	0.028561	0.002035	14.032	116.671	-165.529	-0.030529	1.561498	-0.227594	-0.228943	0.077489	14.032	-0.231735	-426.474	-0.000182	NaN
65	1.000000	1.574862	7.36568e+06	-41889.1	955.82	-29784.5	0.000000	0.000000	7.575411	-0.004573	NaN	0.000000	0.001569	0.001734	28.0937	0.036521	0.002017	18.1102	153.591	-164.633	-0.064380	1.573583	-0.215579	-0.216858	-0.004573	18.1102	-0.215389	-234.303	1.951781E-5	NaN
65	1.000000	1.586856	7.36568e+06	-41889.1	955.82	-29784.5	0.000000	0.000000	7.587407	0.036328	NaN	0.000000	0.001566	0.001707	28.1003	0.089940	0.001980	45.4272	-71.443	-163.327	-0.035160	1.585558	-0.203585	-0.204883	0.036328	45.4272	-0.204184	-154.258	-0.000235	NaN
65	1.000000	1.598859	7.36568e+06	-41889.1	955.821	-29784.5	0.000000	0.000000	7.599409	0.014514	NaN	0.000000	0.001574	0.001730	28.0932	0.094258	0.002000	47.1352	119.432	-165.023	0.065486	1.597538	-0.191582	-0.192903	0.014514	47.1352	-0.191812	-96.4405	-0.000150	NaN
65	1.000000	1.610858	7.36568e+06	-41889.1	955.819	-29784.5	0.000000	0.000000	7.611409	0.040434	NaN	0.000000	0.001576	0.001709	28.1	0.056464	0.001914	29.502	117.255	-162.37	0.060330	1.609579	-0.179583	-0.180862	0.040434	29.502	-0.180611	-62.4955	-0.000647	NaN
65	1.000000	1.622882	7.36568e+06	-41889.1	955.819	-29784.5	0.000000	0.000000	7.623430	-0.010385	NaN	0.000000	0.001625	0.001769	28.0934	0.148058	0.002067	71.627	-175.898	-167.531	0.062988	1.621591	-0.167559	-0.168850	-0.010385	71.627	-0.167450	-37.0861	0.000280	NaN
65	1.000000	1.634863	7.36568e+06	-41889.1	955.82	-29784.5	0.000000	0.000000	7.635409	-0.057393	NaN	0.000000	0.001608	0.001740	28.1006	0.113273	0.002027	55.8799	127.851	-162.241	-0.042188	1.633550	-0.155578	-0.156891	-0.057393	55.8799	-0.154808	-22.1371	0.002593	NaN
65	1.000000	1.646897	7.36568e+06	-41889.1	955.82	-29784.5	0.000000	0.000000	7.647445	-0.041890	NaN	0.000000	0.001637	0.001704	28.0936	0.113921	0.001976	57.6503	101.793	-166.303	-0.020442	1.645611	-0.143543	-0.144830	-0.041890	57.6503	-0.142998	-13.4595	0.003112	NaN
65	1.000000	1.658904	7.36568e+06	-41889.1	955.82	-29784.5	0.000000	0.000000	7.659455	0.047341	NaN	0.000000	0.001633	0.001726	28.1017	0.115223	0.002002	57.5642	-1.104704	-168.744	0.001177	1.657599	-0.131537	-0.132842	0.047341	57.5642	-0.132154	-8.388629	-0.005644	NaN
65	1.000000	1.670884	7.36568e+06	-41889.1	955.82	-29784.5	0.000000	0.000000	7.671431	-0.053577	NaN	0.000000	0.001662	0.001684	28.0941	0.116684	0.002043	57.1213	122.336	-163.364	-0.043742	1.669576	-0.119557	-0.120865	-0.053577	57.1213	-0.118853	-4.580179	0.011698	NaN
65	1.000000	1.682902	7.36568e+06	-41889.1	955.82	-29784.5	0.000000	0.000000	7.683452	0.038557	NaN	0.000000	0.001644	0.001696	28.1023	0.033041	0.001889	17.4935	79.6225	-164.213	0.067867	1.681598	-0.107539	-0.108843	0.038557	17.4935	-0.109192	-2.889372	-0.013344	NaN
65	1.000000	1.694894	7.36568e+06	-41889.1	955.819	-29784.5	0.000000	0.000000	7.695443	0.002870	NaN	0.000000	0.001642	0.001712	28.0936	0.054239	0.001982	27.3661	149.313	-167.161	0.029487	1.693594	-0.095547	-0.096846	0.002870	27.3661	-0.095626	-1.457615	-0.001969	NaN
65	1.000000	1.706910	7.36569e+06	-41889.1	955.82	-29784.5	0.000000	0.000000	7.707461	0.049362	NaN	0.000000	0.001614	0.001713	28.1009	0.030133	0.002050	14.6958	-10.6785	-163.941	0.013696	1.705601	-0.083531	-0.084840	0.049362	14.6958	-0.086050	-0.870969	-0.056675	NaN
65	1.000000	1.718930	7.36569e+06	-41889.1	955.819	-29784.5	0.000000	0.000000	7.719480	0.025909	NaN	0.000000	0.001618	0.001666	28.0933	0.028931	0.001858	15.5725	-76.5921	-166.092	0.003678	1.717585	-0.071511	-0.072856	0.025909	15.5725	-0.072759	-0.403729	-0.064173	NaN
65	1.000000	1.730909	7.36569e+06	-41889.1	955.82	-29784.5	0.000000	0.000000	7.731458	0.009277	NaN	0.000000	0.001623	0.001743	28.1015	0.052916	0.002135	24.7814	6.964491	-165.39	0.018047	1.729633	-0.059532	-0.060808	0.009277	24.7814	-0.059813	-0.177879	-0.052155	NaN
65	1.000000	1.742913	7.36569e+06	-41889.1	955.82	-29784.5	0.000000	0.000000	7.743464	0.046108	NaN	0.000000	0.001632	0.001740	28.0929	0.115102	0.002022	56.9376	173.21	-167.784	0.019109	1.741625	-0.047527	-0.048815	0.046108	56.9376	-0.048135	-0.080104	-0.575600	NaN
65	1.000000	1.754929	7.36569e+06	-41889.1	955.82	-29784.5	0.000000	0.000000	7.755475	-0.051701	NaN	0.000000	0.001621	0.001687	28.1021	0.141953	0.002065	68.7397	169.955	-166.202	-0.062862	1.753655	-0.035512	-0.036786	-0.051701	68.7397	-0.034948	-0.031912	1.620122	NaN
65	1.000000	1.766936	7.36569e+06	-41889.1	955.821	-29784.5	0.000000	0.000000	7.767485	0.006607	NaN	0.000000	0.001627	0.001714	28.0926	0.100432	0.001953	51.4314	159.07	-165.077	0.004029	1.765692	-0.023505	-0.024749	0.006607	51.4314	-0.023602	-0.015519	-0.425717	NaN
65	1.000000	1.778958	7.36569e+06	-41889.1	955.821	-29784.5	0.000000	0.000000	7.779509	0.046938	NaN	0.000000	0.001625	0.001691	28.1005	0.091185	0.001897	48.0664	64.3745	-165.232	0.058000	1.777655	-0.011483	-0.012786	0.046938	48.0664	-0.012215	-0.007651	-6.134488	NaN
65	1.000000	1.790938	7.36569e+06	-41889.1	955.82	-29784.5	0.000000	0.000000	7.791493	0.141359	NaN	0.000000	0.001630	0.001733	28.0909	0.264835	0.002065	128.273	3.588449	-165.858	0.082321	1.789661	0.000497	-0.000780	0.141359	128.273	-0.000329	-0.000244	-578.553	NaN
65	2.000000	1.800593	7.36569e+06	-41889.1	955.82	-29784.5	0.000000	0.000000	7.801465	7.852321	NaN	0.000000	0.001624	0.001753	28.1004	8.560492	0.001711	5002.6	5.296033	-169.011	7.493635	1.800299	0.010152	0.009858	7.852321	5002.6	0.008975	0.008065	973.672	50895.2
65	2.000000	1.803598	7.36569e+06	-41889.1	955.82	-29784.5	0.000000	0.000000	7.804661	12.5238	NaN	0.000000	0.001612	0.001727	28.092	12.5086	0.001873	6679.84	9.292794	-174.933	12.751	1.803325	0.013157	0.012884	12.5238	6679.84	0.011751	0.011193	1118.89	57685.4
65	2.000000	1.806579	7.36569e+06	-41889.1	955.819	-29784.5	0.000000	0.000000	7.807879	18.2842	NaN	0.000000	0.001616	0.001728	28.1019	15.4881	0.001763	8787.09	8.363595	-175.537	18.1566	1.806265	0.016138	0.015824	18.2842	8787.09	0.014577	0.014726	1241.63	66157.1
65	2.000000	1.809511	7.36569e+06	-41889.1	955.819	-29784.5	0.000000	0.000000	7.811152	26.5805	NaN	0.000000	0.001568	0.001754	28.0926	19.1262	0.001788	10696.1	10.477	179.799	26.0731	1.809204	0.019070	0.018763	26.5805	10696.1	0.017206	0.018340	1449.28	72159.6
65	2.000000	1.812527	7.36569e+06	-41889.1	955.82	-29784.5	0.000000	0.000000	7.814440	33.1876	NaN	0.000000	0.001558	0.001722	28.1023	21.0631	0.001759	11971.8	4.923037	-175.649	33.3987	1.812215	0.022086	0.021774	33.1876	11971.8	0.020007	0.022553	1471.54	72833.6
65	2.000000	1.815510	7.36569e+06	-41889.1	955.819	-29784.5	0.000000	0.000000	7.817626	38.1195	NaN	0.000000	0.001574	0.001768	28.0924	24.193	0.001732	13965.5	6.990662	-179.141	39.3507	1.815210	0.025069	0.024769	38.1195	13965.5	0.023022	0.027515	1385.39	76920.3
65	2.000000	1.818485	7.36569e+06	-41889.1	955.82	-29784.5	0.000000	0.000000	7.821052	49.1053	NaN	0.000000	0.001562	0.001774	28.1005	26.8807	0.001743	15420.5	4.592684	-176.839	48.2997	1.818172	0.028044	0.027731	49.1053	15420.5	0.025656	0.032220	1524.07	78489
65	2.000000	1.821445	7.36569e+06	-41889.1	955.82	-29784.5	0.000000	0.000000	7.824316	56.4969	NaN	0.000000	0.001573	0.001754	28.0907	29.4047	0.001746	16842.3	2.022224	-176.239	54.1954	1.821136	0.031004	0.030695	56.4969	16842.3	0.028488	0.037668	1499.85	79283.9
65	2.000000	1.824489	7.36569e+06	-41889.1	955.821	-29784.5	0.000000	0.000000	7.827700	64.7741	NaN	0.000000	0.001572	0.001757	28.1032	32.6203	0.001845	17682.2	3.690222	-177.56	64.8101	1.824146	0.034048	0.033706	64.7741	17682.2	0.031301	0.043484	1489.63	77472.6
65	2.000000	1.827463	7.36569e+06	-41889.1	955.821	-29784.5	0.000000	0.000000	7.831029	73.413	NaN	0.000000	0.001550	0.001750	28.0932	34.6046	0.001704	20310.9	2.889881	-179.201	72.4162	1.827197	0.037022	0.036757	73.413	20310.9	0.034311	0.050154	1463.76	82861
65	2.000000	1.830445	7.36569e+06	-41889.1	955.82	-29784.5	0.000000	0.000000	7.834413	83.1798	NaN	0.000000	0.001563	0.001729	28.1038	38.2044	0.001795	21288.1	5.277529	178.245	81.7696	1.830123	0.040005	0.039682	83.1798	21288.1	0.037074	0.056686	1467.39	81690.7
65	2.000000	1.833470	7.36569e+06	-41889.1	955.819	-29784.5	0.000000	0.000000	7.837914	94.7607	NaN	0.000000	0.001588	0.001723	28.0928	41.2131	0.001965	20970.9	3.289146	-178.739	93.319	1.833154	0.043030	0.042714	94.7607	20970.9	0.039641	0.063103	1501.69	76272.2
65	2.000000	1.836443	7.36569e+06	-41889.1	955.821	-29784.5	0.000000	0.000000	7.841348	105.981	NaN	0.000000	0.001578	0.001704	28.1019	43.8557	0.001948	22514.8	6.065200	177.705	103.73	1.836094	0.046003	0.045653	105.981	22514.8	0.042472	0.070574	1501.71	77432.1
65	2.000000	1.839402	7.36569e+06	-41889.1	955.82	-29784.5	0.000000	0.000000	7.844918	120.863	NaN	0.000000	0.001569	0.001755	28.0927	44.502	0.001672	26608.3	2.733712	179.017	118.289	1.839150	0.048961	0.048709	120.863	26608.3	0.045554	0.079168	1526.67	86400.6
65	2.000000	1.842440	7.36569e+06	-41889.1	955.821	-29784.5	0.000000	0.000000	7.848438	132.596	NaN	0.000000	0.001596	0.001732	28.1028	47.8989	0.001773	27021	4.582083	177.8	133.058	1.842106	0.051999	0.051665	132.596	27021	0.048318	0.087286	1519.1	83560.7
65	2.000000	1.845356	7.36569e+06	-41889.1	955.82	-29784.5	0.000000	0.000000	7.851950	147.095	NaN	0.000000	0.001536	0.001771	28.0944	49.9953	0.001771	28225.8	1.132145	-179.562	143.777	1.845162	0.054915	0.054721	147.095	28225.8	0.051007	0.095550	1539.46	83426.5
65	2.000000	1.848402	7.36569e+06	-41889.1	955.82	-29784.5	0.000000	0.000000	7.855592	161.568	NaN	0.000000	0.001538	0.001707	28.1037	53.7751	0.001790	30038.4	3.306168	177.742	159.917	1.848096	0.057962	0.057655	161.568	30038.4	0.053928	0.104939	1539.64	84719.2
65	2.000000	1.851430	7.36569e+06	-41889.1	955.82	-29784.5	0.000000	0.000000	7.859190	175.454	NaN	0.000000	0.001522	0.001725	28.0925	55.8893	0.001781	31373.3	1.965706	178.922	175.761	1.851115	0.060989	0.060674	175.454	31373.3	0.056795	0.114567	1531.46	84684.5
65	2.000000	1.854373	7.36569e+06	-41889.1	955.82	-29784.5	0.000000	0.000000	7.862843	192.729	NaN	0.000000	0.001636	0.001712	28.1035	59.7277	0.001927	30999	4.325192	176.597	190.078	1.854130	0.063933	0.063689	192.729	30999	0.059270	0.123202	1564.32	80688.5
65	2.000000	1.857446	7.36569e+06	-41889.1	955.82	-29784.5	0.000000	0.000000	7.866402	204.569	NaN	0.000000	0.001641	0.001733	28.0901	61.2308	0.001871	32726	1.002027	179.546	205.413	1.857121	0.067005	0.066681	204.569	32726	0.062317	0.134246	1523.84	81604.6
65	2.000000	1.860380	7.36569e+06	-41889.1	955.819	-29784.5	0.000000	0.000000	7.869969	219.952	NaN	0.000000	0.001666	0.001744	28.1018	64.8644	0.001799	36064.4	5.148642	174.447	217.644	1.860154	0.069939	0.069713	219.952	36064.4	0.065365	0.145747	1509.13	86308
65	2.000000	1.863394	7.36569e+06	-41889.1	955.82	-29784.5	0.000000	0.000000	7.873931	243.021	NaN	0.000000	0.001642	0.001741	28.0909	67.4708	0.001829	36896.8	5.355319	174.273	241.633	1.863233	0.072953	0.072792	243.021	36896.8	0.068014	0.156101	1556.81	85321.6
65	2.000000	1.866415	7.36569e+06	-41889.1	955.82	-29784.5	0.000000	0.000000	7.877664	260.344	NaN	0.000000	0.001620	0.001732	28.1031	69.6996	0.001746	39915.8	5.443102	173.587	257.86	1.866116	0.075974	0.075675	260.344	39915.8	0.071083	0.168520	1544.88	88836.7
65	2.000000	1.869405	7.36569e+06	-41889.1	955.819	-29784.5	0.000000	0.000000	7.881437	279.424	NaN	0.000000	0.001605	0.001752	28.091	71.6034	0.001772	40415.8	3.506900	175.156	276.398	1.869103	0.078964	0.078662	279.424	40415.8	0.073778	0.179797	1554.11	87083
65	2.000000	1.872438	7.36569e+06	-41889.1	955.82	-29784.5	0.000000	0.000000	7.885178	296.629	NaN	0.000000	0.001625	0.001733	28.1036	73.8404	0.001802	40982.8	4.270072	174.483	295.487	1.872034	0.081997	0.081594	296.629	40982.8	0.076569	0.191830	1546.31	85490.3
65	2.000000	1.875455	7.36569e+06	-41889.1	955.819	-29784.5	0.000000	0.000000	7.888717	309.347	NaN	0.000000	0.001641	0.001688	28.0909	77.1872	0.001864	41407.1	4.901576	173.811	310.691	1.875087	0.085014	0.084646	309.347	41407.1	0.079411	0.204462	1512.98	83664.5
65	2.000000	1.878328	7.36569e+06	-41889.1	955.819	-29784.5	0.000000	0.000000	7.892672	335.662	NaN	0.000000	0.001612	0.001746	28.1026	79.6974	0.001848	43116.5	5.829938	172.512	332.16	1.878025	0.087887	0.087584	335.662	43116.5	0.082048	0.216522	1550.25	84657.7
65	2.000000	1.881362	7.36569e+06	-41889.1	955.819	-29784.5	0.000000	0.000000	7.896349	351.303	NaN	0.000000	0.001667	0.001739	28.0895	82.5652	0.001779	46421	6.378795	171.082	347.915	1.881001	0.090921	0.090560	351.303	46421	0.085245	0.231572	1517.04	88134.2
65	2.000000	1.884442	7.36569e+06	-41889.1	955.82	-29784.5	0.000000	0.000000	7.900276	371.898	NaN	0.000000	0.001666	0.001768	28.1038	86.2788	0.001898	45469.7	4.648332	173.382	374.033	1.884064	0.094001	0.093623	371.898	45469.7	0.087867	0.244269	1522.5	84054.5
65	2.000000	1.887344	7.36569e+06	-41889.1	955.82	-29784.5	0.000000	0.000000	7.903943	390.529	NaN	0.000000	0.001641	0.001745	28.0911	88.59	0.001811	48914.1	8.413850	169.103	385.932	1.887022	0.096903	0.096582	390.529	48914.1	0.090915	0.259426	1505.36	87740.6
65	2.000000	1.890409	7.36569e+06	-41889.1	955.819	-29784.5	0.000000	0.000000	7.907786	409.454	NaN	0.000000	0.001646	0.001718	28.1037	91.2406	0.001838	49630.5	3.614683	173.704	411.891	1.890112	0.099969	0.099672	409.454	49630.5	0.093781	0.274064	1494.01	86615.6
65	2.000000	1.893437	7.36569e+06	-41889.1	955.82	-29784.5	0.000000	0.000000	7.911953	437.184	NaN	0.000000	0.001617	0.001758	28.0921	93.5915	0.001651	56670.7	0.721299	175.401	439.026	1.893137	0.102996	0.102696	437.184	56670.7	0.097210	0.292071	1496.84	95804.9
65	2.000000	1.896366	7.36569e+06	-41889.1	955.819	-29784.5	0.000000	0.000000	7.915736	457.946	NaN	0.000000	0.001647	0.001753	28.1037	97.0447	0.001899	51110.1	4.374064	172.884	455.607	1.896071	0.105925	0.105630	457.946	51110.1	0.099205	0.302795	1512.4	84860.4
65	2.000000	1.898362	7.36569e+06	-41889.1	955.82	-29784.5	0.000000	0.000000	7.918313	472.094	NaN	0.000000	0.001662	0.001746	28.1036	98.0662	0.001942	50490.8	1.743423	175.522	469.991	1.898002	0.107921	0.107561	472.094	50490.8	0.100909	0.312096	1512.66	82573.6