File: remote_trans/data/nanoindenter/0828-1/data/Data_2025-08-06,11h17m57s/2025-07-22_16-23-58_1_504.txt
2025-07-22, 16:23:58, 1
Index	Phase	Displacement	Time	Pos X	Pos Y	Pos Z	Rot A	Rot B	Piezo Z	Force A	Force B	Gripper	Voltage A	Voltage B	Temperature	Amplitude force	Amplitude pos	Stiffness	Phase shift	Phase excitation	Force A raw	Displacement raw	HMax	HMax raw	Real Force	Real Stiffness	Contact Depth	Area	Hardness	Reduced Mod.
[#]	[#]	[um]	[s]	[um]	[um]	[um]	[m°]	[m°]	[um]	[uN]	[uN]	[V]	[V]	[V]	[°C]	[uN]	[um]	[N/m]	[°]	[°]	[uN]	[um]	[um]	[um]	[uN]	[N/m]	[um]	[um^2]	[MPa]	[MPa]
504	1.000000	0.002335	7.36998e+06	-51889.1	1005.82	-29750.8	0.000000	0.000000	6.002737	-0.034830	NaN	0.000000	0.001519	0.001712	28.0807	0.113620	0.000991	114.678	-133.705	175.02	-0.060240	0.001080	-1.129618	-1.130873	-0.034830	114.678	-1.129390	-1.242920E+15	2.802240E-17	NaN
504	1.000000	0.012387	7.36998e+06	-51889.1	1005.82	-29750.8	0.000000	0.000000	6.012791	0.009990	NaN	0.000000	0.001526	0.001703	28.0811	0.045739	0.001295	35.3077	-147.79	5.320429	-0.098338	0.010916	-1.119566	-1.121037	0.009990	35.3077	-1.119778	-9.236182E+14	-1.081569E-17	NaN
504	1.000000	0.022282	7.36998e+06	-51889.1	1005.82	-29750.8	0.000000	0.000000	6.022689	0.056747	NaN	0.000000	0.001545	0.001711	28.0821	0.041574	0.001827	22.7592	96.3575	177.033	-0.005920	0.020974	-1.109670	-1.110978	0.056747	22.7592	-1.111540	-7.160777E+14	-7.924760E-17	NaN
504	1.000000	0.032258	7.36998e+06	-51889.1	1005.82	-29750.8	0.000000	0.000000	6.032662	0.005043	NaN	0.000000	0.001551	0.001682	28.0823	0.069957	0.001979	35.3493	121.825	-2.210993	7.945622E-5	0.030912	-1.099694	-1.101041	0.005043	35.3493	-1.099801	-4.981982E+14	-1.012158E-17	NaN
504	1.000000	0.042277	7.36998e+06	-51889.1	1005.82	-29750.8	0.000000	0.000000	6.042681	-0.013439	NaN	0.000000	0.001555	0.001723	28.0823	0.125992	0.001920	65.6276	160.6	179.252	-0.048910	0.041033	-1.089675	-1.090919	-0.013439	65.6276	-1.089522	-3.625677E+14	3.706523E-17	NaN
504	1.000000	0.052299	7.36998e+06	-51889.1	1005.82	-29750.8	0.000000	0.000000	6.052707	0.103164	NaN	0.000000	0.001505	0.001713	28.0822	0.092450	0.001983	46.6241	-9.176577	-2.070758	0.086967	0.050918	-1.079654	-1.081035	0.103164	46.6241	-1.081313	-2.812904E+14	-3.667541E-16	NaN
504	1.000000	0.062289	7.36998e+06	-51889.1	1005.82	-29750.8	0.000000	0.000000	6.062694	0.020979	NaN	0.000000	0.001534	0.001710	28.0822	0.089350	0.001899	47.0596	177.159	175.712	0.027295	0.060994	-1.069664	-1.070958	0.020979	47.0596	-1.069998	-1.982278E+14	-1.058325E-16	NaN
504	1.000000	0.072253	7.36998e+06	-51889.1	1005.82	-29750.8	0.000000	0.000000	6.072656	-0.024821	NaN	0.000000	0.001530	0.001711	28.0819	0.029427	0.001957	15.04	156.615	-2.334659	-0.012286	0.070881	-1.059700	-1.061072	-0.024821	15.04	-1.058462	-1.387242E+14	1.789248E-16	NaN
504	1.000000	0.082302	7.36998e+06	-51889.1	1005.82	-29750.8	0.000000	0.000000	6.082704	-0.036109	NaN	0.000000	0.001559	0.001707	28.0818	0.086890	0.002032	42.7661	-129.401	176.177	-0.033839	0.080989	-1.049651	-1.050964	-0.036109	42.7661	-1.049018	-1.035646E+14	3.486611E-16	NaN
504	1.000000	0.092295	7.36998e+06	-51889.1	1005.82	-29750.8	0.000000	0.000000	6.092702	0.068694	NaN	0.000000	0.001547	0.001751	28.0819	0.113715	0.002152	52.852	26.1293	-4.394047	0.054799	0.090946	-1.039657	-1.041007	0.068694	52.852	-1.040632	-7.988517E+13	-8.599082E-16	NaN
504	1.000000	0.102277	7.36998e+06	-51889.1	1005.82	-29750.8	0.000000	0.000000	6.102681	-0.011772	NaN	0.000000	0.001532	0.001718	28.0821	0.060885	0.001890	32.2095	-143.037	177.549	-0.094024	0.100987	-1.029675	-1.030965	-0.011772	32.2095	-1.029401	-5.641905E+13	2.086618E-16	NaN
504	1.000000	0.112276	7.36998e+06	-51889.1	1005.82	-29750.8	0.000000	0.000000	6.112680	0.001363	NaN	0.000000	0.001575	0.001718	28.082	0.057868	0.002070	27.9596	141.571	-3.381641	0.040899	0.110945	-1.019677	-1.021008	0.001363	27.9596	-1.019713	-4.179230E+13	-3.260905E-17	NaN
504	1.000000	0.122322	7.36998e+06	-51889.1	1005.82	-29750.8	0.000000	0.000000	6.122724	-0.024092	NaN	0.000000	0.001579	0.001680	28.0819	0.102066	0.002053	49.7047	154.002	178.685	-0.084179	0.120978	-1.009631	-1.010975	-0.024092	49.7047	-1.009268	-3.023607E+13	7.967907E-16	NaN
504	1.000000	0.132322	7.36998e+06	-51889.1	1005.82	-29750.8	0.000000	0.000000	6.132727	0.021680	NaN	0.000000	0.001569	0.001688	28.0819	0.104686	0.002035	51.4521	-164.801	-3.279660	-0.012794	0.130964	-0.999631	-1.000989	0.021680	51.4521	-0.999947	-2.264916E+13	-9.571905E-16	NaN
504	1.000000	0.142327	7.36998e+06	-51889.1	1005.82	-29750.8	0.000000	0.000000	6.142731	-0.016147	NaN	0.000000	0.001552	0.001736	28.0818	0.068591	0.002023	33.9077	101.554	-179.985	-0.033986	0.140961	-0.989625	-0.990991	-0.016147	33.9077	-0.989268	-1.626502E+13	9.927718E-16	NaN
504	1.000000	0.152300	7.36998e+06	-51889.1	1005.82	-29750.8	0.000000	0.000000	6.152703	-0.006904	NaN	0.000000	0.001539	0.001754	28.0809	0.060176	0.001869	32.1984	41.6338	-1.118883	-0.111081	0.150937	-0.979653	-0.981016	-0.006904	32.1984	-0.979492	-1.201068E+13	5.748036E-16	NaN
504	1.000000	0.162342	7.36998e+06	-51889.1	1005.82	-29750.8	0.000000	0.000000	6.162746	-0.004731	NaN	0.000000	0.001549	0.001760	28.081	0.097917	0.002043	47.9329	148.845	175.026	-0.050340	0.160976	-0.969610	-0.970977	-0.004731	47.9329	-0.969536	-8.818874E+12	5.364252E-16	NaN
504	1.000000	0.172306	7.36998e+06	-51889.1	1005.82	-29750.8	0.000000	0.000000	6.172709	-0.019134	NaN	0.000000	0.001566	0.001728	28.0809	0.133628	0.002115	63.1861	-125.095	-0.449830	-0.061224	0.170984	-0.959647	-0.960969	-0.019134	63.1861	-0.959420	-6.442337E+12	2.970018E-15	NaN
504	1.000000	0.182309	7.36998e+06	-51889.1	1005.82	-29750.8	0.000000	0.000000	6.182712	-0.031659	NaN	0.000000	0.001578	0.001741	28.0807	0.060444	0.002033	29.7274	-25.6476	178.052	0.017168	0.181017	-0.949643	-0.950936	-0.031659	29.7274	-0.948844	-4.639201E+12	6.824177E-15	NaN
504	1.000000	0.192348	7.36998e+06	-51889.1	1005.82	-29750.8	0.000000	0.000000	6.192754	0.051809	NaN	0.000000	0.001545	0.001745	28.0809	0.007430	0.002019	3.679659	-168.733	-2.879520	-0.025367	0.190974	-0.939605	-0.940979	0.051809	3.679659	-0.950165	-4.833363E+12	-1.071895E-14	NaN
504	1.000000	0.202331	7.36998e+06	-51889.1	1005.82	-29750.8	0.000000	0.000000	6.202735	-0.012365	NaN	0.000000	0.001561	0.001758	28.0808	0.111430	0.002087	53.3828	74.1399	174.456	-0.039670	0.201032	-0.929622	-0.930921	-0.012365	53.3828	-0.929448	-2.539475E+12	4.869158E-15	NaN
504	1.000000	0.212328	7.36998e+06	-51889.1	1005.82	-29750.8	0.000000	0.000000	6.212732	0.022981	NaN	0.000000	0.001586	0.001736	28.0811	0.064763	0.002080	31.1347	168.496	-2.292604	-0.063524	0.211021	-0.919625	-0.920932	0.022981	31.1347	-0.920179	-1.903791E+12	-1.207127E-14	NaN
504	1.000000	0.222356	7.36998e+06	-51889.1	1005.82	-29750.8	0.000000	0.000000	6.222759	-0.016600	NaN	0.000000	0.001578	0.001695	28.0808	0.022723	0.002017	11.2632	105.121	-179.686	-0.024169	0.221025	-0.909597	-0.910928	-0.016600	11.2632	-0.908491	-1.323678E+12	1.254071E-14	NaN
504	1.000000	0.232363	7.36998e+06	-51889.1	1005.82	-29750.8	0.000000	0.000000	6.232766	-0.042394	NaN	0.000000	0.001567	0.001697	28.0806	0.019838	0.001892	10.4858	-115.07	1.236971	-0.065858	0.230983	-0.899589	-0.900970	-0.042394	10.4858	-0.896557	-9.131457E+11	4.642666E-14	NaN
504	1.000000	0.242347	7.36998e+06	-51889.1	1005.82	-29750.8	0.000000	0.000000	6.242748	-0.066491	NaN	0.000000	0.001568	0.001709	28.0811	0.032455	0.002024	16.0323	16.6172	174.606	0.011391	0.241032	-0.889606	-0.890921	-0.066491	16.0323	-0.886495	-6.676320E+11	9.959165E-14	NaN
504	1.000000	0.252346	7.36998e+06	-51889.1	1005.82	-29750.8	0.000000	0.000000	6.252751	0.006584	NaN	0.000000	0.001592	0.001667	28.0811	0.084731	0.002044	41.4634	60.6959	-6.581904	-0.050021	0.250977	-0.879606	-0.880976	0.006584	41.4634	-0.879725	-5.407481E+11	-1.217565E-14	NaN
504	1.000000	0.262373	7.36998e+06	-51889.1	1005.82	-29750.8	0.000000	0.000000	6.262776	-0.018990	NaN	0.000000	0.001591	0.001696	28.081	0.049196	0.002024	24.3124	138.879	173.607	-0.070325	0.261041	-0.869580	-0.870912	-0.018990	24.3124	-0.868994	-3.871101E+11	4.905620E-14	NaN
504	1.000000	0.272376	7.36998e+06	-51889.1	1005.82	-29750.8	0.000000	0.000000	6.272778	-0.053311	NaN	0.000000	0.001568	0.001756	28.0811	0.004526	0.002100	2.155440	-50.038	-4.385932	0.018293	0.270945	-0.859577	-0.861008	-0.053311	2.155440	-0.841027	-1.618833E+11	3.293184E-13	NaN
504	1.000000	0.282405	7.36998e+06	-51889.1	1005.82	-29750.8	0.000000	0.000000	6.282806	-0.073120	NaN	0.000000	0.001568	0.001703	28.0812	0.039910	0.001974	20.2211	-110.118	176.657	-0.032809	0.281085	-0.849548	-0.850867	-0.073120	20.2211	-0.846836	-1.940391E+11	3.768297E-13	NaN
504	1.000000	0.292375	7.36998e+06	-51889.1	1005.82	-29750.8	0.000000	0.000000	6.292779	-0.004206	NaN	0.000000	0.001555	0.001715	28.0821	0.108317	0.002117	51.1541	-134.436	-1.113545	-0.057889	0.291035	-0.839578	-0.840917	-0.004206	51.1541	-0.839516	-1.544324E+11	2.723351E-14	NaN
504	1.000000	0.302386	7.36998e+06	-51889.1	1005.82	-29750.8	0.000000	0.000000	6.302791	0.032642	NaN	0.000000	0.001488	0.001702	28.0822	0.111172	0.002015	55.1747	-94.0108	175.089	-0.056465	0.301072	-0.829567	-0.830881	0.032642	55.1747	-0.830010	-1.147951E+11	-2.843480E-13	NaN
504	1.000000	0.312415	7.36998e+06	-51889.1	1005.82	-29750.8	0.000000	0.000000	6.312817	-0.036503	NaN	0.000000	0.001539	0.001704	28.0821	0.069310	0.001966	35.2483	-89.6358	1.858406	0.024399	0.310962	-0.819538	-0.820991	-0.036503	35.2483	-0.818761	-8.080066E+10	4.517709E-13	NaN
504	1.000000	0.322378	7.36998e+06	-51889.1	1005.82	-29750.8	0.000000	0.000000	6.322782	0.003005	NaN	0.000000	0.001580	0.001716	28.0822	0.089964	0.002203	40.8459	-19.6535	176.148	-0.015180	0.321094	-0.809574	-0.810858	0.003005	40.8459	-0.809629	-6.074968E+10	-4.946853E-14	NaN
504	1.000000	0.332402	7.36998e+06	-51889.1	1005.82	-29750.8	0.000000	0.000000	6.332806	-0.003408	NaN	0.000000	0.001601	0.001667	28.0822	0.057397	0.002017	28.4559	85.2752	-1.157671	-0.036007	0.331049	-0.799550	-0.800904	-0.003408	28.4559	-0.799460	-4.421176E+10	7.709373E-14	NaN
504	1.000000	0.342400	7.36998e+06	-51889.1	1005.82	-29750.8	0.000000	0.000000	6.342804	-0.012481	NaN	0.000000	0.001588	0.001668	28.082	0.061951	0.002060	30.0747	-24.5606	176.32	-0.015349	0.341068	-0.789552	-0.790885	-0.012481	30.0747	-0.789241	-3.212009E+10	3.885606E-13	NaN
504	1.000000	0.352379	7.36998e+06	-51889.1	1005.82	-29750.8	0.000000	0.000000	6.352783	0.017855	NaN	0.000000	0.001543	0.001676	28.0823	0.055937	0.001977	28.2968	107.487	-1.678719	0.129054	0.351066	-0.779574	-0.780887	0.017855	28.2968	-0.780047	-2.409198E+10	-7.410988E-13	NaN
504	1.000000	0.362432	7.36998e+06	-51889.1	1005.82	-29750.8	0.000000	0.000000	6.362836	0.017942	NaN	0.000000	0.001596	0.001676	28.0819	0.106437	0.002033	52.3496	-65.1712	176.828	-0.019446	0.361114	-0.769521	-0.770838	0.017942	52.3496	-0.769778	-1.746988E+10	-1.027001E-12	NaN
504	1.000000	0.372424	7.36998e+06	-51889.1	1005.82	-29750.8	0.000000	0.000000	6.372830	0.036077	NaN	0.000000	0.001605	0.001684	28.082	0.096025	0.002122	45.2461	-122.952	-4.115185	0.037063	0.371023	-0.759528	-0.760929	0.036077	45.2461	-0.760126	-1.291288E+10	-2.793897E-12	NaN
504	1.000000	0.382402	7.36998e+06	-51889.1	1005.82	-29750.8	0.000000	0.000000	6.382806	0.014055	NaN	0.000000	0.001609	0.001702	28.0819	0.073967	0.002077	35.6139	-31.7698	176.642	0.022996	0.381081	-0.749551	-0.750872	0.014055	35.6139	-0.749847	-9.356937E+9	-1.502054E-12	NaN
504	1.000000	0.392423	7.36998e+06	-51889.1	1005.82	-29750.8	0.000000	0.000000	6.392828	0.027006	NaN	0.000000	0.001600	0.001690	28.0822	0.022579	0.001909	11.8253	79.4923	-3.782523	0.084470	0.391067	-0.739530	-0.740886	0.027006	11.8253	-0.741243	-7.144647E+9	-3.779915E-12	NaN
504	1.000000	0.402408	7.36998e+06	-51889.1	1005.82	-29750.8	0.000000	0.000000	6.402811	-0.017128	NaN	0.000000	0.001590	0.001694	28.0822	0.016656	0.002059	8.088337	91.4162	177.384	-0.065148	0.401108	-0.729545	-0.730844	-0.017128	8.088337	-0.727957	-4.709315E+9	3.637014E-12	NaN
504	1.000000	0.412424	7.36998e+06	-51889.1	1005.82	-29750.8	0.000000	0.000000	6.412829	0.029611	NaN	0.000000	0.001550	0.001690	28.0823	0.023475	0.002107	11.1417	86.2077	-0.830604	0.041891	0.411010	-0.719529	-0.720943	0.029611	11.1417	-0.721522	-3.847943E+9	-7.695408E-12	NaN
504	1.000000	0.422446	7.36998e+06	-51889.1	1005.82	-29750.8	0.000000	0.000000	6.422848	-0.056019	NaN	0.000000	0.001565	0.001698	28.0821	0.079121	0.002102	37.6457	-125.1	178.334	-0.008191	0.421122	-0.709506	-0.710831	-0.056019	37.6457	-0.708390	-2.547301E+9	2.199145E-11	NaN
504	1.000000	0.432448	7.36998e+06	-51889.1	1005.82	-29750.8	0.000000	0.000000	6.432854	0.048274	NaN	0.000000	0.001539	0.001695	28.0808	0.101278	0.001880	53.8609	74.0207	-1.131287	0.019628	0.431100	-0.699505	-0.700852	0.048274	53.8609	-0.700177	-1.967661E+9	-2.453385E-11	NaN
504	1.000000	0.442464	7.36998e+06	-51889.1	1005.82	-29750.8	0.000000	0.000000	6.442869	0.011407	NaN	0.000000	0.001555	0.001717	28.0807	0.005090	0.001990	2.558189	-9.937454	176.706	0.022181	0.441125	-0.689488	-0.690827	0.011407	2.558189	-0.692833	-1.561812E+9	-7.303951E-12	NaN
504	1.000000	0.452433	7.36998e+06	-51889.1	1005.82	-29750.8	0.000000	0.000000	6.452837	0.003623	NaN	0.000000	0.001513	0.001676	28.0807	0.050511	0.002024	24.9532	100.501	-5.084691	-0.028949	0.451095	-0.679519	-0.680858	0.003623	24.9532	-0.679628	-1.030677E+9	-3.514849E-12	NaN
504	1.000000	0.462450	7.36998e+06	-51889.1	1005.82	-29750.8	0.000000	0.000000	6.462852	-0.043368	NaN	0.000000	0.001530	0.001746	28.0808	0.076323	0.001919	39.7682	104.611	178.819	-0.007129	0.461138	-0.669502	-0.670815	-0.043368	39.7682	-0.668685	-7.301061E+8	5.940007E-11	NaN
504	1.000000	0.472455	7.36998e+06	-51889.1	1005.82	-29750.8	0.000000	0.000000	6.472859	-0.006713	NaN	0.000000	0.001531	0.001770	28.0809	0.060444	0.002063	29.3028	-27.6434	-2.015782	-0.028382	0.471136	-0.659498	-0.660817	-0.006713	29.3028	-0.659326	-5.435455E+8	1.235069E-11	NaN
504	1.000000	0.482467	7.36998e+06	-51889.1	1005.82	-29750.8	0.000000	0.000000	6.482871	0.016384	NaN	0.000000	0.001544	0.001746	28.0808	0.086214	0.002090	41.2503	74.3916	176.742	-0.013340	0.481150	-0.649486	-0.650803	0.016384	41.2503	-0.649784	-4.022314E+8	-4.073307E-11	NaN
504	1.000000	0.492451	7.36998e+06	-51889.1	1005.82	-29750.8	0.000000	0.000000	6.492855	-0.003167	NaN	0.000000	0.001580	0.001794	28.0807	0.136898	0.001989	68.8306	-115.418	-4.664284	-0.073557	0.491121	-0.639501	-0.640831	-0.003167	68.8306	-0.639467	-2.903858E+8	1.090679E-11	NaN
504	1.000000	0.502489	7.36998e+06	-51889.1	1005.82	-29750.8	0.000000	0.000000	6.502893	-0.007671	NaN	0.000000	0.001564	0.001762	28.081	0.133279	0.001952	68.2708	-111.117	179.26	-0.013345	0.501118	-0.629463	-0.630834	-0.007671	68.2708	-0.629379	-2.111035E+8	3.633984E-11	NaN
504	1.000000	0.512473	7.36998e+06	-51889.1	1005.82	-29750.8	0.000000	0.000000	6.512878	0.011811	NaN	0.000000	0.001569	0.001778	28.0807	0.101017	0.002139	47.2223	-164.955	-5.903242	0.055904	0.511120	-0.619479	-0.620833	0.011811	47.2223	-0.619667	-1.552588E+8	-7.607310E-11	NaN
504	1.000000	0.522489	7.36998e+06	-51889.1	1005.82	-29750.8	0.000000	0.000000	6.522893	-0.014293	NaN	0.000000	0.001570	0.001735	28.0807	0.082074	0.001951	42.0742	-45.6137	175.878	-0.055655	0.521201	-0.609463	-0.610752	-0.014293	42.0742	-0.609209	-1.114869E+8	1.282076E-10	NaN
504	1.000000	0.532455	7.36998e+06	-51889.1	1005.82	-29750.8	0.000000	0.000000	6.532859	-1.031959E-5	NaN	0.000000	0.001557	0.001769	28.0805	0.013455	0.001901	7.077336	72.4162	-3.411591	-0.041189	0.531175	-0.599498	-0.600778	-1.031959E-5	7.077336	-0.599497	-8.194639E+7	1.259310E-13	NaN
504	1.000000	0.542467	7.36998e+06	-51889.1	1005.82	-29750.8	0.000000	0.000000	6.542871	0.001068	NaN	0.000000	0.001518	0.001755	28.081	0.051771	0.001982	26.1186	60.9122	176.058	0.079863	0.541176	-0.589486	-0.590777	0.001068	26.1186	-0.589516	-5.970314E+7	-1.788977E-11	NaN
504	1.000000	0.552505	7.36998e+06	-51889.1	1005.82	-29750.8	0.000000	0.000000	6.552909	-0.001925	NaN	0.000000	0.001544	0.001722	28.0806	0.142833	0.002008	71.1344	-46.283	-2.075554	-0.091779	0.551121	-0.579448	-0.580832	-0.001925	71.1344	-0.579427	-4.333343E+7	4.441651E-11	NaN
504	1.000000	0.562502	7.36998e+06	-51889.1	1005.82	-29750.8	0.000000	0.000000	6.562908	0.036405	NaN	0.000000	0.001552	0.001723	28.0817	0.028391	0.002019	14.0642	-112.354	177.062	0.050380	0.561152	-0.569451	-0.570800	0.036405	14.0642	-0.571392	-3.356320E+7	-1.084669E-9	NaN
504	1.000000	0.572528	7.36998e+06	-51889.1	1005.82	-29750.8	0.000000	0.000000	6.572933	0.024016	NaN	0.000000	0.001597	0.001731	28.0819	0.005147	0.001923	2.676588	-12.6324	-0.992852	0.031851	0.571158	-0.559425	-0.560795	0.024016	2.676588	-0.566154	-2.841085E+7	-8.452939E-10	NaN
504	1.000000	0.582504	7.36998e+06	-51889.1	1005.82	-29750.8	0.000000	0.000000	6.582906	-0.040101	NaN	0.000000	0.001524	0.001756	28.0818	0.032359	0.002116	15.2907	-28.1767	176.701	-0.005567	0.581165	-0.549449	-0.550787	-0.040101	15.2907	-0.547482	-1.566997E+7	2.559119E-9	NaN
504	1.000000	0.592490	7.36998e+06	-51889.1	1005.82	-29750.8	0.000000	0.000000	6.592895	0.035223	NaN	0.000000	0.001542	0.001783	28.0819	0.023332	0.002006	11.6333	116.732	-4.923846	-0.015132	0.591200	-0.539463	-0.540753	0.035223	11.6333	-0.541734	-1.304361E+7	-2.700395E-9	NaN
504	1.000000	0.602487	7.36998e+06	-51889.1	1005.82	-29750.8	0.000000	0.000000	6.602894	0.057526	NaN	0.000000	0.001561	0.001748	28.0819	0.031103	0.002089	14.8856	-22.3947	-178.842	0.027011	0.601158	-0.529465	-0.530795	0.057526	14.8856	-0.532364	-9.66936e+06	-5.949278E-9	NaN
504	1.000000	0.612497	7.36998e+06	-51889.1	1005.82	-29750.8	0.000000	0.000000	6.612902	0.027677	NaN	0.000000	0.001530	0.001708	28.0825	0.161536	0.001980	81.6035	-14.8835	-3.335828	0.009213	0.611170	-0.519456	-0.520783	0.027677	81.6035	-0.519710	-6.4501e+06	-4.291016E-9	NaN
504	1.000000	0.622542	7.36998e+06	-51889.1	1005.82	-29750.8	0.000000	0.000000	6.622945	-0.023480	NaN	0.000000	0.001529	0.001717	28.082	0.057295	0.001988	28.8253	47.442	179.554	-0.009655	0.621194	-0.509410	-0.510759	-0.023480	28.8253	-0.508800	-4.54667e+06	5.164107E-9	NaN
504	1.000000	0.632552	7.36998e+06	-51889.1	1005.82	-29750.8	0.000000	0.000000	6.632956	-0.000180	NaN	0.000000	0.001498	0.001730	28.0822	0.063794	0.001974	32.3226	-73.695	0.017052	-0.032123	0.631198	-0.499401	-0.500754	-0.000180	32.3226	-0.499397	-3.36204e+06	5.359814E-11	NaN
504	1.000000	0.642537	7.36998e+06	-51889.1	1005.82	-29750.8	0.000000	0.000000	6.642942	0.032044	NaN	0.000000	0.001524	0.001735	28.0821	0.077316	0.002002	38.6166	128.169	172.873	0.090685	0.641250	-0.489415	-0.490702	0.032044	38.6166	-0.490038	-2.48841e+06	-1.287740E-8	NaN
504	1.000000	0.652519	7.36998e+06	-51889.1	1005.82	-29750.8	0.000000	0.000000	6.652921	-0.036450	NaN	0.000000	0.001539	0.001740	28.0824	0.100347	0.002070	48.4837	-118.246	-2.096198	0.026769	0.651213	-0.479434	-0.480740	-0.036450	48.4837	-0.478870	-1.73662e+06	2.098880E-8	NaN
504	1.000000	0.662546	7.36998e+06	-51889.1	1005.82	-29750.8	0.000000	0.000000	6.662951	0.042726	NaN	0.000000	0.001527	0.001735	28.082	0.081246	0.001957	41.5226	132.871	178.338	0.085095	0.661231	-0.469407	-0.470721	0.042726	41.5226	-0.470179	-1.31194e+06	-3.256717E-8	NaN
504	1.000000	0.672546	7.36998e+06	-51889.1	1005.82	-29750.8	0.000000	0.000000	6.672949	-0.028720	NaN	0.000000	0.001563	0.001727	28.082	0.065342	0.002007	32.5499	128.08	-4.552405	-0.117904	0.671187	-0.459407	-0.460765	-0.028720	32.5499	-0.458745	-906519	3.168190E-8	NaN
504	1.000000	0.682541	7.36998e+06	-51889.1	1005.82	-29750.8	0.000000	0.000000	6.682942	-0.062906	NaN	0.000000	0.001544	0.001728	28.082	0.079504	0.002055	38.6863	167.674	175.31	-0.075169	0.681295	-0.449412	-0.450658	-0.062906	38.6863	-0.448192	-643996	9.768035E-8	NaN
504	1.000000	0.692543	7.36998e+06	-51889.1	1005.82	-29750.8	0.000000	0.000000	6.692945	-0.040574	NaN	0.000000	0.001566	0.001747	28.0821	0.090768	0.002051	44.256	-44.7208	-0.236004	-0.051409	0.691168	-0.439410	-0.440785	-0.040574	44.256	-0.438722	-473505	8.568838E-8	NaN
504	1.000000	0.702569	7.36998e+06	-51889.1	1005.82	-29750.8	0.000000	0.000000	6.702975	0.057214	NaN	0.000000	0.001552	0.001749	28.0806	0.073697	0.002016	36.5537	46.104	-179.876	0.085580	0.701252	-0.429384	-0.430701	0.057214	36.5537	-0.430557	-363034	-1.576006E-7	NaN
504	1.000000	0.712573	7.36998e+06	-51889.1	1005.82	-29750.8	0.000000	0.000000	6.712979	0.048939	NaN	0.000000	0.001573	0.001723	28.0808	0.095015	0.001860	51.0731	140.68	-3.608908	0.054761	0.711229	-0.419380	-0.420724	0.048939	51.0731	-0.420099	-258116	-1.896014E-7	NaN
504	1.000000	0.722587	7.36998e+06	-51889.1	1005.82	-29750.8	0.000000	0.000000	6.722993	0.053905	NaN	0.000000	0.001581	0.001777	28.0807	0.151500	0.002053	73.7792	73.3063	178.274	0.089170	0.721272	-0.409366	-0.410680	0.053905	73.7792	-0.409914	-185003	-2.913757E-7	NaN
504	1.000000	0.732580	7.36998e+06	-51889.1	1005.82	-29750.8	0.000000	0.000000	6.732984	-0.006801	NaN	0.000000	0.001606	0.001771	28.0808	0.016030	0.002036	7.873051	-41.9788	-3.395865	-0.067515	0.731291	-0.399372	-0.400662	-0.006801	7.873051	-0.398725	-128174	5.306263E-8	NaN
504	1.000000	0.742586	7.36998e+06	-51889.1	1005.82	-29750.8	0.000000	0.000000	6.742992	0.051286	NaN	0.000000	0.001568	0.001743	28.0805	0.094307	0.001936	48.72	-14.6638	-179.67	0.046258	0.741249	-0.389367	-0.390704	0.051286	48.72	-0.390157	-96695.7	-5.303820E-7	NaN
504	1.000000	0.752586	7.36998e+06	-51889.1	1005.82	-29750.8	0.000000	0.000000	6.752989	-0.022411	NaN	0.000000	0.001571	0.001710	28.081	0.105487	0.002151	49.0486	169.529	-1.854287	0.088376	0.751217	-0.379367	-0.380736	-0.022411	49.0486	-0.379024	-66970	3.346410E-7	NaN
504	1.000000	0.762535	7.36999e+06	-51889.1	1005.82	-29750.8	0.000000	0.000000	6.762938	-0.020432	NaN	0.000000	0.001570	0.001699	28.0808	0.056124	0.002026	27.7013	171.636	175.477	-0.089845	0.761292	-0.369418	-0.370661	-0.020432	27.7013	-0.368865	-47838.5	4.271062E-7	NaN
504	1.000000	0.772576	7.36999e+06	-51889.1	1005.82	-29750.8	0.000000	0.000000	6.772979	-0.015272	NaN	0.000000	0.001519	0.001765	28.0807	0.069650	0.001987	35.0616	-88.0807	-1.953430	0.018329	0.771266	-0.359377	-0.360686	-0.015272	35.0616	-0.359050	-34523.5	4.423527E-7	NaN
504	1.000000	0.782583	7.36999e+06	-51889.1	1005.82	-29750.8	0.000000	0.000000	6.782987	-0.006404	NaN	0.000000	0.001546	0.001764	28.0806	0.041977	0.001968	21.3347	-145.825	175.916	-0.055890	0.781298	-0.349370	-0.350655	-0.006404	21.3347	-0.349144	-24807.4	2.581459E-7	NaN
504	1.000000	0.792604	7.36999e+06	-51889.1	1005.82	-29750.8	0.000000	0.000000	6.793009	0.022083	NaN	0.000000	0.001526	0.001740	28.0818	0.076213	0.002095	36.3855	-19.3303	-4.888028	-0.024563	0.791246	-0.339349	-0.340706	0.022083	36.3855	-0.339804	-18142.3	-1.217235E-6	NaN
504	1.000000	0.802593	7.36999e+06	-51889.1	1005.82	-29750.8	0.000000	0.000000	6.802999	0.049232	NaN	0.000000	0.001565	0.001737	28.0806	0.043060	0.001916	22.4704	-76.1282	178.625	0.077417	0.801262	-0.329360	-0.330690	0.049232	22.4704	-0.331003	-13494	-3.648419E-6	NaN
504	1.000000	0.812599	7.36999e+06	-51889.1	1005.82	-29750.8	0.000000	0.000000	6.813005	0.043400	NaN	0.000000	0.001576	0.001766	28.0807	0.026524	0.002044	12.9771	-73.4906	-3.776353	0.034827	0.811279	-0.319353	-0.320673	0.043400	12.9771	-0.321862	-9908.9	-4.379869E-6	NaN
504	1.000000	0.822605	7.36999e+06	-51889.1	1005.82	-29750.8	0.000000	0.000000	6.823009	-0.012737	NaN	0.000000	0.001575	0.001717	28.0805	0.062356	0.001883	33.1071	94.7648	175.513	-0.021080	0.821331	-0.309347	-0.310622	-0.012737	33.1071	-0.309059	-6413.94	1.985820E-6	NaN
504	1.000000	0.832600	7.36999e+06	-51889.1	1005.82	-29750.8	0.000000	0.000000	6.833005	0.015898	NaN	0.000000	0.001587	0.001743	28.0811	0.076291	0.001927	39.5972	110.37	-4.649628	0.006803	0.831270	-0.299352	-0.300682	0.015898	39.5972	-0.299654	-4650.26	-3.418629E-6	NaN
504	1.000000	0.842602	7.36999e+06	-51889.1	1005.82	-29750.8	0.000000	0.000000	6.843007	0.035112	NaN	0.000000	0.001597	0.001721	28.0819	0.054498	0.001989	27.3935	85.677	177.304	0.033025	0.841281	-0.289351	-0.290671	0.035112	27.3935	-0.290312	-3372.68	-1.041085E-5	NaN
504	1.000000	0.852628	7.36999e+06	-51889.1	1005.82	-29750.8	0.000000	0.000000	6.853029	-0.065356	NaN	0.000000	0.001581	0.001766	28.082	0.117302	0.002062	56.8787	-147.226	-2.323833	-0.138273	0.851270	-0.279324	-0.280682	-0.065356	56.8787	-0.278463	-2237.51	2.920933E-5	NaN
504	1.000000	0.862650	7.36999e+06	-51889.1	1005.82	-29750.8	0.000000	0.000000	6.863054	0.007486	NaN	0.000000	0.001539	0.001762	28.0819	0.044842	0.001977	22.679	129.144	178.151	0.002167	0.861327	-0.269303	-0.270625	0.007486	22.679	-0.269551	-1639.5	-4.566214E-6	NaN
504	1.000000	0.872638	7.36999e+06	-51889.1	1005.82	-29750.8	0.000000	0.000000	6.873039	-0.064794	NaN	0.000000	0.001578	0.001761	28.0819	0.124071	0.002038	60.8694	1.919225	-2.718085	-0.044052	0.871234	-0.259314	-0.260719	-0.064794	60.8694	-0.258516	-1112.14	5.826060E-5	NaN
504	1.000000	0.882634	7.36999e+06	-51889.1	1005.82	-29750.8	0.000000	0.000000	6.883037	-0.027188	NaN	0.000000	0.001539	0.001763	28.0817	0.092266	0.002036	45.3191	13.5734	177.724	0.094745	0.881309	-0.249319	-0.250644	-0.027188	45.3191	-0.248869	-789.694	3.442832E-5	NaN
504	1.000000	0.892645	7.36999e+06	-51889.1	1005.82	-29750.8	0.000000	0.000000	6.893050	0.023146	NaN	0.000000	0.001544	0.001747	28.0817	0.093059	0.002086	44.62	56.3405	-2.840803	0.067143	0.891280	-0.239308	-0.240673	0.023146	44.62	-0.239697	-568.613	-4.070639E-5	NaN
504	1.000000	0.902640	7.36999e+06	-51889.1	1005.82	-29750.8	0.000000	0.000000	6.903043	-0.025124	NaN	0.000000	0.001525	0.001720	28.0821	0.067194	0.002042	32.9016	-124.95	178.594	-0.045171	0.901335	-0.229313	-0.230618	-0.025124	32.9016	-0.228740	-382.477	6.568736E-5	NaN
504	1.000000	0.912660	7.36999e+06	-51889.1	1005.82	-29750.8	0.000000	0.000000	6.913062	-0.041219	NaN	0.000000	0.001524	0.001738	28.0819	0.161374	0.002038	79.1633	-62.542	-3.975874	-0.038496	0.911314	-0.219293	-0.220639	-0.041219	79.1633	-0.218902	-266.761	0.000155	NaN
504	1.000000	0.922639	7.36999e+06	-51889.1	1005.82	-29750.8	0.000000	0.000000	6.923044	0.040360	NaN	0.000000	0.001534	0.001729	28.0819	0.125405	0.001911	65.6153	101.304	176.591	-0.086241	0.921318	-0.209314	-0.210635	0.040360	65.6153	-0.209775	-190.187	-0.000212	NaN
504	1.000000	0.932653	7.36999e+06	-51889.1	1005.82	-29750.8	0.000000	0.000000	6.933057	-0.005676	NaN	0.000000	0.001534	0.001733	28.0817	0.018075	0.002027	8.918445	136.147	2.369746	0.055108	0.931324	-0.199299	-0.200628	-0.005676	8.918445	-0.198822	-125.986	4.505647E-5	NaN
504	1.000000	0.942639	7.36999e+06	-51889.1	1005.82	-29750.8	0.000000	0.000000	6.943038	-0.113691	NaN	0.000000	0.001572	0.001723	28.0822	0.084130	0.002078	40.4922	47.4695	178.257	0.012977	0.941293	-0.189314	-0.190660	-0.113691	40.4922	-0.187208	-80.7746	0.001408	NaN
504	1.000000	0.952656	7.36999e+06	-51889.1	1005.82	-29750.8	0.000000	0.000000	6.953061	0.028462	NaN	0.000000	0.001521	0.001746	28.0818	0.139398	0.001883	74.0394	-58.8129	-2.346824	0.021985	0.951313	-0.179296	-0.180640	0.028462	74.0394	-0.179585	-60.034	-0.000474	NaN
504	1.000000	0.962644	7.36999e+06	-51889.1	1005.82	-29750.8	0.000000	0.000000	6.963045	-0.056971	NaN	0.000000	0.001543	0.001754	28.0819	0.036939	0.002176	16.9785	153.885	177.093	-0.034555	0.961406	-0.169309	-0.170546	-0.056971	16.9785	-0.166793	-36.1175	0.001577	NaN
504	1.000000	0.972649	7.36999e+06	-51889.1	1005.82	-29750.8	0.000000	0.000000	6.973056	0.059105	NaN	0.000000	0.001541	0.001752	28.0805	0.030826	0.002063	14.9431	-178.805	-3.149270	0.022481	0.971332	-0.159304	-0.160621	0.059105	14.9431	-0.162270	-30.0756	-0.001965	NaN
504	1.000000	0.982666	7.36999e+06	-51889.1	1005.82	-29750.8	0.000000	0.000000	6.983069	-0.019339	NaN	0.000000	0.001547	0.001734	28.0809	0.063959	0.002018	31.6887	-57.9159	178.482	0.032039	0.981349	-0.149286	-0.150604	-0.019339	31.6887	-0.148829	-17.2428	0.001122	NaN
504	1.000000	0.992673	7.36999e+06	-51889.1	1005.82	-29750.8	0.000000	0.000000	6.993077	-0.007142	NaN	0.000000	0.001568	0.001727	28.0804	0.113877	0.002072	54.9694	71.2256	-2.395693	0.068411	0.991331	-0.139279	-0.140621	-0.007142	54.9694	-0.139182	-11.4177	0.000626	NaN
504	1.000000	1.002623	7.36999e+06	-51889.1	1005.82	-29750.8	0.000000	0.000000	7.003023	-0.075274	NaN	0.000000	0.001556	0.001770	28.0806	0.075908	0.002030	37.3906	144.324	173.794	-0.100546	1.001361	-0.129330	-0.130591	-0.075274	37.3906	-0.127820	-6.910415	0.010893	NaN
504	1.000000	1.012687	7.36999e+06	-51889.1	1005.82	-29750.8	0.000000	0.000000	7.013092	0.026847	NaN	0.000000	0.001559	0.001707	28.0804	0.059892	0.001977	30.2907	-76.6158	-8.747499	0.002532	1.011286	-0.119265	-0.120667	0.026847	30.2907	-0.119930	-4.815812	-0.005575	NaN
504	1.000000	1.022713	7.36999e+06	-51889.1	1005.82	-29750.8	0.000000	0.000000	7.023115	-0.052286	NaN	0.000000	0.001550	0.001751	28.0807	0.025771	0.001946	13.2422	-3.097573	-179.365	-0.028702	1.021312	-0.109240	-0.110640	-0.052286	13.2422	-0.106278	-2.504384	0.020878	NaN
504	1.000000	1.032695	7.36999e+06	-51889.1	1005.82	-29750.8	0.000000	0.000000	7.033096	-0.082626	NaN	0.000000	0.001563	0.001730	28.0805	0.031271	0.001881	16.6213	31.1828	-1.001810	-0.067583	1.031296	-0.099257	-0.100657	-0.082626	16.6213	-0.095529	-1.450271	0.056973	NaN
504	1.000000	1.042678	7.36999e+06	-51889.1	1005.82	-29750.8	0.000000	0.000000	7.043083	0.024169	NaN	0.000000	0.001544	0.001757	28.0805	0.069050	0.001939	35.6074	-48.1937	177.841	-0.082995	1.041405	-0.089274	-0.090548	0.024169	35.6074	-0.089783	-1.068394	-0.022622	NaN
504	1.000000	1.052717	7.36999e+06	-51889.1	1005.82	-29750.8	0.000000	0.000000	7.053120	-0.030655	NaN	0.000000	0.001561	0.001730	28.0808	0.089428	0.002008	44.5421	-70.8115	-4.898305	-0.077950	1.051361	-0.079235	-0.080592	-0.030655	44.5421	-0.078719	-0.574803	0.053332	NaN
504	1.000000	1.062719	7.36999e+06	-51889.1	1005.82	-29750.8	0.000000	0.000000	7.063123	-0.000758	NaN	0.000000	0.001568	0.001765	28.0806	0.062964	0.002086	30.186	-161.481	178.232	0.011010	1.061383	-0.069233	-0.070570	-0.000758	30.186	-0.069214	-0.324931	0.002333	NaN
504	1.000000	1.072713	7.36999e+06	-51889.1	1005.82	-29750.8	0.000000	0.000000	7.073118	0.007813	NaN	0.000000	0.001550	0.001785	28.0805	0.118515	0.002077	57.0662	-128.214	-5.001108	0.010529	1.071365	-0.059239	-0.060588	0.007813	57.0662	-0.059342	-0.172417	-0.045313	NaN
504	1.000000	1.082708	7.36999e+06	-51889.1	1005.82	-29750.8	0.000000	0.000000	7.083107	-0.109282	NaN	0.000000	0.001505	0.001767	28.0805	0.077263	0.001991	38.8076	-10.0244	177.117	0.021666	1.081418	-0.049245	-0.050535	-0.109282	38.8076	-0.047133	-0.074669	1.463549	NaN
504	1.000000	1.092723	7.36999e+06	-51889.1	1005.82	-29750.8	0.000000	0.000000	7.093129	0.051933	NaN	0.000000	0.001481	0.001796	28.0807	0.036674	0.002077	17.6611	-120.797	-7.253001	0.027525	1.091366	-0.039230	-0.040587	0.051933	17.6611	-0.041435	-0.050007	-1.038516	NaN
504	1.000000	1.102720	7.36999e+06	-51889.1	1005.82	-29750.8	0.000000	0.000000	7.103124	0.021916	NaN	0.000000	0.001483	0.001785	28.0804	0.025446	0.002023	12.5754	170.357	-178.885	0.054891	1.101389	-0.029233	-0.030563	0.021916	12.5754	-0.030540	-0.023827	-0.919797	NaN
504	1.000000	1.112699	7.36999e+06	-51889.1	1005.82	-29750.8	0.000000	0.000000	7.113104	0.029948	NaN	0.000000	0.001503	0.001717	28.0819	0.062405	0.001971	31.6684	109.208	-3.378027	-0.044541	1.111347	-0.019253	-0.020606	0.029948	31.6684	-0.019963	-0.012534	-2.389412	NaN
504	1.000000	1.122706	7.36999e+06	-51889.1	1005.82	-29750.8	0.000000	0.000000	7.123108	-0.041509	NaN	0.000000	0.001504	0.001802	28.082	0.110470	0.001967	56.1711	104.342	175.606	-0.064351	1.121445	-0.009247	-0.010508	-0.041509	56.1711	-0.008692	-0.005635	7.366362	NaN
504	1.000000	1.132678	7.36999e+06	-51889.1	1005.82	-29750.8	0.000000	0.000000	7.133205	3.010503	NaN	0.000000	0.001534	0.001764	28.0818	3.985643	0.002007	1985.69	13.7691	-6.307631	1.579833	1.131327	0.000725	-0.000626	3.010503	1985.69	-0.000412	-0.000306	-9849.64	NaN
504	2.000000	1.139310	7.36999e+06	-51889.1	1005.82	-29750.8	0.000000	0.000000	7.140143	10.4474	NaN	0.000000	0.001550	0.001767	28.0819	10.6367	0.001600	6646.14	4.345690	169.858	9.456051	1.139017	0.007357	0.007065	10.4474	6646.14	0.006178	0.005234	1995.94	83929.2
504	2.000000	1.141766	7.36999e+06	-51889.1	1005.82	-29750.8	0.000000	0.000000	7.142712	13.1601	NaN	0.000000	0.001495	0.001770	28.0822	13.503	0.001781	7580.57	5.264327	-11.1793	11.8611	1.141469	0.009814	0.009517	13.1601	7580.57	0.008512	0.007574	1737.55	79582
504	2.000000	1.144275	7.36999e+06	-51889.1	1005.82	-29750.8	0.000000	0.000000	7.145397	17.4816	NaN	0.000000	0.001534	0.001765	28.0822	16.6715	0.001724	9668.07	6.998342	165.945	17.7583	1.144036	0.012322	0.012083	17.4816	9668.07	0.010966	0.010275	1701.44	87142.7
504	2.000000	1.146790	7.36999e+06	-51889.1	1005.82	-29750.8	0.000000	0.000000	7.148177	23.902	NaN	0.000000	0.001532	0.001745	28.0819	19.0644	0.001804	10569.4	9.903880	-16.7549	22.3606	1.146401	0.014837	0.014448	23.902	10569.4	0.013141	0.012886	1854.95	85069.4
504	2.000000	1.149227	7.36999e+06	-51889.1	1005.82	-29750.8	0.000000	0.000000	7.150860	29.8914	NaN	0.000000	0.001575	0.001759	28.082	21.5514	0.001790	12040.6	6.106521	164.574	28.9003	1.148914	0.017274	0.016961	29.8914	12040.6	0.015412	0.015839	1887.19	87408.8
504	2.000000	1.151742	7.36999e+06	-51889.1	1005.82	-29750.8	0.000000	0.000000	7.153603	35.4301	NaN	0.000000	0.001601	0.001724	28.0821	23.9707	0.001771	13531.9	2.040170	-12.5862	34.078	1.151345	0.019790	0.019392	35.4301	13531.9	0.017826	0.019241	1841.42	89129.9
504	2.000000	1.154242	7.36999e+06	-51889.1	1005.82	-29750.8	0.000000	0.000000	7.156277	39.6647	NaN	0.000000	0.001554	0.001742	28.0821	27.259	0.002002	13617.4	6.146218	166.238	40.5602	1.153923	0.022289	0.021970	39.6647	13617.4	0.020104	0.022707	1746.83	82564.1
504	2.000000	1.156729	7.36999e+06	-51889.1	1005.82	-29750.8	0.000000	0.000000	7.159104	47.9309	NaN	0.000000	0.001616	0.001723	28.0819	28.8639	0.001799	16042.5	7.313787	-18.1348	47.4827	1.156416	0.024776	0.024463	47.9309	16042.5	0.022535	0.026684	1796.27	89726.9
504	2.000000	1.159198	7.36999e+06	-51889.1	1005.82	-29750.8	0.000000	0.000000	7.161936	56.7371	NaN	0.000000	0.001555	0.001733	28.0819	31.0143	0.001656	18733.9	4.983130	161.176	55.2135	1.158872	0.027246	0.026919	56.7371	18733.9	0.024974	0.030969	1832.08	97261
504	2.000000	1.161734	7.36999e+06	-51889.1	1005.82	-29750.8	0.000000	0.000000	7.164698	62.2309	NaN	0.000000	0.001548	0.001761	28.082	34.5311	0.001723	20041.1	7.043067	-21.1267	61.52	1.161402	0.029782	0.029450	62.2309	20041.1	0.027453	0.035629	1746.61	97004.2
504	2.000000	1.164215	7.36999e+06	-51889.1	1005.82	-29750.8	0.000000	0.000000	7.167632	73.2457	NaN	0.000000	0.001528	0.001747	28.0822	37.5377	0.001720	21826.6	2.786176	163.004	74.2179	1.163919	0.032263	0.031967	73.2457	21826.6	0.029746	0.040219	1821.19	99436.3
504	2.000000	1.166733	7.36999e+06	-51889.1	1005.82	-29750.8	0.000000	0.000000	7.170552	83.0499	NaN	0.000000	0.001522	0.001796	28.0807	40.4509	0.001722	23487.3	5.507602	-19.5523	82.884	1.166340	0.034780	0.034388	83.0499	23487.3	0.032128	0.045270	1834.54	100856
504	2.000000	1.169179	7.36999e+06	-51889.1	1005.82	-29750.8	0.000000	0.000000	7.173346	91.5139	NaN	0.000000	0.001560	0.001776	28.0805	42.8464	0.001853	23120.7	4.321895	160.954	89.1903	1.168888	0.037226	0.036935	91.5139	23120.7	0.034257	0.050031	1829.16	94440.1
504	2.000000	1.171669	7.36999e+06	-51889.1	1005.82	-29750.8	0.000000	0.000000	7.176377	104.659	NaN	0.000000	0.001530	0.001718	28.0809	45.2227	0.001877	24092.1	3.778019	-17.8061	103.103	1.171313	0.039716	0.039360	104.659	24092.1	0.036458	0.055195	1896.18	93691.1
504	2.000000	1.174148	7.36999e+06	-51889.1	1005.82	-29750.8	0.000000	0.000000	7.179233	113.831	NaN	0.000000	0.001556	0.001735	28.0806	47.5374	0.001741	27307.8	1.582611	162.303	110.524	1.173886	0.042195	0.041934	113.831	27307.8	0.039069	0.061644	1846.58	100488
504	2.000000	1.176661	7.36999e+06	-51889.1	1005.82	-29750.8	0.000000	0.000000	7.182154	123.736	NaN	0.000000	0.001516	0.001696	28.0808	50.0993	0.001950	25695.8	5.556774	-20.9037	119.075	1.176301	0.044708	0.044348	123.736	25695.8	0.041097	0.066894	1849.75	90769.9
504	2.000000	1.179183	7.36999e+06	-51889.1	1005.82	-29750.8	0.000000	0.000000	7.185234	137.313	NaN	0.000000	0.001525	0.001724	28.0806	52.1674	0.001850	28196.2	3.178782	161.124	136.208	1.178845	0.047231	0.046892	137.313	28196.2	0.043578	0.073602	1865.61	94955
504	2.000000	1.181655	7.36999e+06	-51889.1	1005.82	-29750.8	0.000000	0.000000	7.188203	149.408	NaN	0.000000	0.001535	0.001733	28.0809	55.2569	0.001829	30209.7	6.104189	-22.7312	146.538	1.181272	0.049702	0.049319	149.408	30209.7	0.045993	0.080431	1857.58	97321.1
504	2.000000	1.184154	7.36999e+06	-51889.1	1005.82	-29750.8	0.000000	0.000000	7.191295	163.81	NaN	0.000000	0.001556	0.001744	28.0806	57.7214	0.001787	32301.8	4.501890	157.962	160.249	1.183824	0.052201	0.051872	163.81	32301.8	0.048398	0.087525	1871.58	99755
504	2.000000	1.186642	7.36999e+06	-51889.1	1005.82	-29750.8	0.000000	0.000000	7.194357	177.759	NaN	0.000000	0.001568	0.001707	28.0807	58.8867	0.001782	33038.2	3.621765	-20.7401	173.828	1.186313	0.054690	0.054360	177.759	33038.2	0.050654	0.094447	1882.11	98219.2
504	2.000000	1.189102	7.36999e+06	-51889.1	1005.82	-29750.8	0.000000	0.000000	7.197554	195.698	NaN	0.000000	0.001581	0.001728	28.0806	61.0875	0.001819	33578.9	3.660158	159.091	190.599	1.188835	0.057149	0.056882	195.698	33578.9	0.052778	0.101193	1933.9	96441.7
504	2.000000	1.191707	7.36999e+06	-51889.1	1005.82	-29750.8	0.000000	0.000000	7.200615	206.779	NaN	0.000000	0.001553	0.001699	28.081	64.865	0.001801	36020.5	3.354954	-21.8015	206.299	1.191388	0.059754	0.059435	206.779	36020.5	0.055449	0.109996	1879.88	99227.9
504	2.000000	1.194127	7.36999e+06	-51889.1	1005.82	-29750.8	0.000000	0.000000	7.203732	223.726	NaN	0.000000	0.001546	0.001711	28.0806	68.0558	0.001918	35475.6	4.986305	156.782	221.813	1.193814	0.062174	0.061862	223.726	35475.6	0.057445	0.116805	1915.38	94835.9
504	2.000000	1.196655	7.36999e+06	-51889.1	1005.82	-29750.8	0.000000	0.000000	7.206951	240.524	NaN	0.000000	0.001590	0.001703	28.0809	69.1338	0.001831	37751.3	5.316761	-23.818	238.592	1.196382	0.064702	0.064429	240.524	37751.3	0.059924	0.125535	1915.99	97347.1
504	2.000000	1.199111	7.36999e+06	-51889.1	1005.82	-29750.8	0.000000	0.000000	7.210200	259.83	NaN	0.000000	0.001558	0.001698	28.0819	70.0052	0.001739	40252.5	-0.243071	161.216	256.146	1.198839	0.067158	0.066886	259.83	40252.5	0.062317	0.134246	1935.47	100373
504	2.000000	1.201671	7.36999e+06	-51889.1	1005.82	-29750.8	0.000000	0.000000	7.213210	270.769	NaN	0.000000	0.001586	0.001732	28.0823	75.6487	0.001889	40052	5.593820	-24.2299	271.12	1.201320	0.069718	0.069367	270.769	40052	0.064648	0.143000	1893.49	96767.4
504	2.000000	1.204108	7.36999e+06	-51889.1	1005.82	-29750.8	0.000000	0.000000	7.216523	292.042	NaN	0.000000	0.001564	0.001717	28.0819	76.5419	0.001870	40928.7	-0.151804	161.066	288.267	1.203865	0.072155	0.071912	292.042	40928.7	0.066804	0.151330	1929.84	96125.6
504	2.000000	1.206577	7.36999e+06	-51889.1	1005.82	-29750.8	0.000000	0.000000	7.219776	311.122	NaN	0.000000	0.001541	0.001690	28.0823	77.7974	0.001704	45665.7	3.072884	-23.073	303.945	1.206359	0.074624	0.074406	311.122	45665.7	0.069514	0.162117	1919.12	103621
504	2.000000	1.209039	7.36999e+06	-51889.1	1005.82	-29750.8	0.000000	0.000000	7.223008	329.842	NaN	0.000000	0.001550	0.001698	28.0819	80.0562	0.001773	45160.7	2.819856	157.126	323.024	1.208852	0.077086	0.076899	329.842	45160.7	0.071608	0.170691	1932.4	99868.6
504	2.000000	1.211613	7.36999e+06	-51889.1	1005.82	-29750.8	0.000000	0.000000	7.226206	345.031	NaN	0.000000	0.001535	0.001726	28.0823	82.6586	0.001842	44877.1	3.152962	-22.7501	341.121	1.211253	0.079660	0.079301	345.031	44877.1	0.073894	0.180287	1913.79	96564.3
504	2.000000	1.214098	7.36999e+06	-51889.1	1005.82	-29750.8	0.000000	0.000000	7.229435	363.093	NaN	0.000000	0.001520	0.001696	28.0818	86.1059	0.001861	46266.7	5.396768	154.691	358.225	1.213789	0.082146	0.081837	363.093	46266.7	0.076260	0.190481	1906.19	96853.7
504	2.000000	1.216703	7.36999e+06	-51889.1	1005.82	-29750.8	0.000000	0.000000	7.232977	385.885	NaN	0.000000	0.001536	0.001733	28.0819	88.4256	0.001755	50377	7.420047	-27.2834	387.314	1.216170	0.084750	0.084218	385.885	50377	0.079005	0.202636	1904.32	102246
504	2.000000	1.219061	7.36999e+06	-51889.1	1005.82	-29750.8	0.000000	0.000000	7.236221	407.423	NaN	0.000000	0.001541	0.001710	28.082	89.825	0.001793	50091.7	6.207873	153.148	402.711	1.218808	0.087109	0.086856	407.423	50091.7	0.081008	0.211729	1924.27	99460.2
504	2.000000	1.221668	7.36999e+06	-51889.1	1005.82	-29750.8	0.000000	0.000000	7.239348	420.083	NaN	0.000000	0.001519	0.001744	28.0821	92.643	0.001771	52325.7	2.294394	-23.6165	420.789	1.221490	0.089715	0.089537	420.083	52325.7	0.083694	0.224210	1873.61	100963
504	2.000000	1.224006	7.36999e+06	-51889.1	1005.82	-29750.8	0.000000	0.000000	7.242771	446.453	NaN	0.000000	0.001518	0.001686	28.082	95.9622	0.001845	52011.5	6.277632	152.766	440.028	1.223774	0.092054	0.091821	446.453	52011.5	0.085616	0.233348	1913.25	98371.8
504	2.000000	1.226661	7.36999e+06	-51889.1	1005.82	-29750.8	0.000000	0.000000	7.246255	466.597	NaN	0.000000	0.001526	0.001731	28.0823	96.91	0.001863	52011.8	2.466409	-23.1788	465.464	1.226317	0.094709	0.094364	466.597	52011.8	0.087981	0.244825	1905.84	96038.9
504	2.000000	1.229109	7.36999e+06	-51889.1	1005.82	-29750.8	0.000000	0.000000	7.249534	486.811	NaN	0.000000	0.001561	0.001778	28.0822	98.2105	0.001709	57455.5	2.985102	155.507	485.834	1.228919	0.097157	0.096966	486.811	57455.5	0.090802	0.258855	1880.63	103176
504	2.000000	1.231584	7.36999e+06	-51889.1	1005.82	-29750.8	0.000000	0.000000	7.253141	514.358	NaN	0.000000	0.001555	0.001705	28.0825	100.868	0.001746	57771.4	6.092774	-27.441	509.669	1.231221	0.099631	0.099268	514.358	57771.4	0.092954	0.269800	1906.44	101617
504	2.000000	1.234202	7.36999e+06	-51889.1	1005.82	-29750.8	0.000000	0.000000	7.256041	521.192	NaN	0.000000	0.001531	0.001716	28.0806	104.121	0.001676	62141.6	1.185363	156.346	523.993	1.233961	0.102250	0.102009	521.192	62141.6	0.095959	0.285440	1825.92	106267
504	2.000000	1.236580	7.36999e+06	-51889.1	1005.82	-29750.8	0.000000	0.000000	7.259940	558.177	NaN	0.000000	0.001552	0.001715	28.0809	107.015	0.001819	58832	5.206097	-26.7612	554.012	1.236289	0.104627	0.104336	558.177	58832	0.097512	0.293682	1900.62	99185.5