File: remote_trans/data/nanoindenter/0828-1/data/Data_2025-08-06,11h17m57s/2025-07-22_16-23-58_1_691.txt
2025-07-22, 16:23:58, 1
Index	Phase	Displacement	Time	Pos X	Pos Y	Pos Z	Rot A	Rot B	Piezo Z	Force A	Force B	Gripper	Voltage A	Voltage B	Temperature	Amplitude force	Amplitude pos	Stiffness	Phase shift	Phase excitation	Force A raw	Displacement raw	HMax	HMax raw	Real Force	Real Stiffness	Contact Depth	Area	Hardness	Reduced Mod.
[#]	[#]	[um]	[s]	[um]	[um]	[um]	[m°]	[m°]	[um]	[uN]	[uN]	[V]	[V]	[V]	[°C]	[uN]	[um]	[N/m]	[°]	[°]	[uN]	[um]	[um]	[um]	[uN]	[N/m]	[um]	[um^2]	[MPa]	[MPa]
691	1.000000	0.002880	7.37181e+06	-42539.1	1005.82	-29782.4	0.000000	0.000000	6.002818	0.046598	NaN	0.000000	0.001716	0.001764	28.0803	0.072559	0.000949	76.482	92.0834	-162.596	-0.040174	0.001633	-1.039335	-1.040582	0.046598	76.482	-1.039792	-7.783465E+13	-5.986746E-16	NaN
691	1.000000	0.010821	7.37181e+06	-42539.1	1005.82	-29782.4	0.000000	0.000000	6.010756	-0.023826	NaN	0.000000	0.001710	0.001735	28.08	0.140905	0.001006	140.02	-123.557	-162.732	-0.076913	0.009440	-1.031394	-1.032775	-0.023826	140.02	-1.031267	-5.977457E+13	3.986036E-16	NaN
691	1.000000	0.018812	7.37181e+06	-42539.1	1005.82	-29782.4	0.000000	0.000000	6.018750	0.065585	NaN	0.000000	0.001729	0.001771	28.0802	0.039245	0.001704	23.0353	72.2568	-166.602	0.010419	0.017460	-1.023404	-1.024756	0.065585	23.0353	-1.025539	-5.005769E+13	-1.310186E-15	NaN
691	1.000000	0.026856	7.37181e+06	-42539.1	1005.82	-29782.4	0.000000	0.000000	6.026791	-0.002012	NaN	0.000000	0.001730	0.001740	28.0802	0.043580	0.001860	23.4239	-11.8183	-166.154	-0.030154	0.025469	-1.015359	-1.016746	-0.002012	23.4239	-1.015295	-3.644546E+13	5.519545E-17	NaN
691	1.000000	0.034809	7.37181e+06	-42539.1	1005.82	-29782.4	0.000000	0.000000	6.034745	0.000411	NaN	0.000000	0.001715	0.001750	28.0801	0.095372	0.001952	48.8627	39.1084	-168.016	0.057821	0.033511	-1.007406	-1.008704	0.000411	48.8627	-1.007413	-2.854686E+13	-1.440858E-17	NaN
691	1.000000	0.042794	7.37181e+06	-42539.1	1005.82	-29782.4	0.000000	0.000000	6.042730	0.009350	NaN	0.000000	0.001708	0.001745	28.0804	0.058051	0.001934	30.0176	-65.1644	-168.294	0.011021	0.041509	-0.999422	-1.000706	0.009350	30.0176	-0.999655	-2.244538E+13	-4.165736E-16	NaN
691	1.000000	0.050837	7.37181e+06	-42539.1	1005.82	-29782.4	0.000000	0.000000	6.050773	0.011259	NaN	0.000000	0.001697	0.001752	28.0803	0.045235	0.001894	23.8846	-72.4702	-170.515	0.104563	0.049537	-0.991379	-0.992678	0.011259	23.8846	-0.991732	-1.755657E+13	-6.412845E-16	NaN
691	1.000000	0.058835	7.37181e+06	-42539.1	1005.82	-29782.4	0.000000	0.000000	6.058768	-0.064541	NaN	0.000000	0.001690	0.001780	28.0803	0.028488	0.002023	14.0799	166.527	-163.881	-0.058055	0.057481	-0.983380	-0.984734	-0.064541	14.0799	-0.979942	-1.217955E+13	5.299109E-15	NaN
691	1.000000	0.066830	7.37181e+06	-42539.1	1005.82	-29782.4	0.000000	0.000000	6.066761	-0.106716	NaN	0.000000	0.001686	0.001739	28.0806	0.033705	0.002002	16.8369	101.574	-168.886	-0.017963	0.065521	-0.975385	-0.976695	-0.106716	16.8369	-0.970632	-9.123838E+12	1.169643E-14	NaN
691	1.000000	0.074826	7.37181e+06	-42539.1	1005.82	-29782.4	0.000000	0.000000	6.074760	-0.026646	NaN	0.000000	0.001706	0.001715	28.0803	0.005213	0.002036	2.560115	-134.214	-166.331	-0.016642	0.073450	-0.967390	-0.968765	-0.026646	2.560115	-0.959584	-6.475261E+12	4.114981E-15	NaN
691	1.000000	0.082828	7.37181e+06	-42539.1	1005.82	-29782.4	0.000000	0.000000	6.082765	0.034111	NaN	0.000000	0.001677	0.001708	28.0803	0.117348	0.002128	55.1484	164.042	-166.774	-0.020327	0.081486	-0.959388	-0.960730	0.034111	55.1484	-0.959852	-6.529312E+12	-5.224320E-15	NaN
691	1.000000	0.090841	7.37181e+06	-42539.1	1005.82	-29782.4	0.000000	0.000000	6.090778	0.053157	NaN	0.000000	0.001673	0.001714	28.0802	0.075426	0.002001	37.7009	-50.7025	-165.131	-0.004338	0.089549	-0.951375	-0.952667	0.053157	37.7009	-0.952432	-5.185967E+12	-1.025021E-14	NaN
691	1.000000	0.098854	7.37181e+06	-42539.1	1005.82	-29782.4	0.000000	0.000000	6.098790	0.004768	NaN	0.000000	0.001653	0.001765	28.0803	0.071028	0.001892	37.5475	88.5098	-165.454	0.003025	0.097515	-0.943361	-0.944701	0.004768	37.5475	-0.943456	-3.924334E+12	-1.215062E-15	NaN
691	1.000000	0.106844	7.37181e+06	-42539.1	1005.82	-29782.4	0.000000	0.000000	6.106780	0.018968	NaN	0.000000	0.001682	0.001750	28.0804	0.050187	0.002033	24.6828	-29.1463	-166.717	-0.111640	0.105521	-0.935372	-0.936695	0.018968	24.6828	-0.935948	-3.107884E+12	-6.103032E-15	NaN
691	1.000000	0.114835	7.37181e+06	-42539.1	1005.82	-29782.4	0.000000	0.000000	6.114772	0.026442	NaN	0.000000	0.001692	0.001748	28.08	0.127587	0.002030	62.8511	-112.746	-168.651	-0.001072	0.113525	-0.927380	-0.928690	0.026442	62.8511	-0.927696	-2.404914E+12	-1.099484E-14	NaN
691	1.000000	0.122823	7.37181e+06	-42539.1	1005.82	-29782.4	0.000000	0.000000	6.122761	0.060564	NaN	0.000000	0.001659	0.001763	28.0804	0.023310	0.001967	11.8535	-3.989604	-167.101	-0.000398	0.121475	-0.919393	-0.920741	0.060564	11.8535	-0.923225	-2.092875E+12	-2.893817E-14	NaN
691	1.000000	0.130841	7.37181e+06	-42539.1	1005.82	-29782.4	0.000000	0.000000	6.130777	-0.000606	NaN	0.000000	0.001678	0.001723	28.0814	0.054685	0.002149	25.4474	-65.1909	-166.8	0.082924	0.129447	-0.911374	-0.912768	-0.000606	25.4474	-0.911356	-1.447046E+12	4.191016E-16	NaN
691	1.000000	0.138849	7.37181e+06	-42539.1	1005.82	-29782.4	0.000000	0.000000	6.138783	-0.034827	NaN	0.000000	0.001729	0.001757	28.0817	0.078423	0.002020	38.8226	-66.5166	-164.712	-0.063596	0.137511	-0.903367	-0.904705	-0.034827	38.8226	-0.902694	-1.105270E+12	3.150993E-14	NaN
691	1.000000	0.146856	7.37181e+06	-42539.1	1005.82	-29782.4	0.000000	0.000000	6.146792	0.022614	NaN	0.000000	0.001693	0.001784	28.0815	0.059442	0.002051	28.9843	-89.5549	-164.332	-0.036323	0.145514	-0.895360	-0.896702	0.022614	28.9843	-0.895945	-8.959172E+11	-2.524083E-14	NaN
691	1.000000	0.154857	7.37181e+06	-42539.1	1005.82	-29782.4	0.000000	0.000000	6.154797	0.090071	NaN	0.000000	0.001689	0.001787	28.0814	0.042681	0.001851	23.0617	-133.936	-167.287	0.045093	0.153554	-0.887358	-0.888662	0.090071	23.0617	-0.890287	-7.512793E+11	-1.198905E-13	NaN
691	1.000000	0.162848	7.37181e+06	-42539.1	1005.82	-29782.4	0.000000	0.000000	6.162783	-0.033965	NaN	0.000000	0.001701	0.001780	28.0816	0.090781	0.001918	47.3315	-58.1688	-171.55	-0.028264	0.161572	-0.879367	-0.880643	-0.033965	47.3315	-0.878829	-5.258609E+11	6.458928E-14	NaN
691	1.000000	0.170874	7.37181e+06	-42539.1	1005.82	-29782.4	0.000000	0.000000	6.170810	0.002650	NaN	0.000000	0.001678	0.001787	28.0815	0.017295	0.001970	8.778066	-31.7062	-169.381	0.036608	0.169503	-0.871341	-0.872713	0.002650	8.778066	-0.871568	-4.194224E+11	-6.317051E-15	NaN
691	1.000000	0.178871	7.37181e+06	-42539.1	1005.82	-29782.4	0.000000	0.000000	6.178804	-0.042878	NaN	0.000000	0.001700	0.001783	28.0815	0.071009	0.002115	33.5693	20.6083	-166.388	-0.068606	0.177570	-0.863345	-0.864646	-0.042878	33.5693	-0.862387	-3.150852E+11	1.360827E-13	NaN
691	1.000000	0.186858	7.37181e+06	-42539.1	1005.82	-29782.4	0.000000	0.000000	6.186792	-0.030558	NaN	0.000000	0.001664	0.001793	28.0817	0.105086	0.002110	49.8048	-69.1193	-165.968	-0.000741	0.185574	-0.855357	-0.856641	-0.030558	49.8048	-0.854897	-2.494850E+11	1.224835E-13	NaN
691	1.000000	0.194868	7.37181e+06	-42539.1	1005.82	-29782.4	0.000000	0.000000	6.194806	0.049008	NaN	0.000000	0.001701	0.001770	28.0816	0.022157	0.002046	10.832	-149.304	-166.072	0.056029	0.193563	-0.847347	-0.848652	0.049008	10.832	-0.850741	-2.191632E+11	-2.236148E-13	NaN
691	1.000000	0.202889	7.37181e+06	-42539.1	1005.82	-29782.4	0.000000	0.000000	6.202827	0.050184	NaN	0.000000	0.001726	0.001756	28.0813	0.130260	0.002001	65.0977	44.4111	-165.28	0.068260	0.201602	-0.839327	-0.840613	0.050184	65.0977	-0.839905	-1.563158E+11	-3.210400E-13	NaN
691	1.000000	0.210896	7.37181e+06	-42539.1	1005.82	-29782.4	0.000000	0.000000	6.210828	-0.073892	NaN	0.000000	0.001698	0.001733	28.0815	0.057900	0.001996	29.0101	96.7647	-166.043	-0.057714	0.209581	-0.831320	-0.832634	-0.073892	29.0101	-0.829410	-1.126631E+11	6.558637E-13	NaN
691	1.000000	0.218892	7.37181e+06	-42539.1	1005.82	-29782.4	0.000000	0.000000	6.218827	-0.009330	NaN	0.000000	0.001661	0.001718	28.0815	0.125683	0.001941	64.7466	-153.257	-166.946	0.029109	0.217548	-0.823324	-0.824667	-0.009330	64.7466	-0.823216	-9.285748E+10	1.004726E-13	NaN
691	1.000000	0.226901	7.37181e+06	-42539.1	1005.82	-29782.4	0.000000	0.000000	6.226837	0.000846	NaN	0.000000	0.001693	0.001737	28.0815	0.032780	0.001974	16.6055	170.021	-164.989	0.054501	0.225603	-0.815314	-0.816613	0.000846	16.6055	-0.815352	-7.264078E+10	-1.164849E-14	NaN
691	1.000000	0.234891	7.37181e+06	-42539.1	1005.82	-29782.4	0.000000	0.000000	6.234827	0.024514	NaN	0.000000	0.001668	0.001759	28.0814	0.040052	0.002168	18.4714	-132.258	-164.578	-0.017748	0.233526	-0.807325	-0.808690	0.024514	18.4714	-0.808320	-5.831446E+10	-4.203700E-13	NaN
691	1.000000	0.242889	7.37181e+06	-42539.1	1005.82	-29782.4	0.000000	0.000000	6.242822	-0.047662	NaN	0.000000	0.001664	0.001749	28.0813	0.021257	0.002005	10.6045	152.286	-166.651	-0.015469	0.241594	-0.799327	-0.800622	-0.047662	10.6045	-0.795956	-3.962416E+10	1.202859E-12	NaN
691	1.000000	0.250886	7.37181e+06	-42539.1	1005.82	-29782.4	0.000000	0.000000	6.250821	-0.031071	NaN	0.000000	0.001676	0.001745	28.0816	0.103112	0.001934	53.3109	-101.666	-166.36	0.063849	0.249535	-0.791329	-0.792681	-0.031071	53.3109	-0.790892	-3.382202E+10	9.186542E-13	NaN
691	1.000000	0.258883	7.37181e+06	-42539.1	1005.82	-29782.4	0.000000	0.000000	6.258819	0.010355	NaN	0.000000	0.001701	0.001758	28.0817	0.037755	0.002012	18.7693	-14.5537	-165.806	0.036906	0.257576	-0.783333	-0.784639	0.010355	18.7693	-0.783746	-2.704795E+10	-3.828406E-13	NaN
691	1.000000	0.266880	7.37181e+06	-42539.1	1005.82	-29782.4	0.000000	0.000000	6.266816	0.006050	NaN	0.000000	0.001686	0.001753	28.0806	0.069343	0.001952	35.5217	179.661	-167.214	0.015925	0.265613	-0.775336	-0.776603	0.006050	35.5217	-0.775463	-2.087263E+10	-2.898317E-13	NaN
691	1.000000	0.274913	7.37181e+06	-42539.1	1005.82	-29782.4	0.000000	0.000000	6.274848	-0.018557	NaN	0.000000	0.001691	0.001753	28.0808	0.068763	0.002072	33.1875	2.135344	-165.799	-0.087476	0.273623	-0.767302	-0.768593	-0.018557	33.1875	-0.766883	-1.595580E+10	1.163013E-12	NaN
691	1.000000	0.282903	7.37181e+06	-42539.1	1005.82	-29782.4	0.000000	0.000000	6.282839	-0.006642	NaN	0.000000	0.001695	0.001731	28.0804	0.024379	0.001942	12.5552	-125.056	-165.983	-0.010423	0.281596	-0.759312	-0.760620	-0.006642	12.5552	-0.758915	-1.243219E+10	5.342911E-13	NaN
691	1.000000	0.290926	7.37181e+06	-42539.1	1005.82	-29782.4	0.000000	0.000000	6.290859	-0.051169	NaN	0.000000	0.001707	0.001728	28.0808	0.048827	0.002132	22.9038	119.166	-165.555	-0.066192	0.289584	-0.751290	-0.752632	-0.051169	22.9038	-0.749614	-9.289024E+9	5.508549E-12	NaN
691	1.000000	0.298903	7.37181e+06	-42539.1	1005.82	-29782.4	0.000000	0.000000	6.298839	0.002548	NaN	0.000000	0.001707	0.001768	28.0804	0.055795	0.002033	27.4435	-51.2617	-164.704	0.052101	0.297616	-0.743312	-0.744600	0.002548	27.4435	-0.743382	-7.640400E+9	-3.334793E-13	NaN
691	1.000000	0.306911	7.37181e+06	-42539.1	1005.82	-29782.4	0.000000	0.000000	6.306845	-0.035955	NaN	0.000000	0.001673	0.001762	28.0805	0.068561	0.001976	34.6997	110.63	-166.765	0.036034	0.305612	-0.735305	-0.736604	-0.035955	34.6997	-0.734527	-5.787667E+9	6.212364E-12	NaN
691	1.000000	0.314915	7.37181e+06	-42539.1	1005.82	-29782.4	0.000000	0.000000	6.314847	-0.075495	NaN	0.000000	0.001680	0.001760	28.0805	0.104721	0.002037	51.4136	-179.477	-165.608	-0.084213	0.313605	-0.727301	-0.728611	-0.075495	51.4136	-0.726199	-4.456591E+9	1.694005E-11	NaN
691	1.000000	0.322916	7.37181e+06	-42539.1	1005.82	-29782.4	0.000000	0.000000	6.322852	-0.002819	NaN	0.000000	0.001704	0.001746	28.0804	0.078269	0.002004	39.06	-119.887	-169.506	0.035092	0.321590	-0.719299	-0.720626	-0.002819	39.06	-0.719245	-3.582421E+9	7.870201E-13	NaN
691	1.000000	0.330946	7.37181e+06	-42539.1	1005.82	-29782.4	0.000000	0.000000	6.330879	-0.043657	NaN	0.000000	0.001722	0.001733	28.0804	0.143274	0.001979	72.3864	-37.8412	-164.093	-0.085794	0.329628	-0.711270	-0.712588	-0.043657	72.3864	-0.710817	-2.749184E+9	1.587989E-11	NaN
691	1.000000	0.338940	7.37181e+06	-42539.1	1005.82	-29782.4	0.000000	0.000000	6.338875	-0.009276	NaN	0.000000	0.001720	0.001734	28.0803	0.003795	0.002007	1.890972	147.731	-169.661	-0.052475	0.337634	-0.703276	-0.704582	-0.009276	1.890972	-0.699597	-1.932083E+9	4.800800E-12	NaN
691	1.000000	0.346943	7.37181e+06	-42539.1	1005.82	-29782.4	0.000000	0.000000	6.346878	-0.022921	NaN	0.000000	0.001718	0.001760	28.0804	0.044802	0.002170	20.6486	-160.14	-166.656	0.007015	0.345594	-0.695272	-0.696622	-0.022921	20.6486	-0.694440	-1.642802E+9	1.395209E-11	NaN
691	1.000000	0.354924	7.37181e+06	-42539.1	1005.82	-29782.4	0.000000	0.000000	6.354856	-0.070288	NaN	0.000000	0.001726	0.001743	28.0804	0.099295	0.002052	48.3891	12.2631	-165.966	-0.045435	0.353605	-0.687292	-0.688611	-0.070288	48.3891	-0.686203	-1.267694E+9	5.544545E-11	NaN
691	1.000000	0.362946	7.37181e+06	-42539.1	1005.82	-29782.4	0.000000	0.000000	6.362880	-0.026501	NaN	0.000000	0.001727	0.001721	28.0803	0.053241	0.001796	29.6422	-87.6291	-167.69	-0.005334	0.361662	-0.679270	-0.680554	-0.026501	29.6422	-0.678599	-9.978024E+8	2.655929E-11	NaN
691	1.000000	0.370918	7.37181e+06	-42539.1	1005.82	-29782.4	0.000000	0.000000	6.370853	0.005958	NaN	0.000000	0.001696	0.001699	28.0801	0.081168	0.001973	41.1479	-103.118	-165.476	-0.031336	0.369680	-0.671298	-0.672536	0.005958	41.1479	-0.671406	-7.954973E+8	-7.489892E-12	NaN
691	1.000000	0.378959	7.37181e+06	-42539.1	1005.82	-29782.4	0.000000	0.000000	6.378895	0.031641	NaN	0.000000	0.001698	0.001717	28.0804	0.116348	0.001969	59.0902	-118.223	-168.889	0.021762	0.377591	-0.663257	-0.664625	0.031641	59.0902	-0.663659	-6.231236E+8	-5.077799E-11	NaN
691	1.000000	0.386960	7.37181e+06	-42539.1	1005.82	-29782.4	0.000000	0.000000	6.386897	0.044460	NaN	0.000000	0.001729	0.001680	28.0803	0.063041	0.001919	32.8557	116.386	-164.821	-0.052452	0.385621	-0.655256	-0.656595	0.044460	32.8557	-0.656271	-4.936055E+8	-9.007152E-11	NaN
691	1.000000	0.394968	7.37181e+06	-42539.1	1005.82	-29782.4	0.000000	0.000000	6.394903	-0.006356	NaN	0.000000	0.001715	0.001694	28.0804	0.031883	0.002003	15.9143	-136.669	-164.182	-0.022383	0.393655	-0.647248	-0.648561	-0.006356	15.9143	-0.646948	-3.677866E+8	1.728077E-11	NaN
691	1.000000	0.402977	7.37181e+06	-42539.1	1005.82	-29782.4	0.000000	0.000000	6.402911	-0.032169	NaN	0.000000	0.001733	0.001740	28.0813	0.064392	0.002043	31.5251	23.0758	-165.201	-0.028654	0.401665	-0.639238	-0.640550	-0.032169	31.5251	-0.638473	-2.814085E+8	1.143132E-10	NaN
691	1.000000	0.410954	7.37181e+06	-42539.1	1005.82	-29782.4	0.000000	0.000000	6.410889	-0.019805	NaN	0.000000	0.001732	0.001704	28.0816	0.033542	0.002125	15.7872	-174.302	-166.552	-0.051660	0.409696	-0.631261	-0.632520	-0.019805	15.7872	-0.630321	-2.174828E+8	9.106690E-11	NaN
691	1.000000	0.419007	7.37181e+06	-42539.1	1005.82	-29782.4	0.000000	0.000000	6.418939	-0.081766	NaN	0.000000	0.001693	0.001691	28.0817	0.110947	0.002063	53.7789	171.375	-166.752	-0.086605	0.417651	-0.623209	-0.624565	-0.081766	53.7789	-0.622069	-1.675186E+8	4.881016E-10	NaN
691	1.000000	0.426985	7.37181e+06	-42539.1	1005.82	-29782.4	0.000000	0.000000	6.426919	-0.020578	NaN	0.000000	0.001707	0.001729	28.0814	0.094699	0.001962	48.2717	-34.9051	-166.237	-0.036016	0.425639	-0.615231	-0.616577	-0.020578	48.2717	-0.614911	-1.335576E+8	1.540734E-10	NaN
691	1.000000	0.434975	7.37181e+06	-42539.1	1005.82	-29782.4	0.000000	0.000000	6.434911	0.011999	NaN	0.000000	0.001716	0.001720	28.0814	0.124035	0.001972	62.8959	-124.773	-166.11	0.025996	0.433627	-0.607240	-0.608588	0.011999	62.8959	-0.607383	-1.052224E+8	-1.140388E-10	NaN
691	1.000000	0.442982	7.37181e+06	-42539.1	1005.82	-29782.4	0.000000	0.000000	6.442917	-0.001729	NaN	0.000000	0.001721	0.001717	28.0815	0.082668	0.002091	39.5371	-171.696	-167.647	0.005960	0.441694	-0.599234	-0.600521	-0.001729	39.5371	-0.599201	-8.118068E+7	2.130348E-11	NaN
691	1.000000	0.451009	7.37181e+06	-42539.1	1005.82	-29782.4	0.000000	0.000000	6.450942	-0.048954	NaN	0.000000	0.001707	0.001720	28.0817	0.024617	0.001982	12.4189	51.519	-166.887	0.055877	0.449661	-0.591207	-0.592554	-0.048954	12.4189	-0.588250	-5.735116E+7	8.535771E-10	NaN
691	1.000000	0.458980	7.37181e+06	-42539.1	1005.82	-29782.4	0.000000	0.000000	6.458912	-0.084731	NaN	0.000000	0.001729	0.001720	28.0819	0.066797	0.002052	32.5535	176.15	-166.908	-0.066842	0.457699	-0.583235	-0.584516	-0.084731	32.5535	-0.581283	-4.596559E+7	1.843356E-9	NaN
691	1.000000	0.466963	7.37181e+06	-42539.1	1005.82	-29782.4	0.000000	0.000000	6.466899	0.019753	NaN	0.000000	0.001723	0.001724	28.0816	0.078440	0.001914	40.9729	5.201134	-169.824	-0.023862	0.465679	-0.575253	-0.576537	0.019753	40.9729	-0.575614	-3.838648E+7	-5.145815E-10	NaN
691	1.000000	0.474997	7.37181e+06	-42539.1	1005.82	-29782.4	0.000000	0.000000	6.474934	0.022754	NaN	0.000000	0.001719	0.001720	28.0817	0.078204	0.002008	38.9417	24.7353	-166.8	-0.033139	0.473725	-0.567218	-0.568490	0.022754	38.9417	-0.567656	-2.980208E+7	-7.635104E-10	NaN
691	1.000000	0.483000	7.37181e+06	-42539.1	1005.82	-29782.4	0.000000	0.000000	6.482936	0.018121	NaN	0.000000	0.001726	0.001750	28.0815	0.032094	0.001933	16.6026	165.951	-166.777	-0.032117	0.481677	-0.559215	-0.560539	0.018121	16.6026	-0.560034	-2.338021E+7	-7.750609E-10	NaN
691	1.000000	0.491005	7.37181e+06	-42539.1	1005.82	-29782.4	0.000000	0.000000	6.490942	0.025777	NaN	0.000000	0.001725	0.001738	28.0817	0.045126	0.002022	22.3129	27.1397	-163.649	-0.018936	0.489670	-0.551210	-0.552545	0.025777	22.3129	-0.552077	-1.814324E+7	-1.420726E-9	NaN
691	1.000000	0.498983	7.37181e+06	-42539.1	1005.82	-29782.4	0.000000	0.000000	6.498921	0.042798	NaN	0.000000	0.001727	0.001712	28.0818	0.047003	0.001937	24.2698	75.8309	-169.018	0.024112	0.497680	-0.543232	-0.544536	0.042798	24.2698	-0.544555	-1.427282E+7	-2.998592E-9	NaN
691	1.000000	0.507034	7.37181e+06	-42539.1	1005.82	-29782.4	0.000000	0.000000	6.506968	-0.037284	NaN	0.000000	0.001699	0.001711	28.0817	0.142428	0.002106	67.6235	89.4592	-165.336	0.035013	0.505638	-0.535181	-0.536578	-0.037284	67.6235	-0.534768	-1.044156E+7	3.570744E-9	NaN
691	1.000000	0.515009	7.37181e+06	-42539.1	1005.82	-29782.4	0.000000	0.000000	6.514944	0.002050	NaN	0.000000	0.001686	0.001687	28.0819	0.130182	0.002051	63.4683	135.621	-166.89	0.032415	0.513682	-0.527207	-0.528533	0.002050	63.4683	-0.527231	-8.20566e+06	-2.498177E-10	NaN
691	1.000000	0.523010	7.37181e+06	-42539.1	1005.82	-29782.4	0.000000	0.000000	6.522945	-0.013351	NaN	0.000000	0.001707	0.001702	28.0816	0.018085	0.001952	9.262543	-55.688	-164.384	0.033490	0.521621	-0.519205	-0.520595	-0.013351	9.262543	-0.518124	-6.13064e+06	2.177747E-9	NaN
691	1.000000	0.531013	7.37181e+06	-42539.1	1005.82	-29782.4	0.000000	0.000000	6.530950	0.030063	NaN	0.000000	0.001723	0.001685	28.0816	0.049964	0.002051	24.3592	120.829	-167.132	-0.000533	0.529675	-0.511203	-0.512541	0.030063	24.3592	-0.512128	-5.05891e+06	-5.942544E-9	NaN
691	1.000000	0.539026	7.37181e+06	-42539.1	1005.82	-29782.4	0.000000	0.000000	6.538961	-0.003728	NaN	0.000000	0.001698	0.001695	28.081	0.070754	0.002019	35.0482	65.9938	-166.1	0.040296	0.537745	-0.503190	-0.504470	-0.003728	35.0482	-0.503110	-3.78788e+06	9.840709E-10	NaN
691	1.000000	0.547041	7.37181e+06	-42539.1	1005.82	-29782.4	0.000000	0.000000	6.546978	0.034427	NaN	0.000000	0.001696	0.001750	28.0805	0.097850	0.001947	50.2444	-101.611	-170.181	0.096063	0.545678	-0.495174	-0.496537	0.034427	50.2444	-0.495688	-2.98428e+06	-1.153606E-8	NaN
691	1.000000	0.555032	7.37181e+06	-42539.1	1005.82	-29782.4	0.000000	0.000000	6.554969	0.023183	NaN	0.000000	0.001733	0.001686	28.0804	0.073040	0.002044	35.7302	130.582	-168.139	0.030214	0.553745	-0.487184	-0.488471	0.023183	35.7302	-0.487670	-2.30583e+06	-1.005422E-8	NaN
691	1.000000	0.563027	7.37181e+06	-42539.1	1005.82	-29782.4	0.000000	0.000000	6.562963	0.024829	NaN	0.000000	0.001721	0.001717	28.0803	0.110666	0.001989	55.6296	118.579	-170.88	0.039808	0.561737	-0.479189	-0.480478	0.024829	55.6296	-0.479524	-1.77361e+06	-1.399902E-8	NaN
691	1.000000	0.571031	7.37181e+06	-42539.1	1005.82	-29782.4	0.000000	0.000000	6.570966	-0.015361	NaN	0.000000	0.001687	0.001707	28.0804	0.087230	0.001920	45.4219	-82.7548	-168.16	-0.019414	0.569742	-0.471184	-0.472473	-0.015361	45.4219	-0.470931	-1.34418e+06	1.142780E-8	NaN
691	1.000000	0.579051	7.37181e+06	-42539.1	1005.82	-29782.4	0.000000	0.000000	6.578984	-0.045559	NaN	0.000000	0.001703	0.001670	28.0802	0.089746	0.001862	48.189	-61.8246	-168.204	-0.090303	0.577733	-0.463165	-0.464483	-0.045559	48.189	-0.462456	-1.02216e+06	4.457151E-8	NaN
691	1.000000	0.587066	7.37181e+06	-42539.1	1005.82	-29782.4	0.000000	0.000000	6.587001	-0.024689	NaN	0.000000	0.001675	0.001727	28.0803	0.045631	0.002051	22.2483	53.0573	-168.416	0.040954	0.585736	-0.455149	-0.456479	-0.024689	22.2483	-0.454317	-785426	3.143413E-8	NaN
691	1.000000	0.595013	7.37181e+06	-42539.1	1005.82	-29782.4	0.000000	0.000000	6.594946	-0.053162	NaN	0.000000	0.001713	0.001691	28.0801	0.086831	0.001925	45.109	124.98	-169.536	0.016159	0.593753	-0.447203	-0.448462	-0.053162	45.109	-0.446319	-606015	8.772405E-8	NaN
691	1.000000	0.603045	7.37181e+06	-42539.1	1005.82	-29782.4	0.000000	0.000000	6.602980	-0.021707	NaN	0.000000	0.001699	0.001709	28.0803	0.093645	0.002097	44.6556	167.574	-161.813	-0.020763	0.601780	-0.439171	-0.440435	-0.021707	44.6556	-0.438806	-474800	4.571748E-8	NaN
691	1.000000	0.611045	7.37181e+06	-42539.1	1005.82	-29782.4	0.000000	0.000000	6.610982	0.039094	NaN	0.000000	0.001690	0.001726	28.0805	0.034463	0.001994	17.2791	112.161	-166.235	-0.061350	0.609705	-0.431171	-0.432511	0.039094	17.2791	-0.432868	-391396	-9.988438E-8	NaN
691	1.000000	0.619071	7.37181e+06	-42539.1	1005.82	-29782.4	0.000000	0.000000	6.619005	-0.031129	NaN	0.000000	0.001721	0.001700	28.0802	0.052293	0.002000	26.1444	158.57	-167.786	-0.016303	0.617707	-0.423145	-0.424509	-0.031129	26.1444	-0.422252	-276913	1.124134E-7	NaN
691	1.000000	0.627047	7.37181e+06	-42539.1	1005.82	-29782.4	0.000000	0.000000	6.626981	-0.040030	NaN	0.000000	0.001715	0.001695	28.0804	0.027968	0.001982	14.113	1.943389	-163.433	0.008879	0.625746	-0.415169	-0.416470	-0.040030	14.113	-0.413041	-204943	1.953251E-7	NaN
691	1.000000	0.635059	7.37181e+06	-42539.1	1005.82	-29782.4	0.000000	0.000000	6.634995	0.010556	NaN	0.000000	0.001686	0.001729	28.0802	0.028730	0.001965	14.6225	26.2262	-167.525	-0.023303	0.633771	-0.407156	-0.408445	0.010556	14.6225	-0.407698	-172048	-6.135439E-8	NaN
691	1.000000	0.643054	7.37181e+06	-42539.1	1005.82	-29782.4	0.000000	0.000000	6.642991	0.037139	NaN	0.000000	0.001717	0.001737	28.0804	0.030869	0.001892	16.3187	-78.409	-164.299	-0.050772	0.641746	-0.399162	-0.400470	0.037139	16.3187	-0.400869	-137524	-2.700516E-7	NaN
691	1.000000	0.651080	7.37181e+06	-42539.1	1005.82	-29782.4	0.000000	0.000000	6.651014	-0.032314	NaN	0.000000	0.001709	0.001726	28.0801	0.121431	0.001959	61.9826	-54.0954	-166.389	-0.142567	0.649725	-0.391136	-0.392491	-0.032314	61.9826	-0.390745	-98587.5	3.277733E-7	NaN
691	1.000000	0.659053	7.37181e+06	-42539.1	1005.82	-29782.4	0.000000	0.000000	6.658987	-0.047886	NaN	0.000000	0.001711	0.001694	28.0801	0.035444	0.001970	17.9934	77.3503	-170.18	-0.036134	0.657755	-0.383162	-0.384460	-0.047886	17.9934	-0.381166	-71882.3	6.661731E-7	NaN
691	1.000000	0.667079	7.37181e+06	-42539.1	1005.82	-29782.4	0.000000	0.000000	6.667013	-0.040135	NaN	0.000000	0.001736	0.001661	28.0803	0.119978	0.002087	57.4887	130.168	-167.301	0.065912	0.665791	-0.375136	-0.376424	-0.040135	57.4887	-0.374613	-57876.4	6.934654E-7	NaN
691	1.000000	0.675084	7.37181e+06	-42539.1	1005.82	-29782.4	0.000000	0.000000	6.675015	-0.097714	NaN	0.000000	0.001725	0.001675	28.0803	0.027171	0.001993	13.6336	178.738	-165.979	-0.095512	0.673780	-0.367132	-0.368436	-0.097714	13.6336	-0.361756	-37776.9	2.586606E-6	NaN
691	1.000000	0.683131	7.37181e+06	-42539.1	1005.82	-29782.4	0.000000	0.000000	6.683066	-0.022210	NaN	0.000000	0.001710	0.001664	28.0815	0.051088	0.002084	24.5169	-22.8162	-166.509	-0.002623	0.681777	-0.359084	-0.360438	-0.022210	24.5169	-0.358405	-33789.3	6.572984E-7	NaN
691	1.000000	0.691089	7.37181e+06	-42539.1	1005.82	-29782.4	0.000000	0.000000	6.691026	0.022558	NaN	0.000000	0.001722	0.001701	28.0812	0.069182	0.002045	33.8256	83.4409	-168.242	-0.054839	0.689770	-0.351126	-0.352446	0.022558	33.8256	-0.351627	-26952.7	-8.369333E-7	NaN
691	1.000000	0.699114	7.37181e+06	-42539.1	1005.82	-29782.4	0.000000	0.000000	6.699048	-0.041708	NaN	0.000000	0.001701	0.001704	28.0812	0.019020	0.002077	9.158484	-12.27	-166.342	-0.008948	0.697738	-0.343102	-0.344477	-0.041708	9.158484	-0.339686	-18070.9	2.307997E-6	NaN
691	1.000000	0.707077	7.37181e+06	-42539.1	1005.82	-29782.4	0.000000	0.000000	6.707013	0.006767	NaN	0.000000	0.001721	0.001722	28.0814	0.049587	0.001979	25.0597	-125.36	-163.171	0.061060	0.705800	-0.335138	-0.336416	0.006767	25.0597	-0.335341	-15615.8	-4.333134E-7	NaN
691	1.000000	0.715106	7.37181e+06	-42539.1	1005.82	-29782.4	0.000000	0.000000	6.715042	0.003669	NaN	0.000000	0.001718	0.001683	28.0812	0.043452	0.001909	22.7637	51.4526	-169.031	0.006069	0.713805	-0.327110	-0.328411	0.003669	22.7637	-0.327230	-11881.3	-3.087782E-7	NaN
691	1.000000	0.723100	7.37181e+06	-42539.1	1005.82	-29782.4	0.000000	0.000000	6.723037	0.040390	NaN	0.000000	0.001735	0.001725	28.0814	0.083031	0.002108	39.3928	52.5293	-163.376	0.076371	0.721799	-0.319116	-0.320416	0.040390	39.3928	-0.319885	-9267.1	-4.358424E-6	NaN
691	1.000000	0.731091	7.37181e+06	-42539.1	1005.82	-29782.4	0.000000	0.000000	6.731025	-0.024235	NaN	0.000000	0.001693	0.001747	28.0814	0.074984	0.002170	34.5612	34.2776	-166.974	-0.002430	0.729741	-0.311125	-0.312475	-0.024235	34.5612	-0.310599	-6759.58	3.585293E-6	NaN
691	1.000000	0.739112	7.37181e+06	-42539.1	1005.82	-29782.4	0.000000	0.000000	6.739045	-0.047676	NaN	0.000000	0.001719	0.001718	28.0814	0.040899	0.002071	19.7506	-39.8628	-163.59	-0.032335	0.737768	-0.303104	-0.304448	-0.047676	19.7506	-0.301293	-4919.02	9.692120E-6	NaN
691	1.000000	0.747083	7.37181e+06	-42539.1	1005.82	-29782.4	0.000000	0.000000	6.747018	-0.011424	NaN	0.000000	0.001717	0.001718	28.0812	0.057991	0.001817	31.91	-140.55	-166.697	-0.043966	0.745772	-0.295132	-0.296444	-0.011424	31.91	-0.294864	-3945.08	2.895703E-6	NaN
691	1.000000	0.755113	7.37181e+06	-42539.1	1005.82	-29782.4	0.000000	0.000000	6.755047	-0.042370	NaN	0.000000	0.001725	0.001690	28.0812	0.014526	0.001944	7.470954	-5.124446	-166.167	0.057082	0.753782	-0.287102	-0.288434	-0.042370	7.470954	-0.282849	-2605.59	1.626122E-5	NaN
691	1.000000	0.763129	7.37181e+06	-42539.1	1005.82	-29782.4	0.000000	0.000000	6.763063	-0.031032	NaN	0.000000	0.001703	0.001686	28.0815	0.074787	0.002108	35.4787	-23.585	-164.568	-0.020402	0.761795	-0.279087	-0.280421	-0.031032	35.4787	-0.278431	-2235.01	1.388452E-5	NaN
691	1.000000	0.771114	7.37181e+06	-42539.1	1005.82	-29782.4	0.000000	0.000000	6.771049	-0.005243	NaN	0.000000	0.001761	0.001717	28.0816	0.083629	0.001969	42.4795	146.416	-164.324	-0.009962	0.769781	-0.271102	-0.272435	-0.005243	42.4795	-0.271009	-1725.37	3.038641E-6	NaN
691	1.000000	0.779142	7.37181e+06	-42539.1	1005.82	-29782.4	0.000000	0.000000	6.779078	-0.001102	NaN	0.000000	0.001755	0.001714	28.0817	0.061964	0.002016	30.7317	75.5991	-166.113	0.002588	0.777820	-0.263073	-0.264396	-0.001102	30.7317	-0.263046	-1304.81	8.448912E-7	NaN
691	1.000000	0.787092	7.37181e+06	-42539.1	1005.82	-29782.4	0.000000	0.000000	6.787028	0.021220	NaN	0.000000	0.001696	0.001738	28.0814	0.063399	0.002020	31.3856	119.015	-165.214	0.036871	0.785826	-0.255124	-0.256390	0.021220	31.3856	-0.255631	-1004.2	-2.113118E-5	NaN
691	1.000000	0.795104	7.37181e+06	-42539.1	1005.82	-29782.4	0.000000	0.000000	6.795041	0.016585	NaN	0.000000	0.001723	0.001691	28.0813	0.051634	0.002005	25.7562	-145.309	-167.149	0.036186	0.793777	-0.247111	-0.248438	0.016585	25.7562	-0.247594	-754.596	-2.197857E-5	NaN
691	1.000000	0.803115	7.37181e+06	-42539.1	1005.82	-29782.4	0.000000	0.000000	6.803051	-0.000180	NaN	0.000000	0.001744	0.001707	28.0824	0.096479	0.002001	48.2091	-108.071	-165.27	0.049521	0.801779	-0.239100	-0.240437	-0.000180	48.2091	-0.239097	-556.475	3.226612E-7	NaN
691	1.000000	0.811126	7.37181e+06	-42539.1	1005.82	-29782.4	0.000000	0.000000	6.811064	0.059814	NaN	0.000000	0.001746	0.001756	28.0815	0.076659	0.002000	38.3326	-122.279	-165.244	0.124300	0.809759	-0.231089	-0.232457	0.059814	38.3326	-0.232259	-434.66	-0.000138	NaN
691	1.000000	0.819142	7.37181e+06	-42539.1	1005.82	-29782.4	0.000000	0.000000	6.819079	0.021007	NaN	0.000000	0.001758	0.001718	28.0806	0.025706	0.002007	12.8052	-79.151	-168.182	0.016894	0.817782	-0.223073	-0.224433	0.021007	12.8052	-0.224304	-325.288	-6.457918E-5	NaN
691	1.000000	0.827125	7.37181e+06	-42539.1	1005.82	-29782.4	0.000000	0.000000	6.827057	-0.086405	NaN	0.000000	0.001735	0.001750	28.0803	0.024538	0.001856	13.2212	-48.77	-163.004	-0.083384	0.825812	-0.215090	-0.216403	-0.086405	13.2212	-0.210189	-193.142	0.000447	NaN
691	1.000000	0.835165	7.37181e+06	-42539.1	1005.82	-29782.4	0.000000	0.000000	6.835099	-0.019521	NaN	0.000000	0.001763	0.001699	28.0804	0.045008	0.001930	23.3151	170.005	-161.956	0.022771	0.833841	-0.207051	-0.208374	-0.019521	23.3151	-0.206423	-167.782	0.000116	NaN
691	1.000000	0.843153	7.37181e+06	-42539.1	1005.82	-29782.4	0.000000	0.000000	6.843088	-0.001752	NaN	0.000000	0.001758	0.001703	28.0802	0.094412	0.001934	48.8097	59.028	-166.325	0.020254	0.841835	-0.199063	-0.200380	-0.001752	48.8097	-0.199036	-127.012	1.379539E-5	NaN
691	1.000000	0.851138	7.37181e+06	-42539.1	1005.82	-29782.4	0.000000	0.000000	6.851075	0.037855	NaN	0.000000	0.001735	0.001698	28.0803	0.088218	0.001943	45.4144	-169.228	-165.608	0.003522	0.849861	-0.191077	-0.192354	0.037855	45.4144	-0.191702	-96.0342	-0.000394	NaN
691	1.000000	0.859156	7.37181e+06	-42539.1	1005.82	-29782.4	0.000000	0.000000	6.859092	0.021302	NaN	0.000000	0.001781	0.001675	28.0803	0.067204	0.002033	33.0511	-72.0587	-164.711	0.012336	0.857858	-0.183060	-0.184358	0.021302	33.0511	-0.183543	-70.0724	-0.000304	NaN
691	1.000000	0.867155	7.37181e+06	-42539.1	1005.82	-29782.4	0.000000	0.000000	6.867090	-0.021492	NaN	0.000000	0.001747	0.001711	28.0804	0.102982	0.002041	50.4619	20.1459	-169.166	0.021649	0.865852	-0.175060	-0.176364	-0.021492	50.4619	-0.174741	-49.6046	0.000433	NaN
691	1.000000	0.875153	7.37181e+06	-42539.1	1005.82	-29782.4	0.000000	0.000000	6.875089	0.009477	NaN	0.000000	0.001730	0.001749	28.0808	0.014484	0.001942	7.460313	79.7241	-169.883	-0.028444	0.873838	-0.167062	-0.168378	0.009477	7.460313	-0.168015	-37.9377	-0.000250	NaN
691	1.000000	0.883194	7.37181e+06	-42539.1	1005.82	-29782.4	0.000000	0.000000	6.883133	0.075128	NaN	0.000000	0.001791	0.001736	28.0799	0.079073	0.002017	39.1991	149.002	-164.756	0.100562	0.881828	-0.159021	-0.160388	0.075128	39.1991	-0.160459	-27.9341	-0.002689	NaN
691	1.000000	0.891160	7.37181e+06	-42539.1	1005.82	-29782.4	0.000000	0.000000	6.891094	-0.044479	NaN	0.000000	0.001737	0.001729	28.0802	0.163277	0.001942	84.0774	-104.121	-163.623	0.050613	0.889864	-0.151055	-0.152352	-0.044479	84.0774	-0.150658	-18.621	0.002389	NaN
691	1.000000	0.899173	7.37181e+06	-42539.1	1005.82	-29782.4	0.000000	0.000000	6.899108	-0.017038	NaN	0.000000	0.001746	0.001760	28.0802	0.081842	0.001914	42.7634	106.252	-163.385	-0.020773	0.897866	-0.143043	-0.144349	-0.017038	42.7634	-0.142744	-13.3135	0.001280	NaN
691	1.000000	0.907202	7.37181e+06	-42539.1	1005.82	-29782.4	0.000000	0.000000	6.907137	-0.010726	NaN	0.000000	0.001754	0.001680	28.0802	0.052029	0.001796	28.9653	-5.476434	-167.693	0.014881	0.905859	-0.135014	-0.136357	-0.010726	28.9653	-0.134736	-9.402580	0.001141	NaN
691	1.000000	0.915173	7.37181e+06	-42539.1	1005.82	-29782.4	0.000000	0.000000	6.915109	0.028614	NaN	0.000000	0.001740	0.001712	28.0804	0.074548	0.002004	37.2046	131.535	-168.418	0.029477	0.913895	-0.127043	-0.128321	0.028614	37.2046	-0.127620	-6.848180	-0.004178	NaN
691	1.000000	0.923158	7.37181e+06	-42539.1	1005.82	-29782.4	0.000000	0.000000	6.923093	-0.013556	NaN	0.000000	0.001707	0.001730	28.0802	0.048378	0.001968	24.5817	-53.1764	-169.298	-0.038921	0.921830	-0.119057	-0.120385	-0.013556	24.5817	-0.118643	-4.535524	0.002989	NaN
691	1.000000	0.931192	7.37181e+06	-42539.1	1005.82	-29782.4	0.000000	0.000000	6.931125	-0.042686	NaN	0.000000	0.001713	0.001718	28.0806	0.058634	0.001868	31.3868	-107.928	-163.724	0.001393	0.929877	-0.111024	-0.112339	-0.042686	31.3868	-0.110004	-3.005761	0.014201	NaN
691	1.000000	0.939176	7.37181e+06	-42539.1	1005.82	-29782.4	0.000000	0.000000	6.939112	0.022047	NaN	0.000000	0.001716	0.001737	28.0802	0.039401	0.002050	19.2243	-67.6367	-168.591	0.008470	0.937857	-0.103040	-0.104358	0.022047	19.2243	-0.103900	-2.225052	-0.009909	NaN
691	1.000000	0.947143	7.37181e+06	-42539.1	1005.82	-29782.4	0.000000	0.000000	6.947080	0.027287	NaN	0.000000	0.001698	0.001751	28.08	0.056972	0.002044	27.8711	-112.06	-167.852	0.019354	0.945853	-0.095072	-0.096362	0.027287	27.8711	-0.095807	-1.471476	-0.018544	NaN
691	1.000000	0.955194	7.37181e+06	-42539.1	1005.82	-29782.4	0.000000	0.000000	6.955131	0.022431	NaN	0.000000	0.001746	0.001723	28.0814	0.068555	0.002019	33.9564	81.1465	-164.256	0.033720	0.953875	-0.087021	-0.088341	0.022431	33.9564	-0.087517	-0.944286	-0.023754	NaN
691	1.000000	0.963183	7.37181e+06	-42539.1	1005.82	-29782.4	0.000000	0.000000	6.963119	0.005611	NaN	0.000000	0.001784	0.001725	28.0813	0.070987	0.002056	34.5262	-133.676	-165.425	-0.036667	0.961934	-0.079032	-0.080282	0.005611	34.5262	-0.079154	-0.589487	-0.009518	NaN
691	1.000000	0.971170	7.37181e+06	-42539.1	1005.82	-29782.4	0.000000	0.000000	6.971106	0.017193	NaN	0.000000	0.001746	0.001740	28.0816	0.078134	0.002015	38.7698	-138.453	-164.724	0.010433	0.969877	-0.071046	-0.072339	0.017193	38.7698	-0.071378	-0.371228	-0.046315	NaN
691	1.000000	0.979186	7.37181e+06	-42539.1	1005.82	-29782.4	0.000000	0.000000	6.979118	-0.078657	NaN	0.000000	0.001693	0.001781	28.0811	0.039543	0.002052	19.2738	-42.9622	-164.551	-0.013749	0.977898	-0.063030	-0.064318	-0.078657	19.2738	-0.059969	-0.179724	0.437658	NaN
691	1.000000	0.987187	7.37181e+06	-42539.1	1005.82	-29782.4	0.000000	0.000000	6.987126	0.071874	NaN	0.000000	0.001716	0.001710	28.0815	0.074598	0.002071	36.0163	26.268	-164.818	0.090139	0.985911	-0.055028	-0.056305	0.071874	36.0163	-0.056525	-0.142800	-0.503319	NaN
691	1.000000	0.995206	7.37181e+06	-42539.1	1005.82	-29782.4	0.000000	0.000000	6.995143	0.028769	NaN	0.000000	0.001714	0.001694	28.0814	0.092140	0.002061	44.7068	-91.6346	-168.148	0.024969	0.993890	-0.047010	-0.048325	0.028769	44.7068	-0.047492	-0.076576	-0.375691	NaN
691	1.000000	1.003242	7.37181e+06	-42539.1	1005.82	-29782.4	0.000000	0.000000	7.003176	-0.031523	NaN	0.000000	0.001727	0.001740	28.0812	0.035730	0.002056	17.3762	-78.3737	-165.556	-0.073488	1.001947	-0.038974	-0.040269	-0.031523	17.3762	-0.037613	-0.038303	0.822992	NaN
691	1.000000	1.011209	7.37181e+06	-42539.1	1005.82	-29782.4	0.000000	0.000000	7.011146	0.051308	NaN	0.000000	0.001727	0.001751	28.0815	0.007970	0.002021	3.944370	-115.751	-167.117	0.038593	1.009882	-0.031007	-0.032333	0.051308	3.944370	-0.040763	-0.047703	-1.075572	NaN
691	1.000000	1.019188	7.37181e+06	-42539.1	1005.82	-29782.4	0.000000	0.000000	7.019121	-0.060318	NaN	0.000000	0.001712	0.001746	28.0813	0.063343	0.002007	31.5555	-66.9349	-167.124	-0.110212	1.017875	-0.023028	-0.024340	-0.060318	31.5555	-0.021594	-0.013789	4.374258	NaN
691	1.000000	1.027220	7.37181e+06	-42539.1	1005.82	-29782.4	0.000000	0.000000	7.027155	-0.022391	NaN	0.000000	0.001695	0.001731	28.0812	0.029534	0.001902	15.5282	-136.602	-164.21	-0.021271	1.025860	-0.014995	-0.016355	-0.022391	15.5282	-0.013914	-0.008633	2.593655	NaN
691	1.000000	1.035214	7.37181e+06	-42539.1	1005.82	-29782.4	0.000000	0.000000	7.035148	-0.039557	NaN	0.000000	0.001731	0.001802	28.0812	0.057489	0.001899	30.2712	-12.3844	-166.631	-0.017546	1.033848	-0.007002	-0.008367	-0.039557	30.2712	-0.006022	-0.004049	9.768431	NaN
691	1.000000	1.043218	7.37181e+06	-42539.1	1005.82	-29782.4	0.000000	0.000000	7.043316	3.941161	NaN	0.000000	0.001704	0.001761	28.0812	4.987067	0.001854	2689.94	17.1218	-173.868	3.288548	1.041910	0.001003	-0.000305	3.941161	2689.94	-9.601553E-5	-7.162033E-5	-55028.5	NaN
691	2.000000	1.048797	7.37181e+06	-42539.1	1005.82	-29782.4	0.000000	0.000000	7.049119	9.409015	NaN	0.000000	0.001696	0.001768	28.0814	9.369433	0.001675	5594.62	8.856007	-175.316	9.042122	1.048437	0.006581	0.006221	9.409015	5594.62	0.005320	0.004427	2125.16	76818.8
691	2.000000	1.050764	7.37181e+06	-42539.1	1005.82	-29782.4	0.000000	0.000000	7.051122	10.2707	NaN	0.000000	0.001692	0.001777	28.0813	10.9778	0.001743	6297.21	5.202574	-170.372	10.5545	1.050453	0.008548	0.008238	10.2707	6297.21	0.007325	0.006357	1615.52	72157.1
691	2.000000	1.052748	7.37181e+06	-42539.1	1005.82	-29782.4	0.000000	0.000000	7.053270	14.2711	NaN	0.000000	0.001712	0.001732	28.0813	13.5817	0.001757	7729.88	10.496	-177.828	13.9815	1.052406	0.010532	0.010190	14.2711	7729.88	0.009148	0.008249	1729.94	77755.8
691	2.000000	1.054699	7.37181e+06	-42539.1	1005.82	-29782.4	0.000000	0.000000	7.055297	16.1249	NaN	0.000000	0.001714	0.001683	28.0812	15.6297	0.001781	8774.97	7.324358	-177.676	15.1693	1.054405	0.012483	0.012189	16.1249	8774.97	0.011105	0.010436	1545.17	78479.9
691	2.000000	1.056730	7.37181e+06	-42539.1	1005.82	-29782.4	0.000000	0.000000	7.057527	20.9697	NaN	0.000000	0.001702	0.001712	28.0813	17.5978	0.001814	9699.78	5.120220	-173.845	22.4148	1.056388	0.014514	0.014173	20.9697	9699.78	0.012893	0.012577	1667.29	79021.3
691	2.000000	1.058732	7.37181e+06	-42539.1	1005.82	-29782.4	0.000000	0.000000	7.059688	24.8389	NaN	0.000000	0.001732	0.001694	28.0805	19.1287	0.001665	11492	8.342857	-177.646	26.0497	1.058258	0.016516	0.016042	24.8389	11492	0.014895	0.015145	1640.02	85315.1
691	2.000000	1.060671	7.37181e+06	-42539.1	1005.82	-29782.4	0.000000	0.000000	7.061821	29.5312	NaN	0.000000	0.001679	0.001723	28.08	22.1193	0.001792	12341.3	8.447564	178.424	29.034	1.060378	0.018456	0.018163	29.5312	12341.3	0.016661	0.017565	1681.28	85077.4
691	2.000000	1.062719	7.37181e+06	-42539.1	1005.82	-29782.4	0.000000	0.000000	7.063975	32.1137	NaN	0.000000	0.001695	0.001734	28.0803	23.3282	0.001617	14428.6	2.901668	-176.673	31.1723	1.062476	0.020504	0.020261	32.1137	14428.6	0.018835	0.020744	1548.11	91527.9
691	2.000000	1.064751	7.37181e+06	-42539.1	1005.82	-29782.4	0.000000	0.000000	7.066112	34.678	NaN	0.000000	0.001699	0.001760	28.08	25.3244	0.001739	14566.3	6.730441	-179.722	38.0088	1.064421	0.022536	0.022205	34.678	14566.3	0.020750	0.023735	1461.07	86383.4
691	2.000000	1.066675	7.37181e+06	-42539.1	1005.82	-29782.4	0.000000	0.000000	7.068414	43.8994	NaN	0.000000	0.001694	0.001733	28.0802	27.9471	0.001821	15346.1	5.773994	179.474	43.4626	1.066365	0.024459	0.024149	43.8994	15346.1	0.022314	0.026309	1668.62	86441
691	2.000000	1.068680	7.37181e+06	-42539.1	1005.82	-29782.4	0.000000	0.000000	7.070531	46.6154	NaN	0.000000	0.001722	0.001724	28.081	28.1972	0.001623	17372.2	0.507590	-175.865	46.1385	1.068396	0.026465	0.026180	46.6154	17372.2	0.024452	0.030026	1552.49	91596
691	2.000000	1.070699	7.37181e+06	-42539.1	1005.82	-29782.4	0.000000	0.000000	7.072697	50.1862	NaN	0.000000	0.001693	0.001711	28.0801	31.7091	0.001796	17650.7	8.729953	175.579	50.937	1.070372	0.028483	0.028156	50.1862	17650.7	0.026351	0.033519	1497.26	88083
691	2.000000	1.072670	7.37181e+06	-42539.1	1005.82	-29782.4	0.000000	0.000000	7.075085	60.3424	NaN	0.000000	0.001683	0.001709	28.0803	32.7812	0.001807	18136.9	5.567572	179.275	58.9925	1.072298	0.030454	0.030082	60.3424	18136.9	0.027959	0.036619	1647.85	86593.1
691	2.000000	1.074644	7.37181e+06	-42539.1	1005.82	-29782.4	0.000000	0.000000	7.077278	65.6619	NaN	0.000000	0.001732	0.001672	28.0801	34.3215	0.001791	19167.4	2.363599	-179.232	64.5032	1.074319	0.032429	0.032103	65.6619	19167.4	0.029859	0.040453	1623.18	87068.6
691	2.000000	1.076722	7.37181e+06	-42539.1	1005.82	-29782.4	0.000000	0.000000	7.079493	68.9867	NaN	0.000000	0.001753	0.001720	28.0802	36.912	0.001847	19985.8	5.149050	179.97	72.4084	1.076314	0.034507	0.034098	68.9867	19985.8	0.031918	0.044813	1539.45	86257.2
691	2.000000	1.078584	7.37181e+06	-42539.1	1005.82	-29782.4	0.000000	0.000000	7.081838	80.7482	NaN	0.000000	0.001717	0.001699	28.0804	38.1191	0.001761	21647.3	3.679528	177.88	77.8815	1.078346	0.036369	0.036131	80.7482	21647.3	0.033571	0.048471	1665.9	89833
691	2.000000	1.080640	7.37181e+06	-42539.1	1005.82	-29782.4	0.000000	0.000000	7.084033	84.1142	NaN	0.000000	0.001708	0.001674	28.0801	40.6245	0.001818	22342.4	3.634142	179.594	84.5375	1.080385	0.038424	0.038169	84.1142	22342.4	0.035601	0.053154	1582.46	88538.9
691	2.000000	1.082707	7.37181e+06	-42539.1	1005.82	-29782.4	0.000000	0.000000	7.086691	98.5011	NaN	0.000000	0.001701	0.001748	28.0801	43.3614	0.001874	23139	6.573039	176.324	98.4791	1.082250	0.040491	0.040034	98.5011	23139	0.037299	0.057233	1721.04	88367.7
691	2.000000	1.084640	7.37181e+06	-42539.1	1005.82	-29782.4	0.000000	0.000000	7.088923	105.776	NaN	0.000000	0.001702	0.001743	28.0805	44.7815	0.001791	25010.1	7.862194	174.177	105.696	1.084271	0.042424	0.042055	105.776	25010.1	0.039252	0.062110	1703.04	91686.9
691	2.000000	1.086649	7.37181e+06	-42539.1	1005.82	-29782.4	0.000000	0.000000	7.091143	110.91	NaN	0.000000	0.001702	0.001742	28.0804	47.0254	0.001749	26880.5	0.635571	179.603	109.217	1.086364	0.044434	0.044148	110.91	26880.5	0.041339	0.067535	1642.24	94502.9
691	2.000000	1.088595	7.37181e+06	-42539.1	1005.82	-29782.4	0.000000	0.000000	7.093553	122.212	NaN	0.000000	0.001745	0.001747	28.0804	48.9788	0.001756	27895.8	5.691684	174.244	120.007	1.088346	0.046379	0.046131	122.212	27895.8	0.043093	0.072267	1691.11	94807.2
691	2.000000	1.090667	7.37181e+06	-42539.1	1005.82	-29782.4	0.000000	0.000000	7.095834	127.284	NaN	0.000000	0.001675	0.001770	28.0806	52.4958	0.001850	28370.3	6.040857	173.362	129.488	1.090338	0.048451	0.048122	127.284	28370.3	0.045086	0.077832	1635.35	92908.9
691	2.000000	1.092593	7.37181e+06	-42539.1	1005.82	-29782.4	0.000000	0.000000	7.098386	142.503	NaN	0.000000	0.001715	0.001762	28.0814	54.094	0.001768	30589.5	7.032501	173.079	140.289	1.092266	0.050378	0.050050	142.503	30589.5	0.046884	0.083026	1716.38	96992.7
691	2.000000	1.094550	7.37181e+06	-42539.1	1005.82	-29782.4	0.000000	0.000000	7.100764	152.755	NaN	0.000000	0.001714	0.001750	28.0816	55.2881	0.001806	30613.1	4.945403	174.198	148.409	1.094265	0.052335	0.052049	152.755	30613.1	0.048592	0.088112	1733.65	94224.4
691	2.000000	1.096547	7.37182e+06	-42539.1	1005.82	-29782.4	0.000000	0.000000	7.102995	158.466	NaN	0.000000	0.001719	0.001762	28.0815	56.6936	0.001793	31613.8	1.036834	177.876	153.261	1.096324	0.054331	0.054108	158.466	31613.8	0.050572	0.094188	1682.44	94113.6
691	2.000000	1.098611	7.37182e+06	-42539.1	1005.82	-29782.4	0.000000	0.000000	7.105568	170.837	NaN	0.000000	0.001697	0.001783	28.0817	57.6073	0.001739	33130.1	6.620881	173.078	169.57	1.098205	0.056396	0.055989	170.837	33130.1	0.052528	0.100388	1701.76	95533.4
691	2.000000	1.100645	7.37182e+06	-42539.1	1005.82	-29782.4	0.000000	0.000000	7.107738	174.147	NaN	0.000000	0.001709	0.001730	28.0814	60.7902	0.001722	35298.4	6.731332	171.524	177.3	1.100387	0.058430	0.058171	174.147	35298.4	0.054730	0.107591	1618.6	98319.7
691	2.000000	1.102574	7.37182e+06	-42539.1	1005.82	-29782.4	0.000000	0.000000	7.110235	187.964	NaN	0.000000	0.001720	0.001780	28.0815	62.2335	0.001765	35257.5	5.538127	172.4	183.616	1.102279	0.060358	0.060063	187.964	35257.5	0.056360	0.113080	1662.21	95792.4
691	2.000000	1.104728	7.37182e+06	-42539.1	1005.82	-29782.4	0.000000	0.000000	7.112533	191.473	NaN	0.000000	0.001693	0.001785	28.0817	64.1322	0.001761	36411.9	4.559392	174.282	197.129	1.104397	0.062512	0.062182	191.473	36411.9	0.058568	0.120725	1586.02	95745.3
691	2.000000	1.106678	7.37182e+06	-42539.1	1005.82	-29782.4	0.000000	0.000000	7.115030	204.781	NaN	0.000000	0.001701	0.001766	28.0814	66.8904	0.001772	37741	2.845770	175.034	208.919	1.106298	0.064462	0.064082	204.781	37741	0.060393	0.127221	1609.65	96673.5
691	2.000000	1.108536	7.37182e+06	-42539.1	1005.82	-29782.4	0.000000	0.000000	7.117587	221.782	NaN	0.000000	0.001699	0.001703	28.0818	67.9637	0.001749	38850	3.314788	174.442	219.495	1.108266	0.066320	0.066050	221.782	38850	0.062039	0.133220	1664.78	97247.7
691	2.000000	1.110504	7.37182e+06	-42539.1	1005.82	-29782.4	0.000000	0.000000	7.120184	237.087	NaN	0.000000	0.001721	0.001710	28.0816	71.9476	0.001936	37161.6	8.068547	169.726	232.05	1.110193	0.068288	0.067978	237.087	37161.6	0.063503	0.138670	1709.72	91175.2
691	2.000000	1.112620	7.37182e+06	-42539.1	1005.82	-29782.4	0.000000	0.000000	7.122519	242.415	NaN	0.000000	0.001733	0.001686	28.0819	73.6581	0.001945	37874	5.645622	172.488	242.336	1.112233	0.070404	0.070017	242.415	37874	0.065604	0.146667	1652.83	90354.1
691	2.000000	1.114578	7.37182e+06	-42539.1	1005.82	-29782.4	0.000000	0.000000	7.124834	251.091	NaN	0.000000	0.001709	0.001738	28.0819	74.2405	0.001802	41202.8	7.330164	169.363	248.685	1.114262	0.072363	0.072047	251.091	41202.8	0.067792	0.155223	1617.61	95548.2
691	2.000000	1.116609	7.37182e+06	-42539.1	1005.82	-29782.4	0.000000	0.000000	7.127379	263.613	NaN	0.000000	0.001689	0.001738	28.0815	77.797	0.001936	40185.4	6.968642	170.376	264.202	1.116259	0.074394	0.074044	263.613	40185.4	0.069474	0.161954	1627.71	91231.8
691	2.000000	1.118711	7.37182e+06	-42539.1	1005.82	-29782.4	0.000000	0.000000	7.129776	270.783	NaN	0.000000	0.001699	0.001752	28.0817	78.4689	0.001907	41151.7	6.879772	170.784	279.055	1.118301	0.076496	0.076085	270.783	41151.7	0.071560	0.170493	1588.23	91055.7
691	2.000000	1.120559	7.37182e+06	-42539.1	1005.82	-29782.4	0.000000	0.000000	7.132295	287.109	NaN	0.000000	0.001748	0.001723	28.0816	80.738	0.001906	42355.6	2.789823	173.806	282.919	1.120332	0.078343	0.078116	287.109	42355.6	0.073259	0.177599	1616.61	91825.6
691	2.000000	1.122636	7.37182e+06	-42539.1	1005.82	-29782.4	0.000000	0.000000	7.135037	303.303	NaN	0.000000	0.001696	0.001692	28.0817	82.4243	0.001836	44901.2	8.053829	168.51	302.228	1.122315	0.080420	0.080100	303.303	44901.2	0.075354	0.186548	1625.87	94980.9
691	2.000000	1.124687	7.37182e+06	-42539.1	1005.82	-29782.4	0.000000	0.000000	7.137439	311.832	NaN	0.000000	0.001713	0.001742	28.0817	82.0507	0.001628	50412	3.540336	172.403	317.774	1.124310	0.082472	0.082094	311.832	50412	0.077832	0.197400	1579.7	103665
691	2.000000	1.126561	7.37182e+06	-42539.1	1005.82	-29782.4	0.000000	0.000000	7.139912	326.395	NaN	0.000000	0.001691	0.001763	28.0803	86.2497	0.001792	48132.8	5.822032	170.181	324.171	1.126272	0.084346	0.084056	326.395	48132.8	0.079260	0.203783	1601.68	97416.2
691	2.000000	1.128553	7.37182e+06	-42539.1	1005.82	-29782.4	0.000000	0.000000	7.142483	340.516	NaN	0.000000	0.001731	0.001715	28.0805	86.4714	0.001759	49159.2	3.675650	172.624	338.684	1.128229	0.086337	0.086014	340.516	49159.2	0.081142	0.212341	1603.63	97467.6
691	2.000000	1.130576	7.37182e+06	-42539.1	1005.82	-29782.4	0.000000	0.000000	7.145481	364.241	NaN	0.000000	0.001709	0.001736	28.0804	88.273	0.001767	49942.3	3.292292	172.685	363.235	1.130134	0.088360	0.087919	364.241	49942.3	0.082890	0.220440	1652.34	97184.5
691	2.000000	1.132702	7.37182e+06	-42539.1	1005.82	-29782.4	0.000000	0.000000	7.147963	372.889	NaN	0.000000	0.001740	0.001683	28.0806	91.3662	0.001869	48891.3	6.332368	169.606	376.73	1.132341	0.090487	0.090125	372.889	48891.3	0.084766	0.229289	1626.28	93285.4
691	2.000000	1.134544	7.37182e+06	-42539.1	1005.82	-29782.4	0.000000	0.000000	7.150629	392.932	NaN	0.000000	0.001780	0.001688	28.0803	91.0358	0.001763	51625.8	3.549439	171.836	389.595	1.134213	0.092328	0.091998	392.932	51625.8	0.086620	0.238189	1649.66	96645
691	2.000000	1.136494	7.37182e+06	-42539.1	1005.82	-29782.4	0.000000	0.000000	7.153297	410.405	NaN	0.000000	0.001713	0.001710	28.0803	93.4478	0.001708	54698.8	5.493598	169.775	405.933	1.136280	0.094279	0.094064	410.405	54698.8	0.088652	0.248128	1654	100326
691	2.000000	1.138533	7.37182e+06	-42539.1	1005.82	-29782.4	0.000000	0.000000	7.155887	423.82	NaN	0.000000	0.001729	0.001713	28.0806	94.0915	0.001761	53440.8	3.966869	171.655	421.38	1.138152	0.096317	0.095937	423.82	53440.8	0.090369	0.256678	1651.17	96372.1
691	2.000000	1.140449	7.37182e+06	-42539.1	1005.82	-29782.4	0.000000	0.000000	7.158449	439.525	NaN	0.000000	0.001768	0.001711	28.0803	97.0646	0.001673	58025	5.292157	169.297	431.749	1.140171	0.098234	0.097955	439.525	58025	0.092552	0.267742	1641.6	102454
691	2.000000	1.142622	7.37182e+06	-42539.1	1005.82	-29782.4	0.000000	0.000000	7.161057	450.119	NaN	0.000000	0.001784	0.001714	28.0808	100.665	0.001773	56781.7	5.414939	169.561	450.091	1.142280	0.100406	0.100064	450.119	56781.7	0.094461	0.277591	1621.52	98464.4
691	2.000000	1.144591	7.37182e+06	-42539.1	1005.82	-29782.4	0.000000	0.000000	7.163654	465.4	NaN	0.000000	0.001748	0.001729	28.0803	102.336	0.001791	57133.9	1.234594	173.806	465.713	1.144276	0.102375	0.102060	465.4	57133.9	0.096266	0.287060	1621.27	97427.3
691	2.000000	1.146583	7.37182e+06	-42539.1	1005.82	-29782.4	0.000000	0.000000	7.166357	482.685	NaN	0.000000	0.001722	0.001715	28.0803	104.163	0.001831	56878.6	0.963828	173.764	481.367	1.146289	0.104367	0.104073	482.685	56878.6	0.098003	0.296311	1628.98	95465.9