File: remote_trans/data/nanoindenter/0828-1/data/Data_2025-08-06,11h17m57s/2025-07-22_16-23-58_1_1017.txt
2025-07-22, 16:23:58, 1
Index	Phase	Displacement	Time	Pos X	Pos Y	Pos Z	Rot A	Rot B	Piezo Z	Force A	Force B	Gripper	Voltage A	Voltage B	Temperature	Amplitude force	Amplitude pos	Stiffness	Phase shift	Phase excitation	Force A raw	Displacement raw	HMax	HMax raw	Real Force	Real Stiffness	Contact Depth	Area	Hardness	Reduced Mod.
[#]	[#]	[um]	[s]	[um]	[um]	[um]	[m°]	[m°]	[um]	[uN]	[uN]	[V]	[V]	[V]	[°C]	[uN]	[um]	[N/m]	[°]	[°]	[uN]	[um]	[um]	[um]	[uN]	[N/m]	[um]	[um^2]	[MPa]	[MPa]
1017	1.000000	0.002585	7.375e+06	-50989.1	1055.82	-29753.9	0.000000	0.000000	6.002778	0.016489	NaN	0.000000	0.001577	0.001675	28.0829	0.077348	0.000896	86.3088	150.319	-171.064	-0.005869	0.001369	-0.969394	-0.970609	0.016489	86.3088	-0.969537	-8.819086E+12	-1.869663E-15	NaN
1017	1.000000	0.010561	7.375e+06	-50989.1	1055.82	-29753.9	0.000000	0.000000	6.010752	-0.042579	NaN	0.000000	0.001558	0.001672	28.0828	0.113104	0.000965	117.234	-109.844	-162.164	0.056610	0.009232	-0.961417	-0.962747	-0.042579	117.234	-0.961145	-6.796816E+12	6.264511E-15	NaN
1017	1.000000	0.018565	7.375e+06	-50989.1	1055.82	-29753.9	0.000000	0.000000	6.018758	0.024381	NaN	0.000000	0.001568	0.001735	28.0827	0.108315	0.001742	62.1691	-31.4411	-164.904	0.037023	0.017277	-0.953414	-0.954702	0.024381	62.1691	-0.953708	-5.395495E+12	-4.518778E-15	NaN
1017	1.000000	0.026560	7.375e+06	-50989.1	1055.82	-29753.9	0.000000	0.000000	6.026750	-0.052792	NaN	0.000000	0.001559	0.001719	28.0828	0.016599	0.001835	9.043459	-104.582	-163.363	-0.039777	0.025276	-0.945419	-0.946702	-0.052792	9.043459	-0.941041	-3.640643E+12	1.450061E-14	NaN
1017	1.000000	0.034544	7.375e+06	-50989.1	1055.82	-29753.9	0.000000	0.000000	6.034736	0.020054	NaN	0.000000	0.001561	0.001680	28.0827	0.061447	0.001928	31.8725	126.864	-167.536	-0.032448	0.033231	-0.937435	-0.938748	0.020054	31.8725	-0.937907	-3.302943E+12	-6.071419E-15	NaN
1017	1.000000	0.042546	7.375e+06	-50989.1	1055.82	-29753.9	0.000000	0.000000	6.042738	-0.004665	NaN	0.000000	0.001572	0.001717	28.0829	0.051132	0.002126	24.0546	-84.2848	-166.55	0.002862	0.041251	-0.929433	-0.930728	-0.004665	24.0546	-0.929287	-2.526827E+12	1.846363E-15	NaN
1017	1.000000	0.050548	7.375e+06	-50989.1	1055.82	-29753.9	0.000000	0.000000	6.050739	-0.043754	NaN	0.000000	0.001542	0.001724	28.0827	0.027670	0.001955	14.1504	-36.2493	-166.754	-0.101202	0.049198	-0.921430	-0.922781	-0.043754	14.1504	-0.919111	-1.841655E+12	2.375797E-14	NaN
1017	1.000000	0.058565	7.375e+06	-50989.1	1055.82	-29753.9	0.000000	0.000000	6.058758	0.003188	NaN	0.000000	0.001546	0.001666	28.0826	0.081968	0.002158	37.9878	137.061	-165.363	-0.075966	0.057238	-0.913413	-0.914740	0.003188	37.9878	-0.913476	-1.545660E+12	-2.062526E-15	NaN
1017	1.000000	0.066549	7.375e+06	-50989.1	1055.82	-29753.9	0.000000	0.000000	6.066740	-0.020235	NaN	0.000000	0.001537	0.001692	28.0828	0.130623	0.001972	66.2471	-110.108	-163.992	-0.019106	0.065221	-0.905430	-0.906758	-0.020235	66.2471	-0.905201	-1.194910E+12	1.693397E-14	NaN
1017	1.000000	0.074560	7.375e+06	-50989.1	1055.82	-29753.9	0.000000	0.000000	6.074752	-0.004222	NaN	0.000000	0.001551	0.001662	28.0825	0.005890	0.002027	2.905408	94.0079	-165.703	0.073767	0.073210	-0.897419	-0.898769	-0.004222	2.905408	-0.896329	-9.066914E+11	4.656981E-15	NaN
1017	1.000000	0.082569	7.375e+06	-50989.1	1055.82	-29753.9	0.000000	0.000000	6.082761	-0.007978	NaN	0.000000	0.001550	0.001713	28.0827	0.023443	0.001885	12.437	38.9333	-166.89	-0.055688	0.081261	-0.889410	-0.890718	-0.007978	12.437	-0.888929	-7.201662E+11	1.107764E-14	NaN
1017	1.000000	0.090594	7.375e+06	-50989.1	1055.82	-29753.9	0.000000	0.000000	6.090788	0.063799	NaN	0.000000	0.001551	0.001688	28.0831	0.087666	0.001947	45.0185	-146.24	-167.762	0.040543	0.089262	-0.881385	-0.882716	0.063799	45.0185	-0.882448	-5.885882E+11	-1.083928E-13	NaN
1017	1.000000	0.098591	7.375e+06	-50989.1	1055.82	-29753.9	0.000000	0.000000	6.098782	-0.024823	NaN	0.000000	0.001527	0.001704	28.084	0.057252	0.002079	27.5422	-64.8597	-165.153	0.028557	0.097314	-0.873388	-0.874665	-0.024823	27.5422	-0.872712	-4.346401E+11	5.711239E-14	NaN
1017	1.000000	0.106570	7.375e+06	-50989.1	1055.82	-29753.9	0.000000	0.000000	6.106761	-0.019599	NaN	0.000000	0.001553	0.001701	28.0849	0.082608	0.001942	42.5333	-152.736	-165.984	0.007486	0.105259	-0.865409	-0.866719	-0.019599	42.5333	-0.865063	-3.424878E+11	5.722648E-14	NaN
1017	1.000000	0.114598	7.375e+06	-50989.1	1055.82	-29753.9	0.000000	0.000000	6.114790	0.001535	NaN	0.000000	0.001595	0.001708	28.0842	0.055744	0.001856	30.0373	96.4216	-168.581	-0.012513	0.113242	-0.857380	-0.858737	0.001535	30.0373	-0.857419	-2.698866E+11	-5.687146E-15	NaN
1017	1.000000	0.122586	7.375e+06	-50989.1	1055.82	-29753.9	0.000000	0.000000	6.122778	-0.004448	NaN	0.000000	0.001588	0.001713	28.0845	0.069182	0.002189	31.5979	-131.879	-161.836	0.033441	0.121253	-0.849393	-0.850726	-0.004448	31.5979	-0.849287	-2.094512E+11	2.123524E-14	NaN
1017	1.000000	0.130577	7.375e+06	-50989.1	1055.82	-29753.9	0.000000	0.000000	6.130769	-0.014913	NaN	0.000000	0.001551	0.001694	28.0843	0.122668	0.002082	58.921	-171.431	-167.339	-0.018961	0.129282	-0.841401	-0.842697	-0.014913	58.921	-0.841212	-1.628198E+11	9.159047E-14	NaN
1017	1.000000	0.138572	7.375e+06	-50989.1	1055.82	-29753.9	0.000000	0.000000	6.138762	-0.025290	NaN	0.000000	0.001542	0.001685	28.0842	0.079416	0.001963	40.4469	28.425	-163.175	0.032068	0.137298	-0.833407	-0.834681	-0.025290	40.4469	-0.832938	-1.257791E+11	2.010646E-13	NaN
1017	1.000000	0.146589	7.375e+06	-50989.1	1055.82	-29753.9	0.000000	0.000000	6.146782	0.018161	NaN	0.000000	0.001528	0.001727	28.0843	0.018096	0.002053	8.813404	-146.188	-165.499	0.093763	0.145299	-0.825390	-0.826680	0.018161	8.813404	-0.826935	-1.042894E+11	-1.741440E-13	NaN
1017	1.000000	0.154600	7.375e+06	-50989.1	1055.82	-29753.9	0.000000	0.000000	6.154792	0.002308	NaN	0.000000	0.001571	0.001719	28.0843	0.078087	0.002003	38.9821	11.2103	-164.407	0.108696	0.153242	-0.817379	-0.818736	0.002308	38.9821	-0.817423	-7.749355E+10	-2.977833E-14	NaN
1017	1.000000	0.162612	7.375e+06	-50989.1	1055.82	-29753.9	0.000000	0.000000	6.162804	-0.011913	NaN	0.000000	0.001549	0.001708	28.0846	0.047696	0.001954	24.4037	-151.456	-163.147	-0.015908	0.161294	-0.809366	-0.810685	-0.011913	24.4037	-0.809000	-5.956711E+10	1.999999E-13	NaN
1017	1.000000	0.170617	7.375e+06	-50989.1	1055.82	-29753.9	0.000000	0.000000	6.170808	-0.022609	NaN	0.000000	0.001551	0.001753	28.0842	0.022094	0.002000	11.0451	-36.1204	-166.738	-0.009348	0.169272	-0.801362	-0.802707	-0.022609	11.0451	-0.799827	-4.472129E+10	5.055496E-13	NaN
1017	1.000000	0.178597	7.375e+06	-50989.1	1055.82	-29753.9	0.000000	0.000000	6.178791	0.042466	NaN	0.000000	0.001544	0.001677	28.0842	0.058675	0.002054	28.5641	-84.2846	-166.464	0.071650	0.177279	-0.793381	-0.794700	0.042466	28.5641	-0.794496	-3.785687E+10	-1.121750E-12	NaN
1017	1.000000	0.186591	7.375e+06	-50989.1	1055.82	-29753.9	0.000000	0.000000	6.186780	-0.079952	NaN	0.000000	0.001587	0.001693	28.0843	0.034208	0.002112	16.1979	148.594	-164.766	-0.011763	0.185302	-0.785388	-0.786677	-0.079952	16.1979	-0.781686	-2.535938E+10	3.152747E-12	NaN
1017	1.000000	0.194611	7.375e+06	-50989.1	1055.82	-29753.9	0.000000	0.000000	6.194802	-0.023169	NaN	0.000000	0.001621	0.001700	28.0843	0.098485	0.001935	50.8858	79.729	-163.742	-0.039506	0.193267	-0.777367	-0.778711	-0.023169	50.8858	-0.777026	-2.191873E+10	1.057025E-12	NaN
1017	1.000000	0.202608	7.375e+06	-50989.1	1055.82	-29753.9	0.000000	0.000000	6.202799	-0.025912	NaN	0.000000	0.001629	0.001722	28.0845	0.068192	0.001976	34.5054	179.332	-168.934	-0.021282	0.201324	-0.769370	-0.770655	-0.025912	34.5054	-0.768807	-1.694681E+10	1.529040E-12	NaN
1017	1.000000	0.210634	7.375e+06	-50989.1	1055.82	-29753.9	0.000000	0.000000	6.210823	-0.057580	NaN	0.000000	0.001615	0.001702	28.0842	0.070228	0.001910	36.7743	-83.755	-163.101	-0.064355	0.209318	-0.761345	-0.762661	-0.057580	36.7743	-0.760171	-1.293085E+10	4.452913E-12	NaN
1017	1.000000	0.218618	7.375e+06	-50989.1	1055.82	-29753.9	0.000000	0.000000	6.218806	-0.087947	NaN	0.000000	0.001615	0.001720	28.0847	0.062512	0.001987	31.4644	-4.179674	-164.679	-0.041479	0.217300	-0.753361	-0.754678	-0.087947	31.4644	-0.751265	-9.782158E+9	8.990601E-12	NaN
1017	1.000000	0.226606	7.375e+06	-50989.1	1055.82	-29753.9	0.000000	0.000000	6.226797	-0.012150	NaN	0.000000	0.001627	0.001721	28.0839	0.027779	0.001883	14.7505	45.6075	-169.141	-0.063067	0.225269	-0.745373	-0.746710	-0.012150	14.7505	-0.744755	-7.976585E+9	1.523213E-12	NaN
1017	1.000000	0.234613	7.375e+06	-50989.1	1055.82	-29753.9	0.000000	0.000000	6.234804	-0.015813	NaN	0.000000	0.001619	0.001702	28.0829	0.041508	0.002099	19.7723	56.8031	-160.978	-0.050215	0.233332	-0.737366	-0.738647	-0.015813	19.7723	-0.736766	-6.208792E+9	2.546892E-12	NaN
1017	1.000000	0.242638	7.375e+06	-50989.1	1055.82	-29753.9	0.000000	0.000000	6.242829	-0.045148	NaN	0.000000	0.001596	0.001715	28.0829	0.085096	0.001935	43.9815	-160.208	-164.979	-0.103255	0.241327	-0.729340	-0.730651	-0.045148	43.9815	-0.728571	-4.800921E+9	9.404001E-12	NaN
1017	1.000000	0.250621	7.375e+06	-50989.1	1055.82	-29753.9	0.000000	0.000000	6.250813	-0.004203	NaN	0.000000	0.001614	0.001683	28.083	0.109344	0.002088	52.3694	-17.6087	-165.154	-0.011130	0.249307	-0.721358	-0.722672	-0.004203	52.3694	-0.721297	-3.820897E+9	1.100100E-12	NaN
1017	1.000000	0.258644	7.375e+06	-50989.1	1055.82	-29753.9	0.000000	0.000000	6.258836	-0.008162	NaN	0.000000	0.001592	0.001705	28.0833	0.113581	0.001932	58.7814	-77.5346	-168.559	-0.101817	0.257344	-0.713334	-0.714635	-0.008162	58.7814	-0.713230	-2.965703E+9	2.752040E-12	NaN
1017	1.000000	0.266620	7.375e+06	-50989.1	1055.82	-29753.9	0.000000	0.000000	6.266808	-0.103766	NaN	0.000000	0.001612	0.001688	28.0831	0.082217	0.001964	41.8684	103.789	-162.895	-0.085801	0.265318	-0.705359	-0.706660	-0.103766	41.8684	-0.703500	-2.184357E+9	4.750399E-11	NaN
1017	1.000000	0.274637	7.375e+06	-50989.1	1055.82	-29753.9	0.000000	0.000000	6.274830	0.014327	NaN	0.000000	0.001505	0.001696	28.0832	0.051296	0.001958	26.2046	-160.154	-165.547	0.002529	0.273327	-0.697341	-0.698652	0.014327	26.2046	-0.697752	-1.823152E+9	-7.858223E-12	NaN
1017	1.000000	0.282624	7.375e+06	-50989.1	1055.82	-29753.9	0.000000	0.000000	6.282814	-0.044908	NaN	0.000000	0.001529	0.001714	28.083	0.063393	0.002026	31.2841	-10.4169	-164.785	-0.018375	0.281319	-0.689355	-0.690660	-0.044908	31.2841	-0.688278	-1.353264E+9	3.318499E-11	NaN
1017	1.000000	0.290658	7.375e+06	-50989.1	1055.82	-29753.9	0.000000	0.000000	6.290852	0.041724	NaN	0.000000	0.001552	0.001707	28.0829	0.048893	0.002003	24.4147	-75.8846	-165.039	0.005892	0.289306	-0.681321	-0.682672	0.041724	24.4147	-0.682603	-1.131870E+9	-3.686254E-11	NaN
1017	1.000000	0.298650	7.375e+06	-50989.1	1055.82	-29753.9	0.000000	0.000000	6.298840	-0.048188	NaN	0.000000	0.001542	0.001667	28.0827	0.018234	0.002048	8.902883	84.1285	-161.742	-0.030387	0.297332	-0.673329	-0.674647	-0.048188	8.902883	-0.669269	-7.436860E+8	6.479603E-11	NaN
1017	1.000000	0.306682	7.375e+06	-50989.1	1055.82	-29753.9	0.000000	0.000000	6.306876	0.036718	NaN	0.000000	0.001532	0.001706	28.0828	0.132374	0.001985	66.6946	-131.476	-166.926	0.040427	0.305356	-0.665297	-0.666623	0.036718	66.6946	-0.665710	-6.647527E+8	-5.523562E-11	NaN
1017	1.000000	0.314669	7.375e+06	-50989.1	1055.82	-29753.9	0.000000	0.000000	6.314861	0.004736	NaN	0.000000	0.001520	0.001684	28.083	0.039340	0.001934	20.3411	-55.7391	-163.434	-0.031978	0.313350	-0.657310	-0.658629	0.004736	20.3411	-0.657485	-5.128724E+8	-9.233619E-12	NaN
1017	1.000000	0.322686	7.375e+06	-50989.1	1055.82	-29753.9	0.000000	0.000000	6.322878	-0.002290	NaN	0.000000	0.001609	0.001704	28.0827	0.036372	0.002004	18.1522	-62.3447	-163.911	-0.030666	0.321375	-0.649293	-0.650604	-0.002290	18.1522	-0.649198	-3.948600E+8	5.800614E-12	NaN
1017	1.000000	0.330676	7.375e+06	-50989.1	1055.82	-29753.9	0.000000	0.000000	6.330870	0.028714	NaN	0.000000	0.001626	0.001691	28.0832	0.095658	0.001893	50.5415	-47.3825	-166.519	-0.047534	0.329395	-0.641302	-0.642584	0.028714	50.5415	-0.641728	-3.118916E+8	-9.206344E-11	NaN
1017	1.000000	0.338674	7.375e+06	-50989.1	1055.82	-29753.9	0.000000	0.000000	6.338867	0.006886	NaN	0.000000	0.001509	0.001755	28.0828	0.049174	0.002027	24.2539	-14.5649	-165.999	0.047548	0.337343	-0.633304	-0.634636	0.006886	24.2539	-0.633517	-2.406134E+8	-2.861790E-11	NaN
1017	1.000000	0.346680	7.375e+06	-50989.1	1055.82	-29753.9	0.000000	0.000000	6.346871	-0.015501	NaN	0.000000	0.001500	0.001732	28.0828	0.059806	0.002149	27.8358	46.435	-162.569	0.003852	0.345373	-0.625299	-0.626605	-0.015501	27.8358	-0.624881	-1.831115E+8	8.465467E-11	NaN
1017	1.000000	0.354686	7.375e+06	-50989.1	1055.82	-29753.9	0.000000	0.000000	6.354878	-0.002947	NaN	0.000000	0.001502	0.001717	28.0829	0.101438	0.001994	50.8814	-121.999	-164.754	-0.056740	0.353405	-0.617292	-0.618573	-0.002947	50.8814	-0.617249	-1.438188E+8	2.049429E-11	NaN
1017	1.000000	0.362687	7.375e+06	-50989.1	1055.82	-29753.9	0.000000	0.000000	6.362880	0.012934	NaN	0.000000	0.001569	0.001732	28.0827	0.037029	0.001901	19.48	71.1487	-168.095	0.003259	0.361349	-0.609292	-0.610630	0.012934	19.48	-0.609790	-1.135590E+8	-1.139007E-10	NaN
1017	1.000000	0.370711	7.375e+06	-50989.1	1055.82	-29753.9	0.000000	0.000000	6.370901	-0.058607	NaN	0.000000	0.001535	0.001744	28.084	0.188212	0.002028	92.7841	-31.5248	-165.558	-0.081200	0.369365	-0.601268	-0.602614	-0.058607	92.7841	-0.600794	-8.538739E+7	6.863607E-10	NaN
1017	1.000000	0.378704	7.375e+06	-50989.1	1055.82	-29753.9	0.000000	0.000000	6.378897	0.018555	NaN	0.000000	0.001555	0.001732	28.0838	0.041753	0.001997	20.9047	-65.6288	-164.628	0.013421	0.377394	-0.593275	-0.594585	0.018555	20.9047	-0.593940	-6.870355E+7	-2.700730E-10	NaN
1017	1.000000	0.386705	7.375e+06	-50989.1	1055.82	-29753.9	0.000000	0.000000	6.386895	-0.043737	NaN	0.000000	0.001546	0.001690	28.0841	0.094804	0.001949	48.6431	160.645	-166.585	0.087604	0.385367	-0.585274	-0.586612	-0.043737	48.6431	-0.584600	-5.107319E+7	8.563586E-10	NaN
1017	1.000000	0.394706	7.375e+06	-50989.1	1055.82	-29753.9	0.000000	0.000000	6.394897	-0.037007	NaN	0.000000	0.001509	0.001730	28.0841	0.086412	0.001965	43.9867	2.787052	-161.794	-0.027762	0.393389	-0.577272	-0.578590	-0.037007	43.9867	-0.576641	-3.966093E+7	9.330868E-10	NaN
1017	1.000000	0.402678	7.375e+06	-50989.1	1055.82	-29753.9	0.000000	0.000000	6.402868	-0.029650	NaN	0.000000	0.001479	0.001696	28.0841	0.035402	0.002044	17.3165	172.368	-166.463	-0.119123	0.401418	-0.569301	-0.570561	-0.029650	17.3165	-0.568017	-3.014604E+7	9.835371E-10	NaN
1017	1.000000	0.410714	7.375e+06	-50989.1	1055.82	-29753.9	0.000000	0.000000	6.410906	0.015052	NaN	0.000000	0.001506	0.001686	28.0838	0.130026	0.002130	61.0481	-16.8856	-164.79	-0.069377	0.409399	-0.561265	-0.562580	0.015052	61.0481	-0.561450	-2.445872E+7	-6.154074E-10	NaN
1017	1.000000	0.418714	7.375e+06	-50989.1	1055.82	-29753.9	0.000000	0.000000	6.418905	-0.026649	NaN	0.000000	0.001480	0.001694	28.084	0.080471	0.002098	38.3594	-54.6627	-162.874	0.020314	0.417452	-0.553265	-0.554527	-0.026649	38.3594	-0.552744	-1.853328E+7	1.437908E-9	NaN
1017	1.000000	0.426723	7.375e+06	-50989.1	1055.82	-29753.9	0.000000	0.000000	6.426913	-0.046095	NaN	0.000000	0.001497	0.001682	28.0839	0.048977	0.002008	24.3914	-90.6502	-163.245	-0.043859	0.425371	-0.545256	-0.546608	-0.046095	24.3914	-0.543838	-1.395011E+7	3.304300E-9	NaN
1017	1.000000	0.434716	7.375e+06	-50989.1	1055.82	-29753.9	0.000000	0.000000	6.434911	0.066657	NaN	0.000000	0.001507	0.001696	28.0841	0.024042	0.001920	12.5205	-130.316	-165.713	0.089004	0.433439	-0.537263	-0.538540	0.066657	12.5205	-0.541255	-1.284599E+7	-5.188921E-9	NaN
1017	1.000000	0.442707	7.375e+06	-50989.1	1055.82	-29753.9	0.000000	0.000000	6.442901	0.029892	NaN	0.000000	0.001482	0.001742	28.0841	0.105042	0.002004	52.4043	175.412	-165.025	0.065367	0.441404	-0.529271	-0.530575	0.029892	52.4043	-0.529699	-8.8797e+06	-3.366302E-9	NaN
1017	1.000000	0.450711	7.375e+06	-50989.1	1055.82	-29753.9	0.000000	0.000000	6.450902	-0.026099	NaN	0.000000	0.001508	0.001694	28.0842	0.120556	0.002034	59.2834	92.6452	-169.957	-0.106798	0.449438	-0.521268	-0.522541	-0.026099	59.2834	-0.520938	-6.70867e+06	3.890278E-9	NaN
1017	1.000000	0.458723	7.375e+06	-50989.1	1055.82	-29753.9	0.000000	0.000000	6.458912	-0.055356	NaN	0.000000	0.001529	0.001712	28.0841	0.088023	0.001988	44.2831	26.2601	-166.206	-0.136452	0.457426	-0.513256	-0.514553	-0.055356	44.2831	-0.512319	-5.08986e+06	1.087572E-8	NaN
1017	1.000000	0.466725	7.375e+06	-50989.1	1055.82	-29753.9	0.000000	0.000000	6.466916	-0.009940	NaN	0.000000	0.001537	0.001679	28.0839	0.070719	0.001997	35.4116	147.708	-165.671	-0.079184	0.465467	-0.505254	-0.506512	-0.009940	35.4116	-0.505044	-4.03044e+06	2.466111E-9	NaN
1017	1.000000	0.474741	7.375e+06	-50989.1	1055.82	-29753.9	0.000000	0.000000	6.474934	0.020535	NaN	0.000000	0.001571	0.001724	28.084	0.055475	0.001870	29.6693	38.6339	-169.064	0.015849	0.473436	-0.497238	-0.498543	0.020535	29.6693	-0.497757	-3.18946e+06	-6.438355E-9	NaN
1017	1.000000	0.482749	7.375e+06	-50989.1	1055.82	-29753.9	0.000000	0.000000	6.482942	0.011597	NaN	0.000000	0.001548	0.001715	28.0839	0.026979	0.002008	13.4343	69.8011	-164.11	-0.003780	0.481441	-0.489230	-0.490538	0.011597	13.4343	-0.489877	-2.47558e+06	-4.684716E-9	NaN
1017	1.000000	0.490744	7.375e+06	-50989.1	1055.82	-29753.9	0.000000	0.000000	6.490938	0.037712	NaN	0.000000	0.001566	0.001699	28.0839	0.107493	0.002134	50.3651	174.368	-165.478	0.053465	0.489462	-0.481234	-0.482517	0.037712	50.3651	-0.481796	-1.90838e+06	-1.976127E-8	NaN
1017	1.000000	0.498769	7.375e+06	-50989.1	1055.82	-29753.9	0.000000	0.000000	6.498960	-0.027442	NaN	0.000000	0.001562	0.001710	28.0839	0.053267	0.002098	25.3919	-128.195	-164.353	-0.102515	0.497405	-0.473210	-0.474574	-0.027442	25.3919	-0.472399	-1.40944e+06	1.946998E-8	NaN
1017	1.000000	0.506755	7.375e+06	-50989.1	1055.82	-29753.9	0.000000	0.000000	6.506946	-0.021584	NaN	0.000000	0.001550	0.001719	28.0827	0.082664	0.002045	40.4166	-171.243	-162.642	0.052052	0.505487	-0.465224	-0.466492	-0.021584	40.4166	-0.464823	-1.10349e+06	1.955994E-8	NaN
1017	1.000000	0.514758	7.375e+06	-50989.1	1055.82	-29753.9	0.000000	0.000000	6.514947	-0.070800	NaN	0.000000	0.001548	0.001729	28.0829	0.102605	0.001981	51.7888	-138.734	-163.176	-0.029067	0.513408	-0.457221	-0.458571	-0.070800	51.7888	-0.456196	-834709	8.482010E-8	NaN
1017	1.000000	0.522741	7.375e+06	-50989.1	1055.82	-29753.9	0.000000	0.000000	6.522933	-0.007804	NaN	0.000000	0.001535	0.001737	28.0825	0.038895	0.001932	20.1343	-148.298	-165.174	-0.020388	0.521425	-0.449238	-0.450554	-0.007804	20.1343	-0.448947	-659950	1.182447E-8	NaN
1017	1.000000	0.530751	7.375e+06	-50989.1	1055.82	-29753.9	0.000000	0.000000	6.530942	-0.016989	NaN	0.000000	0.001525	0.001688	28.0826	0.112143	0.002092	53.6052	41.941	-167.301	-0.052580	0.529453	-0.441228	-0.442526	-0.016989	53.6052	-0.440991	-509732	3.332876E-8	NaN
1017	1.000000	0.538770	7.375e+06	-50989.1	1055.82	-29753.9	0.000000	0.000000	6.538961	-0.016216	NaN	0.000000	0.001522	0.001697	28.0827	0.048762	0.001993	24.468	-174.81	-163.839	-0.080221	0.537440	-0.433209	-0.434539	-0.016216	24.468	-0.432712	-389415	4.164182E-8	NaN
1017	1.000000	0.546741	7.375e+06	-50989.1	1055.82	-29753.9	0.000000	0.000000	6.546932	-0.023645	NaN	0.000000	0.001531	0.001683	28.0826	0.044959	0.002107	21.3388	-171.642	-163.527	-0.019527	0.545482	-0.425238	-0.426497	-0.023645	21.3388	-0.424407	-297082	7.958923E-8	NaN
1017	1.000000	0.554762	7.375e+06	-50989.1	1055.82	-29753.9	0.000000	0.000000	6.554954	-0.018470	NaN	0.000000	0.001515	0.001713	28.0829	0.055980	0.002047	27.3501	-3.531552	-165.986	-0.062765	0.553388	-0.417216	-0.418591	-0.018470	27.3501	-0.416710	-231065	7.993217E-8	NaN
1017	1.000000	0.562774	7.375e+06	-50989.1	1055.82	-29753.9	0.000000	0.000000	6.562966	0.016531	NaN	0.000000	0.001513	0.001676	28.0823	0.058897	0.001988	29.6322	105.603	-163.998	0.064886	0.561455	-0.409205	-0.410524	0.016531	29.6322	-0.409623	-183251	-9.020928E-8	NaN
1017	1.000000	0.570760	7.375e+06	-50989.1	1055.82	-29753.9	0.000000	0.000000	6.570950	-0.064366	NaN	0.000000	0.001514	0.001716	28.0822	0.089056	0.002080	42.8076	38.589	-165.906	-0.054683	0.569511	-0.401219	-0.402468	-0.064366	42.8076	-0.400091	-134057	4.801350E-7	NaN
1017	1.000000	0.578781	7.375e+06	-50989.1	1055.82	-29753.9	0.000000	0.000000	6.578975	0.042019	NaN	0.000000	0.001543	0.001712	28.0825	0.102196	0.001948	52.4515	-58.7195	-165.068	0.104144	0.577459	-0.393198	-0.394519	0.042019	52.4515	-0.393799	-109012	-3.854512E-7	NaN
1017	1.000000	0.586764	7.375e+06	-50989.1	1055.82	-29753.9	0.000000	0.000000	6.586956	-0.009326	NaN	0.000000	0.001550	0.001714	28.0824	0.076224	0.002069	36.8348	177.881	-165.503	0.019000	0.585483	-0.385215	-0.386496	-0.009326	36.8348	-0.385025	-81648	1.142251E-7	NaN
1017	1.000000	0.594811	7.375e+06	-50989.1	1055.82	-29753.9	0.000000	0.000000	6.595002	-0.024625	NaN	0.000000	0.001541	0.001715	28.0827	0.004872	0.002032	2.397411	126.427	-162.187	0.013026	0.593497	-0.377168	-0.378482	-0.024625	2.397411	-0.369464	-48798.9	5.046141E-7	NaN
1017	1.000000	0.602778	7.375e+06	-50989.1	1055.82	-29753.9	0.000000	0.000000	6.602967	-0.069162	NaN	0.000000	0.001566	0.001717	28.0822	0.091605	0.002035	45.0156	-91.6746	-165.589	-0.018538	0.601534	-0.369201	-0.370445	-0.069162	45.0156	-0.368049	-46560.3	1.485422E-6	NaN
1017	1.000000	0.610830	7.375e+06	-50989.1	1055.82	-29753.9	0.000000	0.000000	6.611021	-0.018928	NaN	0.000000	0.001563	0.001716	28.0825	0.040866	0.001991	20.5277	-125.471	-163.287	-0.104397	0.609453	-0.361149	-0.362526	-0.018928	20.5277	-0.360457	-36179.1	5.231762E-7	NaN
1017	1.000000	0.618772	7.375e+06	-50989.1	1055.82	-29753.9	0.000000	0.000000	6.618963	-0.012490	NaN	0.000000	0.001532	0.001713	28.0824	0.070732	0.001972	35.8761	-137.327	-164.335	0.090436	0.617478	-0.353207	-0.354501	-0.012490	35.8761	-0.352946	-28166.7	4.434185E-7	NaN
1017	1.000000	0.626810	7.375e+06	-50989.1	1055.82	-29753.9	0.000000	0.000000	6.627001	-0.044869	NaN	0.000000	0.001542	0.001757	28.0824	0.075101	0.001924	39.0252	72.6229	-164.699	-0.013336	0.625480	-0.345168	-0.346499	-0.044869	39.0252	-0.344306	-21099.1	2.126587E-6	NaN
1017	1.000000	0.634802	7.375e+06	-50989.1	1055.82	-29753.9	0.000000	0.000000	6.634990	-0.082519	NaN	0.000000	0.001544	0.001713	28.0825	0.024873	0.002120	11.7343	175.743	-166.344	-0.046458	0.633464	-0.337177	-0.338515	-0.082519	11.7343	-0.331903	-13909.3	5.932650E-6	NaN
1017	1.000000	0.642779	7.375e+06	-50989.1	1055.82	-29753.9	0.000000	0.000000	6.642973	0.031869	NaN	0.000000	0.001511	0.001744	28.0839	0.119241	0.001965	60.696	-175.135	-170.693	0.035271	0.641536	-0.329200	-0.330443	0.031869	60.696	-0.329593	-12867.5	-2.476716E-6	NaN
1017	1.000000	0.650824	7.375e+06	-50989.1	1055.82	-29753.9	0.000000	0.000000	6.651017	0.032462	NaN	0.000000	0.001534	0.001750	28.0839	0.087277	0.002140	40.7809	-25.7025	-164.606	-0.054487	0.649475	-0.321155	-0.322504	0.032462	40.7809	-0.321752	-9872.24	-3.288234E-6	NaN
1017	1.000000	0.658828	7.375e+06	-50989.1	1055.82	-29753.9	0.000000	0.000000	6.659021	0.011036	NaN	0.000000	0.001519	0.001708	28.0838	0.086407	0.001905	45.3614	63.9772	-166.867	-0.072123	0.657489	-0.313151	-0.314490	0.011036	45.3614	-0.313333	-7418.82	-1.487538E-6	NaN
1017	1.000000	0.666842	7.375e+06	-50989.1	1055.82	-29753.9	0.000000	0.000000	6.667034	-0.001967	NaN	0.000000	0.001545	0.001727	28.0839	0.056409	0.001970	28.6358	-71.1471	-163.076	-0.047806	0.665518	-0.305137	-0.306461	-0.001967	28.6358	-0.305085	-5600.39	3.512767E-7	NaN
1017	1.000000	0.674832	7.375e+06	-50989.1	1055.82	-29753.9	0.000000	0.000000	6.675024	-0.003207	NaN	0.000000	0.001562	0.001740	28.0836	0.044915	0.002054	21.8621	52.8331	-166.076	0.040058	0.673539	-0.297147	-0.298439	-0.003207	21.8621	-0.297037	-4250.91	7.544515E-7	NaN
1017	1.000000	0.682801	7.375e+06	-50989.1	1055.82	-29753.9	0.000000	0.000000	6.682990	-0.077799	NaN	0.000000	0.001539	0.001704	28.0837	0.011171	0.002017	5.537516	139.193	-163.785	0.000165	0.681521	-0.289178	-0.290458	-0.077799	5.537516	-0.278641	-2251.39	3.455587E-5	NaN
1017	1.000000	0.690790	7.375e+06	-50989.1	1055.82	-29753.9	0.000000	0.000000	6.690981	-0.033579	NaN	0.000000	0.001590	0.001689	28.0837	0.118366	0.001838	64.395	151.091	-162.856	-0.023860	0.689503	-0.281188	-0.282476	-0.033579	64.395	-0.280797	-2426.58	1.383798E-5	NaN
1017	1.000000	0.698851	7.375e+06	-50989.1	1055.82	-29753.9	0.000000	0.000000	6.699040	-0.062574	NaN	0.000000	0.001582	0.001682	28.0841	0.063689	0.002029	31.3943	-43.789	-166.203	0.014612	0.697543	-0.273128	-0.274435	-0.062574	31.3943	-0.271633	-1763.42	3.548459E-5	NaN
1017	1.000000	0.706805	7.375e+06	-50989.1	1055.82	-29753.9	0.000000	0.000000	6.706999	0.053205	NaN	0.000000	0.001508	0.001699	28.0838	0.085576	0.001947	43.9554	164.023	-166.119	0.066994	0.705512	-0.265174	-0.266467	0.053205	43.9554	-0.266082	-1451.76	-3.664888E-5	NaN
1017	1.000000	0.714834	7.375e+06	-50989.1	1055.82	-29753.9	0.000000	0.000000	6.715025	-0.011073	NaN	0.000000	0.001557	0.001708	28.0836	0.044094	0.001992	22.1397	158.204	-165.271	0.020796	0.713529	-0.257145	-0.258450	-0.011073	22.1397	-0.256770	-1045.54	1.059045E-5	NaN
1017	1.000000	0.722869	7.375e+06	-50989.1	1055.82	-29753.9	0.000000	0.000000	6.723061	-0.001374	NaN	0.000000	0.001560	0.001669	28.0837	0.084837	0.002029	41.8199	-11.7841	-166.598	0.033729	0.721505	-0.249110	-0.250474	-0.001374	41.8199	-0.249085	-795.808	1.726401E-6	NaN
1017	1.000000	0.730820	7.375e+06	-50989.1	1055.82	-29753.9	0.000000	0.000000	6.731012	0.014466	NaN	0.000000	0.001549	0.001687	28.0837	0.104862	0.002066	50.7615	-134.072	-165.136	-0.056525	0.729556	-0.241159	-0.242423	0.014466	50.7615	-0.241373	-603.923	-2.395363E-5	NaN
1017	1.000000	0.738836	7.375e+06	-50989.1	1055.82	-29753.9	0.000000	0.000000	6.739029	0.013268	NaN	0.000000	0.001568	0.001673	28.0839	0.106302	0.001955	54.3762	-155.264	-165.631	0.011014	0.737534	-0.233143	-0.234445	0.013268	54.3762	-0.233326	-451.787	-2.936722E-5	NaN
1017	1.000000	0.746848	7.375e+06	-50989.1	1055.82	-29753.9	0.000000	0.000000	6.747038	-0.051101	NaN	0.000000	0.001522	0.001699	28.0838	0.113479	0.001976	57.4284	8.952060	-165.609	-0.060626	0.745608	-0.225131	-0.226371	-0.051101	57.4284	-0.224464	-327.202	0.000156	NaN
1017	1.000000	0.754815	7.375e+06	-50989.1	1055.82	-29753.9	0.000000	0.000000	6.755008	0.007144	NaN	0.000000	0.001540	0.001690	28.0838	0.122849	0.001906	64.4475	-33.4219	-165.269	-0.036679	0.753534	-0.217164	-0.218445	0.007144	64.4475	-0.217247	-250.956	-2.846549E-5	NaN
1017	1.000000	0.762843	7.375e+06	-50989.1	1055.82	-29753.9	0.000000	0.000000	6.763035	-0.001044	NaN	0.000000	0.001555	0.001695	28.0842	0.041249	0.002007	20.5482	64.4128	-165.002	-0.037361	0.761569	-0.209136	-0.210409	-0.001044	20.5482	-0.209098	-185.437	5.631640E-6	NaN
1017	1.000000	0.770876	7.375e+06	-50989.1	1055.82	-29753.9	0.000000	0.000000	6.771068	-0.010654	NaN	0.000000	0.001558	0.001719	28.0838	0.111699	0.002047	54.5557	-60.5388	-168.053	-0.034879	0.769544	-0.201103	-0.202435	-0.010654	54.5557	-0.200956	-136.584	7.800399E-5	NaN
1017	1.000000	0.778844	7.375e+06	-50989.1	1055.82	-29753.9	0.000000	0.000000	6.779037	0.024435	NaN	0.000000	0.001558	0.001724	28.0826	0.079392	0.001940	40.9198	66.173	-167.451	0.042365	0.777573	-0.193135	-0.194406	0.024435	40.9198	-0.193583	-103.204	-0.000237	NaN
1017	1.000000	0.786857	7.375e+06	-50989.1	1055.82	-29753.9	0.000000	0.000000	6.787048	-0.030154	NaN	0.000000	0.001520	0.001691	28.0823	0.113581	0.001959	57.9891	166.271	-165.988	-0.007651	0.785553	-0.185121	-0.186426	-0.030154	57.9891	-0.184731	-73.3845	0.000411	NaN
1017	1.000000	0.794889	7.375e+06	-50989.1	1055.82	-29753.9	0.000000	0.000000	6.795081	0.002226	NaN	0.000000	0.001497	0.001709	28.0827	0.021531	0.002023	10.6453	6.409269	-162.115	0.032232	0.793493	-0.177090	-0.178486	0.002226	10.6453	-0.177247	-54.7644	-4.063889E-5	NaN
1017	1.000000	0.802896	7.375e+06	-50989.1	1055.82	-29753.9	0.000000	0.000000	6.803087	-0.014412	NaN	0.000000	0.001523	0.001718	28.0827	0.055889	0.002023	27.6205	-153.011	-166.764	-0.031300	0.801546	-0.169083	-0.170433	-0.014412	27.6205	-0.168692	-38.982	0.000370	NaN
1017	1.000000	0.810861	7.375e+06	-50989.1	1055.82	-29753.9	0.000000	0.000000	6.811052	-0.014809	NaN	0.000000	0.001510	0.001734	28.0825	0.111539	0.002003	55.6764	-25.6544	-166.213	0.032025	0.809546	-0.161118	-0.162433	-0.014809	55.6764	-0.160919	-28.4637	0.000520	NaN
1017	1.000000	0.818857	7.375e+06	-50989.1	1055.82	-29753.9	0.000000	0.000000	6.819050	0.032321	NaN	0.000000	0.001564	0.001723	28.0826	0.044423	0.002059	21.5751	-143.05	-165.732	-0.002957	0.817584	-0.153122	-0.154395	0.032321	21.5751	-0.154245	-21.6266	-0.001494	NaN
1017	1.000000	0.826884	7.375e+06	-50989.1	1055.82	-29753.9	0.000000	0.000000	6.827077	0.028602	NaN	0.000000	0.001503	0.001748	28.0826	0.059076	0.002002	29.5141	-56.2084	-165.892	0.051047	0.825581	-0.145095	-0.146398	0.028602	29.5141	-0.145822	-15.1827	-0.001884	NaN
1017	1.000000	0.834859	7.375e+06	-50989.1	1055.82	-29753.9	0.000000	0.000000	6.835050	-0.006171	NaN	0.000000	0.001501	0.001684	28.0828	0.031351	0.001892	16.5666	-70.3354	-164.811	-0.065433	0.833572	-0.137120	-0.138407	-0.006171	16.5666	-0.136841	-10.3116	0.000598	NaN
1017	1.000000	0.842912	7.375e+06	-50989.1	1055.82	-29753.9	0.000000	0.000000	6.843107	0.067111	NaN	0.000000	0.001518	0.001709	28.0827	0.073829	0.002090	35.3216	-168.289	-165.088	0.079591	0.841539	-0.129067	-0.130440	0.067111	35.3216	-0.130492	-7.790247	-0.008615	NaN
1017	1.000000	0.850880	7.375e+06	-50989.1	1055.82	-29753.9	0.000000	0.000000	6.851074	0.054938	NaN	0.000000	0.001538	0.001715	28.0824	0.098399	0.001988	49.4967	94.7117	-163.152	0.079482	0.849552	-0.121099	-0.122427	0.054938	49.4967	-0.121931	-5.283293	-0.010398	NaN
1017	1.000000	0.858914	7.375e+06	-50989.1	1055.82	-29753.9	0.000000	0.000000	6.859107	0.030742	NaN	0.000000	0.001569	0.001687	28.0827	0.064402	0.002054	31.3611	-163.386	-164.58	0.011422	0.857601	-0.113065	-0.114378	0.030742	31.3611	-0.113800	-3.608378	-0.008520	NaN
1017	1.000000	0.866882	7.375e+06	-50989.1	1055.82	-29753.9	0.000000	0.000000	6.867074	0.013636	NaN	0.000000	0.001560	0.001704	28.0827	0.057179	0.002005	28.522	30.3058	-169.779	0.032623	0.865570	-0.105097	-0.106409	0.013636	28.522	-0.105456	-2.404385	-0.005671	NaN
1017	1.000000	0.874944	7.375e+06	-50989.1	1055.82	-29753.9	0.000000	0.000000	6.875136	-0.011202	NaN	0.000000	0.001535	0.001686	28.0826	0.038359	0.002057	18.6488	-143.864	-159	0.046335	0.873570	-0.097035	-0.098408	-0.011202	18.6488	-0.096584	-1.532329	0.007311	NaN
1017	1.000000	0.882902	7.375e+06	-50989.1	1055.82	-29753.9	0.000000	0.000000	6.883093	-0.008692	NaN	0.000000	0.001570	0.001673	28.0824	0.060776	0.001988	30.572	104.122	-169.122	-0.006465	0.881604	-0.089077	-0.090375	-0.008692	30.572	-0.088864	-1.016405	0.008552	NaN
1017	1.000000	0.890885	7.375e+06	-50989.1	1055.82	-29753.9	0.000000	0.000000	6.891078	0.028747	NaN	0.000000	0.001554	0.001658	28.0825	0.026961	0.001988	13.5634	33.2264	-166.71	0.068686	0.889588	-0.081094	-0.082391	0.028747	13.5634	-0.082684	-0.721436	-0.039847	NaN
1017	1.000000	0.898902	7.375e+06	-50989.1	1055.82	-29753.9	0.000000	0.000000	6.899093	-0.009336	NaN	0.000000	0.001571	0.001673	28.0826	0.075806	0.001907	39.7599	45.6996	-165.061	0.024100	0.897607	-0.073077	-0.074372	-0.009336	39.7599	-0.072901	-0.407212	0.022927	NaN
1017	1.000000	0.906904	7.375e+06	-50989.1	1055.82	-29753.9	0.000000	0.000000	6.907097	0.019681	NaN	0.000000	0.001578	0.001647	28.0824	0.049695	0.001921	25.8757	-119.475	-161.83	0.064171	0.905633	-0.065074	-0.066346	0.019681	25.8757	-0.065645	-0.259672	-0.075792	NaN
1017	1.000000	0.914936	7.375e+06	-50989.1	1055.82	-29753.9	0.000000	0.000000	6.915128	-0.006091	NaN	0.000000	0.001562	0.001694	28.0842	0.060774	0.001992	30.5033	107.345	-163.583	-0.012094	0.913598	-0.057043	-0.058381	-0.006091	30.5033	-0.056893	-0.146384	0.041609	NaN
1017	1.000000	0.922915	7.375e+06	-50989.1	1055.82	-29753.9	0.000000	0.000000	6.923107	-0.009472	NaN	0.000000	0.001607	0.001646	28.0837	0.072326	0.001982	36.4975	-17.3903	-167.318	0.068646	0.921601	-0.049064	-0.050378	-0.009472	36.4975	-0.048869	-0.084327	0.112321	NaN
1017	1.000000	0.930932	7.375e+06	-50989.1	1055.82	-29753.9	0.000000	0.000000	6.931123	-0.014087	NaN	0.000000	0.001618	0.001675	28.0845	0.128798	0.002222	57.9776	113.382	-165.032	-0.098221	0.929603	-0.041047	-0.042376	-0.014087	57.9776	-0.040865	-0.048045	0.293198	NaN
1017	1.000000	0.938924	7.375e+06	-50989.1	1055.82	-29753.9	0.000000	0.000000	6.939116	-0.002816	NaN	0.000000	0.001609	0.001621	28.0838	0.017935	0.001918	9.352493	21.5505	-164.342	0.009113	0.937594	-0.033055	-0.034385	-0.002816	9.352493	-0.032829	-0.027682	0.101743	NaN
1017	1.000000	0.946930	7.375e+06	-50989.1	1055.82	-29753.9	0.000000	0.000000	6.947121	-0.008200	NaN	0.000000	0.001561	0.001618	28.0838	0.060910	0.002031	29.9883	-130.807	-164.84	-0.021602	0.945659	-0.025049	-0.026320	-0.008200	29.9883	-0.024844	-0.016713	0.490653	NaN
1017	1.000000	0.954938	7.375e+06	-50989.1	1055.82	-29753.9	0.000000	0.000000	6.955130	-0.016328	NaN	0.000000	0.001567	0.001621	28.0839	0.115685	0.002054	56.3355	-7.285069	-166.57	-0.056753	0.953656	-0.017041	-0.018323	-0.016328	56.3355	-0.016823	-0.010398	1.570303	NaN
1017	1.000000	0.962912	7.375e+06	-50989.1	1055.82	-29753.9	0.000000	0.000000	6.963104	0.001599	NaN	0.000000	0.001594	0.001609	28.0837	0.037869	0.002085	18.1655	30.1998	-164.665	-0.043241	0.961628	-0.009067	-0.010350	0.001599	18.1655	-0.009133	-0.005890	-0.271546	NaN
1017	1.000000	0.970911	7.375e+06	-50989.1	1055.82	-29753.9	0.000000	0.000000	6.971281	4.331209	NaN	0.000000	0.001574	0.001686	28.0843	4.748603	0.001810	2623.34	10.4536	-166.916	2.771153	0.969595	-0.001068	-0.002383	4.331209	2623.34	-0.002306	-0.001650	-2624.69	NaN
1017	2.000000	0.976467	7.375e+06	-50989.1	1055.82	-29753.9	0.000000	0.000000	6.977087	10.4093	NaN	0.000000	0.001570	0.001648	28.0837	9.270021	0.001476	6279.18	10.0306	-176.976	10.0773	0.976101	0.004488	0.004122	10.4093	6279.18	0.003245	0.002587	4023.97	112796
1017	2.000000	0.978521	7.375e+06	-50989.1	1055.82	-29753.9	0.000000	0.000000	6.979254	13.1511	NaN	0.000000	0.001610	0.001697	28.084	11.6032	0.001651	7030.02	6.598905	-171.5	12.4879	0.978139	0.006542	0.006160	13.1511	7030.02	0.005139	0.004261	3086.74	98400.8
1017	2.000000	0.980445	7.375e+06	-50989.1	1055.82	-29753.9	0.000000	0.000000	6.981292	15.938	NaN	0.000000	0.001601	0.001636	28.084	13.7235	0.001690	8122.37	7.299192	-174.322	15.9368	0.980127	0.008466	0.008148	15.938	8122.37	0.006994	0.006028	2643.85	95578
1017	2.000000	0.982436	7.375e+06	-50989.1	1055.82	-29753.9	0.000000	0.000000	6.983427	19.4285	NaN	0.000000	0.001608	0.001617	28.0838	16.8719	0.001914	8814.44	6.691937	-175.308	19.3104	0.982147	0.010458	0.010168	19.4285	8814.44	0.008804	0.007883	2464.67	90704.2
1017	2.000000	0.984414	7.375e+06	-50989.1	1055.82	-29753.9	0.000000	0.000000	6.985536	22.634	NaN	0.000000	0.001606	0.001673	28.0851	17.6913	0.001780	9936.38	9.256616	-175.374	23.85	0.984118	0.012435	0.012140	22.634	9936.38	0.010726	0.010000	2263.4	90782.5
1017	2.000000	0.986438	7.375e+06	-50989.1	1055.82	-29753.9	0.000000	0.000000	6.987701	26.0423	NaN	0.000000	0.001632	0.001662	28.0838	20.3761	0.001735	11745.6	-0.292215	-170.871	25.6729	0.986145	0.014460	0.014166	26.0423	11745.6	0.012797	0.012458	2090.33	96143
1017	2.000000	0.988463	7.375e+06	-50989.1	1055.82	-29753.9	0.000000	0.000000	6.989861	29.3371	NaN	0.000000	0.001589	0.001671	28.0838	23.2269	0.001957	11867	8.696386	-178.217	29.0171	0.988133	0.016484	0.016155	29.3371	11867	0.014630	0.014795	1982.91	89136.5
1017	2.000000	0.990348	7.375e+06	-50989.1	1055.82	-29753.9	0.000000	0.000000	6.991892	32.871	NaN	0.000000	0.001594	0.001631	28.0839	24.3397	0.001859	13094.5	5.491057	-177.084	31.3668	0.990069	0.018369	0.018091	32.871	13094.5	0.016487	0.017319	1897.97	90907.7
1017	2.000000	0.992376	7.375e+06	-50989.1	1055.82	-29753.9	0.000000	0.000000	6.994223	40.2401	NaN	0.000000	0.001630	0.001624	28.084	26.8117	0.001923	13940.5	10.1927	178.449	40.492	0.992040	0.020398	0.020061	40.2401	13940.5	0.018233	0.019841	2028.15	90421.6
1017	2.000000	0.994441	7.375e+06	-50989.1	1055.82	-29753.9	0.000000	0.000000	6.996459	44.3998	NaN	0.000000	0.001637	0.001663	28.0844	27.9496	0.001842	15177.1	5.472206	-177.555	46.3086	0.994081	0.022462	0.022103	44.3998	15177.1	0.020268	0.022965	1933.37	91501.7
1017	2.000000	0.996374	7.375e+06	-50989.1	1055.82	-29753.9	0.000000	0.000000	6.998606	49.6021	NaN	0.000000	0.001634	0.001625	28.0828	30.0518	0.001840	16333.7	5.603014	-178.035	50.075	0.996111	0.024395	0.024132	49.6021	16333.7	0.022117	0.025979	1909.3	92585.9
1017	2.000000	0.998425	7.375e+06	-50989.1	1055.82	-29753.9	0.000000	0.000000	7.000967	57.1616	NaN	0.000000	0.001642	0.001672	28.0827	31.6696	0.001690	18740.9	5.894331	179.73	56.7592	0.998009	0.026446	0.026031	57.1616	18740.9	0.024158	0.029502	1937.54	99687
1017	2.000000	1.000323	7.375e+06	-50989.1	1055.82	-29753.9	0.000000	0.000000	7.003121	63.3646	NaN	0.000000	0.001528	0.001687	28.0828	33.6469	0.001788	18816.6	6.319140	179.177	60.7766	1.000032	0.028344	0.028053	63.3646	18816.6	0.025819	0.032522	1948.35	95328.8
1017	2.000000	1.002443	7.375e+06	-50989.1	1055.82	-29753.9	0.000000	0.000000	7.005456	68.6174	NaN	0.000000	0.001543	0.001666	28.0827	36.2285	0.001826	19842	8.862863	176	69.7923	1.002037	0.030464	0.030059	68.6174	19842	0.027870	0.036445	1882.78	94960.1
1017	2.000000	1.004385	7.375e+06	-50989.1	1055.82	-29753.9	0.000000	0.000000	7.007684	75.5554	NaN	0.000000	0.001572	0.001674	28.0834	36.7265	0.001822	20158.8	7.189441	178.4	75.5405	1.004035	0.032406	0.032056	75.5554	20158.8	0.029595	0.039909	1893.2	92193.9
1017	2.000000	1.006339	7.375e+06	-50989.1	1055.82	-29753.9	0.000000	0.000000	7.009974	83.7135	NaN	0.000000	0.001541	0.001656	28.0827	38.6038	0.001770	21812.8	3.217112	-179.956	82.3008	1.005952	0.034360	0.033973	83.7135	21812.8	0.031482	0.043872	1908.14	95146.3
1017	2.000000	1.008411	7.375e+06	-50989.1	1055.82	-29753.9	0.000000	0.000000	7.012382	91.8793	NaN	0.000000	0.001518	0.001687	28.0828	41.0561	0.001844	22264.7	5.162359	179.125	92.2572	1.008101	0.036432	0.036122	91.8793	22264.7	0.033337	0.047945	1916.33	92900.2
1017	2.000000	1.010362	7.375e+06	-50989.1	1055.82	-29753.9	0.000000	0.000000	7.014641	99.3767	NaN	0.000000	0.001561	0.001674	28.0829	42.9954	0.001762	24396.4	3.701828	178.578	98.4395	1.010039	0.038383	0.038060	99.3767	24396.4	0.035328	0.052513	1892.41	97266.6
1017	2.000000	1.012343	7.375e+06	-50989.1	1055.82	-29753.9	0.000000	0.000000	7.016906	106.293	NaN	0.000000	0.001554	0.001661	28.0829	45.453	0.001723	26374.7	5.572054	176.392	105.513	1.012033	0.040364	0.040054	106.293	26374.7	0.037341	0.057338	1853.79	100632
1017	2.000000	1.014291	7.375e+06	-50989.1	1055.82	-29753.9	0.000000	0.000000	7.019229	115.423	NaN	0.000000	0.001501	0.001681	28.0842	45.4302	0.001660	27370.8	2.603388	178.961	111.925	1.014001	0.042312	0.042022	115.423	27370.8	0.039149	0.061848	1866.22	100553
1017	2.000000	1.016315	7.375e+06	-50989.1	1055.82	-29753.9	0.000000	0.000000	7.021670	125.569	NaN	0.000000	0.001551	0.001668	28.0828	49.2406	0.001696	29031.6	6.548083	174.539	122.717	1.016064	0.044336	0.044085	125.569	29031.6	0.041092	0.066880	1877.52	102564
1017	2.000000	1.018440	7.375e+06	-50989.1	1055.82	-29753.9	0.000000	0.000000	7.024205	135.527	NaN	0.000000	0.001487	0.001631	28.0828	51.2766	0.001789	28669.2	7.196754	175.407	137.318	1.017961	0.046461	0.045982	135.527	28669.2	0.042916	0.071781	1888.06	97765.3
1017	2.000000	1.020332	7.375e+06	-50989.1	1055.82	-29753.9	0.000000	0.000000	7.026290	140.208	NaN	0.000000	0.001553	0.001642	28.083	53.6348	0.001734	30933.7	6.347823	173.967	137.915	1.020040	0.048353	0.048061	140.208	30933.7	0.044954	0.077456	1810.16	101549
1017	2.000000	1.022344	7.375e+06	-50989.1	1055.82	-29753.9	0.000000	0.000000	7.029033	157.996	NaN	0.000000	0.001560	0.001636	28.0828	53.8666	0.001862	28922.4	0.712729	-178.929	156.84	1.022069	0.050365	0.050090	157.996	28922.4	0.046268	0.081227	1945.11	92716.6
1017	2.000000	1.024350	7.375e+06	-50989.1	1055.82	-29753.9	0.000000	0.000000	7.031384	166.381	NaN	0.000000	0.001555	0.001675	28.0841	55.1522	0.001686	32708.7	2.645804	178.933	166.26	1.023982	0.052371	0.052003	166.381	32708.7	0.048556	0.088001	1890.67	100738
1017	2.000000	1.026367	7.375e+06	-50989.1	1055.82	-29753.9	0.000000	0.000000	7.033553	170.078	NaN	0.000000	0.001515	0.001660	28.0829	58.4629	0.001896	30835.4	3.925496	176.398	169.364	1.026145	0.054388	0.054166	170.078	30835.4	0.050251	0.093192	1825.03	92285.5
1017	2.000000	1.028313	7.375e+06	-50989.1	1055.82	-29753.9	0.000000	0.000000	7.036170	186.397	NaN	0.000000	0.001582	0.001650	28.084	59.8017	0.001788	33450.1	6.222708	174.659	184.227	1.027955	0.056334	0.055976	186.397	33450.1	0.052154	0.099189	1879.22	97037.5
1017	2.000000	1.030355	7.375e+06	-50989.1	1055.82	-29753.9	0.000000	0.000000	7.038597	195.767	NaN	0.000000	0.001530	0.001630	28.0842	61.1657	0.001753	34882.1	1.978644	178.045	196.695	1.030051	0.058376	0.058072	195.767	34882.1	0.054167	0.105727	1851.63	98013.1
1017	2.000000	1.032318	7.375e+06	-50989.1	1055.82	-29753.9	0.000000	0.000000	7.041009	206.654	NaN	0.000000	0.001583	0.001624	28.084	64.6629	0.001858	34800.9	4.087368	176.155	204.921	1.032086	0.060340	0.060107	206.654	34800.9	0.055886	0.111471	1853.89	95232.1
1017	2.000000	1.034358	7.375e+06	-50989.1	1055.82	-29753.9	0.000000	0.000000	7.043579	219.554	NaN	0.000000	0.001627	0.001642	28.0844	64.7103	0.001704	37967.1	5.841901	173.632	222.45	1.034051	0.062380	0.062072	219.554	37967.1	0.058043	0.118883	1846.81	100605
1017	2.000000	1.036372	7.375e+06	-50989.1	1055.82	-29753.9	0.000000	0.000000	7.045633	220.55	NaN	0.000000	0.001585	0.001653	28.0839	68.0984	0.001798	37868.1	3.546201	176.241	223.015	1.035993	0.064393	0.064014	220.55	37868.1	0.060025	0.125897	1751.84	97507.8
1017	2.000000	1.038357	7.375e+06	-50989.1	1055.82	-29753.9	0.000000	0.000000	7.048559	243.408	NaN	0.000000	0.001601	0.001657	28.0839	70.5187	0.001919	36747.8	5.615865	174.545	242.839	1.037968	0.066378	0.065989	243.408	36747.8	0.061411	0.130915	1859.28	92791.7
1017	2.000000	1.040279	7.375e+06	-50989.1	1055.82	-29753.9	0.000000	0.000000	7.051023	256.582	NaN	0.000000	0.001574	0.001664	28.0839	72.0414	0.001817	39642.5	4.364606	174.395	253.335	1.039930	0.068301	0.067951	256.582	39642.5	0.063446	0.138455	1853.17	97337.4
1017	2.000000	1.042300	7.375e+06	-50989.1	1055.82	-29753.9	0.000000	0.000000	7.053227	261.06	NaN	0.000000	0.001556	0.001648	28.0839	74.4988	0.001839	40507.5	5.433292	173.126	257.951	1.042094	0.070321	0.070116	261.06	40507.5	0.065487	0.146218	1785.42	96785.2
1017	2.000000	1.044358	7.375e+06	-50989.1	1055.82	-29753.9	0.000000	0.000000	7.056036	279.316	NaN	0.000000	0.001573	0.001651	28.084	75.9466	0.001801	42173.3	7.542097	171.429	280.968	1.043957	0.072379	0.071978	279.316	42173.3	0.067412	0.153719	1817.05	98275.7
1017	2.000000	1.046306	7.375e+06	-50989.1	1055.82	-29753.9	0.000000	0.000000	7.058641	295.291	NaN	0.000000	0.001538	0.001683	28.084	77.9102	0.001878	41488.7	5.862368	173.363	293.95	1.045952	0.074327	0.073973	295.291	41488.7	0.068989	0.159998	1845.59	94764.5
1017	2.000000	1.048232	7.375e+06	-50989.1	1055.82	-29753.9	0.000000	0.000000	7.061012	306.105	NaN	0.000000	0.001608	0.001663	28.0843	79.6578	0.001814	43924.4	6.350390	172.279	301.149	1.047964	0.076253	0.075985	306.105	43924.4	0.071026	0.168288	1818.94	97825.6
1017	2.000000	1.050240	7.375e+06	-50989.1	1055.82	-29753.9	0.000000	0.000000	7.063338	313.842	NaN	0.000000	0.001632	0.001663	28.0842	79.2579	0.001795	44155.4	0.365151	178.093	310.532	1.050021	0.078261	0.078042	313.842	44155.4	0.072930	0.176212	1781.05	96103.3
1017	2.000000	1.052199	7.375e+06	-50989.1	1055.82	-29753.9	0.000000	0.000000	7.065933	329.298	NaN	0.000000	0.001643	0.001643	28.0839	81.8091	0.001930	42399	1.301004	177.698	323.503	1.051914	0.080220	0.079935	329.298	42399	0.074395	0.182426	1805.11	90695.5
1017	2.000000	1.054222	7.375e+06	-50989.1	1055.82	-29753.9	0.000000	0.000000	7.068803	349.913	NaN	0.000000	0.001567	0.001657	28.0839	82.878	0.001900	43626	6.479959	171.574	345.398	1.053953	0.082243	0.081974	349.913	43626	0.076228	0.190340	1838.36	91359.7
1017	2.000000	1.056227	7.375e+06	-50989.1	1055.82	-29753.9	0.000000	0.000000	7.071080	356.499	NaN	0.000000	0.001593	0.001687	28.084	84.8221	0.001708	49659.7	2.399514	174.706	351.124	1.055942	0.084248	0.083963	356.499	49659.7	0.078864	0.202004	1764.81	100948
1017	2.000000	1.058354	7.375e+06	-50989.1	1055.82	-29753.9	0.000000	0.000000	7.073632	366.841	NaN	0.000000	0.001574	0.001614	28.084	88.3897	0.001905	46388.2	6.518376	171.28	366.299	1.058184	0.086376	0.086205	366.841	46388.2	0.080445	0.209151	1753.95	92672.4
1017	2.000000	1.060284	7.375e+06	-50989.1	1055.82	-29753.9	0.000000	0.000000	7.076495	389.544	NaN	0.000000	0.001605	0.001622	28.0839	89.2866	0.001825	48933.3	2.391359	175.064	387.715	1.060004	0.088305	0.088026	389.544	48933.3	0.082334	0.217849	1788.13	95785.4
1017	2.000000	1.062227	7.375e+06	-50989.1	1055.82	-29753.9	0.000000	0.000000	7.079194	407.917	NaN	0.000000	0.001604	0.001656	28.0842	90.9676	0.001760	51689.8	3.066166	174.305	402.964	1.061932	0.090248	0.089953	407.917	51689.8	0.084329	0.227212	1795.31	99074.5
1017	2.000000	1.064177	7.375e+06	-50989.1	1055.82	-29753.9	0.000000	0.000000	7.081968	427.961	NaN	0.000000	0.001582	0.001668	28.0863	91.952	0.001893	48563.2	-0.562710	178.52	423.133	1.063953	0.092198	0.091974	427.961	48563.2	0.085588	0.233217	1835.04	91875.7
1017	2.000000	1.066169	7.375e+06	-50989.1	1055.82	-29753.9	0.000000	0.000000	7.084112	431.643	NaN	0.000000	0.001604	0.001644	28.0832	95.8474	0.001824	52543	5.871617	171.009	423.588	1.065845	0.094190	0.093867	431.643	52543	0.088029	0.245063	1761.36	96972.7
1017	2.000000	1.068292	7.375e+06	-50989.1	1055.82	-29753.9	0.000000	0.000000	7.087012	450.558	NaN	0.000000	0.001587	0.001662	28.0835	96.3458	0.001625	59301.2	2.772522	173.565	449.026	1.067966	0.096313	0.095987	450.558	59301.2	0.090615	0.257912	1746.94	106684
1017	2.000000	1.070296	7.375e+06	-50989.1	1055.82	-29753.9	0.000000	0.000000	7.089453	461.16	NaN	0.000000	0.001698	0.001671	28.083	97.6969	0.001764	55393.9	1.306193	175.359	460.072	1.070120	0.098318	0.098141	461.16	55393.9	0.092074	0.265298	1738.27	98258.1
1017	2.000000	1.072369	7.375e+06	-50989.1	1055.82	-29753.9	0.000000	0.000000	7.092549	486.04	NaN	0.000000	0.001661	0.001630	28.083	101.275	0.001772	57138.9	7.036188	169.682	489.663	1.071933	0.100390	0.099955	486.04	57138.9	0.094010	0.275252	1765.8	99503.9
1017	2.000000	1.074101	7.375e+06	-50989.1	1055.82	-29753.9	0.000000	0.000000	7.094878	500.583	NaN	0.000000	0.001653	0.001656	28.0827	100.649	0.001704	59049.6	5.606860	171.183	492.715	1.073898	0.102122	0.101919	500.583	59049.6	0.095764	0.284413	1760.06	101162