File: remote_trans/data/nanoindenter/0828-1/data/Data_2025-08-06,11h17m57s/2025-07-22_16-23-58_1_328.txt
2025-07-22, 16:23:58, 1
Index	Phase	Displacement	Time	Pos X	Pos Y	Pos Z	Rot A	Rot B	Piezo Z	Force A	Force B	Gripper	Voltage A	Voltage B	Temperature	Amplitude force	Amplitude pos	Stiffness	Phase shift	Phase excitation	Force A raw	Displacement raw	HMax	HMax raw	Real Force	Real Stiffness	Contact Depth	Area	Hardness	Reduced Mod.
[#]	[#]	[um]	[s]	[um]	[um]	[um]	[m°]	[m°]	[um]	[uN]	[uN]	[V]	[V]	[V]	[°C]	[uN]	[um]	[N/m]	[°]	[°]	[uN]	[um]	[um]	[um]	[uN]	[N/m]	[um]	[um^2]	[MPa]	[MPa]
328	1.000000	0.002374	7.36827e+06	-55039.1	955.819	-29742.7	0.000000	0.000000	6.002810	-0.038482	NaN	0.000000	0.001753	0.001642	28.0795	0.149962	0.000903	166.117	-5.354621	-169.615	0.042884	0.001119	-1.008679	-1.009934	-0.038482	166.117	-1.008505	-2.952998E+13	1.303146E-15	NaN
328	1.000000	0.010337	7.36827e+06	-55039.1	955.818	-29742.7	0.000000	0.000000	6.010775	0.013873	NaN	0.000000	0.001741	0.001662	28.0793	0.115280	0.001042	110.597	125.373	-168.53	-0.011443	0.009001	-1.000716	-1.002052	0.013873	110.597	-1.000810	-2.326361E+13	-5.963574E-16	NaN
328	1.000000	0.018322	7.36827e+06	-55039.1	955.818	-29742.7	0.000000	0.000000	6.018759	-0.015388	NaN	0.000000	0.001739	0.001674	28.0795	0.029667	0.001756	16.8907	49.9931	-167.733	-0.083791	0.017022	-0.992731	-0.994031	-0.015388	16.8907	-0.992048	-1.772928E+13	8.679453E-16	NaN
328	1.000000	0.026351	7.36827e+06	-55039.1	955.818	-29742.7	0.000000	0.000000	6.026788	-0.005771	NaN	0.000000	0.001745	0.001655	28.0794	0.044229	0.001733	25.5211	157.8	-163.538	0.025290	0.025015	-0.984702	-0.986038	-0.005771	25.5211	-0.984532	-1.404322E+13	4.109575E-16	NaN
328	1.000000	0.034324	7.36827e+06	-55039.1	955.819	-29742.7	0.000000	0.000000	6.034760	-0.049955	NaN	0.000000	0.001780	0.001642	28.0795	0.096622	0.002000	48.3172	129.067	-165.976	0.029447	0.032984	-0.976729	-0.978069	-0.049955	48.3172	-0.975953	-1.076186E+13	4.641827E-15	NaN
328	1.000000	0.042339	7.36827e+06	-55039.1	955.818	-29742.7	0.000000	0.000000	6.042774	-0.053836	NaN	0.000000	0.001776	0.001648	28.0798	0.106429	0.001979	53.7835	174.638	-165.707	-0.029556	0.041000	-0.968714	-0.970053	-0.053836	53.7835	-0.967964	-8.398799E+12	6.409936E-15	NaN
328	1.000000	0.050341	7.36827e+06	-55039.1	955.818	-29742.7	0.000000	0.000000	6.050776	-0.059480	NaN	0.000000	0.001722	0.001624	28.0794	0.061259	0.001913	32.0155	68.2171	-164.755	-0.037277	0.048946	-0.960712	-0.962107	-0.059480	32.0155	-0.959319	-6.422201E+12	9.261552E-15	NaN
328	1.000000	0.058322	7.36827e+06	-55039.1	955.818	-29742.7	0.000000	0.000000	6.058758	-0.022403	NaN	0.000000	0.001763	0.001683	28.0796	0.040419	0.002025	19.9568	-165.21	-163.119	-0.020374	0.057013	-0.952731	-0.954040	-0.022403	19.9568	-0.951889	-5.099247E+12	4.393320E-15	NaN
328	1.000000	0.066337	7.36827e+06	-55039.1	955.818	-29742.7	0.000000	0.000000	6.066775	0.023937	NaN	0.000000	0.001693	0.001648	28.0795	0.037324	0.002034	18.3518	-47.9973	-165.031	0.039728	0.064990	-0.944716	-0.946063	0.023937	18.3518	-0.945694	-4.206829E+12	-5.690034E-15	NaN
328	1.000000	0.074337	7.36827e+06	-55039.1	955.817	-29742.7	0.000000	0.000000	6.074775	0.008005	NaN	0.000000	0.001700	0.001650	28.0794	0.096736	0.001947	49.6953	-133.12	-166.258	0.026176	0.073051	-0.936716	-0.938002	0.008005	49.6953	-0.936837	-3.194917E+12	-2.505389E-15	NaN
328	1.000000	0.082344	7.36827e+06	-55039.1	955.817	-29742.7	0.000000	0.000000	6.082783	0.045937	NaN	0.000000	0.001683	0.001658	28.0792	0.017054	0.001864	9.149485	2.999677	-167.653	0.037637	0.080990	-0.928709	-0.930063	0.045937	9.149485	-0.932475	-2.789929E+12	-1.646524E-14	NaN
328	1.000000	0.090296	7.36827e+06	-55039.1	955.818	-29742.7	0.000000	0.000000	6.090734	0.018949	NaN	0.000000	0.001701	0.001646	28.0791	0.029814	0.001984	15.0287	-144.535	-168.015	-0.030560	0.089022	-0.920757	-0.922031	0.018949	15.0287	-0.921702	-1.996132E+12	-9.492900E-15	NaN
328	1.000000	0.098331	7.36827e+06	-55039.1	955.818	-29742.7	0.000000	0.000000	6.098767	-0.013357	NaN	0.000000	0.001684	0.001608	28.0795	0.067381	0.002022	33.3265	2.762541	-166.462	-0.037677	0.097027	-0.912722	-0.914026	-0.013357	33.3265	-0.912422	-1.495798E+12	8.929982E-15	NaN
328	1.000000	0.106351	7.36827e+06	-55039.1	955.819	-29742.7	0.000000	0.000000	6.106787	-0.036185	NaN	0.000000	0.001649	0.001634	28.0791	0.034954	0.001962	17.8189	-116.652	-166.723	-0.037430	0.105003	-0.904702	-0.906050	-0.036185	17.8189	-0.903179	-1.122053E+12	3.224887E-14	NaN
328	1.000000	0.114338	7.36827e+06	-55039.1	955.818	-29742.7	0.000000	0.000000	6.114775	-0.006624	NaN	0.000000	0.001658	0.001648	28.0806	0.083044	0.001954	42.4976	-67.8843	-163.165	-0.013475	0.113059	-0.896715	-0.897994	-0.006624	42.4976	-0.896598	-9.143129E+11	7.245083E-15	NaN
328	1.000000	0.122312	7.36827e+06	-55039.1	955.819	-29742.7	0.000000	0.000000	6.122748	-0.023104	NaN	0.000000	0.001675	0.001642	28.0806	0.034844	0.002139	16.2869	-78.7776	-166.402	0.008970	0.121067	-0.888741	-0.889986	-0.023104	16.2869	-0.887677	-6.926466E+11	3.335641E-14	NaN
328	1.000000	0.130361	7.36827e+06	-55039.1	955.818	-29742.7	0.000000	0.000000	6.130796	-0.072530	NaN	0.000000	0.001682	0.001627	28.0802	0.013785	0.002027	6.802119	-26.0235	-163.237	-0.010673	0.129029	-0.880692	-0.882024	-0.072530	6.802119	-0.872695	-4.344069E+11	1.669633E-13	NaN
328	1.000000	0.138356	7.36827e+06	-55039.1	955.818	-29742.7	0.000000	0.000000	6.138789	-0.114018	NaN	0.000000	0.001686	0.001643	28.0806	0.098221	0.001908	51.4693	-45.5237	-166.38	-0.075537	0.137044	-0.872697	-0.874009	-0.114018	51.4693	-0.871035	-4.125224E+11	2.763931E-13	NaN
328	1.000000	0.146369	7.36827e+06	-55039.1	955.817	-29742.7	0.000000	0.000000	6.146806	-0.003509	NaN	0.000000	0.001705	0.001670	28.0802	0.044895	0.001923	23.3493	162.52	-167.955	-0.046391	0.145088	-0.864684	-0.865965	-0.003509	23.3493	-0.864571	-3.372800E+11	1.040445E-14	NaN
328	1.000000	0.154345	7.36827e+06	-55039.1	955.819	-29742.7	0.000000	0.000000	6.154782	-0.002435	NaN	0.000000	0.001699	0.001648	28.0803	0.075646	0.002029	37.2901	11.6648	-165.687	0.009750	0.153005	-0.856708	-0.858048	-0.002435	37.2901	-0.856659	-2.635712E+11	9.236999E-15	NaN
328	1.000000	0.162366	7.36827e+06	-55039.1	955.818	-29742.7	0.000000	0.000000	6.162802	-0.018968	NaN	0.000000	0.001732	0.001646	28.0804	0.001235	0.002001	0.617086	74.6364	-166.368	-0.106693	0.161060	-0.848687	-0.849993	-0.018968	0.617086	-0.825634	-1.001378E+11	1.894170E-13	NaN
328	1.000000	0.170327	7.36827e+06	-55039.1	955.818	-29742.7	0.000000	0.000000	6.170760	-0.094337	NaN	0.000000	0.001763	0.001665	28.0801	0.075316	0.001937	38.8823	132.466	-166.096	-0.004736	0.169039	-0.840726	-0.842014	-0.094337	38.8823	-0.838907	-1.515236E+11	6.225913E-13	NaN
328	1.000000	0.178350	7.36827e+06	-55039.1	955.818	-29742.7	0.000000	0.000000	6.178786	-0.031153	NaN	0.000000	0.001755	0.001615	28.0805	0.046386	0.001912	24.2577	-118.789	-164.552	0.025808	0.177034	-0.832703	-0.834019	-0.031153	24.2577	-0.831740	-1.211629E+11	2.571165E-13	NaN
328	1.000000	0.186363	7.36827e+06	-55039.1	955.818	-29742.7	0.000000	0.000000	6.186801	0.016938	NaN	0.000000	0.001726	0.001669	28.0801	0.021719	0.002028	10.7089	-47.1906	-163.611	0.035025	0.185011	-0.824690	-0.826042	0.016938	10.7089	-0.825876	-1.008980E+11	-1.678678E-13	NaN
328	1.000000	0.194351	7.36827e+06	-55039.1	955.819	-29742.7	0.000000	0.000000	6.194789	0.015101	NaN	0.000000	0.001725	0.001658	28.0803	0.051007	0.002099	24.2965	-13.5849	-166.312	-0.062507	0.193030	-0.816702	-0.818023	0.015101	24.2965	-0.817168	-7.687833E+10	-1.964338E-13	NaN
328	1.000000	0.202377	7.36827e+06	-55039.1	955.818	-29742.7	0.000000	0.000000	6.202814	0.000377	NaN	0.000000	0.001739	0.001666	28.0802	0.106967	0.002072	51.6236	-73.1958	-166.506	0.068729	0.201091	-0.808676	-0.809962	0.000377	51.6236	-0.808682	-5.897725E+10	-6.396224E-15	NaN
328	1.000000	0.210412	7.36827e+06	-55039.1	955.818	-29742.7	0.000000	0.000000	6.210850	0.006902	NaN	0.000000	0.001765	0.001623	28.0804	0.057956	0.002021	28.6728	140.055	-163.413	0.015017	0.209091	-0.800641	-0.801962	0.006902	28.6728	-0.800821	-4.613298E+10	-1.496109E-13	NaN
328	1.000000	0.218393	7.36827e+06	-55039.1	955.819	-29742.7	0.000000	0.000000	6.218832	0.043953	NaN	0.000000	0.001752	0.001609	28.0803	0.017365	0.002075	8.370361	91.604	-166.46	0.051818	0.217123	-0.792660	-0.793930	0.043953	8.370361	-0.796599	-4.042851E+10	-1.087185E-12	NaN
328	1.000000	0.226405	7.36827e+06	-55039.1	955.817	-29742.7	0.000000	0.000000	6.226839	-0.088572	NaN	0.000000	0.001752	0.001597	28.0803	0.079235	0.002036	38.9236	134.75	-169.501	-0.125137	0.225054	-0.784648	-0.785999	-0.088572	38.9236	-0.782941	-2.637531E+10	3.358148E-12	NaN
328	1.000000	0.234379	7.36827e+06	-55039.1	955.818	-29742.7	0.000000	0.000000	6.234815	-0.033067	NaN	0.000000	0.001740	0.001666	28.0806	0.204173	0.001974	103.435	-128.259	-165.429	-0.026851	0.233097	-0.776674	-0.777956	-0.033067	103.435	-0.776434	-2.151634E+10	1.536832E-12	NaN
328	1.000000	0.242412	7.36827e+06	-55039.1	955.819	-29742.7	0.000000	0.000000	6.242848	-0.035769	NaN	0.000000	0.001747	0.001597	28.0803	0.040748	0.001983	20.5494	31.2529	-165.95	-0.019364	0.241088	-0.768641	-0.769964	-0.035769	20.5494	-0.767336	-1.618366E+10	2.210176E-12	NaN
328	1.000000	0.250419	7.36827e+06	-55039.1	955.818	-29742.7	0.000000	0.000000	6.250857	0.014860	NaN	0.000000	0.001671	0.001639	28.0792	0.036780	0.001966	18.7069	137.724	-168.891	0.050582	0.249089	-0.760634	-0.761964	0.014860	18.7069	-0.761230	-1.336700E+10	-1.111683E-12	NaN
328	1.000000	0.258409	7.36827e+06	-55039.1	955.818	-29742.7	0.000000	0.000000	6.258845	-0.040946	NaN	0.000000	0.001698	0.001638	28.0791	0.082115	0.002114	38.838	158.446	-166.455	-0.054811	0.257080	-0.752644	-0.753973	-0.040946	38.838	-0.751853	-9.964241E+9	4.109317E-12	NaN
328	1.000000	0.266372	7.36827e+06	-55039.1	955.818	-29742.7	0.000000	0.000000	6.266811	0.025203	NaN	0.000000	0.001685	0.001669	28.0793	0.110705	0.002144	51.6431	174.815	-164.922	-0.052304	0.265102	-0.744681	-0.745951	0.025203	51.6431	-0.745047	-8.049823E+9	-3.130847E-12	NaN
328	1.000000	0.274400	7.36827e+06	-55039.1	955.818	-29742.7	0.000000	0.000000	6.274837	-0.014943	NaN	0.000000	0.001669	0.001665	28.0794	0.122810	0.002001	61.3617	-71.9241	-166.473	0.005484	0.273103	-0.736653	-0.737950	-0.014943	61.3617	-0.736471	-6.151448E+9	2.429253E-12	NaN
328	1.000000	0.282396	7.36827e+06	-55039.1	955.818	-29742.7	0.000000	0.000000	6.282833	-0.016667	NaN	0.000000	0.001667	0.001641	28.0794	0.039198	0.002073	18.9068	134.27	-167.224	0.018514	0.281075	-0.728657	-0.729978	-0.016667	18.9068	-0.727995	-4.715035E+9	3.534887E-12	NaN
328	1.000000	0.290402	7.36827e+06	-55039.1	955.818	-29742.7	0.000000	0.000000	6.290840	0.020294	NaN	0.000000	0.001696	0.001617	28.0794	0.059202	0.001910	30.9966	157.618	-166.318	-0.065457	0.289104	-0.720651	-0.721949	0.020294	30.9966	-0.721142	-3.802326E+9	-5.337381E-12	NaN
328	1.000000	0.298431	7.36827e+06	-55039.1	955.819	-29742.7	0.000000	0.000000	6.298867	-0.041749	NaN	0.000000	0.001688	0.001634	28.0793	0.006271	0.002063	3.039741	-59.027	-171.214	0.003542	0.297096	-0.712622	-0.713957	-0.041749	3.039741	-0.702321	-2.104854E+9	1.983455E-11	NaN
328	1.000000	0.306424	7.36827e+06	-55039.1	955.818	-29742.7	0.000000	0.000000	6.306857	-0.089676	NaN	0.000000	0.001714	0.001675	28.0795	0.042248	0.001946	21.7157	133.91	-167.56	-0.101920	0.305114	-0.704629	-0.705939	-0.089676	21.7157	-0.701532	-2.053317E+9	4.367350E-11	NaN
328	1.000000	0.314425	7.36827e+06	-55039.1	955.819	-29742.7	0.000000	0.000000	6.314864	0.043322	NaN	0.000000	0.001693	0.001651	28.0793	0.053449	0.002024	26.4021	-135.491	-165.597	0.048015	0.313102	-0.696628	-0.697951	0.043322	26.4021	-0.697858	-1.829288E+9	-2.368233E-11	NaN
328	1.000000	0.322413	7.36827e+06	-55039.1	955.819	-29742.7	0.000000	0.000000	6.322850	-0.028822	NaN	0.000000	0.001700	0.001624	28.0795	0.053403	0.002029	26.3147	-92.2388	-166.877	-0.022829	0.321150	-0.688640	-0.689903	-0.028822	26.3147	-0.687818	-1.333823E+9	2.160820E-11	NaN
328	1.000000	0.330446	7.36827e+06	-55039.1	955.819	-29742.7	0.000000	0.000000	6.330883	-0.020178	NaN	0.000000	0.001713	0.001634	28.0796	0.083354	0.001949	42.7723	51.5063	-169.658	-0.060200	0.329068	-0.680607	-0.681985	-0.020178	42.7723	-0.680253	-1.051150E+9	1.919621E-11	NaN
328	1.000000	0.338423	7.36827e+06	-55039.1	955.817	-29742.7	0.000000	0.000000	6.338856	-0.093095	NaN	0.000000	0.001692	0.001660	28.0793	0.057907	0.001965	29.4618	70.4007	-165.489	-0.073162	0.337124	-0.672630	-0.673929	-0.093095	29.4618	-0.670260	-7.672745E+8	1.213316E-10	NaN
328	1.000000	0.346432	7.36827e+06	-55039.1	955.819	-29742.7	0.000000	0.000000	6.346871	0.038947	NaN	0.000000	0.001719	0.001614	28.0796	0.023944	0.001986	12.0551	-32.05	-165.162	0.021409	0.345132	-0.664621	-0.665921	0.038947	12.0551	-0.667044	-6.933183E+8	-5.617412E-11	NaN
328	1.000000	0.354423	7.36827e+06	-55039.1	955.818	-29742.7	0.000000	0.000000	6.354860	-0.007522	NaN	0.000000	0.001714	0.001654	28.0791	0.008669	0.001871	4.632703	48.1831	-165.393	-0.048316	0.353122	-0.656630	-0.657931	-0.007522	4.632703	-0.655412	-4.804097E+8	1.565765E-11	NaN
328	1.000000	0.362442	7.36827e+06	-55039.1	955.818	-29742.7	0.000000	0.000000	6.362877	-0.054341	NaN	0.000000	0.001712	0.001643	28.0794	0.034477	0.001988	17.3426	28.0628	-163.412	-0.077500	0.361105	-0.648611	-0.649948	-0.054341	17.3426	-0.646261	-3.598945E+8	1.509928E-10	NaN
328	1.000000	0.370440	7.36827e+06	-55039.1	955.819	-29742.7	0.000000	0.000000	6.370874	-0.063060	NaN	0.000000	0.001685	0.001670	28.0794	0.021832	0.002026	10.7782	-106.71	-167.79	-0.061782	0.369105	-0.640613	-0.641948	-0.063060	10.7782	-0.636225	-2.621149E+8	2.405818E-10	NaN
328	1.000000	0.378453	7.36827e+06	-55039.1	955.818	-29742.7	0.000000	0.000000	6.378892	0.033602	NaN	0.000000	0.001676	0.001646	28.0793	0.125204	0.002079	60.2346	25.0816	-167.066	0.067349	0.377094	-0.632600	-0.633959	0.033602	60.2346	-0.633018	-2.368476E+8	-1.418700E-10	NaN
328	1.000000	0.386466	7.36827e+06	-55039.1	955.818	-29742.7	0.000000	0.000000	6.386902	-0.041521	NaN	0.000000	0.001641	0.001681	28.0808	0.081407	0.002020	40.3062	-75.2986	-166.237	-0.083959	0.385145	-0.624587	-0.625908	-0.041521	40.3062	-0.623814	-1.770311E+8	2.345429E-10	NaN
328	1.000000	0.394495	7.36827e+06	-55039.1	955.819	-29742.7	0.000000	0.000000	6.394933	0.017365	NaN	0.000000	0.001637	0.001660	28.0805	0.029553	0.001938	15.2518	-63.1621	-166.073	0.048754	0.393147	-0.616558	-0.617906	0.017365	15.2518	-0.617411	-1.445602E+8	-1.201206E-10	NaN
328	1.000000	0.402431	7.36827e+06	-55039.1	955.818	-29742.7	0.000000	0.000000	6.402868	-0.010389	NaN	0.000000	0.001651	0.001662	28.0805	0.068212	0.001976	34.5236	168.057	-167.225	-0.028129	0.401134	-0.608622	-0.609919	-0.010389	34.5236	-0.608397	-1.086560E+8	9.560945E-11	NaN
328	1.000000	0.410414	7.36827e+06	-55039.1	955.818	-29742.7	0.000000	0.000000	6.410850	-0.043506	NaN	0.000000	0.001674	0.001652	28.0808	0.040500	0.002060	19.6583	-41.4958	-166.123	-0.068819	0.409130	-0.600639	-0.601923	-0.043506	19.6583	-0.598979	-8.061131E+7	5.396951E-10	NaN
328	1.000000	0.418458	7.36827e+06	-55039.1	955.818	-29742.7	0.000000	0.000000	6.418893	-0.051259	NaN	0.000000	0.001651	0.001657	28.0805	0.035779	0.002013	17.7765	30.9943	-166.12	-0.024697	0.417149	-0.592595	-0.593904	-0.051259	17.7765	-0.590432	-6.146461E+7	8.339539E-10	NaN
328	1.000000	0.426458	7.36827e+06	-55039.1	955.818	-29742.7	0.000000	0.000000	6.426895	-0.016581	NaN	0.000000	0.001655	0.001622	28.081	0.135764	0.001943	69.8798	31.8185	-167.503	-0.000435	0.425112	-0.584595	-0.585941	-0.016581	69.8798	-0.584417	-5.077781E+7	3.265443E-10	NaN
328	1.000000	0.434482	7.36827e+06	-55039.1	955.819	-29742.7	0.000000	0.000000	6.434920	0.020196	NaN	0.000000	0.001642	0.001634	28.0804	0.075598	0.002010	37.608	-20.6123	-165.846	0.019696	0.433142	-0.576571	-0.577911	0.020196	37.608	-0.576974	-4.008214E+7	-5.038634E-10	NaN
328	1.000000	0.442472	7.36827e+06	-55039.1	955.818	-29742.7	0.000000	0.000000	6.442909	-0.006011	NaN	0.000000	0.001665	0.001648	28.0806	0.100666	0.001984	50.7292	160.44	-167.211	-0.036665	0.441142	-0.568581	-0.569911	-0.006011	50.7292	-0.568492	-3.060533E+7	1.963951E-10	NaN
328	1.000000	0.450517	7.36827e+06	-55039.1	955.818	-29742.7	0.000000	0.000000	6.450952	-0.044603	NaN	0.000000	0.001701	0.001633	28.0805	0.146607	0.002017	72.669	139.763	-164.357	-0.099809	0.449174	-0.560536	-0.561879	-0.044603	72.669	-0.560076	-2.341138E+7	1.905206E-9	NaN
328	1.000000	0.458490	7.36827e+06	-55039.1	955.818	-29742.7	0.000000	0.000000	6.458926	-0.030185	NaN	0.000000	0.001651	0.001658	28.0805	0.114071	0.001965	58.0631	-32.2713	-167.079	0.011904	0.457170	-0.552563	-0.553883	-0.030185	58.0631	-0.552173	-1.819911E+7	1.658619E-9	NaN
328	1.000000	0.466497	7.36828e+06	-55039.1	955.818	-29742.7	0.000000	0.000000	6.466932	-0.054046	NaN	0.000000	0.001680	0.001622	28.081	0.070689	0.001989	35.5478	130.634	-168.33	-0.046942	0.465181	-0.544556	-0.545872	-0.054046	35.5478	-0.543415	-1.376308E+7	3.926885E-9	NaN
328	1.000000	0.474487	7.36828e+06	-55039.1	955.819	-29742.7	0.000000	0.000000	6.474923	-0.027885	NaN	0.000000	0.001635	0.001656	28.0807	0.024402	0.001953	12.4947	-36.1063	-168.302	-0.010317	0.473185	-0.536566	-0.537868	-0.027885	12.4947	-0.534892	-1.048317E+7	2.660014E-9	NaN
328	1.000000	0.482519	7.36828e+06	-55039.1	955.818	-29742.7	0.000000	0.000000	6.482954	-0.059305	NaN	0.000000	0.001649	0.001659	28.0809	0.048194	0.002006	24.0265	-104.505	-165.088	-0.028415	0.481181	-0.528534	-0.529872	-0.059305	24.0265	-0.526683	-8.06296e+06	7.355259E-9	NaN
328	1.000000	0.490494	7.36828e+06	-55039.1	955.818	-29742.7	0.000000	0.000000	6.490930	-0.026281	NaN	0.000000	0.001679	0.001664	28.0807	0.058923	0.001887	31.2313	-46.9682	-166.461	-0.023349	0.489184	-0.520559	-0.521869	-0.026281	31.2313	-0.519928	-6.49519e+06	4.046167E-9	NaN
328	1.000000	0.498519	7.36828e+06	-55039.1	955.818	-29742.7	0.000000	0.000000	6.498957	0.013833	NaN	0.000000	0.001647	0.001651	28.0808	0.079707	0.002033	39.1978	-166.358	-166.809	-0.001987	0.497198	-0.512534	-0.513855	0.013833	39.1978	-0.512798	-5.16874e+06	-2.676330E-9	NaN
328	1.000000	0.506481	7.36828e+06	-55039.1	955.819	-29742.7	0.000000	0.000000	6.506916	-0.054646	NaN	0.000000	0.001648	0.001660	28.0808	0.080087	0.002051	39.0503	178.9	-165.289	-0.092195	0.505163	-0.504572	-0.505890	-0.054646	39.0503	-0.503523	-3.83839e+06	1.423671E-8	NaN
328	1.000000	0.514502	7.36828e+06	-55039.1	955.819	-29742.7	0.000000	0.000000	6.514938	-0.014345	NaN	0.000000	0.001659	0.001629	28.0807	0.055633	0.002023	27.4984	123.618	-166.389	-0.039472	0.513203	-0.496551	-0.497850	-0.014345	27.4984	-0.496160	-3.02992e+06	4.734569E-9	NaN
328	1.000000	0.522514	7.36828e+06	-55039.1	955.818	-29742.7	0.000000	0.000000	6.522949	-0.038917	NaN	0.000000	0.001666	0.001654	28.0797	0.030076	0.002020	14.8889	-164.891	-167.457	0.020624	0.521215	-0.488539	-0.489838	-0.038917	14.8889	-0.486579	-2.22624e+06	1.748124E-8	NaN
328	1.000000	0.530500	7.36828e+06	-55039.1	955.818	-29742.7	0.000000	0.000000	6.530935	-0.050637	NaN	0.000000	0.001627	0.001666	28.0793	0.013686	0.001913	7.155989	7.987617	-162.571	-0.052727	0.529237	-0.480553	-0.481816	-0.050637	7.155989	-0.475246	-1.54507e+06	3.277321E-8	NaN
328	1.000000	0.538530	7.36828e+06	-55039.1	955.82	-29742.7	0.000000	0.000000	6.538966	-0.028957	NaN	0.000000	0.001662	0.001633	28.0797	0.117430	0.002025	57.9898	-56.5668	-169.211	0.038477	0.537191	-0.472523	-0.473862	-0.028957	57.9898	-0.472148	-1.39808e+06	2.071211E-8	NaN
328	1.000000	0.546525	7.36828e+06	-55039.1	955.819	-29742.7	0.000000	0.000000	6.546960	-0.055413	NaN	0.000000	0.001650	0.001655	28.0794	0.072908	0.001933	37.7259	-170.737	-164.645	-0.058010	0.545208	-0.464528	-0.465845	-0.055413	37.7259	-0.463426	-1.05475e+06	5.253663E-8	NaN
328	1.000000	0.554520	7.36828e+06	-55039.1	955.818	-29742.7	0.000000	0.000000	6.554959	0.041447	NaN	0.000000	0.001645	0.001635	28.0795	0.164143	0.002062	79.6156	-149.287	-164.259	0.019432	0.553184	-0.456533	-0.457869	0.041447	79.6156	-0.456923	-854607	-4.849841E-8	NaN
328	1.000000	0.562520	7.36828e+06	-55039.1	955.818	-29742.7	0.000000	0.000000	6.562957	-0.014576	NaN	0.000000	0.001662	0.001656	28.0794	0.063806	0.002019	31.6097	-123.71	-166.697	-0.137436	0.561204	-0.448533	-0.449849	-0.014576	31.6097	-0.448187	-643875	2.263799E-8	NaN
328	1.000000	0.570540	7.36828e+06	-55039.1	955.818	-29742.7	0.000000	0.000000	6.570978	0.017703	NaN	0.000000	0.001653	0.001628	28.0796	0.046471	0.002023	22.9669	-93.0201	-167.021	-0.045347	0.569207	-0.440513	-0.441846	0.017703	22.9669	-0.441091	-511395	-3.461641E-8	NaN
328	1.000000	0.578513	7.36828e+06	-55039.1	955.818	-29742.7	0.000000	0.000000	6.578948	-0.054600	NaN	0.000000	0.001667	0.001669	28.0795	0.018673	0.001909	9.783265	8.757216	-166.351	-0.032124	0.577240	-0.432540	-0.433813	-0.054600	9.783265	-0.428354	-337889	1.615925E-7	NaN
328	1.000000	0.586553	7.36828e+06	-55039.1	955.818	-29742.7	0.000000	0.000000	6.586990	0.001456	NaN	0.000000	0.001659	0.001653	28.0795	0.074246	0.002024	36.6759	-93.1267	-169.132	0.061711	0.585279	-0.424500	-0.425774	0.001456	36.6759	-0.424530	-298280	-4.882504E-9	NaN
328	1.000000	0.594559	7.36828e+06	-55039.1	955.818	-29742.7	0.000000	0.000000	6.594996	-0.006933	NaN	0.000000	0.001650	0.001611	28.0797	0.019099	0.002056	9.291500	-125.373	-168.429	0.102649	0.593230	-0.416494	-0.417823	-0.006933	9.291500	-0.415934	-225278	3.077686E-8	NaN
328	1.000000	0.602558	7.36828e+06	-55039.1	955.818	-29742.7	0.000000	0.000000	6.602992	-0.086321	NaN	0.000000	0.001675	0.001656	28.0795	0.086838	0.002123	40.8981	91.8074	-167.352	-0.104076	0.601250	-0.408495	-0.409803	-0.086321	40.8981	-0.406912	-167677	5.148067E-7	NaN
328	1.000000	0.610549	7.36828e+06	-55039.1	955.818	-29742.7	0.000000	0.000000	6.610984	-0.047568	NaN	0.000000	0.001637	0.001668	28.0797	0.044181	0.002024	21.8247	58.3603	-164.25	-0.059872	0.609234	-0.400504	-0.401819	-0.047568	21.8247	-0.398870	-128786	3.693563E-7	NaN
328	1.000000	0.618571	7.36828e+06	-55039.1	955.818	-29742.7	0.000000	0.000000	6.619008	-0.004720	NaN	0.000000	0.001671	0.001685	28.0798	0.172326	0.002118	81.3541	147.898	-163.99	-0.029002	0.617241	-0.392482	-0.393812	-0.004720	81.3541	-0.392439	-104241	4.527797E-8	NaN
328	1.000000	0.626582	7.36828e+06	-55039.1	955.819	-29742.7	0.000000	0.000000	6.627018	-0.036801	NaN	0.000000	0.001655	0.001690	28.0795	0.073524	0.001970	37.313	-116.014	-165.519	-0.086608	0.625261	-0.384471	-0.385792	-0.036801	37.313	-0.383731	-78235.2	4.703863E-7	NaN
328	1.000000	0.634598	7.36828e+06	-55039.1	955.819	-29742.7	0.000000	0.000000	6.635033	-0.069908	NaN	0.000000	0.001667	0.001683	28.0796	0.080917	0.001962	41.234	140.465	-164.627	-0.007793	0.633196	-0.376454	-0.377857	-0.069908	41.234	-0.375183	-58979.5	1.185291E-6	NaN
328	1.000000	0.642571	7.36828e+06	-55039.1	955.819	-29742.7	0.000000	0.000000	6.643006	-0.058521	NaN	0.000000	0.001674	0.001681	28.0792	0.063206	0.001963	32.2046	136.925	-164.879	-0.044073	0.641261	-0.368482	-0.369792	-0.058521	32.2046	-0.367119	-45146.2	1.296252E-6	NaN
328	1.000000	0.650586	7.36828e+06	-55039.1	955.819	-29742.7	0.000000	0.000000	6.651019	-0.089036	NaN	0.000000	0.001679	0.001683	28.0793	0.035772	0.001964	18.2146	142.921	-168.443	-0.137269	0.649244	-0.360467	-0.361809	-0.089036	18.2146	-0.356801	-32031.5	2.779644E-6	NaN
328	1.000000	0.658553	7.36828e+06	-55039.1	955.818	-29742.7	0.000000	0.000000	6.658988	-0.059007	NaN	0.000000	0.001625	0.001670	28.0807	0.131405	0.002003	65.592	146.452	-169.556	-0.024412	0.657272	-0.352500	-0.353781	-0.059007	65.592	-0.351826	-27132.4	2.174779E-6	NaN
328	1.000000	0.666608	7.36828e+06	-55039.1	955.818	-29742.7	0.000000	0.000000	6.667042	-0.066789	NaN	0.000000	0.001657	0.001676	28.0806	0.073129	0.001988	36.7893	-78.5457	-165.489	-0.078695	0.665247	-0.344445	-0.345805	-0.066789	36.7893	-0.343084	-20252.3	3.297866E-6	NaN
328	1.000000	0.674572	7.36828e+06	-55039.1	955.819	-29742.7	0.000000	0.000000	6.675008	-0.027429	NaN	0.000000	0.001667	0.001684	28.081	0.033478	0.001875	17.856	-76.7324	-164.89	-0.137307	0.673251	-0.336481	-0.337802	-0.027429	17.856	-0.335329	-15609.5	1.757207E-6	NaN
328	1.000000	0.682587	7.36828e+06	-55039.1	955.818	-29742.7	0.000000	0.000000	6.683024	-0.012854	NaN	0.000000	0.001695	0.001697	28.0806	0.103116	0.002052	50.2569	177.522	-163.469	0.013639	0.681295	-0.328466	-0.329758	-0.012854	50.2569	-0.328274	-12307.3	1.044455E-6	NaN
328	1.000000	0.690588	7.36828e+06	-55039.1	955.818	-29742.7	0.000000	0.000000	6.691021	-0.112428	NaN	0.000000	0.001651	0.001687	28.0809	0.065309	0.002089	31.2651	-125.768	-162.42	-0.115316	0.689280	-0.320464	-0.321773	-0.112428	31.2651	-0.317768	-8625.02	1.303516E-5	NaN
328	1.000000	0.698554	7.36828e+06	-55039.1	955.817	-29742.7	0.000000	0.000000	6.698992	0.005485	NaN	0.000000	0.001649	0.001714	28.0808	0.012748	0.002174	5.862499	148.407	-165.939	-0.032393	0.697245	-0.312499	-0.313808	0.005485	5.862499	-0.313200	-7385.4	-7.426878E-7	NaN
328	1.000000	0.706566	7.36828e+06	-55039.1	955.818	-29742.7	0.000000	0.000000	6.707005	0.058914	NaN	0.000000	0.001660	0.001721	28.0806	0.071775	0.001935	37.0977	150.174	-166.033	0.043797	0.705284	-0.304487	-0.305769	0.058914	37.0977	-0.305678	-5715.08	-1.030849E-5	NaN
328	1.000000	0.714582	7.36828e+06	-55039.1	955.819	-29742.7	0.000000	0.000000	6.715023	0.097516	NaN	0.000000	0.001675	0.001729	28.081	0.070419	0.001876	37.5331	-76.28	-164.061	0.065640	0.713280	-0.296471	-0.297773	0.097516	37.5331	-0.298420	-4457.62	-2.187622E-5	NaN
328	1.000000	0.722598	7.36828e+06	-55039.1	955.817	-29742.7	0.000000	0.000000	6.723034	-0.026048	NaN	0.000000	0.001693	0.001715	28.0806	0.045312	0.002073	21.8564	-176.498	-167.102	-0.009002	0.721334	-0.288455	-0.289719	-0.026048	21.8564	-0.287561	-3067.16	8.492505E-6	NaN
328	1.000000	0.730621	7.36828e+06	-55039.1	955.819	-29742.7	0.000000	0.000000	6.731054	-0.107081	NaN	0.000000	0.001698	0.001723	28.0809	0.050662	0.002150	23.5658	-147.339	-162.851	-0.088448	0.729280	-0.280432	-0.281773	-0.107081	23.5658	-0.277024	-2128.23	5.031439E-5	NaN
328	1.000000	0.738568	7.36828e+06	-55039.1	955.818	-29742.7	0.000000	0.000000	6.739007	0.039768	NaN	0.000000	0.001682	0.001710	28.0806	0.139741	0.002000	69.8593	-101.477	-169.465	0.005032	0.737253	-0.272485	-0.273800	0.039768	69.8593	-0.272912	-1843.97	-2.156674E-5	NaN
328	1.000000	0.746627	7.36828e+06	-55039.1	955.818	-29742.7	0.000000	0.000000	6.747062	-0.040099	NaN	0.000000	0.001685	0.001719	28.0805	0.108930	0.002017	53.9939	-89.7668	-165.179	0.044592	0.745257	-0.264426	-0.265796	-0.040099	53.9939	-0.263869	-1343.15	2.985428E-5	NaN
328	1.000000	0.754629	7.36828e+06	-55039.1	955.817	-29742.7	0.000000	0.000000	6.755066	-0.012334	NaN	0.000000	0.001663	0.001694	28.0807	0.054422	0.002002	27.1833	-168.405	-164.831	-0.075628	0.753297	-0.256424	-0.257756	-0.012334	27.1833	-0.256084	-1020.45	1.208651E-5	NaN
328	1.000000	0.762614	7.36828e+06	-55039.1	955.818	-29742.7	0.000000	0.000000	6.763050	-0.040914	NaN	0.000000	0.001655	0.001723	28.0808	0.068022	0.001867	36.4415	104.603	-169.347	-0.135605	0.761264	-0.248439	-0.249789	-0.040914	36.4415	-0.247597	-754.662	5.421524E-5	NaN
328	1.000000	0.770613	7.36828e+06	-55039.1	955.818	-29742.7	0.000000	0.000000	6.771050	-0.018292	NaN	0.000000	0.001655	0.001739	28.081	0.108990	0.001979	55.0803	-71.3046	-164.096	-0.139064	0.769283	-0.240440	-0.241770	-0.018292	55.0803	-0.240191	-578.803	3.160281E-5	NaN
328	1.000000	0.778649	7.36828e+06	-55039.1	955.819	-29742.7	0.000000	0.000000	6.779085	-0.042650	NaN	0.000000	0.001669	0.001734	28.0807	0.114857	0.002048	56.0939	135.712	-167.026	-0.066493	0.777337	-0.232404	-0.233716	-0.042650	56.0939	-0.231833	-427.993	9.965159E-5	NaN
328	1.000000	0.786603	7.36828e+06	-55039.1	955.819	-29742.7	0.000000	0.000000	6.787038	-0.060341	NaN	0.000000	0.001706	0.001727	28.0807	0.090815	0.001941	46.7865	130.346	-167.818	-0.015171	0.785305	-0.224450	-0.225748	-0.060341	46.7865	-0.223482	-315.65	0.000191	NaN
328	1.000000	0.794640	7.36828e+06	-55039.1	955.818	-29742.7	0.000000	0.000000	6.795075	-0.049327	NaN	0.000000	0.001679	0.001681	28.0794	0.034998	0.001998	17.5202	-55.3864	-167.936	-0.058222	0.793335	-0.216413	-0.217718	-0.049327	17.5202	-0.214301	-225.045	0.000219	NaN
328	1.000000	0.802647	7.36828e+06	-55039.1	955.818	-29742.7	0.000000	0.000000	6.803084	-0.001282	NaN	0.000000	0.001705	0.001735	28.0793	0.063529	0.002016	31.5108	-94.6232	-166.211	-0.008922	0.801330	-0.208406	-0.209723	-0.001282	31.5108	-0.208376	-180.502	7.102660E-6	NaN
328	1.000000	0.810632	7.36828e+06	-55039.1	955.819	-29742.7	0.000000	0.000000	6.811070	-0.003844	NaN	0.000000	0.001694	0.001737	28.0795	0.047379	0.001956	24.2167	-158.048	-165.789	0.005087	0.809289	-0.200421	-0.201764	-0.003844	24.2167	-0.200302	-133.246	2.884670E-5	NaN
328	1.000000	0.818665	7.36828e+06	-55039.1	955.819	-29742.7	0.000000	0.000000	6.819101	-0.039321	NaN	0.000000	0.001738	0.001714	28.0796	0.080858	0.002079	38.8956	-160.541	-166.264	-0.026703	0.817300	-0.192388	-0.193753	-0.039321	38.8956	-0.191629	-95.7657	0.000411	NaN
328	1.000000	0.826651	7.36828e+06	-55039.1	955.818	-29742.7	0.000000	0.000000	6.827089	0.028321	NaN	0.000000	0.001677	0.001714	28.0797	0.109305	0.002020	54.1038	-168.624	-164.555	-0.092461	0.825351	-0.184402	-0.185702	0.028321	54.1038	-0.184795	-73.5654	-0.000385	NaN
328	1.000000	0.834648	7.36828e+06	-55039.1	955.819	-29742.7	0.000000	0.000000	6.835085	-0.006804	NaN	0.000000	0.001713	0.001715	28.0794	0.023295	0.001887	12.3456	-5.819021	-164.054	0.018277	0.833366	-0.176405	-0.177687	-0.006804	12.3456	-0.175992	-52.1203	0.000131	NaN
328	1.000000	0.842656	7.36828e+06	-55039.1	955.818	-29742.7	0.000000	0.000000	6.843093	-0.005416	NaN	0.000000	0.001658	0.001706	28.0795	0.100105	0.001964	50.9717	165.586	-169.882	0.013531	0.841372	-0.168397	-0.169681	-0.005416	50.9717	-0.168317	-38.4006	0.000141	NaN
328	1.000000	0.850630	7.36828e+06	-55039.1	955.819	-29742.7	0.000000	0.000000	6.851068	0.008372	NaN	0.000000	0.001679	0.001664	28.0794	0.084980	0.001938	43.8424	-164.816	-169.599	0.023616	0.849341	-0.160423	-0.161712	0.008372	43.8424	-0.160566	-28.0571	-0.000298	NaN
328	1.000000	0.858653	7.36828e+06	-55039.1	955.818	-29742.7	0.000000	0.000000	6.859091	0.007603	NaN	0.000000	0.001660	0.001693	28.0794	0.051114	0.001942	26.3178	77.3627	-166.655	-0.035784	0.857316	-0.152400	-0.153737	0.007603	26.3178	-0.152616	-20.2093	-0.000376	NaN
328	1.000000	0.866625	7.36828e+06	-55039.1	955.818	-29742.7	0.000000	0.000000	6.867063	0.020949	NaN	0.000000	0.001674	0.001699	28.0796	0.033443	0.002013	16.6161	-8.236709	-164.508	0.013842	0.865362	-0.144428	-0.145691	0.020949	16.6161	-0.145374	-14.8964	-0.001406	NaN
328	1.000000	0.874656	7.36828e+06	-55039.1	955.817	-29742.7	0.000000	0.000000	6.875091	-0.038840	NaN	0.000000	0.001624	0.001715	28.0792	0.033258	0.002033	16.3585	-52.3554	-166.947	-0.045637	0.873296	-0.136397	-0.137757	-0.038840	16.3585	-0.134617	-9.353356	0.004153	NaN
328	1.000000	0.882642	7.36828e+06	-55039.1	955.818	-29742.7	0.000000	0.000000	6.883076	-0.075601	NaN	0.000000	0.001680	0.001717	28.0796	0.091848	0.001882	48.7975	121.571	-168.269	-0.027666	0.881408	-0.128411	-0.129645	-0.075601	48.7975	-0.127249	-6.734645	0.011226	NaN
328	1.000000	0.890670	7.36828e+06	-55039.1	955.818	-29742.7	0.000000	0.000000	6.891108	0.003419	NaN	0.000000	0.001631	0.001693	28.0794	0.026890	0.001941	13.8559	77.1665	-166.526	0.083409	0.889315	-0.120383	-0.121738	0.003419	13.8559	-0.120568	-4.960562	-0.000689	NaN
328	1.000000	0.898681	7.36828e+06	-55039.1	955.818	-29742.7	0.000000	0.000000	6.899115	-0.081418	NaN	0.000000	0.001607	0.001700	28.0794	0.071626	0.002111	33.9279	-157.196	-162.923	-0.059031	0.897381	-0.112372	-0.113672	-0.081418	33.9279	-0.110573	-3.089803	0.026351	NaN
328	1.000000	0.906680	7.36828e+06	-55039.1	955.819	-29742.7	0.000000	0.000000	6.907119	0.048009	NaN	0.000000	0.001612	0.001710	28.0794	0.137913	0.001850	74.5631	-27.5125	-167.465	0.061408	0.905389	-0.104373	-0.105664	0.048009	74.5631	-0.104856	-2.333796	-0.020571	NaN
328	1.000000	0.914683	7.36828e+06	-55039.1	955.818	-29742.7	0.000000	0.000000	6.915120	-0.001555	NaN	0.000000	0.001676	0.001703	28.0794	0.079005	0.001949	40.542	-103.569	-164.652	0.064885	0.913331	-0.096370	-0.097722	-0.001555	40.542	-0.096341	-1.513065	0.001027	NaN
328	1.000000	0.922678	7.36828e+06	-55039.1	955.819	-29742.7	0.000000	0.000000	6.923114	-0.036475	NaN	0.000000	0.001649	0.001677	28.0799	0.121428	0.002088	58.1525	15.2052	-172.735	-0.052826	0.921339	-0.088375	-0.089714	-0.036475	58.1525	-0.087904	-0.964571	0.037815	NaN
328	1.000000	0.930672	7.36828e+06	-55039.1	955.818	-29742.7	0.000000	0.000000	6.931112	0.057551	NaN	0.000000	0.001649	0.001737	28.0805	0.093766	0.002042	45.9113	-25.9268	-167.821	-0.015306	0.929361	-0.080381	-0.081692	0.057551	45.9113	-0.081321	-0.667689	-0.086194	NaN
328	1.000000	0.938673	7.36828e+06	-55039.1	955.818	-29742.7	0.000000	0.000000	6.939112	0.043732	NaN	0.000000	0.001618	0.001686	28.0806	0.064696	0.002017	32.0776	150.638	-167.191	0.016670	0.937369	-0.072380	-0.073684	0.043732	32.0776	-0.073402	-0.419716	-0.104195	NaN
328	1.000000	0.946692	7.36828e+06	-55039.1	955.818	-29742.7	0.000000	0.000000	6.947125	-0.092494	NaN	0.000000	0.001629	0.001671	28.0806	0.119329	0.002005	59.5199	-171.771	-164.144	-0.067875	0.945394	-0.064361	-0.065659	-0.092494	59.5199	-0.063196	-0.221928	0.416777	NaN
328	1.000000	0.954698	7.36828e+06	-55039.1	955.818	-29742.7	0.000000	0.000000	6.955137	0.022310	NaN	0.000000	0.001651	0.001706	28.0805	0.060163	0.001991	30.2149	113.099	-164.153	0.063909	0.953376	-0.056355	-0.057677	0.022310	30.2149	-0.056908	-0.146537	-0.152250	NaN
328	1.000000	0.962674	7.36828e+06	-55039.1	955.818	-29742.7	0.000000	0.000000	6.963110	-0.038855	NaN	0.000000	0.001669	0.001679	28.081	0.127693	0.001967	64.9155	-45.8486	-164.451	0.003995	0.961371	-0.048379	-0.049682	-0.038855	64.9155	-0.047930	-0.078962	0.492071	NaN
328	1.000000	0.970667	7.36828e+06	-55039.1	955.819	-29742.7	0.000000	0.000000	6.971104	-0.006883	NaN	0.000000	0.001663	0.001699	28.0805	0.191612	0.002151	89.0838	-159.279	-168.189	0.021109	0.969437	-0.040386	-0.041616	-0.006883	89.0838	-0.040328	-0.046273	0.148741	NaN
328	1.000000	0.978698	7.36828e+06	-55039.1	955.818	-29742.7	0.000000	0.000000	6.979134	-0.028010	NaN	0.000000	0.001643	0.001711	28.0807	0.121071	0.002057	58.8551	-138.89	-167.954	-0.117886	0.977384	-0.032355	-0.033669	-0.028010	58.8551	-0.031998	-0.026203	1.068951	NaN
328	1.000000	0.986705	7.36828e+06	-55039.1	955.819	-29742.7	0.000000	0.000000	6.987145	0.060410	NaN	0.000000	0.001657	0.001737	28.0808	0.053077	0.002048	25.9133	-164.024	-165.814	0.064481	0.985419	-0.024348	-0.025634	0.060410	25.9133	-0.026096	-0.018028	-3.350962	NaN
328	1.000000	0.994710	7.36828e+06	-55039.1	955.818	-29742.7	0.000000	0.000000	6.995147	-0.012869	NaN	0.000000	0.001652	0.001747	28.0806	0.028236	0.002082	13.5602	-3.554481	-166.014	-0.016763	0.993404	-0.016343	-0.017649	-0.012869	13.5602	-0.015631	-0.009657	1.332638	NaN
328	1.000000	1.002718	7.36828e+06	-55039.1	955.818	-29742.7	0.000000	0.000000	7.003154	-0.030349	NaN	0.000000	0.001647	0.001680	28.0808	0.043047	0.002042	21.0798	147.914	-167.345	-0.011342	1.001406	-0.008335	-0.009647	-0.030349	21.0798	-0.007255	-0.004793	6.332461	NaN
328	1.000000	1.010704	7.36828e+06	-55039.1	955.819	-29742.7	0.000000	0.000000	7.011163	0.533730	NaN	0.000000	0.001671	0.001709	28.0806	0.955206	0.002005	476.399	5.805669	-168.171	0.085376	1.009394	-0.000349	-0.001659	0.533730	476.399	-0.001189	-0.000869	-614.361	NaN
328	2.000000	1.018184	7.36828e+06	-55039.1	955.818	-29742.7	0.000000	0.000000	7.018974	8.572073	NaN	0.000000	0.001676	0.001701	28.0807	8.092703	0.001493	5419.3	8.552660	-173.351	7.758493	1.017315	0.007131	0.006262	8.572073	5419.3	0.005944	0.005012	1710.38	69939.1
328	2.000000	1.020406	7.36828e+06	-55039.1	955.818	-29742.7	0.000000	0.000000	7.021280	10.6144	NaN	0.000000	0.001668	0.001700	28.0807	10.9006	0.001672	6521.06	12.8948	-179.08	10.5182	1.020036	0.009353	0.008983	10.6144	6521.06	0.008132	0.007178	1478.65	70319.5
328	2.000000	1.022307	7.36828e+06	-55039.1	955.818	-29742.7	0.000000	0.000000	7.023269	12.747	NaN	0.000000	0.001653	0.001697	28.0805	13.2649	0.001656	8012.19	9.265999	-178.607	11.8157	1.021974	0.011254	0.010921	12.747	8012.19	0.010061	0.009249	1378.16	76114.8
328	2.000000	1.024319	7.36828e+06	-55039.1	955.819	-29742.7	0.000000	0.000000	7.025398	15.602	NaN	0.000000	0.001667	0.001681	28.0808	15.2756	0.001711	8927.85	3.988487	-173.965	15.6376	1.024011	0.013266	0.012958	15.602	8927.85	0.011955	0.011437	1364.2	76272.7
328	2.000000	1.026281	7.36828e+06	-55039.1	955.818	-29742.7	0.000000	0.000000	7.027426	17.2033	NaN	0.000000	0.001673	0.001709	28.0805	16.7938	0.001707	9837.91	10.0915	179.19	17.1551	1.026021	0.015228	0.014968	17.2033	9837.91	0.013917	0.013868	1240.52	76325.9
328	2.000000	1.028265	7.36828e+06	-55039.1	955.818	-29742.7	0.000000	0.000000	7.029624	22.3923	NaN	0.000000	0.001679	0.001719	28.0808	18.4584	0.001721	10722.4	2.765094	-173.912	21.8512	1.027985	0.017213	0.016932	22.3923	10722.4	0.015646	0.016157	1385.93	77070.2
328	2.000000	1.030287	7.36828e+06	-55039.1	955.819	-29742.7	0.000000	0.000000	7.031802	26.2108	NaN	0.000000	0.001666	0.001706	28.0796	20.3907	0.001708	11937.8	4.009972	-174.418	26.4377	1.029956	0.019234	0.018903	26.2108	11937.8	0.017587	0.018892	1387.42	79352.6
328	2.000000	1.032307	7.36828e+06	-55039.1	955.817	-29742.7	0.000000	0.000000	7.033970	29.8051	NaN	0.000000	0.001665	0.001686	28.0793	22.7192	0.001759	12912.7	8.421086	178.497	29.4559	1.031916	0.021254	0.020863	29.8051	12912.7	0.019523	0.021797	1367.37	79907.6
328	2.000000	1.034238	7.36828e+06	-55039.1	955.819	-29742.7	0.000000	0.000000	7.036125	35.2387	NaN	0.000000	0.001647	0.001715	28.0794	25.5491	0.001818	14050.8	5.687430	-179.619	34.2907	1.033997	0.023185	0.022944	35.2387	14050.8	0.021304	0.024633	1430.56	81793.3
328	2.000000	1.036273	7.36828e+06	-55039.1	955.819	-29742.7	0.000000	0.000000	7.038430	41.8194	NaN	0.000000	0.001689	0.001706	28.0792	26.7078	0.001743	15323.5	4.800634	-178.278	42.7909	1.035948	0.025220	0.024895	41.8194	15323.5	0.023173	0.027775	1505.64	84004.5
328	2.000000	1.038280	7.36828e+06	-55039.1	955.819	-29742.7	0.000000	0.000000	7.040591	45.5433	NaN	0.000000	0.001673	0.001650	28.0793	30.5746	0.001869	16359.3	11.4834	173.559	45.9109	1.037864	0.027227	0.026811	45.5433	16359.3	0.025139	0.031269	1456.49	84524
328	2.000000	1.040256	7.36828e+06	-55039.1	955.819	-29742.7	0.000000	0.000000	7.042851	52.4479	NaN	0.000000	0.001708	0.001679	28.0794	31.7715	0.001770	17945.2	6.184013	177.707	50.9026	1.039960	0.029203	0.028907	52.4479	17945.2	0.027011	0.034777	1508.13	87917.7
328	2.000000	1.042293	7.36828e+06	-55039.1	955.818	-29742.7	0.000000	0.000000	7.045043	56.2374	NaN	0.000000	0.001649	0.001672	28.0793	33.8833	0.001821	18606.8	5.716768	177.957	58.1944	1.041995	0.031240	0.030943	56.2374	18606.8	0.028973	0.038642	1455.36	86480.1
328	2.000000	1.044240	7.36828e+06	-55039.1	955.819	-29742.7	0.000000	0.000000	7.047347	64.9036	NaN	0.000000	0.001670	0.001674	28.0801	35.7416	0.001801	19841.6	5.684693	177.479	64.5881	1.043916	0.033187	0.032863	64.9036	19841.6	0.030733	0.042278	1535.18	88164.8
328	2.000000	1.046192	7.36828e+06	-55039.1	955.819	-29742.7	0.000000	0.000000	7.049633	73.0338	NaN	0.000000	0.001663	0.001660	28.0793	37.2464	0.001712	21754.3	5.023996	177.336	71.9691	1.045888	0.035139	0.034835	73.0338	21754.3	0.032621	0.046351	1575.67	92318.6
328	2.000000	1.048221	7.36828e+06	-55039.1	955.819	-29742.7	0.000000	0.000000	7.051856	77.7124	NaN	0.000000	0.001669	0.001669	28.0792	39.1905	0.001763	22234.6	4.173194	178.463	78.2516	1.047935	0.037168	0.036882	77.7124	22234.6	0.034547	0.050697	1532.89	90222.2
328	2.000000	1.050279	7.36828e+06	-55039.1	955.82	-29742.7	0.000000	0.000000	7.054167	83.8765	NaN	0.000000	0.001696	0.001667	28.0794	41.4033	0.001694	24444.2	4.124352	176.366	84.2022	1.049941	0.039226	0.038888	83.8765	24444.2	0.036653	0.055665	1506.82	94658.4
328	2.000000	1.052192	7.36828e+06	-55039.1	955.82	-29742.7	0.000000	0.000000	7.056341	90.2096	NaN	0.000000	0.001680	0.001674	28.0795	43.136	0.001831	23554.2	4.919559	176.27	87.201	1.051922	0.041139	0.040869	90.2096	23554.2	0.038267	0.059626	1512.92	88129.7
328	2.000000	1.054212	7.36828e+06	-55039.1	955.819	-29742.7	0.000000	0.000000	7.058681	98.0102	NaN	0.000000	0.001697	0.001647	28.0803	45.8327	0.001861	24633.5	4.768392	175.746	95.4538	1.053952	0.043159	0.042899	98.0102	24633.5	0.040175	0.064481	1520	88630.9
328	2.000000	1.056178	7.36828e+06	-55039.1	955.819	-29742.7	0.000000	0.000000	7.061033	107.38	NaN	0.000000	0.001666	0.001662	28.0792	46.4624	0.001726	26913.3	6.749595	174.146	106.795	1.055926	0.045125	0.044873	107.38	26913.3	0.042133	0.069656	1541.57	93166.5
328	2.000000	1.058241	7.36828e+06	-55039.1	955.819	-29742.7	0.000000	0.000000	7.063506	117.366	NaN	0.000000	0.001663	0.001667	28.0792	49.4022	0.001808	27323	8.334156	172.651	116.486	1.057810	0.047188	0.046757	117.366	27323	0.043966	0.074680	1571.59	91348.3
328	2.000000	1.060254	7.36828e+06	-55039.1	955.82	-29742.7	0.000000	0.000000	7.065921	127.136	NaN	0.000000	0.001684	0.001665	28.0794	50.0044	0.001713	29198.2	1.873054	178.437	126.196	1.059829	0.049201	0.048776	127.136	29198.2	0.045936	0.080265	1583.95	94159.6
328	2.000000	1.062170	7.36828e+06	-55039.1	955.82	-29742.7	0.000000	0.000000	7.068141	134.512	NaN	0.000000	0.001667	0.001644	28.0797	52.3027	0.001698	30798.9	3.766371	174.646	130.333	1.061841	0.051117	0.050788	134.512	30798.9	0.047842	0.085859	1566.67	96032.1
328	2.000000	1.064206	7.36828e+06	-55039.1	955.82	-29742.7	0.000000	0.000000	7.070571	144.085	NaN	0.000000	0.001648	0.001660	28.0811	54.8077	0.001841	29766.8	4.594855	174.927	143.789	1.063877	0.053153	0.052824	144.085	29766.8	0.049523	0.090945	1584.32	90181.4
328	2.000000	1.066214	7.36828e+06	-55039.1	955.819	-29742.7	0.000000	0.000000	7.072915	152.258	NaN	0.000000	0.001678	0.001671	28.0805	55.5124	0.001729	32109.4	6.177126	172.647	150.509	1.065746	0.055161	0.054693	152.258	32109.4	0.051605	0.097437	1562.63	93981.5
328	2.000000	1.068179	7.36828e+06	-55039.1	955.82	-29742.7	0.000000	0.000000	7.075336	163.353	NaN	0.000000	0.001668	0.001672	28.0805	58.7622	0.001810	32457.7	6.441873	172.589	161.544	1.067775	0.057126	0.056722	163.353	32457.7	0.053352	0.103054	1585.12	92375.9
328	2.000000	1.070211	7.36828e+06	-55039.1	955.82	-29742.7	0.000000	0.000000	7.077755	172.758	NaN	0.000000	0.001717	0.001663	28.0806	60.4392	0.001786	33840.5	6.662087	172.498	171.558	1.069751	0.059158	0.058698	172.758	33840.5	0.055329	0.109595	1576.33	93393.2
328	2.000000	1.072085	7.36828e+06	-55039.1	955.82	-29742.7	0.000000	0.000000	7.079918	179.8	NaN	0.000000	0.001666	0.001645	28.0806	62.0386	0.001798	34509	8.617412	169.477	174.556	1.071851	0.061032	0.060798	179.8	34509	0.057124	0.115698	1554.05	92692.1
328	2.000000	1.074197	7.36828e+06	-55039.1	955.819	-29742.7	0.000000	0.000000	7.082491	190.98	NaN	0.000000	0.001642	0.001675	28.0805	63.568	0.001826	34807.6	4.750706	172.876	190.154	1.073927	0.063144	0.062874	190.98	34807.6	0.059029	0.122351	1560.92	90916.8
328	2.000000	1.076192	7.36828e+06	-55039.1	955.818	-29742.7	0.000000	0.000000	7.085104	206.032	NaN	0.000000	0.001658	0.001664	28.0807	64.114	0.001794	35744.1	7.539086	170.786	205.196	1.075823	0.065139	0.064770	206.032	35744.1	0.060816	0.128749	1600.26	91013.3
328	2.000000	1.078122	7.36828e+06	-55039.1	955.819	-29742.7	0.000000	0.000000	7.087483	216.937	NaN	0.000000	0.001643	0.001696	28.0805	66.8569	0.001791	37324.6	7.513710	169.88	212.65	1.077812	0.067069	0.066759	216.937	37324.6	0.062710	0.135703	1598.61	92570.5
328	2.000000	1.080163	7.36828e+06	-55039.1	955.82	-29742.7	0.000000	0.000000	7.089908	226.258	NaN	0.000000	0.001664	0.001699	28.0805	68.7242	0.001778	38662.4	6.768872	171.679	224.127	1.079817	0.069110	0.068764	226.258	38662.4	0.064721	0.143278	1579.15	93319.3
328	2.000000	1.082218	7.36828e+06	-55039.1	955.82	-29742.7	0.000000	0.000000	7.092357	235.845	NaN	0.000000	0.001657	0.001681	28.0807	71.0816	0.001874	37929.6	7.718871	170.41	236.119	1.081840	0.071165	0.070788	235.845	37929.6	0.066501	0.150147	1570.76	89432
328	2.000000	1.084244	7.36828e+06	-55039.1	955.82	-29742.7	0.000000	0.000000	7.094627	241.765	NaN	0.000000	0.001636	0.001693	28.0805	75.3411	0.001863	40433.1	6.993264	169.87	245.117	1.083976	0.073191	0.072923	241.765	40433.1	0.068707	0.158868	1521.8	92681.3
328	2.000000	1.086169	7.36828e+06	-55039.1	955.82	-29742.7	0.000000	0.000000	7.097332	260.734	NaN	0.000000	0.001617	0.001671	28.0808	75.2305	0.001821	41317	7.206865	170.365	260.523	1.085821	0.075116	0.074768	260.734	41317	0.070383	0.165648	1574.02	92748.8
328	2.000000	1.088146	7.36828e+06	-55039.1	955.818	-29742.7	0.000000	0.000000	7.099696	270.159	NaN	0.000000	0.001605	0.001674	28.0807	78.2141	0.001797	43533.7	7.308082	169.153	266.618	1.087845	0.077093	0.076792	270.159	43533.7	0.072438	0.174148	1551.32	95310.3
328	2.000000	1.090191	7.36828e+06	-55039.1	955.817	-29742.7	0.000000	0.000000	7.102408	286.36	NaN	0.000000	0.001602	0.001658	28.0802	80.1118	0.001891	42375.5	5.273751	172.08	284.053	1.089778	0.079138	0.078725	286.36	42375.5	0.074070	0.181036	1581.79	90992.5
328	2.000000	1.092245	7.36828e+06	-55039.1	955.818	-29742.7	0.000000	0.000000	7.104677	291.594	NaN	0.000000	0.001621	0.001620	28.0808	82.2369	0.001816	45283.5	6.555580	169.751	296.129	1.091868	0.081192	0.080815	291.594	45283.5	0.076363	0.190929	1527.24	94684.3
328	2.000000	1.094173	7.36828e+06	-55039.1	955.819	-29742.7	0.000000	0.000000	7.106911	299.026	NaN	0.000000	0.001645	0.001665	28.0806	82.3828	0.001827	45103.5	-1.231940	177.107	297.994	1.094068	0.083120	0.083015	299.026	45103.5	0.078148	0.198802	1504.14	92421.4
328	2.000000	1.096029	7.36828e+06	-55039.1	955.819	-29742.7	0.000000	0.000000	7.109654	320.593	NaN	0.000000	0.001670	0.001653	28.081	84.5101	0.001928	43842.4	5.314455	171.08	311.414	1.095747	0.084976	0.084694	320.593	43842.4	0.079492	0.204828	1565.18	88506
328	2.000000	1.098441	7.36828e+06	-55039.1	955.817	-29742.7	0.000000	0.000000	7.112094	321.282	NaN	0.000000	0.001673	0.001637	28.0798	87.9747	0.001804	48759.1	6.999798	168.713	336.529	1.097979	0.087388	0.086926	321.282	48759.1	0.082446	0.218368	1471.29	95331
328	2.000000	1.100164	7.36828e+06	-55039.1	955.819	-29742.7	0.000000	0.000000	7.115026	350.656	NaN	0.000000	0.001663	0.001631	28.0794	89.4404	0.001897	47148.5	8.551175	168.055	346.979	1.099696	0.089111	0.088643	350.656	47148.5	0.083533	0.223452	1569.27	91127.4
328	2.000000	1.102218	7.36828e+06	-55039.1	955.819	-29742.7	0.000000	0.000000	7.117595	363.17	NaN	0.000000	0.001663	0.001629	28.0795	89.3169	0.001783	50103.9	1.418170	174.415	364.894	1.101787	0.091165	0.090734	363.17	50103.9	0.085729	0.233892	1552.72	94653.5
328	2.000000	1.104094	7.36828e+06	-55039.1	955.818	-29742.7	0.000000	0.000000	7.119912	373.898	NaN	0.000000	0.001666	0.001630	28.0795	91.5512	0.001674	54676.8	3.929426	170.977	369.68	1.103842	0.093041	0.092789	373.898	54676.8	0.087912	0.244489	1529.3	101029
328	2.000000	1.106066	7.36828e+06	-55039.1	955.818	-29742.7	0.000000	0.000000	7.122922	399.127	NaN	0.000000	0.001641	0.001639	28.0798	91.2322	0.001741	52408.7	0.098185	174.992	393.638	1.105725	0.095013	0.094672	399.127	52408.7	0.089301	0.251347	1587.95	95508
328	2.000000	1.108196	7.36828e+06	-55039.1	955.819	-29742.7	0.000000	0.000000	7.125521	410.521	NaN	0.000000	0.001591	0.001636	28.0798	95.7555	0.001860	51482.1	4.500198	171.16	411.831	1.107863	0.097143	0.096810	410.521	51482.1	0.091163	0.260674	1574.85	92125.7
328	2.000000	1.110196	7.36828e+06	-55039.1	955.819	-29742.7	0.000000	0.000000	7.128149	425.79	NaN	0.000000	0.001572	0.001627	28.0795	96.7078	0.001716	56362.1	4.194755	170.97	426.494	1.109898	0.099143	0.098845	425.79	56362.1	0.093477	0.272494	1562.57	98646.6
328	2.000000	1.112091	7.36828e+06	-55039.1	955.82	-29742.7	0.000000	0.000000	7.130783	443.762	NaN	0.000000	0.001613	0.001617	28.0795	98.2275	0.001735	56603	4.664158	170.46	438.631	1.111821	0.101038	0.100768	443.762	56603	0.095158	0.281229	1577.94	97517.5
328	2.000000	1.114040	7.36828e+06	-55039.1	955.818	-29742.7	0.000000	0.000000	7.133428	460.663	NaN	0.000000	0.001632	0.001624	28.0794	102.481	0.001834	55889.9	5.279061	169.692	455.456	1.113822	0.102988	0.102769	460.663	55889.9	0.096806	0.289921	1588.93	94834.7
328	2.000000	1.116152	7.36828e+06	-55039.1	955.819	-29742.7	0.000000	0.000000	7.136249	477.897	NaN	0.000000	0.001653	0.001657	28.0796	103.265	0.001697	60840.8	6.673591	167.899	476.915	1.115716	0.105099	0.104664	477.897	60840.8	0.099208	0.302812	1578.2	101014
328	2.000000	1.116736	7.36828e+06	-55039.1	955.818	-29742.7	0.000000	0.000000	7.136787	476.784	NaN	0.000000	0.001644	0.001665	28.0798	103.92	0.001732	60004.8	5.474116	-10.8639	476.735	1.116393	0.105683	0.105340	476.784	60004.8	0.099724	0.305614	1560.09	99168.3