File: remote_trans/data/nanoindenter/0828-1/data/Data_2025-08-06,11h17m57s/2025-07-22_16-23-58_1_622.txt
2025-07-22, 16:23:58, 1
Index	Phase	Displacement	Time	Pos X	Pos Y	Pos Z	Rot A	Rot B	Piezo Z	Force A	Force B	Gripper	Voltage A	Voltage B	Temperature	Amplitude force	Amplitude pos	Stiffness	Phase shift	Phase excitation	Force A raw	Displacement raw	HMax	HMax raw	Real Force	Real Stiffness	Contact Depth	Area	Hardness	Reduced Mod.
[#]	[#]	[um]	[s]	[um]	[um]	[um]	[m°]	[m°]	[um]	[uN]	[uN]	[V]	[V]	[V]	[°C]	[uN]	[um]	[N/m]	[°]	[°]	[uN]	[um]	[um]	[um]	[uN]	[N/m]	[um]	[um^2]	[MPa]	[MPa]
622	1.000000	0.002220	7.37114e+06	-45989.1	1005.82	-29770.6	0.000000	0.000000	6.002814	0.013682	NaN	0.000000	0.001551	0.001654	28.0824	0.082047	0.000948	86.5739	5.730642	-166.289	-0.038644	0.000959	-1.099496	-1.100758	0.013682	86.5739	-1.099615	-4.953355E+14	-2.762216E-17	NaN
622	1.000000	0.012273	7.37114e+06	-45989.1	1005.82	-29770.6	0.000000	0.000000	6.012867	0.022149	NaN	0.000000	0.001547	0.001685	28.0821	0.090070	0.001126	80.0196	30.4276	21.3581	0.021697	0.010834	-1.089444	-1.090883	0.022149	80.0196	-1.089652	-3.640297E+14	-6.084266E-17	NaN
622	1.000000	0.022142	7.37114e+06	-45989.1	1005.82	-29770.6	0.000000	0.000000	6.022737	0.042516	NaN	0.000000	0.001572	0.001660	28.0819	0.046964	0.001658	28.3207	138.33	-161.812	-0.017939	0.020886	-1.079575	-1.080831	0.042516	28.3207	-1.080701	-2.760169E+14	-1.540358E-16	NaN
622	1.000000	0.032160	7.37114e+06	-45989.1	1005.82	-29770.6	0.000000	0.000000	6.032753	-0.024604	NaN	0.000000	0.001529	0.001674	28.0821	0.148726	0.001838	80.9292	95.1616	12.2143	-0.046336	0.030785	-1.069557	-1.070932	-0.024604	80.9292	-1.069329	-1.941647E+14	1.267162E-16	NaN
622	1.000000	0.042152	7.37114e+06	-45989.1	1005.82	-29770.6	0.000000	0.000000	6.042741	-0.096642	NaN	0.000000	0.001489	0.001678	28.0826	0.066845	0.001921	34.8033	113.865	-162.026	-0.102447	0.040861	-1.059565	-1.060856	-0.096642	34.8033	-1.057482	-1.345822E+14	7.180864E-16	NaN
622	1.000000	0.052153	7.37114e+06	-45989.1	1005.82	-29770.6	0.000000	0.000000	6.052747	0.018986	NaN	0.000000	0.001561	0.001632	28.0812	0.131117	0.001977	66.3255	-98.1257	17.5749	-0.050317	0.050750	-1.049564	-1.050967	0.018986	66.3255	-1.049779	-1.060327E+14	-1.790600E-16	NaN
622	1.000000	0.062205	7.37114e+06	-45989.1	1005.82	-29770.6	0.000000	0.000000	6.062800	0.032671	NaN	0.000000	0.001584	0.001646	28.0811	0.090210	0.001995	45.2236	-148.379	-168.923	-0.032382	0.060837	-1.039512	-1.040879	0.032671	45.2236	-1.040054	-7.846795E+13	-4.163596E-16	NaN
622	1.000000	0.072166	7.37114e+06	-45989.1	1005.82	-29770.6	0.000000	0.000000	6.072759	-0.010682	NaN	0.000000	0.001560	0.001659	28.0809	0.037814	0.002113	17.8936	177.715	17.7575	0.019864	0.070860	-1.029551	-1.030857	-0.010682	17.8936	-1.029103	-5.590084E+13	1.910840E-16	NaN
622	1.000000	0.082165	7.37114e+06	-45989.1	1005.82	-29770.6	0.000000	0.000000	6.082759	-0.002287	NaN	0.000000	0.001573	0.001632	28.0814	0.155135	0.002059	75.3373	-125.372	-163.16	-0.044657	0.080854	-1.019552	-1.020863	-0.002287	75.3373	-1.019529	-4.155397E+13	5.504395E-17	NaN
622	1.000000	0.092183	7.37114e+06	-45989.1	1005.82	-29770.6	0.000000	0.000000	6.092776	-0.008815	NaN	0.000000	0.001592	0.001682	28.0807	0.079421	0.002040	38.9234	72.475	15.8068	-0.047474	0.090817	-1.009534	-1.010900	-0.008815	38.9234	-1.009364	-3.032656E+13	2.906677E-16	NaN
622	1.000000	0.102134	7.37114e+06	-45989.1	1005.82	-29770.6	0.000000	0.000000	6.102726	-0.042405	NaN	0.000000	0.001564	0.001638	28.081	0.137778	0.002024	68.0815	43.8241	-166.356	-0.010956	0.100840	-0.999583	-1.000877	-0.042405	68.0815	-0.999116	-2.207304E+13	1.921120E-15	NaN
622	1.000000	0.112187	7.37114e+06	-45989.1	1005.82	-29770.6	0.000000	0.000000	6.112779	-0.043162	NaN	0.000000	0.001567	0.001604	28.081	0.069928	0.002038	34.3105	38.4456	15.7033	0.019188	0.110847	-0.989530	-0.990870	-0.043162	34.3105	-0.988586	-1.592469E+13	2.710392E-15	NaN
622	1.000000	0.122184	7.37114e+06	-45989.1	1005.82	-29770.6	0.000000	0.000000	6.122778	0.017153	NaN	0.000000	0.001574	0.001672	28.0812	0.033366	0.002010	16.5962	11.3952	-165.498	-0.033637	0.120892	-0.979533	-0.980824	0.017153	16.5962	-0.980308	-1.231870E+13	-1.392416E-15	NaN
622	1.000000	0.132149	7.37114e+06	-45989.1	1005.82	-29770.6	0.000000	0.000000	6.132741	-0.034139	NaN	0.000000	0.001613	0.001645	28.0807	0.049702	0.001994	24.921	-44.9359	14.481	-0.098098	0.130849	-0.969568	-0.970868	-0.034139	24.921	-0.968540	-8.550481E+12	3.992692E-15	NaN
622	1.000000	0.142197	7.37114e+06	-45989.1	1005.82	-29770.6	0.000000	0.000000	6.142794	0.076254	NaN	0.000000	0.001562	0.001631	28.081	0.046733	0.001917	24.3777	26.082	-164.04	0.027069	0.140906	-0.959520	-0.960810	0.076254	24.3777	-0.961866	-6.950559E+12	-1.097092E-14	NaN
622	1.000000	0.152196	7.37114e+06	-45989.1	1005.82	-29770.6	0.000000	0.000000	6.152790	0.000977	NaN	0.000000	0.001524	0.001644	28.0808	0.040248	0.002014	19.9814	-130.742	12.2341	0.064244	0.150858	-0.949521	-0.950859	0.000977	19.9814	-0.949557	-4.743060E+12	-2.059794E-16	NaN
622	1.000000	0.162186	7.37114e+06	-45989.1	1005.82	-29770.6	0.000000	0.000000	6.162778	-0.021944	NaN	0.000000	0.001542	0.001638	28.0813	0.172055	0.002011	85.5414	-162.102	-164.498	0.013397	0.160868	-0.939531	-0.940849	-0.021944	85.5414	-0.939339	-3.453135E+12	6.354823E-15	NaN
622	1.000000	0.172225	7.37114e+06	-45989.1	1005.82	-29770.6	0.000000	0.000000	6.172818	-0.019557	NaN	0.000000	0.001525	0.001655	28.081	0.053328	0.001953	27.3079	-7.228666	12.789	-0.011703	0.170832	-0.929491	-0.930885	-0.019557	27.3079	-0.928954	-2.500824E+12	7.820347E-15	NaN
622	1.000000	0.182247	7.37114e+06	-45989.1	1005.82	-29770.6	0.000000	0.000000	6.182839	-0.018694	NaN	0.000000	0.001562	0.001637	28.0819	0.145152	0.002070	70.1327	-125.045	-167.167	0.050619	0.180918	-0.919470	-0.920799	-0.018694	70.1327	-0.919270	-1.850770E+12	1.010065E-14	NaN
622	1.000000	0.192219	7.37114e+06	-45989.1	1005.82	-29770.6	0.000000	0.000000	6.192813	0.004184	NaN	0.000000	0.001519	0.001653	28.0823	0.069363	0.001941	35.729	-59.5265	16.2694	-0.028379	0.190823	-0.909498	-0.910894	0.004184	35.729	-0.909586	-1.369508E+12	-3.054812E-15	NaN
622	1.000000	0.202214	7.37114e+06	-45989.1	1005.82	-29770.6	0.000000	0.000000	6.202809	0.046133	NaN	0.000000	0.001530	0.001662	28.082	0.070963	0.002027	35.0039	-123.924	-164.248	-0.007097	0.200958	-0.899503	-0.900758	0.046133	35.0039	-0.900491	-1.032058E+12	-4.469971E-14	NaN
622	1.000000	0.212222	7.37114e+06	-45989.1	1005.82	-29770.6	0.000000	0.000000	6.212817	0.026501	NaN	0.000000	0.001538	0.001654	28.0819	0.072237	0.002000	36.1193	65.3532	12.3655	0.073931	0.210839	-0.889495	-0.890878	0.026501	36.1193	-0.890045	-7.456314E+11	-3.554160E-14	NaN
622	1.000000	0.222250	7.37114e+06	-45989.1	1005.82	-29770.6	0.000000	0.000000	6.222844	0.002487	NaN	0.000000	0.001500	0.001669	28.082	0.108693	0.001922	56.5407	97.7935	-166.226	-0.031512	0.220913	-0.879467	-0.880804	0.002487	56.5407	-0.879500	-5.369578E+11	-4.631349E-15	NaN
622	1.000000	0.232243	7.37114e+06	-45989.1	1005.82	-29770.6	0.000000	0.000000	6.232837	0.000140	NaN	0.000000	0.001509	0.001676	28.0824	0.038630	0.002107	18.3342	-172.577	15.2436	0.077680	0.230895	-0.869474	-0.870822	0.000140	18.3342	-0.869479	-3.930080E+11	-3.572957E-16	NaN
622	1.000000	0.242253	7.37114e+06	-45989.1	1005.82	-29770.6	0.000000	0.000000	6.242848	0.045855	NaN	0.000000	0.001536	0.001669	28.0822	0.104370	0.002029	51.4373	-85.004	-163.375	0.054923	0.240903	-0.859464	-0.860814	0.045855	51.4373	-0.860132	-2.937063E+11	-1.561251E-13	NaN
622	1.000000	0.252243	7.37114e+06	-45989.1	1005.82	-29770.6	0.000000	0.000000	6.252835	-0.045921	NaN	0.000000	0.001525	0.001658	28.0822	0.022756	0.001969	11.554	63.0111	14.6627	0.011725	0.250881	-0.849473	-0.850836	-0.045921	11.554	-0.846493	-1.919725E+11	2.392069E-13	NaN
622	1.000000	0.262267	7.37114e+06	-45989.1	1005.82	-29770.6	0.000000	0.000000	6.262862	0.043372	NaN	0.000000	0.001588	0.001613	28.0822	0.019743	0.001902	10.3806	91.8947	-165.614	0.025803	0.260877	-0.839450	-0.840840	0.043372	10.3806	-0.842584	-1.699396E+11	-2.552229E-13	NaN
622	1.000000	0.272266	7.37114e+06	-45989.1	1005.82	-29770.6	0.000000	0.000000	6.272860	0.015464	NaN	0.000000	0.001575	0.001642	28.082	0.024892	0.001958	12.7109	-52.892	13.0289	-0.059172	0.270919	-0.829451	-0.830798	0.015464	12.7109	-0.830364	-1.160679E+11	-1.332366E-13	NaN
622	1.000000	0.282246	7.37114e+06	-45989.1	1005.82	-29770.6	0.000000	0.000000	6.282841	0.027633	NaN	0.000000	0.001577	0.001622	28.082	0.079401	0.002025	39.2118	-143.872	-164.854	0.017545	0.280925	-0.819470	-0.820792	0.027633	39.2118	-0.819999	-8.398393E+10	-3.290215E-13	NaN
622	1.000000	0.292284	7.37114e+06	-45989.1	1005.82	-29770.6	0.000000	0.000000	6.292879	0.022639	NaN	0.000000	0.001582	0.001673	28.0821	0.038330	0.002004	19.1238	84.3083	13.4674	0.103531	0.290874	-0.809433	-0.810842	0.022639	19.1238	-0.810320	-6.207539E+10	-3.646981E-13	NaN
622	1.000000	0.302260	7.37114e+06	-45989.1	1005.82	-29770.6	0.000000	0.000000	6.302851	-0.051253	NaN	0.000000	0.001589	0.001706	28.0822	0.091461	0.001981	46.1768	-25.0862	-162.735	-0.006884	0.300949	-0.799457	-0.800768	-0.051253	46.1768	-0.798624	-4.307146E+10	1.189944E-12	NaN
622	1.000000	0.312265	7.37114e+06	-45989.1	1005.82	-29770.6	0.000000	0.000000	6.312858	-0.010862	NaN	0.000000	0.001619	0.001675	28.082	0.056266	0.002132	26.3886	-15.074	15.3097	0.051652	0.310925	-0.789452	-0.790792	-0.010862	26.3886	-0.789143	-3.202146E+10	3.391952E-13	NaN
622	1.000000	0.322272	7.37114e+06	-45989.1	1005.82	-29770.6	0.000000	0.000000	6.322866	0.012210	NaN	0.000000	0.001632	0.001665	28.0808	0.061531	0.001934	31.817	82.0131	-161.492	0.031379	0.320885	-0.779445	-0.780832	0.012210	31.817	-0.779732	-2.385593E+10	-5.118205E-13	NaN
622	1.000000	0.332287	7.37114e+06	-45989.1	1005.82	-29770.6	0.000000	0.000000	6.332881	0.011978	NaN	0.000000	0.001548	0.001678	28.0811	0.123429	0.002034	60.6838	-162.192	13.2383	0.034035	0.330931	-0.769430	-0.770786	0.011978	60.6838	-0.769578	-1.736051E+10	-6.899807E-13	NaN
622	1.000000	0.342275	7.37114e+06	-45989.1	1005.82	-29770.6	0.000000	0.000000	6.342868	-0.021261	NaN	0.000000	0.001552	0.001683	28.0814	0.038734	0.001906	20.3197	-95.4397	-166.957	-0.012812	0.341013	-0.759442	-0.760704	-0.021261	20.3197	-0.758657	-1.233184E+10	1.724104E-12	NaN
622	1.000000	0.352272	7.37114e+06	-45989.1	1005.82	-29770.6	0.000000	0.000000	6.352860	-0.110937	NaN	0.000000	0.001570	0.001666	28.0811	0.071266	0.002032	35.0664	-140.672	14.8256	-0.106246	0.350897	-0.749445	-0.750819	-0.110937	35.0664	-0.747073	-8.577633E+9	1.293327E-11	NaN
622	1.000000	0.362280	7.37114e+06	-45989.1	1005.82	-29770.6	0.000000	0.000000	6.362875	0.037953	NaN	0.000000	0.001562	0.001706	28.081	0.148722	0.001999	74.3864	-59.0977	-165.485	-0.019744	0.360973	-0.739436	-0.740743	0.037953	74.3864	-0.739819	-6.832699E+9	-5.554677E-12	NaN
622	1.000000	0.372311	7.37114e+06	-45989.1	1005.82	-29770.6	0.000000	0.000000	6.372903	-0.055236	NaN	0.000000	0.001526	0.001671	28.0816	0.076150	0.001991	38.2423	151.826	15.9831	-0.059227	0.370930	-0.729405	-0.730787	-0.055236	38.2423	-0.728322	-4.763637E+9	1.159525E-11	NaN
622	1.000000	0.382266	7.37114e+06	-45989.1	1005.82	-29770.6	0.000000	0.000000	6.382859	-0.024906	NaN	0.000000	0.001547	0.001668	28.081	0.079175	0.001920	41.2302	-102.824	-165.169	-0.106506	0.381036	-0.719451	-0.720681	-0.024906	41.2302	-0.718997	-3.554679E+9	7.006418E-12	NaN
622	1.000000	0.392302	7.37114e+06	-45989.1	1005.82	-29770.6	0.000000	0.000000	6.392894	-0.052291	NaN	0.000000	0.001524	0.001665	28.0812	0.022858	0.001898	12.0417	-0.331430	11.7598	0.084481	0.390974	-0.709414	-0.710742	-0.052291	12.0417	-0.706158	-2.374674E+9	2.202043E-11	NaN
622	1.000000	0.402328	7.37114e+06	-45989.1	1005.82	-29770.6	0.000000	0.000000	6.402919	-0.052636	NaN	0.000000	0.001533	0.001638	28.0812	0.059254	0.001992	29.7534	-93.9284	-165.329	0.069426	0.400991	-0.699389	-0.700726	-0.052636	29.7534	-0.698062	-1.841048E+9	2.859032E-11	NaN
622	1.000000	0.412332	7.37114e+06	-45989.1	1005.82	-29770.6	0.000000	0.000000	6.412927	0.023741	NaN	0.000000	0.001548	0.001722	28.0815	0.033836	0.002025	16.712	50.8938	12.9381	0.012982	0.410871	-0.689384	-0.690846	0.023741	16.712	-0.690450	-1.448996E+9	-1.638478E-11	NaN
622	1.000000	0.422300	7.37114e+06	-45989.1	1005.82	-29770.6	0.000000	0.000000	6.422891	-0.068214	NaN	0.000000	0.001596	0.001624	28.0808	0.071908	0.001932	37.224	142.848	-165.427	-0.020467	0.421011	-0.679417	-0.680706	-0.068214	37.224	-0.678042	-9.804620E+8	6.957373E-11	NaN
622	1.000000	0.432302	7.37114e+06	-45989.1	1005.82	-29770.6	0.000000	0.000000	6.432897	0.057001	NaN	0.000000	0.001622	0.001675	28.0811	0.058839	0.001983	29.6687	-152.62	17.206	0.057815	0.430969	-0.669415	-0.670747	0.057001	29.6687	-0.670856	-7.818240E+8	-7.290712E-11	NaN
622	1.000000	0.442295	7.37114e+06	-45989.1	1005.82	-29770.6	0.000000	0.000000	6.442889	0.028999	NaN	0.000000	0.001652	0.001680	28.0811	0.053351	0.001873	28.4788	76.0317	-161.986	-0.054714	0.440979	-0.659422	-0.660737	0.028999	28.4788	-0.660186	-5.584901E+8	-5.192347E-11	NaN
622	1.000000	0.452333	7.37114e+06	-45989.1	1005.82	-29770.6	0.000000	0.000000	6.452926	-0.025000	NaN	0.000000	0.001645	0.001695	28.0812	0.106295	0.001938	54.8556	-91.2999	14.3042	-0.055588	0.451008	-0.649383	-0.650709	-0.025000	54.8556	-0.649042	-3.929134E+8	6.362747E-11	NaN
622	1.000000	0.462293	7.37114e+06	-45989.1	1005.82	-29770.6	0.000000	0.000000	6.462887	0.010885	NaN	0.000000	0.001655	0.001674	28.082	0.028119	0.002044	13.76	0.932095	-166.81	0.001658	0.461009	-0.639424	-0.640708	0.010885	13.76	-0.640017	-2.954749E+8	-3.683755E-11	NaN
622	1.000000	0.472298	7.37114e+06	-45989.1	1005.82	-29770.6	0.000000	0.000000	6.472893	0.032551	NaN	0.000000	0.001583	0.001684	28.082	0.096668	0.001897	50.9625	-53.4931	14.8915	-0.006183	0.470979	-0.629418	-0.630738	0.032551	50.9625	-0.629897	-2.145930E+8	-1.516852E-10	NaN
622	1.000000	0.482334	7.37114e+06	-45989.1	1005.82	-29770.6	0.000000	0.000000	6.482927	0.009752	NaN	0.000000	0.001647	0.001692	28.0821	0.031398	0.002079	15.1004	-54.3867	-165.067	-0.074041	0.481028	-0.619383	-0.620689	0.009752	15.1004	-0.619868	-1.562480E+8	-6.241198E-11	NaN
622	1.000000	0.492363	7.37114e+06	-45989.1	1005.82	-29770.6	0.000000	0.000000	6.492957	0.005703	NaN	0.000000	0.001651	0.001712	28.0821	0.114628	0.002087	54.9264	-33.3214	15.7843	-0.088080	0.490956	-0.609354	-0.610760	0.005703	54.9264	-0.609432	-1.122776E+8	-5.079027E-11	NaN
622	1.000000	0.502325	7.37114e+06	-45989.1	1005.82	-29770.6	0.000000	0.000000	6.502917	-0.029306	NaN	0.000000	0.001645	0.001658	28.082	0.103184	0.002027	50.913	-165.664	-161.475	-0.029853	0.501051	-0.599392	-0.600666	-0.029306	50.913	-0.598960	-8.056313E+7	3.637594E-10	NaN
622	1.000000	0.512383	7.37114e+06	-45989.1	1005.82	-29770.6	0.000000	0.000000	6.512976	-0.016343	NaN	0.000000	0.001679	0.001651	28.082	0.160709	0.001976	81.3326	165.505	14.6269	-0.010356	0.511008	-0.589334	-0.590709	-0.016343	81.3326	-0.589183	-5.907551E+7	2.766500E-10	NaN
622	1.000000	0.522345	7.37114e+06	-45989.1	1005.82	-29770.6	0.000000	0.000000	6.522938	-0.001970	NaN	0.000000	0.001656	0.001658	28.0824	0.025916	0.001946	13.3144	-145.046	-167.428	-0.044620	0.521041	-0.579372	-0.580676	-0.001970	13.3144	-0.579261	-4.310482E+7	4.569328E-11	NaN
622	1.000000	0.532392	7.37114e+06	-45989.1	1005.82	-29770.6	0.000000	0.000000	6.532983	-0.049835	NaN	0.000000	0.001630	0.001685	28.0833	0.129601	0.001960	66.1203	158.187	17.6075	-0.055902	0.531055	-0.569325	-0.570662	-0.049835	66.1203	-0.568760	-3.086723E+7	1.614489E-9	NaN
622	1.000000	0.542348	7.37114e+06	-45989.1	1005.82	-29770.6	0.000000	0.000000	6.542941	-0.011624	NaN	0.000000	0.001578	0.001657	28.0821	0.024932	0.002136	11.6713	-82.4026	-167.729	0.081916	0.541085	-0.559369	-0.560632	-0.011624	11.6713	-0.558622	-2.235195E+7	5.200442E-10	NaN
622	1.000000	0.552387	7.37114e+06	-45989.1	1005.82	-29770.6	0.000000	0.000000	6.552983	0.059380	NaN	0.000000	0.001606	0.001717	28.082	0.122635	0.001967	62.3463	-12.7426	15.2206	0.022233	0.550980	-0.549330	-0.550737	0.059380	62.3463	-0.550045	-1.700485E+7	-3.491928E-9	NaN
622	1.000000	0.562349	7.37114e+06	-45989.1	1005.82	-29770.6	0.000000	0.000000	6.562940	-0.060531	NaN	0.000000	0.001588	0.001668	28.0821	0.025688	0.002006	12.8046	-64.2354	-164.64	-0.018659	0.561081	-0.539368	-0.540636	-0.060531	12.8046	-0.535822	-1.079945E+7	5.605026E-9	NaN
622	1.000000	0.572410	7.37114e+06	-45989.1	1005.82	-29770.6	0.000000	0.000000	6.573001	-0.065189	NaN	0.000000	0.001572	0.001669	28.082	0.033252	0.001990	16.7053	-16.7434	15.8563	0.038386	0.571025	-0.529307	-0.530691	-0.065189	16.7053	-0.526380	-7.98521e+06	8.163710E-9	NaN
622	1.000000	0.582404	7.37114e+06	-45989.1	1005.82	-29770.6	0.000000	0.000000	6.582998	0.015225	NaN	0.000000	0.001615	0.001656	28.0821	0.005883	0.001988	2.958881	-170.92	-163.513	0.088456	0.581108	-0.519313	-0.520609	0.015225	2.958881	-0.523172	-7.20606e+06	-2.112774E-9	NaN
622	1.000000	0.592354	7.37114e+06	-45989.1	1005.82	-29770.6	0.000000	0.000000	6.592949	0.036545	NaN	0.000000	0.001567	0.001651	28.0808	0.061772	0.001918	32.2012	-83.2441	16.0659	-0.013631	0.591024	-0.509363	-0.510693	0.036545	32.2012	-0.510214	-4.75769e+06	-7.681292E-9	NaN
622	1.000000	0.602396	7.37114e+06	-45989.1	1005.82	-29770.6	0.000000	0.000000	6.602989	-0.006612	NaN	0.000000	0.001592	0.001698	28.0808	0.062366	0.002204	28.2996	89.1068	-162.004	-0.028739	0.601076	-0.499321	-0.500641	-0.006612	28.2996	-0.499146	-3.33504e+06	1.982438E-9	NaN
622	1.000000	0.612397	7.37114e+06	-45989.1	1005.82	-29770.6	0.000000	0.000000	6.612987	-0.073776	NaN	0.000000	0.001551	0.001644	28.0806	0.015911	0.001980	8.036285	-55.6804	15.5938	-0.096301	0.611035	-0.489320	-0.490682	-0.073776	8.036285	-0.482435	-1.94807e+06	3.787138E-8	NaN
622	1.000000	0.622395	7.37114e+06	-45989.1	1005.82	-29770.6	0.000000	0.000000	6.622990	0.037212	NaN	0.000000	0.001602	0.001676	28.0807	0.044608	0.001967	22.6742	127.715	-159.777	-0.053233	0.621074	-0.479321	-0.480643	0.037212	22.6742	-0.480552	-1.8334e+06	-2.029643E-8	NaN
622	1.000000	0.632406	7.37114e+06	-45989.1	1005.82	-29770.6	0.000000	0.000000	6.633003	0.077466	NaN	0.000000	0.001584	0.001649	28.0808	0.050074	0.002068	24.209	-97.4892	17.8455	0.025819	0.631056	-0.469311	-0.470661	0.077466	24.209	-0.471711	-1.37847e+06	-5.619720E-8	NaN
622	1.000000	0.642409	7.37114e+06	-45989.1	1005.82	-29770.6	0.000000	0.000000	6.643004	0.034925	NaN	0.000000	0.001617	0.001631	28.0807	0.069708	0.002083	33.4644	-171.037	-167.862	0.084695	0.641070	-0.459308	-0.460647	0.034925	33.4644	-0.460091	-946873	-3.688433E-8	NaN
622	1.000000	0.652404	7.37114e+06	-45989.1	1005.82	-29770.6	0.000000	0.000000	6.652997	-0.004873	NaN	0.000000	0.001643	0.001716	28.0806	0.102509	0.001989	51.5426	50.4158	13.7527	-0.006552	0.651058	-0.449313	-0.450659	-0.004873	51.5426	-0.449242	-666302	7.313167E-9	NaN
622	1.000000	0.662421	7.37114e+06	-45989.1	1005.82	-29770.6	0.000000	0.000000	6.663016	0.018042	NaN	0.000000	0.001612	0.001681	28.0807	0.092181	0.002073	44.473	68.2137	-168.487	0.016891	0.661096	-0.439295	-0.440621	0.018042	44.473	-0.439600	-487208	-3.703220E-8	NaN
622	1.000000	0.672422	7.37114e+06	-45989.1	1005.82	-29770.6	0.000000	0.000000	6.673018	0.053948	NaN	0.000000	0.001607	0.001706	28.0808	0.076153	0.002016	37.7648	157.226	15.3675	0.028871	0.671103	-0.429295	-0.430614	0.053948	37.7648	-0.430366	-360778	-1.495331E-7	NaN
622	1.000000	0.682426	7.37114e+06	-45989.1	1005.82	-29770.6	0.000000	0.000000	6.683021	0.024416	NaN	0.000000	0.001593	0.001691	28.0806	0.048567	0.002052	23.6659	-167.609	-163.558	-0.050424	0.681180	-0.419290	-0.420537	0.024416	23.6659	-0.420064	-257825	-9.469944E-8	NaN
622	1.000000	0.692441	7.37114e+06	-45989.1	1005.82	-29770.6	0.000000	0.000000	6.693035	0.021876	NaN	0.000000	0.001648	0.001682	28.0807	0.061910	0.001961	31.5712	-124.186	12.4345	0.001975	0.691081	-0.409276	-0.410636	0.021876	31.5712	-0.409796	-184287	-1.187061E-7	NaN
622	1.000000	0.702422	7.37114e+06	-45989.1	1005.82	-29770.6	0.000000	0.000000	6.703015	-0.007646	NaN	0.000000	0.001620	0.001679	28.0806	0.077917	0.002089	37.3072	78.1921	-160.648	-0.027464	0.701090	-0.399295	-0.400626	-0.007646	37.3072	-0.399141	-129942	5.883837E-8	NaN
622	1.000000	0.712409	7.37114e+06	-45989.1	1005.82	-29770.6	0.000000	0.000000	6.713004	0.041790	NaN	0.000000	0.001645	0.001670	28.0808	0.139700	0.001953	71.5399	20.4544	16.4727	0.006838	0.711075	-0.389308	-0.390641	0.041790	71.5399	-0.389746	-95398.1	-4.380576E-7	NaN
622	1.000000	0.722434	7.37114e+06	-45989.1	1005.82	-29770.6	0.000000	0.000000	6.723028	0.025998	NaN	0.000000	0.001593	0.001658	28.0805	0.077435	0.002094	36.9842	156.604	-164.352	0.064910	0.721160	-0.379283	-0.380557	0.025998	36.9842	-0.379810	-68733.4	-3.782470E-7	NaN
622	1.000000	0.732436	7.37114e+06	-45989.1	1005.82	-29770.6	0.000000	0.000000	6.733026	-0.076211	NaN	0.000000	0.001628	0.001680	28.0819	0.078033	0.001990	39.2192	-93.6389	13.6303	-0.093108	0.731100	-0.369281	-0.370617	-0.076211	39.2192	-0.367824	-46213.9	1.649094E-6	NaN
622	1.000000	0.742451	7.37114e+06	-45989.1	1005.82	-29770.6	0.000000	0.000000	6.743045	0.017201	NaN	0.000000	0.001655	0.001663	28.0819	0.009194	0.001866	4.926960	62.6473	-165.25	-0.001792	0.741117	-0.359266	-0.360600	0.017201	4.926960	-0.361884	-37937.9	-4.533961E-7	NaN
622	1.000000	0.752451	7.37114e+06	-45989.1	1005.82	-29770.6	0.000000	0.000000	6.753043	-0.045906	NaN	0.000000	0.001622	0.001643	28.0819	0.064425	0.001894	34.0108	129.405	13.5652	0.010179	0.751088	-0.349266	-0.350629	-0.045906	34.0108	-0.348254	-24079.3	1.906432E-6	NaN
622	1.000000	0.762413	7.37114e+06	-45989.1	1005.82	-29770.6	0.000000	0.000000	6.763007	0.022300	NaN	0.000000	0.001650	0.001662	28.0821	0.032154	0.001992	16.1387	178.817	-164.358	-0.006847	0.761170	-0.339304	-0.340547	0.022300	16.1387	-0.340340	-18471.9	-1.207241E-6	NaN
622	1.000000	0.772466	7.37114e+06	-45989.1	1005.82	-29770.6	0.000000	0.000000	6.773059	-0.014140	NaN	0.000000	0.001558	0.001711	28.0821	0.141188	0.002084	67.7439	-109.687	15.8887	0.063945	0.771061	-0.329251	-0.330656	-0.014140	67.7439	-0.329095	-12652.8	1.117520E-6	NaN
622	1.000000	0.782489	7.37114e+06	-45989.1	1005.82	-29770.6	0.000000	0.000000	6.783083	0.010263	NaN	0.000000	0.001515	0.001733	28.0824	0.058194	0.001977	29.4324	-111.764	-160.934	-0.043188	0.781172	-0.319228	-0.320544	0.010263	29.4324	-0.319489	-9143.64	-1.122374E-6	NaN
622	1.000000	0.792469	7.37114e+06	-45989.1	1005.82	-29770.6	0.000000	0.000000	6.793060	-0.049851	NaN	0.000000	0.001545	0.001745	28.0821	0.089953	0.002060	43.6724	-2.050060	16.5323	-0.109433	0.791134	-0.309248	-0.310583	-0.049851	43.6724	-0.308392	-6269.76	7.951030E-6	NaN
622	1.000000	0.802471	7.37114e+06	-45989.1	1005.82	-29770.6	0.000000	0.000000	6.803064	-0.012704	NaN	0.000000	0.001571	0.001708	28.0821	0.047251	0.001978	23.8933	96.6906	-162.231	-0.053444	0.801155	-0.299246	-0.300562	-0.012704	23.8933	-0.298847	-4523.44	2.808550E-6	NaN
622	1.000000	0.812482	7.37114e+06	-45989.1	1005.82	-29770.6	0.000000	0.000000	6.813077	0.029642	NaN	0.000000	0.001618	0.001695	28.0822	0.103455	0.001884	54.9016	-124.965	16.251	-0.028388	0.811132	-0.289235	-0.290585	0.029642	54.9016	-0.289639	-3295.34	-8.995172E-6	NaN
622	1.000000	0.822469	7.37114e+06	-45989.1	1005.82	-29770.6	0.000000	0.000000	6.823061	-0.047211	NaN	0.000000	0.001573	0.001725	28.0823	0.059251	0.001946	30.4548	-91.0054	-166.441	-0.026981	0.821180	-0.279248	-0.280537	-0.047211	30.4548	-0.278085	-2208.3	2.137873E-5	NaN
622	1.000000	0.832500	7.37114e+06	-45989.1	1005.82	-29770.6	0.000000	0.000000	6.833091	-0.041558	NaN	0.000000	0.001542	0.001734	28.0822	0.012403	0.002010	6.170103	98.6485	16.1934	-0.033410	0.831151	-0.269217	-0.270565	-0.041558	6.170103	-0.264166	-1357.22	3.062000E-5	NaN
622	1.000000	0.842487	7.37114e+06	-45989.1	1005.82	-29770.6	0.000000	0.000000	6.843080	0.001098	NaN	0.000000	0.001552	0.001734	28.0819	0.070872	0.002052	34.5366	159.258	-165.852	-0.021937	0.841222	-0.259230	-0.260495	0.001098	34.5366	-0.259254	-1141.51	-9.620263E-7	NaN
622	1.000000	0.852481	7.37114e+06	-45989.1	1005.82	-29770.6	0.000000	0.000000	6.853076	0.017942	NaN	0.000000	0.001565	0.001740	28.0822	0.115814	0.002150	53.8657	19.1488	14.582	0.019213	0.851167	-0.249235	-0.250550	0.017942	53.8657	-0.249485	-807.242	-2.222593E-5	NaN
622	1.000000	0.862513	7.37114e+06	-45989.1	1005.82	-29770.6	0.000000	0.000000	6.863108	0.056815	NaN	0.000000	0.001613	0.001729	28.082	0.048552	0.002039	23.8102	-124.206	-162.824	0.046655	0.861166	-0.239204	-0.240551	0.056815	23.8102	-0.240994	-595.757	-9.536640E-5	NaN
622	1.000000	0.872491	7.37114e+06	-45989.1	1005.82	-29770.6	0.000000	0.000000	6.873080	-0.099705	NaN	0.000000	0.001587	0.001743	28.0808	0.041733	0.001934	21.5806	25.0833	10.2473	-0.083261	0.871098	-0.229226	-0.230619	-0.099705	21.5806	-0.225761	-343.097	0.000291	NaN
622	1.000000	0.882522	7.37114e+06	-45989.1	1005.82	-29770.6	0.000000	0.000000	6.883116	0.026673	NaN	0.000000	0.001607	0.001736	28.0809	0.055317	0.002068	26.745	-169.555	-164.396	-0.003698	0.881182	-0.219195	-0.220535	0.026673	26.745	-0.219943	-277.182	-9.622771E-5	NaN
622	1.000000	0.892504	7.37114e+06	-45989.1	1005.82	-29770.6	0.000000	0.000000	6.893098	0.027295	NaN	0.000000	0.001596	0.001689	28.0809	0.118806	0.002050	57.9514	-50.0253	16.0459	-0.003119	0.891153	-0.209213	-0.210563	0.027295	57.9514	-0.209566	-188.71	-0.000145	NaN
622	1.000000	0.902485	7.37114e+06	-45989.1	1005.82	-29770.6	0.000000	0.000000	6.903078	-0.029540	NaN	0.000000	0.001573	0.001708	28.081	0.066895	0.001901	35.1887	108.126	-163.734	0.005844	0.901151	-0.199231	-0.200566	-0.029540	35.1887	-0.198602	-124.939	0.000236	NaN
622	1.000000	0.912543	7.37114e+06	-45989.1	1005.82	-29770.6	0.000000	0.000000	6.913135	-0.036045	NaN	0.000000	0.001649	0.001695	28.081	0.065413	0.001963	33.3314	57.3434	14.3276	-0.004864	0.911140	-0.189174	-0.190577	-0.036045	33.3314	-0.188363	-84.4589	0.000427	NaN
622	1.000000	0.922516	7.37114e+06	-45989.1	1005.82	-29770.6	0.000000	0.000000	6.923106	-0.078092	NaN	0.000000	0.001615	0.001762	28.081	0.099667	0.001863	53.4962	136.949	-165.66	-0.080404	0.921182	-0.179201	-0.180534	-0.078092	53.4962	-0.178106	-56.6484	0.001379	NaN
622	1.000000	0.932534	7.37114e+06	-45989.1	1005.82	-29770.6	0.000000	0.000000	6.933129	0.024299	NaN	0.000000	0.001631	0.001725	28.0811	0.129827	0.001866	69.5792	33.1192	14.0148	0.072943	0.931143	-0.169183	-0.170574	0.024299	69.5792	-0.169445	-40.1757	-0.000605	NaN
622	1.000000	0.942546	7.37114e+06	-45989.1	1005.82	-29770.6	0.000000	0.000000	6.943142	0.046176	NaN	0.000000	0.001630	0.001727	28.081	0.071892	0.002003	35.8937	-130.6	-162.388	0.072631	0.941249	-0.159170	-0.160467	0.046176	35.8937	-0.160135	-27.5669	-0.001675	NaN
622	1.000000	0.952542	7.37114e+06	-45989.1	1005.82	-29770.6	0.000000	0.000000	6.953134	-0.036672	NaN	0.000000	0.001651	0.001690	28.0808	0.132614	0.001960	67.6751	-164.028	10.7142	-0.034655	0.951174	-0.149175	-0.150543	-0.036672	67.6751	-0.148768	-17.1989	0.002132	NaN
622	1.000000	0.962540	7.37114e+06	-45989.1	1005.82	-29770.6	0.000000	0.000000	6.963130	-0.095788	NaN	0.000000	0.001661	0.001700	28.0809	0.060967	0.002008	30.3636	-141.954	-166.022	-0.060529	0.961173	-0.139177	-0.140544	-0.095788	30.3636	-0.136811	-10.2979	0.009302	NaN
622	1.000000	0.972511	7.37114e+06	-45989.1	1005.82	-29770.6	0.000000	0.000000	6.973103	-0.053535	NaN	0.000000	0.001677	0.001735	28.0813	0.100127	0.002032	49.2796	176.324	15.4186	-0.044975	0.971179	-0.129205	-0.130538	-0.053535	49.2796	-0.128391	-7.090237	0.007551	NaN
622	1.000000	0.982560	7.37114e+06	-45989.1	1005.82	-29770.6	0.000000	0.000000	6.983153	-0.019565	NaN	0.000000	0.001679	0.001751	28.0811	0.083879	0.001924	43.5867	61.2615	-165.457	0.023246	0.981250	-0.119157	-0.120467	-0.019565	43.5867	-0.118820	-4.573098	0.004278	NaN
622	1.000000	0.992539	7.37114e+06	-45989.1	1005.82	-29770.6	0.000000	0.000000	6.993131	-0.037865	NaN	0.000000	0.001684	0.001695	28.0807	0.054055	0.002040	26.4928	-33.1296	15.1189	0.011352	0.991152	-0.109178	-0.110565	-0.037865	26.4928	-0.108106	-2.740011	0.013819	NaN
622	1.000000	1.002559	7.37114e+06	-45989.1	1005.82	-29770.6	0.000000	0.000000	7.003152	-0.013643	NaN	0.000000	0.001704	0.001701	28.0821	0.079441	0.001953	40.6836	-108.313	-165.052	-0.000124	1.001221	-0.099158	-0.100496	-0.013643	40.6836	-0.098906	-1.727647	0.007897	NaN
622	1.000000	1.012578	7.37114e+06	-45989.1	1005.82	-29770.6	0.000000	0.000000	7.013169	-0.062282	NaN	0.000000	0.001680	0.001736	28.0822	0.076013	0.001912	39.7565	-156.768	13.096	-0.022352	1.011194	-0.089139	-0.090523	-0.062282	39.7565	-0.087964	-0.967701	0.064361	NaN
622	1.000000	1.022523	7.37114e+06	-45989.1	1005.82	-29770.6	0.000000	0.000000	7.023114	-0.047078	NaN	0.000000	0.001669	0.001751	28.0817	0.060736	0.002015	30.1406	41.0473	-166.236	0.018546	1.021210	-0.079194	-0.080507	-0.047078	30.1406	-0.078023	-0.551967	0.085290	NaN
622	1.000000	1.032592	7.37114e+06	-45989.1	1005.82	-29770.6	0.000000	0.000000	7.033184	-0.031123	NaN	0.000000	0.001691	0.001773	28.0817	0.086255	0.002011	42.888	-109.884	15.2753	-0.039704	1.031177	-0.069125	-0.070540	-0.031123	42.888	-0.068580	-0.312370	0.099634	NaN
622	1.000000	1.042576	7.37114e+06	-45989.1	1005.82	-29770.6	0.000000	0.000000	7.043171	0.018830	NaN	0.000000	0.001673	0.001758	28.0818	0.035177	0.001896	18.5485	91.3438	-167.325	0.020610	1.041275	-0.059141	-0.060442	0.018830	18.5485	-0.059902	-0.178930	-0.105239	NaN
622	1.000000	1.052584	7.37114e+06	-45989.1	1005.82	-29770.6	0.000000	0.000000	7.053176	-0.048602	NaN	0.000000	0.001602	0.001723	28.0819	0.054041	0.001994	27.0959	178.198	13.3822	0.048203	1.051199	-0.049132	-0.050518	-0.048602	27.0959	-0.047787	-0.078176	0.621699	NaN
622	1.000000	1.062571	7.37114e+06	-45989.1	1005.82	-29770.6	0.000000	0.000000	7.063163	-0.018548	NaN	0.000000	0.001625	0.001757	28.0819	0.032936	0.002055	16.0258	29.2828	-163.304	0.042411	1.061257	-0.039146	-0.040460	-0.018548	16.0258	-0.038278	-0.040109	0.462435	NaN
622	1.000000	1.072574	7.37114e+06	-45989.1	1005.82	-29770.6	0.000000	0.000000	7.073166	-0.030712	NaN	0.000000	0.001600	0.001719	28.0818	0.072823	0.002108	34.5516	-44.0089	14.3349	-0.071495	1.071200	-0.029143	-0.030517	-0.030712	34.5516	-0.028476	-0.020889	1.470255	NaN
622	1.000000	1.082576	7.37114e+06	-45989.1	1005.82	-29770.6	0.000000	0.000000	7.083169	-0.002409	NaN	0.000000	0.001634	0.001736	28.0821	0.094364	0.001944	48.5529	127.742	-168.398	0.053675	1.081285	-0.019141	-0.020432	-0.002409	48.5529	-0.019104	-0.011917	0.202165	NaN
622	1.000000	1.092586	7.37114e+06	-45989.1	1005.82	-29770.6	0.000000	0.000000	7.093179	-0.009240	NaN	0.000000	0.001598	0.001725	28.082	0.059532	0.001913	31.1257	157.48	15.6717	-0.043888	1.091314	-0.009131	-0.010402	-0.009240	31.1257	-0.008908	-0.005760	1.604230	NaN
622	1.000000	1.102608	7.37114e+06	-45989.1	1005.82	-29770.6	0.000000	0.000000	7.103202	0.017269	NaN	0.000000	0.001615	0.001663	28.0823	0.173794	0.001939	89.6293	-2.688717	-164.516	-0.059609	1.101254	0.000891	-0.000463	0.017269	89.6293	0.000747	0.000566	30.5026	3441.55
622	2.000000	1.111680	7.37114e+06	-45989.1	1005.82	-29770.6	0.000000	0.000000	7.112672	9.692961	NaN	0.000000	0.001571	0.001711	28.0823	8.746116	0.001711	5110.9	15.6467	1.983605	9.021738	1.111066	0.009963	0.009350	9.692961	5110.9	0.008541	0.007605	1274.61	53546.6
622	2.000000	1.114211	7.37114e+06	-45989.1	1005.82	-29770.6	0.000000	0.000000	7.115354	13.3613	NaN	0.000000	0.001623	0.001711	28.0826	11.3909	0.001774	6421.31	4.905541	-172.01	12.6835	1.113888	0.012494	0.012171	13.3613	6421.31	0.010933	0.010237	1305.15	57983.1
622	2.000000	1.116705	7.37114e+06	-45989.1	1005.82	-29770.6	0.000000	0.000000	7.117947	15.7733	NaN	0.000000	0.001631	0.001672	28.082	13.2053	0.001582	8348.27	1.146255	8.798417	14.006	1.116342	0.014989	0.014626	15.7733	8348.27	0.013572	0.013427	1174.7	65822.1
622	2.000000	1.119150	7.37114e+06	-45989.1	1005.82	-29770.6	0.000000	0.000000	7.120592	20.6311	NaN	0.000000	0.001620	0.001635	28.0817	15.8222	0.001614	9801.59	5.318121	-175.879	19.9224	1.118821	0.017433	0.017104	20.6311	9801.59	0.015854	0.016442	1254.81	69838.8
622	2.000000	1.121672	7.37114e+06	-45989.1	1005.82	-29770.6	0.000000	0.000000	7.123226	23.3598	NaN	0.000000	0.001625	0.001684	28.0809	18.75	0.001910	9817.65	9.027319	2.688086	22.6952	1.121350	0.019955	0.019633	23.3598	9817.65	0.018170	0.019748	1182.87	63828.5
622	2.000000	1.124126	7.37114e+06	-45989.1	1005.82	-29770.6	0.000000	0.000000	7.125854	27.589	NaN	0.000000	0.001615	0.001684	28.0815	20.7886	0.001768	11758.4	9.858218	179.004	27.692	1.123889	0.022410	0.022172	27.589	11758.4	0.020650	0.023574	1170.32	69969.1
622	2.000000	1.126687	7.37114e+06	-45989.1	1005.82	-29770.6	0.000000	0.000000	7.128599	32.0675	NaN	0.000000	0.001623	0.001652	28.081	22.4229	0.001755	12773.6	6.441520	3.473549	31.9174	1.126299	0.024970	0.024583	32.0675	12773.6	0.023087	0.027628	1160.71	70212.6
622	2.000000	1.129131	7.37114e+06	-45989.1	1005.82	-29770.6	0.000000	0.000000	7.131131	34.2195	NaN	0.000000	0.001625	0.001737	28.081	25.9147	0.001715	15112	3.429029	-177.365	32.8738	1.128817	0.027414	0.027100	34.2195	15112	0.025716	0.032330	1058.43	76787.6
622	2.000000	1.131587	7.37114e+06	-45989.1	1005.82	-29770.6	0.000000	0.000000	7.133924	42.4016	NaN	0.000000	0.001617	0.001729	28.0808	27.9903	0.001737	16118.7	4.162932	2.903551	39.9982	1.131349	0.029871	0.029632	42.4016	16118.7	0.027898	0.036499	1161.72	77084.1
622	2.000000	1.134147	7.37114e+06	-45989.1	1005.82	-29770.6	0.000000	0.000000	7.136715	48.0313	NaN	0.000000	0.001600	0.001697	28.0808	31.2898	0.001893	16524.9	7.119962	179.361	46.318	1.133820	0.032430	0.032103	48.0313	16524.9	0.030250	0.041264	1163.99	74323.3
622	2.000000	1.136619	7.37114e+06	-45989.1	1005.82	-29770.6	0.000000	0.000000	7.139458	54.6237	NaN	0.000000	0.001614	0.001679	28.0812	32.679	0.001722	18981.7	5.122429	1.678449	52.8869	1.136238	0.034903	0.034521	54.6237	18981.7	0.032744	0.046624	1171.58	80316.3
622	2.000000	1.139111	7.37114e+06	-45989.1	1005.82	-29770.6	0.000000	0.000000	7.142144	59.3287	NaN	0.000000	0.001659	0.001656	28.0809	35.46	0.001757	20181	9.392905	175.748	59.2623	1.138776	0.037394	0.037059	59.3287	20181	0.035190	0.052188	1136.82	80710.3
622	2.000000	1.141575	7.37114e+06	-45989.1	1005.82	-29770.6	0.000000	0.000000	7.144871	65.7368	NaN	0.000000	0.001664	0.001689	28.0814	37.7204	0.001755	21496.5	6.378915	-2.417944	63.7415	1.141305	0.039859	0.039588	65.7368	21496.5	0.037565	0.057887	1135.61	81630
622	2.000000	1.144107	7.37114e+06	-45989.1	1005.82	-29770.6	0.000000	0.000000	7.147683	72.5316	NaN	0.000000	0.001655	0.001647	28.081	41.1762	0.001841	22364.3	8.020608	176.156	71.1506	1.143807	0.042391	0.042090	72.5316	22364.3	0.039958	0.063920	1134.72	80818.3
622	2.000000	1.146653	7.37114e+06	-45989.1	1005.82	-29770.6	0.000000	0.000000	7.150719	84.4728	NaN	0.000000	0.001664	0.001642	28.0811	43.0596	0.001828	23552.2	8.136820	-3.438328	83.1379	1.146250	0.044936	0.044533	84.4728	23552.2	0.042246	0.069961	1207.42	81353.4
622	2.000000	1.149074	7.37114e+06	-45989.1	1005.82	-29770.6	0.000000	0.000000	7.153467	92.4223	NaN	0.000000	0.001646	0.001655	28.081	45.0483	0.001801	25014.9	6.098693	176.981	90.9081	1.148801	0.047357	0.047085	92.4223	25014.9	0.044586	0.076418	1209.44	82675.1
622	2.000000	1.151609	7.37114e+06	-45989.1	1005.82	-29770.6	0.000000	0.000000	7.156449	103.306	NaN	0.000000	0.001661	0.001666	28.0813	48.4364	0.001857	26077.5	5.145436	-2.877287	101.462	1.151317	0.049892	0.049600	103.306	26077.5	0.046921	0.083133	1242.66	82632.8
622	2.000000	1.154081	7.37114e+06	-45989.1	1005.82	-29770.6	0.000000	0.000000	7.159188	109.778	NaN	0.000000	0.001641	0.001743	28.0821	50.1351	0.001813	27659.8	5.467825	176.239	108.16	1.153817	0.052364	0.052100	109.778	27659.8	0.049388	0.090530	1212.62	83989.7
622	2.000000	1.156662	7.37114e+06	-45989.1	1005.82	-29770.6	0.000000	0.000000	7.162372	124.476	NaN	0.000000	0.001566	0.001717	28.082	52.4058	0.001705	30738.1	6.616094	-5.064841	125.906	1.156223	0.054945	0.054506	124.476	30738.1	0.051908	0.098401	1264.99	89526.2
622	2.000000	1.159045	7.37114e+06	-45989.1	1005.82	-29770.6	0.000000	0.000000	7.165047	131.576	NaN	0.000000	0.001573	0.001715	28.0821	56.3165	0.001667	33781.2	11.5858	168.805	131.06	1.158826	0.057328	0.057109	131.576	33781.2	0.054407	0.106519	1235.24	94565.7
622	2.000000	1.161657	7.37114e+06	-45989.1	1005.82	-29770.6	0.000000	0.000000	7.167962	138.952	NaN	0.000000	0.001578	0.001687	28.0821	57.7435	0.001783	32386.5	3.005231	-2.210026	139.987	1.161325	0.059940	0.059608	138.952	32386.5	0.056722	0.114317	1215.5	87515
622	2.000000	1.164055	7.37114e+06	-45989.1	1005.82	-29770.6	0.000000	0.000000	7.170858	151.046	NaN	0.000000	0.001601	0.001726	28.082	61.3539	0.001842	33313.9	3.094929	176.983	148.54	1.163792	0.062338	0.062075	151.046	33313.9	0.058938	0.122027	1237.81	87130.5
622	2.000000	1.166695	7.37114e+06	-45989.1	1005.82	-29770.6	0.000000	0.000000	7.173653	154.819	NaN	0.000000	0.001596	0.001728	28.0819	64.4758	0.001856	34744.9	11.4827	-10.8126	160.042	1.166284	0.064978	0.064567	154.819	34744.9	0.061637	0.131742	1175.17	87458.4
622	2.000000	1.169016	7.37114e+06	-45989.1	1005.82	-29770.6	0.000000	0.000000	7.176983	179.361	NaN	0.000000	0.001585	0.001743	28.0826	65.0854	0.001799	36175.2	5.444453	173.658	175.78	1.168762	0.067300	0.067045	179.361	36175.2	0.063581	0.138962	1290.72	88661.8
622	2.000000	1.171532	7.37114e+06	-45989.1	1005.82	-29770.6	0.000000	0.000000	7.180228	197.107	NaN	0.000000	0.001579	0.001729	28.0819	67.82	0.001849	36684.9	4.332318	-4.251162	194.132	1.171074	0.069815	0.069357	197.107	36684.9	0.065785	0.147366	1337.54	87309.6
622	2.000000	1.174128	7.37114e+06	-45989.1	1005.82	-29770.6	0.000000	0.000000	7.183425	211.717	NaN	0.000000	0.001556	0.001748	28.0817	70.8016	0.001820	38897.9	7.902401	172.254	213.079	1.173620	0.072411	0.071904	211.717	38897.9	0.068329	0.157355	1345.47	89589.8
622	2.000000	1.176641	7.37114e+06	-45989.1	1005.82	-29770.6	0.000000	0.000000	7.186428	223.623	NaN	0.000000	0.001561	0.001749	28.0819	72.6069	0.001807	40178.9	3.263005	-4.023026	223.04	1.176170	0.074924	0.074454	223.623	40178.9	0.070750	0.167153	1337.84	89787.2
622	2.000000	1.179029	7.37114e+06	-45989.1	1005.82	-29770.6	0.000000	0.000000	7.189150	231.764	NaN	0.000000	0.001554	0.001787	28.0816	76.3269	0.001874	40729.2	6.645437	172.001	229.585	1.178752	0.077312	0.077035	231.764	40729.2	0.073045	0.176693	1311.67	88525.6
622	2.000000	1.181479	7.37114e+06	-45989.1	1005.82	-29770.6	0.000000	0.000000	7.192516	254.055	NaN	0.000000	0.001574	0.001745	28.0818	78.349	0.001849	42374.3	4.544212	-5.842095	247.566	1.181159	0.079762	0.079442	254.055	42374.3	0.075265	0.186163	1364.69	89728.3
622	2.000000	1.183995	7.37114e+06	-45989.1	1005.82	-29770.6	0.000000	0.000000	7.195786	272.372	NaN	0.000000	0.001580	0.001699	28.0818	80.3133	0.001840	43639.4	1.667370	177.023	267.755	1.183673	0.082279	0.081956	272.372	43639.4	0.077598	0.196360	1387.11	89975.8
622	2.000000	1.186569	7.37114e+06	-45989.1	1005.82	-29770.6	0.000000	0.000000	7.198971	287.253	NaN	0.000000	0.001573	0.001696	28.0807	82.4792	0.001742	47342.1	5.988442	-7.082412	284.956	1.186092	0.084852	0.084375	287.253	47342.1	0.080302	0.208499	1377.71	94725.7
622	2.000000	1.188974	7.37114e+06	-45989.1	1005.82	-29770.6	0.000000	0.000000	7.202478	314.047	NaN	0.000000	0.001555	0.001723	28.0808	84.5874	0.001728	48957.1	4.605216	172.689	307.851	1.188646	0.087258	0.086929	314.047	48957.1	0.082447	0.218372	1438.13	95717.3
622	2.000000	1.191486	7.37114e+06	-45989.1	1005.82	-29770.6	0.000000	0.000000	7.205601	328.939	NaN	0.000000	0.001604	0.001720	28.0804	85.5796	0.001645	52026.5	3.517277	-6.116188	321.536	1.191025	0.089769	0.089309	328.939	52026.5	0.085027	0.230530	1426.88	98999.7
622	2.000000	1.193951	7.37114e+06	-45989.1	1005.82	-29770.6	0.000000	0.000000	7.208724	344.919	NaN	0.000000	0.001648	0.001732	28.0807	90.8377	0.001729	52525.9	5.710089	171.19	339.757	1.193783	0.092234	0.092066	344.919	52525.9	0.087309	0.241541	1428	97645.2
622	2.000000	1.196617	7.37114e+06	-45989.1	1005.82	-29770.6	0.000000	0.000000	7.212214	364.973	NaN	0.000000	0.001648	0.001736	28.0806	91.667	0.001696	54037	5.883406	-8.649196	364.6	1.196185	0.094900	0.094468	364.973	54037	0.089834	0.254001	1436.9	97959.5
622	2.000000	1.199101	7.37114e+06	-45989.1	1005.82	-29770.6	0.000000	0.000000	7.215630	387.656	NaN	0.000000	0.001678	0.001702	28.0806	94.1779	0.001749	53837.6	5.330987	171.603	389.536	1.198722	0.097384	0.097005	387.656	53837.6	0.091984	0.264838	1463.75	95580.4
622	2.000000	1.201590	7.37114e+06	-45989.1	1005.82	-29770.6	0.000000	0.000000	7.218586	399.01	NaN	0.000000	0.001587	0.001715	28.0808	97.0533	0.001819	53365.1	4.544573	-7.973139	397.757	1.201311	0.099873	0.099594	399.01	53365.1	0.094265	0.276573	1442.69	92709.7
622	2.000000	1.203975	7.37114e+06	-45989.1	1005.82	-29770.6	0.000000	0.000000	7.221907	421.781	NaN	0.000000	0.001536	0.001708	28.0805	99.8691	0.001834	54460.6	2.546323	174.082	417.268	1.203760	0.102258	0.102044	421.781	54460.6	0.096450	0.288032	1464.36	92711.9
622	2.000000	1.206641	7.37114e+06	-45989.1	1005.82	-29770.6	0.000000	0.000000	7.225540	445.312	NaN	0.000000	0.001557	0.001699	28.0808	101.861	0.001799	56631.3	3.282230	-6.831350	445.908	1.206354	0.104924	0.104637	445.312	56631.3	0.099026	0.301827	1475.39	94178.3
622	2.000000	1.209025	7.37114e+06	-45989.1	1005.82	-29770.6	0.000000	0.000000	7.229094	473.761	NaN	0.000000	0.001520	0.001718	28.0808	103.469	0.001763	58697.2	4.781847	171.372	471.242	1.208754	0.107308	0.107038	473.761	58697.2	0.101254	0.313999	1508.8	95703.2
622	2.000000	1.209981	7.37114e+06	-45989.1	1005.82	-29770.6	0.000000	0.000000	7.230529	485.393	NaN	0.000000	0.001521	0.001724	28.0807	106.029	0.001796	59050.4	7.586404	168.985	480.129	1.209677	0.108264	0.107961	485.393	59050.4	0.102099	0.318675	1523.16	95570.1