File: remote_trans/data/nanoindenter/0828-1/data/Data_2025-08-06,11h17m57s/2025-07-22_16-23-58_1_331.txt
2025-07-22, 16:23:58, 1
Index	Phase	Displacement	Time	Pos X	Pos Y	Pos Z	Rot A	Rot B	Piezo Z	Force A	Force B	Gripper	Voltage A	Voltage B	Temperature	Amplitude force	Amplitude pos	Stiffness	Phase shift	Phase excitation	Force A raw	Displacement raw	HMax	HMax raw	Real Force	Real Stiffness	Contact Depth	Area	Hardness	Reduced Mod.
[#]	[#]	[um]	[s]	[um]	[um]	[um]	[m°]	[m°]	[um]	[uN]	[uN]	[V]	[V]	[V]	[°C]	[uN]	[um]	[N/m]	[°]	[°]	[uN]	[um]	[um]	[um]	[uN]	[N/m]	[um]	[um^2]	[MPa]	[MPa]
331	1.000000	0.002282	7.3683e+06	-55189.1	955.818	-29742.3	0.000000	0.000000	6.002776	0.004284	NaN	0.000000	0.001615	0.001738	28.0788	0.056370	0.000965	58.3953	-81.6426	-165.174	-0.005222	0.001084	-1.130534	-1.131733	0.004284	58.3953	-1.130589	-1.289812E+15	-3.321649E-18	NaN
331	1.000000	0.012391	7.3683e+06	-55189.1	955.82	-29742.3	0.000000	0.000000	6.012882	-0.049902	NaN	0.000000	0.001610	0.001738	28.0788	0.127519	0.001235	103.229	17.2806	15.662	-0.016377	0.010888	-1.120426	-1.121929	-0.049902	103.229	-1.120063	-9.317991E+14	5.355451E-17	NaN
331	1.000000	0.022257	7.3683e+06	-55189.1	955.819	-29742.3	0.000000	0.000000	6.022748	-0.053639	NaN	0.000000	0.001608	0.001693	28.0787	0.101029	0.001737	58.1494	-161.558	-164.112	-0.048123	0.020962	-1.110559	-1.111855	-0.053639	58.1494	-1.109867	-6.799951E+14	7.888120E-17	NaN
331	1.000000	0.032249	7.3683e+06	-55189.1	955.818	-29742.3	0.000000	0.000000	6.032742	0.000700	NaN	0.000000	0.001618	0.001719	28.0789	0.081568	0.001943	41.9763	-88.9178	14.5028	-0.105952	0.030939	-1.100568	-1.101878	0.000700	41.9763	-1.100580	-5.103336E+14	-1.370688E-18	NaN
331	1.000000	0.042210	7.3683e+06	-55189.1	955.818	-29742.3	0.000000	0.000000	6.042704	0.018862	NaN	0.000000	0.001602	0.001721	28.0788	0.089729	0.002087	42.9929	18.922	-168.961	-0.058314	0.040918	-1.090607	-1.091898	0.018862	42.9929	-1.090936	-3.787691E+14	-4.979849E-17	NaN
331	1.000000	0.052282	7.3683e+06	-55189.1	955.819	-29742.3	0.000000	0.000000	6.052774	-0.018616	NaN	0.000000	0.001594	0.001715	28.0788	0.080083	0.001970	40.6416	-55.6842	12.0077	-0.032949	0.050907	-1.080535	-1.081910	-0.018616	40.6416	-1.080191	-2.716974E+14	6.851920E-17	NaN
331	1.000000	0.062273	7.3683e+06	-55189.1	955.819	-29742.3	0.000000	0.000000	6.062765	-0.036377	NaN	0.000000	0.001622	0.001739	28.0789	0.059874	0.002009	29.8061	-0.261356	-165.87	-0.019349	0.060894	-1.070543	-1.071922	-0.036377	29.8061	-1.069628	-1.959701E+14	1.856238E-16	NaN
331	1.000000	0.072261	7.3683e+06	-55189.1	955.818	-29742.3	0.000000	0.000000	6.072754	0.010601	NaN	0.000000	0.001637	0.001689	28.0786	0.036187	0.002011	17.9901	177.32	17.4125	0.006658	0.070891	-1.060556	-1.061926	0.010601	17.9901	-1.060998	-1.500480E+14	-7.065329E-17	NaN
331	1.000000	0.082266	7.3683e+06	-55189.1	955.819	-29742.3	0.000000	0.000000	6.082756	-0.069079	NaN	0.000000	0.001636	0.001690	28.0785	0.051334	0.001976	25.9814	-14.7114	-167.35	0.005455	0.080977	-1.050551	-1.051840	-0.069079	25.9814	-1.048557	-1.020970E+14	6.766018E-16	NaN
331	1.000000	0.092266	7.3683e+06	-55189.1	955.819	-29742.3	0.000000	0.000000	6.092761	0.050754	NaN	0.000000	0.001612	0.001730	28.0785	0.036509	0.002021	18.0626	44.7673	17.0591	-0.006709	0.090867	-1.040551	-1.041950	0.050754	18.0626	-1.042658	-8.505764E+13	-5.967052E-16	NaN
331	1.000000	0.102258	7.3683e+06	-55189.1	955.819	-29742.3	0.000000	0.000000	6.102751	0.007997	NaN	0.000000	0.001604	0.001686	28.079	0.071667	0.001955	36.6625	-90.4805	-162.722	0.019876	0.100959	-1.030559	-1.031857	0.007997	36.6625	-1.030723	-5.877595E+13	-1.360593E-16	NaN
331	1.000000	0.112285	7.3683e+06	-55189.1	955.819	-29742.3	0.000000	0.000000	6.112774	-0.103415	NaN	0.000000	0.001656	0.001706	28.0788	0.050171	0.001938	25.8907	124.584	13.1237	-0.046316	0.110930	-1.020531	-1.021887	-0.103415	25.8907	-1.017535	-3.906526E+13	2.647242E-15	NaN
331	1.000000	0.122294	7.3683e+06	-55189.1	955.818	-29742.3	0.000000	0.000000	6.122788	0.026887	NaN	0.000000	0.001661	0.001730	28.0785	0.173108	0.002049	84.4951	-165.767	-162.099	0.091461	0.120979	-1.010522	-1.011838	0.026887	84.4951	-1.010761	-3.166836E+13	-8.490033E-16	NaN
331	1.000000	0.132274	7.3683e+06	-55189.1	955.819	-29742.3	0.000000	0.000000	6.132764	-0.057755	NaN	0.000000	0.001685	0.001722	28.0797	0.025999	0.002024	12.8454	130.284	16.9957	-0.075859	0.130885	-1.000543	-1.001932	-0.057755	12.8454	-0.997171	-2.078142E+13	2.779150E-15	NaN
331	1.000000	0.142290	7.3683e+06	-55189.1	955.819	-29742.3	0.000000	0.000000	6.142784	0.026278	NaN	0.000000	0.001661	0.001729	28.0799	0.061753	0.001823	33.8789	-124.102	-168.519	0.066479	0.140932	-0.990527	-0.991885	0.026278	33.8789	-0.991109	-1.722040E+13	-1.525955E-15	NaN
331	1.000000	0.152281	7.3683e+06	-55189.1	955.819	-29742.3	0.000000	0.000000	6.152774	-0.010959	NaN	0.000000	0.001709	0.001755	28.0797	0.070076	0.001982	35.3539	-113.366	15.2833	-0.006140	0.150876	-0.980535	-0.981941	-0.010959	35.3539	-0.980303	-1.231650E+13	8.897996E-16	NaN
331	1.000000	0.162321	7.3683e+06	-55189.1	955.819	-29742.3	0.000000	0.000000	6.162810	-0.089110	NaN	0.000000	0.001641	0.001758	28.08	0.048970	0.001965	24.9226	46.2899	-164.61	-0.120569	0.161018	-0.970496	-0.971799	-0.089110	24.9226	-0.967814	-8.359940E+12	1.065918E-14	NaN
331	1.000000	0.172300	7.3683e+06	-55189.1	955.819	-29742.3	0.000000	0.000000	6.172793	-0.015445	NaN	0.000000	0.001624	0.001735	28.0801	0.011122	0.002007	5.541036	-124.902	14.8387	0.004048	0.170967	-0.960516	-0.961849	-0.015445	5.541036	-0.958426	-6.246584E+12	2.472547E-15	NaN
331	1.000000	0.182323	7.3683e+06	-55189.1	955.819	-29742.3	0.000000	0.000000	6.182812	-0.114171	NaN	0.000000	0.001661	0.001766	28.0802	0.059400	0.002028	29.283	19.0637	-166.069	-0.138171	0.181036	-0.950493	-0.951780	-0.114171	29.283	-0.947569	-4.459061E+12	2.560437E-14	NaN
331	1.000000	0.192312	7.3683e+06	-55189.1	955.82	-29742.3	0.000000	0.000000	6.192801	-0.109269	NaN	0.000000	0.001668	0.001749	28.0801	0.103871	0.002065	50.2897	-52.741	13.6659	-0.054200	0.190915	-0.940505	-0.941902	-0.109269	50.2897	-0.938875	-3.403759E+12	3.210235E-14	NaN
331	1.000000	0.202313	7.3683e+06	-55189.1	955.819	-29742.3	0.000000	0.000000	6.202806	-0.001822	NaN	0.000000	0.001674	0.001783	28.0801	0.064536	0.002017	31.9961	6.266090	-163.349	0.055789	0.200970	-0.930503	-0.931847	-0.001822	31.9961	-0.930461	-2.620685E+12	6.953239E-16	NaN
331	1.000000	0.212336	7.3683e+06	-55189.1	955.819	-29742.3	0.000000	0.000000	6.212829	-0.005005	NaN	0.000000	0.001648	0.001751	28.0803	0.079197	0.002002	39.5503	43.9063	13.0655	0.006045	0.211005	-0.920481	-0.921812	-0.005005	39.5503	-0.920386	-1.916089E+12	2.612337E-15	NaN
331	1.000000	0.222318	7.3683e+06	-55189.1	955.819	-29742.3	0.000000	0.000000	6.222809	-0.060807	NaN	0.000000	0.001719	0.001745	28.0803	0.082709	0.001977	41.8255	172.181	-166.363	-0.066256	0.221033	-0.910498	-0.911784	-0.060807	41.8255	-0.909408	-1.361968E+12	4.464651E-14	NaN
331	1.000000	0.232345	7.3683e+06	-55189.1	955.82	-29742.3	0.000000	0.000000	6.232835	-0.067048	NaN	0.000000	0.001715	0.001763	28.0802	0.130366	0.002102	62.018	76.1005	14.2806	-0.059073	0.231016	-0.900472	-0.901800	-0.067048	62.018	-0.899661	-1.005738E+12	6.666581E-14	NaN
331	1.000000	0.242363	7.3683e+06	-55189.1	955.82	-29742.3	0.000000	0.000000	6.242855	-0.034971	NaN	0.000000	0.001657	0.001757	28.0804	0.056897	0.001895	30.0328	-53.563	-165.57	-0.020177	0.241013	-0.890453	-0.891803	-0.034971	30.0328	-0.889580	-7.349198E+11	4.758444E-14	NaN
331	1.000000	0.252353	7.3683e+06	-55189.1	955.819	-29742.3	0.000000	0.000000	6.252846	-0.000791	NaN	0.000000	0.001682	0.001760	28.0804	0.106185	0.001964	54.0579	27.2767	16.2574	0.058028	0.251002	-0.880464	-0.881814	-0.000791	54.0579	-0.880453	-5.531322E+11	1.430406E-15	NaN
331	1.000000	0.262360	7.3683e+06	-55189.1	955.819	-29742.3	0.000000	0.000000	6.262854	0.020574	NaN	0.000000	0.001676	0.001732	28.0793	0.078284	0.002014	38.8695	-171.494	-166.28	0.043631	0.261010	-0.870457	-0.871806	0.020574	38.8695	-0.870854	-4.101967E+11	-5.015713E-14	NaN
331	1.000000	0.272335	7.3683e+06	-55189.1	955.818	-29742.3	0.000000	0.000000	6.272825	-0.074856	NaN	0.000000	0.001643	0.001728	28.0789	0.104482	0.001988	52.5583	141.894	16.6434	-0.142310	0.270991	-0.860482	-0.861825	-0.074856	52.5583	-0.859414	-2.871992E+11	2.606414E-13	NaN
331	1.000000	0.282366	7.3683e+06	-55189.1	955.819	-29742.3	0.000000	0.000000	6.282858	-0.027558	NaN	0.000000	0.001651	0.001712	28.0793	0.143778	0.001892	76.0076	0.592225	-165.193	-0.007045	0.281051	-0.850451	-0.851765	-0.027558	76.0076	-0.850179	-2.153577E+11	1.279644E-13	NaN
331	1.000000	0.292371	7.3683e+06	-55189.1	955.819	-29742.3	0.000000	0.000000	6.292863	-0.013428	NaN	0.000000	0.001665	0.001767	28.0793	0.069827	0.002064	33.828	97.8918	17.1159	0.064704	0.291020	-0.840446	-0.841797	-0.013428	33.828	-0.840148	-1.575060E+11	8.525323E-14	NaN
331	1.000000	0.302335	7.3683e+06	-55189.1	955.819	-29742.3	0.000000	0.000000	6.302826	-0.054889	NaN	0.000000	0.001640	0.001716	28.0793	0.122402	0.001884	64.9688	117.572	-167.761	-0.078969	0.301015	-0.830482	-0.831802	-0.054889	64.9688	-0.829848	-1.142160E+11	4.805717E-13	NaN
331	1.000000	0.312345	7.3683e+06	-55189.1	955.819	-29742.3	0.000000	0.000000	6.312839	0.019633	NaN	0.000000	0.001570	0.001726	28.0796	0.093952	0.002079	45.193	156.583	17.1516	0.024056	0.311032	-0.820472	-0.821784	0.019633	45.193	-0.820797	-8.610412E+10	-2.280168E-13	NaN
331	1.000000	0.322382	7.3683e+06	-55189.1	955.82	-29742.3	0.000000	0.000000	6.322873	-0.048021	NaN	0.000000	0.001572	0.001706	28.0794	0.030094	0.001961	15.3451	8.746223	-163.813	-0.012272	0.321104	-0.810435	-0.811712	-0.048021	15.3451	-0.808088	-5.789315E+10	8.294698E-13	NaN
331	1.000000	0.332387	7.3683e+06	-55189.1	955.819	-29742.3	0.000000	0.000000	6.332879	-0.030220	NaN	0.000000	0.001598	0.001743	28.0793	0.023883	0.002024	11.8028	-84.7608	15.9571	-0.014297	0.331051	-0.800430	-0.801766	-0.030220	11.8028	-0.798509	-4.291661E+10	7.041568E-13	NaN
331	1.000000	0.342396	7.3683e+06	-55189.1	955.818	-29742.3	0.000000	0.000000	6.342889	-0.016528	NaN	0.000000	0.001622	0.001766	28.0791	0.083470	0.002042	40.8684	-7.028344	-165.919	-0.092284	0.341079	-0.790420	-0.791738	-0.016528	40.8684	-0.790117	-3.301217E+10	5.006660E-13	NaN
331	1.000000	0.352381	7.3683e+06	-55189.1	955.82	-29742.3	0.000000	0.000000	6.352872	-0.047082	NaN	0.000000	0.001591	0.001722	28.079	0.061053	0.001917	31.856	61.1995	14.6839	-0.035379	0.351056	-0.780436	-0.781760	-0.047082	31.856	-0.779327	-2.355543E+10	1.998780E-12	NaN
331	1.000000	0.362361	7.3683e+06	-55189.1	955.819	-29742.3	0.000000	0.000000	6.362855	0.024650	NaN	0.000000	0.001619	0.001732	28.0794	0.075156	0.002058	36.5156	-2.290781	-165.673	0.010924	0.361078	-0.770455	-0.771738	0.024650	36.5156	-0.770962	-1.812924E+10	-1.359674E-12	NaN
331	1.000000	0.372376	7.3683e+06	-55189.1	955.819	-29742.3	0.000000	0.000000	6.372867	-0.054168	NaN	0.000000	0.001616	0.001717	28.0792	0.081173	0.001999	40.6161	-119.331	15.0648	0.048580	0.371049	-0.760441	-0.761768	-0.054168	40.6161	-0.759441	-1.263843E+10	4.285965E-12	NaN
331	1.000000	0.382396	7.3683e+06	-55189.1	955.818	-29742.3	0.000000	0.000000	6.382892	0.085906	NaN	0.000000	0.001612	0.001722	28.079	0.123834	0.001960	63.1948	-151.7	-163.089	0.099450	0.381102	-0.750421	-0.751714	0.085906	63.1948	-0.751440	-9.836174E+9	-8.733644E-12	NaN
331	1.000000	0.392398	7.3683e+06	-55189.1	955.818	-29742.3	0.000000	0.000000	6.392892	0.032004	NaN	0.000000	0.001634	0.001729	28.0789	0.021025	0.001899	11.0721	-48.1886	13.155	0.032299	0.391035	-0.740419	-0.741781	0.032004	11.0721	-0.742587	-7.452182E+9	-4.294557E-12	NaN
331	1.000000	0.402399	7.3683e+06	-55189.1	955.819	-29742.3	0.000000	0.000000	6.402891	-0.018819	NaN	0.000000	0.001576	0.001749	28.0803	0.050740	0.002112	24.0243	15.8782	-161.423	0.030718	0.401056	-0.730418	-0.731761	-0.018819	24.0243	-0.729830	-4.994534E+9	3.767877E-12	NaN
331	1.000000	0.412367	7.3683e+06	-55189.1	955.819	-29742.3	0.000000	0.000000	6.412858	-0.054852	NaN	0.000000	0.001591	0.001734	28.08	0.019855	0.002003	9.912832	44.6055	14.3969	-0.001272	0.411053	-0.720449	-0.721764	-0.054852	9.912832	-0.716299	-3.265829E+9	1.679563E-11	NaN
331	1.000000	0.422412	7.3683e+06	-55189.1	955.819	-29742.3	0.000000	0.000000	6.422905	-0.013500	NaN	0.000000	0.001613	0.001742	28.08	0.037620	0.001862	20.2074	-144.394	-164.91	-0.011707	0.421098	-0.710404	-0.711719	-0.013500	20.2074	-0.709903	-2.671343E+9	5.053587E-12	NaN
331	1.000000	0.432435	7.3683e+06	-55189.1	955.819	-29742.3	0.000000	0.000000	6.432924	-0.116894	NaN	0.000000	0.001599	0.001735	28.0801	0.113286	0.002032	55.7608	126.153	14.7228	0.018548	0.431086	-0.700381	-0.701731	-0.116894	55.7608	-0.698809	-1.884800E+9	6.201917E-11	NaN
331	1.000000	0.442415	7.3683e+06	-55189.1	955.818	-29742.3	0.000000	0.000000	6.442906	-0.060466	NaN	0.000000	0.001635	0.001686	28.0801	0.057699	0.001909	30.2205	-31.7812	-164.989	-0.104152	0.441087	-0.690402	-0.691729	-0.060466	30.2205	-0.688901	-1.380061E+9	4.381428E-11	NaN
331	1.000000	0.452411	7.3683e+06	-55189.1	955.819	-29742.3	0.000000	0.000000	6.452905	0.021517	NaN	0.000000	0.001565	0.001715	28.0801	0.066119	0.001947	33.9541	-94.8122	13.408	-0.029540	0.451057	-0.680405	-0.681759	0.021517	33.9541	-0.680881	-1.072130E+9	-2.006965E-11	NaN
331	1.000000	0.462432	7.3683e+06	-55189.1	955.819	-29742.3	0.000000	0.000000	6.462921	-0.101034	NaN	0.000000	0.001595	0.001701	28.08	0.121509	0.001954	62.1797	72.4644	-164.16	-0.048575	0.461145	-0.670384	-0.671671	-0.101034	62.1797	-0.669166	-7.412622E+8	1.362998E-10	NaN
331	1.000000	0.472431	7.3683e+06	-55189.1	955.819	-29742.3	0.000000	0.000000	6.472922	-0.037415	NaN	0.000000	0.001602	0.001693	28.0803	0.136284	0.001980	68.8358	-6.854436	12.2908	-0.055339	0.471063	-0.660386	-0.661754	-0.037415	68.8358	-0.659978	-5.548458E+8	6.743383E-11	NaN
331	1.000000	0.482445	7.3683e+06	-55189.1	955.818	-29742.3	0.000000	0.000000	6.482939	0.013190	NaN	0.000000	0.001573	0.001711	28.0799	0.012302	0.001960	6.275171	177.583	-166.998	0.014835	0.481122	-0.650372	-0.651695	0.013190	6.275171	-0.651948	-4.306669E+8	-3.062804E-11	NaN
331	1.000000	0.492435	7.3683e+06	-55189.1	955.819	-29742.3	0.000000	0.000000	6.492927	-0.026707	NaN	0.000000	0.001601	0.001737	28.0801	0.031851	0.002010	15.8438	143.006	17.6138	0.021638	0.491063	-0.640381	-0.641753	-0.026707	15.8438	-0.639117	-2.871914E+8	9.299482E-11	NaN
331	1.000000	0.502459	7.3683e+06	-55189.1	955.818	-29742.3	0.000000	0.000000	6.502949	-0.058234	NaN	0.000000	0.001598	0.001718	28.0801	0.097832	0.001894	51.6513	40.7607	-164.909	0.022334	0.501141	-0.630358	-0.631676	-0.058234	51.6513	-0.629512	-2.119953E+8	2.746939E-10	NaN
331	1.000000	0.512457	7.3683e+06	-55189.1	955.818	-29742.3	0.000000	0.000000	6.512950	-0.005632	NaN	0.000000	0.001619	0.001681	28.0806	0.048872	0.001968	24.8273	34.102	16.6826	-0.017002	0.511041	-0.620360	-0.621775	-0.005632	24.8273	-0.620190	-1.578481E+8	3.567705E-11	NaN
331	1.000000	0.522481	7.3683e+06	-55189.1	955.818	-29742.3	0.000000	0.000000	6.522975	0.005115	NaN	0.000000	0.001630	0.001681	28.08	0.068978	0.002003	34.4376	-40.0632	-166.054	0.022088	0.521110	-0.610335	-0.611707	0.005115	34.4376	-0.610447	-1.159472E+8	-4.411788E-11	NaN
331	1.000000	0.532440	7.3683e+06	-55189.1	955.819	-29742.3	0.000000	0.000000	6.532930	-0.056409	NaN	0.000000	0.001567	0.001666	28.0803	0.023166	0.002032	11.4015	7.867453	11.6928	-0.011138	0.531077	-0.600377	-0.601739	-0.056409	11.4015	-0.596666	-7.491006E+7	7.530188E-10	NaN
331	1.000000	0.542447	7.3683e+06	-55189.1	955.818	-29742.3	0.000000	0.000000	6.542940	-0.021437	NaN	0.000000	0.001574	0.001702	28.079	0.065261	0.001973	33.0845	-68.6022	-167.345	0.017659	0.541130	-0.590369	-0.591686	-0.021437	33.0845	-0.589883	-6.040267E+7	3.549088E-10	NaN
331	1.000000	0.552472	7.3683e+06	-55189.1	955.819	-29742.3	0.000000	0.000000	6.552965	-0.010834	NaN	0.000000	0.001533	0.001731	28.0792	0.045623	0.001985	22.9887	62.8391	14.2971	-0.046657	0.551173	-0.580345	-0.581644	-0.010834	22.9887	-0.579991	-4.411687E+7	2.455713E-10	NaN
331	1.000000	0.562448	7.3683e+06	-55189.1	955.82	-29742.3	0.000000	0.000000	6.562942	0.019984	NaN	0.000000	0.001560	0.001692	28.0789	0.012979	0.001855	6.997383	-94.9995	-173.032	0.024282	0.561201	-0.570369	-0.571616	0.019984	6.997383	-0.572511	-3.477894E+7	-5.746040E-10	NaN
331	1.000000	0.572482	7.3683e+06	-55189.1	955.819	-29742.3	0.000000	0.000000	6.572974	-0.018486	NaN	0.000000	0.001596	0.001676	28.0788	0.034768	0.002009	17.3032	-47.0144	15.85	-0.056607	0.571087	-0.560335	-0.561730	-0.018486	17.3032	-0.559533	-2.301035E+7	8.033693E-10	NaN
331	1.000000	0.582479	7.3683e+06	-55189.1	955.819	-29742.3	0.000000	0.000000	6.582973	0.034839	NaN	0.000000	0.001585	0.001697	28.079	0.059960	0.002006	29.8927	132.664	-167.488	0.078564	0.581180	-0.550338	-0.551636	0.034839	29.8927	-0.551212	-1.764995E+7	-1.973883E-9	NaN
331	1.000000	0.592469	7.3683e+06	-55189.1	955.82	-29742.3	0.000000	0.000000	6.592959	-0.072105	NaN	0.000000	0.001577	0.001696	28.0793	0.016051	0.002022	7.938867	-170.977	15.978	-0.028686	0.591119	-0.540348	-0.541697	-0.072105	7.938867	-0.533536	-1.003856E+7	7.182798E-9	NaN
331	1.000000	0.602505	7.3683e+06	-55189.1	955.819	-29742.3	0.000000	0.000000	6.602999	0.027253	NaN	0.000000	0.001589	0.001675	28.079	0.052100	0.001911	27.2572	-109.46	-165.017	0.056278	0.601194	-0.530312	-0.531622	0.027253	27.2572	-0.531062	-9.27513e+06	-2.938323E-9	NaN
331	1.000000	0.612484	7.3683e+06	-55189.1	955.819	-29742.3	0.000000	0.000000	6.612977	-0.000788	NaN	0.000000	0.001597	0.001720	28.079	0.070917	0.001974	35.9288	-149.051	12.4771	0.009671	0.611150	-0.520333	-0.521667	-0.000788	35.9288	-0.520316	-6.5765e+06	1.197555E-10	NaN
331	1.000000	0.622524	7.3683e+06	-55189.1	955.818	-29742.3	0.000000	0.000000	6.623015	-0.067406	NaN	0.000000	0.001596	0.001725	28.0791	0.016400	0.002007	8.172760	93.2746	-169.806	-0.052102	0.621156	-0.510292	-0.511660	-0.067406	8.172760	-0.504106	-3.911e+06	1.723504E-8	NaN
331	1.000000	0.632487	7.3683e+06	-55189.1	955.82	-29742.3	0.000000	0.000000	6.632980	0.009802	NaN	0.000000	0.001618	0.001681	28.0788	0.029882	0.002046	14.6082	93.5636	16.5007	-0.020077	0.631125	-0.500330	-0.501692	0.009802	14.6082	-0.500833	-3.52076e+06	-2.783969E-9	NaN
331	1.000000	0.642526	7.3683e+06	-55189.1	955.82	-29742.3	0.000000	0.000000	6.643016	-0.096088	NaN	0.000000	0.001594	0.001677	28.0787	0.099946	0.002021	49.4495	51.5259	-165.253	-0.040133	0.641149	-0.490290	-0.491668	-0.096088	49.4495	-0.488833	-2.39376e+06	4.014109E-8	NaN
331	1.000000	0.652524	7.3683e+06	-55189.1	955.819	-29742.3	0.000000	0.000000	6.653014	-0.071363	NaN	0.000000	0.001628	0.001697	28.0789	0.076954	0.001970	39.0714	134.208	16.2656	-0.030252	0.651176	-0.480293	-0.481640	-0.071363	39.0714	-0.478923	-1.7396e+06	4.102265E-8	NaN
331	1.000000	0.662518	7.3683e+06	-55189.1	955.818	-29742.3	0.000000	0.000000	6.663009	-0.051829	NaN	0.000000	0.001608	0.001696	28.0791	0.018723	0.001871	10.0097	3.219243	-165.84	-0.086483	0.661200	-0.470299	-0.471616	-0.051829	10.0097	-0.466415	-1.16175e+06	4.461291E-8	NaN
331	1.000000	0.672538	7.3683e+06	-55189.1	955.818	-29742.3	0.000000	0.000000	6.673031	-0.018574	NaN	0.000000	0.001611	0.001695	28.0801	0.067658	0.001991	33.9734	-121.38	15.015	-0.043957	0.671188	-0.460278	-0.461629	-0.018574	33.9734	-0.459868	-940083	1.975804E-8	NaN
331	1.000000	0.682539	7.3683e+06	-55189.1	955.818	-29742.3	0.000000	0.000000	6.683031	-0.022995	NaN	0.000000	0.001598	0.001745	28.0802	0.072151	0.001829	39.447	-118.12	-167.451	-0.122326	0.681256	-0.450277	-0.451561	-0.022995	39.447	-0.449840	-679347	3.384847E-8	NaN
331	1.000000	0.692525	7.3683e+06	-55189.1	955.819	-29742.3	0.000000	0.000000	6.693017	-0.018192	NaN	0.000000	0.001639	0.001717	28.0801	0.060079	0.002008	29.9137	97.1527	14.1869	-0.111274	0.691169	-0.440292	-0.441647	-0.018192	29.9137	-0.439836	-490958	3.705441E-8	NaN
331	1.000000	0.702530	7.3683e+06	-55189.1	955.819	-29742.3	0.000000	0.000000	6.703021	-0.072182	NaN	0.000000	0.001621	0.001692	28.0811	0.016440	0.002062	7.974558	-34.9756	-165.864	-0.088442	0.701236	-0.430286	-0.431581	-0.072182	7.974558	-0.423498	-288401	2.502831E-7	NaN
331	1.000000	0.712539	7.3683e+06	-55189.1	955.818	-29742.3	0.000000	0.000000	6.713029	-0.071712	NaN	0.000000	0.001593	0.001729	28.0804	0.050725	0.002043	24.8309	-105.367	14.2165	-0.012303	0.711221	-0.420278	-0.421595	-0.071712	24.8309	-0.418111	-241893	2.964618E-7	NaN
331	1.000000	0.722528	7.3683e+06	-55189.1	955.82	-29742.3	0.000000	0.000000	6.723019	-0.054008	NaN	0.000000	0.001574	0.001738	28.0803	0.055901	0.001958	28.5474	141.932	-166.538	-0.141685	0.721222	-0.410289	-0.411594	-0.054008	28.5474	-0.408870	-178784	3.020869E-7	NaN
331	1.000000	0.732547	7.3683e+06	-55189.1	955.82	-29742.3	0.000000	0.000000	6.733038	-0.056854	NaN	0.000000	0.001589	0.001677	28.0802	0.054425	0.002048	26.5727	158.35	13.4967	-0.070069	0.731156	-0.400269	-0.401660	-0.056854	26.5727	-0.398664	-127921	4.444411E-7	NaN
331	1.000000	0.742561	7.3683e+06	-55189.1	955.818	-29742.3	0.000000	0.000000	6.743054	-0.007426	NaN	0.000000	0.001562	0.001666	28.0802	0.099627	0.002004	49.7186	-48.3085	-164.081	-0.044435	0.741270	-0.390256	-0.391546	-0.007426	49.7186	-0.390144	-96654.3	7.683341E-8	NaN
331	1.000000	0.752565	7.36831e+06	-55189.1	955.817	-29742.3	0.000000	0.000000	6.753060	0.045674	NaN	0.000000	0.001553	0.001719	28.0801	0.141584	0.001999	70.8448	-126.863	14.7186	0.139484	0.751235	-0.380251	-0.381581	0.045674	70.8448	-0.380735	-70865.3	-6.445191E-7	NaN
331	1.000000	0.762559	7.36831e+06	-55189.1	955.819	-29742.3	0.000000	0.000000	6.763052	0.012653	NaN	0.000000	0.001591	0.001731	28.0802	0.061707	0.002012	30.6633	169.169	-163.669	0.045751	0.761247	-0.370258	-0.371569	0.012653	30.6633	-0.370567	-50617	-2.499660E-7	NaN
331	1.000000	0.772558	7.36831e+06	-55189.1	955.818	-29742.3	0.000000	0.000000	6.773049	-0.062885	NaN	0.000000	0.001530	0.001765	28.0802	0.073267	0.001963	37.3287	5.007527	15.6734	-0.041389	0.771224	-0.360258	-0.361593	-0.062885	37.3287	-0.358995	-34459.7	1.824892E-6	NaN
331	1.000000	0.782575	7.36831e+06	-55189.1	955.818	-29742.3	0.000000	0.000000	6.783067	-0.026801	NaN	0.000000	0.001554	0.001730	28.0801	0.038180	0.001797	21.2486	16.3961	-165.356	0.009120	0.781232	-0.350241	-0.351585	-0.026801	21.2486	-0.349295	-24932.9	1.074942E-6	NaN
331	1.000000	0.792562	7.36831e+06	-55189.1	955.819	-29742.3	0.000000	0.000000	6.793054	-0.020840	NaN	0.000000	0.001547	0.001749	28.0801	0.028385	0.001993	14.2409	-82.1785	14.7682	-0.085393	0.791267	-0.340255	-0.341549	-0.020840	14.2409	-0.339157	-17752.9	1.173874E-6	NaN
331	1.000000	0.802569	7.36831e+06	-55189.1	955.819	-29742.3	0.000000	0.000000	6.803060	-0.037838	NaN	0.000000	0.001560	0.001751	28.0801	0.086722	0.001950	44.4736	78.4269	-160.031	-0.121493	0.801301	-0.330248	-0.331515	-0.037838	44.4736	-0.329610	-12874.7	2.938929E-6	NaN
331	1.000000	0.812575	7.36831e+06	-55189.1	955.819	-29742.3	0.000000	0.000000	6.813067	-0.047734	NaN	0.000000	0.001575	0.001723	28.0789	0.091558	0.001956	46.81	-89.8001	13.7778	-0.060032	0.811176	-0.320241	-0.321640	-0.047734	46.81	-0.319476	-9139.63	5.222797E-6	NaN
331	1.000000	0.822594	7.36831e+06	-55189.1	955.818	-29742.3	0.000000	0.000000	6.823087	-0.008093	NaN	0.000000	0.001576	0.001722	28.0789	0.074055	0.002032	36.4448	-110.362	-165.76	0.039029	0.821267	-0.310223	-0.311549	-0.008093	36.4448	-0.310056	-6635.7	1.219689E-6	NaN
331	1.000000	0.832562	7.36831e+06	-55189.1	955.818	-29742.3	0.000000	0.000000	6.833055	-0.012684	NaN	0.000000	0.001570	0.001702	28.0789	0.092366	0.001999	46.1997	-148.19	14.5713	-0.036571	0.831267	-0.300254	-0.301550	-0.012684	46.1997	-0.300048	-4713.64	2.690969E-6	NaN
331	1.000000	0.842621	7.36831e+06	-55189.1	955.818	-29742.3	0.000000	0.000000	6.843112	-0.042027	NaN	0.000000	0.001519	0.001718	28.079	0.066000	0.001991	33.1478	-21.7042	-167.168	0.037606	0.841292	-0.290196	-0.291524	-0.042027	33.1478	-0.289245	-3250.75	1.292831E-5	NaN
331	1.000000	0.852573	7.36831e+06	-55189.1	955.819	-29742.3	0.000000	0.000000	6.853063	-0.071701	NaN	0.000000	0.001533	0.001709	28.079	0.104086	0.002017	51.5986	86.7259	16.0984	-0.057624	0.851220	-0.280243	-0.281597	-0.071701	51.5986	-0.279201	-2295.7	3.123270E-5	NaN
331	1.000000	0.862606	7.36831e+06	-55189.1	955.819	-29742.3	0.000000	0.000000	6.863094	-0.105853	NaN	0.000000	0.001563	0.001723	28.079	0.008678	0.001966	4.413431	4.972619	-166.965	-0.126135	0.861330	-0.270211	-0.271487	-0.105853	4.413431	-0.252223	-889.826	0.000119	NaN
331	1.000000	0.872563	7.36831e+06	-55189.1	955.817	-29742.3	0.000000	0.000000	6.873057	0.025223	NaN	0.000000	0.001529	0.001741	28.0788	0.054656	0.002119	25.7956	169.912	11.198	0.017426	0.871281	-0.260254	-0.261535	0.025223	25.7956	-0.260987	-1213.51	-2.078488E-5	NaN
331	1.000000	0.882599	7.36831e+06	-55189.1	955.819	-29742.3	0.000000	0.000000	6.883088	-0.089631	NaN	0.000000	0.001535	0.001693	28.0793	0.045368	0.001977	22.9474	19.5557	-163.865	-0.061347	0.881290	-0.250218	-0.251526	-0.089631	22.9474	-0.247288	-746.401	0.000120	NaN
331	1.000000	0.892621	7.36831e+06	-55189.1	955.818	-29742.3	0.000000	0.000000	6.893114	0.001518	NaN	0.000000	0.001541	0.001696	28.0789	0.096711	0.001952	49.5425	84.1098	17.2267	0.076042	0.891275	-0.240196	-0.241541	0.001518	49.5425	-0.240219	-579.392	-2.619161E-6	NaN
331	1.000000	0.902611	7.36831e+06	-55189.1	955.819	-29742.3	0.000000	0.000000	6.903102	-0.057180	NaN	0.000000	0.001523	0.001700	28.079	0.120501	0.002039	59.0951	-143.461	-163.935	-0.076515	0.901339	-0.230205	-0.231477	-0.057180	59.0951	-0.229479	-392.91	0.000146	NaN
331	1.000000	0.912608	7.36831e+06	-55189.1	955.818	-29742.3	0.000000	0.000000	6.913098	-0.062684	NaN	0.000000	0.001553	0.001668	28.0791	0.038693	0.002061	18.7765	170.495	14.7218	-0.081089	0.911264	-0.220209	-0.221553	-0.062684	18.7765	-0.217705	-255.238	0.000246	NaN
331	1.000000	0.922638	7.36831e+06	-55189.1	955.818	-29742.3	0.000000	0.000000	6.923132	0.015849	NaN	0.000000	0.001557	0.001701	28.0789	0.092451	0.002057	44.9543	-162.728	-163.653	-0.038067	0.921326	-0.210179	-0.211491	0.015849	44.9543	-0.210443	-194.98	-8.128735E-5	NaN
331	1.000000	0.932617	7.36831e+06	-55189.1	955.819	-29742.3	0.000000	0.000000	6.933106	-0.090782	NaN	0.000000	0.001625	0.001694	28.0786	0.030937	0.001888	16.3845	103.223	12.6713	-0.065262	0.931269	-0.200200	-0.201548	-0.090782	16.3845	-0.196044	-113.368	0.000801	NaN
331	1.000000	0.942613	7.36831e+06	-55189.1	955.818	-29742.3	0.000000	0.000000	6.943104	-0.048635	NaN	0.000000	0.001652	0.001702	28.0788	0.002317	0.002121	1.092179	-54.7437	-162.339	-0.047766	0.941307	-0.190204	-0.191509	-0.048635	1.092179	-0.156806	-24.044	0.002023	NaN
331	1.000000	0.952644	7.36831e+06	-55189.1	955.818	-29742.3	0.000000	0.000000	6.953136	-0.009255	NaN	0.000000	0.001539	0.001742	28.0801	0.045528	0.001944	23.4213	115.198	13.9345	-0.002331	0.951312	-0.180173	-0.181505	-0.009255	23.4213	-0.179877	-60.725	0.000152	NaN
331	1.000000	0.962607	7.36831e+06	-55189.1	955.818	-29742.3	0.000000	0.000000	6.963100	-0.022972	NaN	0.000000	0.001538	0.001735	28.0802	0.043953	0.001889	23.2671	134.466	-167.05	-0.021986	0.961373	-0.170209	-0.171444	-0.022972	23.2671	-0.169469	-40.2145	0.000571	NaN
331	1.000000	0.972657	7.36831e+06	-55189.1	955.818	-29742.3	0.000000	0.000000	6.973145	-0.127430	NaN	0.000000	0.001557	0.001709	28.0802	0.080020	0.002035	39.3263	125.725	13.2563	-0.059066	0.971308	-0.160159	-0.161509	-0.127430	39.3263	-0.157729	-24.9756	0.005102	NaN
331	1.000000	0.982656	7.36831e+06	-55189.1	955.818	-29742.3	0.000000	0.000000	6.983144	-0.117933	NaN	0.000000	0.001543	0.001725	28.0799	0.023802	0.002034	11.7047	116.974	-165.351	-0.078167	0.981301	-0.150161	-0.151516	-0.117933	11.7047	-0.142604	-13.2337	0.008912	NaN
331	1.000000	0.992664	7.36831e+06	-55189.1	955.818	-29742.3	0.000000	0.000000	6.993157	-0.010248	NaN	0.000000	0.001578	0.001707	28.081	0.021483	0.002045	10.5039	-144.652	14.3862	-0.020341	0.991341	-0.140152	-0.141476	-0.010248	10.5039	-0.139420	-11.5364	0.000888	NaN
331	1.000000	1.002665	7.36831e+06	-55189.1	955.818	-29742.3	0.000000	0.000000	7.003159	0.003765	NaN	0.000000	0.001573	0.001689	28.08	0.064199	0.002040	31.4633	87.1984	-163.419	-0.014732	1.001340	-0.130151	-0.131477	0.003765	31.4633	-0.130241	-7.703495	-0.000489	NaN
331	1.000000	1.012667	7.36831e+06	-55189.1	955.817	-29742.3	0.000000	0.000000	7.013159	-0.021600	NaN	0.000000	0.001544	0.001692	28.0801	0.117804	0.001986	59.3268	46.3789	15.0721	0.021196	1.011264	-0.120150	-0.121552	-0.021600	59.3268	-0.119877	-4.803881	0.004496	NaN
331	1.000000	1.022658	7.36831e+06	-55189.1	955.817	-29742.3	0.000000	0.000000	7.023153	0.034851	NaN	0.000000	0.001563	0.001710	28.0799	0.079836	0.001955	40.8323	-96.0661	-162.469	0.001100	1.021306	-0.110158	-0.111510	0.034851	40.8323	-0.110798	-3.123758	-0.011157	NaN
331	1.000000	1.032674	7.36831e+06	-55189.1	955.817	-29742.3	0.000000	0.000000	7.033165	-0.041935	NaN	0.000000	0.001564	0.001699	28.08	0.093929	0.002072	45.339	-66.4206	16.1215	-0.015481	1.031319	-0.100143	-0.101498	-0.041935	45.339	-0.099449	-1.776415	0.023607	NaN
331	1.000000	1.042687	7.36831e+06	-55189.1	955.816	-29742.3	0.000000	0.000000	7.043181	0.014095	NaN	0.000000	0.001574	0.001714	28.0798	0.125432	0.001837	68.2711	-156.778	-164.289	0.035346	1.041310	-0.090130	-0.091507	0.014095	68.2711	-0.090284	-1.097699	-0.012841	NaN
331	1.000000	1.052679	7.36831e+06	-55189.1	955.817	-29742.3	0.000000	0.000000	7.053169	-0.068146	NaN	0.000000	0.001554	0.001703	28.0799	0.169295	0.002016	83.9758	111.665	12.4716	-0.046743	1.051324	-0.080138	-0.081493	-0.068146	83.9758	-0.079529	-0.602417	0.113122	NaN
331	1.000000	1.062691	7.36831e+06	-55189.1	955.816	-29742.3	0.000000	0.000000	7.063186	0.043699	NaN	0.000000	0.001595	0.001719	28.0799	0.039511	0.001940	20.3638	-13.653	-163.294	0.036132	1.061352	-0.070126	-0.071464	0.043699	20.3638	-0.071735	-0.379396	-0.115180	NaN
331	1.000000	1.072659	7.36831e+06	-55189.1	955.817	-29742.3	0.000000	0.000000	7.073153	0.017758	NaN	0.000000	0.001578	0.001698	28.08	0.058863	0.001959	30.041	-128.364	14.6143	-0.001133	1.071327	-0.060157	-0.061489	0.017758	30.041	-0.060601	-0.187368	-0.094777	NaN
331	1.000000	1.082679	7.36831e+06	-55189.1	955.817	-29742.3	0.000000	0.000000	7.083169	-0.075769	NaN	0.000000	0.001569	0.001696	28.0786	0.017615	0.002086	8.443611	140.824	-165.193	-0.088459	1.081331	-0.050138	-0.051486	-0.075769	8.443611	-0.043408	-0.057450	1.318864	NaN
331	1.000000	1.092671	7.36831e+06	-55189.1	955.816	-29742.3	0.000000	0.000000	7.093161	-0.071542	NaN	0.000000	0.001559	0.001747	28.0785	0.072476	0.002028	35.7299	-118.816	15.155	-0.013292	1.091362	-0.040145	-0.041454	-0.071542	35.7299	-0.038644	-0.041140	1.738985	NaN
331	1.000000	1.102687	7.36831e+06	-55189.1	955.815	-29742.3	0.000000	0.000000	7.103180	-0.013977	NaN	0.000000	0.001552	0.001753	28.0789	0.031910	0.002053	15.5424	-179.138	-166.652	-0.020820	1.101392	-0.030129	-0.031425	-0.013977	15.5424	-0.029455	-0.022224	0.628885	NaN
331	1.000000	1.112716	7.36831e+06	-55189.1	955.816	-29742.3	0.000000	0.000000	7.113209	0.009997	NaN	0.000000	0.001547	0.001731	28.0787	0.054678	0.002067	26.4577	83.8018	15.4768	-0.013669	1.111357	-0.020101	-0.021460	0.009997	26.4577	-0.020384	-0.012847	-0.778166	NaN
331	1.000000	1.122673	7.36831e+06	-55189.1	955.818	-29742.3	0.000000	0.000000	7.123164	-0.063325	NaN	0.000000	0.001620	0.001722	28.0787	0.114539	0.002033	56.3458	-26.2418	-166.195	0.006965	1.121404	-0.010143	-0.011412	-0.063325	56.3458	-0.009300	-0.005986	10.5786	NaN
331	1.000000	1.132718	7.36831e+06	-55189.1	955.817	-29742.3	0.000000	0.000000	7.133217	0.165050	NaN	0.000000	0.001566	0.001688	28.0786	0.489195	0.002028	241.165	4.749296	13.3352	-0.046801	1.131361	-9.901196E-5	-0.001455	0.165050	241.165	-0.000612	-0.000452	-364.969	NaN
331	2.000000	1.141326	7.36831e+06	-55189.1	955.818	-29742.3	0.000000	0.000000	7.142156	8.179078	NaN	0.000000	0.001529	0.001733	28.0788	8.513826	0.001571	5419.13	4.410391	-170.887	8.806701	1.140934	0.008509	0.008117	8.179078	5419.13	0.007377	0.006410	1276.02	61841.5
331	2.000000	1.143776	7.36831e+06	-55189.1	955.818	-29742.3	0.000000	0.000000	7.144722	11.0081	NaN	0.000000	0.001561	0.001713	28.0787	11.3411	0.001759	6446.38	8.547562	3.857191	10.1622	1.143381	0.010959	0.010564	11.0081	6446.38	0.009678	0.008826	1247.2	62690.3
331	2.000000	1.146268	7.36831e+06	-55189.1	955.817	-29742.3	0.000000	0.000000	7.147340	14.0909	NaN	0.000000	0.001546	0.001729	28.0787	13.8826	0.001902	7298.88	9.198372	-174.635	14.7093	1.145957	0.013451	0.013141	14.0909	7298.88	0.012003	0.011494	1225.95	62200.7
331	2.000000	1.148764	7.36831e+06	-55189.1	955.817	-29742.3	0.000000	0.000000	7.150035	18.9077	NaN	0.000000	0.001539	0.001711	28.0789	15.9269	0.001776	8965.67	4.706999	7.352539	18.2909	1.148390	0.015948	0.015573	18.9077	8965.67	0.014366	0.014449	1308.58	68145.2
331	2.000000	1.151208	7.36831e+06	-55189.1	955.817	-29742.3	0.000000	0.000000	7.152673	23.6368	NaN	0.000000	0.001508	0.001700	28.0789	18.8187	0.001810	10399.8	9.379407	-178.436	22.5663	1.150855	0.018391	0.018038	23.6368	10399.8	0.016686	0.017600	1342.97	71620.6
331	2.000000	1.153694	7.36831e+06	-55189.1	955.815	-29742.3	0.000000	0.000000	7.155331	27.8036	NaN	0.000000	0.001541	0.001693	28.079	20.8356	0.001649	12637.4	6.161490	2.406353	26.166	1.153330	0.020877	0.020514	27.8036	12637.4	0.019227	0.021343	1302.73	79032.9
331	2.000000	1.156243	7.36831e+06	-55189.1	955.816	-29742.3	0.000000	0.000000	7.157963	29.8314	NaN	0.000000	0.001556	0.001761	28.0788	23.946	0.001942	12333.3	6.482787	-177.504	30.4024	1.155952	0.023426	0.023135	29.8314	12333.3	0.021612	0.025139	1186.65	71068.4
331	2.000000	1.158709	7.36831e+06	-55189.1	955.817	-29742.3	0.000000	0.000000	7.160846	39.9592	NaN	0.000000	0.001609	0.001715	28.0792	26.7174	0.001885	14174.7	5.605191	2.494951	38.8748	1.158309	0.025892	0.025493	39.9592	14174.7	0.023778	0.028830	1386.02	76271.9
331	2.000000	1.161156	7.36831e+06	-55189.1	955.816	-29742.3	0.000000	0.000000	7.163433	43.3809	NaN	0.000000	0.001583	0.001670	28.0801	27.9038	0.001754	15908	3.776835	-177.335	40.908	1.160890	0.028339	0.028073	43.3809	15908	0.026294	0.033412	1298.37	79513.2
331	2.000000	1.163673	7.36831e+06	-55189.1	955.815	-29742.3	0.000000	0.000000	7.166350	53.0902	NaN	0.000000	0.001566	0.001704	28.08	31.3021	0.001825	17154.3	5.850954	-0.631129	50.4917	1.163308	0.030857	0.030491	53.0902	17154.3	0.028536	0.037763	1405.87	80651.1
331	2.000000	1.166169	7.36831e+06	-55189.1	955.816	-29742.3	0.000000	0.000000	7.169047	57.9658	NaN	0.000000	0.001564	0.001715	28.0803	33.2837	0.001713	19424.7	-0.532132	-176.247	56.3982	1.165923	0.033352	0.033107	57.9658	19424.7	0.031114	0.043085	1345.38	85499.6
331	2.000000	1.168713	7.36831e+06	-55189.1	955.816	-29742.3	0.000000	0.000000	7.172110	70.6089	NaN	0.000000	0.001569	0.001700	28.0802	35.7847	0.001740	20564.6	6.747397	-2.854115	69.228	1.168256	0.035896	0.035440	70.6089	20564.6	0.033321	0.047908	1473.83	85839.7
331	2.000000	1.171219	7.36831e+06	-55189.1	955.817	-29742.3	0.000000	0.000000	7.174763	74.1671	NaN	0.000000	0.001558	0.001693	28.0803	38.2735	0.001745	21932.2	10.0416	173.186	76.1246	1.170854	0.038403	0.038038	74.1671	21932.2	0.035866	0.053783	1379.01	86404
331	2.000000	1.173636	7.36831e+06	-55189.1	955.816	-29742.3	0.000000	0.000000	7.177550	83.1525	NaN	0.000000	0.001606	0.001735	28.0801	40.9082	0.001768	23143.7	7.293063	-5.057473	81.0539	1.173328	0.040819	0.040512	83.1525	23143.7	0.038125	0.059272	1402.9	86852.3
331	2.000000	1.176201	7.36831e+06	-55189.1	955.816	-29742.3	0.000000	0.000000	7.180414	90.426	NaN	0.000000	0.001644	0.001718	28.0802	43.7965	0.001922	22791.3	4.302977	178.024	90.0754	1.175895	0.043385	0.043078	90.426	22791.3	0.040409	0.065089	1389.26	81618.2
331	2.000000	1.178657	7.36831e+06	-55189.1	955.816	-29742.3	0.000000	0.000000	7.183379	102.809	NaN	0.000000	0.001648	0.001725	28.08	45.2836	0.001710	26485.3	4.040197	-2.577481	99.8505	1.178226	0.045840	0.045409	102.809	26485.3	0.042929	0.071816	1431.55	90295.7
331	2.000000	1.181203	7.36831e+06	-55189.1	955.817	-29742.3	0.000000	0.000000	7.186263	111.02	NaN	0.000000	0.001639	0.001736	28.08	47.6887	0.001899	25118.1	3.801729	178.29	112.448	1.180854	0.048386	0.048037	111.02	25118.1	0.045071	0.077790	1427.18	82280.6
331	2.000000	1.183593	7.36831e+06	-55189.1	955.816	-29742.3	0.000000	0.000000	7.189205	124.446	NaN	0.000000	0.001643	0.001755	28.08	48.9123	0.001693	28891.5	4.572904	-4.058109	120.18	1.183279	0.050777	0.050463	124.446	28891.5	0.047546	0.084979	1464.44	90549.7
331	2.000000	1.186143	7.36831e+06	-55189.1	955.817	-29742.3	0.000000	0.000000	7.191931	128.718	NaN	0.000000	0.001618	0.001717	28.08	52.5865	0.001736	30283.3	1.367825	178.072	126.736	1.185961	0.053327	0.053145	128.718	30283.3	0.050139	0.092843	1386.4	90803.4
331	2.000000	1.188645	7.36831e+06	-55189.1	955.817	-29742.3	0.000000	0.000000	7.195211	147.629	NaN	0.000000	0.001638	0.001719	28.0802	54.14	0.001795	30159.7	6.542940	-5.307064	142.854	1.188213	0.055829	0.055396	147.629	30159.7	0.052157	0.099198	1488.23	87487.9
331	2.000000	1.191074	7.36831e+06	-55189.1	955.817	-29742.3	0.000000	0.000000	7.197850	152.743	NaN	0.000000	0.001652	0.001714	28.0802	56.6866	0.001733	32706.2	2.545196	177.157	147.002	1.190721	0.058257	0.057905	152.743	32706.2	0.054755	0.107674	1418.57	91064.3
331	2.000000	1.193612	7.36831e+06	-55189.1	955.817	-29742.3	0.000000	0.000000	7.201007	167.778	NaN	0.000000	0.001644	0.001701	28.08	60.7267	0.001872	32439.8	5.836260	-5.983936	163.475	1.193221	0.060796	0.060405	167.778	32439.8	0.056917	0.114985	1459.13	87403.7
331	2.000000	1.196086	7.36831e+06	-55189.1	955.817	-29742.3	0.000000	0.000000	7.203928	178.645	NaN	0.000000	0.001664	0.001712	28.0792	61.8854	0.001747	35431	-0.234386	179.079	175.674	1.195812	0.063270	0.062995	178.645	35431	0.059488	0.123979	1440.93	91935.4
331	2.000000	1.198642	7.36831e+06	-55189.1	955.818	-29742.3	0.000000	0.000000	7.207103	193.696	NaN	0.000000	0.001633	0.001712	28.0791	64.2787	0.001744	36862	4.892214	-5.719436	191.375	1.198326	0.065825	0.065509	193.696	36862	0.061884	0.132652	1460.18	92468.9
331	2.000000	1.201117	7.36831e+06	-55189.1	955.816	-29742.3	0.000000	0.000000	7.209950	202.73	NaN	0.000000	0.001621	0.001700	28.079	66.964	0.001840	36395.9	2.726682	176.02	199.777	1.200800	0.068301	0.067983	202.73	36395.9	0.064123	0.141007	1437.73	88553.3
331	2.000000	1.203538	7.36831e+06	-55189.1	955.817	-29742.3	0.000000	0.000000	7.212918	216.023	NaN	0.000000	0.001561	0.001703	28.0793	69.894	0.001825	38290	1.456340	-2.995230	209.225	1.203320	0.070722	0.070503	216.023	38290	0.066490	0.150104	1439.15	90294.7
331	2.000000	1.206115	7.36831e+06	-55189.1	955.818	-29742.3	0.000000	0.000000	7.216321	236.117	NaN	0.000000	0.001570	0.001716	28.0792	72.6693	0.001813	40080	2.327560	175.64	235.397	1.205798	0.073298	0.072981	236.117	40080	0.068880	0.159562	1479.78	91671.8
331	2.000000	1.208652	7.36831e+06	-55189.1	955.818	-29742.3	0.000000	0.000000	7.219480	251.242	NaN	0.000000	0.001584	0.001719	28.079	74.8321	0.001884	39711.1	6.380147	-7.768673	248.508	1.208172	0.075835	0.075356	251.242	39711.1	0.071090	0.168552	1490.59	88372.7
331	2.000000	1.211094	7.36831e+06	-55189.1	955.817	-29742.3	0.000000	0.000000	7.222375	262.233	NaN	0.000000	0.001530	0.001717	28.0792	76.0072	0.001791	42449.7	2.370906	175.639	259.64	1.210800	0.078278	0.077983	262.233	42449.7	0.073645	0.179230	1463.11	91609.9
331	2.000000	1.213613	7.36831e+06	-55189.1	955.816	-29742.3	0.000000	0.000000	7.225272	271.442	NaN	0.000000	0.001556	0.001696	28.0794	80.3246	0.001892	42445.3	6.308840	-8.555219	268.264	1.213277	0.080796	0.080461	271.442	42445.3	0.076000	0.189347	1433.57	89119.7
331	2.000000	1.216092	7.36831e+06	-55189.1	955.817	-29742.3	0.000000	0.000000	7.228534	290.466	NaN	0.000000	0.001579	0.001695	28.0792	80.9925	0.001758	46083.6	0.229440	176.714	288.258	1.215863	0.083275	0.083046	290.466	46083.6	0.078548	0.200587	1448.08	94008.7
331	2.000000	1.218625	7.36831e+06	-55189.1	955.817	-29742.3	0.000000	0.000000	7.231758	307.247	NaN	0.000000	0.001573	0.001680	28.0793	82.9259	0.001746	47495.9	3.816399	-6.264265	303.636	1.218175	0.085809	0.085358	307.247	47495.9	0.080957	0.211493	1452.75	94358.5
331	2.000000	1.221158	7.36831e+06	-55189.1	955.817	-29742.3	0.000000	0.000000	7.234891	321.846	NaN	0.000000	0.001576	0.001680	28.0793	84.9447	0.001756	48366.5	1.166490	175.691	321.125	1.220907	0.088342	0.088091	321.846	48366.5	0.083351	0.222597	1445.87	93660.8
331	2.000000	1.223627	7.36831e+06	-55189.1	955.818	-29742.3	0.000000	0.000000	7.238294	344.558	NaN	0.000000	0.001600	0.001701	28.0795	88.6465	0.001709	51877.3	7.063087	-10.3412	343.072	1.223297	0.090811	0.090481	344.558	51877.3	0.085829	0.234373	1470.13	97903.2
331	2.000000	1.226101	7.36831e+06	-55189.1	955.817	-29742.3	0.000000	0.000000	7.241362	358.994	NaN	0.000000	0.001621	0.001674	28.0793	92.0544	0.001812	50810.6	4.339058	171.912	358.461	1.225843	0.093285	0.093027	358.994	50810.6	0.087986	0.244851	1466.17	93816
331	2.000000	1.228647	7.36831e+06	-55189.1	955.818	-29742.3	0.000000	0.000000	7.244743	379.284	NaN	0.000000	0.001581	0.001715	28.0804	93.7675	0.001755	53415.4	6.104549	-10.0598	378.283	1.228305	0.095830	0.095489	379.284	53415.4	0.090505	0.257360	1473.75	96198.7
331	2.000000	1.231164	7.36831e+06	-55189.1	955.816	-29742.3	0.000000	0.000000	7.247657	388.964	NaN	0.000000	0.001595	0.001698	28.0807	95.7206	0.001795	53326.2	4.513380	171.21	389.574	1.230913	0.098347	0.098097	388.964	53326.2	0.092877	0.269403	1443.8	93867
331	2.000000	1.233614	7.36831e+06	-55189.1	955.817	-29742.3	0.000000	0.000000	7.251130	413.793	NaN	0.000000	0.001590	0.001717	28.0806	98.6277	0.001815	54335.3	4.497150	-8.657017	412.004	1.233351	0.100798	0.100534	413.793	54335.3	0.095086	0.280855	1473.33	93673
331	2.000000	1.236170	7.36831e+06	-55189.1	955.815	-29742.3	0.000000	0.000000	7.254243	427.348	NaN	0.000000	0.001614	0.001723	28.0806	100.786	0.001770	56950.1	3.831719	171.569	429.493	1.235919	0.103354	0.103102	427.348	56950.1	0.097726	0.294828	1449.48	95826
331	2.000000	1.238576	7.36831e+06	-55189.1	955.817	-29742.3	0.000000	0.000000	7.257604	450.548	NaN	0.000000	0.001593	0.001701	28.0802	101.472	0.001691	59994.5	3.334695	-7.931579	447.05	1.238329	0.105760	0.105512	450.548	59994.5	0.100127	0.307815	1463.7	98796.2
331	2.000000	1.239010	7.36831e+06	-55189.1	955.817	-29742.3	0.000000	0.000000	7.258395	459.245	NaN	0.000000	0.001597	0.001686	28.0803	102.829	0.001751	58715.2	3.599329	171.968	453.851	1.238712	0.106193	0.105896	459.245	58715.2	0.100327	0.308906	1486.68	96518.4