File: remote_trans/data/nanoindenter/0828-1/data/Data_2025-08-06,11h17m57s/2025-07-22_16-23-58_1_1027.txt
2025-07-22, 16:23:58, 1
Index	Phase	Displacement	Time	Pos X	Pos Y	Pos Z	Rot A	Rot B	Piezo Z	Force A	Force B	Gripper	Voltage A	Voltage B	Temperature	Amplitude force	Amplitude pos	Stiffness	Phase shift	Phase excitation	Force A raw	Displacement raw	HMax	HMax raw	Real Force	Real Stiffness	Contact Depth	Area	Hardness	Reduced Mod.
[#]	[#]	[um]	[s]	[um]	[um]	[um]	[m°]	[m°]	[um]	[uN]	[uN]	[V]	[V]	[V]	[°C]	[uN]	[um]	[N/m]	[°]	[°]	[uN]	[um]	[um]	[um]	[uN]	[N/m]	[um]	[um^2]	[MPa]	[MPa]
1027	1.000000	0.002475	7.37509e+06	-51489.1	1055.82	-29752.1	0.000000	0.000000	6.002792	0.064241	NaN	0.000000	0.001744	0.001792	28.0845	0.143934	0.001025	140.421	72.6328	-162.579	0.073546	0.001234	-1.091936	-1.093177	0.064241	140.421	-1.092279	-3.948295E+14	-1.627063E-16	NaN
1027	1.000000	0.012535	7.37509e+06	-51489.1	1055.82	-29752.1	0.000000	0.000000	6.012856	0.141912	NaN	0.000000	0.001691	0.001798	28.0843	0.063540	0.001289	49.2946	-115.219	15.7361	0.146984	0.011071	-1.081876	-1.083340	0.141912	49.2946	-1.084035	-3.059895E+14	-4.637823E-16	NaN
1027	1.000000	0.022419	7.37509e+06	-51489.1	1055.82	-29752.1	0.000000	0.000000	6.022735	0.042415	NaN	0.000000	0.001755	0.001794	28.0841	0.022972	0.001757	13.0763	-163.741	-168.725	0.061985	0.021095	-1.071992	-1.073316	0.042415	13.0763	-1.074425	-2.273177E+14	-1.865905E-16	NaN
1027	1.000000	0.032427	7.37509e+06	-51489.1	1055.82	-29752.1	0.000000	0.000000	6.032746	0.112015	NaN	0.000000	0.001733	0.001797	28.0843	0.143390	0.001971	72.7497	-140.187	13.6481	0.072342	0.031103	-1.061984	-1.063308	0.112015	72.7497	-1.063139	-1.603236E+14	-6.986812E-16	NaN
1027	1.000000	0.042428	7.37509e+06	-51489.1	1055.82	-29752.1	0.000000	0.000000	6.042744	0.029536	NaN	0.000000	0.001755	0.001813	28.0845	0.112721	0.002067	54.5337	-104.918	-163.669	-0.031172	0.041186	-1.051983	-1.053224	0.029536	54.5337	-1.052389	-1.149551E+14	-2.569311E-16	NaN
1027	1.000000	0.052434	7.37509e+06	-51489.1	1055.82	-29752.1	0.000000	0.000000	6.052751	0.033223	NaN	0.000000	0.001725	0.001782	28.0842	0.050174	0.002029	24.7241	111.199	14.5751	0.038475	0.051092	-1.041976	-1.043319	0.033223	24.7241	-1.042984	-8.591958E+13	-3.866710E-16	NaN
1027	1.000000	0.062422	7.37509e+06	-51489.1	1055.82	-29752.1	0.000000	0.000000	6.062740	0.080065	NaN	0.000000	0.001756	0.001848	28.0842	0.063538	0.002098	30.2828	50.4419	-164.615	0.055395	0.061129	-1.031989	-1.033282	0.080065	30.2828	-1.033972	-6.499772E+13	-1.231817E-15	NaN
1027	1.000000	0.072451	7.37509e+06	-51489.1	1055.82	-29752.1	0.000000	0.000000	6.072769	0.059753	NaN	0.000000	0.001709	0.001849	28.0842	0.058045	0.002011	28.8699	71.7118	12.0384	0.089280	0.071121	-1.021959	-1.023290	0.059753	28.8699	-1.023512	-4.701099E+13	-1.271037E-15	NaN
1027	1.000000	0.082458	7.37509e+06	-51489.1	1055.82	-29752.1	0.000000	0.000000	6.082777	0.087295	NaN	0.000000	0.001682	0.001831	28.0843	0.118268	0.002164	54.6651	-147.991	-165.235	0.107588	0.081174	-1.011952	-1.013237	0.087295	54.6651	-1.013150	-3.410185E+13	-2.559822E-15	NaN
1027	1.000000	0.092449	7.37509e+06	-51489.1	1055.82	-29752.1	0.000000	0.000000	6.092768	0.101203	NaN	0.000000	0.001728	0.001804	28.0843	0.072315	0.002027	35.6776	-35.347	11.8594	0.119170	0.091039	-1.001962	-1.003372	0.101203	35.6776	-1.004089	-2.575249E+13	-3.929848E-15	NaN
1027	1.000000	0.102447	7.37509e+06	-51489.1	1055.82	-29752.1	0.000000	0.000000	6.102765	0.080876	NaN	0.000000	0.001680	0.001813	28.0829	0.059345	0.002057	28.8553	-124.383	-164.149	0.037013	0.101152	-0.991964	-0.993259	0.080876	28.8553	-0.994066	-1.887437E+13	-4.284988E-15	NaN
1027	1.000000	0.112460	7.37509e+06	-51489.1	1055.82	-29752.1	0.000000	0.000000	6.112777	0.060699	NaN	0.000000	0.001691	0.001806	28.0829	0.052580	0.001815	28.9776	90.4486	12.4613	0.034156	0.111084	-0.981951	-0.983327	0.060699	28.9776	-0.983522	-1.361005E+13	-4.459854E-15	NaN
1027	1.000000	0.122460	7.37509e+06	-51489.1	1055.82	-29752.1	0.000000	0.000000	6.122777	0.051455	NaN	0.000000	0.001746	0.001779	28.0831	0.019506	0.002040	9.559618	164.945	-165.755	0.002169	0.121094	-0.971951	-0.973317	0.051455	9.559618	-0.975988	-1.077338E+13	-4.776130E-15	NaN
1027	1.000000	0.132466	7.37509e+06	-51489.1	1055.82	-29752.1	0.000000	0.000000	6.132782	0.036505	NaN	0.000000	0.001689	0.001798	28.083	0.126230	0.001973	63.9847	53.2322	14.4311	-0.036360	0.131124	-0.961945	-0.963286	0.036505	63.9847	-0.962373	-7.060854E+12	-5.169993E-15	NaN
1027	1.000000	0.142487	7.37509e+06	-51489.1	1055.82	-29752.1	0.000000	0.000000	6.142808	0.151245	NaN	0.000000	0.001690	0.001773	28.0827	0.060150	0.001970	30.527	-91.86	-167.48	0.128367	0.141138	-0.951924	-0.953273	0.151245	30.527	-0.955640	-5.729057E+12	-2.639963E-14	NaN
1027	1.000000	0.152489	7.37509e+06	-51489.1	1055.82	-29752.1	0.000000	0.000000	6.152806	0.044513	NaN	0.000000	0.001701	0.001768	28.083	0.085832	0.002033	42.2108	-124.118	13.7416	0.055933	0.151153	-0.941922	-0.943258	0.044513	42.2108	-0.942712	-3.834696E+12	-1.160804E-14	NaN
1027	1.000000	0.162495	7.37509e+06	-51489.1	1055.82	-29752.1	0.000000	0.000000	6.162810	0.024503	NaN	0.000000	0.001694	0.001792	28.0827	0.119609	0.002050	58.3481	-178.31	-166.127	0.102881	0.161158	-0.931916	-0.933253	0.024503	58.3481	-0.932231	-2.768906E+12	-8.849201E-15	NaN
1027	1.000000	0.172483	7.37509e+06	-51489.1	1055.82	-29752.1	0.000000	0.000000	6.172800	0.044481	NaN	0.000000	0.001675	0.001750	28.083	0.069215	0.002021	34.2466	176.713	12.1891	0.051445	0.171146	-0.921928	-0.923265	0.044481	34.2466	-0.922902	-2.071961E+12	-2.146805E-14	NaN
1027	1.000000	0.182467	7.37509e+06	-51489.1	1055.82	-29752.1	0.000000	0.000000	6.182785	0.070005	NaN	0.000000	0.001698	0.001777	28.0829	0.085046	0.002100	40.4967	-145.817	-166.623	-0.015739	0.181125	-0.911944	-0.913286	0.070005	40.4967	-0.913240	-1.534359E+12	-4.562513E-14	NaN
1027	1.000000	0.192479	7.37509e+06	-51489.1	1055.82	-29752.1	0.000000	0.000000	6.192794	0.007534	NaN	0.000000	0.001656	0.001802	28.0831	0.073817	0.002160	34.1692	27.2244	12.755	0.027884	0.191113	-0.901931	-0.903297	0.007534	34.1692	-0.902097	-1.084918E+12	-6.944300E-15	NaN
1027	1.000000	0.202503	7.37509e+06	-51489.1	1055.82	-29752.1	0.000000	0.000000	6.202820	0.054801	NaN	0.000000	0.001669	0.001785	28.0827	0.063915	0.002086	30.6379	-125.234	-169.113	0.015166	0.201134	-0.891908	-0.893277	0.054801	30.6379	-0.893250	-8.238342E+11	-6.651989E-14	NaN
1027	1.000000	0.212518	7.37509e+06	-51489.1	1055.82	-29752.1	0.000000	0.000000	6.212837	0.100902	NaN	0.000000	0.001660	0.001774	28.0828	0.010834	0.002023	5.355452	-40.686	13.6176	0.117205	0.211131	-0.881893	-0.883280	0.100902	5.355452	-0.896024	-8.981187E+11	-1.123482E-13	NaN
1027	1.000000	0.222473	7.37509e+06	-51489.1	1055.82	-29752.1	0.000000	0.000000	6.222792	0.102678	NaN	0.000000	0.001712	0.001760	28.0829	0.062430	0.002099	29.7444	-28.5419	-164.872	0.114446	0.221175	-0.871938	-0.873235	0.102678	29.7444	-0.874527	-4.599209E+11	-2.232516E-13	NaN
1027	1.000000	0.232513	7.37509e+06	-51489.1	1055.82	-29752.1	0.000000	0.000000	6.232830	0.059547	NaN	0.000000	0.001688	0.001786	28.0829	0.093197	0.001964	47.4626	-19.7473	12.6225	0.120548	0.231145	-0.861898	-0.863266	0.059547	47.4626	-0.862839	-3.195528E+11	-1.863461E-13	NaN
1027	1.000000	0.242526	7.37509e+06	-51489.1	1055.82	-29752.1	0.000000	0.000000	6.242846	0.123894	NaN	0.000000	0.001724	0.001741	28.0841	0.077236	0.001990	38.8077	-67.4542	-168.1	0.133745	0.241215	-0.851885	-0.853196	0.123894	38.8077	-0.854279	-2.447226E+11	-5.062619E-13	NaN
1027	1.000000	0.252513	7.37509e+06	-51489.1	1055.82	-29752.1	0.000000	0.000000	6.252828	0.011964	NaN	0.000000	0.001749	0.001781	28.0842	0.025835	0.001923	13.4317	-95.094	18.0523	0.001827	0.251179	-0.841898	-0.843232	0.011964	13.4317	-0.842566	-1.698463E+11	-7.043879E-14	NaN
1027	1.000000	0.262540	7.37509e+06	-51489.1	1055.82	-29752.1	0.000000	0.000000	6.262856	0.050202	NaN	0.000000	0.001714	0.001798	28.0845	0.039224	0.002019	19.4308	78.7539	-170.613	0.068776	0.261256	-0.831871	-0.833155	0.050202	19.4308	-0.833809	-1.292425E+11	-3.884337E-13	NaN
1027	1.000000	0.272521	7.37509e+06	-51489.1	1055.82	-29752.1	0.000000	0.000000	6.272838	0.053812	NaN	0.000000	0.001710	0.001790	28.0844	0.055227	0.002065	26.7405	-156.691	19.2161	0.113600	0.271189	-0.821890	-0.823221	0.053812	26.7405	-0.823399	-9.339064E+10	-5.762066E-13	NaN
1027	1.000000	0.282545	7.37509e+06	-51489.1	1055.82	-29752.1	0.000000	0.000000	6.282860	0.012365	NaN	0.000000	0.001673	0.001805	28.0844	0.062876	0.002078	30.2654	-169.202	-165.182	-0.042847	0.281200	-0.811866	-0.813211	0.012365	30.2654	-0.812172	-6.577252E+10	-1.879917E-13	NaN
1027	1.000000	0.292512	7.37509e+06	-51489.1	1055.82	-29752.1	0.000000	0.000000	6.292832	0.117275	NaN	0.000000	0.001715	0.001836	28.0845	0.057415	0.002026	28.3414	-169.692	14.6628	-0.022772	0.291133	-0.801898	-0.803278	0.117275	28.3414	-0.805002	-5.257161E+10	-2.230762E-12	NaN
1027	1.000000	0.302558	7.37509e+06	-51489.1	1055.82	-29752.1	0.000000	0.000000	6.302877	0.103489	NaN	0.000000	0.001703	0.001816	28.0845	0.060541	0.002052	29.5034	81.7871	-167.062	0.108044	0.301237	-0.791853	-0.793173	0.103489	29.5034	-0.794483	-3.784149E+10	-2.734808E-12	NaN
1027	1.000000	0.312529	7.37509e+06	-51489.1	1055.82	-29752.1	0.000000	0.000000	6.312846	0.054104	NaN	0.000000	0.001711	0.001827	28.0845	0.029873	0.002035	14.677	-66.5127	14.8481	0.045414	0.311216	-0.781881	-0.783194	0.054104	14.677	-0.784646	-2.782017E+10	-1.944772E-12	NaN
1027	1.000000	0.322533	7.37509e+06	-51489.1	1055.82	-29752.1	0.000000	0.000000	6.322850	0.071458	NaN	0.000000	0.001692	0.001789	28.0843	0.032167	0.001917	16.784	-95.8768	-166.582	-0.033991	0.321210	-0.771878	-0.773201	0.071458	16.784	-0.775071	-2.061794E+10	-3.465808E-12	NaN
1027	1.000000	0.332553	7.37509e+06	-51489.1	1055.82	-29752.1	0.000000	0.000000	6.332869	0.036067	NaN	0.000000	0.001692	0.001738	28.0847	0.048686	0.001814	26.8362	46.6803	13.2092	0.044408	0.331187	-0.761858	-0.763223	0.036067	26.8362	-0.762866	-1.406986E+10	-2.563441E-12	NaN
1027	1.000000	0.342565	7.37509e+06	-51489.1	1055.82	-29752.1	0.000000	0.000000	6.342877	-0.051524	NaN	0.000000	0.001687	0.001750	28.0844	0.039947	0.001945	20.5346	-33.071	-166.519	-0.034462	0.341210	-0.751846	-0.753201	-0.051524	20.5346	-0.749964	-9.391400E+9	5.486326E-12	NaN
1027	1.000000	0.352546	7.3751e+06	-51489.1	1055.82	-29752.1	0.000000	0.000000	6.352862	0.043979	NaN	0.000000	0.001675	0.001778	28.0844	0.134013	0.001972	67.9677	102.032	14.4216	0.054572	0.351247	-0.741865	-0.743163	0.043979	67.9677	-0.742350	-7.397215E+9	-5.945332E-12	NaN
1027	1.000000	0.362552	7.3751e+06	-51489.1	1055.82	-29752.1	0.000000	0.000000	6.362870	0.079840	NaN	0.000000	0.001659	0.001784	28.0845	0.091930	0.002049	44.8576	176.62	-167.192	0.094086	0.361232	-0.731859	-0.733179	0.079840	44.8576	-0.733194	-5.550454E+9	-1.438439E-11	NaN
1027	1.000000	0.372546	7.3751e+06	-51489.1	1055.82	-29752.1	0.000000	0.000000	6.372866	0.140227	NaN	0.000000	0.001686	0.001791	28.0837	0.076526	0.001997	38.3261	-17.6128	16.2695	0.147948	0.371217	-0.721865	-0.723194	0.140227	38.3261	-0.724609	-4.239586E+9	-3.307574E-11	NaN
1027	1.000000	0.382572	7.3751e+06	-51489.1	1055.82	-29752.1	0.000000	0.000000	6.382891	0.098981	NaN	0.000000	0.001633	0.001806	28.0831	0.100878	0.002080	48.4991	171.899	-163.656	0.149703	0.381266	-0.711838	-0.713144	0.098981	48.4991	-0.713369	-2.978653E+9	-3.323008E-11	NaN
1027	1.000000	0.392574	7.3751e+06	-51489.1	1055.82	-29752.1	0.000000	0.000000	6.392890	0.053675	NaN	0.000000	0.001695	0.001824	28.083	0.014802	0.002025	7.310171	-22.3245	11.6857	-0.038788	0.391238	-0.701837	-0.703173	0.053675	7.310171	-0.707344	-2.464905E+9	-2.177574E-11	NaN
1027	1.000000	0.402549	7.3751e+06	-51489.1	1055.82	-29752.1	0.000000	0.000000	6.402866	0.068760	NaN	0.000000	0.001653	0.001804	28.0834	0.086727	0.001942	44.6643	-80.372	-166.728	0.063819	0.401304	-0.691862	-0.693107	0.068760	44.6643	-0.693016	-1.570859E+9	-4.377250E-11	NaN
1027	1.000000	0.412609	7.3751e+06	-51489.1	1055.82	-29752.1	0.000000	0.000000	6.412927	0.077553	NaN	0.000000	0.001666	0.001816	28.0832	0.049303	0.002174	22.6823	35.714	12.2391	0.099710	0.411206	-0.681802	-0.683204	0.077553	22.6823	-0.684366	-1.196483E+9	-6.481748E-11	NaN
1027	1.000000	0.422610	7.3751e+06	-51489.1	1055.82	-29752.1	0.000000	0.000000	6.422927	0.072133	NaN	0.000000	0.001646	0.001832	28.0832	0.132210	0.002128	62.1226	164.956	-166.521	0.078749	0.421290	-0.671801	-0.673121	0.072133	62.1226	-0.672672	-8.278612E+8	-8.713230E-11	NaN
1027	1.000000	0.432581	7.3751e+06	-51489.1	1055.82	-29752.1	0.000000	0.000000	6.432899	0.075641	NaN	0.000000	0.001663	0.001828	28.0832	0.057521	0.001986	28.9574	159.57	11.6486	0.085751	0.431210	-0.661829	-0.663201	0.075641	28.9574	-0.663788	-6.256827E+8	-1.208939E-10	NaN
1027	1.000000	0.442598	7.3751e+06	-51489.1	1055.82	-29752.1	0.000000	0.000000	6.442917	0.105180	NaN	0.000000	0.001658	0.001810	28.0834	0.031822	0.002044	15.5685	94.9068	-165.39	0.123580	0.441255	-0.651813	-0.653156	0.105180	15.5685	-0.656880	-5.031874E+8	-2.090275E-10	NaN
1027	1.000000	0.452617	7.3751e+06	-51489.1	1055.82	-29752.1	0.000000	0.000000	6.452936	0.098205	NaN	0.000000	0.001702	0.001785	28.0833	0.092103	0.001940	47.486	130.379	13.9285	0.122188	0.451236	-0.641794	-0.643175	0.098205	47.486	-0.643345	-3.282289E+8	-2.991968E-10	NaN
1027	1.000000	0.462607	7.3751e+06	-51489.1	1055.82	-29752.1	0.000000	0.000000	6.462924	0.074808	NaN	0.000000	0.001671	0.001816	28.0828	0.098922	0.001860	53.1823	-27.5401	-168.091	0.120275	0.461304	-0.631804	-0.633106	0.074808	53.1823	-0.632859	-2.356582E+8	-3.174423E-10	NaN
1027	1.000000	0.472599	7.3751e+06	-51489.1	1055.82	-29752.1	0.000000	0.000000	6.472916	0.068809	NaN	0.000000	0.001687	0.001807	28.0829	0.107604	0.001842	58.4097	-74.1231	11.4445	0.036197	0.471259	-0.621812	-0.623152	0.068809	58.4097	-0.622695	-1.708752E+8	-4.026829E-10	NaN
1027	1.000000	0.482614	7.3751e+06	-51489.1	1055.82	-29752.1	0.000000	0.000000	6.482933	0.095528	NaN	0.000000	0.001655	0.001783	28.0833	0.111015	0.002036	54.5235	165.099	-169.413	0.015630	0.481314	-0.611797	-0.613097	0.095528	54.5235	-0.613111	-1.261557E+8	-7.572237E-10	NaN
1027	1.000000	0.492604	7.3751e+06	-51489.1	1055.82	-29752.1	0.000000	0.000000	6.492921	0.060754	NaN	0.000000	0.001656	0.001825	28.0831	0.112835	0.001971	57.2395	-107.662	16.2652	0.042443	0.491301	-0.601806	-0.603110	0.060754	57.2395	-0.602603	-9.042703E+7	-6.718611E-10	NaN
1027	1.000000	0.502596	7.3751e+06	-51489.1	1055.82	-29752.1	0.000000	0.000000	6.502912	0.018569	NaN	0.000000	0.001694	0.001854	28.0829	0.055284	0.002029	27.2444	155.721	-167.372	0.000107	0.501343	-0.591814	-0.593068	0.018569	27.2444	-0.592326	-6.527171E+7	-2.844874E-10	NaN
1027	1.000000	0.512642	7.3751e+06	-51489.1	1055.82	-29752.1	0.000000	0.000000	6.512959	0.058520	NaN	0.000000	0.001667	0.001845	28.0843	0.068115	0.001984	34.3301	65.9547	15.1722	0.075446	0.511292	-0.581769	-0.583118	0.058520	34.3301	-0.583048	-4.861611E+7	-1.203714E-9	NaN
1027	1.000000	0.522613	7.3751e+06	-51489.1	1055.82	-29752.1	0.000000	0.000000	6.522931	0.060335	NaN	0.000000	0.001681	0.001836	28.0843	0.133746	0.002002	66.8181	118.712	-165.067	0.015770	0.521263	-0.571797	-0.573148	0.060335	66.8181	-0.572475	-3.473918E+7	-1.736803E-9	NaN
1027	1.000000	0.532629	7.3751e+06	-51489.1	1055.82	-29752.1	0.000000	0.000000	6.532948	0.085908	NaN	0.000000	0.001659	0.001819	28.0843	0.150328	0.001837	81.8333	50.0179	14.9901	0.078802	0.531278	-0.561781	-0.563133	0.085908	81.8333	-0.562569	-2.534590E+7	-3.389411E-9	NaN
1027	1.000000	0.542649	7.3751e+06	-51489.1	1055.82	-29752.1	0.000000	0.000000	6.542968	0.117092	NaN	0.000000	0.001670	0.001823	28.084	0.055418	0.001890	29.3294	119.13	-167.916	0.076856	0.541371	-0.551762	-0.553039	0.117092	29.3294	-0.554756	-1.976125E+7	-5.925359E-9	NaN
1027	1.000000	0.552635	7.3751e+06	-51489.1	1055.82	-29752.1	0.000000	0.000000	6.552953	0.078818	NaN	0.000000	0.001647	0.001819	28.0845	0.078159	0.001918	40.7502	-142.387	14.7198	0.031187	0.551279	-0.541776	-0.543132	0.078818	40.7502	-0.543226	-1.368027E+7	-5.761464E-9	NaN
1027	1.000000	0.562652	7.3751e+06	-51489.1	1055.82	-29752.1	0.000000	0.000000	6.562971	0.094573	NaN	0.000000	0.001650	0.001809	28.0842	0.085231	0.001904	44.7734	-44.4307	-164.633	0.143526	0.561278	-0.531759	-0.533133	0.094573	44.7734	-0.533343	-9.97676e+06	-9.479357E-9	NaN
1027	1.000000	0.572653	7.3751e+06	-51489.1	1055.82	-29752.1	0.000000	0.000000	6.572969	0.031655	NaN	0.000000	0.001577	0.001811	28.0844	0.082781	0.001940	42.6764	-32.0437	14.5106	0.080419	0.571318	-0.521758	-0.523093	0.031655	42.6764	-0.522314	-7.01098e+06	-4.515044E-9	NaN
1027	1.000000	0.582662	7.3751e+06	-51489.1	1055.82	-29752.1	0.000000	0.000000	6.582978	0.036895	NaN	0.000000	0.001588	0.001804	28.0841	0.093075	0.001998	46.5855	-40.0055	-165.722	0.029504	0.581382	-0.511749	-0.513029	0.036895	46.5855	-0.512343	-5.0938e+06	-7.243129E-9	NaN
1027	1.000000	0.592660	7.3751e+06	-51489.1	1055.82	-29752.1	0.000000	0.000000	6.592981	0.155182	NaN	0.000000	0.001630	0.001828	28.0845	0.019816	0.002025	9.784465	-75.2224	10.9768	0.054289	0.591340	-0.501751	-0.503071	0.155182	9.784465	-0.513646	-5.31105e+06	-2.921869E-8	NaN
1027	1.000000	0.602667	7.3751e+06	-51489.1	1055.82	-29752.1	0.000000	0.000000	6.602986	0.104634	NaN	0.000000	0.001633	0.001845	28.084	0.079934	0.002059	38.8311	-128.075	-163.022	0.123370	0.601343	-0.491744	-0.493067	0.104634	38.8311	-0.493765	-2.80534e+06	-3.729819E-8	NaN
1027	1.000000	0.612671	7.3751e+06	-51489.1	1055.82	-29752.1	0.000000	0.000000	6.612989	0.073400	NaN	0.000000	0.001593	0.001852	28.0842	0.044128	0.001971	22.3918	-139.7	14.6795	0.055285	0.611332	-0.481740	-0.483078	0.073400	22.3918	-0.484198	-2.06195e+06	-3.559740E-8	NaN
1027	1.000000	0.622655	7.3751e+06	-51489.1	1055.82	-29752.1	0.000000	0.000000	6.622972	0.054597	NaN	0.000000	0.001647	0.001816	28.084	0.111890	0.002082	53.7391	-124.313	-165.234	-0.004007	0.621376	-0.471756	-0.473035	0.054597	53.7391	-0.472518	-1.41487e+06	-3.858807E-8	NaN
1027	1.000000	0.632690	7.3751e+06	-51489.1	1055.82	-29752.1	0.000000	0.000000	6.633008	0.089322	NaN	0.000000	0.001628	0.001827	28.0839	0.085255	0.001995	42.7401	-39.6467	14.4805	0.069779	0.631300	-0.461721	-0.463111	0.089322	42.7401	-0.463288	-1.05005e+06	-8.506420E-8	NaN
1027	1.000000	0.642684	7.3751e+06	-51489.1	1055.82	-29752.1	0.000000	0.000000	6.643004	0.123000	NaN	0.000000	0.001661	0.001803	28.0837	0.092402	0.002026	45.61	-154.547	-166.258	0.085338	0.641370	-0.451726	-0.453040	0.123000	45.61	-0.453749	-771109	-1.595109E-7	NaN
1027	1.000000	0.652702	7.3751e+06	-51489.1	1055.82	-29752.1	0.000000	0.000000	6.653021	0.099804	NaN	0.000000	0.001632	0.001845	28.0827	0.088894	0.001843	48.2318	-17.4496	14.1423	0.022459	0.651345	-0.441709	-0.443066	0.099804	48.2318	-0.443261	-548743	-1.818775E-7	NaN
1027	1.000000	0.662683	7.3751e+06	-51489.1	1055.82	-29752.1	0.000000	0.000000	6.663001	0.068844	NaN	0.000000	0.001626	0.001815	28.0828	0.035102	0.002020	17.3731	-130.512	-162.66	0.105463	0.661390	-0.431727	-0.433021	0.068844	17.3731	-0.434699	-415439	-1.657129E-7	NaN
1027	1.000000	0.672684	7.3751e+06	-51489.1	1055.82	-29752.1	0.000000	0.000000	6.673002	0.077511	NaN	0.000000	0.001668	0.001824	28.0826	0.079212	0.002028	39.0584	-157.047	17.6766	0.005187	0.671366	-0.421727	-0.423044	0.077511	39.0584	-0.423215	-285755	-2.712516E-7	NaN
1027	1.000000	0.682715	7.3751e+06	-51489.1	1055.82	-29752.1	0.000000	0.000000	6.683034	0.097947	NaN	0.000000	0.001693	0.001822	28.0825	0.025011	0.001996	12.528	-154.065	-165.843	0.072210	0.681373	-0.411696	-0.413037	0.097947	12.528	-0.417559	-237568	-4.122875E-7	NaN
1027	1.000000	0.692674	7.3751e+06	-51489.1	1055.82	-29752.1	0.000000	0.000000	6.692992	0.081258	NaN	0.000000	0.001668	0.001819	28.0827	0.150001	0.001994	75.2279	-167.829	12.4962	0.104369	0.691294	-0.401736	-0.403117	0.081258	75.2279	-0.402547	-145311	-5.592032E-7	NaN
1027	1.000000	0.702719	7.3751e+06	-51489.1	1055.82	-29752.1	0.000000	0.000000	6.703037	0.082387	NaN	0.000000	0.001686	0.001815	28.0826	0.051606	0.001993	25.8941	170.53	-164.92	0.024242	0.701388	-0.391692	-0.393023	0.082387	25.8941	-0.394078	-110018	-7.488480E-7	NaN
1027	1.000000	0.712735	7.3751e+06	-51489.1	1055.82	-29752.1	0.000000	0.000000	6.713052	0.055814	NaN	0.000000	0.001648	0.001856	28.0826	0.148651	0.002071	71.7741	103.538	16.7489	0.105537	0.711326	-0.381675	-0.383085	0.055814	71.7741	-0.382259	-74523.2	-7.489515E-7	NaN
1027	1.000000	0.722727	7.3751e+06	-51489.1	1055.82	-29752.1	0.000000	0.000000	6.723047	0.140592	NaN	0.000000	0.001697	0.001829	28.0824	0.051484	0.001969	26.1455	163.288	-164.972	0.183005	0.721396	-0.371684	-0.373014	0.140592	26.1455	-0.375717	-60031.3	-2.341974E-6	NaN
1027	1.000000	0.732719	7.3751e+06	-51489.1	1055.82	-29752.1	0.000000	0.000000	6.733037	0.088898	NaN	0.000000	0.001701	0.001871	28.083	0.062734	0.001967	31.8985	-97.8795	17.2718	0.078286	0.731343	-0.361692	-0.363068	0.088898	31.8985	-0.363782	-40409.5	-2.199941E-6	NaN
1027	1.000000	0.742710	7.3751e+06	-51489.1	1055.82	-29752.1	0.000000	0.000000	6.743026	0.011217	NaN	0.000000	0.001676	0.001828	28.0826	0.111977	0.002002	55.9215	106.635	-168.732	0.014745	0.741416	-0.351700	-0.352994	0.011217	55.9215	-0.351851	-27155.3	-4.130710E-7	NaN
1027	1.000000	0.752728	7.3751e+06	-51489.1	1055.82	-29752.1	0.000000	0.000000	6.753046	0.081810	NaN	0.000000	0.001693	0.001860	28.0836	0.080531	0.001977	40.7317	147.534	15.5595	0.076157	0.751366	-0.341683	-0.343044	0.081810	40.7317	-0.343190	-20324.2	-4.025243E-6	NaN
1027	1.000000	0.762735	7.3751e+06	-51489.1	1055.82	-29752.1	0.000000	0.000000	6.763052	0.071769	NaN	0.000000	0.001708	0.001829	28.0827	0.025358	0.002105	12.0449	-55.4155	-167.18	0.163755	0.761500	-0.331676	-0.332911	0.071769	12.0449	-0.336145	-16043.8	-4.473296E-6	NaN
1027	1.000000	0.772685	7.3751e+06	-51489.1	1055.82	-29752.1	0.000000	0.000000	6.773001	0.028488	NaN	0.000000	0.001714	0.001835	28.0828	0.041318	0.002045	20.2038	-58.308	13.5057	0.110935	0.771373	-0.321726	-0.323038	0.028488	20.2038	-0.322783	-10222.9	-2.786737E-6	NaN
1027	1.000000	0.782753	7.3751e+06	-51489.1	1055.82	-29752.1	0.000000	0.000000	6.783068	-0.005151	NaN	0.000000	0.001682	0.001859	28.0836	0.096591	0.002043	47.2867	-137.9	-166.725	0.015855	0.781424	-0.311657	-0.312986	-0.005151	47.2867	-0.311576	-6988.16	7.371537E-7	NaN
1027	1.000000	0.792736	7.3751e+06	-51489.1	1055.82	-29752.1	0.000000	0.000000	6.793051	0.011763	NaN	0.000000	0.001708	0.001816	28.0841	0.039000	0.001939	20.1167	-60.6168	16.1153	0.030247	0.791363	-0.301675	-0.303048	0.011763	20.1167	-0.302113	-5059.15	-2.325087E-6	NaN
1027	1.000000	0.802727	7.3751e+06	-51489.1	1055.82	-29752.1	0.000000	0.000000	6.803043	0.026146	NaN	0.000000	0.001693	0.001839	28.084	0.121435	0.002017	60.2127	-143.171	-167.96	0.089168	0.801445	-0.291684	-0.292966	0.026146	60.2127	-0.292009	-3575.92	-7.311659E-6	NaN
1027	1.000000	0.812697	7.3751e+06	-51489.1	1055.82	-29752.1	0.000000	0.000000	6.813013	0.017774	NaN	0.000000	0.001726	0.001879	28.0843	0.104024	0.002049	50.7662	54.9094	12.1722	-0.046101	0.811406	-0.281714	-0.283005	0.017774	50.7662	-0.281976	-2527.92	-7.031010E-6	NaN
1027	1.000000	0.822768	7.3751e+06	-51489.1	1055.82	-29752.1	0.000000	0.000000	6.823086	0.090661	NaN	0.000000	0.001737	0.001901	28.0838	0.094356	0.002085	45.2555	173.263	-166.964	0.117986	0.821434	-0.271643	-0.272976	0.090661	45.2555	-0.273145	-1859.07	-4.876693E-5	NaN
1027	1.000000	0.832746	7.3751e+06	-51489.1	1055.82	-29752.1	0.000000	0.000000	6.833063	0.053967	NaN	0.000000	0.001703	0.001849	28.084	0.152960	0.002013	75.9954	112.327	13.7401	0.152552	0.831408	-0.261665	-0.263003	0.053967	75.9954	-0.262198	-1266.39	-4.261447E-5	NaN
1027	1.000000	0.842758	7.3751e+06	-51489.1	1055.82	-29752.1	0.000000	0.000000	6.843077	0.110957	NaN	0.000000	0.001736	0.001872	28.0842	0.063073	0.001892	33.3339	-69.1091	-165.544	0.121538	0.841435	-0.251653	-0.252976	0.110957	33.3339	-0.254150	-952.839	-0.000116	NaN
1027	1.000000	0.852781	7.3751e+06	-51489.1	1055.82	-29752.1	0.000000	0.000000	6.853099	0.089738	NaN	0.000000	0.001695	0.001868	28.0839	0.018192	0.002022	8.995513	-21.3053	14.2599	0.138974	0.851402	-0.241630	-0.243008	0.089738	8.995513	-0.249112	-796.576	-0.000113	NaN
1027	1.000000	0.862796	7.3751e+06	-51489.1	1055.82	-29752.1	0.000000	0.000000	6.863114	0.084832	NaN	0.000000	0.001688	0.001887	28.0841	0.070032	0.001917	36.5261	47.2637	-164.016	0.053783	0.861406	-0.231615	-0.233004	0.084832	36.5261	-0.233357	-452.294	-0.000188	NaN
1027	1.000000	0.872780	7.3751e+06	-51489.1	1055.82	-29752.1	0.000000	0.000000	6.873096	0.032273	NaN	0.000000	0.001678	0.001864	28.084	0.031903	0.001996	15.987	170.596	13.4113	0.085994	0.871380	-0.221630	-0.223031	0.032273	15.987	-0.223144	-311.766	-0.000104	NaN
1027	1.000000	0.882783	7.3751e+06	-51489.1	1055.82	-29752.1	0.000000	0.000000	6.883102	0.090835	NaN	0.000000	0.001700	0.001903	28.0844	0.028241	0.002102	13.4338	79.4755	-164.84	-0.012698	0.881524	-0.211628	-0.212887	0.090835	13.4338	-0.216699	-245.929	-0.000369	NaN
1027	1.000000	0.892755	7.3751e+06	-51489.1	1055.82	-29752.1	0.000000	0.000000	6.893073	0.096113	NaN	0.000000	0.001700	0.001849	28.0839	0.066967	0.001941	34.5015	-128.976	14.1978	0.032702	0.891399	-0.201656	-0.203011	0.096113	34.5015	-0.203745	-151.731	-0.000633	NaN
1027	1.000000	0.902808	7.3751e+06	-51489.1	1055.82	-29752.1	0.000000	0.000000	6.903125	0.069355	NaN	0.000000	0.001656	0.001838	28.0842	0.022947	0.001894	12.1151	159.466	-168.093	0.062545	0.901445	-0.191603	-0.192966	0.069355	12.1151	-0.195896	-112.73	-0.000615	NaN
1027	1.000000	0.912773	7.3751e+06	-51489.1	1055.82	-29752.1	0.000000	0.000000	6.913091	0.084023	NaN	0.000000	0.001587	0.001865	28.084	0.127625	0.002047	62.3518	-23.0137	13.2969	0.074829	0.911437	-0.181638	-0.182973	0.084023	62.3518	-0.182648	-67.6726	-0.001242	NaN
1027	1.000000	0.922799	7.3751e+06	-51489.1	1055.82	-29752.1	0.000000	0.000000	6.923115	0.026376	NaN	0.000000	0.001644	0.001826	28.083	0.039907	0.002026	19.6985	-97.7665	-167.935	-0.031085	0.921466	-0.171612	-0.172945	0.026376	19.6985	-0.172616	-45.5949	-0.000578	NaN
1027	1.000000	0.932782	7.3751e+06	-51489.1	1055.82	-29752.1	0.000000	0.000000	6.933099	0.071701	NaN	0.000000	0.001655	0.001866	28.0826	0.146521	0.001988	73.7045	-98.6373	11.1998	0.044631	0.931462	-0.161629	-0.162949	0.071701	73.7045	-0.162359	-30.1844	-0.002375	NaN
1027	1.000000	0.942769	7.3751e+06	-51489.1	1055.82	-29752.1	0.000000	0.000000	6.943087	0.080898	NaN	0.000000	0.001650	0.001821	28.0829	0.042294	0.001975	21.4186	-173.059	-165.553	0.042872	0.941490	-0.151641	-0.152921	0.080898	21.4186	-0.154474	-21.8329	-0.003705	NaN
1027	1.000000	0.952811	7.3751e+06	-51489.1	1055.82	-29752.1	0.000000	0.000000	6.953128	0.059985	NaN	0.000000	0.001639	0.001814	28.0831	0.077207	0.001970	39.1843	-112.228	15.791	-0.014827	0.951485	-0.141600	-0.142926	0.059985	39.1843	-0.142748	-13.3156	-0.004505	NaN
1027	1.000000	0.962788	7.3751e+06	-51489.1	1055.82	-29752.1	0.000000	0.000000	6.963109	0.157573	NaN	0.000000	0.001657	0.001836	28.0829	0.042450	0.001981	21.4286	54.3082	-166.891	0.154101	0.961469	-0.131623	-0.132942	0.157573	21.4286	-0.137138	-10.4463	-0.015084	NaN
1027	1.000000	0.972786	7.3751e+06	-51489.1	1055.82	-29752.1	0.000000	0.000000	6.973106	0.118434	NaN	0.000000	0.001668	0.001886	28.0826	0.121374	0.002080	58.3505	-56.6721	10.7661	0.068666	0.971399	-0.121624	-0.123011	0.118434	58.3505	-0.123147	-5.587153	-0.021198	NaN
1027	1.000000	0.982812	7.3751e+06	-51489.1	1055.82	-29752.1	0.000000	0.000000	6.983128	0.029923	NaN	0.000000	0.001653	0.001884	28.0826	0.026173	0.002064	12.682	28.9149	-162.14	-0.019475	0.981536	-0.111599	-0.112875	0.029923	12.682	-0.113369	-3.534735	-0.008465	NaN
1027	1.000000	0.992825	7.3751e+06	-51489.1	1055.82	-29752.1	0.000000	0.000000	6.993144	0.086016	NaN	0.000000	0.001599	0.001824	28.0828	0.049730	0.002096	23.7316	114.232	10.0083	0.088534	0.991465	-0.101585	-0.102946	0.086016	23.7316	-0.104304	-2.270431	-0.037885	NaN
1027	1.000000	1.002837	7.3751e+06	-51489.1	1055.82	-29752.1	0.000000	0.000000	7.003154	0.062120	NaN	0.000000	0.001609	0.001847	28.0825	0.060328	0.001897	31.804	-48.0222	-165.504	0.032331	1.001490	-0.091574	-0.092920	0.062120	31.804	-0.093039	-1.271949	-0.048839	NaN
1027	1.000000	1.012827	7.3751e+06	-51489.1	1055.82	-29752.1	0.000000	0.000000	7.013144	0.070146	NaN	0.000000	0.001602	0.001836	28.0826	0.154534	0.001983	77.9418	51.2099	15.1697	0.035868	1.011461	-0.081584	-0.082950	0.070146	77.9418	-0.082259	-0.704299	-0.099597	NaN
1027	1.000000	1.022795	7.3751e+06	-51489.1	1055.82	-29752.1	0.000000	0.000000	7.023114	0.097788	NaN	0.000000	0.001608	0.001832	28.0827	0.045309	0.002069	21.9008	168.787	-167.053	0.015560	1.021508	-0.071615	-0.072903	0.097788	21.9008	-0.074964	-0.460882	-0.212176	NaN
1027	1.000000	1.032859	7.3751e+06	-51489.1	1055.82	-29752.1	0.000000	0.000000	7.033174	0.019215	NaN	0.000000	0.001614	0.001848	28.0824	0.131599	0.001935	68.0175	66.6895	18.1075	0.040733	1.031451	-0.061552	-0.062960	0.019215	68.0175	-0.061764	-0.202211	-0.095024	NaN
1027	1.000000	1.042842	7.3751e+06	-51489.1	1055.82	-29752.1	0.000000	0.000000	7.043159	0.038188	NaN	0.000000	0.001636	0.001866	28.0822	0.112074	0.001994	56.1969	162.408	-167.306	0.040264	1.041574	-0.051568	-0.052837	0.038188	56.1969	-0.052078	-0.105396	-0.362323	NaN
1027	1.000000	1.052879	7.3751e+06	-51489.1	1055.82	-29752.1	0.000000	0.000000	7.053196	0.045733	NaN	0.000000	0.001626	0.001838	28.0824	0.096747	0.001978	48.9091	7.608449	15.5582	0.020205	1.051466	-0.041531	-0.042945	0.045733	48.9091	-0.042233	-0.052890	-0.864680	NaN
1027	1.000000	1.062816	7.3751e+06	-51489.1	1055.82	-29752.1	0.000000	0.000000	7.063133	0.044209	NaN	0.000000	0.001641	0.001848	28.0839	0.080226	0.001943	41.288	-25.3486	-165.255	0.130960	1.061483	-0.031595	-0.032928	0.044209	41.288	-0.032398	-0.026903	-1.643312	NaN
1027	1.000000	1.072880	7.3751e+06	-51489.1	1055.82	-29752.1	0.000000	0.000000	7.073198	0.078492	NaN	0.000000	0.001621	0.001879	28.0837	0.044660	0.001976	22.6011	-64.962	11.194	0.053871	1.071477	-0.021531	-0.022934	0.078492	22.6011	-0.024136	-0.016020	-4.899718	NaN
1027	1.000000	1.082855	7.3751e+06	-51489.1	1055.82	-29752.1	0.000000	0.000000	7.083175	0.146058	NaN	0.000000	0.001652	0.001831	28.0836	0.112973	0.002060	54.8329	-117.331	-167.935	0.045919	1.081530	-0.011556	-0.012881	0.146058	54.8329	-0.013554	-0.008423	-17.3405	NaN
1027	1.000000	1.092827	7.3751e+06	-51489.1	1055.82	-29752.1	0.000000	0.000000	7.093149	0.179587	NaN	0.000000	0.001629	0.001802	28.0836	0.134873	0.002068	65.2189	-21.5407	10.4965	0.108086	1.091466	-0.001584	-0.002945	0.179587	65.2189	-0.003649	-0.002550	-70.4135	NaN
1027	2.000000	1.102259	7.3751e+06	-51489.1	1055.82	-29752.1	0.000000	0.000000	7.103023	10.9346	NaN	0.000000	0.001654	0.001783	28.0839	8.225044	0.001645	4998.76	7.642663	-171.833	8.809024	1.101414	0.007848	0.007004	10.9346	4998.76	0.006207	0.005262	2077.9	62957.3
1027	2.000000	1.104952	7.3751e+06	-51489.1	1055.82	-29752.1	0.000000	0.000000	7.105710	10.7855	NaN	0.000000	0.001658	0.001851	28.0838	10.9297	0.001670	6546.33	5.684487	5.534566	10.1305	1.104639	0.010541	0.010228	10.7855	6546.33	0.009306	0.008420	1280.92	65179.8
1027	2.000000	1.107382	7.3751e+06	-51489.1	1055.82	-29752.1	0.000000	0.000000	7.108308	14.8817	NaN	0.000000	0.001650	0.001843	28.0838	14.0934	0.001897	7428.98	6.907782	-175.052	13.7188	1.107115	0.012971	0.012704	14.8817	7428.98	0.011468	0.010860	1370.38	65132.4
1027	2.000000	1.109892	7.3751e+06	-51489.1	1055.82	-29752.1	0.000000	0.000000	7.111163	23.2539	NaN	0.000000	0.001648	0.001836	28.0839	16.5275	0.001875	8815.52	6.527079	3.268623	21.1235	1.109520	0.015481	0.015110	23.2539	8815.52	0.013503	0.013340	1743.11	69732.6
1027	2.000000	1.112407	7.3751e+06	-51489.1	1055.82	-29752.1	0.000000	0.000000	7.113918	29.0724	NaN	0.000000	0.001651	0.001842	28.0839	18.3246	0.001691	10833.5	7.034431	-178.818	29.6932	1.112068	0.017997	0.017657	29.0724	10833.5	0.015984	0.016620	1749.25	76776.4
1027	2.000000	1.114831	7.3751e+06	-51489.1	1055.82	-29752.1	0.000000	0.000000	7.116469	32.1595	NaN	0.000000	0.001650	0.001820	28.0839	21.4706	0.001802	11916.2	6.594702	1.110884	30.268	1.114527	0.020421	0.020116	32.1595	11916.2	0.018396	0.020085	1601.18	76820.4
1027	2.000000	1.117349	7.3751e+06	-51489.1	1055.82	-29752.1	0.000000	0.000000	7.119306	39.9499	NaN	0.000000	0.001635	0.001875	28.0839	23.5066	0.001715	13709.4	-0.254463	-174.14	38.3306	1.117047	0.022938	0.022637	39.9499	13709.4	0.020752	0.023738	1682.94	81295.5
1027	2.000000	1.120017	7.3751e+06	-51489.1	1055.82	-29752.1	0.000000	0.000000	7.122239	46.3728	NaN	0.000000	0.001652	0.001871	28.084	25.7047	0.001862	13806.2	11.1311	-1.577115	52.3564	1.119462	0.025607	0.025051	46.3728	13806.2	0.023087	0.027628	1678.47	75888.1
1027	2.000000	1.122408	7.3751e+06	-51489.1	1055.82	-29752.1	0.000000	0.000000	7.124719	48.557	NaN	0.000000	0.001670	0.001872	28.0839	28.6353	0.001834	15612.7	5.493539	179.979	51.1642	1.122079	0.027997	0.027668	48.557	15612.7	0.025664	0.032235	1506.34	79448.5
1027	2.000000	1.124835	7.3751e+06	-51489.1	1055.82	-29752.1	0.000000	0.000000	7.127577	59.0067	NaN	0.000000	0.001646	0.001854	28.0828	31.7007	0.001758	18029	5.818173	-3.053321	57.3669	1.124467	0.030425	0.030056	59.0067	18029	0.027970	0.036641	1610.4	86052.2
1027	2.000000	1.127350	7.3751e+06	-51489.1	1055.82	-29752.1	0.000000	0.000000	7.130307	64.2487	NaN	0.000000	0.001642	0.001887	28.0826	33.6543	0.001751	19216.2	1.991600	-178.938	63.6148	1.127035	0.032939	0.032624	64.2487	19216.2	0.030432	0.041643	1542.83	86033.6
1027	2.000000	1.129842	7.3751e+06	-51489.1	1055.82	-29752.1	0.000000	0.000000	7.133265	75.5738	NaN	0.000000	0.001641	0.001845	28.0829	36.3916	0.001864	19519.9	4.621441	-1.084835	74.7057	1.129552	0.035432	0.035141	75.5738	19519.9	0.032528	0.046146	1637.7	83019.8
1027	2.000000	1.132360	7.3751e+06	-51489.1	1055.82	-29752.1	0.000000	0.000000	7.136244	86.7781	NaN	0.000000	0.001623	0.001827	28.0828	38.4694	0.001986	19374.8	10.9759	173.395	88.8586	1.131981	0.037950	0.037570	86.7781	19374.8	0.034590	0.050796	1708.35	78540.6
1027	2.000000	1.134860	7.3751e+06	-51489.1	1055.82	-29752.1	0.000000	0.000000	7.138991	92.8047	NaN	0.000000	0.001608	0.001832	28.0826	40.352	0.001877	21499.9	7.484033	-4.829817	92.626	1.134464	0.040449	0.040053	92.8047	21499.9	0.037212	0.057021	1627.55	82260.5
1027	2.000000	1.137313	7.3751e+06	-51489.1	1055.82	-29752.1	0.000000	0.000000	7.141973	105.652	NaN	0.000000	0.001636	0.001815	28.0829	42.8414	0.001846	23207.4	8.052793	173.879	104.156	1.136987	0.042902	0.042577	105.652	23207.4	0.039488	0.062712	1684.72	84669
1027	2.000000	1.139783	7.3751e+06	-51489.1	1055.82	-29752.1	0.000000	0.000000	7.145060	120.663	NaN	0.000000	0.001609	0.001864	28.083	43.6939	0.001704	25647.9	4.028724	-2.704071	116.213	1.139374	0.045372	0.044964	120.663	25647.9	0.041844	0.068880	1751.79	89285
1027	2.000000	1.142271	7.3751e+06	-51489.1	1055.82	-29752.1	0.000000	0.000000	7.147783	126.364	NaN	0.000000	0.001641	0.001851	28.0828	46.672	0.001747	26710.6	3.013434	176.966	124.009	1.142088	0.047861	0.047677	126.364	26710.6	0.044313	0.075648	1670.43	88727.5
1027	2.000000	1.144778	7.3751e+06	-51489.1	1055.82	-29752.1	0.000000	0.000000	7.150823	139.344	NaN	0.000000	0.001641	0.001821	28.083	49.6688	0.001895	26204.9	4.124127	-2.915902	135.309	1.144474	0.050367	0.050064	139.344	26204.9	0.046379	0.081550	1708.7	83838.7
1027	2.000000	1.147343	7.3751e+06	-51489.1	1055.82	-29752.1	0.000000	0.000000	7.153883	151.373	NaN	0.000000	0.001665	0.001837	28.083	52.2892	0.001699	30776.1	4.646434	174.102	149.858	1.147026	0.052933	0.052615	151.373	30776.1	0.049244	0.090090	1680.24	93680.4
1027	2.000000	1.149803	7.3751e+06	-51489.1	1055.82	-29752.1	0.000000	0.000000	7.156956	166.297	NaN	0.000000	0.001648	0.001822	28.083	53.6842	0.001770	30335.1	6.304543	-6.194434	162.895	1.149416	0.055392	0.055005	166.297	30335.1	0.051281	0.096412	1724.85	89258.9
1027	2.000000	1.152229	7.3751e+06	-51489.1	1055.82	-29752.1	0.000000	0.000000	7.159978	180.776	NaN	0.000000	0.001599	0.001864	28.0829	55.7656	0.001789	31170	6.987630	172.62	176.196	1.151981	0.057818	0.057570	180.776	31170	0.053469	0.103435	1747.72	88547.4
1027	2.000000	1.154759	7.3751e+06	-51489.1	1055.82	-29752.1	0.000000	0.000000	7.163019	193.199	NaN	0.000000	0.001611	0.001851	28.0828	58.1658	0.001803	32254.1	2.651324	-3.357256	188.308	1.154414	0.060349	0.060003	193.199	32254.1	0.055856	0.111370	1734.75	88302.7
1027	2.000000	1.157261	7.3751e+06	-51489.1	1055.82	-29752.1	0.000000	0.000000	7.166183	209.294	NaN	0.000000	0.001618	0.001912	28.0829	61.7997	0.001827	33834	6.583742	172.381	206.058	1.156875	0.062850	0.062465	209.294	33834	0.058211	0.119470	1751.86	89433
1027	2.000000	1.159784	7.3751e+06	-51489.1	1055.82	-29752.1	0.000000	0.000000	7.169418	226.612	NaN	0.000000	0.001633	0.001850	28.0843	63.7174	0.001832	34780.9	9.792311	-11.3203	223.14	1.159385	0.065373	0.064974	226.612	34780.9	0.060487	0.127560	1776.52	88972.8
1027	2.000000	1.162210	7.3751e+06	-51489.1	1055.82	-29752.1	0.000000	0.000000	7.172398	240.073	NaN	0.000000	0.001598	0.001814	28.0842	64.0487	0.001733	36948	2.094746	176.588	235.176	1.161883	0.067800	0.067472	240.073	36948	0.062926	0.136511	1758.64	91365.2
1027	2.000000	1.164799	7.3751e+06	-51489.1	1055.82	-29752.1	0.000000	0.000000	7.175386	249.764	NaN	0.000000	0.001598	0.001828	28.0846	67.6918	0.001689	40084	2.142381	-4.837996	247.978	1.164501	0.070389	0.070090	249.764	40084	0.065715	0.147097	1697.96	95486.6
1027	2.000000	1.167252	7.3751e+06	-51489.1	1055.82	-29752.1	0.000000	0.000000	7.178598	268.237	NaN	0.000000	0.001611	0.001839	28.0841	72.0535	0.001905	37824.1	5.713870	172.9	266.446	1.166890	0.072842	0.072479	268.237	37824.1	0.067523	0.154158	1740.02	88015.4
1027	2.000000	1.169775	7.3751e+06	-51489.1	1055.82	-29752.1	0.000000	0.000000	7.181654	281.187	NaN	0.000000	0.001612	0.001841	28.0843	73.8134	0.001892	39017.3	3.602032	-6.068523	278.048	1.169474	0.075365	0.075063	281.187	39017.3	0.069960	0.163924	1715.35	88046.1
1027	2.000000	1.172254	7.3751e+06	-51489.1	1055.82	-29752.1	0.000000	0.000000	7.184916	300.24	NaN	0.000000	0.001612	0.001828	28.0841	74.9754	0.001820	41196.4	1.981566	175.493	297.683	1.171875	0.077843	0.077464	300.24	41196.4	0.072377	0.173892	1726.58	90259.3
1027	2.000000	1.174766	7.3751e+06	-51489.1	1055.82	-29752.1	0.000000	0.000000	7.188046	315.279	NaN	0.000000	0.001596	0.001811	28.0848	77.6102	0.001803	43038.9	2.368570	-5.250230	312.111	1.174351	0.080355	0.079940	315.279	43038.9	0.074861	0.184422	1709.55	91564.8
1027	2.000000	1.177197	7.3751e+06	-51489.1	1055.82	-29752.1	0.000000	0.000000	7.191125	331.036	NaN	0.000000	0.001650	0.001828	28.084	80.898	0.001943	41641.4	3.471109	174.334	326.844	1.176942	0.082786	0.082531	331.036	41641.4	0.076824	0.192949	1715.66	86611.9
1027	2.000000	1.179824	7.3751e+06	-51489.1	1055.82	-29752.1	0.000000	0.000000	7.194624	352.225	NaN	0.000000	0.001646	0.001832	28.0844	81.7179	0.001732	47184.2	4.931149	-8.762933	350.111	1.179480	0.085413	0.085069	352.225	47184.2	0.079814	0.206287	1707.45	94914.8
1027	2.000000	1.182203	7.3751e+06	-51489.1	1055.82	-29752.1	0.000000	0.000000	7.197798	371.552	NaN	0.000000	0.001633	0.001821	28.0842	83.2319	0.001744	47719.7	2.348903	173.827	367.036	1.181871	0.087792	0.087460	371.552	47719.7	0.081953	0.216080	1719.51	93791.7
1027	2.000000	1.184685	7.3751e+06	-51489.1	1055.82	-29752.1	0.000000	0.000000	7.200890	386.402	NaN	0.000000	0.001644	0.001839	28.0846	88.3173	0.001800	49073.4	9.743279	-14.1091	379.658	1.184431	0.090274	0.090020	386.402	49073.4	0.084369	0.227399	1699.22	94020.9
1027	2.000000	1.187312	7.3751e+06	-51489.1	1055.82	-29752.1	0.000000	0.000000	7.204251	404.26	NaN	0.000000	0.001627	0.001821	28.084	90.5172	0.001805	50136.6	8.156752	167.832	407.028	1.187027	0.092901	0.092617	404.26	50136.6	0.086854	0.239323	1689.18	93634.5
1027	2.000000	1.189766	7.3751e+06	-51489.1	1055.82	-29752.1	0.000000	0.000000	7.207335	419.572	NaN	0.000000	0.001588	0.001833	28.0846	91.3774	0.001899	48107.9	2.014474	-5.689848	417.272	1.189527	0.095355	0.095116	419.572	48107.9	0.088814	0.248932	1685.49	88094.6
1027	2.000000	1.192180	7.3751e+06	-51489.1	1055.82	-29752.1	0.000000	0.000000	7.210941	448.535	NaN	0.000000	0.001580	0.001839	28.0842	93.8313	0.001759	53339.2	6.804985	168.464	442.954	1.191887	0.097769	0.097476	448.535	53339.2	0.091462	0.262191	1710.72	95172.4
1027	2.000000	1.194677	7.3751e+06	-51489.1	1055.82	-29752.1	0.000000	0.000000	7.214096	464.547	NaN	0.000000	0.001587	0.001787	28.0832	95.468	0.001765	54097.6	6.066186	-11.095	458.234	1.194410	0.100266	0.100000	464.547	54097.6	0.093826	0.274296	1693.6	94371.7
1027	2.000000	1.197220	7.3751e+06	-51489.1	1055.82	-29752.1	0.000000	0.000000	7.217326	481.249	NaN	0.000000	0.001610	0.001804	28.0829	98.9746	0.001855	53351.9	3.504311	172.092	478.478	1.196948	0.102809	0.102537	481.249	53351.9	0.096044	0.285888	1683.34	91164.3
1027	2.000000	1.199722	7.3751e+06	-51489.1	1055.82	-29752.1	0.000000	0.000000	7.220956	508.688	NaN	0.000000	0.001608	0.001826	28.0832	99.629	0.001777	56075.9	4.781308	-9.308303	503.136	1.199381	0.105311	0.104970	508.688	56075.9	0.098507	0.299025	1701.15	93690.5
1027	2.000000	1.200732	7.3751e+06	-51489.1	1055.82	-29752.1	0.000000	0.000000	7.222302	516.839	NaN	0.000000	0.001594	0.001848	28.0828	101.983	0.001792	56899.3	8.247890	-12.6255	514.494	1.200351	0.106322	0.105940	516.839	56899.3	0.099509	0.304446	1697.64	94216