File: remote_trans/data/nanoindenter/0828-1/data/Data_2025-08-06,11h17m57s/2025-07-22_16-23-58_1_303.txt
2025-07-22, 16:23:58, 1
Index	Phase	Displacement	Time	Pos X	Pos Y	Pos Z	Rot A	Rot B	Piezo Z	Force A	Force B	Gripper	Voltage A	Voltage B	Temperature	Amplitude force	Amplitude pos	Stiffness	Phase shift	Phase excitation	Force A raw	Displacement raw	HMax	HMax raw	Real Force	Real Stiffness	Contact Depth	Area	Hardness	Reduced Mod.
[#]	[#]	[um]	[s]	[um]	[um]	[um]	[m°]	[m°]	[um]	[uN]	[uN]	[V]	[V]	[V]	[°C]	[uN]	[um]	[N/m]	[°]	[°]	[uN]	[um]	[um]	[um]	[uN]	[N/m]	[um]	[um^2]	[MPa]	[MPa]
303	1.000000	0.002705	7.36803e+06	-53789.1	955.818	-29745.6	0.000000	0.000000	6.002819	-0.008619	NaN	0.000000	0.001657	0.001672	28.0814	0.067149	0.000933	71.9961	-113.363	-168.05	0.006151	0.001443	-1.072786	-1.074049	-0.008619	71.9961	-1.072696	-2.154836E+14	3.999682E-17	NaN
303	1.000000	0.010633	7.36803e+06	-53789.1	955.819	-29745.6	0.000000	0.000000	6.010747	0.012317	NaN	0.000000	0.001682	0.001671	28.0811	0.095263	0.001023	93.157	-11.792	-162.266	-0.025421	0.009318	-1.064859	-1.066174	0.012317	93.157	-1.064958	-1.696094E+14	-7.261722E-17	NaN
303	1.000000	0.018618	7.36803e+06	-53789.1	955.818	-29745.6	0.000000	0.000000	6.018732	0.002599	NaN	0.000000	0.001638	0.001670	28.0809	0.032148	0.001789	17.9736	156.198	-167.33	-0.025195	0.017389	-1.056873	-1.058103	0.002599	17.9736	-1.056982	-1.325131E+14	-1.961010E-17	NaN
303	1.000000	0.026674	7.36803e+06	-53789.1	955.818	-29745.6	0.000000	0.000000	6.026791	0.063898	NaN	0.000000	0.001661	0.001710	28.0808	0.050943	0.001892	26.925	162.168	-171.661	0.041119	0.025331	-1.048817	-1.050161	0.063898	26.925	-1.050597	-1.087533E+14	-5.875463E-16	NaN
303	1.000000	0.034650	7.36803e+06	-53789.1	955.819	-29745.6	0.000000	0.000000	6.034762	-0.058472	NaN	0.000000	0.001672	0.001716	28.0808	0.087979	0.001891	46.5239	134.884	-164.073	-0.029417	0.033322	-1.040841	-1.042170	-0.058472	46.5239	-1.039899	-7.809182E+13	7.487554E-16	NaN
303	1.000000	0.042655	7.36803e+06	-53789.1	955.818	-29745.6	0.000000	0.000000	6.042767	-0.060693	NaN	0.000000	0.001676	0.001702	28.0811	0.082448	0.002079	39.6634	128.811	-167.1	-0.038746	0.041344	-1.032836	-1.034147	-0.060693	39.6634	-1.031689	-6.056091E+13	1.002186E-15	NaN
303	1.000000	0.050663	7.36803e+06	-53789.1	955.819	-29745.6	0.000000	0.000000	6.050776	-0.000713	NaN	0.000000	0.001697	0.001693	28.0808	0.037409	0.001942	19.2613	-42.0458	-166.016	0.060888	0.049323	-1.024829	-1.026169	-0.000713	19.2613	-1.024801	-4.892713E+13	1.458138E-17	NaN
303	1.000000	0.058658	7.36803e+06	-53789.1	955.818	-29745.6	0.000000	0.000000	6.058774	0.033388	NaN	0.000000	0.001671	0.001700	28.0812	0.032137	0.001857	17.3058	-171.864	-163.956	-0.026166	0.057315	-1.016833	-1.018177	0.033388	17.3058	-1.018280	-3.997718E+13	-8.351814E-16	NaN
303	1.000000	0.066690	7.36803e+06	-53789.1	955.819	-29745.6	0.000000	0.000000	6.066800	-0.071945	NaN	0.000000	0.001686	0.001701	28.081	0.013960	0.001926	7.247483	-15.2118	-165.907	-0.028309	0.065351	-1.008802	-1.010141	-0.071945	7.247483	-1.001357	-2.366133E+13	3.040612E-15	NaN
303	1.000000	0.074607	7.36803e+06	-53789.1	955.819	-29745.6	0.000000	0.000000	6.074721	0.002748	NaN	0.000000	0.001648	0.001697	28.0804	0.110841	0.002097	52.8652	-23.2872	-164.661	0.007119	0.073316	-1.000885	-1.002175	0.002748	52.8652	-1.000924	-2.334547E+13	-1.177197E-16	NaN
303	1.000000	0.082635	7.36803e+06	-53789.1	955.818	-29745.6	0.000000	0.000000	6.082748	-0.019600	NaN	0.000000	0.001651	0.001682	28.0801	0.040237	0.002030	19.8215	-97.408	-167.679	0.046254	0.081348	-0.992857	-0.994143	-0.019600	19.8215	-0.992115	-1.776639E+13	1.103222E-15	NaN
303	1.000000	0.090660	7.36803e+06	-53789.1	955.819	-29745.6	0.000000	0.000000	6.090773	-0.039017	NaN	0.000000	0.001665	0.001680	28.0799	0.060180	0.001841	32.6818	84.4329	-163.229	0.052247	0.089334	-0.984831	-0.986158	-0.039017	32.6818	-0.983936	-1.378585E+13	2.830253E-15	NaN
303	1.000000	0.098641	7.36803e+06	-53789.1	955.819	-29745.6	0.000000	0.000000	6.098756	0.031542	NaN	0.000000	0.001672	0.001681	28.0803	0.027433	0.002059	13.3235	57.8629	-164.086	0.021179	0.097305	-0.976851	-0.978186	0.031542	13.3235	-0.978626	-1.169241E+13	-2.697646E-15	NaN
303	1.000000	0.106655	7.36803e+06	-53789.1	955.819	-29745.6	0.000000	0.000000	6.106767	-0.046392	NaN	0.000000	0.001679	0.001768	28.0802	0.084158	0.002014	41.7816	-91.8377	-165.644	-0.018843	0.105349	-0.968837	-0.970143	-0.046392	41.7816	-0.968004	-8.409337E+12	5.516769E-15	NaN
303	1.000000	0.114646	7.36803e+06	-53789.1	955.819	-29745.6	0.000000	0.000000	6.114760	-0.004273	NaN	0.000000	0.001614	0.001739	28.0803	0.036717	0.002085	17.607	127.737	-169.175	0.023318	0.113334	-0.960845	-0.962158	-0.004273	17.607	-0.960663	-6.695924E+12	6.381484E-16	NaN
303	1.000000	0.122650	7.36803e+06	-53789.1	955.818	-29745.6	0.000000	0.000000	6.122761	-0.064815	NaN	0.000000	0.001677	0.001677	28.0805	0.043571	0.001997	21.8222	58.2577	-167.073	-0.031009	0.121349	-0.952842	-0.954142	-0.064815	21.8222	-0.950615	-4.901361E+12	1.322379E-14	NaN
303	1.000000	0.130682	7.36803e+06	-53789.1	955.818	-29745.6	0.000000	0.000000	6.130799	0.078185	NaN	0.000000	0.001682	0.001686	28.08	0.038348	0.001967	19.4946	-18.0342	-166.779	0.051321	0.129383	-0.944810	-0.946108	0.078185	19.4946	-0.947817	-4.493571E+12	-1.739935E-14	NaN
303	1.000000	0.138662	7.36803e+06	-53789.1	955.82	-29745.6	0.000000	0.000000	6.138777	0.008816	NaN	0.000000	0.001647	0.001702	28.0801	0.027073	0.002021	13.396	-65.833	-167.497	-0.037287	0.137335	-0.936829	-0.938157	0.008816	13.396	-0.937323	-3.243523E+12	-2.717911E-15	NaN
303	1.000000	0.146663	7.36803e+06	-53789.1	955.819	-29745.6	0.000000	0.000000	6.146776	-0.029880	NaN	0.000000	0.001639	0.001677	28.08	0.057496	0.001944	29.5783	95.834	-167.68	-0.049920	0.145409	-0.928829	-0.930083	-0.029880	29.5783	-0.928071	-2.433112E+12	1.228062E-14	NaN
303	1.000000	0.154693	7.36803e+06	-53789.1	955.819	-29745.6	0.000000	0.000000	6.154807	0.011092	NaN	0.000000	0.001695	0.001661	28.0802	0.114998	0.002057	55.9108	52.4505	-165.237	-0.009575	0.153371	-0.920799	-0.922121	0.011092	55.9108	-0.920947	-1.949837E+12	-5.688807E-15	NaN
303	1.000000	0.162652	7.36803e+06	-53789.1	955.819	-29745.6	0.000000	0.000000	6.162765	-0.021942	NaN	0.000000	0.001735	0.001651	28.08	0.065576	0.002008	32.661	-34.1862	-167.992	0.031158	0.161346	-0.912840	-0.914146	-0.021942	32.661	-0.912336	-1.491820E+12	1.470835E-14	NaN
303	1.000000	0.170672	7.36803e+06	-53789.1	955.82	-29745.6	0.000000	0.000000	6.170784	-0.064070	NaN	0.000000	0.001768	0.001666	28.0799	0.046120	0.001932	23.8674	113.459	-169.303	-0.086115	0.169350	-0.904819	-0.906141	-0.064070	23.8674	-0.902806	-1.109124E+12	5.776670E-14	NaN
303	1.000000	0.178684	7.36803e+06	-53789.1	955.819	-29745.6	0.000000	0.000000	6.178798	-0.008931	NaN	0.000000	0.001736	0.001673	28.0801	0.028527	0.002079	13.7245	104.509	-165.179	-0.076742	0.177378	-0.896808	-0.898114	-0.008931	13.7245	-0.896320	-9.064222E+11	9.853178E-15	NaN
303	1.000000	0.186671	7.36803e+06	-53789.1	955.819	-29745.6	0.000000	0.000000	6.186782	-0.069513	NaN	0.000000	0.001737	0.001632	28.0799	0.066774	0.002117	31.5479	-118.225	-167.28	0.023395	0.185357	-0.888821	-0.890135	-0.069513	31.5479	-0.887168	-6.817584E+11	1.019615E-13	NaN
303	1.000000	0.194700	7.36803e+06	-53789.1	955.819	-29745.6	0.000000	0.000000	6.194815	0.024823	NaN	0.000000	0.001759	0.001678	28.08	0.043849	0.002014	21.7716	63.5025	-169.46	0.043678	0.193329	-0.880792	-0.882163	0.024823	21.7716	-0.881647	-5.740954E+11	-4.323768E-14	NaN
303	1.000000	0.202667	7.36803e+06	-53789.1	955.818	-29745.6	0.000000	0.000000	6.202779	-0.048583	NaN	0.000000	0.001721	0.001711	28.0798	0.064127	0.002071	30.9701	-14.6758	-163.225	0.057920	0.201417	-0.872825	-0.874075	-0.048583	30.9701	-0.871648	-4.204808E+11	1.155409E-13	NaN
303	1.000000	0.210702	7.36803e+06	-53789.1	955.818	-29745.6	0.000000	0.000000	6.210817	0.034274	NaN	0.000000	0.001701	0.001671	28.0804	0.151804	0.001957	77.5747	159.145	-169.925	-0.037630	0.209356	-0.864790	-0.866136	0.034274	77.5747	-0.865121	-3.431103E+11	-9.989219E-14	NaN
303	1.000000	0.218701	7.36803e+06	-53789.1	955.818	-29745.6	0.000000	0.000000	6.218814	-0.028381	NaN	0.000000	0.001687	0.001685	28.0814	0.047967	0.001887	25.4217	72.977	-164.853	-0.048106	0.217420	-0.856791	-0.858072	-0.028381	25.4217	-0.855953	-2.578354E+11	1.100743E-13	NaN
303	1.000000	0.226719	7.36803e+06	-53789.1	955.818	-29745.6	0.000000	0.000000	6.226833	0.003294	NaN	0.000000	0.001707	0.001653	28.0812	0.056630	0.002064	27.4306	-44.5541	-163.753	0.021505	0.225412	-0.848773	-0.850080	0.003294	27.4306	-0.848863	-2.067001E+11	-1.593486E-14	NaN
303	1.000000	0.234749	7.36803e+06	-53789.1	955.819	-29745.6	0.000000	0.000000	6.234862	-0.020810	NaN	0.000000	0.001648	0.001667	28.0811	0.123539	0.002067	59.762	-149.761	-166.085	-0.004946	0.233427	-0.840742	-0.842065	-0.020810	59.762	-0.840481	-1.591518E+11	1.307533E-13	NaN
303	1.000000	0.242718	7.36803e+06	-53789.1	955.818	-29745.6	0.000000	0.000000	6.242831	-0.031895	NaN	0.000000	0.001680	0.001649	28.0811	0.072783	0.001918	37.946	57.1483	-165.606	0.065335	0.241339	-0.832774	-0.834152	-0.031895	37.946	-0.832143	-1.226968E+11	2.599472E-13	NaN
303	1.000000	0.250701	7.36803e+06	-53789.1	955.819	-29745.6	0.000000	0.000000	6.250816	0.012704	NaN	0.000000	0.001649	0.001640	28.0814	0.036468	0.002037	17.899	125.26	-167.633	0.026686	0.249381	-0.824790	-0.826110	0.012704	17.899	-0.825323	-9.916963E+10	-1.281003E-13	NaN
303	1.000000	0.258741	7.36803e+06	-53789.1	955.819	-29745.6	0.000000	0.000000	6.258852	-0.055187	NaN	0.000000	0.001640	0.001698	28.0815	0.013869	0.001953	7.102580	33.7052	-165.809	-0.047513	0.257386	-0.816751	-0.818105	-0.055187	7.102580	-0.810923	-6.325557E+10	8.724480E-13	NaN
303	1.000000	0.266720	7.36803e+06	-53789.1	955.818	-29745.6	0.000000	0.000000	6.266835	0.028234	NaN	0.000000	0.001662	0.001670	28.0813	0.086388	0.001978	43.6825	-155.931	-164.724	-0.026369	0.265435	-0.808772	-0.810057	0.028234	43.6825	-0.809256	-6.004593E+10	-4.702144E-13	NaN
303	1.000000	0.274750	7.36803e+06	-53789.1	955.818	-29745.6	0.000000	0.000000	6.274863	-0.031954	NaN	0.000000	0.001650	0.001667	28.0815	0.044926	0.002062	21.788	73.8762	-166.288	-0.026939	0.273394	-0.800742	-0.802098	-0.031954	21.788	-0.799642	-4.446329E+10	7.186604E-13	NaN
303	1.000000	0.282716	7.36803e+06	-53789.1	955.819	-29745.6	0.000000	0.000000	6.282829	-0.021579	NaN	0.000000	0.001638	0.001641	28.0812	0.100993	0.002038	49.5634	-67.3257	-166.546	-0.082326	0.281462	-0.792776	-0.794030	-0.021579	49.5634	-0.792449	-3.550952E+10	6.076918E-13	NaN
303	1.000000	0.290740	7.36803e+06	-53789.1	955.819	-29745.6	0.000000	0.000000	6.290854	0.000896	NaN	0.000000	0.001655	0.001686	28.0815	0.154638	0.001959	78.9267	29.2202	-168.306	0.016921	0.289416	-0.784751	-0.786076	0.000896	78.9267	-0.784760	-2.791942E+10	-3.210869E-14	NaN
303	1.000000	0.298749	7.36803e+06	-53789.1	955.819	-29745.6	0.000000	0.000000	6.298862	-0.030155	NaN	0.000000	0.001637	0.001658	28.0813	0.119609	0.002052	58.2894	161.767	-162.122	-0.092110	0.297444	-0.776743	-0.778048	-0.030155	58.2894	-0.776355	-2.146308E+10	1.404990E-12	NaN
303	1.000000	0.306738	7.36803e+06	-53789.1	955.82	-29745.6	0.000000	0.000000	6.306853	0.023826	NaN	0.000000	0.001643	0.001621	28.0812	0.019868	0.001979	10.0411	179.121	-166.33	0.049637	0.305438	-0.768754	-0.770054	0.023826	10.0411	-0.770533	-1.788774E+10	-1.331996E-12	NaN
303	1.000000	0.314770	7.36803e+06	-53789.1	955.819	-29745.6	0.000000	0.000000	6.314886	0.043298	NaN	0.000000	0.001671	0.001625	28.0816	0.035272	0.001919	18.3843	-24.0555	-166.78	-0.012117	0.313430	-0.760721	-0.762061	0.043298	18.3843	-0.762488	-1.390417E+10	-3.113999E-12	NaN
303	1.000000	0.322739	7.36803e+06	-53789.1	955.819	-29745.6	0.000000	0.000000	6.322850	-0.093095	NaN	0.000000	0.001638	0.001611	28.0814	0.082699	0.002100	39.3778	-155.136	-165.066	-0.121982	0.321495	-0.752752	-0.753997	-0.093095	39.3778	-0.750979	-9.694997E+9	9.602418E-12	NaN
303	1.000000	0.330782	7.36803e+06	-53789.1	955.819	-29745.6	0.000000	0.000000	6.330899	0.072452	NaN	0.000000	0.001653	0.001632	28.0814	0.055472	0.002137	25.9637	-123.747	-165.125	0.023234	0.329438	-0.744709	-0.746054	0.072452	25.9637	-0.746802	-8.505261E+9	-8.518458E-12	NaN
303	1.000000	0.338778	7.36803e+06	-53789.1	955.819	-29745.6	0.000000	0.000000	6.338889	-0.066915	NaN	0.000000	0.001638	0.001621	28.0811	0.087797	0.002071	42.3841	35.3033	-168.293	0.043906	0.337482	-0.736713	-0.738010	-0.066915	42.3841	-0.735529	-5.972484E+9	1.120389E-11	NaN
303	1.000000	0.346730	7.36803e+06	-53789.1	955.819	-29745.6	0.000000	0.000000	6.346847	0.092465	NaN	0.000000	0.001671	0.001652	28.081	0.089602	0.002032	44.0958	-154.804	-170.051	0.106466	0.345426	-0.728762	-0.730066	0.092465	44.0958	-0.730335	-5.074236E+9	-1.822245E-11	NaN
303	1.000000	0.354736	7.36803e+06	-53789.1	955.818	-29745.6	0.000000	0.000000	6.354845	-0.100400	NaN	0.000000	0.001665	0.001635	28.0801	0.077425	0.002062	37.5446	42.8985	-166.27	0.003942	0.353464	-0.720756	-0.722028	-0.100400	37.5446	-0.718751	-3.527224E+9	2.846421E-11	NaN
303	1.000000	0.362791	7.36803e+06	-53789.1	955.819	-29745.6	0.000000	0.000000	6.362905	0.001196	NaN	0.000000	0.001660	0.001629	28.08	0.062921	0.001916	32.8316	16.7158	-165.446	-0.020225	0.361475	-0.712700	-0.714017	0.001196	32.8316	-0.712728	-2.919235E+9	-4.098653E-13	NaN
303	1.000000	0.370768	7.36803e+06	-53789.1	955.819	-29745.6	0.000000	0.000000	6.370880	-0.044440	NaN	0.000000	0.001619	0.001625	28.0803	0.091567	0.001915	47.8121	32.9765	-167.731	-0.125077	0.369461	-0.704724	-0.706031	-0.044440	47.8121	-0.704026	-2.220805E+9	2.001085E-11	NaN
303	1.000000	0.378748	7.36803e+06	-53789.1	955.819	-29745.6	0.000000	0.000000	6.378859	-0.070854	NaN	0.000000	0.001639	0.001598	28.0799	0.050172	0.001981	25.3324	-71.3978	-164.225	-0.062453	0.377451	-0.696744	-0.698041	-0.070854	25.3324	-0.694646	-1.653480E+9	4.285163E-11	NaN
303	1.000000	0.386782	7.36803e+06	-53789.1	955.819	-29745.6	0.000000	0.000000	6.386893	-0.077642	NaN	0.000000	0.001655	0.001611	28.0803	0.128501	0.001990	64.5892	-58.2331	-167.507	-0.072106	0.385491	-0.688710	-0.690001	-0.077642	64.5892	-0.687808	-1.333403E+9	5.822865E-11	NaN
303	1.000000	0.394791	7.36803e+06	-53789.1	955.819	-29745.6	0.000000	0.000000	6.394908	0.072396	NaN	0.000000	0.001652	0.001641	28.08	0.030767	0.002063	14.9138	-40.537	-167.095	0.013612	0.393499	-0.680700	-0.681992	0.072396	14.9138	-0.684341	-1.195548E+9	-6.055474E-11	NaN
303	1.000000	0.402790	7.36803e+06	-53789.1	955.819	-29745.6	0.000000	0.000000	6.402905	0.029298	NaN	0.000000	0.001635	0.001649	28.0802	0.023738	0.001853	12.8137	-172.622	-166.749	0.048107	0.401469	-0.672702	-0.674022	0.029298	12.8137	-0.674417	-8.746417E+8	-3.349703E-11	NaN
303	1.000000	0.410790	7.36803e+06	-53789.1	955.819	-29745.6	0.000000	0.000000	6.410906	0.046476	NaN	0.000000	0.001657	0.001650	28.0801	0.062862	0.001935	32.4898	-9.266873	-167.412	-0.064190	0.409504	-0.664702	-0.665988	0.046476	32.4898	-0.665774	-6.661109E+8	-6.977181E-11	NaN
303	1.000000	0.418793	7.36803e+06	-53789.1	955.818	-29745.6	0.000000	0.000000	6.418904	-0.078885	NaN	0.000000	0.001697	0.001652	28.0799	0.078156	0.002184	35.7808	11.5003	-169.605	-0.102309	0.417494	-0.656698	-0.657998	-0.078885	35.7808	-0.655045	-4.748752E+8	1.661184E-10	NaN
303	1.000000	0.426772	7.36803e+06	-53789.1	955.819	-29745.6	0.000000	0.000000	6.426889	0.066465	NaN	0.000000	0.001684	0.001619	28.0802	0.101755	0.002026	50.2161	-31.3403	-169.876	-0.012318	0.425520	-0.648720	-0.649972	0.066465	50.2161	-0.649713	-4.013250E+8	-1.656140E-10	NaN
303	1.000000	0.434792	7.36803e+06	-53789.1	955.819	-29745.6	0.000000	0.000000	6.434906	-0.006663	NaN	0.000000	0.001694	0.001643	28.0801	0.011704	0.001931	6.062057	167.412	-170.862	0.043538	0.433442	-0.640700	-0.642050	-0.006663	6.062057	-0.639875	-2.941580E+8	2.265277E-11	NaN
303	1.000000	0.442809	7.36803e+06	-53789.1	955.819	-29745.6	0.000000	0.000000	6.442923	0.009237	NaN	0.000000	0.001657	0.001635	28.0803	0.076904	0.001938	39.6811	62.7001	-161.257	-0.043449	0.441544	-0.632683	-0.633948	0.009237	39.6811	-0.632857	-2.356432E+8	-3.919773E-11	NaN
303	1.000000	0.450835	7.36803e+06	-53789.1	955.818	-29745.6	0.000000	0.000000	6.450951	0.033049	NaN	0.000000	0.001629	0.001623	28.0801	0.042214	0.001992	21.1962	155.96	-163.765	0.020257	0.449533	-0.624656	-0.625959	0.033049	21.1962	-0.625826	-1.886644E+8	-1.751738E-10	NaN
303	1.000000	0.458768	7.36803e+06	-53789.1	955.818	-29745.6	0.000000	0.000000	6.458879	-0.067664	NaN	0.000000	0.001649	0.001626	28.0801	0.123631	0.002116	58.4392	-171.914	-168.48	-0.005958	0.457562	-0.616724	-0.617930	-0.067664	58.4392	-0.615856	-1.376128E+8	4.917001E-10	NaN
303	1.000000	0.466828	7.36803e+06	-53789.1	955.819	-29745.6	0.000000	0.000000	6.466939	-0.066550	NaN	0.000000	0.001645	0.001618	28.0802	0.059386	0.001916	30.9947	-73.943	-168.048	-0.121141	0.465461	-0.608664	-0.610031	-0.066550	30.9947	-0.607054	-1.041294E+8	6.391084E-10	NaN
303	1.000000	0.474824	7.36803e+06	-53789.1	955.819	-29745.6	0.000000	0.000000	6.474939	0.033347	NaN	0.000000	0.001655	0.001620	28.0804	0.047079	0.001996	23.5859	-51.9473	-166.577	0.033657	0.473532	-0.600668	-0.601960	0.033347	23.5859	-0.601728	-8.795537E+7	-3.791354E-10	NaN
303	1.000000	0.482815	7.36803e+06	-53789.1	955.818	-29745.6	0.000000	0.000000	6.482928	-0.009881	NaN	0.000000	0.001594	0.001665	28.0803	0.106322	0.001930	55.0893	29.5719	-167.203	-0.028097	0.481470	-0.592677	-0.594021	-0.009881	55.0893	-0.592542	-6.572244E+7	1.503499E-10	NaN
303	1.000000	0.490819	7.36803e+06	-53789.1	955.819	-29745.6	0.000000	0.000000	6.490933	-0.006365	NaN	0.000000	0.001641	0.001641	28.0814	0.054752	0.001988	27.5429	17.9269	-165.693	-0.032669	0.489536	-0.584673	-0.585956	-0.006365	27.5429	-0.584499	-5.091045E+7	1.250179E-10	NaN
303	1.000000	0.498834	7.36803e+06	-53789.1	955.819	-29745.6	0.000000	0.000000	6.498949	0.034830	NaN	0.000000	0.001653	0.001639	28.0814	0.111664	0.001943	57.4567	-34.426	-166.251	0.033065	0.497531	-0.576658	-0.577961	0.034830	57.4567	-0.577113	-4.025963E+7	-8.651297E-10	NaN
303	1.000000	0.506819	7.36803e+06	-53789.1	955.819	-29745.6	0.000000	0.000000	6.506935	0.035713	NaN	0.000000	0.001643	0.001637	28.0819	0.051442	0.001921	26.781	-2.274507	-164.708	0.021076	0.505506	-0.568673	-0.569985	0.035713	26.781	-0.569673	-3.177682E+7	-1.123876E-9	NaN
303	1.000000	0.514831	7.36803e+06	-53789.1	955.819	-29745.6	0.000000	0.000000	6.514947	0.037192	NaN	0.000000	0.001632	0.001632	28.0813	0.095216	0.001914	49.7495	-28.9786	-168.996	-0.030412	0.513540	-0.560661	-0.561951	0.037192	49.7495	-0.561221	-2.428130E+7	-1.531726E-9	NaN
303	1.000000	0.522829	7.36803e+06	-53789.1	955.818	-29745.6	0.000000	0.000000	6.522943	0.013653	NaN	0.000000	0.001648	0.001628	28.0815	0.088187	0.002038	43.2781	-19.1172	-164.162	0.106617	0.521501	-0.552663	-0.553991	0.013653	43.2781	-0.552900	-1.862564E+7	-7.330209E-10	NaN
303	1.000000	0.530856	7.36803e+06	-53789.1	955.818	-29745.6	0.000000	0.000000	6.530967	-0.057150	NaN	0.000000	0.001648	0.001630	28.0812	0.130657	0.002073	63.0213	-120.576	-165.987	-0.087275	0.529476	-0.544636	-0.546015	-0.057150	63.0213	-0.543956	-1.400252E+7	4.081424E-9	NaN
303	1.000000	0.538848	7.36803e+06	-53789.1	955.819	-29745.6	0.000000	0.000000	6.538960	-0.046014	NaN	0.000000	0.001605	0.001660	28.0813	0.078256	0.002052	38.1401	-165.005	-170.628	0.079142	0.537529	-0.536644	-0.537963	-0.046014	38.1401	-0.535739	-1.077070E+7	4.272101E-9	NaN
303	1.000000	0.546838	7.36803e+06	-53789.1	955.819	-29745.6	0.000000	0.000000	6.546952	0.009980	NaN	0.000000	0.001612	0.001595	28.0813	0.032639	0.001968	16.5873	-85.2021	-168.242	-0.054418	0.545555	-0.528654	-0.529937	0.009980	16.5873	-0.529105	-8.7125e+06	-1.145436E-9	NaN
303	1.000000	0.554870	7.36803e+06	-53789.1	955.819	-29745.6	0.000000	0.000000	6.554980	-0.077769	NaN	0.000000	0.001602	0.001607	28.0811	0.031686	0.002039	15.5419	119.776	-168.423	-0.035755	0.553543	-0.520622	-0.521948	-0.077769	15.5419	-0.516869	-5.88903e+06	1.320579E-8	NaN
303	1.000000	0.562838	7.36803e+06	-53789.1	955.818	-29745.6	0.000000	0.000000	6.562952	0.005408	NaN	0.000000	0.001614	0.001624	28.0812	0.043417	0.002038	21.3008	-159.494	-166.058	0.027260	0.561572	-0.512654	-0.513919	0.005408	21.3008	-0.512845	-5.1764e+06	-1.044740E-9	NaN
303	1.000000	0.570836	7.36803e+06	-53789.1	955.818	-29745.6	0.000000	0.000000	6.570951	0.023922	NaN	0.000000	0.001653	0.001618	28.081	0.019389	0.001967	9.859416	13.3969	-165.242	0.025454	0.569551	-0.504655	-0.505940	0.023922	9.859416	-0.506475	-4.21993e+06	-5.668705E-9	NaN
303	1.000000	0.578864	7.36803e+06	-53789.1	955.818	-29745.6	0.000000	0.000000	6.578975	-0.069945	NaN	0.000000	0.001643	0.001627	28.0812	0.072826	0.002084	34.942	-178.538	-166.079	0.060198	0.577538	-0.496628	-0.497953	-0.069945	34.942	-0.495127	-2.93091e+06	2.386454E-8	NaN
303	1.000000	0.586883	7.36803e+06	-53789.1	955.818	-29745.6	0.000000	0.000000	6.586994	-0.067614	NaN	0.000000	0.001642	0.001601	28.0811	0.074999	0.002037	36.8096	171.694	-164.13	-0.054129	0.585514	-0.488609	-0.489978	-0.067614	36.8096	-0.487231	-2.27347e+06	2.974044E-8	NaN
303	1.000000	0.594857	7.36803e+06	-53789.1	955.819	-29745.6	0.000000	0.000000	6.594971	0.005471	NaN	0.000000	0.001636	0.001587	28.081	0.037406	0.001957	19.1116	76.9323	-163.934	0.073949	0.593579	-0.480635	-0.481913	0.005471	19.1116	-0.480850	-1.85107e+06	-2.955494E-9	NaN
303	1.000000	0.602842	7.36803e+06	-53789.1	955.818	-29745.6	0.000000	0.000000	6.602956	-0.010816	NaN	0.000000	0.001662	0.001594	28.0812	0.041424	0.001898	21.8289	-59.0168	-164.463	-0.075490	0.601568	-0.472649	-0.473924	-0.010816	21.8289	-0.472278	-1.40394e+06	7.704083E-9	NaN
303	1.000000	0.610873	7.36803e+06	-53789.1	955.818	-29745.6	0.000000	0.000000	6.610989	0.050288	NaN	0.000000	0.001660	0.001582	28.0813	0.058097	0.002198	26.4281	-137.45	-167.023	-0.023440	0.609568	-0.464619	-0.465924	0.050288	26.4281	-0.466046	-1.14797e+06	-4.380612E-8	NaN
303	1.000000	0.618873	7.36803e+06	-53789.1	955.819	-29745.6	0.000000	0.000000	6.618987	0.001638	NaN	0.000000	0.001657	0.001584	28.0814	0.013882	0.001945	7.138876	94.314	-166.094	0.003167	0.617521	-0.456618	-0.457971	0.001638	7.138876	-0.456790	-850939	-1.924379E-9	NaN
303	1.000000	0.626886	7.36803e+06	-53789.1	955.818	-29745.6	0.000000	0.000000	6.626999	-0.016078	NaN	0.000000	0.001634	0.001577	28.08	0.086006	0.002165	39.7224	-84.2196	-164.984	-0.055878	0.625566	-0.448606	-0.449926	-0.016078	39.7224	-0.448302	-646293	2.487786E-8	NaN
303	1.000000	0.634889	7.36803e+06	-53789.1	955.819	-29745.6	0.000000	0.000000	6.635000	-0.068613	NaN	0.000000	0.001627	0.001595	28.0803	0.023149	0.001947	11.8923	-149.437	-167.579	-0.118256	0.633615	-0.440603	-0.441877	-0.068613	11.8923	-0.436276	-437298	1.569016E-7	NaN
303	1.000000	0.642886	7.36803e+06	-53789.1	955.819	-29745.6	0.000000	0.000000	6.642998	-0.035052	NaN	0.000000	0.001648	0.001574	28.0803	0.109487	0.001991	54.9853	41.0241	-167.356	-0.018680	0.641587	-0.432606	-0.433904	-0.035052	54.9853	-0.432128	-382084	9.173786E-8	NaN
303	1.000000	0.650865	7.36803e+06	-53789.1	955.819	-29745.6	0.000000	0.000000	6.650976	-0.077095	NaN	0.000000	0.001609	0.001603	28.0801	0.071838	0.002006	35.8185	-1.580765	-166.748	-0.037011	0.649636	-0.424626	-0.425855	-0.077095	35.8185	-0.423012	-283868	2.715862E-7	NaN
303	1.000000	0.658894	7.36803e+06	-53789.1	955.818	-29745.6	0.000000	0.000000	6.659006	-0.056424	NaN	0.000000	0.001609	0.001557	28.0801	0.166731	0.002072	80.4694	68.8736	-168.282	-0.059449	0.657570	-0.416597	-0.417921	-0.056424	80.4694	-0.416072	-226293	2.493405E-7	NaN
303	1.000000	0.666870	7.36803e+06	-53789.1	955.818	-29745.6	0.000000	0.000000	6.666982	-0.038739	NaN	0.000000	0.001602	0.001591	28.0799	0.153632	0.001893	81.1548	133.677	-170.206	-0.066645	0.665612	-0.408622	-0.409880	-0.038739	81.1548	-0.408264	-175269	2.210281E-7	NaN
303	1.000000	0.674916	7.36803e+06	-53789.1	955.819	-29745.6	0.000000	0.000000	6.675030	-0.012353	NaN	0.000000	0.001627	0.001570	28.08	0.045998	0.001948	23.6153	125.465	-165.512	-0.045070	0.673638	-0.400575	-0.401854	-0.012353	23.6153	-0.400183	-134463	9.187040E-8	NaN
303	1.000000	0.682914	7.36803e+06	-53789.1	955.818	-29745.6	0.000000	0.000000	6.683026	-0.039051	NaN	0.000000	0.001649	0.001545	28.0799	0.106886	0.002079	51.4035	-89.4366	-168.853	-0.035972	0.681566	-0.392578	-0.393926	-0.039051	51.4035	-0.392008	-102774	3.799672E-7	NaN
303	1.000000	0.690886	7.36803e+06	-53789.1	955.819	-29745.6	0.000000	0.000000	6.690998	-0.027319	NaN	0.000000	0.001625	0.001591	28.08	0.098393	0.002010	48.9602	-102.312	-166.221	0.039863	0.689563	-0.384606	-0.385929	-0.027319	48.9602	-0.384188	-79423	3.439728E-7	NaN
303	1.000000	0.698882	7.36803e+06	-53789.1	955.818	-29745.6	0.000000	0.000000	6.698996	-0.001710	NaN	0.000000	0.001647	0.001581	28.0802	0.136950	0.001882	72.7583	-121.601	-163.612	0.059701	0.697579	-0.376609	-0.377913	-0.001710	72.7583	-0.376592	-61794.3	2.767172E-8	NaN
303	1.000000	0.706906	7.36803e+06	-53789.1	955.818	-29745.6	0.000000	0.000000	6.707022	0.037509	NaN	0.000000	0.001626	0.001585	28.0799	0.074808	0.002000	37.3968	-165.089	-170.102	0.000719	0.705615	-0.368585	-0.369877	0.037509	37.3968	-0.369338	-48594.7	-7.718674E-7	NaN
303	1.000000	0.714946	7.36803e+06	-53789.1	955.818	-29745.6	0.000000	0.000000	6.715061	0.025518	NaN	0.000000	0.001642	0.001575	28.0801	0.025134	0.002063	12.1814	-121.531	-167.039	3.600790E-5	0.713566	-0.360546	-0.361925	0.025518	12.1814	-0.362117	-38232.5	-6.674323E-7	NaN
303	1.000000	0.722925	7.36803e+06	-53789.1	955.819	-29745.6	0.000000	0.000000	6.723039	0.000542	NaN	0.000000	0.001615	0.001601	28.0803	0.058517	0.002031	28.8173	103.551	-168.058	-0.062536	0.721650	-0.352567	-0.353842	0.000542	28.8173	-0.352581	-27825.3	-1.948167E-8	NaN
303	1.000000	0.730916	7.36803e+06	-53789.1	955.819	-29745.6	0.000000	0.000000	6.731029	-0.020373	NaN	0.000000	0.001646	0.001586	28.0802	0.087698	0.002003	43.7849	-42.6533	-166.595	-0.069225	0.729638	-0.344576	-0.345854	-0.020373	43.7849	-0.344227	-21042.9	9.681445E-7	NaN
303	1.000000	0.738932	7.36803e+06	-53789.1	955.818	-29745.6	0.000000	0.000000	6.739049	0.063897	NaN	0.000000	0.001602	0.001578	28.0801	0.027135	0.001942	13.9721	166.204	-167.927	0.023968	0.737606	-0.336559	-0.337885	0.063897	13.9721	-0.339989	-18255.7	-3.500115E-6	NaN
303	1.000000	0.746956	7.36803e+06	-53789.1	955.818	-29745.6	0.000000	0.000000	6.747075	0.106953	NaN	0.000000	0.001633	0.001605	28.08	0.133478	0.001815	73.5361	25.365	-168.14	0.080800	0.745675	-0.328535	-0.329817	0.106953	73.5361	-0.329626	-12881.8	-8.302656E-6	NaN
303	1.000000	0.754919	7.36803e+06	-53789.1	955.817	-29745.6	0.000000	0.000000	6.755034	0.020668	NaN	0.000000	0.001671	0.001557	28.0802	0.075214	0.002040	36.8687	15.0815	-161.404	0.007353	0.753573	-0.320572	-0.321918	0.020668	36.8687	-0.320993	-9621.62	-2.148101E-6	NaN
303	1.000000	0.762952	7.36803e+06	-53789.1	955.818	-29745.6	0.000000	0.000000	6.763068	0.044342	NaN	0.000000	0.001646	0.001678	28.0814	0.024396	0.002033	12.0008	-150.12	-169.122	0.066663	0.761624	-0.312540	-0.313867	0.044342	12.0008	-0.315311	-7934.86	-5.588235E-6	NaN
303	1.000000	0.770970	7.36803e+06	-53789.1	955.818	-29745.6	0.000000	0.000000	6.771082	-0.047137	NaN	0.000000	0.001666	0.001649	28.0815	0.057284	0.001873	30.5806	33.6842	-166.227	-0.018632	0.769649	-0.304521	-0.305843	-0.047137	30.5806	-0.303365	-5280.6	8.926428E-6	NaN
303	1.000000	0.778938	7.36803e+06	-53789.1	955.818	-29745.6	0.000000	0.000000	6.779052	0.014571	NaN	0.000000	0.001614	0.001664	28.0812	0.035624	0.001961	18.1668	-106.02	-164.587	0.078245	0.777611	-0.296554	-0.297880	0.014571	18.1668	-0.297155	-4268.27	-3.413703E-6	NaN
303	1.000000	0.786947	7.36803e+06	-53789.1	955.818	-29745.6	0.000000	0.000000	6.787057	-0.095314	NaN	0.000000	0.001608	0.001638	28.0814	0.101203	0.002072	48.8365	-174.199	-168.364	-0.103302	0.785596	-0.288545	-0.289896	-0.095314	48.8365	-0.287081	-3016.69	3.159545E-5	NaN
303	1.000000	0.794953	7.36803e+06	-53789.1	955.818	-29745.6	0.000000	0.000000	6.795066	-0.010063	NaN	0.000000	0.001651	0.001630	28.0814	0.051712	0.002031	25.4591	108.915	-167.807	-0.008646	0.793644	-0.280539	-0.281847	-0.010063	25.4591	-0.280243	-2380.28	4.227625E-6	NaN
303	1.000000	0.802957	7.36803e+06	-53789.1	955.819	-29745.6	0.000000	0.000000	6.803074	0.082970	NaN	0.000000	0.001634	0.001625	28.0813	0.023472	0.001971	11.9087	-99.0486	-170.308	0.110554	0.801633	-0.272535	-0.273859	0.082970	11.9087	-0.277761	-2183.52	-3.799830E-5	NaN
303	1.000000	0.810959	7.36803e+06	-53789.1	955.818	-29745.6	0.000000	0.000000	6.811073	0.000541	NaN	0.000000	0.001610	0.001632	28.0815	0.028771	0.002051	14.0285	-97.9766	-166.679	0.033594	0.809618	-0.264533	-0.265874	0.000541	14.0285	-0.264562	-1376.26	-3.931846E-7	NaN
303	1.000000	0.818943	7.36803e+06	-53789.1	955.818	-29745.6	0.000000	0.000000	6.819058	0.022034	NaN	0.000000	0.001660	0.001669	28.0813	0.073280	0.001996	36.722	-47.4895	-168.563	0.016577	0.817586	-0.256549	-0.257906	0.022034	36.722	-0.256999	-1054.05	-2.090449E-5	NaN
303	1.000000	0.826946	7.36803e+06	-53789.1	955.818	-29745.6	0.000000	0.000000	6.827060	0.003766	NaN	0.000000	0.001654	0.001644	28.0814	0.084303	0.001920	43.8976	78.3342	-163.767	-0.089758	0.825659	-0.248546	-0.249833	0.003766	43.8976	-0.248610	-782.458	-4.812469E-6	NaN
303	1.000000	0.834972	7.36803e+06	-53789.1	955.819	-29745.6	0.000000	0.000000	6.835085	-0.027456	NaN	0.000000	0.001655	0.001645	28.0812	0.064432	0.002066	31.1906	33.4419	-164.331	-0.013149	0.833643	-0.240520	-0.241849	-0.027456	31.1906	-0.239860	-571.954	4.800332E-5	NaN
303	1.000000	0.842970	7.36803e+06	-53789.1	955.819	-29745.6	0.000000	0.000000	6.843083	-0.028826	NaN	0.000000	0.001649	0.001660	28.0813	0.043265	0.001892	22.8629	-37.0917	-167.906	0.048583	0.841637	-0.232521	-0.233854	-0.028826	22.8629	-0.231576	-424.01	6.798397E-5	NaN
303	1.000000	0.850967	7.36803e+06	-53789.1	955.819	-29745.6	0.000000	0.000000	6.851079	-0.040050	NaN	0.000000	0.001600	0.001625	28.0815	0.082706	0.001893	43.6955	18.9712	-160.048	-0.009226	0.849685	-0.224525	-0.225807	-0.040050	43.6955	-0.223838	-319.787	0.000125	NaN
303	1.000000	0.858952	7.36803e+06	-53789.1	955.819	-29745.6	0.000000	0.000000	6.859064	-0.057342	NaN	0.000000	0.001616	0.001663	28.0815	0.065363	0.002118	30.8646	-150.576	-166.198	-0.105400	0.857692	-0.216540	-0.217800	-0.057342	30.8646	-0.215146	-232.202	0.000247	NaN
303	1.000000	0.866959	7.36803e+06	-53789.1	955.819	-29745.6	0.000000	0.000000	6.867073	-0.005839	NaN	0.000000	0.001622	0.001684	28.0817	0.041493	0.001987	20.8842	74.7298	-164.86	-0.077279	0.865631	-0.208533	-0.209861	-0.005839	20.8842	-0.208323	-180.149	3.241056E-5	NaN
303	1.000000	0.875005	7.36803e+06	-53789.1	955.82	-29745.6	0.000000	0.000000	6.875118	-0.040963	NaN	0.000000	0.001632	0.001660	28.0812	0.048369	0.002057	23.5173	121.784	-167.057	-0.050353	0.873641	-0.200486	-0.201851	-0.040963	23.5173	-0.199180	-127.707	0.000321	NaN
303	1.000000	0.882984	7.36803e+06	-53789.1	955.819	-29745.6	0.000000	0.000000	6.883100	0.031135	NaN	0.000000	0.001609	0.001685	28.0814	0.101555	0.002091	48.5781	159.154	-166.841	-0.000481	0.881691	-0.192507	-0.193800	0.031135	48.5781	-0.192988	-100.882	-0.000309	NaN
303	1.000000	0.890987	7.36803e+06	-53789.1	955.818	-29745.6	0.000000	0.000000	6.891098	-0.080759	NaN	0.000000	0.001627	0.001652	28.0814	0.144785	0.002018	71.7463	0.618724	-168.179	-0.015770	0.889716	-0.184505	-0.185776	-0.080759	71.7463	-0.183661	-70.3931	0.001147	NaN
303	1.000000	0.899000	7.36803e+06	-53789.1	955.818	-29745.6	0.000000	0.000000	6.899113	-0.016478	NaN	0.000000	0.001582	0.001638	28.0802	0.065876	0.001896	34.7534	166.16	-167.518	0.029931	0.897672	-0.176492	-0.177820	-0.016478	34.7534	-0.176136	-52.4183	0.000314	NaN
303	1.000000	0.907012	7.36803e+06	-53789.1	955.819	-29745.6	0.000000	0.000000	6.907128	0.042344	NaN	0.000000	0.001620	0.001666	28.0805	0.070023	0.001889	37.0665	155.385	-169.038	0.001045	0.905708	-0.168479	-0.169784	0.042344	37.0665	-0.169336	-40.0015	-0.001059	NaN
303	1.000000	0.914986	7.36803e+06	-53789.1	955.819	-29745.6	0.000000	0.000000	6.915097	-0.077585	NaN	0.000000	0.001621	0.001632	28.0803	0.064246	0.001961	32.7538	-5.361998	-172.488	0.024754	0.913706	-0.160505	-0.161786	-0.077585	32.7538	-0.158729	-26.0233	0.002981	NaN
303	1.000000	0.922952	7.36803e+06	-53789.1	955.819	-29745.6	0.000000	0.000000	6.923066	0.001090	NaN	0.000000	0.001652	0.001643	28.0808	0.077420	0.002030	38.1338	88.0841	-163.901	0.056220	0.921707	-0.152540	-0.153784	0.001090	38.1338	-0.152561	-20.1628	-5.406952E-5	NaN
303	1.000000	0.931006	7.36803e+06	-53789.1	955.818	-29745.6	0.000000	0.000000	6.931121	0.034049	NaN	0.000000	0.001636	0.001660	28.0801	0.097690	0.002101	46.503	26.4213	-168.088	0.022525	0.929691	-0.144486	-0.145800	0.034049	46.503	-0.145035	-14.6831	-0.002319	NaN
303	1.000000	0.939023	7.36803e+06	-53789.1	955.818	-29745.6	0.000000	0.000000	6.939139	0.045541	NaN	0.000000	0.001634	0.001672	28.0802	0.062988	0.001972	31.9395	55.6109	-168.24	0.042716	0.937654	-0.136468	-0.137838	0.045541	31.9395	-0.137538	-10.63	-0.004284	NaN
303	1.000000	0.946977	7.36803e+06	-53789.1	955.82	-29745.6	0.000000	0.000000	6.947092	0.016944	NaN	0.000000	0.001588	0.001646	28.0801	0.022724	0.001908	11.9083	-47.6091	-167.588	-0.033887	0.945661	-0.128514	-0.129830	0.016944	11.9083	-0.129581	-7.479561	-0.002265	NaN
303	1.000000	0.954999	7.36803e+06	-53789.1	955.818	-29745.6	0.000000	0.000000	6.955113	-0.005934	NaN	0.000000	0.001633	0.001653	28.0801	0.029563	0.002032	14.5455	52.7238	-166.885	-0.071724	0.953715	-0.120493	-0.121776	-0.005934	14.5455	-0.120187	-4.873631	0.001218	NaN
303	1.000000	0.963033	7.36803e+06	-53789.1	955.819	-29745.6	0.000000	0.000000	6.963143	-0.083274	NaN	0.000000	0.001680	0.001659	28.0806	0.022382	0.002060	10.863	39.5836	-167.322	-0.112538	0.961695	-0.112459	-0.113797	-0.083274	10.863	-0.106709	-2.558249	0.032551	NaN
303	1.000000	0.971006	7.36803e+06	-53789.1	955.819	-29745.6	0.000000	0.000000	6.971120	0.003124	NaN	0.000000	0.001656	0.001665	28.0803	0.143877	0.001906	75.4713	150.051	-167.757	-0.074248	0.969694	-0.104486	-0.105798	0.003124	75.4713	-0.104517	-2.294672	-0.001362	NaN
303	1.000000	0.979033	7.36803e+06	-53789.1	955.82	-29745.6	0.000000	0.000000	6.979146	-0.015984	NaN	0.000000	0.001653	0.001636	28.0802	0.096408	0.001813	53.174	26.334	-163.536	-0.074181	0.977709	-0.096459	-0.097783	-0.015984	53.174	-0.096233	-1.504592	0.010623	NaN
303	1.000000	0.987020	7.36803e+06	-53789.1	955.82	-29745.6	0.000000	0.000000	6.987135	0.007851	NaN	0.000000	0.001684	0.001610	28.0802	0.045542	0.002087	21.8192	-63.5194	-169.362	-0.001150	0.985793	-0.088471	-0.089698	0.007851	21.8192	-0.088741	-1.009646	-0.007776	NaN
303	1.000000	0.995019	7.36803e+06	-53789.1	955.82	-29745.6	0.000000	0.000000	6.995135	0.067761	NaN	0.000000	0.001654	0.001644	28.0801	0.150178	0.002034	73.8393	77.3592	-168.141	0.061065	0.993707	-0.080473	-0.081785	0.067761	73.8393	-0.081161	-0.661624	-0.102416	NaN
303	1.000000	1.003022	7.36803e+06	-53789.1	955.819	-29745.6	0.000000	0.000000	7.003136	-0.003311	NaN	0.000000	0.001622	0.001653	28.0804	0.013030	0.002079	6.268667	156.719	-163.276	-0.021745	1.001745	-0.072470	-0.073747	-0.003311	6.268667	-0.072073	-0.387287	0.008549	NaN
303	1.000000	1.011046	7.36803e+06	-53789.1	955.819	-29745.6	0.000000	0.000000	7.011155	-0.130752	NaN	0.000000	0.001694	0.001648	28.0802	0.070523	0.002138	32.9882	-70.4119	-168.971	-0.051833	1.009733	-0.064445	-0.065759	-0.130752	32.9882	-0.061473	-0.198399	0.659038	NaN
303	1.000000	1.019035	7.36803e+06	-53789.1	955.818	-29745.6	0.000000	0.000000	7.019150	0.014157	NaN	0.000000	0.001649	0.001663	28.0802	0.102584	0.002058	49.843	137.611	-166.366	-0.093381	1.017733	-0.056456	-0.057758	0.014157	49.843	-0.056669	-0.144195	-0.098179	NaN
303	1.000000	1.027009	7.36803e+06	-53789.1	955.819	-29745.6	0.000000	0.000000	7.027122	-0.001780	NaN	0.000000	0.001707	0.001693	28.08	0.044127	0.002019	21.8591	94.8945	-168.761	-0.006121	1.025739	-0.048483	-0.049753	-0.001780	21.8591	-0.048422	-0.081731	0.021780	NaN
303	1.000000	1.035025	7.36803e+06	-53789.1	955.819	-29745.6	0.000000	0.000000	7.035140	0.023450	NaN	0.000000	0.001640	0.001665	28.0812	0.052380	0.001972	26.5581	15.2712	-169.596	-0.048528	1.033725	-0.040467	-0.041767	0.023450	26.5581	-0.041129	-0.048945	-0.479109	NaN
303	1.000000	1.043068	7.36803e+06	-53789.1	955.819	-29745.6	0.000000	0.000000	7.043179	-0.069452	NaN	0.000000	0.001681	0.001650	28.0815	0.004152	0.002081	1.995380	-61.0265	-166.422	-0.145598	1.041762	-0.032424	-0.033730	-0.069452	1.995380	-0.006319	-0.004231	16.4162	NaN
303	1.000000	1.051017	7.36803e+06	-53789.1	955.819	-29745.6	0.000000	0.000000	7.051130	-0.018175	NaN	0.000000	0.001617	0.001671	28.0815	0.099946	0.002081	48.0263	153.609	-166.064	-0.016224	1.049746	-0.024474	-0.025746	-0.018175	48.0263	-0.024191	-0.016072	1.130832	NaN
303	1.000000	1.059051	7.36803e+06	-53789.1	955.818	-29745.6	0.000000	0.000000	7.059164	-0.029313	NaN	0.000000	0.001589	0.001653	28.0819	0.069066	0.001939	35.6273	-108.65	-167.753	-0.053964	1.057776	-0.016441	-0.017716	-0.029313	35.6273	-0.015824	-0.009775	2.998869	NaN
303	1.000000	1.067036	7.36803e+06	-53789.1	955.818	-29745.6	0.000000	0.000000	7.067151	0.045067	NaN	0.000000	0.001570	0.001599	28.0815	0.050266	0.002153	23.3476	-41.0721	-166.443	0.070723	1.065768	-0.008456	-0.009724	0.045067	23.3476	-0.009904	-0.006332	-7.116952	NaN
303	1.000000	1.075093	7.36803e+06	-53789.1	955.819	-29745.6	0.000000	0.000000	7.075206	-0.009984	NaN	0.000000	0.001597	0.001603	28.0814	0.042713	0.002076	20.5771	90.5992	-166.054	-0.082438	1.073739	-0.000399	-0.001753	-0.009984	20.5771	-3.495018E-5	-2.610096E-5	382.506	NaN
303	1.000000	1.083058	7.36803e+06	-53789.1	955.82	-29745.6	0.000000	0.000000	7.083421	6.051878	NaN	0.000000	0.001618	0.001633	28.0815	6.247937	0.001820	3432.58	21.6481	-174.207	5.607454	1.081727	0.007566	0.006236	6.051878	3432.58	0.006244	0.005297	1142.42	43088.6
303	2.000000	1.087639	7.36803e+06	-53789.1	955.819	-29745.6	0.000000	0.000000	7.088117	8.837513	NaN	0.000000	0.001610	0.001606	28.0813	9.854531	0.001611	6116.93	9.231724	-177.659	8.089888	1.087312	0.012148	0.011820	8.837513	6116.93	0.011064	0.010388	850.718	54832.1
303	2.000000	1.089671	7.36803e+06	-53789.1	955.819	-29745.6	0.000000	0.000000	7.090229	10.7879	NaN	0.000000	0.001633	0.001640	28.0818	12.2109	0.001777	6871.73	9.458492	-176.423	10.7724	1.089253	0.014180	0.013761	10.7879	6871.73	0.013002	0.012713	848.583	55682.3
303	2.000000	1.091656	7.36803e+06	-53789.1	955.821	-29745.6	0.000000	0.000000	7.092290	12.6491	NaN	0.000000	0.001627	0.001637	28.0813	13.5034	0.001901	7102.82	12.9773	-176.322	13.3613	1.091224	0.016164	0.015732	12.6491	7102.82	0.014829	0.015058	840.036	52883.9
303	2.000000	1.093633	7.36803e+06	-53789.1	955.82	-29745.6	0.000000	0.000000	7.094413	16.1892	NaN	0.000000	0.001631	0.001641	28.0815	15.7197	0.001756	8952.21	13.6118	-178.257	18.0947	1.093250	0.018142	0.017758	16.1892	8952.21	0.016785	0.017740	912.559	61407.6
303	2.000000	1.095615	7.36803e+06	-53789.1	955.82	-29745.6	0.000000	0.000000	7.096498	18.6996	NaN	0.000000	0.001613	0.001642	28.0813	18.1907	0.001821	9991.04	6.482656	-175.586	19.0618	1.095315	0.020124	0.019823	18.6996	9991.04	0.018720	0.020571	909.046	63644.4
303	2.000000	1.097605	7.36803e+06	-53789.1	955.819	-29745.6	0.000000	0.000000	7.098531	19.7406	NaN	0.000000	0.001646	0.001630	28.0814	19.2452	0.001769	10878.4	5.806347	-176.468	19.9453	1.097329	0.022113	0.021838	19.7406	10878.4	0.020752	0.023738	831.589	64507.8
303	2.000000	1.099589	7.36803e+06	-53789.1	955.82	-29745.6	0.000000	0.000000	7.100694	24.0891	NaN	0.000000	0.001704	0.001632	28.0818	21.5589	0.001835	11749.5	7.187331	-178.48	24.5739	1.099291	0.024098	0.023799	24.0891	11749.5	0.022560	0.026726	901.341	65663.9
303	2.000000	1.101599	7.36803e+06	-53789.1	955.819	-29745.6	0.000000	0.000000	7.102868	28.0854	NaN	0.000000	0.001640	0.001625	28.0814	23.8129	0.001824	13055.7	6.950743	-179.481	26.9316	1.101291	0.026107	0.025800	28.0854	13055.7	0.024494	0.030101	933.027	68751.4
303	2.000000	1.103560	7.36803e+06	-53789.1	955.819	-29745.6	0.000000	0.000000	7.105039	33.1824	NaN	0.000000	0.001668	0.001637	28.0816	26.5175	0.001798	14751.1	9.440964	177.67	32.8379	1.103226	0.028069	0.027735	33.1824	14751.1	0.026381	0.033577	988.255	73549.1
303	2.000000	1.105506	7.36803e+06	-53789.1	955.82	-29745.6	0.000000	0.000000	7.107231	39.1724	NaN	0.000000	0.001693	0.001656	28.0813	28.6992	0.001810	15858.2	5.768814	178.913	36.4662	1.105239	0.030014	0.029748	39.1724	15858.2	0.028162	0.037020	1058.15	75302.9
303	2.000000	1.107532	7.36804e+06	-53789.1	955.821	-29745.6	0.000000	0.000000	7.109367	41.8416	NaN	0.000000	0.001666	0.001646	28.08	29.496	0.001836	16061	7.372695	177.979	40.1935	1.107218	0.032040	0.031726	41.8416	16061	0.030086	0.040923	1022.46	72538
303	2.000000	1.109541	7.36804e+06	-53789.1	955.82	-29745.6	0.000000	0.000000	7.111484	44.4787	NaN	0.000000	0.001678	0.001640	28.0808	31.941	0.001788	17859.5	8.621983	175.378	45.3821	1.109247	0.034049	0.033755	44.4787	17859.5	0.032181	0.045386	980.001	76591.6
303	2.000000	1.111516	7.36804e+06	-53789.1	955.819	-29745.6	0.000000	0.000000	7.113715	50.6889	NaN	0.000000	0.001621	0.001651	28.08	33.6789	0.001819	18518.9	2.522686	-178.403	47.8926	1.111168	0.036024	0.035677	50.6889	18518.9	0.033972	0.049378	1026.54	76141.1
303	2.000000	1.113539	7.36804e+06	-53789.1	955.819	-29745.6	0.000000	0.000000	7.115995	56.9277	NaN	0.000000	0.001651	0.001644	28.0801	35.546	0.001849	19225.8	5.321731	177.865	55.7211	1.113192	0.038047	0.037701	56.9277	19225.8	0.035827	0.053688	1060.33	75808.5
303	2.000000	1.115554	7.36804e+06	-53789.1	955.82	-29745.6	0.000000	0.000000	7.118298	63.9404	NaN	0.000000	0.001645	0.001654	28.0802	37.7587	0.001792	21074.8	4.133820	178.465	63.26	1.115150	0.040062	0.039658	63.9404	21074.8	0.037787	0.058434	1094.23	79653.3
303	2.000000	1.117558	7.36804e+06	-53789.1	955.82	-29745.6	0.000000	0.000000	7.120551	69.9855	NaN	0.000000	0.001630	0.001652	28.0801	39.1239	0.001783	21946.7	8.729326	174.682	72.075	1.117225	0.042067	0.041734	69.9855	21946.7	0.039675	0.063191	1107.52	79765.1
303	2.000000	1.119501	7.36804e+06	-53789.1	955.82	-29745.6	0.000000	0.000000	7.122803	77.4935	NaN	0.000000	0.001614	0.001670	28.0805	40.517	0.001722	23534.4	6.795610	174.882	75.1075	1.119146	0.044010	0.043654	77.4935	23534.4	0.041540	0.068069	1138.45	82414.1
303	2.000000	1.121615	7.36804e+06	-53789.1	955.819	-29745.6	0.000000	0.000000	7.125061	81.0142	NaN	0.000000	0.001646	0.001629	28.0801	43.4115	0.001780	24384.5	7.943672	173.497	84.237	1.121281	0.046123	0.045789	81.0142	24384.5	0.043631	0.073749	1098.51	82036.9
303	2.000000	1.123482	7.36804e+06	-53789.1	955.82	-29745.6	0.000000	0.000000	7.127220	88.1002	NaN	0.000000	0.001693	0.001678	28.0803	44.9276	0.001756	25591.6	6.297429	174.293	86.7448	1.123207	0.047990	0.047715	88.1002	25591.6	0.045408	0.078751	1118.72	83319
303	2.000000	1.125457	7.36804e+06	-53789.1	955.82	-29745.6	0.000000	0.000000	7.129598	97.907	NaN	0.000000	0.001666	0.001675	28.0802	46.8902	0.001680	27907.1	4.699512	174.641	95.0015	1.125170	0.049965	0.049678	97.907	27907.1	0.047334	0.084352	1160.7	87789.2
303	2.000000	1.127528	7.36804e+06	-53789.1	955.82	-29745.6	0.000000	0.000000	7.131734	99.4872	NaN	0.000000	0.001655	0.001664	28.0803	47.9684	0.001750	27407.9	5.401022	174.305	98.0726	1.127229	0.052036	0.051738	99.4872	27407.9	0.049314	0.090304	1101.69	83328.8
303	2.000000	1.129519	7.36804e+06	-53789.1	955.82	-29745.6	0.000000	0.000000	7.134112	108.894	NaN	0.000000	0.001667	0.001656	28.0819	49.9755	0.001787	27964.3	6.191883	174.555	107.721	1.129138	0.054027	0.053647	108.894	27964.3	0.051107	0.095864	1135.92	82517.9
303	2.000000	1.131582	7.36804e+06	-53789.1	955.82	-29745.6	0.000000	0.000000	7.136351	113.178	NaN	0.000000	0.001668	0.001696	28.0801	52.4188	0.001790	29278.9	7.669994	172.902	114.457	1.131144	0.056091	0.055652	113.178	29278.9	0.053191	0.102532	1103.83	83540.7
303	2.000000	1.133549	7.36804e+06	-53789.1	955.82	-29745.6	0.000000	0.000000	7.138517	118.013	NaN	0.000000	0.001670	0.001676	28.0803	53.7818	0.001786	30117.6	5.353171	173.116	118.35	1.133306	0.058057	0.057814	118.013	30117.6	0.055118	0.108887	1083.81	83388.3
303	2.000000	1.135522	7.36804e+06	-53789.1	955.819	-29745.6	0.000000	0.000000	7.140940	128.96	NaN	0.000000	0.001699	0.001707	28.0803	56.0301	0.001768	31691.3	0.796437	178.359	129.94	1.135182	0.060030	0.059690	128.96	31691.3	0.056978	0.115195	1119.49	85309.2
303	2.000000	1.137568	7.36804e+06	-53789.1	955.82	-29745.6	0.000000	0.000000	7.143381	138.572	NaN	0.000000	0.001686	0.001669	28.0802	57.0542	0.001829	31189.7	5.742350	173.948	141.889	1.137168	0.062076	0.061676	138.572	31189.7	0.058744	0.121343	1141.99	81804.6
303	2.000000	1.139481	7.36804e+06	-53789.1	955.819	-29745.6	0.000000	0.000000	7.145593	145.824	NaN	0.000000	0.001678	0.001692	28.0806	60.3834	0.001706	35397	5.495823	172.672	143.428	1.139144	0.063989	0.063652	145.824	35397	0.060900	0.129054	1129.95	90023
303	2.000000	1.141599	7.36804e+06	-53789.1	955.819	-29745.6	0.000000	0.000000	7.147893	150.231	NaN	0.000000	0.001678	0.001667	28.0817	62.8412	0.001724	36444	6.753335	171.911	151.431	1.141130	0.066108	0.065638	150.231	36444	0.063016	0.136845	1097.82	90008.7
303	2.000000	1.143432	7.36804e+06	-53789.1	955.82	-29745.6	0.000000	0.000000	7.150305	164.335	NaN	0.000000	0.001693	0.001719	28.0819	64.074	0.001737	36879.6	5.204918	172.714	160.852	1.143036	0.067940	0.067544	164.335	36879.6	0.064598	0.142812	1150.71	89161.5
303	2.000000	1.145553	7.36804e+06	-53789.1	955.821	-29745.6	0.000000	0.000000	7.152294	161.124	NaN	0.000000	0.001667	0.001692	28.0817	67.1866	0.001822	36868.9	5.577298	172.246	162.09	1.145301	0.070061	0.069810	161.124	36868.9	0.066783	0.151250	1065.28	86613.5
303	2.000000	1.147445	7.36804e+06	-53789.1	955.82	-29745.6	0.000000	0.000000	7.154733	174.423	NaN	0.000000	0.001722	0.001664	28.0815	67.9046	0.001736	39123	3.720660	173.574	171.932	1.147260	0.071953	0.071769	174.423	39123	0.068610	0.158478	1100.62	89788.6
303	2.000000	1.149463	7.36804e+06	-53789.1	955.819	-29745.6	0.000000	0.000000	7.157481	192.167	NaN	0.000000	0.001641	0.001688	28.0816	70.236	0.001829	38403.5	5.499849	172.544	189.214	1.148940	0.073971	0.073449	192.167	38403.5	0.070218	0.164977	1164.81	86383.8
303	2.000000	1.151449	7.36804e+06	-53789.1	955.82	-29745.6	0.000000	0.000000	7.159948	203.869	NaN	0.000000	0.001727	0.001662	28.0813	72.1412	0.001802	40034.3	4.505218	172.342	198.918	1.151136	0.075957	0.075644	203.869	40034.3	0.072138	0.172893	1179.16	87966.5
303	2.000000	1.153442	7.36804e+06	-53789.1	955.821	-29745.6	0.000000	0.000000	7.162240	211.124	NaN	0.000000	0.001694	0.001643	28.0818	72.3619	0.001812	39925.4	3.229812	174.192	206.756	1.153101	0.077950	0.077609	211.124	39925.4	0.073984	0.180672	1168.55	85817.9
303	2.000000	1.155407	7.36804e+06	-53789.1	955.82	-29745.6	0.000000	0.000000	7.164529	218.996	NaN	0.000000	0.001686	0.001717	28.0817	75.1365	0.001819	41305.3	1.791214	175.478	214.123	1.155134	0.079915	0.079642	218.996	41305.3	0.075939	0.189083	1158.2	86786.6
303	2.000000	1.157426	7.36804e+06	-53789.1	955.82	-29745.6	0.000000	0.000000	7.166816	225.503	NaN	0.000000	0.001637	0.001685	28.0815	76.3291	0.001827	41788.2	5.583082	171.536	222.532	1.157255	0.081934	0.081763	225.503	41788.2	0.077887	0.197644	1140.96	85878.6
303	2.000000	1.159344	7.36804e+06	-53789.1	955.82	-29745.6	0.000000	0.000000	7.169532	244.921	NaN	0.000000	0.001615	0.001690	28.0815	78.4718	0.001626	48272.5	1.871069	173.531	237.052	1.159112	0.083853	0.083621	244.921	48272.5	0.080047	0.207344	1181.23	96856.2
303	2.000000	1.161561	7.36804e+06	-53789.1	955.82	-29745.6	0.000000	0.000000	7.172160	254.905	NaN	0.000000	0.001628	0.001668	28.0812	82.3052	0.001863	44189.7	6.042239	171.111	256.243	1.161166	0.086070	0.085675	254.905	44189.7	0.081743	0.215111	1184.99	87048.7
303	2.000000	1.163480	7.36804e+06	-53789.1	955.82	-29745.6	0.000000	0.000000	7.174366	261.902	NaN	0.000000	0.001654	0.001659	28.0821	84.3904	0.001827	46181.6	4.770545	171.4	262.701	1.163121	0.087988	0.087629	261.902	46181.6	0.083735	0.224403	1167.11	89069.3
303	2.000000	1.165439	7.36804e+06	-53789.1	955.819	-29745.6	0.000000	0.000000	7.176502	266.195	NaN	0.000000	0.001619	0.001678	28.0812	86.0318	0.001827	47091.3	2.940330	172.553	261.558	1.165335	0.089947	0.089844	266.195	47091.3	0.085707	0.233788	1138.62	88982.2
303	2.000000	1.167417	7.36804e+06	-53789.1	955.819	-29745.6	0.000000	0.000000	7.179305	286.244	NaN	0.000000	0.001621	0.001658	28.0812	87.4704	0.001901	46004	6.324414	170.34	281.445	1.167055	0.091925	0.091564	286.244	46004	0.087259	0.241294	1186.29	85564.7
303	2.000000	1.169497	7.36804e+06	-53789.1	955.82	-29745.6	0.000000	0.000000	7.181962	300.278	NaN	0.000000	0.001649	0.001645	28.0812	89.1957	0.001792	49781.9	5.865331	169.599	304.248	1.169218	0.094005	0.093727	300.278	49781.9	0.089481	0.252242	1190.44	90559.8
303	2.000000	1.171469	7.36804e+06	-53789.1	955.819	-29745.6	0.000000	0.000000	7.184548	315.199	NaN	0.000000	0.001611	0.001683	28.0813	92.0056	0.001837	50073.3	8.108601	167.659	313.422	1.171169	0.095977	0.095677	315.199	50073.3	0.091256	0.261146	1206.98	89523.6
303	2.000000	1.173493	7.36804e+06	-53789.1	955.82	-29745.6	0.000000	0.000000	7.187079	327.538	NaN	0.000000	0.001606	0.001659	28.0816	92.9642	0.001851	50225	5.040194	170.83	330.66	1.173133	0.098001	0.097641	327.538	50225	0.093110	0.270603	1210.4	88212
303	2.000000	1.175471	7.36804e+06	-53789.1	955.818	-29745.6	0.000000	0.000000	7.189240	331.975	NaN	0.000000	0.001580	0.001649	28.0802	95.5193	0.001871	51042	4.668713	170.406	331.043	1.175270	0.099980	0.099778	331.975	51042	0.095102	0.280936	1181.68	87982.7
303	2.000000	1.177452	7.36804e+06	-53789.1	955.819	-29745.6	0.000000	0.000000	7.192295	358.085	NaN	0.000000	0.001592	0.001695	28.0803	95.3724	0.001714	55637.6	6.956554	168.285	356.364	1.177043	0.101961	0.101552	358.085	55637.6	0.097134	0.291664	1227.73	94123.8
303	2.000000	1.179509	7.36804e+06	-53789.1	955.82	-29745.6	0.000000	0.000000	7.194472	360.991	NaN	0.000000	0.001587	0.001671	28.0801	98.7069	0.001802	54772.1	4.085835	171.096	362.143	1.179223	0.104018	0.103731	360.991	54772.1	0.099075	0.302089	1194.98	91046.8
303	2.000000	1.181456	7.36804e+06	-53789.1	955.82	-29745.6	0.000000	0.000000	7.197486	386.929	NaN	0.000000	0.001595	0.001667	28.0801	100.815	0.001859	54235	5.265013	169.963	384.103	1.181106	0.105965	0.105614	386.929	54235	0.100614	0.310478	1246.24	88927.7
303	2.000000	1.183518	7.36804e+06	-53789.1	955.819	-29745.6	0.000000	0.000000	7.199731	391.41	NaN	0.000000	0.001610	0.001662	28.0804	101.686	0.001713	59361.3	3.955590	170.421	394.724	1.183226	0.108026	0.107735	391.41	59361.3	0.103081	0.324147	1207.51	95259
303	2.000000	1.184991	7.36804e+06	-53789.1	955.819	-29745.6	0.000000	0.000000	7.201823	406.46	NaN	0.000000	0.001595	0.001684	28.0801	104.341	0.001688	61830	4.705384	-10.2193	404.622	1.184557	0.109499	0.109065	406.46	61830	0.104569	0.332523	1222.35	97962.9