File: remote_trans/data/nanoindenter/0828-1/data/Data_2025-08-06,11h17m57s/2025-07-22_16-23-58_1_485.txt
2025-07-22, 16:23:58, 1
Index	Phase	Displacement	Time	Pos X	Pos Y	Pos Z	Rot A	Rot B	Piezo Z	Force A	Force B	Gripper	Voltage A	Voltage B	Temperature	Amplitude force	Amplitude pos	Stiffness	Phase shift	Phase excitation	Force A raw	Displacement raw	HMax	HMax raw	Real Force	Real Stiffness	Contact Depth	Area	Hardness	Reduced Mod.
[#]	[#]	[um]	[s]	[um]	[um]	[um]	[m°]	[m°]	[um]	[uN]	[uN]	[V]	[V]	[V]	[°C]	[uN]	[um]	[N/m]	[°]	[°]	[uN]	[um]	[um]	[um]	[uN]	[N/m]	[um]	[um^2]	[MPa]	[MPa]
485	1.000000	0.002567	7.3698e+06	-52839.1	1005.82	-29748.1	0.000000	0.000000	6.002782	0.026586	NaN	0.000000	0.001530	0.001688	28.0806	0.067530	0.000916	73.6969	113.617	-163.351	-0.013470	0.001291	-1.157943	-1.159219	0.026586	73.6969	-1.158214	-3.026417E+15	-8.784734E-18	NaN
485	1.000000	0.012657	7.3698e+06	-52839.1	1005.82	-29748.1	0.000000	0.000000	6.012872	0.005078	NaN	0.000000	0.001527	0.001681	28.0804	0.066291	0.001181	56.1421	104.629	20.3156	0.004645	0.011193	-1.147853	-1.149317	0.005078	56.1421	-1.147921	-2.202630E+15	-2.305639E-18	NaN
485	1.000000	0.022537	7.3698e+06	-52839.1	1005.82	-29748.1	0.000000	0.000000	6.022751	-0.027683	NaN	0.000000	0.001557	0.001663	28.08	0.113720	0.001758	64.7051	17.1191	-164.071	0.008270	0.021221	-1.137972	-1.139288	-0.027683	64.7051	-1.137652	-1.604146E+15	1.725730E-17	NaN
485	1.000000	0.032533	7.3698e+06	-52839.1	1005.82	-29748.1	0.000000	0.000000	6.032747	-0.011235	NaN	0.000000	0.001568	0.001652	28.08	0.074205	0.001957	37.9105	140.219	10.0689	-0.003958	0.031158	-1.127977	-1.129351	-0.011235	37.9105	-1.127755	-1.181690E+15	9.507941E-18	NaN
485	1.000000	0.042539	7.3698e+06	-52839.1	1005.82	-29748.1	0.000000	0.000000	6.042752	-0.028510	NaN	0.000000	0.001562	0.001595	28.0803	0.043532	0.001994	21.8351	6.568102	-169.747	-0.035874	0.041230	-1.117971	-1.119280	-0.028510	21.8351	-1.116992	-8.474462E+14	3.364263E-17	NaN
485	1.000000	0.052544	7.3698e+06	-52839.1	1005.82	-29748.1	0.000000	0.000000	6.052760	0.024620	NaN	0.000000	0.001504	0.001642	28.0801	0.087443	0.001980	44.1665	-119.236	14.7593	0.076672	0.051162	-1.107965	-1.109348	0.024620	44.1665	-1.108384	-6.495227E+14	-3.790492E-17	NaN
485	1.000000	0.062539	7.3698e+06	-52839.1	1005.82	-29748.1	0.000000	0.000000	6.062754	0.028868	NaN	0.000000	0.001557	0.001654	28.0801	0.081270	0.001980	41.0417	12.4349	-166.846	0.012790	0.061241	-1.097971	-1.099269	0.028868	41.0417	-1.098499	-4.785387E+14	-6.032603E-17	NaN
485	1.000000	0.072543	7.3698e+06	-52839.1	1005.82	-29748.1	0.000000	0.000000	6.072758	0.016213	NaN	0.000000	0.001540	0.001660	28.0803	0.051683	0.002047	25.2424	126.352	15.8174	-0.044811	0.071166	-1.087967	-1.089344	0.016213	25.2424	-1.088448	-3.507318E+14	-4.622523E-17	NaN
485	1.000000	0.082528	7.3698e+06	-52839.1	1005.82	-29748.1	0.000000	0.000000	6.082743	0.023185	NaN	0.000000	0.001542	0.001686	28.0804	0.058582	0.001995	29.3655	-138.31	-167.958	0.049919	0.081289	-1.077982	-1.079221	0.023185	29.3655	-1.078574	-2.584436E+14	-8.971024E-17	NaN
485	1.000000	0.092552	7.3698e+06	-52839.1	1005.82	-29748.1	0.000000	0.000000	6.092764	-0.061071	NaN	0.000000	0.001530	0.001644	28.0802	0.101838	0.001878	54.2179	114.523	16.9552	-0.021686	0.091205	-1.067958	-1.069305	-0.061071	54.2179	-1.067113	-1.813030E+14	3.368473E-16	NaN
485	1.000000	0.102551	7.3698e+06	-52839.1	1005.82	-29748.1	0.000000	0.000000	6.102765	0.007742	NaN	0.000000	0.001535	0.001621	28.0802	0.174011	0.001834	94.869	-156.092	-162.603	0.081209	0.101249	-1.057959	-1.059261	0.007742	94.869	-1.058021	-1.368419E+14	-5.657524E-17	NaN
485	1.000000	0.112549	7.3698e+06	-52839.1	1005.82	-29748.1	0.000000	0.000000	6.112762	-0.028305	NaN	0.000000	0.001496	0.001628	28.0803	0.041252	0.002025	20.3752	-14.4119	15.4911	-0.050713	0.111182	-1.047961	-1.049328	-0.028305	20.3752	-1.046919	-9.704912E+13	2.916607E-16	NaN
485	1.000000	0.122583	7.3698e+06	-52839.1	1005.82	-29748.1	0.000000	0.000000	6.122796	-0.025800	NaN	0.000000	0.001511	0.001628	28.0802	0.074573	0.001854	40.2185	-14.5753	-171.914	-0.041731	0.121231	-1.037927	-1.039279	-0.025800	40.2185	-1.037446	-7.238029E+13	3.564552E-16	NaN
485	1.000000	0.132594	7.3698e+06	-52839.1	1005.82	-29748.1	0.000000	0.000000	6.132809	0.022639	NaN	0.000000	0.001550	0.001620	28.0803	0.064748	0.001983	32.654	-71.5225	12.5679	0.030237	0.131148	-1.027916	-1.029362	0.022639	32.654	-1.028436	-5.475676E+13	-4.134391E-16	NaN
485	1.000000	0.142557	7.3698e+06	-52839.1	1005.82	-29748.1	0.000000	0.000000	6.142771	-0.026671	NaN	0.000000	0.001497	0.001629	28.0814	0.094015	0.001877	50.091	-143.199	-165.395	-0.017158	0.141269	-1.017952	-1.019241	-0.026671	50.091	-1.017553	-3.908662E+13	6.823491E-16	NaN
485	1.000000	0.152573	7.3698e+06	-52839.1	1005.82	-29748.1	0.000000	0.000000	6.152789	0.048724	NaN	0.000000	0.001545	0.001599	28.0817	0.060626	0.002117	28.6395	50.7025	11.746	0.019663	0.151211	-1.007937	-1.009298	0.048724	28.6395	-1.009213	-3.018459E+13	-1.614208E-15	NaN
485	1.000000	0.162595	7.3698e+06	-52839.1	1005.82	-29748.1	0.000000	0.000000	6.162810	0.007751	NaN	0.000000	0.001540	0.001640	28.0813	0.147568	0.001984	74.3943	129.711	-163.943	-0.010751	0.161234	-0.997915	-0.999276	0.007751	74.3943	-0.997993	-2.131809E+13	-3.635776E-16	NaN
485	1.000000	0.172584	7.3698e+06	-52839.1	1005.82	-29748.1	0.000000	0.000000	6.172799	0.009549	NaN	0.000000	0.001514	0.001657	28.0816	0.113851	0.001960	58.0846	-151.881	12.5875	-0.011793	0.171219	-0.987926	-0.989291	0.009549	58.0846	-0.988049	-1.566163E+13	-6.097271E-16	NaN
485	1.000000	0.182597	7.3698e+06	-52839.1	1005.82	-29748.1	0.000000	0.000000	6.182811	-0.016860	NaN	0.000000	0.001580	0.001617	28.0815	0.078263	0.001927	40.6108	76.7487	-168.071	-0.038439	0.181303	-0.977913	-0.979207	-0.016860	40.6108	-0.977601	-1.132640E+13	1.488569E-15	NaN
485	1.000000	0.192584	7.3698e+06	-52839.1	1005.82	-29748.1	0.000000	0.000000	6.192797	-0.025851	NaN	0.000000	0.001557	0.001645	28.0818	0.073772	0.001941	37.9997	-146.121	14.4854	-0.035372	0.191219	-0.967926	-0.969291	-0.025851	37.9997	-0.967416	-8.257173E+12	3.130712E-15	NaN
485	1.000000	0.202583	7.3698e+06	-52839.1	1005.82	-29748.1	0.000000	0.000000	6.202795	-0.062407	NaN	0.000000	0.001497	0.001610	28.0816	0.110432	0.002022	54.6171	-92.8655	-166.056	-0.029548	0.201242	-0.957927	-0.959268	-0.062407	54.6171	-0.957070	-5.989152E+12	1.042001E-14	NaN
485	1.000000	0.212618	7.3698e+06	-52839.1	1005.82	-29748.1	0.000000	0.000000	6.212836	0.090517	NaN	0.000000	0.001535	0.001618	28.0815	0.104748	0.002061	50.821	154.497	10.0793	0.106217	0.211194	-0.947892	-0.949316	0.090517	50.821	-0.949227	-4.694699E+12	-1.928064E-14	NaN
485	1.000000	0.222611	7.3698e+06	-52839.1	1005.82	-29748.1	0.000000	0.000000	6.222825	-0.013968	NaN	0.000000	0.001516	0.001674	28.0818	0.104014	0.002003	51.9258	-136.866	-168.17	0.000273	0.221301	-0.937899	-0.939209	-0.013968	51.9258	-0.937697	-3.281473E+12	4.256750E-15	NaN
485	1.000000	0.232597	7.3698e+06	-52839.1	1005.82	-29748.1	0.000000	0.000000	6.232811	-0.002414	NaN	0.000000	0.001531	0.001608	28.0814	0.052975	0.002062	25.6944	-38.9313	12.2507	-0.061942	0.231261	-0.927913	-0.929248	-0.002414	25.6944	-0.927842	-2.415864E+12	9.991291E-16	NaN
485	1.000000	0.242598	7.3698e+06	-52839.1	1005.82	-29748.1	0.000000	0.000000	6.242812	-0.010321	NaN	0.000000	0.001507	0.001631	28.0815	0.075369	0.002040	36.942	-126.191	-165.532	-0.075824	0.241268	-0.917912	-0.919242	-0.010321	36.942	-0.917702	-1.762715E+12	5.855351E-15	NaN
485	1.000000	0.252615	7.3698e+06	-52839.1	1005.82	-29748.1	0.000000	0.000000	6.252829	-0.010644	NaN	0.000000	0.001535	0.001612	28.0814	0.075340	0.001956	38.5141	-127.885	14.0348	0.014140	0.251257	-0.907895	-0.909253	-0.010644	38.5141	-0.907688	-1.291007E+12	8.244944E-15	NaN
485	1.000000	0.262613	7.3698e+06	-52839.1	1005.82	-29748.1	0.000000	0.000000	6.262828	0.019962	NaN	0.000000	0.001511	0.001620	28.0816	0.033626	0.001964	17.1183	-101.435	-164.972	-0.021505	0.261335	-0.897897	-0.899175	0.019962	17.1183	-0.898772	-9.782982E+11	-2.040463E-14	NaN
485	1.000000	0.272589	7.3698e+06	-52839.1	1005.82	-29748.1	0.000000	0.000000	6.272802	-0.032332	NaN	0.000000	0.001574	0.001633	28.0813	0.077823	0.001964	39.6167	20.9071	12.3104	0.034712	0.271280	-0.887921	-0.889230	-0.032332	39.6167	-0.887309	-6.847553E+11	4.721755E-14	NaN
485	1.000000	0.282624	7.3698e+06	-52839.1	1005.82	-29748.1	0.000000	0.000000	6.282836	-0.058265	NaN	0.000000	0.001557	0.001610	28.0803	0.087984	0.001922	45.7701	125.079	-167.227	-0.031455	0.281330	-0.877886	-0.879180	-0.058265	45.7701	-0.876931	-4.956783E+11	1.175461E-13	NaN
485	1.000000	0.292596	7.3698e+06	-52839.1	1005.82	-29748.1	0.000000	0.000000	6.292813	0.059634	NaN	0.000000	0.001543	0.001654	28.0803	0.064342	0.001986	32.4022	-33.6589	11.3782	0.056170	0.291256	-0.867913	-0.869253	0.059634	32.4022	-0.869294	-3.907409E+11	-1.526177E-13	NaN
485	1.000000	0.302653	7.3698e+06	-52839.1	1005.82	-29748.1	0.000000	0.000000	6.302868	0.024291	NaN	0.000000	0.001545	0.001618	28.0802	0.058899	0.001983	29.7072	-140.219	-161.494	-0.010004	0.301295	-0.857857	-0.859215	0.024291	29.7072	-0.858470	-2.788792E+11	-8.710216E-14	NaN
485	1.000000	0.312660	7.3698e+06	-52839.1	1005.82	-29748.1	0.000000	0.000000	6.312873	-0.017323	NaN	0.000000	0.001545	0.001652	28.0802	0.088863	0.001875	47.3934	-95.9092	13.0925	-0.006506	0.311279	-0.847850	-0.849231	-0.017323	47.3934	-0.847576	-1.985699E+11	8.723965E-14	NaN
485	1.000000	0.322647	7.3698e+06	-52839.1	1005.82	-29748.1	0.000000	0.000000	6.322861	-0.005417	NaN	0.000000	0.001548	0.001664	28.0804	0.132045	0.002015	65.5244	-117.115	-169.688	0.048391	0.321379	-0.837863	-0.839131	-0.005417	65.5244	-0.837801	-1.463871E+11	3.700593E-14	NaN
485	1.000000	0.332666	7.3698e+06	-52839.1	1005.82	-29748.1	0.000000	0.000000	6.332881	0.008952	NaN	0.000000	0.001557	0.001655	28.0805	0.072901	0.001922	37.9309	-38.4373	13.3845	-0.104564	0.331303	-0.827844	-0.829207	0.008952	37.9309	-0.828021	-1.078833E+11	-8.298044E-14	NaN
485	1.000000	0.342636	7.3698e+06	-52839.1	1005.82	-29748.1	0.000000	0.000000	6.342848	-0.045612	NaN	0.000000	0.001538	0.001683	28.0802	0.047999	0.002044	23.4776	-110.747	-166.143	0.021515	0.341350	-0.817874	-0.819160	-0.045612	23.4776	-0.816417	-7.509654E+10	6.073820E-13	NaN
485	1.000000	0.352678	7.3698e+06	-52839.1	1005.82	-29748.1	0.000000	0.000000	6.352892	-0.006078	NaN	0.000000	0.001548	0.001697	28.0803	0.139399	0.001989	70.0698	85.5834	11.7639	0.037277	0.351278	-0.807832	-0.809232	-0.006078	70.0698	-0.807767	-5.731621E+10	1.060415E-13	NaN
485	1.000000	0.362664	7.3698e+06	-52839.1	1005.82	-29748.1	0.000000	0.000000	6.362879	0.019036	NaN	0.000000	0.001530	0.001716	28.0804	0.084096	0.002000	42.0571	90.9739	-162.9	0.006563	0.361350	-0.797846	-0.799160	0.019036	42.0571	-0.798186	-4.248456E+10	-4.480705E-13	NaN
485	1.000000	0.372669	7.3698e+06	-52839.1	1005.82	-29748.1	0.000000	0.000000	6.372883	-0.006370	NaN	0.000000	0.001579	0.001707	28.0804	0.080218	0.001970	40.7238	68.1689	14.7061	-0.001015	0.371337	-0.787840	-0.789173	-0.006370	40.7238	-0.787723	-3.063080E+10	2.079445E-13	NaN
485	1.000000	0.382675	7.3698e+06	-52839.1	1005.82	-29748.1	0.000000	0.000000	6.382889	0.001241	NaN	0.000000	0.001574	0.001698	28.0804	0.064707	0.001899	34.0768	65.3045	-163.827	0.009904	0.381314	-0.777835	-0.779196	0.001241	34.0768	-0.777862	-2.249995E+10	-5.516039E-14	NaN
485	1.000000	0.392693	7.3698e+06	-52839.1	1005.82	-29748.1	0.000000	0.000000	6.392905	-0.042098	NaN	0.000000	0.001494	0.001673	28.0806	0.141123	0.002026	69.6532	-156.423	15.4661	-0.064913	0.391328	-0.767817	-0.769182	-0.042098	69.6532	-0.767364	-1.619793E+10	2.599001E-12	NaN
485	1.000000	0.402684	7.3698e+06	-52839.1	1005.82	-29748.1	0.000000	0.000000	6.402897	-0.039465	NaN	0.000000	0.001561	0.001677	28.0805	0.008237	0.002133	3.861274	174.062	-166.553	-0.105952	0.401384	-0.757826	-0.759126	-0.039465	3.861274	-0.750160	-9.449308E+9	4.176502E-12	NaN
485	1.000000	0.412694	7.3698e+06	-52839.1	1005.82	-29748.1	0.000000	0.000000	6.412908	-0.015347	NaN	0.000000	0.001536	0.001698	28.0821	0.027102	0.002000	13.5531	-53.7493	10.5957	0.048901	0.411389	-0.747816	-0.749121	-0.015347	13.5531	-0.746967	-8.549215E+9	1.795100E-12	NaN
485	1.000000	0.422699	7.3698e+06	-52839.1	1005.82	-29748.1	0.000000	0.000000	6.422914	0.034945	NaN	0.000000	0.001543	0.001684	28.0819	0.078379	0.001871	41.894	-17.5023	-167.756	-0.014113	0.421433	-0.737811	-0.739077	0.034945	41.894	-0.738437	-6.542798E+9	-5.341013E-12	NaN
485	1.000000	0.432722	7.3698e+06	-52839.1	1005.82	-29748.1	0.000000	0.000000	6.432935	-0.045513	NaN	0.000000	0.001557	0.001710	28.0817	0.049939	0.002010	24.8503	149.819	11.5674	0.023956	0.431318	-0.727788	-0.729192	-0.045513	24.8503	-0.726414	-4.486734E+9	1.014391E-11	NaN
485	1.000000	0.442727	7.3698e+06	-52839.1	1005.82	-29748.1	0.000000	0.000000	6.442939	-0.055204	NaN	0.000000	0.001510	0.001666	28.0818	0.047697	0.001997	23.8861	-18.5901	-166.189	-0.084603	0.441429	-0.717783	-0.719081	-0.055204	23.8861	-0.716050	-3.240377E+9	1.703617E-11	NaN
485	1.000000	0.452702	7.3698e+06	-52839.1	1005.82	-29748.1	0.000000	0.000000	6.452916	0.002724	NaN	0.000000	0.001534	0.001652	28.0816	0.080303	0.002088	38.4603	121.637	14.046	0.067295	0.451350	-0.707808	-0.709160	0.002724	38.4603	-0.707861	-2.505291E+9	-1.087209E-12	NaN
485	1.000000	0.462690	7.3698e+06	-52839.1	1005.82	-29748.1	0.000000	0.000000	6.462903	-0.032156	NaN	0.000000	0.001527	0.001697	28.0817	0.112348	0.002083	53.947	19.2906	-164.4	-0.018839	0.461418	-0.697820	-0.699092	-0.032156	53.947	-0.697373	-1.801554E+9	1.784882E-11	NaN
485	1.000000	0.472678	7.3698e+06	-52839.1	1005.82	-29748.1	0.000000	0.000000	6.472893	-0.000265	NaN	0.000000	0.001536	0.001690	28.0813	0.103455	0.001986	52.0849	143.489	13.7309	0.076241	0.471378	-0.687832	-0.689132	-0.000265	52.0849	-0.687828	-1.334228E+9	1.988666E-13	NaN
485	1.000000	0.482730	7.3698e+06	-52839.1	1005.82	-29748.1	0.000000	0.000000	6.482945	0.027798	NaN	0.000000	0.001549	0.001689	28.0816	0.046280	0.001807	25.6051	147.34	-169.344	-0.007105	0.481381	-0.677780	-0.679129	0.027798	25.6051	-0.678594	-9.976493E+8	-2.786305E-11	NaN
485	1.000000	0.492723	7.3698e+06	-52839.1	1005.82	-29748.1	0.000000	0.000000	6.492936	-0.035597	NaN	0.000000	0.001575	0.001722	28.0817	0.019502	0.001917	10.1744	3.976439	12.6701	-0.045126	0.491389	-0.667786	-0.669120	-0.035597	10.1744	-0.665162	-6.533807E+8	5.448191E-11	NaN
485	1.000000	0.502734	7.3698e+06	-52839.1	1005.82	-29748.1	0.000000	0.000000	6.502948	-0.007731	NaN	0.000000	0.001546	0.001700	28.0816	0.023788	0.001986	11.9767	103.379	-166.329	0.020021	0.501446	-0.657776	-0.659064	-0.007731	11.9767	-0.657292	-5.097630E+8	1.516632E-11	NaN
485	1.000000	0.512710	7.3698e+06	-52839.1	1005.82	-29748.1	0.000000	0.000000	6.512922	-0.038419	NaN	0.000000	0.001560	0.001745	28.0817	0.166278	0.002192	75.8532	-87.2132	11.2113	-0.055115	0.511297	-0.647800	-0.649213	-0.038419	75.8532	-0.647420	-3.733098E+8	1.029151E-10	NaN
485	1.000000	0.522760	7.3698e+06	-52839.1	1005.82	-29748.1	0.000000	0.000000	6.522973	-0.027189	NaN	0.000000	0.001543	0.001766	28.0816	0.068762	0.001910	35.9963	-154.325	-166.393	0.061203	0.521381	-0.637750	-0.639129	-0.027189	35.9963	-0.637184	-2.701727E+8	1.006361E-10	NaN
485	1.000000	0.532746	7.3698e+06	-52839.1	1005.82	-29748.1	0.000000	0.000000	6.532960	0.001119	NaN	0.000000	0.001538	0.001705	28.0817	0.035744	0.002092	17.0863	-163.043	17.8404	0.038951	0.531357	-0.627764	-0.629153	0.001119	17.0863	-0.627813	-2.009052E+8	-5.567614E-12	NaN
485	1.000000	0.542725	7.3698e+06	-52839.1	1005.82	-29748.1	0.000000	0.000000	6.542942	0.063693	NaN	0.000000	0.001496	0.001740	28.0813	0.093573	0.002143	43.6649	-110.645	-166.156	0.027028	0.541420	-0.617785	-0.619090	0.063693	43.6649	-0.618879	-1.514338E+8	-4.206006E-10	NaN
485	1.000000	0.552730	7.3698e+06	-52839.1	1005.82	-29748.1	0.000000	0.000000	6.552948	0.092286	NaN	0.000000	0.001494	0.001719	28.0805	0.108960	0.002070	52.6399	120.181	13.6913	0.062582	0.551407	-0.607779	-0.609102	0.092286	52.6399	-0.609094	-1.110845E+8	-8.307737E-10	NaN
485	1.000000	0.562755	7.3698e+06	-52839.1	1005.82	-29748.1	0.000000	0.000000	6.562969	-0.026608	NaN	0.000000	0.001536	0.001688	28.0802	0.024315	0.002132	11.4025	95.7958	-166.801	0.045633	0.561413	-0.597754	-0.599097	-0.026608	11.4025	-0.596004	-7.335317E+7	3.627372E-10	NaN
485	1.000000	0.572729	7.3698e+06	-52839.1	1005.82	-29748.1	0.000000	0.000000	6.572940	-0.080015	NaN	0.000000	0.001556	0.001726	28.0802	0.072829	0.001929	37.7567	161.725	13.5796	-0.021103	0.571420	-0.587781	-0.589090	-0.080015	37.7567	-0.586192	-5.372230E+7	1.489427E-9	NaN
485	1.000000	0.582771	7.3698e+06	-52839.1	1005.82	-29748.1	0.000000	0.000000	6.582990	0.101323	NaN	0.000000	0.001538	0.001726	28.0802	0.067398	0.001968	34.2443	104.385	-166.001	0.097308	0.581437	-0.577739	-0.579073	0.101323	34.2443	-0.579958	-4.406981E+7	-2.299142E-9	NaN
485	1.000000	0.592791	7.3698e+06	-52839.1	1005.82	-29748.1	0.000000	0.000000	6.593006	0.018803	NaN	0.000000	0.001529	0.001754	28.0803	0.099784	0.001984	50.2928	5.461911	13.4609	0.023837	0.591412	-0.567719	-0.569098	0.018803	50.2928	-0.567999	-3.012910E+7	-6.240863E-10	NaN
485	1.000000	0.602756	7.3698e+06	-52839.1	1005.82	-29748.1	0.000000	0.000000	6.602970	-0.010161	NaN	0.000000	0.001542	0.001763	28.0804	0.032871	0.002031	16.188	-27.0809	-166.643	0.028057	0.601460	-0.557754	-0.559050	-0.010161	16.188	-0.557283	-2.141864E+7	4.744222E-10	NaN
485	1.000000	0.612791	7.3698e+06	-52839.1	1005.82	-29748.1	0.000000	0.000000	6.613005	-0.012149	NaN	0.000000	0.001533	0.001755	28.0803	0.067360	0.002079	32.401	-107.855	12.7122	0.049345	0.611421	-0.547718	-0.549089	-0.012149	32.401	-0.547437	-1.564778E+7	7.764289E-10	NaN
485	1.000000	0.622777	7.3698e+06	-52839.1	1005.82	-29748.1	0.000000	0.000000	6.622990	-0.028176	NaN	0.000000	0.001514	0.001731	28.0805	0.019541	0.002135	9.154869	-131.866	-165.316	-0.006019	0.621492	-0.537733	-0.539018	-0.028176	9.154869	-0.535425	-1.066310E+7	2.642388E-9	NaN
485	1.000000	0.632793	7.3698e+06	-52839.1	1005.82	-29748.1	0.000000	0.000000	6.633008	0.015037	NaN	0.000000	0.001568	0.001707	28.0802	0.009458	0.002065	4.579031	-129.442	14.1684	0.083500	0.631390	-0.527717	-0.529120	0.015037	4.579031	-0.530180	-9.01718e+06	-1.667549E-9	NaN
485	1.000000	0.642804	7.3698e+06	-52839.1	1005.82	-29748.1	0.000000	0.000000	6.643017	-0.039311	NaN	0.000000	0.001548	0.001741	28.0802	0.108540	0.001968	55.1516	-126.12	-160.936	-0.009235	0.641485	-0.517706	-0.519025	-0.039311	55.1516	-0.517171	-5.9463e+06	6.610998E-9	NaN
485	1.000000	0.652777	7.3698e+06	-52839.1	1005.82	-29748.1	0.000000	0.000000	6.652990	-0.025507	NaN	0.000000	0.001513	0.001710	28.0803	0.070887	0.001990	35.623	124.501	15.422	0.025267	0.651399	-0.507733	-0.509111	-0.025507	35.623	-0.507196	-4.31872e+06	5.906134E-9	NaN
485	1.000000	0.662794	7.3698e+06	-52839.1	1005.82	-29748.1	0.000000	0.000000	6.663007	-0.022304	NaN	0.000000	0.001495	0.001719	28.0804	0.054239	0.001925	28.1778	69.4715	-167.049	-0.010351	0.661490	-0.497716	-0.499019	-0.022304	28.1778	-0.497122	-3.12509e+06	7.137037E-9	NaN
485	1.000000	0.672805	7.3698e+06	-52839.1	1005.82	-29748.1	0.000000	0.000000	6.673023	0.075618	NaN	0.000000	0.001544	0.001732	28.0803	0.127086	0.002040	62.3011	89.9907	15.2638	0.120424	0.671462	-0.487705	-0.489048	0.075618	62.3011	-0.488615	-2.37705e+06	-3.181192E-8	NaN
485	1.000000	0.682800	7.3698e+06	-52839.1	1005.82	-29748.1	0.000000	0.000000	6.683015	0.023520	NaN	0.000000	0.001574	0.001708	28.0807	0.074707	0.001971	37.9075	-170.511	-169.501	0.007549	0.681481	-0.477710	-0.479028	0.023520	37.9075	-0.478175	-1.69817e+06	-1.385010E-8	NaN
485	1.000000	0.692786	7.3698e+06	-52839.1	1005.82	-29748.1	0.000000	0.000000	6.692999	-0.017300	NaN	0.000000	0.001554	0.001741	28.0818	0.074583	0.001833	40.6839	-78.9205	14.0344	0.025838	0.691459	-0.467724	-0.469051	-0.017300	40.6839	-0.467405	-1.19951e+06	1.442244E-8	NaN
485	1.000000	0.702787	7.3698e+06	-52839.1	1005.82	-29748.1	0.000000	0.000000	6.703000	-0.029684	NaN	0.000000	0.001594	0.001689	28.0816	0.112247	0.001925	58.3195	-118.391	-168.499	-0.083250	0.701508	-0.457723	-0.459002	-0.029684	58.3195	-0.457341	-866247	3.426700E-8	NaN
485	1.000000	0.712812	7.3698e+06	-52839.1	1005.82	-29748.1	0.000000	0.000000	6.713022	-0.106915	NaN	0.000000	0.001573	0.001717	28.0816	0.132695	0.002013	65.9243	82.3195	15.686	-0.056198	0.711427	-0.447698	-0.449083	-0.106915	65.9243	-0.446482	-609226	1.754929E-7	NaN
485	1.000000	0.722786	7.3698e+06	-52839.1	1005.82	-29748.1	0.000000	0.000000	6.722998	-0.038997	NaN	0.000000	0.001618	0.001749	28.0816	0.120177	0.001949	61.6715	156.064	-166.924	-0.045206	0.721513	-0.437724	-0.438997	-0.038997	61.6715	-0.437250	-451376	8.639635E-8	NaN
485	1.000000	0.732860	7.3698e+06	-52839.1	1005.82	-29748.1	0.000000	0.000000	6.733070	-0.089004	NaN	0.000000	0.001596	0.001691	28.0817	0.038835	0.001926	20.161	59.8854	14.2043	-0.039459	0.731509	-0.427650	-0.429001	-0.089004	20.161	-0.424339	-296431	3.002530E-7	NaN
485	1.000000	0.742842	7.3698e+06	-52839.1	1005.82	-29748.1	0.000000	0.000000	6.743056	-0.011360	NaN	0.000000	0.001617	0.001697	28.0815	0.014174	0.001958	7.237925	20.4035	-165.134	-0.017534	0.741573	-0.417668	-0.418937	-0.011360	7.237925	-0.416491	-229417	4.951718E-8	NaN
485	1.000000	0.752804	7.3698e+06	-52839.1	1005.82	-29748.1	0.000000	0.000000	6.753016	-0.057505	NaN	0.000000	0.001551	0.001679	28.0815	0.046907	0.002003	23.4203	-98.5398	16.6973	-0.096232	0.751471	-0.407706	-0.409039	-0.057505	23.4203	-0.405864	-162015	3.549389E-7	NaN
485	1.000000	0.762829	7.3698e+06	-52839.1	1005.82	-29748.1	0.000000	0.000000	6.763045	0.025999	NaN	0.000000	0.001532	0.001713	28.0817	0.065971	0.002045	32.2518	-112.012	-165.933	-0.035871	0.761549	-0.397680	-0.398961	0.025999	32.2518	-0.398285	-126337	-2.057902E-7	NaN
485	1.000000	0.772821	7.3698e+06	-52839.1	1005.82	-29748.1	0.000000	0.000000	6.773036	0.012967	NaN	0.000000	0.001583	0.001704	28.0816	0.076721	0.001985	38.644	-20.7241	14.6703	-0.045545	0.771474	-0.387689	-0.389036	0.012967	38.644	-0.387941	-89887	-1.442577E-7	NaN
485	1.000000	0.782858	7.3698e+06	-52839.1	1005.82	-29748.1	0.000000	0.000000	6.783073	0.008487	NaN	0.000000	0.001563	0.001713	28.0815	0.044237	0.001910	23.1665	121.786	-165.54	-0.001604	0.781509	-0.377652	-0.379001	0.008487	23.1665	-0.377926	-64583.3	-1.314153E-7	NaN
485	1.000000	0.792863	7.3698e+06	-52839.1	1005.82	-29748.1	0.000000	0.000000	6.793078	0.008813	NaN	0.000000	0.001539	0.001704	28.0823	0.060647	0.002156	28.1298	92.7718	12.6585	0.023824	0.791437	-0.367647	-0.369073	0.008813	28.1298	-0.367882	-46302.9	-1.903306E-7	NaN
485	1.000000	0.802864	7.3698e+06	-52839.1	1005.82	-29748.1	0.000000	0.000000	6.803078	0.007852	NaN	0.000000	0.001584	0.001724	28.0819	0.094232	0.001925	48.9437	96.4594	-162.222	-0.011133	0.801585	-0.357646	-0.358925	0.007852	48.9437	-0.357766	-33078.4	-2.373728E-7	NaN
485	1.000000	0.812872	7.3698e+06	-52839.1	1005.82	-29748.1	0.000000	0.000000	6.813084	-0.040944	NaN	0.000000	0.001548	0.001715	28.0815	0.076287	0.001941	39.3003	-176.614	12.0744	-0.000131	0.811477	-0.347638	-0.349033	-0.040944	39.3003	-0.346857	-22980.2	1.781689E-6	NaN
485	1.000000	0.822842	7.3698e+06	-52839.1	1005.82	-29748.1	0.000000	0.000000	6.823054	-0.037503	NaN	0.000000	0.001580	0.001748	28.0803	0.181828	0.002140	84.97	60.9072	-169.127	-0.034382	0.821571	-0.337668	-0.338939	-0.037503	84.97	-0.337337	-16699.9	2.245696E-6	NaN
485	1.000000	0.832870	7.3698e+06	-52839.1	1005.82	-29748.1	0.000000	0.000000	6.833083	-0.033923	NaN	0.000000	0.001587	0.001693	28.0804	0.040563	0.001915	21.1788	-9.056999	11.1565	-0.073998	0.831498	-0.327640	-0.329012	-0.033923	21.1788	-0.326439	-11567.8	2.932550E-6	NaN
485	1.000000	0.842886	7.3698e+06	-52839.1	1005.82	-29748.1	0.000000	0.000000	6.843097	-0.081160	NaN	0.000000	0.001601	0.001714	28.0805	0.081455	0.002011	40.5009	-161.891	-166.758	-0.085513	0.841584	-0.317624	-0.318926	-0.081160	40.5009	-0.316121	-8156.11	9.950821E-6	NaN
485	1.000000	0.852878	7.3698e+06	-52839.1	1005.82	-29748.1	0.000000	0.000000	6.853094	0.033180	NaN	0.000000	0.001617	0.001702	28.0804	0.003679	0.002072	1.775479	115.854	17.8326	-0.045456	0.851509	-0.307632	-0.309001	0.033180	1.775479	-0.321648	-9837.37	-3.372875E-6	NaN
485	1.000000	0.862884	7.3698e+06	-52839.1	1005.82	-29748.1	0.000000	0.000000	6.863096	-0.070716	NaN	0.000000	0.001577	0.001766	28.0803	0.079805	0.002073	38.4895	39.6168	-165.578	-0.050991	0.861541	-0.297626	-0.298969	-0.070716	38.4895	-0.296248	-4137.25	1.709250E-5	NaN
485	1.000000	0.872878	7.3698e+06	-52839.1	1005.82	-29748.1	0.000000	0.000000	6.873090	-0.053952	NaN	0.000000	0.001571	0.001726	28.0805	0.091512	0.002022	45.2592	-111.918	13.4764	-0.114415	0.871574	-0.287632	-0.288936	-0.053952	45.2592	-0.286738	-2981.09	1.809793E-5	NaN
485	1.000000	0.882874	7.3698e+06	-52839.1	1005.82	-29748.1	0.000000	0.000000	6.883084	-0.093313	NaN	0.000000	0.001663	0.001744	28.0801	0.166492	0.001872	88.9577	65.3975	-167.975	-0.060236	0.881590	-0.277636	-0.278920	-0.093313	88.9577	-0.276850	-2115.38	4.411180E-5	NaN
485	1.000000	0.892855	7.3698e+06	-52839.1	1005.82	-29748.1	0.000000	0.000000	6.893068	-0.041559	NaN	0.000000	0.001633	0.001723	28.0805	0.126357	0.001907	66.2584	172.056	12.9548	-0.032719	0.891540	-0.267655	-0.268970	-0.041559	66.2584	-0.267184	-1509.02	2.754022E-5	NaN
485	1.000000	0.902900	7.3698e+06	-52839.1	1005.82	-29748.1	0.000000	0.000000	6.903112	-0.060813	NaN	0.000000	0.001610	0.001774	28.0803	0.120641	0.001978	60.994	0.833535	-165.392	-0.042781	0.901586	-0.257610	-0.258924	-0.060813	60.994	-0.256862	-1048.95	5.797480E-5	NaN
485	1.000000	0.912902	7.3698e+06	-52839.1	1005.82	-29748.1	0.000000	0.000000	6.913115	-0.020470	NaN	0.000000	0.001564	0.001722	28.0807	0.074307	0.002142	34.692	166.259	12.4006	-0.033655	0.911479	-0.247608	-0.249030	-0.020470	34.692	-0.247166	-743.141	2.754549E-5	NaN
485	1.000000	0.922904	7.3698e+06	-52839.1	1005.82	-29748.1	0.000000	0.000000	6.923116	-0.034615	NaN	0.000000	0.001555	0.001758	28.0803	0.090856	0.001910	47.5729	29.398	-168.208	0.016553	0.921567	-0.237606	-0.238943	-0.034615	47.5729	-0.237061	-517.095	6.694038E-5	NaN
485	1.000000	0.932889	7.3698e+06	-52839.1	1005.82	-29748.1	0.000000	0.000000	6.933101	-0.053003	NaN	0.000000	0.001530	0.001764	28.0805	0.066461	0.002037	32.6331	-40.3701	13.2422	0.012385	0.931551	-0.227621	-0.228959	-0.053003	32.6331	-0.226403	-351.239	0.000151	NaN
485	1.000000	0.942889	7.3698e+06	-52839.1	1005.82	-29748.1	0.000000	0.000000	6.943103	-0.028181	NaN	0.000000	0.001544	0.001715	28.0804	0.019956	0.001948	10.2431	-149.545	-165.04	0.042466	0.941583	-0.217620	-0.218927	-0.028181	10.2431	-0.215557	-235.761	0.000120	NaN
485	1.000000	0.952914	7.3698e+06	-52839.1	1005.82	-29748.1	0.000000	0.000000	6.953129	0.015301	NaN	0.000000	0.001541	0.001706	28.0805	0.059830	0.001935	30.919	145.388	13.1674	-0.021604	0.951554	-0.207595	-0.208956	0.015301	30.919	-0.207967	-177.763	-8.607349E-5	NaN
485	1.000000	0.962905	7.3698e+06	-52839.1	1005.82	-29748.1	0.000000	0.000000	6.963118	-0.027112	NaN	0.000000	0.001512	0.001720	28.0816	0.094056	0.001975	47.6211	-150.635	-166.84	-0.038929	0.961569	-0.197605	-0.198941	-0.027112	47.6211	-0.197178	-118.364	0.000229	NaN
485	1.000000	0.972910	7.3698e+06	-52839.1	1005.82	-29748.1	0.000000	0.000000	6.973124	0.002017	NaN	0.000000	0.001607	0.001728	28.0818	0.063769	0.002095	30.4395	156.036	13.4795	-0.024936	0.971559	-0.187600	-0.188951	0.002017	30.4395	-0.187650	-82.1647	-2.454769E-5	NaN
485	1.000000	0.982943	7.3698e+06	-52839.1	1005.82	-29748.1	0.000000	0.000000	6.983155	-0.059658	NaN	0.000000	0.001646	0.001672	28.0819	0.050260	0.002057	24.4292	-177.41	-170.224	-0.072263	0.981607	-0.177567	-0.178903	-0.059658	24.4292	-0.175735	-51.5945	0.001156	NaN
485	1.000000	0.992921	7.3698e+06	-52839.1	1005.82	-29748.1	0.000000	0.000000	6.993133	-0.048985	NaN	0.000000	0.001575	0.001692	28.0816	0.076193	0.002018	37.7476	172.31	13.0696	-0.021771	0.991515	-0.167589	-0.168995	-0.048985	37.7476	-0.166616	-35.861	0.001366	NaN
485	1.000000	1.002916	7.3698e+06	-52839.1	1005.82	-29748.1	0.000000	0.000000	7.003128	-0.067345	NaN	0.000000	0.001584	0.001659	28.0816	0.063299	0.002033	31.1343	-117.726	-162.836	-0.089743	1.001660	-0.157594	-0.158850	-0.067345	31.1343	-0.155972	-23.2296	0.002899	NaN
485	1.000000	1.012967	7.3698e+06	-52839.1	1005.82	-29748.1	0.000000	0.000000	7.013179	-0.045758	NaN	0.000000	0.001579	0.001661	28.0816	0.037935	0.001932	19.6356	-109.135	13.7866	0.025327	1.011619	-0.147543	-0.148891	-0.045758	19.6356	-0.145795	-15.1659	0.003017	NaN
485	1.000000	1.022979	7.3698e+06	-52839.1	1005.82	-29748.1	0.000000	0.000000	7.023193	-0.004274	NaN	0.000000	0.001590	0.001655	28.0818	0.030479	0.002037	14.9661	-157.997	-168.457	0.026820	1.021598	-0.137531	-0.138912	-0.004274	14.9661	-0.137316	-10.5279	0.000406	NaN
485	1.000000	1.032962	7.3698e+06	-52839.1	1005.82	-29748.1	0.000000	0.000000	7.033175	-0.018521	NaN	0.000000	0.001573	0.001705	28.0818	0.095220	0.001937	49.1462	0.744868	9.663112	-0.004439	1.031633	-0.127548	-0.128877	-0.018521	49.1462	-0.127266	-6.739591	0.002748	NaN
485	1.000000	1.042937	7.3698e+06	-52839.1	1005.82	-29748.1	0.000000	0.000000	7.043147	-0.095860	NaN	0.000000	0.001564	0.001666	28.0818	0.083184	0.002087	39.8508	-164.171	-165.386	-0.023514	1.041643	-0.117573	-0.118867	-0.095860	39.8508	-0.115769	-3.962158	0.024194	NaN
485	1.000000	1.052944	7.3698e+06	-52839.1	1005.82	-29748.1	0.000000	0.000000	7.053159	0.020081	NaN	0.000000	0.001559	0.001686	28.082	0.066998	0.002168	30.9088	-28.3382	9.587789	0.040675	1.051587	-0.107566	-0.108923	0.020081	30.9088	-0.108054	-2.733021	-0.007348	NaN
485	1.000000	1.062979	7.3698e+06	-52839.1	1005.82	-29748.1	0.000000	0.000000	7.063191	-0.044350	NaN	0.000000	0.001543	0.001686	28.0819	0.037419	0.002035	18.3875	141.204	-166.883	-0.098387	1.061637	-0.097531	-0.098873	-0.044350	18.3875	-0.095722	-1.465007	0.030273	NaN
485	1.000000	1.072966	7.3698e+06	-52839.1	1005.82	-29748.1	0.000000	0.000000	7.073179	-0.042280	NaN	0.000000	0.001579	0.001684	28.0816	0.141935	0.001907	74.4391	103.735	13.3487	0.056895	1.071557	-0.087543	-0.088952	-0.042280	74.4391	-0.087117	-0.923816	0.045767	NaN
485	1.000000	1.082990	7.3698e+06	-52839.1	1005.82	-29748.1	0.000000	0.000000	7.083201	-0.073665	NaN	0.000000	0.001543	0.001706	28.0817	0.081010	0.002133	37.9749	89.5276	-164.618	0.009128	1.081649	-0.077520	-0.078861	-0.073665	37.9749	-0.076065	-0.492004	0.149724	NaN
485	1.000000	1.092927	7.3698e+06	-52839.1	1005.82	-29748.1	0.000000	0.000000	7.093142	0.003365	NaN	0.000000	0.001556	0.001716	28.0813	0.045134	0.002076	21.7368	-108.147	10.7683	-0.006244	1.091571	-0.067583	-0.068939	0.003365	21.7368	-0.067699	-0.295626	-0.011383	NaN
485	1.000000	1.102963	7.3698e+06	-52839.1	1005.82	-29748.1	0.000000	0.000000	7.103176	-0.025825	NaN	0.000000	0.001525	0.001676	28.0804	0.116321	0.002101	55.3768	77.2604	-164.94	0.014076	1.101650	-0.057547	-0.058860	-0.025825	55.3768	-0.057197	-0.149413	0.172841	NaN
485	1.000000	1.112966	7.3698e+06	-52839.1	1005.82	-29748.1	0.000000	0.000000	7.113180	-0.006689	NaN	0.000000	0.001541	0.001708	28.0804	0.044330	0.002044	21.6892	77.2809	14.7784	-0.064858	1.111662	-0.047544	-0.048848	-0.006689	21.6892	-0.047312	-0.075615	0.088459	NaN
485	1.000000	1.122985	7.3698e+06	-52839.1	1005.82	-29748.1	0.000000	0.000000	7.123197	-0.060093	NaN	0.000000	0.001579	0.001699	28.0806	0.063678	0.001981	32.1502	-22.9224	-167.483	-0.070298	1.121683	-0.037524	-0.038827	-0.060093	32.1502	-0.036123	-0.034570	1.738322	NaN
485	1.000000	1.132999	7.3698e+06	-52839.1	1005.82	-29748.1	0.000000	0.000000	7.133215	0.029164	NaN	0.000000	0.001538	0.001695	28.0804	0.038184	0.001902	20.0753	-175.534	13.782	-0.019072	1.131640	-0.027511	-0.028870	0.029164	20.0753	-0.028600	-0.021053	-1.385257	NaN
485	1.000000	1.142990	7.3698e+06	-52839.1	1005.82	-29748.1	0.000000	0.000000	7.143222	0.418017	NaN	0.000000	0.001567	0.001697	28.0803	0.608069	0.001982	306.739	21.7025	-164.581	0.224892	1.141665	-0.017520	-0.018845	0.418017	306.739	-0.018542	-0.011528	-36.2613	NaN
485	1.000000	1.152981	7.3698e+06	-52839.1	1005.82	-29748.1	0.000000	0.000000	7.153317	2.969893	NaN	0.000000	0.001510	0.001708	28.0804	1.850173	0.001984	932.406	16.4219	13.9464	3.102691	1.151679	-0.007529	-0.008831	2.969893	932.406	-0.009918	-0.006341	-468.394	NaN
485	1.000000	1.162976	7.3698e+06	-52839.1	1005.82	-29748.1	0.000000	0.000000	7.163463	6.629797	NaN	0.000000	0.001566	0.001686	28.0807	6.655606	0.001829	3639.33	12.2933	-174.486	4.643778	1.161646	0.002466	0.001136	6.629797	3639.33	0.001100	0.000840	7895.35	114744
485	2.000000	1.167066	7.3698e+06	-52839.1	1005.82	-29748.1	0.000000	0.000000	7.167866	14.2571	NaN	0.000000	0.001558	0.001717	28.0802	11.012	0.001703	6467.09	13.4312	2.329088	13.9232	1.166692	0.006556	0.006182	14.2571	6467.09	0.004902	0.004044	3525.18	92908.8
485	2.000000	1.169492	7.3698e+06	-52839.1	1005.82	-29748.1	0.000000	0.000000	7.170385	16.4939	NaN	0.000000	0.001549	0.001690	28.0808	13.2596	0.001835	7227.44	2.330589	-170.517	15.2168	1.169228	0.008982	0.008719	16.4939	7227.44	0.007271	0.006303	2616.83	83173.5
485	2.000000	1.171961	7.3698e+06	-52839.1	1005.82	-29748.1	0.000000	0.000000	7.173319	27.8	NaN	0.000000	0.001542	0.001707	28.0805	16.1608	0.001709	9454.11	6.737474	1.988848	26.1307	1.171517	0.011451	0.011007	27.8	9454.11	0.009246	0.008356	3327.1	94494
485	2.000000	1.174457	7.3698e+06	-52839.1	1005.82	-29748.1	0.000000	0.000000	7.175661	24.0688	NaN	0.000000	0.001553	0.001708	28.0808	18.8295	0.001851	10170.9	4.599629	-175.592	22.5661	1.174108	0.013947	0.013598	24.0688	10170.9	0.012172	0.011697	2057.71	85921
485	2.000000	1.176962	7.3698e+06	-52839.1	1005.82	-29748.1	0.000000	0.000000	7.178584	34.2167	NaN	0.000000	0.001547	0.001707	28.0802	20.967	0.001814	11557.8	3.275707	5.516729	32.9283	1.176593	0.016452	0.016083	34.2167	11557.8	0.014232	0.014275	2396.98	88381.5
485	2.000000	1.179463	7.3698e+06	-52839.1	1005.82	-29748.1	0.000000	0.000000	7.181039	33.1142	NaN	0.000000	0.001504	0.001683	28.0805	22.4341	0.001706	13150.9	4.970920	-177.506	32.498	1.179197	0.018953	0.018687	33.1142	13150.9	0.017064	0.018138	1825.72	89215.4
485	2.000000	1.181929	7.3698e+06	-52839.1	1005.82	-29748.1	0.000000	0.000000	7.184049	46.3214	NaN	0.000000	0.001538	0.001684	28.0819	25.1666	0.001735	14505.1	1.217233	3.551166	43.8103	1.181590	0.021419	0.021080	46.3214	14505.1	0.019024	0.021032	2202.39	91379.6
485	2.000000	1.184417	7.3698e+06	-52839.1	1005.82	-29748.1	0.000000	0.000000	7.186904	55.276	NaN	0.000000	0.001546	0.001719	28.0819	28.1872	0.001791	15734.9	3.725975	-179.015	52.7733	1.184111	0.023907	0.023602	55.276	15734.9	0.021272	0.024581	2248.76	91694
485	2.000000	1.186940	7.3698e+06	-52839.1	1005.82	-29748.1	0.000000	0.000000	7.189563	58.5658	NaN	0.000000	0.001510	0.001732	28.0816	29.3241	0.001673	17532.7	2.771412	0.480653	55.981	1.186529	0.026430	0.026019	58.5658	17532.7	0.023925	0.029089	2013.34	93919.9
485	2.000000	1.189438	7.3698e+06	-52839.1	1005.82	-29748.1	0.000000	0.000000	7.192355	65.7112	NaN	0.000000	0.001563	0.001715	28.0817	31.0464	0.001816	17095.3	6.009137	178.954	64.4711	1.189099	0.028928	0.028589	65.7112	17095.3	0.026045	0.032945	1994.59	86051.3
485	2.000000	1.191965	7.3698e+06	-52839.1	1005.82	-29748.1	0.000000	0.000000	7.195175	72.8435	NaN	0.000000	0.001549	0.001695	28.082	33.4396	0.001846	18117.5	5.470667	-0.277075	74.342	1.191602	0.031455	0.031092	72.8435	18117.5	0.028440	0.037572	1938.79	85396.7
485	2.000000	1.194409	7.3698e+06	-52839.1	1005.82	-29748.1	0.000000	0.000000	7.197993	81.9494	NaN	0.000000	0.001585	0.001705	28.0816	35.6166	0.001818	19587.3	3.230704	-179.593	80.4203	1.194092	0.033899	0.033582	81.9494	19587.3	0.030761	0.042336	1935.71	86975
485	2.000000	1.196951	7.3698e+06	-52839.1	1005.82	-29748.1	0.000000	0.000000	7.201017	93.6452	NaN	0.000000	0.001553	0.001681	28.0817	37.7844	0.001858	20335.9	6.178658	-1.388414	92.9795	1.196582	0.036441	0.036072	93.6452	20335.9	0.032987	0.047163	1985.55	85552.7
485	2.000000	1.199400	7.3698e+06	-52839.1	1005.82	-29748.1	0.000000	0.000000	7.203857	103.159	NaN	0.000000	0.001544	0.001678	28.0817	40.0505	0.001811	22115.3	5.678993	176.437	102.694	1.199121	0.038890	0.038611	103.159	22115.3	0.035392	0.052663	1958.86	88046.9
485	2.000000	1.201906	7.3698e+06	-52839.1	1005.82	-29748.1	0.000000	0.000000	7.206904	116.288	NaN	0.000000	0.001561	0.001692	28.0815	42.1791	0.001834	22997.8	3.521656	-1.328475	113.176	1.201533	0.041397	0.041023	116.288	22997.8	0.037604	0.057983	2005.55	87258.6
485	2.000000	1.204375	7.3698e+06	-52839.1	1005.82	-29748.1	0.000000	0.000000	7.209942	130.146	NaN	0.000000	0.001574	0.001724	28.0815	44.9676	0.001867	24087.1	3.375668	178.671	128.561	1.204148	0.043865	0.043638	130.146	24087.1	0.039813	0.063546	2048.07	87300.2
485	2.000000	1.206866	7.3698e+06	-52839.1	1005.82	-29748.1	0.000000	0.000000	7.213056	145.288	NaN	0.000000	0.001567	0.001698	28.0816	46.5177	0.001815	25631.5	2.873899	-1.232278	141.521	1.206564	0.046356	0.046054	145.288	25631.5	0.042105	0.069580	2088.07	88777.8
485	2.000000	1.209374	7.3698e+06	-52839.1	1005.82	-29748.1	0.000000	0.000000	7.216162	159.836	NaN	0.000000	0.001594	0.001682	28.0816	48.1656	0.001853	25997.4	-0.118532	-178.302	158.442	1.209100	0.048864	0.048591	159.836	25997.4	0.044253	0.075482	2117.56	86453.6
485	2.000000	1.211949	7.3698e+06	-52839.1	1005.82	-29748.1	0.000000	0.000000	7.219323	174.089	NaN	0.000000	0.001572	0.001725	28.0819	51.5108	0.001785	28862.2	6.070238	-5.268633	174.735	1.211486	0.051439	0.050976	174.089	28862.2	0.046915	0.083116	2094.53	91466
485	2.000000	1.214380	7.3698e+06	-52839.1	1005.82	-29748.1	0.000000	0.000000	7.222260	186.392	NaN	0.000000	0.001549	0.001735	28.0817	54.7152	0.001812	30197.8	5.850635	173.345	184.505	1.214144	0.053870	0.053634	186.392	30197.8	0.049241	0.090081	2069.16	91924.5
485	2.000000	1.216893	7.3698e+06	-52839.1	1005.82	-29748.1	0.000000	0.000000	7.225635	207.324	NaN	0.000000	0.001535	0.001696	28.0804	55.6032	0.001748	31807.3	3.532995	-3.449384	204.454	1.216541	0.056383	0.056032	207.324	31807.3	0.051495	0.097089	2135.39	93264
485	2.000000	1.219337	7.3698e+06	-52839.1	1005.82	-29748.1	0.000000	0.000000	7.228697	222.349	NaN	0.000000	0.001587	0.001709	28.0806	58.5265	0.001924	30415.8	4.791690	175.008	218.181	1.218997	0.058827	0.058487	222.349	30415.8	0.053345	0.103031	2158.08	86574.3
485	2.000000	1.221879	7.3698e+06	-52839.1	1005.82	-29748.1	0.000000	0.000000	7.231987	240.543	NaN	0.000000	0.001591	0.001735	28.0804	60.3071	0.001685	35800.7	5.596167	-6.884485	237.921	1.221527	0.061369	0.061017	240.543	35800.7	0.056330	0.112977	2129.13	97312.6
485	2.000000	1.224412	7.3698e+06	-52839.1	1005.82	-29748.1	0.000000	0.000000	7.234851	248.602	NaN	0.000000	0.001537	0.001731	28.0806	64.2745	0.001890	34013.6	3.308845	175.606	250.378	1.224141	0.063902	0.063631	248.602	34013.6	0.058420	0.120204	2068.16	89632.4
485	2.000000	1.226853	7.3698e+06	-52839.1	1005.82	-29748.1	0.000000	0.000000	7.238286	272.765	NaN	0.000000	0.001528	0.001738	28.0804	64.9673	0.001677	38732.6	0.956273	-3.366442	268.577	1.226445	0.066343	0.065935	272.765	38732.6	0.061061	0.129642	2103.99	98282.8
485	2.000000	1.229302	7.3698e+06	-52839.1	1005.82	-29748.1	0.000000	0.000000	7.241693	296.051	NaN	0.000000	0.001579	0.001749	28.0807	67.5407	0.001805	37415.3	3.891760	174.49	291.933	1.229013	0.068792	0.068503	296.051	37415.3	0.062858	0.136255	2172.78	92607.7
485	2.000000	1.231905	7.3698e+06	-52839.1	1005.82	-29748.1	0.000000	0.000000	7.245062	314.679	NaN	0.000000	0.001578	0.001727	28.0803	69.5881	0.001782	39044.5	3.032247	-5.470055	312.981	1.231543	0.071395	0.071033	314.679	39044.5	0.065350	0.145690	2159.92	93458.4
485	2.000000	1.234400	7.3698e+06	-52839.1	1005.82	-29748.1	0.000000	0.000000	7.248298	332.696	NaN	0.000000	0.001520	0.001725	28.0807	73.6391	0.001784	41276.2	7.935780	169.455	333.694	1.234063	0.073890	0.073553	332.696	41276.2	0.067845	0.155433	2140.45	95653.6
485	2.000000	1.236930	7.3698e+06	-52839.1	1005.82	-29748.1	0.000000	0.000000	7.251357	345.564	NaN	0.000000	0.001534	0.001712	28.0806	74.8211	0.001778	42083.1	6.684071	-9.814421	346.089	1.236701	0.076420	0.076191	345.564	42083.1	0.070262	0.165153	2092.38	94610.1
485	2.000000	1.239388	7.3698e+06	-52839.1	1005.82	-29748.1	0.000000	0.000000	7.254941	372.941	NaN	0.000000	0.001568	0.001733	28.0807	76.3325	0.001808	42221.8	5.445463	171.296	373.027	1.239080	0.078878	0.078570	372.941	42221.8	0.072253	0.173374	2151.08	92644.2
485	2.000000	1.241850	7.3698e+06	-52839.1	1005.82	-29748.1	0.000000	0.000000	7.258168	391.555	NaN	0.000000	0.001594	0.001725	28.0805	79.1158	0.001815	43593.7	5.789514	-8.977888	388.677	1.241564	0.081340	0.081054	391.555	43593.7	0.074603	0.183316	2135.96	93024.3
485	2.000000	1.244451	7.3698e+06	-52839.1	1005.82	-29748.1	0.000000	0.000000	7.261966	420.651	NaN	0.000000	0.001568	0.001714	28.0807	83.4863	0.001952	42771.2	8.789532	168.832	424.661	1.244054	0.083941	0.083544	420.651	42771.2	0.076565	0.191812	2193.04	89225
485	2.000000	1.246900	7.3698e+06	-52839.1	1005.82	-29748.1	0.000000	0.000000	7.265042	435.909	NaN	0.000000	0.001605	0.001728	28.0809	82.9324	0.001874	44248.5	5.585157	-8.022148	434.207	1.246500	0.086390	0.085990	435.909	44248.5	0.079001	0.202619	2151.38	89811.5
485	2.000000	1.249310	7.3698e+06	-52839.1	1005.82	-29748.1	0.000000	0.000000	7.268726	466.865	NaN	0.000000	0.001586	0.001728	28.0815	85.8684	0.001777	48316.1	2.872288	173.895	463.877	1.248984	0.088800	0.088474	466.865	48316.1	0.081553	0.214232	2179.26	95372.5
485	2.000000	1.251835	7.3698e+06	-52839.1	1005.82	-29748.1	0.000000	0.000000	7.272003	485.165	NaN	0.000000	0.001554	0.001721	28.0818	87.7106	0.001735	50562.9	4.068115	-8.041811	482.208	1.251524	0.091325	0.091015	485.165	50562.9	0.084128	0.226262	2144.26	97118
485	2.000000	1.254359	7.3698e+06	-52839.1	1005.82	-29748.1	0.000000	0.000000	7.275644	512.305	NaN	0.000000	0.001559	0.001743	28.082	90.1344	0.001838	49030.2	2.167987	174.441	512.373	1.253998	0.093849	0.093488	512.305	49030.2	0.086013	0.235256	2177.65	92356.3
485	2.000000	1.256818	7.3698e+06	-52839.1	1005.82	-29748.1	0.000000	0.000000	7.279309	541.612	NaN	0.000000	0.001567	0.001712	28.082	92.1049	0.001799	51206.6	5.576125	-9.594562	537.62	1.256537	0.096309	0.096027	541.612	51206.6	0.088376	0.246768	2194.82	94179.1
485	2.000000	1.259390	7.3698e+06	-52839.1	1005.82	-29748.1	0.000000	0.000000	7.283115	571.642	NaN	0.000000	0.001564	0.001702	28.0818	93.6971	0.001677	55879	1.937540	173.804	571.064	1.258911	0.098880	0.098401	571.642	55879	0.091207	0.260901	2191.03	99950.3
485	2.000000	1.261735	7.3698e+06	-52839.1	1005.82	-29748.1	0.000000	0.000000	7.286065	586.342	NaN	0.000000	0.001556	0.001681	28.0818	97.5057	0.001763	55309.8	4.693738	-8.935965	579.152	1.261431	0.101225	0.100921	586.342	55309.8	0.093274	0.271447	2160.06	96991.3
485	2.000000	1.263321	7.3698e+06	-52839.1	1005.82	-29748.1	0.000000	0.000000	7.288572	608.743	NaN	0.000000	0.001601	0.001691	28.0819	98.0721	0.001837	53380.9	3.906613	172.585	606.926	1.262949	0.102811	0.102439	608.743	53380.9	0.094258	0.276538	2201.3	92743.3