File: remote_trans/data/nanoindenter/0828-1/data/Data_2025-08-06,11h17m57s/2025-07-22_16-23-58_1_515.txt
2025-07-22, 16:23:58, 1
Index	Phase	Displacement	Time	Pos X	Pos Y	Pos Z	Rot A	Rot B	Piezo Z	Force A	Force B	Gripper	Voltage A	Voltage B	Temperature	Amplitude force	Amplitude pos	Stiffness	Phase shift	Phase excitation	Force A raw	Displacement raw	HMax	HMax raw	Real Force	Real Stiffness	Contact Depth	Area	Hardness	Reduced Mod.
[#]	[#]	[um]	[s]	[um]	[um]	[um]	[m°]	[m°]	[um]	[uN]	[uN]	[V]	[V]	[V]	[°C]	[uN]	[um]	[N/m]	[°]	[°]	[uN]	[um]	[um]	[um]	[uN]	[N/m]	[um]	[um^2]	[MPa]	[MPa]
515	1.000000	0.002267	7.37009e+06	-51339.1	1005.82	-29752.6	0.000000	0.000000	6.002824	-0.091703	NaN	0.000000	0.001620	0.001673	28.0817	0.157297	0.001125	139.823	-164.589	-164.863	-0.147198	0.001007	-1.083460	-1.084721	-0.091703	139.823	-1.082969	-2.960660E+14	3.097393E-16	NaN
515	1.000000	0.012269	7.37009e+06	-51339.1	1005.82	-29752.6	0.000000	0.000000	6.012827	-0.063225	NaN	0.000000	0.001657	0.001702	28.0816	0.061940	0.001233	50.2309	-97.7954	18.0795	-0.033262	0.010862	-1.073458	-1.074865	-0.063225	50.2309	-1.072514	-2.142734E+14	2.950676E-16	NaN
515	1.000000	0.022204	7.37009e+06	-51339.1	1005.82	-29752.6	0.000000	0.000000	6.022761	-0.067588	NaN	0.000000	0.001592	0.001697	28.0814	0.089099	0.001583	56.2849	83.7587	-167.051	-0.087592	0.020867	-1.063524	-1.064861	-0.067588	56.2849	-1.062623	-1.577868E+14	4.283496E-16	NaN
515	1.000000	0.032178	7.37009e+06	-51339.1	1005.82	-29752.6	0.000000	0.000000	6.032732	-0.138001	NaN	0.000000	0.001609	0.001677	28.0817	0.042207	0.001990	21.208	-178.425	16.021	-0.060304	0.030820	-1.053550	-1.054908	-0.138001	21.208	-1.048670	-1.024546E+14	1.346951E-15	NaN
515	1.000000	0.042182	7.37009e+06	-51339.1	1005.82	-29752.6	0.000000	0.000000	6.042740	-0.036660	NaN	0.000000	0.001550	0.001680	28.0829	0.116260	0.001914	60.7361	179.316	-167.083	-0.043896	0.040895	-1.043546	-1.044832	-0.036660	60.7361	-1.043093	-8.620998E+13	4.252444E-16	NaN
515	1.000000	0.052219	7.37009e+06	-51339.1	1005.82	-29752.6	0.000000	0.000000	6.052777	-0.049675	NaN	0.000000	0.001550	0.001653	28.0826	0.078268	0.001932	40.5113	159.844	14.0538	-0.066279	0.050780	-1.033509	-1.034947	-0.049675	40.5113	-1.032589	-6.227414E+13	7.976890E-16	NaN
515	1.000000	0.062192	7.37009e+06	-51339.1	1005.82	-29752.6	0.000000	0.000000	6.062751	-0.029334	NaN	0.000000	0.001558	0.001661	28.0823	0.102376	0.001961	52.2022	2.177345	-166.266	-0.101383	0.060900	-1.023536	-1.024827	-0.029334	52.2022	-1.023114	-4.643559E+13	6.317095E-16	NaN
515	1.000000	0.072215	7.37009e+06	-51339.1	1005.82	-29752.6	0.000000	0.000000	6.072771	-0.110230	NaN	0.000000	0.001554	0.001645	28.0824	0.025033	0.001956	12.7969	-56.0563	15.0654	-0.102697	0.070784	-1.013512	-1.014944	-0.110230	12.7969	-1.007052	-2.822955E+13	3.904761E-15	NaN
515	1.000000	0.082216	7.37009e+06	-51339.1	1005.82	-29752.6	0.000000	0.000000	6.082774	-0.047733	NaN	0.000000	0.001545	0.001709	28.0829	0.037240	0.001999	18.6284	-124.085	-165.076	-0.058651	0.080906	-1.003512	-1.004822	-0.047733	18.6284	-1.001590	-2.383315E+13	2.002797E-15	NaN
515	1.000000	0.092239	7.37009e+06	-51339.1	1005.82	-29752.6	0.000000	0.000000	6.092795	-0.097501	NaN	0.000000	0.001569	0.001673	28.0827	0.019071	0.001957	9.742739	15.255	17.424	-0.067479	0.090836	-0.993489	-0.994892	-0.097501	9.742739	-0.985983	-1.468947E+13	6.637500E-15	NaN
515	1.000000	0.102204	7.37009e+06	-51339.1	1005.82	-29752.6	0.000000	0.000000	6.102761	-0.057681	NaN	0.000000	0.001557	0.001690	28.0827	0.143638	0.002159	66.5234	21.671	-167.149	-0.083495	0.100909	-0.983524	-0.984819	-0.057681	66.5234	-0.982874	-1.333913E+13	4.324205E-15	NaN
515	1.000000	0.112241	7.37009e+06	-51339.1	1005.82	-29752.6	0.000000	0.000000	6.112796	-0.118027	NaN	0.000000	0.001563	0.001664	28.083	0.138092	0.001954	70.6842	55.7638	15.9232	-0.081575	0.110869	-0.973487	-0.974859	-0.118027	70.6842	-0.972234	-9.589000E+12	1.230862E-14	NaN
515	1.000000	0.122208	7.37009e+06	-51339.1	1005.82	-29752.6	0.000000	0.000000	6.122763	-0.109817	NaN	0.000000	0.001567	0.001677	28.0828	0.079025	0.002043	38.6812	-102.976	-169.413	-0.038801	0.120924	-0.963520	-0.964804	-0.109817	38.6812	-0.961391	-6.848866E+12	1.603435E-14	NaN
515	1.000000	0.132228	7.37009e+06	-51339.1	1005.82	-29752.6	0.000000	0.000000	6.132784	-0.103327	NaN	0.000000	0.001585	0.001669	28.083	0.058712	0.001961	29.937	-61.2434	14.906	-0.125128	0.130801	-0.953500	-0.954926	-0.103327	29.937	-0.950911	-4.946732E+12	2.088803E-14	NaN
515	1.000000	0.142229	7.37009e+06	-51339.1	1005.82	-29752.6	0.000000	0.000000	6.142787	-0.060618	NaN	0.000000	0.001558	0.001677	28.0825	0.031145	0.001890	16.4805	94.8704	-163.794	-0.134196	0.140959	-0.943499	-0.944769	-0.060618	16.4805	-0.940740	-3.606800E+12	1.680650E-14	NaN
515	1.000000	0.152243	7.37009e+06	-51339.1	1005.82	-29752.6	0.000000	0.000000	6.152801	-0.047243	NaN	0.000000	0.001572	0.001639	28.0837	0.080337	0.001951	41.172	-169.148	15.5413	0.006896	0.150893	-0.933485	-0.934835	-0.047243	41.172	-0.932624	-2.802917E+12	1.685502E-14	NaN
515	1.000000	0.162251	7.37009e+06	-51339.1	1005.82	-29752.6	0.000000	0.000000	6.162805	-0.135967	NaN	0.000000	0.001605	0.001648	28.0825	0.010204	0.001942	5.255496	109.742	-166.44	-0.105573	0.160910	-0.923477	-0.924818	-0.135967	5.255496	-0.904073	-1.153722E+12	1.178507E-13	NaN
515	1.000000	0.172238	7.37009e+06	-51339.1	1005.82	-29752.6	0.000000	0.000000	6.172797	-0.045926	NaN	0.000000	0.001557	0.001666	28.0822	0.107144	0.001918	55.8485	-169.615	11.6718	-0.115924	0.170865	-0.913489	-0.914863	-0.045926	55.8485	-0.912873	-1.516912E+12	3.027584E-14	NaN
515	1.000000	0.182250	7.37009e+06	-51339.1	1005.82	-29752.6	0.000000	0.000000	6.182805	-0.115293	NaN	0.000000	0.001582	0.001679	28.0815	0.014330	0.002107	6.802810	93.5938	-162.291	-0.109374	0.180925	-0.903478	-0.904803	-0.115293	6.802810	-0.890767	-7.625772E+11	1.511889E-13	NaN
515	1.000000	0.192259	7.37009e+06	-51339.1	1005.82	-29752.6	0.000000	0.000000	6.192816	-0.074352	NaN	0.000000	0.001526	0.001678	28.0816	0.045215	0.001956	23.1125	-124.814	13.2393	-0.097355	0.190887	-0.893469	-0.894841	-0.074352	23.1125	-0.891056	-7.694648E+11	9.662826E-14	NaN
515	1.000000	0.202255	7.37009e+06	-51339.1	1005.82	-29752.6	0.000000	0.000000	6.202814	-0.019953	NaN	0.000000	0.001514	0.001705	28.0814	0.052650	0.002044	25.7629	8.138711	-164.152	-0.036726	0.200904	-0.883473	-0.884823	-0.019953	25.7629	-0.882892	-5.967803E+11	3.343405E-14	NaN
515	1.000000	0.212247	7.37009e+06	-51339.1	1005.82	-29752.6	0.000000	0.000000	6.212805	-0.040566	NaN	0.000000	0.001473	0.001670	28.0815	0.111200	0.001991	55.8491	-93.9473	14.5182	-0.102318	0.210891	-0.873481	-0.874836	-0.040566	55.8491	-0.872936	-4.376927E+11	9.268260E-14	NaN
515	1.000000	0.222286	7.37009e+06	-51339.1	1005.82	-29752.6	0.000000	0.000000	6.222842	-0.104908	NaN	0.000000	0.001544	0.001691	28.0815	0.081849	0.001961	41.739	-167.526	-165.492	-0.128018	0.220964	-0.863442	-0.864763	-0.104908	41.739	-0.861557	-3.070356E+11	3.416789E-13	NaN
515	1.000000	0.232251	7.37009e+06	-51339.1	1005.82	-29752.6	0.000000	0.000000	6.232807	-0.097221	NaN	0.000000	0.001560	0.001723	28.0814	0.021489	0.001821	11.7976	-38.0469	14.1149	-0.040434	0.230933	-0.853476	-0.854795	-0.097221	11.7976	-0.847296	-1.968424E+11	4.939030E-13	NaN
515	1.000000	0.242236	7.37009e+06	-51339.1	1005.82	-29752.6	0.000000	0.000000	6.242792	-0.091905	NaN	0.000000	0.001544	0.001724	28.0813	0.079156	0.002190	36.1497	163.788	-170.272	-0.119642	0.240994	-0.843492	-0.844734	-0.091905	36.1497	-0.841585	-1.647270E+11	5.579218E-13	NaN
515	1.000000	0.252242	7.37009e+06	-51339.1	1005.82	-29752.6	0.000000	0.000000	6.252798	-0.081934	NaN	0.000000	0.001566	0.001730	28.0814	0.076891	0.001911	40.2258	-135.354	17.0957	-0.112568	0.250893	-0.833486	-0.834834	-0.081934	40.2258	-0.831958	-1.219907E+11	6.716389E-13	NaN
515	1.000000	0.262294	7.37009e+06	-51339.1	1005.82	-29752.6	0.000000	0.000000	6.262851	-0.091195	NaN	0.000000	0.001564	0.001767	28.0815	0.089653	0.002006	44.6943	-3.291302	-166.966	-0.072549	0.260958	-0.823433	-0.824770	-0.091195	44.6943	-0.821903	-8.912844E+10	1.023183E-12	NaN
515	1.000000	0.272289	7.37009e+06	-51339.1	1005.82	-29752.6	0.000000	0.000000	6.272848	-0.035940	NaN	0.000000	0.001568	0.001770	28.0813	0.103809	0.002274	45.6586	-179.243	15.8801	-0.127686	0.270913	-0.813438	-0.814815	-0.035940	45.6586	-0.812848	-6.717527E+10	5.350131E-13	NaN
515	1.000000	0.282279	7.37009e+06	-51339.1	1005.82	-29752.7	0.000000	0.000000	6.282837	-0.047999	NaN	0.000000	0.001539	0.001750	28.0812	0.057484	0.001907	30.1388	-160.996	-165.328	-0.101925	0.280939	-0.803449	-0.804789	-0.047999	30.1388	-0.802255	-4.824673E+10	9.948643E-13	NaN
515	1.000000	0.292303	7.37009e+06	-51339.1	1005.82	-29752.7	0.000000	0.000000	6.292860	-0.079422	NaN	0.000000	0.001553	0.001732	28.0813	0.048173	0.002010	23.9675	57.248	11.6091	-0.054583	0.290933	-0.793424	-0.794795	-0.079422	23.9675	-0.790939	-3.387181E+10	2.344794E-12	NaN
515	1.000000	0.302297	7.37009e+06	-51339.1	1005.82	-29752.7	0.000000	0.000000	6.302857	-0.003427	NaN	0.000000	0.001560	0.001712	28.0812	0.095328	0.001989	47.9157	169.526	-166.172	-0.091248	0.300993	-0.783430	-0.784735	-0.003427	47.9157	-0.783377	-2.673709E+10	1.281896E-13	NaN
515	1.000000	0.312299	7.37009e+06	-51339.1	1005.82	-29752.7	0.000000	0.000000	6.312857	-0.050373	NaN	0.000000	0.001542	0.001762	28.0824	0.089773	0.001983	45.2609	29.025	14.2857	-0.134732	0.310982	-0.773429	-0.774746	-0.050373	45.2609	-0.772594	-1.907961E+10	2.640139E-12	NaN
515	1.000000	0.322324	7.37009e+06	-51339.1	1005.82	-29752.7	0.000000	0.000000	6.322881	-0.057654	NaN	0.000000	0.001544	0.001732	28.0824	0.143856	0.002040	70.5286	-4.702738	-168.048	-0.075057	0.320985	-0.763404	-0.764743	-0.057654	70.5286	-0.762791	-1.403681E+10	4.107348E-12	NaN
515	1.000000	0.332306	7.37009e+06	-51339.1	1005.82	-29752.7	0.000000	0.000000	6.332863	-0.074009	NaN	0.000000	0.001549	0.001737	28.0826	0.048676	0.001996	24.3884	-122.314	14.9748	-0.138192	0.330960	-0.753422	-0.754768	-0.074009	24.3884	-0.751146	-9.745842E+9	7.593944E-12	NaN
515	1.000000	0.342314	7.37009e+06	-51339.1	1005.82	-29752.7	0.000000	0.000000	6.342870	-0.102134	NaN	0.000000	0.001569	0.001749	28.0824	0.020096	0.001914	10.5013	-147.154	-165.609	-0.099654	0.341019	-0.743414	-0.744709	-0.102134	10.5013	-0.736120	-6.084095E+9	1.678697E-11	NaN
515	1.000000	0.352335	7.37009e+06	-51339.1	1005.82	-29752.7	0.000000	0.000000	6.352894	-0.043233	NaN	0.000000	0.001637	0.001703	28.083	0.056111	0.001972	28.4593	122.441	10.2071	-0.166260	0.350976	-0.733392	-0.734752	-0.043233	28.4593	-0.732253	-5.389075E+9	8.022372E-12	NaN
515	1.000000	0.362308	7.37009e+06	-51339.1	1005.82	-29752.7	0.000000	0.000000	6.362865	-0.060758	NaN	0.000000	0.001667	0.001747	28.0824	0.090529	0.002064	43.8602	-132.785	-163.935	-0.124576	0.361022	-0.723420	-0.724706	-0.060758	43.8602	-0.722381	-3.953130E+9	1.536953E-11	NaN
515	1.000000	0.372308	7.37009e+06	-51339.1	1005.82	-29752.7	0.000000	0.000000	6.372867	-0.013353	NaN	0.000000	0.001683	0.001771	28.0827	0.128197	0.002154	59.5196	101.361	13.8397	-0.023639	0.370952	-0.713420	-0.714776	-0.013353	59.5196	-0.713252	-2.967717E+9	4.499426E-12	NaN
515	1.000000	0.382353	7.37009e+06	-51339.1	1005.82	-29752.7	0.000000	0.000000	6.382910	-0.068091	NaN	0.000000	0.001649	0.001770	28.0825	0.038216	0.002165	17.6528	-14.985	-163.712	-0.038923	0.381002	-0.703375	-0.704726	-0.068091	17.6528	-0.700482	-1.986606E+9	3.427521E-11	NaN
515	1.000000	0.392308	7.37009e+06	-51339.1	1005.82	-29752.7	0.000000	0.000000	6.392867	-0.023985	NaN	0.000000	0.001670	0.001747	28.0824	0.067624	0.002100	32.1982	89.4127	14.9041	-0.075175	0.390959	-0.693419	-0.694769	-0.023985	32.1982	-0.692861	-1.563182E+9	1.534367E-11	NaN
515	1.000000	0.402328	7.37009e+06	-51339.1	1005.82	-29752.7	0.000000	0.000000	6.402886	-0.058138	NaN	0.000000	0.001638	0.001751	28.0825	0.051601	0.002022	25.5147	-175.96	-168.917	-0.053928	0.401061	-0.683400	-0.684667	-0.058138	25.5147	-0.681691	-1.099830E+9	5.286071E-11	NaN
515	1.000000	0.412364	7.37009e+06	-51339.1	1005.82	-29752.7	0.000000	0.000000	6.412920	-0.086463	NaN	0.000000	0.001639	0.001716	28.0825	0.127049	0.002006	63.3339	-170.5	15.7604	-0.029324	0.410954	-0.673364	-0.674774	-0.086463	63.3339	-0.672340	-8.192511E+8	1.055388E-10	NaN
515	1.000000	0.422344	7.37009e+06	-51339.1	1005.82	-29752.7	0.000000	0.000000	6.422903	-0.034020	NaN	0.000000	0.001596	0.001694	28.0824	0.105420	0.001915	55.0496	11.0117	-165.398	-0.059494	0.421026	-0.663384	-0.664702	-0.034020	55.0496	-0.662920	-6.087876E+8	5.588196E-11	NaN
515	1.000000	0.432384	7.37009e+06	-51339.1	1005.82	-29752.7	0.000000	0.000000	6.432941	-0.069475	NaN	0.000000	0.001641	0.001746	28.0823	0.061332	0.001930	31.7818	79.9641	13.196	-0.098576	0.431008	-0.653344	-0.654719	-0.069475	31.7818	-0.651705	-4.273703E+8	1.625631E-10	NaN
515	1.000000	0.442348	7.37009e+06	-51339.1	1005.82	-29752.7	0.000000	0.000000	6.442906	-0.045813	NaN	0.000000	0.001607	0.001753	28.0827	0.093374	0.001845	50.6149	-172.415	-163.312	-0.047575	0.441109	-0.643380	-0.644618	-0.045813	50.6149	-0.642701	-3.216247E+8	1.424427E-10	NaN
515	1.000000	0.452357	7.37009e+06	-51339.1	1005.82	-29752.7	0.000000	0.000000	6.452912	-0.123487	NaN	0.000000	0.001585	0.001760	28.0813	0.080639	0.001930	41.7829	-103.356	16.1942	-0.000344	0.450997	-0.633371	-0.634731	-0.123487	41.7829	-0.631154	-2.232920E+8	5.530277E-10	NaN
515	1.000000	0.462362	7.37009e+06	-51339.1	1005.82	-29752.7	0.000000	0.000000	6.462920	-0.056361	NaN	0.000000	0.001593	0.001763	28.0815	0.051636	0.002043	25.2702	-118.938	-163.221	-0.041826	0.461047	-0.623366	-0.624680	-0.056361	25.2702	-0.621693	-1.655402E+8	3.404689E-10	NaN
515	1.000000	0.472376	7.37009e+06	-51339.1	1005.82	-29752.7	0.000000	0.000000	6.472932	-0.101451	NaN	0.000000	0.001598	0.001726	28.0812	0.068011	0.002033	33.451	-94.2008	14.1026	-0.093083	0.470997	-0.613352	-0.614730	-0.101451	33.451	-0.611077	-1.182861E+8	8.576725E-10	NaN
515	1.000000	0.482377	7.37009e+06	-51339.1	1005.82	-29752.7	0.000000	0.000000	6.482935	-0.038852	NaN	0.000000	0.001562	0.001753	28.0815	0.079057	0.002045	38.666	-39.9983	-163.675	-0.001557	0.481072	-0.603351	-0.604655	-0.038852	38.666	-0.602597	-9.041184E+7	4.297239E-10	NaN
515	1.000000	0.492377	7.37009e+06	-51339.1	1005.82	-29752.7	0.000000	0.000000	6.492934	-0.063525	NaN	0.000000	0.001553	0.001713	28.0813	0.164534	0.001900	86.5883	-67.1138	11.8478	-0.001540	0.491006	-0.593351	-0.594722	-0.063525	86.5883	-0.592801	-6.626313E+7	9.586806E-10	NaN
515	1.000000	0.502359	7.37009e+06	-51339.1	1005.82	-29752.7	0.000000	0.000000	6.502915	-0.106123	NaN	0.000000	0.001604	0.001749	28.0814	0.098360	0.001964	50.0702	-84.4793	-165.124	-0.019245	0.501066	-0.583369	-0.584662	-0.106123	50.0702	-0.581779	-4.669612E+7	2.272623E-9	NaN
515	1.000000	0.512378	7.37009e+06	-51339.1	1005.82	-29752.7	0.000000	0.000000	6.512934	-0.111625	NaN	0.000000	0.001606	0.001738	28.0814	0.019245	0.001986	9.691412	157.767	13.6934	-0.103962	0.510998	-0.573350	-0.574730	-0.111625	9.691412	-0.564711	-2.713524E+7	4.113641E-9	NaN
515	1.000000	0.522383	7.37009e+06	-51339.1	1005.82	-29752.7	0.000000	0.000000	6.522939	-0.091285	NaN	0.000000	0.001591	0.001758	28.0814	0.073705	0.002065	35.6878	-155.826	-168.82	-0.138132	0.521079	-0.563345	-0.564648	-0.091285	35.6878	-0.561426	-2.444044E+7	3.735008E-9	NaN
515	1.000000	0.532414	7.37009e+06	-51339.1	1005.82	-29752.7	0.000000	0.000000	6.532969	-0.108442	NaN	0.000000	0.001581	0.001712	28.0813	0.075067	0.001993	37.6742	18.2531	10.8423	-0.102245	0.531002	-0.553314	-0.554726	-0.108442	37.6742	-0.551155	-1.761804E+7	6.155155E-9	NaN
515	1.000000	0.542393	7.37009e+06	-51339.1	1005.82	-29752.7	0.000000	0.000000	6.542949	-0.101324	NaN	0.000000	0.001594	0.001697	28.0816	0.163663	0.002052	79.742	126.753	-167.029	-0.078987	0.541081	-0.543335	-0.544647	-0.101324	79.742	-0.542382	-1.331644E+7	7.608979E-9	NaN
515	1.000000	0.552404	7.37009e+06	-51339.1	1005.82	-29752.7	0.000000	0.000000	6.552961	-0.080224	NaN	0.000000	0.001619	0.001750	28.0814	0.015950	0.002094	7.616126	-111.68	13.05	-0.205938	0.551054	-0.533324	-0.534674	-0.080224	7.616126	-0.525424	-7.7446e+06	1.035864E-8	NaN
515	1.000000	0.562398	7.37009e+06	-51339.1	1005.82	-29752.7	0.000000	0.000000	6.562955	-0.072269	NaN	0.000000	0.001575	0.001695	28.0815	0.021846	0.001972	11.08	73.4176	-166.773	-0.024613	0.561112	-0.523330	-0.524616	-0.072269	11.08	-0.518438	-6.19259e+06	1.167023E-8	NaN
515	1.000000	0.572416	7.37009e+06	-51339.1	1005.82	-29752.7	0.000000	0.000000	6.572973	-0.084630	NaN	0.000000	0.001571	0.001720	28.0812	0.078059	0.001980	39.4197	104.302	17.0365	-0.070005	0.571004	-0.513312	-0.514724	-0.084630	39.4197	-0.511701	-4.99012e+06	1.695955E-8	NaN
515	1.000000	0.582438	7.37009e+06	-51339.1	1005.82	-29752.7	0.000000	0.000000	6.582996	-0.040559	NaN	0.000000	0.001527	0.001738	28.0822	0.067424	0.001948	34.6065	-91.8158	-168.96	-0.047555	0.581057	-0.503290	-0.504671	-0.040559	34.6065	-0.502411	-3.70379e+06	1.095074E-8	NaN
515	1.000000	0.592432	7.37009e+06	-51339.1	1005.82	-29752.7	0.000000	0.000000	6.592990	-0.029793	NaN	0.000000	0.001562	0.001709	28.0826	0.082687	0.002025	40.8376	-77.1377	14.4806	-0.009843	0.591083	-0.493296	-0.494645	-0.029793	40.8376	-0.492749	-2.71518e+06	1.097259E-8	NaN
515	1.000000	0.602425	7.37009e+06	-51339.1	1005.82	-29752.7	0.000000	0.000000	6.602982	-0.062516	NaN	0.000000	0.001600	0.001711	28.0827	0.110962	0.002001	55.443	-115.727	-166.477	0.036008	0.601112	-0.483303	-0.484616	-0.062516	55.443	-0.482457	-1.94948e+06	3.206798E-8	NaN
515	1.000000	0.612444	7.37009e+06	-51339.1	1005.82	-29752.7	0.000000	0.000000	6.613002	-0.052280	NaN	0.000000	0.001547	0.001699	28.0827	0.066279	0.001909	34.7187	151.782	14.4625	-0.032907	0.611088	-0.473283	-0.474639	-0.052280	34.7187	-0.472154	-1.39834e+06	3.738716E-8	NaN
515	1.000000	0.622450	7.37009e+06	-51339.1	1005.82	-29752.7	0.000000	0.000000	6.623009	-0.017982	NaN	0.000000	0.001539	0.001713	28.0828	0.136797	0.002009	68.1024	41.9883	-166.008	-0.023277	0.621119	-0.463278	-0.464609	-0.017982	68.1024	-0.463080	-1.04301e+06	1.724096E-8	NaN
515	1.000000	0.632415	7.37009e+06	-51339.1	1005.82	-29752.7	0.000000	0.000000	6.632973	-0.053959	NaN	0.000000	0.001557	0.001695	28.0826	0.093872	0.002043	45.9433	176.654	13.8868	-0.111366	0.631094	-0.453313	-0.454633	-0.053959	45.9433	-0.452432	-738888	7.302736E-8	NaN
515	1.000000	0.642438	7.37009e+06	-51339.1	1005.82	-29752.7	0.000000	0.000000	6.642996	-0.064996	NaN	0.000000	0.001550	0.001686	28.0825	0.103415	0.001948	53.08	12.7607	-168.632	-0.005476	0.641134	-0.443290	-0.444594	-0.064996	53.08	-0.442371	-533115	1.219169E-7	NaN
515	1.000000	0.652447	7.37009e+06	-51339.1	1005.82	-29752.7	0.000000	0.000000	6.653007	-0.019108	NaN	0.000000	0.001536	0.001704	28.0826	0.107981	0.002097	51.4916	-127.481	14.5323	-0.015400	0.651118	-0.433280	-0.434610	-0.019108	51.4916	-0.433002	-393113	4.860634E-8	NaN
515	1.000000	0.662423	7.37009e+06	-51339.1	1005.82	-29752.7	0.000000	0.000000	6.662981	-0.045237	NaN	0.000000	0.001557	0.001700	28.0826	0.081437	0.001802	45.1959	-79.5624	-166.757	-0.147169	0.661115	-0.423305	-0.424612	-0.045237	45.1959	-0.422554	-279658	1.617571E-7	NaN
515	1.000000	0.672466	7.37009e+06	-51339.1	1005.82	-29752.7	0.000000	0.000000	6.673021	-0.121217	NaN	0.000000	0.001541	0.001707	28.0826	0.073818	0.002081	35.4717	2.763354	14.1992	-0.050214	0.671090	-0.413262	-0.414638	-0.121217	35.4717	-0.410699	-189820	6.385903E-7	NaN
515	1.000000	0.682450	7.37009e+06	-51339.1	1005.82	-29752.7	0.000000	0.000000	6.683007	-0.092603	NaN	0.000000	0.001554	0.001676	28.0825	0.068217	0.001998	34.1409	-117.744	-165.799	-0.079128	0.681190	-0.403277	-0.404537	-0.092603	34.1409	-0.401243	-139226	6.651259E-7	NaN
515	1.000000	0.692454	7.37009e+06	-51339.1	1005.82	-29752.7	0.000000	0.000000	6.693012	-0.056570	NaN	0.000000	0.001557	0.001690	28.0829	0.101626	0.002012	50.5147	-96.1267	12.3878	-0.049268	0.691141	-0.393274	-0.394587	-0.056570	50.5147	-0.392434	-104224	5.427758E-7	NaN
515	1.000000	0.702434	7.37009e+06	-51339.1	1005.82	-29752.7	0.000000	0.000000	6.702991	-0.060932	NaN	0.000000	0.001596	0.001719	28.0825	0.084179	0.001940	43.3825	-88.2785	-165.914	-0.036793	0.701150	-0.383294	-0.384578	-0.060932	43.3825	-0.382241	-74479.2	8.181051E-7	NaN
515	1.000000	0.712431	7.37009e+06	-51339.1	1005.82	-29752.7	0.000000	0.000000	6.712989	-0.040700	NaN	0.000000	0.001596	0.001703	28.0826	0.070898	0.002048	34.6173	107.037	14.0559	-0.080460	0.711134	-0.373297	-0.374593	-0.040700	34.6173	-0.372415	-53814.1	7.563012E-7	NaN
515	1.000000	0.722449	7.37009e+06	-51339.1	1005.82	-29752.7	0.000000	0.000000	6.723006	-0.083394	NaN	0.000000	0.001568	0.001749	28.0813	0.064206	0.001944	33.0264	171.005	-167.173	-0.062575	0.721171	-0.363279	-0.364557	-0.083394	33.0264	-0.361385	-37313.1	2.234965E-6	NaN
515	1.000000	0.732457	7.37009e+06	-51339.1	1005.82	-29752.7	0.000000	0.000000	6.733015	-0.068751	NaN	0.000000	0.001564	0.001711	28.0814	0.031510	0.001923	16.3816	-143.535	8.515900	-0.119041	0.731122	-0.353270	-0.354605	-0.068751	16.3816	-0.350123	-25632	2.682220E-6	NaN
515	1.000000	0.742477	7.37009e+06	-51339.1	1005.82	-29752.7	0.000000	0.000000	6.743032	-0.127534	NaN	0.000000	0.001576	0.001690	28.0812	0.140349	0.001901	73.8463	93.3072	-165.662	-0.271410	0.741178	-0.343251	-0.344549	-0.127534	73.8463	-0.341955	-19500.4	6.540106E-6	NaN
515	1.000000	0.752489	7.37009e+06	-51339.1	1005.82	-29752.7	0.000000	0.000000	6.753047	-0.042926	NaN	0.000000	0.001563	0.001690	28.0815	0.031405	0.001909	16.4495	-9.030282	12.944	-0.078121	0.751127	-0.333239	-0.334601	-0.042926	16.4495	-0.331282	-13621.2	3.151444E-6	NaN
515	1.000000	0.762460	7.37009e+06	-51339.1	1005.82	-29752.7	0.000000	0.000000	6.763016	-0.116119	NaN	0.000000	0.001598	0.001683	28.0816	0.035759	0.001997	17.9029	102.749	-164.733	-0.022396	0.761178	-0.323267	-0.324550	-0.116119	17.9029	-0.318403	-8812.94	1.317598E-5	NaN
515	1.000000	0.772491	7.37009e+06	-51339.1	1005.82	-29752.7	0.000000	0.000000	6.773045	-0.149234	NaN	0.000000	0.001583	0.001754	28.0814	0.058072	0.002165	26.8218	28.4461	12.1651	-0.151179	0.771114	-0.313236	-0.314614	-0.149234	26.8218	-0.309063	-6414.92	2.326360E-5	NaN
515	1.000000	0.782518	7.37009e+06	-51339.1	1005.82	-29752.7	0.000000	0.000000	6.783074	-0.088309	NaN	0.000000	0.001579	0.001738	28.0813	0.005028	0.002062	2.437934	-178.464	-164.669	-0.087032	0.781168	-0.303210	-0.304560	-0.088309	2.437934	-0.276043	-2056.78	4.293528E-5	NaN
515	1.000000	0.792502	7.37009e+06	-51339.1	1005.82	-29752.7	0.000000	0.000000	6.793059	-0.069919	NaN	0.000000	0.001585	0.001751	28.0815	0.035879	0.002058	17.4368	123.986	15.3797	-0.060123	0.791136	-0.293226	-0.294592	-0.069919	17.4368	-0.290218	-3361.79	2.079803E-5	NaN
515	1.000000	0.802494	7.37009e+06	-51339.1	1005.82	-29752.7	0.000000	0.000000	6.803048	-0.158592	NaN	0.000000	0.001578	0.001758	28.0815	0.039700	0.001859	21.354	-131.819	-164.932	-0.169876	0.801199	-0.283234	-0.284529	-0.158592	21.354	-0.277664	-2176.17	7.287668E-5	NaN
515	1.000000	0.812511	7.37009e+06	-51339.1	1005.82	-29752.7	0.000000	0.000000	6.813067	-0.099307	NaN	0.000000	0.001589	0.001751	28.0813	0.157191	0.001993	78.8893	157.788	12.8072	-0.039680	0.811158	-0.273216	-0.274570	-0.099307	78.8893	-0.272272	-1803.25	5.507099E-5	NaN
515	1.000000	0.822516	7.37009e+06	-51339.1	1005.82	-29752.7	0.000000	0.000000	6.823070	-0.148795	NaN	0.000000	0.001610	0.001726	28.0813	0.055675	0.001992	27.9431	-16.2096	-164.986	-0.090284	0.821188	-0.263212	-0.264540	-0.148795	27.9431	-0.259218	-1140.05	0.000131	NaN
515	1.000000	0.832521	7.37009e+06	-51339.1	1005.82	-29752.7	0.000000	0.000000	6.833079	-0.041466	NaN	0.000000	0.001571	0.001716	28.0815	0.124007	0.002101	59.0193	-146.692	14.9026	-0.001087	0.831149	-0.253207	-0.254579	-0.041466	59.0193	-0.252680	-904.409	4.584839E-5	NaN
515	1.000000	0.842523	7.37009e+06	-51339.1	1005.82	-29752.7	0.000000	0.000000	6.843080	-0.094282	NaN	0.000000	0.001612	0.001741	28.0816	0.018971	0.001889	10.0445	23.7715	-163.916	-0.124418	0.841157	-0.243204	-0.244571	-0.094282	10.0445	-0.236165	-500.638	0.000188	NaN
515	1.000000	0.852531	7.37009e+06	-51339.1	1005.82	-29752.7	0.000000	0.000000	6.853088	-0.073395	NaN	0.000000	0.001616	0.001732	28.0815	0.089422	0.002005	44.5969	16.0404	13.0669	-0.029479	0.851145	-0.233197	-0.234583	-0.073395	44.5969	-0.231963	-430.009	0.000171	NaN
515	1.000000	0.862534	7.37009e+06	-51339.1	1005.82	-29752.7	0.000000	0.000000	6.863093	-0.037670	NaN	0.000000	0.001569	0.001717	28.0825	0.049893	0.002017	24.7364	24.436	-166.24	-0.038381	0.861246	-0.223193	-0.224482	-0.037670	24.7364	-0.222051	-299.513	0.000126	NaN
515	1.000000	0.872544	7.37009e+06	-51339.1	1005.82	-29752.7	0.000000	0.000000	6.873102	-0.042900	NaN	0.000000	0.001664	0.001696	28.0828	0.015311	0.002011	7.612041	-61.652	12.5348	-0.150548	0.871127	-0.213184	-0.214600	-0.042900	7.612041	-0.208957	-184.465	0.000233	NaN
515	1.000000	0.882555	7.37009e+06	-51339.1	1005.82	-29752.7	0.000000	0.000000	6.883113	-0.037951	NaN	0.000000	0.001659	0.001726	28.0826	0.073102	0.002054	35.5823	-80.3662	-169.044	0.019855	0.881212	-0.203173	-0.204516	-0.037951	35.5823	-0.202373	-144.089	0.000263	NaN
515	1.000000	0.892526	7.37009e+06	-51339.1	1005.82	-29752.7	0.000000	0.000000	6.893084	-0.046703	NaN	0.000000	0.001689	0.001738	28.0826	0.030425	0.002046	14.8677	32.0159	14.9498	-0.045582	0.891182	-0.193202	-0.194546	-0.046703	14.8677	-0.190846	-92.9274	0.000503	NaN
515	1.000000	0.902557	7.37009e+06	-51339.1	1005.82	-29752.7	0.000000	0.000000	6.903115	-0.050341	NaN	0.000000	0.001713	0.001719	28.0825	0.048553	0.001984	24.4667	52.0643	-166.709	-0.089286	0.901243	-0.183171	-0.184485	-0.050341	24.4667	-0.181627	-65.0299	0.000774	NaN
515	1.000000	0.912531	7.37009e+06	-51339.1	1005.82	-29752.7	0.000000	0.000000	6.913091	-0.011134	NaN	0.000000	0.001689	0.001743	28.0829	0.060462	0.001925	31.408	26.8297	13.8408	-0.071098	0.911215	-0.173197	-0.174512	-0.011134	31.408	-0.172931	-46.1686	0.000241	NaN
515	1.000000	0.922565	7.37009e+06	-51339.1	1005.82	-29752.7	0.000000	0.000000	6.923121	-0.103319	NaN	0.000000	0.001707	0.001700	28.0826	0.054945	0.002037	26.9726	-63.1684	-170.566	0.017424	0.921264	-0.163163	-0.164463	-0.103319	26.9726	-0.160290	-27.7416	0.003724	NaN
515	1.000000	0.932534	7.37009e+06	-51339.1	1005.82	-29752.7	0.000000	0.000000	6.933093	-0.046484	NaN	0.000000	0.001681	0.001708	28.0826	0.050188	0.001933	25.9653	-92.1598	10.0776	-0.110354	0.931163	-0.153193	-0.154565	-0.046484	25.9653	-0.151851	-19.5736	0.002375	NaN
515	1.000000	0.942561	7.37009e+06	-51339.1	1005.82	-29752.7	0.000000	0.000000	6.943117	-0.087519	NaN	0.000000	0.001679	0.001735	28.0827	0.126382	0.002006	63.0081	178.208	-168.302	-0.059151	0.941299	-0.143167	-0.144428	-0.087519	63.0081	-0.142125	-12.9645	0.006751	NaN
515	1.000000	0.952547	7.37009e+06	-51339.1	1005.82	-29752.7	0.000000	0.000000	6.953106	-0.029236	NaN	0.000000	0.001704	0.001742	28.083	0.065710	0.002094	31.3807	100.923	14.323	-0.048439	0.951228	-0.133180	-0.134500	-0.029236	31.3807	-0.132482	-8.511482	0.003435	NaN
515	1.000000	0.962573	7.37009e+06	-51339.1	1005.82	-29752.7	0.000000	0.000000	6.963128	-0.128417	NaN	0.000000	0.001674	0.001751	28.0828	0.090484	0.002004	45.1576	-65.2437	-167.893	-0.120587	0.961281	-0.123155	-0.124447	-0.128417	45.1576	-0.121022	-5.066014	0.025349	NaN
515	1.000000	0.972589	7.37009e+06	-51339.1	1005.82	-29752.7	0.000000	0.000000	6.973144	-0.102654	NaN	0.000000	0.001690	0.001726	28.0828	0.054265	0.001886	28.779	-11.9727	13.5788	-0.115535	0.971189	-0.113139	-0.114539	-0.102654	28.779	-0.110464	-3.073573	0.033399	NaN
515	1.000000	0.982589	7.37009e+06	-51339.1	1005.82	-29752.7	0.000000	0.000000	6.983145	-0.090327	NaN	0.000000	0.001690	0.001722	28.0829	0.035302	0.001903	18.5523	-70.5137	-168.819	-0.120732	0.981192	-0.103139	-0.104536	-0.090327	18.5523	-0.099487	-1.779896	0.050749	NaN
515	1.000000	0.992568	7.37009e+06	-51339.1	1005.82	-29752.7	0.000000	0.000000	6.993126	-0.052012	NaN	0.000000	0.001681	0.001747	28.0817	0.099717	0.001992	50.0549	166.242	17.0338	-0.098600	0.991234	-0.093160	-0.094493	-0.052012	50.0549	-0.092380	-1.228217	0.042347	NaN
515	1.000000	1.002576	7.37009e+06	-51339.1	1005.82	-29752.7	0.000000	0.000000	7.003133	-0.070273	NaN	0.000000	0.001683	0.001727	28.0813	0.066361	0.001970	33.6859	95.3049	-166.433	-0.109309	1.001242	-0.083152	-0.084486	-0.070273	33.6859	-0.081588	-0.677916	0.103660	NaN
515	1.000000	1.012600	7.37009e+06	-51339.1	1005.82	-29752.7	0.000000	0.000000	7.013160	-0.020650	NaN	0.000000	0.001654	0.001727	28.0815	0.051611	0.001948	26.4975	-25.7995	11.8152	-0.144160	1.011265	-0.073127	-0.074463	-0.020650	26.4975	-0.072543	-0.398483	0.051821	NaN
515	1.000000	1.022593	7.37009e+06	-51339.1	1005.82	-29752.7	0.000000	0.000000	7.023153	-0.007093	NaN	0.000000	0.001672	0.001701	28.0815	0.127227	0.001969	64.6043	42.7956	-164.829	-0.033951	1.021293	-0.063135	-0.064435	-0.007093	64.6043	-0.063052	-0.219881	0.032259	NaN
515	1.000000	1.032592	7.37009e+06	-51339.1	1005.82	-29752.7	0.000000	0.000000	7.033147	-0.128895	NaN	0.000000	0.001674	0.001744	28.0815	0.060951	0.001878	32.447	-44.2764	15.0751	-0.097119	1.031261	-0.053136	-0.054466	-0.128895	32.447	-0.050156	-0.092248	1.397267	NaN
515	1.000000	1.042627	7.37009e+06	-51339.1	1005.82	-29752.7	0.000000	0.000000	7.043184	-0.059463	NaN	0.000000	0.001685	0.001721	28.0813	0.138914	0.002059	67.4633	174.873	-167.979	-0.043866	1.041276	-0.043101	-0.044451	-0.059463	67.4633	-0.042440	-0.053667	1.107999	NaN
515	1.000000	1.052608	7.37009e+06	-51339.1	1005.82	-29752.7	0.000000	0.000000	7.053163	-0.124689	NaN	0.000000	0.001649	0.001746	28.0813	0.048252	0.002049	23.5441	140.252	12.5395	0.016303	1.051224	-0.033119	-0.034504	-0.124689	23.5441	-0.029147	-0.021794	5.721152	NaN
515	1.000000	1.062629	7.37009e+06	-51339.1	1005.82	-29752.7	0.000000	0.000000	7.063187	-0.058356	NaN	0.000000	0.001673	0.001694	28.081	0.025252	0.002158	11.7014	-74.5589	-169.566	-0.047592	1.061318	-0.023099	-0.024410	-0.058356	11.7014	-0.019358	-0.012097	4.824102	NaN
515	1.000000	1.072621	7.37009e+06	-51339.1	1005.82	-29752.7	0.000000	0.000000	7.073180	-0.036322	NaN	0.000000	0.001716	0.001704	28.0811	0.122115	0.002015	60.6013	27.8857	14.1707	-0.138768	1.071231	-0.013106	-0.014496	-0.036322	60.6013	-0.012657	-0.007905	4.594879	NaN
515	1.000000	1.082610	7.37009e+06	-51339.1	1005.82	-29752.7	0.000000	0.000000	7.083194	0.592171	NaN	0.000000	0.001672	0.001706	28.0812	1.050062	0.001993	526.908	14.2537	-167.02	0.104904	1.081340	-0.003118	-0.004388	0.592171	526.908	-0.003961	-0.002754	-215.06	NaN
515	2.000000	1.091658	7.37009e+06	-51339.1	1005.82	-29752.7	0.000000	0.000000	7.092623	9.850602	NaN	0.000000	0.001629	0.001680	28.0815	9.661289	0.001644	5877.06	8.477754	8.315897	8.522214	1.091030	0.005930	0.005302	9.850602	5877.06	0.004673	0.003837	2567.31	86684.5
515	2.000000	1.094188	7.37009e+06	-51339.1	1005.82	-29752.7	0.000000	0.000000	7.095236	11.8799	NaN	0.000000	0.001608	0.001742	28.0813	11.6383	0.001716	6781.38	8.426522	-174.361	11.4481	1.093909	0.008460	0.008181	11.8799	6781.38	0.007146	0.006179	1922.72	78821.4
515	2.000000	1.096656	7.37009e+06	-51339.1	1005.82	-29752.7	0.000000	0.000000	7.097894	16.4849	NaN	0.000000	0.001656	0.001735	28.0812	15.2084	0.001697	8964.21	7.327731	3.460421	15.1564	1.096312	0.010928	0.010584	16.4849	8964.21	0.009549	0.008685	1898.16	87883.9
515	2.000000	1.099146	7.37009e+06	-51339.1	1005.82	-29752.7	0.000000	0.000000	7.100615	22.0914	NaN	0.000000	0.001679	0.001736	28.0814	18.2843	0.001765	10360.7	5.434216	-175.803	21.144	1.098859	0.013418	0.013131	22.0914	10360.7	0.011819	0.011274	1959.45	89148.8
515	2.000000	1.101654	7.37009e+06	-51339.1	1005.82	-29752.7	0.000000	0.000000	7.103407	29.0042	NaN	0.000000	0.001627	0.001739	28.0826	20.2222	0.001774	11400.9	4.564187	5.115738	27.2403	1.101298	0.015926	0.015570	29.0042	11400.9	0.014018	0.013998	2072.01	88039.9
515	2.000000	1.104108	7.37009e+06	-51339.1	1005.82	-29752.7	0.000000	0.000000	7.106038	33.3219	NaN	0.000000	0.001653	0.001735	28.0825	23.7034	0.001726	13731.2	3.424607	-177.782	31.6135	1.103810	0.018380	0.018083	33.3219	13731.2	0.016560	0.017422	1912.63	95045.7
515	2.000000	1.106673	7.37009e+06	-51339.1	1005.82	-29752.7	0.000000	0.000000	7.108889	40.2651	NaN	0.000000	0.001610	0.001768	28.0825	26.4197	0.001772	14912.5	4.449927	1.631423	40.0744	1.106229	0.020945	0.020501	40.2651	14912.5	0.018920	0.020873	1929.02	94303.6
515	2.000000	1.109114	7.37009e+06	-51339.1	1005.82	-29752.7	0.000000	0.000000	7.111564	45.9701	NaN	0.000000	0.001630	0.001754	28.0826	29.6743	0.001770	16762.9	8.077256	176.41	45.4531	1.108844	0.023386	0.023116	45.9701	16762.9	0.021329	0.024674	1863.06	97498.7
515	2.000000	1.111613	7.37009e+06	-51339.1	1005.82	-29752.7	0.000000	0.000000	7.114572	58.3484	NaN	0.000000	0.001652	0.001750	28.0825	30.7801	0.001659	18558.3	1.827480	2.292113	56.4114	1.111289	0.025885	0.025561	58.3484	18558.3	0.023527	0.028390	2055.22	100630
515	2.000000	1.114037	7.37009e+06	-51339.1	1005.82	-29752.7	0.000000	0.000000	7.117254	64.6046	NaN	0.000000	0.001614	0.001782	28.0825	33.9029	0.001716	19757.7	5.797802	176.8	61.8853	1.113815	0.028310	0.028087	64.6046	19757.7	0.025857	0.032594	1982.13	99987.3
515	2.000000	1.116534	7.37009e+06	-51339.1	1005.82	-29752.7	0.000000	0.000000	7.120016	71.0649	NaN	0.000000	0.001590	0.001725	28.0825	37.1162	0.001781	20837.4	2.991338	-0.098245	67.1459	1.116307	0.030806	0.030579	71.0649	20837.4	0.028248	0.037191	1910.79	98718
515	2.000000	1.119077	7.37009e+06	-51339.1	1005.82	-29752.7	0.000000	0.000000	7.123063	83.3194	NaN	0.000000	0.001629	0.001765	28.0826	39.1513	0.001749	22383.8	1.121907	-178.607	81.9001	1.118823	0.033349	0.033095	83.3194	22383.8	0.030557	0.041907	1988.22	99900
515	2.000000	1.121628	7.37009e+06	-51339.1	1005.82	-29752.7	0.000000	0.000000	7.126056	94.0478	NaN	0.000000	0.001635	0.001780	28.0826	41.7165	0.001770	23570.1	5.733818	-3.169795	94.8476	1.121141	0.035900	0.035413	94.0478	23570.1	0.032908	0.046987	2001.59	99345.2
515	2.000000	1.123995	7.37009e+06	-51339.1	1005.82	-29752.7	0.000000	0.000000	7.128797	103.161	NaN	0.000000	0.001639	0.001764	28.0826	43.9219	0.001696	25898.7	5.752601	174.62	97.9173	1.123713	0.038267	0.037985	103.161	25898.7	0.035280	0.052399	1968.75	103368
515	2.000000	1.126534	7.37009e+06	-51339.1	1005.82	-29752.7	0.000000	0.000000	7.131915	117.213	NaN	0.000000	0.001632	0.001733	28.0824	47.4396	0.001774	26745.9	7.465732	-7.116700	112.759	1.126212	0.040807	0.040484	117.213	26745.9	0.037520	0.057776	2028.76	101662
515	2.000000	1.129035	7.37009e+06	-51339.1	1005.82	-29752.7	0.000000	0.000000	7.135001	131.463	NaN	0.000000	0.001665	0.001743	28.0827	49.8492	0.001820	27385.2	3.532505	177.563	130.438	1.128804	0.043307	0.043076	131.463	27385.2	0.039707	0.063273	2077.72	99467.4
515	2.000000	1.131601	7.37009e+06	-51339.1	1005.82	-29752.7	0.000000	0.000000	7.138072	143.718	NaN	0.000000	0.001658	0.001719	28.0825	51.6589	0.001744	29628.5	2.406886	-2.160952	142.017	1.131248	0.045874	0.045521	143.718	29628.5	0.042236	0.069934	2055.06	102362
515	2.000000	1.134074	7.37009e+06	-51339.1	1005.82	-29752.7	0.000000	0.000000	7.141123	157.78	NaN	0.000000	0.001643	0.001663	28.0826	54.1234	0.001767	30625.3	6.654541	173.274	157.45	1.133743	0.048346	0.048016	157.78	30625.3	0.044482	0.076124	2072.66	101413
515	2.000000	1.136575	7.37009e+06	-51339.1	1005.82	-29752.7	0.000000	0.000000	7.144134	170.183	NaN	0.000000	0.001597	0.001692	28.0811	57.7273	0.001815	31809.7	4.391786	-4.741952	169.975	1.136189	0.050847	0.050462	170.183	31809.7	0.046835	0.082881	2053.35	100950
515	2.000000	1.139113	7.37009e+06	-51339.1	1005.82	-29752.7	0.000000	0.000000	7.147303	185.538	NaN	0.000000	0.001597	0.001680	28.0815	60.2289	0.001773	33960.5	6.757950	172.884	187.878	1.138700	0.053385	0.052972	185.538	33960.5	0.049288	0.090225	2056.4	103296
515	2.000000	1.141612	7.37009e+06	-51339.1	1005.82	-29752.7	0.000000	0.000000	7.150293	197.476	NaN	0.000000	0.001601	0.001646	28.0812	62.02	0.001868	33198.7	4.465701	-5.564014	196.331	1.141269	0.055885	0.055541	197.476	33198.7	0.051423	0.096863	2038.71	97457.3
515	2.000000	1.144015	7.37009e+06	-51339.1	1005.82	-29752.7	0.000000	0.000000	7.153362	213.657	NaN	0.000000	0.001601	0.001657	28.0813	63.9197	0.001751	36505.2	4.567539	173.528	211.467	1.143726	0.058288	0.057998	213.657	36505.2	0.053898	0.104842	2037.9	103006
515	2.000000	1.146542	7.37009e+06	-51339.1	1005.82	-29752.7	0.000000	0.000000	7.156568	230.179	NaN	0.000000	0.001613	0.001692	28.0814	66.7469	0.001778	37541.8	5.070050	-6.581155	227.25	1.146188	0.060814	0.060460	230.179	37541.8	0.056216	0.112589	2044.42	102221
515	2.000000	1.148995	7.37009e+06	-51339.1	1005.82	-29752.7	0.000000	0.000000	7.159608	244.448	NaN	0.000000	0.001604	0.001718	28.0817	69.1294	0.001762	39240.2	3.092467	174.362	241.144	1.148713	0.063268	0.062985	244.448	39240.2	0.058595	0.120820	2023.24	103142
515	2.000000	1.151513	7.37009e+06	-51339.1	1005.82	-29752.7	0.000000	0.000000	7.162952	264.521	NaN	0.000000	0.001591	0.001682	28.0814	70.9229	0.001878	37756.4	6.146932	-7.442406	260.958	1.151118	0.065786	0.065391	264.521	37756.4	0.060531	0.127720	2071.11	96523.9
515	2.000000	1.154043	7.37009e+06	-51339.1	1005.82	-29752.7	0.000000	0.000000	7.166163	281.105	NaN	0.000000	0.001564	0.001639	28.0815	71.8731	0.001696	42370.7	2.534503	174.573	278.866	1.153756	0.068315	0.068029	281.105	42370.7	0.063339	0.138055	2036.18	104187
515	2.000000	1.156515	7.37009e+06	-51339.1	1005.82	-29752.7	0.000000	0.000000	7.169222	295.379	NaN	0.000000	0.001606	0.001665	28.0813	77.0888	0.001839	41921.1	6.517953	-9.476027	291.384	1.156198	0.070787	0.070470	295.379	41921.1	0.065503	0.146276	2019.33	100143
515	2.000000	1.159064	7.37009e+06	-51339.1	1005.82	-29752.7	0.000000	0.000000	7.172275	307.624	NaN	0.000000	0.001622	0.001659	28.0815	80.1962	0.001900	42199.9	2.257247	174.93	308.952	1.158869	0.073337	0.073142	307.624	42199.9	0.067869	0.155528	1977.93	97764.1
515	2.000000	1.161448	7.37009e+06	-51339.1	1005.82	-29752.7	0.000000	0.000000	7.175542	329.087	NaN	0.000000	0.001615	0.001628	28.0815	82.3804	0.001814	45412.6	7.112324	-10.4044	322.155	1.161127	0.075721	0.075399	329.087	45412.6	0.070286	0.165252	1991.43	102065
515	2.000000	1.164052	7.37009e+06	-51339.1	1005.82	-29752.7	0.000000	0.000000	7.178879	346.9	NaN	0.000000	0.001627	0.001692	28.0815	83.7723	0.001846	45379.2	4.420381	172.206	346.581	1.163684	0.078325	0.077956	346.9	45379.2	0.072591	0.174789	1984.68	99168.4
515	2.000000	1.166523	7.37009e+06	-51339.1	1005.82	-29752.7	0.000000	0.000000	7.182089	364.908	NaN	0.000000	0.001594	0.001689	28.0817	85.6222	0.001802	47518.8	5.214621	-8.852444	360.764	1.166215	0.080795	0.080488	364.908	47518.8	0.075035	0.185172	1970.64	100891
515	2.000000	1.169054	7.37009e+06	-51339.1	1005.82	-29752.7	0.000000	0.000000	7.185250	380.227	NaN	0.000000	0.001639	0.001666	28.0827	87.8067	0.001761	49861.3	2.642475	173.214	379.834	1.168864	0.083326	0.083136	380.227	49861.3	0.077607	0.196399	1935.99	102794
515	2.000000	1.171470	7.37009e+06	-51339.1	1005.82	-29752.7	0.000000	0.000000	7.188543	401.535	NaN	0.000000	0.001619	0.001699	28.0826	89.7596	0.001798	49908.7	4.074113	-8.342989	395.176	1.171124	0.085742	0.085396	401.535	49908.7	0.079708	0.205805	1951.04	100513
515	2.000000	1.174033	7.37009e+06	-51339.1	1005.82	-29752.7	0.000000	0.000000	7.191771	417.709	NaN	0.000000	0.001596	0.001696	28.0827	91.7982	0.001786	51389.4	4.094176	171.527	416.87	1.173813	0.088305	0.088086	417.709	51389.4	0.082209	0.217267	1922.56	100728
515	2.000000	1.176518	7.37009e+06	-51339.1	1005.82	-29752.7	0.000000	0.000000	7.195202	440.727	NaN	0.000000	0.001633	0.001674	28.0828	95.4486	0.001843	51794	5.673501	-9.833189	438.305	1.176069	0.090790	0.090341	440.727	51794	0.084408	0.227587	1936.53	99192.5
515	2.000000	1.179047	7.37009e+06	-51339.1	1005.82	-29752.7	0.000000	0.000000	7.198473	458.761	NaN	0.000000	0.001616	0.001675	28.0824	97.0665	0.001742	55712.3	0.505821	174.567	459.489	1.178721	0.093319	0.092993	458.761	55712.3	0.087143	0.240731	1905.7	103743
515	2.000000	1.181527	7.37009e+06	-51339.1	1005.82	-29752.7	0.000000	0.000000	7.201882	481.35	NaN	0.000000	0.001637	0.001666	28.0827	100.509	0.001875	53591.3	7.143772	-11.4956	477.473	1.181149	0.095799	0.095421	481.35	53591.3	0.089063	0.250163	1924.14	97893.8
515	2.000000	1.184068	7.37009e+06	-51339.1	1005.82	-29752.7	0.000000	0.000000	7.205383	504.684	NaN	0.000000	0.001615	0.001669	28.0825	101.74	0.001711	59478.7	5.637170	169.439	504.915	1.183572	0.098341	0.097844	504.684	59478.7	0.091977	0.264803	1905.88	105602
515	2.000000	1.186441	7.37009e+06	-51339.1	1005.82	-29752.7	0.000000	0.000000	7.208373	519.692	NaN	0.000000	0.001590	0.001683	28.0829	105.427	0.001775	59389.6	3.991424	-9.131823	514.499	1.186191	0.100713	0.100463	519.692	59389.6	0.094150	0.275977	1883.1	103287
515	2.000000	1.188949	7.37009e+06	-51339.1	1005.82	-29752.7	0.000000	0.000000	7.212050	548.133	NaN	0.000000	0.001620	0.001669	28.0823	108.602	0.001918	56620.5	5.184025	170.245	544.392	1.188653	0.103221	0.102925	548.133	56620.5	0.095960	0.285447	1920.26	96824.2
515	2.000000	1.190082	7.3701e+06	-51339.1	1005.82	-29752.7	0.000000	0.000000	7.213379	552.902	NaN	0.000000	0.001611	0.001629	28.0826	108.882	0.001938	56195.3	4.383739	171.141	555.817	1.189738	0.104354	0.104011	552.902	56195.3	0.096975	0.290819	1901.19	95205.4