File: remote_trans/data/nanoindenter/0828-1/data/Data_2025-08-06,11h17m57s/2025-07-22_16-23-58_1_1009.txt
2025-07-22, 16:23:58, 1
Index	Phase	Displacement	Time	Pos X	Pos Y	Pos Z	Rot A	Rot B	Piezo Z	Force A	Force B	Gripper	Voltage A	Voltage B	Temperature	Amplitude force	Amplitude pos	Stiffness	Phase shift	Phase excitation	Force A raw	Displacement raw	HMax	HMax raw	Real Force	Real Stiffness	Contact Depth	Area	Hardness	Reduced Mod.
[#]	[#]	[um]	[s]	[um]	[um]	[um]	[m°]	[m°]	[um]	[uN]	[uN]	[V]	[V]	[V]	[°C]	[uN]	[um]	[N/m]	[°]	[°]	[uN]	[um]	[um]	[um]	[uN]	[N/m]	[um]	[um^2]	[MPa]	[MPa]
1009	1.000000	0.002299	7.37492e+06	-50589.1	1055.82	-29755.1	0.000000	0.000000	6.002793	0.008750	NaN	0.000000	0.001606	0.001743	28.0839	0.113573	0.000975	116.507	42.2344	-162.064	-0.045301	0.001117	-1.171324	-1.172506	0.008750	116.507	-1.171380	-4.543414E+15	-1.925902E-18	NaN
1009	1.000000	0.012375	7.37492e+06	-50589.1	1055.82	-29755.1	0.000000	0.000000	6.012870	0.031353	NaN	0.000000	0.001583	0.001769	28.0839	0.076484	0.001209	63.2541	161.908	16.1164	0.046982	0.010921	-1.161248	-1.162702	0.031353	63.2541	-1.161620	-3.361861E+15	-9.326049E-18	NaN
1009	1.000000	0.022251	7.37492e+06	-50589.1	1055.82	-29755.1	0.000000	0.000000	6.022749	0.106128	NaN	0.000000	0.001558	0.001754	28.0838	0.081994	0.001538	53.2955	-39.3038	-168.827	0.057259	0.020940	-1.151372	-1.152683	0.106128	53.2955	-1.152865	-2.565864E+15	-4.136142E-17	NaN
1009	1.000000	0.032232	7.37492e+06	-50589.1	1055.82	-29755.1	0.000000	0.000000	6.032724	-0.023991	NaN	0.000000	0.001609	0.001763	28.0835	0.093799	0.002054	45.6762	-141.65	15.107	0.043437	0.030891	-1.141392	-1.142732	-0.023991	45.6762	-1.140998	-1.778761E+15	1.348769E-17	NaN
1009	1.000000	0.042234	7.37492e+06	-50589.1	1055.82	-29755.1	0.000000	0.000000	6.042733	0.131372	NaN	0.000000	0.001615	0.001731	28.0828	0.140745	0.002051	68.6242	-165.964	-164.342	0.120904	0.040884	-1.131389	-1.132739	0.131372	68.6242	-1.132825	-1.382006E+15	-9.505886E-17	NaN
1009	1.000000	0.052254	7.37492e+06	-50589.1	1055.82	-29755.1	0.000000	0.000000	6.052750	0.068888	NaN	0.000000	0.001645	0.001751	28.0828	0.024725	0.001865	13.2552	-121.889	12.5064	-0.024133	0.050925	-1.121369	-1.122698	0.068888	13.2552	-1.125267	-1.094300E+15	-6.295171E-17	NaN
1009	1.000000	0.062243	7.37492e+06	-50589.1	1055.82	-29755.1	0.000000	0.000000	6.062739	0.089779	NaN	0.000000	0.001654	0.001763	28.0825	0.032343	0.002034	15.9016	-73.6307	-161.775	0.075457	0.060960	-1.111381	-1.112664	0.089779	15.9016	-1.115615	-8.121559E+14	-1.105447E-16	NaN
1009	1.000000	0.072260	7.37492e+06	-50589.1	1055.82	-29755.1	0.000000	0.000000	6.072753	0.000298	NaN	0.000000	0.001722	0.001767	28.0826	0.040809	0.001997	20.4324	-123.729	13.8577	-0.007802	0.070910	-1.101363	-1.102713	0.000298	20.4324	-1.101374	-5.230157E+14	-5.701490E-19	NaN
1009	1.000000	0.082289	7.37492e+06	-50589.1	1055.82	-29755.1	0.000000	0.000000	6.082786	0.073986	NaN	0.000000	0.001730	0.001798	28.0825	0.014520	0.001958	7.415635	164.918	-161.907	0.108702	0.080889	-1.091334	-1.092734	0.073986	7.415635	-1.098817	-4.832617E+14	-1.530965E-16	NaN
1009	1.000000	0.092296	7.37492e+06	-50589.1	1055.82	-29755	0.000000	0.000000	6.092793	0.079294	NaN	0.000000	0.001738	0.001740	28.0828	0.094955	0.001970	48.1931	-58.1051	14.288	0.003257	0.090902	-1.081327	-1.082721	0.079294	48.1931	-1.082561	-2.923580E+14	-2.712218E-16	NaN
1009	1.000000	0.102265	7.37492e+06	-50589.1	1055.82	-29755	0.000000	0.000000	6.102758	-0.007826	NaN	0.000000	0.001743	0.001759	28.0827	0.089796	0.001978	45.3959	53.6701	-167.495	0.019665	0.100932	-1.071359	-1.072692	-0.007826	45.3959	-1.071229	-2.059227E+14	3.800377E-17	NaN
1009	1.000000	0.112273	7.37492e+06	-50589.1	1055.82	-29755	0.000000	0.000000	6.112765	-0.030780	NaN	0.000000	0.001729	0.001728	28.0835	0.097630	0.002086	46.7922	-140.588	13.5284	0.039474	0.110894	-1.061350	-1.062730	-0.030780	46.7922	-1.060857	-1.493947E+14	2.060340E-16	NaN
1009	1.000000	0.122265	7.37492e+06	-50589.1	1055.82	-29755	0.000000	0.000000	6.122759	0.018247	NaN	0.000000	0.001714	0.001756	28.0826	0.043068	0.001906	22.5949	91.3192	-163.302	-0.013491	0.120996	-1.051358	-1.052627	0.018247	22.5949	-1.051964	-1.134523E+14	-1.608375E-16	NaN
1009	1.000000	0.132298	7.37492e+06	-50589.1	1055.82	-29755	0.000000	0.000000	6.132796	0.101321	NaN	0.000000	0.001737	0.001748	28.0828	0.037943	0.001987	19.0968	83.7428	14.8595	0.190785	0.130934	-1.041325	-1.042690	0.101321	19.0968	-1.045304	-9.231772E+13	-1.097523E-15	NaN
1009	1.000000	0.142322	7.37492e+06	-50589.1	1055.82	-29755	0.000000	0.000000	6.142817	0.027444	NaN	0.000000	0.001708	0.001787	28.0829	0.081816	0.002166	37.7681	-97.3822	-169.591	0.099669	0.140983	-1.031301	-1.032640	0.027444	37.7681	-1.031846	-6.085674E+13	-4.509654E-16	NaN
1009	1.000000	0.152269	7.37492e+06	-50589.1	1055.82	-29755	0.000000	0.000000	6.152765	0.065684	NaN	0.000000	0.001709	0.001798	28.0832	0.139798	0.001856	75.3119	99.8013	13.8251	0.003152	0.150911	-1.021354	-1.022712	0.065684	75.3119	-1.022009	-4.487217E+13	-1.463810E-15	NaN
1009	1.000000	0.162321	7.37492e+06	-50589.1	1055.82	-29755	0.000000	0.000000	6.162814	0.005483	NaN	0.000000	0.001712	0.001793	28.0828	0.147040	0.002111	69.6413	114.563	-164.95	0.051916	0.160983	-1.011302	-1.012640	0.005483	69.6413	-1.011361	-3.226297E+13	-1.699496E-16	NaN
1009	1.000000	0.172302	7.37492e+06	-50589.1	1055.82	-29755	0.000000	0.000000	6.172797	0.057381	NaN	0.000000	0.001679	0.001773	28.0829	0.085200	0.002072	41.1243	172.667	12.848	0.105395	0.170945	-1.001321	-1.002678	0.057381	41.1243	-1.002368	-2.441453E+13	-2.350261E-15	NaN
1009	1.000000	0.182320	7.37492e+06	-50589.1	1055.82	-29755	0.000000	0.000000	6.182813	-0.003169	NaN	0.000000	0.001680	0.001734	28.0846	0.108525	0.002035	53.3364	157.621	-165.475	-0.036337	0.180998	-0.991303	-0.992626	-0.003169	53.3364	-0.991259	-1.730065E+13	1.831706E-16	NaN
1009	1.000000	0.192341	7.37492e+06	-50589.1	1055.82	-29755	0.000000	0.000000	6.192838	0.087716	NaN	0.000000	0.001704	0.001766	28.084	0.122796	0.001908	64.3742	-95.5458	13.8143	0.036271	0.190917	-0.981282	-0.982707	0.087716	64.3742	-0.982304	-1.310539E+13	-6.693102E-15	NaN
1009	1.000000	0.202289	7.37492e+06	-50589.1	1055.82	-29755	0.000000	0.000000	6.202785	0.059366	NaN	0.000000	0.001710	0.001770	28.0856	0.105054	0.001954	53.7659	-131.381	-165.026	0.047778	0.201022	-0.971334	-0.972602	0.059366	53.7659	-0.972162	-9.567514E+12	-6.204944E-15	NaN
1009	1.000000	0.212330	7.37492e+06	-50589.1	1055.82	-29755	0.000000	0.000000	6.212824	0.004269	NaN	0.000000	0.001712	0.001773	28.0838	0.056348	0.002107	26.7496	93.4808	13.0479	0.055386	0.210941	-0.961293	-0.962682	0.004269	26.7496	-0.961413	-6.853552E+12	-6.228449E-16	NaN
1009	1.000000	0.222338	7.37492e+06	-50589.1	1055.82	-29755	0.000000	0.000000	6.222832	0.006812	NaN	0.000000	0.001725	0.001788	28.0842	0.122567	0.001940	63.1675	46.2095	-167.615	-0.020573	0.221034	-0.951285	-0.952589	0.006812	63.1675	-0.951366	-5.017075E+12	-1.357695E-15	NaN
1009	1.000000	0.232347	7.37492e+06	-50589.1	1055.82	-29755	0.000000	0.000000	6.232841	0.022740	NaN	0.000000	0.001668	0.001768	28.0838	0.062494	0.002143	29.1679	132.754	13.5889	0.069063	0.231018	-0.941276	-0.942605	0.022740	29.1679	-0.941861	-3.734587E+12	-6.088916E-15	NaN
1009	1.000000	0.242347	7.37492e+06	-50589.1	1055.82	-29755	0.000000	0.000000	6.242841	0.018035	NaN	0.000000	0.001638	0.001790	28.0839	0.096080	0.001977	48.6102	-130.856	-166.424	0.018484	0.241048	-0.931276	-0.932575	0.018035	48.6102	-0.931554	-2.711289E+12	-6.651954E-15	NaN
1009	1.000000	0.252347	7.37492e+06	-50589.1	1055.82	-29755	0.000000	0.000000	6.252843	0.067763	NaN	0.000000	0.001630	0.001815	28.0839	0.076166	0.002004	38.0054	8.121478	12.6923	0.095533	0.250986	-0.921276	-0.922637	0.067763	38.0054	-0.922613	-2.053476E+12	-3.299905E-14	NaN
1009	1.000000	0.262313	7.37492e+06	-50589.1	1055.82	-29755	0.000000	0.000000	6.262807	0.014694	NaN	0.000000	0.001631	0.001743	28.0839	0.097303	0.001933	50.3347	-173.574	-166.722	-0.004828	0.261031	-0.911310	-0.912592	0.014694	50.3347	-0.911529	-1.454831E+12	-1.010019E-14	NaN
1009	1.000000	0.272337	7.37492e+06	-50589.1	1055.82	-29755	0.000000	0.000000	6.272832	0.057844	NaN	0.000000	0.001616	0.001790	28.0838	0.116656	0.001933	60.3597	130.24	15.6565	0.035204	0.270962	-0.901287	-0.902661	0.057844	60.3597	-0.902006	-1.081845E+12	-5.346813E-14	NaN
1009	1.000000	0.282370	7.37492e+06	-50589.1	1055.82	-29755	0.000000	0.000000	6.282863	-0.007059	NaN	0.000000	0.001594	0.001745	28.0837	0.019827	0.002108	9.405711	-74.0149	-167.301	-0.049547	0.281038	-0.891253	-0.892586	-0.007059	9.405711	-0.890690	-7.607592E+11	9.279463E-15	NaN
1009	1.000000	0.292394	7.37492e+06	-50589.1	1055.82	-29755	0.000000	0.000000	6.292888	0.026144	NaN	0.000000	0.001627	0.001771	28.0842	0.135151	0.002022	66.8298	38.0936	14.2087	0.008346	0.291036	-0.881229	-0.882588	0.026144	66.8298	-0.881523	-5.718702E+11	-4.571597E-14	NaN
1009	1.000000	0.302383	7.37492e+06	-50589.1	1055.82	-29755	0.000000	0.000000	6.302877	0.022729	NaN	0.000000	0.001651	0.001750	28.084	0.056366	0.002003	28.1475	-106.985	-165.329	0.037744	0.301024	-0.871240	-0.872599	0.022729	28.1475	-0.871846	-4.230774E+11	-5.372406E-14	NaN
1009	1.000000	0.312382	7.37492e+06	-50589.1	1055.82	-29755	0.000000	0.000000	6.312878	0.075152	NaN	0.000000	0.001659	0.001747	28.0838	0.038318	0.002030	18.874	-82.1163	13.8105	0.090509	0.310959	-0.861242	-0.862664	0.075152	18.874	-0.864228	-3.336890E+11	-2.252150E-13	NaN
1009	1.000000	0.322345	7.37492e+06	-50589.1	1055.82	-29755	0.000000	0.000000	6.322839	0.017166	NaN	0.000000	0.001638	0.001792	28.0827	0.073171	0.002015	36.3141	-133.66	-164.288	0.007681	0.321063	-0.851278	-0.852560	0.017166	36.3141	-0.851633	-2.253446E+11	-7.617724E-14	NaN
1009	1.000000	0.332367	7.37492e+06	-50589.1	1055.82	-29755	0.000000	0.000000	6.332865	0.114361	NaN	0.000000	0.001665	0.001796	28.0827	0.067024	0.001948	34.3999	167.428	13.7053	0.074716	0.330953	-0.841256	-0.842670	0.114361	34.3999	-0.843749	-1.762321E+11	-6.489236E-13	NaN
1009	1.000000	0.342371	7.37492e+06	-50589.1	1055.82	-29755	0.000000	0.000000	6.342866	0.051374	NaN	0.000000	0.001702	0.001755	28.0828	0.031605	0.002001	15.7943	-117.674	-168.205	0.117774	0.341066	-0.831253	-0.832557	0.051374	15.7943	-0.833692	-1.287731E+11	-3.989465E-13	NaN
1009	1.000000	0.352390	7.37492e+06	-50589.1	1055.82	-29755	0.000000	0.000000	6.352882	-0.020776	NaN	0.000000	0.001669	0.001784	28.0826	0.009503	0.002082	4.563711	-139.524	14.5803	-0.165539	0.351043	-0.821233	-0.822580	-0.020776	4.563711	-0.817819	-7.845700E+10	2.648078E-13	NaN
1009	1.000000	0.362367	7.37492e+06	-50589.1	1055.82	-29755	0.000000	0.000000	6.362864	0.079493	NaN	0.000000	0.001701	0.001769	28.0831	0.143709	0.001964	73.1652	-156.67	-165.477	0.069547	0.361053	-0.811256	-0.812570	0.079493	73.1652	-0.812071	-6.556428E+10	-1.212446E-12	NaN
1009	1.000000	0.372404	7.37492e+06	-50589.1	1055.82	-29755	0.000000	0.000000	6.372897	0.013744	NaN	0.000000	0.001690	0.001783	28.0828	0.086410	0.001905	45.3659	43.923	14.5217	0.009846	0.370997	-0.801220	-0.802626	0.013744	45.3659	-0.801447	-4.704386E+10	-2.921584E-13	NaN
1009	1.000000	0.382387	7.37492e+06	-50589.1	1055.82	-29755	0.000000	0.000000	6.382883	0.079017	NaN	0.000000	0.001659	0.001771	28.083	0.140432	0.001946	72.1752	47.9624	-166.807	0.042137	0.381111	-0.791236	-0.792512	0.079017	72.1752	-0.792058	-3.507736E+10	-2.252659E-12	NaN
1009	1.000000	0.392396	7.37492e+06	-50589.1	1055.82	-29755	0.000000	0.000000	6.392887	-0.054291	NaN	0.000000	0.001673	0.001774	28.0828	0.110189	0.001925	57.239	-75.5991	15.2422	-0.074258	0.390992	-0.781227	-0.782631	-0.054291	57.239	-0.780516	-2.444775E+10	2.220713E-12	NaN
1009	1.000000	0.402397	7.37492e+06	-50589.1	1055.82	-29755	0.000000	0.000000	6.402888	-0.031426	NaN	0.000000	0.001656	0.001783	28.0831	0.073628	0.002094	35.1572	36.7673	-162.277	0.070287	0.401047	-0.771227	-0.772577	-0.031426	35.1572	-0.770556	-1.790072E+10	1.755578E-12	NaN
1009	1.000000	0.412417	7.37492e+06	-50589.1	1055.82	-29755	0.000000	0.000000	6.412912	0.064972	NaN	0.000000	0.001668	0.001786	28.0827	0.037609	0.002060	18.2534	-120.232	17.1381	0.086337	0.411041	-0.761207	-0.762582	0.064972	18.2534	-0.763876	-1.452210E+10	-4.473976E-12	NaN
1009	1.000000	0.422421	7.37492e+06	-50589.1	1055.82	-29755	0.000000	0.000000	6.422914	0.012963	NaN	0.000000	0.001681	0.001793	28.0827	0.054791	0.002048	26.7491	19.5171	-166.184	-0.052606	0.421128	-0.751203	-0.752496	0.012963	26.7491	-0.751566	-9.875008E+9	-1.312714E-12	NaN
1009	1.000000	0.432431	7.37492e+06	-50589.1	1055.82	-29755	0.000000	0.000000	6.432926	0.059278	NaN	0.000000	0.001676	0.001757	28.0828	0.063111	0.002083	30.3018	-64.3429	13.7038	0.046279	0.431069	-0.741193	-0.742554	0.059278	30.3018	-0.742660	-7.469324E+9	-7.936209E-12	NaN
1009	1.000000	0.442406	7.37492e+06	-50589.1	1055.82	-29755	0.000000	0.000000	6.442901	0.038873	NaN	0.000000	0.001653	0.001761	28.0826	0.088012	0.001927	45.6661	-79.7423	-166.45	0.027840	0.441058	-0.731217	-0.732565	0.038873	45.6661	-0.731856	-5.322253E+9	-7.303793E-12	NaN
1009	1.000000	0.452435	7.37492e+06	-50589.1	1055.82	-29755	0.000000	0.000000	6.452930	0.056346	NaN	0.000000	0.001694	0.001775	28.0839	0.071233	0.001984	35.9116	127.784	11.4716	0.103021	0.451076	-0.721189	-0.722548	0.056346	35.9116	-0.722366	-3.951224E+9	-1.426040E-11	NaN
1009	1.000000	0.462408	7.37492e+06	-50589.1	1055.82	-29755	0.000000	0.000000	6.462904	0.069798	NaN	0.000000	0.001668	0.001767	28.0837	0.095574	0.001867	51.188	-49.7044	-167.751	0.028341	0.461100	-0.711215	-0.712523	0.069798	51.188	-0.712238	-2.874656E+9	-2.428042E-11	NaN
1009	1.000000	0.472438	7.37492e+06	-50589.1	1055.82	-29755	0.000000	0.000000	6.472932	0.031406	NaN	0.000000	0.001681	0.001797	28.084	0.010894	0.001941	5.612684	73.1163	14.402	0.052722	0.471060	-0.701186	-0.702563	0.031406	5.612684	-0.705382	-2.317504E+9	-1.355152E-11	NaN
1009	1.000000	0.482406	7.37492e+06	-50589.1	1055.82	-29755	0.000000	0.000000	6.482901	0.041722	NaN	0.000000	0.001671	0.001806	28.0838	0.108168	0.002026	53.4027	82.3102	-164.187	-0.001494	0.481137	-0.691217	-0.692486	0.041722	53.4027	-0.691803	-1.512008E+9	-2.759388E-11	NaN
1009	1.000000	0.492430	7.37492e+06	-50589.1	1055.82	-29755	0.000000	0.000000	6.492925	0.031652	NaN	0.000000	0.001652	0.001790	28.084	0.079884	0.001987	40.1944	97.2744	17.5071	-0.015455	0.491122	-0.681193	-0.682501	0.031652	40.1944	-0.681784	-1.103053E+9	-2.869531E-11	NaN
1009	1.000000	0.502454	7.37492e+06	-50589.1	1055.82	-29755	0.000000	0.000000	6.502946	-0.011703	NaN	0.000000	0.001673	0.001782	28.084	0.156371	0.001855	84.2805	164.393	-164.114	-0.021654	0.501103	-0.671170	-0.672520	-0.011703	84.2805	-0.671066	-7.869972E+8	1.487036E-11	NaN
1009	1.000000	0.512448	7.37492e+06	-50589.1	1055.82	-29755	0.000000	0.000000	6.512942	0.023133	NaN	0.000000	0.001702	0.001735	28.084	0.065130	0.001934	33.6698	71.5913	15.7933	0.013516	0.511073	-0.661176	-0.662550	0.023133	33.6698	-0.661691	-5.856372E+8	-3.949991E-11	NaN
1009	1.000000	0.522447	7.37492e+06	-50589.1	1055.82	-29755	0.000000	0.000000	6.522941	0.010055	NaN	0.000000	0.001630	0.001795	28.0838	0.091629	0.001892	48.4284	86.1151	-164.98	0.010243	0.521115	-0.651176	-0.652509	0.010055	48.4284	-0.651332	-4.223711E+8	-2.380656E-11	NaN
1009	1.000000	0.532444	7.37492e+06	-50589.1	1055.82	-29755	0.000000	0.000000	6.532939	0.031087	NaN	0.000000	0.001623	0.001759	28.0839	0.034785	0.002172	16.0121	-138.414	14.45	0.036870	0.531084	-0.641179	-0.642539	0.031087	16.0121	-0.642635	-3.209542E+8	-9.685812E-11	NaN
1009	1.000000	0.542474	7.37492e+06	-50589.1	1055.82	-29755	0.000000	0.000000	6.542971	0.089217	NaN	0.000000	0.001619	0.001763	28.0839	0.046321	0.002067	22.4095	-162.857	-164.658	-0.004250	0.541075	-0.631149	-0.632548	0.089217	22.4095	-0.634135	-2.453564E+8	-3.636208E-10	NaN
1009	1.000000	0.552452	7.37492e+06	-50589.1	1055.82	-29755	0.000000	0.000000	6.552947	0.057036	NaN	0.000000	0.001610	0.001796	28.0842	0.048827	0.001909	25.5808	49.47	15.6777	0.022564	0.551091	-0.621172	-0.622532	0.057036	25.5808	-0.622844	-1.716796E+8	-3.322252E-10	NaN
1009	1.000000	0.562482	7.37492e+06	-50589.1	1055.82	-29755	0.000000	0.000000	6.562974	-0.037092	NaN	0.000000	0.001664	0.001765	28.0838	0.084142	0.001939	43.391	-52.1223	-166.143	-0.049376	0.561190	-0.611141	-0.612433	-0.037092	43.391	-0.610500	-1.161438E+8	3.193618E-10	NaN
1009	1.000000	0.572473	7.37492e+06	-50589.1	1055.82	-29755	0.000000	0.000000	6.572968	0.034629	NaN	0.000000	0.001622	0.001782	28.0838	0.098267	0.002040	48.1776	-30.3721	10.899	-0.022703	0.571103	-0.601150	-0.602520	0.034629	48.1776	-0.601689	-8.784687E+7	-3.941919E-10	NaN
1009	1.000000	0.582463	7.37492e+06	-50589.1	1055.82	-29755	0.000000	0.000000	6.582958	0.042258	NaN	0.000000	0.001635	0.001765	28.0839	0.128699	0.001964	65.5143	-102.241	-164.54	0.075448	0.581174	-0.591160	-0.592449	0.042258	65.5143	-0.591644	-6.387441E+7	-6.615804E-10	NaN
1009	1.000000	0.592469	7.37492e+06	-50589.1	1055.82	-29755	0.000000	0.000000	6.592964	0.031388	NaN	0.000000	0.001671	0.001757	28.0827	0.069306	0.002110	32.8514	132.905	15.4633	-0.016393	0.591093	-0.581154	-0.582530	0.031388	32.8514	-0.581871	-4.683185E+7	-6.702295E-10	NaN
1009	1.000000	0.602494	7.37492e+06	-50589.1	1055.82	-29755	0.000000	0.000000	6.602989	0.033185	NaN	0.000000	0.001663	0.001753	28.0825	0.140856	0.002049	68.7605	134.74	-166.393	0.062613	0.601210	-0.571129	-0.572413	0.033185	68.7605	-0.571491	-3.366893E+7	-9.856273E-10	NaN
1009	1.000000	0.612491	7.37492e+06	-50589.1	1055.82	-29755	0.000000	0.000000	6.612984	0.010299	NaN	0.000000	0.001668	0.001736	28.0826	0.138911	0.001921	72.3112	-94.4131	15.0265	0.050471	0.611176	-0.561133	-0.562448	0.010299	72.3112	-0.561239	-2.429535E+7	-4.238900E-10	NaN
1009	1.000000	0.622484	7.37492e+06	-50589.1	1055.82	-29755	0.000000	0.000000	6.622980	0.090375	NaN	0.000000	0.001645	0.001730	28.0829	0.077771	0.001925	40.4048	-138.838	-167.811	-0.000703	0.621179	-0.551140	-0.552445	0.090375	40.4048	-0.552817	-1.857685E+7	-4.864902E-9	NaN
1009	1.000000	0.632490	7.37492e+06	-50589.1	1055.82	-29755	0.000000	0.000000	6.632984	0.020337	NaN	0.000000	0.001642	0.001752	28.0829	0.135461	0.002034	66.6137	-70.6738	17.2062	0.018796	0.631134	-0.541133	-0.542489	0.020337	66.6137	-0.541362	-1.288978E+7	-1.577784E-9	NaN
1009	1.000000	0.642506	7.37492e+06	-50589.1	1055.82	-29755	0.000000	0.000000	6.642998	-0.016025	NaN	0.000000	0.001641	0.001739	28.0829	0.036833	0.001863	19.7663	-98.4119	-165.718	0.019441	0.641202	-0.531118	-0.532421	-0.016025	19.7663	-0.530510	-9.11286e+06	1.758456E-9	NaN
1009	1.000000	0.652516	7.37492e+06	-50589.1	1055.82	-29755	0.000000	0.000000	6.653013	0.089692	NaN	0.000000	0.001650	0.001733	28.083	0.042571	0.002057	20.6935	169.373	12.9075	0.074006	0.651101	-0.521107	-0.522522	0.089692	20.6935	-0.524358	-7.48489e+06	-1.198310E-8	NaN
1009	1.000000	0.662492	7.37492e+06	-50589.1	1055.82	-29755	0.000000	0.000000	6.662986	0.033590	NaN	0.000000	0.001674	0.001780	28.0828	0.073460	0.001934	37.989	95.6895	-163.285	-0.015894	0.661165	-0.511132	-0.512458	0.033590	37.989	-0.511795	-5.0051e+06	-6.711235E-9	NaN
1009	1.000000	0.672519	7.37492e+06	-50589.1	1055.82	-29755	0.000000	0.000000	6.673012	0.002726	NaN	0.000000	0.001659	0.001716	28.0828	0.033519	0.002125	15.7769	-36.3395	14.4926	-0.181763	0.671121	-0.501105	-0.502502	0.002726	15.7769	-0.501234	-3.56644e+06	-7.642404E-10	NaN
1009	1.000000	0.682497	7.37492e+06	-50589.1	1055.82	-29755	0.000000	0.000000	6.682989	-0.015779	NaN	0.000000	0.001596	0.001657	28.0828	0.049157	0.001954	25.1517	26.2401	-164.593	0.031166	0.681217	-0.491127	-0.492406	-0.015779	25.1517	-0.490656	-2.5384e+06	6.216224E-9	NaN
1009	1.000000	0.692511	7.37492e+06	-50589.1	1055.82	-29755	0.000000	0.000000	6.693007	0.065997	NaN	0.000000	0.001629	0.001675	28.0828	0.069505	0.001843	37.7225	83.6039	15.8863	-0.014462	0.691165	-0.481113	-0.482459	0.065997	37.7225	-0.482425	-1.94744e+06	-3.388909E-8	NaN
1009	1.000000	0.702528	7.37492e+06	-50589.1	1055.82	-29755	0.000000	0.000000	6.703020	-0.023983	NaN	0.000000	0.001620	0.001680	28.0828	0.010069	0.001982	5.079212	119.496	-165.842	0.067183	0.701181	-0.471096	-0.472442	-0.023983	5.079212	-0.467554	-1.20531e+06	1.989765E-8	NaN
1009	1.000000	0.712538	7.37492e+06	-50589.1	1055.82	-29755	0.000000	0.000000	6.713032	-0.001015	NaN	0.000000	0.001674	0.001682	28.0827	0.032646	0.001871	17.4437	125.252	14.5073	0.020981	0.711186	-0.461085	-0.462437	-0.001015	17.4437	-0.461041	-976448	1.039149E-9	NaN
1009	1.000000	0.722544	7.37492e+06	-50589.1	1055.82	-29755	0.000000	0.000000	6.723040	0.067111	NaN	0.000000	0.001705	0.001683	28.0828	0.060971	0.002099	29.0418	-167.48	-168.296	0.073177	0.721215	-0.451080	-0.452408	0.067111	29.0418	-0.452813	-748069	-8.971173E-8	NaN
1009	1.000000	0.732511	7.37492e+06	-50589.1	1055.82	-29755	0.000000	0.000000	6.733007	0.062635	NaN	0.000000	0.001662	0.001698	28.0838	0.029458	0.002054	14.3383	58.1406	11.4382	0.126174	0.731191	-0.441112	-0.442432	0.062635	14.3383	-0.444389	-569212	-1.100387E-7	NaN
1009	1.000000	0.742550	7.37492e+06	-50589.1	1055.82	-29755	0.000000	0.000000	6.743045	0.053672	NaN	0.000000	0.001691	0.001694	28.0836	0.096456	0.001946	49.5553	-56.9878	-169.97	0.033521	0.741218	-0.431074	-0.432405	0.053672	49.5553	-0.431886	-379087	-1.415835E-7	NaN
1009	1.000000	0.752552	7.37492e+06	-50589.1	1055.82	-29755	0.000000	0.000000	6.753047	0.039066	NaN	0.000000	0.001691	0.001711	28.0836	0.092396	0.002141	43.1514	172.206	14.4324	0.069561	0.751153	-0.421071	-0.422470	0.039066	43.1514	-0.421750	-272414	-1.434065E-7	NaN
1009	1.000000	0.762568	7.37492e+06	-50589.1	1055.82	-29755	0.000000	0.000000	6.763061	-0.015239	NaN	0.000000	0.001684	0.001703	28.0839	0.041152	0.001964	20.951	146.189	-165.109	0.061290	0.761233	-0.411055	-0.412390	-0.015239	20.951	-0.410510	-188646	8.078315E-8	NaN
1009	1.000000	0.772571	7.37492e+06	-50589.1	1055.82	-29755	0.000000	0.000000	6.773068	0.073794	NaN	0.000000	0.001689	0.001677	28.0834	0.011313	0.002026	5.582863	147.228	13.9865	0.108171	0.771185	-0.401052	-0.402439	0.073794	5.582863	-0.410965	-191482	-3.853842E-7	NaN
1009	1.000000	0.782549	7.37492e+06	-50589.1	1055.82	-29755	0.000000	0.000000	6.783043	0.015660	NaN	0.000000	0.001662	0.001698	28.084	0.012481	0.002091	5.968057	-93.2228	-164.34	0.020438	0.781239	-0.391074	-0.392384	0.015660	5.968057	-0.393042	-106332	-1.472724E-7	NaN
1009	1.000000	0.792547	7.37492e+06	-50589.1	1055.82	-29755	0.000000	0.000000	6.793041	0.042723	NaN	0.000000	0.001678	0.001694	28.0838	0.077837	0.002058	37.8245	-55.0274	11.91	0.027982	0.791145	-0.381077	-0.382478	0.042723	37.8245	-0.381924	-73703.9	-5.796557E-7	NaN
1009	1.000000	0.802575	7.37492e+06	-50589.1	1055.82	-29755	0.000000	0.000000	6.803070	0.063781	NaN	0.000000	0.001646	0.001676	28.0843	0.034465	0.001819	18.952	146.074	-166.054	0.098878	0.801240	-0.371049	-0.372383	0.063781	18.952	-0.373573	-55917.4	-1.140634E-6	NaN
1009	1.000000	0.812572	7.37492e+06	-50589.1	1055.82	-29755	0.000000	0.000000	6.813065	0.015178	NaN	0.000000	0.001696	0.001715	28.0838	0.023771	0.001994	11.9226	-16.1216	12.9463	0.053453	0.811164	-0.361052	-0.362459	0.015178	11.9226	-0.362006	-38092.4	-3.984420E-7	NaN
1009	1.000000	0.822591	7.37492e+06	-50589.1	1055.82	-29755	0.000000	0.000000	6.823086	0.038979	NaN	0.000000	0.001766	0.001680	28.0838	0.075572	0.001882	40.1611	-1.397241	-163.886	0.067306	0.821288	-0.351033	-0.352335	0.038979	40.1611	-0.351760	-27073.4	-1.439739E-6	NaN
1009	1.000000	0.832596	7.37492e+06	-50589.1	1055.82	-29755	0.000000	0.000000	6.833090	0.033897	NaN	0.000000	0.001773	0.001695	28.0838	0.063187	0.002019	31.3009	-29.4778	13.2589	0.114138	0.831204	-0.341028	-0.342419	0.033897	31.3009	-0.341840	-19425	-1.745035E-6	NaN
1009	1.000000	0.842575	7.37492e+06	-50589.1	1055.82	-29755	0.000000	0.000000	6.843068	0.003061	NaN	0.000000	0.001766	0.001673	28.0841	0.043956	0.001963	22.3961	18.3228	-164.2	0.073973	0.841247	-0.331049	-0.332377	0.003061	22.3961	-0.331151	-13561.5	-2.256836E-7	NaN
1009	1.000000	0.852600	7.37492e+06	-50589.1	1055.82	-29755	0.000000	0.000000	6.853093	0.000783	NaN	0.000000	0.001741	0.001670	28.0836	0.045493	0.002009	22.6396	-100.493	14.66	-0.059298	0.851232	-0.321023	-0.322391	0.000783	22.6396	-0.321049	-9640	-8.120175E-8	NaN
1009	1.000000	0.862583	7.37492e+06	-50589.1	1055.82	-29755	0.000000	0.000000	6.863076	-0.005240	NaN	0.000000	0.001728	0.001680	28.083	0.030452	0.001980	15.3775	-52.1054	-164.918	0.036377	0.861260	-0.311040	-0.312363	-0.005240	15.3775	-0.310785	-6802.45	7.702372E-7	NaN
1009	1.000000	0.872608	7.37492e+06	-50589.1	1055.82	-29755	0.000000	0.000000	6.873103	0.053405	NaN	0.000000	0.001720	0.001706	28.0829	0.028675	0.001977	14.5074	-7.536886	17.1931	0.057913	0.871235	-0.301015	-0.302389	0.053405	14.5074	-0.303776	-5355.31	-9.972279E-6	NaN
1009	1.000000	0.882610	7.37492e+06	-50589.1	1055.82	-29755	0.000000	0.000000	6.883104	0.011647	NaN	0.000000	0.001702	0.001671	28.0829	0.064280	0.002006	32.0477	142.879	-167.331	-0.023094	0.881293	-0.291013	-0.292330	0.011647	32.0477	-0.291286	-3487.82	-3.339253E-6	NaN
1009	1.000000	0.892593	7.37492e+06	-50589.1	1055.82	-29755	0.000000	0.000000	6.893088	0.034508	NaN	0.000000	0.001704	0.001681	28.0828	0.072954	0.002008	36.3295	44.1697	15.364	0.033495	0.891266	-0.281030	-0.282358	0.034508	36.3295	-0.281742	-2507.49	-1.376198E-5	NaN
1009	1.000000	0.902631	7.37492e+06	-50589.1	1055.82	-29755	0.000000	0.000000	6.903123	-0.025108	NaN	0.000000	0.001719	0.001667	28.0829	0.146627	0.002042	71.8218	74.252	-166.549	0.002474	0.901350	-0.270993	-0.272273	-0.025108	71.8218	-0.270731	-1708.63	1.469464E-5	NaN
1009	1.000000	0.912614	7.37492e+06	-50589.1	1055.82	-29755	0.000000	0.000000	6.913109	0.052843	NaN	0.000000	0.001645	0.001689	28.0828	0.037110	0.001990	18.6503	168.395	16.9736	0.014935	0.911282	-0.261009	-0.262341	0.052843	18.6503	-0.263134	-1308.86	-4.037367E-5	NaN
1009	1.000000	0.922622	7.37492e+06	-50589.1	1055.82	-29755	0.000000	0.000000	6.923117	0.042045	NaN	0.000000	0.001664	0.001671	28.0824	0.013987	0.002035	6.873083	171.257	-164.721	0.063749	0.921345	-0.251001	-0.252278	0.042045	6.873083	-0.255589	-1002.73	-4.193022E-5	NaN
1009	1.000000	0.932627	7.37492e+06	-50589.1	1055.82	-29755	0.000000	0.000000	6.933123	0.064054	NaN	0.000000	0.001644	0.001701	28.0825	0.097400	0.001990	48.9362	-178.41	13.2549	0.103222	0.931289	-0.240996	-0.242334	0.064054	48.9362	-0.241978	-617.187	-0.000104	NaN
1009	1.000000	0.942641	7.37492e+06	-50589.1	1055.82	-29755	0.000000	0.000000	6.943137	0.068849	NaN	0.000000	0.001644	0.001708	28.0827	0.095490	0.001936	49.3147	-124.22	-164.77	0.021503	0.941313	-0.230982	-0.232310	0.068849	49.3147	-0.232029	-431.046	-0.000160	NaN
1009	1.000000	0.952615	7.37492e+06	-50589.1	1055.82	-29755	0.000000	0.000000	6.953108	0.009479	NaN	0.000000	0.001655	0.001702	28.0826	0.132828	0.001907	69.6487	-57.8875	17.3966	-0.049143	0.951335	-0.221009	-0.222288	0.009479	69.6487	-0.221111	-289.346	-3.276034E-5	NaN
1009	1.000000	0.962639	7.37492e+06	-50589.1	1055.82	-29755	0.000000	0.000000	6.963134	0.034777	NaN	0.000000	0.001664	0.001708	28.0826	0.028310	0.002024	13.9853	-76.7739	-166.217	-0.002468	0.961349	-0.210984	-0.212274	0.034777	13.9853	-0.212849	-213.241	-0.000163	NaN
1009	1.000000	0.972618	7.37492e+06	-50589.1	1055.82	-29755	0.000000	0.000000	6.973113	0.051583	NaN	0.000000	0.001712	0.001710	28.0826	0.113961	0.002051	55.5748	-83.7955	19.6224	-0.032213	0.971278	-0.201005	-0.202345	0.051583	55.5748	-0.201702	-140.484	-0.000367	NaN
1009	1.000000	0.982641	7.37492e+06	-50589.1	1055.82	-29755	0.000000	0.000000	6.983135	0.017722	NaN	0.000000	0.001697	0.001712	28.083	0.036153	0.001930	18.7357	14.4565	-165.322	0.022216	0.981402	-0.190982	-0.192221	0.017722	18.7357	-0.191691	-95.9932	-0.000185	NaN
1009	1.000000	0.992647	7.37492e+06	-50589.1	1055.82	-29755	0.000000	0.000000	6.993140	0.008002	NaN	0.000000	0.001651	0.001701	28.0828	0.083284	0.002117	39.3382	-14.2797	15.6874	-0.031298	0.991262	-0.180977	-0.182361	0.008002	39.3382	-0.181129	-63.7762	-0.000125	NaN
1009	1.000000	1.002636	7.37492e+06	-50589.1	1055.82	-29755	0.000000	0.000000	7.003132	0.075267	NaN	0.000000	0.001687	0.001684	28.0843	0.054113	0.001958	27.6432	17.5371	-163.837	-0.012277	1.001321	-0.170988	-0.172303	0.075267	27.6432	-0.173030	-46.3506	-0.001624	NaN
1009	1.000000	1.012676	7.37492e+06	-50589.1	1055.82	-29755	0.000000	0.000000	7.013171	0.041476	NaN	0.000000	0.001653	0.001712	28.0842	0.075461	0.001912	39.4681	-67.215	11.9832	0.014759	1.011254	-0.160947	-0.162370	0.041476	39.4681	-0.161736	-29.4282	-0.001409	NaN
1009	1.000000	1.022662	7.37492e+06	-50589.1	1055.82	-29755	0.000000	0.000000	7.023155	0.002563	NaN	0.000000	0.001665	0.001694	28.0842	0.050786	0.002027	25.0603	-101.983	-166.858	0.019075	1.021388	-0.150961	-0.152236	0.002563	25.0603	-0.151038	-18.9195	-0.000135	NaN
1009	1.000000	1.032647	7.37492e+06	-50589.1	1055.82	-29755	0.000000	0.000000	7.033143	0.078046	NaN	0.000000	0.001686	0.001689	28.0838	0.025586	0.002041	12.5376	12.9156	12.3923	0.039818	1.031242	-0.140977	-0.142381	0.078046	12.5376	-0.145645	-15.0694	-0.005179	NaN
1009	1.000000	1.042659	7.37492e+06	-50589.1	1055.82	-29755	0.000000	0.000000	7.043154	0.038865	NaN	0.000000	0.001655	0.001702	28.084	0.073084	0.002004	36.4635	176.631	-168.252	-0.098840	1.041354	-0.130964	-0.132269	0.038865	36.4635	-0.131763	-8.244325	-0.004714	NaN
1009	1.000000	1.052678	7.37492e+06	-50589.1	1055.82	-29755	0.000000	0.000000	7.053168	-0.072807	NaN	0.000000	0.001762	0.001726	28.0838	0.041789	0.002053	20.3529	-126.598	16.3331	-0.043709	1.051244	-0.120945	-0.122379	-0.072807	20.3529	-0.118262	-4.455345	0.016341	NaN
1009	1.000000	1.062680	7.37492e+06	-50589.1	1055.82	-29755	0.000000	0.000000	7.063176	0.080514	NaN	0.000000	0.001725	0.001696	28.0838	0.101371	0.002046	49.5347	27.6595	-163.585	0.093722	1.061348	-0.110944	-0.112276	0.080514	49.5347	-0.112163	-3.336146	-0.024134	NaN
1009	1.000000	1.072695	7.37492e+06	-50589.1	1055.82	-29755	0.000000	0.000000	7.073189	0.010967	NaN	0.000000	0.001716	0.001733	28.0837	0.020694	0.002029	10.2001	135.045	15.5386	-0.009047	1.071342	-0.100928	-0.102281	0.010967	10.2001	-0.101735	-1.995483	-0.005496	NaN
1009	1.000000	1.082690	7.37492e+06	-50589.1	1055.82	-29755	0.000000	0.000000	7.083185	0.052610	NaN	0.000000	0.001710	0.001729	28.0838	0.090877	0.001996	45.534	73.2364	-164.438	0.032999	1.081353	-0.090934	-0.092270	0.052610	45.534	-0.091800	-1.190769	-0.044182	NaN
1009	1.000000	1.092660	7.37492e+06	-50589.1	1055.82	-29755	0.000000	0.000000	7.093156	0.055389	NaN	0.000000	0.001729	0.001731	28.084	0.078681	0.002148	36.6238	-62.4274	16.982	-0.008184	1.091309	-0.080963	-0.082315	0.055389	36.6238	-0.082097	-0.697862	-0.079370	NaN
1009	1.000000	1.102687	7.37492e+06	-50589.1	1055.82	-29755	0.000000	0.000000	7.103183	0.060978	NaN	0.000000	0.001704	0.001693	28.0837	0.086667	0.001959	44.2348	-77.2142	-160.981	0.148135	1.101418	-0.070936	-0.072205	0.060978	44.2348	-0.071970	-0.384859	-0.158442	NaN
1009	1.000000	1.112721	7.37492e+06	-50589.1	1055.82	-29755	0.000000	0.000000	7.113214	-0.004098	NaN	0.000000	0.001731	0.001729	28.084	0.033003	0.001916	17.2285	70.934	14.8702	-0.034866	1.111379	-0.060902	-0.062245	-0.004098	17.2285	-0.060724	-0.188894	0.021694	NaN
1009	1.000000	1.122708	7.37492e+06	-50589.1	1055.82	-29755	0.000000	0.000000	7.123204	0.059827	NaN	0.000000	0.001743	0.001712	28.0835	0.079911	0.002018	39.5908	-75.6462	-165.042	0.025925	1.121339	-0.050915	-0.052284	0.059827	39.5908	-0.052049	-0.105183	-0.568790	NaN
1009	1.000000	1.132672	7.37492e+06	-50589.1	1055.82	-29755	0.000000	0.000000	7.133167	0.048807	NaN	0.000000	0.001748	0.001712	28.0839	0.072977	0.002046	35.6669	-91.6908	12.7918	0.069297	1.131275	-0.040951	-0.042348	0.048807	35.6669	-0.041977	-0.051949	-0.939506	NaN
1009	1.000000	1.142717	7.37492e+06	-50589.1	1055.82	-29755	0.000000	0.000000	7.143210	0.008890	NaN	0.000000	0.001739	0.001716	28.0823	0.181592	0.002014	90.1742	-56.6205	-164.435	0.058595	1.141395	-0.030906	-0.032228	0.008890	90.1742	-0.030980	-0.024516	-0.362617	NaN
1009	1.000000	1.152702	7.37492e+06	-50589.1	1055.82	-29755	0.000000	0.000000	7.153195	-0.004291	NaN	0.000000	0.001717	0.001749	28.0827	0.008215	0.002000	4.108073	-85.9726	16.7432	0.065723	1.151391	-0.020921	-0.022232	-0.004291	4.108073	-0.020138	-0.012663	0.338910	NaN
1009	1.000000	1.162679	7.37492e+06	-50589.1	1055.82	-29755	0.000000	0.000000	7.163174	0.035849	NaN	0.000000	0.001711	0.001734	28.0825	0.159932	0.002087	76.648	163.774	-162.396	-0.007602	1.161397	-0.010944	-0.012226	0.035849	76.648	-0.011295	-0.007126	-5.030691	NaN
1009	1.000000	1.172695	7.37492e+06	-50589.1	1055.82	-29755	0.000000	0.000000	7.173206	0.433584	NaN	0.000000	0.001745	0.001753	28.0826	0.770809	0.002055	375.052	21.2485	13.9534	0.029998	1.171312	-0.000928	-0.002311	0.433584	375.052	-0.001795	-0.001297	-334.322	NaN
1009	2.000000	1.181265	7.37492e+06	-50589.1	1055.82	-29755	0.000000	0.000000	7.182153	9.610055	NaN	0.000000	0.001648	0.001735	28.0826	9.181667	0.001492	6152.93	3.515146	-170.979	8.956123	1.180859	0.007641	0.007236	9.610055	6152.93	0.006470	0.005515	1742.46	75696.1
1009	2.000000	1.183757	7.37492e+06	-50589.1	1055.82	-29755	0.000000	0.000000	7.184808	13.5691	NaN	0.000000	0.001705	0.001732	28.0831	12.1043	0.001624	7451.97	4.434680	9.727200	13.4933	1.183352	0.010134	0.009728	13.5691	7451.97	0.008768	0.007844	1729.81	76872.1
1009	2.000000	1.186247	7.37492e+06	-50589.1	1055.82	-29755	0.000000	0.000000	7.187341	14.623	NaN	0.000000	0.001743	0.001697	28.0828	14.6814	0.001714	8564.62	5.158150	-173.799	14.9536	1.185932	0.012623	0.012309	14.623	8564.62	0.011343	0.010712	1365.05	75602.9
1009	2.000000	1.188670	7.37492e+06	-50589.1	1055.82	-29755	0.000000	0.000000	7.190059	21.7782	NaN	0.000000	0.001731	0.001745	28.0828	17.6746	0.001659	10653.6	8.050602	1.557510	19.8085	1.188325	0.015047	0.014702	21.7782	10653.6	0.013513	0.013354	1630.85	84230
1009	2.000000	1.191188	7.37492e+06	-50589.1	1055.82	-29755	0.000000	0.000000	7.192639	23.2745	NaN	0.000000	0.001734	0.001721	28.0826	19.5	0.001623	12015.1	7.041753	-178.585	22.3773	1.190824	0.017565	0.017201	23.2745	12015.1	0.016112	0.016797	1385.62	84699.6
1009	2.000000	1.193634	7.37492e+06	-50589.1	1055.82	-29755	0.000000	0.000000	7.195236	26.9508	NaN	0.000000	0.001700	0.001720	28.0831	22.3679	0.001910	11710.5	7.414146	1.950051	24.9956	1.193407	0.020011	0.019784	26.9508	11710.5	0.018285	0.019918	1353.06	75809.1
1009	2.000000	1.196232	7.37492e+06	-50589.1	1055.82	-29755	0.000000	0.000000	7.198059	32.4441	NaN	0.000000	0.001638	0.001723	28.0831	24.7838	0.001969	12589.2	10.7528	-179.292	34.4227	1.195867	0.022609	0.022243	32.4441	12589.2	0.020676	0.023615	1373.87	74847.2
1009	2.000000	1.198679	7.37492e+06	-50589.1	1055.82	-29755	0.000000	0.000000	7.200696	37.0453	NaN	0.000000	0.001677	0.001709	28.0827	26.5162	0.001828	14504	6.946035	1.489056	36.2504	1.198414	0.025056	0.024790	37.0453	14504	0.023140	0.027719	1336.47	79593
1009	2.000000	1.201149	7.37492e+06	-50589.1	1055.82	-29755	0.000000	0.000000	7.203661	49.1023	NaN	0.000000	0.001666	0.001737	28.0827	28.3779	0.001680	16886.6	4.546740	-178.48	46.9903	1.200737	0.027526	0.027114	49.1023	16886.6	0.025345	0.031646	1551.61	86727.2
1009	2.000000	1.203646	7.37492e+06	-50589.1	1055.82	-29755	0.000000	0.000000	7.206171	49.3948	NaN	0.000000	0.001705	0.001694	28.0843	32.4165	0.001786	18151.2	8.258384	-2.970316	47.1912	1.203327	0.030023	0.029703	49.3948	18151.2	0.027982	0.036665	1347.2	86607
1009	2.000000	1.206141	7.37492e+06	-50589.1	1055.82	-29755	0.000000	0.000000	7.208960	56.5644	NaN	0.000000	0.001686	0.001704	28.0843	34.4719	0.001803	19114.3	6.795612	178.461	56.3476	1.205930	0.032518	0.032307	56.5644	19114.3	0.030298	0.041364	1367.48	85865.9
1009	2.000000	1.208692	7.37492e+06	-50589.1	1055.82	-29755	0.000000	0.000000	7.211633	59.5248	NaN	0.000000	0.001705	0.001736	28.0852	36.0304	0.001774	20306	3.985700	0.382892	59.3292	1.208411	0.035069	0.034788	59.5248	20306	0.032870	0.046903	1269.1	85663.4
1009	2.000000	1.211172	7.37492e+06	-50589.1	1055.82	-29755	0.000000	0.000000	7.214695	73.6857	NaN	0.000000	0.001702	0.001682	28.0839	38.1705	0.001781	21430.9	5.679020	179.337	74.0092	1.210780	0.037549	0.037156	73.6857	21430.9	0.034970	0.051676	1425.92	86133
1009	2.000000	1.213639	7.37492e+06	-50589.1	1055.82	-29755	0.000000	0.000000	7.217474	81.2748	NaN	0.000000	0.001658	0.001704	28.0841	40.6937	0.001856	21922.4	4.824702	-0.493256	79.1345	1.213300	0.040016	0.039677	81.2748	21922.4	0.037235	0.057079	1423.91	83834.8
1009	2.000000	1.216089	7.37492e+06	-50589.1	1055.82	-29755	0.000000	0.000000	7.220368	92.0699	NaN	0.000000	0.001650	0.001698	28.0841	43.6889	0.001806	24187.6	3.820588	178.664	88.8643	1.215780	0.042466	0.042156	92.0699	24187.6	0.039611	0.063027	1460.8	88024.2
1009	2.000000	1.218650	7.37492e+06	-50589.1	1055.82	-29755	0.000000	0.000000	7.223431	104.263	NaN	0.000000	0.001683	0.001682	28.0842	45.2438	0.001646	27480.3	4.510585	-2.207695	101.441	1.218333	0.045027	0.044709	104.263	27480.3	0.042181	0.069787	1494.03	95040.3
1009	2.000000	1.221114	7.37492e+06	-50589.1	1055.82	-29755	0.000000	0.000000	7.226194	111.549	NaN	0.000000	0.001674	0.001703	28.0841	47.0338	0.001702	27629.3	0.053600	-177.955	110.048	1.220834	0.047491	0.047210	111.549	27629.3	0.044463	0.076070	1466.4	91524.4
1009	2.000000	1.223536	7.37492e+06	-50589.1	1055.82	-29755	0.000000	0.000000	7.228786	115.669	NaN	0.000000	0.001641	0.001703	28.0842	50.3693	0.001606	31356.8	0.932474	-0.302290	110.344	1.223298	0.049913	0.049675	115.669	31356.8	0.047146	0.083797	1380.35	98967.1
1009	2.000000	1.226153	7.37492e+06	-50589.1	1055.82	-29755	0.000000	0.000000	7.231786	124.99	NaN	0.000000	0.001647	0.001743	28.0843	55.5989	0.001838	30242.4	6.064680	175.399	126.887	1.225890	0.052529	0.052267	124.99	30242.4	0.049430	0.090659	1378.69	91766.6
1009	2.000000	1.228524	7.37492e+06	-50589.1	1055.82	-29755	0.000000	0.000000	7.234908	143.253	NaN	0.000000	0.001670	0.001721	28.0841	56.1825	0.001701	33026.4	2.930393	-1.865410	136.047	1.228263	0.054900	0.054640	143.253	33026.4	0.051647	0.097573	1468.17	96598.4
1009	2.000000	1.231047	7.37492e+06	-50589.1	1055.82	-29755	0.000000	0.000000	7.237858	153.631	NaN	0.000000	0.001709	0.001719	28.0839	58.6702	0.001758	33368.6	0.795521	179.377	150.556	1.230795	0.057424	0.057172	153.631	33368.6	0.053971	0.105080	1462.03	94048.1
1009	2.000000	1.233697	7.37492e+06	-50589.1	1055.82	-29755	0.000000	0.000000	7.240689	158.032	NaN	0.000000	0.001703	0.001703	28.0839	62.4378	0.001775	35182.1	6.735602	-7.257718	160.414	1.233484	0.060074	0.059860	158.032	35182.1	0.056705	0.114259	1383.1	95093.4
1009	2.000000	1.236075	7.37492e+06	-50589.1	1055.82	-29755	0.000000	0.000000	7.243818	176.303	NaN	0.000000	0.001666	0.001699	28.0838	65.1366	0.001902	34241.3	2.839536	177.464	174.046	1.235797	0.062452	0.062174	176.303	34241.3	0.058590	0.120802	1459.44	90009.1
1009	2.000000	1.238594	7.37492e+06	-50589.1	1055.82	-29755	0.000000	0.000000	7.246932	190.758	NaN	0.000000	0.001658	0.001716	28.0825	66.5835	0.001721	38687.3	6.313242	-7.015238	186.186	1.238243	0.064971	0.064620	190.758	38687.3	0.061273	0.130412	1462.73	97877.4
1009	2.000000	1.241100	7.37492e+06	-50589.1	1055.82	-29755	0.000000	0.000000	7.250022	204.967	NaN	0.000000	0.001680	0.001739	28.0823	68.3634	0.001768	38657.9	5.750277	173.449	204.208	1.240785	0.067477	0.067162	204.967	38657.9	0.063500	0.138658	1478.22	94850.4
1009	2.000000	1.243605	7.37492e+06	-50589.1	1055.82	-29755	0.000000	0.000000	7.252923	214.601	NaN	0.000000	0.001697	0.001694	28.0827	71.5319	0.001832	39052.3	4.763810	-5.958379	212.991	1.243289	0.069982	0.069666	214.601	39052.3	0.065860	0.147657	1453.37	92852.1
1009	2.000000	1.246133	7.37492e+06	-50589.1	1055.82	-29755	0.000000	0.000000	7.256062	229.463	NaN	0.000000	0.001657	0.001725	28.0827	75.7263	0.001881	40255.7	6.568460	172.817	230.707	1.245807	0.072509	0.072183	229.463	40255.7	0.068234	0.156980	1461.74	92828
1009	2.000000	1.248518	7.37492e+06	-50589.1	1055.82	-29755	0.000000	0.000000	7.259485	254.696	NaN	0.000000	0.001656	0.001715	28.0824	77.4029	0.001819	42546.9	8.015148	-9.515067	246.84	1.248199	0.074895	0.074576	254.696	42546.9	0.070405	0.165741	1536.72	95483.2
1009	2.000000	1.251048	7.37492e+06	-50589.1	1055.82	-29755	0.000000	0.000000	7.262635	269.774	NaN	0.000000	0.001666	0.001693	28.0825	79.1864	0.001776	44585.5	4.702464	173.422	267.37	1.250757	0.077425	0.077134	269.774	44585.5	0.072886	0.176028	1532.56	97090.5
1009	2.000000	1.253470	7.37492e+06	-50589.1	1055.82	-29755	0.000000	0.000000	7.265685	285.07	NaN	0.000000	0.001655	0.001722	28.0827	80.6195	0.001755	45926.6	6.386249	-8.271977	277.578	1.253140	0.079846	0.079516	285.07	45926.6	0.075191	0.185842	1533.94	97334.1
1009	2.000000	1.255929	7.37492e+06	-50589.1	1055.82	-29755	0.000000	0.000000	7.268687	298.25	NaN	0.000000	0.001647	0.001710	28.0826	83.6473	0.001762	47463.1	5.991111	171.617	291.106	1.255723	0.082306	0.082099	298.25	47463.1	0.077593	0.196340	1519.05	97864.4
1009	2.000000	1.258585	7.37492e+06	-50589.1	1055.82	-29755	0.000000	0.000000	7.272059	315.685	NaN	0.000000	0.001690	0.001694	28.0827	86.2917	0.001846	46756.3	7.070014	-8.700382	312.607	1.258290	0.084961	0.084666	315.685	46756.3	0.079898	0.206664	1527.53	93968.3
1009	2.000000	1.260981	7.37492e+06	-50589.1	1055.82	-29755	0.000000	0.000000	7.275279	335.702	NaN	0.000000	0.001687	0.001698	28.0827	87.87	0.001851	47472.8	4.449253	173.852	330.565	1.260668	0.087358	0.087045	335.702	47472.8	0.082054	0.216549	1550.24	93205.3
1009	2.000000	1.263472	7.37492e+06	-50589.1	1055.82	-29755	0.000000	0.000000	7.278424	351.622	NaN	0.000000	0.001682	0.001667	28.0826	91.0987	0.001788	50958.8	5.642743	-8.085539	344.405	1.263061	0.089848	0.089437	351.622	50958.8	0.084673	0.228846	1536.5	97324.3
1009	2.000000	1.266125	7.37493e+06	-50589.1	1055.82	-29755	0.000000	0.000000	7.281361	358.514	NaN	0.000000	0.001644	0.001674	28.0828	94.0369	0.001820	51664.2	3.894962	173.515	359.574	1.265848	0.092502	0.092225	358.514	51664.2	0.087297	0.241483	1484.63	96054.9
1009	2.000000	1.268634	7.37493e+06	-50589.1	1055.82	-29755	0.000000	0.000000	7.284354	370.286	NaN	0.000000	0.001674	0.001690	28.0826	95.2339	0.001802	52848.9	3.978548	-6.975765	369.284	1.268398	0.095011	0.094775	370.286	52848.9	0.089756	0.253612	1460.05	95879.2
1009	2.000000	1.271127	7.37493e+06	-50589.1	1055.82	-29755	0.000000	0.000000	7.287733	391.825	NaN	0.000000	0.001677	0.001694	28.0831	96.8947	0.001791	54086.5	0.801229	176.189	394.731	1.270822	0.097504	0.097199	391.825	54086.5	0.092071	0.265282	1477.01	95941.9
1009	2.000000	1.273554	7.37493e+06	-50589.1	1055.82	-29755	0.000000	0.000000	7.290537	401.011	NaN	0.000000	0.001692	0.001720	28.0841	99.8327	0.001716	58177.3	3.812580	-7.572536	397.359	1.273222	0.099930	0.099598	401.011	58177.3	0.094761	0.279154	1436.52	100602
1009	2.000000	1.276007	7.37493e+06	-50589.1	1055.82	-29755	0.000000	0.000000	7.294046	426.673	NaN	0.000000	0.001672	0.001658	28.084	102.315	0.001789	57193.4	2.474569	174.135	421.813	1.275762	0.102384	0.102138	426.673	57193.4	0.096789	0.289830	1472.15	97061.5
1009	2.000000	1.278600	7.37493e+06	-50589.1	1055.82	-29755	0.000000	0.000000	7.297412	445.482	NaN	0.000000	0.001680	0.001669	28.0839	104.74	0.001866	56119.7	4.872661	-7.971089	443.28	1.278230	0.104977	0.104606	445.482	56119.7	0.099023	0.301810	1476.03	93330.1
1009	2.000000	1.279027	7.37493e+06	-50589.1	1055.82	-29755	0.000000	0.000000	7.297915	447.32	NaN	0.000000	0.001696	0.001674	28.0839	105.485	0.001804	58473.4	3.885472	172.783	447.204	1.278778	0.105404	0.105155	447.32	58473.4	0.099667	0.305303	1465.17	96686.7