File: remote_trans/data/nanoindenter/0828-1/data/Data_2025-08-06,11h17m57s/2025-07-22_16-23-58_1_703.txt
2025-07-22, 16:23:58, 1
Index	Phase	Displacement	Time	Pos X	Pos Y	Pos Z	Rot A	Rot B	Piezo Z	Force A	Force B	Gripper	Voltage A	Voltage B	Temperature	Amplitude force	Amplitude pos	Stiffness	Phase shift	Phase excitation	Force A raw	Displacement raw	HMax	HMax raw	Real Force	Real Stiffness	Contact Depth	Area	Hardness	Reduced Mod.
[#]	[#]	[um]	[s]	[um]	[um]	[um]	[m°]	[m°]	[um]	[uN]	[uN]	[V]	[V]	[V]	[°C]	[uN]	[um]	[N/m]	[°]	[°]	[uN]	[um]	[um]	[um]	[uN]	[N/m]	[um]	[um^2]	[MPa]	[MPa]
703	1.000000	0.002516	7.37193e+06	-41939.1	1005.82	-29784.4	0.000000	0.000000	6.002797	0.001577	NaN	0.000000	0.001811	0.001675	28.0841	0.101961	0.000946	107.775	143.24	-155.797	0.042756	0.001204	-1.144859	-1.146171	0.001577	107.775	-1.144870	-2.004658E+15	-7.866768E-19	NaN
703	1.000000	0.012546	7.37193e+06	-41939.1	1005.82	-29784.4	0.000000	0.000000	6.012829	0.048585	NaN	0.000000	0.001773	0.001700	28.084	0.146193	0.001236	118.294	-56.3959	11.9465	0.065356	0.011119	-1.134829	-1.136256	0.048585	118.294	-1.135137	-1.484293E+15	-3.273252E-17	NaN
703	1.000000	0.022464	7.37193e+06	-41939.1	1005.82	-29784.4	0.000000	0.000000	6.022745	-0.011204	NaN	0.000000	0.001819	0.001709	28.0842	0.056153	0.001781	31.5364	-148.998	-167.599	0.095758	0.021179	-1.124910	-1.126195	-0.011204	31.5364	-1.124644	-1.073428E+15	1.043741E-17	NaN
703	1.000000	0.032449	7.37193e+06	-41939.1	1005.82	-29784.4	0.000000	0.000000	6.032731	0.019901	NaN	0.000000	0.001798	0.001714	28.0837	0.130655	0.001828	71.4894	81.2168	14.9648	0.109988	0.031081	-1.114926	-1.116294	0.019901	71.4894	-1.115135	-8.001838E+14	-2.487087E-17	NaN
703	1.000000	0.042462	7.37193e+06	-41939.1	1005.82	-29784.4	0.000000	0.000000	6.042745	0.028127	NaN	0.000000	0.001815	0.001689	28.0845	0.023061	0.002131	10.8202	144.172	-170.227	0.036742	0.041163	-1.104912	-1.106212	0.028127	10.8202	-1.106862	-6.196890E+14	-4.538966E-17	NaN
703	1.000000	0.052476	7.37193e+06	-41939.1	1005.82	-29784.4	0.000000	0.000000	6.052759	0.020234	NaN	0.000000	0.001802	0.001702	28.0836	0.083312	0.002042	40.7931	-127.467	12.1	-0.020606	0.051141	-1.094898	-1.096233	0.020234	40.7931	-1.095270	-4.330829E+14	-4.672084E-17	NaN
703	1.000000	0.062454	7.37193e+06	-41939.1	1005.82	-29784.4	0.000000	0.000000	6.062733	-0.060968	NaN	0.000000	0.001718	0.001674	28.0838	0.100520	0.002021	49.7482	-170.107	-165.81	-0.024067	0.061164	-1.084920	-1.086211	-0.060968	49.7482	-1.084001	-3.056730E+14	1.994559E-16	NaN
703	1.000000	0.072468	7.37193e+06	-41939.1	1005.82	-29784.4	0.000000	0.000000	6.072747	-0.034448	NaN	0.000000	0.001738	0.001660	28.0837	0.052699	0.002020	26.0896	156.401	14.7017	0.020400	0.071151	-1.074907	-1.076224	-0.034448	26.0896	-1.073917	-2.237728E+14	1.539431E-16	NaN
703	1.000000	0.082482	7.37193e+06	-41939.1	1005.82	-29784.4	0.000000	0.000000	6.082766	0.058834	NaN	0.000000	0.001652	0.001693	28.0839	0.046547	0.002032	22.9049	72.9313	-167.303	-0.032702	0.081156	-1.064892	-1.066219	0.058834	22.9049	-1.066819	-1.796591E+14	-3.274778E-16	NaN
703	1.000000	0.092451	7.37193e+06	-41939.1	1005.82	-29784.4	0.000000	0.000000	6.092734	0.054460	NaN	0.000000	0.001640	0.001732	28.0837	0.080122	0.001886	42.4928	13.6852	12.6949	0.085403	0.091137	-1.054924	-1.056238	0.054460	42.4928	-1.055885	-1.280916E+14	-4.251679E-16	NaN
703	1.000000	0.102505	7.37193e+06	-41939.1	1005.82	-29784.4	0.000000	0.000000	6.102787	0.023881	NaN	0.000000	0.001655	0.001739	28.0838	0.048929	0.001969	24.8493	149.202	-167.367	0.014556	0.101182	-1.044870	-1.046193	0.023881	24.8493	-1.045591	-9.314051E+13	-2.563989E-16	NaN
703	1.000000	0.112481	7.37193e+06	-41939.1	1005.82	-29784.4	0.000000	0.000000	6.112765	0.058946	NaN	0.000000	0.001676	0.001714	28.0838	0.076521	0.002108	36.2957	-53.1162	14.8452	0.025217	0.111169	-1.034894	-1.036205	0.058946	36.2957	-1.036112	-6.945086E+13	-8.487377E-16	NaN
703	1.000000	0.122499	7.37193e+06	-41939.1	1005.82	-29784.4	0.000000	0.000000	6.122785	0.106132	NaN	0.000000	0.001659	0.001742	28.0828	0.109099	0.001813	60.1694	28.4935	-165.631	0.013727	0.121206	-1.024875	-1.026169	0.106132	60.1694	-1.026198	-5.109070E+13	-2.077320E-15	NaN
703	1.000000	0.132491	7.37193e+06	-41939.1	1005.82	-29784.4	0.000000	0.000000	6.132773	0.024064	NaN	0.000000	0.001649	0.001710	28.0826	0.027931	0.001867	14.9604	25.4921	13.5348	-0.009452	0.131098	-1.014884	-1.016277	0.024064	14.9604	-1.016090	-3.735438E+13	-6.442167E-16	NaN
703	1.000000	0.142511	7.37193e+06	-41939.1	1005.82	-29784.4	0.000000	0.000000	6.142794	0.051457	NaN	0.000000	0.001638	0.001664	28.0827	0.019684	0.001851	10.6367	127.427	-166.834	0.056903	0.141206	-1.004864	-1.006169	0.051457	10.6367	-1.008492	-2.951802E+13	-1.743239E-15	NaN
703	1.000000	0.152512	7.37193e+06	-41939.1	1005.82	-29784.4	0.000000	0.000000	6.152792	-0.038295	NaN	0.000000	0.001649	0.001691	28.0826	0.095194	0.002082	45.7228	-114.109	11.7724	0.005700	0.151150	-0.994862	-0.996225	-0.038295	45.7228	-0.994234	-1.897291E+13	2.018397E-15	NaN
703	1.000000	0.162514	7.37193e+06	-41939.1	1005.82	-29784.4	0.000000	0.000000	6.162798	0.067415	NaN	0.000000	0.001632	0.001704	28.0823	0.103671	0.002012	51.5337	89.3194	-168.314	-0.014679	0.161207	-0.984860	-0.986168	0.067415	51.5337	-0.985841	-1.462512E+13	-4.609522E-15	NaN
703	1.000000	0.172514	7.37193e+06	-41939.1	1005.82	-29784.4	0.000000	0.000000	6.172797	0.065461	NaN	0.000000	0.001680	0.001701	28.0821	0.044137	0.002051	21.5226	-137.072	15.6155	0.028704	0.171143	-0.974861	-0.976232	0.065461	21.5226	-0.977142	-1.116623E+13	-5.862380E-15	NaN
703	1.000000	0.182523	7.37193e+06	-41939.1	1005.82	-29784.4	0.000000	0.000000	6.182807	0.056231	NaN	0.000000	0.001714	0.001709	28.0824	0.004855	0.002000	2.427728	-59.7045	-165.29	0.022332	0.181155	-0.964851	-0.966220	0.056231	2.427728	-0.982223	-1.307238E+13	-4.301525E-15	NaN
703	1.000000	0.192536	7.37193e+06	-41939.1	1005.82	-29784.4	0.000000	0.000000	6.192818	0.018901	NaN	0.000000	0.001666	0.001680	28.0823	0.019538	0.002012	9.711456	-141.947	15.4414	0.067823	0.191136	-0.954839	-0.956239	0.018901	9.711456	-0.956299	-5.847421E+12	-3.232446E-15	NaN
703	1.000000	0.202545	7.37193e+06	-41939.1	1005.82	-29784.4	0.000000	0.000000	6.202827	0.019451	NaN	0.000000	0.001689	0.001713	28.0824	0.062035	0.002056	30.1759	-118.994	-162.383	0.023679	0.201268	-0.944830	-0.946107	0.019451	30.1759	-0.945313	-4.157288E+12	-4.678691E-15	NaN
703	1.000000	0.212515	7.37193e+06	-41939.1	1005.82	-29784.4	0.000000	0.000000	6.212800	0.087299	NaN	0.000000	0.001649	0.001661	28.0823	0.070896	0.001870	37.9129	179.137	13.4712	0.081563	0.211139	-0.934860	-0.936235	0.087299	37.9129	-0.936587	-3.170176E+12	-2.753747E-14	NaN
703	1.000000	0.222534	7.37193e+06	-41939.1	1005.82	-29784.4	0.000000	0.000000	6.222813	-0.046588	NaN	0.000000	0.001659	0.001692	28.0825	0.026682	0.001990	13.4113	-107.345	-166	-0.037640	0.221264	-0.924841	-0.926111	-0.046588	13.4113	-0.922235	-2.029486E+12	2.295536E-14	NaN
703	1.000000	0.232568	7.37193e+06	-41939.1	1005.82	-29784.4	0.000000	0.000000	6.232851	0.056492	NaN	0.000000	0.001635	0.001725	28.0823	0.088737	0.002039	43.5245	134.849	14.7727	0.128913	0.231176	-0.914807	-0.916199	0.056492	43.5245	-0.915780	-1.660460E+12	-3.402162E-14	NaN
703	1.000000	0.242550	7.37193e+06	-41939.1	1005.82	-29784.4	0.000000	0.000000	6.242834	0.068665	NaN	0.000000	0.001656	0.001712	28.0824	0.082436	0.002021	40.784	106.516	-165.381	0.064974	0.241261	-0.904824	-0.906114	0.068665	40.784	-0.906087	-1.228310E+12	-5.590205E-14	NaN
703	1.000000	0.252563	7.37193e+06	-41939.1	1005.82	-29784.4	0.000000	0.000000	6.252842	-0.054838	NaN	0.000000	0.001659	0.001697	28.0824	0.043735	0.001968	22.2191	-107.814	13.7653	0.000917	0.251169	-0.894812	-0.896206	-0.054838	22.2191	-0.892961	-8.164571E+11	6.716559E-14	NaN
703	1.000000	0.262566	7.37193e+06	-41939.1	1005.82	-29784.4	0.000000	0.000000	6.262846	-0.037947	NaN	0.000000	0.001645	0.001729	28.0838	0.069094	0.002009	34.3942	171.765	-164.823	0.059812	0.261246	-0.884809	-0.886129	-0.037947	34.3942	-0.883981	-6.173680E+11	6.146622E-14	NaN
703	1.000000	0.272558	7.37193e+06	-41939.1	1005.82	-29784.4	0.000000	0.000000	6.272841	0.032523	NaN	0.000000	0.001638	0.001725	28.0837	0.050948	0.002081	24.4778	-159.077	12.8391	0.058745	0.271128	-0.874817	-0.876247	0.032523	24.4778	-0.875813	-4.787205E+11	-6.793720E-14	NaN
703	1.000000	0.282546	7.37193e+06	-41939.1	1005.82	-29784.4	0.000000	0.000000	6.282829	0.040532	NaN	0.000000	0.001621	0.001706	28.0838	0.047989	0.001858	25.8282	144.598	-166.814	0.084193	0.281238	-0.864829	-0.866136	0.040532	25.8282	-0.866006	-3.526968E+11	-1.149197E-13	NaN
703	1.000000	0.292569	7.37193e+06	-41939.1	1005.82	-29784.4	0.000000	0.000000	6.292848	-0.051291	NaN	0.000000	0.001630	0.001730	28.0838	0.028929	0.002032	14.2393	164.984	16.177	-0.012096	0.291250	-0.854806	-0.856124	-0.051291	14.2393	-0.852104	-2.286820E+11	2.242899E-13	NaN
703	1.000000	0.302551	7.37193e+06	-41939.1	1005.82	-29784.4	0.000000	0.000000	6.302830	-0.043947	NaN	0.000000	0.001638	0.001719	28.0844	0.047166	0.002072	22.7592	121.872	-164.534	-0.001469	0.301264	-0.844824	-0.846110	-0.043947	22.7592	-0.843376	-1.741895E+11	2.522957E-13	NaN
703	1.000000	0.312580	7.37193e+06	-41939.1	1005.82	-29784.4	0.000000	0.000000	6.312858	-0.075111	NaN	0.000000	0.001625	0.001684	28.0832	0.083001	0.001925	43.1105	58.1944	13.2667	-0.081127	0.311181	-0.834795	-0.836194	-0.075111	43.1105	-0.833488	-1.279545E+11	5.870161E-13	NaN
703	1.000000	0.322559	7.37193e+06	-41939.1	1005.82	-29784.4	0.000000	0.000000	6.322838	-0.071099	NaN	0.000000	0.001596	0.001697	28.0833	0.083694	0.002001	41.8259	172.647	-165.302	0.021762	0.321305	-0.824815	-0.826070	-0.071099	41.8259	-0.823540	-9.380322E+10	7.579573E-13	NaN
703	1.000000	0.332568	7.37193e+06	-41939.1	1005.82	-29784.4	0.000000	0.000000	6.332852	0.048011	NaN	0.000000	0.001596	0.001715	28.0834	0.009668	0.002017	4.792791	17.1174	14.3447	0.010182	0.331260	-0.814806	-0.816115	0.048011	4.792791	-0.822319	-9.029378E+10	-5.317193E-13	NaN
703	1.000000	0.342590	7.37193e+06	-41939.1	1005.82	-29784.4	0.000000	0.000000	6.342869	-0.038301	NaN	0.000000	0.001623	0.001709	28.0837	0.076099	0.002006	37.9395	-153.089	-164.583	-0.017645	0.341277	-0.804785	-0.806098	-0.038301	37.9395	-0.804028	-5.099552E+10	7.510716E-13	NaN
703	1.000000	0.352600	7.37193e+06	-41939.1	1005.82	-29784.4	0.000000	0.000000	6.352881	0.012306	NaN	0.000000	0.001592	0.001715	28.0835	0.057295	0.001844	31.0731	-77.0532	14.1843	-0.004440	0.351252	-0.794775	-0.796123	0.012306	31.0731	-0.795072	-3.854422E+10	-3.192682E-13	NaN
703	1.000000	0.362603	7.37193e+06	-41939.1	1005.82	-29784.4	0.000000	0.000000	6.362884	0.004226	NaN	0.000000	0.001613	0.001676	28.0834	0.067526	0.002084	32.403	-55.9393	-168.846	0.042155	0.361242	-0.784772	-0.786133	0.004226	32.403	-0.784870	-2.801533E+10	-1.508615E-13	NaN
703	1.000000	0.372590	7.37193e+06	-41939.1	1005.82	-29784.4	0.000000	0.000000	6.372872	0.014712	NaN	0.000000	0.001611	0.001682	28.0836	0.061206	0.001985	30.8402	-69.2019	12.5369	0.011407	0.371262	-0.774785	-0.776113	0.014712	30.8402	-0.775142	-2.066392E+10	-7.119576E-13	NaN
703	1.000000	0.382619	7.37193e+06	-41939.1	1005.82	-29784.4	0.000000	0.000000	6.382901	0.023516	NaN	0.000000	0.001619	0.001668	28.0832	0.137840	0.001942	70.9628	159.617	-169.929	0.039707	0.381307	-0.764756	-0.766068	0.023516	70.9628	-0.765004	-1.504438E+10	-1.563124E-12	NaN
703	1.000000	0.392580	7.37193e+06	-41939.1	1005.82	-29784.4	0.000000	0.000000	6.392865	0.094090	NaN	0.000000	0.001592	0.001701	28.0823	0.107240	0.001929	55.5918	-13.2355	14.2101	0.072900	0.391232	-0.754795	-0.756142	0.094090	55.5918	-0.756064	-1.136973E+10	-8.275480E-12	NaN
703	1.000000	0.402614	7.37193e+06	-41939.1	1005.82	-29784.4	0.000000	0.000000	6.402896	0.000674	NaN	0.000000	0.001587	0.001719	28.0821	0.053897	0.002128	25.3251	-125.142	-168.027	-0.045453	0.401268	-0.744760	-0.746107	0.000674	25.3251	-0.744780	-7.982826E+9	-8.438468E-14	NaN
703	1.000000	0.412618	7.37193e+06	-41939.1	1005.82	-29784.4	0.000000	0.000000	6.412899	0.000962	NaN	0.000000	0.001607	0.001681	28.0823	0.021835	0.001955	11.167	-166.566	10.7056	-0.046167	0.411258	-0.734757	-0.736117	0.000962	11.167	-0.734821	-5.841316E+9	-1.647381E-13	NaN
703	1.000000	0.422615	7.37193e+06	-41939.1	1005.82	-29784.4	0.000000	0.000000	6.422898	0.038308	NaN	0.000000	0.001674	0.001698	28.082	0.060379	0.001920	31.4505	-140.761	-164.499	-0.002008	0.421275	-0.724760	-0.726100	0.038308	31.4505	-0.725673	-4.383590E+9	-8.738919E-12	NaN
703	1.000000	0.432607	7.37193e+06	-41939.1	1005.82	-29784.4	0.000000	0.000000	6.432891	0.076185	NaN	0.000000	0.001663	0.001679	28.0819	0.020673	0.001976	10.4621	160.8	13.4388	0.106394	0.431289	-0.714768	-0.716086	0.076185	10.4621	-0.720229	-3.694865E+9	-2.061909E-11	NaN
703	1.000000	0.442668	7.37193e+06	-41939.1	1005.82	-29784.4	0.000000	0.000000	6.442953	0.084385	NaN	0.000000	0.001654	0.001670	28.0821	0.154046	0.001938	79.486	-99.2465	-167.183	0.008258	0.441291	-0.704707	-0.706083	0.084385	79.486	-0.705503	-2.326297E+9	-3.627420E-11	NaN
703	1.000000	0.452639	7.37193e+06	-41939.1	1005.82	-29784.4	0.000000	0.000000	6.452919	-0.030949	NaN	0.000000	0.001674	0.001688	28.0819	0.088071	0.002039	43.1927	178.651	14.4324	-0.039110	0.451249	-0.694735	-0.696125	-0.030949	43.1927	-0.694198	-1.630341E+9	1.898310E-11	NaN
703	1.000000	0.462647	7.37193e+06	-41939.1	1005.82	-29784.4	0.000000	0.000000	6.462928	-0.017854	NaN	0.000000	0.001681	0.001662	28.0819	0.123246	0.001877	65.6528	61.0064	-163.016	-0.050765	0.461315	-0.684727	-0.686059	-0.017854	65.6528	-0.684523	-1.202424E+9	1.484836E-11	NaN
703	1.000000	0.472649	7.37193e+06	-41939.1	1005.82	-29784.4	0.000000	0.000000	6.472930	-0.007754	NaN	0.000000	0.001618	0.001688	28.082	0.105339	0.001951	53.9861	149.392	12.0224	-0.035931	0.471285	-0.674726	-0.676089	-0.007754	53.9861	-0.674618	-8.802087E+8	8.809367E-12	NaN
703	1.000000	0.482630	7.37193e+06	-41939.1	1005.82	-29784.4	0.000000	0.000000	6.482912	0.026964	NaN	0.000000	0.001644	0.001741	28.0823	0.082022	0.002024	40.5295	28.9563	-169.323	0.033020	0.481316	-0.664745	-0.666059	0.026964	40.5295	-0.665244	-6.550610E+8	-4.116267E-11	NaN
703	1.000000	0.492654	7.37193e+06	-41939.1	1005.82	-29784.4	0.000000	0.000000	6.492933	-0.049176	NaN	0.000000	0.001647	0.001740	28.0823	0.154741	0.002042	75.7936	-101.102	14.4322	0.008102	0.491324	-0.654721	-0.656051	-0.049176	75.7936	-0.654234	-4.628817E+8	1.062379E-10	NaN
703	1.000000	0.502638	7.37193e+06	-41939.1	1005.82	-29784.4	0.000000	0.000000	6.502920	0.011301	NaN	0.000000	0.001634	0.001732	28.0821	0.111457	0.002045	54.4903	-143.79	-165.696	0.020028	0.501319	-0.644737	-0.646055	0.011301	54.4903	-0.644892	-3.446669E+8	-3.278763E-11	NaN
703	1.000000	0.512684	7.37193e+06	-41939.1	1005.82	-29784.4	0.000000	0.000000	6.512966	0.012068	NaN	0.000000	0.001643	0.001706	28.0824	0.042410	0.001984	21.3808	114.864	13.3051	0.031136	0.511293	-0.634691	-0.636082	0.012068	21.3808	-0.635114	-2.530664E+8	-4.768613E-11	NaN
703	1.000000	0.522687	7.37193e+06	-41939.1	1005.82	-29784.4	0.000000	0.000000	6.522967	-0.032926	NaN	0.000000	0.001651	0.001731	28.0824	0.151264	0.002065	73.2394	-38.7129	-165.078	0.045470	0.521377	-0.624688	-0.625997	-0.032926	73.2394	-0.624351	-1.800620E+8	1.828579E-10	NaN
703	1.000000	0.532664	7.37193e+06	-41939.1	1005.82	-29784.4	0.000000	0.000000	6.532944	-0.039904	NaN	0.000000	0.001651	0.001711	28.0834	0.040722	0.002064	19.7338	63.9627	11.5327	0.130454	0.531315	-0.614711	-0.616059	-0.039904	19.7338	-0.613194	-1.264888E+8	3.154772E-10	NaN
703	1.000000	0.542671	7.37193e+06	-41939.1	1005.82	-29784.4	0.000000	0.000000	6.542949	-0.074046	NaN	0.000000	0.001653	0.001705	28.0839	0.106927	0.002023	52.856	-69.6603	-162.439	-0.060222	0.541397	-0.604703	-0.605978	-0.074046	52.856	-0.603653	-9.348850E+7	7.920328E-10	NaN
703	1.000000	0.552683	7.37193e+06	-41939.1	1005.82	-29784.4	0.000000	0.000000	6.552965	0.010843	NaN	0.000000	0.001616	0.001693	28.0837	0.035447	0.002014	17.6012	6.127328	14.2971	0.061648	0.551286	-0.594692	-0.596088	0.010843	17.6012	-0.595154	-7.140008E+7	-1.518600E-10	NaN
703	1.000000	0.562676	7.37193e+06	-41939.1	1005.82	-29784.4	0.000000	0.000000	6.562957	0.002358	NaN	0.000000	0.001623	0.001740	28.0837	0.022048	0.001893	11.6455	125.404	-168.442	0.084097	0.561331	-0.584699	-0.586044	0.002358	11.6455	-0.584850	-5.148156E+7	-4.581075E-11	NaN
703	1.000000	0.572681	7.37193e+06	-41939.1	1005.82	-29784.4	0.000000	0.000000	6.572961	-0.018607	NaN	0.000000	0.001622	0.001738	28.0833	0.035867	0.001917	18.7054	132.029	12.1787	-0.066132	0.571313	-0.574694	-0.576062	-0.018607	18.7054	-0.573948	-3.640546E+7	5.110940E-10	NaN
703	1.000000	0.582709	7.37193e+06	-41939.1	1005.82	-29784.4	0.000000	0.000000	6.582989	-0.025927	NaN	0.000000	0.001647	0.001739	28.0833	0.059988	0.002063	29.0815	-63.7397	-166.332	-0.012371	0.581407	-0.564665	-0.565967	-0.025927	29.0815	-0.563997	-2.652499E+7	9.774619E-10	NaN
703	1.000000	0.592711	7.37193e+06	-41939.1	1005.82	-29784.4	0.000000	0.000000	6.592993	0.016529	NaN	0.000000	0.001675	0.001667	28.0835	0.056544	0.001945	29.0751	-174.04	11.7236	0.004342	0.591375	-0.554664	-0.556000	0.016529	29.0751	-0.555090	-1.997267E+7	-8.275995E-10	NaN
703	1.000000	0.602726	7.37193e+06	-41939.1	1005.82	-29784.4	0.000000	0.000000	6.603008	0.007943	NaN	0.000000	0.001655	0.001659	28.0833	0.042509	0.001983	21.4416	-168.069	-165.948	-0.104722	0.601430	-0.544649	-0.545945	0.007943	21.4416	-0.544926	-1.444309E+7	-5.499589E-10	NaN
703	1.000000	0.612711	7.37193e+06	-41939.1	1005.82	-29784.4	0.000000	0.000000	6.612992	-0.003905	NaN	0.000000	0.001651	0.001693	28.0833	0.104037	0.002075	50.1497	131.849	16.6217	0.059114	0.611318	-0.534664	-0.536057	-0.003905	50.1497	-0.534605	-1.038759E+7	3.759617E-10	NaN
703	1.000000	0.622705	7.37193e+06	-41939.1	1005.82	-29784.4	0.000000	0.000000	6.622986	-0.010058	NaN	0.000000	0.001689	0.001667	28.0835	0.018384	0.002039	9.017902	-4.555034	-168.822	-0.003807	0.621413	-0.524669	-0.525961	-0.010058	9.017902	-0.523833	-7.36019e+06	1.366491E-9	NaN
703	1.000000	0.632707	7.37193e+06	-41939.1	1005.82	-29784.4	0.000000	0.000000	6.632986	-0.037914	NaN	0.000000	0.001672	0.001691	28.0834	0.065407	0.001977	33.0854	163.231	14.5734	-0.012527	0.631360	-0.514668	-0.516015	-0.037914	33.0854	-0.513808	-5.33884e+06	7.101535E-9	NaN
703	1.000000	0.642724	7.37193e+06	-41939.1	1005.82	-29784.4	0.000000	0.000000	6.643006	0.016549	NaN	0.000000	0.001666	0.001672	28.0832	0.049859	0.002023	24.649	-166.81	-164.177	-0.066277	0.641432	-0.504650	-0.505942	0.016549	24.649	-0.505154	-4.04475e+06	-4.091544E-9	NaN
703	1.000000	0.652734	7.37193e+06	-41939.1	1005.82	-29784.4	0.000000	0.000000	6.653014	-0.008680	NaN	0.000000	0.001657	0.001687	28.0834	0.136092	0.002001	68.0058	3.924384	14.878	-0.026110	0.651330	-0.494641	-0.496045	-0.008680	68.0058	-0.494545	-2.87664e+06	3.017550E-9	NaN
703	1.000000	0.662745	7.37193e+06	-41939.1	1005.82	-29784.4	0.000000	0.000000	6.663028	0.021326	NaN	0.000000	0.001668	0.001712	28.0838	0.062448	0.002017	30.9663	27.5175	-168.468	-0.000211	0.661414	-0.484629	-0.485961	0.021326	30.9663	-0.485146	-2.12583e+06	-1.003187E-8	NaN
703	1.000000	0.672727	7.37193e+06	-41939.1	1005.82	-29784.4	0.000000	0.000000	6.673008	-0.005469	NaN	0.000000	0.001673	0.001689	28.0822	0.100244	0.002003	50.0378	-162.692	17.2116	0.057095	0.671379	-0.474647	-0.475995	-0.005469	50.0378	-0.474565	-1.5115e+06	3.618504E-9	NaN
703	1.000000	0.682755	7.37193e+06	-41939.1	1005.82	-29784.4	0.000000	0.000000	6.683038	0.043868	NaN	0.000000	0.001709	0.001641	28.0824	0.160689	0.002038	78.8428	-157.873	-168.161	0.026690	0.681410	-0.464619	-0.465964	0.043868	78.8428	-0.465037	-1.11113e+06	-3.948059E-8	NaN
703	1.000000	0.692745	7.37193e+06	-41939.1	1005.82	-29784.4	0.000000	0.000000	6.693029	0.057502	NaN	0.000000	0.001676	0.001688	28.0822	0.024863	0.001940	12.8136	66.351	14.8046	0.110987	0.691387	-0.454629	-0.455988	0.057502	12.8136	-0.457995	-884780	-6.499004E-8	NaN
703	1.000000	0.702718	7.37193e+06	-41939.1	1005.82	-29784.4	0.000000	0.000000	6.703002	0.061702	NaN	0.000000	0.001636	0.001685	28.0826	0.031242	0.001992	15.6857	129.373	-166.872	0.078125	0.701381	-0.444657	-0.445993	0.061702	15.6857	-0.447607	-631877	-9.764849E-8	NaN
703	1.000000	0.712773	7.37193e+06	-41939.1	1005.82	-29784.4	0.000000	0.000000	6.713055	0.010049	NaN	0.000000	0.001665	0.001703	28.0823	0.047589	0.001890	25.1795	132.91	17.4486	0.010337	0.711413	-0.434602	-0.435961	0.010049	25.1795	-0.434901	-418172	-2.403109E-8	NaN
703	1.000000	0.722771	7.37193e+06	-41939.1	1005.82	-29784.4	0.000000	0.000000	6.723050	-0.039752	NaN	0.000000	0.001663	0.001719	28.0824	0.008895	0.002000	4.447597	175.946	-169.835	-0.024964	0.721389	-0.424604	-0.425986	-0.039752	4.447597	-0.417901	-240232	1.654732E-7	NaN
703	1.000000	0.732747	7.37193e+06	-41939.1	1005.82	-29784.4	0.000000	0.000000	6.733030	0.049235	NaN	0.000000	0.001651	0.001659	28.0822	0.063527	0.002139	29.7061	-114.606	11.5396	-0.056507	0.731385	-0.414628	-0.415989	0.049235	29.7061	-0.415871	-224812	-2.190057E-7	NaN
703	1.000000	0.742756	7.37193e+06	-41939.1	1005.82	-29784.4	0.000000	0.000000	6.743037	-0.001695	NaN	0.000000	0.001677	0.001686	28.0827	0.110308	0.002066	53.3868	-74.6728	-161.202	-0.022211	0.741393	-0.404618	-0.405982	-0.001695	53.3868	-0.404595	-155409	1.090994E-8	NaN
703	1.000000	0.752756	7.37193e+06	-41939.1	1005.82	-29784.4	0.000000	0.000000	6.753037	-0.002693	NaN	0.000000	0.001712	0.001671	28.0825	0.056482	0.002098	26.9161	106.299	11.4034	0.063199	0.751402	-0.394619	-0.395972	-0.002693	26.9161	-0.394544	-111716	2.411000E-8	NaN
703	1.000000	0.762768	7.37193e+06	-41939.1	1005.82	-29784.4	0.000000	0.000000	6.763051	0.038123	NaN	0.000000	0.001679	0.001701	28.0825	0.024813	0.001958	12.6751	133.396	-164.273	0.047054	0.761483	-0.384607	-0.385891	0.038123	12.6751	-0.386863	-86749.1	-4.394608E-7	NaN
703	1.000000	0.772756	7.37193e+06	-41939.1	1005.82	-29784.4	0.000000	0.000000	6.773037	0.005152	NaN	0.000000	0.001698	0.001675	28.0825	0.047209	0.002091	22.5743	119.743	12.9694	-0.071030	0.771459	-0.374619	-0.375915	0.005152	22.5743	-0.374790	-58217	-8.850071E-8	NaN
703	1.000000	0.782796	7.37193e+06	-41939.1	1005.82	-29784.4	0.000000	0.000000	6.783078	0.020302	NaN	0.000000	0.001710	0.001652	28.0821	0.056896	0.002002	28.4176	138.947	-165.733	-0.019573	0.781484	-0.364579	-0.365890	0.020302	28.4176	-0.365114	-42238.1	-4.806538E-7	NaN
703	1.000000	0.792769	7.37193e+06	-41939.1	1005.82	-29784.4	0.000000	0.000000	6.793050	0.015017	NaN	0.000000	0.001668	0.001662	28.0825	0.047526	0.001840	25.8267	-37.5203	12.0869	0.008657	0.791448	-0.354606	-0.355926	0.015017	25.8267	-0.355042	-30207	-4.971517E-7	NaN
703	1.000000	0.802775	7.37193e+06	-41939.1	1005.82	-29784.4	0.000000	0.000000	6.803057	0.006584	NaN	0.000000	0.001735	0.001686	28.0836	0.091533	0.002012	45.4856	-78.9696	-166.566	-0.034820	0.801491	-0.344599	-0.345884	0.006584	45.4856	-0.344708	-21385	-3.078829E-7	NaN
703	1.000000	0.812761	7.37193e+06	-41939.1	1005.82	-29784.4	0.000000	0.000000	6.813044	0.035333	NaN	0.000000	0.001712	0.001678	28.0838	0.132194	0.001982	66.6862	65.4667	9.848212	0.055517	0.811453	-0.334614	-0.335922	0.035333	66.6862	-0.335011	-15443.6	-2.287900E-6	NaN
703	1.000000	0.822779	7.37193e+06	-41939.1	1005.82	-29784.4	0.000000	0.000000	6.823064	0.076907	NaN	0.000000	0.001696	0.001679	28.0835	0.092724	0.002029	45.7041	-40.6091	-166.568	0.092971	0.821491	-0.324595	-0.325884	0.076907	45.7041	-0.325857	-11342.9	-6.780199E-6	NaN
703	1.000000	0.832813	7.37193e+06	-41939.1	1005.82	-29784.4	0.000000	0.000000	6.833096	0.019977	NaN	0.000000	0.001718	0.001675	28.0836	0.042046	0.002082	20.1922	-168.16	12.2269	0.064932	0.831451	-0.314561	-0.315923	0.019977	20.1922	-0.315303	-7932.68	-2.518264E-6	NaN
703	1.000000	0.842813	7.37193e+06	-41939.1	1005.82	-29784.4	0.000000	0.000000	6.843095	0.016464	NaN	0.000000	0.001701	0.001609	28.0836	0.148613	0.001928	77.0951	52.3756	-166.109	-0.025533	0.841531	-0.304561	-0.305844	0.016464	77.0951	-0.304721	-5531.21	-2.976521E-6	NaN
703	1.000000	0.852783	7.37193e+06	-41939.1	1005.82	-29784.4	0.000000	0.000000	6.853065	0.008272	NaN	0.000000	0.001697	0.001668	28.0839	0.013332	0.002030	6.566921	-116.511	10.9989	-0.017230	0.851395	-0.294591	-0.295980	0.008272	6.566921	-0.295536	-4037.3	-2.048820E-6	NaN
703	1.000000	0.862806	7.37193e+06	-41939.1	1005.82	-29784.4	0.000000	0.000000	6.863087	-0.001761	NaN	0.000000	0.001645	0.001687	28.0836	0.017541	0.002038	8.608674	-127.691	-165.541	-0.043670	0.861476	-0.284569	-0.285899	-0.001761	8.608674	-0.284415	-2750.91	6.401479E-7	NaN
703	1.000000	0.872833	7.37193e+06	-41939.1	1005.82	-29784.4	0.000000	0.000000	6.873112	-0.047494	NaN	0.000000	0.001676	0.001681	28.0837	0.047766	0.001995	23.9392	-141.909	13.1152	-0.038582	0.871472	-0.274542	-0.275903	-0.047494	23.9392	-0.273054	-1853.13	2.562909E-5	NaN
703	1.000000	0.882807	7.37193e+06	-41939.1	1005.82	-29784.4	0.000000	0.000000	6.883089	0.000129	NaN	0.000000	0.001700	0.001681	28.0837	0.115748	0.002230	51.8958	4.860994	-167.161	0.059079	0.881513	-0.264567	-0.265862	0.000129	51.8958	-0.264569	-1376.61	-9.394496E-8	NaN
703	1.000000	0.892797	7.37193e+06	-41939.1	1005.82	-29784.4	0.000000	0.000000	6.893082	0.080670	NaN	0.000000	0.001710	0.001694	28.0836	0.124791	0.002093	59.6254	149.06	15.48	0.077725	0.891431	-0.254577	-0.255943	0.080670	59.6254	-0.255592	-1002.83	-8.044282E-5	NaN
703	1.000000	0.902828	7.37193e+06	-41939.1	1005.82	-29784.4	0.000000	0.000000	6.903113	0.084541	NaN	0.000000	0.001719	0.001672	28.0835	0.104311	0.001960	53.2257	-21.3947	-165.919	0.050966	0.901530	-0.244547	-0.245844	0.084541	53.2257	-0.245738	-706.18	-0.000120	NaN
703	1.000000	0.912815	7.37193e+06	-41939.1	1005.82	-29784.4	0.000000	0.000000	6.913096	-0.000181	NaN	0.000000	0.001673	0.001651	28.0837	0.052228	0.002002	26.0883	151.495	16.9586	-0.008025	0.911518	-0.234560	-0.235857	-0.000181	26.0883	-0.234554	-472.333	3.827822E-7	NaN
703	1.000000	0.922857	7.37193e+06	-41939.1	1005.82	-29784.4	0.000000	0.000000	6.923137	-0.046505	NaN	0.000000	0.001657	0.001650	28.0835	0.134562	0.001930	69.7138	140.561	-166.622	-0.054539	0.921507	-0.224517	-0.225867	-0.046505	69.7138	-0.224017	-321.894	0.000144	NaN
703	1.000000	0.932848	7.37193e+06	-41939.1	1005.82	-29784.4	0.000000	0.000000	6.933129	-0.018395	NaN	0.000000	0.001680	0.001630	28.0837	0.016636	0.001885	8.824543	127.007	10.8575	-0.019607	0.931481	-0.214526	-0.215893	-0.018395	8.824543	-0.212963	-214.144	8.589791E-5	NaN
703	1.000000	0.942824	7.37193e+06	-41939.1	1005.82	-29784.4	0.000000	0.000000	6.943108	0.073124	NaN	0.000000	0.001634	0.001680	28.0827	0.007383	0.002011	3.672150	152.985	-166.245	0.064903	0.941507	-0.204551	-0.205868	0.073124	3.672150	-0.219486	-272.556	-0.000268	NaN
703	1.000000	0.952856	7.37193e+06	-41939.1	1005.82	-29784.4	0.000000	0.000000	6.953138	0.022148	NaN	0.000000	0.001662	0.001670	28.0825	0.057670	0.001959	29.4343	-114.888	16.7075	-0.038483	0.951462	-0.194518	-0.195913	0.022148	29.4343	-0.195083	-109.287	-0.000203	NaN
703	1.000000	0.962856	7.37193e+06	-41939.1	1005.82	-29784.4	0.000000	0.000000	6.963139	0.032867	NaN	0.000000	0.001617	0.001691	28.0827	0.028424	0.002034	13.9721	-126.702	-171.551	0.022058	0.961514	-0.184519	-0.185860	0.032867	13.9721	-0.186283	-77.9343	-0.000422	NaN
703	1.000000	0.972853	7.37193e+06	-41939.1	1005.82	-29784.4	0.000000	0.000000	6.973136	0.034409	NaN	0.000000	0.001651	0.001663	28.0827	0.064730	0.001975	32.7736	-163.836	12.0785	0.063320	0.971475	-0.174522	-0.175900	0.034409	32.7736	-0.175309	-50.733	-0.000678	NaN
703	1.000000	0.982860	7.37193e+06	-41939.1	1005.82	-29784.4	0.000000	0.000000	6.983140	-0.016126	NaN	0.000000	0.001653	0.001724	28.0827	0.149425	0.001907	78.3683	157.11	-168.579	0.046333	0.981521	-0.164515	-0.165854	-0.016126	78.3683	-0.164361	-32.7394	0.000493	NaN
703	1.000000	0.992841	7.37193e+06	-41939.1	1005.82	-29784.4	0.000000	0.000000	6.993124	0.064486	NaN	0.000000	0.001649	0.001724	28.0826	0.036863	0.001997	18.4555	121.221	14.0368	0.081046	0.991474	-0.154534	-0.155901	0.064486	18.4555	-0.157155	-24.3919	-0.002644	NaN
703	1.000000	1.002878	7.37193e+06	-41939.1	1005.82	-29784.4	0.000000	0.000000	7.003158	-0.022410	NaN	0.000000	0.001622	0.001733	28.0825	0.114370	0.002027	56.433	-87.956	-165.37	-0.003949	1.001545	-0.144497	-0.145830	-0.022410	56.433	-0.144199	-14.1687	0.001582	NaN
703	1.000000	1.012845	7.37193e+06	-41939.1	1005.82	-29784.4	0.000000	0.000000	7.013127	0.002743	NaN	0.000000	0.001644	0.001744	28.0826	0.163465	0.002045	79.9262	112.092	13.8398	-0.021131	1.011426	-0.134529	-0.135948	0.002743	79.9262	-0.134555	-9.327943	-0.000294	NaN
703	1.000000	1.022867	7.37193e+06	-41939.1	1005.82	-29784.4	0.000000	0.000000	7.023147	-0.018315	NaN	0.000000	0.001616	0.001718	28.0824	0.056703	0.002063	27.4807	-107.01	-166.806	-0.029795	1.021565	-0.124508	-0.125810	-0.018315	27.4807	-0.124008	-5.811975	0.003151	NaN
703	1.000000	1.032894	7.37193e+06	-41939.1	1005.82	-29784.4	0.000000	0.000000	7.033176	0.019837	NaN	0.000000	0.001633	0.001732	28.0826	0.105714	0.001994	53.0065	-35.861	12.5246	0.083453	1.031523	-0.114481	-0.115851	0.019837	53.0065	-0.114762	-3.777357	-0.005252	NaN
703	1.000000	1.042903	7.37193e+06	-41939.1	1005.82	-29784.4	0.000000	0.000000	7.043183	-0.022654	NaN	0.000000	0.001625	0.001714	28.082	0.120424	0.002058	58.529	170.392	-170.047	-0.052678	1.041543	-0.104472	-0.105832	-0.022654	58.529	-0.104181	-2.256601	0.010039	NaN
703	1.000000	1.052912	7.37193e+06	-41939.1	1005.82	-29784.4	0.000000	0.000000	7.053192	-0.014772	NaN	0.000000	0.001608	0.001727	28.0822	0.073911	0.001935	38.2057	6.551564	13.1139	0.046109	1.051507	-0.094463	-0.095867	-0.014772	38.2057	-0.094173	-1.350600	0.010938	NaN
703	1.000000	1.062924	7.37193e+06	-41939.1	1005.82	-29784.4	0.000000	0.000000	7.063204	-0.016802	NaN	0.000000	0.001680	0.001722	28.0821	0.069715	0.002047	34.063	-110.432	-169.015	-0.006335	1.061572	-0.084451	-0.085803	-0.016802	34.063	-0.084081	-0.780491	0.021527	NaN
703	1.000000	1.072902	7.37193e+06	-41939.1	1005.82	-29784.4	0.000000	0.000000	7.073183	-0.007981	NaN	0.000000	0.001598	0.001715	28.0823	0.074038	0.001884	39.2924	-19.4643	9.326110	-0.064482	1.071501	-0.074473	-0.075874	-0.007981	39.2924	-0.074320	-0.443504	0.017996	NaN
703	1.000000	1.082898	7.37193e+06	-41939.1	1005.82	-29784.4	0.000000	0.000000	7.083177	-0.038008	NaN	0.000000	0.001644	0.001731	28.0834	0.097156	0.002147	45.242	-67.5438	-166.982	-0.031082	1.081595	-0.064477	-0.065780	-0.038008	45.242	-0.063847	-0.231450	0.164217	NaN
703	1.000000	1.092896	7.37193e+06	-41939.1	1005.82	-29784.4	0.000000	0.000000	7.093176	-0.043176	NaN	0.000000	0.001638	0.001729	28.0835	0.113624	0.002000	56.8098	-83.3408	14.2489	-0.029912	1.091589	-0.054478	-0.055785	-0.043176	56.8098	-0.053908	-0.119531	0.361210	NaN
703	1.000000	1.102908	7.37193e+06	-41939.1	1005.82	-29784.4	0.000000	0.000000	7.103188	-0.040529	NaN	0.000000	0.001622	0.001734	28.0839	0.014295	0.002097	6.815316	-163.821	-166.436	0.006565	1.101650	-0.044467	-0.045725	-0.040529	6.815316	-0.040007	-0.045243	0.895826	NaN
703	1.000000	1.112890	7.37193e+06	-41939.1	1005.82	-29784.4	0.000000	0.000000	7.113173	0.047740	NaN	0.000000	0.001591	0.001713	28.0835	0.066907	0.001984	33.7284	-13.6582	11.0932	0.021346	1.111534	-0.034485	-0.035840	0.047740	33.7284	-0.035546	-0.033236	-1.436400	NaN
703	1.000000	1.122923	7.37193e+06	-41939.1	1005.82	-29784.4	0.000000	0.000000	7.123204	-0.007154	NaN	0.000000	0.001638	0.001707	28.0838	0.091459	0.001976	46.2929	-110.787	-166.372	-0.050641	1.121609	-0.024451	-0.025766	-0.007154	46.2929	-0.024336	-0.016212	0.441264	NaN
703	1.000000	1.132903	7.37193e+06	-41939.1	1005.82	-29784.4	0.000000	0.000000	7.133183	-0.031976	NaN	0.000000	0.001601	0.001722	28.0837	0.098678	0.002066	47.7562	56.9067	11.9972	0.067510	1.131522	-0.014472	-0.015853	-0.031976	47.7562	-0.013970	-0.008666	3.690024	NaN
703	1.000000	1.142939	7.37193e+06	-41939.1	1005.82	-29784.4	0.000000	0.000000	7.143233	0.304328	NaN	0.000000	0.001612	0.001720	28.0843	0.533401	0.001961	272.039	22.3539	-170.29	0.136442	1.141608	-0.004435	-0.005767	0.304328	272.039	-0.005274	-0.003588	-84.8095	NaN
703	1.000000	1.152857	7.37193e+06	-41939.1	1005.82	-29784.4	0.000000	0.000000	7.153451	7.609609	NaN	0.000000	0.001623	0.001721	28.0835	7.841420	0.001736	4518.18	10.871	5.830565	5.637934	1.151512	0.005483	0.004138	7.609609	4518.18	0.004219	0.003432	2217.12	70461.2
703	2.000000	1.156463	7.37193e+06	-41939.1	1005.82	-29784.4	0.000000	0.000000	7.157134	9.490945	NaN	0.000000	0.001609	0.001737	28.084	11.1987	0.001843	6076.71	9.969559	-174.857	9.539688	1.156185	0.009089	0.008810	9.490945	6076.71	0.007917	0.006957	1364.17	66561.3
703	2.000000	1.158945	7.37193e+06	-41939.1	1005.82	-29784.4	0.000000	0.000000	7.159814	14.317	NaN	0.000000	0.001701	0.001739	28.0839	13.6546	0.001713	7971.26	6.766843	3.091279	12.751	1.158569	0.011570	0.011195	14.317	7971.26	0.010223	0.009430	1518.16	74995.2
703	2.000000	1.161426	7.37193e+06	-41939.1	1005.82	-29784.4	0.000000	0.000000	7.162511	19.5416	NaN	0.000000	0.001710	0.001742	28.0836	16.5261	0.001753	9428.28	13.5678	178.423	20.3676	1.161029	0.014052	0.013655	19.5416	9428.28	0.012497	0.012091	1616.17	78337.5
703	2.000000	1.163895	7.37193e+06	-41939.1	1005.82	-29784.4	0.000000	0.000000	7.165170	24.1914	NaN	0.000000	0.001680	0.001722	28.0838	18.4912	0.001916	9649.26	4.292026	5.694582	22.471	1.163500	0.016520	0.016125	24.1914	9649.26	0.014640	0.014808	1633.62	72445.7
703	2.000000	1.166348	7.37193e+06	-41939.1	1005.82	-29784.4	0.000000	0.000000	7.167801	28.5018	NaN	0.000000	0.001654	0.001774	28.0843	20.4688	0.001763	11611.9	2.684003	-174.874	27.974	1.166076	0.018973	0.018701	28.5018	11611.9	0.017132	0.018235	1563.02	78564
703	2.000000	1.168847	7.37193e+06	-41939.1	1005.82	-29784.4	0.000000	0.000000	7.170597	35.7434	NaN	0.000000	0.001635	0.001753	28.083	22.5839	0.001787	12640.1	7.519804	0.263980	33.4259	1.168495	0.021472	0.021121	35.7434	12640.1	0.019352	0.021534	1659.89	78698.5
703	2.000000	1.171402	7.37193e+06	-41939.1	1005.82	-29784.4	0.000000	0.000000	7.173188	36.6033	NaN	0.000000	0.001668	0.001720	28.0829	24.9965	0.001691	14784.8	8.047718	177.218	38.1792	1.171097	0.024028	0.023723	36.6033	14784.8	0.022171	0.026069	1404.1	83661.7
703	2.000000	1.173872	7.37193e+06	-41939.1	1005.82	-29784.4	0.000000	0.000000	7.176036	45.8098	NaN	0.000000	0.001671	0.001686	28.0828	27.3542	0.001792	15263.8	5.575295	0.372102	45.3115	1.173448	0.026497	0.026074	45.8098	15263.8	0.024246	0.029659	1544.57	80976.8
703	2.000000	1.176398	7.37193e+06	-41939.1	1005.82	-29784.4	0.000000	0.000000	7.178568	45.9407	NaN	0.000000	0.001658	0.001781	28.083	30.7958	0.001944	15839.2	6.520445	179.053	46.6134	1.176144	0.029024	0.028769	45.9407	15839.2	0.026848	0.034464	1332.99	77950.8
703	2.000000	1.178901	7.37193e+06	-41939.1	1005.82	-29784.4	0.000000	0.000000	7.181559	57.8303	NaN	0.000000	0.001634	0.001745	28.083	32.1575	0.001785	18015.6	9.837536	-5.289698	57.3127	1.178479	0.031526	0.031105	57.8303	18015.6	0.029119	0.038937	1485.22	83414.2
703	2.000000	1.181306	7.37193e+06	-41939.1	1005.82	-29784.4	0.000000	0.000000	7.184283	65.5978	NaN	0.000000	0.001627	0.001747	28.083	34.3278	0.001769	19407.1	2.634455	-179.728	63.6382	1.181008	0.033932	0.033633	65.5978	19407.1	0.031397	0.043688	1501.51	84830.6
703	2.000000	1.183797	7.37193e+06	-41939.1	1005.82	-29784.4	0.000000	0.000000	7.187343	79.4369	NaN	0.000000	0.001653	0.001745	28.083	36.3302	0.001739	20890.1	2.187254	0.026702	75.1599	1.183393	0.036423	0.036018	79.4369	20890.1	0.033571	0.048470	1638.89	86691.6
703	2.000000	1.186398	7.37193e+06	-41939.1	1005.82	-29784.4	0.000000	0.000000	7.190141	84.2262	NaN	0.000000	0.001631	0.001739	28.083	40.5174	0.001866	21708.6	6.311939	177.117	86.3342	1.186086	0.039023	0.038711	84.2262	21708.6	0.036113	0.054370	1549.13	85060
703	2.000000	1.188847	7.37193e+06	-41939.1	1005.82	-29784.4	0.000000	0.000000	7.192768	88.5747	NaN	0.000000	0.001672	0.001769	28.0828	41.5845	0.001804	23047.4	4.772297	-3.569136	86.2418	1.188531	0.041472	0.041157	88.5747	23047.4	0.038590	0.060435	1465.63	85654.9
703	2.000000	1.191347	7.37193e+06	-41939.1	1005.82	-29784.4	0.000000	0.000000	7.195767	100.716	NaN	0.000000	0.001636	0.001744	28.0831	43.5538	0.001744	24968	6.489598	174.575	101.06	1.190969	0.043972	0.043595	100.716	24968	0.040947	0.066498	1514.58	88461.2
703	2.000000	1.193808	7.37193e+06	-41939.1	1005.82	-29784.4	0.000000	0.000000	7.198603	109.826	NaN	0.000000	0.001614	0.001769	28.0828	47.031	0.001879	25032.5	7.136745	-5.846468	105.638	1.193436	0.046433	0.046062	109.826	25032.5	0.043143	0.072402	1516.88	84996.3
703	2.000000	1.196305	7.37193e+06	-41939.1	1005.82	-29784.4	0.000000	0.000000	7.201179	111.732	NaN	0.000000	0.001596	0.001764	28.0833	49.4661	0.001788	27671	6.449084	173.146	108.799	1.196172	0.048931	0.048798	111.732	27671	0.045903	0.080170	1393.68	89287.8
703	2.000000	1.198727	7.37193e+06	-41939.1	1005.82	-29784.4	0.000000	0.000000	7.204444	132.272	NaN	0.000000	0.001611	0.001781	28.0826	50.7726	0.001726	29410.6	5.783711	-6.268797	126.56	1.198468	0.051352	0.051093	132.272	29410.6	0.047979	0.086269	1533.25	91485
703	2.000000	1.201284	7.37193e+06	-41939.1	1005.82	-29784.4	0.000000	0.000000	7.207563	145.941	NaN	0.000000	0.001620	0.001767	28.0829	52.3475	0.001643	31857.1	3.383229	175.235	144.66	1.201014	0.053909	0.053639	145.941	31857.1	0.050473	0.093881	1554.53	94992.5
703	2.000000	1.203797	7.37193e+06	-41939.1	1005.82	-29784.4	0.000000	0.000000	7.210570	157.959	NaN	0.000000	0.001609	0.001722	28.0839	56.3734	0.001821	30964.2	5.498495	-6.473949	155.612	1.203425	0.056422	0.056050	157.959	30964.2	0.052596	0.100607	1570.06	89190.5
703	2.000000	1.206291	7.37193e+06	-41939.1	1005.82	-29784.4	0.000000	0.000000	7.213255	162.601	NaN	0.000000	0.001614	0.001750	28.0841	58.4047	0.001801	32424.3	0.487709	177.932	159.702	1.206146	0.058917	0.058771	162.601	32424.3	0.055156	0.109013	1491.58	89723.3
703	2.000000	1.208820	7.37193e+06	-41939.1	1005.82	-29784.4	0.000000	0.000000	7.216705	185.01	NaN	0.000000	0.001623	0.001738	28.0839	59.7672	0.001643	36372.1	4.604143	-6.341172	184.442	1.208467	0.061446	0.061092	185.01	36372.1	0.057631	0.117450	1575.23	96965.3
703	2.000000	1.211337	7.37193e+06	-41939.1	1005.82	-29784.4	0.000000	0.000000	7.219712	196.944	NaN	0.000000	0.001620	0.001736	28.0839	62.3932	0.001757	35517.4	6.811459	172.188	198.473	1.210976	0.063962	0.063602	196.944	35517.4	0.059803	0.125104	1574.24	91744.1
703	2.000000	1.213747	7.37193e+06	-41939.1	1005.82	-29784.4	0.000000	0.000000	7.222505	206.255	NaN	0.000000	0.001585	0.001750	28.0839	64.7861	0.001859	34853.5	-1.253044	-0.522575	201.806	1.213526	0.066372	0.066151	206.255	34853.5	0.061934	0.132833	1552.74	87370.8
703	2.000000	1.216349	7.37193e+06	-41939.1	1005.82	-29784.4	0.000000	0.000000	7.225647	219.404	NaN	0.000000	0.001586	0.001736	28.0839	67.1873	0.001737	38677.8	3.207496	174.37	222.735	1.216020	0.068974	0.068645	219.404	38677.8	0.064720	0.143276	1531.34	93357.4
703	2.000000	1.218764	7.37193e+06	-41939.1	1005.82	-29784.4	0.000000	0.000000	7.229097	244.565	NaN	0.000000	0.001658	0.001773	28.084	68.1124	0.001757	38757.7	2.750684	-4.652505	240.261	1.218376	0.071390	0.071002	244.565	38757.7	0.066657	0.150755	1622.26	91200
703	2.000000	1.221260	7.37193e+06	-41939.1	1005.82	-29784.4	0.000000	0.000000	7.231800	249.633	NaN	0.000000	0.001624	0.001763	28.0838	70.968	0.001767	40156.3	5.131561	171.976	246.139	1.220959	0.073885	0.073584	249.633	40156.3	0.069223	0.160940	1551.1	91452.2
703	2.000000	1.223784	7.37193e+06	-41939.1	1005.82	-29784.4	0.000000	0.000000	7.235163	270.027	NaN	0.000000	0.001646	0.001721	28.084	73.0191	0.001646	44360.3	1.166239	-5.116532	267.849	1.223589	0.076410	0.076214	270.027	44360.3	0.071844	0.171671	1572.93	97818
703	2.000000	1.226320	7.37193e+06	-41939.1	1005.82	-29784.4	0.000000	0.000000	7.238424	287.669	NaN	0.000000	0.001634	0.001751	28.0839	77.6603	0.001780	43618.5	4.304421	172.757	288.328	1.225938	0.078946	0.078563	287.669	43618.5	0.074000	0.180737	1591.64	93739
703	2.000000	1.228709	7.37193e+06	-41939.1	1005.82	-29784.4	0.000000	0.000000	7.241525	304.991	NaN	0.000000	0.001637	0.001743	28.084	78.9504	0.001821	43345.8	4.059176	-7.491621	297.934	1.228380	0.081335	0.081005	304.991	43345.8	0.076058	0.189599	1608.61	90949.8
703	2.000000	1.231203	7.37193e+06	-41939.1	1005.82	-29784.4	0.000000	0.000000	7.244525	317.302	NaN	0.000000	0.001666	0.001767	28.0842	80.6885	0.001855	43491.7	1.209359	175.284	311.996	1.230901	0.083828	0.083526	317.302	43491.7	0.078356	0.199731	1588.64	88911.2
703	2.000000	1.233745	7.37193e+06	-41939.1	1005.82	-29784.4	0.000000	0.000000	7.247945	338.682	NaN	0.000000	0.001654	0.001744	28.0843	83.8409	0.001863	44999.2	5.050928	-8.625798	334.779	1.233377	0.086370	0.086003	338.682	44999.2	0.080725	0.210432	1609.46	89623.5
703	2.000000	1.236214	7.37193e+06	-41939.1	1005.82	-29784.4	0.000000	0.000000	7.251006	353.073	NaN	0.000000	0.001643	0.001685	28.084	86.0803	0.001845	46653.4	3.827987	172.617	348.82	1.235929	0.088839	0.088555	353.073	46653.4	0.083163	0.221719	1592.44	90522.2
703	2.000000	1.238742	7.37193e+06	-41939.1	1005.82	-29784.4	0.000000	0.000000	7.254280	371.22	NaN	0.000000	0.001604	0.001713	28.0828	87.1779	0.001895	46005.1	4.565470	-7.885921	365.496	1.238314	0.091368	0.090939	371.22	46005.1	0.085316	0.231910	1600.7	87280.9
703	2.000000	1.241236	7.37193e+06	-41939.1	1005.82	-29784.4	0.000000	0.000000	7.257499	388.85	NaN	0.000000	0.001614	0.001736	28.0828	87.1791	0.001585	54993.1	-1.303945	176.065	386.107	1.241016	0.093862	0.093641	388.85	54993.1	0.088558	0.247668	1570.04	100959
703	2.000000	1.243773	7.37193e+06	-41939.1	1005.82	-29784.4	0.000000	0.000000	7.260925	410.482	NaN	0.000000	0.001640	0.001727	28.0837	92.0946	0.001832	50272.3	6.546134	-10.7461	409.255	1.243313	0.096399	0.095938	410.482	50272.3	0.090275	0.256205	1602.17	90742
703	2.000000	1.246179	7.37193e+06	-41939.1	1005.82	-29784.4	0.000000	0.000000	7.264181	431.197	NaN	0.000000	0.001603	0.001742	28.083	93.4538	0.001842	50737.6	2.251070	173.609	424.737	1.245866	0.098804	0.098491	431.197	50737.6	0.092430	0.267116	1614.27	89691.8
703	2.000000	1.248815	7.37193e+06	-41939.1	1005.82	-29784.4	0.000000	0.000000	7.267355	444.278	NaN	0.000000	0.001611	0.001780	28.0831	97.0717	0.001785	54370.3	10.3871	-15.1186	444.431	1.248449	0.101440	0.101074	444.278	54370.3	0.095312	0.282035	1575.26	93537
703	2.000000	1.251357	7.37193e+06	-41939.1	1005.82	-29784.4	0.000000	0.000000	7.270684	463.422	NaN	0.000000	0.001631	0.001757	28.0829	99.1694	0.001804	54985.9	5.953430	169.832	468.854	1.250843	0.103983	0.103469	463.422	54985.9	0.097662	0.294483	1573.68	92575.2
703	2.000000	1.252740	7.37193e+06	-41939.1	1005.82	-29784.4	0.000000	0.000000	7.272672	478.125	NaN	0.000000	0.001622	0.001765	28.0828	101.841	0.001888	53942.8	2.758145	-7.946319	473.669	1.252347	0.105366	0.104973	478.125	53942.8	0.098718	0.300162	1592.89	89955.8