File: remote_trans/data/nanoindenter/0828-1/data/Data_2025-08-06,11h17m57s/2025-07-22_16-23-58_1_194.txt
2025-07-22, 16:23:58, 1
Index	Phase	Displacement	Time	Pos X	Pos Y	Pos Z	Rot A	Rot B	Piezo Z	Force A	Force B	Gripper	Voltage A	Voltage B	Temperature	Amplitude force	Amplitude pos	Stiffness	Phase shift	Phase excitation	Force A raw	Displacement raw	HMax	HMax raw	Real Force	Real Stiffness	Contact Depth	Area	Hardness	Reduced Mod.
[#]	[#]	[um]	[s]	[um]	[um]	[um]	[m°]	[m°]	[um]	[uN]	[uN]	[V]	[V]	[V]	[°C]	[uN]	[um]	[N/m]	[°]	[°]	[uN]	[um]	[um]	[um]	[uN]	[N/m]	[um]	[um^2]	[MPa]	[MPa]
194	1.000000	0.002799	7.36694e+06	-48339.1	955.819	-29763.2	0.000000	0.000000	6.002834	-0.020715	NaN	0.000000	0.001599	0.001623	28.0781	0.069556	0.000879	79.1467	138.594	-167.688	-0.081056	0.001516	-1.017963	-1.019246	-0.020715	79.1467	-1.017767	-3.934648E+13	5.264828E-16	NaN
194	1.000000	0.010720	7.36694e+06	-48339.1	955.819	-29763.2	0.000000	0.000000	6.010755	-0.024444	NaN	0.000000	0.001628	0.001663	28.0779	0.068115	0.000964	70.6793	-11.2593	-163.331	0.046208	0.009424	-1.010043	-1.011339	-0.024444	70.6793	-1.009784	-3.072340E+13	7.956121E-16	NaN
194	1.000000	0.018726	7.36694e+06	-48339.1	955.818	-29763.2	0.000000	0.000000	6.018763	0.041783	NaN	0.000000	0.001589	0.001633	28.0778	0.077307	0.001652	46.7887	26.9373	-166.144	0.023050	0.017409	-1.002037	-1.003354	0.041783	46.7887	-1.002707	-2.467224E+13	-1.693518E-15	NaN
194	1.000000	0.026735	7.36694e+06	-48339.1	955.819	-29763.2	0.000000	0.000000	6.026771	-0.003393	NaN	0.000000	0.001618	0.001636	28.0791	0.104815	0.001808	57.9599	73.4223	-163.192	-0.006249	0.025384	-0.994028	-0.995379	-0.003393	57.9599	-0.993984	-1.882606E+13	1.802494E-16	NaN
194	1.000000	0.034720	7.36694e+06	-48339.1	955.818	-29763.2	0.000000	0.000000	6.034755	-0.029644	NaN	0.000000	0.001604	0.001661	28.0788	0.050389	0.002004	25.1391	-126.173	-166.735	-0.058290	0.033446	-0.986042	-0.987317	-0.029644	25.1391	-0.985158	-1.431841E+13	2.070333E-15	NaN
194	1.000000	0.042731	7.36694e+06	-48339.1	955.818	-29763.2	0.000000	0.000000	6.042769	0.035192	NaN	0.000000	0.001621	0.001696	28.0789	0.068691	0.002101	32.6898	120.095	-164.115	0.057067	0.041418	-0.978032	-0.979345	0.035192	32.6898	-0.978839	-1.176976E+13	-2.989996E-15	NaN
194	1.000000	0.050696	7.36694e+06	-48339.1	955.819	-29763.2	0.000000	0.000000	6.050732	-0.015036	NaN	0.000000	0.001609	0.001671	28.079	0.056239	0.001880	29.9091	-170.942	-165.127	0.074961	0.049412	-0.970066	-0.971351	-0.015036	29.9091	-0.969689	-8.860861E+12	1.696936E-15	NaN
194	1.000000	0.058716	7.36694e+06	-48339.1	955.818	-29763.2	0.000000	0.000000	6.058748	-0.085822	NaN	0.000000	0.001609	0.001668	28.0787	0.034655	0.001910	18.1456	36.5809	-167.208	-0.054899	0.057392	-0.962047	-0.963370	-0.085822	18.1456	-0.958499	-6.260929E+12	1.370749E-14	NaN
194	1.000000	0.066734	7.36694e+06	-48339.1	955.818	-29763.2	0.000000	0.000000	6.066768	-0.031746	NaN	0.000000	0.001573	0.001653	28.0789	0.071042	0.002005	35.4331	-103.78	-166.619	-0.066502	0.065434	-0.954029	-0.955329	-0.031746	35.4331	-0.953357	-5.337026E+12	5.948201E-15	NaN
194	1.000000	0.074716	7.36694e+06	-48339.1	955.817	-29763.2	0.000000	0.000000	6.074750	-0.032151	NaN	0.000000	0.001570	0.001664	28.0787	0.086357	0.002028	42.5769	-85.6249	-167.139	-0.019426	0.073358	-0.946047	-0.947405	-0.032151	42.5769	-0.945480	-4.178975E+12	7.693581E-15	NaN
194	1.000000	0.082721	7.36694e+06	-48339.1	955.818	-29763.2	0.000000	0.000000	6.082753	-0.076844	NaN	0.000000	0.001584	0.001659	28.0791	0.060583	0.002015	30.0678	-1.760289	-165.258	-0.033506	0.081422	-0.938042	-0.939341	-0.076844	30.0678	-0.936125	-3.125070E+12	2.458967E-14	NaN
194	1.000000	0.090728	7.36694e+06	-48339.1	955.818	-29763.2	0.000000	0.000000	6.090765	0.014910	NaN	0.000000	0.001564	0.001653	28.0791	0.042260	0.002127	19.8679	-116.265	-164.786	0.041134	0.089392	-0.930034	-0.931371	0.014910	19.8679	-0.930597	-2.631814E+12	-5.665127E-15	NaN
194	1.000000	0.098725	7.36694e+06	-48339.1	955.818	-29763.2	0.000000	0.000000	6.098758	-0.052385	NaN	0.000000	0.001598	0.001641	28.0789	0.033682	0.002030	16.5886	162.846	-164.841	0.012436	0.097452	-0.922038	-0.923310	-0.052385	16.5886	-0.919670	-1.873901E+12	2.795519E-14	NaN
194	1.000000	0.106742	7.36694e+06	-48339.1	955.82	-29763.2	0.000000	0.000000	6.106777	-0.025562	NaN	0.000000	0.001580	0.001636	28.0787	0.049765	0.001977	25.1732	-4.152765	-164.372	0.037966	0.105393	-0.914021	-0.915370	-0.025562	25.1732	-0.913259	-1.535259E+12	1.665028E-14	NaN
194	1.000000	0.114737	7.36694e+06	-48339.1	955.818	-29763.2	0.000000	0.000000	6.114771	-0.050737	NaN	0.000000	0.001626	0.001612	28.079	0.084538	0.001956	43.2257	102.062	-163.939	-0.030475	0.113465	-0.906026	-0.907297	-0.050737	43.2257	-0.905146	-1.192858E+12	4.253409E-14	NaN
194	1.000000	0.122745	7.36694e+06	-48339.1	955.819	-29763.2	0.000000	0.000000	6.122781	-0.005063	NaN	0.000000	0.001599	0.001658	28.079	0.077491	0.001982	39.1069	-160.569	-163.78	-0.050916	0.121455	-0.898018	-0.899307	-0.005063	39.1069	-0.897920	-9.527212E+11	5.314049E-15	NaN
194	1.000000	0.130755	7.36694e+06	-48339.1	955.818	-29763.2	0.000000	0.000000	6.130792	0.011958	NaN	0.000000	0.001615	0.001661	28.0792	0.026992	0.002175	12.4106	18.8477	-165.872	-0.027783	0.129423	-0.890007	-0.891340	0.011958	12.4106	-0.890730	-7.616981E+11	-1.569869E-14	NaN
194	1.000000	0.138776	7.36694e+06	-48339.1	955.818	-29763.2	0.000000	0.000000	6.138807	-0.107480	NaN	0.000000	0.001587	0.001669	28.0789	0.025516	0.001949	13.0884	-44.4748	-167.752	-0.076327	0.137462	-0.881987	-0.883300	-0.107480	13.0884	-0.875828	-4.789424E+11	2.244101E-13	NaN
194	1.000000	0.146780	7.36694e+06	-48339.1	955.818	-29763.2	0.000000	0.000000	6.146817	0.017228	NaN	0.000000	0.001622	0.001651	28.0789	0.084360	0.001938	43.5268	-124.384	-165.268	-0.014787	0.145482	-0.873983	-0.875281	0.017228	43.5268	-0.874279	-4.563912E+11	-3.774785E-14	NaN
194	1.000000	0.154783	7.36694e+06	-48339.1	955.818	-29763.2	0.000000	0.000000	6.154821	0.043562	NaN	0.000000	0.001582	0.001654	28.0789	0.036250	0.001918	18.9015	62.0968	-164.426	0.122595	0.153452	-0.865979	-0.867311	0.043562	18.9015	-0.867708	-3.719055E+11	-1.171327E-13	NaN
194	1.000000	0.162750	7.36694e+06	-48339.1	955.818	-29763.2	0.000000	0.000000	6.162784	-0.028215	NaN	0.000000	0.001580	0.001614	28.0777	0.107350	0.002110	50.8864	120.531	-167.314	-0.016949	0.161455	-0.858013	-0.859308	-0.028215	50.8864	-0.857597	-2.713912E+11	1.039641E-13	NaN
194	1.000000	0.170763	7.36694e+06	-48339.1	955.818	-29763.2	0.000000	0.000000	6.170801	0.049270	NaN	0.000000	0.001600	0.001636	28.0775	0.088612	0.001951	45.4217	84.352	-169.655	0.067595	0.169432	-0.849999	-0.851330	0.049270	45.4217	-0.850813	-2.196575E+11	-2.243032E-13	NaN
194	1.000000	0.178766	7.36694e+06	-48339.1	955.818	-29763.2	0.000000	0.000000	6.178802	0.014450	NaN	0.000000	0.001559	0.001630	28.0776	0.076643	0.001987	38.5765	31.4861	-161.715	0.004467	0.177412	-0.841997	-0.843351	0.014450	38.5765	-0.842278	-1.683253E+11	-8.584814E-14	NaN
194	1.000000	0.186785	7.36694e+06	-48339.1	955.818	-29763.2	0.000000	0.000000	6.186819	-0.049966	NaN	0.000000	0.001578	0.001642	28.0777	0.075858	0.002060	36.8187	-109.243	-165.473	-0.030164	0.185454	-0.833978	-0.835309	-0.049966	36.8187	-0.832960	-1.258647E+11	3.969818E-13	NaN
194	1.000000	0.194777	7.36694e+06	-48339.1	955.818	-29763.2	0.000000	0.000000	6.194813	-0.011105	NaN	0.000000	0.001580	0.001668	28.0776	0.090386	0.002054	43.9971	178.764	-166.029	0.051571	0.193489	-0.825986	-0.827274	-0.011105	43.9971	-0.825796	-1.006472E+11	1.103405E-13	NaN
194	1.000000	0.202782	7.36694e+06	-48339.1	955.818	-29763.2	0.000000	0.000000	6.202815	-0.064490	NaN	0.000000	0.001622	0.001644	28.0775	0.084845	0.001983	42.7884	68.5562	-167.344	-0.023269	0.201439	-0.817980	-0.819324	-0.064490	42.7884	-0.816850	-7.611904E+10	8.472212E-13	NaN
194	1.000000	0.210796	7.36694e+06	-48339.1	955.819	-29763.2	0.000000	0.000000	6.210831	-0.022750	NaN	0.000000	0.001625	0.001668	28.0778	0.041737	0.001882	22.1781	151.521	-165.444	0.004880	0.209487	-0.809966	-0.811275	-0.022750	22.1781	-0.809197	-5.993451E+10	3.795770E-13	NaN
194	1.000000	0.218781	7.36694e+06	-48339.1	955.819	-29763.2	0.000000	0.000000	6.218816	-0.023092	NaN	0.000000	0.001618	0.001690	28.0776	0.005385	0.001969	2.734447	-105.132	-165.296	-0.063617	0.217509	-0.801982	-0.803254	-0.023092	2.734447	-0.795648	-3.924494E+10	5.884091E-13	NaN
194	1.000000	0.226790	7.36694e+06	-48339.1	955.818	-29763.2	0.000000	0.000000	6.226827	0.025738	NaN	0.000000	0.001611	0.001650	28.0777	0.031635	0.001932	16.3763	-159.751	-165.461	-0.079437	0.225459	-0.793973	-0.795304	0.025738	16.3763	-0.795151	-3.863994E+10	-6.660969E-13	NaN
194	1.000000	0.234779	7.36694e+06	-48339.1	955.818	-29763.2	0.000000	0.000000	6.234812	-0.080172	NaN	0.000000	0.001622	0.001675	28.0779	0.024595	0.001934	12.7166	80.2125	-163.702	-0.098793	0.233476	-0.785984	-0.787287	-0.080172	12.7166	-0.781255	-2.502015E+10	3.204296E-12	NaN
194	1.000000	0.242807	7.36694e+06	-48339.1	955.818	-29763.2	0.000000	0.000000	6.242843	-0.004402	NaN	0.000000	0.001631	0.001652	28.0777	0.079205	0.002080	38.0763	-76.9882	-165.273	0.010270	0.241485	-0.777956	-0.779277	-0.004402	38.0763	-0.777869	-2.250465E+10	1.956258E-13	NaN
194	1.000000	0.250795	7.36694e+06	-48339.1	955.818	-29763.2	0.000000	0.000000	6.250831	0.007939	NaN	0.000000	0.001639	0.001633	28.0777	0.058595	0.001966	29.8008	-65.2387	-164.118	-0.026934	0.249446	-0.769967	-0.771317	0.007939	29.8008	-0.770167	-1.768395E+10	-4.489211E-13	NaN
194	1.000000	0.258783	7.36694e+06	-48339.1	955.819	-29763.2	0.000000	0.000000	6.258817	-0.058092	NaN	0.000000	0.001592	0.001629	28.0777	0.080409	0.001946	41.3178	154.869	-164.104	-0.154866	0.257506	-0.761980	-0.763257	-0.058092	41.3178	-0.760925	-1.323997E+10	4.387644E-12	NaN
194	1.000000	0.266799	7.36694e+06	-48339.1	955.818	-29763.2	0.000000	0.000000	6.266831	-0.105309	NaN	0.000000	0.001573	0.001626	28.0777	0.070150	0.002012	34.8665	85.9519	-164.79	-0.022077	0.265464	-0.753964	-0.755299	-0.105309	34.8665	-0.751698	-9.916019E+9	1.062004E-11	NaN
194	1.000000	0.274779	7.36694e+06	-48339.1	955.817	-29763.2	0.000000	0.000000	6.274814	-0.029625	NaN	0.000000	0.001607	0.001639	28.078	0.079070	0.001927	41.033	-112.458	-166.852	-0.081228	0.273480	-0.745983	-0.747283	-0.029625	41.033	-0.745442	-8.150162E+9	3.634897E-12	NaN
194	1.000000	0.282810	7.36694e+06	-48339.1	955.817	-29763.2	0.000000	0.000000	6.282844	-0.038581	NaN	0.000000	0.001601	0.001694	28.0778	0.069248	0.001974	35.0883	-160.02	-163.909	-0.029937	0.281463	-0.737953	-0.739300	-0.038581	35.0883	-0.737128	-6.279630E+9	6.143887E-12	NaN
194	1.000000	0.290786	7.36694e+06	-48339.1	955.818	-29763.2	0.000000	0.000000	6.290821	-0.039545	NaN	0.000000	0.001642	0.001653	28.0777	0.154293	0.001967	78.45	-10.3075	-168.078	-0.122109	0.289535	-0.729976	-0.731228	-0.039545	78.45	-0.729598	-4.958308E+9	7.975595E-12	NaN
194	1.000000	0.298832	7.36694e+06	-48339.1	955.817	-29763.2	0.000000	0.000000	6.298865	-0.079551	NaN	0.000000	0.001621	0.001634	28.0788	0.037372	0.001900	19.6747	-152.847	-163.945	-0.023879	0.297508	-0.721930	-0.723255	-0.079551	19.6747	-0.718898	-3.543584E+9	2.244934E-11	NaN
194	1.000000	0.306821	7.36694e+06	-48339.1	955.818	-29763.2	0.000000	0.000000	6.306854	-0.060006	NaN	0.000000	0.001639	0.001624	28.0787	0.066410	0.002042	32.5246	156.829	-164.601	-0.105140	0.305517	-0.713942	-0.715246	-0.060006	32.5246	-0.712558	-2.903745E+9	2.066512E-11	NaN
194	1.000000	0.314875	7.36694e+06	-48339.1	955.818	-29763.2	0.000000	0.000000	6.314910	-0.023299	NaN	0.000000	0.001628	0.001617	28.0789	0.009237	0.002038	4.532881	-9.744400	-167.092	-0.042338	0.313503	-0.705888	-0.707259	-0.023299	4.532881	-0.702033	-2.085872E+9	1.116988E-11	NaN
194	1.000000	0.322809	7.36694e+06	-48339.1	955.818	-29763.2	0.000000	0.000000	6.322845	-0.002048	NaN	0.000000	0.001641	0.001623	28.0789	0.069706	0.001959	35.5779	126.387	-167.886	0.010939	0.321566	-0.697954	-0.699196	-0.002048	35.5779	-0.697911	-1.832305E+9	1.117798E-12	NaN
194	1.000000	0.330858	7.36694e+06	-48339.1	955.818	-29763.2	0.000000	0.000000	6.330892	-0.023170	NaN	0.000000	0.001619	0.001624	28.0786	0.051373	0.001935	26.5487	167.402	-166.333	0.026655	0.329501	-0.689905	-0.691261	-0.023170	26.5487	-0.689251	-1.395329E+9	1.660516E-11	NaN
194	1.000000	0.338832	7.36694e+06	-48339.1	955.818	-29763.2	0.000000	0.000000	6.338864	-0.081465	NaN	0.000000	0.001612	0.001644	28.0787	0.062510	0.002051	30.4788	-41.3529	-163.852	-0.058814	0.337516	-0.681931	-0.683246	-0.081465	30.4788	-0.679927	-1.040403E+9	7.830114E-11	NaN
194	1.000000	0.346812	7.36694e+06	-48339.1	955.817	-29763.2	0.000000	0.000000	6.346845	-0.062932	NaN	0.000000	0.001613	0.001628	28.0785	0.068212	0.002176	31.3443	-177.738	-165.717	-0.052830	0.345550	-0.673951	-0.675213	-0.062932	31.3443	-0.672445	-8.219598E+8	7.656349E-11	NaN
194	1.000000	0.354845	7.36694e+06	-48339.1	955.819	-29763.2	0.000000	0.000000	6.354876	-0.121757	NaN	0.000000	0.001587	0.001625	28.0787	0.117318	0.001906	61.5592	79.0126	-165.51	-0.125930	0.353567	-0.665917	-0.667196	-0.121757	61.5592	-0.664434	-6.385484E+8	1.906785E-10	NaN
194	1.000000	0.362871	7.36694e+06	-48339.1	955.819	-29763.2	0.000000	0.000000	6.362907	-0.010144	NaN	0.000000	0.001594	0.001647	28.0787	0.065850	0.002082	31.6352	151.469	-165.769	-0.008378	0.361551	-0.657891	-0.659212	-0.010144	31.6352	-0.657651	-5.155691E+8	1.967438E-11	NaN
194	1.000000	0.370866	7.36694e+06	-48339.1	955.818	-29763.2	0.000000	0.000000	6.370904	0.048903	NaN	0.000000	0.001647	0.001636	28.0788	0.046521	0.002060	22.578	100.771	-166.434	-0.043489	0.369528	-0.649897	-0.651235	0.048903	22.578	-0.651521	-4.249024E+8	-1.150925E-10	NaN
194	1.000000	0.378844	7.36694e+06	-48339.1	955.818	-29763.2	0.000000	0.000000	6.378882	0.049531	NaN	0.000000	0.001629	0.001656	28.0789	0.095559	0.002029	47.0945	29.9922	-165.646	0.044894	0.377554	-0.641919	-0.643209	0.049531	47.0945	-0.642708	-3.216878E+8	-1.539713E-10	NaN
194	1.000000	0.386881	7.36694e+06	-48339.1	955.819	-29763.2	0.000000	0.000000	6.386916	-0.017812	NaN	0.000000	0.001644	0.001648	28.0787	0.137779	0.001970	69.9493	-117.979	-164.618	0.013806	0.385556	-0.633882	-0.635206	-0.017812	69.9493	-0.633691	-2.419347E+8	7.362283E-11	NaN
194	1.000000	0.394849	7.36694e+06	-48339.1	955.818	-29763.2	0.000000	0.000000	6.394884	-0.025024	NaN	0.000000	0.001629	0.001617	28.0788	0.068546	0.002100	32.6376	-70.6634	-166.062	-0.062293	0.393567	-0.625914	-0.627195	-0.025024	32.6376	-0.625339	-1.857787E+8	1.346985E-10	NaN
194	1.000000	0.402861	7.36694e+06	-48339.1	955.818	-29763.2	0.000000	0.000000	6.402895	-0.044552	NaN	0.000000	0.001593	0.001682	28.0787	0.026249	0.001914	13.7154	42.2506	-165.666	-0.027901	0.401550	-0.617902	-0.619213	-0.044552	13.7154	-0.615465	-1.359225E+8	3.277721E-10	NaN
194	1.000000	0.410833	7.36694e+06	-48339.1	955.818	-29763.2	0.000000	0.000000	6.410867	-0.031222	NaN	0.000000	0.001592	0.001712	28.0799	0.069332	0.002008	34.5227	140.684	-166.688	-0.041956	0.409534	-0.609930	-0.611228	-0.031222	34.5227	-0.609252	-1.116395E+8	2.796670E-10	NaN
194	1.000000	0.418838	7.36694e+06	-48339.1	955.818	-29763.2	0.000000	0.000000	6.418874	0.006331	NaN	0.000000	0.001591	0.001738	28.0789	0.067461	0.001976	34.1484	-96.0232	-164.619	-0.063812	0.417514	-0.601925	-0.603249	0.006331	34.1484	-0.602064	-8.889641E+7	-7.122217E-11	NaN
194	1.000000	0.426878	7.36694e+06	-48339.1	955.818	-29763.2	0.000000	0.000000	6.426915	0.028080	NaN	0.000000	0.001600	0.001706	28.0788	0.136383	0.001911	71.3553	116.911	-167.363	-0.017524	0.425534	-0.593885	-0.595229	0.028080	71.3553	-0.594180	-6.922824E+7	-4.056176E-10	NaN
194	1.000000	0.434876	7.36694e+06	-48339.1	955.818	-29763.2	0.000000	0.000000	6.434909	-0.074188	NaN	0.000000	0.001625	0.001718	28.0776	0.106636	0.001987	53.6745	115.985	-165.449	0.031055	0.433581	-0.585887	-0.587181	-0.074188	53.6745	-0.584850	-5.148153E+7	1.441056E-9	NaN
194	1.000000	0.442882	7.36694e+06	-48339.1	955.818	-29763.2	0.000000	0.000000	6.442918	0.022624	NaN	0.000000	0.001631	0.001705	28.0775	0.018437	0.002027	9.095016	-112.156	-162.914	-0.088840	0.441573	-0.577881	-0.579190	0.022624	9.095016	-0.579747	-4.377540E+7	-5.168162E-10	NaN
194	1.000000	0.450871	7.36694e+06	-48339.1	955.818	-29763.2	0.000000	0.000000	6.450907	-0.004195	NaN	0.000000	0.001609	0.001715	28.0777	0.048182	0.002129	22.6308	-155.948	-167.123	-0.069798	0.449600	-0.569892	-0.571162	-0.004195	22.6308	-0.569753	-3.185755E+7	1.316776E-10	NaN
194	1.000000	0.458904	7.36694e+06	-48339.1	955.818	-29763.2	0.000000	0.000000	6.458941	0.025544	NaN	0.000000	0.001599	0.001718	28.0776	0.020897	0.002101	9.945310	-175.263	-164.35	-0.010157	0.457550	-0.561859	-0.563213	0.025544	9.945310	-0.563785	-2.634688E+7	-9.695082E-10	NaN
194	1.000000	0.466876	7.36694e+06	-48339.1	955.818	-29763.2	0.000000	0.000000	6.466911	-0.020255	NaN	0.000000	0.001569	0.001727	28.0776	0.080598	0.001998	40.3391	-105.178	-163.672	0.005812	0.465576	-0.553887	-0.555187	-0.020255	40.3391	-0.553511	-1.899194E+7	1.066497E-9	NaN
194	1.000000	0.474923	7.36694e+06	-48339.1	955.818	-29763.2	0.000000	0.000000	6.474959	0.008974	NaN	0.000000	0.001586	0.001734	28.0776	0.135754	0.001995	68.0437	-118.062	-168.199	0.034152	0.473619	-0.545840	-0.547144	0.008974	68.0437	-0.545939	-1.491728E+7	-6.016146E-10	NaN
194	1.000000	0.482894	7.36694e+06	-48339.1	955.819	-29763.2	0.000000	0.000000	6.482929	-0.013327	NaN	0.000000	0.001574	0.001746	28.0775	0.063733	0.002092	30.4634	102.269	-163.317	-0.002340	0.481575	-0.537869	-0.539188	-0.013327	30.4634	-0.537541	-1.140887E+7	1.168126E-9	NaN
194	1.000000	0.490902	7.36694e+06	-48339.1	955.819	-29763.2	0.000000	0.000000	6.490938	0.017778	NaN	0.000000	0.001575	0.001677	28.0776	0.044928	0.002077	21.6302	75.0874	-162.571	-0.092302	0.489580	-0.529861	-0.531183	0.017778	21.6302	-0.530477	-9.10343e+06	-1.952911E-9	NaN
194	1.000000	0.498914	7.36694e+06	-48339.1	955.817	-29763.2	0.000000	0.000000	6.498953	0.070119	NaN	0.000000	0.001579	0.001698	28.0778	0.139491	0.002127	65.5797	-58.69	-165.098	0.009017	0.497615	-0.521849	-0.523148	0.070119	65.5797	-0.522651	-7.08685e+06	-9.894190E-9	NaN
194	1.000000	0.506902	7.36694e+06	-48339.1	955.819	-29763.2	0.000000	0.000000	6.506936	-0.045928	NaN	0.000000	0.001578	0.001737	28.078	0.134011	0.001980	67.6977	-34.7982	-165.767	-0.032991	0.505640	-0.513861	-0.515123	-0.045928	67.6977	-0.513352	-5.2613e+06	8.729426E-9	NaN
194	1.000000	0.514901	7.36694e+06	-48339.1	955.818	-29763.2	0.000000	0.000000	6.514937	0.007166	NaN	0.000000	0.001594	0.001745	28.0777	0.089654	0.002010	44.5982	50.6222	-164.49	-0.040374	0.513627	-0.505862	-0.507136	0.007166	44.5982	-0.505983	-4.15376e+06	-1.725261E-9	NaN
194	1.000000	0.522917	7.36694e+06	-48339.1	955.818	-29763.2	0.000000	0.000000	6.522950	-0.062048	NaN	0.000000	0.001618	0.001724	28.0776	0.106105	0.001933	54.8879	178.324	-161.54	-0.086830	0.521630	-0.497846	-0.499133	-0.062048	54.8879	-0.496998	-3.11264e+06	1.993412E-8	NaN
194	1.000000	0.530929	7.36694e+06	-48339.1	955.818	-29763.2	0.000000	0.000000	6.530965	-0.000108	NaN	0.000000	0.001618	0.001732	28.0775	0.031856	0.001839	17.323	-43.4662	-162.753	-0.037294	0.529630	-0.489834	-0.491133	-0.000108	17.323	-0.489829	-2.47177e+06	4.352716E-11	NaN
194	1.000000	0.538931	7.36694e+06	-48339.1	955.818	-29763.2	0.000000	0.000000	6.538967	0.022233	NaN	0.000000	0.001582	0.001718	28.0776	0.060943	0.001892	32.2151	155.966	-165.887	0.067834	0.537564	-0.481832	-0.483199	0.022233	32.2151	-0.482350	-1.94274e+06	-1.144398E-8	NaN
194	1.000000	0.546923	7.36694e+06	-48339.1	955.818	-29763.2	0.000000	0.000000	6.546958	-0.007777	NaN	0.000000	0.001609	0.001754	28.0778	0.058476	0.001975	29.613	-19.9796	-164.681	-0.085087	0.545657	-0.473840	-0.475106	-0.007777	29.613	-0.473643	-1.46718e+06	5.300548E-9	NaN
194	1.000000	0.554911	7.36694e+06	-48339.1	955.818	-29763.2	0.000000	0.000000	6.554944	-0.075644	NaN	0.000000	0.001603	0.001754	28.0778	0.045036	0.002052	21.9513	-49.6803	-165.842	-0.092513	0.553625	-0.465852	-0.467138	-0.075644	21.9513	-0.463267	-1.04934e+06	7.208712E-8	NaN
194	1.000000	0.562922	7.36694e+06	-48339.1	955.817	-29763.2	0.000000	0.000000	6.562955	-0.069326	NaN	0.000000	0.001596	0.001738	28.0777	0.073472	0.002062	35.6294	-98.3211	-164.445	-0.211168	0.561628	-0.457841	-0.459134	-0.069326	35.6294	-0.456381	-839743	8.255652E-8	NaN
194	1.000000	0.570927	7.36694e+06	-48339.1	955.818	-29763.2	0.000000	0.000000	6.570962	-0.035462	NaN	0.000000	0.001573	0.001759	28.0789	0.093339	0.002023	46.14	-30.1182	-165.738	-0.093831	0.569606	-0.449835	-0.451157	-0.035462	46.14	-0.449259	-666661	5.319304E-8	NaN
194	1.000000	0.578952	7.36694e+06	-48339.1	955.818	-29763.2	0.000000	0.000000	6.578985	-0.073445	NaN	0.000000	0.001580	0.001758	28.0788	0.042661	0.002036	20.9508	36.1649	-164.791	0.000655	0.577632	-0.441811	-0.443130	-0.073445	20.9508	-0.439181	-480629	1.528106E-7	NaN
194	1.000000	0.586930	7.36694e+06	-48339.1	955.819	-29763.2	0.000000	0.000000	6.586962	-0.101833	NaN	0.000000	0.001600	0.001740	28.079	0.064653	0.001927	33.5584	15.2054	-165.643	-0.031900	0.585614	-0.433832	-0.435149	-0.101833	33.5584	-0.431557	-375040	2.715263E-7	NaN
194	1.000000	0.594919	7.36694e+06	-48339.1	955.818	-29763.2	0.000000	0.000000	6.594952	-0.051388	NaN	0.000000	0.001617	0.001728	28.0787	0.033265	0.001829	18.1891	-52.2471	-166.685	-0.114585	0.593667	-0.425844	-0.427096	-0.051388	18.1891	-0.423725	-290550	1.768631E-7	NaN
194	1.000000	0.602938	7.36694e+06	-48339.1	955.819	-29763.2	0.000000	0.000000	6.602972	-0.043153	NaN	0.000000	0.001668	0.001690	28.0792	0.094957	0.002089	45.4496	122.386	-168.023	-0.083635	0.601600	-0.417825	-0.419163	-0.043153	45.4496	-0.417113	-234129	1.843108E-7	NaN
194	1.000000	0.610932	7.36694e+06	-48339.1	955.818	-29763.2	0.000000	0.000000	6.610966	-0.049081	NaN	0.000000	0.001665	0.001688	28.079	0.110646	0.001943	56.9582	-150.792	-163.66	-0.071388	0.609637	-0.409830	-0.411125	-0.049081	56.9582	-0.409184	-180633	2.717167E-7	NaN
194	1.000000	0.618962	7.36694e+06	-48339.1	955.817	-29763.2	0.000000	0.000000	6.618997	-0.023319	NaN	0.000000	0.001689	0.001681	28.0789	0.046800	0.001937	24.1554	123.614	-166.749	-0.102793	0.617683	-0.401800	-0.403080	-0.023319	24.1554	-0.401076	-138465	1.684133E-7	NaN
194	1.000000	0.626992	7.36694e+06	-48339.1	955.818	-29763.2	0.000000	0.000000	6.627025	-0.063801	NaN	0.000000	0.001625	0.001691	28.0791	0.028044	0.002088	13.4302	-21.2781	-166.889	-0.011546	0.625685	-0.393771	-0.395077	-0.063801	13.4302	-0.390208	-96860.1	6.586948E-7	NaN
194	1.000000	0.634961	7.36694e+06	-48339.1	955.818	-29763.2	0.000000	0.000000	6.634995	-0.050443	NaN	0.000000	0.001614	0.001712	28.079	0.052191	0.002006	26.0117	97.2907	-163.086	-0.078896	0.633622	-0.385802	-0.387141	-0.050443	26.0117	-0.384347	-79842.9	6.317809E-7	NaN
194	1.000000	0.642964	7.36694e+06	-48339.1	955.819	-29763.2	0.000000	0.000000	6.642998	-0.042542	NaN	0.000000	0.001627	0.001720	28.0791	0.087548	0.001916	45.6868	131.733	-167.408	0.059464	0.641677	-0.377799	-0.379086	-0.042542	45.6868	-0.377101	-62843.3	6.769497E-7	NaN
194	1.000000	0.650936	7.36694e+06	-48339.1	955.819	-29763.2	0.000000	0.000000	6.650973	0.016197	NaN	0.000000	0.001610	0.001725	28.0791	0.041400	0.001935	21.3935	-139.026	-166.612	-0.025500	0.649646	-0.369827	-0.371117	0.016197	21.3935	-0.370394	-50327.8	-3.218306E-7	NaN
194	1.000000	0.658953	7.36694e+06	-48339.1	955.818	-29763.2	0.000000	0.000000	6.658989	-0.002926	NaN	0.000000	0.001630	0.001705	28.0793	0.099051	0.001964	50.4325	-136.994	-167.204	0.004259	0.657729	-0.361809	-0.363034	-0.002926	50.4325	-0.361766	-37788.8	7.742460E-8	NaN
194	1.000000	0.666979	7.36694e+06	-48339.1	955.818	-29763.2	0.000000	0.000000	6.667013	-0.035853	NaN	0.000000	0.001625	0.001675	28.0792	0.003920	0.001888	2.076962	-170.51	-163.596	-0.045192	0.665653	-0.353784	-0.355110	-0.035853	2.076962	-0.340837	-18782.5	1.908865E-6	NaN
194	1.000000	0.675001	7.36694e+06	-48339.1	955.819	-29763.2	0.000000	0.000000	6.675034	-0.060685	NaN	0.000000	0.001616	0.001722	28.0788	0.043424	0.002001	21.7031	113.574	-162.444	-0.060288	0.673720	-0.345762	-0.347043	-0.060685	21.7031	-0.343665	-20650.5	2.938668E-6	NaN
194	1.000000	0.682974	7.36694e+06	-48339.1	955.817	-29763.2	0.000000	0.000000	6.683009	-0.031223	NaN	0.000000	0.001600	0.001707	28.0788	0.029995	0.001915	15.6637	57.987	-163.487	-0.017781	0.681635	-0.337789	-0.339128	-0.031223	15.6637	-0.336294	-16124.3	1.936376E-6	NaN
194	1.000000	0.690954	7.36694e+06	-48339.1	955.818	-29763.2	0.000000	0.000000	6.690988	-0.024376	NaN	0.000000	0.001646	0.001682	28.0789	0.037123	0.001926	19.2734	-67.4189	-159.916	-0.001575	0.689668	-0.329809	-0.331095	-0.024376	19.2734	-0.328861	-12553.3	1.941763E-6	NaN
194	1.000000	0.698960	7.36694e+06	-48339.1	955.818	-29763.2	0.000000	0.000000	6.698996	0.004058	NaN	0.000000	0.001675	0.001695	28.0792	0.021045	0.001930	10.9047	-174.426	-161.463	0.040007	0.697666	-0.321803	-0.323097	0.004058	10.9047	-0.322082	-9983.13	-4.065331E-7	NaN
194	1.000000	0.707028	7.36694e+06	-48339.1	955.819	-29763.2	0.000000	0.000000	6.707062	-0.043847	NaN	0.000000	0.001692	0.001713	28.078	0.075853	0.002016	37.6326	-66.8131	-166.167	-0.067672	0.705677	-0.313735	-0.315086	-0.043847	37.6326	-0.312861	-7300.73	6.005801E-6	NaN
194	1.000000	0.714991	7.36694e+06	-48339.1	955.818	-29763.2	0.000000	0.000000	6.715026	-0.029212	NaN	0.000000	0.001734	0.001775	28.0778	0.090747	0.002083	43.5554	-112.822	-161.601	-0.063394	0.713649	-0.305771	-0.307114	-0.029212	43.5554	-0.305268	-5635.59	5.183418E-6	NaN
194	1.000000	0.722981	7.36694e+06	-48339.1	955.819	-29763.2	0.000000	0.000000	6.723015	-0.038301	NaN	0.000000	0.001657	0.001758	28.0777	0.153206	0.001962	78.0993	-121.631	-164.35	-0.073947	0.721709	-0.297782	-0.299054	-0.038301	78.0993	-0.297414	-4306.36	8.893985E-6	NaN
194	1.000000	0.730982	7.36694e+06	-48339.1	955.818	-29763.2	0.000000	0.000000	6.731016	-0.037358	NaN	0.000000	0.001670	0.001650	28.0778	0.055049	0.001864	29.5378	167.28	-166.129	-0.051613	0.729700	-0.289781	-0.291063	-0.037358	29.5378	-0.288833	-3204.83	1.165674E-5	NaN
194	1.000000	0.739023	7.36694e+06	-48339.1	955.818	-29763.2	0.000000	0.000000	6.739058	-0.033382	NaN	0.000000	0.001668	0.001661	28.0779	0.045930	0.002003	22.9314	126.315	-164.483	-0.066181	0.737724	-0.281740	-0.283039	-0.033382	22.9314	-0.280648	-2414.01	1.382853E-5	NaN
194	1.000000	0.747036	7.36694e+06	-48339.1	955.818	-29763.2	0.000000	0.000000	6.747070	-0.055040	NaN	0.000000	0.001638	0.001673	28.0779	0.058133	0.002118	27.4457	129.124	-166.446	0.014105	0.745678	-0.273726	-0.275085	-0.055040	27.4457	-0.272222	-1800.1	3.057610E-5	NaN
194	1.000000	0.755020	7.36694e+06	-48339.1	955.818	-29763.2	0.000000	0.000000	6.755051	-0.107274	NaN	0.000000	0.001599	0.001642	28.0779	0.095888	0.001943	49.349	-5.062133	-167.226	-0.069803	0.753690	-0.265743	-0.267073	-0.107274	49.349	-0.264113	-1354.7	7.918666E-5	NaN
194	1.000000	0.762981	7.36694e+06	-48339.1	955.818	-29763.2	0.000000	0.000000	6.763013	-0.086846	NaN	0.000000	0.001567	0.001641	28.0777	0.034702	0.002097	16.5473	-77.6576	-163.946	-0.031723	0.761733	-0.257782	-0.259030	-0.086846	16.5473	-0.253846	-942.615	9.213301E-5	NaN
194	1.000000	0.771023	7.36694e+06	-48339.1	955.818	-29763.2	0.000000	0.000000	6.771056	-0.076088	NaN	0.000000	0.001621	0.001644	28.0778	0.012339	0.002078	5.939076	-133.461	-163.594	-0.009795	0.769703	-0.249739	-0.251060	-0.076088	5.939076	-0.240131	-577.555	0.000132	NaN
194	1.000000	0.779052	7.36694e+06	-48339.1	955.818	-29763.2	0.000000	0.000000	6.779087	-0.008155	NaN	0.000000	0.001624	0.001652	28.0777	0.124829	0.001984	62.924	82.9958	-166.74	-0.064228	0.777775	-0.241711	-0.242988	-0.008155	62.924	-0.241614	-609.17	1.338684E-5	NaN
194	1.000000	0.786999	7.36694e+06	-48339.1	955.818	-29763.2	0.000000	0.000000	6.787034	-0.030349	NaN	0.000000	0.001602	0.001649	28.0777	0.078638	0.002084	37.7254	-120.712	-163.224	-0.059529	0.785704	-0.233764	-0.235059	-0.030349	37.7254	-0.233161	-449.091	6.757767E-5	NaN
194	1.000000	0.795044	7.36694e+06	-48339.1	955.818	-29763.2	0.000000	0.000000	6.795081	0.006677	NaN	0.000000	0.001632	0.001643	28.0778	0.093655	0.002009	46.6237	78.0541	-162.976	-0.053060	0.793685	-0.225718	-0.227078	0.006677	46.6237	-0.225826	-343.909	-1.941415E-5	NaN
194	1.000000	0.803035	7.36694e+06	-48339.1	955.818	-29763.2	0.000000	0.000000	6.803069	-0.037633	NaN	0.000000	0.001605	0.001648	28.0778	0.022774	0.001985	11.472	71.3478	-166.373	0.055966	0.801651	-0.217728	-0.219112	-0.037633	11.472	-0.215268	-233.248	0.000161	NaN
194	1.000000	0.811017	7.36694e+06	-48339.1	955.818	-29763.2	0.000000	0.000000	6.811053	0.004532	NaN	0.000000	0.001621	0.001636	28.0776	0.023591	0.002038	11.5784	-22.7465	-166.517	-0.055478	0.809728	-0.209745	-0.211035	0.004532	11.5784	-0.210039	-192.066	-2.359777E-5	NaN
194	1.000000	0.819028	7.36694e+06	-48339.1	955.818	-29763.2	0.000000	0.000000	6.819065	0.028247	NaN	0.000000	0.001587	0.001638	28.0775	0.052182	0.001978	26.3799	149.584	-161.718	-0.018653	0.817731	-0.201735	-0.203032	0.028247	26.3799	-0.202538	-144.986	-0.000195	NaN
194	1.000000	0.827034	7.36694e+06	-48339.1	955.818	-29763.2	0.000000	0.000000	6.827068	-0.049629	NaN	0.000000	0.001577	0.001652	28.0777	0.073501	0.001966	37.3955	12.2262	-161.732	0.018616	0.825782	-0.193729	-0.194981	-0.049629	37.3955	-0.192733	-99.9036	0.000497	NaN
194	1.000000	0.835045	7.36694e+06	-48339.1	955.818	-29763.2	0.000000	0.000000	6.835083	0.046829	NaN	0.000000	0.001593	0.001692	28.0775	0.026949	0.001918	14.0494	117.345	-165.08	0.032955	0.833795	-0.185718	-0.186967	0.046829	14.0494	-0.188218	-83.9866	-0.000558	NaN
194	1.000000	0.843059	7.36694e+06	-48339.1	955.817	-29763.2	0.000000	0.000000	6.843092	-0.064756	NaN	0.000000	0.001594	0.001660	28.0788	0.021063	0.002062	10.2141	88.9961	-165.737	-0.014461	0.841737	-0.177703	-0.179026	-0.064756	10.2141	-0.172949	-46.2014	0.001402	NaN
194	1.000000	0.851057	7.36694e+06	-48339.1	955.818	-29763.2	0.000000	0.000000	6.851093	-0.002258	NaN	0.000000	0.001586	0.001647	28.0791	0.059566	0.001885	31.6024	2.349348	-162.942	0.069458	0.849759	-0.169706	-0.171004	-0.002258	31.6024	-0.169652	-40.5111	5.573959E-5	NaN
194	1.000000	0.859031	7.36694e+06	-48339.1	955.818	-29763.2	0.000000	0.000000	6.859066	-0.003481	NaN	0.000000	0.001595	0.001659	28.0789	0.063844	0.001967	32.4608	40.2946	-165.466	0.004184	0.857740	-0.161732	-0.163022	-0.003481	32.4608	-0.161652	-29.3277	0.000119	NaN
194	1.000000	0.867064	7.36694e+06	-48339.1	955.818	-29763.2	0.000000	0.000000	6.867098	-0.043469	NaN	0.000000	0.001603	0.001636	28.0788	0.112678	0.001879	59.9821	100.995	-170.088	-0.045557	0.865813	-0.153699	-0.154949	-0.043469	59.9821	-0.153156	-20.6685	0.002103	NaN
194	1.000000	0.875076	7.36694e+06	-48339.1	955.819	-29763.2	0.000000	0.000000	6.875108	-0.088668	NaN	0.000000	0.001555	0.001619	28.0788	0.028708	0.002070	13.8662	-103.751	-167.244	0.020530	0.873776	-0.145687	-0.146987	-0.088668	13.8662	-0.140891	-12.2936	0.007213	NaN
194	1.000000	0.883060	7.36694e+06	-48339.1	955.819	-29763.2	0.000000	0.000000	6.883095	-0.033132	NaN	0.000000	0.001597	0.001677	28.0787	0.109964	0.001995	55.1082	113.753	-164.734	-0.088318	0.881736	-0.137703	-0.139026	-0.033132	55.1082	-0.137252	-10.4983	0.003156	NaN
194	1.000000	0.891049	7.36695e+06	-48339.1	955.818	-29763.2	0.000000	0.000000	6.891086	0.025168	NaN	0.000000	0.001589	0.001690	28.079	0.023723	0.001977	11.9986	-140.017	-168.135	0.053225	0.889761	-0.129714	-0.131001	0.025168	11.9986	-0.131287	-8.071427	-0.003118	NaN
194	1.000000	0.899056	7.36695e+06	-48339.1	955.818	-29763.2	0.000000	0.000000	6.899089	-0.059772	NaN	0.000000	0.001570	0.001660	28.079	0.058636	0.002027	28.9305	58.6059	-164.306	-0.065621	0.897779	-0.121707	-0.122983	-0.059772	28.9305	-0.120158	-4.866999	0.012281	NaN
194	1.000000	0.907080	7.36695e+06	-48339.1	955.819	-29763.2	0.000000	0.000000	6.907115	-0.037084	NaN	0.000000	0.001574	0.001664	28.0791	0.147063	0.002007	73.2724	-117.001	-164.324	0.031873	0.905735	-0.113682	-0.115028	-0.037084	73.2724	-0.113303	-3.523585	0.010525	NaN
194	1.000000	0.915092	7.36695e+06	-48339.1	955.817	-29763.2	0.000000	0.000000	6.915128	0.008533	NaN	0.000000	0.001594	0.001684	28.0789	0.089992	0.001924	46.7715	114.697	-161.825	-0.076034	0.913777	-0.105671	-0.106985	0.008533	46.7715	-0.105808	-2.446759	-0.003488	NaN
194	1.000000	0.923071	7.36695e+06	-48339.1	955.818	-29763.2	0.000000	0.000000	6.923105	-0.056245	NaN	0.000000	0.001603	0.001655	28.079	0.099990	0.002173	46.0074	169.179	-166.265	-0.059681	0.921796	-0.097692	-0.098967	-0.056245	46.0074	-0.096775	-1.547584	0.036344	NaN
194	1.000000	0.931120	7.36695e+06	-48339.1	955.818	-29763.2	0.000000	0.000000	6.931154	-0.047500	NaN	0.000000	0.001621	0.001648	28.079	0.104718	0.002071	50.5613	149.276	-167.446	-0.036035	0.929776	-0.089643	-0.090986	-0.047500	50.5613	-0.088938	-1.020534	0.046545	NaN
194	1.000000	0.939086	7.36695e+06	-48339.1	955.818	-29763.2	0.000000	0.000000	6.939118	-0.078454	NaN	0.000000	0.001599	0.001660	28.079	0.050612	0.002024	25.0103	49.9624	-168.615	-0.049871	0.937752	-0.081677	-0.083010	-0.078454	25.0103	-0.079325	-0.595328	0.131784	NaN
194	1.000000	0.947081	7.36695e+06	-48339.1	955.819	-29763.2	0.000000	0.000000	6.947114	-0.063126	NaN	0.000000	0.001595	0.001667	28.0789	0.079101	0.001916	41.2829	-160.86	-164.677	0.018301	0.945852	-0.073682	-0.074911	-0.063126	41.2829	-0.072535	-0.398290	0.158492	NaN
194	1.000000	0.955070	7.36695e+06	-48339.1	955.818	-29763.2	0.000000	0.000000	6.955106	-0.005002	NaN	0.000000	0.001592	0.001657	28.079	0.028669	0.001817	15.7758	-150.424	-162.711	-0.005692	0.953741	-0.065692	-0.067022	-0.005002	15.7758	-0.065455	-0.256547	0.019499	NaN
194	1.000000	0.963092	7.36695e+06	-48339.1	955.817	-29763.2	0.000000	0.000000	6.963126	-0.032114	NaN	0.000000	0.001576	0.001642	28.0792	0.083361	0.002034	40.9904	-148.15	-170.692	0.021121	0.961767	-0.057671	-0.058996	-0.032114	40.9904	-0.057083	-0.148274	0.216584	NaN
194	1.000000	0.971094	7.36695e+06	-48339.1	955.818	-29763.2	0.000000	0.000000	6.971130	0.002810	NaN	0.000000	0.001554	0.001706	28.079	0.087843	0.002007	43.7616	-23.2573	-165.477	0.021763	0.969767	-0.049669	-0.050996	0.002810	43.7616	-0.049717	-0.089469	-0.031404	NaN
194	1.000000	0.979083	7.36695e+06	-48339.1	955.818	-29763.2	0.000000	0.000000	6.979118	-0.025127	NaN	0.000000	0.001576	0.001646	28.0779	0.098659	0.001879	52.5196	173.821	-161.616	-0.078851	0.977797	-0.041680	-0.042966	-0.025127	52.5196	-0.041321	-0.049609	0.506503	NaN
194	1.000000	0.987116	7.36695e+06	-48339.1	955.818	-29763.2	0.000000	0.000000	6.987152	0.022205	NaN	0.000000	0.001557	0.001656	28.0777	0.011072	0.002018	5.485930	-108.056	-162.401	0.022313	0.985783	-0.033647	-0.034980	0.022205	5.485930	-0.036683	-0.035924	-0.618108	NaN
194	1.000000	0.995106	7.36695e+06	-48339.1	955.818	-29763.2	0.000000	0.000000	6.995140	-0.028770	NaN	0.000000	0.001576	0.001699	28.0779	0.014011	0.002120	6.608593	22.4804	-166.931	-0.096237	0.993810	-0.025657	-0.026953	-0.028770	6.608593	-0.022392	-0.014450	1.991063	NaN
194	1.000000	1.003088	7.36695e+06	-48339.1	955.819	-29763.2	0.000000	0.000000	7.003123	-0.026581	NaN	0.000000	0.001584	0.001769	28.0779	0.032184	0.001956	16.4572	-125.213	-166.971	-0.024032	1.001806	-0.017674	-0.018956	-0.026581	16.4572	-0.016463	-0.010171	2.613403	NaN
194	1.000000	1.011120	7.36695e+06	-48339.1	955.818	-29763.2	0.000000	0.000000	7.011157	0.035154	NaN	0.000000	0.001558	0.001679	28.0775	0.044429	0.002065	21.5117	-172.9	-162.512	0.066712	1.009805	-0.009643	-0.010958	0.035154	21.5117	-0.010868	-0.006883	-5.107361	NaN
194	1.000000	1.019106	7.36695e+06	-48339.1	955.818	-29763.2	0.000000	0.000000	7.019139	-0.066790	NaN	0.000000	0.001553	0.001698	28.0778	0.072930	0.002134	34.1731	47.6574	-165.969	-0.113015	1.017798	-0.001656	-0.002964	-0.066790	34.1731	-0.000191	-0.000142	470.781	NaN
194	1.000000	1.027124	7.36695e+06	-48339.1	955.819	-29763.2	0.000000	0.000000	7.027357	4.792366	NaN	0.000000	0.001551	0.001733	28.0777	5.202191	0.001769	2940.51	12.2323	-169.819	4.073786	1.025747	0.006361	0.004984	4.792366	2940.51	0.005139	0.004260	1124.91	41160.3
194	2.000000	1.031703	7.36695e+06	-48339.1	955.818	-29763.2	0.000000	0.000000	7.032160	10.2354	NaN	0.000000	0.001547	0.001682	28.0787	9.588057	0.001492	6425.07	7.964995	-174.97	9.674404	1.031405	0.010941	0.010642	10.2354	6425.07	0.009746	0.008900	1149.98	62222.2
194	2.000000	1.033734	7.36695e+06	-48339.1	955.818	-29763.2	0.000000	0.000000	7.034297	12.8013	NaN	0.000000	0.001544	0.001683	28.0779	12.4703	0.001842	6769.48	8.798765	-173.6	13.3427	1.033361	0.012972	0.012599	12.8013	6769.48	0.011553	0.010960	1168.05	59078.9
194	2.000000	1.035640	7.36695e+06	-48339.1	955.819	-29763.2	0.000000	0.000000	7.036434	18.4497	NaN	0.000000	0.001539	0.001658	28.0776	14.8208	0.001718	8624.61	7.906248	-177.435	16.7431	1.035307	0.014877	0.014544	18.4497	8624.61	0.013273	0.013051	1413.72	68976.1
194	2.000000	1.037630	7.36695e+06	-48339.1	955.818	-29763.2	0.000000	0.000000	7.038516	20.6777	NaN	0.000000	0.001536	0.001683	28.0778	16.7602	0.001787	9379.35	7.053804	-176.957	19.652	1.037343	0.016867	0.016580	20.6777	9379.35	0.015214	0.015571	1327.94	68672.7
194	2.000000	1.039681	7.36695e+06	-48339.1	955.818	-29763.2	0.000000	0.000000	7.040788	26.0414	NaN	0.000000	0.001546	0.001623	28.0775	18.78	0.001693	11089.5	8.827590	-178.295	25.9364	1.039257	0.018919	0.018494	26.0414	11089.5	0.017157	0.018271	1425.31	74956.2
194	2.000000	1.041622	7.36695e+06	-48339.1	955.819	-29763.2	0.000000	0.000000	7.042857	29.1499	NaN	0.000000	0.001568	0.001670	28.0779	20.39	0.001812	11251	9.226497	-178.719	28.0487	1.041244	0.020860	0.020481	29.1499	11251	0.018917	0.020868	1396.85	71157.6
194	2.000000	1.043614	7.36695e+06	-48339.1	955.818	-29763.2	0.000000	0.000000	7.045011	33.1129	NaN	0.000000	0.001529	0.001659	28.0778	22.8629	0.001805	12669.4	6.863466	-178.409	32.7724	1.043433	0.022851	0.022670	33.1129	12669.4	0.020891	0.023962	1381.9	74777.2
194	2.000000	1.045632	7.36695e+06	-48339.1	955.82	-29763.2	0.000000	0.000000	7.047230	37.987	NaN	0.000000	0.001578	0.001684	28.0776	24.3793	0.001655	14728.5	9.825792	176.651	37.8916	1.045306	0.024869	0.024543	37.987	14728.5	0.022935	0.027365	1388.14	81344.8
194	2.000000	1.047624	7.36695e+06	-48339.1	955.819	-29763.2	0.000000	0.000000	7.049436	43.2071	NaN	0.000000	0.001534	0.001666	28.0782	25.9832	0.001874	13863.5	3.605581	-174.648	42.3294	1.047234	0.026861	0.026472	43.2071	13863.5	0.024524	0.030154	1432.86	72940.8
194	2.000000	1.049621	7.36695e+06	-48339.1	955.818	-29763.2	0.000000	0.000000	7.051666	48.8795	NaN	0.000000	0.001651	0.001703	28.0777	28.4353	0.001844	15421.5	5.878601	-178.943	47.5407	1.049298	0.028858	0.028535	48.8795	15421.5	0.026481	0.033765	1447.65	76677.3
194	2.000000	1.051654	7.36695e+06	-48339.1	955.818	-29763.2	0.000000	0.000000	7.053924	54.3349	NaN	0.000000	0.001635	0.001675	28.0798	30.0871	0.001745	17243.9	5.276810	-179.644	54.0735	1.051302	0.030892	0.030539	54.3349	17243.9	0.028529	0.037749	1439.37	81087.6
194	2.000000	1.053617	7.36695e+06	-48339.1	955.818	-29763.2	0.000000	0.000000	7.056108	59.7173	NaN	0.000000	0.001633	0.001618	28.079	32.0948	0.001879	17081	5.375164	-178.341	59.7089	1.053302	0.032855	0.032539	59.7173	17081	0.030232	0.041227	1448.5	76859
194	2.000000	1.055588	7.36695e+06	-48339.1	955.818	-29763.2	0.000000	0.000000	7.058424	68.1008	NaN	0.000000	0.001616	0.001657	28.0787	33.2445	0.001664	19981.8	2.581348	-177.937	66.206	1.055266	0.034826	0.034503	68.1008	19981.8	0.032270	0.045579	1494.11	85511.3
194	2.000000	1.057582	7.36695e+06	-48339.1	955.818	-29763.2	0.000000	0.000000	7.060674	74.3306	NaN	0.000000	0.001608	0.001675	28.0794	35.881	0.001711	20974.9	4.406234	179.07	73.9073	1.057301	0.036819	0.036538	74.3306	20974.9	0.034161	0.049811	1492.25	85863.8
194	2.000000	1.059637	7.36695e+06	-48339.1	955.819	-29763.2	0.000000	0.000000	7.063072	82.6717	NaN	0.000000	0.001640	0.001678	28.0788	38.4202	0.001766	21756.3	3.779648	-178.686	81.707	1.059225	0.038874	0.038462	82.6717	21756.3	0.036024	0.054158	1526.48	85413.4
194	2.000000	1.061628	7.36695e+06	-48339.1	955.819	-29763.2	0.000000	0.000000	7.065299	88.4089	NaN	0.000000	0.001638	0.001667	28.0802	41.0592	0.001920	21386.9	7.811211	176.452	91.2372	1.061258	0.040865	0.040495	88.4089	21386.9	0.037765	0.058380	1514.37	80870.2
194	2.000000	1.063566	7.36695e+06	-48339.1	955.818	-29763.2	0.000000	0.000000	7.067576	96.6593	NaN	0.000000	0.001582	0.001656	28.0794	42.9671	0.001903	22581.4	4.523964	179.588	95.2484	1.063222	0.042804	0.042459	96.6593	22581.4	0.039593	0.062981	1534.73	82208.8
194	2.000000	1.065541	7.36695e+06	-48339.1	955.819	-29763.2	0.000000	0.000000	7.070074	109.376	NaN	0.000000	0.001605	0.001679	28.0789	43.7269	0.001745	25062.9	7.300618	175.587	108.158	1.065304	0.044778	0.044541	109.376	25062.9	0.041505	0.067976	1609.04	87826.5
194	2.000000	1.067548	7.36695e+06	-48339.1	955.819	-29763.2	0.000000	0.000000	7.072307	114.877	NaN	0.000000	0.001589	0.001636	28.0793	47.3061	0.001851	25553.8	8.677262	173.688	112.602	1.067159	0.046785	0.046397	114.877	25553.8	0.043413	0.073147	1570.49	86323.7
194	2.000000	1.069529	7.36695e+06	-48339.1	955.819	-29763.2	0.000000	0.000000	7.074696	124.784	NaN	0.000000	0.001599	0.001646	28.0789	47.8414	0.001769	27051.6	3.388339	178.761	122.082	1.069216	0.048766	0.048453	124.784	27051.6	0.045307	0.078461	1590.39	88234.7
194	2.000000	1.071581	7.36695e+06	-48339.1	955.818	-29763.2	0.000000	0.000000	7.077115	133.729	NaN	0.000000	0.001594	0.001679	28.0795	50.7638	0.001725	29421.3	8.932445	171.72	132.825	1.071225	0.050818	0.050462	133.729	29421.3	0.047409	0.084573	1581.23	92431.6
194	2.000000	1.073558	7.36695e+06	-48339.1	955.818	-29763.2	0.000000	0.000000	7.079487	143.35	NaN	0.000000	0.001620	0.001679	28.0794	52.8786	0.001755	30129.3	4.729442	175.816	141.284	1.073295	0.052795	0.052533	143.35	30129.3	0.049227	0.090038	1592.11	91738.1
194	2.000000	1.075662	7.36695e+06	-48339.1	955.818	-29763.2	0.000000	0.000000	7.082020	153.779	NaN	0.000000	0.001609	0.001642	28.0793	53.7966	0.001718	31316.9	5.013878	175.811	156.704	1.075243	0.054899	0.054480	153.779	31316.9	0.051216	0.096209	1598.39	92245.4
194	2.000000	1.077535	7.36695e+06	-48339.1	955.819	-29763.2	0.000000	0.000000	7.084472	167.87	NaN	0.000000	0.001630	0.001652	28.0795	56.9751	0.001830	31130.2	4.034076	176.7	164.982	1.077255	0.056772	0.056492	167.87	31130.2	0.052727	0.101030	1661.59	89481
194	2.000000	1.079528	7.36695e+06	-48339.1	955.818	-29763.2	0.000000	0.000000	7.086682	173.115	NaN	0.000000	0.001637	0.001635	28.0791	59.5112	0.001812	32850.4	5.536415	174.804	168.326	1.079215	0.058766	0.058453	173.115	32850.4	0.054813	0.107869	1604.86	91382.9
194	2.000000	1.081554	7.36695e+06	-48339.1	955.819	-29763.2	0.000000	0.000000	7.089284	187.142	NaN	0.000000	0.001588	0.001682	28.0792	60.3139	0.001745	34556.2	5.436288	174.644	186.554	1.081234	0.060791	0.060471	187.142	34556.2	0.056729	0.114342	1636.68	93367.5
194	2.000000	1.083576	7.36695e+06	-48339.1	955.818	-29763.2	0.000000	0.000000	7.091719	197.176	NaN	0.000000	0.001586	0.001656	28.0789	63.2744	0.001795	35251.6	2.526877	177.338	198.279	1.083263	0.062813	0.062500	197.176	35251.6	0.058618	0.120900	1630.9	92627.2
194	2.000000	1.085531	7.36695e+06	-48339.1	955.818	-29763.2	0.000000	0.000000	7.094098	207.505	NaN	0.000000	0.001587	0.001683	28.0784	64.3799	0.001766	36460.6	3.152787	175.734	205.576	1.085288	0.064768	0.064526	207.505	36460.6	0.060500	0.127606	1626.14	93252.7
194	2.000000	1.087575	7.36695e+06	-48339.1	955.818	-29763.2	0.000000	0.000000	7.096746	222.185	NaN	0.000000	0.001595	0.001668	28.0779	66.8927	0.001823	36698.5	3.336671	176.196	222.811	1.087185	0.066812	0.066423	222.185	36698.5	0.062271	0.134078	1657.14	91567.9
194	2.000000	1.089584	7.36695e+06	-48339.1	955.819	-29763.2	0.000000	0.000000	7.099189	232.737	NaN	0.000000	0.001572	0.001658	28.0778	68.9372	0.001881	36650.1	6.508662	173.412	234.974	1.089268	0.068822	0.068505	232.737	36650.1	0.064059	0.140764	1653.38	89248.8
194	2.000000	1.091498	7.36695e+06	-48339.1	955.818	-29763.2	0.000000	0.000000	7.101699	247.224	NaN	0.000000	0.001586	0.001661	28.0777	69.06	0.001688	40915.8	5.360157	173.18	247.042	1.091299	0.070735	0.070536	247.224	40915.8	0.066204	0.148989	1659.34	96847.2
194	2.000000	1.093574	7.36695e+06	-48339.1	955.819	-29763.2	0.000000	0.000000	7.104205	257.697	NaN	0.000000	0.001604	0.001667	28.0777	73.0079	0.001854	39381.6	3.648844	175.386	259.074	1.093221	0.072811	0.072458	257.697	39381.6	0.067904	0.155665	1655.46	91195.2
194	2.000000	1.095519	7.36695e+06	-48339.1	955.82	-29763.2	0.000000	0.000000	7.106709	271.272	NaN	0.000000	0.001567	0.001666	28.0779	74.5794	0.001847	40386	6.540679	171.65	267.57	1.095243	0.074757	0.074480	271.272	40386	0.069719	0.162947	1664.79	91407.5
194	2.000000	1.097486	7.36695e+06	-48339.1	955.819	-29763.2	0.000000	0.000000	7.109156	282.945	NaN	0.000000	0.001588	0.001735	28.0776	76.9192	0.001796	42817.7	2.842837	175.104	279.967	1.097204	0.076724	0.076442	282.945	42817.7	0.071768	0.171353	1651.25	94504.2
194	2.000000	1.099619	7.36695e+06	-48339.1	955.819	-29763.2	0.000000	0.000000	7.111975	299.638	NaN	0.000000	0.001570	0.001743	28.0776	79.6923	0.001822	43729.8	4.878173	174.009	300.654	1.099207	0.078856	0.078445	299.638	43729.8	0.073717	0.179538	1668.94	94291.5
194	2.000000	1.101524	7.36695e+06	-48339.1	955.819	-29763.2	0.000000	0.000000	7.114455	313.626	NaN	0.000000	0.001633	0.001754	28.0778	81.0655	0.001771	45772.4	3.854769	173.706	314.332	1.101263	0.080761	0.080500	313.626	45772.4	0.075622	0.187708	1670.82	96524.1
194	2.000000	1.103552	7.36695e+06	-48339.1	955.818	-29763.2	0.000000	0.000000	7.116880	323.302	NaN	0.000000	0.001615	0.001739	28.0776	85.0208	0.001913	44447.6	5.682076	171.889	323.753	1.103370	0.082789	0.082607	323.302	44447.6	0.077334	0.195193	1656.32	91915.6
194	2.000000	1.105484	7.36695e+06	-48339.1	955.819	-29763.2	0.000000	0.000000	7.119746	346.007	NaN	0.000000	0.001603	0.001741	28.0778	85.246	0.001842	46284.9	5.463403	172.21	344.051	1.105194	0.084721	0.084431	346.007	46284.9	0.079115	0.203129	1703.39	93826.6
194	2.000000	1.107422	7.36695e+06	-48339.1	955.819	-29763.2	0.000000	0.000000	7.122459	364.863	NaN	0.000000	0.001576	0.001709	28.0776	86.6813	0.001650	52523.1	3.511797	173.247	359.261	1.107178	0.086659	0.086416	364.863	52523.1	0.081449	0.213755	1706.92	103792
194	2.000000	1.109535	7.36695e+06	-48339.1	955.819	-29763.2	0.000000	0.000000	7.125133	378.497	NaN	0.000000	0.001574	0.001743	28.0775	89.5091	0.001702	52596.7	3.677147	173.166	375.683	1.109071	0.088772	0.088308	378.497	52596.7	0.083375	0.222710	1699.51	101827
194	2.000000	1.111482	7.36695e+06	-48339.1	955.819	-29763.2	0.000000	0.000000	7.127771	395.305	NaN	0.000000	0.001584	0.001703	28.0777	91.4455	0.001825	50099.2	5.503481	171.767	392.739	1.111142	0.090719	0.090380	395.305	50099.2	0.084801	0.229453	1722.81	95555.7
194	2.000000	1.113613	7.36695e+06	-48339.1	955.818	-29763.2	0.000000	0.000000	7.130395	407.304	NaN	0.000000	0.001578	0.001720	28.0776	93.8866	0.001771	53027.4	5.923717	171.348	412.755	1.113239	0.092850	0.092476	407.304	53027.4	0.087090	0.240470	1693.78	98796.9
194	2.000000	1.115499	7.36695e+06	-48339.1	955.819	-29763.2	0.000000	0.000000	7.132905	422.469	NaN	0.000000	0.001565	0.001723	28.0779	94.2809	0.001749	53910.1	2.262733	173.992	420.166	1.115304	0.094736	0.094542	422.469	53910.1	0.088859	0.249153	1695.62	98675.8
194	2.000000	1.117511	7.36695e+06	-48339.1	955.819	-29763.2	0.000000	0.000000	7.135725	442.119	NaN	0.000000	0.001574	0.001724	28.0775	97.6079	0.001803	54139.3	4.979406	171.289	440.935	1.117299	0.096748	0.096536	442.119	54139.3	0.090624	0.257956	1713.93	97389.6
194	2.000000	1.119493	7.36695e+06	-48339.1	955.819	-29763.2	0.000000	0.000000	7.138619	464.299	NaN	0.000000	0.001560	0.001726	28.0782	99.9984	0.001827	54737.5	6.204544	170.243	460.316	1.119118	0.098730	0.098355	464.299	54737.5	0.092369	0.266802	1740.23	96819.6
194	2.000000	1.121593	7.36695e+06	-48339.1	955.819	-29763.2	0.000000	0.000000	7.140895	468.582	NaN	0.000000	0.001580	0.001699	28.0789	102.466	0.001881	54485.9	7.087313	169.257	474.061	1.121270	0.100830	0.100508	468.582	54485.9	0.094380	0.277171	1690.58	94554.7
194	2.000000	1.123446	7.36695e+06	-48339.1	955.819	-29763.2	0.000000	0.000000	7.143616	489.706	NaN	0.000000	0.001560	0.001714	28.0788	101.205	0.001707	59296.7	0.078945	175.939	484.379	1.123150	0.102683	0.102387	489.706	59296.7	0.096489	0.288243	1698.94	100908
194	2.000000	1.125423	7.36695e+06	-48339.1	955.82	-29763.2	0.000000	0.000000	7.146451	510.56	NaN	0.000000	0.001553	0.001689	28.0792	102.073	0.001786	57153.9	-0.610636	177.068	505.366	1.125130	0.104660	0.104367	510.56	57153.9	0.097961	0.296085	1724.37	95964.4
194	2.000000	1.127467	7.36695e+06	-48339.1	955.82	-29763.2	0.000000	0.000000	7.149321	530.656	NaN	0.000000	0.001566	0.001733	28.079	106.08	0.001860	57017.8	5.422598	170.688	527.546	1.127161	0.106704	0.106398	530.656	57017.8	0.099724	0.305615	1736.36	94231.7
194	2.000000	1.129099	7.36695e+06	-48339.1	955.82	-29763.2	0.000000	0.000000	7.151165	535.819	NaN	0.000000	0.001615	0.001737	28.0792	106.857	0.001819	58745.9	6.697280	-10.9068	537.68	1.128819	0.108336	0.108056	535.819	58745.9	0.101495	0.315330	1699.23	95580.2