File: remote_trans/data/nanoindenter/0828-1/data/Data_2025-08-06,11h17m57s/2025-07-22_16-23-58_1_354.txt
2025-07-22, 16:23:58, 1
Index	Phase	Displacement	Time	Pos X	Pos Y	Pos Z	Rot A	Rot B	Piezo Z	Force A	Force B	Gripper	Voltage A	Voltage B	Temperature	Amplitude force	Amplitude pos	Stiffness	Phase shift	Phase excitation	Force A raw	Displacement raw	HMax	HMax raw	Real Force	Real Stiffness	Contact Depth	Area	Hardness	Reduced Mod.
[#]	[#]	[um]	[s]	[um]	[um]	[um]	[m°]	[m°]	[um]	[uN]	[uN]	[V]	[V]	[V]	[°C]	[uN]	[um]	[N/m]	[°]	[°]	[uN]	[um]	[um]	[um]	[uN]	[N/m]	[um]	[um^2]	[MPa]	[MPa]
354	1.000000	0.002457	7.36852e+06	-56339.1	955.817	-29739.5	0.000000	0.000000	6.002852	0.050629	NaN	0.000000	0.001580	0.001697	28.0854	0.066779	0.000968	68.9756	-72.9678	-164.562	-0.024350	0.001186	-1.051906	-1.053178	0.050629	68.9756	-1.052457	-1.151969E+14	-4.394955E-16	NaN
354	1.000000	0.010378	7.36852e+06	-56339.1	955.819	-29739.5	0.000000	0.000000	6.010772	0.015865	NaN	0.000000	0.001541	0.001664	28.0829	0.081748	0.000906	90.274	96.3641	-151.238	-0.013121	0.009066	-1.043985	-1.045297	0.015865	90.274	-1.044117	-8.898641E+13	-1.782844E-16	NaN
354	1.000000	0.018378	7.36852e+06	-56339.1	955.817	-29739.5	0.000000	0.000000	6.018773	0.058021	NaN	0.000000	0.001555	0.001670	28.0821	0.050908	0.001924	26.4619	-142.96	-168.929	0.047283	0.017101	-1.035985	-1.037262	0.058021	26.4619	-1.037630	-7.279401E+13	-7.970536E-16	NaN
354	1.000000	0.026411	7.36852e+06	-56339.1	955.818	-29739.5	0.000000	0.000000	6.026807	0.072404	NaN	0.000000	0.001590	0.001669	28.0822	0.096901	0.001881	51.5028	-56.6306	-163.754	0.017836	0.025089	-1.027952	-1.029274	0.072404	51.5028	-1.029006	-5.573349E+13	-1.299103E-15	NaN
354	1.000000	0.034386	7.36852e+06	-56339.1	955.817	-29739.5	0.000000	0.000000	6.034780	0.029343	NaN	0.000000	0.001551	0.001633	28.0806	0.044214	0.001879	23.5264	132.968	-168.602	0.068560	0.033078	-1.019978	-1.021285	0.029343	23.5264	-1.020913	-4.337497E+13	-6.764907E-16	NaN
354	1.000000	0.042362	7.36852e+06	-56339.1	955.818	-29739.5	0.000000	0.000000	6.042758	0.085688	NaN	0.000000	0.001600	0.001664	28.0806	0.065850	0.002091	31.4863	159.772	-168.896	0.122562	0.041068	-1.012002	-1.013296	0.085688	31.4863	-1.014043	-3.505833E+13	-2.444166E-15	NaN
354	1.000000	0.050386	7.36852e+06	-56339.1	955.817	-29739.5	0.000000	0.000000	6.050781	0.059404	NaN	0.000000	0.001567	0.001688	28.0804	0.071428	0.002055	34.757	140.878	-164.973	0.053645	0.048971	-1.003978	-1.005393	0.059404	34.757	-1.005259	-2.670386E+13	-2.224547E-15	NaN
354	1.000000	0.058348	7.36852e+06	-56339.1	955.818	-29739.5	0.000000	0.000000	6.058742	0.028361	NaN	0.000000	0.001557	0.001695	28.0805	0.070799	0.002077	34.095	-95.4498	-166.873	-0.054467	0.057089	-0.996015	-0.997274	0.028361	34.095	-0.996639	-2.044179E+13	-1.387381E-15	NaN
354	1.000000	0.066366	7.36852e+06	-56339.1	955.817	-29739.5	0.000000	0.000000	6.066761	0.048111	NaN	0.000000	0.001570	0.001712	28.0807	0.095681	0.001912	50.0519	-83.8791	-164.74	0.123872	0.065047	-0.987997	-0.989317	0.048111	50.0519	-0.988718	-1.599004E+13	-3.008835E-15	NaN
354	1.000000	0.074384	7.36852e+06	-56339.1	955.818	-29739.5	0.000000	0.000000	6.074774	-0.056909	NaN	0.000000	0.001591	0.001704	28.0804	0.115726	0.001960	59.0501	-61.9798	-166.87	-7.711265E-7	0.073084	-0.979980	-0.981279	-0.056909	59.0501	-0.979257	-1.192337E+13	4.772878E-15	NaN
354	1.000000	0.082381	7.36852e+06	-56339.1	955.818	-29739.5	0.000000	0.000000	6.082776	0.047516	NaN	0.000000	0.001576	0.001691	28.0804	0.141970	0.001984	71.5665	-4.071225	-163.735	0.111041	0.081056	-0.971982	-0.973307	0.047516	71.5665	-0.972480	-9.662480E+12	-4.917556E-15	NaN
354	1.000000	0.090397	7.36852e+06	-56339.1	955.817	-29739.5	0.000000	0.000000	6.090789	-0.007875	NaN	0.000000	0.001558	0.001711	28.0801	0.028655	0.001973	14.52	-162.89	-167.963	0.062247	0.089061	-0.963967	-0.965303	-0.007875	14.52	-0.963560	-7.325915E+12	1.074914E-15	NaN
354	1.000000	0.098369	7.36852e+06	-56339.1	955.818	-29739.5	0.000000	0.000000	6.098764	0.071835	NaN	0.000000	0.001602	0.001712	28.0801	0.049513	0.002159	22.9381	-75.3229	-166.198	0.042798	0.097044	-0.955995	-0.957319	0.071835	22.9381	-0.958344	-6.230701E+12	-1.152915E-14	NaN
354	1.000000	0.106374	7.36852e+06	-56339.1	955.819	-29739.5	0.000000	0.000000	6.106767	-0.006753	NaN	0.000000	0.001596	0.001685	28.0801	0.079438	0.002034	39.0603	49.8827	-168.122	0.007960	0.105099	-0.947989	-0.949264	-0.006753	39.0603	-0.947860	-4.499447E+12	1.500878E-15	NaN
354	1.000000	0.114378	7.36852e+06	-56339.1	955.818	-29739.5	0.000000	0.000000	6.114773	0.040525	NaN	0.000000	0.001599	0.001680	28.0797	0.156079	0.001986	78.6041	-63.3397	-166.231	0.032037	0.113099	-0.939985	-0.941265	0.040525	78.6041	-0.940372	-3.565754E+12	-1.136512E-14	NaN
354	1.000000	0.122409	7.36852e+06	-56339.1	955.817	-29739.5	0.000000	0.000000	6.122803	0.011026	NaN	0.000000	0.001589	0.001743	28.0801	0.078534	0.001940	40.4769	-145.337	-168.137	0.075605	0.121064	-0.931954	-0.933299	0.011026	40.4769	-0.932158	-2.762640E+12	-3.991044E-15	NaN
354	1.000000	0.130417	7.36852e+06	-56339.1	955.818	-29739.5	0.000000	0.000000	6.130813	0.073671	NaN	0.000000	0.001593	0.001705	28.0808	0.063613	0.002032	31.3118	-121.391	-169.054	0.041271	0.129082	-0.923946	-0.925281	0.073671	31.3118	-0.925711	-2.261000E+12	-3.258329E-14	NaN
354	1.000000	0.138382	7.36852e+06	-56339.1	955.819	-29739.5	0.000000	0.000000	6.138777	0.051346	NaN	0.000000	0.001585	0.001720	28.08	0.070269	0.002035	34.5281	-44.6216	-167.684	0.075838	0.137076	-0.915981	-0.917287	0.051346	34.5281	-0.917097	-1.729826E+12	-2.968291E-14	NaN
354	1.000000	0.146395	7.36852e+06	-56339.1	955.818	-29739.5	0.000000	0.000000	6.146788	0.005056	NaN	0.000000	0.001574	0.001696	28.0803	0.036224	0.001949	18.5851	-150.357	-165.617	0.013474	0.145090	-0.907968	-0.909273	0.005056	18.5851	-0.908172	-1.310622E+12	-3.857352E-15	NaN
354	1.000000	0.154421	7.36852e+06	-56339.1	955.817	-29739.5	0.000000	0.000000	6.154814	0.010355	NaN	0.000000	0.001607	0.001710	28.0803	0.114667	0.001856	61.7848	62.3283	-164.322	-0.000745	0.153069	-0.899942	-0.901294	0.010355	61.7848	-0.900068	-1.018549E+12	-1.016629E-14	NaN
354	1.000000	0.162402	7.36852e+06	-56339.1	955.818	-29739.5	0.000000	0.000000	6.162796	0.033777	NaN	0.000000	0.001607	0.001684	28.0805	0.051190	0.002157	23.7372	-153.399	-164.956	-0.029963	0.161102	-0.891961	-0.893261	0.033777	23.7372	-0.893028	-8.181808E+11	-4.128347E-14	NaN
354	1.000000	0.170382	7.36852e+06	-56339.1	955.819	-29739.5	0.000000	0.000000	6.170778	0.069588	NaN	0.000000	0.001616	0.001718	28.0813	0.057494	0.002041	28.172	107.782	-166.631	0.081415	0.169110	-0.883981	-0.885254	0.069588	28.172	-0.885834	-6.540254E+11	-1.063988E-13	NaN
354	1.000000	0.178371	7.36852e+06	-56339.1	955.817	-29739.5	0.000000	0.000000	6.178765	0.040661	NaN	0.000000	0.001578	0.001730	28.0815	0.031075	0.002043	15.2078	-165.634	-166.696	0.052615	0.177121	-0.875993	-0.877242	0.040661	15.2078	-0.877998	-5.124260E+11	-7.935090E-14	NaN
354	1.000000	0.186404	7.36852e+06	-56339.1	955.819	-29739.5	0.000000	0.000000	6.186798	0.034377	NaN	0.000000	0.001584	0.001687	28.0812	0.063125	0.002084	30.2899	168.853	-166.198	-0.009665	0.185070	-0.867959	-0.869294	0.034377	30.2899	-0.868810	-3.848985E+11	-8.931327E-14	NaN
354	1.000000	0.194433	7.36852e+06	-56339.1	955.817	-29739.5	0.000000	0.000000	6.194828	0.037757	NaN	0.000000	0.001564	0.001704	28.0813	0.043004	0.002062	20.8598	141.779	-165.834	0.044896	0.193098	-0.859930	-0.861265	0.037757	20.8598	-0.861287	-3.044710E+11	-1.240085E-13	NaN
354	1.000000	0.202460	7.36852e+06	-56339.1	955.817	-29739.5	0.000000	0.000000	6.202858	0.137594	NaN	0.000000	0.001542	0.001717	28.0812	0.036233	0.002077	17.4452	24.2842	-166.315	0.103087	0.201124	-0.851903	-0.853239	0.137594	17.4452	-0.857819	-2.732730E+11	-5.035046E-13	NaN
354	1.000000	0.210410	7.36852e+06	-56339.1	955.818	-29739.5	0.000000	0.000000	6.210804	0.042341	NaN	0.000000	0.001584	0.001728	28.0813	0.086987	0.002042	42.5895	66.486	-163.933	0.012208	0.209135	-0.843953	-0.845228	0.042341	42.5895	-0.844699	-1.815294E+11	-2.332452E-13	NaN
354	1.000000	0.218445	7.36852e+06	-56339.1	955.818	-29739.5	0.000000	0.000000	6.218838	0.004437	NaN	0.000000	0.001571	0.001680	28.0816	0.049855	0.002009	24.8158	152.657	-163.627	0.006465	0.217096	-0.835918	-0.837268	0.004437	24.8158	-0.836052	-1.386139E+11	-3.201098E-14	NaN
354	1.000000	0.226432	7.36852e+06	-56339.1	955.819	-29739.6	0.000000	0.000000	6.226828	0.069852	NaN	0.000000	0.001592	0.001688	28.081	0.096403	0.001991	48.4189	66.2399	-168.568	0.060556	0.225121	-0.827931	-0.829243	0.069852	48.4189	-0.829013	-1.112783E+11	-6.277250E-13	NaN
354	1.000000	0.234427	7.36852e+06	-56339.1	955.818	-29739.6	0.000000	0.000000	6.234822	0.049133	NaN	0.000000	0.001590	0.001714	28.0811	0.094946	0.002065	45.9806	103.899	-165.264	0.043888	0.233136	-0.819936	-0.821227	0.049133	45.9806	-0.820738	-8.594376E+10	-5.716931E-13	NaN
354	1.000000	0.242429	7.36852e+06	-56339.1	955.817	-29739.6	0.000000	0.000000	6.242827	0.122612	NaN	0.000000	0.001554	0.001704	28.0811	0.066306	0.001917	34.5861	69.0206	-166.634	0.125542	0.241117	-0.811934	-0.813247	0.122612	34.5861	-0.814593	-7.093796E+10	-1.728437E-12	NaN
354	1.000000	0.250431	7.36852e+06	-56339.1	955.817	-29739.6	0.000000	0.000000	6.250826	0.060493	NaN	0.000000	0.001557	0.001689	28.0811	0.040408	0.002092	19.3136	79.5852	-166.298	0.095425	0.249200	-0.803933	-0.805163	0.060493	19.3136	-0.806282	-5.471667E+10	-1.105570E-12	NaN
354	1.000000	0.258452	7.36852e+06	-56339.1	955.818	-29739.6	0.000000	0.000000	6.258847	0.067973	NaN	0.000000	0.001519	0.001686	28.081	0.030981	0.001859	16.664	-143.896	-164.88	0.084677	0.257119	-0.795912	-0.797244	0.067973	16.664	-0.798971	-4.354035E+10	-1.561140E-12	NaN
354	1.000000	0.266467	7.36852e+06	-56339.1	955.818	-29739.6	0.000000	0.000000	6.266860	0.025397	NaN	0.000000	0.001535	0.001703	28.0807	0.040151	0.002183	18.3967	-78.0128	-167.472	0.058145	0.265118	-0.787897	-0.789245	0.025397	18.3967	-0.788932	-3.181123E+10	-7.983809E-13	NaN
354	1.000000	0.274433	7.36852e+06	-56339.1	955.818	-29739.6	0.000000	0.000000	6.274828	0.041046	NaN	0.000000	0.001517	0.001687	28.0811	0.093605	0.002156	43.4115	-147.503	-165.121	-0.008934	0.273157	-0.779930	-0.781206	0.041046	43.4115	-0.780639	-2.454227E+10	-1.672441E-12	NaN
354	1.000000	0.282461	7.36852e+06	-56339.1	955.818	-29739.6	0.000000	0.000000	6.282857	0.073276	NaN	0.000000	0.001584	0.001714	28.0807	0.046883	0.002005	23.3885	-166.576	-163.6	-0.002380	0.281103	-0.771902	-0.773260	0.073276	23.3885	-0.774252	-2.009580E+10	-3.646330E-12	NaN
354	1.000000	0.290447	7.36852e+06	-56339.1	955.818	-29739.6	0.000000	0.000000	6.290840	-0.003650	NaN	0.000000	0.001549	0.001676	28.0808	0.142194	0.002001	71.0583	-121.271	-165.695	-0.061459	0.289090	-0.763916	-0.765273	-0.003650	71.0583	-0.763878	-1.452285E+10	2.513454E-13	NaN
354	1.000000	0.298479	7.36852e+06	-56339.1	955.817	-29739.6	0.000000	0.000000	6.298873	0.027965	NaN	0.000000	0.001597	0.001687	28.0808	0.064264	0.002028	31.6957	-16.9115	-167.782	0.040791	0.297110	-0.755884	-0.757253	0.027965	31.6957	-0.756546	-1.154259E+10	-2.422763E-12	NaN
354	1.000000	0.306466	7.36852e+06	-56339.1	955.819	-29739.6	0.000000	0.000000	6.306861	0.057541	NaN	0.000000	0.001543	0.001697	28.0795	0.097464	0.002008	48.527	118.654	-168.391	0.047549	0.305175	-0.747898	-0.749189	0.057541	48.527	-0.748787	-9.051185E+9	-6.357277E-12	NaN
354	1.000000	0.314479	7.36852e+06	-56339.1	955.818	-29739.6	0.000000	0.000000	6.314876	0.099845	NaN	0.000000	0.001567	0.001708	28.0801	0.125980	0.002021	62.3204	105.77	-166.923	0.110604	0.313152	-0.739885	-0.741211	0.099845	62.3204	-0.741086	-7.109693E+9	-1.404352E-11	NaN
354	1.000000	0.322477	7.36852e+06	-56339.1	955.817	-29739.6	0.000000	0.000000	6.322870	0.017008	NaN	0.000000	0.001621	0.001682	28.0798	0.044260	0.001934	22.8826	24.6644	-165.181	-0.019295	0.321164	-0.731887	-0.733199	0.017008	22.8826	-0.732444	-5.421456E+9	-3.137184E-12	NaN
354	1.000000	0.330462	7.36852e+06	-56339.1	955.818	-29739.6	0.000000	0.000000	6.330856	0.021483	NaN	0.000000	0.001612	0.001700	28.0803	0.064834	0.001909	33.9683	75.7822	-164.967	0.052427	0.329152	-0.723901	-0.725211	0.021483	33.9683	-0.724375	-4.208582E+9	-5.104674E-12	NaN
354	1.000000	0.338466	7.36852e+06	-56339.1	955.817	-29739.6	0.000000	0.000000	6.338863	0.102685	NaN	0.000000	0.001620	0.001670	28.0802	0.104315	0.001875	55.6444	-56.605	-164.895	0.071634	0.337140	-0.715898	-0.717223	0.102685	55.6444	-0.717282	-3.368204E+9	-3.048669E-11	NaN
354	1.000000	0.346491	7.36852e+06	-56339.1	955.818	-29739.6	0.000000	0.000000	6.346881	-0.059504	NaN	0.000000	0.001605	0.001695	28.0798	0.054026	0.002126	25.4116	105.954	-167.078	-0.007681	0.345174	-0.707872	-0.709189	-0.059504	25.4116	-0.706116	-2.371569E+9	2.509050E-11	NaN
354	1.000000	0.354469	7.36852e+06	-56339.1	955.818	-29739.6	0.000000	0.000000	6.354866	0.102162	NaN	0.000000	0.001632	0.001703	28.0801	0.035374	0.001972	17.937	41.3461	-165.982	0.052358	0.353189	-0.699895	-0.701174	0.102162	17.937	-0.704166	-2.230600E+9	-4.580038E-11	NaN
354	1.000000	0.362486	7.36852e+06	-56339.1	955.818	-29739.6	0.000000	0.000000	6.362882	0.084966	NaN	0.000000	0.001614	0.001690	28.08	0.045273	0.002011	22.5151	179.097	-162.081	0.046414	0.361185	-0.691877	-0.693179	0.084966	22.5151	-0.694708	-1.656699E+9	-5.128635E-11	NaN
354	1.000000	0.370507	7.36852e+06	-56339.1	955.819	-29739.6	0.000000	0.000000	6.370903	0.073215	NaN	0.000000	0.001627	0.001692	28.0803	0.036853	0.001929	19.1097	-51.1945	-168.623	0.009444	0.369219	-0.683856	-0.685144	0.073215	19.1097	-0.686729	-1.288886E+9	-5.680456E-11	NaN
354	1.000000	0.378500	7.36852e+06	-56339.1	955.818	-29739.6	0.000000	0.000000	6.378893	0.011834	NaN	0.000000	0.001613	0.001707	28.0802	0.044899	0.001953	22.9934	100.242	-163.12	-0.007947	0.377155	-0.675864	-0.677209	0.011834	22.9934	-0.676250	-9.266286E+8	-1.277156E-11	NaN
354	1.000000	0.386497	7.36852e+06	-56339.1	955.818	-29739.6	0.000000	0.000000	6.386891	0.040426	NaN	0.000000	0.001632	0.001689	28.08	0.024579	0.001904	12.9078	-112.028	-162.999	0.006395	0.385202	-0.667866	-0.669161	0.040426	12.9078	-0.670215	-7.661892E+8	-5.276301E-11	NaN
354	1.000000	0.394512	7.36852e+06	-56339.1	955.819	-29739.6	0.000000	0.000000	6.394907	0.062598	NaN	0.000000	0.001633	0.001672	28.0801	0.032266	0.002094	15.4076	86.8966	-161.591	0.013737	0.393229	-0.659852	-0.661134	0.062598	15.4076	-0.662899	-6.083724E+8	-1.028942E-10	NaN
354	1.000000	0.402501	7.36852e+06	-56339.1	955.819	-29739.6	0.000000	0.000000	6.402895	0.028869	NaN	0.000000	0.001632	0.001673	28.0797	0.046280	0.002012	23.0062	90.9051	-167.508	0.025319	0.401206	-0.651862	-0.653157	0.028869	23.0062	-0.652803	-4.424437E+8	-6.524785E-11	NaN
354	1.000000	0.410497	7.36852e+06	-56339.1	955.818	-29739.6	0.000000	0.000000	6.410892	0.054857	NaN	0.000000	0.001633	0.001652	28.0802	0.043829	0.001870	23.4421	126.815	-166.466	-0.017270	0.409208	-0.643866	-0.645156	0.054857	23.4421	-0.645621	-3.526938E+8	-1.555358E-10	NaN
354	1.000000	0.418512	7.36852e+06	-56339.1	955.818	-29739.6	0.000000	0.000000	6.418908	0.079947	NaN	0.000000	0.001689	0.001670	28.0801	0.021017	0.002007	10.4715	-111.245	-165.153	0.089093	0.417256	-0.635851	-0.637108	0.079947	10.4715	-0.641577	-3.104076E+8	-2.575539E-10	NaN
354	1.000000	0.426527	7.36852e+06	-56339.1	955.817	-29739.6	0.000000	0.000000	6.426921	0.023506	NaN	0.000000	0.001651	0.001638	28.0802	0.053271	0.001885	28.2551	40.7917	-168.844	0.026390	0.425192	-0.627836	-0.629171	0.023506	28.2551	-0.628460	-2.050582E+8	-1.146328E-10	NaN
354	1.000000	0.434519	7.36852e+06	-56339.1	955.818	-29739.6	0.000000	0.000000	6.434913	0.026047	NaN	0.000000	0.001665	0.001647	28.0802	0.029434	0.001979	14.8705	-23.6447	-168.131	0.022102	0.433240	-0.619844	-0.621123	0.026047	14.8705	-0.621158	-1.627599E+8	-1.600306E-10	NaN
354	1.000000	0.442543	7.36852e+06	-56339.1	955.817	-29739.6	0.000000	0.000000	6.442936	0.003149	NaN	0.000000	0.001629	0.001654	28.0815	0.055474	0.001966	28.221	-90.8231	-166.159	-0.074399	0.441269	-0.611820	-0.613094	0.003149	28.221	-0.611904	-1.214232E+8	-2.593336E-11	NaN
354	1.000000	0.450548	7.36852e+06	-56339.1	955.818	-29739.6	0.000000	0.000000	6.450943	0.073184	NaN	0.000000	0.001619	0.001621	28.0815	0.076149	0.001946	39.127	-123.224	-164.78	0.034071	0.449252	-0.603816	-0.605111	0.073184	39.127	-0.605219	-9.824550E+7	-7.449082E-10	NaN
354	1.000000	0.458540	7.36852e+06	-56339.1	955.818	-29739.6	0.000000	0.000000	6.458936	0.065794	NaN	0.000000	0.001612	0.001655	28.0815	0.060980	0.001869	32.6251	20.1576	-165.863	0.085645	0.457233	-0.595823	-0.597130	0.065794	32.6251	-0.597335	-7.651706E+7	-8.598597E-10	NaN
354	1.000000	0.466501	7.36852e+06	-56339.1	955.817	-29739.6	0.000000	0.000000	6.466894	-0.004650	NaN	0.000000	0.001600	0.001641	28.0816	0.063652	0.002038	31.2353	-107.843	-165.016	-0.041370	0.465148	-0.587862	-0.589216	-0.004650	31.2353	-0.587750	-5.644803E+7	8.237902E-11	NaN
354	1.000000	0.474528	7.36852e+06	-56339.1	955.817	-29739.6	0.000000	0.000000	6.474922	0.037607	NaN	0.000000	0.001637	0.001655	28.0813	0.059437	0.002092	28.4149	111.095	-164.072	0.086697	0.473249	-0.579835	-0.581114	0.037607	28.4149	-0.580828	-4.530569E+7	-8.300645E-10	NaN
354	1.000000	0.482524	7.36852e+06	-56339.1	955.818	-29739.6	0.000000	0.000000	6.482916	-0.037015	NaN	0.000000	0.001624	0.001659	28.0815	0.056749	0.001847	30.7247	104.402	-163.912	-0.052809	0.481223	-0.571839	-0.573140	-0.037015	30.7247	-0.570935	-3.307925E+7	1.118991E-9	NaN
354	1.000000	0.490557	7.36852e+06	-56339.1	955.818	-29739.6	0.000000	0.000000	6.490950	0.013176	NaN	0.000000	0.001590	0.001663	28.0813	0.081337	0.001955	41.594	-10.0715	-165.625	0.064530	0.489230	-0.563806	-0.565133	0.013176	41.594	-0.564044	-2.656478E+7	-4.959966E-10	NaN
354	1.000000	0.498561	7.36852e+06	-56339.1	955.817	-29739.6	0.000000	0.000000	6.498957	0.085608	NaN	0.000000	0.001657	0.001659	28.0811	0.064891	0.002023	32.082	109.5	-165.002	0.077512	0.497199	-0.555803	-0.557165	0.085608	32.082	-0.557804	-2.177683E+7	-3.931141E-9	NaN
354	1.000000	0.506550	7.36852e+06	-56339.1	955.818	-29739.6	0.000000	0.000000	6.506943	0.011981	NaN	0.000000	0.001633	0.001647	28.0815	0.065800	0.002022	32.5464	167.016	-165.463	0.012338	0.505197	-0.547813	-0.549167	0.011981	32.5464	-0.548089	-1.597672E+7	-7.499260E-10	NaN
354	1.000000	0.514548	7.36852e+06	-56339.1	955.818	-29739.6	0.000000	0.000000	6.514943	0.055229	NaN	0.000000	0.001656	0.001648	28.0814	0.112043	0.001946	57.5744	107.33	-164.26	0.113816	0.513243	-0.539815	-0.541121	0.055229	57.5744	-0.540535	-1.255379E+7	-4.399396E-9	NaN
354	1.000000	0.522551	7.36852e+06	-56339.1	955.819	-29739.6	0.000000	0.000000	6.522947	0.076961	NaN	0.000000	0.001668	0.001685	28.0815	0.133109	0.002039	65.2811	105.443	-165.684	0.038403	0.521261	-0.531813	-0.533103	0.076961	65.2811	-0.532697	-9.77286e+06	-7.874957E-9	NaN
354	1.000000	0.530570	7.36852e+06	-56339.1	955.817	-29739.6	0.000000	0.000000	6.530965	0.059292	NaN	0.000000	0.001632	0.001718	28.0814	0.025381	0.002057	12.3384	113.252	-166.573	0.026143	0.529265	-0.523793	-0.525098	0.059292	12.3384	-0.527397	-8.2494e+06	-7.187384E-9	NaN
354	1.000000	0.538568	7.36852e+06	-56339.1	955.817	-29739.6	0.000000	0.000000	6.538964	0.058516	NaN	0.000000	0.001617	0.001683	28.0816	0.034485	0.001994	17.294	31.7453	-165.552	-0.027939	0.537224	-0.515795	-0.517139	0.058516	17.294	-0.518333	-6.17169e+06	-9.481397E-9	NaN
354	1.000000	0.546575	7.36852e+06	-56339.1	955.817	-29739.6	0.000000	0.000000	6.546971	0.070482	NaN	0.000000	0.001668	0.001631	28.0814	0.070148	0.001991	35.2251	116.938	-165.953	0.093859	0.545244	-0.507788	-0.509120	0.070482	35.2251	-0.509289	-4.61859e+06	-1.526042E-8	NaN
354	1.000000	0.554546	7.36853e+06	-56339.1	955.817	-29739.6	0.000000	0.000000	6.554942	0.078597	NaN	0.000000	0.001638	0.001639	28.0814	0.061462	0.002063	29.7935	1.229619	-163.199	0.094253	0.553271	-0.499817	-0.501093	0.078597	29.7935	-0.501796	-3.63137e+06	-2.164395E-8	NaN
354	1.000000	0.562555	7.36853e+06	-56339.1	955.818	-29739.6	0.000000	0.000000	6.562952	0.096420	NaN	0.000000	0.001661	0.001622	28.0816	0.048243	0.001836	26.2743	-5.658746	-159.766	0.082886	0.561264	-0.491808	-0.493100	0.096420	26.2743	-0.494560	-2.87803e+06	-3.350226E-8	NaN
354	1.000000	0.570587	7.36853e+06	-56339.1	955.818	-29739.6	0.000000	0.000000	6.570982	0.040747	NaN	0.000000	0.001642	0.001665	28.0814	0.110859	0.001895	58.5025	126.085	-166.258	-0.008646	0.569296	-0.483776	-0.485067	0.040747	58.5025	-0.484299	-2.06862e+06	-1.969780E-8	NaN
354	1.000000	0.578582	7.36853e+06	-56339.1	955.818	-29739.6	0.000000	0.000000	6.578978	0.066065	NaN	0.000000	0.001626	0.001640	28.0803	0.005623	0.002055	2.736843	-106.888	-160.276	0.085035	0.577275	-0.475781	-0.477089	0.066065	2.736843	-0.493886	-2.81627e+06	-2.345841E-8	NaN
354	1.000000	0.586572	7.36853e+06	-56339.1	955.817	-29739.6	0.000000	0.000000	6.586966	0.026206	NaN	0.000000	0.001658	0.001668	28.0801	0.056349	0.002011	28.0187	29.134	-163.361	0.018021	0.585275	-0.467791	-0.469088	0.026206	28.0187	-0.468492	-1.2424e+06	-2.109316E-8	NaN
354	1.000000	0.594586	7.36853e+06	-56339.1	955.818	-29739.6	0.000000	0.000000	6.594979	-0.001798	NaN	0.000000	0.001629	0.001666	28.0803	0.100385	0.002060	48.7368	-74.0913	-165.235	0.064437	0.593268	-0.459777	-0.461095	-0.001798	48.7368	-0.459749	-936472	1.920296E-9	NaN
354	1.000000	0.602596	7.36853e+06	-56339.1	955.818	-29739.6	0.000000	0.000000	6.602990	0.034998	NaN	0.000000	0.001647	0.001666	28.0804	0.066172	0.001991	33.2354	-152.132	-162.742	0.006925	0.601330	-0.451767	-0.453033	0.034998	33.2354	-0.452557	-741899	-4.717335E-8	NaN
354	1.000000	0.610588	7.36853e+06	-56339.1	955.818	-29739.6	0.000000	0.000000	6.610981	-0.000771	NaN	0.000000	0.001597	0.001650	28.08	0.086721	0.001997	43.4226	-171.356	-165.437	0.008275	0.609309	-0.443775	-0.445054	-0.000771	43.4226	-0.443762	-557745	1.382137E-9	NaN
354	1.000000	0.618599	7.36853e+06	-56339.1	955.817	-29739.6	0.000000	0.000000	6.618992	0.007310	NaN	0.000000	0.001578	0.001624	28.0801	0.052155	0.002058	25.3439	-118.847	-163.71	-0.068802	0.617328	-0.435764	-0.437035	0.007310	25.3439	-0.435980	-433119	-1.687778E-8	NaN
354	1.000000	0.626589	7.36853e+06	-56339.1	955.817	-29739.6	0.000000	0.000000	6.626982	0.011156	NaN	0.000000	0.001580	0.001632	28.0801	0.074801	0.001871	39.9857	-130.049	-162.965	0.067277	0.625322	-0.427774	-0.429041	0.011156	39.9857	-0.427984	-333832	-3.341834E-8	NaN
354	1.000000	0.634615	7.36853e+06	-56339.1	955.818	-29739.6	0.000000	0.000000	6.635009	0.030465	NaN	0.000000	0.001575	0.001686	28.0801	0.091094	0.001950	46.7105	33.7255	-165.19	0.041598	0.633301	-0.419749	-0.421062	0.030465	46.7105	-0.420238	-259291	-1.174954E-7	NaN
354	1.000000	0.642605	7.36853e+06	-56339.1	955.818	-29739.6	0.000000	0.000000	6.643000	0.069253	NaN	0.000000	0.001569	0.001684	28.0801	0.122288	0.001880	65.0477	-51.8801	-165.172	0.087032	0.641334	-0.411759	-0.413029	0.069253	65.0477	-0.412557	-201722	-3.433097E-7	NaN
354	1.000000	0.650616	7.36853e+06	-56339.1	955.817	-29739.6	0.000000	0.000000	6.651011	0.071790	NaN	0.000000	0.001587	0.001649	28.0799	0.001414	0.002124	0.665843	44.96	-165.428	-0.001579	0.649269	-0.403748	-0.405094	0.071790	0.665843	-0.484612	-2.08958e+06	-3.435630E-8	NaN
354	1.000000	0.658648	7.36853e+06	-56339.1	955.817	-29739.6	0.000000	0.000000	6.659041	0.026171	NaN	0.000000	0.001606	0.001645	28.08	0.041637	0.002065	20.1642	-34.0408	-165.214	0.073296	0.657291	-0.395716	-0.397072	0.026171	20.1642	-0.396689	-119882	-2.183057E-7	NaN
354	1.000000	0.666645	7.36853e+06	-56339.1	955.818	-29739.6	0.000000	0.000000	6.667038	0.012774	NaN	0.000000	0.001578	0.001648	28.08	0.012531	0.002064	6.072055	45.9623	-162.918	-0.048104	0.665304	-0.387718	-0.389059	0.012774	6.072055	-0.389296	-93993.1	-1.359007E-7	NaN
354	1.000000	0.674614	7.36853e+06	-56339.1	955.818	-29739.6	0.000000	0.000000	6.675006	-0.018413	NaN	0.000000	0.001546	0.001653	28.08	0.088303	0.001907	46.3002	-97.3213	-165.575	-0.072068	0.673333	-0.379749	-0.381030	-0.018413	46.3002	-0.379451	-67921.6	2.710930E-7	NaN
354	1.000000	0.682611	7.36853e+06	-56339.1	955.818	-29739.6	0.000000	0.000000	6.683006	0.064860	NaN	0.000000	0.001540	0.001685	28.0801	0.088772	0.002073	42.8301	90.93	-166.964	0.099837	0.681345	-0.371752	-0.373019	0.064860	42.8301	-0.372888	-54663.6	-1.186525E-6	NaN
354	1.000000	0.690615	7.36853e+06	-56339.1	955.818	-29739.6	0.000000	0.000000	6.691008	0.013209	NaN	0.000000	0.001552	0.001651	28.0799	0.054334	0.001898	28.6224	-40.2061	-164.164	-0.002936	0.689295	-0.363749	-0.365069	0.013209	28.6224	-0.364095	-40831.2	-3.235140E-7	NaN
354	1.000000	0.698591	7.36853e+06	-56339.1	955.818	-29739.6	0.000000	0.000000	6.698987	0.063635	NaN	0.000000	0.001564	0.001642	28.08	0.017870	0.001971	9.068148	-50.9396	-169.838	0.092789	0.697307	-0.355772	-0.357057	0.063635	9.068148	-0.361035	-36881.2	-1.725417E-6	NaN
354	1.000000	0.706639	7.36853e+06	-56339.1	955.818	-29739.6	0.000000	0.000000	6.707034	0.062166	NaN	0.000000	0.001573	0.001658	28.0797	0.087372	0.002003	43.6227	-131.483	-169.033	0.064536	0.705306	-0.347725	-0.349057	0.062166	43.6227	-0.348794	-24518.1	-2.535496E-6	NaN
354	1.000000	0.714631	7.36853e+06	-56339.1	955.817	-29739.6	0.000000	0.000000	6.715024	0.000717	NaN	0.000000	0.001593	0.001661	28.0813	0.034315	0.001950	17.5935	-109.114	-166.005	0.036047	0.713354	-0.339732	-0.341010	0.000717	17.5935	-0.339763	-18117.4	-3.958539E-8	NaN
354	1.000000	0.722644	7.36853e+06	-56339.1	955.818	-29739.6	0.000000	0.000000	6.723036	-0.030325	NaN	0.000000	0.001555	0.001660	28.081	0.080652	0.001979	40.7519	42.322	-165.299	0.005399	0.721367	-0.331719	-0.332996	-0.030325	40.7519	-0.331161	-13565.9	2.235420E-6	NaN
354	1.000000	0.730656	7.36853e+06	-56339.1	955.818	-29739.6	0.000000	0.000000	6.731051	0.061519	NaN	0.000000	0.001581	0.001672	28.0812	0.096222	0.001965	48.974	129.302	-165.669	0.082967	0.729308	-0.323707	-0.325056	0.061519	48.974	-0.324650	-10889.1	-5.649615E-6	NaN
354	1.000000	0.738664	7.36853e+06	-56339.1	955.818	-29739.6	0.000000	0.000000	6.739059	0.042454	NaN	0.000000	0.001546	0.001693	28.0812	0.116965	0.001975	59.2249	145.081	-161.798	-0.007546	0.737309	-0.315699	-0.317055	0.042454	59.2249	-0.316237	-8188.33	-5.184641E-6	NaN
354	1.000000	0.746665	7.36853e+06	-56339.1	955.819	-29739.6	0.000000	0.000000	6.747058	0.009548	NaN	0.000000	0.001554	0.001678	28.0821	0.056758	0.001967	28.8523	55.1642	-163.779	-0.019692	0.745356	-0.307698	-0.309007	0.009548	28.8523	-0.307946	-6175.16	-1.546221E-6	NaN
354	1.000000	0.754651	7.36853e+06	-56339.1	955.817	-29739.6	0.000000	0.000000	6.755043	-0.019076	NaN	0.000000	0.001549	0.001699	28.0812	0.056306	0.001971	28.562	103.969	-167.876	-0.096256	0.753372	-0.299713	-0.300991	-0.019076	28.562	-0.299212	-4580.37	4.164628E-6	NaN
354	1.000000	0.762651	7.36853e+06	-56339.1	955.818	-29739.6	0.000000	0.000000	6.763047	0.065213	NaN	0.000000	0.001579	0.001779	28.0809	0.088172	0.002158	40.8587	169.997	-167.151	0.055035	0.761365	-0.291712	-0.292998	0.065213	40.8587	-0.292909	-3688.43	-1.768034E-5	NaN
354	1.000000	0.770674	7.36853e+06	-56339.1	955.818	-29739.6	0.000000	0.000000	6.771067	-0.008277	NaN	0.000000	0.001523	0.001773	28.0811	0.063491	0.002016	31.4924	-153.134	-165.49	-0.000116	0.769338	-0.283689	-0.285025	-0.008277	31.4924	-0.283492	-2664.29	3.106503E-6	NaN
354	1.000000	0.778647	7.36853e+06	-56339.1	955.818	-29739.6	0.000000	0.000000	6.779043	0.064547	NaN	0.000000	0.001554	0.001772	28.0808	0.047436	0.001923	24.6688	-145.582	-164.869	0.077958	0.777303	-0.275716	-0.277061	0.064547	24.6688	-0.277679	-2177.3	-2.964553E-5	NaN
354	1.000000	0.786668	7.36853e+06	-56339.1	955.817	-29739.6	0.000000	0.000000	6.787065	0.086873	NaN	0.000000	0.001521	0.001741	28.0809	0.067841	0.001980	34.2592	17.3345	-166.721	0.063289	0.785339	-0.267695	-0.269024	0.086873	34.2592	-0.269597	-1642.16	-5.290174E-5	NaN
354	1.000000	0.794669	7.36853e+06	-56339.1	955.818	-29739.6	0.000000	0.000000	6.795068	0.151867	NaN	0.000000	0.001579	0.001726	28.0811	0.032721	0.002057	15.9057	22.6424	-163.227	0.155978	0.793340	-0.259695	-0.261023	0.151867	15.9057	-0.266855	-1491.71	-0.000102	NaN
354	1.000000	0.802682	7.36853e+06	-56339.1	955.817	-29739.6	0.000000	0.000000	6.803076	0.017645	NaN	0.000000	0.001558	0.001714	28.0808	0.044191	0.001870	23.631	-140.765	-165.454	-0.016418	0.801343	-0.251681	-0.253020	0.017645	23.631	-0.252241	-890.417	-1.981710E-5	NaN
354	1.000000	0.810650	7.36853e+06	-56339.1	955.818	-29739.6	0.000000	0.000000	6.811046	0.066972	NaN	0.000000	0.001570	0.001741	28.0811	0.095837	0.001994	48.0722	52.6027	-166.004	0.055644	0.809335	-0.243713	-0.245029	0.066972	48.0722	-0.244758	-681.855	-9.821980E-5	NaN
354	1.000000	0.818698	7.36853e+06	-56339.1	955.817	-29739.6	0.000000	0.000000	6.819093	0.046737	NaN	0.000000	0.001526	0.001705	28.0811	0.041845	0.002069	20.2219	-92.5687	-163.497	0.062405	0.817386	-0.235665	-0.236977	0.046737	20.2219	-0.237399	-523.441	-8.928717E-5	NaN
354	1.000000	0.826692	7.36853e+06	-56339.1	955.818	-29739.6	0.000000	0.000000	6.827085	0.001206	NaN	0.000000	0.001552	0.001736	28.0813	0.085418	0.002007	42.5642	116.941	-166.158	-0.037139	0.825370	-0.227671	-0.228993	0.001206	42.5642	-0.227693	-368.158	-3.275535E-6	NaN
354	1.000000	0.834690	7.36853e+06	-56339.1	955.818	-29739.6	0.000000	0.000000	6.835087	0.106653	NaN	0.000000	0.001537	0.001715	28.0819	0.106208	0.001977	53.7286	95.5033	-167.043	0.091570	0.833416	-0.219674	-0.220947	0.106653	53.7286	-0.221163	-289.896	-0.000368	NaN
354	1.000000	0.842692	7.36853e+06	-56339.1	955.818	-29739.6	0.000000	0.000000	6.843089	0.110781	NaN	0.000000	0.001541	0.001754	28.081	0.055502	0.001920	28.9117	-84.6189	-164.123	0.068997	0.841415	-0.211672	-0.212948	0.110781	28.9117	-0.214545	-227.09	-0.000488	NaN
354	1.000000	0.850703	7.36853e+06	-56339.1	955.818	-29739.6	0.000000	0.000000	6.851098	0.058667	NaN	0.000000	0.001544	0.001726	28.0801	0.090459	0.002094	43.2062	161.57	-163.222	0.100536	0.849393	-0.203660	-0.204971	0.058667	43.2062	-0.204678	-157.15	-0.000373	NaN
354	1.000000	0.858698	7.36853e+06	-56339.1	955.818	-29739.6	0.000000	0.000000	6.859092	0.022232	NaN	0.000000	0.001567	0.001724	28.0802	0.041878	0.001966	21.3045	-135.548	-167.05	-0.025366	0.857375	-0.195665	-0.196988	0.022232	21.3045	-0.196448	-115.121	-0.000193	NaN
354	1.000000	0.866698	7.36853e+06	-56339.1	955.819	-29739.6	0.000000	0.000000	6.867091	0.012840	NaN	0.000000	0.001549	0.001715	28.0802	0.052420	0.002046	25.6147	173.416	-163.317	0.033338	0.865398	-0.187665	-0.188966	0.012840	25.6147	-0.188041	-83.4169	-0.000154	NaN
354	1.000000	0.874653	7.36853e+06	-56339.1	955.818	-29739.6	0.000000	0.000000	6.875046	0.014069	NaN	0.000000	0.001563	0.001758	28.08	0.094784	0.002085	45.4653	-67.9112	-164.778	0.043411	0.873416	-0.179711	-0.180948	0.014069	45.4653	-0.179943	-60.8824	-0.000231	NaN
354	1.000000	0.882707	7.36853e+06	-56339.1	955.818	-29739.6	0.000000	0.000000	6.883103	0.062685	NaN	0.000000	0.001568	0.001755	28.0799	0.058531	0.001958	29.8876	88.3907	-167.307	0.073367	0.881467	-0.171656	-0.172896	0.062685	29.8876	-0.173229	-46.7192	-0.001342	NaN
354	1.000000	0.890700	7.36853e+06	-56339.1	955.819	-29739.6	0.000000	0.000000	6.891093	0.018850	NaN	0.000000	0.001552	0.001748	28.08	0.124743	0.001984	62.8796	-85.4256	-162.929	-0.056337	0.889413	-0.163663	-0.164950	0.018850	62.8796	-0.163888	-32.1186	-0.000587	NaN
354	1.000000	0.898687	7.36853e+06	-56339.1	955.818	-29739.6	0.000000	0.000000	6.899080	0.003653	NaN	0.000000	0.001536	0.001718	28.08	0.059904	0.002105	28.4525	-109.089	-168.38	0.034349	0.897425	-0.155676	-0.156938	0.003653	28.4525	-0.155772	-23.039	-0.000159	NaN
354	1.000000	0.906741	7.36853e+06	-56339.1	955.818	-29739.6	0.000000	0.000000	6.907132	-0.049388	NaN	0.000000	0.001532	0.001763	28.0801	0.022101	0.001949	11.3408	-155.237	-163.734	0.023642	0.905420	-0.147622	-0.148943	-0.049388	11.3408	-0.144356	-14.2639	0.003462	NaN
354	1.000000	0.914743	7.36853e+06	-56339.1	955.818	-29739.6	0.000000	0.000000	6.915136	0.004314	NaN	0.000000	0.001580	0.001773	28.08	0.034982	0.001949	17.953	150.77	-164.688	-0.019418	0.913432	-0.139620	-0.140932	0.004314	17.953	-0.139800	-11.7277	-0.000368	NaN
354	1.000000	0.922706	7.36853e+06	-56339.1	955.818	-29739.6	0.000000	0.000000	6.923100	0.045603	NaN	0.000000	0.001558	0.001768	28.0799	0.080807	0.001964	41.14	16.4611	-163.42	0.018780	0.921423	-0.131658	-0.132941	0.045603	41.14	-0.132489	-8.514266	-0.005356	NaN
354	1.000000	0.930722	7.36853e+06	-56339.1	955.817	-29739.6	0.000000	0.000000	6.931116	0.038208	NaN	0.000000	0.001555	0.001783	28.0802	0.060994	0.001804	33.8081	-2.330452	-167.947	-0.038104	0.929389	-0.123641	-0.124974	0.038208	33.8081	-0.124489	-5.941180	-0.006431	NaN
354	1.000000	0.938724	7.36853e+06	-56339.1	955.818	-29739.6	0.000000	0.000000	6.939118	0.032850	NaN	0.000000	0.001558	0.001760	28.0798	0.075849	0.001975	38.3953	-60.1876	-167.249	0.112243	0.937404	-0.115639	-0.116960	0.032850	38.3953	-0.116281	-4.059215	-0.008093	NaN
354	1.000000	0.946719	7.36853e+06	-56339.1	955.817	-29739.6	0.000000	0.000000	6.947112	0.016447	NaN	0.000000	0.001566	0.001726	28.08	0.026729	0.001999	13.3681	-94.1142	-164.939	-0.019938	0.945439	-0.107645	-0.108924	0.016447	13.3681	-0.108568	-2.802632	-0.005868	NaN
354	1.000000	0.954743	7.36853e+06	-56339.1	955.818	-29739.6	0.000000	0.000000	6.955138	0.049919	NaN	0.000000	0.001585	0.001741	28.08	0.019260	0.001906	10.1058	-89.3389	-163.085	-0.002194	0.953454	-0.099620	-0.100910	0.049919	10.1058	-0.103325	-2.161893	-0.023090	NaN
354	1.000000	0.962762	7.36853e+06	-56339.1	955.819	-29739.6	0.000000	0.000000	6.963156	0.041808	NaN	0.000000	0.001576	0.001803	28.0802	0.110506	0.002019	54.7354	-118.571	-166.904	-0.003868	0.961495	-0.091602	-0.092868	0.041808	54.7354	-0.092175	-1.214808	-0.034415	NaN
354	1.000000	0.970735	7.36853e+06	-56339.1	955.818	-29739.6	0.000000	0.000000	6.971129	0.038198	NaN	0.000000	0.001578	0.001799	28.0801	0.124084	0.002031	61.1059	-99.7072	-162.413	0.109913	0.969473	-0.083628	-0.084890	0.038198	61.1059	-0.084097	-0.781206	-0.048896	NaN
354	1.000000	0.978783	7.36853e+06	-56339.1	955.818	-29739.6	0.000000	0.000000	6.979178	0.044876	NaN	0.000000	0.001553	0.001767	28.0801	0.109033	0.002030	53.7229	-41.3337	-166.19	0.075763	0.977435	-0.075580	-0.076928	0.044876	53.7229	-0.076207	-0.496142	-0.090450	NaN
354	1.000000	0.986763	7.36853e+06	-56339.1	955.818	-29739.6	0.000000	0.000000	6.987157	0.019622	NaN	0.000000	0.001565	0.001725	28.081	0.069924	0.001852	37.7655	-164.606	-168.076	0.002760	0.985439	-0.067600	-0.068924	0.019622	37.7655	-0.067990	-0.301059	-0.065176	NaN
354	1.000000	0.994750	7.36853e+06	-56339.1	955.818	-29739.6	0.000000	0.000000	6.995144	0.037301	NaN	0.000000	0.001554	0.001760	28.0813	0.064697	0.002017	32.07	137.281	-161.913	0.023283	0.993448	-0.059613	-0.060915	0.037301	32.07	-0.060486	-0.185956	-0.200589	NaN
354	1.000000	1.002743	7.36853e+06	-56339.1	955.819	-29739.6	0.000000	0.000000	7.003140	0.089039	NaN	0.000000	0.001537	0.001735	28.0815	0.020560	0.002077	9.900290	-71.0928	-167.996	0.020416	1.001459	-0.051620	-0.052904	0.089039	9.900290	-0.058365	-0.161569	-0.551090	NaN
354	1.000000	1.010739	7.36853e+06	-56339.1	955.819	-29739.6	0.000000	0.000000	7.011135	0.082024	NaN	0.000000	0.001574	0.001744	28.0812	0.062025	0.002044	30.3422	-87.0934	-164.172	0.007965	1.009427	-0.043625	-0.044936	0.082024	30.3422	-0.045652	-0.067287	-1.219006	NaN
354	1.000000	1.018733	7.36853e+06	-56339.1	955.819	-29739.6	0.000000	0.000000	7.019126	0.009779	NaN	0.000000	0.001560	0.001748	28.0814	0.073894	0.002093	35.305	-141.889	-160.7	0.014353	1.017450	-0.035631	-0.036914	0.009779	35.305	-0.035838	-0.033905	-0.288429	NaN
354	1.000000	1.026771	7.36853e+06	-56339.1	955.82	-29739.6	0.000000	0.000000	7.027167	0.084152	NaN	0.000000	0.001624	0.001778	28.0811	0.013339	0.002085	6.398410	166.366	-167.735	0.055141	1.025457	-0.027593	-0.028906	0.084152	6.398410	-0.037457	-0.037892	-2.220847	NaN
354	1.000000	1.034755	7.36853e+06	-56339.1	955.819	-29739.6	0.000000	0.000000	7.035150	0.047153	NaN	0.000000	0.001619	0.001743	28.0811	0.095072	0.002055	46.2652	-7.576944	-164.994	0.020237	1.033447	-0.019608	-0.020916	0.047153	46.2652	-0.020372	-0.012838	-3.672967	NaN
354	1.000000	1.042753	7.36853e+06	-56339.1	955.821	-29739.6	0.000000	0.000000	7.043148	0.052098	NaN	0.000000	0.001640	0.001744	28.081	0.042723	0.002053	20.8111	99.8788	-167.28	0.026326	1.041481	-0.011610	-0.012882	0.052098	20.8111	-0.013488	-0.008384	-6.213619	NaN
354	1.000000	1.050773	7.36853e+06	-56339.1	955.82	-29739.6	0.000000	0.000000	7.051165	-0.025093	NaN	0.000000	0.001641	0.001718	28.081	0.080806	0.001795	45.0121	41.9754	-164.372	-0.052894	1.049458	-0.003590	-0.004905	-0.025093	45.0121	-0.003172	-0.002235	11.2253	NaN
354	1.000000	1.058776	7.36853e+06	-56339.1	955.82	-29739.6	0.000000	0.000000	7.059253	2.046621	NaN	0.000000	0.001575	0.001745	28.0811	3.012398	0.001869	1611.86	14.2009	-164.13	1.273611	1.057373	0.004413	0.003010	2.046621	1611.86	0.003460	0.002771	738.532	27974.7
354	2.000000	1.065293	7.36853e+06	-56339.1	955.819	-29739.6	0.000000	0.000000	7.066213	12.8101	NaN	0.000000	0.001617	0.001794	28.0811	9.131473	0.001555	5873.49	9.163119	-175.097	12.3786	1.064808	0.010930	0.010445	12.8101	5873.49	0.009294	0.008407	1523.65	58524.3
354	2.000000	1.067211	7.36853e+06	-56339.1	955.82	-29739.6	0.000000	0.000000	7.068334	17.7588	NaN	0.000000	0.001602	0.001786	28.081	10.6387	0.001615	6587.5	6.514822	-173.462	16.6645	1.066932	0.012847	0.012569	17.7588	6587.5	0.010825	0.010113	1756	59847.9
354	2.000000	1.069224	7.36853e+06	-56339.1	955.821	-29739.6	0.000000	0.000000	7.070582	23.4607	NaN	0.000000	0.001633	0.001822	28.0807	13.2326	0.001795	7373.78	6.143045	-173.002	22.4639	1.068897	0.014861	0.014533	23.4607	7373.78	0.012475	0.012064	1944.76	61337.4
354	2.000000	1.071191	7.36853e+06	-56339.1	955.818	-29739.6	0.000000	0.000000	7.072825	30.182	NaN	0.000000	0.001553	0.001769	28.0809	14.6679	0.001695	8654.98	5.564519	-174.692	29.0892	1.070902	0.016827	0.016539	30.182	8654.98	0.014212	0.014249	2118.18	66244
354	2.000000	1.073180	7.36853e+06	-56339.1	955.82	-29739.6	0.000000	0.000000	7.075127	37.7724	NaN	0.000000	0.001565	0.001768	28.0809	18.4096	0.002044	9008.75	7.247868	-175.959	36.8557	1.072920	0.018817	0.018556	37.7724	9008.75	0.015672	0.016192	2332.81	64682.9
354	2.000000	1.075215	7.36853e+06	-56339.1	955.819	-29739.6	0.000000	0.000000	7.077584	48.0533	NaN	0.000000	0.001558	0.001745	28.0816	19.0593	0.001744	10926.5	3.799040	-175.138	47.4227	1.074903	0.020851	0.020540	48.0533	10926.5	0.017553	0.018842	2550.37	72726.7
354	2.000000	1.077169	7.36853e+06	-56339.1	955.82	-29739.6	0.000000	0.000000	7.079880	56.3266	NaN	0.000000	0.001567	0.001725	28.0813	20.49	0.001728	11858.5	4.901755	-176.344	55.0209	1.076868	0.022806	0.022504	56.3266	11858.5	0.019244	0.021368	2636.06	74117.9
354	2.000000	1.079153	7.36853e+06	-56339.1	955.82	-29739.6	0.000000	0.000000	7.082177	63.9537	NaN	0.000000	0.001552	0.001749	28.0799	22.6928	0.001822	12456	4.075449	-175.391	62.7673	1.078843	0.024790	0.024480	63.9537	12456	0.020939	0.024040	2660.32	73398
354	2.000000	1.081105	7.36853e+06	-56339.1	955.82	-29739.6	0.000000	0.000000	7.084612	75.6907	NaN	0.000000	0.001607	0.001716	28.0798	23.7622	0.001671	14219.5	4.103586	-177.91	73.0118	1.080885	0.026742	0.026522	75.6907	14219.5	0.022750	0.027049	2798.32	78992.5
354	2.000000	1.083176	7.36853e+06	-56339.1	955.82	-29739.6	0.000000	0.000000	7.087131	86.5932	NaN	0.000000	0.001562	0.001730	28.0798	25.9288	0.001726	15024.1	4.238769	-178.237	86.2668	1.082826	0.028812	0.028463	86.5932	15024.1	0.024490	0.030094	2877.43	79126.3
354	2.000000	1.085146	7.36853e+06	-56339.1	955.821	-29739.6	0.000000	0.000000	7.089554	97.6035	NaN	0.000000	0.001584	0.001732	28.08	27.9451	0.001781	15694.8	2.268906	-176.015	94.8784	1.084912	0.030782	0.030549	97.6035	15694.8	0.026118	0.033081	2950.44	78838.5
354	2.000000	1.087131	7.36853e+06	-56339.1	955.82	-29739.6	0.000000	0.000000	7.091862	105.435	NaN	0.000000	0.001562	0.001709	28.0801	30.1808	0.001919	15730.4	6.611089	179.879	104.541	1.086860	0.032768	0.032497	105.435	15730.4	0.027741	0.036192	2913.24	75545.3
354	2.000000	1.089179	7.36853e+06	-56339.1	955.82	-29739.6	0.000000	0.000000	7.094392	117.157	NaN	0.000000	0.001577	0.001735	28.0799	32.1466	0.001807	17793	4.277824	-179.107	117.167	1.088869	0.034816	0.034505	117.157	17793	0.029878	0.040490	2893.46	80788.2
354	2.000000	1.091105	7.36853e+06	-56339.1	955.821	-29739.6	0.000000	0.000000	7.096971	133.047	NaN	0.000000	0.001563	0.001746	28.0799	32.8469	0.001691	19423.1	5.048765	179.477	130.532	1.090824	0.036741	0.036461	133.047	19423.1	0.031604	0.044133	3014.66	84471.1
354	2.000000	1.093161	7.36853e+06	-56339.1	955.82	-29739.6	0.000000	0.000000	7.099052	133.664	NaN	0.000000	0.001585	0.001748	28.08	35.5893	0.001848	19261.7	2.960154	-178.755	132.649	1.092874	0.038797	0.038511	133.664	19261.7	0.033593	0.048520	2754.84	79892.8
354	2.000000	1.095166	7.36853e+06	-56339.1	955.82	-29739.6	0.000000	0.000000	7.101667	148.462	NaN	0.000000	0.001570	0.001690	28.0803	36.209	0.001713	21142.1	3.723781	-178.851	148.267	1.094815	0.040803	0.040452	148.462	21142.1	0.035537	0.053003	2801.03	83902.1
354	2.000000	1.097159	7.36853e+06	-56339.1	955.82	-29739.6	0.000000	0.000000	7.104074	158.528	NaN	0.000000	0.001608	0.001727	28.0801	38.7529	0.001870	20728.1	3.611022	-179.226	157.591	1.096796	0.042796	0.042433	158.528	20728.1	0.037060	0.056652	2798.29	79565.8
354	2.000000	1.099069	7.36853e+06	-56339.1	955.82	-29739.6	0.000000	0.000000	7.106296	166.105	NaN	0.000000	0.001560	0.001731	28.0799	40.8216	0.001831	22299.8	5.574593	177.807	163.419	1.098876	0.044706	0.044513	166.105	22299.8	0.039119	0.061772	2689.02	81974.4
354	2.000000	1.101152	7.36853e+06	-56339.1	955.82	-29739.6	0.000000	0.000000	7.108998	181.162	NaN	0.000000	0.001582	0.001727	28.08	41.6172	0.001739	23925.7	4.588356	178.38	181.697	1.100794	0.046789	0.046431	181.162	23925.7	0.041110	0.066928	2706.83	84495.9
354	2.000000	1.103135	7.36853e+06	-56339.1	955.821	-29739.6	0.000000	0.000000	7.111139	185.004	NaN	0.000000	0.001585	0.001733	28.08	43.9606	0.001793	24511.8	6.185128	176.598	183.806	1.102884	0.048772	0.048521	185.004	24511.8	0.043111	0.072316	2558.26	83278.1
354	2.000000	1.105111	7.36853e+06	-56339.1	955.82	-29739.6	0.000000	0.000000	7.113954	205.42	NaN	0.000000	0.001582	0.001691	28.08	46.3079	0.001775	26082.1	5.791813	177.353	204.078	1.104742	0.050747	0.050379	205.42	26082.1	0.044840	0.077135	2663.13	85800.7
354	2.000000	1.107060	7.36853e+06	-56339.1	955.82	-29739.6	0.000000	0.000000	7.116486	219.553	NaN	0.000000	0.001589	0.001721	28.0801	48.2569	0.001810	26661.6	7.911514	173.981	217.27	1.106797	0.052697	0.052434	219.553	26661.6	0.046521	0.081964	2678.67	85084.1
354	2.000000	1.109079	7.36853e+06	-56339.1	955.82	-29739.6	0.000000	0.000000	7.119050	232.806	NaN	0.000000	0.001592	0.001663	28.08	50.3503	0.001786	28187.3	3.704860	177.801	229.029	1.108810	0.054716	0.054447	232.806	28187.3	0.048522	0.087899	2648.58	86863.2
354	2.000000	1.111134	7.36853e+06	-56339.1	955.82	-29739.6	0.000000	0.000000	7.121513	242.738	NaN	0.000000	0.001579	0.001678	28.0802	50.9991	0.001793	28445	3.836201	178.477	242.579	1.110800	0.056771	0.056436	242.738	28445	0.050370	0.093561	2594.43	84963.3
354	2.000000	1.113056	7.36853e+06	-56339.1	955.82	-29739.6	0.000000	0.000000	7.123033	232.964	NaN	0.000000	0.001601	0.001730	28.0803	54.4154	0.001781	30554.5	3.500608	177.431	227.977	1.112793	0.058693	0.058429	232.964	30554.5	0.052974	0.101828	2287.81	87481.1
354	2.000000	1.115063	7.36853e+06	-56339.1	955.82	-29739.6	0.000000	0.000000	7.126329	264.291	NaN	0.000000	0.001572	0.001729	28.0812	56.0657	0.001681	33342.8	2.698702	177.631	259.676	1.114751	0.060699	0.060387	264.291	33342.8	0.054755	0.107674	2454.56	92837
354	2.000000	1.117013	7.36853e+06	-56339.1	955.82	-29739.6	0.000000	0.000000	7.128707	274.689	NaN	0.000000	0.001590	0.001691	28.0812	58.4825	0.001814	32238.8	4.963880	175.19	270.123	1.116748	0.062650	0.062385	274.689	32238.8	0.056259	0.112737	2436.54	87723.8
354	2.000000	1.119080	7.36853e+06	-56339.1	955.82	-29739.6	0.000000	0.000000	7.131464	291.45	NaN	0.000000	0.001578	0.001688	28.0811	60.2182	0.001683	35774.8	3.541752	176.149	288.919	1.118806	0.064717	0.064443	291.45	35774.8	0.058607	0.120860	2411.47	94017.7
354	2.000000	1.121002	7.36853e+06	-56339.1	955.82	-29739.6	0.000000	0.000000	7.134243	312.299	NaN	0.000000	0.001573	0.001687	28.081	61.1018	0.001722	35473.9	1.823827	177.543	306.721	1.120761	0.066639	0.066398	312.299	35473.9	0.060036	0.125938	2479.78	91327.9
354	2.000000	1.123035	7.36853e+06	-56339.1	955.82	-29739.6	0.000000	0.000000	7.136629	320.868	NaN	0.000000	0.001593	0.001703	28.0808	64.9084	0.001682	38594.1	3.605719	176.034	316.018	1.122726	0.068672	0.068363	320.868	38594.1	0.062436	0.134690	2382.28	96078.7
354	2.000000	1.124973	7.36853e+06	-56339.1	955.821	-29739.6	0.000000	0.000000	7.139082	333.407	NaN	0.000000	0.001600	0.001791	28.0812	68.111	0.001791	38030.1	5.043087	173.915	323.498	1.124637	0.070609	0.070273	333.407	38030.1	0.064034	0.140670	2370.13	92640.1
354	2.000000	1.127093	7.36853e+06	-56339.1	955.82	-29739.6	0.000000	0.000000	7.141772	347.261	NaN	0.000000	0.001592	0.001766	28.081	69.6707	0.001812	38439.4	1.161423	178.165	345.212	1.126875	0.072729	0.072512	347.261	38439.4	0.065954	0.148019	2346.05	91283.1
354	2.000000	1.129128	7.36853e+06	-56339.1	955.82	-29739.6	0.000000	0.000000	7.144943	374.873	NaN	0.000000	0.001593	0.001734	28.0811	72.8667	0.001700	42852.9	5.847570	172.273	374.35	1.128748	0.074764	0.074385	374.873	42852.9	0.068203	0.156856	2389.91	98855.9
354	2.000000	1.131080	7.36853e+06	-56339.1	955.82	-29739.6	0.000000	0.000000	7.146277	359.837	NaN	0.000000	0.001584	0.001738	28.0812	73.4653	0.001728	42523.2	4.089786	174.27	357.262	1.130881	0.076716	0.076517	359.837	42523.2	0.070370	0.165596	2172.99	95471.7
354	2.000000	1.133074	7.36853e+06	-56339.1	955.819	-29739.6	0.000000	0.000000	7.149895	399.316	NaN	0.000000	0.001568	0.001736	28.0808	77.5514	0.001884	41161.2	3.530724	175.584	398.476	1.132734	0.078711	0.078371	399.316	41161.2	0.071435	0.169973	2349.29	91216
354	2.000000	1.135073	7.36853e+06	-56339.1	955.821	-29739.6	0.000000	0.000000	7.152467	413.254	NaN	0.000000	0.001537	0.001749	28.081	78.6388	0.001781	44149.4	3.471876	175.114	411.35	1.134760	0.080710	0.080397	413.254	44149.4	0.073689	0.179419	2303.3	95227.9
354	2.000000	1.137116	7.36853e+06	-56339.1	955.82	-29739.6	0.000000	0.000000	7.155281	431.976	NaN	0.000000	0.001572	0.001750	28.0809	79.8007	0.001855	43007.9	2.461435	176.275	432.279	1.136850	0.082753	0.082486	431.976	43007.9	0.075220	0.185967	2322.86	91117.9
354	2.000000	1.139120	7.36853e+06	-56339.1	955.82	-29739.6	0.000000	0.000000	7.157839	445.453	NaN	0.000000	0.001575	0.001740	28.0814	81.9812	0.001805	45428.7	1.548845	176.571	446.042	1.138874	0.084756	0.084511	445.453	45428.7	0.077402	0.195496	2278.57	93871.6
354	2.000000	1.141164	7.36853e+06	-56339.1	955.82	-29739.6	0.000000	0.000000	7.160914	470.499	NaN	0.000000	0.001535	0.001721	28.0811	82.9583	0.001796	46199.4	5.239692	173.833	473.698	1.140768	0.086801	0.086405	470.499	46199.4	0.079163	0.203346	2313.79	93603.6
354	2.000000	1.143035	7.36853e+06	-56339.1	955.82	-29739.6	0.000000	0.000000	7.163774	494.572	NaN	0.000000	0.001536	0.001735	28.0809	86.3267	0.001750	49322.7	5.803996	171.765	490.463	1.142602	0.088671	0.088239	494.572	49322.7	0.081151	0.212383	2328.69	97782.5
354	2.000000	1.145281	7.36853e+06	-56339.1	955.82	-29739.6	0.000000	0.000000	7.166644	509.713	NaN	0.000000	0.001523	0.001741	28.0811	88.7473	0.001889	46972.6	8.726978	171.296	515.981	1.144633	0.090917	0.090270	509.713	46972.6	0.082779	0.219921	2317.72	91513.5
354	2.000000	1.146852	7.36853e+06	-56339.1	955.82	-29739.6	0.000000	0.000000	7.168659	520.491	NaN	0.000000	0.001612	0.001750	28.0805	89.2354	0.001741	51250.8	3.558613	173.867	509.082	1.146602	0.092489	0.092238	520.491	51250.8	0.084872	0.229792	2265.05	97680.1
354	2.000000	1.149032	7.36853e+06	-56339.1	955.821	-29739.6	0.000000	0.000000	7.171908	546.501	NaN	0.000000	0.001615	0.001748	28.08	93.0208	0.001793	51880.8	2.143528	174.904	542.254	1.148694	0.094668	0.094331	546.501	51880.8	0.086768	0.238908	2287.5	96976.1
354	2.000000	1.150976	7.36853e+06	-56339.1	955.82	-29739.6	0.000000	0.000000	7.174543	563.299	NaN	0.000000	0.001564	0.001746	28.0799	94.133	0.001884	49973.7	2.462827	174.571	559.194	1.150849	0.096613	0.096486	563.299	49973.7	0.088159	0.245700	2292.63	92111.2
354	2.000000	1.153062	7.36853e+06	-56339.1	955.821	-29739.6	0.000000	0.000000	7.177632	587.664	NaN	0.000000	0.001584	0.001774	28.0797	97.5006	0.001765	55232	5.786265	170.832	585.746	1.152848	0.098699	0.098485	587.664	55232	0.090719	0.258435	2273.93	99263.3
354	2.000000	1.155219	7.36853e+06	-56339.1	955.821	-29739.6	0.000000	0.000000	7.180762	611.327	NaN	0.000000	0.001573	0.001779	28.0797	101.371	0.001921	52771.1	12.6613	166.565	616.267	1.154616	0.100855	0.100253	611.327	52771.1	0.092167	0.265773	2300.18	93522
354	2.000000	1.156790	7.36853e+06	-56339.1	955.82	-29739.6	0.000000	0.000000	7.183135	630.824	NaN	0.000000	0.001584	0.001766	28.0798	99.5138	0.001696	58676.3	1.288286	174.935	616.781	1.156535	0.102426	0.102172	630.824	58676.3	0.094363	0.277083	2276.66	101843
354	2.000000	1.158962	7.36853e+06	-56339.1	955.82	-29739.6	0.000000	0.000000	7.182745	568.536	NaN	0.000000	0.001558	0.001748	28.0798	103.905	0.001704	60967.8	2.519124	173.317	560.976	1.158817	0.104599	0.104454	568.536	60967.8	0.097605	0.294181	1932.61	102699
354	2.000000	1.160861	7.36853e+06	-56339.1	955.821	-29739.6	0.000000	0.000000	7.188134	653.377	NaN	0.000000	0.001586	0.001743	28.08	104.916	0.001921	54605	6.461787	170.844	642.621	1.160439	0.106498	0.106076	653.377	54605	0.097524	0.293746	2224.29	92049.2
354	2.000000	1.162970	7.36853e+06	-56339.1	955.821	-29739.6	0.000000	0.000000	7.191687	688.467	NaN	0.000000	0.001621	0.001773	28.0796	108.065	0.001919	56311.2	3.610452	173.629	683.31	1.162641	0.108607	0.108278	688.467	56311.2	0.099437	0.304056	2264.28	93302