File: remote_trans/data/nanoindenter/0828-1/data/Data_2025-08-06,11h17m57s/2025-07-22_16-23-58_1_178.txt
2025-07-22, 16:23:58, 1
Index	Phase	Displacement	Time	Pos X	Pos Y	Pos Z	Rot A	Rot B	Piezo Z	Force A	Force B	Gripper	Voltage A	Voltage B	Temperature	Amplitude force	Amplitude pos	Stiffness	Phase shift	Phase excitation	Force A raw	Displacement raw	HMax	HMax raw	Real Force	Real Stiffness	Contact Depth	Area	Hardness	Reduced Mod.
[#]	[#]	[um]	[s]	[um]	[um]	[um]	[m°]	[m°]	[um]	[uN]	[uN]	[V]	[V]	[V]	[°C]	[uN]	[um]	[N/m]	[°]	[°]	[uN]	[um]	[um]	[um]	[uN]	[N/m]	[um]	[um^2]	[MPa]	[MPa]
178	1.000000	0.002402	7.36678e+06	-47539.1	955.817	-29765.9	0.000000	0.000000	6.002776	0.104547	NaN	0.000000	0.001571	0.001729	28.1318	0.042341	0.000864	49.0293	-19.0982	-162.996	-0.054193	0.001185	-1.102554	-1.103771	0.104547	49.0293	-1.104153	-5.699264E+14	-1.834401E-16	NaN
178	1.000000	0.012522	7.36678e+06	-47539.1	955.818	-29765.9	0.000000	0.000000	6.012897	0.102404	NaN	0.000000	0.001575	0.001719	28.0923	0.087965	0.001261	69.7805	74.2517	15.6822	0.136970	0.011008	-1.092433	-1.093948	0.102404	69.7805	-1.093534	-4.104526E+14	-2.494910E-16	NaN
178	1.000000	0.022351	7.36678e+06	-47539.1	955.818	-29765.9	0.000000	0.000000	6.022721	-0.018175	NaN	0.000000	0.001600	0.001705	28.0822	0.037071	0.001828	20.2813	33.3432	-167.798	0.033247	0.021110	-1.082605	-1.083845	-0.018175	20.2813	-1.081933	-2.867347E+14	6.338510E-17	NaN
178	1.000000	0.032384	7.36678e+06	-47539.1	955.819	-29765.9	0.000000	0.000000	6.032756	0.024673	NaN	0.000000	0.001606	0.001706	28.1083	0.091881	0.001925	47.7384	-14.6381	15.9455	0.041830	0.031034	-1.072572	-1.073922	0.024673	47.7384	-1.072959	-2.172423E+14	-1.135731E-16	NaN
178	1.000000	0.042354	7.36678e+06	-47539.1	955.819	-29765.9	0.000000	0.000000	6.042724	-0.001233	NaN	0.000000	0.001585	0.001763	28.13	0.075329	0.002063	36.5206	126.082	-164.526	0.054738	0.041066	-1.062602	-1.063889	-0.001233	36.5206	-1.062577	-1.575616E+14	7.826027E-18	NaN
178	1.000000	0.052377	7.36678e+06	-47539.1	955.818	-29765.9	0.000000	0.000000	6.052751	0.089740	NaN	0.000000	0.001564	0.001752	28.0901	0.039458	0.002109	18.7093	137.305	13.4684	0.086663	0.051019	-1.052579	-1.053937	0.089740	18.7093	-1.056176	-1.292491E+14	-6.943181E-16	NaN
178	1.000000	0.062389	7.36678e+06	-47539.1	955.818	-29765.9	0.000000	0.000000	6.062762	0.066621	NaN	0.000000	0.001540	0.001728	28.081	0.039921	0.002014	19.817	-137.185	-168.828	0.004072	0.061107	-1.042567	-1.043849	0.066621	19.817	-1.045088	-9.170259E+13	-7.264872E-16	NaN
178	1.000000	0.072381	7.36678e+06	-47539.1	955.818	-29765.9	0.000000	0.000000	6.072754	0.070160	NaN	0.000000	0.001590	0.001712	28.1089	0.025333	0.001958	12.9393	-25.045	16.9042	0.081807	0.071080	-1.032575	-1.033876	0.070160	12.9393	-1.036641	-7.059969E+13	-9.937685E-16	NaN
178	1.000000	0.082399	7.36678e+06	-47539.1	955.817	-29765.9	0.000000	0.000000	6.082771	0.027246	NaN	0.000000	0.001574	0.001758	28.1308	0.084605	0.001963	43.0925	-141.326	-167.893	-0.005740	0.081091	-1.022557	-1.023865	0.027246	43.0925	-1.023031	-4.631581E+13	-5.882761E-16	NaN
178	1.000000	0.092355	7.36678e+06	-47539.1	955.818	-29765.9	0.000000	0.000000	6.092731	0.113601	NaN	0.000000	0.001608	0.001726	28.0923	0.047903	0.002031	23.5821	-42.5953	14.9117	0.170461	0.091074	-1.012600	-1.013882	0.113601	23.5821	-1.016213	-3.749727E+13	-3.029585E-15	NaN
178	1.000000	0.102410	7.36678e+06	-47539.1	955.818	-29765.9	0.000000	0.000000	6.102785	0.104138	NaN	0.000000	0.001633	0.001759	28.0818	0.056566	0.001891	29.9138	142.874	-167.822	0.125948	0.101074	-1.002546	-1.003882	0.104138	29.9138	-1.005157	-2.661900E+13	-3.912171E-15	NaN
178	1.000000	0.112398	7.36678e+06	-47539.1	955.818	-29765.9	0.000000	0.000000	6.112770	0.016820	NaN	0.000000	0.001611	0.001707	28.1072	0.049536	0.002004	24.7237	-9.956239	16.9402	0.098000	0.111050	-0.992557	-0.993906	0.016820	24.7237	-0.993068	-1.829892E+13	-9.191627E-16	NaN
178	1.000000	0.122409	7.36678e+06	-47539.1	955.819	-29765.9	0.000000	0.000000	6.122782	0.069987	NaN	0.000000	0.001615	0.001742	28.1285	0.119091	0.002059	57.8467	-69.5413	-163.369	0.037063	0.121072	-0.982547	-0.983884	0.069987	57.8467	-0.983455	-1.358152E+13	-5.153104E-15	NaN
178	1.000000	0.132403	7.36678e+06	-47539.1	955.818	-29766	0.000000	0.000000	6.132776	0.067228	NaN	0.000000	0.001623	0.001747	28.0902	0.089558	0.001950	45.923	-110.914	10.5416	0.078656	0.131034	-0.972553	-0.973922	0.067228	45.923	-0.973651	-1.001998E+13	-6.709434E-15	NaN
178	1.000000	0.142419	7.36678e+06	-47539.1	955.818	-29766	0.000000	0.000000	6.142792	0.062645	NaN	0.000000	0.001601	0.001760	28.0787	0.080969	0.001938	41.7696	45.2681	-163.435	0.093149	0.141122	-0.962537	-0.963833	0.062645	41.7696	-0.963662	-7.349085E+12	-8.524200E-15	NaN
178	1.000000	0.152416	7.36678e+06	-47539.1	955.819	-29766	0.000000	0.000000	6.152789	0.068325	NaN	0.000000	0.001611	0.001733	28.1068	0.100250	0.002087	48.0366	133.485	15.124	0.063736	0.151035	-0.952540	-0.953921	0.068325	48.0366	-0.953607	-5.378586E+12	-1.270312E-14	NaN
178	1.000000	0.162430	7.36678e+06	-47539.1	955.818	-29766	0.000000	0.000000	6.162802	0.051841	NaN	0.000000	0.001630	0.001751	28.1299	0.049326	0.001962	25.1404	-153.539	-164.332	0.006531	0.161137	-0.942526	-0.943819	0.051841	25.1404	-0.944073	-4.000201E+12	-1.295949E-14	NaN
178	1.000000	0.172404	7.36678e+06	-47539.1	955.818	-29766	0.000000	0.000000	6.172776	0.028665	NaN	0.000000	0.001607	0.001709	28.0907	0.063957	0.001907	33.5369	166.09	13.2391	0.006353	0.171090	-0.932552	-0.933866	0.028665	33.5369	-0.933193	-2.852883E+12	-1.004789E-14	NaN
178	1.000000	0.182409	7.36678e+06	-47539.1	955.819	-29766	0.000000	0.000000	6.182784	0.093340	NaN	0.000000	0.001614	0.001742	28.0805	0.020947	0.001948	10.753	-147.629	-166.653	0.027156	0.181172	-0.922547	-0.923784	0.093340	10.753	-0.929057	-2.508804E+12	-3.720504E-14	NaN
178	1.000000	0.192420	7.36678e+06	-47539.1	955.818	-29766	0.000000	0.000000	6.192793	0.048860	NaN	0.000000	0.001610	0.001733	28.1064	0.077854	0.001912	40.7108	19.0909	15.3654	0.072957	0.191049	-0.912536	-0.913907	0.048860	40.7108	-0.913436	-1.543718E+12	-3.165107E-14	NaN
178	1.000000	0.202416	7.36678e+06	-47539.1	955.817	-29766	0.000000	0.000000	6.202792	0.123397	NaN	0.000000	0.001638	0.001736	28.1292	0.107305	0.002091	51.3262	55.2035	-163.522	0.153955	0.201151	-0.902540	-0.903804	0.123397	51.3262	-0.904343	-1.163442E+12	-1.060621E-13	NaN
178	1.000000	0.212435	7.36678e+06	-47539.1	955.819	-29766	0.000000	0.000000	6.212803	-0.049790	NaN	0.000000	0.001575	0.001702	28.0903	0.049860	0.001941	25.687	-18.5506	15.6598	-0.074835	0.211079	-0.892521	-0.893877	-0.049790	25.687	-0.891067	-7.697414E+11	6.468416E-14	NaN
178	1.000000	0.222480	7.36678e+06	-47539.1	955.818	-29766	0.000000	0.000000	6.222850	-0.002404	NaN	0.000000	0.001589	0.001715	28.0797	0.022537	0.002022	11.1476	160.735	-165.048	0.073441	0.221195	-0.882476	-0.883761	-0.002404	11.1476	-0.882314	-5.861403E+11	4.101890E-15	NaN
178	1.000000	0.232483	7.36678e+06	-47539.1	955.818	-29766	0.000000	0.000000	6.232853	0.004575	NaN	0.000000	0.001582	0.001729	28.1064	0.053314	0.002009	26.5443	120.483	13.4936	0.003765	0.231133	-0.872473	-0.873822	0.004575	26.5443	-0.872602	-4.331636E+11	-1.056087E-14	NaN
178	1.000000	0.242479	7.36678e+06	-47539.1	955.818	-29766	0.000000	0.000000	6.242850	0.017677	NaN	0.000000	0.001551	0.001728	28.1301	0.085154	0.002010	42.3721	90.9996	-163.851	0.056298	0.241171	-0.862477	-0.863785	0.017677	42.3721	-0.862790	-3.190652E+11	-5.540306E-14	NaN
178	1.000000	0.252470	7.36678e+06	-47539.1	955.818	-29766	0.000000	0.000000	6.252841	-0.000871	NaN	0.000000	0.001585	0.001751	28.0916	0.106752	0.002028	52.6359	-170.625	15.3211	-0.062082	0.251142	-0.852486	-0.853814	-0.000871	52.6359	-0.852473	-2.313264E+11	3.767040E-15	NaN
178	1.000000	0.262487	7.36678e+06	-47539.1	955.818	-29766	0.000000	0.000000	6.262859	0.022349	NaN	0.000000	0.001568	0.001744	28.083	0.086710	0.002077	41.744	141.322	-168.552	-0.010699	0.261097	-0.842468	-0.843859	0.022349	41.744	-0.842870	-1.714635E+11	-1.303427E-13	NaN
178	1.000000	0.272484	7.36678e+06	-47539.1	955.817	-29766	0.000000	0.000000	6.272856	0.024446	NaN	0.000000	0.001614	0.001759	28.1066	0.147172	0.002041	72.1053	-68.9233	11.8454	0.011968	0.271096	-0.832471	-0.833860	0.024446	72.1053	-0.832726	-1.249469E+11	-1.956513E-13	NaN
178	1.000000	0.282502	7.36678e+06	-47539.1	955.818	-29766	0.000000	0.000000	6.282872	0.004566	NaN	0.000000	0.001591	0.001749	28.1307	0.042603	0.001930	22.0702	148.869	-165.892	0.090924	0.281211	-0.822454	-0.823744	0.004566	22.0702	-0.822609	-9.111614E+10	-5.010712E-14	NaN
178	1.000000	0.292493	7.36678e+06	-47539.1	955.818	-29766	0.000000	0.000000	6.292867	0.087050	NaN	0.000000	0.001603	0.001724	28.092	0.175230	0.002063	84.9368	-117.12	13.497	-0.034306	0.291141	-0.812463	-0.813815	0.087050	84.9368	-0.813232	-6.798485E+10	-1.280439E-12	NaN
178	1.000000	0.302486	7.36678e+06	-47539.1	955.818	-29766	0.000000	0.000000	6.302858	0.030144	NaN	0.000000	0.001600	0.001717	28.081	0.092452	0.002223	41.5887	-109.086	-164.322	0.069502	0.301184	-0.802469	-0.803772	0.030144	41.5887	-0.803013	-4.940366E+10	-6.101638E-13	NaN
178	1.000000	0.312484	7.36678e+06	-47539.1	955.819	-29766	0.000000	0.000000	6.312854	-0.008401	NaN	0.000000	0.001596	0.001691	28.1077	0.165307	0.002062	80.176	17.0936	17.2578	-0.068972	0.311137	-0.792472	-0.793819	-0.008401	80.176	-0.792394	-3.544803E+10	2.369898E-13	NaN
178	1.000000	0.322457	7.36678e+06	-47539.1	955.819	-29766	0.000000	0.000000	6.322828	0.002869	NaN	0.000000	0.001583	0.001758	28.1318	0.057149	0.001941	29.4435	-85.4229	-166.937	-0.007736	0.321204	-0.782499	-0.783752	0.002869	29.4435	-0.782572	-2.607211E+10	-1.100536E-13	NaN
178	1.000000	0.332532	7.36678e+06	-47539.1	955.818	-29766	0.000000	0.000000	6.332905	0.043792	NaN	0.000000	0.001577	0.001743	28.0921	0.047534	0.001974	24.086	-36.1278	16.205	0.071133	0.331140	-0.772424	-0.773816	0.043792	24.086	-0.773787	-1.980580E+10	-2.211049E-12	NaN
178	1.000000	0.342520	7.36678e+06	-47539.1	955.818	-29766	0.000000	0.000000	6.342895	0.102589	NaN	0.000000	0.001590	0.001784	28.082	0.077660	0.001966	39.4937	79.3177	-166.819	0.088266	0.341221	-0.762436	-0.763735	0.102589	39.4937	-0.764384	-1.475477E+10	-6.952957E-12	NaN
178	1.000000	0.352540	7.36678e+06	-47539.1	955.818	-29766	0.000000	0.000000	6.352913	0.076688	NaN	0.000000	0.001611	0.001773	28.1053	0.035659	0.001931	18.4646	61.5779	15.4939	0.015013	0.351102	-0.752416	-0.753853	0.076688	18.4646	-0.755531	-1.118147E+10	-6.858520E-12	NaN
178	1.000000	0.362500	7.36678e+06	-47539.1	955.818	-29766	0.000000	0.000000	6.362872	0.018507	NaN	0.000000	0.001643	0.001743	28.1308	0.052170	0.002084	25.0295	68.3751	-165.14	0.035851	0.361179	-0.742455	-0.743777	0.018507	25.0295	-0.743010	-7.551787E+9	-2.450660E-12	NaN
178	1.000000	0.372501	7.36678e+06	-47539.1	955.818	-29766	0.000000	0.000000	6.372875	0.100550	NaN	0.000000	0.001579	0.001750	28.0919	0.063407	0.001996	31.761	-162.881	10.2944	7.148514E-5	0.371123	-0.732455	-0.733833	0.100550	31.761	-0.734829	-5.842765E+9	-1.720934E-11	NaN
178	1.000000	0.382516	7.36678e+06	-47539.1	955.818	-29766	0.000000	0.000000	6.382887	0.027912	NaN	0.000000	0.001618	0.001762	28.0808	0.052072	0.001995	26.0991	-123.706	-166.953	0.033200	0.381193	-0.722440	-0.723763	0.027912	26.0991	-0.723242	-4.061510E+9	-6.872440E-12	NaN
178	1.000000	0.392543	7.36678e+06	-47539.1	955.818	-29766	0.000000	0.000000	6.392913	-0.017084	NaN	0.000000	0.001629	0.001765	28.1062	0.085896	0.001974	43.5144	18.7453	14.2	0.035972	0.391147	-0.712413	-0.713809	-0.017084	43.5144	-0.712118	-2.863870E+9	5.965516E-12	NaN
178	1.000000	0.402525	7.36678e+06	-47539.1	955.818	-29766	0.000000	0.000000	6.402898	0.075212	NaN	0.000000	0.001610	0.001775	28.1303	0.059420	0.001908	31.1463	-161.877	-167.82	0.077138	0.401216	-0.702431	-0.703739	0.075212	31.1463	-0.704242	-2.235929E+9	-3.363811E-11	NaN
178	1.000000	0.412531	7.36678e+06	-47539.1	955.818	-29766	0.000000	0.000000	6.412904	0.074556	NaN	0.000000	0.001595	0.001724	28.0928	0.096265	0.002089	46.0773	-64.042	12.4993	0.069696	0.411209	-0.692425	-0.693747	0.074556	46.0773	-0.693639	-1.601903E+9	-4.654216E-11	NaN
178	1.000000	0.422517	7.36678e+06	-47539.1	955.818	-29766	0.000000	0.000000	6.422888	0.008269	NaN	0.000000	0.001593	0.001735	28.0815	0.093024	0.001911	48.6795	-125.995	-164.476	-0.012598	0.421243	-0.682438	-0.683713	0.008269	48.6795	-0.682566	-1.130558E+9	-7.313981E-12	NaN
178	1.000000	0.432551	7.36678e+06	-47539.1	955.818	-29766	0.000000	0.000000	6.432924	0.052115	NaN	0.000000	0.001581	0.001745	28.1044	0.065565	0.001998	32.8228	154.815	13.1759	0.004400	0.431135	-0.672405	-0.673821	0.052115	32.8228	-0.673595	-8.523029E+8	-6.114600E-11	NaN
178	1.000000	0.442541	7.36678e+06	-47539.1	955.818	-29766	0.000000	0.000000	6.442912	0.027842	NaN	0.000000	0.001582	0.001684	28.1303	0.072644	0.001995	36.4052	145.187	-167.431	0.043379	0.441239	-0.662415	-0.663717	0.027842	36.4052	-0.662989	-6.100987E+8	-4.563545E-11	NaN
178	1.000000	0.452573	7.36678e+06	-47539.1	955.817	-29766	0.000000	0.000000	6.452946	0.073356	NaN	0.000000	0.001556	0.001680	28.0906	0.046133	0.002038	22.6318	-83.6375	12.577	0.095450	0.451163	-0.652383	-0.653793	0.073356	22.6318	-0.654814	-4.714275E+8	-1.556035E-10	NaN
178	1.000000	0.462565	7.36678e+06	-47539.1	955.818	-29766	0.000000	0.000000	6.462937	0.041410	NaN	0.000000	0.001562	0.001725	28.0809	0.143807	0.001965	73.1777	136.967	-166.932	0.059751	0.461281	-0.642391	-0.643675	0.041410	73.1777	-0.642815	-3.227838E+8	-1.282893E-10	NaN
178	1.000000	0.472538	7.36678e+06	-47539.1	955.818	-29766	0.000000	0.000000	6.472912	0.088035	NaN	0.000000	0.001561	0.001817	28.1053	0.059406	0.002021	29.401	-121.758	12.1746	0.047034	0.471215	-0.632418	-0.633741	0.088035	29.401	-0.634663	-2.494897E+8	-3.528615E-10	NaN
178	1.000000	0.482577	7.36678e+06	-47539.1	955.817	-29766	0.000000	0.000000	6.482949	0.049212	NaN	0.000000	0.001535	0.001703	28.1309	0.025154	0.002029	12.3966	152.779	-166.325	0.016559	0.481265	-0.622379	-0.623691	0.049212	12.3966	-0.625357	-1.858843E+8	-2.647462E-10	NaN
178	1.000000	0.492564	7.36678e+06	-47539.1	955.818	-29766	0.000000	0.000000	6.492933	-0.031462	NaN	0.000000	0.001569	0.001755	28.0926	0.068889	0.001981	34.7685	116.434	15.8543	0.017598	0.491220	-0.612392	-0.613735	-0.031462	34.7685	-0.611713	-1.206928E+8	2.606790E-10	NaN
178	1.000000	0.502560	7.36678e+06	-47539.1	955.817	-29766	0.000000	0.000000	6.502933	0.070363	NaN	0.000000	0.001550	0.001753	28.0803	0.108547	0.001956	55.4827	104.089	-164.799	0.112057	0.501210	-0.602396	-0.603746	0.070363	55.4827	-0.603347	-9.258784E+7	-7.599581E-10	NaN
178	1.000000	0.512586	7.36678e+06	-47539.1	955.818	-29766	0.000000	0.000000	6.512959	0.074880	NaN	0.000000	0.001612	0.001772	28.1041	0.066244	0.002034	32.5703	-132.054	18.3194	0.039269	0.511216	-0.592370	-0.593739	0.074880	32.5703	-0.594094	-6.903977E+7	-1.084585E-9	NaN
178	1.000000	0.522584	7.36678e+06	-47539.1	955.818	-29766	0.000000	0.000000	6.522959	0.101255	NaN	0.000000	0.001573	0.001779	28.1328	0.102322	0.001942	52.6818	-15.0293	-160.228	0.099241	0.521262	-0.582372	-0.583694	0.101255	52.6818	-0.583813	-4.981293E+7	-2.032699E-9	NaN
178	1.000000	0.532605	7.36678e+06	-47539.1	955.818	-29766	0.000000	0.000000	6.532975	-0.027548	NaN	0.000000	0.001560	0.001772	28.0952	0.105150	0.002052	51.2431	-141.819	15.3791	0.034633	0.531232	-0.572351	-0.573724	-0.027548	51.2431	-0.571947	-3.416156E+7	8.063942E-10	NaN
178	1.000000	0.542592	7.36678e+06	-47539.1	955.818	-29766	0.000000	0.000000	6.542964	0.037357	NaN	0.000000	0.001626	0.001751	28.0825	0.026554	0.001983	13.3903	32.3572	-166.827	0.082841	0.541260	-0.562364	-0.563696	0.037357	13.3903	-0.564457	-2.691623E+7	-1.387902E-9	NaN
178	1.000000	0.552587	7.36678e+06	-47539.1	955.819	-29766	0.000000	0.000000	6.552960	0.060683	NaN	0.000000	0.001571	0.001739	28.1068	0.055060	0.002017	27.3039	38.9213	14.5798	0.120889	0.551219	-0.552368	-0.553737	0.060683	27.3039	-0.554035	-1.931234E+7	-3.142180E-9	NaN
178	1.000000	0.562609	7.36678e+06	-47539.1	955.819	-29766	0.000000	0.000000	6.562982	0.076815	NaN	0.000000	0.001570	0.001785	28.1323	0.028991	0.001972	14.7023	23.7472	-168.159	0.118273	0.561336	-0.542347	-0.543620	0.076815	14.7023	-0.546266	-1.507373E+7	-5.095934E-9	NaN
178	1.000000	0.572602	7.36678e+06	-47539.1	955.818	-29766	0.000000	0.000000	6.572974	0.034794	NaN	0.000000	0.001578	0.001782	28.0955	0.066819	0.001957	34.1523	-159.506	11.868	0.072124	0.571247	-0.532354	-0.533709	0.034794	34.1523	-0.533118	-9.90538e+06	-3.512668E-9	NaN
178	1.000000	0.582594	7.36678e+06	-47539.1	955.818	-29766	0.000000	0.000000	6.582966	0.035027	NaN	0.000000	0.001575	0.001741	28.0831	0.091471	0.001994	45.8627	-19.6182	-166.069	0.084668	0.581261	-0.522361	-0.523695	0.035027	45.8627	-0.522934	-7.15149e+06	-4.897888E-9	NaN
178	1.000000	0.592614	7.36678e+06	-47539.1	955.818	-29766	0.000000	0.000000	6.592988	0.075804	NaN	0.000000	0.001614	0.001730	28.1054	0.068949	0.002056	33.5375	51.9894	12.4027	0.064799	0.591242	-0.512341	-0.513714	0.075804	33.5375	-0.514037	-5.37803e+06	-1.409505E-8	NaN
178	1.000000	0.602620	7.36678e+06	-47539.1	955.818	-29766	0.000000	0.000000	6.602993	0.050250	NaN	0.000000	0.001614	0.001757	28.1316	0.016185	0.001920	8.430777	-147.469	-162.586	-0.031073	0.601275	-0.502336	-0.503681	0.050250	8.430777	-0.506806	-4.26495e+06	-1.178213E-8	NaN
178	1.000000	0.612616	7.36678e+06	-47539.1	955.817	-29766	0.000000	0.000000	6.612989	0.054465	NaN	0.000000	0.001611	0.001724	28.0944	0.131867	0.002004	65.8151	158.486	13.7109	-0.023493	0.611273	-0.492340	-0.493683	0.054465	65.8151	-0.492960	-2.73371e+06	-1.992337E-8	NaN
178	1.000000	0.622620	7.36678e+06	-47539.1	955.818	-29766	0.000000	0.000000	6.622995	0.099030	NaN	0.000000	0.001636	0.001756	28.0812	0.067270	0.001880	35.7886	99.6132	-169.098	0.034492	0.621253	-0.482336	-0.483703	0.099030	35.7886	-0.484411	-2.07612e+06	-4.769961E-8	NaN
178	1.000000	0.632649	7.36678e+06	-47539.1	955.818	-29766	0.000000	0.000000	6.633019	-0.006170	NaN	0.000000	0.001649	0.001750	28.1058	0.079419	0.002000	39.7095	-113.856	11.273	0.055845	0.631232	-0.472307	-0.473723	-0.006170	39.7095	-0.472191	-1.39999e+06	4.406851E-9	NaN
178	1.000000	0.642617	7.36678e+06	-47539.1	955.819	-29766	0.000000	0.000000	6.642990	0.046017	NaN	0.000000	0.001599	0.001729	28.1333	0.111051	0.002075	53.5313	-179.6	-165.96	-0.003423	0.641337	-0.462338	-0.463619	0.046017	53.5313	-0.462983	-1.03975e+06	-4.425801E-8	NaN
178	1.000000	0.652646	7.36678e+06	-47539.1	955.818	-29766	0.000000	0.000000	6.653019	0.070046	NaN	0.000000	0.001625	0.001723	28.0958	0.034876	0.001970	17.7076	135.267	10.3135	0.101165	0.651265	-0.452310	-0.453691	0.070046	17.7076	-0.455277	-810231	-8.645155E-8	NaN
178	1.000000	0.662632	7.36678e+06	-47539.1	955.818	-29766	0.000000	0.000000	6.663003	0.012168	NaN	0.000000	0.001562	0.001785	28.0831	0.056335	0.002085	27.0141	-110.641	-162.976	0.031459	0.661325	-0.442324	-0.443631	0.012168	27.0141	-0.442662	-538173	-2.260918E-8	NaN
178	1.000000	0.672611	7.36678e+06	-47539.1	955.817	-29766	0.000000	0.000000	6.672983	0.046997	NaN	0.000000	0.001574	0.001760	28.1034	0.093144	0.002090	44.5627	-66.6452	13.5125	-0.029152	0.671295	-0.432345	-0.433661	0.046997	44.5627	-0.433136	-394827	-1.190328E-7	NaN
178	1.000000	0.682634	7.36678e+06	-47539.1	955.818	-29766	0.000000	0.000000	6.683004	-0.016613	NaN	0.000000	0.001592	0.001741	28.1304	0.149032	0.002006	74.2935	25.8935	-170.37	-0.080772	0.681347	-0.422322	-0.423609	-0.016613	74.2935	-0.422154	-276029	6.018525E-8	NaN
178	1.000000	0.692641	7.36678e+06	-47539.1	955.818	-29766	0.000000	0.000000	6.693014	0.056454	NaN	0.000000	0.001611	0.001748	28.0929	0.025665	0.001959	13.1037	-33.289	9.134877	0.023964	0.691279	-0.412315	-0.413677	0.056454	13.1037	-0.415546	-222437	-2.537965E-7	NaN
178	1.000000	0.702652	7.36678e+06	-47539.1	955.818	-29766	0.000000	0.000000	6.703024	0.027471	NaN	0.000000	0.001626	0.001765	28.0811	0.062383	0.002073	30.1003	148.246	-164.651	0.049437	0.701393	-0.402304	-0.403563	0.027471	30.1003	-0.402988	-147431	-1.863296E-7	NaN
178	1.000000	0.712636	7.36678e+06	-47539.1	955.818	-29766	0.000000	0.000000	6.713008	0.045952	NaN	0.000000	0.001629	0.001720	28.1033	0.065984	0.002083	31.6819	21.0618	14.6323	0.004606	0.711308	-0.392320	-0.393647	0.045952	31.6819	-0.393408	-107620	-4.269818E-7	NaN
178	1.000000	0.722654	7.36678e+06	-47539.1	955.818	-29766	0.000000	0.000000	6.723026	0.044815	NaN	0.000000	0.001620	0.001712	28.1317	0.057222	0.002011	28.4544	-91.2514	-166.68	-0.009050	0.721359	-0.382302	-0.383597	0.044815	28.4544	-0.383484	-77598.5	-5.775274E-7	NaN
178	1.000000	0.732649	7.36678e+06	-47539.1	955.817	-29766	0.000000	0.000000	6.733019	-0.020377	NaN	0.000000	0.001603	0.001755	28.0944	0.141329	0.002059	68.6426	150.101	15.6384	-0.004205	0.731321	-0.372306	-0.373635	-0.020377	68.6426	-0.372084	-53226.3	3.828451E-7	NaN
178	1.000000	0.742676	7.36678e+06	-47539.1	955.818	-29766	0.000000	0.000000	6.743047	0.018820	NaN	0.000000	0.001639	0.001739	28.0822	0.073876	0.002069	35.7075	131.796	-165.481	0.013035	0.741384	-0.362280	-0.363572	0.018820	35.7075	-0.362675	-38949.4	-4.832012E-7	NaN
178	1.000000	0.752685	7.36678e+06	-47539.1	955.817	-29766	0.000000	0.000000	6.753055	-0.008383	NaN	0.000000	0.001656	0.001732	28.1025	0.075272	0.002017	37.3164	-71.468	15.4239	-0.047237	0.751349	-0.352271	-0.353607	-0.008383	37.3164	-0.352103	-27384.5	3.061194E-7	NaN
178	1.000000	0.762670	7.36678e+06	-47539.1	955.818	-29766	0.000000	0.000000	6.763041	0.025381	NaN	0.000000	0.001658	0.001737	28.1299	0.014522	0.001800	8.068764	-169.249	-166.014	-0.031894	0.761394	-0.342286	-0.343562	0.025381	8.068764	-0.344645	-21340.1	-1.189371E-6	NaN
178	1.000000	0.772684	7.36678e+06	-47539.1	955.818	-29766	0.000000	0.000000	6.773058	0.090446	NaN	0.000000	0.001629	0.001751	28.0929	0.096534	0.001934	49.9149	77.195	15.7161	0.039492	0.771349	-0.332272	-0.333607	0.090446	49.9149	-0.333631	-14742.6	-6.134987E-6	NaN
178	1.000000	0.782683	7.36678e+06	-47539.1	955.817	-29766	0.000000	0.000000	6.783056	0.069058	NaN	0.000000	0.001624	0.001767	28.0807	0.105297	0.002089	50.3946	63.1854	-163.515	0.043773	0.781356	-0.322273	-0.323600	0.069058	50.3946	-0.323301	-10403.6	-6.637967E-6	NaN
178	1.000000	0.792706	7.36678e+06	-47539.1	955.817	-29766	0.000000	0.000000	6.793078	0.029954	NaN	0.000000	0.001618	0.001749	28.1041	0.020017	0.001917	10.4397	69.3159	16.0021	0.021095	0.791268	-0.312250	-0.313688	0.029954	10.4397	-0.314402	-7693.37	-3.893426E-6	NaN
178	1.000000	0.802694	7.36678e+06	-47539.1	955.818	-29766	0.000000	0.000000	6.803066	0.031403	NaN	0.000000	0.001613	0.001766	28.1316	0.106726	0.002052	52.0022	155.196	-167.313	-0.008811	0.801385	-0.302262	-0.303571	0.031403	52.0022	-0.302715	-5164.37	-6.080757E-6	NaN
178	1.000000	0.812708	7.36678e+06	-47539.1	955.818	-29766	0.000000	0.000000	6.813082	0.070309	NaN	0.000000	0.001591	0.001740	28.0953	0.148696	0.001944	76.4904	96.5752	10.0282	0.104376	0.811336	-0.292247	-0.293620	0.070309	76.4904	-0.292937	-3691.97	-1.904365E-5	NaN
178	1.000000	0.822692	7.36678e+06	-47539.1	955.818	-29766	0.000000	0.000000	6.823065	0.057299	NaN	0.000000	0.001607	0.001702	28.0816	0.069026	0.001998	34.5547	91.3914	-165.24	-0.036363	0.821365	-0.282264	-0.283591	0.057299	34.5547	-0.283508	-2665.76	-2.149437E-5	NaN
178	1.000000	0.832679	7.36678e+06	-47539.1	955.817	-29766	0.000000	0.000000	6.833050	0.013587	NaN	0.000000	0.001606	0.001727	28.104	0.125499	0.002087	60.1341	145.104	14.6861	-0.074915	0.831332	-0.272277	-0.273624	0.013587	60.1341	-0.272446	-1814.23	-7.489046E-6	NaN
178	1.000000	0.842696	7.36678e+06	-47539.1	955.818	-29766	0.000000	0.000000	6.843069	0.063907	NaN	0.000000	0.001589	0.001693	28.132	0.121485	0.001982	61.2789	146.068	-167.467	0.071625	0.841437	-0.262260	-0.263519	0.063907	61.2789	-0.263042	-1304.6	-4.898559E-5	NaN
178	1.000000	0.852702	7.36678e+06	-47539.1	955.818	-29766	0.000000	0.000000	6.853075	0.070798	NaN	0.000000	0.001587	0.001712	28.0957	0.101009	0.002081	48.5377	-42.8165	13.9551	0.067915	0.851334	-0.252254	-0.253622	0.070798	48.5377	-0.253348	-926.125	-7.644488E-5	NaN
178	1.000000	0.862715	7.36678e+06	-47539.1	955.818	-29766	0.000000	0.000000	6.863086	0.020294	NaN	0.000000	0.001583	0.001729	28.0809	0.071318	0.002019	35.3192	-156.905	-166.069	0.092414	0.861384	-0.242241	-0.243572	0.020294	35.3192	-0.242672	-632.754	-3.207291E-5	NaN
178	1.000000	0.872707	7.36678e+06	-47539.1	955.817	-29766	0.000000	0.000000	6.873077	-0.028821	NaN	0.000000	0.001564	0.001743	28.1042	0.011808	0.001939	6.088691	-76.9438	13.8628	0.019111	0.871359	-0.232249	-0.233597	-0.028821	6.088691	-0.228698	-381.9	7.546784E-5	NaN
178	1.000000	0.882709	7.36678e+06	-47539.1	955.818	-29766	0.000000	0.000000	6.883082	0.057943	NaN	0.000000	0.001622	0.001752	28.1331	0.076458	0.001962	38.972	-172.506	-165.539	0.088746	0.881444	-0.222246	-0.223512	0.057943	38.972	-0.223361	-314.257	-0.000184	NaN
178	1.000000	0.892718	7.36678e+06	-47539.1	955.818	-29766	0.000000	0.000000	6.893092	0.087363	NaN	0.000000	0.001600	0.001744	28.0962	0.097922	0.001955	50.0802	151.78	11.2179	0.062502	0.891363	-0.212237	-0.213593	0.087363	50.0802	-0.213546	-218.827	-0.000399	NaN
178	1.000000	0.902743	7.36678e+06	-47539.1	955.819	-29766	0.000000	0.000000	6.903115	0.043940	NaN	0.000000	0.001593	0.001755	28.0841	0.120247	0.001890	63.6257	-13.0611	-160.971	0.007105	0.901395	-0.202213	-0.203561	0.043940	63.6257	-0.202731	-146.046	-0.000301	NaN
178	1.000000	0.912754	7.36678e+06	-47539.1	955.817	-29766	0.000000	0.000000	6.913127	0.048673	NaN	0.000000	0.001617	0.001738	28.102	0.026116	0.002015	12.958	160.33	15.5815	0.169992	0.911385	-0.192201	-0.193571	0.048673	12.958	-0.195019	-109.021	-0.000446	NaN
178	1.000000	0.922726	7.36678e+06	-47539.1	955.818	-29766	0.000000	0.000000	6.923101	0.120907	NaN	0.000000	0.001595	0.001734	28.1319	0.100189	0.001933	51.8318	126.037	-166.363	0.081735	0.921432	-0.182230	-0.183524	0.120907	51.8318	-0.183979	-71.2713	-0.001696	NaN
178	1.000000	0.932760	7.36678e+06	-47539.1	955.818	-29766	0.000000	0.000000	6.933135	0.111979	NaN	0.000000	0.001578	0.001760	28.0953	0.037751	0.001870	20.1865	-142.885	15.107	0.170205	0.931437	-0.172196	-0.173519	0.111979	20.1865	-0.176357	-52.876	-0.002118	NaN
178	1.000000	0.942773	7.36678e+06	-47539.1	955.818	-29766	0.000000	0.000000	6.943145	0.040058	NaN	0.000000	0.001607	0.001740	28.0805	0.117686	0.001858	63.3448	-40.333	-168.774	0.077939	0.941441	-0.162183	-0.163515	0.040058	63.3448	-0.162657	-30.553	-0.001311	NaN
178	1.000000	0.952785	7.36678e+06	-47539.1	955.819	-29766	0.000000	0.000000	6.953162	0.153415	NaN	0.000000	0.001590	0.001773	28.1026	0.080293	0.002175	36.9146	62.8497	14.5795	0.156484	0.951390	-0.152171	-0.153566	0.153415	36.9146	-0.155288	-22.5819	-0.006794	NaN
178	1.000000	0.962728	7.36678e+06	-47539.1	955.818	-29766	0.000000	0.000000	6.963098	-0.010703	NaN	0.000000	0.001621	0.001736	28.1316	0.081808	0.001991	41.0789	50.4856	-163.022	-0.050387	0.961474	-0.142228	-0.143481	-0.010703	41.0789	-0.142033	-12.9131	0.000829	NaN
178	1.000000	0.972765	7.36678e+06	-47539.1	955.818	-29766	0.000000	0.000000	6.973136	0.023904	NaN	0.000000	0.001615	0.001776	28.0952	0.035843	0.001973	18.1691	-145.333	12.8858	0.051425	0.971416	-0.132191	-0.133540	0.023904	18.1691	-0.133178	-8.777956	-0.002723	NaN
178	1.000000	0.982759	7.36678e+06	-47539.1	955.818	-29766	0.000000	0.000000	6.983131	0.029590	NaN	0.000000	0.001588	0.001761	28.0815	0.058092	0.001940	29.9462	80.548	-161.781	0.037709	0.981434	-0.122197	-0.123522	0.029590	29.9462	-0.122938	-5.533873	-0.005347	NaN
178	1.000000	0.992751	7.36678e+06	-47539.1	955.82	-29766	0.000000	0.000000	6.993122	0.024685	NaN	0.000000	0.001599	0.001705	28.1021	0.090370	0.001989	45.4388	83.4411	16.4706	-0.018116	0.991416	-0.112205	-0.113540	0.024685	45.4388	-0.112613	-3.409039	-0.007241	NaN
178	1.000000	1.002778	7.36678e+06	-47539.1	955.819	-29766	0.000000	0.000000	7.003151	0.040501	NaN	0.000000	0.001620	0.001708	28.131	0.063248	0.002041	30.996	95.8693	-165.174	0.049799	1.001495	-0.102177	-0.103461	0.040501	30.996	-0.103157	-2.143800	-0.018892	NaN
178	1.000000	1.012799	7.36678e+06	-47539.1	955.818	-29766	0.000000	0.000000	7.013171	0.034533	NaN	0.000000	0.001606	0.001748	28.0948	0.099358	0.002025	49.0758	-153.978	13.224	-0.003701	1.011411	-0.092157	-0.093545	0.034533	49.0758	-0.092685	-1.248278	-0.027665	NaN
178	1.000000	1.022770	7.36678e+06	-47539.1	955.817	-29766	0.000000	0.000000	7.023139	-0.035393	NaN	0.000000	0.001617	0.001752	28.0799	0.042824	0.002008	21.3287	54.1803	-166.049	-0.016281	1.021475	-0.082186	-0.083481	-0.035393	21.3287	-0.080941	-0.653355	0.054172	NaN
178	1.000000	1.032804	7.36678e+06	-47539.1	955.816	-29766	0.000000	0.000000	7.033175	0.006111	NaN	0.000000	0.001629	0.001750	28.1026	0.030192	0.001919	15.7362	-68.6207	12.6896	0.043738	1.031430	-0.072152	-0.073526	0.006111	15.7362	-0.072443	-0.396078	-0.015428	NaN
178	1.000000	1.042803	7.36678e+06	-47539.1	955.818	-29766	0.000000	0.000000	7.043174	0.020697	NaN	0.000000	0.001623	0.001737	28.1317	0.088608	0.001968	45.032	-13.4931	-164.032	-0.018155	1.041470	-0.062153	-0.063486	0.020697	45.032	-0.062497	-0.212108	-0.097575	NaN
178	1.000000	1.052803	7.36678e+06	-47539.1	955.818	-29766	0.000000	0.000000	7.053174	0.010564	NaN	0.000000	0.001618	0.001714	28.0958	0.084395	0.002164	39.0062	-12.4092	14.9431	0.019579	1.051430	-0.052152	-0.053526	0.010564	39.0062	-0.052356	-0.107435	-0.098333	NaN
178	1.000000	1.062805	7.36678e+06	-47539.1	955.818	-29766	0.000000	0.000000	7.063177	0.037940	NaN	0.000000	0.001637	0.001757	28.0811	0.061891	0.001938	31.9415	51.4312	-164.599	0.056152	1.061498	-0.042151	-0.043458	0.037940	31.9415	-0.043042	-0.055989	-0.677632	NaN
178	1.000000	1.072803	7.36679e+06	-47539.1	955.819	-29766	0.000000	0.000000	7.073173	-0.016289	NaN	0.000000	0.001623	0.001728	28.1012	0.073649	0.002079	35.4311	26.5553	13.8888	0.038700	1.071442	-0.032153	-0.033513	-0.016289	35.4311	-0.031808	-0.025878	0.629474	NaN
178	1.000000	1.082813	7.36679e+06	-47539.1	955.818	-29766	0.000000	0.000000	7.083186	0.052440	NaN	0.000000	0.001581	0.001750	28.1318	0.014472	0.002131	6.792772	16.4002	-168.757	0.082064	1.081489	-0.022143	-0.023467	0.052440	6.792772	-0.027932	-0.020190	-2.597335	NaN
178	1.000000	1.092787	7.36679e+06	-47539.1	955.817	-29766	0.000000	0.000000	7.093157	0.007714	NaN	0.000000	0.001593	0.001737	28.0961	0.052889	0.001884	28.0692	-3.064559	16.6984	-0.012141	1.091448	-0.012169	-0.013508	0.007714	28.0692	-0.012375	-0.007743	-0.996172	NaN
178	1.000000	1.102811	7.36679e+06	-47539.1	955.818	-29766	0.000000	0.000000	7.103182	0.019121	NaN	0.000000	0.001585	0.001701	28.0813	0.097015	0.002013	48.1978	-83.3197	-168.725	0.049503	1.101519	-0.002145	-0.003436	0.019121	48.1978	-0.002442	-0.001744	-10.9666	NaN
178	1.000000	1.112789	7.36679e+06	-47539.1	955.817	-29766	0.000000	0.000000	7.113368	5.073820	NaN	0.000000	0.001583	0.001712	28.1035	5.891497	0.001762	3342.76	14.5432	7.217633	3.634768	1.111396	0.007833	0.006440	5.073820	3342.76	0.006694	0.005734	884.929	40333.4
178	2.000000	1.117460	7.36679e+06	-47539.1	955.818	-29766	0.000000	0.000000	7.118249	10.1669	NaN	0.000000	0.001558	0.001710	28.134	10.5091	0.001696	6195.48	6.117236	-172.737	9.727926	1.117166	0.012504	0.012210	10.1669	6195.48	0.011274	0.010631	956.309	54897.4
178	2.000000	1.119954	7.36679e+06	-47539.1	955.818	-29766	0.000000	0.000000	7.120973	15.7626	NaN	0.000000	0.001549	0.001716	28.0979	12.5988	0.001643	7668.27	6.861739	5.331546	14.7228	1.119580	0.014998	0.014624	15.7626	7668.27	0.013457	0.013282	1186.74	60790.5
178	2.000000	1.122389	7.36679e+06	-47539.1	955.817	-29766	0.000000	0.000000	7.123588	20.1579	NaN	0.000000	0.001577	0.001735	28.0826	15.0637	0.001570	9593.68	2.757848	-172.102	19.2247	1.122064	0.017433	0.017108	20.1579	9593.68	0.015857	0.016446	1225.71	68348.7
178	2.000000	1.124864	7.36679e+06	-47539.1	955.818	-29766	0.000000	0.000000	7.126316	26.3018	NaN	0.000000	0.001599	0.001745	28.1022	18.7909	0.001689	11125.4	6.146249	2.726609	25.0985	1.124523	0.019908	0.019567	26.3018	11125.4	0.018135	0.019696	1335.36	72426
178	2.000000	1.127346	7.36679e+06	-47539.1	955.817	-29766	0.000000	0.000000	7.129085	33.2885	NaN	0.000000	0.001618	0.001759	28.1324	22.4603	0.001842	12194.5	4.827982	-177.676	31.5814	1.127091	0.022390	0.022135	33.2885	12194.5	0.020343	0.023084	1442.05	73330
178	2.000000	1.129895	7.36679e+06	-47539.1	955.818	-29766	0.000000	0.000000	7.131957	41.1471	NaN	0.000000	0.001607	0.001723	28.0964	24.4238	0.001788	13657.5	6.430313	0.892148	39.719	1.129506	0.024939	0.024550	41.1471	13657.5	0.022679	0.026929	1528.01	76039.4
178	2.000000	1.132359	7.36679e+06	-47539.1	955.817	-29766	0.000000	0.000000	7.134775	49.7475	NaN	0.000000	0.001577	0.001745	28.0819	25.6731	0.001761	14580	1.916748	-174.438	49.1146	1.131985	0.027404	0.027029	49.7475	14580	0.024845	0.030733	1618.68	75984.6
178	2.000000	1.134903	7.36679e+06	-47539.1	955.817	-29766	0.000000	0.000000	7.137569	55.8318	NaN	0.000000	0.001574	0.001740	28.1027	29.3573	0.001741	16860	5.220875	-0.924074	55.9237	1.134535	0.029948	0.029579	55.8318	16860	0.027464	0.035651	1566.06	81582.2
178	2.000000	1.137330	7.36679e+06	-47539.1	955.817	-29766	0.000000	0.000000	7.140357	64.6132	NaN	0.000000	0.001644	0.001738	28.1338	32.2064	0.001737	18539.7	4.344826	179.096	63.4554	1.137104	0.032375	0.032149	64.6132	18539.7	0.029761	0.040249	1605.33	84429.9
178	2.000000	1.139819	7.36679e+06	-47539.1	955.817	-29766	0.000000	0.000000	7.143197	73.1485	NaN	0.000000	0.001652	0.001751	28.0968	34.4939	0.001757	19632	9.664894	-6.934049	69.5664	1.139512	0.034863	0.034556	73.1485	19632	0.032069	0.045141	1620.46	84421.6
178	2.000000	1.142288	7.36679e+06	-47539.1	955.817	-29766	0.000000	0.000000	7.146106	83.8627	NaN	0.000000	0.001620	0.001713	28.0809	36.3867	0.001837	19802.8	3.742733	-179.707	80.5183	1.141918	0.037332	0.036962	83.8627	19802.8	0.034156	0.049799	1684.01	81075.2
178	2.000000	1.144817	7.36679e+06	-47539.1	955.818	-29766	0.000000	0.000000	7.149058	94.1522	NaN	0.000000	0.001577	0.001770	28.1006	39.0039	0.001714	22754.4	9.060209	-7.217882	91.2086	1.144486	0.039861	0.039530	94.1522	22754.4	0.036758	0.055918	1683.75	87914.8
178	2.000000	1.147293	7.36679e+06	-47539.1	955.817	-29766	0.000000	0.000000	7.152046	106.605	NaN	0.000000	0.001643	0.001733	28.1314	41.6118	0.001782	23352.3	4.615887	177.185	103.855	1.147088	0.042337	0.042132	106.605	23352.3	0.038914	0.061251	1740.47	86208.1
178	2.000000	1.149851	7.36679e+06	-47539.1	955.817	-29766	0.000000	0.000000	7.154966	115.399	NaN	0.000000	0.001598	0.001772	28.0968	43.4768	0.001802	24132.9	4.245543	-2.142614	112.987	1.149482	0.044896	0.044526	115.399	24132.9	0.041309	0.067455	1710.74	84893.4
178	2.000000	1.152341	7.36679e+06	-47539.1	955.818	-29766	0.000000	0.000000	7.158083	130.639	NaN	0.000000	0.001589	0.001736	28.0796	45.3531	0.001780	25480	7.236416	175.247	129.996	1.151908	0.047385	0.046952	130.639	25480	0.043540	0.073496	1777.48	85869.7
178	2.000000	1.154828	7.36679e+06	-47539.1	955.817	-29766	0.000000	0.000000	7.160957	140.086	NaN	0.000000	0.001616	0.001743	28.1023	48.2333	0.001770	27250.1	2.927547	-1.560366	139.577	1.154395	0.049872	0.049439	140.086	27250.1	0.046016	0.080498	1740.23	87750.2
178	2.000000	1.157269	7.36679e+06	-47539.1	955.816	-29766	0.000000	0.000000	7.163876	151.702	NaN	0.000000	0.001607	0.001706	28.1322	51.7456	0.001639	31564.1	5.042207	173.802	148.684	1.157036	0.052313	0.052080	151.702	31564.1	0.048708	0.088462	1714.89	96959.4
178	2.000000	1.159831	7.36679e+06	-47539.1	955.817	-29766	0.000000	0.000000	7.167023	165.926	NaN	0.000000	0.001632	0.001721	28.0963	53.3707	0.001760	30320.9	4.190477	-3.947605	162.922	1.159509	0.054875	0.054553	165.926	30320.9	0.050771	0.094811	1750.06	89967.5
178	2.000000	1.162316	7.36679e+06	-47539.1	955.817	-29766	0.000000	0.000000	7.169881	175.001	NaN	0.000000	0.001604	0.001745	28.0823	56.1219	0.001731	32426.1	6.492259	172.068	173.145	1.162021	0.057360	0.057065	175.001	32426.1	0.053312	0.102926	1700.27	92343.5
178	2.000000	1.164777	7.36679e+06	-47539.1	955.816	-29766	0.000000	0.000000	7.173111	193.696	NaN	0.000000	0.001614	0.001734	28.0994	58.4865	0.001804	32423.7	5.915860	-5.908805	190.981	1.164409	0.059821	0.059453	193.696	32423.7	0.055340	0.109632	1766.78	89467.8
178	2.000000	1.167265	7.36679e+06	-47539.1	955.817	-29766	0.000000	0.000000	7.176047	204.6	NaN	0.000000	0.001587	0.001753	28.1306	61.6881	0.001861	33143.9	3.951627	174.666	201.141	1.166987	0.062309	0.062031	204.6	33143.9	0.057679	0.117617	1739.54	88296.1
178	2.000000	1.169741	7.36679e+06	-47539.1	955.816	-29766	0.000000	0.000000	7.178932	214.551	NaN	0.000000	0.001603	0.001735	28.0967	63.3252	0.001756	36062.8	5.125982	-7.365865	208.537	1.169525	0.064785	0.064569	214.551	36062.8	0.060323	0.126968	1689.8	92466.6
178	2.000000	1.172320	7.36679e+06	-47539.1	955.817	-29766	0.000000	0.000000	7.182258	232.713	NaN	0.000000	0.001615	0.001739	28.0813	65.4549	0.001775	36873.7	5.119923	172.956	232.182	1.172004	0.067364	0.067048	232.713	36873.7	0.062631	0.135411	1718.57	91551.1
178	2.000000	1.174746	7.36679e+06	-47539.1	955.816	-29766	0.000000	0.000000	7.185301	247.725	NaN	0.000000	0.001573	0.001761	28.1021	68.4509	0.001769	38704.4	6.784623	-8.833467	242.929	1.174471	0.069790	0.069515	247.725	38704.4	0.064990	0.144307	1716.65	93087.1
178	2.000000	1.177312	7.36679e+06	-47539.1	955.818	-29766	0.000000	0.000000	7.188371	259.984	NaN	0.000000	0.001580	0.001742	28.1334	71.4081	0.001770	40349.7	2.459148	174.929	259.848	1.176997	0.072356	0.072041	259.984	40349.7	0.067523	0.154160	1686.46	93892
178	2.000000	1.179775	7.36679e+06	-47539.1	955.817	-29766	0.000000	0.000000	7.191610	278.843	NaN	0.000000	0.001578	0.001750	28.0988	74.2124	0.001864	39818.7	9.934722	-11.7798	276.499	1.179425	0.074819	0.074469	278.843	39818.7	0.069567	0.162331	1717.74	90294
178	2.000000	1.182231	7.36679e+06	-47539.1	955.818	-29766	0.000000	0.000000	7.194989	301.307	NaN	0.000000	0.001642	0.001753	28.0833	74.8379	0.001668	44865.3	4.732648	172.147	297.914	1.181932	0.077276	0.076976	301.307	44865.3	0.072239	0.173314	1738.51	98461.8
178	2.000000	1.184864	7.36679e+06	-47539.1	955.817	-29766	0.000000	0.000000	7.198339	318.756	NaN	0.000000	0.001616	0.001731	28.1008	78.8592	0.001792	43999.4	9.086434	-11.8372	320.5	1.184264	0.079908	0.079308	318.756	43999.4	0.074474	0.182764	1744.08	94031.6
178	2.000000	1.187323	7.36679e+06	-47539.1	955.818	-29766	0.000000	0.000000	7.201266	330.135	NaN	0.000000	0.001593	0.001756	28.1333	79.6549	0.001717	46402	0.839184	175.306	330.607	1.187087	0.082367	0.082131	330.135	46402	0.077031	0.193860	1702.96	96286.6
178	2.000000	1.189780	7.36679e+06	-47539.1	955.817	-29766	0.000000	0.000000	7.204725	354.515	NaN	0.000000	0.001579	0.001749	28.0979	82.7916	0.001894	43717.3	5.053982	-7.350049	350.719	1.189417	0.084824	0.084461	354.515	43717.3	0.078742	0.201456	1759.77	88989.1
178	2.000000	1.192263	7.36679e+06	-47539.1	955.817	-29766	0.000000	0.000000	7.207776	368.325	NaN	0.000000	0.001605	0.001746	28.0818	85.7775	0.001953	43929.1	6.015246	171.088	367.093	1.191996	0.087307	0.087040	368.325	43929.1	0.081019	0.211776	1739.22	87214.1
178	2.000000	1.194661	7.36679e+06	-47539.1	955.817	-29766	0.000000	0.000000	7.211080	390.34	NaN	0.000000	0.001608	0.001726	28.1023	88.1363	0.001920	45912.3	2.166511	-5.588637	381.15	1.194303	0.089706	0.089348	390.34	45912.3	0.083329	0.222496	1754.37	88928.5
178	2.000000	1.197231	7.36679e+06	-47539.1	955.817	-29766	0.000000	0.000000	7.214557	412.393	NaN	0.000000	0.001610	0.001745	28.1338	89.8596	0.001825	49243.5	4.331375	172.037	407.776	1.196801	0.092276	0.091845	412.393	49243.5	0.085995	0.235170	1753.6	92775.1
178	2.000000	1.199809	7.36679e+06	-47539.1	955.816	-29766	0.000000	0.000000	7.217916	431.412	NaN	0.000000	0.001613	0.001788	28.099	91.2029	0.001857	49113.8	2.383240	-6.064668	428.189	1.199511	0.094853	0.094555	431.412	49113.8	0.088265	0.246223	1752.12	90430
178	2.000000	1.202185	7.36679e+06	-47539.1	955.816	-29766	0.000000	0.000000	7.221271	455.233	NaN	0.000000	0.001648	0.001785	28.082	93.6786	0.001669	56119.4	3.474276	171.844	449.259	1.201779	0.097229	0.096823	455.233	56119.4	0.091145	0.260585	1746.97	100441
178	2.000000	1.204752	7.36679e+06	-47539.1	955.816	-29766	0.000000	0.000000	7.224560	472.786	NaN	0.000000	0.001610	0.001788	28.1	96.6871	0.001779	54356.4	3.662071	-7.644487	469.679	1.204426	0.099796	0.099470	472.786	54356.4	0.093273	0.271439	1741.77	95320.8
178	2.000000	1.207268	7.36679e+06	-47539.1	955.816	-29766	0.000000	0.000000	7.227830	491.115	NaN	0.000000	0.001624	0.001735	28.1326	101.848	0.001923	52973.5	7.410774	168.93	491.142	1.206915	0.102312	0.101959	491.115	52973.5	0.095359	0.282284	1739.79	91093.7
178	2.000000	1.209771	7.36679e+06	-47539.1	955.817	-29766	0.000000	0.000000	7.231354	515.965	NaN	0.000000	0.001601	0.001771	28.0975	102.004	0.001817	56137.1	6.217375	-10.1705	511.606	1.209264	0.104815	0.104308	515.965	56137.1	0.097921	0.295875	1743.86	94290.8
178	2.000000	1.212300	7.36679e+06	-47539.1	955.817	-29766	0.000000	0.000000	7.234457	529.91	NaN	0.000000	0.001612	0.001750	28.0809	105.03	0.001767	59423.2	7.472764	167.336	532.53	1.211928	0.107345	0.106972	529.91	59423.2	0.100656	0.310711	1705.48	97398.2
178	2.000000	1.214173	7.36679e+06	-47539.1	955.817	-29766	0.000000	0.000000	7.237238	551.994	NaN	0.000000	0.001585	0.001764	28.0815	106.863	0.001784	59907	4.822981	170.384	546.613	1.213955	0.109217	0.108999	551.994	59907	0.102307	0.319827	1725.91	96781.6