File: remote_trans/data/nanoindenter/0828-1/data/Data_2025-08-06,11h17m57s/2025-07-22_16-23-58_1_402.txt
2025-07-22, 16:23:58, 1
Index	Phase	Displacement	Time	Pos X	Pos Y	Pos Z	Rot A	Rot B	Piezo Z	Force A	Force B	Gripper	Voltage A	Voltage B	Temperature	Amplitude force	Amplitude pos	Stiffness	Phase shift	Phase excitation	Force A raw	Displacement raw	HMax	HMax raw	Real Force	Real Stiffness	Contact Depth	Area	Hardness	Reduced Mod.
[#]	[#]	[um]	[s]	[um]	[um]	[um]	[m°]	[m°]	[um]	[uN]	[uN]	[V]	[V]	[V]	[°C]	[uN]	[um]	[N/m]	[°]	[°]	[uN]	[um]	[um]	[um]	[uN]	[N/m]	[um]	[um^2]	[MPa]	[MPa]
402	1.000000	0.002841	7.36899e+06	-56989.1	1005.82	-29737.8	0.000000	0.000000	6.002790	0.042571	NaN	0.000000	0.001673	0.001694	28.0817	0.010727	0.000962	11.1461	-110.032	-165.592	0.079191	0.001624	-1.104082	-1.105299	0.042571	11.1461	-1.106947	-6.213102E+14	-6.851864E-17	NaN
402	1.000000	0.012905	7.36899e+06	-56989.1	1005.82	-29737.8	0.000000	0.000000	6.012851	-0.024068	NaN	0.000000	0.001633	0.001620	28.0814	0.095417	0.001330	71.7359	-133.198	18.9785	0.063354	0.011507	-1.094018	-1.095416	-0.024068	71.7359	-1.093766	-4.134109E+14	5.821922E-17	NaN
402	1.000000	0.022779	7.36899e+06	-56989.1	1005.82	-29737.8	0.000000	0.000000	6.022726	0.012579	NaN	0.000000	0.001689	0.001672	28.0815	0.018479	0.001660	11.1334	-64.5294	-161.045	0.009721	0.021522	-1.084144	-1.085402	0.012579	11.1334	-1.084992	-3.151801E+14	-3.991026E-17	NaN
402	1.000000	0.032792	7.36899e+06	-56989.1	1005.82	-29737.8	0.000000	0.000000	6.032738	-0.000619	NaN	0.000000	0.001666	0.001657	28.0814	0.060296	0.001942	31.0513	-177.012	14.7976	0.037559	0.031420	-1.074132	-1.075504	-0.000619	31.0513	-1.074117	-2.251610E+14	2.750956E-18	NaN
402	1.000000	0.042784	7.36899e+06	-56989.1	1005.82	-29737.8	0.000000	0.000000	6.042730	-0.008080	NaN	0.000000	0.001656	0.001667	28.0826	0.098513	0.001900	51.8481	-36.3226	-164.411	-0.078366	0.041511	-1.064139	-1.065413	-0.008080	51.8481	-1.064023	-1.647695E+14	4.903820E-17	NaN
402	1.000000	0.052840	7.36899e+06	-56989.1	1005.82	-29737.8	0.000000	0.000000	6.052789	0.052610	NaN	0.000000	0.001630	0.001678	28.0813	0.128657	0.002008	64.0631	32.1536	14.3288	0.103040	0.051426	-1.054083	-1.055498	0.052610	64.0631	-1.054699	-1.234743E+14	-4.260807E-16	NaN
402	1.000000	0.062818	7.36899e+06	-56989.1	1005.82	-29737.8	0.000000	0.000000	6.062764	-0.007122	NaN	0.000000	0.001673	0.001655	28.0815	0.093596	0.001958	47.8134	-137.032	-163.216	-0.117699	0.061486	-1.044106	-1.045438	-0.007122	47.8134	-1.043994	-8.864867E+13	8.033756E-17	NaN
402	1.000000	0.072799	7.36899e+06	-56989.1	1005.82	-29737.8	0.000000	0.000000	6.072748	0.050585	NaN	0.000000	0.001666	0.001695	28.0813	0.111752	0.002011	55.5642	14.6713	16.3818	-0.008053	0.071448	-1.034124	-1.035476	0.050585	55.5642	-1.034807	-6.670112E+13	-7.583853E-16	NaN
402	1.000000	0.082790	7.36899e+06	-56989.1	1005.82	-29737.8	0.000000	0.000000	6.082737	0.009788	NaN	0.000000	0.001697	0.001628	28.0813	0.094617	0.002006	47.1572	-114.157	-164.545	0.032177	0.081523	-1.024133	-1.025400	0.009788	47.1572	-1.024289	-4.815689E+13	-2.032591E-16	NaN
402	1.000000	0.092834	7.36899e+06	-56989.1	1005.82	-29737.8	0.000000	0.000000	6.092782	0.017537	NaN	0.000000	0.001665	0.001644	28.0824	0.134578	0.001979	67.9927	77.5225	17.5567	0.021845	0.091442	-1.014089	-1.015482	0.017537	67.9927	-1.014283	-3.531981E+13	-4.965226E-16	NaN
402	1.000000	0.102860	7.36899e+06	-56989.1	1005.82	-29737.8	0.000000	0.000000	6.102806	-0.006750	NaN	0.000000	0.001679	0.001660	28.0824	0.113560	0.002000	56.7798	73.9786	-166.692	-0.062055	0.101470	-1.004063	-1.005454	-0.006750	56.7798	-1.003974	-2.566094E+13	2.630464E-16	NaN
402	1.000000	0.112835	7.36899e+06	-56989.1	1005.82	-29737.8	0.000000	0.000000	6.112781	-0.018796	NaN	0.000000	0.001671	0.001660	28.0824	0.091013	0.002043	44.5377	30.9553	14.7277	0.035879	0.111421	-0.994088	-0.995502	-0.018796	44.5377	-0.993772	-1.870274E+13	1.005010E-15	NaN
402	1.000000	0.122844	7.36899e+06	-56989.1	1005.82	-29737.8	0.000000	0.000000	6.122789	-0.059582	NaN	0.000000	0.001659	0.001656	28.0826	0.028378	0.002071	13.7001	147.503	-168.112	0.026519	0.121562	-0.984079	-0.985361	-0.059582	13.7001	-0.980817	-1.251467E+13	4.760998E-15	NaN
402	1.000000	0.132864	7.36899e+06	-56989.1	1005.82	-29737.8	0.000000	0.000000	6.132810	-0.008614	NaN	0.000000	0.001697	0.001670	28.0825	0.122613	0.001940	63.2138	-164.836	14.8886	0.056569	0.131488	-0.974060	-0.975435	-0.008614	63.2138	-0.973958	-1.011571E+13	8.515130E-16	NaN
402	1.000000	0.142847	7.36899e+06	-56989.1	1005.82	-29737.8	0.000000	0.000000	6.142792	-0.020275	NaN	0.000000	0.001674	0.001662	28.0826	0.059259	0.001928	30.7377	27.2625	-166	-0.048443	0.141571	-0.964077	-0.965352	-0.020275	30.7377	-0.963582	-7.330930E+12	2.765656E-15	NaN
402	1.000000	0.152820	7.36899e+06	-56989.1	1005.82	-29737.8	0.000000	0.000000	6.152765	-0.045252	NaN	0.000000	0.001653	0.001656	28.0826	0.093105	0.002262	41.16	142.464	13.7447	-0.023439	0.151438	-0.954103	-0.955485	-0.045252	41.16	-0.953279	-5.324041E+12	8.499498E-15	NaN
402	1.000000	0.162824	7.36899e+06	-56989.1	1005.82	-29737.8	0.000000	0.000000	6.162772	0.030036	NaN	0.000000	0.001677	0.001650	28.0829	0.053909	0.001876	28.7323	117.333	-164.356	-0.026478	0.161537	-0.944099	-0.945386	0.030036	28.7323	-0.944883	-4.102144E+12	-7.322039E-15	NaN
402	1.000000	0.172833	7.36899e+06	-56989.1	1005.82	-29737.8	0.000000	0.000000	6.172782	0.078044	NaN	0.000000	0.001694	0.001658	28.0825	0.079493	0.001930	41.1775	-171.622	9.335945	0.033546	0.171483	-0.934091	-0.935440	0.078044	41.1775	-0.935512	-3.066106E+12	-2.545383E-14	NaN
402	1.000000	0.182870	7.36899e+06	-56989.1	1005.82	-29737.8	0.000000	0.000000	6.182814	-0.046027	NaN	0.000000	0.001652	0.001620	28.0826	0.044668	0.001844	24.2217	-30.6544	-165.732	-0.024234	0.181540	-0.924054	-0.925383	-0.046027	24.2217	-0.922629	-2.054442E+12	2.240386E-14	NaN
402	1.000000	0.192852	7.36899e+06	-56989.1	1005.82	-29737.8	0.000000	0.000000	6.192802	0.070733	NaN	0.000000	0.001717	0.001628	28.0827	0.046084	0.001947	23.6699	154.981	14.4016	0.019036	0.191517	-0.914071	-0.915407	0.070733	23.6699	-0.916312	-1.688152E+12	-4.189988E-14	NaN
402	1.000000	0.202855	7.36899e+06	-56989.1	1005.82	-29737.8	0.000000	0.000000	6.202802	0.008065	NaN	0.000000	0.001721	0.001646	28.0825	0.028844	0.002108	13.6851	-19.5307	-165.84	-0.003715	0.201574	-0.904068	-0.905349	0.008065	13.6851	-0.904510	-1.169517E+12	-6.896118E-15	NaN
402	1.000000	0.212863	7.36899e+06	-56989.1	1005.82	-29737.8	0.000000	0.000000	6.212809	0.003695	NaN	0.000000	0.001734	0.001593	28.0825	0.103129	0.001998	51.6104	-84.857	21.1464	0.066901	0.211530	-0.894061	-0.895393	0.003695	51.6104	-0.894114	-8.463097E+11	-4.366243E-15	NaN
402	1.000000	0.222853	7.36899e+06	-56989.1	1005.82	-29737.8	0.000000	0.000000	6.222799	-0.014456	NaN	0.000000	0.001737	0.001649	28.0827	0.089253	0.001992	44.8113	44.9645	-163.105	0.002304	0.221556	-0.884070	-0.885367	-0.014456	44.8113	-0.883828	-6.144383E+11	2.352719E-14	NaN
402	1.000000	0.232881	7.36899e+06	-56989.1	1005.82	-29737.8	0.000000	0.000000	6.232827	-0.003816	NaN	0.000000	0.001740	0.001637	28.0818	0.058651	0.002103	27.8874	-154.054	13.2438	-0.040155	0.231502	-0.874043	-0.875421	-0.003816	27.8874	-0.873940	-4.515930E+11	8.450240E-15	NaN
402	1.000000	0.242882	7.36899e+06	-56989.1	1005.82	-29737.8	0.000000	0.000000	6.242831	0.050939	NaN	0.000000	0.001709	0.001660	28.0814	0.062639	0.002033	30.813	86.394	-162.711	0.007015	0.241585	-0.864041	-0.865338	0.050939	30.813	-0.865281	-3.448221E+11	-1.477265E-13	NaN
402	1.000000	0.252856	7.36899e+06	-56989.1	1005.82	-29737.8	0.000000	0.000000	6.252803	0.008608	NaN	0.000000	0.001728	0.001664	28.0813	0.073088	0.001973	37.0388	-18.9231	18.8334	0.012719	0.251524	-0.854067	-0.855400	0.008608	37.0388	-0.854242	-2.444395E+11	-3.521322E-14	NaN
402	1.000000	0.262899	7.36899e+06	-56989.1	1005.82	-29737.8	0.000000	0.000000	6.262849	0.076606	NaN	0.000000	0.001722	0.001673	28.0814	0.068995	0.001992	34.6284	63.9143	-165.969	0.012664	0.261582	-0.844024	-0.845342	0.076606	34.6284	-0.845683	-1.871869E+11	-4.092505E-13	NaN
402	1.000000	0.272890	7.36899e+06	-56989.1	1005.82	-29737.8	0.000000	0.000000	6.272837	0.013646	NaN	0.000000	0.001659	0.001625	28.0814	0.094753	0.002056	46.0855	-126.108	14.2777	-0.001662	0.271569	-0.834033	-0.835355	0.013646	46.0855	-0.834256	-1.310564E+11	-1.041244E-13	NaN
402	1.000000	0.282896	7.36899e+06	-56989.1	1005.82	-29737.8	0.000000	0.000000	6.282839	-0.089765	NaN	0.000000	0.001708	0.001634	28.0812	0.066168	0.001998	33.1116	-75.4954	-166.871	-0.051516	0.281619	-0.824027	-0.825304	-0.089765	33.1116	-0.821994	-8.938222E+10	1.004277E-12	NaN
402	1.000000	0.292908	7.36899e+06	-56989.1	1005.82	-29737.8	0.000000	0.000000	6.292857	0.054551	NaN	0.000000	0.001668	0.001655	28.0815	0.048678	0.001912	25.4627	-156.232	12.585	0.003672	0.291561	-0.814015	-0.815362	0.054551	25.4627	-0.815622	-7.325472E+10	-7.446788E-13	NaN
402	1.000000	0.302910	7.36899e+06	-56989.1	1005.82	-29737.8	0.000000	0.000000	6.302856	-0.010815	NaN	0.000000	0.001697	0.001669	28.0815	0.039763	0.001949	20.4064	-152.779	-167.078	-0.019236	0.301569	-0.804013	-0.805354	-0.010815	20.4064	-0.803616	-5.034315E+10	2.148207E-13	NaN
402	1.000000	0.312927	7.36899e+06	-56989.1	1005.82	-29737.8	0.000000	0.000000	6.312874	0.018483	NaN	0.000000	0.001666	0.001636	28.0815	0.087817	0.001999	43.938	-111.673	17.2375	0.007035	0.311566	-0.793997	-0.795357	0.018483	43.938	-0.794312	-3.763946E+10	-4.910534E-13	NaN
402	1.000000	0.322931	7.36899e+06	-56989.1	1005.82	-29737.8	0.000000	0.000000	6.322877	-0.017032	NaN	0.000000	0.001663	0.001643	28.0814	0.085537	0.002110	40.5466	-49.6667	-166.679	-0.041420	0.321658	-0.783993	-0.785265	-0.017032	40.5466	-0.783678	-2.698994E+10	6.310637E-13	NaN
402	1.000000	0.332913	7.36899e+06	-56989.1	1005.82	-29737.8	0.000000	0.000000	6.332860	0.003787	NaN	0.000000	0.001670	0.001662	28.0814	0.041916	0.002123	19.7418	-50.2886	14.5006	0.015663	0.331525	-0.774010	-0.775398	0.003787	19.7418	-0.774154	-2.003471E+10	-1.890043E-13	NaN
402	1.000000	0.342924	7.36899e+06	-56989.1	1005.82	-29737.8	0.000000	0.000000	6.342872	0.032667	NaN	0.000000	0.001635	0.001676	28.0814	0.058832	0.001969	29.8856	6.158738	-161.745	-0.020572	0.341655	-0.763999	-0.765268	0.032667	29.8856	-0.764819	-1.495736E+10	-2.183989E-12	NaN
402	1.000000	0.352907	7.36899e+06	-56989.1	1005.82	-29737.8	0.000000	0.000000	6.352853	-0.033534	NaN	0.000000	0.001655	0.001681	28.0815	0.041657	0.002007	20.7518	31.0491	15.009	-0.038767	0.351603	-0.754016	-0.755321	-0.033534	20.7518	-0.752804	-1.026566E+10	3.266653E-12	NaN
402	1.000000	0.362946	7.36899e+06	-56989.1	1005.82	-29737.8	0.000000	0.000000	6.362894	0.051401	NaN	0.000000	0.001668	0.001652	28.0814	0.071944	0.001850	38.8883	-69.6879	-166.565	0.001985	0.361608	-0.743978	-0.745315	0.051401	38.8883	-0.744969	-8.030252E+9	-6.400859E-12	NaN
402	1.000000	0.372913	7.36899e+06	-56989.1	1005.82	-29737.8	0.000000	0.000000	6.372861	0.036437	NaN	0.000000	0.001695	0.001660	28.0826	0.057495	0.001994	28.8394	-68.6842	13.9873	0.013570	0.371625	-0.734010	-0.735299	0.036437	28.8394	-0.734958	-5.866380E+9	-6.211071E-12	NaN
402	1.000000	0.382917	7.36899e+06	-56989.1	1005.82	-29737.8	0.000000	0.000000	6.382864	0.015010	NaN	0.000000	0.001660	0.001656	28.0826	0.080251	0.001995	40.2188	-32.6897	-164.753	-0.020240	0.381667	-0.724007	-0.725256	0.015010	40.2188	-0.724287	-4.196881E+9	-3.576465E-12	NaN
402	1.000000	0.392953	7.36899e+06	-56989.1	1005.82	-29737.8	0.000000	0.000000	6.392900	0.006461	NaN	0.000000	0.001669	0.001670	28.0825	0.042631	0.001965	21.6938	-12.0291	15.3682	0.070170	0.391586	-0.713970	-0.715337	0.006461	21.6938	-0.714194	-3.056849E+9	-2.113573E-12	NaN
402	1.000000	0.402939	7.36899e+06	-56989.1	1005.82	-29737.8	0.000000	0.000000	6.402889	0.069243	NaN	0.000000	0.001711	0.001689	28.0824	0.030947	0.002030	15.2428	124.367	-167.138	-0.009914	0.401662	-0.703984	-0.705261	0.069243	15.2428	-0.707391	-2.468541E+9	-2.805005E-11	NaN
402	1.000000	0.412928	7.36899e+06	-56989.1	1005.82	-29737.8	0.000000	0.000000	6.412875	0.023513	NaN	0.000000	0.001684	0.001633	28.0826	0.104693	0.002008	52.146	-176.996	13.4883	0.000987	0.411621	-0.693996	-0.695302	0.023513	52.146	-0.694334	-1.637341E+9	-1.436071E-11	NaN
402	1.000000	0.422950	7.36899e+06	-56989.1	1005.82	-29737.8	0.000000	0.000000	6.422897	0.007485	NaN	0.000000	0.001694	0.001636	28.0824	0.056921	0.002128	26.7428	-53.9465	-163.883	0.092888	0.421641	-0.683973	-0.685282	0.007485	26.7428	-0.684183	-1.189623E+9	-6.291620E-12	NaN
402	1.000000	0.432948	7.36899e+06	-56989.1	1005.82	-29737.8	0.000000	0.000000	6.432895	0.020482	NaN	0.000000	0.001725	0.001623	28.0824	0.006922	0.001996	3.467827	-165.557	16.6021	-0.016934	0.431652	-0.673975	-0.675271	0.020482	3.467827	-0.678405	-9.917300E+8	-2.065302E-11	NaN
402	1.000000	0.442942	7.36899e+06	-56989.1	1005.82	-29737.8	0.000000	0.000000	6.442890	0.035252	NaN	0.000000	0.001705	0.001613	28.0824	0.118668	0.001862	63.7279	-131.302	-161.118	-0.021881	0.441677	-0.663981	-0.665246	0.035252	63.7279	-0.664396	-6.377874E+8	-5.527273E-11	NaN
402	1.000000	0.452966	7.36899e+06	-56989.1	1005.82	-29737.8	0.000000	0.000000	6.452912	-0.034869	NaN	0.000000	0.001651	0.001616	28.0824	0.070060	0.002103	33.3148	18.6684	14.7841	-0.062039	0.451620	-0.653957	-0.655303	-0.034869	33.3148	-0.653172	-4.476258E+8	7.789870E-11	NaN
402	1.000000	0.462948	7.36899e+06	-56989.1	1005.82	-29737.8	0.000000	0.000000	6.462895	0.008712	NaN	0.000000	0.001625	0.001723	28.0823	0.033940	0.001956	17.3536	1.622063	-162.036	-0.049095	0.461675	-0.643976	-0.645249	0.008712	17.3536	-0.644352	-3.388408E+8	-2.571199E-11	NaN
402	1.000000	0.472986	7.36899e+06	-56989.1	1005.82	-29737.8	0.000000	0.000000	6.472934	0.018188	NaN	0.000000	0.001632	0.001674	28.0822	0.122449	0.002095	58.4528	150.401	12.8624	0.074800	0.471587	-0.633937	-0.635336	0.018188	58.4528	-0.634171	-2.456330E+8	-7.404693E-11	NaN
402	1.000000	0.482942	7.36899e+06	-56989.1	1005.82	-29737.8	0.000000	0.000000	6.482889	-0.010139	NaN	0.000000	0.001638	0.001677	28.0823	0.084186	0.001811	46.4941	138.738	-162.902	-0.022278	0.481706	-0.623981	-0.625217	-0.010139	46.4941	-0.623817	-1.770503E+8	5.726586E-11	NaN
402	1.000000	0.492981	7.36899e+06	-56989.1	1005.82	-29737.8	0.000000	0.000000	6.492930	0.047497	NaN	0.000000	0.001624	0.001630	28.0826	0.054262	0.001953	27.7896	129.036	13.3596	0.121312	0.491608	-0.613942	-0.615315	0.047497	27.7896	-0.615224	-1.348866E+8	-3.521224E-10	NaN
402	1.000000	0.502982	7.36899e+06	-56989.1	1005.82	-29737.8	0.000000	0.000000	6.502928	-0.014486	NaN	0.000000	0.001663	0.001670	28.0815	0.117819	0.001974	59.6889	-165.937	-164.01	-0.037002	0.501686	-0.603942	-0.605238	-0.014486	59.6889	-0.603760	-9.380559E+7	1.544280E-10	NaN
402	1.000000	0.513005	7.36899e+06	-56989.1	1005.82	-29737.8	0.000000	0.000000	6.512950	-0.029356	NaN	0.000000	0.001637	0.001655	28.0813	0.024504	0.001994	12.2873	176.33	17.3587	-0.016272	0.511643	-0.593918	-0.595280	-0.029356	12.2873	-0.592127	-6.486070E+7	4.525959E-10	NaN
402	1.000000	0.522992	7.36899e+06	-56989.1	1005.82	-29737.8	0.000000	0.000000	6.522939	0.028593	NaN	0.000000	0.001636	0.001665	28.0814	0.063702	0.002143	29.7305	-6.879614	-162.429	-0.032562	0.521668	-0.583932	-0.585256	0.028593	29.7305	-0.584653	-5.116004E+7	-5.588848E-10	NaN
402	1.000000	0.533001	7.36899e+06	-56989.1	1005.82	-29737.8	0.000000	0.000000	6.532946	-0.023268	NaN	0.000000	0.001611	0.001710	28.0816	0.025323	0.001980	12.7903	161.222	15.5459	-0.061160	0.531630	-0.573923	-0.575294	-0.023268	12.7903	-0.572558	-3.483175E+7	6.680224E-10	NaN
402	1.000000	0.542998	7.369e+06	-56989.1	1005.82	-29737.8	0.000000	0.000000	6.542944	-0.038281	NaN	0.000000	0.001594	0.001678	28.0814	0.094999	0.001947	48.7923	100.921	-163.976	0.017465	0.541721	-0.563925	-0.565203	-0.038281	48.7923	-0.563337	-2.597316E+7	1.473884E-9	NaN
402	1.000000	0.553001	7.369e+06	-56989.1	1005.82	-29737.8	0.000000	0.000000	6.552952	0.106362	NaN	0.000000	0.001635	0.001711	28.0815	0.037301	0.001942	19.2033	177.107	15.8699	0.063453	0.551611	-0.553922	-0.555313	0.106362	19.2033	-0.558076	-2.196674E+7	-4.841968E-9	NaN
402	1.000000	0.563005	7.369e+06	-56989.1	1005.82	-29737.8	0.000000	0.000000	6.562952	0.010566	NaN	0.000000	0.001632	0.001662	28.0816	0.051722	0.001877	27.562	144.384	-163.523	0.065771	0.561712	-0.543919	-0.545212	0.010566	27.562	-0.544206	-1.411499E+7	-7.485585E-10	NaN
402	1.000000	0.573013	7.369e+06	-56989.1	1005.82	-29737.8	0.000000	0.000000	6.572963	0.086759	NaN	0.000000	0.001599	0.001662	28.0815	0.020234	0.001991	10.1615	-148.337	14.0892	0.055520	0.571683	-0.533911	-0.535240	0.086759	10.1615	-0.540314	-1.246565E+7	-6.959887E-9	NaN
402	1.000000	0.583026	7.369e+06	-56989.1	1005.82	-29737.8	0.000000	0.000000	6.582973	0.000230	NaN	0.000000	0.001620	0.001666	28.0813	0.045133	0.001948	23.1731	-64.4178	-165.349	0.022719	0.581678	-0.523897	-0.525246	0.000230	23.1731	-0.523905	-7.37719e+06	-3.117325E-11	NaN
402	1.000000	0.593026	7.369e+06	-56989.1	1005.82	-29737.8	0.000000	0.000000	6.592972	-0.006961	NaN	0.000000	0.001593	0.001627	28.0815	0.088945	0.001936	45.9442	166.782	13.7019	-0.023988	0.591762	-0.513898	-0.515162	-0.006961	45.9442	-0.513784	-5.33471e+06	1.304780E-9	NaN
402	1.000000	0.603056	7.369e+06	-56989.1	1005.82	-29737.8	0.000000	0.000000	6.603000	-0.048949	NaN	0.000000	0.001666	0.001675	28.0817	0.037876	0.002005	18.8878	4.341125	-164.043	-0.019768	0.601757	-0.503868	-0.505167	-0.048949	18.8878	-0.501924	-3.64632e+06	1.342425E-8	NaN
402	1.000000	0.613028	7.369e+06	-56989.1	1005.82	-29737.8	0.000000	0.000000	6.612974	-0.024799	NaN	0.000000	0.001640	0.001660	28.0814	0.094745	0.002007	47.1989	-116.247	12.6548	-0.045046	0.611645	-0.493895	-0.495279	-0.024799	47.1989	-0.493501	-2.78167e+06	8.915253E-9	NaN
402	1.000000	0.623031	7.369e+06	-56989.1	1005.82	-29737.8	0.000000	0.000000	6.622978	-0.005120	NaN	0.000000	0.001621	0.001679	28.0811	0.061897	0.002035	30.4119	-161.216	-164.484	0.010136	0.621792	-0.483892	-0.485132	-0.005120	30.4119	-0.483766	-2.03342e+06	2.518068E-9	NaN
402	1.000000	0.633073	7.369e+06	-56989.1	1005.82	-29737.8	0.000000	0.000000	6.633020	0.007009	NaN	0.000000	0.001643	0.001659	28.0814	0.081624	0.001877	43.4755	83.6812	16.6561	0.088987	0.631703	-0.473850	-0.475220	0.007009	43.4755	-0.473971	-1.48279e+06	-4.726677E-9	NaN
402	1.000000	0.643024	7.369e+06	-56989.1	1005.82	-29737.8	0.000000	0.000000	6.642969	-0.044713	NaN	0.000000	0.001628	0.001662	28.0826	0.021843	0.001979	11.0386	131.625	-162.721	-0.069121	0.641705	-0.463900	-0.465218	-0.044713	11.0386	-0.460862	-970796	4.605819E-8	NaN
402	1.000000	0.653076	7.369e+06	-56989.1	1005.82	-29737.8	0.000000	0.000000	6.653025	0.055839	NaN	0.000000	0.001639	0.001638	28.0825	0.033508	0.002021	16.5765	-151.789	13.2389	0.047672	0.651698	-0.453847	-0.455225	0.055839	16.5765	-0.456374	-839538	-6.651141E-8	NaN
402	1.000000	0.663077	7.369e+06	-56989.1	1005.82	-29737.8	0.000000	0.000000	6.663022	-0.046629	NaN	0.000000	0.001633	0.001658	28.0825	0.013291	0.001996	6.658837	-103.78	-163.789	-0.002549	0.661770	-0.443846	-0.445154	-0.046629	6.658837	-0.438594	-471543	9.888606E-8	NaN
402	1.000000	0.673059	7.369e+06	-56989.1	1005.82	-29737.8	0.000000	0.000000	6.673004	-0.049144	NaN	0.000000	0.001642	0.001606	28.0827	0.171549	0.002051	83.6315	138.599	14.4147	0.036029	0.671682	-0.433864	-0.435241	-0.049144	83.6315	-0.433424	-398544	1.233089E-7	NaN
402	1.000000	0.683080	7.369e+06	-56989.1	1005.82	-29737.8	0.000000	0.000000	6.683028	0.024457	NaN	0.000000	0.001634	0.001588	28.0826	0.029911	0.001829	16.3509	-30.9375	-167.013	0.064433	0.681746	-0.423843	-0.425177	0.024457	16.3509	-0.424965	-302544	-8.083635E-8	NaN
402	1.000000	0.693076	7.369e+06	-56989.1	1005.82	-29737.8	0.000000	0.000000	6.693023	0.007451	NaN	0.000000	0.001638	0.001601	28.0827	0.132491	0.001910	69.3581	-141.828	14.0858	-0.003281	0.691690	-0.413848	-0.415233	0.007451	69.3581	-0.413928	-210977	-3.531570E-8	NaN
402	1.000000	0.703087	7.369e+06	-56989.1	1005.82	-29737.8	0.000000	0.000000	6.703031	-0.054762	NaN	0.000000	0.001618	0.001569	28.0826	0.060201	0.001998	30.13	171.414	-167.06	-0.091336	0.701769	-0.403837	-0.405155	-0.054762	30.13	-0.402474	-144963	3.777628E-7	NaN
402	1.000000	0.713090	7.369e+06	-56989.1	1005.82	-29737.8	0.000000	0.000000	6.713035	-0.033431	NaN	0.000000	0.001633	0.001584	28.0827	0.036193	0.002020	17.9196	122.677	19.2299	-0.090537	0.711712	-0.393833	-0.395211	-0.033431	17.9196	-0.392434	-104225	3.207554E-7	NaN
402	1.000000	0.723054	7.369e+06	-56989.1	1005.82	-29737.8	0.000000	0.000000	6.723000	-0.017795	NaN	0.000000	0.001677	0.001597	28.0826	0.049594	0.001957	25.3438	151.515	-165.835	-0.032121	0.721750	-0.383870	-0.385173	-0.017795	25.3438	-0.383343	-77239.8	2.303834E-7	NaN
402	1.000000	0.733077	7.369e+06	-56989.1	1005.82	-29737.8	0.000000	0.000000	6.733023	-0.008014	NaN	0.000000	0.001689	0.001582	28.0825	0.038506	0.001933	19.9171	-120.364	14.161	0.026631	0.731721	-0.373847	-0.375203	-0.008014	19.9171	-0.373545	-55866.3	1.434511E-7	NaN
402	1.000000	0.743086	7.369e+06	-56989.1	1005.82	-29737.8	0.000000	0.000000	6.743030	-0.057451	NaN	0.000000	0.001709	0.001594	28.0824	0.058976	0.001820	32.4068	-17.2378	-163.575	-0.014033	0.741797	-0.363838	-0.365127	-0.057451	32.4068	-0.362508	-38733.4	1.483231E-6	NaN
402	1.000000	0.753097	7.369e+06	-56989.1	1005.82	-29737.8	0.000000	0.000000	6.753043	-0.003776	NaN	0.000000	0.001622	0.001586	28.0825	0.038397	0.002022	18.9935	-4.199194	14.1141	0.021942	0.751733	-0.353827	-0.355191	-0.003776	18.9935	-0.353678	-28862.9	1.308193E-7	NaN
402	1.000000	0.763102	7.369e+06	-56989.1	1005.82	-29737.8	0.000000	0.000000	6.763046	-0.053206	NaN	0.000000	0.001650	0.001601	28.0823	0.060617	0.001959	30.9447	-17.834	-165.302	-0.090911	0.761842	-0.343822	-0.345081	-0.053206	30.9447	-0.342532	-19881.1	2.676201E-6	NaN
402	1.000000	0.773121	7.369e+06	-56989.1	1005.82	-29737.8	0.000000	0.000000	6.773068	0.008289	NaN	0.000000	0.001610	0.001604	28.0821	0.037181	0.002042	18.2046	-157.667	11.6212	-0.023459	0.771747	-0.333802	-0.335177	0.008289	18.2046	-0.334144	-14999.5	-5.526117E-7	NaN
402	1.000000	0.783112	7.369e+06	-56989.1	1005.82	-29737.8	0.000000	0.000000	6.783056	-0.068001	NaN	0.000000	0.001612	0.001558	28.0811	0.090129	0.001927	46.7826	102.009	-169.766	0.056753	0.781802	-0.323811	-0.325121	-0.068001	46.7826	-0.322721	-10201.4	6.665877E-6	NaN
402	1.000000	0.793138	7.369e+06	-56989.1	1005.82	-29737.8	0.000000	0.000000	6.793086	0.033890	NaN	0.000000	0.001631	0.001620	28.0813	0.129297	0.001999	64.6656	-78.8951	14.2766	0.091823	0.791755	-0.313785	-0.315169	0.033890	64.6656	-0.314178	-7635.19	-4.438662E-6	NaN
402	1.000000	0.803102	7.369e+06	-56989.1	1005.82	-29737.8	0.000000	0.000000	6.803047	-0.033254	NaN	0.000000	0.001600	0.001613	28.0812	0.077860	0.002037	38.2316	7.640010	-164.92	-0.018463	0.801821	-0.303822	-0.305102	-0.033254	38.2316	-0.303169	-5245.31	6.339737E-6	NaN
402	1.000000	0.813143	7.369e+06	-56989.1	1005.82	-29737.8	0.000000	0.000000	6.813092	0.038908	NaN	0.000000	0.001597	0.001590	28.0812	0.053601	0.002128	25.1866	-71.8019	16.1761	0.066523	0.811734	-0.293780	-0.295189	0.038908	25.1866	-0.294939	-3955.23	-9.837052E-6	NaN
402	1.000000	0.823140	7.369e+06	-56989.1	1005.82	-29737.8	0.000000	0.000000	6.823089	0.061131	NaN	0.000000	0.001646	0.001611	28.0812	0.049887	0.001916	26.0309	149.619	-165.45	0.067148	0.821799	-0.283784	-0.285125	0.061131	26.0309	-0.285545	-2860.63	-2.136989E-5	NaN
402	1.000000	0.833123	7.369e+06	-56989.1	1005.82	-29737.8	0.000000	0.000000	6.833068	-0.024120	NaN	0.000000	0.001660	0.001589	28.0814	0.057464	0.001895	30.3295	47.9719	15.5603	-0.025019	0.831791	-0.273801	-0.275133	-0.024120	30.3295	-0.273204	-1862.91	1.294770E-5	NaN
402	1.000000	0.843109	7.369e+06	-56989.1	1005.82	-29737.8	0.000000	0.000000	6.843057	0.032290	NaN	0.000000	0.001634	0.001617	28.081	0.022687	0.002010	11.2862	-5.742714	-165.569	0.045754	0.841793	-0.263814	-0.265131	0.032290	11.2862	-0.265960	-1445.55	-2.233742E-5	NaN
402	1.000000	0.853101	7.369e+06	-56989.1	1005.82	-29737.8	0.000000	0.000000	6.853047	-0.022096	NaN	0.000000	0.001633	0.001590	28.0818	0.076669	0.001946	39.3987	-163.273	15.6214	0.043977	0.851783	-0.253822	-0.255140	-0.022096	39.3987	-0.253401	-927.87	2.381368E-5	NaN
402	1.000000	0.863122	7.369e+06	-56989.1	1005.82	-29737.8	0.000000	0.000000	6.863071	0.044432	NaN	0.000000	0.001627	0.001649	28.0811	0.116359	0.001927	60.3814	-139.742	-160.858	-0.010488	0.861829	-0.243801	-0.245095	0.044432	60.3814	-0.244353	-672.041	-6.611518E-5	NaN
402	1.000000	0.873186	7.369e+06	-56989.1	1005.82	-29737.8	0.000000	0.000000	6.873132	0.001517	NaN	0.000000	0.001644	0.001632	28.0813	0.080539	0.001948	41.3504	12.6284	13.4106	0.014807	0.871767	-0.233738	-0.235157	0.001517	41.3504	-0.233765	-459.037	-3.304049E-6	NaN
402	1.000000	0.883172	7.369e+06	-56989.1	1005.82	-29737.8	0.000000	0.000000	6.883113	-0.143996	NaN	0.000000	0.001636	0.001605	28.0814	0.093032	0.002087	44.5835	-112.312	-166.013	-0.045150	0.881787	-0.223751	-0.225137	-0.143996	44.5835	-0.221329	-291.673	0.000494	NaN
402	1.000000	0.893141	7.369e+06	-56989.1	1005.82	-29737.8	0.000000	0.000000	6.893086	-0.048464	NaN	0.000000	0.001625	0.001588	28.0813	0.029281	0.002098	13.9574	-135.824	14.5882	-0.016516	0.891808	-0.213782	-0.215116	-0.048464	13.9574	-0.211178	-200.391	0.000242	NaN
402	1.000000	0.903160	7.369e+06	-56989.1	1005.82	-29737.8	0.000000	0.000000	6.903107	0.024515	NaN	0.000000	0.001656	0.001624	28.0811	0.058681	0.001899	30.8987	50.696	-163.988	0.042596	0.901836	-0.203764	-0.205087	0.024515	30.8987	-0.204359	-155.274	-0.000158	NaN
402	1.000000	0.913176	7.369e+06	-56989.1	1005.82	-29737.8	0.000000	0.000000	6.913122	-0.024508	NaN	0.000000	0.001626	0.001583	28.0823	0.035661	0.001941	18.3693	-174.376	16.8173	-0.018596	0.911795	-0.193747	-0.195129	-0.024508	18.3693	-0.192746	-99.9538	0.000245	NaN
402	1.000000	0.923165	7.369e+06	-56989.1	1005.82	-29737.8	0.000000	0.000000	6.923113	0.033173	NaN	0.000000	0.001620	0.001595	28.0824	0.106317	0.002095	50.7547	141.411	-165.736	-0.054758	0.921882	-0.183759	-0.185042	0.033173	50.7547	-0.184249	-72.0219	-0.000461	NaN
402	1.000000	0.933145	7.369e+06	-56989.1	1005.82	-29737.8	0.000000	0.000000	6.933092	0.008905	NaN	0.000000	0.001698	0.001614	28.0824	0.103251	0.002088	49.4404	46.8637	14.6497	0.035263	0.931797	-0.173778	-0.175127	0.008905	49.4404	-0.173913	-48.0047	-0.000186	NaN
402	1.000000	0.943169	7.369e+06	-56989.1	1005.82	-29737.8	0.000000	0.000000	6.943115	-0.007272	NaN	0.000000	0.001713	0.001605	28.0825	0.027278	0.001888	14.4515	85.8606	-166.649	0.018661	0.941845	-0.163755	-0.165079	-0.007272	14.4515	-0.163377	-31.4599	0.000231	NaN
402	1.000000	0.953194	7.369e+06	-56989.1	1005.82	-29737.8	0.000000	0.000000	6.953143	0.052588	NaN	0.000000	0.001712	0.001548	28.0824	0.040857	0.001943	21.0239	-169.756	14.7544	0.025024	0.951795	-0.153729	-0.155129	0.052588	21.0239	-0.155605	-22.8805	-0.002298	NaN
402	1.000000	0.963191	7.369e+06	-56989.1	1005.82	-29737.8	0.000000	0.000000	6.963136	-0.054554	NaN	0.000000	0.001735	0.001542	28.0823	0.110728	0.001981	55.8994	-38.1863	-165.862	-0.038437	0.961880	-0.143732	-0.145044	-0.054554	55.8994	-0.143000	-13.4605	0.004053	NaN
402	1.000000	0.973165	7.369e+06	-56989.1	1005.82	-29737.8	0.000000	0.000000	6.973110	-0.018549	NaN	0.000000	0.001683	0.001541	28.0822	0.055884	0.002029	27.5472	-32.3592	16.5564	-0.027725	0.971776	-0.133759	-0.135148	-0.018549	27.5472	-0.133254	-8.807561	0.002106	NaN
402	1.000000	0.983218	7.369e+06	-56989.1	1005.82	-29737.8	0.000000	0.000000	6.983166	0.033545	NaN	0.000000	0.001674	0.001580	28.0821	0.115514	0.002067	55.8957	-18.4081	-165.447	-0.040690	0.981892	-0.123706	-0.125031	0.033545	55.8957	-0.124156	-5.851462	-0.005733	NaN
402	1.000000	0.993194	7.369e+06	-56989.1	1005.82	-29737.8	0.000000	0.000000	6.993142	0.036157	NaN	0.000000	0.001706	0.001570	28.0822	0.137417	0.002030	67.7047	157.614	16.3072	0.065308	0.991855	-0.113730	-0.115068	0.036157	67.7047	-0.114130	-3.665598	-0.009864	NaN
402	1.000000	1.003202	7.369e+06	-56989.1	1005.82	-29737.8	0.000000	0.000000	7.003147	-0.034384	NaN	0.000000	0.001612	0.001558	28.0822	0.077553	0.001926	40.26	138.041	-163.854	0.019567	1.001908	-0.103721	-0.105016	-0.034384	40.26	-0.103081	-2.135568	0.016101	NaN
402	1.000000	1.013179	7.369e+06	-56989.1	1005.82	-29737.8	0.000000	0.000000	7.013123	-0.065333	NaN	0.000000	0.001633	0.001529	28.0823	0.105549	0.001947	54.221	58.7911	14.2661	0.029083	1.011829	-0.093744	-0.095095	-0.065333	54.221	-0.092841	-1.258649	0.051907	NaN
402	1.000000	1.023173	7.369e+06	-56989.1	1005.82	-29737.8	0.000000	0.000000	7.023121	0.028486	NaN	0.000000	0.001622	0.001542	28.0821	0.132356	0.002031	65.1536	-4.356034	-161.751	-0.040679	1.021900	-0.083750	-0.085024	0.028486	65.1536	-0.084078	-0.780376	-0.036502	NaN
402	1.000000	1.033190	7.369e+06	-56989.1	1005.82	-29737.8	0.000000	0.000000	7.033138	0.033493	NaN	0.000000	0.001642	0.001526	28.0821	0.023737	0.001895	12.5263	100.78	18.0741	-0.026351	1.031868	-0.073733	-0.075055	0.033493	12.5263	-0.075738	-0.482586	-0.069402	NaN
402	1.000000	1.043215	7.369e+06	-56989.1	1005.82	-29737.8	0.000000	0.000000	7.043159	-0.055449	NaN	0.000000	0.001616	0.001554	28.0822	0.069034	0.001946	35.4706	123.113	-167.547	-0.073851	1.041922	-0.063708	-0.065002	-0.055449	35.4706	-0.062536	-0.212640	0.260764	NaN
402	1.000000	1.053206	7.369e+06	-56989.1	1005.82	-29737.8	0.000000	0.000000	7.053152	-0.017649	NaN	0.000000	0.001655	0.001545	28.081	0.072812	0.001944	37.4595	-96.2914	16.6405	-0.010538	1.051866	-0.053717	-0.055058	-0.017649	37.4595	-0.053364	-0.115150	0.153272	NaN
402	1.000000	1.063195	7.369e+06	-56989.1	1005.82	-29737.8	0.000000	0.000000	7.063139	-0.048580	NaN	0.000000	0.001660	0.001610	28.0811	0.189936	0.001958	96.9991	148.146	-165.835	-0.030361	1.061902	-0.043729	-0.045022	-0.048580	96.9991	-0.043353	-0.057231	0.848844	NaN
402	1.000000	1.073238	7.369e+06	-56989.1	1005.82	-29737.8	0.000000	0.000000	7.073187	0.057626	NaN	0.000000	0.001681	0.001585	28.0809	0.016302	0.002066	7.890636	141.201	14.778	0.099246	1.071919	-0.033686	-0.035005	0.057626	7.890636	-0.039163	-0.042655	-1.350964	NaN
402	1.000000	1.083236	7.369e+06	-56989.1	1005.82	-29737.8	0.000000	0.000000	7.083184	0.021348	NaN	0.000000	0.001654	0.001586	28.0812	0.053660	0.002088	25.7004	163.1	-166.931	-0.035783	1.081888	-0.023687	-0.025035	0.021348	25.7004	-0.024310	-0.016187	-1.318801	NaN
402	1.000000	1.093219	7.369e+06	-56989.1	1005.82	-29737.8	0.000000	0.000000	7.093169	0.068570	NaN	0.000000	0.001632	0.001573	28.0809	0.078837	0.002040	38.6537	30.5281	11.7178	0.153614	1.091887	-0.013704	-0.015037	0.068570	38.6537	-0.015035	-0.009296	-7.376066	NaN
402	1.000000	1.103246	7.369e+06	-56989.1	1005.82	-29737.8	0.000000	0.000000	7.103192	-0.021077	NaN	0.000000	0.001627	0.001569	28.0811	0.097233	0.002045	47.5359	129.998	-162.75	-0.033324	1.101927	-0.003677	-0.004997	-0.021077	47.5359	-0.003345	-0.002350	8.969671	NaN
402	1.000000	1.113199	7.369e+06	-56989.1	1005.82	-29737.8	0.000000	0.000000	7.113444	7.241134	NaN	0.000000	0.001666	0.001574	28.0809	6.078559	0.001593	3815.66	4.714060	10.8186	5.134295	1.111797	0.006276	0.004874	7.241134	3815.66	0.004853	0.003999	1810.56	55124.8
402	2.000000	1.116876	7.369e+06	-56989.1	1005.82	-29737.8	0.000000	0.000000	7.117179	8.655929	NaN	0.000000	0.001639	0.001589	28.0814	10.4194	0.001718	6065.6	7.915196	-174.423	8.142954	1.116608	0.009952	0.009684	8.655929	6065.6	0.008882	0.007966	1086.67	62092.6
402	2.000000	1.119334	7.369e+06	-56989.1	1005.82	-29737.8	0.000000	0.000000	7.119773	11.9651	NaN	0.000000	0.001715	0.001598	28.0811	13.1831	0.001797	7335.54	8.713317	2.993088	10.4057	1.118987	0.012410	0.012064	11.9651	7335.54	0.011187	0.010531	1136.22	65310
402	2.000000	1.121823	7.369e+06	-56989.1	1005.82	-29737.8	0.000000	0.000000	7.122504	17.8297	NaN	0.000000	0.001685	0.001592	28.0816	16.1505	0.001758	9187.87	6.627832	-175.961	16.5827	1.121471	0.014900	0.014547	17.8297	9187.87	0.013444	0.013267	1343.95	72879.9
402	2.000000	1.124298	7.369e+06	-56989.1	1005.82	-29737.8	0.000000	0.000000	7.125115	21.1526	NaN	0.000000	0.001672	0.001622	28.0811	18.5229	0.001843	10048.2	8.466994	1.997703	18.8007	1.123926	0.017374	0.017003	21.1526	10048.2	0.015795	0.016361	1292.88	71772.6
402	2.000000	1.126789	7.369e+06	-56989.1	1005.82	-29737.8	0.000000	0.000000	7.127719	23.896	NaN	0.000000	0.001685	0.001626	28.0819	20.6654	0.001754	11780.8	2.033852	-174.46	22.4002	1.126554	0.019865	0.019631	23.896	11780.8	0.018344	0.020007	1194.39	76095.2
402	2.000000	1.129353	7.369e+06	-56989.1	1005.82	-29737.8	0.000000	0.000000	7.130588	31.3238	NaN	0.000000	0.001655	0.001615	28.0812	23.3619	0.001689	13835.8	3.855624	3.016329	30.7318	1.128980	0.022430	0.022057	31.3238	13835.8	0.020732	0.023705	1321.4	82103
402	2.000000	1.131783	7.369e+06	-56989.1	1005.82	-29737.8	0.000000	0.000000	7.133196	35.6452	NaN	0.000000	0.001708	0.001594	28.0816	25.7961	0.001878	13738.2	6.610880	-177.87	34.1934	1.131382	0.024860	0.024459	35.6452	13738.2	0.022914	0.027330	1304.27	75925.6
402	2.000000	1.134261	7.369e+06	-56989.1	1005.82	-29737.8	0.000000	0.000000	7.135945	42.2443	NaN	0.000000	0.001694	0.001590	28.0824	27.8572	0.001763	15801.4	4.163497	3.406667	40.1251	1.133892	0.027337	0.026969	42.2443	15801.4	0.025332	0.031623	1335.88	81183.5
402	2.000000	1.136751	7.369e+06	-56989.1	1005.82	-29737.8	0.000000	0.000000	7.138608	46.4178	NaN	0.000000	0.001674	0.001618	28.0835	30.7853	0.001720	17894	2.480896	-176.708	45.2296	1.136428	0.029828	0.029505	46.4178	17894	0.027882	0.036469	1272.81	85608.8
402	2.000000	1.139315	7.369e+06	-56989.1	1005.82	-29737.8	0.000000	0.000000	7.141406	52.1206	NaN	0.000000	0.001696	0.001576	28.0825	33.6687	0.001843	18264.2	6.258809	-0.014824	52.4724	1.138898	0.032391	0.031975	52.1206	18264.2	0.030251	0.041266	1263.05	82144.5
402	2.000000	1.141711	7.369e+06	-56989.1	1005.82	-29737.8	0.000000	0.000000	7.144140	60.3551	NaN	0.000000	0.001685	0.001595	28.0834	36.1952	0.001773	20419.5	4.025885	-179.725	57.443	1.141388	0.034787	0.034464	60.3551	20419.5	0.032570	0.046240	1305.26	86758.2
402	2.000000	1.144223	7.369e+06	-56989.1	1005.82	-29737.8	0.000000	0.000000	7.146902	66.4056	NaN	0.000000	0.001699	0.001552	28.0826	39.2557	0.001779	22064.1	6.424128	-2.605427	64.3717	1.143927	0.037299	0.037003	66.4056	22064.1	0.035042	0.051844	1280.87	88533.8
402	2.000000	1.146748	7.369e+06	-56989.1	1005.82	-29737.8	0.000000	0.000000	7.149804	75.576	NaN	0.000000	0.001663	0.001575	28.083	41.2326	0.001759	23440.1	4.198810	177.984	73.7846	1.146444	0.039824	0.039521	75.576	23440.1	0.037406	0.057497	1314.43	89312.1
402	2.000000	1.149302	7.369e+06	-56989.1	1005.82	-29737.8	0.000000	0.000000	7.152766	85.4955	NaN	0.000000	0.001698	0.001595	28.0826	43.2725	0.001787	24218.3	4.692008	-0.640292	86.6088	1.148905	0.042378	0.041981	85.4955	24218.3	0.039731	0.063334	1349.91	87922
402	2.000000	1.151781	7.369e+06	-56989.1	1005.82	-29737.8	0.000000	0.000000	7.155483	91.2764	NaN	0.000000	0.001670	0.001565	28.0832	45.6307	0.001817	25112.6	6.162051	177.16	93.755	1.151455	0.044857	0.044531	91.2764	25112.6	0.042131	0.069653	1310.45	86935.1
402	2.000000	1.154182	7.369e+06	-56989.1	1005.82	-29737.8	0.000000	0.000000	7.158272	100.7	NaN	0.000000	0.001662	0.001578	28.0826	47.831	0.001699	28154.1	4.732176	-3.592567	96.9821	1.153958	0.047259	0.047034	100.7	28154.1	0.044576	0.076389	1318.26	93067.9
402	2.000000	1.156769	7.369e+06	-56989.1	1005.82	-29737.8	0.000000	0.000000	7.161197	108.931	NaN	0.000000	0.001683	0.001569	28.0827	51.1033	0.001869	27347.2	-0.009978	-178.142	109.818	1.156506	0.049846	0.049582	108.931	27347.2	0.046858	0.082950	1313.22	86751.8
402	2.000000	1.159243	7.369e+06	-56989.1	1005.82	-29737.8	0.000000	0.000000	7.164226	122.404	NaN	0.000000	0.001613	0.001591	28.0824	52.746	0.001758	29997.3	3.018924	-1.716075	119.811	1.158883	0.052319	0.051960	122.404	29997.3	0.049259	0.090137	1357.98	91286
402	2.000000	1.161700	7.369e+06	-56989.1	1005.82	-29737.8	0.000000	0.000000	7.167287	137.102	NaN	0.000000	0.001617	0.001571	28.0828	55.3442	0.001748	31657.4	3.190031	177.578	133.858	1.161392	0.054776	0.054469	137.102	31657.4	0.051528	0.097195	1410.58	92774.1
402	2.000000	1.164155	7.369e+06	-56989.1	1005.82	-29737.8	0.000000	0.000000	7.170092	145.586	NaN	0.000000	0.001600	0.001607	28.0825	57.6099	0.001741	33098.7	1.470796	-0.956273	139.038	1.163849	0.057232	0.056926	145.586	33098.7	0.053933	0.104957	1387.1	93342.4
402	2.000000	1.166692	7.369e+06	-56989.1	1005.82	-29737.8	0.000000	0.000000	7.173153	158.352	NaN	0.000000	0.001606	0.001598	28.0814	60.5987	0.001780	34049.6	2.031260	178.5	156.349	1.166396	0.059768	0.059473	158.352	34049.6	0.056280	0.112809	1403.72	92621.8
402	2.000000	1.169201	7.369e+06	-56989.1	1005.82	-29737.8	0.000000	0.000000	7.176133	169.775	NaN	0.000000	0.001614	0.001591	28.0811	62.9468	0.001740	36183.6	3.255001	-3.193224	166.876	1.168799	0.062278	0.061876	169.775	36183.6	0.058759	0.121395	1398.54	94882.4
402	2.000000	1.171657	7.369e+06	-56989.1	1005.82	-29737.8	0.000000	0.000000	7.179081	181.732	NaN	0.000000	0.001583	0.001577	28.0812	64.4478	0.001745	36932.9	6.256556	173.738	177.278	1.171313	0.064734	0.064390	181.732	36932.9	0.061043	0.129575	1402.52	93740
402	2.000000	1.174239	7.369e+06	-56989.1	1005.82	-29737.8	0.000000	0.000000	7.182291	197.027	NaN	0.000000	0.001611	0.001607	28.0811	67.9009	0.001809	37545.2	6.857645	-7.471429	194.815	1.173860	0.067315	0.066937	197.027	37545.2	0.063379	0.138204	1425.62	92271.5
402	2.000000	1.176738	7.369e+06	-56989.1	1005.82	-29737.8	0.000000	0.000000	7.185030	202.819	NaN	0.000000	0.001606	0.001586	28.0813	69.9611	0.001865	37509.6	0.085387	178.992	202.275	1.176551	0.069815	0.069627	202.819	37509.6	0.065760	0.147268	1377.21	89302.1
402	2.000000	1.179264	7.369e+06	-56989.1	1005.82	-29737.8	0.000000	0.000000	7.188403	223.433	NaN	0.000000	0.001568	0.001590	28.081	72.0987	0.001761	40944.7	7.108912	-7.918182	223.169	1.178809	0.072340	0.071886	223.433	40944.7	0.068248	0.157033	1422.85	94400.9
402	2.000000	1.181708	7.369e+06	-56989.1	1005.82	-29737.8	0.000000	0.000000	7.191659	243.161	NaN	0.000000	0.001593	0.001580	28.0812	73.9678	0.001767	41851.1	0.918255	177.888	242.522	1.181344	0.074784	0.074421	243.161	41851.1	0.070427	0.165828	1466.35	93896.9
402	2.000000	1.184177	7.369e+06	-56989.1	1005.82	-29737.8	0.000000	0.000000	7.194416	250.18	NaN	0.000000	0.001590	0.001562	28.0813	76.6553	0.001636	46848.7	2.099337	-5.014886	245.68	1.183991	0.077253	0.077067	250.18	46848.7	0.073248	0.177551	1409.05	101580
402	2.000000	1.186769	7.369e+06	-56989.1	1005.82	-29737.8	0.000000	0.000000	7.197602	264.612	NaN	0.000000	0.001610	0.001603	28.0812	80.939	0.001938	41757.8	0.837738	177.934	266.136	1.186512	0.079845	0.079589	264.612	41757.8	0.075093	0.185419	1427.1	88600.1
402	2.000000	1.189270	7.369e+06	-56989.1	1005.82	-29737.8	0.000000	0.000000	7.200714	279.446	NaN	0.000000	0.001640	0.001622	28.0813	83.459	0.001848	45167.2	4.958656	-7.211459	280.594	1.188967	0.082347	0.082043	279.446	45167.2	0.077707	0.196843	1419.64	93011.5
402	2.000000	1.191617	7.369e+06	-56989.1	1005.82	-29737.8	0.000000	0.000000	7.204012	302.563	NaN	0.000000	0.001567	0.001604	28.0813	85.1138	0.001742	48849.9	2.767611	174.571	295.853	1.191307	0.084694	0.084383	302.563	48849.9	0.080048	0.207347	1459.21	98013.8
402	2.000000	1.194137	7.369e+06	-56989.1	1005.82	-29737.8	0.000000	0.000000	7.207248	319.965	NaN	0.000000	0.001592	0.001648	28.0815	88.4086	0.001770	49956.9	7.257953	-9.924854	313.337	1.193836	0.087214	0.086912	319.965	49956.9	0.082410	0.218203	1466.36	97709.8
402	2.000000	1.196685	7.369e+06	-56989.1	1005.82	-29737.8	0.000000	0.000000	7.210021	325.439	NaN	0.000000	0.001610	0.001604	28.0813	91.0937	0.001903	47874.1	2.047005	175.167	323.946	1.196504	0.089762	0.089581	325.439	47874.1	0.084663	0.228798	1422.38	91442.4
402	2.000000	1.199226	7.369e+06	-56989.1	1005.82	-29737.8	0.000000	0.000000	7.213845	356.614	NaN	0.000000	0.001648	0.001586	28.0812	92.1596	0.001771	52028.7	3.409148	-5.782707	355.643	1.198793	0.092302	0.091870	356.614	52028.7	0.087162	0.240822	1480.82	96865.3
402	2.000000	1.201589	7.369e+06	-56989.1	1005.82	-29737.8	0.000000	0.000000	7.216631	366.886	NaN	0.000000	0.001604	0.001594	28.0826	94.3017	0.001881	50130.6	4.241302	172.754	361.039	1.201367	0.094666	0.094444	366.886	50130.6	0.089177	0.250729	1463.28	91469
402	2.000000	1.204167	7.369e+06	-56989.1	1005.82	-29737.8	0.000000	0.000000	7.220447	396.98	NaN	0.000000	0.001609	0.001591	28.0824	95.1814	0.001791	53149.6	-0.501172	-2.332852	394.225	1.203889	0.097244	0.096966	396.98	53149.6	0.091642	0.263103	1508.84	94669.5
402	2.000000	1.206806	7.369e+06	-56989.1	1005.82	-29737.8	0.000000	0.000000	7.222941	393.484	NaN	0.000000	0.001553	0.001596	28.0823	99.2277	0.001838	53989.5	1.163545	175.403	398.181	1.206606	0.099882	0.099682	393.484	53989.5	0.094416	0.277358	1418.69	93661.8
402	2.000000	1.209115	7.369e+06	-56989.1	1005.82	-29737.8	0.000000	0.000000	7.226410	421.676	NaN	0.000000	0.001579	0.001606	28.0823	101.353	0.001853	54707.2	4.343577	-7.546426	416.071	1.208711	0.102191	0.101788	421.676	54707.2	0.096410	0.287824	1465.05	93165.3
402	2.000000	1.211792	7.369e+06	-56989.1	1005.82	-29737.8	0.000000	0.000000	7.229802	439.024	NaN	0.000000	0.001576	0.001562	28.083	105.12	0.001832	57390.9	10.5457	166.23	446.327	1.211245	0.104869	0.104322	439.024	57390.9	0.099131	0.302397	1451.82	95351.6
402	2.000000	1.213074	7.369e+06	-56989.1	1005.82	-29737.8	0.000000	0.000000	7.231935	459.73	NaN	0.000000	0.001599	0.001607	28.0825	106.047	0.001810	58600.3	8.149070	-11.5416	451.558	1.212647	0.106151	0.105723	459.73	58600.3	0.100267	0.308576	1489.84	96381.2