File: remote_trans/data/nanoindenter/0828-1/data/Data_2025-08-06,11h17m57s/2025-07-22_16-23-58_1_752.txt
2025-07-22, 16:23:58, 1
Index	Phase	Displacement	Time	Pos X	Pos Y	Pos Z	Rot A	Rot B	Piezo Z	Force A	Force B	Gripper	Voltage A	Voltage B	Temperature	Amplitude force	Amplitude pos	Stiffness	Phase shift	Phase excitation	Force A raw	Displacement raw	HMax	HMax raw	Real Force	Real Stiffness	Contact Depth	Area	Hardness	Reduced Mod.
[#]	[#]	[um]	[s]	[um]	[um]	[um]	[m°]	[m°]	[um]	[uN]	[uN]	[V]	[V]	[V]	[°C]	[uN]	[um]	[N/m]	[°]	[°]	[uN]	[um]	[um]	[um]	[uN]	[N/m]	[um]	[um^2]	[MPa]	[MPa]
752	1.000000	0.002204	7.37241e+06	-39489.1	1005.82	-29793.5	0.000000	0.000000	6.002775	-0.011481	NaN	0.000000	0.001630	0.001710	28.0847	0.061522	0.000994	61.8987	-100.379	-158.613	-0.092331	0.000940	-1.114481	-1.115745	-0.011481	61.8987	-1.114342	-7.808250E+14	1.470415E-17	NaN
752	1.000000	0.012311	7.37241e+06	-39489.1	1005.82	-29793.5	0.000000	0.000000	6.012884	0.047781	NaN	0.000000	0.001610	0.001698	28.0844	0.052904	0.001290	41.0036	-46.8766	16.8243	-0.043938	0.010829	-1.104374	-1.105856	0.047781	41.0036	-1.105248	-5.895427E+14	-8.104794E-17	NaN
752	1.000000	0.022187	7.37241e+06	-39489.1	1005.82	-29793.5	0.000000	0.000000	6.022761	0.050875	NaN	0.000000	0.001599	0.001718	28.0841	0.031863	0.001823	17.4803	36.3315	-164.838	0.010193	0.020847	-1.094498	-1.095838	0.050875	17.4803	-1.096680	-4.523815E+14	-1.124595E-16	NaN
752	1.000000	0.032179	7.37241e+06	-39489.1	1005.82	-29793.5	0.000000	0.000000	6.032749	-0.014888	NaN	0.000000	0.001587	0.001714	28.0841	0.083447	0.001815	45.9785	66.266	12.0861	-0.015784	0.030843	-1.084506	-1.085842	-0.014888	45.9785	-1.084263	-3.081619E+14	4.831074E-17	NaN
752	1.000000	0.042149	7.37241e+06	-39489.1	1005.82	-29793.5	0.000000	0.000000	6.042719	-0.027199	NaN	0.000000	0.001572	0.001716	28.0844	0.068991	0.001992	34.6354	-61.2903	-163.937	-0.108346	0.040893	-1.074536	-1.075792	-0.027199	34.6354	-1.073947	-2.239831E+14	1.214327E-16	NaN
752	1.000000	0.052168	7.37241e+06	-39489.1	1005.82	-29793.5	0.000000	0.000000	6.052740	0.017997	NaN	0.000000	0.001651	0.001714	28.0841	0.042637	0.002050	20.8009	-59.123	12.6366	-0.081702	0.050797	-1.064517	-1.065888	0.017997	20.8009	-1.065166	-1.707007E+14	-1.054297E-16	NaN
752	1.000000	0.062159	7.37241e+06	-39489.1	1005.82	-29793.5	0.000000	0.000000	6.062727	-0.092934	NaN	0.000000	0.001697	0.001689	28.0827	0.162273	0.001996	81.2859	-98.5991	-166.299	-0.077998	0.060942	-1.054526	-1.055743	-0.092934	81.2859	-1.053668	-1.195970E+14	7.770571E-16	NaN
752	1.000000	0.072176	7.37241e+06	-39489.1	1005.82	-29793.5	0.000000	0.000000	6.072745	-0.046702	NaN	0.000000	0.001668	0.001705	28.0826	0.052545	0.002019	26.0222	-144.917	15.254	-0.068943	0.070817	-1.044509	-1.045868	-0.046702	26.0222	-1.043163	-8.639703E+13	5.405466E-16	NaN
752	1.000000	0.082175	7.37241e+06	-39489.1	1005.82	-29793.5	0.000000	0.000000	6.082747	0.022037	NaN	0.000000	0.001675	0.001704	28.0826	0.081405	0.002080	39.1416	-67.9849	-163.702	-0.020597	0.080854	-1.034510	-1.035831	0.022037	39.1416	-1.034932	-6.696032E+13	-3.290998E-16	NaN
752	1.000000	0.092186	7.37241e+06	-39489.1	1005.82	-29793.5	0.000000	0.000000	6.092756	-0.028797	NaN	0.000000	0.001656	0.001667	28.0827	0.053394	0.001856	28.776	-105.147	13.2608	0.007921	0.090859	-1.024499	-1.025826	-0.028797	28.776	-1.023748	-4.735644E+13	6.080809E-16	NaN
752	1.000000	0.102187	7.37241e+06	-39489.1	1005.82	-29793.5	0.000000	0.000000	6.102757	-0.026975	NaN	0.000000	0.001623	0.001721	28.0823	0.074998	0.001918	39.1121	-3.249684	-164.746	0.002458	0.100893	-1.014498	-1.015792	-0.026975	39.1121	-1.013981	-3.499095E+13	7.709106E-16	NaN
752	1.000000	0.112181	7.37241e+06	-39489.1	1005.82	-29793.5	0.000000	0.000000	6.112752	-0.016091	NaN	0.000000	0.001677	0.001728	28.0824	0.107820	0.001958	55.0709	-119.053	12.9349	-0.058084	0.110812	-1.004504	-1.005873	-0.016091	55.0709	-1.004284	-2.590886E+13	6.210707E-16	NaN
752	1.000000	0.122200	7.37241e+06	-39489.1	1005.82	-29793.5	0.000000	0.000000	6.122770	-0.035588	NaN	0.000000	0.001632	0.001699	28.0827	0.105170	0.001913	54.9874	98.2488	-165.732	-0.019492	0.120900	-0.994485	-0.995784	-0.035588	54.9874	-0.994000	-1.883543E+13	1.889403E-15	NaN
752	1.000000	0.132193	7.37241e+06	-39489.1	1005.82	-29793.5	0.000000	0.000000	6.132761	-0.060027	NaN	0.000000	0.001601	0.001678	28.0825	0.001230	0.001979	0.621513	-113.373	15.5688	-0.043013	0.130905	-0.984492	-0.985780	-0.060027	0.621513	-0.912056	-1.478886E+12	4.058911E-14	NaN
752	1.000000	0.142207	7.37241e+06	-39489.1	1005.82	-29793.5	0.000000	0.000000	6.142780	0.052678	NaN	0.000000	0.001593	0.001700	28.0825	0.058209	0.001940	30.0081	72.353	-166.073	-0.011076	0.140865	-0.974478	-0.975820	0.052678	30.0081	-0.975795	-1.070904E+13	-4.918998E-15	NaN
752	1.000000	0.152206	7.37241e+06	-39489.1	1005.82	-29793.5	0.000000	0.000000	6.152776	-0.016294	NaN	0.000000	0.001594	0.001733	28.0829	0.061838	0.002058	30.0435	-167.895	12.8439	-0.019790	0.150875	-0.964479	-0.965810	-0.016294	30.0435	-0.964073	-7.443411E+12	2.189051E-15	NaN
752	1.000000	0.162224	7.37241e+06	-39489.1	1005.82	-29793.5	0.000000	0.000000	6.162793	-0.051214	NaN	0.000000	0.001587	0.001718	28.0828	0.069012	0.001976	34.9209	125.754	-169.337	-0.045626	0.160902	-0.954461	-0.955783	-0.051214	34.9209	-0.953361	-5.337759E+12	9.594715E-15	NaN
752	1.000000	0.172224	7.37241e+06	-39489.1	1005.82	-29793.6	0.000000	0.000000	6.172793	-0.051779	NaN	0.000000	0.001634	0.001722	28.0828	0.085452	0.001942	43.9982	-177.398	11.7243	-0.052334	0.170880	-0.944461	-0.945805	-0.051779	43.9982	-0.943578	-3.939198E+12	1.314444E-14	NaN
752	1.000000	0.182248	7.37241e+06	-39489.1	1005.82	-29793.6	0.000000	0.000000	6.182817	-0.041541	NaN	0.000000	0.001594	0.001687	28.0828	0.095140	0.001912	49.7543	178.003	-165.378	0.080081	0.180926	-0.934437	-0.935759	-0.041541	49.7543	-0.933811	-2.908224E+12	1.428391E-14	NaN
752	1.000000	0.192239	7.37241e+06	-39489.1	1005.82	-29793.6	0.000000	0.000000	6.192812	0.051404	NaN	0.000000	0.001646	0.001693	28.0833	0.107832	0.002130	50.6151	132.313	11.6329	0.006294	0.190894	-0.924446	-0.925791	0.051404	50.6151	-0.925208	-2.225922E+12	-2.309340E-14	NaN
752	1.000000	0.202237	7.37241e+06	-39489.1	1005.82	-29793.6	0.000000	0.000000	6.202808	-0.007768	NaN	0.000000	0.001585	0.001722	28.0842	0.072243	0.001952	37.0108	-166.234	-164.072	-0.096413	0.200954	-0.914448	-0.915731	-0.007768	37.0108	-0.914291	-1.585294E+12	4.900162E-15	NaN
752	1.000000	0.212217	7.37241e+06	-39489.1	1005.82	-29793.6	0.000000	0.000000	6.212787	-0.020343	NaN	0.000000	0.001591	0.001718	28.0843	0.071473	0.001925	37.1269	126.436	15.7721	-0.005913	0.210887	-0.904468	-0.905798	-0.020343	37.1269	-0.904057	-1.153153E+12	1.764086E-14	NaN
752	1.000000	0.222238	7.37241e+06	-39489.1	1005.82	-29793.6	0.000000	0.000000	6.222806	-0.077726	NaN	0.000000	0.001591	0.001724	28.0843	0.031640	0.002071	15.2753	22.5991	-168.999	-0.011562	0.220938	-0.894447	-0.895747	-0.077726	15.2753	-0.890630	-7.593395E+11	1.023600E-13	NaN
752	1.000000	0.232269	7.37241e+06	-39489.1	1005.82	-29793.6	0.000000	0.000000	6.232840	0.005034	NaN	0.000000	0.001605	0.001682	28.0844	0.080284	0.001933	41.528	-9.988587	15.6074	0.032344	0.230923	-0.884416	-0.885762	0.005034	41.528	-0.884507	-6.275574E+11	-8.021124E-15	NaN
752	1.000000	0.242292	7.37241e+06	-39489.1	1005.82	-29793.6	0.000000	0.000000	6.242863	-0.000635	NaN	0.000000	0.001609	0.001672	28.0843	0.044255	0.002094	21.1376	-39.0278	-168.301	-0.008052	0.240946	-0.874393	-0.875739	-0.000635	21.1376	-0.874371	-4.576874E+11	1.388203E-15	NaN
752	1.000000	0.252217	7.37241e+06	-39489.1	1005.82	-29793.6	0.000000	0.000000	6.252788	-0.015223	NaN	0.000000	0.001605	0.001689	28.0844	0.083785	0.002096	39.9753	146.311	10.0991	0.034518	0.250906	-0.864468	-0.865779	-0.015223	39.9753	-0.864182	-3.332125E+11	4.568607E-14	NaN
752	1.000000	0.262267	7.37241e+06	-39489.1	1005.82	-29793.6	0.000000	0.000000	6.262838	0.000341	NaN	0.000000	0.001612	0.001751	28.0846	0.057488	0.001896	30.3212	-84.9554	-166.414	0.033459	0.260989	-0.854418	-0.855696	0.000341	30.3212	-0.854426	-2.458487E+11	-1.385571E-15	NaN
752	1.000000	0.272268	7.37241e+06	-39489.1	1005.82	-29793.6	0.000000	0.000000	6.272837	-0.053348	NaN	0.000000	0.001645	0.001748	28.0846	0.040151	0.001928	20.8218	125.616	12.6611	0.039524	0.270907	-0.844417	-0.845778	-0.053348	20.8218	-0.842496	-1.694734E+11	3.147877E-13	NaN
752	1.000000	0.282269	7.37241e+06	-39489.1	1005.82	-29793.6	0.000000	0.000000	6.282841	0.018707	NaN	0.000000	0.001611	0.001691	28.0843	0.059476	0.002046	29.0702	-130.927	-164.11	-0.045712	0.280945	-0.834416	-0.835740	0.018707	29.0702	-0.834898	-1.337118E+11	-1.399051E-13	NaN
752	1.000000	0.292279	7.37241e+06	-39489.1	1005.82	-29793.6	0.000000	0.000000	6.292846	-0.087270	NaN	0.000000	0.001594	0.001707	28.0841	0.061608	0.001979	31.1256	-61.7146	14.4748	-0.109449	0.290986	-0.824406	-0.825699	-0.087270	31.1256	-0.822303	-9.024980E+10	9.669848E-13	NaN
752	1.000000	0.302275	7.37241e+06	-39489.1	1005.82	-29793.6	0.000000	0.000000	6.302846	-0.022091	NaN	0.000000	0.001596	0.001681	28.0843	0.058965	0.002032	29.0145	17.9707	-164.792	-0.046037	0.300966	-0.814410	-0.815719	-0.022091	29.0145	-0.813838	-6.928588E+10	3.188448E-13	NaN
752	1.000000	0.312277	7.37241e+06	-39489.1	1005.82	-29793.6	0.000000	0.000000	6.312845	-0.078514	NaN	0.000000	0.001598	0.001689	28.0838	0.060902	0.002071	29.4103	69.6273	16.3101	-0.089241	0.310940	-0.804408	-0.805745	-0.078514	29.4103	-0.802406	-4.847507E+10	1.619679E-12	NaN
752	1.000000	0.322254	7.37241e+06	-39489.1	1005.82	-29793.6	0.000000	0.000000	6.322821	-0.100133	NaN	0.000000	0.001581	0.001730	28.0841	0.122496	0.001937	63.2545	67.0174	-165.447	-0.059042	0.321005	-0.794431	-0.795680	-0.100133	63.2545	-0.793243	-3.640228E+10	2.750736E-12	NaN
752	1.000000	0.332307	7.37241e+06	-39489.1	1005.82	-29793.6	0.000000	0.000000	6.332878	0.000833	NaN	0.000000	0.001588	0.001722	28.083	0.092456	0.001946	47.5208	53.7978	14.2043	0.081022	0.330951	-0.784378	-0.785734	0.000833	47.5208	-0.784391	-2.759920E+10	-3.016605E-14	NaN
752	1.000000	0.342298	7.37241e+06	-39489.1	1005.82	-29793.6	0.000000	0.000000	6.342868	-0.021871	NaN	0.000000	0.001571	0.001760	28.0833	0.101714	0.001900	53.5235	119.811	-169.279	0.047932	0.341021	-0.774387	-0.775664	-0.021871	53.5235	-0.774081	-1.998847E+10	1.094191E-12	NaN
752	1.000000	0.352314	7.37241e+06	-39489.1	1005.82	-29793.6	0.000000	0.000000	6.352886	0.007399	NaN	0.000000	0.001606	0.001731	28.083	0.091212	0.002013	45.3155	136.724	12.5048	-0.016459	0.350961	-0.764370	-0.765723	0.007399	45.3155	-0.764493	-1.480529E+10	-4.997236E-13	NaN
752	1.000000	0.362296	7.37241e+06	-39489.1	1005.82	-29793.6	0.000000	0.000000	6.362865	-0.044026	NaN	0.000000	0.001609	0.001738	28.0832	0.152882	0.001912	79.9451	-137.868	-167.835	0.045434	0.360966	-0.754389	-0.755719	-0.044026	79.9451	-0.753976	-1.064969E+10	4.134003E-12	NaN
752	1.000000	0.372296	7.37241e+06	-39489.1	1005.82	-29793.6	0.000000	0.000000	6.372867	-0.003212	NaN	0.000000	0.001569	0.001704	28.0832	0.048220	0.001951	24.7178	-116.324	11.0951	0.003284	0.370983	-0.744389	-0.745702	-0.003212	24.7178	-0.744291	-7.861420E+9	4.085443E-13	NaN
752	1.000000	0.382309	7.37241e+06	-39489.1	1005.82	-29793.6	0.000000	0.000000	6.382880	-0.011699	NaN	0.000000	0.001547	0.001681	28.0834	0.130691	0.002091	62.4887	39.2856	-167.703	-0.050474	0.381004	-0.734376	-0.735681	-0.011699	62.4887	-0.734235	-5.734853E+9	2.039958E-12	NaN
752	1.000000	0.392332	7.37241e+06	-39489.1	1005.82	-29793.6	0.000000	0.000000	6.392903	-0.009579	NaN	0.000000	0.001613	0.001732	28.0833	0.095159	0.002068	46.0224	98.9608	16.4441	0.023932	0.390978	-0.724353	-0.725707	-0.009579	46.0224	-0.724197	-4.185052E+9	2.288929E-12	NaN
752	1.000000	0.402331	7.37241e+06	-39489.1	1005.82	-29793.6	0.000000	0.000000	6.402902	-0.021749	NaN	0.000000	0.001594	0.001715	28.0834	0.024221	0.002062	11.7441	-167.322	-165.294	0.002392	0.401028	-0.714354	-0.715657	-0.021749	11.7441	-0.712965	-2.941048E+9	7.395126E-12	NaN
752	1.000000	0.412348	7.37241e+06	-39489.1	1005.82	-29793.6	0.000000	0.000000	6.412916	-0.085529	NaN	0.000000	0.001561	0.001703	28.0836	0.122409	0.001944	62.9658	167.448	10.1272	-0.091951	0.411008	-0.704337	-0.705677	-0.085529	62.9658	-0.703318	-2.171886E+9	3.938017E-11	NaN
752	1.000000	0.422333	7.37241e+06	-39489.1	1005.82	-29793.6	0.000000	0.000000	6.422903	-0.018447	NaN	0.000000	0.001546	0.001709	28.0834	0.086805	0.001919	45.2271	168.851	-165.416	0.045984	0.421047	-0.694352	-0.695638	-0.018447	45.2271	-0.694046	-1.622578E+9	1.136898E-11	NaN
752	1.000000	0.432362	7.37241e+06	-39489.1	1005.82	-29793.6	0.000000	0.000000	6.432929	-0.084795	NaN	0.000000	0.001604	0.001715	28.0833	0.051598	0.001840	28.0369	119.197	11.2362	-0.104723	0.430983	-0.684323	-0.685702	-0.084795	28.0369	-0.682055	-1.112523E+9	7.621824E-11	NaN
752	1.000000	0.442336	7.37241e+06	-39489.1	1005.82	-29793.6	0.000000	0.000000	6.442904	-0.077083	NaN	0.000000	0.001603	0.001699	28.0834	0.083252	0.001955	42.5868	-116.044	-166.478	-0.078537	0.441032	-0.674349	-0.675653	-0.077083	42.5868	-0.672991	-8.362328E+8	9.217839E-11	NaN
752	1.000000	0.452341	7.37241e+06	-39489.1	1005.82	-29793.6	0.000000	0.000000	6.452910	-0.056173	NaN	0.000000	0.001598	0.001678	28.0833	0.064951	0.002092	31.0404	103.7	14.7321	-0.045941	0.451033	-0.664344	-0.665652	-0.056173	31.0404	-0.662986	-6.100569E+8	9.207812E-11	NaN
752	1.000000	0.462326	7.37241e+06	-39489.1	1005.82	-29793.6	0.000000	0.000000	6.462895	-0.045346	NaN	0.000000	0.001600	0.001724	28.0832	0.065959	0.002100	31.4104	80.9991	-163.885	-0.007021	0.461028	-0.654359	-0.655656	-0.045346	31.4104	-0.653276	-4.491025E+8	1.009710E-10	NaN
752	1.000000	0.472360	7.37241e+06	-39489.1	1005.82	-29793.6	0.000000	0.000000	6.472928	-0.066392	NaN	0.000000	0.001602	0.001688	28.0846	0.050559	0.002044	24.7378	-149.528	11.8055	-0.063300	0.471060	-0.644325	-0.645625	-0.066392	24.7378	-0.642312	-3.176972E+8	2.089780E-10	NaN
752	1.000000	0.482343	7.37241e+06	-39489.1	1005.82	-29793.6	0.000000	0.000000	6.482915	0.021141	NaN	0.000000	0.001599	0.001676	28.0846	0.046636	0.001993	23.4056	64.0655	-169.565	0.049758	0.481040	-0.634342	-0.635645	0.021141	23.4056	-0.635019	-2.523114E+8	-8.378926E-11	NaN
752	1.000000	0.492349	7.37241e+06	-39489.1	1005.82	-29793.6	0.000000	0.000000	6.492917	-0.078875	NaN	0.000000	0.001591	0.001674	28.0844	0.032552	0.001810	17.9845	-43.879	11.885	-0.048504	0.491050	-0.624336	-0.625635	-0.078875	17.9845	-0.621046	-1.621861E+8	4.863264E-10	NaN
752	1.000000	0.502389	7.37241e+06	-39489.1	1005.82	-29793.6	0.000000	0.000000	6.502957	-0.072152	NaN	0.000000	0.001585	0.001684	28.0844	0.073931	0.001989	37.179	-35.4957	-166.219	-0.084399	0.501104	-0.614296	-0.615581	-0.072152	37.179	-0.612841	-1.250820E+8	5.768402E-10	NaN
752	1.000000	0.512375	7.37241e+06	-39489.1	1005.82	-29793.6	0.000000	0.000000	6.512943	-0.069762	NaN	0.000000	0.001597	0.001688	28.0845	0.080063	0.001916	41.7928	-98.4974	11.4522	-0.150768	0.510999	-0.604310	-0.605686	-0.069762	41.7928	-0.603058	-9.174350E+7	7.603983E-10	NaN
752	1.000000	0.522340	7.37241e+06	-39489.1	1005.82	-29793.6	0.000000	0.000000	6.522912	0.010496	NaN	0.000000	0.001590	0.001691	28.0846	0.084885	0.001965	43.1997	-154.287	-163.896	-0.025259	0.521096	-0.594345	-0.595589	0.010496	43.1997	-0.594527	-6.999482E+7	-1.499513E-10	NaN
752	1.000000	0.532374	7.37241e+06	-39489.1	1005.82	-29793.6	0.000000	0.000000	6.532945	0.000650	NaN	0.000000	0.001550	0.001705	28.0846	0.044312	0.001963	22.572	-81.0084	12.7899	0.006660	0.531040	-0.584311	-0.585645	0.000650	22.572	-0.584332	-5.064147E+7	-1.283806E-11	NaN
752	1.000000	0.542378	7.37241e+06	-39489.1	1005.82	-29793.6	0.000000	0.000000	6.542944	-0.133133	NaN	0.000000	0.001556	0.001714	28.0844	0.041649	0.001977	21.0706	-30.9008	-166.184	0.020237	0.541104	-0.574307	-0.575581	-0.133133	21.0706	-0.569568	-3.167083E+7	4.203635E-9	NaN
752	1.000000	0.552389	7.37241e+06	-39489.1	1005.82	-29793.6	0.000000	0.000000	6.552958	-0.049647	NaN	0.000000	0.001608	0.001649	28.0846	0.039518	0.001778	22.221	-122.728	12.5002	-0.028417	0.551010	-0.564296	-0.565675	-0.049647	22.221	-0.562620	-2.538755E+7	1.955564E-9	NaN
752	1.000000	0.562407	7.37241e+06	-39489.1	1005.82	-29793.6	0.000000	0.000000	6.562979	0.025591	NaN	0.000000	0.001604	0.001682	28.0845	0.190286	0.002217	85.8433	-113.858	-165.38	0.037985	0.561095	-0.554278	-0.555590	0.025591	85.8433	-0.554502	-1.960167E+7	-1.305551E-9	NaN
752	1.000000	0.572383	7.37241e+06	-39489.1	1005.82	-29793.6	0.000000	0.000000	6.572954	-0.011787	NaN	0.000000	0.001580	0.001703	28.0844	0.065085	0.002211	29.4437	116.546	12.3752	-0.001284	0.571031	-0.544302	-0.545654	-0.011787	29.4437	-0.544002	-1.402305E+7	8.405157E-10	NaN
752	1.000000	0.582382	7.37241e+06	-39489.1	1005.82	-29793.6	0.000000	0.000000	6.582954	0.006670	NaN	0.000000	0.001577	0.001674	28.0844	0.031187	0.002099	14.8577	-80.9056	-163.141	0.040804	0.581119	-0.534303	-0.535566	0.006670	14.8577	-0.534639	-1.039878E+7	-6.413977E-10	NaN
752	1.000000	0.592399	7.37241e+06	-39489.1	1005.82	-29793.6	0.000000	0.000000	6.592967	-0.082231	NaN	0.000000	0.001611	0.001688	28.0845	0.043864	0.002109	20.797	-140.98	15.0777	-0.106281	0.591057	-0.524285	-0.525628	-0.082231	20.797	-0.521320	-6.79132e+06	1.210823E-8	NaN
752	1.000000	0.602415	7.37241e+06	-39489.1	1005.82	-29793.6	0.000000	0.000000	6.602985	-0.052023	NaN	0.000000	0.001590	0.001716	28.0844	0.074343	0.001986	37.4349	103.835	-166.878	-0.067894	0.601159	-0.514269	-0.515526	-0.052023	37.4349	-0.513227	-5.24029e+06	9.927545E-9	NaN
752	1.000000	0.612434	7.37241e+06	-39489.1	1005.82	-29793.6	0.000000	0.000000	6.613001	-0.105066	NaN	0.000000	0.001576	0.001743	28.0835	0.125000	0.001772	70.5237	14.7321	14.8225	-0.041469	0.611021	-0.504250	-0.505664	-0.105066	70.5237	-0.503133	-3.79068e+06	2.771693E-8	NaN
752	1.000000	0.622441	7.37241e+06	-39489.1	1005.82	-29793.6	0.000000	0.000000	6.623008	-0.104780	NaN	0.000000	0.001575	0.001727	28.0833	0.070307	0.001936	36.318	-171.85	-162.918	-0.059708	0.621138	-0.494244	-0.495547	-0.104780	36.318	-0.492080	-2.65739e+06	3.942960E-8	NaN
752	1.000000	0.632447	7.37241e+06	-39489.1	1005.82	-29793.6	0.000000	0.000000	6.633017	-0.030788	NaN	0.000000	0.001594	0.001712	28.0834	0.078380	0.001911	41.0201	-165.61	12.7178	-0.039248	0.631115	-0.484238	-0.485570	-0.030788	41.0201	-0.483675	-2.02747e+06	1.518546E-8	NaN
752	1.000000	0.642415	7.37241e+06	-39489.1	1005.82	-29793.6	0.000000	0.000000	6.642984	-0.051751	NaN	0.000000	0.001554	0.001716	28.083	0.056725	0.002096	27.066	88.2669	-167.059	-0.104480	0.641091	-0.474270	-0.475593	-0.051751	27.066	-0.472836	-1.42947e+06	3.620287E-8	NaN
752	1.000000	0.652406	7.37241e+06	-39489.1	1005.82	-29793.6	0.000000	0.000000	6.652977	0.001910	NaN	0.000000	0.001590	0.001733	28.0833	0.080853	0.002074	38.9867	-99.2025	11.6814	0.044243	0.651078	-0.464279	-0.465607	0.001910	38.9867	-0.464316	-1.08552e+06	-1.759258E-9	NaN
752	1.000000	0.662412	7.37241e+06	-39489.1	1005.82	-29793.6	0.000000	0.000000	6.662983	-0.016917	NaN	0.000000	0.001555	0.001698	28.0831	0.110542	0.002066	53.5017	-59.115	-163.922	-0.021740	0.661132	-0.454273	-0.455553	-0.016917	53.5017	-0.454036	-778308	2.173507E-8	NaN
752	1.000000	0.672473	7.37241e+06	-39489.1	1005.82	-29793.6	0.000000	0.000000	6.673044	-0.026166	NaN	0.000000	0.001563	0.001709	28.0833	0.028928	0.001994	14.5047	22.0451	13.8126	-0.021934	0.671019	-0.444211	-0.445666	-0.026166	14.5047	-0.442859	-541621	4.830981E-8	NaN
752	1.000000	0.682455	7.37241e+06	-39489.1	1005.82	-29793.6	0.000000	0.000000	6.683022	-0.093195	NaN	0.000000	0.001595	0.001723	28.0828	0.049807	0.001957	25.455	25.8328	-166.04	-0.099546	0.681146	-0.434230	-0.435539	-0.093195	25.455	-0.431484	-374160	2.490769E-7	NaN
752	1.000000	0.692443	7.37241e+06	-39489.1	1005.82	-29793.6	0.000000	0.000000	6.693010	-0.091746	NaN	0.000000	0.001595	0.001711	28.083	0.014340	0.002116	6.776447	-70.1027	10.1485	-0.060374	0.691070	-0.424242	-0.425615	-0.091746	6.776447	-0.414088	-212082	4.325978E-7	NaN
752	1.000000	0.702447	7.37241e+06	-39489.1	1005.82	-29793.6	0.000000	0.000000	6.703017	-0.044409	NaN	0.000000	0.001594	0.001728	28.0826	0.064335	0.002003	32.1151	160.961	-162.851	-0.117477	0.701113	-0.414237	-0.415571	-0.044409	32.1151	-0.413200	-206012	2.155646E-7	NaN
752	1.000000	0.712444	7.37241e+06	-39489.1	1005.82	-29793.6	0.000000	0.000000	6.713012	-0.094985	NaN	0.000000	0.001568	0.001659	28.0831	0.102720	0.001961	52.385	64.4419	12.986	-0.084246	0.711117	-0.404241	-0.405568	-0.094985	52.385	-0.402881	-146913	6.465405E-7	NaN
752	1.000000	0.722462	7.37241e+06	-39489.1	1005.82	-29793.6	0.000000	0.000000	6.723032	-0.013903	NaN	0.000000	0.001553	0.001663	28.0827	0.052081	0.002039	25.5451	-21.0468	-166.745	-0.034258	0.721159	-0.394223	-0.395525	-0.013903	25.5451	-0.393815	-109070	1.274709E-7	NaN
752	1.000000	0.732456	7.37241e+06	-39489.1	1005.82	-29793.6	0.000000	0.000000	6.733027	-0.011371	NaN	0.000000	0.001585	0.001735	28.0828	0.102732	0.002195	46.798	131.619	13.7384	-0.087658	0.731051	-0.384229	-0.385634	-0.011371	46.798	-0.384047	-79054.9	1.438396E-7	NaN
752	1.000000	0.742446	7.37241e+06	-39489.1	1005.82	-29793.6	0.000000	0.000000	6.743017	-0.004272	NaN	0.000000	0.001610	0.001668	28.0841	0.094816	0.002069	45.8343	38.6241	-168.695	-0.030852	0.741190	-0.374239	-0.375495	-0.004272	45.8343	-0.374169	-57031.9	7.491010E-8	NaN
752	1.000000	0.752498	7.37241e+06	-39489.1	1005.82	-29793.6	0.000000	0.000000	6.753071	0.034843	NaN	0.000000	0.001588	0.001689	28.0841	0.065717	0.002030	32.3796	116.073	12.8759	0.027542	0.751120	-0.364186	-0.365565	0.034843	32.3796	-0.364993	-42068.8	-8.282309E-7	NaN
752	1.000000	0.762442	7.37241e+06	-39489.1	1005.82	-29793.6	0.000000	0.000000	6.763011	-0.061302	NaN	0.000000	0.001569	0.001710	28.084	0.075434	0.002068	36.4777	160.847	-165.56	-0.062478	0.761207	-0.354243	-0.355478	-0.061302	36.4777	-0.352983	-28200.9	2.173774E-6	NaN
752	1.000000	0.772488	7.37241e+06	-39489.1	1005.82	-29793.6	0.000000	0.000000	6.773055	-0.096998	NaN	0.000000	0.001612	0.001698	28.084	0.125612	0.002012	62.4351	117.479	14.399	-0.047054	0.771111	-0.344197	-0.345574	-0.096998	62.4351	-0.343032	-20217.2	4.797825E-6	NaN
752	1.000000	0.782451	7.37241e+06	-39489.1	1005.82	-29793.6	0.000000	0.000000	6.783020	-0.052153	NaN	0.000000	0.001601	0.001682	28.0845	0.062804	0.002043	30.7383	-171.675	-164.042	-0.062422	0.781191	-0.334234	-0.335494	-0.052153	30.7383	-0.332962	-14414.3	3.618159E-6	NaN
752	1.000000	0.792460	7.37241e+06	-39489.1	1005.82	-29793.6	0.000000	0.000000	6.793030	-0.027579	NaN	0.000000	0.001597	0.001682	28.0842	0.076856	0.001926	39.9003	-24.9573	13.421	-0.005866	0.791116	-0.324225	-0.325569	-0.027579	39.9003	-0.323706	-10547.3	2.614804E-6	NaN
752	1.000000	0.802527	7.37241e+06	-39489.1	1005.82	-29793.6	0.000000	0.000000	6.803095	-0.061100	NaN	0.000000	0.001628	0.001705	28.0841	0.087669	0.002165	40.499	-34.9647	-167.601	-0.086011	0.801144	-0.314158	-0.315541	-0.061100	40.499	-0.313027	-7341.96	8.322007E-6	NaN
752	1.000000	0.812489	7.37241e+06	-39489.1	1005.82	-29793.6	0.000000	0.000000	6.813060	-0.000989	NaN	0.000000	0.001592	0.001683	28.0843	0.120166	0.002080	57.768	131.249	13.292	0.021093	0.811108	-0.304196	-0.305577	-0.000989	57.768	-0.304183	-5430.33	1.821808E-7	NaN
752	1.000000	0.822496	7.37241e+06	-39489.1	1005.82	-29793.6	0.000000	0.000000	6.823066	-0.019421	NaN	0.000000	0.001569	0.001768	28.0844	0.072628	0.001982	36.6497	123.991	-168.443	-0.071758	0.821194	-0.294189	-0.295491	-0.019421	36.6497	-0.293792	-3802.24	5.107746E-6	NaN
752	1.000000	0.832510	7.37241e+06	-39489.1	1005.82	-29793.6	0.000000	0.000000	6.833077	-0.095314	NaN	0.000000	0.001604	0.001735	28.0841	0.055841	0.002022	27.6176	174.145	12.0453	-0.051650	0.831139	-0.284175	-0.285546	-0.095314	27.6176	-0.281586	-2493.96	3.821778E-5	NaN
752	1.000000	0.842495	7.37241e+06	-39489.1	1005.82	-29793.6	0.000000	0.000000	6.843067	0.019373	NaN	0.000000	0.001590	0.001704	28.0843	0.097971	0.001999	49.0062	155.141	-166.729	-0.081387	0.841208	-0.274190	-0.275477	0.019373	49.0062	-0.274486	-1948.14	-9.944512E-6	NaN
752	1.000000	0.852542	7.37241e+06	-39489.1	1005.82	-29793.6	0.000000	0.000000	6.853111	-0.067738	NaN	0.000000	0.001627	0.001711	28.0844	0.088114	0.001961	44.938	-156.312	10.2908	-0.079089	0.851181	-0.264143	-0.265504	-0.067738	44.938	-0.263012	-1303.24	5.197708E-5	NaN
752	1.000000	0.862538	7.37241e+06	-39489.1	1005.82	-29793.6	0.000000	0.000000	6.863109	-1.956175E-6	NaN	0.000000	0.001625	0.001771	28.0841	0.047167	0.001994	23.6585	-179.002	-168.282	0.037316	0.861220	-0.254147	-0.255465	-1.956175E-6	23.6585	-0.254147	-952.743	2.053204E-9	NaN
752	1.000000	0.872507	7.37241e+06	-39489.1	1005.82	-29793.6	0.000000	0.000000	6.873077	-0.031496	NaN	0.000000	0.001611	0.001673	28.0841	0.070300	0.002041	34.4462	150.514	12.4829	0.005523	0.871180	-0.244178	-0.245505	-0.031496	34.4462	-0.243493	-651.639	4.833412E-5	NaN
752	1.000000	0.882541	7.37241e+06	-39489.1	1005.82	-29793.6	0.000000	0.000000	6.883111	-0.027462	NaN	0.000000	0.001630	0.001686	28.0831	0.075804	0.002061	36.7737	44.6221	-165.873	-0.020728	0.881237	-0.234144	-0.235448	-0.027462	36.7737	-0.233584	-456.028	6.021913E-5	NaN
752	1.000000	0.892541	7.37241e+06	-39489.1	1005.82	-29793.6	0.000000	0.000000	6.893111	-0.029550	NaN	0.000000	0.001586	0.001690	28.0831	0.099498	0.002065	48.1838	175.794	13.9339	-0.055441	0.891201	-0.224144	-0.225484	-0.029550	48.1838	-0.223684	-317.995	9.292458E-5	NaN
752	1.000000	0.902535	7.37241e+06	-39489.1	1005.82	-29793.6	0.000000	0.000000	6.903103	-0.067061	NaN	0.000000	0.001587	0.001691	28.0832	0.030525	0.002056	14.849	126.831	-167.25	-0.031577	0.901254	-0.214150	-0.215431	-0.067061	14.849	-0.210763	-197.32	0.000340	NaN
752	1.000000	0.912552	7.37241e+06	-39489.1	1005.82	-29793.6	0.000000	0.000000	6.913124	0.019258	NaN	0.000000	0.001605	0.001722	28.083	0.096698	0.001967	49.1604	93.8161	12.6827	0.051934	0.911203	-0.204133	-0.205482	0.019258	49.1604	-0.204426	-155.668	-0.000124	NaN
752	1.000000	0.922547	7.37241e+06	-39489.1	1005.82	-29793.6	0.000000	0.000000	6.923117	-0.036661	NaN	0.000000	0.001574	0.001709	28.0831	0.063716	0.002058	30.9602	103.154	-169.105	-0.003740	0.921290	-0.194138	-0.195395	-0.036661	30.9602	-0.193250	-101.898	0.000360	NaN
752	1.000000	0.932569	7.37241e+06	-39489.1	1005.82	-29793.6	0.000000	0.000000	6.933136	-0.101300	NaN	0.000000	0.001590	0.001740	28.0831	0.051336	0.002063	24.8891	-138.575	15.4241	-0.140926	0.931232	-0.184116	-0.185453	-0.101300	24.8891	-0.181063	-63.6116	0.001592	NaN
752	1.000000	0.942577	7.37241e+06	-39489.1	1005.82	-29793.6	0.000000	0.000000	6.943145	-0.072793	NaN	0.000000	0.001596	0.001703	28.0832	0.086647	0.001912	45.3116	-103.793	-165.276	-0.060855	0.941248	-0.174108	-0.175436	-0.072793	45.3116	-0.172903	-46.1185	0.001578	NaN
752	1.000000	0.952552	7.37241e+06	-39489.1	1005.82	-29793.6	0.000000	0.000000	6.953121	-0.063106	NaN	0.000000	0.001550	0.001656	28.083	0.109734	0.001928	56.9233	149.056	14.7699	-0.017284	0.951216	-0.164132	-0.165469	-0.063106	56.9233	-0.163301	-31.3625	0.002012	NaN
752	1.000000	0.962556	7.37241e+06	-39489.1	1005.82	-29793.6	0.000000	0.000000	6.963126	-0.022579	NaN	0.000000	0.001615	0.001730	28.0833	0.074158	0.002089	35.5005	-12.549	-168.283	0.061114	0.961266	-0.154129	-0.155419	-0.022579	35.5005	-0.153652	-21.1002	0.001070	NaN
752	1.000000	0.972538	7.37241e+06	-39489.1	1005.82	-29793.6	0.000000	0.000000	6.973107	-0.051570	NaN	0.000000	0.001599	0.001732	28.0832	0.074931	0.002073	36.1534	-13.0621	15.966	-0.070648	0.971245	-0.144147	-0.145440	-0.051570	36.1534	-0.143077	-13.5047	0.003819	NaN
752	1.000000	0.982585	7.37241e+06	-39489.1	1005.82	-29793.6	0.000000	0.000000	6.983152	-0.117480	NaN	0.000000	0.001601	0.001705	28.0834	0.061566	0.002033	30.2794	144.454	-166.377	-0.132836	0.981227	-0.134100	-0.135458	-0.117480	30.2794	-0.131190	-8.036569	0.014618	NaN
752	1.000000	0.992579	7.37241e+06	-39489.1	1005.82	-29793.6	0.000000	0.000000	6.993150	-0.000278	NaN	0.000000	0.001612	0.001729	28.0827	0.062980	0.001999	31.5103	159.499	10.7411	0.025921	0.991181	-0.124106	-0.125504	-0.000278	31.5103	-0.124099	-5.836387	4.762641E-5	NaN
752	1.000000	1.002589	7.37241e+06	-39489.1	1005.82	-29793.6	0.000000	0.000000	7.003160	-0.003236	NaN	0.000000	0.001622	0.001695	28.0833	0.063984	0.002034	31.4628	-38.7334	-168.453	-0.048823	1.001229	-0.114096	-0.115456	-0.003236	31.4628	-0.114018	-3.646080	0.000888	NaN
752	1.000000	1.012605	7.37241e+06	-39489.1	1005.82	-29793.6	0.000000	0.000000	7.013173	-0.080569	NaN	0.000000	0.001663	0.001704	28.0831	0.059558	0.001928	30.8912	179.553	11.3719	0.014353	1.011167	-0.104080	-0.105518	-0.080569	30.8912	-0.102124	-2.035123	0.039589	NaN
752	1.000000	1.022567	7.37241e+06	-39489.1	1005.82	-29793.6	0.000000	0.000000	7.023136	-0.057851	NaN	0.000000	0.001642	0.001696	28.0841	0.116965	0.002090	55.9558	-42.966	-167.755	-0.104788	1.021243	-0.094118	-0.095442	-0.057851	55.9558	-0.093342	-1.292607	0.044755	NaN
752	1.000000	1.032594	7.37241e+06	-39489.1	1005.82	-29793.6	0.000000	0.000000	7.033163	-0.062176	NaN	0.000000	0.001604	0.001692	28.0842	0.071267	0.001821	39.1272	45.0296	13.0527	-0.021655	1.031208	-0.084091	-0.085477	-0.062176	39.1272	-0.082899	-0.730273	0.085141	NaN
752	1.000000	1.042602	7.37241e+06	-39489.1	1005.82	-29793.6	0.000000	0.000000	7.043174	0.027201	NaN	0.000000	0.001665	0.001669	28.0843	0.070202	0.002207	31.8074	-123.975	-165.44	0.062363	1.041305	-0.074083	-0.075379	0.027201	31.8074	-0.074725	-0.454349	-0.059869	NaN
752	1.000000	1.052597	7.37241e+06	-39489.1	1005.82	-29793.6	0.000000	0.000000	7.053167	-0.047435	NaN	0.000000	0.001686	0.001669	28.084	0.023134	0.002144	10.7907	96.5622	15.8445	-0.083084	1.051208	-0.064088	-0.065477	-0.047435	10.7907	-0.060791	-0.189723	0.250021	NaN
752	1.000000	1.062577	7.37241e+06	-39489.1	1005.82	-29793.6	0.000000	0.000000	7.063145	-0.073117	NaN	0.000000	0.001670	0.001656	28.0842	0.117878	0.001940	60.7621	103.161	-164.531	-0.065555	1.061346	-0.054108	-0.055338	-0.073117	60.7621	-0.053205	-0.113906	0.641905	NaN
752	1.000000	1.072595	7.37241e+06	-39489.1	1005.82	-29793.6	0.000000	0.000000	7.073165	-0.013432	NaN	0.000000	0.001705	0.001620	28.0838	0.091613	0.001992	45.9815	33.9167	13.9926	-0.057596	1.071223	-0.044090	-0.045462	-0.013432	45.9815	-0.043871	-0.059357	0.226286	NaN
752	1.000000	1.082564	7.37241e+06	-39489.1	1005.82	-29793.6	0.000000	0.000000	7.083133	-0.051768	NaN	0.000000	0.001672	0.001650	28.0842	0.116352	0.002096	55.5194	124.288	-167.672	-0.055807	1.081316	-0.034121	-0.035369	-0.051768	55.5194	-0.033422	-0.028797	1.797692	NaN
752	1.000000	1.092613	7.37241e+06	-39489.1	1005.82	-29793.6	0.000000	0.000000	7.093182	-0.069862	NaN	0.000000	0.001686	0.001663	28.0841	0.072715	0.002030	35.8172	92.9832	15.5942	0.030434	1.091228	-0.024072	-0.025457	-0.069862	35.8172	-0.022609	-0.014635	4.773581	NaN
752	1.000000	1.102617	7.37241e+06	-39489.1	1005.82	-29793.6	0.000000	0.000000	7.103186	-0.041726	NaN	0.000000	0.001679	0.001670	28.0843	0.087161	0.001983	43.9501	-175.946	-167.629	-0.009753	1.101294	-0.014068	-0.015391	-0.041726	43.9501	-0.013356	-0.008308	5.022323	NaN
752	1.000000	1.112612	7.37241e+06	-39489.1	1005.82	-29793.6	0.000000	0.000000	7.113179	-0.098348	NaN	0.000000	0.001646	0.001686	28.0844	0.053019	0.001936	27.3914	-18.8253	10.9446	-0.176630	1.111248	-0.004073	-0.005437	-0.098348	27.3914	-0.001380	-0.001005	97.8755	NaN
752	1.000000	1.122493	7.37241e+06	-39489.1	1005.82	-29793.6	0.000000	0.000000	7.123370	7.444320	NaN	0.000000	0.001665	0.001707	28.0841	7.140882	0.001621	4405.32	10.6528	-172.054	5.714578	1.121291	0.005808	0.004606	7.444320	4405.32	0.004541	0.003718	2002.18	66007.1
752	2.000000	1.125779	7.37241e+06	-39489.1	1005.82	-29793.6	0.000000	0.000000	7.126836	11.8284	NaN	0.000000	0.001713	0.001715	28.0842	10.759	0.001740	6182.92	7.104359	6.522209	11.2187	1.125402	0.009094	0.008718	11.8284	6182.92	0.007659	0.006694	1767.03	69044
752	2.000000	1.128212	7.37241e+06	-39489.1	1005.82	-29793.6	0.000000	0.000000	7.129415	15.3803	NaN	0.000000	0.001656	0.001697	28.0841	13.3572	0.001661	8040.44	3.873735	-172.942	14.7816	1.127864	0.011527	0.011179	15.3803	8040.44	0.010092	0.009284	1656.68	76241.1
752	2.000000	1.130681	7.37241e+06	-39489.1	1005.82	-29793.6	0.000000	0.000000	7.132143	21.6849	NaN	0.000000	0.001697	0.001681	28.0831	16.2355	0.001705	9522.34	7.546047	2.262356	20.7918	1.130350	0.013996	0.013665	21.6849	9522.34	0.012288	0.011837	1831.97	79964.5
752	2.000000	1.133203	7.37242e+06	-39489.1	1005.82	-29793.6	0.000000	0.000000	7.134832	25.7356	NaN	0.000000	0.001650	0.001688	28.0828	19.2829	0.001726	11171	6.088556	-178.02	25.1503	1.132860	0.016519	0.016175	25.7356	11171	0.014791	0.015007	1714.87	83313.1
752	2.000000	1.135694	7.37242e+06	-39489.1	1005.82	-29793.6	0.000000	0.000000	7.137683	34.5069	NaN	0.000000	0.001670	0.001696	28.0832	21.8083	0.001820	11981.1	5.491549	2.353460	32.6577	1.135305	0.019009	0.018620	34.5069	11981.1	0.016849	0.017830	1935.29	81976.6
752	2.000000	1.138142	7.37242e+06	-39489.1	1005.82	-29793.6	0.000000	0.000000	7.140321	39.1108	NaN	0.000000	0.001683	0.001724	28.083	23.8252	0.001773	13438.6	5.412384	-179.134	37.8563	1.137894	0.021457	0.021209	39.1108	13438.6	0.019275	0.021415	1826.29	83900.4
752	2.000000	1.140695	7.37242e+06	-39489.1	1005.82	-29793.6	0.000000	0.000000	7.143216	47.4545	NaN	0.000000	0.001661	0.001699	28.083	26.3556	0.001704	15468.7	5.421282	-1.013030	46.975	1.140377	0.024010	0.023692	47.4545	15468.7	0.021709	0.025300	1875.67	88852.1
752	2.000000	1.143152	7.37242e+06	-39489.1	1005.82	-29793.6	0.000000	0.000000	7.146109	58.0696	NaN	0.000000	0.001677	0.001696	28.0829	29.619	0.001689	17531.6	6.808573	176.127	55.5328	1.142869	0.026467	0.026184	58.0696	17531.6	0.023983	0.029191	1989.3	93749.6
752	2.000000	1.145692	7.37242e+06	-39489.1	1005.82	-29793.6	0.000000	0.000000	7.148991	66.3755	NaN	0.000000	0.001646	0.001650	28.0828	31.1444	0.001685	18480.1	3.749203	0.697866	64.5962	1.145315	0.029007	0.028630	66.3755	18480.1	0.026314	0.033449	1984.38	92317.9
752	2.000000	1.148096	7.37242e+06	-39489.1	1005.82	-29793.6	0.000000	0.000000	7.151659	72.8013	NaN	0.000000	0.001661	0.001672	28.0829	35.3953	0.001863	19001.2	5.411905	177.709	69.8246	1.147912	0.031411	0.031227	72.8013	19001.2	0.028538	0.037767	1927.62	89329.9
752	2.000000	1.150603	7.37242e+06	-39489.1	1005.82	-29793.6	0.000000	0.000000	7.154677	85.2407	NaN	0.000000	0.001639	0.001718	28.0828	38.1478	0.001887	20215.6	3.871327	-1.237995	81.415	1.150277	0.033918	0.033592	85.2407	20215.6	0.030756	0.042324	2013.99	89777.1
752	2.000000	1.153174	7.37242e+06	-39489.1	1005.82	-29793.6	0.000000	0.000000	7.157733	97.0511	NaN	0.000000	0.001650	0.001656	28.0826	40.0808	0.001730	23167.4	3.241430	178.185	98.1022	1.152803	0.036489	0.036118	97.0511	23167.4	0.033347	0.047967	2023.27	96644.5
752	2.000000	1.155647	7.37242e+06	-39489.1	1005.82	-29793.6	0.000000	0.000000	7.160735	109.901	NaN	0.000000	0.001683	0.001755	28.0834	43.3734	0.001857	23355.8	11.394	-8.172602	111.207	1.155223	0.038962	0.038538	109.901	23355.8	0.035433	0.052759	2083.08	92900.6
752	2.000000	1.158177	7.37242e+06	-39489.1	1005.82	-29793.6	0.000000	0.000000	7.163728	121.189	NaN	0.000000	0.001683	0.001691	28.0828	44.7819	0.001814	24683.3	6.730713	175.435	122.961	1.157760	0.041492	0.041075	121.189	24683.3	0.037810	0.058491	2071.94	93246.6
752	2.000000	1.160647	7.37242e+06	-39489.1	1005.82	-29793.6	0.000000	0.000000	7.166673	132.755	NaN	0.000000	0.001693	0.001674	28.0832	47.9531	0.001898	25268.5	5.446060	-4.613616	130.122	1.160264	0.043962	0.043579	132.755	25268.5	0.040022	0.064084	2071.57	91196.3
752	2.000000	1.163113	7.37242e+06	-39489.1	1005.82	-29793.6	0.000000	0.000000	7.169600	143.946	NaN	0.000000	0.001659	0.001699	28.0829	49.218	0.001719	28634.9	3.587446	176.118	141.739	1.162873	0.046428	0.046188	143.946	28634.9	0.042658	0.071078	2025.19	98129.9
752	2.000000	1.165553	7.37242e+06	-39489.1	1005.82	-29793.6	0.000000	0.000000	7.172802	162.491	NaN	0.000000	0.001625	0.001668	28.0845	50.4666	0.001744	28944.7	2.104620	-1.267553	157.294	1.165191	0.048868	0.048506	162.491	28944.7	0.044658	0.076619	2120.76	95537.5
752	2.000000	1.168049	7.37242e+06	-39489.1	1005.82	-29793.6	0.000000	0.000000	7.175875	176.555	NaN	0.000000	0.001589	0.001664	28.084	53.319	0.001732	30782.3	4.098227	175.166	172.79	1.167838	0.051364	0.051153	176.555	30782.3	0.047062	0.083550	2113.17	97297.5
752	2.000000	1.170532	7.37242e+06	-39489.1	1005.82	-29793.6	0.000000	0.000000	7.178923	190.298	NaN	0.000000	0.001601	0.001683	28.0844	56.6151	0.001807	31339.5	7.861321	-8.464214	184.423	1.170121	0.053847	0.053436	190.298	31339.5	0.049293	0.090240	2108.8	95316.1
752	2.000000	1.173103	7.37242e+06	-39489.1	1005.82	-29793.6	0.000000	0.000000	7.182021	203.127	NaN	0.000000	0.001618	0.001681	28.0842	59.4172	0.001733	34281.2	5.393292	172.678	202.377	1.172902	0.056418	0.056217	203.127	34281.2	0.051974	0.098611	2059.87	99739.2
752	2.000000	1.175705	7.37242e+06	-39489.1	1005.82	-29793.6	0.000000	0.000000	7.185310	219.838	NaN	0.000000	0.001601	0.001709	28.0844	61.4239	0.001803	34068.2	7.026279	-7.583949	222.974	1.175241	0.059020	0.058556	219.838	34068.2	0.054181	0.105772	2078.42	95705.5
752	2.000000	1.178035	7.37242e+06	-39489.1	1005.82	-29793.6	0.000000	0.000000	7.188386	237.995	NaN	0.000000	0.001634	0.001690	28.0839	62.0873	0.001691	36726.9	2.001192	176.358	233.922	1.177765	0.061350	0.061080	237.995	36726.9	0.056490	0.113524	2096.44	99589.7
752	2.000000	1.180575	7.37242e+06	-39489.1	1005.82	-29793.6	0.000000	0.000000	7.191537	252.86	NaN	0.000000	0.001614	0.001640	28.084	66.1823	0.001845	35874.3	5.817446	-7.131348	250.459	1.180184	0.063890	0.063499	252.86	35874.3	0.058604	0.120849	2092.36	94283.4
752	2.000000	1.183069	7.37242e+06	-39489.1	1005.82	-29793.6	0.000000	0.000000	7.194712	269.431	NaN	0.000000	0.001610	0.001646	28.0842	68.4074	0.001746	39174.6	4.991750	172.79	267.436	1.182815	0.066384	0.066130	269.431	39174.6	0.061226	0.130240	2068.73	99175.9
752	2.000000	1.185623	7.37242e+06	-39489.1	1005.82	-29793.6	0.000000	0.000000	7.197892	284.664	NaN	0.000000	0.001609	0.001673	28.0842	70.428	0.001819	38717.5	5.294367	-7.422368	282.445	1.185321	0.068938	0.068636	284.664	38717.5	0.063424	0.138373	2057.22	95094.4
752	2.000000	1.188090	7.37242e+06	-39489.1	1005.82	-29793.6	0.000000	0.000000	7.201399	309.971	NaN	0.000000	0.001623	0.001700	28.0839	72.455	0.001729	41894.9	4.452978	172.74	306.696	1.187692	0.071405	0.071007	309.971	41894.9	0.065856	0.147642	2099.48	99616.3
752	2.000000	1.190517	7.37242e+06	-39489.1	1005.82	-29793.6	0.000000	0.000000	7.204414	324.276	NaN	0.000000	0.001600	0.001654	28.0841	76.3244	0.001699	44918.1	7.694022	-11.2445	316.792	1.190134	0.073832	0.073450	324.276	44918.1	0.068418	0.157711	2056.13	103339
752	2.000000	1.193009	7.37242e+06	-39489.1	1005.82	-29793.6	0.000000	0.000000	7.207577	340.612	NaN	0.000000	0.001600	0.001654	28.0844	78.0735	0.001689	46221.3	1.931321	174.738	334.643	1.192770	0.076324	0.076085	340.612	46221.3	0.070797	0.167347	2035.37	103230
752	2.000000	1.195610	7.37242e+06	-39489.1	1005.82	-29793.6	0.000000	0.000000	7.210799	355.705	NaN	0.000000	0.001594	0.001707	28.0842	80.9864	0.001772	45713.9	3.153631	-5.953104	354.791	1.195119	0.078925	0.078434	355.705	45713.9	0.073089	0.176882	2010.97	99307
752	2.000000	1.198115	7.37242e+06	-39489.1	1005.82	-29793.6	0.000000	0.000000	7.214106	375.236	NaN	0.000000	0.001611	0.001715	28.0838	83.5302	0.001824	45802.7	7.846369	169.233	374.017	1.197663	0.081430	0.080978	375.236	45802.7	0.075286	0.186251	2014.68	96964.8
752	2.000000	1.200555	7.37242e+06	-39489.1	1005.82	-29793.6	0.000000	0.000000	7.217574	400.268	NaN	0.000000	0.001594	0.001709	28.0829	86.0273	0.001698	50653.1	5.546079	-9.927450	395.14	1.200192	0.083870	0.083507	400.268	50653.1	0.077943	0.197892	2022.66	104031
752	2.000000	1.203136	7.37242e+06	-39489.1	1005.82	-29793.6	0.000000	0.000000	7.220164	400.479	NaN	0.000000	0.001602	0.001694	28.0825	89.1548	0.001767	50450.8	0.797227	174.519	401.803	1.203045	0.086451	0.086360	400.479	50450.8	0.080498	0.209393	1912.57	100730
752	2.000000	1.205656	7.37242e+06	-39489.1	1005.82	-29793.6	0.000000	0.000000	7.224191	437.137	NaN	0.000000	0.001600	0.001668	28.0828	91.6074	0.001781	51440.6	6.919926	-10.9055	437.063	1.205239	0.088971	0.088554	437.137	51440.6	0.082598	0.219076	1995.37	100411
752	2.000000	1.208095	7.37242e+06	-39489.1	1005.82	-29793.6	0.000000	0.000000	7.227568	459.976	NaN	0.000000	0.001618	0.001668	28.0827	94.3116	0.001736	54342.1	9.027215	166.87	458.323	1.207636	0.091410	0.090951	459.976	54342.1	0.085061	0.230695	1993.87	103369
752	2.000000	1.210563	7.37242e+06	-39489.1	1005.82	-29793.6	0.000000	0.000000	7.230709	476.353	NaN	0.000000	0.001636	0.001684	28.0829	96.9865	0.001785	54337.6	5.349552	-10.306	473.853	1.210225	0.093878	0.093540	476.353	54337.6	0.087303	0.241510	1972.4	101020
752	2.000000	1.213095	7.37242e+06	-39489.1	1005.82	-29793.6	0.000000	0.000000	7.234199	499.656	NaN	0.000000	0.001624	0.001677	28.0828	100.092	0.001803	55520.7	5.484810	169.376	498.551	1.212793	0.096410	0.096108	499.656	55520.7	0.089660	0.253134	1973.88	100821
752	2.000000	1.215501	7.37242e+06	-39489.1	1005.82	-29793.6	0.000000	0.000000	7.237823	529.29	NaN	0.000000	0.001600	0.001681	28.0827	100.51	0.001627	61773.9	4.441604	-9.653307	522.756	1.215189	0.098816	0.098504	529.29	61773.9	0.092390	0.266913	1983.01	109243
752	2.000000	1.217979	7.37242e+06	-39489.1	1005.82	-29793.6	0.000000	0.000000	7.241234	552.005	NaN	0.000000	0.001587	0.001691	28.0826	103.925	0.001862	55816.5	4.892228	170.226	547.923	1.217692	0.101294	0.101007	552.005	55816.5	0.093876	0.274557	2010.53	97323.8
752	2.000000	1.220524	7.37242e+06	-39489.1	1005.82	-29793.6	0.000000	0.000000	7.244662	573.483	NaN	0.000000	0.001585	0.001683	28.0827	106.334	0.001810	58763.6	5.280154	-10.5021	569.746	1.220116	0.103840	0.103431	573.483	58763.6	0.096520	0.288406	1988.46	99972.3
752	2.000000	1.222056	7.37242e+06	-39489.1	1005.82	-29793.6	0.000000	0.000000	7.246862	589.758	NaN	0.000000	0.001586	0.001717	28.0826	105.804	0.001762	60058.9	0.801211	173.964	589.18	1.221768	0.105371	0.105083	589.758	60058.9	0.098006	0.296328	1990.22	100801