File: remote_trans/data/nanoindenter/0828-1/data/Data_2025-08-06,11h17m57s/2025-07-22_16-23-58_1_43.txt
2025-07-22, 16:23:58, 1
Index	Phase	Displacement	Time	Pos X	Pos Y	Pos Z	Rot A	Rot B	Piezo Z	Force A	Force B	Gripper	Voltage A	Voltage B	Temperature	Amplitude force	Amplitude pos	Stiffness	Phase shift	Phase excitation	Force A raw	Displacement raw	HMax	HMax raw	Real Force	Real Stiffness	Contact Depth	Area	Hardness	Reduced Mod.
[#]	[#]	[um]	[s]	[um]	[um]	[um]	[m°]	[m°]	[um]	[uN]	[uN]	[V]	[V]	[V]	[°C]	[uN]	[um]	[N/m]	[°]	[°]	[uN]	[um]	[um]	[um]	[uN]	[N/m]	[um]	[um^2]	[MPa]	[MPa]
43	1.000000	0.002580	7.36546e+06	-40789.1	955.818	-29789.2	0.000000	0.000000	6.002805	-0.018875	NaN	0.000000	0.001606	0.001713	28.1042	0.063153	0.000948	66.5926	54.6149	-158.036	-0.062461	0.001374	-1.135789	-1.136995	-0.018875	66.5926	-1.135577	-1.504584E+15	1.254488E-17	NaN
43	1.000000	0.012646	7.36546e+06	-40789.1	955.819	-29789.2	0.000000	0.000000	6.012872	0.020415	NaN	0.000000	0.001645	0.001714	28.1305	0.100653	0.001218	82.6315	123.232	15.1309	0.100602	0.011224	-1.125723	-1.127145	0.020415	82.6315	-1.125908	-1.116182E+15	-1.829023E-17	NaN
43	1.000000	0.022549	7.36546e+06	-40789.1	955.818	-29789.2	0.000000	0.000000	6.022773	-0.046082	NaN	0.000000	0.001628	0.001709	28.0929	0.061367	0.001739	35.2797	64.6053	-163.55	-0.083184	0.021250	-1.115820	-1.117119	-0.046082	35.2797	-1.114840	-7.929402E+14	5.811509E-17	NaN
43	1.000000	0.032523	7.36546e+06	-40789.1	955.818	-29789.2	0.000000	0.000000	6.032750	0.025588	NaN	0.000000	0.001623	0.001697	28.0793	0.030051	0.001973	15.2329	-82.4522	16.1176	0.014232	0.031182	-1.105846	-1.107187	0.025588	15.2329	-1.107105	-6.243691E+14	-4.098203E-17	NaN
43	1.000000	0.042510	7.36546e+06	-40789.1	955.818	-29789.2	0.000000	0.000000	6.042736	0.014684	NaN	0.000000	0.001617	0.001687	28.104	0.095804	0.002070	46.2913	42.5534	-165.861	-0.071127	0.041243	-1.095859	-1.097126	0.014684	46.2913	-1.096097	-4.442971E+14	-3.304938E-17	NaN
43	1.000000	0.052551	7.36546e+06	-40789.1	955.818	-29789.2	0.000000	0.000000	6.052775	-0.041029	NaN	0.000000	0.001632	0.001705	28.1307	0.105678	0.001934	54.6367	-64.0587	12.0412	-0.091196	0.051196	-1.085818	-1.087173	-0.041029	54.6367	-1.085255	-3.177538E+14	1.291222E-16	NaN
43	1.000000	0.062541	7.36546e+06	-40789.1	955.818	-29789.2	0.000000	0.000000	6.062768	0.023266	NaN	0.000000	0.001618	0.001668	28.0919	0.108391	0.001993	54.3777	142.287	-166.935	0.049708	0.061202	-1.075827	-1.077167	0.023266	54.3777	-1.076148	-2.397646E+14	-9.703512E-17	NaN
43	1.000000	0.072541	7.36546e+06	-40789.1	955.818	-29789.2	0.000000	0.000000	6.072764	-0.062423	NaN	0.000000	0.001622	0.001620	28.0823	0.054733	0.002067	26.4737	21.1869	16.9428	-0.040050	0.071131	-1.065828	-1.067238	-0.062423	26.4737	-1.064060	-1.649596E+14	3.784123E-16	NaN
43	1.000000	0.082551	7.36546e+06	-40789.1	955.818	-29789.2	0.000000	0.000000	6.082777	0.016503	NaN	0.000000	0.001586	0.001665	28.1055	0.081351	0.002015	40.378	-161.371	-166.37	0.089112	0.081208	-1.055818	-1.057161	0.016503	40.378	-1.056124	-1.290425E+14	-1.278858E-16	NaN
43	1.000000	0.092528	7.36546e+06	-40789.1	955.819	-29789.2	0.000000	0.000000	6.092752	-0.045408	NaN	0.000000	0.001594	0.001668	28.1317	0.131068	0.002019	64.9121	-140.392	15.1658	0.036146	0.091225	-1.045841	-1.047144	-0.045408	64.9121	-1.045316	-9.235171E+13	4.916855E-16	NaN
43	1.000000	0.102583	7.36546e+06	-40789.1	955.818	-29789.2	0.000000	0.000000	6.102808	0.000106	NaN	0.000000	0.001613	0.001674	28.0931	0.030423	0.002032	14.972	162.916	-165.409	0.087874	0.101241	-1.035786	-1.037128	0.000106	14.972	-1.035791	-6.876582E+13	-1.543978E-18	NaN
43	1.000000	0.112564	7.36546e+06	-40789.1	955.819	-29789.2	0.000000	0.000000	6.112791	0.051532	NaN	0.000000	0.001549	0.001682	28.0809	0.080188	0.001876	42.7499	-110.399	10.4517	-0.041223	0.111186	-1.025805	-1.027183	0.051532	42.7499	-1.026709	-5.190610E+13	-9.927886E-16	NaN
43	1.000000	0.122532	7.36546e+06	-40789.1	955.818	-29789.2	0.000000	0.000000	6.122757	-0.030236	NaN	0.000000	0.001587	0.001690	28.1038	0.045055	0.001984	22.7069	-169.533	-163.309	0.007463	0.121228	-1.015837	-1.017141	-0.030236	22.7069	-1.014838	-3.593278E+13	8.414559E-16	NaN
43	1.000000	0.132560	7.36546e+06	-40789.1	955.819	-29789.2	0.000000	0.000000	6.132782	-0.076012	NaN	0.000000	0.001628	0.001671	28.1305	0.094429	0.002022	46.7002	-47.6349	14.7989	-0.030164	0.131206	-1.005809	-1.007163	-0.076012	46.7002	-1.004589	-2.615437E+13	2.906267E-15	NaN
43	1.000000	0.142602	7.36546e+06	-40789.1	955.819	-29789.2	0.000000	0.000000	6.142826	-0.041434	NaN	0.000000	0.001654	0.001702	28.0933	0.036736	0.001978	18.5682	96.7499	-164.848	0.056544	0.141251	-0.995767	-0.997118	-0.041434	18.5682	-0.994093	-1.889005E+13	2.193415E-15	NaN
43	1.000000	0.152563	7.36546e+06	-40789.1	955.819	-29789.2	0.000000	0.000000	6.152787	-0.037306	NaN	0.000000	0.001643	0.001668	28.0814	0.053742	0.001921	27.9792	147.184	15.3186	-0.034631	0.151252	-0.985806	-0.987117	-0.037306	27.9792	-0.984806	-1.416296E+13	2.634080E-15	NaN
43	1.000000	0.162569	7.36546e+06	-40789.1	955.819	-29789.2	0.000000	0.000000	6.162795	0.022496	NaN	0.000000	0.001658	0.001657	28.1049	0.095176	0.001970	48.3065	62.6137	-163.274	-0.042384	0.161263	-0.975800	-0.977106	0.022496	48.3065	-0.976150	-1.082765E+13	-2.077632E-15	NaN
43	1.000000	0.172556	7.36546e+06	-40789.1	955.818	-29789.2	0.000000	0.000000	6.172777	-0.098485	NaN	0.000000	0.001666	0.001691	28.131	0.037781	0.001970	19.1797	-146.674	11.1966	-0.072815	0.171204	-0.965813	-0.967165	-0.098485	19.1797	-0.961962	-6.971435E+12	1.412687E-14	NaN
43	1.000000	0.182581	7.36546e+06	-40789.1	955.818	-29789.2	0.000000	0.000000	6.182805	-0.051266	NaN	0.000000	0.001628	0.001674	28.0936	0.097760	0.001862	52.5048	89.4205	-171.048	-0.018668	0.181290	-0.955788	-0.957079	-0.051266	52.5048	-0.955055	-5.626034E+12	9.112338E-15	NaN
43	1.000000	0.192577	7.36546e+06	-40789.1	955.818	-29789.2	0.000000	0.000000	6.192803	0.020071	NaN	0.000000	0.001640	0.001653	28.0801	0.099187	0.001937	51.1968	121.766	15.7239	0.000949	0.191254	-0.945792	-0.947115	0.020071	51.1968	-0.946086	-4.258338E+12	-4.713396E-15	NaN
43	1.000000	0.202588	7.36546e+06	-40789.1	955.818	-29789.2	0.000000	0.000000	6.202813	-0.006099	NaN	0.000000	0.001613	0.001684	28.1023	0.054983	0.002022	27.1893	124.39	-164.57	-0.006404	0.201265	-0.935781	-0.937103	-0.006099	27.1893	-0.935613	-3.075691E+12	1.983113E-15	NaN
43	1.000000	0.212566	7.36546e+06	-40789.1	955.818	-29789.2	0.000000	0.000000	6.212790	-0.030427	NaN	0.000000	0.001626	0.001670	28.1297	0.036312	0.002100	17.2907	35.5697	14.3003	-0.026938	0.211251	-0.925803	-0.927118	-0.030427	17.2907	-0.924483	-2.176379E+12	1.398067E-14	NaN
43	1.000000	0.222598	7.36546e+06	-40789.1	955.818	-29789.2	0.000000	0.000000	6.222823	-0.015199	NaN	0.000000	0.001638	0.001667	28.0923	0.012947	0.001913	6.767297	-142.734	-163.27	-0.076601	0.221210	-0.915771	-0.917159	-0.015199	6.767297	-0.914087	-1.575269E+12	9.648777E-15	NaN
43	1.000000	0.232618	7.36546e+06	-40789.1	955.818	-29789.2	0.000000	0.000000	6.232841	-0.047296	NaN	0.000000	0.001667	0.001656	28.0811	0.084724	0.002092	40.5038	-172.084	15.8408	-0.067899	0.231189	-0.905751	-0.907180	-0.047296	40.5038	-0.904876	-1.182878E+12	3.998348E-14	NaN
43	1.000000	0.242626	7.36546e+06	-40789.1	955.818	-29789.2	0.000000	0.000000	6.242850	-0.028805	NaN	0.000000	0.001656	0.001668	28.1042	0.031449	0.001978	15.9024	139.292	-164.452	-0.040965	0.241283	-0.895743	-0.897086	-0.028805	15.9024	-0.894385	-8.534543E+11	3.375066E-14	NaN
43	1.000000	0.252647	7.36546e+06	-40789.1	955.818	-29789.2	0.000000	0.000000	6.252873	0.017063	NaN	0.000000	0.001647	0.001684	28.1307	0.095114	0.001891	50.3028	-120.957	14.502	0.054677	0.251291	-0.885722	-0.887078	0.017063	50.3028	-0.885977	-6.569382E+11	-2.597350E-14	NaN
43	1.000000	0.262626	7.36546e+06	-40789.1	955.819	-29789.2	0.000000	0.000000	6.262850	-0.046242	NaN	0.000000	0.001651	0.001638	28.0934	0.017984	0.002006	8.962904	-31.6575	-166.885	-0.000683	0.261297	-0.875743	-0.877072	-0.046242	8.962904	-0.871873	-4.234338E+11	1.092063E-13	NaN
43	1.000000	0.272650	7.36546e+06	-40789.1	955.818	-29789.2	0.000000	0.000000	6.272874	-0.022544	NaN	0.000000	0.001680	0.001680	28.0794	0.094284	0.001897	49.7105	86.8966	13.1205	-0.093619	0.271243	-0.865719	-0.867126	-0.022544	49.7105	-0.865379	-3.458751E+11	6.517868E-14	NaN
43	1.000000	0.282598	7.36546e+06	-40789.1	955.818	-29789.2	0.000000	0.000000	6.282822	-0.024209	NaN	0.000000	0.001651	0.001683	28.1022	0.044774	0.002086	21.4628	112.852	-165.054	0.009812	0.281318	-0.855771	-0.857051	-0.024209	21.4628	-0.854925	-2.497047E+11	9.694889E-14	NaN
43	1.000000	0.292618	7.36546e+06	-40789.1	955.819	-29789.2	0.000000	0.000000	6.292843	0.007410	NaN	0.000000	0.001610	0.001700	28.1293	0.178902	0.001917	93.3023	-102.129	13.0777	-0.027317	0.291244	-0.845751	-0.847125	0.007410	93.3023	-0.845811	-1.879340E+11	-3.942952E-14	NaN
43	1.000000	0.302642	7.36546e+06	-40789.1	955.819	-29789.2	0.000000	0.000000	6.302868	0.025350	NaN	0.000000	0.001573	0.001710	28.0925	0.064834	0.002070	31.3204	-6.446115	-167.303	0.090637	0.301346	-0.835727	-0.837023	0.025350	31.3204	-0.836334	-1.398394E+11	-1.812784E-13	NaN
43	1.000000	0.312613	7.36546e+06	-40789.1	955.818	-29789.2	0.000000	0.000000	6.312837	-0.036005	NaN	0.000000	0.001554	0.001722	28.0815	0.070933	0.001979	35.8393	6.178788	13.9819	0.027569	0.311250	-0.825756	-0.827119	-0.036005	35.8393	-0.825003	-9.818496E+10	3.667105E-13	NaN
43	1.000000	0.322631	7.36546e+06	-40789.1	955.819	-29789.2	0.000000	0.000000	6.322857	0.012425	NaN	0.000000	0.001597	0.001724	28.1037	0.013704	0.002051	6.681641	113.772	-165.847	0.021989	0.321380	-0.815738	-0.816989	0.012425	6.681641	-0.817133	-7.679363E+10	-1.617961E-13	NaN
43	1.000000	0.332641	7.36546e+06	-40789.1	955.818	-29789.2	0.000000	0.000000	6.332865	-0.026252	NaN	0.000000	0.001611	0.001735	28.1323	0.055467	0.001965	28.224	-25.5858	12.4434	-0.008435	0.331256	-0.805728	-0.807113	-0.026252	28.224	-0.805031	-5.261901E+10	4.988988E-13	NaN
43	1.000000	0.342643	7.36546e+06	-40789.1	955.819	-29789.2	0.000000	0.000000	6.342870	0.029077	NaN	0.000000	0.001608	0.001741	28.0947	0.052011	0.002085	24.9482	2.220125	-167.614	-0.002928	0.341327	-0.795726	-0.797042	0.029077	24.9482	-0.796600	-4.043050E+10	-7.191808E-13	NaN
43	1.000000	0.352662	7.36546e+06	-40789.1	955.818	-29789.2	0.000000	0.000000	6.352887	-0.015549	NaN	0.000000	0.001651	0.001721	28.0795	0.068627	0.001999	34.3357	-46.4035	16.7883	-0.008242	0.351305	-0.785707	-0.787064	-0.015549	34.3357	-0.785367	-2.845460E+10	5.464374E-13	NaN
43	1.000000	0.362636	7.36547e+06	-40789.1	955.818	-29789.2	0.000000	0.000000	6.362863	0.036360	NaN	0.000000	0.001622	0.001718	28.102	0.036199	0.002053	17.6357	9.466635	-165.907	0.061963	0.361373	-0.775732	-0.776996	0.036360	17.6357	-0.777279	-2.209281E+10	-1.645788E-12	NaN
43	1.000000	0.372696	7.36547e+06	-40789.1	955.819	-29789.2	0.000000	0.000000	6.372920	-0.035352	NaN	0.000000	0.001577	0.001697	28.1311	0.096810	0.001990	48.6421	-147.179	12.7379	-0.034936	0.371304	-0.765673	-0.767065	-0.035352	48.6421	-0.765128	-1.510276E+10	2.340779E-12	NaN
43	1.000000	0.382647	7.36547e+06	-40789.1	955.818	-29789.2	0.000000	0.000000	6.382875	0.062195	NaN	0.000000	0.001588	0.001740	28.0931	0.076635	0.002051	37.3624	88.2724	-164.521	0.055609	0.381394	-0.755722	-0.756975	0.062195	37.3624	-0.756971	-1.169738E+10	-5.316971E-12	NaN
43	1.000000	0.392680	7.36547e+06	-40789.1	955.817	-29789.2	0.000000	0.000000	6.392906	0.009481	NaN	0.000000	0.001573	0.001702	28.0828	0.097953	0.001959	50.011	18.5609	17.4454	-0.030787	0.391300	-0.745689	-0.747069	0.009481	50.011	-0.745831	-8.250190E+9	-1.149195E-12	NaN
43	1.000000	0.402683	7.36547e+06	-40789.1	955.818	-29789.2	0.000000	0.000000	6.402907	-0.041358	NaN	0.000000	0.001601	0.001699	28.1034	0.057827	0.002071	27.9157	-92.0482	-167.405	-0.041297	0.401333	-0.735686	-0.737036	-0.041358	27.9157	-0.734575	-5.796288E+9	7.135196E-12	NaN
43	1.000000	0.412666	7.36547e+06	-40789.1	955.819	-29789.2	0.000000	0.000000	6.412890	-0.037940	NaN	0.000000	0.001586	0.001718	28.1321	0.007619	0.002126	3.583924	-98.5947	12.789	-0.067406	0.411330	-0.725702	-0.727039	-0.037940	3.583924	-0.717763	-3.419495E+9	1.109512E-11	NaN
43	1.000000	0.422676	7.36547e+06	-40789.1	955.818	-29789.2	0.000000	0.000000	6.422903	0.034931	NaN	0.000000	0.001573	0.001719	28.0947	0.128563	0.002070	62.1189	108.958	-168.024	-0.051604	0.421414	-0.715693	-0.716955	0.034931	62.1189	-0.716115	-3.247007E+9	-1.075801E-11	NaN
43	1.000000	0.432676	7.36547e+06	-40789.1	955.818	-29789.2	0.000000	0.000000	6.432904	0.045905	NaN	0.000000	0.001613	0.001695	28.0809	0.118422	0.001964	60.2841	-30.418	13.9074	0.095683	0.431363	-0.705693	-0.707006	0.045905	60.2841	-0.706264	-2.382603E+9	-1.926690E-11	NaN
43	1.000000	0.442690	7.36547e+06	-40789.1	955.818	-29789.2	0.000000	0.000000	6.442913	-0.065470	NaN	0.000000	0.001600	0.001686	28.1013	0.064303	0.002045	31.4384	-30.4908	-166.712	-0.078300	0.441424	-0.695679	-0.696945	-0.065470	31.4384	-0.694117	-1.626197E+9	4.025987E-11	NaN
43	1.000000	0.452669	7.36547e+06	-40789.1	955.818	-29789.2	0.000000	0.000000	6.452894	-0.023211	NaN	0.000000	0.001569	0.001721	28.1298	0.019155	0.002131	8.988443	-13.5978	14.0807	-0.083031	0.451324	-0.685700	-0.687045	-0.023211	8.988443	-0.683763	-1.173978E+9	1.977116E-11	NaN
43	1.000000	0.462689	7.36547e+06	-40789.1	955.818	-29789.2	0.000000	0.000000	6.462917	0.067627	NaN	0.000000	0.001621	0.001676	28.0921	0.120895	0.001993	60.6729	-116.442	-163.512	-0.019765	0.461434	-0.675680	-0.676935	0.067627	60.6729	-0.676516	-9.344445E+8	-7.237126E-11	NaN
43	1.000000	0.472713	7.36547e+06	-40789.1	955.818	-29789.2	0.000000	0.000000	6.472939	0.007106	NaN	0.000000	0.001581	0.001685	28.0802	0.088422	0.001978	44.6998	61.9275	14.2335	-0.023803	0.471363	-0.665656	-0.667006	0.007106	44.6998	-0.665775	-6.661281E+8	-1.066798E-11	NaN
43	1.000000	0.482709	7.36547e+06	-40789.1	955.818	-29789.2	0.000000	0.000000	6.482933	-0.023375	NaN	0.000000	0.001559	0.001718	28.1022	0.050868	0.001887	26.9547	-153.281	-161.315	-0.016112	0.481387	-0.655660	-0.656982	-0.023375	26.9547	-0.655010	-4.743552E+8	4.927743E-11	NaN
43	1.000000	0.492716	7.36547e+06	-40789.1	955.818	-29789.2	0.000000	0.000000	6.492941	0.001430	NaN	0.000000	0.001559	0.001723	28.1313	0.003821	0.001891	2.021226	133.472	12.7726	-0.003107	0.491364	-0.645653	-0.647005	0.001430	2.021226	-0.646184	-3.590178E+8	-3.983659E-12	NaN
43	1.000000	0.502728	7.36547e+06	-40789.1	955.817	-29789.2	0.000000	0.000000	6.502953	-0.021251	NaN	0.000000	0.001576	0.001704	28.0946	0.129120	0.002004	64.4436	-102.097	-166.773	-0.083016	0.501393	-0.635641	-0.636976	-0.021251	64.4436	-0.635393	-2.553111E+8	8.323557E-11	NaN
43	1.000000	0.512705	7.36547e+06	-40789.1	955.819	-29789.2	0.000000	0.000000	6.512930	-0.009544	NaN	0.000000	0.001597	0.001706	28.0792	0.030932	0.001917	16.1325	48.1031	14.1224	-0.070653	0.511348	-0.625664	-0.627021	-0.009544	16.1325	-0.625220	-1.850826E+8	5.156715E-11	NaN
43	1.000000	0.522729	7.36547e+06	-40789.1	955.818	-29789.2	0.000000	0.000000	6.522956	0.037427	NaN	0.000000	0.001588	0.001764	28.0999	0.047954	0.001993	24.0589	158.056	-163.915	-0.001187	0.521397	-0.615640	-0.616972	0.037427	24.0589	-0.616807	-1.418198E+8	-2.639048E-10	NaN
43	1.000000	0.532732	7.36547e+06	-40789.1	955.818	-29789.2	0.000000	0.000000	6.532957	-0.019430	NaN	0.000000	0.001547	0.001707	28.1301	0.088970	0.002053	43.3352	159.382	13.6386	-0.043234	0.531355	-0.605637	-0.607014	-0.019430	43.3352	-0.605301	-9.850124E+7	1.972560E-10	NaN
43	1.000000	0.542757	7.36547e+06	-40789.1	955.819	-29789.2	0.000000	0.000000	6.542987	0.097416	NaN	0.000000	0.001599	0.001693	28.0944	0.169951	0.002012	84.4646	72.1489	-165.881	0.103068	0.541416	-0.595612	-0.596953	0.097416	84.4646	-0.596477	-7.446090E+7	-1.308285E-9	NaN
43	1.000000	0.552749	7.36547e+06	-40789.1	955.817	-29789.2	0.000000	0.000000	6.552972	-0.057110	NaN	0.000000	0.001613	0.001701	28.0811	0.053605	0.002111	25.3935	38.2321	15.0555	-0.057515	0.551351	-0.585620	-0.587018	-0.057110	25.3935	-0.583933	-5.000291E+7	1.142133E-9	NaN
43	1.000000	0.562753	7.36547e+06	-40789.1	955.818	-29789.2	0.000000	0.000000	6.562978	-0.003441	NaN	0.000000	0.001610	0.001738	28.101	0.052974	0.001981	26.7434	98.4489	-164.837	0.064868	0.561440	-0.575616	-0.576929	-0.003441	26.7434	-0.575519	-3.827103E+7	8.991918E-11	NaN
43	1.000000	0.572741	7.36547e+06	-40789.1	955.819	-29789.2	0.000000	0.000000	6.572966	0.005529	NaN	0.000000	0.001609	0.001734	28.1312	0.024186	0.002036	11.8761	-112.709	13.9762	-0.034388	0.571399	-0.565628	-0.566970	0.005529	11.8761	-0.565977	-2.825125E+7	-1.957152E-10	NaN
43	1.000000	0.582783	7.36547e+06	-40789.1	955.818	-29789.2	0.000000	0.000000	6.583009	0.019298	NaN	0.000000	0.001613	0.001746	28.0954	0.016453	0.002019	8.150256	24.299	-164.97	-0.049927	0.581451	-0.555586	-0.556918	0.019298	8.150256	-0.557362	-2.147210E+7	-8.987682E-10	NaN
43	1.000000	0.592748	7.36547e+06	-40789.1	955.818	-29789.2	0.000000	0.000000	6.592973	-0.010178	NaN	0.000000	0.001657	0.001712	28.0805	0.068678	0.002036	33.7272	106.77	10.4647	0.005500	0.591413	-0.545621	-0.546956	-0.010178	33.7272	-0.545395	-1.466062E+7	6.942508E-10	NaN
43	1.000000	0.602765	7.36547e+06	-40789.1	955.818	-29789.2	0.000000	0.000000	6.602991	0.013616	NaN	0.000000	0.001668	0.001710	28.1005	0.087750	0.002063	42.5312	67.5003	-165.278	-0.026230	0.601520	-0.535604	-0.536848	0.013616	42.5312	-0.535844	-1.080690E+7	-1.259981E-9	NaN
43	1.000000	0.612732	7.36547e+06	-40789.1	955.818	-29789.2	0.000000	0.000000	6.612955	-0.071537	NaN	0.000000	0.001661	0.001755	28.1316	0.007059	0.001963	3.596298	-161.541	12.4331	-0.064992	0.611398	-0.525637	-0.526971	-0.071537	3.596298	-0.510718	-4.83519e+06	1.479505E-8	NaN
43	1.000000	0.622783	7.36547e+06	-40789.1	955.819	-29789.2	0.000000	0.000000	6.623009	0.015057	NaN	0.000000	0.001628	0.001675	28.0952	0.078757	0.002018	39.0321	106.12	-169.018	0.010116	0.621500	-0.515586	-0.516869	0.015057	39.0321	-0.515875	-5.70443e+06	-2.639591E-9	NaN
43	1.000000	0.632762	7.36547e+06	-40789.1	955.818	-29789.2	0.000000	0.000000	6.632989	0.038917	NaN	0.000000	0.001690	0.001689	28.0818	0.131082	0.002027	64.659	-163.683	14.5024	0.038396	0.631417	-0.505607	-0.506952	0.038917	64.659	-0.506058	-4.16384e+06	-9.346400E-9	NaN
43	1.000000	0.642795	7.36547e+06	-40789.1	955.819	-29789.2	0.000000	0.000000	6.643018	-0.068828	NaN	0.000000	0.001685	0.001689	28.1019	0.090144	0.002050	43.9741	120.989	-165.317	0.061045	0.641459	-0.495573	-0.496910	-0.068828	43.9741	-0.494400	-2.8632e+06	2.403878E-8	NaN
43	1.000000	0.652799	7.36547e+06	-40789.1	955.819	-29789.2	0.000000	0.000000	6.653023	-0.037992	NaN	0.000000	0.001610	0.001668	28.1331	0.076820	0.002027	37.9044	77.2681	14.1867	-0.066645	0.651407	-0.485570	-0.486962	-0.037992	37.9044	-0.484818	-2.10352e+06	1.806111E-8	NaN
43	1.000000	0.662809	7.36547e+06	-40789.1	955.817	-29789.2	0.000000	0.000000	6.663033	-0.046381	NaN	0.000000	0.001636	0.001705	28.0972	0.054713	0.001986	27.5515	56.6872	-165.307	-0.002613	0.661480	-0.475560	-0.476889	-0.046381	27.5515	-0.474297	-1.49849e+06	3.095187E-8	NaN
43	1.000000	0.672763	7.36547e+06	-40789.1	955.819	-29789.2	0.000000	0.000000	6.672988	-0.015650	NaN	0.000000	0.001613	0.001674	28.0822	0.160379	0.002130	75.2817	-174.335	13.673	-0.045461	0.671461	-0.465606	-0.466908	-0.015650	75.2817	-0.465450	-1.12607e+06	1.389818E-8	NaN
43	1.000000	0.682797	7.36547e+06	-40789.1	955.818	-29789.2	0.000000	0.000000	6.683023	0.015680	NaN	0.000000	0.001594	0.001683	28.101	0.033642	0.001916	17.5578	109.81	-165.92	-0.011842	0.681438	-0.455572	-0.456931	0.015680	17.5578	-0.456242	-835962	-1.875734E-8	NaN
43	1.000000	0.692815	7.36547e+06	-40789.1	955.818	-29789.2	0.000000	0.000000	6.693037	-0.070632	NaN	0.000000	0.001631	0.001660	28.1318	0.084030	0.002063	40.7349	-10.0122	18.0227	-0.113382	0.691399	-0.445554	-0.446969	-0.070632	40.7349	-0.444254	-566724	1.246325E-7	NaN
43	1.000000	0.702810	7.36547e+06	-40789.1	955.818	-29789.2	0.000000	0.000000	6.703035	-0.014002	NaN	0.000000	0.001623	0.001657	28.0956	0.072052	0.002017	35.7164	-32.8053	-165.419	-0.032891	0.701474	-0.435559	-0.436895	-0.014002	35.7164	-0.435265	-423153	3.308948E-8	NaN
43	1.000000	0.712812	7.36547e+06	-40789.1	955.818	-29789.2	0.000000	0.000000	6.713040	0.041073	NaN	0.000000	0.001619	0.001686	28.081	0.005147	0.001948	2.641937	28.0597	13.9116	-0.041411	0.711441	-0.425557	-0.426928	0.041073	2.641937	-0.437216	-450885	-9.109407E-8	NaN
43	1.000000	0.722819	7.36547e+06	-40789.1	955.819	-29789.2	0.000000	0.000000	6.723044	-0.013712	NaN	0.000000	0.001601	0.001729	28.0998	0.095590	0.002087	45.8094	-121.586	-165.675	0.050773	0.721505	-0.415550	-0.416864	-0.013712	45.8094	-0.415325	-220838	6.209210E-8	NaN
43	1.000000	0.732818	7.36547e+06	-40789.1	955.819	-29789.2	0.000000	0.000000	6.733045	0.029502	NaN	0.000000	0.001601	0.001707	28.132	0.025539	0.002059	12.4034	141.037	17.6367	0.002341	0.731479	-0.405551	-0.406890	0.029502	12.4034	-0.407335	-170015	-1.735281E-7	NaN
43	1.000000	0.742844	7.36547e+06	-40789.1	955.818	-29789.2	0.000000	0.000000	6.743070	0.005530	NaN	0.000000	0.001627	0.001740	28.0948	0.019072	0.001952	9.772605	156.434	-167.411	-0.040024	0.741540	-0.395525	-0.396829	0.005530	9.772605	-0.395949	-117002	-4.726064E-8	NaN
43	1.000000	0.752841	7.36547e+06	-40789.1	955.819	-29789.2	0.000000	0.000000	6.753068	0.046522	NaN	0.000000	0.001621	0.001797	28.0781	0.013667	0.001906	7.170239	2.524797	15.9114	0.056288	0.751440	-0.385528	-0.386929	0.046522	7.170239	-0.390394	-97455.2	-4.773679E-7	NaN
43	1.000000	0.762818	7.36547e+06	-40789.1	955.818	-29789.2	0.000000	0.000000	6.763042	-0.031104	NaN	0.000000	0.001605	0.001789	28.099	0.038229	0.001997	19.1423	73.267	-163.845	-0.012077	0.761526	-0.375551	-0.376843	-0.031104	19.1423	-0.374332	-57342.1	5.424195E-7	NaN
43	1.000000	0.772852	7.36547e+06	-40789.1	955.819	-29789.2	0.000000	0.000000	6.773075	-0.055936	NaN	0.000000	0.001639	0.001744	28.1305	0.067451	0.001945	34.6819	-88.0883	16.8319	-0.079185	0.771417	-0.365517	-0.366952	-0.055936	34.6819	-0.364308	-41120.8	1.360280E-6	NaN
43	1.000000	0.782824	7.36547e+06	-40789.1	955.818	-29789.2	0.000000	0.000000	6.783050	0.002031	NaN	0.000000	0.001602	0.001732	28.0936	0.059674	0.002025	29.4732	76.0875	-165.527	-0.011419	0.781485	-0.355545	-0.356884	0.002031	29.4732	-0.355596	-30770.3	-6.602032E-8	NaN
43	1.000000	0.792828	7.36547e+06	-40789.1	955.819	-29789.2	0.000000	0.000000	6.793054	0.020135	NaN	0.000000	0.001615	0.001761	28.0792	0.085890	0.002161	39.7484	-86.4349	15.6847	-0.005776	0.791497	-0.345541	-0.346872	0.020135	39.7484	-0.345921	-22271.6	-9.040603E-7	NaN
43	1.000000	0.802868	7.36547e+06	-40789.1	955.818	-29789.2	0.000000	0.000000	6.803092	-0.031728	NaN	0.000000	0.001624	0.001774	28.099	0.052098	0.002011	25.906	-29.7845	-166.452	-0.007950	0.801524	-0.335501	-0.336845	-0.031728	25.906	-0.334582	-15222.5	2.084260E-6	NaN
43	1.000000	0.812853	7.36547e+06	-40789.1	955.818	-29789.2	0.000000	0.000000	6.813080	0.023656	NaN	0.000000	0.001601	0.001710	28.1318	0.040913	0.001960	20.8743	-34.1441	14.7434	-0.029916	0.811542	-0.325516	-0.326827	0.023656	20.8743	-0.326366	-11539.2	-2.050015E-6	NaN
43	1.000000	0.822852	7.36547e+06	-40789.1	955.817	-29789.2	0.000000	0.000000	6.823079	0.030237	NaN	0.000000	0.001605	0.001743	28.0956	0.037457	0.002008	18.6578	119.446	-161.478	0.027175	0.821512	-0.315517	-0.316857	0.030237	18.6578	-0.316732	-8327.22	-3.631091E-6	NaN
43	1.000000	0.832857	7.36547e+06	-40789.1	955.818	-29789.2	0.000000	0.000000	6.833079	-0.081283	NaN	0.000000	0.001578	0.001708	28.0795	0.082070	0.002115	38.81	67.5628	13.4047	-0.064746	0.831500	-0.305512	-0.306869	-0.081283	38.81	-0.303941	-5385.67	1.509242E-5	NaN
43	1.000000	0.842850	7.36547e+06	-40789.1	955.819	-29789.2	0.000000	0.000000	6.843074	-0.013472	NaN	0.000000	0.001594	0.001768	28.098	0.026314	0.001843	14.2789	25.0529	-166.825	0.075164	0.841559	-0.295519	-0.296810	-0.013472	14.2789	-0.294812	-3938.03	3.420911E-6	NaN
43	1.000000	0.852860	7.36547e+06	-40789.1	955.818	-29789.2	0.000000	0.000000	6.853082	-0.092311	NaN	0.000000	0.001585	0.001747	28.1299	0.031254	0.001876	16.6627	108.512	15.1882	-0.078447	0.851472	-0.285509	-0.286897	-0.092311	16.6627	-0.281354	-2473.9	3.731403E-5	NaN
43	1.000000	0.862905	7.36547e+06	-40789.1	955.818	-29789.2	0.000000	0.000000	6.863129	-0.041439	NaN	0.000000	0.001591	0.001729	28.0954	0.059754	0.001960	30.4945	-123.082	-165.842	0.048472	0.861525	-0.275464	-0.276844	-0.041439	30.4945	-0.274445	-1945.31	2.130187E-5	NaN
43	1.000000	0.872861	7.36547e+06	-40789.1	955.818	-29789.2	0.000000	0.000000	6.873086	-0.006705	NaN	0.000000	0.001556	0.001722	28.0811	0.088765	0.002022	43.8935	145.748	14.698	-0.001497	0.871478	-0.265508	-0.266891	-0.006705	43.8935	-0.265394	-1417.09	4.731545E-6	NaN
43	1.000000	0.882876	7.36547e+06	-40789.1	955.819	-29789.2	0.000000	0.000000	6.883102	0.016080	NaN	0.000000	0.001586	0.001716	28.1003	0.050156	0.001956	25.6472	-33.8462	-168.038	0.029364	0.881594	-0.255493	-0.256775	0.016080	25.6472	-0.255963	-1016.1	-1.582474E-5	NaN
43	1.000000	0.892892	7.36547e+06	-40789.1	955.819	-29789.2	0.000000	0.000000	6.893116	-0.026590	NaN	0.000000	0.001581	0.001714	28.1322	0.054008	0.002039	26.4923	-66.2553	14.8862	-0.081571	0.891579	-0.245477	-0.246790	-0.026590	26.4923	-0.244725	-681.038	3.904394E-5	NaN
43	1.000000	0.902887	7.36547e+06	-40789.1	955.818	-29789.2	0.000000	0.000000	6.903114	0.042433	NaN	0.000000	0.001632	0.001731	28.0972	0.027020	0.002060	13.1173	36.6425	-165.541	0.032364	0.901556	-0.235482	-0.236813	0.042433	13.1173	-0.237908	-533.141	-7.959029E-5	NaN
43	1.000000	0.912902	7.36547e+06	-40789.1	955.819	-29789.2	0.000000	0.000000	6.913127	-0.012984	NaN	0.000000	0.001612	0.001744	28.0805	0.068303	0.002042	33.4516	-111.845	16.1381	-0.039480	0.911490	-0.225467	-0.226878	-0.012984	33.4516	-0.225176	-335.833	3.866242E-5	NaN
43	1.000000	0.922905	7.36547e+06	-40789.1	955.818	-29789.2	0.000000	0.000000	6.923131	0.009267	NaN	0.000000	0.001580	0.001787	28.0996	0.143269	0.002014	71.1347	-149.41	-164.392	-0.009490	0.921598	-0.215464	-0.216771	0.009267	71.1347	-0.215561	-235.798	-3.930240E-5	NaN
43	1.000000	0.932909	7.36547e+06	-40789.1	955.818	-29789.2	0.000000	0.000000	6.933133	-0.048500	NaN	0.000000	0.001615	0.001742	28.1312	0.021439	0.001981	10.8217	-55.8352	12.1262	-0.057093	0.931520	-0.205460	-0.206849	-0.048500	10.8217	-0.202098	-142.602	0.000340	NaN
43	1.000000	0.942914	7.36547e+06	-40789.1	955.819	-29789.2	0.000000	0.000000	6.943140	0.024839	NaN	0.000000	0.001564	0.001724	28.0975	0.072966	0.002064	35.3506	-172.682	-163.404	0.021565	0.941583	-0.195455	-0.196786	0.024839	35.3506	-0.195982	-113.099	-0.000220	NaN
43	1.000000	0.952893	7.36547e+06	-40789.1	955.818	-29789.2	0.000000	0.000000	6.953117	-0.039492	NaN	0.000000	0.001636	0.001754	28.08	0.040117	0.002112	18.9948	43.5982	17.4018	0.023057	0.951538	-0.185476	-0.186831	-0.039492	18.9948	-0.183917	-71.0976	0.000555	NaN
43	1.000000	0.962882	7.36547e+06	-40789.1	955.818	-29789.2	0.000000	0.000000	6.963106	-0.052942	NaN	0.000000	0.001615	0.001691	28.0999	0.125567	0.001958	64.115	-153.843	-164.958	-0.056752	0.961642	-0.175487	-0.176727	-0.052942	64.115	-0.174867	-49.8541	0.001062	NaN
43	1.000000	0.972902	7.36547e+06	-40789.1	955.817	-29789.2	0.000000	0.000000	6.973129	0.027518	NaN	0.000000	0.001607	0.001683	28.1326	0.098697	0.001912	51.6215	-108.732	13.8014	-0.014336	0.971542	-0.165467	-0.166827	0.027518	51.6215	-0.165867	-34.7946	-0.000791	NaN
43	1.000000	0.982907	7.36547e+06	-40789.1	955.816	-29789.2	0.000000	0.000000	6.983130	-0.058113	NaN	0.000000	0.001667	0.001738	28.0982	0.148812	0.002175	68.4157	-52.8744	-167.365	-0.042416	0.981599	-0.155462	-0.156770	-0.058113	68.4157	-0.154825	-22.1529	0.002623	NaN
43	1.000000	0.992908	7.36547e+06	-40789.1	955.816	-29789.2	0.000000	0.000000	6.993132	-0.030061	NaN	0.000000	0.001586	0.001737	28.0788	0.056509	0.002068	27.3277	-162.199	13.1359	-0.033829	0.991522	-0.145461	-0.146847	-0.030061	27.3277	-0.144636	-14.4355	0.002082	NaN
43	1.000000	1.002950	7.36547e+06	-40789.1	955.816	-29789.2	0.000000	0.000000	7.003178	0.046566	NaN	0.000000	0.001608	0.001737	28.0967	0.146039	0.001942	75.2171	45.5587	-166.67	0.029065	1.001612	-0.135419	-0.136757	0.046566	75.2171	-0.135883	-9.888323	-0.004709	NaN
43	1.000000	1.012924	7.36547e+06	-40789.1	955.817	-29789.2	0.000000	0.000000	7.013151	0.060468	NaN	0.000000	0.001614	0.001732	28.1303	0.054282	0.002047	26.5189	79.8569	16.2066	0.051989	1.011577	-0.125445	-0.126792	0.060468	26.5189	-0.127156	-6.706158	-0.009017	NaN
43	1.000000	1.022929	7.36547e+06	-40789.1	955.817	-29789.2	0.000000	0.000000	7.023155	0.021293	NaN	0.000000	0.001613	0.001741	28.0953	0.037608	0.002005	18.7589	46.5738	-168.329	0.037754	1.021631	-0.115440	-0.116738	0.021293	18.7589	-0.116292	-4.061223	-0.005243	NaN
43	1.000000	1.032936	7.36547e+06	-40789.1	955.817	-29789.2	0.000000	0.000000	7.033162	0.000290	NaN	0.000000	0.001617	0.001738	28.0811	0.054379	0.001813	29.9954	43.7057	14.4334	0.063601	1.031581	-0.105433	-0.106788	0.000290	29.9954	-0.105440	-2.402533	-0.000121	NaN
43	1.000000	1.042947	7.36547e+06	-40789.1	955.817	-29789.2	0.000000	0.000000	7.043173	0.031035	NaN	0.000000	0.001639	0.001704	28.0985	0.071733	0.002056	34.8817	38.6007	-167.859	-0.015028	1.041642	-0.095422	-0.096727	0.031035	34.8817	-0.096090	-1.493374	-0.020782	NaN
43	1.000000	1.052913	7.36547e+06	-40789.1	955.817	-29789.2	0.000000	0.000000	7.053139	0.028388	NaN	0.000000	0.001629	0.001723	28.1315	0.160279	0.001950	82.1943	-60.4809	9.667091	-0.012168	1.051512	-0.085456	-0.086857	0.028388	82.1943	-0.085715	-0.854972	-0.033204	NaN
43	1.000000	1.062957	7.36547e+06	-40789.1	955.817	-29789.2	0.000000	0.000000	7.063180	-0.057837	NaN	0.000000	0.001615	0.001747	28.0962	0.096163	0.002040	47.129	-85.2592	-168.699	-0.039995	1.061646	-0.075412	-0.076723	-0.057837	47.129	-0.074492	-0.448068	0.129080	NaN
43	1.000000	1.072934	7.36547e+06	-40789.1	955.818	-29789.2	0.000000	0.000000	7.073160	0.001301	NaN	0.000000	0.001598	0.001717	28.079	0.106699	0.001987	53.6955	-38.0769	14.2525	-0.026307	1.071583	-0.065435	-0.066786	0.001301	53.6955	-0.065453	-0.256518	-0.005070	NaN
43	1.000000	1.082948	7.36547e+06	-40789.1	955.817	-29789.2	0.000000	0.000000	7.083174	0.009215	NaN	0.000000	0.001637	0.001754	28.0972	0.051919	0.001904	27.2752	-155.362	-165.695	0.000145	1.081667	-0.055421	-0.056702	0.009215	27.2752	-0.055675	-0.134816	-0.068355	NaN
43	1.000000	1.092957	7.36547e+06	-40789.1	955.816	-29789.2	0.000000	0.000000	7.093184	0.026625	NaN	0.000000	0.001632	0.001711	28.1301	0.035374	0.001977	17.8889	98.0044	15.8747	-0.032601	1.091568	-0.045412	-0.046801	0.026625	17.8889	-0.046528	-0.071562	-0.372058	NaN
43	1.000000	1.102965	7.36547e+06	-40789.1	955.817	-29789.2	0.000000	0.000000	7.103191	0.012889	NaN	0.000000	0.001618	0.001748	28.0968	0.095115	0.001952	48.7202	101.624	-165.157	0.029339	1.101646	-0.035404	-0.036723	0.012889	48.7202	-0.035603	-0.033364	-0.386312	NaN
43	1.000000	1.112977	7.36547e+06	-40789.1	955.817	-29789.2	0.000000	0.000000	7.113202	-0.016123	NaN	0.000000	0.001631	0.001753	28.081	0.058103	0.002032	28.5926	-123.876	15.5601	-0.045382	1.111592	-0.025392	-0.026777	-0.016123	28.5926	-0.024969	-0.016839	0.957454	NaN
43	1.000000	1.122980	7.36547e+06	-40789.1	955.816	-29789.2	0.000000	0.000000	7.123205	-0.007729	NaN	0.000000	0.001679	0.001780	28.098	0.015526	0.002089	7.431145	-15.4121	-166.069	0.104695	1.121653	-0.015389	-0.016716	-0.007729	7.431145	-0.014609	-0.009042	0.854718	NaN
43	1.000000	1.132995	7.36547e+06	-40789.1	955.818	-29789.2	0.000000	0.000000	7.133225	0.131357	NaN	0.000000	0.001574	0.001768	28.1328	0.318665	0.001998	159.486	17.4281	14.749	0.158039	1.131624	-0.005374	-0.006745	0.131357	159.486	-0.005992	-0.004032	-32.5824	NaN
43	1.000000	1.142956	7.36547e+06	-40789.1	955.818	-29789.2	0.000000	0.000000	7.143318	3.330405	NaN	0.000000	0.001627	0.001732	28.0981	4.216989	0.001822	2314.32	11.9822	-173.131	1.874176	1.141670	0.004587	0.003301	3.330405	2314.32	0.003508	0.002812	1184.5	39876.4
43	2.000000	1.148954	7.36547e+06	-40789.1	955.819	-29789.2	0.000000	0.000000	7.149639	11.1923	NaN	0.000000	0.001612	0.001746	28.0812	10.1274	0.001468	6899.63	4.531684	6.794076	10.4457	1.148636	0.010585	0.010267	11.1923	6899.63	0.009368	0.008488	1318.65	68423.4
43	2.000000	1.151444	7.36547e+06	-40789.1	955.817	-29789.2	0.000000	0.000000	7.152323	15.9019	NaN	0.000000	0.001579	0.001729	28.098	14.6424	0.001796	8153.98	11.9105	179.931	15.6176	1.151112	0.013075	0.012744	15.9019	8153.98	0.011613	0.011030	1441.76	70935.6
43	2.000000	1.153947	7.36547e+06	-40789.1	955.818	-29789.2	0.000000	0.000000	7.155026	20.7586	NaN	0.000000	0.001605	0.001762	28.1317	17.0289	0.001719	9903.8	10.0011	-0.069405	19.9827	1.153500	0.015578	0.015131	20.7586	9903.8	0.014006	0.013983	1484.57	76520.2
43	2.000000	1.156389	7.36547e+06	-40789.1	955.818	-29789.2	0.000000	0.000000	7.157772	28.1761	NaN	0.000000	0.001597	0.001765	28.0982	19.7865	0.001787	11073.7	6.309759	-177.337	26.9994	1.156065	0.018020	0.017696	28.1761	11073.7	0.016112	0.016796	1677.51	78065.4
43	2.000000	1.158879	7.36547e+06	-40789.1	955.819	-29789.2	0.000000	0.000000	7.160532	34.7364	NaN	0.000000	0.001704	0.001727	28.0814	23.4019	0.001775	13184.2	7.230473	-0.640210	32.2616	1.158527	0.020510	0.020158	34.7364	13184.2	0.018534	0.020291	1711.92	84562.1
43	2.000000	1.161344	7.36547e+06	-40789.1	955.818	-29789.2	0.000000	0.000000	7.163437	45.4606	NaN	0.000000	0.001687	0.001760	28.0989	25.2417	0.001723	14653.9	2.756885	-177.217	42.8651	1.161046	0.022975	0.022677	45.4606	14653.9	0.020648	0.023571	1928.68	87204.4
43	2.000000	1.163914	7.36547e+06	-40789.1	955.819	-29789.2	0.000000	0.000000	7.166125	48.3222	NaN	0.000000	0.001694	0.001740	28.1328	27.9383	0.001782	15677	5.587019	0.534800	46.8803	1.163511	0.025545	0.025143	48.3222	15677	0.023233	0.027880	1733.23	85780.7
43	2.000000	1.166398	7.36547e+06	-40789.1	955.817	-29789.2	0.000000	0.000000	7.168936	56.2793	NaN	0.000000	0.001673	0.001752	28.1	30.2844	0.001817	16663.9	6.234337	179.688	56.2108	1.166024	0.028029	0.027655	56.2793	16663.9	0.025496	0.031924	1762.92	85210.1
43	2.000000	1.168873	7.36547e+06	-40789.1	955.818	-29789.2	0.000000	0.000000	7.171587	60.5534	NaN	0.000000	0.001693	0.001723	28.0816	33.8112	0.001866	18117.3	6.785835	-2.612399	59.7074	1.168549	0.030504	0.030180	60.5534	18117.3	0.027997	0.036694	1650.21	86410.7
43	2.000000	1.171307	7.36547e+06	-40789.1	955.817	-29789.2	0.000000	0.000000	7.174385	69.4054	NaN	0.000000	0.001576	0.001690	28.0983	36.1103	0.001818	19862	7.219146	175.916	66.3786	1.171146	0.032938	0.032777	69.4054	19862	0.030317	0.041403	1676.33	89182.5
43	2.000000	1.173821	7.36547e+06	-40789.1	955.818	-29789.2	0.000000	0.000000	7.177510	84.2788	NaN	0.000000	0.001587	0.001727	28.1314	37.3755	0.001759	21248.7	2.481310	0.865091	79.0021	1.173421	0.035452	0.035052	84.2788	21248.7	0.032477	0.046035	1830.74	90481.4
43	2.000000	1.176286	7.36547e+06	-40789.1	955.818	-29789.2	0.000000	0.000000	7.180178	89.2213	NaN	0.000000	0.001607	0.001750	28.097	39.9619	0.001863	21452.7	3.590074	179.437	86.1906	1.175993	0.037917	0.037624	89.2213	21452.7	0.034797	0.051275	1740.04	86556.8
43	2.000000	1.178819	7.36547e+06	-40789.1	955.818	-29789.2	0.000000	0.000000	7.183256	102.503	NaN	0.000000	0.001575	0.001747	28.0808	43.0749	0.001851	23276.3	5.243182	-2.882128	99.4359	1.178480	0.040450	0.040111	102.503	23276.3	0.037147	0.056863	1802.65	89181.3
43	2.000000	1.181426	7.36547e+06	-40789.1	955.817	-29789.2	0.000000	0.000000	7.186116	108.641	NaN	0.000000	0.001576	0.001745	28.098	46.0432	0.001879	24503.9	5.828103	176.134	112.199	1.181084	0.043057	0.042715	108.641	24503.9	0.039732	0.063337	1715.29	88957
43	2.000000	1.183817	7.36547e+06	-40789.1	955.818	-29789.2	0.000000	0.000000	7.188995	120.523	NaN	0.000000	0.001608	0.001751	28.1318	47.5457	0.001935	24575.6	6.171827	-4.238903	116.125	1.183424	0.045448	0.045055	120.523	24575.6	0.041770	0.068682	1754.8	85675.3
43	2.000000	1.186394	7.36547e+06	-40789.1	955.817	-29789.2	0.000000	0.000000	7.191962	129.994	NaN	0.000000	0.001603	0.001768	28.0987	49.403	0.001813	27252.9	7.720288	172.889	130.272	1.186024	0.048025	0.047655	129.994	27252.9	0.044448	0.076027	1709.83	90302.9
43	2.000000	1.188852	7.36547e+06	-40789.1	955.819	-29789.2	0.000000	0.000000	7.194734	137.65	NaN	0.000000	0.001583	0.001748	28.0803	51.7791	0.001806	28671.4	5.387793	-5.840486	137.815	1.188622	0.050483	0.050253	137.65	28671.4	0.046882	0.083019	1658.04	90914.3
43	2.000000	1.191335	7.36547e+06	-40789.1	955.818	-29789.2	0.000000	0.000000	7.197914	154.605	NaN	0.000000	0.001560	0.001745	28.0965	55.0366	0.001687	32623.6	8.161261	170.24	152.755	1.191008	0.052966	0.052639	154.605	32623.6	0.049412	0.090603	1706.39	99022.4
43	2.000000	1.193839	7.36547e+06	-40789.1	955.817	-29789.2	0.000000	0.000000	7.200851	165.146	NaN	0.000000	0.001613	0.001749	28.1305	56.1022	0.001887	29726.7	3.173199	-2.501800	163.367	1.193520	0.055470	0.055151	165.146	29726.7	0.051303	0.096484	1711.63	87436.1
43	2.000000	1.196286	7.36547e+06	-40789.1	955.819	-29789.2	0.000000	0.000000	7.204032	183.008	NaN	0.000000	0.001598	0.001755	28.097	58.0937	0.001661	34969.7	5.217153	172.915	181.251	1.196006	0.057917	0.057637	183.008	34969.7	0.053992	0.105151	1740.43	98527.8
43	2.000000	1.198804	7.36547e+06	-40789.1	955.817	-29789.2	0.000000	0.000000	7.206948	192.686	NaN	0.000000	0.001570	0.001809	28.0806	61.5166	0.001760	34952.8	1.812842	-3.296098	190.509	1.198441	0.060435	0.060072	192.686	34952.8	0.056300	0.112876	1707.06	95050.5
43	2.000000	1.201294	7.36547e+06	-40789.1	955.818	-29789.2	0.000000	0.000000	7.210032	207.121	NaN	0.000000	0.001573	0.001748	28.0975	64.5984	0.001824	35417.9	3.975163	174.467	205.534	1.201052	0.062925	0.062683	207.121	35417.9	0.058539	0.120623	1717.09	93171.1
43	2.000000	1.203883	7.36547e+06	-40789.1	955.817	-29789.2	0.000000	0.000000	7.213170	220.479	NaN	0.000000	0.001607	0.001729	28.1314	65.3742	0.001776	36812.5	1.844871	-3.075135	221.602	1.203550	0.065514	0.065181	220.479	36812.5	0.061023	0.129500	1702.53	93461.4
43	2.000000	1.206320	7.36547e+06	-40789.1	955.817	-29789.2	0.000000	0.000000	7.216304	237.455	NaN	0.000000	0.001605	0.001776	28.0986	68.3723	0.001822	37519.1	7.070844	171.233	237.528	1.205915	0.067951	0.067546	237.455	37519.1	0.063204	0.137549	1726.33	92426.5
43	2.000000	1.208746	7.36547e+06	-40789.1	955.818	-29789.2	0.000000	0.000000	7.219389	253.495	NaN	0.000000	0.001608	0.001759	28.0805	70.6896	0.001811	39023	8.146425	-10.058	248.734	1.208396	0.070377	0.070027	253.495	39023	0.065505	0.146286	1732.87	93216.5
43	2.000000	1.211233	7.36547e+06	-40789.1	955.818	-29789.2	0.000000	0.000000	7.222359	265.249	NaN	0.000000	0.001605	0.001759	28.0969	72.459	0.001839	39402.1	4.262948	173.819	260.705	1.210929	0.072864	0.072560	265.249	39402.1	0.067815	0.155315	1707.82	91345.3
43	2.000000	1.213793	7.36547e+06	-40789.1	955.817	-29789.2	0.000000	0.000000	7.225711	284.52	NaN	0.000000	0.001604	0.001721	28.1315	73.6101	0.001929	38154.7	4.659467	-5.665430	279.124	1.213390	0.075424	0.075021	284.52	38154.7	0.069831	0.163402	1741.23	86236.7
43	2.000000	1.216372	7.36547e+06	-40789.1	955.819	-29789.2	0.000000	0.000000	7.228648	293.229	NaN	0.000000	0.001618	0.001754	28.0992	75.45	0.001723	43796.9	6.181094	171.174	298.491	1.215955	0.078003	0.077586	293.229	43796.9	0.072982	0.176429	1662.03	95264.8
43	2.000000	1.218816	7.36547e+06	-40789.1	955.819	-29789.2	0.000000	0.000000	7.231883	312.49	NaN	0.000000	0.001632	0.001750	28.0824	79.6527	0.001710	46584.9	8.099956	-11.6601	310.981	1.218369	0.080447	0.080000	312.49	46584.9	0.075416	0.186814	1672.73	98472
43	2.000000	1.221273	7.36547e+06	-40789.1	955.818	-29789.2	0.000000	0.000000	7.234787	323.345	NaN	0.000000	0.001624	0.001739	28.0985	83.1443	0.001901	43747.1	6.037553	170.904	321.491	1.220880	0.082905	0.082511	323.345	43747.1	0.077361	0.195314	1655.51	90438.9
43	2.000000	1.223819	7.36547e+06	-40789.1	955.818	-29789.2	0.000000	0.000000	7.238104	342.109	NaN	0.000000	0.001626	0.001728	28.1326	84.5262	0.001825	46306.7	3.192575	-6.150322	341.347	1.223430	0.085450	0.085061	342.109	46306.7	0.079909	0.206717	1654.96	93052.6
43	2.000000	1.226371	7.36547e+06	-40789.1	955.818	-29789.2	0.000000	0.000000	7.241304	357.885	NaN	0.000000	0.001604	0.001744	28.0997	86.7637	0.001839	47190.4	4.145800	172.624	360.882	1.226022	0.088002	0.087653	357.885	47190.4	0.082314	0.217756	1643.51	92393.6
43	2.000000	1.228770	7.36547e+06	-40789.1	955.818	-29789.2	0.000000	0.000000	7.244293	372.236	NaN	0.000000	0.001584	0.001755	28.0807	88.7212	0.001852	47910.2	0.651239	-4.162817	368.456	1.228482	0.090401	0.090113	372.236	47910.2	0.084574	0.228375	1629.93	91596
43	2.000000	1.231313	7.36547e+06	-40789.1	955.817	-29789.2	0.000000	0.000000	7.247648	391.99	NaN	0.000000	0.001608	0.001764	28.0966	91.5873	0.001865	49096.3	3.443606	172.692	392.687	1.230999	0.092944	0.092630	391.99	49096.3	0.086956	0.239823	1634.5	91596.1
43	2.000000	1.233805	7.36547e+06	-40789.1	955.818	-29789.2	0.000000	0.000000	7.251216	418.157	NaN	0.000000	0.001582	0.001749	28.1315	93.4231	0.001813	51523.4	6.994227	-10.9177	415.953	1.233417	0.095436	0.095048	418.157	51523.4	0.089350	0.251587	1662.08	93850
43	2.000000	1.236254	7.36547e+06	-40789.1	955.818	-29789.2	0.000000	0.000000	7.254133	429.575	NaN	0.000000	0.001578	0.001782	28.0989	93.8542	0.001667	56314.6	5.016069	170.54	428.361	1.236033	0.097885	0.097664	429.575	56314.6	0.092164	0.265757	1616.42	99805.1
43	2.000000	1.238730	7.36547e+06	-40789.1	955.819	-29789.2	0.000000	0.000000	7.257742	457.146	NaN	0.000000	0.001593	0.001756	28.0821	98.2016	0.001829	53677	6.396100	-11.0379	452.388	1.238408	0.100361	0.100039	457.146	53677	0.093973	0.275060	1661.99	93507.8
43	2.000000	1.241211	7.36547e+06	-40789.1	955.819	-29789.2	0.000000	0.000000	7.261025	476.631	NaN	0.000000	0.001587	0.001744	28.0973	99.6408	0.001806	55159.8	5.728802	169.979	472.396	1.240870	0.102842	0.102501	476.631	55159.8	0.096362	0.287567	1657.46	93978.1
43	2.000000	1.243768	7.36547e+06	-40789.1	955.819	-29789.2	0.000000	0.000000	7.263953	485.674	NaN	0.000000	0.001586	0.001750	28.1323	101.396	0.001760	57608.5	7.736979	-12.2003	482.341	1.243506	0.105399	0.105137	485.674	57608.5	0.099076	0.302098	1607.67	95760.4
43	2.000000	1.246177	7.36547e+06	-40789.1	955.818	-29789.2	0.000000	0.000000	7.267282	508.069	NaN	0.000000	0.001581	0.001752	28.0988	103.15	0.001778	58023.3	3.667579	171.78	501.582	1.245877	0.107808	0.107508	508.069	58023.3	0.101241	0.313924	1618.45	94615.7