File: remote_trans/data/nanoindenter/0828-1/data/Data_2025-08-06,11h17m57s/2025-07-22_16-23-58_1_1145.txt
2025-07-22, 16:23:58, 1
Index	Phase	Displacement	Time	Pos X	Pos Y	Pos Z	Rot A	Rot B	Piezo Z	Force A	Force B	Gripper	Voltage A	Voltage B	Temperature	Amplitude force	Amplitude pos	Stiffness	Phase shift	Phase excitation	Force A raw	Displacement raw	HMax	HMax raw	Real Force	Real Stiffness	Contact Depth	Area	Hardness	Reduced Mod.
[#]	[#]	[um]	[s]	[um]	[um]	[um]	[m°]	[m°]	[um]	[uN]	[uN]	[V]	[V]	[V]	[°C]	[uN]	[um]	[N/m]	[°]	[°]	[uN]	[um]	[um]	[um]	[uN]	[N/m]	[um]	[um^2]	[MPa]	[MPa]
1145	1.000000	0.002508	7.37625e+06	-57389.1	1055.82	-29737	0.000000	0.000000	6.002819	-0.094379	NaN	0.000000	0.001679	0.001693	28.082	0.083675	0.000880	95.113	25.1697	-167.847	-0.106364	0.001210	-1.044123	-1.045421	-0.094379	95.113	-1.043378	-8.697491E+13	1.085132E-15	NaN
1145	1.000000	0.010453	7.37625e+06	-57389.1	1055.82	-29737	0.000000	0.000000	6.010765	-0.058557	NaN	0.000000	0.001655	0.001674	28.0818	0.059364	0.000905	65.6155	179.954	-168.926	0.046030	0.009105	-1.036178	-1.037526	-0.058557	65.6155	-1.035509	-6.816626E+13	8.590247E-16	NaN
1145	1.000000	0.018487	7.37625e+06	-57389.1	1055.82	-29737	0.000000	0.000000	6.018802	0.008710	NaN	0.000000	0.001664	0.001687	28.082	0.041996	0.001820	23.0732	-164.265	-168.451	-0.056736	0.017124	-1.028144	-1.029507	0.008710	23.0732	-1.028427	-5.474242E+13	-1.591039E-16	NaN
1145	1.000000	0.026483	7.37625e+06	-57389.1	1055.82	-29737	0.000000	0.000000	6.026797	-0.028819	NaN	0.000000	0.001659	0.001705	28.0821	0.066245	0.001970	33.6196	134.296	-166.895	0.007319	0.025148	-1.020148	-1.021484	-0.028819	33.6196	-1.019505	-4.152306E+13	6.940366E-16	NaN
1145	1.000000	0.034414	7.37625e+06	-57389.1	1055.82	-29737	0.000000	0.000000	6.034728	-0.015707	NaN	0.000000	0.001680	0.001668	28.0819	0.124890	0.001888	66.1429	-47.236	-164.619	0.076730	0.033173	-1.012217	-1.013458	-0.015707	66.1429	-1.012039	-3.294793E+13	4.767079E-16	NaN
1145	1.000000	0.042452	7.37625e+06	-57389.1	1055.82	-29737	0.000000	0.000000	6.042767	0.000935	NaN	0.000000	0.001679	0.001708	28.0821	0.088433	0.002082	42.4793	-19.8725	-166.702	-0.071540	0.041176	-1.004179	-1.005455	0.000935	42.4793	-1.004195	-2.583750E+13	-3.618256E-17	NaN
1145	1.000000	0.050446	7.37625e+06	-57389.1	1055.82	-29737	0.000000	0.000000	6.050763	0.039188	NaN	0.000000	0.001672	0.001686	28.0819	0.107991	0.002051	52.6653	-126.028	-164.975	0.005160	0.049120	-0.996185	-0.997511	0.039188	52.6653	-0.996743	-2.050757E+13	-1.910914E-15	NaN
1145	1.000000	0.058426	7.37625e+06	-57389.1	1055.82	-29737	0.000000	0.000000	6.058743	0.057222	NaN	0.000000	0.001706	0.001709	28.0822	0.068089	0.002026	33.6043	-43.231	-166.4	-0.015245	0.057122	-0.988205	-0.989509	0.057222	33.6043	-0.989482	-1.637337E+13	-3.494847E-15	NaN
1145	1.000000	0.066426	7.37625e+06	-57389.1	1055.82	-29737	0.000000	0.000000	6.066740	-0.004338	NaN	0.000000	0.001690	0.001696	28.0819	0.060555	0.001924	31.4766	103.446	-164.466	-0.018009	0.065130	-0.980205	-0.981501	-0.004338	31.4766	-0.980102	-1.224006E+13	3.543897E-16	NaN
1145	1.000000	0.074475	7.37625e+06	-57389.1	1055.82	-29737	0.000000	0.000000	6.074789	-0.001970	NaN	0.000000	0.001665	0.001713	28.0817	0.044608	0.002019	22.0912	-123.037	-164.57	-0.009412	0.073124	-0.972156	-0.973507	-0.001970	22.0912	-0.972089	-9.545981E+12	2.063601E-16	NaN
1145	1.000000	0.082429	7.37625e+06	-57389.1	1055.82	-29737	0.000000	0.000000	6.082742	-0.022430	NaN	0.000000	0.001673	0.001714	28.0822	0.056376	0.002018	27.9322	177.527	-164.249	0.068789	0.081108	-0.964203	-0.965523	-0.022430	27.9322	-0.963600	-7.335071E+12	3.057968E-15	NaN
1145	1.000000	0.090443	7.37625e+06	-57389.1	1055.82	-29737	0.000000	0.000000	6.090758	0.004560	NaN	0.000000	0.001690	0.001683	28.0823	0.038257	0.001971	19.4106	-90.7492	-167.349	-0.009828	0.089139	-0.956188	-0.957493	0.004560	19.4106	-0.956364	-5.859395E+12	-7.782649E-16	NaN
1145	1.000000	0.098446	7.37625e+06	-57389.1	1055.82	-29737	0.000000	0.000000	6.098760	-0.003907	NaN	0.000000	0.001711	0.001704	28.0833	0.059469	0.001960	30.344	158.584	-168.245	0.031063	0.097190	-0.948185	-0.949441	-0.003907	30.344	-0.948089	-4.531574E+12	8.622093E-16	NaN
1145	1.000000	0.106491	7.37626e+06	-57389.1	1055.82	-29737	0.000000	0.000000	6.106806	-0.010912	NaN	0.000000	0.001695	0.001698	28.0833	0.048774	0.002008	24.288	112.804	-163.702	0.015693	0.105113	-0.940140	-0.941518	-0.010912	24.288	-0.939803	-3.503279E+12	3.114711E-15	NaN
1145	1.000000	0.114470	7.37626e+06	-57389.1	1055.82	-29737	0.000000	0.000000	6.114784	-0.008307	NaN	0.000000	0.001715	0.001694	28.083	0.053535	0.001929	27.758	-118.455	-167.246	-0.042277	0.113143	-0.932162	-0.933488	-0.008307	27.758	-0.931937	-2.743721E+12	3.027598E-15	NaN
1145	1.000000	0.122483	7.37626e+06	-57389.1	1055.82	-29737	0.000000	0.000000	6.122795	-0.065958	NaN	0.000000	0.001699	0.001694	28.0833	0.060550	0.001961	30.8801	-174.881	-171.359	0.057968	0.121189	-0.924149	-0.925442	-0.065958	30.8801	-0.922547	-2.049216E+12	3.218709E-14	NaN
1145	1.000000	0.130469	7.37626e+06	-57389.1	1055.82	-29737	0.000000	0.000000	6.130788	0.090995	NaN	0.000000	0.001698	0.001731	28.0832	0.032685	0.001958	16.6897	40.7217	-162.228	0.043893	0.129141	-0.916162	-0.917490	0.090995	16.6897	-0.920251	-1.908066E+12	-4.768942E-14	NaN
1145	1.000000	0.138486	7.37626e+06	-57389.1	1055.82	-29737	0.000000	0.000000	6.138803	0.055907	NaN	0.000000	0.001737	0.001688	28.0835	0.047567	0.002035	23.3708	135.846	-166.215	0.033705	0.137120	-0.908145	-0.909511	0.055907	23.3708	-0.909940	-1.384674E+12	-4.037589E-14	NaN
1145	1.000000	0.146470	7.37626e+06	-57389.1	1055.82	-29737	0.000000	0.000000	6.146783	-0.029166	NaN	0.000000	0.001683	0.001712	28.0833	0.040615	0.001994	20.3665	-116.232	-163.988	-0.034270	0.145175	-0.900162	-0.901456	-0.029166	20.3665	-0.899088	-9.879534E+11	2.952185E-14	NaN
1145	1.000000	0.154478	7.37626e+06	-57389.1	1055.82	-29737	0.000000	0.000000	6.154794	0.043388	NaN	0.000000	0.001704	0.001713	28.0834	0.093357	0.002022	46.1696	118.35	-163.303	0.004067	0.153141	-0.892153	-0.893490	0.043388	46.1696	-0.892858	-8.138592E+11	-5.331083E-14	NaN
1145	1.000000	0.162444	7.37626e+06	-57389.1	1055.82	-29737	0.000000	0.000000	6.162761	0.053232	NaN	0.000000	0.001712	0.001713	28.0835	0.083270	0.001960	42.476	-140.565	-167.326	0.039168	0.161193	-0.884187	-0.885438	0.053232	42.476	-0.885127	-6.397954E+11	-8.320112E-14	NaN
1145	1.000000	0.170487	7.37626e+06	-57389.1	1055.82	-29737	0.000000	0.000000	6.170801	-0.018449	NaN	0.000000	0.001668	0.001724	28.0834	0.070010	0.002040	34.3256	171.414	-165.229	0.021021	0.169164	-0.876144	-0.877467	-0.018449	34.3256	-0.875741	-4.776483E+11	3.862513E-14	NaN
1145	1.000000	0.178462	7.37626e+06	-57389.1	1055.82	-29737	0.000000	0.000000	6.178778	0.037983	NaN	0.000000	0.001688	0.001695	28.0835	0.028387	0.001952	14.5457	-159.954	-164.373	-0.009961	0.177175	-0.868169	-0.869456	0.037983	14.5457	-0.870128	-4.010282E+11	-9.471513E-14	NaN
1145	1.000000	0.186504	7.37626e+06	-57389.1	1055.82	-29737	0.000000	0.000000	6.186818	-0.009780	NaN	0.000000	0.001690	0.001683	28.0834	0.105401	0.002121	49.7032	-46.9616	-167.509	-0.016817	0.185180	-0.860127	-0.861451	-0.009780	49.7032	-0.859980	-2.923099E+11	3.345843E-14	NaN
1145	1.000000	0.194473	7.37626e+06	-57389.1	1055.82	-29737	0.000000	0.000000	6.194788	-0.012106	NaN	0.000000	0.001695	0.001703	28.0834	0.040116	0.002036	19.7035	-3.696500	-165.861	-0.095653	0.193198	-0.852158	-0.853433	-0.012106	19.7035	-0.851697	-2.257949E+11	5.361384E-14	NaN
1145	1.000000	0.202512	7.37626e+06	-57389.1	1055.82	-29737	0.000000	0.000000	6.202826	-0.001384	NaN	0.000000	0.001721	0.001720	28.0833	0.056574	0.001995	28.3524	-99.6845	-162.819	0.027457	0.201205	-0.844120	-0.845426	-0.001384	28.3524	-0.844083	-1.780745E+11	7.773982E-15	NaN
1145	1.000000	0.210480	7.37626e+06	-57389.1	1055.82	-29737	0.000000	0.000000	6.210794	-0.013767	NaN	0.000000	0.001649	0.001703	28.0835	0.031806	0.001986	16.0142	17.6309	-166.263	0.029155	0.209162	-0.836151	-0.837469	-0.013767	16.0142	-0.835507	-1.362737E+11	1.010238E-13	NaN
1145	1.000000	0.218520	7.37626e+06	-57389.1	1055.82	-29737	0.000000	0.000000	6.218831	-0.072931	NaN	0.000000	0.001627	0.001683	28.0833	0.077500	0.002039	38.0043	-30.106	-167.462	-0.128178	0.217187	-0.828112	-0.829445	-0.072931	38.0043	-0.826672	-1.034372E+11	7.050756E-13	NaN
1145	1.000000	0.226520	7.37626e+06	-57389.1	1055.82	-29737	0.000000	0.000000	6.226836	0.026630	NaN	0.000000	0.001684	0.001703	28.0834	0.038731	0.001934	20.0304	137.176	-165.675	0.043081	0.225180	-0.820111	-0.821451	0.026630	20.0304	-0.821108	-8.694273E+10	-3.062909E-13	NaN
1145	1.000000	0.234508	7.37626e+06	-57389.1	1055.82	-29737	0.000000	0.000000	6.234821	-0.037730	NaN	0.000000	0.001677	0.001719	28.082	0.029316	0.002146	13.6637	131.98	-167.946	-0.097918	0.233191	-0.812123	-0.813440	-0.037730	13.6637	-0.810052	-6.155694E+10	6.129350E-13	NaN
1145	1.000000	0.242539	7.37626e+06	-57389.1	1055.82	-29737	0.000000	0.000000	6.242855	0.017923	NaN	0.000000	0.001686	0.001693	28.0818	0.059477	0.001943	30.6047	45.7303	-168.42	0.004845	0.241195	-0.804092	-0.805436	0.017923	30.6047	-0.804531	-5.180340E+10	-3.459754E-13	NaN
1145	1.000000	0.250527	7.37626e+06	-57389.1	1055.82	-29737	0.000000	0.000000	6.250842	0.021498	NaN	0.000000	0.001683	0.001695	28.082	0.069404	0.001971	35.2185	-72.3392	-165.704	0.048959	0.249211	-0.796104	-0.797420	0.021498	35.2185	-0.796562	-4.038224E+10	-5.323577E-13	NaN
1145	1.000000	0.258515	7.37626e+06	-57389.1	1055.82	-29737	0.000000	0.000000	6.258830	0.006482	NaN	0.000000	0.001691	0.001726	28.0818	0.077481	0.001901	40.7668	-25.8193	-165.072	-0.046227	0.257201	-0.788116	-0.789430	0.006482	40.7668	-0.788235	-3.112506E+10	-2.082664E-13	NaN
1145	1.000000	0.266522	7.37626e+06	-57389.1	1055.82	-29737	0.000000	0.000000	6.266836	-0.019718	NaN	0.000000	0.001638	0.001743	28.082	0.115053	0.002004	57.4109	-125.474	-164.532	-0.127292	0.265244	-0.780109	-0.781387	-0.019718	57.4109	-0.779852	-2.394496E+10	8.234782E-13	NaN
1145	1.000000	0.274550	7.37626e+06	-57389.1	1055.82	-29737	0.000000	0.000000	6.274861	-0.084947	NaN	0.000000	0.001638	0.001713	28.0819	0.048065	0.001958	24.5538	13.1608	-163.915	0.019476	0.273149	-0.772081	-0.773482	-0.084947	24.5538	-0.769486	-1.731090E+10	4.907128E-12	NaN
1145	1.000000	0.282514	7.37626e+06	-57389.1	1055.82	-29737	0.000000	0.000000	6.282830	0.029386	NaN	0.000000	0.001632	0.001701	28.0819	0.075127	0.002079	36.1383	-41.0168	-165.116	0.016261	0.281218	-0.764117	-0.765413	0.029386	36.1383	-0.764727	-1.491416E+10	-1.970343E-12	NaN
1145	1.000000	0.290538	7.37626e+06	-57389.1	1055.82	-29737	0.000000	0.000000	6.290852	-0.014218	NaN	0.000000	0.001645	0.001728	28.0819	0.038387	0.002059	18.6436	75.1507	-161.936	-0.044518	0.289299	-0.756093	-0.757332	-0.014218	18.6436	-0.755521	-1.117785E+10	1.271964E-12	NaN
1145	1.000000	0.298575	7.37626e+06	-57389.1	1055.82	-29737	0.000000	0.000000	6.298888	-0.042750	NaN	0.000000	0.001661	0.001710	28.0819	0.054388	0.001954	27.8308	15.3804	-162.827	-0.066722	0.297134	-0.748056	-0.749497	-0.042750	27.8308	-0.746904	-8.532401E+9	5.010271E-12	NaN
1145	1.000000	0.306541	7.37626e+06	-57389.1	1055.82	-29737	0.000000	0.000000	6.306856	0.020907	NaN	0.000000	0.001685	0.001712	28.0821	0.040566	0.002119	19.1416	137.72	-165.047	0.025594	0.305241	-0.740090	-0.741390	0.020907	19.1416	-0.740909	-7.070374E+9	-2.956935E-12	NaN
1145	1.000000	0.314538	7.37626e+06	-57389.1	1055.82	-29737	0.000000	0.000000	6.314852	-0.037113	NaN	0.000000	0.001698	0.001730	28.082	0.092565	0.002210	41.8774	120.093	-168.815	-0.127997	0.313241	-0.732093	-0.733390	-0.037113	41.8774	-0.731428	-5.251341E+9	7.067329E-12	NaN
1145	1.000000	0.322546	7.37626e+06	-57389.1	1055.82	-29737	0.000000	0.000000	6.322859	-0.031458	NaN	0.000000	0.001643	0.001709	28.0821	0.071139	0.001959	36.3168	-23.3138	-171.291	-0.007444	0.321226	-0.724085	-0.725405	-0.031458	36.3168	-0.723436	-4.086250E+9	7.698391E-12	NaN
1145	1.000000	0.330520	7.37626e+06	-57389.1	1055.82	-29737	0.000000	0.000000	6.330837	0.057107	NaN	0.000000	0.001625	0.001737	28.082	0.113303	0.001947	58.2034	112.458	-166.667	0.068686	0.329245	-0.716111	-0.717386	0.057107	58.2034	-0.716847	-3.322544E+9	-1.718773E-11	NaN
1145	1.000000	0.338571	7.37626e+06	-57389.1	1055.82	-29737	0.000000	0.000000	6.338886	0.021835	NaN	0.000000	0.001651	0.001699	28.082	0.136308	0.001947	70.0166	8.185927	-167.274	-0.011030	0.337272	-0.708061	-0.709359	0.021835	70.0166	-0.708294	-2.539638E+9	-8.597722E-12	NaN
1145	1.000000	0.346573	7.37626e+06	-57389.1	1055.82	-29737	0.000000	0.000000	6.346890	0.057591	NaN	0.000000	0.001638	0.001705	28.0818	0.019037	0.002054	9.268928	122.985	-166.211	0.029516	0.345265	-0.700058	-0.701366	0.057591	9.268928	-0.704718	-2.269620E+9	-2.537459E-11	NaN
1145	1.000000	0.354560	7.37626e+06	-57389.1	1055.82	-29737	0.000000	0.000000	6.354877	0.049899	NaN	0.000000	0.001641	0.001718	28.0817	0.077831	0.002102	37.0296	82.1702	-167.59	0.018096	0.353315	-0.692071	-0.693316	0.049899	37.0296	-0.693081	-1.574068E+9	-3.170050E-11	NaN
1145	1.000000	0.362552	7.37626e+06	-57389.1	1055.82	-29737	0.000000	0.000000	6.362867	0.018244	NaN	0.000000	0.001642	0.001692	28.0819	0.123645	0.002017	61.2885	-153.568	-163.099	0.053817	0.361240	-0.684079	-0.685392	0.018244	61.2885	-0.684302	-1.194093E+9	-1.527893E-11	NaN
1145	1.000000	0.370578	7.37626e+06	-57389.1	1055.82	-29737	0.000000	0.000000	6.370892	-0.011572	NaN	0.000000	0.001663	0.001724	28.0829	0.030043	0.002062	14.5718	115.028	-167.016	-0.028682	0.369267	-0.676054	-0.677364	-0.011572	14.5718	-0.675458	-9.038074E+8	1.280363E-11	NaN
1145	1.000000	0.378543	7.37626e+06	-57389.1	1055.82	-29737	0.000000	0.000000	6.378861	0.077744	NaN	0.000000	0.001692	0.001707	28.083	0.088577	0.002008	44.1126	-87.2445	-163.588	0.061023	0.377274	-0.668088	-0.669357	0.077744	44.1126	-0.669409	-7.469779E+8	-1.040777E-10	NaN
1145	1.000000	0.386562	7.37626e+06	-57389.1	1055.82	-29737	0.000000	0.000000	6.386874	-0.060128	NaN	0.000000	0.001749	0.001713	28.0831	0.060623	0.002132	28.4379	-159.045	-167.636	-0.058015	0.385240	-0.660069	-0.661391	-0.060128	28.4379	-0.658483	-5.292864E+8	1.136026E-10	NaN
1145	1.000000	0.394566	7.37626e+06	-57389.1	1055.82	-29737	0.000000	0.000000	6.394880	-0.025950	NaN	0.000000	0.001746	0.001636	28.0831	0.075425	0.001930	39.0795	-177.113	-163.691	-0.054140	0.393233	-0.652065	-0.653398	-0.025950	39.0795	-0.651567	-4.255129E+8	6.098469E-11	NaN
1145	1.000000	0.402594	7.37626e+06	-57389.1	1055.82	-29737	0.000000	0.000000	6.402908	-0.019378	NaN	0.000000	0.001742	0.001685	28.0833	0.076571	0.002165	35.3664	124.419	-165.388	0.036739	0.401265	-0.644037	-0.645366	-0.019378	35.3664	-0.643626	-3.311564E+8	5.851604E-11	NaN
1145	1.000000	0.410564	7.37626e+06	-57389.1	1055.82	-29737	0.000000	0.000000	6.410874	-0.094365	NaN	0.000000	0.001710	0.001716	28.0832	0.089743	0.002062	43.5205	-168.053	-165.496	-0.083788	0.409231	-0.636067	-0.637400	-0.094365	43.5205	-0.634441	-2.477434E+8	3.808990E-10	NaN
1145	1.000000	0.418585	7.37626e+06	-57389.1	1055.82	-29737	0.000000	0.000000	6.418899	-0.019287	NaN	0.000000	0.001692	0.001707	28.0832	0.015721	0.001929	8.149702	-53.822	-165.377	0.006836	0.417302	-0.628046	-0.629329	-0.019287	8.149702	-0.626271	-1.913429E+8	1.007991E-10	NaN
1145	1.000000	0.426606	7.37626e+06	-57389.1	1055.82	-29737	0.000000	0.000000	6.426919	-0.052077	NaN	0.000000	0.001681	0.001716	28.0832	0.079767	0.001963	40.6301	150.202	-165.891	-0.062284	0.425310	-0.620025	-0.621321	-0.052077	40.6301	-0.619063	-1.523210E+8	3.418914E-10	NaN
1145	1.000000	0.434585	7.37626e+06	-57389.1	1055.82	-29737	0.000000	0.000000	6.434897	-0.066955	NaN	0.000000	0.001701	0.001695	28.0832	0.042761	0.001976	21.6397	-79.2934	-167.466	-0.054632	0.433355	-0.612046	-0.613276	-0.066955	21.6397	-0.609726	-1.133287E+8	5.908076E-10	NaN
1145	1.000000	0.442590	7.37626e+06	-57389.1	1055.82	-29737	0.000000	0.000000	6.442905	0.012670	NaN	0.000000	0.001717	0.001680	28.0834	0.097238	0.002118	45.9151	-47.8305	-167.496	-0.064889	0.441335	-0.604041	-0.605296	0.012670	45.9151	-0.604248	-9.527021E+7	-1.329944E-10	NaN
1145	1.000000	0.450596	7.37626e+06	-57389.1	1055.82	-29737	0.000000	0.000000	6.450910	-0.015732	NaN	0.000000	0.001732	0.001667	28.0834	0.053528	0.002005	26.7015	-141.225	-170.088	-0.006599	0.449314	-0.596035	-0.597317	-0.015732	26.7015	-0.595593	-7.240253E+7	2.172830E-10	NaN
1145	1.000000	0.458607	7.37626e+06	-57389.1	1055.82	-29737	0.000000	0.000000	6.458922	-0.013471	NaN	0.000000	0.001746	0.001718	28.0833	0.064145	0.001969	32.5702	-172.037	-165.75	-0.002926	0.457305	-0.588024	-0.589326	-0.013471	32.5702	-0.587713	-5.638167E+7	2.389263E-10	NaN
1145	1.000000	0.466618	7.37626e+06	-57389.1	1055.82	-29737	0.000000	0.000000	6.466931	-0.048653	NaN	0.000000	0.001726	0.001727	28.0834	0.055739	0.001975	28.222	159.98	-166.701	-0.095516	0.465299	-0.580013	-0.581332	-0.048653	28.222	-0.578720	-4.237016E+7	1.148274E-9	NaN
1145	1.000000	0.474605	7.37626e+06	-57389.1	1055.82	-29737	0.000000	0.000000	6.474919	-0.008641	NaN	0.000000	0.001756	0.001720	28.0833	0.013781	0.002132	6.463266	-51.8295	-163.155	0.074617	0.473302	-0.572027	-0.573329	-0.008641	6.463266	-0.571024	-3.317240E+7	2.604998E-10	NaN
1145	1.000000	0.482593	7.37626e+06	-57389.1	1055.82	-29737	0.000000	0.000000	6.482906	-0.046506	NaN	0.000000	0.001706	0.001691	28.0833	0.147852	0.001969	75.1061	-12.4514	-166.338	-0.032434	0.481325	-0.564038	-0.565306	-0.046506	75.1061	-0.563573	-2.616964E+7	1.777097E-9	NaN
1145	1.000000	0.490633	7.37626e+06	-57389.1	1055.82	-29737	0.000000	0.000000	6.490947	-0.021901	NaN	0.000000	0.001717	0.001709	28.0834	0.025778	0.001971	13.08	-56.4082	-166.503	-0.026466	0.489323	-0.555998	-0.557308	-0.021901	13.08	-0.554742	-1.975251E+7	1.108791E-9	NaN
1145	1.000000	0.498608	7.37626e+06	-57389.1	1055.82	-29737	0.000000	0.000000	6.498924	0.028609	NaN	0.000000	0.001709	0.001690	28.0834	0.037407	0.001939	19.2921	-171.392	-170.721	-0.047286	0.497389	-0.548023	-0.549242	0.028609	19.2921	-0.549135	-1.651872E+7	-1.731901E-9	NaN
1145	1.000000	0.506628	7.37626e+06	-57389.1	1055.82	-29737	0.000000	0.000000	6.506942	-0.012444	NaN	0.000000	0.001755	0.001685	28.0823	0.114744	0.002010	57.0979	120.838	-163.425	-0.058132	0.505259	-0.540003	-0.541372	-0.012444	57.0979	-0.539840	-1.227832E+7	1.013462E-9	NaN
1145	1.000000	0.514640	7.37626e+06	-57389.1	1055.82	-29737	0.000000	0.000000	6.514953	-0.038246	NaN	0.000000	0.001688	0.001660	28.082	0.127420	0.001951	65.2991	-118.744	-165.041	-0.068366	0.513279	-0.531991	-0.533352	-0.038246	65.2991	-0.531551	-9.42148e+06	4.059404E-9	NaN
1145	1.000000	0.522634	7.37626e+06	-57389.1	1055.82	-29737	0.000000	0.000000	6.522946	-0.080161	NaN	0.000000	0.001671	0.001704	28.0819	0.065289	0.002122	30.7737	-152.345	-165.864	-0.076792	0.521278	-0.523997	-0.525353	-0.080161	30.7737	-0.522043	-6.95036e+06	1.153332E-8	NaN
1145	1.000000	0.530619	7.37626e+06	-57389.1	1055.82	-29737	0.000000	0.000000	6.530934	0.005830	NaN	0.000000	0.001654	0.001685	28.0822	0.047662	0.001998	23.861	41.3854	-165.415	0.034518	0.529314	-0.516012	-0.517318	0.005830	23.861	-0.516195	-5.76323e+06	-1.011511E-9	NaN
1145	1.000000	0.538615	7.37626e+06	-57389.1	1055.82	-29737	0.000000	0.000000	6.538929	-0.003761	NaN	0.000000	0.001653	0.001707	28.0822	0.030984	0.001902	16.2886	-69.9436	-169.565	-0.020605	0.537369	-0.508016	-0.509262	-0.003761	16.2886	-0.507843	-4.40928e+06	8.529137E-10	NaN
1145	1.000000	0.546667	7.37626e+06	-57389.1	1055.82	-29737	0.000000	0.000000	6.546982	0.011047	NaN	0.000000	0.001690	0.001696	28.0823	0.044282	0.001947	22.7475	-109.273	-167.131	0.000192	0.545332	-0.499964	-0.501299	0.011047	22.7475	-0.500328	-3.46414e+06	-3.188985E-9	NaN
1145	1.000000	0.554657	7.37626e+06	-57389.1	1055.82	-29737	0.000000	0.000000	6.554972	-0.002293	NaN	0.000000	0.001680	0.001726	28.0823	0.024750	0.001957	12.6477	1.595930	-164.319	-0.068820	0.553326	-0.491974	-0.493305	-0.002293	12.6477	-0.491838	-2.63678e+06	8.695297E-10	NaN
1145	1.000000	0.562641	7.37626e+06	-57389.1	1055.82	-29737	0.000000	0.000000	6.562953	-0.067262	NaN	0.000000	0.001676	0.001704	28.082	0.111415	0.002014	55.3221	74.9868	-165.933	0.008861	0.561317	-0.483990	-0.485315	-0.067262	55.3221	-0.483078	-1.98889e+06	3.381911E-8	NaN
1145	1.000000	0.570642	7.37626e+06	-57389.1	1055.82	-29737	0.000000	0.000000	6.570956	-0.009070	NaN	0.000000	0.001707	0.001673	28.0817	0.080561	0.002011	40.0566	-42.1022	-166.221	-0.020507	0.569303	-0.475989	-0.477328	-0.009070	40.0566	-0.475819	-1.57391e+06	5.762955E-9	NaN
1145	1.000000	0.578650	7.37626e+06	-57389.1	1055.82	-29737	0.000000	0.000000	6.578962	-0.052370	NaN	0.000000	0.001718	0.001679	28.0819	0.126306	0.002051	61.5925	110.799	-165.655	-0.050113	0.577292	-0.467981	-0.469339	-0.052370	61.5925	-0.467344	-1.19713e+06	4.374597E-8	NaN
1145	1.000000	0.586647	7.37626e+06	-57389.1	1055.82	-29737	0.000000	0.000000	6.586963	0.015631	NaN	0.000000	0.001712	0.001707	28.0819	0.081070	0.001990	40.7373	5.023556	-167.84	-0.021940	0.585370	-0.459984	-0.461261	0.015631	40.7373	-0.460272	-952433	-1.641142E-8	NaN
1145	1.000000	0.594663	7.37626e+06	-57389.1	1055.82	-29737	0.000000	0.000000	6.594974	-0.071372	NaN	0.000000	0.001698	0.001689	28.0822	0.013607	0.001914	7.111000	-140.808	-166.865	-0.029236	0.593368	-0.451969	-0.453263	-0.071372	7.111000	-0.444441	-570178	1.251748E-7	NaN
1145	1.000000	0.602686	7.37626e+06	-57389.1	1055.82	-29737	0.000000	0.000000	6.603004	0.067723	NaN	0.000000	0.001712	0.001674	28.082	0.043424	0.002139	20.3014	83.5255	-166.612	0.057038	0.601305	-0.443945	-0.445326	0.067723	20.3014	-0.446447	-608532	-1.112897E-7	NaN
1145	1.000000	0.610670	7.37626e+06	-57389.1	1055.82	-29737	0.000000	0.000000	6.610988	0.060843	NaN	0.000000	0.001699	0.001678	28.0821	0.055276	0.002112	26.1669	57.7448	-164.339	0.057492	0.609324	-0.435961	-0.437307	0.060843	26.1669	-0.437705	-458097	-1.328172E-7	NaN
1145	1.000000	0.618668	7.37626e+06	-57389.1	1055.82	-29737	0.000000	0.000000	6.618981	-0.053856	NaN	0.000000	0.001695	0.001630	28.0822	0.014717	0.001971	7.468044	-96.1752	-166.696	0.000962	0.617406	-0.427963	-0.429225	-0.053856	7.468044	-0.422554	-279658	1.925778E-7	NaN
1145	1.000000	0.626699	7.37626e+06	-57389.1	1055.82	-29737	0.000000	0.000000	6.627014	0.008769	NaN	0.000000	0.001644	0.001709	28.082	0.041338	0.002009	20.578	-113.201	-161.855	0.036159	0.625339	-0.419932	-0.421292	0.008769	20.578	-0.420252	-259411	-3.380495E-8	NaN
1145	1.000000	0.634693	7.37626e+06	-57389.1	1055.82	-29737	0.000000	0.000000	6.635006	-0.048202	NaN	0.000000	0.001651	0.001694	28.0821	0.089422	0.001912	46.7577	54.5165	-167.969	-0.068588	0.633358	-0.411938	-0.413273	-0.048202	46.7577	-0.411165	-192737	2.500916E-7	NaN
1145	1.000000	0.642683	7.37626e+06	-57389.1	1055.82	-29737	0.000000	0.000000	6.642998	0.016753	NaN	0.000000	0.001677	0.001718	28.0831	0.017589	0.002098	8.383936	93.3148	-167.898	0.075018	0.641376	-0.403948	-0.405255	0.016753	8.383936	-0.405447	-159814	-1.048286E-7	NaN
1145	1.000000	0.650682	7.37626e+06	-57389.1	1055.82	-29737	0.000000	0.000000	6.650997	-0.001797	NaN	0.000000	0.001670	0.001690	28.0837	0.106294	0.001947	54.6047	-86.6029	-168.258	-0.072718	0.649406	-0.395949	-0.397225	-0.001797	54.6047	-0.395924	-116904	1.537457E-8	NaN
1145	1.000000	0.658706	7.37626e+06	-57389.1	1055.82	-29737	0.000000	0.000000	6.659018	-0.050162	NaN	0.000000	0.001680	0.001722	28.0832	0.092218	0.001848	49.9124	29.3349	-168.244	-0.014496	0.657357	-0.387925	-0.389274	-0.050162	49.9124	-0.387172	-87637.8	5.723832E-7	NaN
1145	1.000000	0.666682	7.37626e+06	-57389.1	1055.82	-29737	0.000000	0.000000	6.666997	-0.002564	NaN	0.000000	0.001681	0.001691	28.0835	0.102639	0.002002	51.2781	170.694	-165.326	-0.050097	0.665366	-0.379949	-0.381265	-0.002564	51.2781	-0.379911	-68962.8	3.717405E-8	NaN
1145	1.000000	0.674699	7.37626e+06	-57389.1	1055.82	-29737	0.000000	0.000000	6.675013	-0.032552	NaN	0.000000	0.001680	0.001747	28.0833	0.072031	0.002057	35.0158	-155.025	-165.868	0.037843	0.673388	-0.371932	-0.373244	-0.032552	35.0158	-0.371234	-51748.9	6.290285E-7	NaN
1145	1.000000	0.682688	7.37626e+06	-57389.1	1055.82	-29737	0.000000	0.000000	6.683003	0.018988	NaN	0.000000	0.001716	0.001730	28.0835	0.038266	0.001929	19.8371	103.203	-168.026	-0.051268	0.681410	-0.363944	-0.365221	0.018988	19.8371	-0.364661	-41607.3	-4.563564E-7	NaN
1145	1.000000	0.690720	7.37626e+06	-57389.1	1055.82	-29737	0.000000	0.000000	6.691032	-0.070695	NaN	0.000000	0.001681	0.001727	28.0838	0.118966	0.002008	59.2562	154.001	-165.796	-0.058759	0.689374	-0.355911	-0.357257	-0.070695	59.2562	-0.355016	-30180.5	2.342391E-6	NaN
1145	1.000000	0.698695	7.37626e+06	-57389.1	1055.82	-29737	0.000000	0.000000	6.699009	-0.026328	NaN	0.000000	0.001691	0.001728	28.0832	0.049683	0.001946	25.5269	-139.302	-167.933	-0.065102	0.697370	-0.347936	-0.349261	-0.026328	25.5269	-0.347162	-23216.4	1.134015E-6	NaN
1145	1.000000	0.706757	7.37626e+06	-57389.1	1055.82	-29737	0.000000	0.000000	6.707071	-0.009367	NaN	0.000000	0.001670	0.001722	28.0834	0.068412	0.002130	32.1127	-145.424	-166.976	-0.012180	0.705434	-0.339874	-0.341198	-0.009367	32.1127	-0.339656	-18052.4	5.188886E-7	NaN
1145	1.000000	0.714705	7.37626e+06	-57389.1	1055.82	-29737	0.000000	0.000000	6.715020	-0.006945	NaN	0.000000	0.001634	0.001720	28.0834	0.143565	0.002182	65.7928	176.067	-167.108	0.032020	0.713431	-0.331926	-0.333200	-0.006945	65.7928	-0.331847	-13882.9	5.002484E-7	NaN
1145	1.000000	0.722737	7.37626e+06	-57389.1	1055.82	-29737	0.000000	0.000000	6.723050	-0.036848	NaN	0.000000	0.001692	0.001732	28.0833	0.062023	0.002079	29.8315	126.194	-164.223	-0.048885	0.721396	-0.323894	-0.325235	-0.036848	29.8315	-0.322968	-10287	3.582039E-6	NaN
1145	1.000000	0.730729	7.37626e+06	-57389.1	1055.82	-29737	0.000000	0.000000	6.731042	-0.043121	NaN	0.000000	0.001695	0.001736	28.083	0.112343	0.001971	57.0039	23.1586	-168.005	-0.047307	0.729387	-0.315902	-0.317244	-0.043121	57.0039	-0.315335	-7941.17	5.430031E-6	NaN
1145	1.000000	0.738719	7.37626e+06	-57389.1	1055.82	-29737	0.000000	0.000000	6.739036	0.052030	NaN	0.000000	0.001676	0.001704	28.0832	0.149459	0.002048	72.985	-131.492	-167.446	0.085838	0.737361	-0.307912	-0.309270	0.052030	72.985	-0.308447	-6281.49	-8.283053E-6	NaN
1145	1.000000	0.746742	7.37626e+06	-57389.1	1055.82	-29737	0.000000	0.000000	6.747056	-0.011626	NaN	0.000000	0.001690	0.001716	28.0832	0.074570	0.001906	39.1199	144.726	-168.124	-0.037361	0.745435	-0.299889	-0.301196	-0.011626	39.1199	-0.299666	-4652.29	2.498951E-6	NaN
1145	1.000000	0.754721	7.37626e+06	-57389.1	1055.82	-29737	0.000000	0.000000	6.755034	-0.050648	NaN	0.000000	0.001620	0.001748	28.083	0.047393	0.001877	25.2533	-166.702	-165.483	-0.140482	0.753460	-0.291910	-0.293171	-0.050648	25.2533	-0.290406	-3383.62	1.496846E-5	NaN
1145	1.000000	0.762726	7.37626e+06	-57389.1	1055.82	-29737	0.000000	0.000000	6.763040	-0.011437	NaN	0.000000	0.001602	0.001719	28.0832	0.066419	0.002110	31.473	-61.5089	-163.322	-0.034579	0.761440	-0.283905	-0.285191	-0.011437	31.473	-0.283633	-2677.32	4.271741E-6	NaN
1145	1.000000	0.770738	7.37626e+06	-57389.1	1055.82	-29737	0.000000	0.000000	6.771050	-0.070587	NaN	0.000000	0.001635	0.001718	28.0829	0.069763	0.002111	33.0475	22.5449	-169.128	0.007485	0.769436	-0.275893	-0.277195	-0.070587	33.0475	-0.274291	-1934.9	3.648102E-5	NaN
1145	1.000000	0.778725	7.37626e+06	-57389.1	1055.82	-29737	0.000000	0.000000	6.779036	-0.084369	NaN	0.000000	0.001598	0.001708	28.0826	0.127340	0.002017	63.1352	120.444	-167.326	-0.094243	0.777454	-0.267906	-0.269177	-0.084369	63.1352	-0.266904	-1494.27	5.646172E-5	NaN
1145	1.000000	0.786769	7.37626e+06	-57389.1	1055.82	-29737	0.000000	0.000000	6.787084	-0.009561	NaN	0.000000	0.001566	0.001712	28.0817	0.038461	0.002006	19.1714	42.804	-165.429	-0.054037	0.785451	-0.259862	-0.261180	-0.009561	19.1714	-0.259488	-1150.97	8.307181E-6	NaN
1145	1.000000	0.794743	7.37626e+06	-57389.1	1055.82	-29737	0.000000	0.000000	6.795055	-0.060770	NaN	0.000000	0.001571	0.001740	28.0819	0.120103	0.001871	64.2033	-127.28	-164.975	-0.007104	0.793423	-0.251888	-0.253209	-0.060770	64.2033	-0.251178	-857.386	7.087840E-5	NaN
1145	1.000000	0.802764	7.37626e+06	-57389.1	1055.82	-29737	0.000000	0.000000	6.803077	-0.024602	NaN	0.000000	0.001651	0.001773	28.082	0.062007	0.001809	34.2729	-147.018	-166.936	-0.047703	0.801437	-0.243867	-0.245195	-0.024602	34.2729	-0.243329	-647.831	3.797653E-5	NaN
1145	1.000000	0.810740	7.37626e+06	-57389.1	1055.82	-29737	0.000000	0.000000	6.811054	-0.033163	NaN	0.000000	0.001625	0.001752	28.0816	0.144752	0.002002	72.293	127.526	-171.683	-0.034907	0.809450	-0.235891	-0.237181	-0.033163	72.293	-0.235547	-489.588	6.773603E-5	NaN
1145	1.000000	0.818770	7.37626e+06	-57389.1	1055.82	-29737	0.000000	0.000000	6.819083	-0.035384	NaN	0.000000	0.001586	0.001703	28.0826	0.101655	0.002049	49.6095	-50.4622	-167.254	-0.034268	0.817439	-0.227861	-0.229192	-0.035384	49.6095	-0.227326	-363.274	9.740205E-5	NaN
1145	1.000000	0.826726	7.37626e+06	-57389.1	1055.82	-29737	0.000000	0.000000	6.827038	-0.064029	NaN	0.000000	0.001615	0.001759	28.0819	0.018831	0.002122	8.876349	-18.7682	-166.153	-0.101826	0.825471	-0.219905	-0.221160	-0.064029	8.876349	-0.214495	-226.669	0.000282	NaN
1145	1.000000	0.834755	7.37626e+06	-57389.1	1055.82	-29737	0.000000	0.000000	6.835069	-0.013266	NaN	0.000000	0.001591	0.001741	28.082	0.062860	0.002119	29.6684	101.483	-167.671	0.005256	0.833451	-0.211876	-0.213180	-0.013266	29.6684	-0.211540	-203.114	6.531514E-5	NaN
1145	1.000000	0.842765	7.37626e+06	-57389.1	1055.82	-29737	0.000000	0.000000	6.843080	0.007592	NaN	0.000000	0.001545	0.001752	28.0819	0.083418	0.001957	42.6356	79.5031	-165.961	-0.070991	0.841468	-0.203866	-0.205164	0.007592	42.6356	-0.203999	-153.188	-4.956302E-5	NaN
1145	1.000000	0.850783	7.37626e+06	-57389.1	1055.82	-29737	0.000000	0.000000	6.851097	-0.000726	NaN	0.000000	0.001607	0.001731	28.0818	0.036129	0.002045	17.6669	146.945	-164.604	-0.094199	0.849444	-0.195848	-0.197187	-0.000726	17.6669	-0.195818	-112.392	6.458567E-6	NaN
1145	1.000000	0.858766	7.37626e+06	-57389.1	1055.82	-29737	0.000000	0.000000	6.859077	-0.089525	NaN	0.000000	0.001604	0.001736	28.0821	0.028704	0.001936	14.8247	-13.8871	-166.241	-0.073587	0.857468	-0.187865	-0.189163	-0.089525	14.8247	-0.183336	-69.5094	0.001288	NaN
1145	1.000000	0.866792	7.37626e+06	-57389.1	1055.82	-29737	0.000000	0.000000	6.867104	-0.064699	NaN	0.000000	0.001566	0.001735	28.0819	0.096136	0.001890	50.8604	-126.101	-168.949	-0.005077	0.865465	-0.179839	-0.181166	-0.064699	50.8604	-0.178885	-58.4089	0.001108	NaN
1145	1.000000	0.874763	7.37626e+06	-57389.1	1055.82	-29737	0.000000	0.000000	6.875075	-0.066834	NaN	0.000000	0.001601	0.001740	28.0821	0.034680	0.001965	17.6464	-115.066	-170.131	-0.022877	0.873479	-0.171869	-0.173152	-0.066834	17.6464	-0.169028	-39.5109	0.001692	NaN
1145	1.000000	0.882792	7.37626e+06	-57389.1	1055.82	-29737	0.000000	0.000000	6.883102	-0.119105	NaN	0.000000	0.001644	0.001724	28.082	0.055160	0.002042	27.0107	-177.28	-163.978	-0.085030	0.881459	-0.163839	-0.165172	-0.119105	27.0107	-0.160532	-28.0177	0.004251	NaN
1145	1.000000	0.890767	7.37626e+06	-57389.1	1055.82	-29737	0.000000	0.000000	6.891079	-0.069536	NaN	0.000000	0.001628	0.001731	28.082	0.133014	0.002091	63.6206	169.345	-170.462	-0.076504	0.889494	-0.155864	-0.157137	-0.069536	63.6206	-0.155045	-22.3554	0.003110	NaN
1145	1.000000	0.898779	7.37626e+06	-57389.1	1055.82	-29737	0.000000	0.000000	6.899092	-0.025568	NaN	0.000000	0.001577	0.001750	28.082	0.036338	0.001961	18.526	141.171	-169.997	-0.026501	0.897511	-0.147852	-0.149120	-0.025568	18.526	-0.146817	-15.8379	0.001614	NaN
1145	1.000000	0.906796	7.37626e+06	-57389.1	1055.82	-29737	0.000000	0.000000	6.907110	-0.000108	NaN	0.000000	0.001597	0.001725	28.082	0.054467	0.001905	28.5988	-135.724	-167.023	-0.003757	0.905476	-0.139836	-0.141155	-0.000108	28.5988	-0.139833	-11.7442	9.217002E-6	NaN
1145	1.000000	0.914781	7.37626e+06	-57389.1	1055.82	-29737	0.000000	0.000000	6.915094	-0.041908	NaN	0.000000	0.001585	0.001708	28.0824	0.105429	0.002046	51.5315	-46.1276	-166.078	-0.032291	0.913517	-0.131850	-0.133114	-0.041908	51.5315	-0.131240	-8.054551	0.005203	NaN
1145	1.000000	0.922803	7.37626e+06	-57389.1	1055.82	-29737	0.000000	0.000000	6.923118	0.010028	NaN	0.000000	0.001610	0.001752	28.0831	0.046376	0.001972	23.52	137.244	-169.229	0.060187	0.921482	-0.123828	-0.125149	0.010028	23.52	-0.124148	-5.849401	-0.001714	NaN
1145	1.000000	0.930761	7.37626e+06	-57389.1	1055.82	-29737	0.000000	0.000000	6.931080	0.095316	NaN	0.000000	0.001669	0.001769	28.0833	0.118457	0.001970	60.1318	129.386	-166.701	0.019971	0.929463	-0.115870	-0.117168	0.095316	60.1318	-0.117059	-4.210746	-0.022636	NaN
1145	1.000000	0.938813	7.37626e+06	-57389.1	1055.82	-29737	0.000000	0.000000	6.939131	0.091209	NaN	0.000000	0.001676	0.001766	28.0833	0.112522	0.002159	52.1133	-119.101	-166.993	0.124348	0.937450	-0.107818	-0.109181	0.091209	52.1133	-0.109131	-2.880782	-0.031661	NaN
1145	1.000000	0.946799	7.37626e+06	-57389.1	1055.82	-29737	0.000000	0.000000	6.947114	0.009914	NaN	0.000000	0.001638	0.001778	28.0833	0.034263	0.001940	17.6587	52.1732	-165.131	0.024171	0.945473	-0.099833	-0.101158	0.009914	17.6587	-0.100254	-1.850936	-0.005356	NaN
1145	1.000000	0.954792	7.37626e+06	-57389.1	1055.82	-29737	0.000000	0.000000	6.955108	0.014884	NaN	0.000000	0.001621	0.001748	28.0834	0.044905	0.001939	23.1595	174.159	-167.416	-0.072097	0.953482	-0.091839	-0.093149	0.014884	23.1595	-0.092321	-1.224308	-0.012157	NaN
1145	1.000000	0.962805	7.37626e+06	-57389.1	1055.82	-29737	0.000000	0.000000	6.963118	-0.062692	NaN	0.000000	0.001620	0.001755	28.0834	0.039346	0.002056	19.1346	-25.0804	-167.324	-0.049882	0.961577	-0.083826	-0.085054	-0.062692	19.1346	-0.081368	-0.669494	0.093640	NaN
1145	1.000000	0.970820	7.37626e+06	-57389.1	1055.82	-29737	0.000000	0.000000	6.971135	0.005379	NaN	0.000000	0.001614	0.001754	28.0838	0.102166	0.002008	50.8855	160.722	-166.685	-0.002250	0.969543	-0.075811	-0.077088	0.005379	50.8855	-0.075890	-0.486942	-0.011046	NaN
1145	1.000000	0.978815	7.37626e+06	-57389.1	1055.82	-29737	0.000000	0.000000	6.979129	-0.022221	NaN	0.000000	0.001631	0.001736	28.0835	0.060095	0.001979	30.363	-15.626	-168.541	-0.015386	0.977519	-0.067816	-0.069113	-0.022221	30.363	-0.067267	-0.287727	0.077229	NaN
1145	1.000000	0.986828	7.37626e+06	-57389.1	1055.82	-29737	0.000000	0.000000	6.987142	-0.004476	NaN	0.000000	0.001619	0.001715	28.0834	0.020863	0.002089	9.986819	159.438	-165.184	0.069763	0.985491	-0.059803	-0.061141	-0.004476	9.986819	-0.059467	-0.173853	0.025746	NaN
1145	1.000000	0.994848	7.37626e+06	-57389.1	1055.82	-29737	0.000000	0.000000	6.995160	-0.060810	NaN	0.000000	0.001609	0.001714	28.0834	0.074883	0.002227	33.6324	-142.721	-164.662	-0.056388	0.993480	-0.051784	-0.053151	-0.060810	33.6324	-0.050427	-0.094005	0.646876	NaN
1145	1.000000	1.002827	7.37626e+06	-57389.1	1055.82	-29737	0.000000	0.000000	7.003139	-0.056556	NaN	0.000000	0.001628	0.001722	28.0834	0.024586	0.001995	12.3224	174.25	-167.299	-0.044862	1.001491	-0.043804	-0.045140	-0.056556	12.3224	-0.040362	-0.046382	1.219370	NaN
1145	1.000000	1.010846	7.37626e+06	-57389.1	1055.82	-29737	0.000000	0.000000	7.011164	0.076671	NaN	0.000000	0.001652	0.001716	28.0836	0.120635	0.001820	66.2855	106.558	-165.786	-0.048594	1.009571	-0.035785	-0.037060	0.076671	66.2855	-0.036652	-0.035849	-2.138710	NaN
1145	1.000000	1.018800	7.37626e+06	-57389.1	1055.82	-29737	0.000000	0.000000	7.019113	-0.050439	NaN	0.000000	0.001629	0.001722	28.0834	0.069861	0.002007	34.8128	120.938	-168.523	0.055559	1.017527	-0.027831	-0.029104	-0.050439	34.8128	-0.026744	-0.018757	2.689076	NaN
1145	1.000000	1.026840	7.37626e+06	-57389.1	1055.82	-29737	0.000000	0.000000	7.027155	0.003824	NaN	0.000000	0.001609	0.001759	28.0836	0.068305	0.002106	32.4287	53.591	-166.226	0.029802	1.025500	-0.019791	-0.021131	0.003824	32.4287	-0.019879	-0.012472	-0.306598	NaN
1145	1.000000	1.034826	7.37626e+06	-57389.1	1055.82	-29737	0.000000	0.000000	7.035142	0.040874	NaN	0.000000	0.001602	0.001768	28.0834	0.047904	0.002046	23.4144	5.402807	-164.049	0.030565	1.033504	-0.011806	-0.013128	0.040874	23.4144	-0.013115	-0.008169	-5.003802	NaN
1145	1.000000	1.042850	7.37626e+06	-57389.1	1055.82	-29737	0.000000	0.000000	7.043167	0.054144	NaN	0.000000	0.001593	0.001769	28.0833	0.274544	0.002029	135.338	-7.890916	-165.885	0.002876	1.041562	-0.003781	-0.005069	0.054144	135.338	-0.004081	-0.002832	-19.1219	NaN
1145	1.000000	1.050827	7.37626e+06	-57389.1	1055.82	-29737	0.000000	0.000000	7.051401	6.307744	NaN	0.000000	0.001580	0.001750	28.0832	6.829000	0.001727	3954.79	11.3289	-171.613	4.859582	1.049474	0.004195	0.002842	6.307744	3954.79	0.002999	0.002379	2651.15	74075.9
1145	2.000000	1.054442	7.37626e+06	-57389.1	1055.82	-29737	0.000000	0.000000	7.055154	9.672202	NaN	0.000000	0.001623	0.001729	28.082	10.0956	0.001574	6414.68	13.1257	-179.26	9.632397	1.054123	0.007811	0.007492	9.672202	6414.68	0.006680	0.005719	1691.16	77495.9
1145	2.000000	1.056476	7.37626e+06	-57389.1	1055.82	-29737	0.000000	0.000000	7.057330	13.105	NaN	0.000000	0.001637	0.001744	28.0823	12.2162	0.001870	6532.48	10.3023	-174.805	13.0659	1.056106	0.009845	0.009474	13.105	6532.48	0.008340	0.007395	1772.2	69404.9
1145	2.000000	1.058431	7.37626e+06	-57389.1	1055.82	-29737	0.000000	0.000000	7.059365	15.039	NaN	0.000000	0.001651	0.001776	28.0819	13.9649	0.001711	8162.85	8.087223	-177.076	14.6738	1.058059	0.011800	0.011427	15.039	8162.85	0.010418	0.009650	1558.46	75919.3
1145	2.000000	1.060414	7.37626e+06	-57389.1	1055.82	-29737	0.000000	0.000000	7.061458	17.7409	NaN	0.000000	0.001613	0.001755	28.0823	16.1143	0.001717	9386.58	7.149278	-177.016	17.7079	1.060125	0.013782	0.013494	17.7409	9386.58	0.012365	0.011930	1487.06	78515.8
1145	2.000000	1.062374	7.37626e+06	-57389.1	1055.82	-29737	0.000000	0.000000	7.063603	22.2319	NaN	0.000000	0.001592	0.001741	28.0824	18.4459	0.001858	9926.03	10.0071	179.477	21.7767	1.062022	0.015743	0.015391	22.2319	9926.03	0.014063	0.014056	1581.69	76493
1145	2.000000	1.064346	7.37626e+06	-57389.1	1055.82	-29737	0.000000	0.000000	7.065714	25.6001	NaN	0.000000	0.001620	0.001745	28.082	20.3806	0.001874	10877.5	6.476102	-177.149	24.3793	1.064045	0.017715	0.017414	25.6001	10877.5	0.015950	0.016574	1544.64	77196.4
1145	2.000000	1.066346	7.37626e+06	-57389.1	1055.82	-29737	0.000000	0.000000	7.067969	31.8138	NaN	0.000000	0.001647	0.001710	28.0822	22.2395	0.001819	12227.2	2.623411	-174.874	30.546	1.066015	0.019715	0.019384	31.8138	12227.2	0.017763	0.019149	1661.42	80729.8
1145	2.000000	1.068346	7.37626e+06	-57389.1	1055.82	-29737	0.000000	0.000000	7.070168	36.6275	NaN	0.000000	0.001649	0.001735	28.082	23.5633	0.001767	13332.9	3.327113	-175.78	35.6974	1.068036	0.021715	0.021405	36.6275	13332.9	0.019654	0.022002	1664.72	82123.3
1145	2.000000	1.070385	7.37626e+06	-57389.1	1055.82	-29737	0.000000	0.000000	7.072323	39.4409	NaN	0.000000	0.001682	0.001744	28.0823	26.3959	0.001650	15993.2	6.517975	177.721	40.0454	1.070075	0.023754	0.023444	39.4409	15993.2	0.021904	0.025624	1539.23	91282.6
1145	2.000000	1.072304	7.37626e+06	-57389.1	1055.82	-29737	0.000000	0.000000	7.074505	45.8593	NaN	0.000000	0.001693	0.001755	28.0819	27.1735	0.001778	15282	5.139224	-179.157	43.9976	1.071972	0.025673	0.025341	45.8593	15282	0.023422	0.028207	1625.8	83132.7
1145	2.000000	1.074348	7.37626e+06	-57389.1	1055.82	-29737	0.000000	0.000000	7.076761	50.9816	NaN	0.000000	0.001659	0.001741	28.0821	30.0853	0.001769	17006.1	3.128248	-177.652	52.0077	1.074001	0.027717	0.027370	50.9816	17006.1	0.025469	0.031874	1599.45	87027.8
1145	2.000000	1.076361	7.37626e+06	-57389.1	1055.82	-29737	0.000000	0.000000	7.079034	57.3351	NaN	0.000000	0.001660	0.001741	28.0821	32.4894	0.001853	17530	4.824110	179.684	56.332	1.076044	0.029730	0.029413	57.3351	17530	0.027277	0.035288	1624.79	85259.3
1145	2.000000	1.078312	7.37626e+06	-57389.1	1055.82	-29737	0.000000	0.000000	7.081191	62.3162	NaN	0.000000	0.001675	0.001736	28.0819	34.3716	0.001887	18215.2	8.411633	176.032	61.6322	1.078009	0.031681	0.031378	62.3162	18215.2	0.029115	0.038929	1600.75	84346.8
1145	2.000000	1.080336	7.37626e+06	-57389.1	1055.82	-29737	0.000000	0.000000	7.083506	69.3961	NaN	0.000000	0.001664	0.001747	28.0821	35.8929	0.001679	21379.2	2.679519	179.898	69.4437	1.080017	0.033705	0.033386	69.3961	21379.2	0.031270	0.043417	1598.36	93741.8
1145	2.000000	1.082325	7.37626e+06	-57389.1	1055.82	-29737	0.000000	0.000000	7.085771	76.1207	NaN	0.000000	0.001649	0.001732	28.0819	37.4233	0.001833	20420.7	4.255082	178.748	74.5794	1.081997	0.035693	0.035366	76.1207	20420.7	0.032898	0.046964	1620.82	86091.6
1145	2.000000	1.084315	7.37626e+06	-57389.1	1055.82	-29737	0.000000	0.000000	7.088000	81.9201	NaN	0.000000	0.001675	0.001713	28.082	39.7366	0.001790	22202.4	2.605818	179.544	81.2757	1.084042	0.037684	0.037411	81.9201	22202.4	0.034917	0.051552	1589.08	89340.9
1145	2.000000	1.086305	7.37626e+06	-57389.1	1055.82	-29737	0.000000	0.000000	7.090149	85.7678	NaN	0.000000	0.001662	0.001723	28.0829	41.7866	0.001741	23995.7	1.685589	179.644	84.1528	1.085976	0.039674	0.039345	85.7678	23995.7	0.036994	0.056490	1518.29	92240.6
1145	2.000000	1.088271	7.37626e+06	-57389.1	1055.82	-29737	0.000000	0.000000	7.092513	95.4513	NaN	0.000000	0.001626	0.001743	28.0832	42.9437	0.001711	25092.1	2.796527	178.032	93.0978	1.088020	0.041640	0.041389	95.4513	25092.1	0.038787	0.060930	1566.56	92873.8
1145	2.000000	1.090273	7.37626e+06	-57389.1	1055.82	-29737	0.000000	0.000000	7.094908	105.004	NaN	0.000000	0.001616	0.001716	28.0828	46.2798	0.001842	25118.4	3.615111	176.952	102.443	1.090046	0.043642	0.043415	105.004	25118.4	0.040507	0.065345	1606.93	89775.9
1145	2.000000	1.092289	7.37626e+06	-57389.1	1055.82	-29737	0.000000	0.000000	7.097413	116.895	NaN	0.000000	0.001661	0.001719	28.0828	47.3911	0.001828	25930.8	8.163046	173.473	117.149	1.091963	0.045658	0.045332	116.895	25930.8	0.042277	0.070045	1668.85	89516.1
1145	2.000000	1.094314	7.37626e+06	-57389.1	1055.82	-29737	0.000000	0.000000	7.099622	121.351	NaN	0.000000	0.001616	0.001776	28.083	48.8954	0.001770	27623.5	3.692513	176.466	120.494	1.094030	0.047683	0.047399	121.351	27623.5	0.044388	0.075860	1599.66	91631.4
1145	2.000000	1.096354	7.37626e+06	-57389.1	1055.82	-29737	0.000000	0.000000	7.102067	131.206	NaN	0.000000	0.001621	0.001711	28.0836	51.5866	0.001844	27980.1	8.700696	172.624	134.099	1.095972	0.049723	0.049341	131.206	27980.1	0.046206	0.081047	1618.9	89795.4
1145	2.000000	1.098317	7.37626e+06	-57389.1	1055.82	-29737	0.000000	0.000000	7.104446	141.324	NaN	0.000000	0.001617	0.001693	28.083	52.2781	0.001748	29905.8	5.552724	173.733	141.628	1.098016	0.051686	0.051385	141.324	29905.8	0.048142	0.086756	1628.98	92764
1145	2.000000	1.100278	7.37626e+06	-57389.1	1055.82	-29737	0.000000	0.000000	7.106826	151.477	NaN	0.000000	0.001663	0.001700	28.0828	55.0414	0.001829	30095.8	6.274150	173.37	148.88	1.099866	0.053647	0.053235	151.477	30095.8	0.049873	0.092020	1646.14	90644.1
1145	2.000000	1.102286	7.37626e+06	-57389.1	1055.82	-29737	0.000000	0.000000	7.109209	160.612	NaN	0.000000	0.001623	0.001752	28.083	55.1041	0.001762	31273.7	2.785536	175.765	158.948	1.102028	0.055655	0.055396	160.612	31273.7	0.051803	0.098069	1637.75	91240.5
1145	2.000000	1.104300	7.37626e+06	-57389.1	1055.82	-29737	0.000000	0.000000	7.111447	166.041	NaN	0.000000	0.001632	0.001725	28.0831	58.7617	0.001830	32112.9	6.830417	172.285	167.136	1.103999	0.057669	0.057368	166.041	32112.9	0.053791	0.104491	1589.05	90763.9
1145	2.000000	1.106331	7.37626e+06	-57389.1	1055.82	-29737	0.000000	0.000000	7.114240	184.556	NaN	0.000000	0.001637	0.001702	28.0832	60.6886	0.001824	33275.9	8.086949	171.548	183.856	1.105861	0.059700	0.059230	184.556	33275.9	0.055541	0.110305	1673.14	91538.8
1145	2.000000	1.108215	7.37626e+06	-57389.1	1055.82	-29737	0.000000	0.000000	7.116513	194.036	NaN	0.000000	0.001616	0.001711	28.0828	61.1256	0.001760	34739.9	3.623413	175.654	189.584	1.107978	0.061584	0.061347	194.036	34739.9	0.057395	0.116632	1663.65	92937.7
1145	2.000000	1.110263	7.37626e+06	-57389.1	1055.82	-29737	0.000000	0.000000	7.118917	202.678	NaN	0.000000	0.001614	0.001720	28.0827	64.2715	0.001811	35492.7	2.315228	175.92	199.497	1.109932	0.063632	0.063301	202.678	35492.7	0.059349	0.123485	1641.33	92279.5
1145	2.000000	1.112281	7.37626e+06	-57389.1	1055.82	-29737	0.000000	0.000000	7.121422	214.498	NaN	0.000000	0.001620	0.001724	28.0829	65.1812	0.001753	37186	3.890622	174.97	213.408	1.111866	0.065650	0.065235	214.498	37186	0.061324	0.130599	1642.41	94011.8
1145	2.000000	1.114302	7.37626e+06	-57389.1	1055.82	-29737	0.000000	0.000000	7.123925	226.242	NaN	0.000000	0.001646	0.001712	28.083	66.981	0.001847	36265.8	1.218407	176.632	225.507	1.113950	0.067671	0.067319	226.242	36265.8	0.062992	0.136756	1654.34	89597.7
1145	2.000000	1.116321	7.37626e+06	-57389.1	1055.82	-29737	0.000000	0.000000	7.126523	240.293	NaN	0.000000	0.001631	0.001693	28.0833	69.3482	0.001839	37715	4.854555	173.875	239.194	1.115934	0.069690	0.069303	240.293	37715	0.064912	0.144008	1668.61	90801.7
1145	2.000000	1.118342	7.37626e+06	-57389.1	1055.82	-29737	0.000000	0.000000	7.128918	249.397	NaN	0.000000	0.001609	0.001670	28.0832	70.2597	0.001787	39309.3	5.031223	172.303	250.642	1.117955	0.071711	0.071324	249.397	39309.3	0.066953	0.151913	1641.71	92144.9
1145	2.000000	1.120239	7.37626e+06	-57389.1	1055.82	-29737	0.000000	0.000000	7.131184	258.356	NaN	0.000000	0.001611	0.001699	28.0831	73.0614	0.001693	43143.7	5.011473	171.883	254.324	1.119971	0.073608	0.073340	258.356	43143.7	0.069117	0.160514	1609.56	98386.1
1145	2.000000	1.122256	7.37626e+06	-57389.1	1055.82	-29737	0.000000	0.000000	7.133504	265.724	NaN	0.000000	0.001605	0.001716	28.0819	74.1946	0.001771	41892.1	6.079900	170.427	263.672	1.122066	0.075625	0.075434	265.724	41892.1	0.070867	0.167634	1585.14	93481.1
1145	2.000000	1.124163	7.37626e+06	-57389.1	1055.82	-29737	0.000000	0.000000	7.135840	276.166	NaN	0.000000	0.001707	0.001707	28.0818	77.5486	0.001841	42134.5	1.321711	175.441	270.325	1.124013	0.077532	0.077382	276.166	42134.5	0.072616	0.174891	1579.07	92050.7
1145	2.000000	1.126290	7.37626e+06	-57389.1	1055.82	-29737	0.000000	0.000000	7.138779	295.888	NaN	0.000000	0.001684	0.001689	28.0818	79.2144	0.001783	44426	4.794190	172.098	294.689	1.125942	0.079659	0.079311	295.888	44426	0.074664	0.183576	1611.8	94733.3
1145	2.000000	1.128292	7.37626e+06	-57389.1	1055.82	-29737	0.000000	0.000000	7.141124	304.239	NaN	0.000000	0.001681	0.001703	28.0818	81.2121	0.001839	44156.6	4.863626	171.417	304.716	1.128081	0.081661	0.081450	304.239	44156.6	0.076493	0.191501	1588.71	92190.1
1145	2.000000	1.130274	7.37626e+06	-57389.1	1055.82	-29737	0.000000	0.000000	7.143931	324.286	NaN	0.000000	0.001677	0.001715	28.0817	81.5646	0.001783	45745.2	-0.433766	176.868	321.805	1.129993	0.083643	0.083362	324.286	45745.2	0.078326	0.199597	1624.71	93549.6
1145	2.000000	1.132286	7.37626e+06	-57389.1	1055.82	-29737	0.000000	0.000000	7.146398	335.335	NaN	0.000000	0.001704	0.001691	28.0818	84.5142	0.001826	46293.2	6.770876	169.53	334.781	1.131923	0.085655	0.085291	335.335	46293.2	0.080222	0.208137	1611.13	92707.7
1145	2.000000	1.134317	7.37626e+06	-57389.1	1055.82	-29737	0.000000	0.000000	7.149025	349.832	NaN	0.000000	0.001688	0.001690	28.0817	84.6474	0.001688	50156	4.376488	171.548	354.172	1.134052	0.087686	0.087421	349.832	50156	0.082455	0.218410	1601.72	98052.9
1145	2.000000	1.136348	7.37626e+06	-57389.1	1055.82	-29737	0.000000	0.000000	7.151850	369.101	NaN	0.000000	0.001708	0.001716	28.0817	88.0141	0.001725	51025.5	8.494780	167.634	370.412	1.135922	0.089717	0.089291	369.101	51025.5	0.084292	0.227036	1625.74	97839.3
1145	2.000000	1.138351	7.37626e+06	-57389.1	1055.82	-29737	0.000000	0.000000	7.154242	378.576	NaN	0.000000	0.001701	0.001692	28.0816	89.7219	0.001840	48770	6.137889	170.062	386.179	1.137930	0.091720	0.091298	378.576	48770	0.085898	0.234705	1612.99	91974
1145	2.000000	1.140324	7.37626e+06	-57389.1	1055.82	-29737	0.000000	0.000000	7.156911	395.489	NaN	0.000000	0.001721	0.001701	28.0819	91.5526	0.001760	52023.6	8.875737	166.858	399.009	1.139916	0.093693	0.093285	395.489	52023.6	0.087991	0.244877	1615.06	96050.5
1145	2.000000	1.142206	7.37626e+06	-57389.1	1055.82	-29737	0.000000	0.000000	7.159571	414.403	NaN	0.000000	0.001706	0.001719	28.0821	91.0949	0.001692	53826.2	4.811565	170.686	410.698	1.141957	0.095575	0.095326	414.403	53826.2	0.089800	0.253833	1632.58	97609.8
1145	2.000000	1.144190	7.37626e+06	-57389.1	1055.82	-29737	0.000000	0.000000	7.161753	419.22	NaN	0.000000	0.001682	0.001691	28.0818	95.3078	0.001736	54886.4	4.187804	170.775	416.433	1.143966	0.097559	0.097335	419.22	54886.4	0.091830	0.264059	1587.6	97585.8
1145	2.000000	1.146220	7.37626e+06	-57389.1	1055.82	-29737	0.000000	0.000000	7.164515	437.005	NaN	0.000000	0.001602	0.001672	28.0818	96.7644	0.001751	55252.5	2.527320	172.593	431.739	1.145904	0.099588	0.099273	437.005	55252.5	0.093657	0.273420	1598.29	96540.7
1145	2.000000	1.148177	7.37626e+06	-57389.1	1055.82	-29737	0.000000	0.000000	7.167030	450.566	NaN	0.000000	0.001640	0.001691	28.0817	99.0783	0.001913	51802.5	3.102748	172.176	446.544	1.147873	0.101546	0.101242	450.566	51802.5	0.095023	0.280523	1606.16	89359.2
1145	2.000000	1.150122	7.37626e+06	-57389.1	1055.82	-29737	0.000000	0.000000	7.169954	474.378	NaN	0.000000	0.001628	0.001696	28.0819	100.775	0.001813	55590.7	2.954371	172.184	467.301	1.149900	0.103491	0.103269	474.378	55590.7	0.097091	0.291436	1627.73	94081.5
1145	2.000000	1.151193	7.37626e+06	-57389.1	1055.82	-29737	0.000000	0.000000	7.171594	488.19	NaN	0.000000	0.001614	0.001714	28.082	101.404	0.001692	59949.1	7.380166	167.286	486.178	1.150932	0.104562	0.104301	488.19	59949.1	0.098455	0.298742	1634.15	100209