File: remote_trans/data/nanoindenter/0828-1/data/Data_2025-08-06,11h17m57s/2025-07-22_16-23-58_1_409.txt
2025-07-22, 16:23:58, 1
Index	Phase	Displacement	Time	Pos X	Pos Y	Pos Z	Rot A	Rot B	Piezo Z	Force A	Force B	Gripper	Voltage A	Voltage B	Temperature	Amplitude force	Amplitude pos	Stiffness	Phase shift	Phase excitation	Force A raw	Displacement raw	HMax	HMax raw	Real Force	Real Stiffness	Contact Depth	Area	Hardness	Reduced Mod.
[#]	[#]	[um]	[s]	[um]	[um]	[um]	[m°]	[m°]	[um]	[uN]	[uN]	[V]	[V]	[V]	[°C]	[uN]	[um]	[N/m]	[°]	[°]	[uN]	[um]	[um]	[um]	[uN]	[N/m]	[um]	[um^2]	[MPa]	[MPa]
409	1.000000	0.002592	7.36906e+06	-56639.1	1005.82	-29738.6	0.000000	0.000000	6.002799	0.070527	NaN	0.000000	0.001640	0.001619	28.0804	0.065564	0.000962	68.1397	1.989962	-166.894	0.027308	0.001318	-1.063197	-1.064471	0.070527	68.1397	-1.063973	-1.645164E+14	-4.286936E-16	NaN
409	1.000000	0.010552	7.36906e+06	-56639.1	1005.82	-29738.6	0.000000	0.000000	6.010756	0.014181	NaN	0.000000	0.001624	0.001640	28.0802	0.043668	0.000896	48.7377	49.4523	-166.874	-0.041551	0.009243	-1.055237	-1.056547	0.014181	48.7377	-1.055455	-1.263989E+14	-1.121935E-16	NaN
409	1.000000	0.018535	7.36906e+06	-56639.1	1005.82	-29738.6	0.000000	0.000000	6.018740	0.034085	NaN	0.000000	0.001617	0.001647	28.0805	0.081267	0.001783	45.5855	113.022	-163.727	0.023648	0.017248	-1.047254	-1.048541	0.034085	45.5855	-1.047815	-9.977821E+13	-3.416033E-16	NaN
409	1.000000	0.026558	7.36906e+06	-56639.1	1005.82	-29738.6	0.000000	0.000000	6.026763	0.037995	NaN	0.000000	0.001636	0.001595	28.0805	0.056081	0.001811	30.9695	-93.6723	-164.076	-0.049514	0.025245	-1.039231	-1.040544	0.037995	30.9695	-1.040151	-7.870492E+13	-4.827545E-16	NaN
409	1.000000	0.034551	7.36906e+06	-56639.1	1005.82	-29738.6	0.000000	0.000000	6.034754	0.008020	NaN	0.000000	0.001660	0.001626	28.0805	0.066540	0.001971	33.7594	-30.4026	-168.917	-0.015906	0.033249	-1.031238	-1.032541	0.008020	33.7594	-1.031416	-6.005235E+13	-1.335443E-16	NaN
409	1.000000	0.042541	7.36906e+06	-56639.1	1005.82	-29738.6	0.000000	0.000000	6.042744	-0.002788	NaN	0.000000	0.001659	0.001605	28.0807	0.056620	0.001910	29.6375	-80.5141	-164.748	0.022212	0.041227	-1.023248	-1.024562	-0.002788	29.6375	-1.023178	-4.652735E+13	5.993171E-17	NaN
409	1.000000	0.050536	7.36906e+06	-56639.1	1005.82	-29738.6	0.000000	0.000000	6.050739	-0.000168	NaN	0.000000	0.001636	0.001571	28.0806	0.094894	0.001997	47.5072	144.905	-164.507	0.037896	0.049254	-1.015253	-1.016535	-0.000168	47.5072	-1.015250	-3.639478E+13	4.612462E-18	NaN
409	1.000000	0.058542	7.36906e+06	-56639.1	1005.82	-29738.6	0.000000	0.000000	6.058749	0.099243	NaN	0.000000	0.001621	0.001573	28.0804	0.088236	0.001886	46.7876	51.0642	-168.104	0.089551	0.057260	-1.007248	-1.008529	0.099243	46.7876	-1.008838	-2.983651E+13	-3.326227E-15	NaN
409	1.000000	0.066575	7.36906e+06	-56639.1	1005.82	-29738.6	0.000000	0.000000	6.066777	-0.034280	NaN	0.000000	0.001635	0.001625	28.0807	0.066170	0.001961	33.7428	158.449	-164.812	0.009646	0.065242	-0.999214	-1.000547	-0.034280	33.7428	-0.998452	-2.162380E+13	1.585271E-15	NaN
409	1.000000	0.074561	7.36906e+06	-56639.1	1005.82	-29738.6	0.000000	0.000000	6.074767	0.071525	NaN	0.000000	0.001615	0.001582	28.0806	0.054918	0.002152	25.5246	-105.869	-164.921	0.021511	0.073237	-0.991228	-0.992553	0.071525	25.5246	-0.993330	-1.844816E+13	-3.877057E-15	NaN
409	1.000000	0.082543	7.36906e+06	-56639.1	1005.82	-29738.6	0.000000	0.000000	6.082749	0.050560	NaN	0.000000	0.001603	0.001557	28.0807	0.043079	0.002052	20.9946	116.958	-166.441	0.110473	0.081229	-0.983246	-0.984560	0.050560	20.9946	-0.985052	-1.427132E+13	-3.542742E-15	NaN
409	1.000000	0.090550	7.36906e+06	-56639.1	1005.82	-29738.6	0.000000	0.000000	6.090754	0.039686	NaN	0.000000	0.001600	0.001574	28.0817	0.084713	0.002066	41.0076	125.779	-165.201	0.024442	0.089318	-0.975239	-0.976472	0.039686	41.0076	-0.975965	-1.076586E+13	-3.686260E-15	NaN
409	1.000000	0.098586	7.36906e+06	-56639.1	1005.82	-29738.6	0.000000	0.000000	6.098789	-0.007519	NaN	0.000000	0.001627	0.001547	28.0807	0.109315	0.001976	55.3196	31.2221	-162.841	-0.036410	0.097196	-0.967203	-0.968593	-0.007519	55.3196	-0.967101	-8.176974E+12	9.195773E-16	NaN
409	1.000000	0.106563	7.36906e+06	-56639.1	1005.82	-29738.6	0.000000	0.000000	6.106769	0.056973	NaN	0.000000	0.001601	0.001582	28.0811	0.062707	0.002025	30.9726	-102.892	-162.678	0.019278	0.105245	-0.959226	-0.960544	0.056973	30.9726	-0.960605	-6.683899E+12	-8.523914E-15	NaN
409	1.000000	0.114540	7.36906e+06	-56639.1	1005.82	-29738.6	0.000000	0.000000	6.114743	-0.006914	NaN	0.000000	0.001638	0.001557	28.0808	0.052874	0.002089	25.3067	110.442	-162.459	-0.068961	0.113278	-0.951249	-0.952511	-0.006914	25.3067	-0.951044	-4.967215E+12	1.391944E-15	NaN
409	1.000000	0.122559	7.36906e+06	-56639.1	1005.82	-29738.6	0.000000	0.000000	6.122760	-0.033744	NaN	0.000000	0.001631	0.001578	28.081	0.108774	0.001939	56.1089	21.5797	-167.029	-0.051881	0.121283	-0.943231	-0.944507	-0.033744	56.1089	-0.942779	-3.842684E+12	8.781400E-15	NaN
409	1.000000	0.130580	7.36906e+06	-56639.1	1005.82	-29738.6	0.000000	0.000000	6.130785	0.029712	NaN	0.000000	0.001598	0.001571	28.0809	0.103442	0.002008	51.5201	-136.042	-165.404	0.075329	0.129235	-0.935209	-0.936554	0.029712	51.5201	-0.935641	-3.078400E+12	-9.651732E-15	NaN
409	1.000000	0.138572	7.36906e+06	-56639.1	1005.82	-29738.6	0.000000	0.000000	6.138775	0.012527	NaN	0.000000	0.001622	0.001566	28.0819	0.152959	0.001988	76.946	-172.544	-169.079	0.104845	0.137303	-0.927218	-0.928486	0.012527	76.946	-0.927340	-2.378429E+12	-5.266819E-15	NaN
409	1.000000	0.146581	7.36906e+06	-56639.1	1005.82	-29738.6	0.000000	0.000000	6.146783	-0.025368	NaN	0.000000	0.001631	0.001570	28.082	0.082453	0.002025	40.7128	26.9744	-164.817	0.035070	0.145268	-0.919208	-0.920521	-0.025368	40.7128	-0.918741	-1.820555E+12	1.393415E-14	NaN
409	1.000000	0.154569	7.36906e+06	-56639.1	1005.82	-29738.6	0.000000	0.000000	6.154773	0.003758	NaN	0.000000	0.001599	0.001570	28.0817	0.104340	0.002119	49.2305	24.3215	-165.338	0.093610	0.153277	-0.911220	-0.912512	0.003758	49.2305	-0.911277	-1.443480E+12	-2.603201E-15	NaN
409	1.000000	0.162584	7.36906e+06	-56639.1	1005.82	-29738.6	0.000000	0.000000	6.162785	-0.047909	NaN	0.000000	0.001573	0.001561	28.0821	0.105829	0.001997	53.0037	-64.2477	-166.003	-0.032894	0.161299	-0.903205	-0.904490	-0.047909	53.0037	-0.902527	-1.099551E+12	4.357136E-14	NaN
409	1.000000	0.170625	7.36906e+06	-56639.1	1005.82	-29738.6	0.000000	0.000000	6.170830	0.056548	NaN	0.000000	0.001566	0.001586	28.0818	0.041200	0.001998	20.6248	84.8528	-167.957	0.013105	0.169266	-0.895164	-0.896524	0.056548	20.6248	-0.897220	-9.321925E+11	-6.066160E-14	NaN
409	1.000000	0.178566	7.36906e+06	-56639.1	1005.82	-29738.6	0.000000	0.000000	6.178770	0.016295	NaN	0.000000	0.001615	0.001533	28.0821	0.006580	0.002040	3.225727	-53.1744	-165.822	0.011702	0.177263	-0.887223	-0.888526	0.016295	3.225727	-0.891012	-7.684056E+11	-2.120640E-14	NaN
409	1.000000	0.186572	7.36906e+06	-56639.1	1005.82	-29738.6	0.000000	0.000000	6.186773	-0.042620	NaN	0.000000	0.001658	0.001584	28.0819	0.025629	0.001990	12.8778	-17.7891	-167.17	0.061959	0.185274	-0.879217	-0.880515	-0.042620	12.8778	-0.876735	-4.926658E+11	8.650847E-14	NaN
409	1.000000	0.194622	7.36906e+06	-56639.1	1005.82	-29738.6	0.000000	0.000000	6.194827	0.055667	NaN	0.000000	0.001589	0.001581	28.0819	0.136344	0.002082	65.488	130.804	-165.266	-0.014901	0.193282	-0.871167	-0.872507	0.055667	65.488	-0.871805	-4.225349E+11	-1.317456E-13	NaN
409	1.000000	0.202632	7.36906e+06	-56639.1	1005.82	-29738.6	0.000000	0.000000	6.202835	0.005469	NaN	0.000000	0.001585	0.001588	28.082	0.027268	0.002096	13.0097	-137.543	-168.619	-0.070093	0.201315	-0.863157	-0.864474	0.005469	13.0097	-0.863472	-3.259246E+11	-1.677876E-14	NaN
409	1.000000	0.210605	7.36906e+06	-56639.1	1005.82	-29738.6	0.000000	0.000000	6.210809	0.019080	NaN	0.000000	0.001582	0.001601	28.0819	0.088122	0.001932	45.6132	-54.1871	-163.605	-0.039404	0.209299	-0.855184	-0.856490	0.019080	45.6132	-0.855498	-2.542004E+11	-7.505758E-14	NaN
409	1.000000	0.218638	7.36906e+06	-56639.1	1005.82	-29738.6	0.000000	0.000000	6.218841	0.000548	NaN	0.000000	0.001638	0.001559	28.0821	0.010054	0.001860	5.405313	-47.4932	-166.117	0.025215	0.217331	-0.847151	-0.848458	0.000548	5.405313	-0.847227	-1.964211E+11	-2.788080E-15	NaN
409	1.000000	0.226642	7.36906e+06	-56639.1	1005.82	-29738.6	0.000000	0.000000	6.226844	-0.044730	NaN	0.000000	0.001578	0.001580	28.082	0.037603	0.002067	18.1877	64.4288	-166.026	0.021344	0.225298	-0.839147	-0.840491	-0.044730	18.1877	-0.837302	-1.441263E+11	3.103558E-13	NaN
409	1.000000	0.234620	7.36906e+06	-56639.1	1005.82	-29738.6	0.000000	0.000000	6.234823	0.004676	NaN	0.000000	0.001583	0.001559	28.0817	0.066205	0.002017	32.8187	87.6724	-167.948	0.082695	0.233324	-0.831169	-0.832465	0.004676	32.8187	-0.831276	-1.194212E+11	-3.915466E-14	NaN
409	1.000000	0.242622	7.36906e+06	-56639.1	1005.82	-29738.6	0.000000	0.000000	6.242826	0.018211	NaN	0.000000	0.001609	0.001537	28.0818	0.080689	0.001985	40.6446	-136.081	-168.155	0.096144	0.241359	-0.823167	-0.824430	0.018211	40.6446	-0.823503	-9.369307E+10	-1.943672E-13	NaN
409	1.000000	0.250627	7.36906e+06	-56639.1	1005.82	-29738.6	0.000000	0.000000	6.250830	-0.001425	NaN	0.000000	0.001570	0.001540	28.0818	0.040141	0.002120	18.9367	-161.109	-165.926	0.053908	0.249353	-0.815162	-0.816436	-0.001425	18.9367	-0.815106	-7.208306E+10	1.977450E-14	NaN
409	1.000000	0.258633	7.36906e+06	-56639.1	1005.82	-29738.6	0.000000	0.000000	6.258837	0.035668	NaN	0.000000	0.001557	0.001573	28.0819	0.083316	0.002067	40.3047	36.2899	-166.588	0.023751	0.257309	-0.807157	-0.808480	0.035668	40.3047	-0.807820	-5.741114E+10	-6.212736E-13	NaN
409	1.000000	0.266613	7.36906e+06	-56639.1	1005.82	-29738.6	0.000000	0.000000	6.266815	-0.029793	NaN	0.000000	0.001587	0.001601	28.0817	0.103651	0.001934	53.6033	57.4625	-165.452	-0.049233	0.265311	-0.799176	-0.800478	-0.029793	53.6033	-0.798759	-4.325296E+10	6.888117E-13	NaN
409	1.000000	0.274641	7.36906e+06	-56639.1	1005.82	-29738.6	0.000000	0.000000	6.274843	-0.017549	NaN	0.000000	0.001575	0.001570	28.0805	0.014500	0.002008	7.220968	-18.4911	-165.211	-0.010522	0.273316	-0.791148	-0.792473	-0.017549	7.220968	-0.789325	-3.220484E+10	5.449165E-13	NaN
409	1.000000	0.282676	7.36906e+06	-56639.1	1005.82	-29738.6	0.000000	0.000000	6.282882	0.077226	NaN	0.000000	0.001602	0.001566	28.0804	0.053565	0.002080	25.7511	-53.853	-167.067	0.062249	0.281383	-0.783113	-0.784406	0.077226	25.7511	-0.785362	-2.845036E+10	-2.714406E-12	NaN
409	1.000000	0.290652	7.36906e+06	-56639.1	1005.82	-29738.6	0.000000	0.000000	6.290857	0.036126	NaN	0.000000	0.001576	0.001577	28.0805	0.136950	0.001968	69.5814	126.02	-164.813	-0.011763	0.289329	-0.775137	-0.776460	0.036126	69.5814	-0.775526	-2.091371E+10	-1.727363E-12	NaN
409	1.000000	0.298632	7.36906e+06	-56639.1	1005.82	-29738.6	0.000000	0.000000	6.298834	-0.041567	NaN	0.000000	0.001562	0.001575	28.0806	0.084944	0.001981	42.8736	-2.731104	-166.031	0.093471	0.297336	-0.767157	-0.768453	-0.041567	42.8736	-0.766430	-1.573112E+10	2.642358E-12	NaN
409	1.000000	0.306626	7.36906e+06	-56639.1	1005.82	-29738.6	0.000000	0.000000	6.306829	0.007250	NaN	0.000000	0.001637	0.001591	28.0805	0.009373	0.001993	4.702084	149.955	-164.222	-0.036194	0.305384	-0.759163	-0.760405	0.007250	4.702084	-0.760320	-1.299128E+10	-5.580290E-13	NaN
409	1.000000	0.314646	7.36906e+06	-56639.1	1005.82	-29738.6	0.000000	0.000000	6.314851	0.025274	NaN	0.000000	0.001615	0.001570	28.0806	0.069583	0.002040	34.1107	26.0121	-169.575	0.100552	0.313359	-0.751143	-0.752430	0.025274	34.1107	-0.751698	-9.916044E+9	-2.548848E-12	NaN
409	1.000000	0.322661	7.36906e+06	-56639.1	1005.82	-29738.6	0.000000	0.000000	6.322865	0.033216	NaN	0.000000	0.001597	0.001586	28.0807	0.079580	0.001995	39.8922	26.2787	-167.286	0.008720	0.321310	-0.743128	-0.744479	0.033216	39.8922	-0.743753	-7.729720E+9	-4.297212E-12	NaN
409	1.000000	0.330654	7.36906e+06	-56639.1	1005.82	-29738.6	0.000000	0.000000	6.330859	0.035105	NaN	0.000000	0.001613	0.001602	28.0807	0.100595	0.002024	49.6913	-35.0836	-166.962	0.007035	0.329363	-0.735135	-0.736426	0.035105	49.6913	-0.735665	-5.997905E+9	-5.852903E-12	NaN
409	1.000000	0.338665	7.36906e+06	-56639.1	1005.82	-29738.6	0.000000	0.000000	6.338869	0.016718	NaN	0.000000	0.001615	0.001598	28.0806	0.005068	0.002046	2.476440	130.123	-166.331	-0.044183	0.337381	-0.727124	-0.728409	0.016718	2.476440	-0.732187	-5.377864E+9	-3.108623E-12	NaN
409	1.000000	0.346655	7.36906e+06	-56639.1	1005.82	-29738.6	0.000000	0.000000	6.346858	-0.008891	NaN	0.000000	0.001613	0.001575	28.0807	0.007659	0.001883	4.067436	-73.4474	-167.362	-0.017690	0.345402	-0.719134	-0.720387	-0.008891	4.067436	-0.717494	-3.390784E+9	2.622215E-12	NaN
409	1.000000	0.354679	7.36906e+06	-56639.1	1005.82	-29738.6	0.000000	0.000000	6.354884	0.056375	NaN	0.000000	0.001604	0.001622	28.0807	0.102885	0.001928	53.3668	89.5365	-168.619	0.103391	0.353371	-0.711110	-0.712419	0.056375	53.3668	-0.711903	-2.844536E+9	-1.981882E-11	NaN
409	1.000000	0.362669	7.36906e+06	-56639.1	1005.82	-29738.6	0.000000	0.000000	6.362873	0.019569	NaN	0.000000	0.001596	0.001607	28.0806	0.028426	0.002028	14.0164	148.075	-166.128	0.020202	0.361373	-0.703120	-0.704416	0.019569	14.0164	-0.704167	-2.230627E+9	-8.773069E-12	NaN
409	1.000000	0.370707	7.36906e+06	-56639.1	1005.82	-29738.6	0.000000	0.000000	6.370914	0.086263	NaN	0.000000	0.001635	0.001621	28.081	0.138819	0.002029	68.4142	-11.2516	-164.644	0.071325	0.369298	-0.695082	-0.696491	0.086263	68.4142	-0.696028	-1.726929E+9	-4.995169E-11	NaN
409	1.000000	0.378681	7.36906e+06	-56639.1	1005.82	-29738.6	0.000000	0.000000	6.378884	0.012358	NaN	0.000000	0.001568	0.001613	28.0829	0.064772	0.002014	32.1642	-82.8473	-167.121	0.051138	0.377364	-0.687108	-0.688425	0.012358	32.1642	-0.687396	-1.316238E+9	-9.389112E-12	NaN
409	1.000000	0.386673	7.36906e+06	-56639.1	1005.82	-29738.6	0.000000	0.000000	6.386877	0.031986	NaN	0.000000	0.001597	0.001563	28.084	0.041064	0.002051	20.0224	-72.6712	-166.924	0.017964	0.385348	-0.679116	-0.680441	0.031986	20.0224	-0.680314	-1.053181E+9	-3.037049E-11	NaN
409	1.000000	0.394675	7.36906e+06	-56639.1	1005.82	-29738.6	0.000000	0.000000	6.394878	0.008402	NaN	0.000000	0.001608	0.001568	28.082	0.051283	0.002003	25.6069	-164.988	-165.669	-0.045677	0.393338	-0.671114	-0.672452	0.008402	25.6069	-0.671360	-7.943429E+8	-1.057762E-11	NaN
409	1.000000	0.402666	7.36906e+06	-56639.1	1005.82	-29738.6	0.000000	0.000000	6.402869	-0.005881	NaN	0.000000	0.001619	0.001580	28.0807	0.057135	0.002000	28.5664	114.565	-170.131	0.041630	0.401307	-0.663123	-0.664482	-0.005881	28.5664	-0.662968	-6.097088E+8	9.646198E-12	NaN
409	1.000000	0.410696	7.36906e+06	-56639.1	1005.82	-29738.6	0.000000	0.000000	6.410900	0.027735	NaN	0.000000	0.001697	0.001558	28.0823	0.047063	0.002028	23.2112	-170.796	-164.206	0.030195	0.409434	-0.655093	-0.656355	0.027735	23.2112	-0.655989	-4.892383E+8	-5.669090E-11	NaN
409	1.000000	0.418683	7.36906e+06	-56639.1	1005.82	-29738.6	0.000000	0.000000	6.418890	0.103286	NaN	0.000000	0.001687	0.001572	28.0817	0.041231	0.001954	21.0973	-156.958	-163.779	-0.022328	0.417484	-0.647107	-0.648305	0.103286	21.0973	-0.650778	-4.150559E+8	-2.488487E-10	NaN
409	1.000000	0.426702	7.36906e+06	-56639.1	1005.82	-29738.6	0.000000	0.000000	6.426906	0.003816	NaN	0.000000	0.001662	0.001588	28.0817	0.058790	0.001991	29.5208	-29.3726	-163.067	0.063397	0.425332	-0.639087	-0.640457	0.003816	29.5208	-0.639184	-2.877994E+8	-1.326006E-11	NaN
409	1.000000	0.434701	7.36906e+06	-56639.1	1005.82	-29738.6	0.000000	0.000000	6.434905	0.011976	NaN	0.000000	0.001648	0.001563	28.082	0.018375	0.001927	9.536025	63.6347	-163.205	0.001307	0.433422	-0.631088	-0.632367	0.011976	9.536025	-0.632030	-2.295598E+8	-5.216900E-11	NaN
409	1.000000	0.442695	7.36906e+06	-56639.1	1005.82	-29738.6	0.000000	0.000000	6.442898	-0.001101	NaN	0.000000	0.001654	0.001544	28.0818	0.013798	0.001984	6.954988	154.077	-163.958	0.079516	0.441408	-0.623094	-0.624381	-0.001101	6.954988	-0.622975	-1.723945E+8	6.388773E-12	NaN
409	1.000000	0.450718	7.36906e+06	-56639.1	1005.82	-29738.6	0.000000	0.000000	6.450923	0.035208	NaN	0.000000	0.001646	0.001569	28.0821	0.067809	0.001934	35.055	-20.6198	-164.767	-0.008896	0.449393	-0.615071	-0.616396	0.035208	35.055	-0.615824	-1.374750E+8	-2.561041E-10	NaN
409	1.000000	0.458740	7.36906e+06	-56639.1	1005.82	-29738.6	0.000000	0.000000	6.458942	-0.017766	NaN	0.000000	0.001636	0.001596	28.0817	0.023617	0.002052	11.51	-86.9964	-167.082	0.023625	0.457384	-0.607049	-0.608405	-0.017766	11.51	-0.605891	-1.003635E+8	1.770164E-10	NaN
409	1.000000	0.466696	7.36906e+06	-56639.1	1005.82	-29738.6	0.000000	0.000000	6.466899	0.006124	NaN	0.000000	0.001616	0.001554	28.0818	0.064481	0.002010	32.0813	-175.579	-164.689	0.077674	0.465444	-0.599093	-0.600345	0.006124	32.0813	-0.599236	-8.127194E+7	-7.535579E-11	NaN
409	1.000000	0.474759	7.36906e+06	-56639.1	1005.82	-29738.6	0.000000	0.000000	6.474963	0.031964	NaN	0.000000	0.001634	0.001575	28.0817	0.041044	0.002007	20.446	-7.047456	-166.085	0.025965	0.473477	-0.591031	-0.592312	0.031964	20.446	-0.592203	-6.501819E+7	-4.916148E-10	NaN
409	1.000000	0.482758	7.36906e+06	-56639.1	1005.82	-29738.6	0.000000	0.000000	6.482961	0.000774	NaN	0.000000	0.001668	0.001602	28.0816	0.051810	0.002037	25.4319	155.305	-166.914	0.055570	0.481393	-0.583031	-0.584396	0.000774	25.4319	-0.583054	-4.862591E+7	-1.592062E-11	NaN
409	1.000000	0.490721	7.36906e+06	-56639.1	1005.82	-29738.6	0.000000	0.000000	6.490925	0.009842	NaN	0.000000	0.001662	0.001582	28.082	0.060056	0.001988	30.2056	164.399	-168.305	0.051717	0.489382	-0.575068	-0.576407	0.009842	30.2056	-0.575312	-3.801967E+7	-2.588629E-10	NaN
409	1.000000	0.498717	7.36906e+06	-56639.1	1005.82	-29738.6	0.000000	0.000000	6.498920	-0.014425	NaN	0.000000	0.001674	0.001579	28.0818	0.067851	0.001882	36.0458	133.073	-163.759	-0.062130	0.497423	-0.567072	-0.568366	-0.014425	36.0458	-0.566772	-2.897442E+7	4.978514E-10	NaN
409	1.000000	0.506763	7.36906e+06	-56639.1	1005.82	-29738.6	0.000000	0.000000	6.506971	0.117221	NaN	0.000000	0.001639	0.001547	28.0816	0.063967	0.002018	31.693	-112.372	-165.078	0.136615	0.505411	-0.559027	-0.560378	0.117221	31.693	-0.561801	-2.473340E+7	-4.739401E-9	NaN
409	1.000000	0.514733	7.36906e+06	-56639.1	1005.82	-29738.6	0.000000	0.000000	6.514936	0.001410	NaN	0.000000	0.001583	0.001570	28.0817	0.063419	0.001980	32.0335	-52.2966	-167.486	-0.023429	0.513429	-0.551056	-0.552360	0.001410	32.0335	-0.551089	-1.758108E+7	-8.019884E-11	NaN
409	1.000000	0.522741	7.36906e+06	-56639.1	1005.82	-29738.6	0.000000	0.000000	6.522944	0.016326	NaN	0.000000	0.001622	0.001554	28.0817	0.073364	0.001928	38.0485	-127.915	-166.385	-0.006029	0.521460	-0.543048	-0.544329	0.016326	38.0485	-0.543370	-1.374324E+7	-1.187902E-9	NaN
409	1.000000	0.530754	7.36906e+06	-56639.1	1005.82	-29738.6	0.000000	0.000000	6.530958	0.033295	NaN	0.000000	0.001622	0.001551	28.0818	0.035944	0.002021	17.7816	83.9578	-162.444	0.011594	0.529423	-0.535035	-0.536366	0.033295	17.7816	-0.536440	-1.101463E+7	-3.022781E-9	NaN
409	1.000000	0.538730	7.36906e+06	-56639.1	1005.82	-29738.6	0.000000	0.000000	6.538935	0.044066	NaN	0.000000	0.001612	0.001552	28.0814	0.048598	0.001930	25.1855	-30.859	-168.663	0.086231	0.537420	-0.527059	-0.528369	0.044066	25.1855	-0.528371	-8.51046e+06	-5.177831E-9	NaN
409	1.000000	0.546765	7.36906e+06	-56639.1	1005.82	-29738.6	0.000000	0.000000	6.546969	0.027902	NaN	0.000000	0.001636	0.001584	28.0813	0.030108	0.002042	14.7449	115.705	-167.292	0.080173	0.545454	-0.519024	-0.520335	0.027902	14.7449	-0.520444	-6.60338e+06	-4.225377E-9	NaN
409	1.000000	0.554739	7.36906e+06	-56639.1	1005.82	-29738.6	0.000000	0.000000	6.554942	0.008758	NaN	0.000000	0.001613	0.001572	28.0804	0.087916	0.002051	42.8593	159.082	-168.031	-0.082588	0.553394	-0.511051	-0.512395	0.008758	42.8593	-0.511204	-4.91114e+06	-1.783254E-9	NaN
409	1.000000	0.562775	7.36906e+06	-56639.1	1005.82	-29738.6	0.000000	0.000000	6.562980	0.030027	NaN	0.000000	0.001617	0.001551	28.0802	0.077054	0.001863	41.36	71.0664	-166.814	-0.042035	0.561469	-0.503014	-0.504320	0.030027	41.36	-0.503558	-3.8428e+06	-7.813922E-9	NaN
409	1.000000	0.570755	7.36906e+06	-56639.1	1005.82	-29738.6	0.000000	0.000000	6.570962	0.085290	NaN	0.000000	0.001641	0.001575	28.0803	0.038720	0.001912	20.2473	0.553546	-167.169	0.021080	0.569505	-0.495034	-0.496284	0.085290	20.2473	-0.498193	-3.23451e+06	-2.636874E-8	NaN
409	1.000000	0.578773	7.36906e+06	-56639.1	1005.82	-29738.6	0.000000	0.000000	6.578977	0.010661	NaN	0.000000	0.001630	0.001595	28.0803	0.066254	0.001925	34.4239	-113.063	-162.899	0.085565	0.577411	-0.487016	-0.488378	0.010661	34.4239	-0.487248	-2.27474e+06	-4.686885E-9	NaN
409	1.000000	0.586780	7.36906e+06	-56639.1	1005.82	-29738.6	0.000000	0.000000	6.586983	-0.004964	NaN	0.000000	0.001617	0.001590	28.0808	0.024576	0.001881	13.068	118.999	-165.654	-0.014375	0.585477	-0.479009	-0.480313	-0.004964	13.068	-0.478725	-1.7285e+06	2.871855E-9	NaN
409	1.000000	0.594776	7.36906e+06	-56639.1	1005.82	-29738.6	0.000000	0.000000	6.594978	-0.032061	NaN	0.000000	0.001631	0.001590	28.0803	0.098535	0.002030	48.5439	40.6402	-165.836	-0.035872	0.593470	-0.471013	-0.472319	-0.032061	48.5439	-0.470518	-1.32638e+06	2.417199E-8	NaN
409	1.000000	0.602763	7.36906e+06	-56639.1	1005.82	-29738.6	0.000000	0.000000	6.602967	0.003985	NaN	0.000000	0.001616	0.001566	28.0803	0.047660	0.001970	24.1931	-102.871	-166.678	0.034823	0.601478	-0.463026	-0.464311	0.003985	24.1931	-0.463149	-1.04534e+06	-3.812576E-9	NaN
409	1.000000	0.610793	7.36906e+06	-56639.1	1005.82	-29738.6	0.000000	0.000000	6.610996	-0.002681	NaN	0.000000	0.001586	0.001566	28.0805	0.055698	0.001970	28.2762	60.1949	-166.963	-0.022589	0.609456	-0.454996	-0.456334	-0.002681	28.2762	-0.454925	-801053	3.346904E-9	NaN
409	1.000000	0.618758	7.36906e+06	-56639.1	1005.82	-29738.6	0.000000	0.000000	6.618963	0.041115	NaN	0.000000	0.001600	0.001610	28.0803	0.031887	0.001968	16.2053	-172.653	-168.415	-0.069277	0.617428	-0.447031	-0.448361	0.041115	16.2053	-0.448934	-659672	-6.232652E-8	NaN
409	1.000000	0.626780	7.36906e+06	-56639.1	1005.82	-29738.6	0.000000	0.000000	6.626984	0.025986	NaN	0.000000	0.001611	0.001610	28.0803	0.083027	0.001881	44.1358	-8.482697	-168.269	-0.023121	0.625472	-0.439010	-0.440317	0.025986	44.1358	-0.439451	-484861	-5.359521E-8	NaN
409	1.000000	0.634774	7.36906e+06	-56639.1	1005.82	-29738.6	0.000000	0.000000	6.634974	-0.081397	NaN	0.000000	0.001617	0.001568	28.0803	0.027211	0.002004	13.579	-67.1696	-166.511	-0.012995	0.633477	-0.431015	-0.432312	-0.081397	13.579	-0.426519	-318270	2.557473E-7	NaN
409	1.000000	0.642794	7.36906e+06	-56639.1	1005.82	-29738.6	0.000000	0.000000	6.642998	0.016302	NaN	0.000000	0.001630	0.001559	28.0806	0.110425	0.001999	55.2369	138.077	-165.432	0.022668	0.641419	-0.422995	-0.424370	0.016302	55.2369	-0.423216	-285768	-5.704509E-8	NaN
409	1.000000	0.650768	7.36906e+06	-56639.1	1005.82	-29738.6	0.000000	0.000000	6.650968	-0.064737	NaN	0.000000	0.001603	0.001579	28.0802	0.027646	0.002027	13.6358	109.201	-163.59	-0.018362	0.649484	-0.415021	-0.416305	-0.064737	13.6358	-0.411461	-194611	3.326499E-7	NaN
409	1.000000	0.658817	7.36906e+06	-56639.1	1005.82	-29738.6	0.000000	0.000000	6.659019	-0.048135	NaN	0.000000	0.001624	0.001580	28.0804	0.058886	0.001989	29.6002	-57.7234	-165.226	-0.083783	0.657455	-0.406972	-0.408334	-0.048135	29.6002	-0.405752	-161419	2.981984E-7	NaN
409	1.000000	0.666792	7.36906e+06	-56639.1	1005.82	-29738.6	0.000000	0.000000	6.666997	0.063556	NaN	0.000000	0.001643	0.001576	28.0803	0.066825	0.001871	35.7076	-55.5748	-164.713	0.071797	0.665531	-0.398997	-0.400258	0.063556	35.7076	-0.400332	-135124	-4.703554E-7	NaN
409	1.000000	0.674831	7.36906e+06	-56639.1	1005.82	-29738.6	0.000000	0.000000	6.675034	-0.017836	NaN	0.000000	0.001635	0.001583	28.0804	0.026196	0.002063	12.6983	4.330211	-165.516	-0.070753	0.673532	-0.390958	-0.392258	-0.017836	12.6983	-0.389904	-95895.9	1.859923E-7	NaN
409	1.000000	0.682817	7.36906e+06	-56639.1	1005.82	-29738.6	0.000000	0.000000	6.683020	0.000181	NaN	0.000000	0.001673	0.001602	28.0819	0.098288	0.001971	49.8612	-122.663	-162.448	-0.076936	0.681504	-0.382972	-0.384285	0.000181	49.8612	-0.382975	-76305.8	-2.371405E-9	NaN
409	1.000000	0.690802	7.36906e+06	-56639.1	1005.82	-29738.6	0.000000	0.000000	6.691007	0.053454	NaN	0.000000	0.001613	0.001567	28.0815	0.043931	0.001923	22.8405	68.9856	-169.066	0.062485	0.689517	-0.374987	-0.376273	0.053454	22.8405	-0.376742	-62102.6	-8.607394E-7	NaN
409	1.000000	0.698834	7.36906e+06	-56639.1	1005.82	-29738.6	0.000000	0.000000	6.699037	0.002545	NaN	0.000000	0.001631	0.001586	28.0816	0.035953	0.001959	18.3556	118.747	-163.738	-0.010648	0.697524	-0.366955	-0.368265	0.002545	18.3556	-0.367059	-45055.7	-5.647781E-8	NaN
409	1.000000	0.706829	7.36906e+06	-56639.1	1005.82	-29738.6	0.000000	0.000000	6.707029	-0.060059	NaN	0.000000	0.001635	0.001537	28.0814	0.095816	0.002050	46.745	175.661	-166.094	-0.044526	0.705516	-0.358961	-0.360273	-0.060059	46.745	-0.357997	-33333.3	1.801778E-6	NaN
409	1.000000	0.714840	7.36906e+06	-56639.1	1005.82	-29738.6	0.000000	0.000000	6.715044	0.001136	NaN	0.000000	0.001671	0.001562	28.0813	0.093928	0.001984	47.3465	63.0437	-165.354	0.009630	0.713554	-0.350949	-0.352235	0.001136	47.3465	-0.350967	-26365.2	-4.310251E-8	NaN
409	1.000000	0.722825	7.36906e+06	-56639.1	1005.82	-29738.6	0.000000	0.000000	6.723028	0.005153	NaN	0.000000	0.001600	0.001574	28.0815	0.107808	0.002008	53.6891	-164.088	-164.072	0.058890	0.721542	-0.342964	-0.344247	0.005153	53.6891	-0.343036	-20220	-2.548682E-7	NaN
409	1.000000	0.730813	7.36906e+06	-56639.1	1005.82	-29738.6	0.000000	0.000000	6.731019	0.084247	NaN	0.000000	0.001661	0.001553	28.0813	0.072732	0.001984	36.664	-79.3148	-171.94	0.082743	0.729566	-0.334976	-0.336223	0.084247	36.664	-0.336700	-16346	-5.153990E-6	NaN
409	1.000000	0.738824	7.36906e+06	-56639.1	1005.82	-29738.6	0.000000	0.000000	6.739028	0.025770	NaN	0.000000	0.001669	0.001534	28.0819	0.037238	0.001919	19.4038	-2.880510	-163.971	0.102259	0.737555	-0.326965	-0.328234	0.025770	19.4038	-0.327961	-12178.2	-2.116063E-6	NaN
409	1.000000	0.746851	7.36906e+06	-56639.1	1005.82	-29738.6	0.000000	0.000000	6.747056	0.037002	NaN	0.000000	0.001635	0.001564	28.0816	0.059582	0.002056	28.9852	53.3856	-165.932	0.053148	0.745521	-0.318938	-0.320268	0.037002	28.9852	-0.319896	-9270.45	-3.991371E-6	NaN
409	1.000000	0.754847	7.36906e+06	-56639.1	1005.82	-29738.6	0.000000	0.000000	6.755050	-0.025140	NaN	0.000000	0.001632	0.001554	28.0814	0.028357	0.002110	13.4371	41.4987	-165.797	0.105396	0.753536	-0.310942	-0.312253	-0.025140	13.4371	-0.309538	-6519.64	3.856092E-6	NaN
409	1.000000	0.762870	7.36906e+06	-56639.1	1005.82	-29738.6	0.000000	0.000000	6.763072	-0.019733	NaN	0.000000	0.001640	0.001550	28.0814	0.064412	0.002143	30.057	-25.379	-166.989	-0.045096	0.761524	-0.302920	-0.304265	-0.019733	30.057	-0.302427	-5113.75	3.858888E-6	NaN
409	1.000000	0.770847	7.36906e+06	-56639.1	1005.82	-29738.6	0.000000	0.000000	6.771049	-0.025391	NaN	0.000000	0.001591	0.001553	28.0814	0.074871	0.002041	36.6786	6.901884	-167.638	0.022065	0.769571	-0.294942	-0.296218	-0.025391	36.6786	-0.294423	-3885.65	6.534597E-6	NaN
409	1.000000	0.778839	7.36906e+06	-56639.1	1005.82	-29738.6	0.000000	0.000000	6.779045	0.076713	NaN	0.000000	0.001636	0.001533	28.0825	0.041037	0.001913	21.4535	171.183	-160.691	0.086337	0.777511	-0.286950	-0.288278	0.076713	21.4535	-0.289632	-3294.48	-2.328536E-5	NaN
409	1.000000	0.786865	7.36906e+06	-56639.1	1005.82	-29738.6	0.000000	0.000000	6.787068	-0.020331	NaN	0.000000	0.001638	0.001565	28.0811	0.010732	0.001979	5.423047	176.407	-167.968	-0.022424	0.785511	-0.278924	-0.280278	-0.020331	5.423047	-0.276112	-2061.73	9.860980E-6	NaN
409	1.000000	0.794863	7.36906e+06	-56639.1	1005.82	-29738.6	0.000000	0.000000	6.795065	-0.028502	NaN	0.000000	0.001633	0.001583	28.0813	0.045597	0.002038	22.3762	-21.9694	-164.476	-0.009727	0.793480	-0.270926	-0.272309	-0.028502	22.3762	-0.269971	-1663.8	1.713061E-5	NaN
409	1.000000	0.802842	7.36906e+06	-56639.1	1005.82	-29738.6	0.000000	0.000000	6.803047	0.041277	NaN	0.000000	0.001715	0.001526	28.0814	0.014511	0.002038	7.118820	100.903	-166.216	0.005876	0.801577	-0.262947	-0.264212	0.041277	7.118820	-0.267296	-1514.94	-2.724634E-5	NaN
409	1.000000	0.810863	7.36906e+06	-56639.1	1005.82	-29738.6	0.000000	0.000000	6.811063	-0.059034	NaN	0.000000	0.001689	0.001597	28.0814	0.120112	0.002035	59.0304	-69.9655	-166.655	0.058430	0.809562	-0.254926	-0.256227	-0.059034	59.0304	-0.254176	-953.741	6.189764E-5	NaN
409	1.000000	0.818872	7.36906e+06	-56639.1	1005.82	-29738.6	0.000000	0.000000	6.819074	-0.036669	NaN	0.000000	0.001716	0.001599	28.0804	0.054001	0.001901	28.4009	12.0458	-165.037	-0.122701	0.817568	-0.246917	-0.248221	-0.036669	28.4009	-0.245949	-711.526	5.153593E-5	NaN
409	1.000000	0.826885	7.36906e+06	-56639.1	1005.82	-29738.6	0.000000	0.000000	6.827089	0.012181	NaN	0.000000	0.001734	0.001658	28.0802	0.059785	0.002043	29.2645	-10.2209	-163.1	0.057163	0.825577	-0.238904	-0.240212	0.012181	29.2645	-0.239216	-558.858	-2.179653E-5	NaN
409	1.000000	0.834884	7.36906e+06	-56639.1	1005.82	-29738.6	0.000000	0.000000	6.835087	0.016591	NaN	0.000000	0.001692	0.001629	28.0804	0.102304	0.001984	51.5736	88.5935	-168.779	-0.009078	0.833579	-0.230906	-0.232210	0.016591	51.5736	-0.231147	-417.459	-3.974289E-5	NaN
409	1.000000	0.842861	7.36906e+06	-56639.1	1005.82	-29738.6	0.000000	0.000000	6.843061	-0.075405	NaN	0.000000	0.001703	0.001634	28.0802	0.051596	0.002008	25.6957	89.2624	-169.615	-0.070010	0.841590	-0.222928	-0.224199	-0.075405	25.6957	-0.220728	-285.297	0.000264	NaN
409	1.000000	0.850884	7.36906e+06	-56639.1	1005.82	-29738.6	0.000000	0.000000	6.851085	-0.068358	NaN	0.000000	0.001681	0.001637	28.0801	0.044398	0.002098	21.1571	-40.1237	-165.85	-0.017969	0.849547	-0.214905	-0.216242	-0.068358	21.1571	-0.212482	-210.348	0.000325	NaN
409	1.000000	0.858873	7.36906e+06	-56639.1	1005.82	-29738.6	0.000000	0.000000	6.859075	-0.014260	NaN	0.000000	0.001706	0.001653	28.08	0.079222	0.001937	40.9055	-158.347	-165.942	-0.140820	0.857589	-0.206917	-0.208201	-0.014260	40.9055	-0.206655	-169.247	8.425830E-5	NaN
409	1.000000	0.866902	7.36906e+06	-56639.1	1005.82	-29738.6	0.000000	0.000000	6.867109	0.088278	NaN	0.000000	0.001724	0.001652	28.0802	0.128855	0.002020	63.7956	23.5909	-166.436	0.081663	0.865595	-0.198887	-0.200194	0.088278	63.7956	-0.199925	-131.361	-0.000672	NaN
409	1.000000	0.874897	7.36906e+06	-56639.1	1005.82	-29738.6	0.000000	0.000000	6.875099	-0.011953	NaN	0.000000	0.001713	0.001635	28.0805	0.116328	0.001986	58.5828	91.1923	-166.676	0.018781	0.873603	-0.190893	-0.192186	-0.011953	58.5828	-0.190740	-92.5496	0.000129	NaN
409	1.000000	0.882871	7.36906e+06	-56639.1	1005.82	-29738.6	0.000000	0.000000	6.883076	0.042377	NaN	0.000000	0.001695	0.001637	28.0804	0.025325	0.002005	12.6301	66.6761	-166.859	0.075236	0.881587	-0.182918	-0.184202	0.042377	12.6301	-0.185434	-75.4136	-0.000562	NaN
409	1.000000	0.890902	7.36906e+06	-56639.1	1005.82	-29738.6	0.000000	0.000000	6.891104	-0.027332	NaN	0.000000	0.001719	0.001588	28.0803	0.034208	0.002052	16.6667	113.539	-166.113	0.024766	0.889612	-0.174887	-0.176177	-0.027332	16.6667	-0.173657	-47.5203	0.000575	NaN
409	1.000000	0.898904	7.36906e+06	-56639.1	1005.82	-29738.6	0.000000	0.000000	6.899106	-0.030409	NaN	0.000000	0.001699	0.001624	28.0803	0.055650	0.001873	29.7147	-128.265	-164.72	-0.037500	0.897608	-0.166885	-0.168181	-0.030409	29.7147	-0.166117	-35.1477	0.000865	NaN
409	1.000000	0.906935	7.36906e+06	-56639.1	1005.82	-29738.6	0.000000	0.000000	6.907137	-0.020032	NaN	0.000000	0.001692	0.001647	28.0812	0.083123	0.001940	42.8474	-161.268	-164.527	-0.048593	0.905574	-0.158854	-0.160215	-0.020032	42.8474	-0.158503	-25.7836	0.000777	NaN
409	1.000000	0.914894	7.36906e+06	-56639.1	1005.82	-29738.6	0.000000	0.000000	6.915100	0.052516	NaN	0.000000	0.001722	0.001597	28.0806	0.068921	0.002004	34.3965	122.502	-164.682	0.025925	0.913543	-0.150895	-0.152246	0.052516	34.3965	-0.152040	-19.7289	-0.002662	NaN
409	1.000000	0.922930	7.36906e+06	-56639.1	1005.82	-29738.6	0.000000	0.000000	6.923134	0.019120	NaN	0.000000	0.001703	0.001570	28.0804	0.142647	0.001861	76.662	85.8383	-166.441	-0.043558	0.921581	-0.142859	-0.144208	0.019120	76.662	-0.143046	-13.4868	-0.001418	NaN
409	1.000000	0.930933	7.36907e+06	-56639.1	1005.82	-29738.6	0.000000	0.000000	6.931139	0.062404	NaN	0.000000	0.001688	0.001574	28.0807	0.067625	0.001956	34.5796	151.685	-165.877	-0.001269	0.929574	-0.134856	-0.136215	0.062404	34.5796	-0.136209	-10.0306	-0.006221	NaN
409	1.000000	0.938926	7.36907e+06	-56639.1	1005.82	-29738.6	0.000000	0.000000	6.939130	0.022536	NaN	0.000000	0.001700	0.001618	28.0803	0.059751	0.001988	30.0545	86.3409	-168.993	0.033910	0.937617	-0.126863	-0.128172	0.022536	30.0545	-0.127426	-6.788532	-0.003320	NaN
409	1.000000	0.946935	7.36907e+06	-56639.1	1005.82	-29738.6	0.000000	0.000000	6.947138	0.002838	NaN	0.000000	0.001608	0.001604	28.0805	0.071704	0.002045	35.0548	-102.649	-168.217	0.076515	0.945674	-0.118854	-0.120116	0.002838	35.0548	-0.118915	-4.593391	-0.000618	NaN
409	1.000000	0.954916	7.36907e+06	-56639.1	1005.82	-29738.6	0.000000	0.000000	6.955121	0.031984	NaN	0.000000	0.001609	0.001623	28.0818	0.104081	0.002177	47.8006	43.7977	-164.154	0.029573	0.953678	-0.110873	-0.112111	0.031984	47.8006	-0.111375	-3.211927	-0.009958	NaN
409	1.000000	0.962911	7.36907e+06	-56639.1	1005.82	-29738.6	0.000000	0.000000	6.963116	0.053765	NaN	0.000000	0.001643	0.001588	28.0819	0.163891	0.001925	85.1394	163.537	-164.944	0.029235	0.961627	-0.102878	-0.104162	0.053765	85.1394	-0.103352	-2.164839	-0.024836	NaN
409	1.000000	0.970919	7.36907e+06	-56639.1	1005.82	-29738.6	0.000000	0.000000	6.971126	0.101975	NaN	0.000000	0.001630	0.001602	28.082	0.099978	0.002076	48.1645	-132.102	-165.906	-0.002489	0.969580	-0.094870	-0.096209	0.101975	48.1645	-0.096458	-1.522324	-0.066986	NaN
409	1.000000	0.978956	7.36907e+06	-56639.1	1005.82	-29738.6	0.000000	0.000000	6.979157	-0.055384	NaN	0.000000	0.001604	0.001596	28.0819	0.069540	0.002069	33.6084	65.3536	-166.647	-0.052137	0.977653	-0.086833	-0.088136	-0.055384	33.6084	-0.085597	-0.849395	0.065204	NaN
409	1.000000	0.986943	7.36907e+06	-56639.1	1005.82	-29738.6	0.000000	0.000000	6.987149	0.074187	NaN	0.000000	0.001592	0.001580	28.0819	0.014250	0.002003	7.115895	-73.5642	-167.394	0.041915	0.985597	-0.078846	-0.080192	0.074187	7.115895	-0.086666	-0.901115	-0.082329	NaN
409	1.000000	0.994923	7.36907e+06	-56639.1	1005.82	-29738.6	0.000000	0.000000	6.995128	0.045058	NaN	0.000000	0.001602	0.001597	28.0814	0.091172	0.001965	46.3951	154.045	-168.427	0.014147	0.993691	-0.070866	-0.072098	0.045058	46.3951	-0.071595	-0.376163	-0.119782	NaN
409	1.000000	1.002966	7.36907e+06	-56639.1	1005.82	-29738.6	0.000000	0.000000	7.003169	-0.016830	NaN	0.000000	0.001588	0.001587	28.0816	0.066632	0.001992	33.4443	25.7916	-167.547	0.041884	1.001599	-0.062823	-0.064190	-0.016830	33.4443	-0.062445	-0.211390	0.079615	NaN
409	1.000000	1.010931	7.36907e+06	-56639.1	1005.82	-29738.6	0.000000	0.000000	7.011134	-0.008797	NaN	0.000000	0.001615	0.001587	28.0815	0.131958	0.001997	66.0901	-156.218	-167.049	-0.049467	1.009650	-0.054858	-0.056139	-0.008797	66.0901	-0.054758	-0.126672	0.069444	NaN
409	1.000000	1.018931	7.36907e+06	-56639.1	1005.82	-29738.6	0.000000	0.000000	7.019136	0.045208	NaN	0.000000	0.001626	0.001595	28.0814	0.058659	0.001988	29.5015	95.4916	-168.317	0.037499	1.017647	-0.046858	-0.048143	0.045208	29.5015	-0.048007	-0.079391	-0.569437	NaN
409	1.000000	1.026951	7.36907e+06	-56639.1	1005.82	-29738.6	0.000000	0.000000	7.027155	0.016934	NaN	0.000000	0.001613	0.001584	28.0817	0.131949	0.001978	66.725	-16.0883	-166.583	-0.115193	1.025632	-0.038838	-0.040157	0.016934	66.725	-0.039028	-0.042257	-0.400737	NaN
409	1.000000	1.034949	7.36907e+06	-56639.1	1005.82	-29738.6	0.000000	0.000000	7.035155	0.066741	NaN	0.000000	0.001613	0.001587	28.0814	0.025970	0.001999	12.9909	83.5719	-164.212	0.070180	1.033620	-0.030840	-0.032169	0.066741	12.9909	-0.034693	-0.031366	-2.127791	NaN
409	1.000000	1.042955	7.36907e+06	-56639.1	1005.82	-29738.6	0.000000	0.000000	7.043156	-0.054039	NaN	0.000000	0.001596	0.001613	28.0814	0.033272	0.002098	15.8623	23.991	-165.283	-0.068403	1.041658	-0.022834	-0.024131	-0.054039	15.8623	-0.020279	-0.012768	4.232399	NaN
409	1.000000	1.050965	7.36907e+06	-56639.1	1005.82	-29738.6	0.000000	0.000000	7.051169	0.027074	NaN	0.000000	0.001618	0.001607	28.0815	0.036714	0.002077	17.677	93.8216	-166.793	-0.054250	1.049658	-0.014824	-0.016131	0.027074	17.677	-0.015973	-0.009866	-2.744066	NaN
409	1.000000	1.058953	7.36907e+06	-56639.1	1005.82	-29738.6	0.000000	0.000000	7.059159	0.070677	NaN	0.000000	0.001632	0.001596	28.0813	0.024948	0.002058	12.1232	-15.2295	-163.164	0.058366	1.057643	-0.006837	-0.008146	0.070677	12.1232	-0.011209	-0.007077	-9.986548	NaN
409	1.000000	1.066968	7.36907e+06	-56639.1	1005.82	-29738.6	0.000000	0.000000	7.067192	0.507185	NaN	0.000000	0.001623	0.001579	28.0817	0.893626	0.001923	464.722	18.2402	-168.608	0.238979	1.065618	0.001179	-0.000171	0.507185	464.722	0.000360	0.000271	1869.74	25779.5
409	1.000000	1.074941	7.36907e+06	-56639.1	1005.82	-29738.6	0.000000	0.000000	7.075444	7.275249	NaN	0.000000	0.001635	0.001575	28.0815	6.322160	0.001638	3858.68	10.5026	-170.072	5.668699	1.073643	0.009152	0.007854	7.275249	3858.68	0.007738	0.006774	1073.96	42833.3
409	2.000000	1.078535	7.36907e+06	-56639.1	1005.82	-29738.6	0.000000	0.000000	7.079175	10.6205	NaN	0.000000	0.001595	0.001568	28.0814	9.392325	0.001703	5514.37	3.101097	-170.206	10.6505	1.078184	0.012746	0.012395	10.6205	5514.37	0.011302	0.010664	995.889	48786.8
409	2.000000	1.080451	7.36907e+06	-56639.1	1005.82	-29738.6	0.000000	0.000000	7.081225	13.8887	NaN	0.000000	0.001613	0.001590	28.0801	11.0238	0.001789	6162.69	8.213702	-175.858	13.6588	1.080234	0.014662	0.014445	13.8887	6162.69	0.012971	0.012675	1095.79	50012.2
409	2.000000	1.082441	7.36907e+06	-56639.1	1005.82	-29738.6	0.000000	0.000000	7.083326	16.5779	NaN	0.000000	0.001593	0.001580	28.0801	12.8081	0.001686	7597.36	1.891417	-170.789	16.356	1.082222	0.016652	0.016433	16.5779	7597.36	0.015015	0.015306	1083.1	56105.6
409	2.000000	1.084464	7.36907e+06	-56639.1	1005.82	-29738.6	0.000000	0.000000	7.085506	20.405	NaN	0.000000	0.001624	0.001546	28.0804	15.2491	0.001726	8836.48	4.042401	-173.66	19.613	1.084147	0.018675	0.018358	20.405	8836.48	0.016943	0.017964	1135.89	60235.4
409	2.000000	1.086450	7.36907e+06	-56639.1	1005.82	-29738.6	0.000000	0.000000	7.087645	24.1127	NaN	0.000000	0.001652	0.001571	28.0802	16.9549	0.001960	8650.84	6.961360	-175.967	23.6837	1.086164	0.020660	0.020375	24.1127	8650.84	0.018570	0.020345	1185.21	55412.2
409	2.000000	1.088461	7.36907e+06	-56639.1	1005.82	-29738.6	0.000000	0.000000	7.089782	27.1768	NaN	0.000000	0.001597	0.001574	28.0804	18.1906	0.001790	10162.3	2.210379	-172.952	27.2715	1.088136	0.022671	0.022347	27.1768	10162.3	0.020666	0.023599	1151.59	60438.9
409	2.000000	1.090421	7.36907e+06	-56639.1	1005.82	-29738.6	0.000000	0.000000	7.091937	31.8943	NaN	0.000000	0.001631	0.001562	28.0803	19.542	0.001743	11213.5	-1.074810	-171.038	31.2504	1.090125	0.024632	0.024335	31.8943	11213.5	0.022499	0.026622	1198.04	62790.5
409	2.000000	1.092410	7.36907e+06	-56639.1	1005.82	-29738.6	0.000000	0.000000	7.094115	36.5089	NaN	0.000000	0.001624	0.001590	28.08	22.545	0.001741	12952.9	6.303277	179.597	35.9976	1.092096	0.026621	0.026307	36.5089	12952.9	0.024507	0.030124	1211.94	68183.8
409	2.000000	1.094461	7.36907e+06	-56639.1	1005.82	-29738.6	0.000000	0.000000	7.096425	42.7978	NaN	0.000000	0.001614	0.001540	28.0807	24.0372	0.001747	13762.7	8.172982	179.506	42.7792	1.094023	0.028672	0.028234	42.7978	13762.7	0.026340	0.033498	1277.63	68701.7
409	2.000000	1.096426	7.36907e+06	-56639.1	1005.82	-29738.6	0.000000	0.000000	7.098586	47.5541	NaN	0.000000	0.001679	0.001525	28.0801	26.0643	0.001749	14906.4	6.781685	179.32	47.647	1.096058	0.030637	0.030269	47.5541	14906.4	0.028245	0.037184	1278.89	70626.8
409	2.000000	1.098410	7.36907e+06	-56639.1	1005.82	-29738.6	0.000000	0.000000	7.100770	52.4216	NaN	0.000000	0.001654	0.001550	28.0805	28.9768	0.001851	15657.1	4.071990	-178.723	51.3252	1.098126	0.032621	0.032337	52.4216	15657.1	0.030110	0.040973	1279.43	70670.5
409	2.000000	1.100402	7.36907e+06	-56639.1	1005.82	-29738.6	0.000000	0.000000	7.102917	56.1894	NaN	0.000000	0.001638	0.001585	28.0803	30.3436	0.001723	17611.5	4.943534	178.441	55.6119	1.100124	0.034613	0.034335	56.1894	17611.5	0.032220	0.045472	1235.7	75456.7
409	2.000000	1.102419	7.36907e+06	-56639.1	1005.82	-29738.6	0.000000	0.000000	7.105263	64.1898	NaN	0.000000	0.001651	0.001570	28.0803	32.4613	0.001883	17236.8	6.028324	178.527	64.8973	1.102087	0.036630	0.036298	64.1898	17236.8	0.033837	0.049072	1308.07	71090.9
409	2.000000	1.104383	7.36907e+06	-56639.1	1005.82	-29738.6	0.000000	0.000000	7.107553	72.1086	NaN	0.000000	0.001655	0.001616	28.0816	34.1853	0.001757	19454.3	8.375434	174.597	70.6554	1.104023	0.038594	0.038234	72.1086	19454.3	0.035814	0.053659	1343.82	76730
409	2.000000	1.106347	7.36907e+06	-56639.1	1005.82	-29738.6	0.000000	0.000000	7.109757	77.9324	NaN	0.000000	0.001666	0.001637	28.0805	34.5254	0.001748	19748.1	2.237338	-178.844	74.8906	1.105965	0.040558	0.040176	77.9324	19748.1	0.037598	0.057969	1344.38	74938
409	2.000000	1.108416	7.36907e+06	-56639.1	1005.82	-29738.6	0.000000	0.000000	7.112116	84.993	NaN	0.000000	0.001651	0.001630	28.0804	37.8136	0.001800	21010	5.322815	177.276	85.103	1.108090	0.042627	0.042301	84.993	21010	0.039593	0.062980	1349.52	76488.8
409	2.000000	1.110377	7.36907e+06	-56639.1	1005.82	-29738.6	0.000000	0.000000	7.114352	91.6837	NaN	0.000000	0.001642	0.001588	28.0804	38.7481	0.001723	22494.8	5.920705	175.615	90.3859	1.110073	0.044588	0.044284	91.6837	22494.8	0.041531	0.068045	1347.39	78787.3
409	2.000000	1.112355	7.36907e+06	-56639.1	1005.82	-29738.6	0.000000	0.000000	7.116769	102.341	NaN	0.000000	0.001665	0.001581	28.0804	39.8573	0.001718	23193.2	4.133019	177.095	100.993	1.112010	0.046566	0.046221	102.341	23193.2	0.043256	0.072715	1407.44	78582.1
409	2.000000	1.114408	7.36907e+06	-56639.1	1005.82	-29738.6	0.000000	0.000000	7.118969	105.921	NaN	0.000000	0.001641	0.001630	28.0822	41.8078	0.001712	24424.5	0.786739	-179.937	104.203	1.114191	0.048619	0.048402	105.921	24424.5	0.045367	0.078631	1347.06	79579.6
409	2.000000	1.116399	7.36907e+06	-56639.1	1005.82	-29738.6	0.000000	0.000000	7.121370	115.89	NaN	0.000000	0.001622	0.001627	28.0818	44.4095	0.001794	24758.9	5.306084	176.481	116.91	1.116090	0.050610	0.050301	115.89	24758.9	0.047099	0.083659	1385.27	78207.6
409	2.000000	1.118368	7.36907e+06	-56639.1	1005.82	-29738.6	0.000000	0.000000	7.123582	121.777	NaN	0.000000	0.001625	0.001603	28.0817	46.6945	0.001753	26629.7	4.325920	175.731	120.287	1.118116	0.052579	0.052327	121.777	26629.7	0.049149	0.089802	1356.06	81188.7
409	2.000000	1.120353	7.36907e+06	-56639.1	1005.82	-29738.6	0.000000	0.000000	7.126192	136.999	NaN	0.000000	0.001597	0.001592	28.0816	48.1356	0.001767	27233.9	8.371367	172.202	134.744	1.120010	0.054564	0.054221	136.999	27233.9	0.050791	0.094873	1444.03	80781.2
409	2.000000	1.122348	7.36907e+06	-56639.1	1005.82	-29738.6	0.000000	0.000000	7.128511	144.852	NaN	0.000000	0.001596	0.001630	28.0816	50.8541	0.001811	28078.1	7.563415	173.007	143.079	1.121956	0.056559	0.056167	144.852	28078.1	0.052690	0.100909	1435.46	80756.2
409	2.000000	1.124362	7.36907e+06	-56639.1	1005.82	-29738.6	0.000000	0.000000	7.130694	148.961	NaN	0.000000	0.001601	0.001589	28.082	52.6989	0.001815	29039.4	8.260390	171.975	147.426	1.124037	0.058573	0.058248	148.961	29039.4	0.054726	0.107578	1384.69	80890.7
409	2.000000	1.126311	7.36907e+06	-56639.1	1005.82	-29738.6	0.000000	0.000000	7.133091	159.862	NaN	0.000000	0.001605	0.001561	28.0816	52.9407	0.001712	30924.9	1.909505	177.136	156.363	1.126038	0.060522	0.060249	159.862	30924.9	0.056645	0.114053	1401.65	83662.2
409	2.000000	1.128353	7.36907e+06	-56639.1	1005.82	-29738.6	0.000000	0.000000	7.135376	165.757	NaN	0.000000	0.001618	0.001583	28.0817	56.2	0.001659	33870.4	5.796076	172.654	163.39	1.128072	0.062564	0.062283	165.757	33870.4	0.058894	0.121872	1360.1	88642.4
409	2.000000	1.130404	7.36907e+06	-56639.1	1005.82	-29738.6	0.000000	0.000000	7.137764	173.963	NaN	0.000000	0.001654	0.001616	28.0816	57.0607	0.001766	32306	5.142201	174.048	175.578	1.129981	0.064615	0.064192	173.963	32306	0.060576	0.127882	1360.34	82537.5
409	2.000000	1.132372	7.36907e+06	-56639.1	1005.82	-29738.6	0.000000	0.000000	7.140200	185.327	NaN	0.000000	0.001588	0.001630	28.0817	59.2181	0.001776	33347.6	4.862839	173.924	185.623	1.131973	0.066583	0.066184	185.327	33347.6	0.062415	0.134611	1376.76	83041.9
409	2.000000	1.134352	7.36907e+06	-56639.1	1005.82	-29738.6	0.000000	0.000000	7.142736	198.842	NaN	0.000000	0.001574	0.001597	28.0816	61.1405	0.001884	32454.5	7.375170	172.558	197.205	1.133952	0.068563	0.068163	198.842	32454.5	0.063968	0.140421	1416.04	79128.5
409	2.000000	1.136282	7.36907e+06	-56639.1	1005.82	-29738.6	0.000000	0.000000	7.145065	208.535	NaN	0.000000	0.001635	0.001601	28.0815	62.7264	0.001760	35645.2	5.959809	172.907	206.076	1.135928	0.070493	0.070138	208.535	35645.2	0.066106	0.148608	1403.26	84479.9
409	2.000000	1.138331	7.36907e+06	-56639.1	1005.82	-29738.6	0.000000	0.000000	7.147428	216.169	NaN	0.000000	0.001597	0.001628	28.082	66.2122	0.001773	37344.8	8.405575	169.699	214.506	1.138031	0.072542	0.072242	216.169	37344.8	0.068201	0.156847	1378.22	86152.1
409	2.000000	1.140362	7.36907e+06	-56639.1	1005.82	-29738.6	0.000000	0.000000	7.149879	226.394	NaN	0.000000	0.001598	0.001599	28.0817	66.0388	0.001856	35572.6	2.131889	176.109	225.374	1.140006	0.074573	0.074217	226.394	35572.6	0.069799	0.163273	1386.6	80432.6
409	2.000000	1.142388	7.36907e+06	-56639.1	1005.82	-29738.6	0.000000	0.000000	7.152251	234.791	NaN	0.000000	0.001572	0.001602	28.0819	69.5504	0.001839	37809.9	6.049728	171.634	235.63	1.141989	0.076599	0.076200	234.791	37809.9	0.071942	0.172077	1364.45	83275.6
409	2.000000	1.144333	7.36907e+06	-56639.1	1005.82	-29738.6	0.000000	0.000000	7.154832	250.263	NaN	0.000000	0.001605	0.001596	28.0818	70.3242	0.001720	40885.8	2.771171	174.123	247.519	1.144026	0.078544	0.078237	250.263	40885.8	0.073953	0.180540	1386.19	87914.2
409	2.000000	1.146422	7.36907e+06	-56639.1	1005.82	-29738.6	0.000000	0.000000	7.157289	259.186	NaN	0.000000	0.001578	0.001600	28.0817	72.2372	0.001701	42476.3	8.789879	168.979	261.16	1.146071	0.080633	0.080282	259.186	42476.3	0.076057	0.189595	1367.05	89126.4
409	2.000000	1.148348	7.36907e+06	-56639.1	1005.82	-29738.6	0.000000	0.000000	7.159666	270.166	NaN	0.000000	0.001596	0.001580	28.0805	75.4971	0.001810	41720.2	8.329232	168.441	270.545	1.148008	0.082559	0.082219	270.166	41720.2	0.077702	0.196822	1372.64	85917.8
409	2.000000	1.150329	7.36907e+06	-56639.1	1005.82	-29738.6	0.000000	0.000000	7.162150	282.369	NaN	0.000000	0.001574	0.001611	28.0805	75.0148	0.001696	44222.3	4.744866	171.634	281.657	1.150032	0.084540	0.084243	282.369	44222.3	0.079751	0.206002	1370.71	89018.2
409	2.000000	1.152301	7.36907e+06	-56639.1	1005.82	-29738.6	0.000000	0.000000	7.164787	298.548	NaN	0.000000	0.001596	0.001633	28.0807	78.8162	0.001877	41998.5	4.315434	173.194	295.806	1.151947	0.086511	0.086158	298.548	41998.5	0.081180	0.212517	1404.82	83235.8
409	2.000000	1.154386	7.36907e+06	-56639.1	1005.82	-29738.6	0.000000	0.000000	7.167230	307.245	NaN	0.000000	0.001617	0.001653	28.0804	81.45	0.001975	41233.5	6.010788	171.769	309.128	1.154085	0.088597	0.088295	307.245	41233.5	0.083009	0.220994	1390.29	80137.1
409	2.000000	1.156392	7.36907e+06	-56639.1	1005.82	-29738.6	0.000000	0.000000	7.169621	316.601	NaN	0.000000	0.001616	0.001654	28.0806	81.7403	0.001890	43241	3.780297	173.121	317.318	1.156066	0.090603	0.090276	316.601	43241	0.085112	0.230936	1370.94	82209.7
409	2.000000	1.158172	7.36907e+06	-56639.1	1005.82	-29738.6	0.000000	0.000000	7.172202	336.073	NaN	0.000000	0.001585	0.001640	28.0805	83.5143	0.001791	46636.9	1.202287	175.118	327.637	1.157913	0.092383	0.092124	336.073	46636.9	0.086978	0.239930	1400.71	86988.2
409	2.000000	1.160327	7.36907e+06	-56639.1	1005.82	-29738.6	0.000000	0.000000	7.174643	343.049	NaN	0.000000	0.001564	0.001612	28.0805	85.5359	0.001850	46223.9	6.345689	170.039	344.555	1.159950	0.094537	0.094161	343.049	46223.9	0.088971	0.249710	1373.79	84512.6
409	2.000000	1.162207	7.36907e+06	-56639.1	1005.82	-29738.6	0.000000	0.000000	7.177184	359.085	NaN	0.000000	0.001606	0.001600	28.0804	87.4499	0.001822	47994.3	4.849177	171.036	352.49	1.161957	0.096418	0.096168	359.085	47994.3	0.090807	0.258878	1387.08	86181.8
409	2.000000	1.164411	7.36907e+06	-56639.1	1005.82	-29738.6	0.000000	0.000000	7.180242	379.868	NaN	0.000000	0.001634	0.001598	28.0805	89.3773	0.001819	49125.6	7.965679	168.615	384.815	1.164005	0.098622	0.098216	379.868	49125.6	0.092822	0.269124	1411.5	86517.8
409	2.000000	1.166268	7.36907e+06	-56639.1	1005.82	-29738.6	0.000000	0.000000	7.182678	393.944	NaN	0.000000	0.001608	0.001579	28.0806	89.2662	0.001831	48753.5	1.605962	174.357	389.619	1.166001	0.100479	0.100212	393.944	48753.5	0.094418	0.277370	1420.28	84576.5
409	2.000000	1.168280	7.36907e+06	-56639.1	1005.82	-29738.6	0.000000	0.000000	7.185234	407.145	NaN	0.000000	0.001584	0.001607	28.0806	92.7196	0.001771	52365.4	3.639772	171.945	404.102	1.167880	0.102491	0.102091	407.145	52365.4	0.096659	0.289144	1408.11	88973.4
409	2.000000	1.170220	7.36907e+06	-56639.1	1005.82	-29738.6	0.000000	0.000000	7.187583	417.09	NaN	0.000000	0.001639	0.001590	28.0804	93.2706	0.001813	51455.6	2.101274	173.517	412.089	1.170065	0.104431	0.104276	417.09	51455.6	0.098352	0.298188	1398.75	86091.6
409	2.000000	1.172388	7.36907e+06	-56639.1	1005.82	-29738.6	0.000000	0.000000	7.190396	432.756	NaN	0.000000	0.001612	0.001621	28.0804	96.2973	0.001832	52550	0.880717	174.924	436.316	1.171976	0.106599	0.106187	432.756	52550	0.100423	0.309430	1398.56	86310.8
409	2.000000	1.174236	7.36907e+06	-56639.1	1005.82	-29738.6	0.000000	0.000000	7.193197	455.941	NaN	0.000000	0.001579	0.001595	28.0805	98.2457	0.001697	57887.9	6.269184	169.067	450.013	1.173920	0.108446	0.108131	455.941	57887.9	0.102539	0.321122	1419.84	93331
409	2.000000	1.175379	7.36907e+06	-56639.1	1005.82	-29738.6	0.000000	0.000000	7.193671	439.682	NaN	0.000000	0.001575	0.001628	28.0803	99.1499	0.001817	54581.7	1.051527	173.745	441.433	1.175254	0.109590	0.109465	439.682	54581.7	0.103548	0.326766	1345.56	87237.3