File: remote_trans/data/nanoindenter/0828-1/data/Data_2025-08-06,11h17m57s/2025-07-22_16-23-58_1_792.txt
2025-07-22, 16:23:58, 1
Index	Phase	Displacement	Time	Pos X	Pos Y	Pos Z	Rot A	Rot B	Piezo Z	Force A	Force B	Gripper	Voltage A	Voltage B	Temperature	Amplitude force	Amplitude pos	Stiffness	Phase shift	Phase excitation	Force A raw	Displacement raw	HMax	HMax raw	Real Force	Real Stiffness	Contact Depth	Area	Hardness	Reduced Mod.
[#]	[#]	[um]	[s]	[um]	[um]	[um]	[m°]	[m°]	[um]	[uN]	[uN]	[V]	[V]	[V]	[°C]	[uN]	[um]	[N/m]	[°]	[°]	[uN]	[um]	[um]	[um]	[uN]	[N/m]	[um]	[um^2]	[MPa]	[MPa]
792	1.000000	0.002789	7.3728e+06	-39739.1	1055.82	-29792.7	0.000000	0.000000	6.002803	-0.008152	NaN	0.000000	0.001609	0.001761	28.0814	0.117713	0.000956	123.179	156.341	-171.734	-0.090979	0.001540	-1.133259	-1.134509	-0.008152	123.179	-1.133210	-1.398529E+15	5.828909E-18	NaN
792	1.000000	0.012851	7.3728e+06	-39739.1	1055.82	-29792.7	0.000000	0.000000	6.012862	-0.063049	NaN	0.000000	0.001630	0.001726	28.0816	0.030382	0.001203	25.2526	-143.575	20.6621	-0.063651	0.011403	-1.123198	-1.124646	-0.063049	25.2526	-1.121325	-9.688321E+14	6.507766E-17	NaN
792	1.000000	0.022723	7.3728e+06	-39739.1	1055.82	-29792.7	0.000000	0.000000	6.022734	-0.044050	NaN	0.000000	0.001660	0.001742	28.0815	0.070901	0.001640	43.2324	-92.8734	-164.138	0.031626	0.021336	-1.113326	-1.114712	-0.044050	43.2324	-1.112562	-7.390373E+14	5.960499E-17	NaN
792	1.000000	0.032732	7.3728e+06	-39739.1	1055.82	-29792.7	0.000000	0.000000	6.032745	0.001198	NaN	0.000000	0.001615	0.001744	28.0816	0.073505	0.002007	36.6216	-119.591	13.8208	-0.008206	0.031354	-1.103317	-1.104695	0.001198	36.6216	-1.103341	-5.557982E+14	-2.154927E-18	NaN
792	1.000000	0.042736	7.3728e+06	-39739.1	1055.82	-29792.7	0.000000	0.000000	6.042750	0.006661	NaN	0.000000	0.001636	0.001735	28.0817	0.056705	0.001929	29.4001	127.108	-167.933	0.076514	0.041494	-1.093313	-1.094554	0.006661	29.4001	-1.093482	-4.097982E+14	-1.625328E-17	NaN
792	1.000000	0.052737	7.3728e+06	-39739.1	1055.82	-29792.7	0.000000	0.000000	6.052751	0.005173	NaN	0.000000	0.001652	0.001727	28.0816	0.068055	0.001873	36.3397	-99.9633	15.3695	0.021696	0.051358	-1.083312	-1.084691	0.005173	36.3397	-1.083419	-3.002146E+14	-1.722989E-17	NaN
792	1.000000	0.062757	7.3728e+06	-39739.1	1055.82	-29792.7	0.000000	0.000000	6.062770	-0.001298	NaN	0.000000	0.001630	0.001790	28.0817	0.065308	0.001951	33.4714	-107.751	-164.616	0.032175	0.061435	-1.073292	-1.074614	-0.001298	33.4714	-1.073263	-2.192927E+14	5.918476E-18	NaN
792	1.000000	0.072776	7.3728e+06	-39739.1	1055.82	-29792.7	0.000000	0.000000	6.072790	0.004643	NaN	0.000000	0.001637	0.001772	28.0814	0.042790	0.002027	21.1056	-25.0802	14.9255	0.017822	0.071408	-1.063272	-1.064641	0.004643	21.1056	-1.063437	-1.618111E+14	-2.869154E-17	NaN
792	1.000000	0.082721	7.3728e+06	-39739.1	1055.82	-29792.7	0.000000	0.000000	6.082734	0.000675	NaN	0.000000	0.001637	0.001759	28.0815	0.024742	0.002033	12.1692	49.3329	-168.34	0.042836	0.081440	-1.053328	-1.054608	0.000675	12.1692	-1.053369	-1.184967E+14	-5.696292E-18	NaN
792	1.000000	0.092748	7.3728e+06	-39739.1	1055.82	-29792.7	0.000000	0.000000	6.092761	-0.018506	NaN	0.000000	0.001645	0.001721	28.0814	0.034398	0.002089	16.4689	-172.535	14.5088	0.012978	0.091395	-1.043300	-1.044653	-0.018506	16.4689	-1.042457	-8.452955E+13	2.189343E-16	NaN
792	1.000000	0.102781	7.3728e+06	-39739.1	1055.82	-29792.7	0.000000	0.000000	6.102793	-0.054673	NaN	0.000000	0.001637	0.001752	28.0823	0.012271	0.001880	6.525785	101.713	-165.615	-0.091352	0.101425	-1.033267	-1.034624	-0.054673	6.525785	-1.026984	-5.234877E+13	1.044400E-15	NaN
792	1.000000	0.112731	7.3728e+06	-39739.1	1055.82	-29792.7	0.000000	0.000000	6.112743	-0.046498	NaN	0.000000	0.001644	0.001764	28.0829	0.078349	0.002042	38.3779	-35.0383	14.7027	-0.089171	0.111396	-1.023317	-1.024653	-0.046498	38.3779	-1.022409	-4.543157E+13	1.023474E-15	NaN
792	1.000000	0.122751	7.3728e+06	-39739.1	1055.82	-29792.7	0.000000	0.000000	6.122761	-0.099075	NaN	0.000000	0.001636	0.001736	28.0829	0.057096	0.001989	28.7114	45.9838	-166.563	-0.063978	0.121460	-1.013297	-1.014589	-0.099075	28.7114	-1.010709	-3.161770E+13	3.133537E-15	NaN
792	1.000000	0.132772	7.3728e+06	-39739.1	1055.82	-29792.7	0.000000	0.000000	6.132783	-0.057900	NaN	0.000000	0.001651	0.001770	28.0828	0.025089	0.001984	12.6477	-106.894	15.4571	-0.110276	0.131399	-1.003277	-1.004650	-0.057900	12.6477	-0.999843	-2.257653E+13	2.564620E-15	NaN
792	1.000000	0.142808	7.3728e+06	-39739.1	1055.82	-29792.7	0.000000	0.000000	6.142821	-0.036581	NaN	0.000000	0.001593	0.001734	28.083	0.095692	0.001980	48.3223	38.1846	-164.714	-0.091529	0.141468	-0.993240	-0.994580	-0.036581	48.3223	-0.992672	-1.807593E+13	2.023717E-15	NaN
792	1.000000	0.152788	7.3728e+06	-39739.1	1055.82	-29792.7	0.000000	0.000000	6.152803	0.039787	NaN	0.000000	0.001637	0.001820	28.0828	0.137273	0.001966	69.8117	-5.090701	15.3404	-0.022139	0.151430	-0.983261	-0.984618	0.039787	69.8117	-0.983688	-1.368043E+13	-2.908349E-15	NaN
792	1.000000	0.162781	7.3728e+06	-39739.1	1055.82	-29792.7	0.000000	0.000000	6.162800	0.134518	NaN	0.000000	0.001680	0.001741	28.0829	0.048113	0.002078	23.1538	-134.664	-165.106	0.021367	0.161493	-0.973268	-0.974555	0.134518	23.1538	-0.977625	-1.133473E+13	-1.186778E-14	NaN
792	1.000000	0.172787	7.3728e+06	-39739.1	1055.82	-29792.7	0.000000	0.000000	6.172800	-0.021811	NaN	0.000000	0.001683	0.001756	28.0828	0.112755	0.001935	58.2807	-71.2783	16.829	-0.100092	0.171445	-0.963261	-0.964603	-0.021811	58.2807	-0.962981	-7.195313E+12	3.031334E-15	NaN
792	1.000000	0.182793	7.3728e+06	-39739.1	1055.82	-29792.7	0.000000	0.000000	6.182809	0.052288	NaN	0.000000	0.001662	0.001770	28.0831	0.017872	0.001903	9.392015	-144.593	-168.948	0.037363	0.181476	-0.953255	-0.954573	0.052288	9.392015	-0.957431	-6.056611E+12	-8.633153E-15	NaN
792	1.000000	0.192790	7.3728e+06	-39739.1	1055.82	-29792.7	0.000000	0.000000	6.192802	-0.037126	NaN	0.000000	0.001682	0.001792	28.0827	0.101226	0.002022	50.0593	-95.9894	10.954	-0.172485	0.191435	-0.943259	-0.944613	-0.037126	50.0593	-0.942703	-3.833525E+12	9.684571E-15	NaN
792	1.000000	0.202788	7.3728e+06	-39739.1	1055.82	-29792.7	0.000000	0.000000	6.202804	0.047934	NaN	0.000000	0.001650	0.001803	28.0827	0.110828	0.001992	55.6248	-36.417	-167.188	0.012644	0.201510	-0.933260	-0.934539	0.047934	55.6248	-0.933907	-2.916881E+12	-1.643346E-14	NaN
792	1.000000	0.212818	7.3728e+06	-39739.1	1055.82	-29792.7	0.000000	0.000000	6.212832	-0.005309	NaN	0.000000	0.001674	0.001763	28.0827	0.046155	0.001984	23.2623	0.555545	12.3252	-0.058202	0.211442	-0.923230	-0.924607	-0.005309	23.2623	-0.923059	-2.082115E+12	2.549713E-15	NaN
792	1.000000	0.222815	7.3728e+06	-39739.1	1055.82	-29792.7	0.000000	0.000000	6.222827	-0.050828	NaN	0.000000	0.001669	0.001790	28.0827	0.098662	0.002086	47.292	-111.294	-168.316	-0.008102	0.221453	-0.913233	-0.914595	-0.050828	47.292	-0.912427	-1.496055E+12	3.397448E-14	NaN
792	1.000000	0.232817	7.3728e+06	-39739.1	1055.82	-29792.7	0.000000	0.000000	6.232830	0.007866	NaN	0.000000	0.001653	0.001780	28.0828	0.113164	0.001900	59.5506	-131.785	13.5649	0.056376	0.231466	-0.903232	-0.904583	0.007866	59.5506	-0.903331	-1.127388E+12	-6.977166E-15	NaN
792	1.000000	0.242851	7.3728e+06	-39739.1	1055.82	-29792.7	0.000000	0.000000	6.242865	0.008359	NaN	0.000000	0.001694	0.001796	28.0817	0.078687	0.002020	38.9479	-41.9099	-163.569	-0.042383	0.241496	-0.893197	-0.894553	0.008359	38.9479	-0.893358	-8.266238E+11	-1.011261E-14	NaN
792	1.000000	0.252809	7.3728e+06	-39739.1	1055.82	-29792.7	0.000000	0.000000	6.252822	0.007231	NaN	0.000000	0.001678	0.001784	28.0821	0.143686	0.002018	71.2059	126.413	15.6778	0.000145	0.251440	-0.883240	-0.884608	0.007231	71.2059	-0.883316	-6.047154E+11	-1.195699E-14	NaN
792	1.000000	0.262816	7.3728e+06	-39739.1	1055.82	-29792.7	0.000000	0.000000	6.262834	0.102745	NaN	0.000000	0.001616	0.001783	28.0819	0.063983	0.001888	33.8937	29.9313	-168.06	0.016993	0.261513	-0.873232	-0.874535	0.102745	33.8937	-0.875506	-4.741597E+11	-2.166885E-13	NaN
792	1.000000	0.272811	7.3728e+06	-39739.1	1055.82	-29792.7	0.000000	0.000000	6.272825	0.029237	NaN	0.000000	0.001632	0.001761	28.0819	0.162112	0.002048	79.1386	93.2066	14.7484	0.011045	0.271482	-0.863238	-0.864566	0.029237	79.1386	-0.863515	-3.263565E+11	-8.958487E-14	NaN
792	1.000000	0.282826	7.3728e+06	-39739.1	1055.82	-29792.7	0.000000	0.000000	6.282843	0.079534	NaN	0.000000	0.001650	0.001755	28.0821	0.121005	0.002102	57.5536	-124.338	-168.003	0.024300	0.281508	-0.853222	-0.854540	0.079534	57.5536	-0.854259	-2.445695E+11	-3.251994E-13	NaN
792	1.000000	0.292816	7.3728e+06	-39739.1	1055.82	-29792.7	0.000000	0.000000	6.292830	0.003648	NaN	0.000000	0.001598	0.001783	28.0819	0.046507	0.001972	23.5827	134.931	17.0652	0.095142	0.291493	-0.843232	-0.844555	0.003648	23.5827	-0.843348	-1.740411E+11	-2.095861E-14	NaN
792	1.000000	0.302856	7.3728e+06	-39739.1	1055.82	-29792.7	0.000000	0.000000	6.302870	-0.004104	NaN	0.000000	0.001600	0.001757	28.0822	0.035774	0.002007	17.8272	-173.034	-169.808	-0.041849	0.301568	-0.833192	-0.834481	-0.004104	17.8272	-0.833019	-1.260976E+11	3.254936E-14	NaN
792	1.000000	0.312821	7.3728e+06	-39739.1	1055.82	-29792.7	0.000000	0.000000	6.312833	-0.046128	NaN	0.000000	0.001616	0.001770	28.0821	0.038306	0.001920	19.9525	-71.5341	14.5027	-0.082764	0.311510	-0.823227	-0.824539	-0.046128	19.9525	-0.821493	-8.799522E+10	5.242048E-13	NaN
792	1.000000	0.322859	7.3728e+06	-39739.1	1055.82	-29792.7	0.000000	0.000000	6.322873	0.001611	NaN	0.000000	0.001676	0.001768	28.0824	0.017097	0.001917	8.917117	-60.973	-167.641	-0.015484	0.321546	-0.813189	-0.814502	0.001611	8.917117	-0.813325	-6.818269E+10	-2.362399E-14	NaN
792	1.000000	0.332852	7.3728e+06	-39739.1	1055.82	-29792.7	0.000000	0.000000	6.332863	-0.046418	NaN	0.000000	0.001685	0.001712	28.082	0.073958	0.001982	37.3098	118.14	14.9995	-0.002254	0.331476	-0.803197	-0.804572	-0.046418	37.3098	-0.802264	-4.826046E+10	9.618293E-13	NaN
792	1.000000	0.342853	7.3728e+06	-39739.1	1055.82	-29792.7	0.000000	0.000000	6.342867	-0.004904	NaN	0.000000	0.001591	0.001729	28.0821	0.114775	0.001996	57.5063	162.253	-163.039	-0.040321	0.341524	-0.793195	-0.794525	-0.004904	57.5063	-0.793131	-3.627489E+10	1.351803E-13	NaN
792	1.000000	0.352853	7.3728e+06	-39739.1	1055.82	-29792.7	0.000000	0.000000	6.352866	-0.008303	NaN	0.000000	0.001603	0.001706	28.0821	0.083910	0.001951	43.0027	49.8689	11.8595	-0.024497	0.351454	-0.783196	-0.784594	-0.008303	43.0027	-0.783051	-2.646588E+10	3.137232E-13	NaN
792	1.000000	0.362865	7.3728e+06	-39739.1	1055.82	-29792.7	0.000000	0.000000	6.362877	-0.036025	NaN	0.000000	0.001639	0.001736	28.0821	0.064360	0.002032	31.6801	114.396	-168.78	-0.034403	0.361579	-0.773183	-0.774470	-0.036025	31.6801	-0.772330	-1.892296E+10	1.903772E-12	NaN
792	1.000000	0.372895	7.3728e+06	-39739.1	1055.82	-29792.7	0.000000	0.000000	6.372908	-0.031648	NaN	0.000000	0.001636	0.001737	28.0819	0.138325	0.002094	66.0571	55.8603	15.7449	0.021901	0.371510	-0.763153	-0.764538	-0.031648	66.0571	-0.762794	-1.403810E+10	2.254470E-12	NaN
792	1.000000	0.382875	7.3728e+06	-39739.1	1055.82	-29792.7	0.000000	0.000000	6.382888	-0.024741	NaN	0.000000	0.001643	0.001730	28.0832	0.125168	0.002003	62.4885	-140.471	-167.195	0.005238	0.381532	-0.753173	-0.754517	-0.024741	62.4885	-0.752876	-1.028898E+10	2.404635E-12	NaN
792	1.000000	0.392872	7.3728e+06	-39739.1	1055.82	-29792.7	0.000000	0.000000	6.392881	-0.100657	NaN	0.000000	0.001618	0.001750	28.0833	0.025909	0.001881	13.775	11.458	13.343	-0.106848	0.391524	-0.743177	-0.744525	-0.100657	13.775	-0.737697	-6.392630E+9	1.574582E-11	NaN
792	1.000000	0.402896	7.3728e+06	-39739.1	1055.82	-29792.7	0.000000	0.000000	6.402910	0.012790	NaN	0.000000	0.001651	0.001730	28.0831	0.164392	0.002014	81.6091	-68.7992	-164.592	0.116222	0.401579	-0.733153	-0.734469	0.012790	81.6091	-0.733270	-5.563842E+9	-2.298740E-12	NaN
792	1.000000	0.412871	7.3728e+06	-39739.1	1055.82	-29792.7	0.000000	0.000000	6.412885	0.015285	NaN	0.000000	0.001632	0.001733	28.0831	0.014084	0.002081	6.766465	8.555609	13.3584	-0.058735	0.411554	-0.723177	-0.724494	0.015285	6.766465	-0.724872	-4.274656E+9	-3.575836E-12	NaN
792	1.000000	0.422882	7.3728e+06	-39739.1	1055.82	-29792.7	0.000000	0.000000	6.422899	0.073663	NaN	0.000000	0.001636	0.001720	28.0831	0.072293	0.002023	35.7432	174.491	-167.074	0.029795	0.421553	-0.713167	-0.714495	0.073663	35.7432	-0.714712	-3.107033E+9	-2.370844E-11	NaN
792	1.000000	0.432888	7.3728e+06	-39739.1	1055.82	-29792.7	0.000000	0.000000	6.432901	-0.012936	NaN	0.000000	0.001655	0.001718	28.0835	0.005159	0.001974	2.614313	-114.311	12.428	0.009307	0.431585	-0.703161	-0.704464	-0.012936	2.614313	-0.699450	-1.923158E+9	6.726218E-12	NaN
792	1.000000	0.442877	7.3728e+06	-39739.1	1055.82	-29792.7	0.000000	0.000000	6.442891	0.013375	NaN	0.000000	0.001610	0.001700	28.0833	0.053227	0.001955	27.229	-71.0464	-165.137	-0.056174	0.441618	-0.693171	-0.694430	0.013375	27.229	-0.693540	-1.596927E+9	-8.375543E-12	NaN
792	1.000000	0.452923	7.3728e+06	-39739.1	1055.82	-29792.7	0.000000	0.000000	6.452935	-0.038644	NaN	0.000000	0.001616	0.001700	28.0833	0.045246	0.001888	23.9652	-58.3602	14.4018	-0.131345	0.451533	-0.683126	-0.684515	-0.038644	23.9652	-0.681916	-1.107678E+9	3.488735E-11	NaN
792	1.000000	0.462885	7.3728e+06	-39739.1	1055.82	-29792.7	0.000000	0.000000	6.462895	-0.101636	NaN	0.000000	0.001589	0.001726	28.0833	0.043109	0.001947	22.1387	-179.712	-167.103	-0.141171	0.461589	-0.673163	-0.674459	-0.101636	22.1387	-0.669720	-7.543272E+8	1.347367E-10	NaN
792	1.000000	0.472917	7.3728e+06	-39739.1	1055.82	-29792.7	0.000000	0.000000	6.472929	-0.030260	NaN	0.000000	0.001600	0.001726	28.0831	0.065978	0.002070	31.8795	-146.321	12.8575	-0.007234	0.471565	-0.663132	-0.664484	-0.030260	31.8795	-0.662420	-5.992540E+8	5.049535E-11	NaN
792	1.000000	0.482888	7.3728e+06	-39739.1	1055.82	-29792.7	0.000000	0.000000	6.482900	-0.033900	NaN	0.000000	0.001577	0.001707	28.0831	0.075191	0.001857	40.4901	29.7746	-167.149	-0.056591	0.481641	-0.653161	-0.654408	-0.033900	40.4901	-0.652533	-4.386898E+8	7.727621E-11	NaN
792	1.000000	0.492943	7.3728e+06	-39739.1	1055.82	-29792.7	0.000000	0.000000	6.492955	-0.045214	NaN	0.000000	0.001589	0.001747	28.0838	0.039089	0.001932	20.235	-54.8385	11.2402	-0.057265	0.491575	-0.643105	-0.644474	-0.045214	20.235	-0.641429	-3.089578E+8	1.463436E-10	NaN
792	1.000000	0.502895	7.3728e+06	-39739.1	1055.82	-29792.7	0.000000	0.000000	6.502908	-0.004860	NaN	0.000000	0.001613	0.001747	28.0831	0.133708	0.002104	63.5537	-25.5746	-168.409	-0.015735	0.501590	-0.633154	-0.634458	-0.004860	63.5537	-0.633096	-2.374323E+8	2.047014E-11	NaN
792	1.000000	0.512940	7.3728e+06	-39739.1	1055.82	-29792.7	0.000000	0.000000	6.512952	-0.041765	NaN	0.000000	0.001586	0.001720	28.082	0.055538	0.002070	26.8324	82.6493	13.5775	-0.030653	0.511546	-0.623108	-0.624503	-0.041765	26.8324	-0.621941	-1.668423E+8	2.503276E-10	NaN
792	1.000000	0.522907	7.3728e+06	-39739.1	1055.82	-29792.7	0.000000	0.000000	6.522918	-0.061155	NaN	0.000000	0.001569	0.001749	28.0818	0.039093	0.001912	20.4455	-122.402	-168.26	-0.103583	0.521622	-0.613142	-0.614427	-0.061155	20.4455	-0.610898	-1.176174E+8	5.199471E-10	NaN
792	1.000000	0.532958	7.3728e+06	-39739.1	1055.82	-29792.7	0.000000	0.000000	6.532971	-0.028475	NaN	0.000000	0.001574	0.001703	28.0816	0.046299	0.002020	22.9239	110.461	11.4512	-0.065523	0.531623	-0.603090	-0.604426	-0.028475	22.9239	-0.602159	-8.916378E+7	3.193557E-10	NaN
792	1.000000	0.542927	7.3728e+06	-39739.1	1055.82	-29792.7	0.000000	0.000000	6.542938	-0.051739	NaN	0.000000	0.001574	0.001693	28.0818	0.039945	0.001937	20.6174	92.8571	-162.588	-0.129437	0.541626	-0.593122	-0.594422	-0.051739	20.6174	-0.591240	-6.306027E+7	8.204733E-10	NaN
792	1.000000	0.552905	7.3728e+06	-39739.1	1055.82	-29792.7	0.000000	0.000000	6.552919	0.028407	NaN	0.000000	0.001596	0.001697	28.0814	0.060493	0.002065	29.2902	-142.446	16.4265	0.097719	0.551597	-0.583144	-0.584452	0.028407	29.2902	-0.583871	-4.990515E+7	-5.692202E-10	NaN
792	1.000000	0.562935	7.3728e+06	-39739.1	1055.82	-29792.7	0.000000	0.000000	6.562948	-0.002797	NaN	0.000000	0.001595	0.001687	28.0817	0.007469	0.001952	3.826878	68.2227	-167.171	0.029492	0.561619	-0.573113	-0.574429	-0.002797	3.826878	-0.572565	-3.483966E+7	8.026831E-11	NaN
792	1.000000	0.572963	7.3728e+06	-39739.1	1055.82	-29792.7	0.000000	0.000000	6.572976	-0.008105	NaN	0.000000	0.001605	0.001701	28.0818	0.060627	0.001896	31.9709	-83.8915	17.2377	-0.011310	0.571608	-0.563085	-0.564440	-0.008105	31.9709	-0.562895	-2.561077E+7	3.164680E-10	NaN
792	1.000000	0.582933	7.3728e+06	-39739.1	1055.82	-29792.7	0.000000	0.000000	6.582946	-0.003486	NaN	0.000000	0.001637	0.001735	28.0819	0.029521	0.001962	15.0469	-122.55	-165.655	0.037046	0.581626	-0.553116	-0.554422	-0.003486	15.0469	-0.552942	-1.865069E+7	1.869232E-10	NaN
792	1.000000	0.592963	7.3728e+06	-39739.1	1055.82	-29792.7	0.000000	0.000000	6.592976	0.006677	NaN	0.000000	0.001606	0.001688	28.0819	0.013160	0.001949	6.750903	-71.7602	13.5	0.111912	0.591556	-0.543086	-0.544492	0.006677	6.750903	-0.543828	-1.394535E+7	-4.787624E-10	NaN
792	1.000000	0.602989	7.3728e+06	-39739.1	1055.82	-29792.7	0.000000	0.000000	6.603005	0.049536	NaN	0.000000	0.001591	0.001713	28.082	0.140234	0.001951	71.871	-72.037	-163.703	-0.026880	0.601662	-0.533060	-0.534387	0.049536	71.871	-0.533576	-1.005153E+7	-4.928161E-9	NaN
792	1.000000	0.612953	7.3728e+06	-39739.1	1055.82	-29792.7	0.000000	0.000000	6.612963	-0.085426	NaN	0.000000	0.001590	0.001789	28.082	0.042541	0.001988	21.4006	97.0956	12.4358	-0.076052	0.611653	-0.523095	-0.524396	-0.085426	21.4006	-0.520101	-6.53143e+06	1.307920E-8	NaN
792	1.000000	0.622970	7.3728e+06	-39739.1	1055.82	-29792.7	0.000000	0.000000	6.622982	-0.050544	NaN	0.000000	0.001615	0.001733	28.0818	0.085217	0.002080	40.9776	76.3983	-167.356	-0.068809	0.621679	-0.513078	-0.514369	-0.050544	40.9776	-0.512153	-5.06293e+06	9.983215E-9	NaN
792	1.000000	0.632966	7.3728e+06	-39739.1	1055.82	-29792.7	0.000000	0.000000	6.632980	0.005927	NaN	0.000000	0.001610	0.001746	28.0815	0.101471	0.001987	51.0628	-12.4268	16.038	0.029735	0.631670	-0.503082	-0.504378	0.005927	51.0628	-0.503169	-3.79508e+06	-1.561710E-9	NaN
792	1.000000	0.642952	7.3728e+06	-39739.1	1055.82	-29792.7	0.000000	0.000000	6.642962	-0.066887	NaN	0.000000	0.001608	0.001738	28.0822	0.066635	0.002050	32.51	167.227	-164.59	-0.092889	0.641672	-0.493097	-0.494377	-0.066887	32.51	-0.491554	-2.61278e+06	2.560008E-8	NaN
792	1.000000	0.652956	7.3728e+06	-39739.1	1055.82	-29792.7	0.000000	0.000000	6.652970	0.008093	NaN	0.000000	0.001630	0.001749	28.083	0.049586	0.001988	24.9475	-36.3903	15.782	-0.035697	0.651613	-0.483093	-0.484436	0.008093	24.9475	-0.483336	-2.00547e+06	-4.035251E-9	NaN
792	1.000000	0.663001	7.3728e+06	-39739.1	1055.82	-29792.7	0.000000	0.000000	6.663013	-0.042734	NaN	0.000000	0.001660	0.001791	28.0827	0.059345	0.001974	30.0586	-173.403	-166.478	-0.005897	0.661708	-0.473047	-0.474340	-0.042734	30.0586	-0.471981	-1.39054e+06	3.073161E-8	NaN
792	1.000000	0.672985	7.3728e+06	-39739.1	1055.82	-29792.7	0.000000	0.000000	6.672997	-0.035662	NaN	0.000000	0.001642	0.001810	28.0828	0.054415	0.001918	28.3714	119.099	16.1219	-0.104314	0.671606	-0.463063	-0.464442	-0.035662	28.3714	-0.462120	-1.01114e+06	3.526938E-8	NaN
792	1.000000	0.683030	7.3728e+06	-39739.1	1055.82	-29792.7	0.000000	0.000000	6.683044	0.005301	NaN	0.000000	0.001648	0.001721	28.0831	0.061558	0.002064	29.8186	-89.6786	-166.833	0.014015	0.681686	-0.453018	-0.454362	0.005301	29.8186	-0.453151	-756323	-7.008721E-9	NaN
792	1.000000	0.692977	7.3728e+06	-39739.1	1055.82	-29792.7	0.000000	0.000000	6.692990	-0.005583	NaN	0.000000	0.001638	0.001733	28.0828	0.063850	0.002144	29.7742	-11.4755	11.0022	-0.047972	0.691605	-0.443072	-0.444443	-0.005583	29.7742	-0.442931	-542900	1.028316E-8	NaN
792	1.000000	0.702989	7.37281e+06	-39739.1	1055.82	-29792.7	0.000000	0.000000	6.703001	-0.040623	NaN	0.000000	0.001629	0.001739	28.0828	0.023782	0.001965	12.0999	153.081	-166.611	-0.088983	0.701650	-0.433059	-0.434399	-0.040623	12.0999	-0.430541	-362844	1.119583E-7	NaN
792	1.000000	0.713018	7.37281e+06	-39739.1	1055.82	-29792.7	0.000000	0.000000	6.713030	-0.020845	NaN	0.000000	0.001627	0.001728	28.0826	0.058131	0.002050	28.3614	-102.123	11.2962	-0.053500	0.711677	-0.423031	-0.424371	-0.020845	28.3614	-0.422480	-278980	7.471734E-8	NaN
792	1.000000	0.723040	7.37281e+06	-39739.1	1055.82	-29792.7	0.000000	0.000000	6.723054	-0.006311	NaN	0.000000	0.001613	0.001685	28.0829	0.107876	0.001954	55.2042	123.928	-166.158	-0.003343	0.721720	-0.413008	-0.414329	-0.006311	55.2042	-0.412922	-204146	3.091489E-8	NaN
792	1.000000	0.733004	7.37281e+06	-39739.1	1055.82	-29792.7	0.000000	0.000000	6.733017	-0.018993	NaN	0.000000	0.001628	0.001699	28.0827	0.087808	0.002017	43.5314	104.587	12.7016	0.034817	0.731714	-0.403044	-0.404334	-0.018993	43.5314	-0.402717	-146126	1.299785E-7	NaN
792	1.000000	0.743025	7.37281e+06	-39739.1	1055.82	-29792.7	0.000000	0.000000	6.743036	-0.046529	NaN	0.000000	0.001615	0.001719	28.0828	0.068048	0.002060	33.0294	63.2868	-166.954	-0.127507	0.741715	-0.393024	-0.394333	-0.046529	33.0294	-0.391967	-102636	4.533435E-7	NaN
792	1.000000	0.753049	7.37281e+06	-39739.1	1055.82	-29792.7	0.000000	0.000000	6.753061	-0.036597	NaN	0.000000	0.001590	0.001722	28.0828	0.096354	0.002026	47.5621	111.888	11.6588	0.033424	0.751714	-0.383000	-0.384335	-0.036597	47.5621	-0.382422	-74927.3	4.884391E-7	NaN
792	1.000000	0.763052	7.37281e+06	-39739.1	1055.82	-29792.7	0.000000	0.000000	6.763064	-0.041193	NaN	0.000000	0.001588	0.001680	28.0833	0.116586	0.002094	55.6829	38.6794	-165.549	-0.067047	0.761744	-0.372996	-0.374304	-0.041193	55.6829	-0.372441	-53860.4	7.648079E-7	NaN
792	1.000000	0.773032	7.37281e+06	-39739.1	1055.82	-29792.7	0.000000	0.000000	6.773044	-0.036740	NaN	0.000000	0.001614	0.001743	28.0829	0.050558	0.002039	24.8	-25.69	15.3499	-0.048674	0.771697	-0.363016	-0.364351	-0.036740	24.8	-0.361905	-37964.4	9.677555E-7	NaN
792	1.000000	0.783031	7.37281e+06	-39739.1	1055.82	-29792.7	0.000000	0.000000	6.783043	-0.042520	NaN	0.000000	0.001586	0.001692	28.0832	0.160667	0.002018	79.626	-148.994	-169.326	-0.113355	0.781788	-0.353017	-0.354261	-0.042520	79.626	-0.352617	-27858.6	1.526292E-6	NaN
792	1.000000	0.793056	7.37281e+06	-39739.1	1055.82	-29792.7	0.000000	0.000000	6.793069	-0.020341	NaN	0.000000	0.001605	0.001687	28.082	0.050366	0.002188	23.0234	2.664305	13.4841	-0.083554	0.791634	-0.342992	-0.344414	-0.020341	23.0234	-0.342330	-19746.7	1.030118E-6	NaN
792	1.000000	0.803083	7.37281e+06	-39739.1	1055.82	-29792.7	0.000000	0.000000	6.803097	0.013794	NaN	0.000000	0.001581	0.001729	28.082	0.073814	0.001871	39.4497	-138.351	-170.273	-0.004550	0.801794	-0.332966	-0.334254	0.013794	39.4497	-0.333228	-14544.2	-9.484151E-7	NaN
792	1.000000	0.813039	7.37281e+06	-39739.1	1055.82	-29792.7	0.000000	0.000000	6.813053	0.007982	NaN	0.000000	0.001589	0.001738	28.0821	0.091892	0.002027	45.332	-0.421155	16.8962	-0.014192	0.811645	-0.323009	-0.324404	0.007982	45.332	-0.323141	-10347.5	-7.714078E-7	NaN
792	1.000000	0.823075	7.37281e+06	-39739.1	1055.82	-29792.7	0.000000	0.000000	6.823084	-0.093369	NaN	0.000000	0.001542	0.001729	28.0821	0.034221	0.001952	17.5337	-115.388	-168.254	0.006117	0.821767	-0.312974	-0.314281	-0.093369	17.5337	-0.308980	-6396.73	1.459643E-5	NaN
792	1.000000	0.833071	7.37281e+06	-39739.1	1055.82	-29792.7	0.000000	0.000000	6.833082	-0.070800	NaN	0.000000	0.001638	0.001699	28.0821	0.143360	0.001990	72.0453	146.605	19.7977	-0.064553	0.831731	-0.302977	-0.304318	-0.070800	72.0453	-0.302240	-5081.11	1.393392E-5	NaN
792	1.000000	0.843089	7.37281e+06	-39739.1	1055.82	-29792.7	0.000000	0.000000	6.843102	-0.008308	NaN	0.000000	0.001615	0.001711	28.082	0.062446	0.001990	31.3724	-85.2963	-167.251	0.013457	0.841818	-0.292960	-0.294230	-0.008308	31.3724	-0.292761	-3669.73	2.264003E-6	NaN
792	1.000000	0.853068	7.37281e+06	-39739.1	1055.82	-29792.7	0.000000	0.000000	6.853079	-0.066237	NaN	0.000000	0.001660	0.001699	28.082	0.016348	0.001937	8.438190	-143.389	11.6733	-0.010420	0.851709	-0.282981	-0.284340	-0.066237	8.438190	-0.277093	-2133.41	3.104725E-5	NaN
792	1.000000	0.863091	7.37281e+06	-39739.1	1055.82	-29792.7	0.000000	0.000000	6.863101	-0.087344	NaN	0.000000	0.001659	0.001700	28.0819	0.049116	0.001888	26.0149	-34.3637	-167.294	-0.043273	0.861780	-0.272957	-0.274269	-0.087344	26.0149	-0.270439	-1691.28	5.164385E-5	NaN
792	1.000000	0.873069	7.37281e+06	-39739.1	1055.82	-29792.7	0.000000	0.000000	6.873080	-0.047241	NaN	0.000000	0.001679	0.001692	28.0821	0.053235	0.001992	26.73	118.235	18.1375	-0.083560	0.871649	-0.262980	-0.264399	-0.047241	26.73	-0.261654	-1242.38	3.802486E-5	NaN
792	1.000000	0.883076	7.37281e+06	-39739.1	1055.82	-29792.7	0.000000	0.000000	6.883086	-0.087770	NaN	0.000000	0.001651	0.001723	28.0819	0.114460	0.001895	60.3865	-31.9593	-165.186	-0.161629	0.881745	-0.252972	-0.254304	-0.087770	60.3865	-0.251882	-879.123	9.983768E-5	NaN
792	1.000000	0.893071	7.37281e+06	-39739.1	1055.82	-29792.7	0.000000	0.000000	6.893082	-0.054498	NaN	0.000000	0.001671	0.001682	28.082	0.106325	0.002050	51.8752	-169.519	14.4094	-0.049476	0.891715	-0.242978	-0.244333	-0.054498	51.8752	-0.242190	-621.897	8.763201E-5	NaN
792	1.000000	0.903079	7.37281e+06	-39739.1	1055.82	-29792.7	0.000000	0.000000	6.903091	-0.034306	NaN	0.000000	0.001639	0.001722	28.082	0.054818	0.002041	26.8521	-145.68	-167.391	-0.014641	0.901788	-0.232969	-0.234261	-0.034306	26.8521	-0.232011	-430.762	7.963910E-5	NaN
792	1.000000	0.913075	7.37281e+06	-39739.1	1055.82	-29792.7	0.000000	0.000000	6.913086	-0.067245	NaN	0.000000	0.001621	0.001724	28.0818	0.025641	0.001973	12.9938	-97.4538	15.729	-0.095568	0.911751	-0.222973	-0.224298	-0.067245	12.9938	-0.219092	-268.63	0.000250	NaN
792	1.000000	0.923085	7.37281e+06	-39739.1	1055.82	-29792.7	0.000000	0.000000	6.923098	-0.011733	NaN	0.000000	0.001645	0.001734	28.0829	0.106022	0.002109	50.2828	1.547382	-170.93	0.027615	0.921743	-0.212964	-0.214305	-0.011733	50.2828	-0.212789	-212.763	5.514602E-5	NaN
792	1.000000	0.933093	7.37281e+06	-39739.1	1055.82	-29792.7	0.000000	0.000000	6.933106	-0.024498	NaN	0.000000	0.001630	0.001713	28.0831	0.037324	0.001977	18.8813	97.007	13.7587	-0.014170	0.931712	-0.202955	-0.204337	-0.024498	18.8813	-0.201982	-141.98	0.000173	NaN
792	1.000000	0.943120	7.37281e+06	-39739.1	1055.82	-29792.7	0.000000	0.000000	6.943134	0.003815	NaN	0.000000	0.001668	0.001699	28.0832	0.116838	0.001936	60.3434	30.4875	-164.364	0.011462	0.941800	-0.192928	-0.194248	0.003815	60.3434	-0.192976	-100.836	-3.783146E-5	NaN
792	1.000000	0.953103	7.37281e+06	-39739.1	1055.82	-29792.7	0.000000	0.000000	6.953116	-0.034857	NaN	0.000000	0.001645	0.001698	28.0831	0.075006	0.002002	37.466	-141.829	17.0305	-0.020950	0.951725	-0.182945	-0.184323	-0.034857	37.466	-0.182247	-66.6224	0.000523	NaN
792	1.000000	0.963127	7.37281e+06	-39739.1	1055.82	-29792.7	0.000000	0.000000	6.963138	-0.067959	NaN	0.000000	0.001648	0.001736	28.083	0.022022	0.002018	10.913	-121.089	-165.462	0.012306	0.961804	-0.172921	-0.174244	-0.067959	10.913	-0.168250	-38.2979	0.001774	NaN
792	1.000000	0.973118	7.37281e+06	-39739.1	1055.82	-29792.7	0.000000	0.000000	6.973131	-0.036681	NaN	0.000000	0.001560	0.001722	28.0832	0.035164	0.002030	17.3229	127.207	15.3727	-0.027787	0.971780	-0.162930	-0.164269	-0.036681	17.3229	-0.161342	-28.9596	0.001267	NaN
792	1.000000	0.983109	7.37281e+06	-39739.1	1055.82	-29792.7	0.000000	0.000000	6.983123	-0.001082	NaN	0.000000	0.001561	0.001741	28.0832	0.011127	0.001886	5.901185	-176.169	-167.706	0.027485	0.981782	-0.152939	-0.154267	-0.001082	5.901185	-0.152802	-20.3662	5.314084E-5	NaN
792	1.000000	0.993125	7.37281e+06	-39739.1	1055.82	-29792.7	0.000000	0.000000	6.993139	-0.002672	NaN	0.000000	0.001593	0.001733	28.0831	0.122617	0.002017	60.781	-124.109	14.4976	-0.075679	0.991801	-0.142923	-0.144247	-0.002672	60.781	-0.142890	-13.3973	0.000199	NaN
792	1.000000	1.003119	7.37281e+06	-39739.1	1055.82	-29792.7	0.000000	0.000000	7.003132	-0.015112	NaN	0.000000	0.001594	0.001709	28.083	0.035702	0.002079	17.1688	-116.506	-166.101	-0.011625	1.001881	-0.132929	-0.134168	-0.015112	17.1688	-0.132269	-8.431665	0.001792	NaN
792	1.000000	1.013127	7.37281e+06	-39739.1	1055.82	-29792.7	0.000000	0.000000	7.013138	-0.055848	NaN	0.000000	0.001582	0.001712	28.0832	0.017142	0.002008	8.537545	93.8153	12.4332	-0.042978	1.011783	-0.122922	-0.124266	-0.055848	8.537545	-0.118016	-4.404214	0.012681	NaN
792	1.000000	1.023145	7.37281e+06	-39739.1	1055.82	-29792.7	0.000000	0.000000	7.023155	-0.086790	NaN	0.000000	0.001570	0.001714	28.0829	0.036104	0.002012	17.9469	-159.923	-167.468	-0.031085	1.021837	-0.112903	-0.114212	-0.086790	17.9469	-0.109276	-2.901273	0.029915	NaN
792	1.000000	1.033118	7.37281e+06	-39739.1	1055.82	-29792.7	0.000000	0.000000	7.033130	-0.049594	NaN	0.000000	0.001615	0.001724	28.0828	0.024275	0.002081	11.665	42.0056	10.6899	0.014411	1.031792	-0.102930	-0.104257	-0.049594	11.665	-0.099742	-1.803193	0.027503	NaN
792	1.000000	1.043143	7.37281e+06	-39739.1	1055.82	-29792.7	0.000000	0.000000	7.043154	-0.070701	NaN	0.000000	0.001536	0.001709	28.083	0.094814	0.002019	46.9661	-28.5703	-167.255	-0.029266	1.041839	-0.092906	-0.094210	-0.070701	46.9661	-0.091777	-1.189268	0.059449	NaN
792	1.000000	1.053150	7.37281e+06	-39739.1	1055.82	-29792.7	0.000000	0.000000	7.053161	-0.065412	NaN	0.000000	0.001600	0.001683	28.083	0.139872	0.001980	70.6324	16.3784	12.0707	-0.130756	1.051801	-0.082898	-0.084248	-0.065412	70.6324	-0.082204	-0.702085	0.093168	NaN
792	1.000000	1.063165	7.37281e+06	-39739.1	1055.82	-29792.7	0.000000	0.000000	7.063180	0.034563	NaN	0.000000	0.001582	0.001711	28.0817	0.094189	0.001947	48.389	63.344	-166.448	0.003238	1.061817	-0.072883	-0.074231	0.034563	48.389	-0.073419	-0.420135	-0.082266	NaN
792	1.000000	1.073149	7.37281e+06	-39739.1	1055.82	-29792.7	0.000000	0.000000	7.073160	-0.049609	NaN	0.000000	0.001612	0.001718	28.0817	0.033179	0.001992	16.6545	55.8181	11.743	0.019497	1.071846	-0.062900	-0.064203	-0.049609	16.6545	-0.060666	-0.188170	0.263638	NaN
792	1.000000	1.083152	7.37281e+06	-39739.1	1055.82	-29792.7	0.000000	0.000000	7.083164	-0.052097	NaN	0.000000	0.001592	0.001724	28.0818	0.009563	0.002000	4.780490	88.0344	-167.743	0.010954	1.081878	-0.052896	-0.054171	-0.052097	4.780490	-0.044723	-0.063027	0.826583	NaN
792	1.000000	1.093145	7.37281e+06	-39739.1	1055.82	-29792.7	0.000000	0.000000	7.093159	0.014095	NaN	0.000000	0.001577	0.001757	28.0816	0.067712	0.002073	32.6674	-56.1575	13.2602	0.012802	1.091872	-0.042904	-0.044177	0.014095	32.6674	-0.043227	-0.056725	-0.248484	NaN
792	1.000000	1.103214	7.37281e+06	-39739.1	1055.82	-29792.7	0.000000	0.000000	7.103226	-0.029575	NaN	0.000000	0.001576	0.001717	28.0819	0.091830	0.001950	47.093	160.565	-168.771	-0.004682	1.101858	-0.032835	-0.034190	-0.029575	47.093	-0.032364	-0.026842	1.101818	NaN
792	1.000000	1.113186	7.37281e+06	-39739.1	1055.82	-29792.7	0.000000	0.000000	7.113199	-0.000746	NaN	0.000000	0.001555	0.001701	28.0817	0.036858	0.001904	19.3588	-173.193	15.3868	0.090065	1.111805	-0.022863	-0.024243	-0.000746	19.3588	-0.022834	-0.014831	0.050305	NaN
792	1.000000	1.123178	7.37281e+06	-39739.1	1055.82	-29792.7	0.000000	0.000000	7.123192	0.026936	NaN	0.000000	0.001600	0.001700	28.0821	0.105834	0.002145	49.3311	-136.948	-166.377	0.030618	1.121908	-0.012871	-0.014141	0.026936	49.3311	-0.013280	-0.008264	-3.259309	NaN
792	1.000000	1.133175	7.37281e+06	-39739.1	1055.82	-29792.7	0.000000	0.000000	7.133224	0.856505	NaN	0.000000	0.001580	0.001815	28.082	1.333234	0.001976	674.757	2.486512	16.2397	0.245902	1.131775	-0.002873	-0.004274	0.856505	674.757	-0.003825	-0.002665	-321.362	NaN
792	2.000000	1.141775	7.37281e+06	-39739.1	1055.82	-29792.7	0.000000	0.000000	7.142185	9.645463	NaN	0.000000	0.001581	0.001801	28.0821	9.234304	0.001702	5425.98	3.155141	-169.846	9.130398	1.141366	0.005727	0.005317	9.645463	5425.98	0.004394	0.003587	2689.26	82776.4
792	2.000000	1.144259	7.37281e+06	-39739.1	1055.82	-29792.7	0.000000	0.000000	7.144811	13.1137	NaN	0.000000	0.001583	0.001786	28.0822	11.9267	0.001562	7633.48	3.440119	5.562620	12.1049	1.143870	0.008210	0.007822	13.1137	7633.48	0.006922	0.005956	2201.6	90365.6
792	2.000000	1.146697	7.37281e+06	-39739.1	1055.82	-29792.7	0.000000	0.000000	7.147409	16.9986	NaN	0.000000	0.001604	0.001769	28.083	15.3148	0.001897	8072.92	2.990661	-172.604	15.5277	1.146408	0.010649	0.010360	16.9986	8072.92	0.009069	0.008165	2081.78	81623.5
792	2.000000	1.149221	7.37281e+06	-39739.1	1055.82	-29792.7	0.000000	0.000000	7.150274	25.2957	NaN	0.000000	0.001575	0.001761	28.082	17.2735	0.001766	9783.25	1.233557	8.210719	23.834	1.148816	0.013172	0.012768	25.2957	9783.25	0.011233	0.010585	2389.86	86880
792	2.000000	1.151745	7.37281e+06	-39739.1	1055.82	-29792.7	0.000000	0.000000	7.152749	24.1025	NaN	0.000000	0.001612	0.001771	28.0824	18.9995	0.001789	10621.1	4.645976	-176.236	23.693	1.151421	0.015697	0.015373	24.1025	10621.1	0.013995	0.013968	1725.52	82105.2
792	2.000000	1.154198	7.37281e+06	-39739.1	1055.82	-29792.7	0.000000	0.000000	7.155505	31.4642	NaN	0.000000	0.001623	0.001755	28.082	22.0762	0.001791	12329.6	5.573434	0.797489	29.9324	1.153815	0.018150	0.017767	31.4642	12329.6	0.016236	0.016969	1854.22	86475.9
792	2.000000	1.156664	7.37281e+06	-39739.1	1055.82	-29792.7	0.000000	0.000000	7.158160	36.0625	NaN	0.000000	0.001576	0.001745	28.0835	24.1777	0.001931	12522.8	4.945745	-178.08	33.9695	1.156438	0.020616	0.020390	36.0625	12522.8	0.018456	0.020174	1787.59	80552.7
792	2.000000	1.159218	7.37281e+06	-39739.1	1055.82	-29792.7	0.000000	0.000000	7.161135	46.3206	NaN	0.000000	0.001611	0.001753	28.0831	26.3938	0.001845	14306.5	7.875450	-1.099653	47.046	1.158818	0.023169	0.022770	46.3206	14306.5	0.020741	0.023720	1952.79	84868.7
792	2.000000	1.161620	7.37281e+06	-39739.1	1055.82	-29792.7	0.000000	0.000000	7.163861	54.2007	NaN	0.000000	0.001586	0.001746	28.0834	27.9736	0.001816	15405.8	3.358146	-177.646	51.7813	1.161343	0.025571	0.025295	54.2007	15405.8	0.022933	0.027361	1980.92	85091.9
792	2.000000	1.164168	7.37281e+06	-39739.1	1055.82	-29792.7	0.000000	0.000000	7.166562	57.9095	NaN	0.000000	0.001606	0.001760	28.083	30.2323	0.001808	16722.7	6.190024	-2.518154	56.1353	1.163854	0.028120	0.027805	57.9095	16722.7	0.025523	0.031973	1811.18	85444.8
792	2.000000	1.166628	7.37281e+06	-39739.1	1055.82	-29792.7	0.000000	0.000000	7.169523	70.1055	NaN	0.000000	0.001590	0.001763	28.0832	32.5377	0.001757	18514.3	2.248713	-179.767	68.064	1.166356	0.030580	0.030308	70.1055	18514.3	0.027740	0.036190	1937.18	88917.8
792	2.000000	1.169145	7.37281e+06	-39739.1	1055.82	-29792.7	0.000000	0.000000	7.172276	75.8612	NaN	0.000000	0.001609	0.001797	28.0829	34.6522	0.001715	20205.2	4.277455	-1.444506	73.2132	1.168827	0.033097	0.032779	75.8612	20205.2	0.030281	0.041328	1835.59	90805.8
792	2.000000	1.171625	7.37281e+06	-39739.1	1055.82	-29792.7	0.000000	0.000000	7.175268	88.3348	NaN	0.000000	0.001550	0.001776	28.0836	36.7025	0.001764	20808.2	7.499454	176.144	86.3916	1.171312	0.035576	0.035263	88.3348	20808.2	0.032392	0.045849	1926.66	88786
792	2.000000	1.174148	7.37281e+06	-39739.1	1055.82	-29792.7	0.000000	0.000000	7.178263	99.8085	NaN	0.000000	0.001530	0.001757	28.083	39.9967	0.001708	23412.7	3.807923	-1.720606	98.0919	1.173803	0.038099	0.037755	99.8085	23412.7	0.034902	0.051518	1937.34	94241.7
792	2.000000	1.176628	7.37281e+06	-39739.1	1055.82	-29792.7	0.000000	0.000000	7.181088	108.199	NaN	0.000000	0.001591	0.001729	28.0829	43.6567	0.001796	24307	6.390016	174.818	105.269	1.176390	0.040579	0.040342	108.199	24307	0.037241	0.057092	1895.18	92943.2
792	2.000000	1.179146	7.37281e+06	-39739.1	1055.82	-29792.7	0.000000	0.000000	7.184078	119.69	NaN	0.000000	0.001586	0.001783	28.0826	45.5721	0.001841	24760	8.166052	-6.138794	118.178	1.178691	0.043097	0.042642	119.69	24760	0.039471	0.062670	1909.86	90363.9
792	2.000000	1.181627	7.37281e+06	-39739.1	1055.82	-29792.7	0.000000	0.000000	7.186999	130.377	NaN	0.000000	0.001572	0.001789	28.0837	47.0502	0.001790	26285.8	5.058367	174.706	128.754	1.181357	0.045579	0.045308	130.377	26285.8	0.041859	0.068921	1891.71	91478.8
792	2.000000	1.184212	7.37281e+06	-39739.1	1055.82	-29792.7	0.000000	0.000000	7.190127	143.594	NaN	0.000000	0.001523	0.001782	28.0829	49.3896	0.001892	26109.7	5.932179	-3.495169	146.408	1.183649	0.048164	0.047601	143.594	26109.7	0.044039	0.074883	1917.57	87173.3
792	2.000000	1.186617	7.37281e+06	-39739.1	1055.82	-29792.7	0.000000	0.000000	7.193043	156.032	NaN	0.000000	0.001534	0.001772	28.0829	51.1218	0.001839	27795.6	2.637711	177.171	155.301	1.186427	0.050569	0.050378	156.032	27795.6	0.046359	0.081491	1914.72	88960
792	2.000000	1.189076	7.37281e+06	-39739.1	1055.82	-29792.7	0.000000	0.000000	7.196131	171.333	NaN	0.000000	0.001557	0.001744	28.0817	52.5293	0.001843	28509.7	2.217981	-2.019591	166.07	1.188746	0.053028	0.052698	171.333	28509.7	0.048521	0.087895	1949.29	87858.5
792	2.000000	1.191610	7.37281e+06	-39739.1	1055.82	-29792.7	0.000000	0.000000	7.199243	185.423	NaN	0.000000	0.001553	0.001725	28.0817	53.3334	0.001644	32437.3	1.675414	177.566	183.286	1.191272	0.055561	0.055223	185.423	32437.3	0.051274	0.096391	1923.64	95455.1
792	2.000000	1.194049	7.37281e+06	-39739.1	1055.82	-29792.7	0.000000	0.000000	7.202012	193.439	NaN	0.000000	0.001575	0.001712	28.0815	57.0097	0.001847	30870.1	2.535744	-2.372968	188.086	1.193685	0.058000	0.057636	193.439	30870.1	0.053301	0.102888	1880.09	87928.4
792	2.000000	1.196622	7.37281e+06	-39739.1	1055.82	-29792.7	0.000000	0.000000	7.205114	206.316	NaN	0.000000	0.001556	0.001736	28.0816	59.8154	0.001760	33989.6	2.968918	175.912	205.324	1.196346	0.060573	0.060297	206.316	33989.6	0.056021	0.111928	1843.29	92821.8
792	2.000000	1.199163	7.37281e+06	-39739.1	1055.82	-29792.7	0.000000	0.000000	7.208381	223.969	NaN	0.000000	0.001546	0.001726	28.0815	61.473	0.001787	34407.6	4.554695	-5.679017	222.67	1.198709	0.063115	0.062660	223.969	34407.6	0.058233	0.119548	1873.46	90919.1
792	2.000000	1.201582	7.37281e+06	-39739.1	1055.82	-29792.7	0.000000	0.000000	7.211459	240.028	NaN	0.000000	0.001562	0.001741	28.0818	63.9104	0.001838	34778	5.860395	172.485	237.575	1.201256	0.065533	0.065207	240.028	34778	0.060357	0.127091	1888.64	89129.4
792	2.000000	1.204120	7.37281e+06	-39739.1	1055.82	-29792.7	0.000000	0.000000	7.214630	255.407	NaN	0.000000	0.001567	0.001721	28.0817	66.3428	0.001865	35566.4	4.709848	-5.693099	252.951	1.203781	0.068072	0.067733	255.407	35566.4	0.062686	0.135616	1883.31	88238.2
792	2.000000	1.206561	7.37281e+06	-39739.1	1055.82	-29792.7	0.000000	0.000000	7.217898	275.541	NaN	0.000000	0.001641	0.001720	28.0815	69.0097	0.001767	39056.2	6.747457	171.23	271.802	1.206261	0.070512	0.070212	275.541	39056.2	0.065221	0.145194	1897.75	93646
792	2.000000	1.209039	7.37281e+06	-39739.1	1055.82	-29792.7	0.000000	0.000000	7.221129	293.882	NaN	0.000000	0.001584	0.001727	28.0813	70.2724	0.001680	41836.9	2.731043	-5.426451	286.66	1.208732	0.072990	0.072683	293.882	41836.9	0.067722	0.154945	1896.69	97105.5
792	2.000000	1.211605	7.37281e+06	-39739.1	1055.82	-29792.7	0.000000	0.000000	7.224460	312.479	NaN	0.000000	0.001584	0.001714	28.0816	73.7193	0.001788	41230.2	7.483690	169.58	311.263	1.211331	0.075557	0.075282	312.479	41230.2	0.069873	0.163570	1910.37	93140.1
792	2.000000	1.214050	7.37281e+06	-39739.1	1055.82	-29792.7	0.000000	0.000000	7.227952	337.963	NaN	0.000000	0.001611	0.001709	28.0815	75.6563	0.001792	42207.6	5.054259	-7.678995	333.75	1.213661	0.078002	0.077613	337.963	42207.6	0.071996	0.172304	1961.43	92900.1
792	2.000000	1.216534	7.37281e+06	-39739.1	1055.82	-29792.7	0.000000	0.000000	7.231244	357.629	NaN	0.000000	0.001597	0.001710	28.0815	76.3342	0.001713	44574.6	-2.259266	179.295	351.329	1.216317	0.080486	0.080269	357.629	44574.6	0.074469	0.182739	1957.04	95267.4
792	2.000000	1.219077	7.37281e+06	-39739.1	1055.82	-29792.7	0.000000	0.000000	7.234601	377.424	NaN	0.000000	0.001597	0.001713	28.0814	79.0786	0.001822	43412.8	6.097991	-7.562719	372.283	1.218690	0.083029	0.082641	377.424	43412.8	0.076509	0.191567	1970.19	90621.4
792	2.000000	1.221535	7.37281e+06	-39739.1	1055.82	-29792.7	0.000000	0.000000	7.237701	393.056	NaN	0.000000	0.001598	0.001756	28.0817	81.1213	0.001717	47253.4	2.320952	174.21	391.573	1.221160	0.085487	0.085111	393.056	47253.4	0.079248	0.203730	1929.3	95648.7
792	2.000000	1.224033	7.37281e+06	-39739.1	1055.82	-29792.7	0.000000	0.000000	7.241239	418.385	NaN	0.000000	0.001602	0.001709	28.0828	85.539	0.001757	48692.9	6.604502	-9.491726	411.794	1.223543	0.087984	0.087495	418.385	48692.9	0.081540	0.214173	1953.49	96129.5
792	2.000000	1.226511	7.37281e+06	-39739.1	1055.82	-29792.7	0.000000	0.000000	7.244396	434.906	NaN	0.000000	0.001616	0.001719	28.0829	88.9324	0.001933	46016.1	3.651381	172.893	428.458	1.226317	0.090462	0.090269	434.906	46016.1	0.083374	0.222705	1952.83	89087.6
792	2.000000	1.229068	7.37281e+06	-39739.1	1055.82	-29792.7	0.000000	0.000000	7.248046	461.468	NaN	0.000000	0.001609	0.001724	28.0828	90.4887	0.001829	49476.4	7.178117	-10.7585	457.003	1.228740	0.093020	0.092692	461.468	49476.4	0.086025	0.235314	1961.07	93185.3
792	2.000000	1.231607	7.37281e+06	-39739.1	1055.82	-29792.7	0.000000	0.000000	7.251287	478.582	NaN	0.000000	0.001620	0.001742	28.0833	92.4833	0.001726	53581.1	4.634334	171.15	478.064	1.231300	0.095558	0.095252	478.582	53581.1	0.088860	0.249157	1920.81	98072.9
792	2.000000	1.234083	7.37281e+06	-39739.1	1055.82	-29792.7	0.000000	0.000000	7.254641	499.944	NaN	0.000000	0.001559	0.001708	28.0828	95.1488	0.001756	54176.3	3.304795	-7.802510	497.227	1.233729	0.098034	0.097680	499.944	54176.3	0.091113	0.260424	1919.74	96993.4
792	2.000000	1.236575	7.37281e+06	-39739.1	1055.82	-29792.7	0.000000	0.000000	7.257932	519.381	NaN	0.000000	0.001565	0.001697	28.0832	98.6413	0.001776	55546.9	3.828559	171.047	517.25	1.236311	0.100527	0.100262	519.381	55546.9	0.093514	0.272683	1904.71	97186.2
792	2.000000	1.239003	7.37281e+06	-39739.1	1055.82	-29792.7	0.000000	0.000000	7.261186	539.488	NaN	0.000000	0.001592	0.001720	28.0828	99.2974	0.001756	56542.5	0.347920	-4.839669	532.751	1.238735	0.102954	0.102686	539.488	56542.5	0.095798	0.284594	1895.64	96835.7
792	2.000000	1.239539	7.37281e+06	-39739.1	1055.82	-29792.7	0.000000	0.000000	7.262108	548.873	NaN	0.000000	0.001600	0.001697	28.0831	102.428	0.001842	55593.2	6.999694	169.45	544.592	1.239103	0.103491	0.103055	548.873	55593.2	0.096086	0.286110	1918.4	94957.4