File: remote_trans/data/nanoindenter/0828-1/data/Data_2025-08-06,11h17m57s/2025-07-22_16-23-58_1_602.txt
2025-07-22, 16:23:58, 1
Index	Phase	Displacement	Time	Pos X	Pos Y	Pos Z	Rot A	Rot B	Piezo Z	Force A	Force B	Gripper	Voltage A	Voltage B	Temperature	Amplitude force	Amplitude pos	Stiffness	Phase shift	Phase excitation	Force A raw	Displacement raw	HMax	HMax raw	Real Force	Real Stiffness	Contact Depth	Area	Hardness	Reduced Mod.
[#]	[#]	[um]	[s]	[um]	[um]	[um]	[m°]	[m°]	[um]	[uN]	[uN]	[V]	[V]	[V]	[°C]	[uN]	[um]	[N/m]	[°]	[°]	[uN]	[um]	[um]	[um]	[uN]	[N/m]	[um]	[um^2]	[MPa]	[MPa]
602	1.000000	0.002029	7.37094e+06	-46989.1	1005.82	-29767.4	0.000000	0.000000	6.002768	-0.005521	NaN	0.000000	0.001553	0.001835	28.0805	0.050274	0.000891	56.4391	-133.987	-171.833	-0.119907	0.000840	-1.065793	-1.066983	-0.005521	56.4391	-1.065720	-1.736524E+14	3.179465E-17	NaN
602	1.000000	0.010037	7.37094e+06	-46989.1	1005.82	-29767.5	0.000000	0.000000	6.010774	-0.040662	NaN	0.000000	0.001558	0.001806	28.0809	0.023562	0.000898	26.2284	23.0023	-162.69	-0.076598	0.008705	-1.057785	-1.059118	-0.040662	26.2284	-1.056622	-1.310476E+14	3.102813E-16	NaN
602	1.000000	0.018006	7.37094e+06	-46989.1	1005.82	-29767.5	0.000000	0.000000	6.018747	0.071975	NaN	0.000000	0.001542	0.001796	28.0816	0.023845	0.001769	13.481	150.062	-165.821	0.077299	0.016691	-1.049817	-1.051132	0.071975	13.481	-1.053821	-1.201644E+14	-5.989688E-16	NaN
602	1.000000	0.026032	7.37094e+06	-46989.1	1005.82	-29767.5	0.000000	0.000000	6.026771	0.016030	NaN	0.000000	0.001554	0.001811	28.0814	0.070810	0.001978	35.7934	-37.6133	-161.396	0.035716	0.024707	-1.041790	-1.043116	0.016030	35.7934	-1.042126	-8.366717E+13	-1.915962E-16	NaN
602	1.000000	0.033988	7.37094e+06	-46989.1	1005.82	-29767.5	0.000000	0.000000	6.034727	0.010272	NaN	0.000000	0.001540	0.001788	28.0818	0.058313	0.001982	29.4228	118.383	-167.49	0.025741	0.032624	-1.033834	-1.035198	0.010272	29.4228	-1.034096	-6.524846E+13	-1.574283E-16	NaN
602	1.000000	0.042025	7.37094e+06	-46989.1	1005.82	-29767.5	0.000000	0.000000	6.042766	0.043552	NaN	0.000000	0.001512	0.001788	28.0815	0.066279	0.001885	35.162	-140.272	-166.212	0.033512	0.040647	-1.025797	-1.027175	0.043552	35.162	-1.026726	-5.193290E+13	-8.386271E-16	NaN
602	1.000000	0.050006	7.37094e+06	-46989.1	1005.82	-29767.5	0.000000	0.000000	6.050748	0.084277	NaN	0.000000	0.001558	0.001787	28.0817	0.062364	0.001934	32.2471	167.019	-166.995	0.100179	0.048673	-1.017816	-1.019149	0.084277	32.2471	-1.019776	-4.187375E+13	-2.012650E-15	NaN
602	1.000000	0.058021	7.37094e+06	-46989.1	1005.82	-29767.5	0.000000	0.000000	6.058764	0.109095	NaN	0.000000	0.001522	0.001835	28.0814	0.092508	0.002068	44.7415	-106.626	-167.337	0.096400	0.056689	-1.009802	-1.011134	0.109095	44.7415	-1.011630	-3.253319E+13	-3.353340E-15	NaN
602	1.000000	0.066028	7.37094e+06	-46989.1	1005.82	-29767.5	0.000000	0.000000	6.066768	0.035425	NaN	0.000000	0.001567	0.001794	28.0818	0.045084	0.002073	21.7503	-66.7762	-168.412	-0.047087	0.064731	-1.001795	-1.003091	0.035425	21.7503	-1.003016	-2.491005E+13	-1.422113E-15	NaN
602	1.000000	0.074011	7.37094e+06	-46989.1	1005.82	-29767.5	0.000000	0.000000	6.074752	0.070103	NaN	0.000000	0.001555	0.001808	28.0818	0.037453	0.001974	18.9774	130.473	-167.161	0.091888	0.072691	-0.993812	-0.995131	0.070103	18.9774	-0.996582	-2.040575E+13	-3.435470E-15	NaN
602	1.000000	0.082010	7.37094e+06	-46989.1	1005.82	-29767.5	0.000000	0.000000	6.082751	0.047059	NaN	0.000000	0.001576	0.001768	28.0815	0.060412	0.001871	32.2845	26.1244	-164.249	0.042788	0.080668	-0.985812	-0.987155	0.047059	32.2845	-0.986905	-1.511586E+13	-3.113205E-15	NaN
602	1.000000	0.090038	7.37094e+06	-46989.1	1005.82	-29767.5	0.000000	0.000000	6.090776	-0.015040	NaN	0.000000	0.001540	0.001790	28.0816	0.028905	0.001856	15.5752	-147.403	-165.9	-0.034731	0.088695	-0.977785	-0.979128	-0.015040	15.5752	-0.977060	-1.113794E+13	1.350308E-15	NaN
602	1.000000	0.098024	7.37094e+06	-46989.1	1005.82	-29767.5	0.000000	0.000000	6.098766	0.098480	NaN	0.000000	0.001518	0.001776	28.0814	0.033324	0.002087	15.966	124.336	-165.912	0.050872	0.096747	-0.969799	-0.971075	0.098480	15.966	-0.974425	-1.026341E+13	-9.595268E-15	NaN
602	1.000000	0.105998	7.37094e+06	-46989.1	1005.82	-29767.5	0.000000	0.000000	6.106735	-0.040713	NaN	0.000000	0.001563	0.001769	28.0816	0.074058	0.001950	37.9783	-47.2599	-167.025	-0.060703	0.104659	-0.961824	-0.963164	-0.040713	37.9783	-0.961020	-6.770531E+12	6.013255E-15	NaN
602	1.000000	0.114039	7.37094e+06	-46989.1	1005.82	-29767.5	0.000000	0.000000	6.114778	0.033875	NaN	0.000000	0.001531	0.001767	28.0815	0.102136	0.001982	51.5243	62.8278	-167.24	0.013040	0.112731	-0.953784	-0.955091	0.033875	51.5243	-0.954277	-5.491679E+12	-6.168342E-15	NaN
602	1.000000	0.122074	7.37094e+06	-46989.1	1005.82	-29767.5	0.000000	0.000000	6.122815	0.056840	NaN	0.000000	0.001514	0.001745	28.0815	0.091026	0.001862	48.8924	-118.114	-166.029	0.034524	0.120758	-0.945748	-0.947065	0.056840	48.8924	-0.946620	-4.329529E+12	-1.312846E-14	NaN
602	1.000000	0.130006	7.37094e+06	-46989.1	1005.82	-29767.5	0.000000	0.000000	6.130746	0.031351	NaN	0.000000	0.001558	0.001788	28.0816	0.115682	0.001886	61.3468	24.6572	-164.734	0.046685	0.128739	-0.937816	-0.939083	0.031351	61.3468	-0.938199	-3.333064E+12	-9.406077E-15	NaN
602	1.000000	0.138046	7.37094e+06	-46989.1	1005.82	-29767.5	0.000000	0.000000	6.138789	0.111319	NaN	0.000000	0.001546	0.001730	28.0814	0.025287	0.002068	12.2298	-107.973	-165.699	0.112683	0.136753	-0.929777	-0.931070	0.111319	12.2298	-0.936603	-3.171825E+12	-3.509619E-14	NaN
602	1.000000	0.146009	7.37094e+06	-46989.1	1005.82	-29767.5	0.000000	0.000000	6.146747	-0.014909	NaN	0.000000	0.001562	0.001803	28.0812	0.112438	0.002000	56.222	-140.51	-167.416	0.039029	0.144724	-0.921813	-0.923099	-0.014909	56.222	-0.921614	-1.990681E+12	7.489430E-15	NaN
602	1.000000	0.154063	7.37094e+06	-46989.1	1005.82	-29767.5	0.000000	0.000000	6.154802	0.009747	NaN	0.000000	0.001570	0.001783	28.0802	0.029958	0.002001	14.9691	-142.402	-164.854	0.050684	0.152737	-0.913760	-0.915085	0.009747	14.9691	-0.914248	-1.583204E+12	-6.156443E-15	NaN
602	1.000000	0.162052	7.37094e+06	-46989.1	1005.82	-29767.5	0.000000	0.000000	6.162789	-0.041312	NaN	0.000000	0.001557	0.001756	28.0803	0.018091	0.001981	9.134620	53.5006	-166.163	0.024365	0.160742	-0.905770	-0.907080	-0.041312	9.134620	-0.902378	-1.094456E+12	3.774645E-14	NaN
602	1.000000	0.170053	7.37094e+06	-46989.1	1005.82	-29767.5	0.000000	0.000000	6.170791	-0.011807	NaN	0.000000	0.001496	0.001772	28.0804	0.038864	0.001969	19.7395	-93.7967	-166.524	-0.000816	0.168739	-0.897770	-0.899083	-0.011807	19.7395	-0.897321	-9.351133E+11	1.262602E-14	NaN
602	1.000000	0.178067	7.37094e+06	-46989.1	1005.82	-29767.5	0.000000	0.000000	6.178805	0.003174	NaN	0.000000	0.001548	0.001790	28.0804	0.022410	0.002084	10.7552	162.307	-163.815	-0.046152	0.176738	-0.889756	-0.891084	0.003174	10.7552	-0.889977	-7.440574E+11	-4.266417E-15	NaN
602	1.000000	0.186059	7.37094e+06	-46989.1	1005.82	-29767.5	0.000000	0.000000	6.186797	-0.005064	NaN	0.000000	0.001530	0.001804	28.0805	0.105942	0.001940	54.6199	-157.13	-164.833	-0.037558	0.184740	-0.881764	-0.883083	-0.005064	54.6199	-0.881694	-5.749388E+11	8.807582E-15	NaN
602	1.000000	0.194071	7.37094e+06	-46989.1	1005.82	-29767.5	0.000000	0.000000	6.194811	0.035551	NaN	0.000000	0.001565	0.001786	28.0806	0.025220	0.001999	12.6178	136.706	-164.596	0.062006	0.192767	-0.873751	-0.875056	0.035551	12.6178	-0.875864	-4.794834E+11	-7.414447E-14	NaN
602	1.000000	0.202085	7.37094e+06	-46989.1	1005.82	-29767.5	0.000000	0.000000	6.202824	0.016693	NaN	0.000000	0.001543	0.001808	28.0807	0.087931	0.001941	45.3078	172.621	-165.737	0.025470	0.200722	-0.865737	-0.867101	0.016693	45.3078	-0.866013	-3.527803E+11	-4.731955E-14	NaN
602	1.000000	0.210070	7.37094e+06	-46989.1	1005.82	-29767.5	0.000000	0.000000	6.210807	-0.035527	NaN	0.000000	0.001553	0.001774	28.0805	0.015045	0.001941	7.752884	97.8277	-162.951	0.008781	0.208762	-0.857753	-0.859061	-0.035527	7.752884	-0.854316	-2.450035E+11	1.450077E-13	NaN
602	1.000000	0.218078	7.37094e+06	-46989.1	1005.82	-29767.5	0.000000	0.000000	6.218816	-0.021021	NaN	0.000000	0.001528	0.001815	28.0807	0.089473	0.001820	49.1653	-9.116471	-166.415	-0.001140	0.216808	-0.849744	-0.851015	-0.021021	49.1653	-0.849424	-2.103452E+11	9.993779E-14	NaN
602	1.000000	0.226093	7.37094e+06	-46989.1	1005.82	-29767.5	0.000000	0.000000	6.226835	0.081568	NaN	0.000000	0.001530	0.001778	28.081	0.049097	0.002133	23.0221	46.4542	-167.175	-0.000173	0.224795	-0.841729	-0.843028	0.081568	23.0221	-0.844387	-1.797699E+11	-4.537363E-13	NaN
602	1.000000	0.234101	7.37094e+06	-46989.1	1005.82	-29767.5	0.000000	0.000000	6.234840	0.013623	NaN	0.000000	0.001545	0.001749	28.0806	0.123611	0.002123	58.227	41.2204	-166.767	-0.009961	0.232734	-0.833722	-0.835088	0.013623	58.227	-0.833897	-1.295985E+11	-1.051146E-13	NaN
602	1.000000	0.242095	7.37094e+06	-46989.1	1005.82	-29767.5	0.000000	0.000000	6.242835	0.046972	NaN	0.000000	0.001530	0.001772	28.0807	0.054500	0.002004	27.1971	161.034	-169.821	0.044609	0.240805	-0.825728	-0.827018	0.046972	27.1971	-0.827023	-1.045767E+11	-4.491660E-13	NaN
602	1.000000	0.250140	7.37094e+06	-46989.1	1005.82	-29767.5	0.000000	0.000000	6.250881	0.056718	NaN	0.000000	0.001525	0.001748	28.0804	0.063012	0.002031	31.0257	-138.798	-165.994	0.006402	0.248852	-0.817683	-0.818971	0.056718	31.0257	-0.819054	-8.154119E+10	-6.955754E-13	NaN
602	1.000000	0.258090	7.37094e+06	-46989.1	1005.82	-29767.5	0.000000	0.000000	6.258828	-0.020399	NaN	0.000000	0.001539	0.001781	28.0806	0.038989	0.001948	20.0116	175.759	-165.551	-0.151648	0.256767	-0.809732	-0.811055	-0.020399	20.0116	-0.808968	-5.950709E+10	3.427983E-13	NaN
602	1.000000	0.266112	7.37094e+06	-46989.1	1005.82	-29767.5	0.000000	0.000000	6.266850	-0.005946	NaN	0.000000	0.001527	0.001809	28.0809	0.100466	0.002010	49.9843	-138.324	-164.269	0.104887	0.264800	-0.801711	-0.803022	-0.005946	49.9843	-0.801621	-4.730105E+10	1.257137E-13	NaN
602	1.000000	0.274121	7.37094e+06	-46989.1	1005.82	-29767.5	0.000000	0.000000	6.274860	-0.000584	NaN	0.000000	0.001507	0.001812	28.0807	0.057999	0.001980	29.2974	-163.386	-163.676	0.013478	0.272795	-0.793701	-0.795028	-0.000584	29.2974	-0.793686	-3.690996E+10	1.582480E-14	NaN
602	1.000000	0.282118	7.37094e+06	-46989.1	1005.82	-29767.5	0.000000	0.000000	6.282855	-0.025892	NaN	0.000000	0.001513	0.001794	28.081	0.129774	0.002117	61.3018	22.6061	-163.999	0.030495	0.280798	-0.785705	-0.787024	-0.025892	61.3018	-0.785388	-2.847312E+10	9.093600E-13	NaN
602	1.000000	0.290105	7.37094e+06	-46989.1	1005.82	-29767.5	0.000000	0.000000	6.290843	-0.017873	NaN	0.000000	0.001499	0.001825	28.0819	0.036044	0.002208	16.327	-47.1496	-168.008	0.011267	0.288786	-0.777717	-0.779036	-0.017873	16.327	-0.776896	-2.182974E+10	8.187491E-13	NaN
602	1.000000	0.298090	7.37094e+06	-46989.1	1005.82	-29767.5	0.000000	0.000000	6.298830	0.041196	NaN	0.000000	0.001533	0.001781	28.0819	0.070934	0.002022	35.0724	69.168	-165.487	-0.012028	0.296787	-0.769733	-0.771035	0.041196	35.0724	-0.770614	-1.793292E+10	-2.297221E-12	NaN
602	1.000000	0.306099	7.37094e+06	-46989.1	1005.82	-29767.5	0.000000	0.000000	6.306837	-0.022813	NaN	0.000000	0.001537	0.001769	28.0818	0.083940	0.002103	39.9092	74.3463	-167.307	-0.003996	0.304821	-0.761723	-0.763002	-0.022813	39.9092	-0.761295	-1.339417E+10	1.703209E-12	NaN
602	1.000000	0.314141	7.37094e+06	-46989.1	1005.82	-29767.5	0.000000	0.000000	6.314880	0.022206	NaN	0.000000	0.001512	0.001787	28.0819	0.105722	0.001988	53.177	-106.453	-164.378	0.095276	0.312813	-0.753682	-0.755010	0.022206	53.177	-0.753995	-1.065599E+10	-2.083886E-12	NaN
602	1.000000	0.322117	7.37094e+06	-46989.1	1005.82	-29767.5	0.000000	0.000000	6.322859	0.083390	NaN	0.000000	0.001545	0.001802	28.0821	0.052509	0.002021	25.9778	-106.365	-168.45	0.095721	0.320796	-0.745705	-0.747027	0.083390	25.9778	-0.748113	-8.861950E+9	-9.409916E-12	NaN
602	1.000000	0.330133	7.37094e+06	-46989.1	1005.82	-29767.5	0.000000	0.000000	6.330874	0.063994	NaN	0.000000	0.001522	0.001797	28.0817	0.063900	0.002078	30.7461	27.5923	-168.156	0.024752	0.328850	-0.737690	-0.738973	0.063994	30.7461	-0.739251	-6.711961E+9	-9.534387E-12	NaN
602	1.000000	0.338129	7.37094e+06	-46989.1	1005.82	-29767.5	0.000000	0.000000	6.338868	-0.006389	NaN	0.000000	0.001477	0.001778	28.0819	0.077455	0.002109	36.7294	160.872	-165.675	0.015090	0.336869	-0.729693	-0.730953	-0.006389	36.7294	-0.729563	-4.952767E+9	1.290042E-12	NaN
602	1.000000	0.346144	7.37094e+06	-46989.1	1005.82	-29767.5	0.000000	0.000000	6.346881	-0.036803	NaN	0.000000	0.001471	0.001775	28.0818	0.051868	0.001984	26.147	-139.749	-166.255	-0.074002	0.344835	-0.721679	-0.722987	-0.036803	26.147	-0.720623	-3.740828E+9	9.838217E-12	NaN
602	1.000000	0.354154	7.37094e+06	-46989.1	1005.82	-29767.5	0.000000	0.000000	6.354892	-0.015023	NaN	0.000000	0.001493	0.001766	28.082	0.066841	0.001886	35.443	-76.8311	-164.482	0.009995	0.352829	-0.713669	-0.714993	-0.015023	35.443	-0.713351	-2.976940E+9	5.046393E-12	NaN
602	1.000000	0.362147	7.37094e+06	-46989.1	1005.82	-29767.5	0.000000	0.000000	6.362887	0.034287	NaN	0.000000	0.001468	0.001766	28.0822	0.036433	0.002152	16.9313	166.994	-168.051	0.077780	0.360818	-0.705675	-0.707004	0.034287	16.9313	-0.707194	-2.453291E+9	-1.397592E-11	NaN
602	1.000000	0.370150	7.37094e+06	-46989.1	1005.82	-29767.5	0.000000	0.000000	6.370891	0.048499	NaN	0.000000	0.001500	0.001769	28.0818	0.068918	0.002056	33.5278	88.3212	-169.075	0.011753	0.368857	-0.697672	-0.698965	0.048499	33.5278	-0.698757	-1.881717E+9	-2.577381E-11	NaN
602	1.000000	0.378155	7.37094e+06	-46989.1	1005.82	-29767.5	0.000000	0.000000	6.378891	-0.043264	NaN	0.000000	0.001470	0.001801	28.0822	0.013420	0.002118	6.335970	-131.294	-165.492	-0.028884	0.376845	-0.689668	-0.690977	-0.043264	6.335970	-0.684546	-1.203296E+9	3.595497E-11	NaN
602	1.000000	0.386116	7.37094e+06	-46989.1	1005.82	-29767.5	0.000000	0.000000	6.386856	0.027573	NaN	0.000000	0.001461	0.001796	28.0818	0.038065	0.001957	19.4505	110.176	-168.228	0.052461	0.384872	-0.681706	-0.682950	0.027573	19.4505	-0.682770	-1.137834E+9	-2.423326E-11	NaN
602	1.000000	0.394184	7.37094e+06	-46989.1	1005.82	-29767.5	0.000000	0.000000	6.394926	0.099349	NaN	0.000000	0.001497	0.001780	28.082	0.049451	0.002031	24.3517	-74.1973	-164.401	0.004452	0.392798	-0.673639	-0.675024	0.099349	24.3517	-0.676698	-9.398235E+8	-1.057102E-10	NaN
602	1.000000	0.402160	7.37094e+06	-46989.1	1005.82	-29767.5	0.000000	0.000000	6.402902	0.065324	NaN	0.000000	0.001513	0.001798	28.0818	0.052769	0.001987	26.559	-114.669	-165.371	0.143512	0.400855	-0.665662	-0.666967	0.065324	26.559	-0.667507	-7.034960E+8	-9.285637E-11	NaN
602	1.000000	0.410161	7.37094e+06	-46989.1	1005.82	-29767.5	0.000000	0.000000	6.410899	-0.019302	NaN	0.000000	0.001518	0.001815	28.0818	0.061650	0.001905	32.3704	47.2941	-169.335	0.053688	0.408858	-0.657661	-0.658965	-0.019302	32.3704	-0.657214	-5.085179E+8	3.795698E-11	NaN
602	1.000000	0.418175	7.37094e+06	-46989.1	1005.82	-29767.5	0.000000	0.000000	6.418910	-0.077092	NaN	0.000000	0.001517	0.001786	28.0822	0.088575	0.002070	42.7802	57.319	-162.525	-0.030753	0.416894	-0.649647	-0.650928	-0.077092	42.7802	-0.648296	-3.837728E+8	2.008788E-10	NaN
602	1.000000	0.426193	7.37094e+06	-46989.1	1005.82	-29767.5	0.000000	0.000000	6.426934	0.062263	NaN	0.000000	0.001533	0.001777	28.0808	0.013836	0.002034	6.801898	38.2024	-168.113	0.046624	0.424843	-0.641629	-0.642979	0.062263	6.801898	-0.648494	-3.861849E+8	-1.612266E-10	NaN
602	1.000000	0.434158	7.37094e+06	-46989.1	1005.82	-29767.5	0.000000	0.000000	6.434898	0.046180	NaN	0.000000	0.001511	0.001741	28.0808	0.118093	0.001852	63.7758	137.209	-166.397	-0.014445	0.432909	-0.633665	-0.634913	0.046180	63.7758	-0.634208	-2.459203E+8	-1.877863E-10	NaN
602	1.000000	0.442173	7.37094e+06	-46989.1	1005.82	-29767.5	0.000000	0.000000	6.442913	0.029094	NaN	0.000000	0.001538	0.001748	28.0807	0.080130	0.001928	41.5709	-144.395	-167.66	0.087639	0.440855	-0.625649	-0.626967	0.029094	41.5709	-0.626174	-1.907533E+8	-1.525209E-10	NaN
602	1.000000	0.450172	7.37094e+06	-46989.1	1005.82	-29767.5	0.000000	0.000000	6.450911	0.019588	NaN	0.000000	0.001548	0.001722	28.0809	0.073828	0.001923	38.388	-53.1094	-165.832	0.046704	0.448877	-0.617651	-0.618946	0.019588	38.388	-0.618033	-1.474342E+8	-1.328596E-10	NaN
602	1.000000	0.458185	7.37094e+06	-46989.1	1005.82	-29767.5	0.000000	0.000000	6.458924	0.025081	NaN	0.000000	0.001540	0.001762	28.0808	0.046494	0.001929	24.1056	38.4649	-166.38	0.088603	0.456905	-0.609638	-0.610918	0.025081	24.1056	-0.610418	-1.158418E+8	-2.165112E-10	NaN
602	1.000000	0.466204	7.37094e+06	-46989.1	1005.82	-29767.5	0.000000	0.000000	6.466945	0.049957	NaN	0.000000	0.001561	0.001746	28.0807	0.097393	0.001914	50.8763	-70.7469	-165.336	-0.004036	0.464868	-0.601618	-0.602954	0.049957	50.8763	-0.602355	-8.971956E+7	-5.568146E-10	NaN
602	1.000000	0.474178	7.37094e+06	-46989.1	1005.82	-29767.5	0.000000	0.000000	6.474917	0.013302	NaN	0.000000	0.001515	0.001752	28.0809	0.027592	0.001960	14.0783	-157.621	-163.166	0.019758	0.472889	-0.593644	-0.594934	0.013302	14.0783	-0.594353	-6.960845E+7	-1.911017E-10	NaN
602	1.000000	0.482181	7.37094e+06	-46989.1	1005.82	-29767.5	0.000000	0.000000	6.482920	0.015572	NaN	0.000000	0.001521	0.001769	28.0807	0.086263	0.001958	44.067	163.446	-167.639	0.064723	0.480894	-0.585642	-0.586928	0.015572	44.067	-0.585907	-5.323775E+7	-2.924980E-10	NaN
602	1.000000	0.490228	7.37094e+06	-46989.1	1005.82	-29767.5	0.000000	0.000000	6.490966	-0.004080	NaN	0.000000	0.001526	0.001786	28.0807	0.064592	0.001918	33.6825	113.522	-169.742	0.029241	0.488837	-0.577595	-0.578986	-0.004080	33.6825	-0.577504	-4.076331E+7	1.000800E-10	NaN
602	1.000000	0.498170	7.37094e+06	-46989.1	1005.82	-29767.5	0.000000	0.000000	6.498907	-0.038619	NaN	0.000000	0.001512	0.001762	28.0806	0.090665	0.001931	46.951	-148.67	-170.316	-0.074280	0.496928	-0.569653	-0.570894	-0.038619	46.951	-0.569036	-3.113932E+7	1.240211E-9	NaN
602	1.000000	0.506208	7.37094e+06	-46989.1	1005.82	-29767.5	0.000000	0.000000	6.506946	-0.004666	NaN	0.000000	0.001538	0.001757	28.0807	0.010889	0.002089	5.212772	-135.931	-165.109	0.038120	0.504881	-0.561614	-0.562941	-0.004666	5.212772	-0.560943	-2.406706E+7	1.938577E-10	NaN
602	1.000000	0.514199	7.37094e+06	-46989.1	1005.82	-29767.5	0.000000	0.000000	6.514940	0.080095	NaN	0.000000	0.001522	0.001771	28.0808	0.030805	0.002071	14.8756	0.447444	-168.036	0.022158	0.512884	-0.553624	-0.554939	0.080095	14.8756	-0.557662	-2.167854E+7	-3.694648E-9	NaN
602	1.000000	0.522198	7.37094e+06	-46989.1	1005.82	-29767.5	0.000000	0.000000	6.522936	0.000203	NaN	0.000000	0.001531	0.001742	28.0806	0.069434	0.001970	35.2533	7.332415	-164.254	0.018974	0.520878	-0.545625	-0.546945	0.000203	35.2533	-0.545629	-1.477061E+7	-1.371298E-11	NaN
602	1.000000	0.530217	7.37094e+06	-46989.1	1005.82	-29767.5	0.000000	0.000000	6.530954	-0.015056	NaN	0.000000	0.001547	0.001795	28.0809	0.043890	0.001882	23.3168	57.6893	-169.997	0.004405	0.528940	-0.537606	-0.538883	-0.015056	23.3168	-0.537122	-1.125718E+7	1.337472E-9	NaN
602	1.000000	0.538218	7.37094e+06	-46989.1	1005.82	-29767.5	0.000000	0.000000	6.538955	-0.038438	NaN	0.000000	0.001530	0.001766	28.0806	0.019578	0.001972	9.926697	60.5444	-170.298	0.029649	0.536872	-0.529604	-0.530950	-0.038438	9.926697	-0.526700	-8.06739e+06	4.764618E-9	NaN
602	1.000000	0.546238	7.37094e+06	-46989.1	1005.82	-29767.5	0.000000	0.000000	6.546976	-0.002461	NaN	0.000000	0.001551	0.001741	28.0809	0.030691	0.001917	16.0139	46.1332	-168.158	-0.081072	0.544900	-0.521585	-0.522922	-0.002461	16.0139	-0.521469	-6.82389e+06	3.607101E-10	NaN
602	1.000000	0.554216	7.37094e+06	-46989.1	1005.82	-29767.5	0.000000	0.000000	6.554957	0.074700	NaN	0.000000	0.001517	0.001753	28.0806	0.084840	0.002017	42.0681	120.801	-165.538	0.039025	0.552905	-0.513607	-0.514918	0.074700	42.0681	-0.514938	-5.53574e+06	-1.349405E-8	NaN
602	1.000000	0.562254	7.37094e+06	-46989.1	1005.82	-29767.5	0.000000	0.000000	6.562994	0.016758	NaN	0.000000	0.001545	0.001764	28.082	0.054718	0.002050	26.6855	140.199	-166.865	0.046561	0.560905	-0.505568	-0.506917	0.016758	26.6855	-0.506039	-4.16128e+06	-4.027031E-9	NaN
602	1.000000	0.570235	7.37094e+06	-46989.1	1005.82	-29767.5	0.000000	0.000000	6.570975	0.018992	NaN	0.000000	0.001541	0.001777	28.0822	0.052527	0.001998	26.2962	-90.8109	-166.246	-0.047977	0.568935	-0.497587	-0.498887	0.018992	26.2962	-0.498129	-3.2278e+06	-5.883748E-9	NaN
602	1.000000	0.578212	7.37094e+06	-46989.1	1005.82	-29767.5	0.000000	0.000000	6.578953	0.066405	NaN	0.000000	0.001520	0.001775	28.0819	0.065248	0.002047	31.8684	-128.621	-168.049	0.087702	0.576890	-0.489610	-0.490932	0.066405	31.8684	-0.491173	-2.58098e+06	-2.572871E-8	NaN
602	1.000000	0.586236	7.37094e+06	-46989.1	1005.82	-29767.5	0.000000	0.000000	6.586975	0.015501	NaN	0.000000	0.001512	0.001770	28.082	0.086874	0.001961	44.2947	-74.1351	-168.099	0.029057	0.584946	-0.481586	-0.482876	0.015501	44.2947	-0.481849	-1.91164e+06	-8.108812E-9	NaN
602	1.000000	0.594213	7.37094e+06	-46989.1	1005.82	-29767.5	0.000000	0.000000	6.594947	-0.110315	NaN	0.000000	0.001578	0.001775	28.0818	0.047565	0.001884	25.2491	60.7881	-167.091	-0.102574	0.592978	-0.473609	-0.474844	-0.110315	25.2491	-0.470332	-1.31846e+06	8.366947E-8	NaN
602	1.000000	0.602216	7.37094e+06	-46989.1	1005.82	-29767.5	0.000000	0.000000	6.602954	-0.000433	NaN	0.000000	0.001517	0.001796	28.0821	0.079624	0.001999	39.8419	164.216	-168.412	0.018609	0.600905	-0.465607	-0.466918	-0.000433	39.8419	-0.465599	-1.13149e+06	3.825445E-10	NaN
602	1.000000	0.610221	7.37094e+06	-46989.1	1005.82	-29767.5	0.000000	0.000000	6.610958	-0.026618	NaN	0.000000	0.001509	0.001773	28.082	0.157123	0.001986	79.0996	-100.252	-165.282	-0.046219	0.608922	-0.457601	-0.458901	-0.026618	79.0996	-0.457349	-866471	3.071956E-8	NaN
602	1.000000	0.618258	7.37094e+06	-46989.1	1005.82	-29767.5	0.000000	0.000000	6.618997	-0.003621	NaN	0.000000	0.001526	0.001788	28.0817	0.055253	0.002005	27.5596	-9.890121	-169.5	0.064509	0.616992	-0.449564	-0.450831	-0.003621	27.5596	-0.449465	-671142	5.395547E-9	NaN
602	1.000000	0.626243	7.37094e+06	-46989.1	1005.82	-29767.5	0.000000	0.000000	6.626980	-0.022658	NaN	0.000000	0.001559	0.001751	28.0834	0.090956	0.002013	45.1751	138	-166.361	-0.011331	0.624987	-0.441580	-0.442836	-0.022658	45.1751	-0.441204	-513276	4.414466E-8	NaN
602	1.000000	0.634249	7.37094e+06	-46989.1	1005.82	-29767.5	0.000000	0.000000	6.634987	-0.012050	NaN	0.000000	0.001535	0.001760	28.0822	0.122764	0.001957	62.742	-62.423	-163.914	-0.080547	0.632955	-0.433574	-0.434867	-0.012050	62.742	-0.433430	-398620	3.022859E-8	NaN
602	1.000000	0.642260	7.37094e+06	-46989.1	1005.82	-29767.5	0.000000	0.000000	6.643000	0.018356	NaN	0.000000	0.001574	0.001771	28.0826	0.119137	0.002102	56.6674	-22.7023	-162.741	-0.018868	0.640936	-0.425562	-0.426887	0.018356	56.6674	-0.425805	-310944	-5.903292E-8	NaN
602	1.000000	0.650297	7.37094e+06	-46989.1	1005.82	-29767.5	0.000000	0.000000	6.651036	0.010131	NaN	0.000000	0.001545	0.001755	28.0818	0.023603	0.002080	11.3462	-162.264	-166.341	-0.086833	0.648922	-0.417526	-0.418900	0.010131	11.3462	-0.418195	-242558	-4.176605E-8	NaN
602	1.000000	0.658284	7.37094e+06	-46989.1	1005.82	-29767.5	0.000000	0.000000	6.659023	0.010101	NaN	0.000000	0.001538	0.001792	28.082	0.069939	0.001976	35.3967	-13.9809	-168.427	-0.034761	0.656944	-0.409539	-0.410879	0.010101	35.3967	-0.409753	-184028	-5.489012E-8	NaN
602	1.000000	0.666293	7.37094e+06	-46989.1	1005.82	-29767.5	0.000000	0.000000	6.667032	0.011000	NaN	0.000000	0.001539	0.001772	28.0824	0.023947	0.002048	11.6931	-4.422763	-165.178	0.042932	0.664923	-0.401530	-0.402899	0.011000	11.6931	-0.402235	-143833	-7.647706E-8	NaN
602	1.000000	0.674288	7.37094e+06	-46989.1	1005.82	-29767.5	0.000000	0.000000	6.675027	0.020404	NaN	0.000000	0.001528	0.001800	28.0821	0.068836	0.002037	33.7999	-150.608	-166.493	-0.020880	0.672987	-0.393534	-0.394836	0.020404	33.7999	-0.393987	-109690	-1.860131E-7	NaN
602	1.000000	0.682289	7.37094e+06	-46989.1	1005.82	-29767.5	0.000000	0.000000	6.683027	-0.011168	NaN	0.000000	0.001528	0.001762	28.0823	0.068941	0.002015	34.2143	-141.057	-166.778	-0.044828	0.680983	-0.385534	-0.386839	-0.011168	34.2143	-0.385289	-82361.5	1.355916E-7	NaN
602	1.000000	0.690288	7.37094e+06	-46989.1	1005.82	-29767.5	0.000000	0.000000	6.691026	-0.009766	NaN	0.000000	0.001541	0.001791	28.082	0.022942	0.002048	11.1996	-86.1125	-163.361	0.106069	0.688982	-0.377534	-0.378840	-0.009766	11.1996	-0.376880	-62386.9	1.565414E-7	NaN
602	1.000000	0.698273	7.37094e+06	-46989.1	1005.82	-29767.5	0.000000	0.000000	6.699013	0.031700	NaN	0.000000	0.001562	0.001778	28.0808	0.030058	0.001921	15.6504	-24.637	-168.774	-0.026606	0.696966	-0.369549	-0.370856	0.031700	15.6504	-0.371068	-51464.6	-6.159515E-7	NaN
602	1.000000	0.706273	7.37094e+06	-46989.1	1005.82	-29767.5	0.000000	0.000000	6.707013	0.031287	NaN	0.000000	0.001567	0.001770	28.081	0.095698	0.002081	45.9948	144.969	-167.328	0.039649	0.704959	-0.361549	-0.362863	0.031287	45.9948	-0.362059	-38159.4	-8.199070E-7	NaN
602	1.000000	0.714303	7.37094e+06	-46989.1	1005.82	-29767.5	0.000000	0.000000	6.715046	0.099394	NaN	0.000000	0.001558	0.001770	28.081	0.076926	0.002077	37.0427	-15.1147	-165.557	0.031392	0.713039	-0.353519	-0.354783	0.099394	37.0427	-0.355532	-30704.1	-3.237150E-6	NaN
602	1.000000	0.722286	7.37094e+06	-46989.1	1005.82	-29767.5	0.000000	0.000000	6.723025	0.004269	NaN	0.000000	0.001554	0.001743	28.0811	0.101094	0.002060	49.0744	61.5329	-165.034	-0.044286	0.720939	-0.345536	-0.346883	0.004269	49.0744	-0.345601	-22034.3	-1.937647E-7	NaN
602	1.000000	0.730283	7.37094e+06	-46989.1	1005.82	-29767.5	0.000000	0.000000	6.731022	0.024438	NaN	0.000000	0.001531	0.001796	28.0808	0.033586	0.002070	16.2279	-174.506	-165.835	0.047840	0.729002	-0.337540	-0.338820	0.024438	16.2279	-0.338669	-17464.1	-1.399311E-6	NaN
602	1.000000	0.738295	7.37094e+06	-46989.1	1005.82	-29767.5	0.000000	0.000000	6.739035	0.034602	NaN	0.000000	0.001523	0.001780	28.0811	0.142467	0.001942	73.3481	5.521344	-166.162	0.017573	0.736977	-0.329528	-0.330846	0.034602	73.3481	-0.329882	-12993.2	-2.663117E-6	NaN
602	1.000000	0.746299	7.37094e+06	-46989.1	1005.82	-29767.5	0.000000	0.000000	6.747038	-0.003057	NaN	0.000000	0.001522	0.001727	28.0811	0.107565	0.002175	49.4462	-170.587	-163.287	-0.008386	0.744990	-0.321523	-0.322833	-0.003057	49.4462	-0.321477	-9780.66	3.125613E-7	NaN
602	1.000000	0.754314	7.37094e+06	-46989.1	1005.82	-29767.5	0.000000	0.000000	6.755053	0.011912	NaN	0.000000	0.001575	0.001771	28.081	0.102304	0.002116	48.3422	64.8913	-168.081	0.006136	0.752966	-0.313508	-0.314856	0.011912	48.3422	-0.313693	-7510.19	-1.586167E-6	NaN
602	1.000000	0.762288	7.37094e+06	-46989.1	1005.82	-29767.5	0.000000	0.000000	6.763026	-0.002532	NaN	0.000000	0.001544	0.001747	28.081	0.032382	0.001930	16.7751	-177.894	-167.629	0.023538	0.760987	-0.305534	-0.306835	-0.002532	16.7751	-0.305421	-5665.07	4.468845E-7	NaN
602	1.000000	0.770290	7.37094e+06	-46989.1	1005.82	-29767.5	0.000000	0.000000	6.771031	0.060185	NaN	0.000000	0.001568	0.001780	28.0809	0.062538	0.002048	30.5309	-1.193483	-168.373	0.103680	0.769020	-0.297532	-0.298802	0.060185	30.5309	-0.299011	-4548.85	-1.323083E-5	NaN
602	1.000000	0.778342	7.37094e+06	-46989.1	1005.82	-29767.5	0.000000	0.000000	6.779084	0.086485	NaN	0.000000	0.001570	0.001772	28.0815	0.039163	0.001952	20.065	148.3	-167.54	0.023558	0.777003	-0.289481	-0.290819	0.086485	20.065	-0.292714	-3663.7	-2.360600E-5	NaN
602	1.000000	0.786315	7.37094e+06	-46989.1	1005.82	-29767.5	0.000000	0.000000	6.787053	-0.015362	NaN	0.000000	0.001565	0.001790	28.0811	0.081211	0.001988	40.8416	-41.2158	-166.601	0.031350	0.784973	-0.281507	-0.282850	-0.015362	40.8416	-0.281225	-2462.87	6.237319E-6	NaN
602	1.000000	0.794305	7.37094e+06	-46989.1	1005.82	-29767.5	0.000000	0.000000	6.795046	0.050397	NaN	0.000000	0.001564	0.001747	28.0809	0.116917	0.002138	54.6958	-152.831	-169.01	0.041083	0.793007	-0.273517	-0.274815	0.050397	54.6958	-0.274208	-1929.34	-2.612115E-5	NaN
602	1.000000	0.802340	7.37094e+06	-46989.1	1005.82	-29767.5	0.000000	0.000000	6.803076	-0.052559	NaN	0.000000	0.001567	0.001732	28.0809	0.029227	0.001997	14.635	-140.45	-168.682	-0.008466	0.800985	-0.265483	-0.266837	-0.052559	14.635	-0.262789	-1293.06	4.064685E-5	NaN
602	1.000000	0.810331	7.37094e+06	-46989.1	1005.82	-29767.5	0.000000	0.000000	6.811069	-0.005226	NaN	0.000000	0.001567	0.001724	28.0808	0.069042	0.001905	36.2483	52.1344	-163.916	0.073234	0.809022	-0.257491	-0.258800	-0.005226	36.2483	-0.257383	-1068.47	4.891480E-6	NaN
602	1.000000	0.818330	7.37094e+06	-46989.1	1005.82	-29767.5	0.000000	0.000000	6.819067	-0.033620	NaN	0.000000	0.001636	0.001723	28.0812	0.054707	0.002071	26.415	-132.481	-166.033	0.049266	0.817026	-0.249492	-0.250796	-0.033620	26.415	-0.248538	-780.438	4.307897E-5	NaN
602	1.000000	0.826323	7.37094e+06	-46989.1	1005.82	-29767.5	0.000000	0.000000	6.827061	0.004239	NaN	0.000000	0.001628	0.001747	28.081	0.065492	0.002045	32.028	-59.5552	-162.904	0.016786	0.824993	-0.241500	-0.242829	0.004239	32.028	-0.241599	-608.851	-6.962131E-6	NaN
602	1.000000	0.834322	7.37094e+06	-46989.1	1005.82	-29767.5	0.000000	0.000000	6.835059	-0.041161	NaN	0.000000	0.001635	0.001779	28.0824	0.029196	0.002029	14.3915	-47.4142	-164.822	-0.019390	0.833023	-0.233501	-0.234799	-0.041161	14.3915	-0.231356	-420.636	9.785377E-5	NaN
602	1.000000	0.842328	7.37094e+06	-46989.1	1005.82	-29767.5	0.000000	0.000000	6.843068	0.020607	NaN	0.000000	0.001620	0.001739	28.0822	0.109432	0.001997	54.7897	81.2217	-165.266	0.030975	0.841034	-0.225494	-0.226789	0.020607	54.7897	-0.225776	-343.285	-6.002962E-5	NaN
602	1.000000	0.850322	7.37094e+06	-46989.1	1005.82	-29767.5	0.000000	0.000000	6.851063	0.066678	NaN	0.000000	0.001537	0.001771	28.0823	0.059060	0.002001	29.5218	-28.3961	-167.141	0.074298	0.849014	-0.217501	-0.218808	0.066678	29.5218	-0.219195	-269.65	-0.000247	NaN
602	1.000000	0.858324	7.37094e+06	-46989.1	1005.82	-29767.5	0.000000	0.000000	6.859064	0.022630	NaN	0.000000	0.001556	0.001772	28.0822	0.079436	0.001805	44.0014	-25.7954	-165.158	0.060524	0.857070	-0.209498	-0.210753	0.022630	44.0014	-0.209884	-190.959	-0.000119	NaN
602	1.000000	0.866355	7.37094e+06	-46989.1	1005.82	-29767.5	0.000000	0.000000	6.867093	-0.013360	NaN	0.000000	0.001571	0.001749	28.0821	0.064557	0.002062	31.3122	41.9319	-164.962	-0.002722	0.865062	-0.201467	-0.202761	-0.013360	31.3122	-0.201147	-137.574	9.711008E-5	NaN
602	1.000000	0.874377	7.37094e+06	-46989.1	1005.82	-29767.5	0.000000	0.000000	6.875117	0.040432	NaN	0.000000	0.001548	0.001780	28.0826	0.062964	0.002015	31.252	167.093	-166.954	0.071160	0.873067	-0.193446	-0.194755	0.040432	31.252	-0.194416	-106.543	-0.000379	NaN
602	1.000000	0.882374	7.37094e+06	-46989.1	1005.82	-29767.5	0.000000	0.000000	6.883114	0.036761	NaN	0.000000	0.001547	0.001763	28.0822	0.127770	0.002009	63.5905	-158.817	-167.874	0.087914	0.881069	-0.185449	-0.186754	0.036761	63.5905	-0.185882	-76.7349	-0.000479	NaN
602	1.000000	0.890358	7.37094e+06	-46989.1	1005.82	-29767.5	0.000000	0.000000	6.891098	0.049681	NaN	0.000000	0.001564	0.001776	28.0822	0.069381	0.002076	33.4213	75.2411	-164.196	0.053557	0.889018	-0.177465	-0.178804	0.049681	33.4213	-0.178580	-57.7126	-0.000861	NaN
602	1.000000	0.898326	7.37094e+06	-46989.1	1005.82	-29767.5	0.000000	0.000000	6.899065	0.005683	NaN	0.000000	0.001507	0.001792	28.0821	0.027760	0.002007	13.8323	-85.9317	-169.765	0.064409	0.897035	-0.169496	-0.170788	0.005683	13.8323	-0.169804	-40.7585	-0.000139	NaN
602	1.000000	0.906361	7.37094e+06	-46989.1	1005.82	-29767.5	0.000000	0.000000	6.907102	0.048018	NaN	0.000000	0.001565	0.001728	28.0822	0.071786	0.001954	36.7319	114.689	-166.491	-0.026659	0.905057	-0.161461	-0.162765	0.048018	36.7319	-0.162442	-30.2861	-0.001585	NaN
602	1.000000	0.914360	7.37094e+06	-46989.1	1005.82	-29767.5	0.000000	0.000000	6.915099	0.024227	NaN	0.000000	0.001560	0.001795	28.0824	0.049289	0.002108	23.3869	-178.929	-164.703	0.042379	0.913040	-0.153463	-0.154783	0.024227	23.3869	-0.154239	-21.6212	-0.001121	NaN
602	1.000000	0.922363	7.37094e+06	-46989.1	1005.82	-29767.5	0.000000	0.000000	6.923099	-0.039003	NaN	0.000000	0.001573	0.001754	28.0824	0.074377	0.002010	37.0018	29.1134	-165.904	0.049262	0.921072	-0.145460	-0.146750	-0.039003	37.0018	-0.144669	-14.456	0.002698	NaN
602	1.000000	0.930366	7.37094e+06	-46989.1	1005.82	-29767.5	0.000000	0.000000	6.931107	0.054520	NaN	0.000000	0.001563	0.001732	28.0824	0.028738	0.002090	13.7505	-54.6621	-165.84	-0.027334	0.929069	-0.137456	-0.138754	0.054520	13.7505	-0.140430	-12.0514	-0.004524	NaN
602	1.000000	0.938383	7.37094e+06	-46989.1	1005.82	-29767.5	0.000000	0.000000	6.939121	-0.019469	NaN	0.000000	0.001559	0.001733	28.0821	0.119874	0.001983	60.4614	-59.0525	-164.719	-0.054846	0.937125	-0.129440	-0.130697	-0.019469	60.4614	-0.129198	-7.352116	0.002648	NaN
602	1.000000	0.946402	7.37094e+06	-46989.1	1005.82	-29767.5	0.000000	0.000000	6.947140	-0.006576	NaN	0.000000	0.001525	0.001744	28.0822	0.037200	0.002031	18.3142	-135.519	-162.975	-0.043974	0.945103	-0.121421	-0.122719	-0.006576	18.3142	-0.121151	-5.096452	0.001290	NaN
602	1.000000	0.954392	7.37094e+06	-46989.1	1005.82	-29767.5	0.000000	0.000000	6.955130	-0.005612	NaN	0.000000	0.001513	0.001748	28.0822	0.124282	0.001980	62.7713	50.8035	-167.098	-0.006805	0.953076	-0.113431	-0.114747	-0.005612	62.7713	-0.113364	-3.533897	0.001588	NaN
602	1.000000	0.962403	7.37094e+06	-46989.1	1005.82	-29767.5	0.000000	0.000000	6.963143	0.016996	NaN	0.000000	0.001546	0.001772	28.0822	0.056808	0.001994	28.4857	-87.448	-163.966	0.008150	0.961111	-0.105419	-0.106712	0.016996	28.4857	-0.105867	-2.453872	-0.006926	NaN
602	1.000000	0.970400	7.37094e+06	-46989.1	1005.82	-29767.5	0.000000	0.000000	6.971138	-0.030845	NaN	0.000000	0.001524	0.001788	28.0814	0.088818	0.001972	45.036	114.879	-167.351	-0.030566	0.969095	-0.097422	-0.098727	-0.030845	45.036	-0.096908	-1.558353	0.019793	NaN
602	1.000000	0.978377	7.37094e+06	-46989.1	1005.82	-29767.5	0.000000	0.000000	6.979114	-0.037613	NaN	0.000000	0.001527	0.001742	28.0811	0.081614	0.001994	40.9262	58.7481	-167.799	-0.062871	0.977084	-0.089445	-0.090738	-0.037613	40.9262	-0.088756	-1.010452	0.037224	NaN
602	1.000000	0.986385	7.37094e+06	-46989.1	1005.82	-29767.5	0.000000	0.000000	6.987125	0.025571	NaN	0.000000	0.001529	0.001754	28.0811	0.090213	0.002085	43.2619	31.3468	-167.394	0.043693	0.985122	-0.081437	-0.082701	0.025571	43.2619	-0.081881	-0.689321	-0.037097	NaN
602	1.000000	0.994398	7.37094e+06	-46989.1	1005.82	-29767.5	0.000000	0.000000	6.995137	0.028053	NaN	0.000000	0.001542	0.001786	28.0811	0.107314	0.001958	54.8195	-0.910127	-162.672	-0.019162	0.993089	-0.073425	-0.074733	0.028053	54.8195	-0.073809	-0.430099	-0.065224	NaN
602	1.000000	1.002414	7.37094e+06	-46989.1	1005.82	-29767.5	0.000000	0.000000	7.003152	-0.020545	NaN	0.000000	0.001519	0.001773	28.081	0.025825	0.001981	13.0361	-99.8834	-168.141	-0.004958	1.001079	-0.065408	-0.066743	-0.020545	13.0361	-0.064226	-0.237171	0.086624	NaN
602	1.000000	1.010433	7.37094e+06	-46989.1	1005.82	-29767.5	0.000000	0.000000	7.011171	-0.011126	NaN	0.000000	0.001559	0.001788	28.0811	0.070258	0.002057	34.1476	30.8567	-167.29	0.020702	1.009078	-0.057389	-0.058744	-0.011126	34.1476	-0.057145	-0.148889	0.074730	NaN
602	1.000000	1.018399	7.37094e+06	-46989.1	1005.82	-29767.5	0.000000	0.000000	7.019136	-0.016555	NaN	0.000000	0.001556	0.001795	28.081	0.080606	0.001865	43.2127	-15.3513	-169.666	-0.044737	1.017068	-0.049424	-0.050754	-0.016555	43.2127	-0.049136	-0.085917	0.192690	NaN
602	1.000000	1.026412	7.37094e+06	-46989.1	1005.82	-29767.5	0.000000	0.000000	7.027150	-0.011425	NaN	0.000000	0.001559	0.001766	28.0811	0.063402	0.002006	31.6124	-17.8159	-165.418	-0.024096	1.025126	-0.041411	-0.042697	-0.011425	31.6124	-0.041139	-0.048980	0.233252	NaN
602	1.000000	1.034396	7.37094e+06	-46989.1	1005.82	-29767.5	0.000000	0.000000	7.035134	-0.024537	NaN	0.000000	0.001500	0.001773	28.081	0.120463	0.001967	61.245	52.6231	-164.952	-0.056977	1.033118	-0.033426	-0.034705	-0.024537	61.245	-0.033126	-0.028234	0.869089	NaN
602	1.000000	1.042412	7.37094e+06	-46989.1	1005.82	-29767.5	0.000000	0.000000	7.043150	-0.001216	NaN	0.000000	0.001534	0.001788	28.081	0.117254	0.002075	56.5117	-130.968	-168.348	-0.001321	1.041098	-0.025411	-0.026725	-0.001216	56.5117	-0.025394	-0.017276	0.070406	NaN
602	1.000000	1.050433	7.37094e+06	-46989.1	1005.82	-29767.5	0.000000	0.000000	7.051172	0.019242	NaN	0.000000	0.001557	0.001781	28.0811	0.118307	0.002132	55.4815	-25.0123	-169.213	0.028050	1.049143	-0.017389	-0.018680	0.019242	55.4815	-0.017649	-0.010931	-1.760355	NaN
602	1.000000	1.058405	7.37094e+06	-46989.1	1005.82	-29767.5	0.000000	0.000000	7.059141	-0.060067	NaN	0.000000	0.001553	0.001769	28.0813	0.069296	0.001999	34.6583	135.905	-165.309	-0.087054	1.057158	-0.009418	-0.010664	-0.060067	34.6583	-0.008118	-0.005301	11.3321	NaN
602	1.000000	1.066428	7.37094e+06	-46989.1	1005.82	-29767.5	0.000000	0.000000	7.067179	0.297041	NaN	0.000000	0.001529	0.001773	28.0815	0.631828	0.001949	324.236	18.6851	-168.519	0.033013	1.065138	-0.001395	-0.002685	0.297041	324.236	-0.002082	-0.001496	-198.576	NaN
602	1.000000	1.074272	7.37094e+06	-46989.1	1005.82	-29767.5	0.000000	0.000000	7.075336	7.921325	NaN	0.000000	0.001540	0.001768	28.0811	7.685409	0.001674	4590.56	10.4292	-172.423	6.120702	1.073085	0.006449	0.005263	7.921325	4590.56	0.005155	0.004275	1852.76	64143
602	2.000000	1.077052	7.37094e+06	-46989.1	1005.82	-29767.5	0.000000	0.000000	7.078233	10.7725	NaN	0.000000	0.001594	0.001749	28.0813	10.6753	0.001802	5925.24	6.180944	-171.899	10.6628	1.076699	0.009229	0.008876	10.7725	5925.24	0.007866	0.006905	1560.17	65148.8
602	2.000000	1.078991	7.37094e+06	-46989.1	1005.82	-29767.5	0.000000	0.000000	7.080309	14.0913	NaN	0.000000	0.001587	0.001790	28.0811	12.0513	0.001591	7574.71	8.779278	-175.714	14.1064	1.078646	0.011168	0.010824	14.0913	7574.71	0.009773	0.008931	1577.87	73231.7
602	2.000000	1.080970	7.37094e+06	-46989.1	1005.82	-29767.5	0.000000	0.000000	7.082344	15.4449	NaN	0.000000	0.001615	0.001791	28.0812	14.2103	0.001649	8617.36	4.458780	-174.142	14.5792	1.080622	0.013148	0.012800	15.4449	8617.36	0.011803	0.011255	1372.21	74210.6
602	2.000000	1.083008	7.37094e+06	-46989.1	1005.82	-29767.5	0.000000	0.000000	7.084560	19.7808	NaN	0.000000	0.001578	0.001764	28.0826	16.232	0.001709	9499.11	3.430952	-172.437	19.4038	1.082666	0.015186	0.014844	19.7808	9499.11	0.013624	0.013494	1465.9	74711.2
602	2.000000	1.084930	7.37094e+06	-46989.1	1005.82	-29767.5	0.000000	0.000000	7.086631	23.4259	NaN	0.000000	0.001566	0.001775	28.0823	18.6917	0.001720	10869.5	9.284755	178.368	22.4223	1.084678	0.017107	0.016856	23.4259	10869.5	0.015491	0.015946	1469.1	78642.6
602	2.000000	1.086916	7.37094e+06	-46989.1	1005.82	-29767.5	0.000000	0.000000	7.088731	26.1853	NaN	0.000000	0.001569	0.001791	28.0827	20.3159	0.001830	11099.4	4.360231	-176.063	25.0002	1.086670	0.019093	0.018847	26.1853	11099.4	0.017324	0.018510	1414.62	74535.5
602	2.000000	1.088968	7.37094e+06	-46989.1	1005.82	-29767.5	0.000000	0.000000	7.091004	31.56	NaN	0.000000	0.001551	0.001781	28.0828	21.9099	0.001782	12298.4	6.243045	-179.016	31.2506	1.088645	0.021146	0.020822	31.56	12298.4	0.019221	0.021333	1479.4	76930.3
602	2.000000	1.090907	7.37094e+06	-46989.1	1005.82	-29767.5	0.000000	0.000000	7.093118	35.8044	NaN	0.000000	0.001591	0.001784	28.0825	24.7154	0.001898	13019.9	6.443406	-179.761	34.9756	1.090653	0.023085	0.022831	35.8044	13019.9	0.021023	0.024175	1481.07	76507.1
602	2.000000	1.092910	7.37094e+06	-46989.1	1005.82	-29767.5	0.000000	0.000000	7.095327	40.8402	NaN	0.000000	0.001589	0.001787	28.0826	26.157	0.001799	14543	3.662763	-178.051	38.9207	1.092637	0.025087	0.024814	40.8402	14543	0.022981	0.027445	1488.07	80203.8
602	2.000000	1.094919	7.37094e+06	-46989.1	1005.82	-29767.5	0.000000	0.000000	7.097609	47.4582	NaN	0.000000	0.001606	0.001778	28.0823	27.9977	0.001767	15842.6	9.378878	177.225	46.9729	1.094591	0.027097	0.026769	47.4582	15842.6	0.024850	0.030744	1543.67	82551
602	2.000000	1.096924	7.37094e+06	-46989.1	1005.82	-29767.5	0.000000	0.000000	7.099846	53.0987	NaN	0.000000	0.001562	0.001760	28.0825	29.8112	0.001755	16982.6	3.514399	-179.117	51.8854	1.096608	0.029102	0.028785	53.0987	16982.6	0.026757	0.034289	1548.54	83791
602	2.000000	1.098882	7.37094e+06	-46989.1	1005.82	-29767.5	0.000000	0.000000	7.102036	58.7543	NaN	0.000000	0.001595	0.001771	28.0831	31.5135	0.001789	17611.5	6.129996	178.708	56.5342	1.098590	0.031059	0.030768	58.7543	17611.5	0.028557	0.037806	1554.09	82753.6
602	2.000000	1.100908	7.37094e+06	-46989.1	1005.82	-29767.5	0.000000	0.000000	7.104440	67.9454	NaN	0.000000	0.001599	0.001774	28.0823	33.2362	0.001611	20627	2.674698	-179.758	67.4637	1.100527	0.033086	0.032705	67.9454	20627	0.030615	0.042029	1616.64	91925.3
602	2.000000	1.102959	7.37094e+06	-46989.1	1005.82	-29767.5	0.000000	0.000000	7.106772	74.7645	NaN	0.000000	0.001607	0.001752	28.0823	36.1992	0.001823	19857.8	4.504087	-179.859	74.7339	1.102638	0.035137	0.034815	74.7645	19857.8	0.032313	0.045675	1636.88	84891.8
602	2.000000	1.104885	7.37094e+06	-46989.1	1005.82	-29767.5	0.000000	0.000000	7.109022	82.6848	NaN	0.000000	0.001609	0.001738	28.0823	37.9364	0.001762	21535	3.365904	179.322	81.3819	1.104610	0.037062	0.036787	82.6848	21535	0.034183	0.049860	1658.35	88113.8
602	2.000000	1.106904	7.37094e+06	-46989.1	1005.82	-29767.5	0.000000	0.000000	7.111160	85.5723	NaN	0.000000	0.001613	0.001760	28.0825	40.521	0.001768	22917.9	2.569060	179.313	85.8322	1.106632	0.039081	0.038810	85.5723	22917.9	0.036281	0.054770	1562.39	89470
602	2.000000	1.108965	7.37094e+06	-46989.1	1005.82	-29767.5	0.000000	0.000000	7.113505	92.4646	NaN	0.000000	0.001514	0.001720	28.0831	41.9029	0.001748	23977.9	4.491363	177.189	93.1682	1.108563	0.041142	0.040741	92.4646	23977.9	0.038250	0.059584	1551.83	89746.7
602	2.000000	1.110899	7.37094e+06	-46989.1	1005.82	-29767.5	0.000000	0.000000	7.115955	105.025	NaN	0.000000	0.001552	0.001762	28.0823	43.8683	0.001832	23948.2	1.452946	-179.572	104.708	1.110510	0.043076	0.042688	105.025	23948.2	0.039787	0.063479	1654.49	86842.4
602	2.000000	1.112875	7.37094e+06	-46989.1	1005.82	-29767.5	0.000000	0.000000	7.118220	112.068	NaN	0.000000	0.001529	0.001734	28.082	46.4551	0.001856	25029.1	7.210644	174.049	110.275	1.112601	0.045052	0.044779	112.068	25029.1	0.041694	0.068479	1636.52	87385.1
602	2.000000	1.114846	7.37094e+06	-46989.1	1005.82	-29767.5	0.000000	0.000000	7.120518	120.016	NaN	0.000000	0.001530	0.001739	28.0823	47.6533	0.001780	26777.2	6.021031	174.776	117.008	1.114478	0.047023	0.046655	120.016	26777.2	0.043662	0.073833	1625.49	90035
602	2.000000	1.116847	7.37094e+06	-46989.1	1005.82	-29767.5	0.000000	0.000000	7.122772	126.168	NaN	0.000000	0.001520	0.001759	28.0811	50.0581	0.001870	26767.5	5.782537	174.816	123.798	1.116601	0.049024	0.048779	126.168	26767.5	0.045489	0.078982	1597.42	87019.2
602	2.000000	1.118838	7.37094e+06	-46989.1	1005.82	-29767.5	0.000000	0.000000	7.125251	138.027	NaN	0.000000	0.001541	0.001765	28.0815	51.1214	0.001839	27802.4	6.584797	173.931	136.949	1.118566	0.051015	0.050743	138.027	27802.4	0.047292	0.084226	1638.77	87524.9
602	2.000000	1.120943	7.37094e+06	-46989.1	1005.82	-29767.5	0.000000	0.000000	7.127698	146.341	NaN	0.000000	0.001542	0.001731	28.0811	53.6639	0.001792	29940	4.022695	175.497	148.366	1.120645	0.053121	0.052822	146.341	29940	0.049455	0.090735	1612.83	90810.6
602	2.000000	1.122902	7.37094e+06	-46989.1	1005.82	-29767.5	0.000000	0.000000	7.130082	156.67	NaN	0.000000	0.001482	0.001725	28.081	55.3813	0.001754	31575.7	3.079366	176.44	155.953	1.122596	0.055080	0.054774	156.67	31575.7	0.051359	0.096659	1620.86	92791
602	2.000000	1.124809	7.37094e+06	-46989.1	1005.82	-29767.5	0.000000	0.000000	7.132760	175.422	NaN	0.000000	0.001524	0.001770	28.0809	56.6098	0.001831	30917.9	2.769574	176.816	172.584	1.124493	0.056987	0.056670	175.422	30917.9	0.052731	0.101043	1736.12	88864.9
602	2.000000	1.126849	7.37094e+06	-46989.1	1005.82	-29767.5	0.000000	0.000000	7.135094	182.585	NaN	0.000000	0.001555	0.001764	28.081	60.013	0.001898	31627.2	5.036336	175.111	180.742	1.126531	0.059027	0.058709	182.585	31627.2	0.054697	0.107483	1698.73	88138
602	2.000000	1.128834	7.37094e+06	-46989.1	1005.82	-29767.5	0.000000	0.000000	7.137651	196.51	NaN	0.000000	0.001498	0.001775	28.0811	60.5818	0.001744	34732.5	5.023581	173.046	192.997	1.128463	0.061011	0.060641	196.51	34732.5	0.056768	0.114475	1716.62	93789.4
602	2.000000	1.130870	7.37094e+06	-46989.1	1005.82	-29767.5	0.000000	0.000000	7.139767	198.456	NaN	0.000000	0.001549	0.001723	28.0811	63.8553	0.001828	34928.9	8.752352	169.433	199.629	1.130518	0.063048	0.062695	198.456	34928.9	0.058786	0.121493	1633.48	91555.2
602	2.000000	1.132903	7.37094e+06	-46989.1	1005.82	-29767.5	0.000000	0.000000	7.142380	212.539	NaN	0.000000	0.001525	0.001765	28.0812	65.431	0.001773	36906.4	6.398261	171.674	211.047	1.132566	0.065081	0.064744	212.539	36906.4	0.060762	0.128554	1653.3	94044.2
602	2.000000	1.134836	7.37094e+06	-46989.1	1005.82	-29767.5	0.000000	0.000000	7.144593	219.374	NaN	0.000000	0.001536	0.001772	28.0808	65.9333	0.001837	35892.8	2.580022	175.033	216.664	1.134653	0.067013	0.066830	219.374	35892.8	0.062429	0.134663	1629.05	89362.7
602	2.000000	1.136825	7.37094e+06	-46989.1	1005.82	-29767.5	0.000000	0.000000	7.147235	235.252	NaN	0.000000	0.001540	0.001759	28.081	68.6107	0.001789	38351.3	4.344541	173.175	233.267	1.136605	0.069002	0.068783	235.252	38351.3	0.064402	0.142063	1655.97	92963.6
602	2.000000	1.138828	7.37094e+06	-46989.1	1005.82	-29767.5	0.000000	0.000000	7.149535	242.498	NaN	0.000000	0.001519	0.001753	28.081	68.8129	0.001719	40028.5	3.484959	173.524	240.11	1.138591	0.071005	0.070768	242.498	40028.5	0.066461	0.149992	1616.74	94429.6
602	2.000000	1.140829	7.37095e+06	-46989.1	1005.82	-29767.5	0.000000	0.000000	7.152507	266.088	NaN	0.000000	0.001529	0.001718	28.0811	71.8229	0.001804	39804.9	8.411395	169.289	264.519	1.140456	0.073007	0.072633	266.088	39804.9	0.067993	0.156020	1705.48	92070.5
602	2.000000	1.143040	7.37095e+06	-46989.1	1005.82	-29767.5	0.000000	0.000000	7.154856	269.448	NaN	0.000000	0.001531	0.001731	28.0812	73.5171	0.001739	42279.4	4.382583	172.965	276.271	1.142640	0.075218	0.074818	269.448	42279.4	0.070438	0.165874	1624.42	94844.7
602	2.000000	1.144825	7.37095e+06	-46989.1	1005.82	-29767.5	0.000000	0.000000	7.157671	294.513	NaN	0.000000	0.001534	0.001755	28.0812	73.4631	0.001681	43703.3	4.414736	172.855	291.723	1.144469	0.077002	0.076646	294.513	43703.3	0.071948	0.172103	1711.26	96248.4
602	2.000000	1.146795	7.37095e+06	-46989.1	1005.82	-29767.5	0.000000	0.000000	7.159998	303.2	NaN	0.000000	0.001509	0.001734	28.081	77.4082	0.001843	42005.9	6.917476	169.917	300.303	1.146500	0.078972	0.078678	303.2	42005.9	0.073559	0.178865	1695.13	90744.6
602	2.000000	1.148791	7.37095e+06	-46989.1	1005.82	-29767.5	0.000000	0.000000	7.162229	308.889	NaN	0.000000	0.001517	0.001729	28.081	77.545	0.001848	41965.8	3.244676	173.336	304.741	1.148534	0.080969	0.080712	308.889	41965.8	0.075449	0.186956	1652.2	88674.6
602	2.000000	1.150799	7.37095e+06	-46989.1	1005.82	-29767.5	0.000000	0.000000	7.165079	329.378	NaN	0.000000	0.001485	0.001746	28.0821	80.3495	0.001745	46049	7.725837	168.013	324.793	1.150430	0.082977	0.082607	329.378	46049	0.077612	0.196424	1676.87	94928.2
602	2.000000	1.152815	7.37095e+06	-46989.1	1005.82	-29767.5	0.000000	0.000000	7.167759	345.543	NaN	0.000000	0.001538	0.001732	28.0825	82.0069	0.001713	47866.5	5.101287	171.497	343.066	1.152492	0.084992	0.084670	345.543	47866.5	0.079578	0.205218	1683.79	96537.8
602	2.000000	1.154852	7.37095e+06	-46989.1	1005.82	-29767.5	0.000000	0.000000	7.170423	360.784	NaN	0.000000	0.001549	0.001728	28.0826	83.9421	0.001780	47164.6	1.950521	174.573	360.972	1.154532	0.087030	0.086710	360.784	47164.6	0.081293	0.213035	1693.54	93360.7
602	2.000000	1.156877	7.37095e+06	-46989.1	1005.82	-29767.5	0.000000	0.000000	7.173043	375.256	NaN	0.000000	0.001547	0.001695	28.0822	87.2835	0.001854	47066.3	3.929640	172.618	376.185	1.156629	0.089054	0.088807	375.256	47066.3	0.083075	0.221303	1695.67	91409.2
602	2.000000	1.158893	7.37095e+06	-46989.1	1005.82	-29767.5	0.000000	0.000000	7.175706	390.997	NaN	0.000000	0.001518	0.001737	28.0824	87.8543	0.001767	49721.2	4.912636	171.623	392.424	1.158484	0.091070	0.090662	390.997	49721.2	0.085172	0.231225	1690.98	94470.8
602	2.000000	1.160777	7.37095e+06	-46989.1	1005.82	-29767.5	0.000000	0.000000	7.178353	409.564	NaN	0.000000	0.001548	0.001801	28.0822	90.6389	0.001826	49632.9	2.862490	173.368	405.705	1.160497	0.092954	0.092675	409.564	49632.9	0.086765	0.238895	1714.41	92776.7
602	2.000000	1.162841	7.37095e+06	-46989.1	1005.82	-29767.5	0.000000	0.000000	7.181043	424.787	NaN	0.000000	0.001528	0.001761	28.0828	93.9727	0.001870	50240.7	8.545547	168.07	422.861	1.162442	0.095018	0.094620	424.787	50240.7	0.088677	0.248253	1711.1	92125.7
602	2.000000	1.164706	7.37095e+06	-46989.1	1005.82	-29767.5	0.000000	0.000000	7.183409	436.984	NaN	0.000000	0.001529	0.001759	28.0823	93.8447	0.001751	53587	3.068646	172.396	429.321	1.164397	0.096883	0.096574	436.984	53587	0.090767	0.258680	1689.28	96261.2
602	2.000000	1.166810	7.37095e+06	-46989.1	1005.82	-29767.5	0.000000	0.000000	7.186315	456.49	NaN	0.000000	0.001515	0.001760	28.0824	96.8811	0.001798	53889.4	0.014770	175.247	454.616	1.166544	0.098987	0.098721	456.49	53889.4	0.092634	0.268161	1702.3	95077.7
602	2.000000	1.168703	7.37095e+06	-46989.1	1005.82	-29767.5	0.000000	0.000000	7.189197	480.532	NaN	0.000000	0.001488	0.001773	28.0826	97.9162	0.001791	54659.5	2.847975	172.665	474.336	1.168411	0.100880	0.100589	480.532	54659.5	0.094287	0.276686	1736.74	94939.1
602	2.000000	1.170754	7.37095e+06	-46989.1	1005.82	-29767.5	0.000000	0.000000	7.191729	492.24	NaN	0.000000	0.001513	0.001769	28.0821	100.35	0.001735	57855.3	4.739853	170.361	487.11	1.170352	0.102931	0.102530	492.24	57855.3	0.096550	0.288566	1705.82	98399.7
602	2.000000	1.172818	7.37095e+06	-46989.1	1005.82	-29767.5	0.000000	0.000000	7.194793	516.563	NaN	0.000000	0.001527	0.001767	28.0821	102.614	0.001727	59431.1	3.375508	172.574	513.803	1.172488	0.104995	0.104665	516.563	59431.1	0.098476	0.298857	1728.46	99324.1
602	2.000000	1.173792	7.37095e+06	-46989.1	1005.82	-29767.5	0.000000	0.000000	7.195819	517.83	NaN	0.000000	0.001541	0.001777	28.0823	103.988	0.001831	56798.3	3.294185	171.585	515.137	1.173562	0.105970	0.105739	517.83	56798.3	0.099132	0.302398	1712.41	94366.8