File: remote_trans/data/nanoindenter/0828-1/data/Data_2025-08-06,11h17m57s/2025-07-22_16-23-58_1_199.txt
2025-07-22, 16:23:58, 1
Index	Phase	Displacement	Time	Pos X	Pos Y	Pos Z	Rot A	Rot B	Piezo Z	Force A	Force B	Gripper	Voltage A	Voltage B	Temperature	Amplitude force	Amplitude pos	Stiffness	Phase shift	Phase excitation	Force A raw	Displacement raw	HMax	HMax raw	Real Force	Real Stiffness	Contact Depth	Area	Hardness	Reduced Mod.
[#]	[#]	[um]	[s]	[um]	[um]	[um]	[m°]	[m°]	[um]	[uN]	[uN]	[V]	[V]	[V]	[°C]	[uN]	[um]	[N/m]	[°]	[°]	[uN]	[um]	[um]	[um]	[uN]	[N/m]	[um]	[um^2]	[MPa]	[MPa]
199	1.000000	0.002619	7.36699e+06	-48589.1	955.819	-29762.3	0.000000	0.000000	6.002810	-0.025833	NaN	0.000000	0.001544	0.001764	28.0783	0.045883	0.000990	46.3442	114.36	-167.806	-0.012719	0.001379	-1.121065	-1.122304	-0.025833	46.3442	-1.120647	-9.487468E+14	2.722823E-17	NaN
199	1.000000	0.012678	7.36699e+06	-48589.1	955.818	-29762.3	0.000000	0.000000	6.012871	0.039379	NaN	0.000000	0.001490	0.001762	28.078	0.032199	0.001285	25.0541	-120.53	13.24	0.104696	0.011272	-1.111006	-1.112412	0.039379	25.0541	-1.112185	-7.304768E+14	-5.390871E-17	NaN
199	1.000000	0.022572	7.36699e+06	-48589.1	955.819	-29762.3	0.000000	0.000000	6.022767	0.053379	NaN	0.000000	0.001557	0.001774	28.0781	0.062607	0.001698	36.8717	59.9621	-164.839	0.069978	0.021252	-1.101111	-1.102432	0.053379	36.8717	-1.102197	-5.364897E+14	-9.949746E-17	NaN
199	1.000000	0.032552	7.36699e+06	-48589.1	955.817	-29762.3	0.000000	0.000000	6.032744	-0.002952	NaN	0.000000	0.001572	0.001727	28.0782	0.071228	0.001985	35.8777	173.785	15.9162	0.040026	0.031154	-1.091131	-1.092529	-0.002952	35.8777	-1.091070	-3.803430E+14	7.761800E-18	NaN
199	1.000000	0.042571	7.36699e+06	-48589.1	955.819	-29762.3	0.000000	0.000000	6.042762	-0.034429	NaN	0.000000	0.001587	0.001713	28.0792	0.080067	0.002089	38.3263	-36.8035	-168.465	-0.020316	0.041298	-1.081113	-1.082386	-0.034429	38.3263	-1.080439	-2.737877E+14	1.257506E-16	NaN
199	1.000000	0.052562	7.36699e+06	-48589.1	955.819	-29762.3	0.000000	0.000000	6.052757	0.077084	NaN	0.000000	0.001590	0.001759	28.0794	0.102788	0.001949	52.7484	69.7757	12.6024	0.101349	0.051169	-1.071122	-1.072515	0.077084	52.7484	-1.072218	-2.123173E+14	-3.630585E-16	NaN
199	1.000000	0.062584	7.36699e+06	-48589.1	955.819	-29762.3	0.000000	0.000000	6.062779	0.075803	NaN	0.000000	0.001557	0.001739	28.0794	0.018686	0.002007	9.309974	23.1733	-165.023	0.058785	0.061220	-1.061100	-1.062464	0.075803	9.309974	-1.067206	-1.818256E+14	-4.168980E-16	NaN
199	1.000000	0.072590	7.36699e+06	-48589.1	955.819	-29762.3	0.000000	0.000000	6.072781	-0.008704	NaN	0.000000	0.001569	0.001737	28.0796	0.080430	0.002001	40.1992	-53.4	14.127	-0.008818	0.071185	-1.051094	-1.052499	-0.008704	40.1992	-1.050932	-1.098853E+14	7.920980E-17	NaN
199	1.000000	0.082557	7.36699e+06	-48589.1	955.818	-29762.3	0.000000	0.000000	6.082751	0.028845	NaN	0.000000	0.001611	0.001727	28.0792	0.128068	0.001958	65.4081	119.887	-163.962	0.082053	0.081272	-1.041126	-1.042412	0.028845	65.4081	-1.041457	-8.195203E+13	-3.519704E-16	NaN
199	1.000000	0.092601	7.36699e+06	-48589.1	955.819	-29762.3	0.000000	0.000000	6.092795	0.046343	NaN	0.000000	0.001600	0.001712	28.0795	0.060922	0.001949	31.2636	49.2227	13.0541	0.000627	0.091200	-1.031083	-1.032484	0.046343	31.2636	-1.032194	-6.151727E+13	-7.533274E-16	NaN
199	1.000000	0.102561	7.36699e+06	-48589.1	955.818	-29762.3	0.000000	0.000000	6.102752	-0.020238	NaN	0.000000	0.001629	0.001715	28.0793	0.056655	0.001906	29.7247	-30.6922	-168.075	-0.014958	0.101255	-1.021123	-1.022429	-0.020238	29.7247	-1.020612	-4.297214E+13	4.709480E-16	NaN
199	1.000000	0.112576	7.36699e+06	-48589.1	955.819	-29762.3	0.000000	0.000000	6.112772	0.092544	NaN	0.000000	0.001617	0.001767	28.0798	0.090801	0.001958	46.3746	-89.153	13.2283	0.014512	0.111273	-1.011107	-1.012411	0.092544	46.3746	-1.012604	-3.352958E+13	-2.760078E-15	NaN
199	1.000000	0.122608	7.36699e+06	-48589.1	955.818	-29762.3	0.000000	0.000000	6.122803	0.071859	NaN	0.000000	0.001559	0.001809	28.0793	0.059242	0.002015	29.4028	63.2574	-165.201	0.068518	0.121333	-1.001076	-1.002351	0.071859	29.4028	-1.002909	-2.482741E+13	-2.894322E-15	NaN
199	1.000000	0.132595	7.36699e+06	-48589.1	955.818	-29762.3	0.000000	0.000000	6.132790	0.059856	NaN	0.000000	0.001614	0.001746	28.0797	0.065641	0.002110	31.113	-129.333	15.7771	0.079133	0.131231	-0.991089	-0.992453	0.059856	31.113	-0.992532	-1.799722E+13	-3.325852E-15	NaN
199	1.000000	0.142582	7.36699e+06	-48589.1	955.818	-29762.3	0.000000	0.000000	6.142774	0.004582	NaN	0.000000	0.001582	0.001740	28.0794	0.066272	0.002095	31.6303	47.5432	-167.059	0.056251	0.141301	-0.981102	-0.982383	0.004582	31.6303	-0.981210	-1.266828E+13	-3.616695E-16	NaN
199	1.000000	0.152628	7.36699e+06	-48589.1	955.819	-29762.3	0.000000	0.000000	6.152821	0.021610	NaN	0.000000	0.001651	0.001694	28.0796	0.114131	0.001865	61.1899	-75.5319	17.1125	-0.054440	0.151223	-0.971056	-0.972461	0.021610	61.1899	-0.971320	-9.320922E+12	-2.318416E-15	NaN
199	1.000000	0.162579	7.36699e+06	-48589.1	955.819	-29762.3	0.000000	0.000000	6.162773	0.054725	NaN	0.000000	0.001685	0.001752	28.0793	0.054650	0.002157	25.3376	-8.404506	-164.151	0.003153	0.161360	-0.961105	-0.962323	0.054725	25.3376	-0.962724	-7.138352E+12	-7.666312E-15	NaN
199	1.000000	0.172620	7.36699e+06	-48589.1	955.818	-29762.3	0.000000	0.000000	6.172817	0.119961	NaN	0.000000	0.001648	0.001700	28.0788	0.123723	0.002098	58.9587	71.0532	14.7326	0.093827	0.171236	-0.951064	-0.952448	0.119961	58.9587	-0.952590	-5.211349E+12	-2.301919E-14	NaN
199	1.000000	0.182634	7.36699e+06	-48589.1	955.818	-29762.3	0.000000	0.000000	6.182830	0.099295	NaN	0.000000	0.001666	0.001722	28.0783	0.050230	0.002043	24.5806	-5.719884	-164.648	0.102670	0.181322	-0.941050	-0.942361	0.099295	24.5806	-0.944080	-4.001040E+12	-2.481738E-14	NaN
199	1.000000	0.192593	7.36699e+06	-48589.1	955.818	-29762.3	0.000000	0.000000	6.192787	0.056644	NaN	0.000000	0.001691	0.001725	28.0784	0.068724	0.001965	34.9701	66.8438	12.5093	0.045131	0.191244	-0.931091	-0.932440	0.056644	34.9701	-0.932306	-2.775329E+12	-2.040994E-14	NaN
199	1.000000	0.202661	7.36699e+06	-48589.1	955.818	-29762.3	0.000000	0.000000	6.202856	0.066837	NaN	0.000000	0.001687	0.001679	28.0781	0.118748	0.002080	57.0877	-26.5831	-167.749	0.094495	0.201300	-0.921022	-0.922383	0.066837	57.0877	-0.921900	-2.008460E+12	-3.327781E-14	NaN
199	1.000000	0.212619	7.36699e+06	-48589.1	955.818	-29762.3	0.000000	0.000000	6.212812	0.013610	NaN	0.000000	0.001685	0.001794	28.0781	0.044931	0.002007	22.3906	-140.739	16.0749	0.065985	0.211240	-0.911064	-0.912444	0.013610	22.3906	-0.911520	-1.454446E+12	-9.357183E-15	NaN
199	1.000000	0.222635	7.36699e+06	-48589.1	955.819	-29762.3	0.000000	0.000000	6.222829	0.037607	NaN	0.000000	0.001673	0.001732	28.0784	0.070943	0.002066	34.3385	-39.3051	-166.533	0.035752	0.221309	-0.901049	-0.902374	0.037607	34.3385	-0.901870	-1.077290E+12	-3.490845E-14	NaN
199	1.000000	0.232626	7.36699e+06	-48589.1	955.818	-29762.3	0.000000	0.000000	6.232822	0.078729	NaN	0.000000	0.001648	0.001729	28.0784	0.140257	0.002136	65.6696	67.2098	14.9201	0.096563	0.231265	-0.891057	-0.892419	0.078729	65.6696	-0.891956	-7.913372E+11	-9.948843E-14	NaN
199	1.000000	0.242624	7.36699e+06	-48589.1	955.819	-29762.3	0.000000	0.000000	6.242818	0.054164	NaN	0.000000	0.001673	0.001757	28.0782	0.048967	0.001853	26.4306	-8.583373	-163.992	0.082441	0.241288	-0.881060	-0.882396	0.054164	26.4306	-0.882597	-5.913202E+11	-9.159788E-14	NaN
199	1.000000	0.252659	7.36699e+06	-48589.1	955.818	-29762.3	0.000000	0.000000	6.252852	0.032358	NaN	0.000000	0.001682	0.001755	28.0784	0.077856	0.002041	38.154	-29.8726	15.1607	0.051688	0.251309	-0.871025	-0.872375	0.032358	38.154	-0.871661	-4.206397E+11	-7.692513E-14	NaN
199	1.000000	0.262644	7.36699e+06	-48589.1	955.818	-29762.3	0.000000	0.000000	6.262837	0.008966	NaN	0.000000	0.001660	0.001721	28.0784	0.129478	0.001912	67.7185	34.449	-167.287	-0.017391	0.261353	-0.861039	-0.862331	0.008966	67.7185	-0.861139	-3.030630E+11	-2.958556E-14	NaN
199	1.000000	0.272687	7.36699e+06	-48589.1	955.818	-29762.3	0.000000	0.000000	6.272882	0.069031	NaN	0.000000	0.001614	0.001765	28.0784	0.026402	0.002057	12.8374	15.4073	14.2015	0.083079	0.271326	-0.850996	-0.852358	0.069031	12.8374	-0.855029	-2.505150E+11	-2.755571E-13	NaN
199	1.000000	0.282646	7.36699e+06	-48589.1	955.819	-29762.3	0.000000	0.000000	6.282841	0.092516	NaN	0.000000	0.001586	0.001718	28.0784	0.078357	0.001925	40.711	102.264	-163.946	0.058251	0.281312	-0.841038	-0.842372	0.092516	40.711	-0.842743	-1.707833E+11	-5.417182E-13	NaN
199	1.000000	0.292643	7.36699e+06	-48589.1	955.817	-29762.3	0.000000	0.000000	6.292836	0.025374	NaN	0.000000	0.001572	0.001787	28.0786	0.053273	0.001875	28.4137	-168.008	17.3311	-0.039457	0.291329	-0.831040	-0.832355	0.025374	28.4137	-0.831710	-1.210497E+11	-2.096136E-13	NaN
199	1.000000	0.302688	7.36699e+06	-48589.1	955.819	-29762.3	0.000000	0.000000	6.302878	-0.047743	NaN	0.000000	0.001617	0.001768	28.0782	0.140608	0.001915	73.4255	-70.9236	-167.844	-0.067152	0.301363	-0.820996	-0.822321	-0.047743	73.4255	-0.820508	-8.533055E+10	5.595014E-13	NaN
199	1.000000	0.312654	7.36699e+06	-48589.1	955.819	-29762.3	0.000000	0.000000	6.312850	0.099603	NaN	0.000000	0.001624	0.001709	28.0795	0.039492	0.002089	18.9057	85.9654	14.3843	0.162555	0.311317	-0.811029	-0.812367	0.099603	18.9057	-0.814981	-7.180238E+10	-1.387180E-12	NaN
199	1.000000	0.322700	7.36699e+06	-48589.1	955.818	-29762.3	0.000000	0.000000	6.322893	0.011350	NaN	0.000000	0.001597	0.001754	28.0794	0.047929	0.001942	24.6802	-5.193378	-169.085	0.005391	0.321355	-0.800984	-0.802328	0.011350	24.6802	-0.801329	-4.687011E+10	-2.421652E-13	NaN
199	1.000000	0.332670	7.36699e+06	-48589.1	955.819	-29762.3	0.000000	0.000000	6.332868	0.134691	NaN	0.000000	0.001630	0.001732	28.0797	0.093286	0.001981	47.0963	-97.4228	18.0705	0.129521	0.331278	-0.791013	-0.792406	0.134691	47.0963	-0.793158	-3.630577E+10	-3.709911E-12	NaN
199	1.000000	0.342673	7.36699e+06	-48589.1	955.818	-29762.3	0.000000	0.000000	6.342866	0.022381	NaN	0.000000	0.001651	0.001742	28.0794	0.079294	0.002111	37.5583	96.531	-165.74	0.021728	0.341362	-0.781011	-0.782321	0.022381	37.5583	-0.781458	-2.517891E+10	-8.888728E-13	NaN
199	1.000000	0.352693	7.36699e+06	-48589.1	955.818	-29762.3	0.000000	0.000000	6.352886	0.005576	NaN	0.000000	0.001645	0.001763	28.0797	0.099813	0.002072	48.1779	-74.8628	13.9396	-0.012000	0.351339	-0.770990	-0.772344	0.005576	48.1779	-0.771077	-1.819495E+10	-3.064370E-13	NaN
199	1.000000	0.362684	7.36699e+06	-48589.1	955.818	-29762.3	0.000000	0.000000	6.362878	0.030293	NaN	0.000000	0.001663	0.001750	28.0795	0.058565	0.001966	29.7895	139.432	-168.065	0.037777	0.361358	-0.760999	-0.762325	0.030293	29.7895	-0.761762	-1.359167E+10	-2.228797E-12	NaN
199	1.000000	0.372687	7.36699e+06	-48589.1	955.819	-29762.3	0.000000	0.000000	6.372880	0.032029	NaN	0.000000	0.001643	0.001760	28.0799	0.025632	0.002009	12.7598	-7.049558	14.7174	0.119198	0.371339	-0.750997	-0.752345	0.032029	12.7598	-0.752880	-1.029005E+10	-3.112660E-12	NaN
199	1.000000	0.382698	7.36699e+06	-48589.1	955.818	-29762.3	0.000000	0.000000	6.382894	0.102457	NaN	0.000000	0.001636	0.001794	28.0797	0.069400	0.001904	36.4488	-167.143	-163.702	0.087457	0.381361	-0.740985	-0.742323	0.102457	36.4488	-0.743094	-7.571648E+9	-1.353171E-11	NaN
199	1.000000	0.392700	7.36699e+06	-48589.1	955.818	-29762.3	0.000000	0.000000	6.392897	0.120258	NaN	0.000000	0.001636	0.001741	28.0795	0.071237	0.001806	39.4545	-160.281	13.4385	0.080121	0.391298	-0.730983	-0.732386	0.120258	39.4545	-0.733269	-5.563665E+9	-2.161483E-11	NaN
199	1.000000	0.402714	7.36699e+06	-48589.1	955.818	-29762.3	0.000000	0.000000	6.402906	-0.000426	NaN	0.000000	0.001668	0.001704	28.0797	0.036522	0.002025	18.033	-60.507	-166.873	0.018996	0.401398	-0.720970	-0.722286	-0.000426	18.033	-0.720952	-3.779695E+9	1.128077E-13	NaN
199	1.000000	0.412701	7.36699e+06	-48589.1	955.818	-29762.3	0.000000	0.000000	6.412895	0.052325	NaN	0.000000	0.001681	0.001747	28.0796	0.020801	0.001971	10.5533	61.6872	16.3159	-0.009327	0.411355	-0.710982	-0.712329	0.052325	10.5533	-0.714701	-3.105951E+9	-1.684682E-11	NaN
199	1.000000	0.422734	7.36699e+06	-48589.1	955.819	-29762.3	0.000000	0.000000	6.422930	0.101556	NaN	0.000000	0.001618	0.001697	28.0797	0.071771	0.001956	36.6995	-15.0041	-163.753	0.151355	0.421383	-0.700949	-0.702301	0.101556	36.6995	-0.703025	-2.151970E+9	-4.719232E-11	NaN
199	1.000000	0.432743	7.36699e+06	-48589.1	955.818	-29762.3	0.000000	0.000000	6.432936	0.017015	NaN	0.000000	0.001620	0.001724	28.0796	0.062932	0.001953	32.2232	-72.3309	14.7009	0.008383	0.431341	-0.690940	-0.692343	0.017015	32.2232	-0.691336	-1.489985E+9	-1.141978E-11	NaN
199	1.000000	0.442725	7.36699e+06	-48589.1	955.819	-29762.3	0.000000	0.000000	6.442920	0.079741	NaN	0.000000	0.001597	0.001724	28.0796	0.034723	0.002039	17.0261	-112.673	-166.328	0.129797	0.441403	-0.680959	-0.682281	0.079741	17.0261	-0.684471	-1.200452E+9	-6.642578E-11	NaN
199	1.000000	0.452707	7.36699e+06	-48589.1	955.818	-29762.3	0.000000	0.000000	6.452902	0.057754	NaN	0.000000	0.001661	0.001734	28.0782	0.108505	0.001995	54.4004	119.571	12.5016	0.053886	0.451359	-0.670976	-0.672325	0.057754	54.4004	-0.671773	-8.047301E+8	-7.176869E-11	NaN
199	1.000000	0.462730	7.36699e+06	-48589.1	955.817	-29762.3	0.000000	0.000000	6.462926	0.097132	NaN	0.000000	0.001655	0.001758	28.0781	0.049083	0.002135	22.9886	-133.127	-164.751	0.118629	0.461464	-0.660954	-0.662219	0.097132	22.9886	-0.664123	-6.323086E+8	-1.536154E-10	NaN
199	1.000000	0.472748	7.36699e+06	-48589.1	955.818	-29762.3	0.000000	0.000000	6.472941	0.011815	NaN	0.000000	0.001649	0.001710	28.0782	0.120629	0.001940	62.1742	19.2816	13.1129	-0.002492	0.471366	-0.650935	-0.652318	0.011815	62.1742	-0.651078	-4.189973E+8	-2.819875E-11	NaN
199	1.000000	0.482748	7.36699e+06	-48589.1	955.819	-29762.3	0.000000	0.000000	6.482939	-0.009122	NaN	0.000000	0.001620	0.001726	28.0794	0.111608	0.002074	53.8194	-140.788	-167.721	0.060480	0.481434	-0.640936	-0.642249	-0.009122	53.8194	-0.640809	-3.029611E+8	3.010906E-11	NaN
199	1.000000	0.492716	7.36699e+06	-48589.1	955.818	-29762.3	0.000000	0.000000	6.492911	0.078209	NaN	0.000000	0.001617	0.001702	28.0782	0.091368	0.001990	45.9138	-167.026	9.823324	0.031477	0.491359	-0.630968	-0.632324	0.078209	45.9138	-0.632245	-2.311276E+8	-3.383796E-10	NaN
199	1.000000	0.502738	7.36699e+06	-48589.1	955.819	-29762.3	0.000000	0.000000	6.502931	0.028224	NaN	0.000000	0.001612	0.001777	28.078	0.044584	0.002060	21.6466	140.515	-166.119	0.017213	0.501451	-0.620946	-0.622233	0.028224	21.6466	-0.621923	-1.667512E+8	-1.692557E-10	NaN
199	1.000000	0.512729	7.36699e+06	-48589.1	955.819	-29762.3	0.000000	0.000000	6.512924	0.062315	NaN	0.000000	0.001555	0.001741	28.078	0.070091	0.001876	37.3563	-67.0469	11.8937	0.028570	0.511411	-0.610954	-0.612273	0.062315	37.3563	-0.612205	-1.225900E+8	-5.083172E-10	NaN
199	1.000000	0.522760	7.36699e+06	-48589.1	955.818	-29762.3	0.000000	0.000000	6.522954	0.042171	NaN	0.000000	0.001602	0.001735	28.0785	0.073017	0.002125	34.3602	-95.0508	-161.942	0.054894	0.521459	-0.600924	-0.602225	0.042171	34.3602	-0.601844	-8.827946E+7	-4.776941E-10	NaN
199	1.000000	0.532736	7.367e+06	-48589.1	955.818	-29762.3	0.000000	0.000000	6.532929	0.014534	NaN	0.000000	0.001583	0.001762	28.0783	0.066986	0.001910	35.074	6.251298	11.3208	0.094981	0.531415	-0.590948	-0.592269	0.014534	35.074	-0.591259	-6.309811E+7	-2.303461E-10	NaN
199	1.000000	0.542748	7.367e+06	-48589.1	955.818	-29762.3	0.000000	0.000000	6.542942	0.036404	NaN	0.000000	0.001556	0.001760	28.0784	0.057416	0.002062	27.8437	0.286920	-164.77	-0.041498	0.541471	-0.580936	-0.582213	0.036404	27.8437	-0.581916	-4.689952E+7	-7.762173E-10	NaN
199	1.000000	0.552763	7.367e+06	-48589.1	955.818	-29762.3	0.000000	0.000000	6.552957	0.054946	NaN	0.000000	0.001606	0.001757	28.0784	0.072504	0.002005	36.1644	-156.511	14.3628	-0.000534	0.551457	-0.570921	-0.572227	0.054946	36.1644	-0.572061	-3.428464E+7	-1.602648E-9	NaN
199	1.000000	0.562773	7.367e+06	-48589.1	955.818	-29762.3	0.000000	0.000000	6.562967	0.044923	NaN	0.000000	0.001590	0.001761	28.0787	0.119709	0.001880	63.6612	-115.69	-163.517	0.056102	0.561447	-0.560910	-0.562237	0.044923	63.6612	-0.561440	-2.445071E+7	-1.837303E-9	NaN
199	1.000000	0.572760	7.367e+06	-48589.1	955.818	-29762.3	0.000000	0.000000	6.572952	-0.000457	NaN	0.000000	0.001588	0.001762	28.0784	0.096733	0.001907	50.7146	112.912	14.8945	0.054320	0.571464	-0.550924	-0.552220	-0.000457	50.7146	-0.550917	-1.748475E+7	2.612447E-11	NaN
199	1.000000	0.582804	7.367e+06	-48589.1	955.819	-29762.3	0.000000	0.000000	6.582998	0.049325	NaN	0.000000	0.001623	0.001739	28.0792	0.038048	0.002025	18.7917	-29.9511	-167.211	0.088065	0.581484	-0.540879	-0.542199	0.049325	18.7917	-0.542848	-1.351598E+7	-3.649399E-9	NaN
199	1.000000	0.592770	7.367e+06	-48589.1	955.818	-29762.3	0.000000	0.000000	6.592964	0.041845	NaN	0.000000	0.001628	0.001733	28.0795	0.098608	0.002025	48.7023	157.856	11.6137	0.034145	0.591430	-0.530913	-0.532254	0.041845	48.7023	-0.531558	-9.42335e+06	-4.440558E-9	NaN
199	1.000000	0.602796	7.367e+06	-48589.1	955.818	-29762.3	0.000000	0.000000	6.602991	0.064419	NaN	0.000000	0.001596	0.001753	28.0797	0.118520	0.001901	62.3359	-81.0866	-166.863	0.065625	0.601474	-0.520887	-0.522210	0.064419	62.3359	-0.521662	-6.86619e+06	-9.382043E-9	NaN
199	1.000000	0.612788	7.367e+06	-48589.1	955.818	-29762.3	0.000000	0.000000	6.612983	0.072154	NaN	0.000000	0.001615	0.001698	28.0796	0.099992	0.001983	50.4264	156.404	11.5471	0.136786	0.611399	-0.510895	-0.512284	0.072154	50.4264	-0.511969	-5.03304e+06	-1.433617E-8	NaN
199	1.000000	0.622774	7.367e+06	-48589.1	955.819	-29762.3	0.000000	0.000000	6.622970	0.078809	NaN	0.000000	0.001621	0.001725	28.0798	0.055355	0.001984	27.8987	-84.7903	-166.93	0.022235	0.621441	-0.500909	-0.502243	0.078809	27.8987	-0.503028	-3.7779e+06	-2.086041E-8	NaN
199	1.000000	0.632779	7.367e+06	-48589.1	955.818	-29762.3	0.000000	0.000000	6.632975	0.099528	NaN	0.000000	0.001622	0.001718	28.0798	0.053562	0.002043	26.2214	54.2674	16.8464	0.093976	0.631455	-0.490905	-0.492229	0.099528	26.2214	-0.493752	-2.80419e+06	-3.549281E-8	NaN
199	1.000000	0.642818	7.367e+06	-48589.1	955.819	-29762.3	0.000000	0.000000	6.643014	0.102342	NaN	0.000000	0.001675	0.001769	28.0796	0.049109	0.002010	24.4309	-154.712	-168.624	0.118429	0.641512	-0.480866	-0.482172	0.102342	24.4309	-0.484008	-2.04932e+06	-4.993945E-8	NaN
199	1.000000	0.652821	7.367e+06	-48589.1	955.819	-29762.3	0.000000	0.000000	6.653017	0.108324	NaN	0.000000	0.001679	0.001656	28.0796	0.061938	0.002171	28.5327	136.711	15.2416	0.098691	0.651422	-0.470863	-0.472261	0.108324	28.5327	-0.473711	-1.47038e+06	-7.367051E-8	NaN
199	1.000000	0.662782	7.367e+06	-48589.1	955.818	-29762.3	0.000000	0.000000	6.662974	0.011626	NaN	0.000000	0.001691	0.001680	28.0794	0.067918	0.001928	35.2361	-88.6041	-167.159	0.080376	0.661521	-0.460902	-0.462163	0.011626	35.2361	-0.461149	-979863	-1.186451E-8	NaN
199	1.000000	0.672833	7.367e+06	-48589.1	955.817	-29762.3	0.000000	0.000000	6.673027	0.043140	NaN	0.000000	0.001694	0.001701	28.0799	0.048223	0.002173	22.1948	-133.773	17.496	0.019187	0.671476	-0.450851	-0.452208	0.043140	22.1948	-0.452309	-735948	-5.861781E-8	NaN
199	1.000000	0.682844	7.367e+06	-48589.1	955.819	-29762.3	0.000000	0.000000	6.683038	0.047862	NaN	0.000000	0.001710	0.001654	28.0795	0.016267	0.001983	8.202178	-127.742	-164.986	0.044971	0.681500	-0.440839	-0.442183	0.047862	8.202178	-0.445216	-584702	-8.185762E-8	NaN
199	1.000000	0.692828	7.367e+06	-48589.1	955.819	-29762.3	0.000000	0.000000	6.693021	0.016685	NaN	0.000000	0.001658	0.001692	28.0797	0.040830	0.001960	20.834	178.536	13.2891	0.014464	0.691507	-0.430856	-0.432177	0.016685	20.834	-0.431456	-373817	-4.463374E-8	NaN
199	1.000000	0.702829	7.367e+06	-48589.1	955.818	-29762.3	0.000000	0.000000	6.703025	0.104423	NaN	0.000000	0.001696	0.001681	28.0798	0.079537	0.001986	40.0406	165.358	-167	0.051650	0.701590	-0.420855	-0.422094	0.104423	40.0406	-0.422811	-282009	-3.702839E-7	NaN
199	1.000000	0.712868	7.367e+06	-48589.1	955.818	-29762.3	0.000000	0.000000	6.713061	0.040698	NaN	0.000000	0.001694	0.001736	28.0796	0.014847	0.001963	7.563047	134.02	11.2211	0.031105	0.711474	-0.410816	-0.412210	0.040698	7.563047	-0.414852	-217445	-1.871637E-7	NaN
199	1.000000	0.722797	7.367e+06	-48589.1	955.818	-29762.3	0.000000	0.000000	6.722994	0.100956	NaN	0.000000	0.001684	0.001711	28.0784	0.101074	0.002057	49.1479	165.081	-166.566	0.174134	0.721587	-0.400886	-0.402097	0.100956	49.1479	-0.402427	-144741	-6.974937E-7	NaN
199	1.000000	0.732833	7.367e+06	-48589.1	955.818	-29762.3	0.000000	0.000000	6.733027	0.058793	NaN	0.000000	0.001672	0.001704	28.0782	0.079154	0.002033	38.9282	-60.3102	13.2776	0.059880	0.731507	-0.390851	-0.392177	0.058793	38.9282	-0.391983	-102690	-5.725280E-7	NaN
199	1.000000	0.742835	7.367e+06	-48589.1	955.818	-29762.3	0.000000	0.000000	6.743033	0.127465	NaN	0.000000	0.001682	0.001720	28.0785	0.122232	0.002037	59.9916	61.0274	-164.819	0.073124	0.741571	-0.380848	-0.382112	0.127465	59.9916	-0.382442	-74975.7	-1.700082E-6	NaN
199	1.000000	0.752856	7.367e+06	-48589.1	955.819	-29762.3	0.000000	0.000000	6.753050	0.048037	NaN	0.000000	0.001673	0.001744	28.0782	0.055449	0.001981	27.9946	114.197	15.8375	0.030172	0.751537	-0.370828	-0.372146	0.048037	27.9946	-0.372114	-53280.5	-9.015939E-7	NaN
199	1.000000	0.762821	7.367e+06	-48589.1	955.819	-29762.3	0.000000	0.000000	6.763013	0.004503	NaN	0.000000	0.001636	0.001713	28.0783	0.111108	0.002073	53.5934	132.167	-167.485	0.083949	0.761562	-0.360863	-0.362122	0.004503	53.5934	-0.360926	-36747.4	-1.225512E-7	NaN
199	1.000000	0.772824	7.367e+06	-48589.1	955.818	-29762.3	0.000000	0.000000	6.773017	0.022359	NaN	0.000000	0.001684	0.001761	28.0784	0.073098	0.001859	39.3139	103.044	12.6645	0.016869	0.771492	-0.350860	-0.352192	0.022359	39.3139	-0.351286	-26648.2	-8.390452E-7	NaN
199	1.000000	0.782873	7.367e+06	-48589.1	955.819	-29762.3	0.000000	0.000000	6.783064	-0.036896	NaN	0.000000	0.001651	0.001777	28.0787	0.025929	0.001968	13.1755	74.8175	-166.846	0.040528	0.781565	-0.340810	-0.342118	-0.036896	13.1755	-0.338710	-17488.3	2.109735E-6	NaN
199	1.000000	0.792867	7.367e+06	-48589.1	955.818	-29762.3	0.000000	0.000000	6.793061	0.050450	NaN	0.000000	0.001632	0.001758	28.0786	0.046834	0.001996	23.468	-26.8148	9.242243	0.019062	0.791538	-0.330817	-0.332145	0.050450	23.468	-0.332429	-14158	-3.563343E-6	NaN
199	1.000000	0.802867	7.367e+06	-48589.1	955.817	-29762.3	0.000000	0.000000	6.803061	0.045741	NaN	0.000000	0.001676	0.001722	28.0785	0.053111	0.002014	26.367	82.2248	-164.062	0.001397	0.801598	-0.320816	-0.322085	0.045741	26.367	-0.322117	-9995.1	-4.576346E-6	NaN
199	1.000000	0.812879	7.367e+06	-48589.1	955.817	-29762.3	0.000000	0.000000	6.813072	0.035425	NaN	0.000000	0.001657	0.001708	28.0785	0.080856	0.001950	41.4632	-4.099278	12.1416	0.096276	0.811532	-0.310805	-0.312152	0.035425	41.4632	-0.311446	-6957.35	-5.091807E-6	NaN
199	1.000000	0.822908	7.367e+06	-48589.1	955.819	-29762.3	0.000000	0.000000	6.823103	0.070230	NaN	0.000000	0.001654	0.001703	28.0788	0.028415	0.001786	15.9141	-52.9869	-159.938	0.060588	0.821499	-0.300775	-0.302185	0.070230	15.9141	-0.304085	-5412.18	-1.297626E-5	NaN
199	1.000000	0.832901	7.367e+06	-48589.1	955.818	-29762.3	0.000000	0.000000	6.833094	0.032991	NaN	0.000000	0.001655	0.001709	28.0784	0.036932	0.002095	17.6323	100.103	13.8223	0.012589	0.831530	-0.290783	-0.292154	0.032991	17.6323	-0.292186	-3597.73	-9.169969E-6	NaN
199	1.000000	0.842877	7.367e+06	-48589.1	955.818	-29762.3	0.000000	0.000000	6.843069	0.000678	NaN	0.000000	0.001659	0.001703	28.0785	0.098907	0.002042	48.427	31.5126	-166.803	-0.011567	0.841586	-0.280806	-0.282098	0.000678	48.427	-0.280817	-2428.24	-2.790208E-7	NaN
199	1.000000	0.852919	7.367e+06	-48589.1	955.818	-29762.3	0.000000	0.000000	6.853112	0.015995	NaN	0.000000	0.001657	0.001682	28.0784	0.042881	0.001978	21.6792	40.4997	15.7815	0.072534	0.851525	-0.270765	-0.272159	0.015995	21.6792	-0.271318	-1744.1	-9.171115E-6	NaN
199	1.000000	0.862896	7.367e+06	-48589.1	955.819	-29762.3	0.000000	0.000000	6.863091	0.077008	NaN	0.000000	0.001674	0.001728	28.0798	0.014139	0.002093	6.754451	-12.8437	-168.434	0.076292	0.861609	-0.260788	-0.262075	0.077008	6.754451	-0.269339	-1627.39	-4.731967E-5	NaN
199	1.000000	0.872908	7.367e+06	-48589.1	955.818	-29762.3	0.000000	0.000000	6.873099	-0.016311	NaN	0.000000	0.001701	0.001749	28.0795	0.062152	0.001953	31.8308	3.559123	9.998933	-0.000253	0.871574	-0.250776	-0.252110	-0.016311	31.8308	-0.250391	-833.716	1.956447E-5	NaN
199	1.000000	0.882904	7.367e+06	-48589.1	955.818	-29762.3	0.000000	0.000000	6.883097	0.031952	NaN	0.000000	0.001646	0.001722	28.0798	0.081669	0.002050	39.8364	13.0127	-170.304	0.065151	0.881564	-0.240780	-0.242120	0.031952	39.8364	-0.241381	-604.107	-5.289164E-5	NaN
199	1.000000	0.892931	7.367e+06	-48589.1	955.818	-29762.3	0.000000	0.000000	6.893124	0.020728	NaN	0.000000	0.001626	0.001724	28.0798	0.032185	0.002179	14.7721	22.4875	14.3914	0.035438	0.891547	-0.230753	-0.232137	0.020728	14.7721	-0.231805	-427.554	-4.847975E-5	NaN
199	1.000000	0.902890	7.367e+06	-48589.1	955.819	-29762.3	0.000000	0.000000	6.903082	-0.006705	NaN	0.000000	0.001606	0.001743	28.0792	0.116505	0.001993	58.4681	50.9846	-166.453	-0.033540	0.901587	-0.220794	-0.222097	-0.006705	58.4681	-0.220708	-285.09	2.351900E-5	NaN
199	1.000000	0.912914	7.367e+06	-48589.1	955.818	-29762.3	0.000000	0.000000	6.913108	0.031107	NaN	0.000000	0.001579	0.001703	28.0793	0.069092	0.002029	34.0485	15.7519	12.5974	-0.022202	0.911549	-0.210769	-0.212135	0.031107	34.0485	-0.211455	-202.466	-0.000154	NaN
199	1.000000	0.922917	7.367e+06	-48589.1	955.818	-29762.3	0.000000	0.000000	6.923112	0.074759	NaN	0.000000	0.001598	0.001700	28.0794	0.050373	0.002076	24.2691	-73.6458	-168.636	-0.030476	0.921588	-0.200767	-0.202096	0.074759	24.2691	-0.203077	-147.963	-0.000505	NaN
199	1.000000	0.932935	7.367e+06	-48589.1	955.818	-29762.3	0.000000	0.000000	6.933131	0.076629	NaN	0.000000	0.001602	0.001721	28.0796	0.017538	0.001931	9.084219	-19.4419	14.0047	0.065620	0.931565	-0.190748	-0.192119	0.076629	9.084219	-0.197075	-117.901	-0.000650	NaN
199	1.000000	0.942942	7.367e+06	-48589.1	955.818	-29762.3	0.000000	0.000000	6.943135	0.038284	NaN	0.000000	0.001592	0.001726	28.0794	0.057232	0.001910	29.9608	25.686	-167.353	0.037436	0.941657	-0.180742	-0.182027	0.038284	29.9608	-0.181700	-65.2153	-0.000587	NaN
199	1.000000	0.952931	7.367e+06	-48589.1	955.818	-29762.3	0.000000	0.000000	6.953125	0.060397	NaN	0.000000	0.001633	0.001726	28.0794	0.047421	0.002043	23.2094	-42.4074	12.762	0.022867	0.951592	-0.170753	-0.172092	0.060397	23.2094	-0.172705	-45.7555	-0.001320	NaN
199	1.000000	0.962956	7.367e+06	-48589.1	955.819	-29762.3	0.000000	0.000000	6.963151	0.057474	NaN	0.000000	0.001613	0.001717	28.0794	0.027454	0.002029	13.5282	-58.5688	-164.003	0.076160	0.961665	-0.160727	-0.162018	0.057474	13.5282	-0.163914	-32.152	-0.001788	NaN
199	1.000000	0.972975	7.367e+06	-48589.1	955.818	-29762.3	0.000000	0.000000	6.973167	0.004361	NaN	0.000000	0.001615	0.001689	28.0795	0.071334	0.001979	36.041	-132.851	13.6443	-0.031653	0.971595	-0.150709	-0.152089	0.004361	36.041	-0.150800	-18.7318	-0.000233	NaN
199	1.000000	0.982917	7.367e+06	-48589.1	955.818	-29762.3	0.000000	0.000000	6.983111	0.036877	NaN	0.000000	0.001595	0.001723	28.0793	0.106561	0.001920	55.5072	111.579	-166.549	-0.070676	0.981649	-0.140767	-0.142035	0.036877	55.5072	-0.141265	-12.4933	-0.002952	NaN
199	1.000000	0.992964	7.367e+06	-48589.1	955.819	-29762.3	0.000000	0.000000	6.993161	0.132617	NaN	0.000000	0.001631	0.001729	28.0783	0.040141	0.002007	20.005	-94.9579	14.1575	0.079713	0.991585	-0.130720	-0.132099	0.132617	20.005	-0.135692	-9.805726	-0.013524	NaN
199	1.000000	1.002953	7.367e+06	-48589.1	955.819	-29762.3	0.000000	0.000000	7.003144	-0.013841	NaN	0.000000	0.001555	0.001709	28.0786	0.111101	0.002204	50.4145	-53.509	-165.52	-0.034126	1.001668	-0.120731	-0.122015	-0.013841	50.4145	-0.120525	-4.950708	0.002796	NaN
199	1.000000	1.012955	7.367e+06	-48589.1	955.819	-29762.3	0.000000	0.000000	7.013151	0.093448	NaN	0.000000	0.001580	0.001751	28.078	0.031795	0.002004	15.8691	49.5123	13.9951	0.080666	1.011570	-0.110729	-0.112114	0.093448	15.8691	-0.115145	-3.846808	-0.024292	NaN
199	1.000000	1.022966	7.367e+06	-48589.1	955.819	-29762.3	0.000000	0.000000	7.023156	-0.046844	NaN	0.000000	0.001578	0.001717	28.0782	0.058692	0.002000	29.3431	103.135	-164.562	0.030582	1.021654	-0.100718	-0.102029	-0.046844	29.3431	-0.099520	-1.782892	0.026274	NaN
199	1.000000	1.032973	7.367e+06	-48589.1	955.818	-29762.3	0.000000	0.000000	7.033167	0.047623	NaN	0.000000	0.001565	0.001729	28.078	0.028283	0.002047	13.8171	1.335442	14.8219	0.037069	1.031651	-0.090711	-0.092033	0.047623	13.8171	-0.093296	-1.289408	-0.036934	NaN
199	1.000000	1.042969	7.367e+06	-48589.1	955.819	-29762.3	0.000000	0.000000	7.043161	0.000736	NaN	0.000000	0.001580	0.001701	28.0784	0.033305	0.002012	16.5571	84.8793	-165.946	0.023923	1.041650	-0.080715	-0.082034	0.000736	16.5571	-0.080748	-0.646179	-0.001139	NaN
199	1.000000	1.052953	7.367e+06	-48589.1	955.819	-29762.3	0.000000	0.000000	7.053146	0.020983	NaN	0.000000	0.001540	0.001723	28.078	0.025087	0.001951	12.8599	15.2123	12.5407	0.064272	1.051599	-0.070731	-0.072085	0.020983	12.8599	-0.071954	-0.384493	-0.054573	NaN
199	1.000000	1.062982	7.367e+06	-48589.1	955.818	-29762.3	0.000000	0.000000	7.063176	0.034999	NaN	0.000000	0.001597	0.001713	28.0779	0.069537	0.001959	35.4886	-147.276	-170.988	0.052359	1.061688	-0.060702	-0.061995	0.034999	35.4886	-0.061441	-0.197991	-0.176771	NaN
199	1.000000	1.072992	7.367e+06	-48589.1	955.818	-29762.3	0.000000	0.000000	7.073184	0.011850	NaN	0.000000	0.001574	0.001719	28.0781	0.103913	0.001912	54.3415	-89.3158	11.112	-0.059808	1.071568	-0.050692	-0.052116	0.011850	54.3415	-0.050855	-0.096842	-0.122364	NaN
199	1.000000	1.083005	7.367e+06	-48589.1	955.819	-29762.3	0.000000	0.000000	7.083197	0.004781	NaN	0.000000	0.001544	0.001728	28.078	0.071758	0.002043	35.1199	5.921507	-163.396	-0.080117	1.081656	-0.040679	-0.042028	0.004781	35.1199	-0.040781	-0.047763	-0.100106	NaN
199	1.000000	1.092971	7.367e+06	-48589.1	955.818	-29762.3	0.000000	0.000000	7.093164	0.021496	NaN	0.000000	0.001513	0.001722	28.078	0.076650	0.001985	38.6194	-170.334	15.1275	-0.014121	1.091635	-0.030712	-0.032049	0.021496	38.6194	-0.031130	-0.024756	-0.868329	NaN
199	1.000000	1.102976	7.367e+06	-48589.1	955.818	-29762.3	0.000000	0.000000	7.103170	0.039927	NaN	0.000000	0.001577	0.001723	28.0781	0.034532	0.002014	17.1454	-10.0458	-167.117	-0.033627	1.101649	-0.020708	-0.022035	0.039927	17.1454	-0.022454	-0.014503	-2.753109	NaN
199	1.000000	1.112995	7.367e+06	-48589.1	955.818	-29762.3	0.000000	0.000000	7.113188	0.032680	NaN	0.000000	0.001550	0.001773	28.0786	0.085135	0.001969	43.2291	-48.3129	17.3803	0.043021	1.111654	-0.010689	-0.012030	0.032680	43.2291	-0.011256	-0.007104	-4.600379	NaN
199	1.000000	1.123008	7.367e+06	-48589.1	955.818	-29762.3	0.000000	0.000000	7.123208	0.193107	NaN	0.000000	0.001533	0.001753	28.0783	0.315079	0.001947	161.854	34.1368	-165.772	-0.003306	1.121751	-0.000676	-0.001932	0.193107	161.854	-0.001570	-0.001139	-169.516	NaN
199	2.000000	1.132718	7.367e+06	-48589.1	955.818	-29762.3	0.000000	0.000000	7.133278	8.943346	NaN	0.000000	0.001555	0.001750	28.0797	8.949983	0.001658	5396.69	10.3081	5.533898	7.293923	1.131658	0.009035	0.007975	8.943346	5396.69	0.007792	0.006829	1309.6	59665.2
199	2.000000	1.135599	7.367e+06	-48589.1	955.819	-29762.3	0.000000	0.000000	7.136299	12.3609	NaN	0.000000	0.001515	0.001763	28.0794	11.9569	0.001747	6843.01	8.196231	-174.678	12.1696	1.135274	0.011916	0.011590	12.3609	6843.01	0.010561	0.009811	1259.86	63118.5
199	2.000000	1.138102	7.367e+06	-48589.1	955.818	-29762.3	0.000000	0.000000	7.138945	15.8276	NaN	0.000000	0.001509	0.001751	28.0806	14.7244	0.001770	8319.73	11.669	1.167885	17.6473	1.137665	0.014418	0.013981	15.8276	8319.73	0.012991	0.012699	1246.32	67451.2
199	2.000000	1.140529	7.367e+06	-48589.1	955.818	-29762.3	0.000000	0.000000	7.141552	20.2146	NaN	0.000000	0.001510	0.001743	28.0793	17.3299	0.001720	10078.3	1.050953	-172.108	19.0736	1.140218	0.016845	0.016534	20.2146	10078.3	0.015341	0.015743	1284.06	73387.1
199	2.000000	1.143034	7.367e+06	-48589.1	955.818	-29762.3	0.000000	0.000000	7.144279	25.6282	NaN	0.000000	0.001522	0.001718	28.08	20.2194	0.001690	11965	5.080079	1.832420	23.6143	1.142659	0.019350	0.018975	25.6282	11965	0.017744	0.019120	1340.4	79057.7
199	2.000000	1.145530	7.367e+06	-48589.1	955.817	-29762.3	0.000000	0.000000	7.147028	31.7798	NaN	0.000000	0.001623	0.001748	28.0795	23.0893	0.001722	13407.1	3.987814	-178.267	33.3717	1.145184	0.021846	0.021500	31.7798	13407.1	0.020068	0.022649	1403.12	81391.6
199	2.000000	1.147988	7.367e+06	-48589.1	955.818	-29762.3	0.000000	0.000000	7.149781	38.9539	NaN	0.000000	0.001604	0.001728	28.0806	26.2477	0.001845	14227.3	1.390804	4.458614	37.4626	1.147665	0.024304	0.023981	38.9539	14227.3	0.022250	0.026203	1486.63	80301.3
199	2.000000	1.150492	7.367e+06	-48589.1	955.818	-29762.3	0.000000	0.000000	7.152557	45.5318	NaN	0.000000	0.001550	0.001765	28.0797	29.0847	0.001862	15618.8	3.527280	-178.937	44.4504	1.150166	0.026809	0.026482	45.5318	15618.8	0.024622	0.030332	1501.1	81934.7
199	2.000000	1.153003	7.367e+06	-48589.1	955.818	-29762.3	0.000000	0.000000	7.155290	50.938	NaN	0.000000	0.001552	0.001758	28.0806	30.4246	0.001853	16419	6.556057	-0.948951	49.8292	1.152703	0.029320	0.029019	50.938	16419	0.026993	0.034741	1466.22	80482.1
199	2.000000	1.155483	7.367e+06	-48589.1	955.817	-29762.3	0.000000	0.000000	7.158087	58.6633	NaN	0.000000	0.001587	0.001753	28.0798	32.1062	0.001847	17381.7	7.202456	177.469	56.5221	1.155091	0.031799	0.031407	58.6633	17381.7	0.029268	0.039240	1494.98	80167.5
199	2.000000	1.157967	7.367e+06	-48589.1	955.817	-29762.3	0.000000	0.000000	7.160802	64.2759	NaN	0.000000	0.001633	0.001732	28.0803	34.9067	0.001830	19078	4.765496	-0.586488	61.5636	1.157593	0.034283	0.033909	64.2759	19078	0.031756	0.044463	1445.61	82662.4
199	2.000000	1.160507	7.367e+06	-48589.1	955.818	-29762.3	0.000000	0.000000	7.163643	71.5882	NaN	0.000000	0.001619	0.001733	28.0795	39.0127	0.001852	21064.7	8.843185	174.182	73.6684	1.160205	0.036824	0.036521	71.5882	21064.7	0.034275	0.050071	1429.73	86007
199	2.000000	1.162956	7.367e+06	-48589.1	955.817	-29762.3	0.000000	0.000000	7.166486	81.1795	NaN	0.000000	0.001620	0.001762	28.0797	39.7486	0.001894	20989.1	4.356901	-1.673345	76.8316	1.162702	0.039272	0.039018	81.1795	20989.1	0.036371	0.054987	1476.33	81777.9
199	2.000000	1.165438	7.367e+06	-48589.1	955.817	-29762.3	0.000000	0.000000	7.169328	89.9387	NaN	0.000000	0.001588	0.001753	28.0796	41.996	0.001887	22259.6	4.682076	178.043	87.2793	1.165091	0.041754	0.041407	89.9387	22259.6	0.038724	0.060772	1479.94	82497.2
199	2.000000	1.167938	7.367e+06	-48589.1	955.818	-29762.3	0.000000	0.000000	7.172295	101.314	NaN	0.000000	0.001640	0.001733	28.0789	44.5188	0.001891	23544.3	5.978356	-4.249648	98.2131	1.167629	0.044254	0.043945	101.314	23544.3	0.041026	0.066708	1518.76	83285.7
199	2.000000	1.170425	7.367e+06	-48589.1	955.818	-29762.3	0.000000	0.000000	7.175084	108.639	NaN	0.000000	0.001599	0.001756	28.0785	46.0328	0.001802	25540.5	2.785524	178.272	106.078	1.170135	0.046742	0.046451	108.639	25540.5	0.043551	0.073528	1477.51	86054.8
199	2.000000	1.173045	7.367e+06	-48589.1	955.817	-29762.3	0.000000	0.000000	7.178149	119.47	NaN	0.000000	0.001563	0.001761	28.0787	48.476	0.001791	27071.3	6.719669	-5.257650	121.44	1.172514	0.049361	0.048830	119.47	27071.3	0.046051	0.080599	1482.27	87119.9
199	2.000000	1.175472	7.367e+06	-48589.1	955.817	-29762.3	0.000000	0.000000	7.180949	128.55	NaN	0.000000	0.001544	0.001772	28.0784	50.4996	0.001801	28036.3	7.975451	172.124	127.919	1.175112	0.051788	0.051428	128.55	28036.3	0.048349	0.087379	1471.18	86654.5
199	2.000000	1.177898	7.367e+06	-48589.1	955.818	-29762.3	0.000000	0.000000	7.183793	138.711	NaN	0.000000	0.001557	0.001773	28.0792	53.0457	0.001732	30632	6.315803	-7.363501	135.628	1.177709	0.054214	0.054025	138.711	30632	0.050818	0.094959	1460.74	90819.8
199	2.000000	1.180354	7.367e+06	-48589.1	955.818	-29762.3	0.000000	0.000000	7.186945	155.618	NaN	0.000000	0.001526	0.001782	28.0783	55.6634	0.001848	30124.9	3.349249	176.492	150.694	1.180132	0.056671	0.056448	155.618	30124.9	0.052796	0.101252	1536.94	86496.2
199	2.000000	1.182914	7.367e+06	-48589.1	955.819	-29762.3	0.000000	0.000000	7.189872	164.548	NaN	0.000000	0.001514	0.001769	28.0785	57.9355	0.001805	32088.9	9.657906	-10.5469	159.629	1.182572	0.059230	0.058889	164.548	32088.9	0.055384	0.109780	1498.89	88484.4
199	2.000000	1.185416	7.367e+06	-48589.1	955.817	-29762.3	0.000000	0.000000	7.192931	178.109	NaN	0.000000	0.001572	0.001812	28.0785	59.0624	0.001739	33966.2	3.483247	175.434	176.491	1.185087	0.061732	0.061403	178.109	33966.2	0.057800	0.118036	1508.93	90325.9
199	2.000000	1.188007	7.367e+06	-48589.1	955.818	-29762.3	0.000000	0.000000	7.195981	189.267	NaN	0.000000	0.001603	0.001781	28.0785	63.4079	0.001924	32961.5	6.902555	-7.280843	189.914	1.187515	0.064323	0.063831	189.267	32961.5	0.060016	0.125867	1503.7	84883.5
199	2.000000	1.190434	7.367e+06	-48589.1	955.818	-29762.3	0.000000	0.000000	7.198809	199.018	NaN	0.000000	0.001582	0.001783	28.0783	65.2222	0.001951	33432.2	5.265219	173.746	198.528	1.190215	0.066751	0.066531	199.018	33432.2	0.062286	0.134133	1483.73	83400.7
199	2.000000	1.192917	7.367e+06	-48589.1	955.818	-29762.3	0.000000	0.000000	7.202074	218.056	NaN	0.000000	0.001579	0.001769	28.0786	66.6905	0.001817	36711.6	8.223502	-10.18	215.039	1.192558	0.069233	0.068875	218.056	36711.6	0.064778	0.143497	1519.59	88543.2
199	2.000000	1.195364	7.367e+06	-48589.1	955.819	-29762.3	0.000000	0.000000	7.205191	234.34	NaN	0.000000	0.001569	0.001762	28.0786	68.0067	0.001774	38341.9	4.729764	173.244	230.133	1.195079	0.071680	0.071396	234.34	38341.9	0.067096	0.152477	1536.89	89710.8
199	2.000000	1.197832	7.367e+06	-48589.1	955.818	-29762.3	0.000000	0.000000	7.208230	248.219	NaN	0.000000	0.001562	0.001801	28.0784	71.5528	0.001769	40444.3	6.315410	-9.148501	241.458	1.197494	0.074148	0.073810	248.219	40444.3	0.069545	0.162243	1529.92	91737.6
199	2.000000	1.200402	7.367e+06	-48589.1	955.818	-29762.3	0.000000	0.000000	7.211510	265.49	NaN	0.000000	0.001525	0.001774	28.0793	74.0255	0.001825	40567.2	6.325082	170.406	262.245	1.200049	0.076718	0.076365	265.49	40567.2	0.071810	0.171528	1547.8	89491.4
199	2.000000	1.202966	7.367e+06	-48589.1	955.817	-29762.3	0.000000	0.000000	7.214550	277.08	NaN	0.000000	0.001541	0.001759	28.0796	74.2247	0.001626	45656.4	1.791673	-5.243293	275.586	1.202697	0.079282	0.079013	277.08	45656.4	0.074730	0.183861	1507.01	97281.6
199	2.000000	1.205454	7.367e+06	-48589.1	955.817	-29762.3	0.000000	0.000000	7.217191	280.803	NaN	0.000000	0.001567	0.001788	28.0796	77.305	0.001736	44543.1	3.724678	171.744	280.413	1.205387	0.081770	0.081704	280.803	44543.1	0.077042	0.193907	1448.13	92418.1
199	2.000000	1.207921	7.367e+06	-48589.1	955.818	-29762.3	0.000000	0.000000	7.220680	305.66	NaN	0.000000	0.001575	0.001750	28.0792	80.3936	0.001791	44882.1	3.418851	-7.719861	303.097	1.207640	0.084237	0.083957	305.66	44882.1	0.079129	0.203194	1504.27	90968.5
199	2.000000	1.210538	7.367e+06	-48589.1	955.818	-29762.3	0.000000	0.000000	7.223708	315.647	NaN	0.000000	0.001602	0.001770	28.0794	84.8073	0.001823	46509	5.317834	170.381	321.016	1.210287	0.086855	0.086603	315.647	46509	0.081764	0.215209	1466.7	91596.8
199	2.000000	1.213127	7.367e+06	-48589.1	955.818	-29762.3	0.000000	0.000000	7.227257	338.992	NaN	0.000000	0.001606	0.001744	28.0799	86.0124	0.001857	46315.8	4.068876	-6.697089	349.501	1.212550	0.089443	0.088866	338.992	46315.8	0.083954	0.225435	1503.72	89123.3
199	2.000000	1.215396	7.367e+06	-48589.1	955.818	-29762.3	0.000000	0.000000	7.230479	362.152	NaN	0.000000	0.001574	0.001772	28.0794	87.4849	0.001831	47782.5	5.493032	170.805	360.309	1.215010	0.091713	0.091326	362.152	47782.5	0.086028	0.235331	1538.9	89991.7
199	2.000000	1.217822	7.367e+06	-48589.1	955.819	-29762.3	0.000000	0.000000	7.233432	374.997	NaN	0.000000	0.001652	0.001776	28.0795	89.7297	0.001785	50265	4.808883	-8.719598	367.363	1.217521	0.094138	0.093838	374.997	50265	0.088543	0.247591	1514.58	92293.6
199	2.000000	1.220402	7.367e+06	-48589.1	955.818	-29762.3	0.000000	0.000000	7.236852	395.418	NaN	0.000000	0.001597	0.001743	28.0794	92.2025	0.001669	55231.2	4.067522	171.261	396.498	1.220076	0.096718	0.096393	395.418	55231.2	0.091349	0.261615	1511.45	98656.6
199	2.000000	1.222873	7.367e+06	-48589.1	955.818	-29762.3	0.000000	0.000000	7.240224	417.309	NaN	0.000000	0.001580	0.001736	28.0797	93.8141	0.001830	51261.8	2.966599	-6.632760	411.129	1.222417	0.099190	0.098733	417.309	51261.8	0.093084	0.270470	1542.91	90055
199	2.000000	1.225351	7.367e+06	-48589.1	955.818	-29762.3	0.000000	0.000000	7.243488	436.439	NaN	0.000000	0.001587	0.001784	28.0794	95.2925	0.001683	56636	3.941241	171.221	432.189	1.225082	0.101668	0.101398	436.439	56636	0.095888	0.285066	1531.01	96915.5
199	2.000000	1.227854	7.367e+06	-48589.1	955.818	-29762.3	0.000000	0.000000	7.246740	454.685	NaN	0.000000	0.001621	0.001742	28.0794	99.5079	0.001807	55070.6	2.608550	-7.551371	451.091	1.227533	0.104170	0.103849	454.685	55070.6	0.097978	0.296177	1535.18	92452.3
199	2.000000	1.230341	7.367e+06	-48589.1	955.817	-29762.3	0.000000	0.000000	7.250010	473.708	NaN	0.000000	0.001576	0.001752	28.0794	102.84	0.001770	58103.3	5.698499	169.263	471.758	1.229896	0.106658	0.106213	473.708	58103.3	0.100543	0.310089	1527.65	95330.3
199	2.000000	1.231313	7.367e+06	-48589.1	955.817	-29762.3	0.000000	0.000000	7.251229	479.717	NaN	0.000000	0.001616	0.001722	28.0794	103.156	0.001738	59336.4	4.539996	170.166	474.927	1.231121	0.107630	0.107437	479.717	59336.4	0.101566	0.315720	1519.44	96481.4