File: remote_trans/data/nanoindenter/0828-1/data/Data_2025-08-06,11h17m57s/2025-07-22_16-23-58_1_370.txt
2025-07-22, 16:23:58, 1
Index	Phase	Displacement	Time	Pos X	Pos Y	Pos Z	Rot A	Rot B	Piezo Z	Force A	Force B	Gripper	Voltage A	Voltage B	Temperature	Amplitude force	Amplitude pos	Stiffness	Phase shift	Phase excitation	Force A raw	Displacement raw	HMax	HMax raw	Real Force	Real Stiffness	Contact Depth	Area	Hardness	Reduced Mod.
[#]	[#]	[um]	[s]	[um]	[um]	[um]	[m°]	[m°]	[um]	[uN]	[uN]	[V]	[V]	[V]	[°C]	[uN]	[um]	[N/m]	[°]	[°]	[uN]	[um]	[um]	[um]	[uN]	[N/m]	[um]	[um^2]	[MPa]	[MPa]
370	1.000000	0.002333	7.36868e+06	-57139.1	955.818	-29737.6	0.000000	0.000000	6.002795	0.050317	NaN	0.000000	0.001579	0.001771	28.082	0.086977	0.000914	95.1267	3.547886	-163.249	-0.026317	0.001056	-1.073729	-1.075006	0.050317	95.1267	-1.074126	-2.252262E+14	-2.234070E-16	NaN
370	1.000000	0.010312	7.36868e+06	-57139.1	955.819	-29737.6	0.000000	0.000000	6.010768	-0.078846	NaN	0.000000	0.001633	0.001721	28.0824	0.022679	0.001029	22.0436	-5.074972	-161.893	-0.084951	0.008991	-1.065750	-1.067071	-0.078846	22.0436	-1.063068	-1.599732E+14	4.928715E-16	NaN
370	1.000000	0.018296	7.36868e+06	-57139.1	955.819	-29737.6	0.000000	0.000000	6.018755	-0.019528	NaN	0.000000	0.001629	0.001747	28.0823	0.024630	0.001596	15.4347	7.034230	-168.169	0.060085	0.017004	-1.057766	-1.059058	-0.019528	15.4347	-1.056817	-1.318392E+14	1.481161E-16	NaN
370	1.000000	0.026352	7.36868e+06	-57139.1	955.818	-29737.6	0.000000	0.000000	6.026810	-0.031730	NaN	0.000000	0.001601	0.001728	28.0823	0.111098	0.001927	57.641	179.814	-166.399	-0.009912	0.024966	-1.049710	-1.051096	-0.031730	57.641	-1.049297	-1.044640E+14	3.037406E-16	NaN
370	1.000000	0.034281	7.36868e+06	-57139.1	955.818	-29737.6	0.000000	0.000000	6.034742	0.021449	NaN	0.000000	0.001630	0.001762	28.0822	0.120228	0.001989	60.4584	-125.135	-168.95	0.048119	0.033009	-1.041781	-1.043053	0.021449	60.4584	-1.042047	-8.346256E+13	-2.569913E-16	NaN
370	1.000000	0.042268	7.36868e+06	-57139.1	955.817	-29737.7	0.000000	0.000000	6.042726	-0.042588	NaN	0.000000	0.001615	0.001749	28.082	0.081906	0.001997	41.0049	-72.8801	-166.595	0.050846	0.040988	-1.033794	-1.035074	-0.042588	41.0049	-1.033015	-6.310092E+13	6.749241E-16	NaN
370	1.000000	0.050295	7.36868e+06	-57139.1	955.82	-29737.7	0.000000	0.000000	6.050753	-0.045788	NaN	0.000000	0.001634	0.001719	28.082	0.073909	0.002080	35.5409	8.328534	-165.346	-0.131037	0.048969	-1.025767	-1.027093	-0.045788	35.5409	-1.024801	-4.892631E+13	9.358467E-16	NaN
370	1.000000	0.058318	7.36868e+06	-57139.1	955.818	-29737.7	0.000000	0.000000	6.058776	-0.038569	NaN	0.000000	0.001637	0.001714	28.0821	0.153893	0.001966	78.267	-2.944737	-168.655	-0.035119	0.056986	-1.017744	-1.019076	-0.038569	78.267	-1.017375	-3.887135E+13	9.922261E-16	NaN
370	1.000000	0.066295	7.36868e+06	-57139.1	955.818	-29737.7	0.000000	0.000000	6.066753	-0.054143	NaN	0.000000	0.001632	0.001724	28.082	0.011604	0.002052	5.655221	-22.6428	-167.316	-0.062895	0.064993	-1.009767	-1.011069	-0.054143	5.655221	-1.002586	-2.458037E+13	2.202700E-15	NaN
370	1.000000	0.074303	7.36868e+06	-57139.1	955.818	-29737.7	0.000000	0.000000	6.074762	-0.029512	NaN	0.000000	0.001704	0.001748	28.081	0.162167	0.001912	84.8255	-144.883	-169.169	-0.036964	0.073014	-1.001759	-1.003048	-0.029512	84.8255	-1.001498	-2.376503E+13	1.241823E-15	NaN
370	1.000000	0.082311	7.36868e+06	-57139.1	955.818	-29737.7	0.000000	0.000000	6.082772	0.018982	NaN	0.000000	0.001715	0.001746	28.081	0.056826	0.002047	27.7552	108.113	-160.325	0.055434	0.080962	-0.993751	-0.995100	0.018982	27.7552	-0.994264	-1.899044E+13	-9.995474E-16	NaN
370	1.000000	0.090299	7.36868e+06	-57139.1	955.819	-29737.7	0.000000	0.000000	6.090758	-0.025106	NaN	0.000000	0.001688	0.001735	28.0809	0.046245	0.001983	23.32	39.6681	-169.265	0.017720	0.089024	-0.985763	-0.987039	-0.025106	23.32	-0.984955	-1.422874E+13	1.764453E-15	NaN
370	1.000000	0.098292	7.36868e+06	-57139.1	955.818	-29737.7	0.000000	0.000000	6.098754	0.056351	NaN	0.000000	0.001690	0.001727	28.0809	0.003311	0.001937	1.709222	120.948	-165.671	0.031337	0.097051	-0.977770	-0.979011	0.056351	1.709222	-1.002497	-2.451226E+13	-2.298910E-15	NaN
370	1.000000	0.106308	7.36868e+06	-57139.1	955.819	-29737.7	0.000000	0.000000	6.106770	0.048418	NaN	0.000000	0.001680	0.001762	28.081	0.065769	0.001930	34.0852	-74.265	-164.71	0.046351	0.105003	-0.969754	-0.971059	0.048418	34.0852	-0.970819	-9.177135E+12	-5.275971E-15	NaN
370	1.000000	0.114328	7.36868e+06	-57139.1	955.819	-29737.7	0.000000	0.000000	6.114786	-0.039017	NaN	0.000000	0.001744	0.001746	28.081	0.130587	0.002064	63.273	-60.7616	-164.546	0.058321	0.112960	-0.961734	-0.963102	-0.039017	63.273	-0.961272	-6.823627E+12	5.717869E-15	NaN
370	1.000000	0.122342	7.36868e+06	-57139.1	955.819	-29737.7	0.000000	0.000000	6.122803	0.031855	NaN	0.000000	0.001692	0.001762	28.0809	0.102008	0.001956	52.1513	-20.0314	-167.363	0.040935	0.121019	-0.953720	-0.955043	0.031855	52.1513	-0.954178	-5.474877E+12	-5.818383E-15	NaN
370	1.000000	0.130320	7.36868e+06	-57139.1	955.818	-29737.7	0.000000	0.000000	6.130779	-0.026197	NaN	0.000000	0.001708	0.001763	28.0809	0.050542	0.002034	24.8466	8.448639	-165.114	-0.032561	0.128977	-0.945742	-0.947085	-0.026197	24.8466	-0.944951	-4.110841E+12	6.372754E-15	NaN
370	1.000000	0.138321	7.36868e+06	-57139.1	955.818	-29737.7	0.000000	0.000000	6.138779	-0.040385	NaN	0.000000	0.001675	0.001726	28.0807	0.080401	0.001942	41.3911	-89.7887	-162.123	-0.006582	0.136999	-0.937741	-0.939063	-0.040385	41.3911	-0.937009	-3.212089E+12	1.257293E-14	NaN
370	1.000000	0.146346	7.36868e+06	-57139.1	955.82	-29737.7	0.000000	0.000000	6.146806	0.021417	NaN	0.000000	0.001678	0.001745	28.0808	0.155265	0.001947	79.7576	43.0879	-167.841	-0.020871	0.145030	-0.929717	-0.931033	0.021417	79.7576	-0.929918	-2.576859E+12	-8.311271E-15	NaN
370	1.000000	0.154330	7.36868e+06	-57139.1	955.819	-29737.7	0.000000	0.000000	6.154787	-0.063659	NaN	0.000000	0.001695	0.001724	28.0809	0.049581	0.001942	25.5267	-116.676	-167.309	-0.036254	0.153031	-0.921732	-0.923031	-0.063659	25.5267	-0.919861	-1.885104E+12	3.376929E-14	NaN
370	1.000000	0.162350	7.36868e+06	-57139.1	955.819	-29737.7	0.000000	0.000000	6.162809	-0.001134	NaN	0.000000	0.001609	0.001686	28.081	0.065124	0.001959	33.247	172.095	-164.097	0.065609	0.161038	-0.913712	-0.915024	-0.001134	33.247	-0.913687	-1.555808E+12	7.287864E-16	NaN
370	1.000000	0.170327	7.36868e+06	-57139.1	955.819	-29737.7	0.000000	0.000000	6.170787	0.013501	NaN	0.000000	0.001623	0.001726	28.0809	0.060384	0.002088	28.9213	150.131	-168.482	0.001938	0.169056	-0.905735	-0.907006	0.013501	28.9213	-0.906085	-1.228229E+12	-1.099187E-14	NaN
370	1.000000	0.178325	7.36868e+06	-57139.1	955.818	-29737.7	0.000000	0.000000	6.178784	-0.003202	NaN	0.000000	0.001607	0.001736	28.0809	0.044440	0.002030	21.8968	87.8177	-164.266	-0.006428	0.176970	-0.897737	-0.899092	-0.003202	21.8968	-0.897628	-9.440781E+11	3.391931E-15	NaN
370	1.000000	0.186345	7.36868e+06	-57139.1	955.817	-29737.7	0.000000	0.000000	6.186803	-0.044151	NaN	0.000000	0.001567	0.001719	28.0811	0.089022	0.002078	42.8437	-130.325	-163.911	-0.043546	0.185063	-0.889717	-0.891000	-0.044151	42.8437	-0.888945	-7.205222E+11	6.127683E-14	NaN
370	1.000000	0.194353	7.36868e+06	-57139.1	955.818	-29737.7	0.000000	0.000000	6.194811	-0.017108	NaN	0.000000	0.001671	0.001742	28.0809	0.147213	0.001994	73.8389	-80.0922	-168.557	0.010434	0.192971	-0.881710	-0.883091	-0.017108	73.8389	-0.881536	-5.721077E+11	2.990313E-14	NaN
370	1.000000	0.202332	7.36868e+06	-57139.1	955.819	-29737.7	0.000000	0.000000	6.202792	0.003278	NaN	0.000000	0.001639	0.001720	28.081	0.051975	0.002019	25.7367	130.119	-165.533	0.034916	0.201054	-0.873730	-0.875008	0.003278	25.7367	-0.873825	-4.499792E+11	-7.284626E-15	NaN
370	1.000000	0.210357	7.36868e+06	-57139.1	955.818	-29737.7	0.000000	0.000000	6.210815	-0.050312	NaN	0.000000	0.001651	0.001722	28.0821	0.013346	0.002089	6.388179	-38.1572	-168.331	-0.066932	0.209041	-0.865705	-0.867021	-0.050312	6.388179	-0.859798	-2.906641E+11	1.730945E-13	NaN
370	1.000000	0.218360	7.36868e+06	-57139.1	955.818	-29737.7	0.000000	0.000000	6.218818	-0.027009	NaN	0.000000	0.001620	0.001735	28.0822	0.081680	0.001821	44.8469	-141.397	-166.932	-0.008039	0.217037	-0.857703	-0.859026	-0.027009	44.8469	-0.857251	-2.684781E+11	1.006008E-13	NaN
370	1.000000	0.226364	7.36868e+06	-57139.1	955.817	-29737.7	0.000000	0.000000	6.226824	-0.003443	NaN	0.000000	0.001653	0.001743	28.0821	0.068938	0.002123	32.4703	-63.6484	-166.947	0.025901	0.225062	-0.849698	-0.851000	-0.003443	32.4703	-0.849618	-2.116254E+11	1.627021E-14	NaN
370	1.000000	0.234358	7.36868e+06	-57139.1	955.818	-29737.7	0.000000	0.000000	6.234815	-0.077312	NaN	0.000000	0.001630	0.001720	28.082	0.067020	0.001965	34.1007	-149.814	-164.159	-0.057897	0.233055	-0.841704	-0.843007	-0.077312	34.1007	-0.840004	-1.567982E+11	4.930674E-13	NaN
370	1.000000	0.242357	7.36868e+06	-57139.1	955.818	-29737.7	0.000000	0.000000	6.242816	-0.012503	NaN	0.000000	0.001629	0.001754	28.082	0.068906	0.002144	32.1394	3.961321	-164.761	0.036290	0.241023	-0.833705	-0.835039	-0.012503	32.1394	-0.833413	-1.276575E+11	9.794115E-14	NaN
370	1.000000	0.250341	7.36868e+06	-57139.1	955.819	-29737.7	0.000000	0.000000	6.250800	-0.005083	NaN	0.000000	0.001647	0.001744	28.0822	0.072295	0.002055	35.1799	140.998	-164.478	-0.047286	0.249078	-0.825721	-0.826984	-0.005083	35.1799	-0.825613	-1.000728E+11	5.079557E-14	NaN
370	1.000000	0.258392	7.36868e+06	-57139.1	955.819	-29737.7	0.000000	0.000000	6.258849	-0.084101	NaN	0.000000	0.001665	0.001719	28.0828	0.096088	0.001964	48.9225	69.4425	-161.114	-0.021201	0.257035	-0.817670	-0.819027	-0.084101	48.9225	-0.816381	-7.501095E+10	1.121186E-12	NaN
370	1.000000	0.266419	7.36868e+06	-57139.1	955.818	-29737.7	0.000000	0.000000	6.266878	-0.006363	NaN	0.000000	0.001644	0.001711	28.0827	0.068316	0.002089	32.7077	-61.3825	-167.564	-0.022188	0.265037	-0.809643	-0.811025	-0.006363	32.7077	-0.809497	-6.049918E+10	1.051690E-13	NaN
370	1.000000	0.274394	7.36868e+06	-57139.1	955.819	-29737.7	0.000000	0.000000	6.274853	-0.010966	NaN	0.000000	0.001627	0.001707	28.0824	0.004246	0.002012	2.110834	-132.806	-169.472	0.037467	0.273092	-0.801668	-0.802970	-0.010966	2.110834	-0.797772	-4.193874E+10	2.614704E-13	NaN
370	1.000000	0.282384	7.36868e+06	-57139.1	955.819	-29737.7	0.000000	0.000000	6.282842	-0.040688	NaN	0.000000	0.001678	0.001721	28.0822	0.058684	0.002033	28.8696	141.038	-163.662	-0.000940	0.281082	-0.793678	-0.794980	-0.040688	28.8696	-0.792621	-3.570091E+10	1.139680E-12	NaN
370	1.000000	0.290385	7.36868e+06	-57139.1	955.818	-29737.7	0.000000	0.000000	6.290842	-0.061156	NaN	0.000000	0.001678	0.001707	28.0822	0.111148	0.002053	54.1415	-72.8766	-165.293	-0.096274	0.289080	-0.785677	-0.786982	-0.061156	54.1415	-0.784830	-2.798049E+10	2.185663E-12	NaN
370	1.000000	0.298402	7.36868e+06	-57139.1	955.818	-29737.7	0.000000	0.000000	6.298860	-0.029041	NaN	0.000000	0.001638	0.001710	28.0823	0.039764	0.001913	20.7826	-77.1842	-164.392	-0.049439	0.297102	-0.777660	-0.778960	-0.029041	20.7826	-0.776612	-2.163683E+10	1.342188E-12	NaN
370	1.000000	0.306399	7.36868e+06	-57139.1	955.817	-29737.7	0.000000	0.000000	6.306857	-0.024247	NaN	0.000000	0.001650	0.001717	28.0822	0.076750	0.002078	36.9381	0.041244	-165.287	0.015801	0.304986	-0.769663	-0.771076	-0.024247	36.9381	-0.769171	-1.714097E+10	1.414592E-12	NaN
370	1.000000	0.314399	7.36868e+06	-57139.1	955.817	-29737.7	0.000000	0.000000	6.314860	0.045706	NaN	0.000000	0.001641	0.001746	28.0822	0.118316	0.002045	57.8512	152.648	-163.267	-0.008455	0.313118	-0.761664	-0.762944	0.045706	57.8512	-0.762256	-1.380360E+10	-3.311192E-12	NaN
370	1.000000	0.322426	7.36868e+06	-57139.1	955.818	-29737.7	0.000000	0.000000	6.322885	-0.021159	NaN	0.000000	0.001700	0.001716	28.0823	0.012645	0.002011	6.286643	130.297	-168.77	0.000505	0.321107	-0.753636	-0.754955	-0.021159	6.286643	-0.751111	-9.735256E+9	2.173466E-12	NaN
370	1.000000	0.330385	7.36868e+06	-57139.1	955.817	-29737.7	0.000000	0.000000	6.330843	-0.048549	NaN	0.000000	0.001732	0.001729	28.082	0.098829	0.002083	47.4439	73.2252	-164.732	-0.022588	0.329029	-0.745677	-0.747033	-0.048549	47.4439	-0.744909	-8.015216E+9	6.057061E-12	NaN
370	1.000000	0.338395	7.36868e+06	-57139.1	955.819	-29737.7	0.000000	0.000000	6.338853	-0.037203	NaN	0.000000	0.001716	0.001754	28.0819	0.058862	0.001949	30.2068	-128.869	-168.584	-0.085395	0.337087	-0.737667	-0.738976	-0.037203	30.2068	-0.736744	-6.204385E+9	5.996181E-12	NaN
370	1.000000	0.346428	7.36868e+06	-57139.1	955.818	-29737.7	0.000000	0.000000	6.346890	0.048600	NaN	0.000000	0.001739	0.001723	28.0807	0.069958	0.001902	36.7808	141.389	-169.909	0.063657	0.345128	-0.729634	-0.730934	0.048600	36.7808	-0.730625	-5.120631E+9	-9.491067E-12	NaN
370	1.000000	0.354414	7.36868e+06	-57139.1	955.819	-29737.7	0.000000	0.000000	6.354873	-0.004347	NaN	0.000000	0.001711	0.001722	28.0809	0.070829	0.002018	35.1005	48.5319	-165.055	-0.074568	0.353129	-0.721648	-0.722933	-0.004347	35.1005	-0.721555	-3.851986E+9	1.128605E-12	NaN
370	1.000000	0.362439	7.36868e+06	-57139.1	955.817	-29737.7	0.000000	0.000000	6.362898	-0.030717	NaN	0.000000	0.001770	0.001728	28.081	0.131281	0.002123	61.8478	-23.3242	-165.868	-0.030561	0.361112	-0.713623	-0.714951	-0.030717	61.8478	-0.713250	-2.967561E+9	1.035077E-11	NaN
370	1.000000	0.370407	7.36869e+06	-57139.1	955.819	-29737.7	0.000000	0.000000	6.370865	-0.059725	NaN	0.000000	0.001754	0.001736	28.0812	0.031586	0.002074	15.2277	-94.4655	-171.585	0.030349	0.369117	-0.705655	-0.706946	-0.059725	15.2277	-0.702713	-2.130982E+9	2.802713E-11	NaN
370	1.000000	0.378422	7.36869e+06	-57139.1	955.818	-29737.7	0.000000	0.000000	6.378885	0.066997	NaN	0.000000	0.001752	0.001709	28.0812	0.036542	0.002025	18.0456	-161.139	-167.378	0.095349	0.377064	-0.697640	-0.698998	0.066997	18.0456	-0.700424	-1.983013E+9	-3.378561E-11	NaN
370	1.000000	0.386418	7.36869e+06	-57139.1	955.818	-29737.7	0.000000	0.000000	6.386876	-0.041598	NaN	0.000000	0.001737	0.001715	28.0808	0.060087	0.001977	30.3957	107.864	-165.156	0.027102	0.385116	-0.689644	-0.690946	-0.041598	30.3957	-0.688617	-1.367801E+9	3.041230E-11	NaN
370	1.000000	0.394430	7.36869e+06	-57139.1	955.818	-29737.7	0.000000	0.000000	6.394889	-0.018147	NaN	0.000000	0.001780	0.001688	28.0808	0.043066	0.002079	20.7109	113.062	-169.412	-0.033547	0.393102	-0.681632	-0.682960	-0.018147	20.7109	-0.680975	-1.075319E+9	1.687564E-11	NaN
370	1.000000	0.402466	7.36869e+06	-57139.1	955.818	-29737.7	0.000000	0.000000	6.402926	0.008899	NaN	0.000000	0.001727	0.001697	28.0809	0.055200	0.001960	28.1688	-134.563	-165.485	-0.017513	0.401111	-0.673596	-0.674951	0.008899	28.1688	-0.673833	-8.586974E+8	-1.036375E-11	NaN
370	1.000000	0.410445	7.36869e+06	-57139.1	955.818	-29737.7	0.000000	0.000000	6.410905	0.000742	NaN	0.000000	0.001718	0.001691	28.0809	0.116736	0.001915	60.9575	1.747549	-167.532	0.012888	0.409132	-0.665617	-0.666930	0.000742	60.9575	-0.665626	-6.630036E+8	-1.119098E-12	NaN
370	1.000000	0.418451	7.36869e+06	-57139.1	955.818	-29737.7	0.000000	0.000000	6.418910	-0.008534	NaN	0.000000	0.001753	0.001727	28.0808	0.033243	0.002050	16.2122	-166.063	-165.506	-0.042809	0.417132	-0.657611	-0.658930	-0.008534	16.2122	-0.657217	-5.085553E+8	1.678058E-11	NaN
370	1.000000	0.426442	7.36869e+06	-57139.1	955.818	-29737.7	0.000000	0.000000	6.426899	-0.053922	NaN	0.000000	0.001747	0.001692	28.0808	0.055903	0.002049	27.2799	-151.897	-169.345	-0.074338	0.425128	-0.649621	-0.650934	-0.053922	27.2799	-0.648138	-3.818657E+8	1.412067E-10	NaN
370	1.000000	0.434465	7.36869e+06	-57139.1	955.818	-29737.7	0.000000	0.000000	6.434922	-0.061976	NaN	0.000000	0.001742	0.001725	28.0808	0.057210	0.001958	29.2247	-53.369	-166.512	-0.023417	0.433140	-0.641597	-0.642922	-0.061976	29.2247	-0.640007	-2.953803E+8	2.098174E-10	NaN
370	1.000000	0.442476	7.36869e+06	-57139.1	955.818	-29737.7	0.000000	0.000000	6.442934	-0.034635	NaN	0.000000	0.001709	0.001758	28.0807	0.023777	0.001830	12.994	-160.975	-164.658	-0.021096	0.441111	-0.633586	-0.634951	-0.034635	12.994	-0.631587	-2.263673E+8	1.530042E-10	NaN
370	1.000000	0.450447	7.36869e+06	-57139.1	955.819	-29737.7	0.000000	0.000000	6.450910	0.089577	NaN	0.000000	0.001753	0.001715	28.0808	0.047772	0.001957	24.4158	71.7666	-172.146	0.089096	0.449154	-0.625615	-0.626909	0.089577	24.4158	-0.628367	-2.044538E+8	-4.381305E-10	NaN
370	1.000000	0.458494	7.36869e+06	-57139.1	955.819	-29737.7	0.000000	0.000000	6.458952	-0.035662	NaN	0.000000	0.001710	0.001747	28.0807	0.019659	0.002059	9.549568	-135.086	-164.193	-0.023359	0.457186	-0.617568	-0.618877	-0.035662	9.549568	-0.614767	-1.329512E+8	2.682304E-10	NaN
370	1.000000	0.466459	7.36869e+06	-57139.1	955.818	-29737.7	0.000000	0.000000	6.466918	0.004522	NaN	0.000000	0.001758	0.001727	28.0808	0.054586	0.002096	26.0457	-3.448356	-165.563	0.015964	0.465137	-0.609604	-0.610925	0.004522	26.0457	-0.609734	-1.133581E+8	-3.989392E-11	NaN
370	1.000000	0.474493	7.36869e+06	-57139.1	955.817	-29737.7	0.000000	0.000000	6.474956	0.076045	NaN	0.000000	0.001731	0.001727	28.0808	0.022188	0.002079	10.6715	-167.109	-169.187	0.010303	0.473161	-0.601569	-0.602901	0.076045	10.6715	-0.606913	-1.036661E+8	-7.335536E-10	NaN
370	1.000000	0.482487	7.36869e+06	-57139.1	955.818	-29737.7	0.000000	0.000000	6.482945	-0.027254	NaN	0.000000	0.001757	0.001741	28.0817	0.058968	0.001957	30.1393	-8.852378	-163.826	-0.055361	0.481191	-0.593575	-0.594871	-0.027254	30.1393	-0.592897	-6.646614E+7	4.100400E-10	NaN
370	1.000000	0.490480	7.36869e+06	-57139.1	955.818	-29737.7	0.000000	0.000000	6.490939	-0.016510	NaN	0.000000	0.001701	0.001744	28.082	0.055966	0.002067	27.0728	55.1989	-166.826	-0.045954	0.489161	-0.585582	-0.586901	-0.016510	27.0728	-0.585125	-5.193236E+7	3.179124E-10	NaN
370	1.000000	0.498474	7.36869e+06	-57139.1	955.818	-29737.7	0.000000	0.000000	6.498934	-0.003420	NaN	0.000000	0.001692	0.001750	28.0819	0.035986	0.001965	18.3175	-98.8621	-171.717	-0.062604	0.497205	-0.577588	-0.578857	-0.003420	18.3175	-0.577448	-4.069105E+7	8.405761E-11	NaN
370	1.000000	0.506474	7.36869e+06	-57139.1	955.818	-29737.7	0.000000	0.000000	6.506933	-0.016557	NaN	0.000000	0.001707	0.001685	28.0821	0.119997	0.001929	62.2033	54.8583	-167.284	0.010297	0.505203	-0.569589	-0.570859	-0.016557	62.2033	-0.569389	-3.149120E+7	5.257686E-10	NaN
370	1.000000	0.514507	7.36869e+06	-57139.1	955.818	-29737.7	0.000000	0.000000	6.514968	0.022388	NaN	0.000000	0.001708	0.001719	28.082	0.103125	0.001910	53.9927	-90.9124	-167.43	0.034323	0.513174	-0.561555	-0.562888	0.022388	53.9927	-0.561866	-2.478501E+7	-9.032707E-10	NaN
370	1.000000	0.522503	7.36869e+06	-57139.1	955.817	-29737.7	0.000000	0.000000	6.522962	-0.032139	NaN	0.000000	0.001711	0.001742	28.0819	0.091281	0.001999	45.6667	156.747	-166.597	-0.003788	0.521205	-0.553559	-0.554857	-0.032139	45.6667	-0.553031	-1.870387E+7	1.718320E-9	NaN
370	1.000000	0.530478	7.36869e+06	-57139.1	955.818	-29737.7	0.000000	0.000000	6.530936	-0.060025	NaN	0.000000	0.001740	0.001735	28.0822	0.143411	0.001965	72.99	102.392	-166.031	0.007258	0.529224	-0.545584	-0.546838	-0.060025	72.99	-0.544967	-1.446180E+7	4.150566E-9	NaN
370	1.000000	0.538523	7.36869e+06	-57139.1	955.818	-29737.7	0.000000	0.000000	6.538985	0.047640	NaN	0.000000	0.001767	0.001718	28.0817	0.055712	0.001987	28.0317	135.355	-166.933	0.097374	0.537166	-0.537539	-0.538896	0.047640	28.0317	-0.538814	-1.188233E+7	-4.009283E-9	NaN
370	1.000000	0.546503	7.36869e+06	-57139.1	955.818	-29737.7	0.000000	0.000000	6.546961	-0.029936	NaN	0.000000	0.001750	0.001729	28.0818	0.028265	0.002002	14.1175	-131.936	-163.927	-0.067657	0.545172	-0.529559	-0.530890	-0.029936	14.1175	-0.527969	-8.40159e+06	3.563109E-9	NaN
370	1.000000	0.554522	7.36869e+06	-57139.1	955.818	-29737.7	0.000000	0.000000	6.554981	-0.004415	NaN	0.000000	0.001738	0.001719	28.0823	0.065954	0.001798	36.6733	140.051	-166.94	-0.018194	0.553185	-0.521540	-0.522877	-0.004415	36.6733	-0.521450	-6.81961e+06	6.474028E-10	NaN
370	1.000000	0.562497	7.36869e+06	-57139.1	955.818	-29737.7	0.000000	0.000000	6.562957	0.008916	NaN	0.000000	0.001774	0.001716	28.0818	0.105639	0.002020	52.3078	-21.5371	-166.967	-0.056696	0.561192	-0.513565	-0.514870	0.008916	52.3078	-0.513693	-5.31918e+06	-1.676205E-9	NaN
370	1.000000	0.570525	7.36869e+06	-57139.1	955.819	-29737.7	0.000000	0.000000	6.570985	-0.000459	NaN	0.000000	0.001740	0.001710	28.0821	0.049867	0.002001	24.9255	-62.2685	-164.452	0.035949	0.569216	-0.505537	-0.506847	-0.000459	24.9255	-0.505523	-4.09294e+06	1.121763E-10	NaN
370	1.000000	0.578524	7.36869e+06	-57139.1	955.818	-29737.7	0.000000	0.000000	6.578981	-0.060947	NaN	0.000000	0.001678	0.001721	28.0819	0.058678	0.002059	28.4922	-21.3135	-166.495	-0.091004	0.577221	-0.497539	-0.498842	-0.060947	28.4922	-0.495934	-3.008e+06	2.026163E-8	NaN
370	1.000000	0.586488	7.36869e+06	-57139.1	955.817	-29737.7	0.000000	0.000000	6.586948	-0.002586	NaN	0.000000	0.001686	0.001699	28.0821	0.078273	0.001941	40.3293	-44.9757	-165.338	-0.013147	0.585184	-0.489574	-0.490878	-0.002586	40.3293	-0.489526	-2.44775e+06	1.056653E-9	NaN
370	1.000000	0.594544	7.36869e+06	-57139.1	955.819	-29737.7	0.000000	0.000000	6.595002	-0.042322	NaN	0.000000	0.001696	0.001693	28.082	0.069645	0.002046	34.0339	-119.104	-166.017	0.018415	0.593173	-0.481518	-0.482889	-0.042322	34.0339	-0.480585	-1.83534e+06	2.305948E-8	NaN
370	1.000000	0.602550	7.36869e+06	-57139.1	955.819	-29737.7	0.000000	0.000000	6.603008	-0.042349	NaN	0.000000	0.001665	0.001734	28.082	0.045393	0.001906	23.8111	-45.5271	-164.35	-0.042049	0.601220	-0.473512	-0.474842	-0.042349	23.8111	-0.472178	-1.39943e+06	3.026151E-8	NaN
370	1.000000	0.610529	7.36869e+06	-57139.1	955.818	-29737.7	0.000000	0.000000	6.610988	-0.031619	NaN	0.000000	0.001659	0.001730	28.0822	0.057164	0.001923	29.7204	-146.792	-169.317	0.039841	0.609204	-0.465533	-0.466858	-0.031619	29.7204	-0.464735	-1.10034e+06	2.873576E-8	NaN
370	1.000000	0.618507	7.36869e+06	-57139.1	955.818	-29737.7	0.000000	0.000000	6.618966	-0.014811	NaN	0.000000	0.001653	0.001725	28.0809	0.131261	0.001941	67.6108	81.2816	-167.438	-0.055255	0.617203	-0.457555	-0.458859	-0.014811	67.6108	-0.457391	-867642	1.707034E-8	NaN
370	1.000000	0.626522	7.36869e+06	-57139.1	955.818	-29737.7	0.000000	0.000000	6.626980	-0.035379	NaN	0.000000	0.001662	0.001702	28.0809	0.061058	0.002078	29.3831	-112.898	-164.951	-0.021931	0.625156	-0.449540	-0.450907	-0.035379	29.3831	-0.448637	-653349	5.414950E-8	NaN
370	1.000000	0.634501	7.36869e+06	-57139.1	955.818	-29737.7	0.000000	0.000000	6.634962	0.028194	NaN	0.000000	0.001633	0.001697	28.0808	0.053122	0.002047	25.9551	159.623	-165.523	0.016150	0.633184	-0.441561	-0.442878	0.028194	25.9551	-0.442375	-533187	-5.287762E-8	NaN
370	1.000000	0.642527	7.36869e+06	-57139.1	955.818	-29737.7	0.000000	0.000000	6.642985	-0.028504	NaN	0.000000	0.001616	0.001705	28.0807	0.048630	0.002056	23.6552	82.4257	-166.829	-0.044751	0.641305	-0.433536	-0.434758	-0.028504	23.6552	-0.432632	-388403	7.338748E-8	NaN
370	1.000000	0.650566	7.36869e+06	-57139.1	955.818	-29737.7	0.000000	0.000000	6.651027	0.026597	NaN	0.000000	0.001637	0.001687	28.0808	0.094672	0.002021	46.8385	114.487	-168.178	0.026987	0.649168	-0.425496	-0.426894	0.026597	46.8385	-0.425922	-312136	-8.520968E-8	NaN
370	1.000000	0.658546	7.36869e+06	-57139.1	955.818	-29737.7	0.000000	0.000000	6.659005	-0.019040	NaN	0.000000	0.001694	0.001731	28.0807	0.078868	0.002006	39.3193	-41.2076	-164.422	0.016515	0.657255	-0.417516	-0.418807	-0.019040	39.3193	-0.417152	-234431	8.121762E-8	NaN
370	1.000000	0.666537	7.36869e+06	-57139.1	955.818	-29737.7	0.000000	0.000000	6.666998	0.026148	NaN	0.000000	0.001712	0.001730	28.0808	0.013966	0.001894	7.375323	176.145	-167.159	0.083847	0.665220	-0.409525	-0.410843	0.026148	7.375323	-0.412184	-199275	-1.312148E-7	NaN
370	1.000000	0.674549	7.36869e+06	-57139.1	955.818	-29737.7	0.000000	0.000000	6.675007	-0.028843	NaN	0.000000	0.001763	0.001708	28.0808	0.037704	0.001929	19.5407	-43.6025	-164.096	-0.068865	0.673182	-0.401513	-0.402880	-0.028843	19.5407	-0.400406	-135453	2.129410E-7	NaN
370	1.000000	0.682599	7.36869e+06	-57139.1	955.818	-29737.7	0.000000	0.000000	6.683060	0.011073	NaN	0.000000	0.001745	0.001704	28.0808	0.064579	0.001952	33.08	-31.026	-164.197	0.088713	0.681246	-0.393463	-0.394816	0.011073	33.08	-0.393714	-108708	-1.018641E-7	NaN
370	1.000000	0.690572	7.36869e+06	-57139.1	955.819	-29737.7	0.000000	0.000000	6.691031	-0.014453	NaN	0.000000	0.001711	0.001678	28.0807	0.040784	0.002025	20.1448	115.253	-167.063	0.000819	0.689280	-0.385490	-0.386782	-0.014453	20.1448	-0.384952	-81450.5	1.774394E-7	NaN
370	1.000000	0.698576	7.36869e+06	-57139.1	955.818	-29737.7	0.000000	0.000000	6.699033	-0.072111	NaN	0.000000	0.001700	0.001725	28.0808	0.056838	0.002044	27.8009	-89.9418	-167.643	-0.092360	0.697198	-0.377486	-0.378864	-0.072111	27.8009	-0.375541	-59682	1.208252E-6	NaN
370	1.000000	0.706585	7.36869e+06	-57139.1	955.818	-29737.7	0.000000	0.000000	6.707040	-0.094078	NaN	0.000000	0.001711	0.001730	28.0809	0.125120	0.001929	64.8569	-9.395279	-166.621	-0.123150	0.705243	-0.369478	-0.370819	-0.094078	64.8569	-0.368390	-47090.2	1.997825E-6	NaN
370	1.000000	0.714551	7.36869e+06	-57139.1	955.819	-29737.7	0.000000	0.000000	6.715009	-0.024569	NaN	0.000000	0.001721	0.001746	28.0809	0.074159	0.002096	35.3777	0.968868	-163.202	-0.017200	0.713255	-0.361512	-0.362807	-0.024569	35.3777	-0.360991	-36826.8	6.671635E-7	NaN
370	1.000000	0.722586	7.36869e+06	-57139.1	955.817	-29737.7	0.000000	0.000000	6.723047	0.015978	NaN	0.000000	0.001717	0.001710	28.0808	0.043476	0.002015	21.581	-117.634	-169.517	0.010800	0.721291	-0.353476	-0.354771	0.015978	21.581	-0.354031	-29205.3	-5.470843E-7	NaN
370	1.000000	0.730588	7.36869e+06	-57139.1	955.818	-29737.7	0.000000	0.000000	6.731047	-0.017691	NaN	0.000000	0.001712	0.001696	28.0807	0.081630	0.002051	39.8049	-146.94	-167.854	-0.018867	0.729249	-0.345474	-0.346813	-0.017691	39.8049	-0.345141	-21697.1	8.153527E-7	NaN
370	1.000000	0.738578	7.36869e+06	-57139.1	955.819	-29737.7	0.000000	0.000000	6.739036	-0.050340	NaN	0.000000	0.001722	0.001717	28.0809	0.051255	0.001891	27.1103	-20.6174	-165.596	-0.027533	0.737245	-0.337484	-0.338817	-0.050340	27.1103	-0.336091	-16015.1	3.143309E-6	NaN
370	1.000000	0.746614	7.36869e+06	-57139.1	955.818	-29737.7	0.000000	0.000000	6.747071	-0.074446	NaN	0.000000	0.001659	0.001717	28.081	0.054816	0.001980	27.6782	-91.7382	-169.651	-0.044162	0.745258	-0.329448	-0.330804	-0.074446	27.6782	-0.327431	-11962	6.223555E-6	NaN
370	1.000000	0.754582	7.36869e+06	-57139.1	955.817	-29737.7	0.000000	0.000000	6.755043	0.037975	NaN	0.000000	0.001723	0.001698	28.0822	0.019480	0.001973	9.870795	177.221	-166.712	0.038149	0.753264	-0.321480	-0.322798	0.037975	9.870795	-0.324366	-10785	-3.521074E-6	NaN
370	1.000000	0.762586	7.36869e+06	-57139.1	955.819	-29737.7	0.000000	0.000000	6.763044	-0.038664	NaN	0.000000	0.001703	0.001611	28.0837	0.044182	0.001878	23.5215	-57.3264	-167.106	0.010711	0.761275	-0.313477	-0.314787	-0.038664	23.5215	-0.312244	-7148.92	5.408347E-6	NaN
370	1.000000	0.770603	7.36869e+06	-57139.1	955.818	-29737.7	0.000000	0.000000	6.771063	-0.002222	NaN	0.000000	0.001715	0.001615	28.0821	0.019199	0.001849	10.3847	92.8021	-168.397	0.022669	0.769296	-0.305459	-0.306766	-0.002222	10.3847	-0.305298	-5641.37	3.939485E-7	NaN
370	1.000000	0.778634	7.36869e+06	-57139.1	955.818	-29737.7	0.000000	0.000000	6.779091	-0.058981	NaN	0.000000	0.001692	0.001628	28.0822	0.190152	0.001905	99.8048	173.318	-166.188	-0.042427	0.777245	-0.297429	-0.298817	-0.058981	99.8048	-0.296985	-4243.43	1.389926E-5	NaN
370	1.000000	0.786599	7.36869e+06	-57139.1	955.818	-29737.7	0.000000	0.000000	6.787058	-0.020021	NaN	0.000000	0.001718	0.001635	28.0821	0.078289	0.002065	37.9091	-175.406	-163.007	0.017632	0.785266	-0.289463	-0.290796	-0.020021	37.9091	-0.289067	-3230.84	6.196687E-6	NaN
370	1.000000	0.794608	7.36869e+06	-57139.1	955.817	-29737.7	0.000000	0.000000	6.795067	-0.027452	NaN	0.000000	0.001647	0.001606	28.0822	0.072441	0.001963	36.906	148.649	-164.041	-0.037777	0.793288	-0.281454	-0.282774	-0.027452	36.906	-0.280896	-2434.92	1.127407E-5	NaN
370	1.000000	0.802639	7.36869e+06	-57139.1	955.818	-29737.7	0.000000	0.000000	6.803099	-0.008951	NaN	0.000000	0.001658	0.001650	28.0826	0.182308	0.001948	93.5985	110.833	-168.325	-0.058934	0.801315	-0.273423	-0.274747	-0.008951	93.5985	-0.273351	-1872.48	4.780160E-6	NaN
370	1.000000	0.810621	7.36869e+06	-57139.1	955.819	-29737.7	0.000000	0.000000	6.811080	-0.021839	NaN	0.000000	0.001630	0.001625	28.082	0.063232	0.002091	30.2364	178.115	-164.166	-0.023845	0.809296	-0.265441	-0.266766	-0.021839	30.2364	-0.264899	-1392.67	1.568153E-5	NaN
370	1.000000	0.818621	7.36869e+06	-57139.1	955.818	-29737.7	0.000000	0.000000	6.819080	-0.023127	NaN	0.000000	0.001642	0.001645	28.0822	0.044876	0.002238	20.0561	-70.4416	-166.355	0.005481	0.817288	-0.257441	-0.258774	-0.023127	20.0561	-0.256576	-1038.4	2.227198E-5	NaN
370	1.000000	0.826625	7.36869e+06	-57139.1	955.818	-29737.7	0.000000	0.000000	6.827087	0.036825	NaN	0.000000	0.001664	0.001647	28.0821	0.052245	0.001992	26.2212	-114.487	-168.509	0.041245	0.825303	-0.249437	-0.250759	0.036825	26.2212	-0.250490	-836.652	-4.401508E-5	NaN
370	1.000000	0.834606	7.36869e+06	-57139.1	955.817	-29737.7	0.000000	0.000000	6.835066	-0.008245	NaN	0.000000	0.001620	0.001651	28.082	0.099981	0.001813	55.138	-171.11	-165.129	0.122389	0.833250	-0.241456	-0.242812	-0.008245	55.138	-0.241344	-603.287	1.366744E-5	NaN
370	1.000000	0.842616	7.36869e+06	-57139.1	955.818	-29737.7	0.000000	0.000000	6.843073	-0.070675	NaN	0.000000	0.001616	0.001669	28.0822	0.076657	0.001966	39.0005	169.444	-167.443	-0.105987	0.841343	-0.233446	-0.234719	-0.070675	39.0005	-0.232087	-431.95	0.000164	NaN
370	1.000000	0.850651	7.36869e+06	-57139.1	955.817	-29737.7	0.000000	0.000000	6.851109	-0.033188	NaN	0.000000	0.001589	0.001681	28.0819	0.036252	0.001868	19.4093	-109.094	-164.103	0.032053	0.849271	-0.225411	-0.226791	-0.033188	19.4093	-0.224129	-323.213	0.000103	NaN
370	1.000000	0.858621	7.36869e+06	-57139.1	955.819	-29737.7	0.000000	0.000000	6.859080	-0.030125	NaN	0.000000	0.001586	0.001626	28.0823	0.023606	0.002091	11.2874	147.544	-167.572	-0.001950	0.857314	-0.217441	-0.218748	-0.030125	11.2874	-0.215439	-234.734	0.000128	NaN
370	1.000000	0.866613	7.36869e+06	-57139.1	955.818	-29737.7	0.000000	0.000000	6.867075	0.035888	NaN	0.000000	0.001630	0.001675	28.082	0.077059	0.002013	38.2736	-129.023	-164.21	0.027777	0.865305	-0.209449	-0.210757	0.035888	38.2736	-0.210152	-192.877	-0.000186	NaN
370	1.000000	0.874664	7.36869e+06	-57139.1	955.818	-29737.7	0.000000	0.000000	6.875125	0.027649	NaN	0.000000	0.001612	0.001656	28.082	0.067445	0.002067	32.6364	-140.042	-167.715	-0.089286	0.873368	-0.201398	-0.202694	0.027649	32.6364	-0.202034	-142.255	-0.000194	NaN
370	1.000000	0.882611	7.36869e+06	-57139.1	955.818	-29737.7	0.000000	0.000000	6.883068	-0.050696	NaN	0.000000	0.001644	0.001661	28.082	0.018959	0.001901	9.974774	77.6393	-164.665	0.046222	0.881302	-0.193451	-0.194760	-0.050696	9.974774	-0.189640	-88.7164	0.000571	NaN
370	1.000000	0.890655	7.36869e+06	-57139.1	955.817	-29737.7	0.000000	0.000000	6.891112	-0.066662	NaN	0.000000	0.001658	0.001619	28.0807	0.113937	0.001925	59.186	-92.3366	-165.525	-0.041708	0.889317	-0.185407	-0.186745	-0.066662	59.186	-0.184562	-72.904	0.000914	NaN
370	1.000000	0.898642	7.36869e+06	-57139.1	955.819	-29737.7	0.000000	0.000000	6.899101	0.002965	NaN	0.000000	0.001654	0.001660	28.0814	0.106486	0.002073	51.3803	81.2664	-163.317	0.041480	0.897335	-0.177421	-0.178727	0.002965	51.3803	-0.177464	-55.2345	-5.367341E-5	NaN
370	1.000000	0.906642	7.36869e+06	-57139.1	955.818	-29737.7	0.000000	0.000000	6.907100	-0.047465	NaN	0.000000	0.001640	0.001685	28.0808	0.036485	0.001949	18.7228	-86.0325	-169.968	-0.027935	0.905359	-0.169420	-0.170703	-0.047465	18.7228	-0.167519	-37.1883	0.001276	NaN
370	1.000000	0.914684	7.36869e+06	-57139.1	955.818	-29737.7	0.000000	0.000000	6.915145	0.032436	NaN	0.000000	0.001656	0.001661	28.0808	0.123421	0.001872	65.9388	144.799	-169.332	-0.057414	0.913356	-0.161378	-0.162706	0.032436	65.9388	-0.161747	-29.4415	-0.001102	NaN
370	1.000000	0.922685	7.36869e+06	-57139.1	955.817	-29737.7	0.000000	0.000000	6.923140	-0.097619	NaN	0.000000	0.001625	0.001634	28.0808	0.100058	0.001975	50.6684	-19.6407	-165.17	-0.150498	0.921364	-0.153378	-0.154698	-0.097619	50.6684	-0.151933	-19.6407	0.004970	NaN
370	1.000000	0.930657	7.36869e+06	-57139.1	955.817	-29737.7	0.000000	0.000000	6.931117	0.002790	NaN	0.000000	0.001668	0.001642	28.0808	0.050974	0.001993	25.5746	6.972942	-169.916	-0.086175	0.929344	-0.145405	-0.146718	0.002790	25.5746	-0.145487	-14.968	-0.000186	NaN
370	1.000000	0.938666	7.36869e+06	-57139.1	955.818	-29737.7	0.000000	0.000000	6.939125	-0.022182	NaN	0.000000	0.001713	0.001601	28.0816	0.046004	0.002133	21.5633	-94.2206	-166.127	-0.095669	0.937382	-0.137396	-0.138680	-0.022182	21.5633	-0.136625	-10.2147	0.002172	NaN
370	1.000000	0.946651	7.36869e+06	-57139.1	955.819	-29737.7	0.000000	0.000000	6.947108	-0.078063	NaN	0.000000	0.001708	0.001642	28.0807	0.051500	0.002008	25.6494	-87.0616	-165.285	-0.019123	0.945364	-0.129411	-0.130698	-0.078063	25.6494	-0.127128	-6.697867	0.011655	NaN
370	1.000000	0.954667	7.36869e+06	-57139.1	955.818	-29737.7	0.000000	0.000000	6.955125	-0.030741	NaN	0.000000	0.001697	0.001633	28.0808	0.084879	0.001974	43.0034	119.97	-167.148	-0.023358	0.953392	-0.121395	-0.122670	-0.030741	43.0034	-0.120859	-5.027966	0.006114	NaN
370	1.000000	0.962675	7.36869e+06	-57139.1	955.818	-29737.7	0.000000	0.000000	6.963133	-0.045832	NaN	0.000000	0.001735	0.001659	28.0808	0.037241	0.001899	19.6122	118.775	-170.195	-0.031897	0.961344	-0.113387	-0.114718	-0.045832	19.6122	-0.111635	-3.252427	0.014092	NaN
370	1.000000	0.970669	7.36869e+06	-57139.1	955.819	-29737.7	0.000000	0.000000	6.971125	-0.088629	NaN	0.000000	0.001696	0.001592	28.0808	0.062522	0.002107	29.6776	11.5369	-164.877	-0.054238	0.969359	-0.105393	-0.106703	-0.088629	29.6776	-0.103153	-2.143342	0.041351	NaN
370	1.000000	0.978694	7.36869e+06	-57139.1	955.819	-29737.7	0.000000	0.000000	6.979154	-0.005568	NaN	0.000000	0.001702	0.001604	28.081	0.157694	0.002168	72.7257	-10.7103	-166.979	-0.038097	0.977393	-0.097368	-0.098669	-0.005568	72.7257	-0.097310	-1.591177	0.003499	NaN
370	1.000000	0.986667	7.36869e+06	-57139.1	955.819	-29737.7	0.000000	0.000000	6.987127	0.002475	NaN	0.000000	0.001724	0.001619	28.0807	0.030715	0.001922	15.9773	127.089	-163.715	0.022737	0.985357	-0.089395	-0.090705	0.002475	15.9773	-0.089511	-1.052768	-0.002351	NaN
370	1.000000	0.994677	7.36869e+06	-57139.1	955.82	-29737.7	0.000000	0.000000	6.995137	0.009857	NaN	0.000000	0.001720	0.001613	28.0811	0.068858	0.001971	34.9372	-3.662757	-162.157	-0.085471	0.993379	-0.081385	-0.082683	0.009857	34.9372	-0.081596	-0.678255	-0.014533	NaN
370	1.000000	1.002704	7.36869e+06	-57139.1	955.819	-29737.7	0.000000	0.000000	7.003162	-0.042328	NaN	0.000000	0.001709	0.001625	28.0809	0.045882	0.001956	23.4528	-153.238	-168.918	-0.079791	1.001353	-0.073358	-0.074709	-0.042328	23.4528	-0.072004	-0.385661	0.109754	NaN
370	1.000000	1.010690	7.36869e+06	-57139.1	955.82	-29737.7	0.000000	0.000000	7.011147	-0.074060	NaN	0.000000	0.001758	0.001573	28.0806	0.023823	0.001973	12.0747	81.7118	-168.196	-0.016413	1.009374	-0.065372	-0.066688	-0.074060	12.0747	-0.060772	-0.189486	0.390846	NaN
370	1.000000	1.018725	7.36869e+06	-57139.1	955.821	-29737.7	0.000000	0.000000	7.019185	0.002948	NaN	0.000000	0.001711	0.001591	28.0811	0.068195	0.002037	33.48	-113.33	-167.307	-0.025577	1.017398	-0.057337	-0.058665	0.002948	33.48	-0.057403	-0.151489	-0.019457	NaN
370	1.000000	1.026684	7.36869e+06	-57139.1	955.821	-29737.7	0.000000	0.000000	7.027140	-0.075285	NaN	0.000000	0.001714	0.001593	28.0821	0.108932	0.001788	60.9222	159.942	-167.748	-0.017908	1.025373	-0.049379	-0.050689	-0.075285	60.9222	-0.048452	-0.081902	0.919206	NaN
370	1.000000	1.034685	7.36869e+06	-57139.1	955.82	-29737.7	0.000000	0.000000	7.035145	0.020580	NaN	0.000000	0.001710	0.001619	28.0825	0.019844	0.002070	9.587720	119.372	-165.103	-0.004268	1.033379	-0.041377	-0.042683	0.020580	9.587720	-0.042987	-0.055774	-0.368987	NaN
370	1.000000	1.042680	7.36869e+06	-57139.1	955.819	-29737.7	0.000000	0.000000	7.043136	-0.080161	NaN	0.000000	0.001708	0.001562	28.0822	0.137630	0.001958	70.2947	7.456139	-167.748	-0.076699	1.041366	-0.033383	-0.034697	-0.080161	70.2947	-0.032527	-0.027134	2.954275	NaN
370	1.000000	1.050710	7.36869e+06	-57139.1	955.818	-29737.7	0.000000	0.000000	7.051168	-0.028696	NaN	0.000000	0.001723	0.001585	28.0819	0.054017	0.001924	28.069	-131.854	-165.956	-0.005445	1.049416	-0.025352	-0.026646	-0.028696	28.069	-0.024586	-0.016456	1.743793	NaN
370	1.000000	1.058693	7.36869e+06	-57139.1	955.818	-29737.7	0.000000	0.000000	7.059152	-0.000419	NaN	0.000000	0.001743	0.001604	28.082	0.030366	0.001892	16.0519	30.8714	-166.744	-0.068781	1.057407	-0.017369	-0.018655	-0.000419	16.0519	-0.017350	-0.010736	0.038985	NaN
370	1.000000	1.066689	7.36869e+06	-57139.1	955.818	-29737.7	0.000000	0.000000	7.067150	0.020002	NaN	0.000000	0.001742	0.001613	28.082	0.016311	0.002049	7.960539	88.1358	-162.998	0.029992	1.065446	-0.009373	-0.010616	0.020002	7.960539	-0.011258	-0.007105	-2.815188	NaN
370	1.000000	1.074701	7.36869e+06	-57139.1	955.818	-29737.7	0.000000	0.000000	7.075162	0.035091	NaN	0.000000	0.001715	0.001624	28.0822	0.148109	0.001931	76.6979	151.455	-163.551	0.011068	1.073371	-0.001362	-0.002692	0.035091	76.6979	-0.001705	-0.001234	-28.4479	NaN
370	1.000000	1.082673	7.36869e+06	-57139.1	955.819	-29737.7	0.000000	0.000000	7.083320	4.550185	NaN	0.000000	0.001647	0.001585	28.082	5.546782	0.001883	2946.24	15.0803	-171.073	3.334446	1.081361	0.006611	0.005299	4.550185	2946.24	0.005453	0.004550	999.964	39904.2
370	2.000000	1.087323	7.36869e+06	-57139.1	955.82	-29737.7	0.000000	0.000000	7.088129	8.403340	NaN	0.000000	0.001643	0.001626	28.0821	9.450220	0.001708	5533.8	8.416776	-173.425	7.938850	1.087008	0.011261	0.010946	8.403340	5533.8	0.010122	0.009318	901.875	52377.4
370	2.000000	1.089306	7.36869e+06	-57139.1	955.819	-29737.7	0.000000	0.000000	7.090275	12.3736	NaN	0.000000	0.001626	0.001622	28.0819	12.06	0.001645	7332.23	10.6608	-178.91	12.2374	1.088988	0.013244	0.012926	12.3736	7332.23	0.011978	0.011464	1079.33	62565.9
370	2.000000	1.091319	7.36869e+06	-57139.1	955.818	-29737.7	0.000000	0.000000	7.092446	16.2301	NaN	0.000000	0.001625	0.001601	28.0821	14.7169	0.001861	7907.29	8.538269	-176.127	15.954	1.090953	0.015257	0.014891	16.2301	7907.29	0.013717	0.013613	1192.28	61919.8
370	2.000000	1.093240	7.36869e+06	-57139.1	955.818	-29737.7	0.000000	0.000000	7.094452	18.2762	NaN	0.000000	0.001613	0.001613	28.0824	16.3548	0.001807	9051.05	4.849570	-174.315	17.3207	1.092965	0.017178	0.016903	18.2762	9051.05	0.015664	0.016181	1129.51	65009.4
370	2.000000	1.095258	7.36869e+06	-57139.1	955.82	-29737.7	0.000000	0.000000	7.096667	23.087	NaN	0.000000	0.001632	0.001568	28.0819	19.5168	0.001955	9983.92	5.492925	-174.521	23.8623	1.094983	0.019195	0.018921	23.087	9983.92	0.017461	0.018709	1234.03	66688.9
370	2.000000	1.097197	7.36869e+06	-57139.1	955.82	-29737.7	0.000000	0.000000	7.098836	28.6762	NaN	0.000000	0.001654	0.001625	28.0822	20.5468	0.001867	11006.2	6.387019	-177.49	26.6877	1.096941	0.021135	0.020879	28.6762	11006.2	0.019181	0.021271	1348.13	68947
370	2.000000	1.099191	7.36869e+06	-57139.1	955.819	-29737.7	0.000000	0.000000	7.101137	36.1207	NaN	0.000000	0.001624	0.001595	28.0818	23.0124	0.001708	13474.4	6.084934	-179.739	33.2068	1.098903	0.023129	0.022841	36.1207	13474.4	0.021118	0.024330	1484.61	78924.4
370	2.000000	1.101288	7.36869e+06	-57139.1	955.82	-29737.7	0.000000	0.000000	7.103307	37.9019	NaN	0.000000	0.001619	0.001597	28.0819	25.4339	0.001865	13635.9	9.127849	-179.984	38.5907	1.100892	0.025225	0.024829	37.9019	13635.9	0.023141	0.027720	1367.32	74827.7
370	2.000000	1.103179	7.36869e+06	-57139.1	955.819	-29737.7	0.000000	0.000000	7.105444	43.8852	NaN	0.000000	0.001616	0.001612	28.0819	27.8045	0.001759	15810.8	6.391946	178.422	42.3176	1.102947	0.027116	0.026885	43.8852	15810.8	0.025035	0.031079	1412.06	81939.6
370	2.000000	1.105212	7.36869e+06	-57139.1	955.819	-29737.7	0.000000	0.000000	7.107659	48.2963	NaN	0.000000	0.001614	0.001610	28.0805	29.7552	0.001777	16740.7	3.494791	-178.047	48.0317	1.104932	0.029150	0.028870	48.2963	16740.7	0.026986	0.034729	1390.68	82073.5
370	2.000000	1.107181	7.36869e+06	-57139.1	955.82	-29737.7	0.000000	0.000000	7.109927	55.5632	NaN	0.000000	0.001638	0.001615	28.081	31.3642	0.001784	17585.3	4.273474	-179.687	53.9243	1.106880	0.031119	0.030818	55.5632	17585.3	0.028749	0.038192	1454.86	82212.9
370	2.000000	1.109160	7.36869e+06	-57139.1	955.819	-29737.7	0.000000	0.000000	7.112200	62.7262	NaN	0.000000	0.001568	0.001677	28.0805	33.7001	0.001727	19515.4	4.393542	178.897	60.7089	1.108882	0.033098	0.032820	62.7262	19515.4	0.030687	0.042180	1487.1	86815.4
370	2.000000	1.111301	7.36869e+06	-57139.1	955.82	-29737.7	0.000000	0.000000	7.114567	68.2088	NaN	0.000000	0.001566	0.001691	28.0807	35.9585	0.001834	19611.9	7.549099	178.037	71.7055	1.110837	0.035239	0.034775	68.2088	19611.9	0.032631	0.046373	1470.88	83207.3
370	2.000000	1.113216	7.36869e+06	-57139.1	955.82	-29737.7	0.000000	0.000000	7.116766	75.1255	NaN	0.000000	0.001585	0.001681	28.0806	37.523	0.001773	21166.7	4.817843	179.397	74.8296	1.112890	0.037154	0.036828	75.1255	21166.7	0.034492	0.050569	1485.6	85997.2
370	2.000000	1.115219	7.36869e+06	-57139.1	955.82	-29737.7	0.000000	0.000000	7.118940	79.2811	NaN	0.000000	0.001567	0.001667	28.0805	40.5225	0.001782	22740.1	2.818924	179.84	80.9407	1.114856	0.039157	0.038794	79.2811	22740.1	0.036542	0.055397	1431.14	88271.8
370	2.000000	1.117158	7.36869e+06	-57139.1	955.821	-29737.7	0.000000	0.000000	7.121238	87.9908	NaN	0.000000	0.001559	0.001688	28.0818	41.2795	0.001762	23422.1	4.799889	177	85.8378	1.116825	0.041096	0.040763	87.9908	23422.1	0.038278	0.059654	1475.02	87615
370	2.000000	1.119188	7.36869e+06	-57139.1	955.82	-29737.7	0.000000	0.000000	7.123443	92.2511	NaN	0.000000	0.001547	0.001680	28.0805	44.9069	0.001823	24636.4	5.654618	176.793	94.7817	1.118932	0.043126	0.042870	92.2511	24636.4	0.040318	0.064852	1422.49	88387.3
370	2.000000	1.121206	7.36869e+06	-57139.1	955.82	-29737.7	0.000000	0.000000	7.125991	105.138	NaN	0.000000	0.001590	0.001660	28.0807	47.006	0.001985	23682.2	5.854910	177.176	103.958	1.120853	0.045144	0.044791	105.138	23682.2	0.041814	0.068801	1528.14	82489.2
370	2.000000	1.123169	7.36869e+06	-57139.1	955.821	-29737.7	0.000000	0.000000	7.128217	111.507	NaN	0.000000	0.001587	0.001640	28.0805	48.5892	0.001862	26094.4	8.464187	173.431	109.799	1.122866	0.047107	0.046803	111.507	26094.4	0.043902	0.074502	1496.7	87344.9
370	2.000000	1.125221	7.36869e+06	-57139.1	955.82	-29737.7	0.000000	0.000000	7.130480	116.642	NaN	0.000000	0.001600	0.001660	28.0805	50.9584	0.001812	28123.2	9.166937	172.508	118.248	1.124888	0.049159	0.048826	116.642	28123.2	0.046048	0.080591	1447.34	90510
370	2.000000	1.127156	7.36869e+06	-57139.1	955.82	-29737.7	0.000000	0.000000	7.132856	127.371	NaN	0.000000	0.001608	0.001638	28.081	51.8386	0.001797	28839.4	4.045680	176.149	126.328	1.126961	0.051094	0.050898	127.371	28839.4	0.047782	0.085680	1486.6	90016.4
370	2.000000	1.129103	7.36869e+06	-57139.1	955.821	-29737.7	0.000000	0.000000	7.135307	139.636	NaN	0.000000	0.001622	0.001625	28.0805	54.6297	0.001819	30040.9	4.090797	176.275	135.786	1.128803	0.053040	0.052740	139.636	30040.9	0.049554	0.091040	1533.77	90963.9
370	2.000000	1.131169	7.36869e+06	-57139.1	955.82	-29737.7	0.000000	0.000000	7.137623	145.677	NaN	0.000000	0.001620	0.001664	28.0806	56.4731	0.001825	30945.7	4.003800	177.518	144.677	1.130822	0.055107	0.054760	145.677	30945.7	0.051577	0.097349	1496.45	90616.7
370	2.000000	1.133176	7.36869e+06	-57139.1	955.821	-29737.7	0.000000	0.000000	7.139942	153.278	NaN	0.000000	0.001634	0.001667	28.0805	59.4156	0.001909	31123.8	9.538280	171.045	155.085	1.132818	0.057114	0.056756	153.278	31123.8	0.053421	0.103278	1484.12	88483.3
370	2.000000	1.135120	7.36869e+06	-57139.1	955.819	-29737.7	0.000000	0.000000	7.142262	162.42	NaN	0.000000	0.001593	0.001671	28.0803	60.2831	0.001832	32904.5	3.774995	175.493	159.77	1.134916	0.059058	0.058853	162.42	32904.5	0.055356	0.109683	1480.81	90773.5
370	2.000000	1.137164	7.36869e+06	-57139.1	955.821	-29737.7	0.000000	0.000000	7.144784	174.027	NaN	0.000000	0.001552	0.001660	28.0809	61.3453	0.001760	34862.4	5.936494	173.35	173.15	1.136854	0.061102	0.060792	174.027	34862.4	0.057358	0.116504	1493.74	93316.7
370	2.000000	1.139221	7.36869e+06	-57139.1	955.82	-29737.7	0.000000	0.000000	7.147018	178.323	NaN	0.000000	0.001564	0.001672	28.0816	65.9605	0.001897	34771	8.545063	170.402	183.284	1.138822	0.063159	0.062760	178.323	34771	0.059313	0.123355	1445.61	90450.7
370	2.000000	1.141156	7.36869e+06	-57139.1	955.82	-29737.7	0.000000	0.000000	7.149655	195.395	NaN	0.000000	0.001591	0.001666	28.0816	65.7251	0.001730	37994.3	4.718363	174.189	194.169	1.140757	0.065094	0.064695	195.395	37994.3	0.061237	0.130281	1499.8	96172.4
370	2.000000	1.143154	7.36869e+06	-57139.1	955.82	-29737.7	0.000000	0.000000	7.151989	203.573	NaN	0.000000	0.001565	0.001665	28.0817	67.0249	0.001734	38652.5	4.468238	173.492	202.536	1.142825	0.067091	0.066763	203.573	38652.5	0.063141	0.137313	1482.54	95300.2
370	2.000000	1.145116	7.36869e+06	-57139.1	955.82	-29737.7	0.000000	0.000000	7.154247	210.757	NaN	0.000000	0.001562	0.001672	28.0817	69.6014	0.001835	37932.1	1.675334	176.478	207.402	1.144915	0.069053	0.068853	210.757	37932.1	0.064886	0.143911	1464.5	91355.3
370	2.000000	1.147040	7.36869e+06	-57139.1	955.819	-29737.7	0.000000	0.000000	7.156965	230.052	NaN	0.000000	0.001546	0.001660	28.0821	69.367	0.001791	38728	3.972448	174.842	223.158	1.146731	0.070978	0.070669	230.052	38728	0.066522	0.150230	1531.34	91289.5
370	2.000000	1.149215	7.36869e+06	-57139.1	955.819	-29737.7	0.000000	0.000000	7.159446	237.486	NaN	0.000000	0.001566	0.001682	28.0816	73.7136	0.001797	41013.5	5.318419	172.762	241.873	1.148737	0.073153	0.072675	237.486	41013.5	0.068810	0.159281	1490.99	93889.7
370	2.000000	1.151051	7.36869e+06	-57139.1	955.82	-29737.7	0.000000	0.000000	7.162032	255.737	NaN	0.000000	0.001609	0.001682	28.0817	75.4778	0.001898	39769.6	5.963332	172.743	250.539	1.150745	0.074989	0.074683	255.737	39769.6	0.070166	0.164763	1552.15	89514.8
370	2.000000	1.153194	7.36869e+06	-57139.1	955.82	-29737.7	0.000000	0.000000	7.164528	264.294	NaN	0.000000	0.001626	0.001654	28.0815	76.2757	0.001675	45526.5	6.674143	170.578	266.011	1.152727	0.077132	0.076665	264.294	45526.5	0.072778	0.175573	1505.32	99267.9
370	2.000000	1.155154	7.36869e+06	-57139.1	955.819	-29737.7	0.000000	0.000000	7.166847	273.048	NaN	0.000000	0.001628	0.001676	28.0815	79.7261	0.001933	41246.3	4.168835	173.982	272.277	1.154962	0.079091	0.078900	273.048	41246.3	0.074126	0.181278	1506.24	88508.6
370	2.000000	1.157149	7.36869e+06	-57139.1	955.821	-29737.7	0.000000	0.000000	7.169627	292.116	NaN	0.000000	0.001622	0.001650	28.0818	79.5251	0.001724	46140.1	4.524758	173.297	289.49	1.156680	0.081087	0.080618	292.116	46140.1	0.076338	0.190823	1530.82	96502
370	2.000000	1.159203	7.36869e+06	-57139.1	955.821	-29737.7	0.000000	0.000000	7.172302	307.213	NaN	0.000000	0.001592	0.001657	28.0814	84.1495	0.001851	45462.8	10.772	166.474	310.623	1.158759	0.083141	0.082697	307.213	45462.8	0.078073	0.198467	1547.92	93236.2
370	2.000000	1.161066	7.36869e+06	-57139.1	955.82	-29737.7	0.000000	0.000000	7.174791	322.432	NaN	0.000000	0.001631	0.001632	28.0819	83.6479	0.001742	48019.2	2.150446	174.844	317.179	1.160828	0.085004	0.084765	322.432	48019.2	0.079968	0.206981	1557.78	96432.2
370	2.000000	1.163293	7.36869e+06	-57139.1	955.818	-29737.7	0.000000	0.000000	7.177207	327.016	NaN	0.000000	0.001641	0.001642	28.0817	85.8919	0.001755	48936.3	4.570764	172.71	336.562	1.162854	0.087231	0.086791	327.016	48936.3	0.082219	0.217314	1504.8	95909.1
370	2.000000	1.165077	7.36869e+06	-57139.1	955.818	-29737.7	0.000000	0.000000	7.179795	346.554	NaN	0.000000	0.001588	0.001652	28.0819	89.3007	0.001848	48316	6.508233	169.982	343.804	1.164810	0.089015	0.088748	346.554	48316	0.083635	0.223934	1547.57	93283.4
370	2.000000	1.167160	7.36869e+06	-57139.1	955.82	-29737.7	0.000000	0.000000	7.182578	363.567	NaN	0.000000	0.001624	0.001693	28.0817	89.6415	0.001766	50770.5	7.078234	169.649	365.535	1.166735	0.091098	0.090672	363.567	50770.5	0.085727	0.233883	1554.48	95914.7
370	2.000000	1.169170	7.36869e+06	-57139.1	955.819	-29737.7	0.000000	0.000000	7.185079	375.478	NaN	0.000000	0.001625	0.001679	28.0816	91.682	0.001753	52290.8	4.635956	172.231	379.835	1.168747	0.093108	0.092685	375.478	52290.8	0.087723	0.243561	1541.61	96804.2
370	2.000000	1.171126	7.36869e+06	-57139.1	955.819	-29737.7	0.000000	0.000000	7.187927	397.182	NaN	0.000000	0.001621	0.001668	28.0819	94.3145	0.001784	52874.1	7.037820	169.974	393.005	1.170697	0.095063	0.094635	397.182	52874.1	0.089430	0.251985	1576.21	96234.2
370	2.000000	1.173075	7.36869e+06	-57139.1	955.82	-29737.7	0.000000	0.000000	7.190530	413.075	NaN	0.000000	0.001620	0.001673	28.0806	95.6495	0.001929	49579.9	7.578138	169.869	410.598	1.172780	0.097013	0.096718	413.075	49579.9	0.090764	0.258663	1596.96	89066
370	2.000000	1.175061	7.36869e+06	-57139.1	955.82	-29737.7	0.000000	0.000000	7.192889	422.15	NaN	0.000000	0.001639	0.001660	28.0804	96.234	0.001700	56624.4	3.860609	171.986	417.144	1.174800	0.098998	0.098738	422.15	56624.4	0.093407	0.272132	1551.27	99171.7
370	2.000000	1.177017	7.36869e+06	-57139.1	955.82	-29737.7	0.000000	0.000000	7.196025	450.81	NaN	0.000000	0.001641	0.001643	28.0804	97.7608	0.001828	53491.2	5.583313	171.187	444.313	1.176584	0.100955	0.100522	450.81	53491.2	0.094634	0.278495	1618.74	92607.7
370	2.000000	1.179011	7.36869e+06	-57139.1	955.82	-29737.7	0.000000	0.000000	7.198532	463.294	NaN	0.000000	0.001654	0.001650	28.0804	99.6423	0.001727	57706.4	7.736147	168.283	455.982	1.178723	0.102949	0.102661	463.294	57706.4	0.096927	0.290566	1594.45	97808
370	2.000000	1.181166	7.36869e+06	-57139.1	955.82	-29737.7	0.000000	0.000000	7.201134	474.131	NaN	0.000000	0.001625	0.001643	28.0807	102.847	0.001776	57920.4	8.064226	169.892	474.198	1.180655	0.105104	0.104593	474.131	57920.4	0.098965	0.301495	1572.6	96375.1
370	2.000000	1.183055	7.36869e+06	-57139.1	955.819	-29737.7	0.000000	0.000000	7.203813	493.36	NaN	0.000000	0.001657	0.001645	28.0806	103.108	0.001760	58580.3	2.497882	173.624	491.461	1.182649	0.106992	0.106587	493.36	58580.3	0.100676	0.310818	1587.29	96000.1
370	2.000000	1.184671	7.36869e+06	-57139.1	955.819	-29737.7	0.000000	0.000000	7.206043	508.278	NaN	0.000000	0.001591	0.001675	28.0805	107.775	0.001777	60645.9	7.939194	-11.3993	507.977	1.184231	0.108609	0.108168	508.278	60645.9	0.102323	0.319919	1588.77	97961.2