File: remote_trans/data/nanoindenter/0828-1/data/Data_2025-08-06,11h17m57s/2025-07-22_16-23-58_1_1205.txt
2025-07-22, 16:23:58, 1
Index	Phase	Displacement	Time	Pos X	Pos Y	Pos Z	Rot A	Rot B	Piezo Z	Force A	Force B	Gripper	Voltage A	Voltage B	Temperature	Amplitude force	Amplitude pos	Stiffness	Phase shift	Phase excitation	Force A raw	Displacement raw	HMax	HMax raw	Real Force	Real Stiffness	Contact Depth	Area	Hardness	Reduced Mod.
[#]	[#]	[um]	[s]	[um]	[um]	[um]	[m°]	[m°]	[um]	[uN]	[uN]	[V]	[V]	[V]	[°C]	[uN]	[um]	[N/m]	[°]	[°]	[uN]	[um]	[um]	[um]	[uN]	[N/m]	[um]	[um^2]	[MPa]	[MPa]
1205	1.000000	0.002368	7.37682e+06	-55339.1	1105.82	-29741.6	0.000000	0.000000	6.002800	0.132924	NaN	0.000000	0.001648	0.001726	28.0823	0.024274	0.000917	26.4682	148.936	-162.121	0.056896	0.001107	-1.057567	-1.058827	0.132924	26.4682	-1.061333	-1.516126E+14	-8.767356E-16	NaN
1205	1.000000	0.010348	7.37682e+06	-55339.1	1105.82	-29741.6	0.000000	0.000000	6.010777	0.048817	NaN	0.000000	0.001623	0.001748	28.0823	0.083513	0.000863	96.8058	132.597	-166	0.072636	0.009076	-1.049586	-1.050858	0.048817	96.8058	-1.049964	-1.066433E+14	-4.577562E-16	NaN
1205	1.000000	0.018335	7.37682e+06	-55339.1	1105.82	-29741.6	0.000000	0.000000	6.018763	0.050314	NaN	0.000000	0.001607	0.001738	28.0823	0.052998	0.001783	29.7182	-148.421	-167.159	0.023057	0.016989	-1.041600	-1.042946	0.050314	29.7182	-1.042869	-8.561508E+13	-5.876800E-16	NaN
1205	1.000000	0.026359	7.37682e+06	-55339.1	1105.82	-29741.6	0.000000	0.000000	6.026785	0.012666	NaN	0.000000	0.001619	0.001757	28.0824	0.039302	0.001857	21.1628	-125.295	-164.582	0.067895	0.025032	-1.033576	-1.034903	0.012666	21.1628	-1.034025	-6.510483E+13	-1.945431E-16	NaN
1205	1.000000	0.034337	7.37682e+06	-55339.1	1105.82	-29741.6	0.000000	0.000000	6.034763	-0.008908	NaN	0.000000	0.001607	0.001748	28.0822	0.034866	0.001852	18.8242	92.8144	-165.655	0.028591	0.033003	-1.025597	-1.026932	-0.008908	18.8242	-1.025242	-4.959999E+13	1.795961E-16	NaN
1205	1.000000	0.042322	7.37682e+06	-55339.1	1105.82	-29741.6	0.000000	0.000000	6.042747	-0.022371	NaN	0.000000	0.001633	0.001740	28.0824	0.050889	0.002027	25.1083	-29.3736	-166.244	0.088846	0.041037	-1.017613	-1.018898	-0.022371	25.1083	-1.016944	-3.835621E+13	5.832519E-16	NaN
1205	1.000000	0.050344	7.37682e+06	-55339.1	1105.82	-29741.6	0.000000	0.000000	6.050773	0.075589	NaN	0.000000	0.001633	0.001740	28.0822	0.039083	0.001966	19.8805	-14.7534	-165.58	0.059953	0.048984	-1.009590	-1.010950	0.075589	19.8805	-1.012442	-3.336173E+13	-2.265747E-15	NaN
1205	1.000000	0.058322	7.37682e+06	-55339.1	1105.82	-29741.6	0.000000	0.000000	6.058750	0.029878	NaN	0.000000	0.001612	0.001762	28.0823	0.071735	0.001842	38.9502	10.4073	-167.389	0.039053	0.056995	-1.001612	-1.002939	0.029878	38.9502	-1.002188	-2.427838E+13	-1.230625E-15	NaN
1205	1.000000	0.066336	7.37682e+06	-55339.1	1105.82	-29741.6	0.000000	0.000000	6.066765	0.066050	NaN	0.000000	0.001599	0.001752	28.0827	0.038309	0.002084	18.3801	-179.983	-166.566	0.051070	0.065074	-0.993599	-0.994860	0.066050	18.3801	-0.996294	-2.022412E+13	-3.265924E-15	NaN
1205	1.000000	0.074342	7.37682e+06	-55339.1	1105.82	-29741.6	0.000000	0.000000	6.074771	0.070130	NaN	0.000000	0.001610	0.001755	28.0824	0.168267	0.002014	83.5435	77.374	-169.262	0.020752	0.073000	-0.985593	-0.986934	0.070130	83.5435	-0.986222	-1.479895E+13	-4.738819E-15	NaN
1205	1.000000	0.082322	7.37682e+06	-55339.1	1105.82	-29741.6	0.000000	0.000000	6.082749	0.024612	NaN	0.000000	0.001600	0.001740	28.0827	0.050345	0.002021	24.9052	78.9263	-165.093	0.036271	0.081021	-0.977613	-0.978913	0.024612	24.9052	-0.978354	-1.159393E+13	-2.122868E-15	NaN
1205	1.000000	0.090298	7.37682e+06	-55339.1	1105.82	-29741.6	0.000000	0.000000	6.090728	0.089952	NaN	0.000000	0.001639	0.001736	28.0836	0.113147	0.002101	53.8459	-72.4547	-162.524	0.035353	0.089040	-0.969637	-0.970894	0.089952	53.8459	-0.970890	-9.197098E+12	-9.780444E-15	NaN
1205	1.000000	0.098336	7.37682e+06	-55339.1	1105.82	-29741.6	0.000000	0.000000	6.098767	0.127653	NaN	0.000000	0.001616	0.001724	28.0838	0.051420	0.002024	25.4104	30.2974	-166.562	0.138953	0.097013	-0.961599	-0.962922	0.127653	25.4104	-0.965366	-7.748343E+12	-1.647487E-14	NaN
1205	1.000000	0.106362	7.37682e+06	-55339.1	1105.82	-29741.6	0.000000	0.000000	6.106790	0.029097	NaN	0.000000	0.001602	0.001759	28.0837	0.099597	0.001933	51.5331	-30.9421	-160.247	0.052875	0.104988	-0.953572	-0.954947	0.029097	51.5331	-0.953996	-5.443908E+12	-5.344930E-15	NaN
1205	1.000000	0.114358	7.37682e+06	-55339.1	1105.82	-29741.6	0.000000	0.000000	6.114785	0.015943	NaN	0.000000	0.001574	0.001744	28.0839	0.015129	0.001985	7.623401	-131.324	-163.123	-0.001761	0.113022	-0.945577	-0.946913	0.015943	7.623401	-0.947145	-4.400707E+12	-3.622767E-15	NaN
1205	1.000000	0.122341	7.37682e+06	-55339.1	1105.82	-29741.6	0.000000	0.000000	6.122770	0.055388	NaN	0.000000	0.001525	0.001756	28.0843	0.109211	0.002051	53.2404	97.2146	-165.106	0.102161	0.121060	-0.937593	-0.938875	0.055388	53.2404	-0.938373	-3.351130E+12	-1.652825E-14	NaN
1205	1.000000	0.130327	7.37682e+06	-55339.1	1105.82	-29741.6	0.000000	0.000000	6.130755	0.043991	NaN	0.000000	0.001502	0.001748	28.0837	0.078224	0.001944	40.2483	104.585	-161.969	0.023435	0.129094	-0.929607	-0.930841	0.043991	40.2483	-0.930427	-2.617927E+12	-1.680375E-14	NaN
1205	1.000000	0.138339	7.37682e+06	-55339.1	1105.82	-29741.6	0.000000	0.000000	6.138765	-0.013460	NaN	0.000000	0.001562	0.001719	28.0837	0.093678	0.002164	43.2871	40.9676	-164.072	0.081037	0.137085	-0.921595	-0.922850	-0.013460	43.2871	-0.921362	-1.975121E+12	6.814868E-15	NaN
1205	1.000000	0.146342	7.37682e+06	-55339.1	1105.82	-29741.6	0.000000	0.000000	6.146769	0.032597	NaN	0.000000	0.001533	0.001752	28.0835	0.025740	0.001898	13.5642	-142.094	-166.985	-0.026886	0.145055	-0.913593	-0.914879	0.032597	13.5642	-0.915395	-1.640686E+12	-1.986790E-14	NaN
1205	1.000000	0.154360	7.37682e+06	-55339.1	1105.82	-29741.6	0.000000	0.000000	6.154791	0.109141	NaN	0.000000	0.001508	0.001759	28.0838	0.131311	0.001926	68.178	-149.129	-165.786	0.028286	0.153036	-0.905575	-0.906899	0.109141	68.178	-0.906775	-1.254880E+12	-8.697299E-14	NaN
1205	1.000000	0.162371	7.37682e+06	-55339.1	1105.82	-29741.6	0.000000	0.000000	6.162799	0.046812	NaN	0.000000	0.001554	0.001709	28.084	0.069656	0.002132	32.6755	147.83	-166.89	0.019536	0.161081	-0.897563	-0.898854	0.046812	32.6755	-0.898638	-9.742253E+11	-4.805020E-14	NaN
1205	1.000000	0.170396	7.37682e+06	-55339.1	1105.82	-29741.6	0.000000	0.000000	6.170823	0.027022	NaN	0.000000	0.001531	0.001753	28.0838	0.075014	0.002002	37.4655	-69.9706	-163.363	0.055121	0.169077	-0.889539	-0.890857	0.027022	37.4655	-0.890080	-7.464419E+11	-3.620145E-14	NaN
1205	1.000000	0.178373	7.37682e+06	-55339.1	1105.82	-29741.6	0.000000	0.000000	6.178799	-0.013538	NaN	0.000000	0.001566	0.001766	28.0839	0.059271	0.002035	29.132	-32.3797	-166.212	-0.046212	0.177028	-0.881561	-0.882906	-0.013538	29.132	-0.881213	-5.663806E+11	2.390193E-14	NaN
1205	1.000000	0.186381	7.37682e+06	-55339.1	1105.82	-29741.6	0.000000	0.000000	6.186811	0.086094	NaN	0.000000	0.001557	0.001753	28.0836	0.035461	0.001997	17.7609	20.3269	-164.592	0.126425	0.185085	-0.873553	-0.874849	0.086094	17.7609	-0.877189	-4.996729E+11	-1.723011E-13	NaN
1205	1.000000	0.194386	7.37682e+06	-55339.1	1105.82	-29741.6	0.000000	0.000000	6.194815	0.083347	NaN	0.000000	0.001578	0.001758	28.0837	0.093697	0.001993	47.0211	68.2699	-168.737	0.050918	0.193099	-0.865549	-0.866835	0.083347	47.0211	-0.866878	-3.624127E+11	-2.299771E-13	NaN
1205	1.000000	0.202374	7.37682e+06	-55339.1	1105.82	-29741.6	0.000000	0.000000	6.202799	-0.030191	NaN	0.000000	0.001547	0.001734	28.0837	0.055676	0.002192	25.4022	-79.5966	-165.337	0.048963	0.201011	-0.857560	-0.858924	-0.030191	25.4022	-0.856669	-2.636521E+11	1.145089E-13	NaN
1205	1.000000	0.210351	7.37682e+06	-55339.1	1105.82	-29741.6	0.000000	0.000000	6.210780	0.061401	NaN	0.000000	0.001522	0.001712	28.0837	0.051291	0.001903	26.9567	67.266	-164.325	0.087109	0.209094	-0.849583	-0.850840	0.061401	26.9567	-0.851292	-2.229600E+11	-2.753911E-13	NaN
1205	1.000000	0.218406	7.37682e+06	-55339.1	1105.82	-29741.6	0.000000	0.000000	6.218834	0.038976	NaN	0.000000	0.001510	0.001755	28.0837	0.066064	0.001933	34.1701	108.498	-162.968	0.084170	0.217048	-0.841528	-0.842887	0.038976	34.1701	-0.842384	-1.688822E+11	-2.307888E-13	NaN
1205	1.000000	0.226410	7.37683e+06	-55339.1	1105.82	-29741.6	0.000000	0.000000	6.226839	0.053800	NaN	0.000000	0.001527	0.001709	28.0824	0.086528	0.002065	41.9014	157.556	-167.21	0.032453	0.225094	-0.833524	-0.834840	0.053800	41.9014	-0.834487	-1.320071E+11	-4.075566E-13	NaN
1205	1.000000	0.234390	7.37683e+06	-55339.1	1105.82	-29741.6	0.000000	0.000000	6.234817	0.024857	NaN	0.000000	0.001515	0.001743	28.0824	0.091834	0.002118	43.356	-97.7079	-165.801	0.015007	0.233033	-0.825545	-0.826902	0.024857	43.356	-0.825975	-1.012092E+11	-2.456010E-13	NaN
1205	1.000000	0.242374	7.37683e+06	-55339.1	1105.82	-29741.6	0.000000	0.000000	6.242804	0.092902	NaN	0.000000	0.001551	0.001744	28.0823	0.085836	0.002021	42.4763	132.971	-163.847	0.050197	0.241090	-0.817560	-0.818844	0.092902	42.4763	-0.819201	-8.191650E+10	-1.134103E-12	NaN
1205	1.000000	0.250417	7.37683e+06	-55339.1	1105.82	-29741.6	0.000000	0.000000	6.250846	0.068815	NaN	0.000000	0.001525	0.001718	28.0823	0.103919	0.002052	50.6331	3.609808	-165.431	0.032257	0.249090	-0.809518	-0.810845	0.068815	50.6331	-0.810537	-6.249714E+10	-1.101089E-12	NaN
1205	1.000000	0.258387	7.37683e+06	-55339.1	1105.82	-29741.6	0.000000	0.000000	6.258818	0.103484	NaN	0.000000	0.001544	0.001737	28.0825	0.086899	0.001981	43.8616	-84.2227	-164.823	0.081136	0.257072	-0.801547	-0.802863	0.103484	43.8616	-0.803317	-4.987512E+10	-2.074865E-12	NaN
1205	1.000000	0.266396	7.37683e+06	-55339.1	1105.82	-29741.6	0.000000	0.000000	6.266825	0.062010	NaN	0.000000	0.001535	0.001751	28.0824	0.124241	0.001888	65.808	-0.140387	-170.231	-0.010338	0.265084	-0.793538	-0.794850	0.062010	65.808	-0.794245	-3.756066E+10	-1.650940E-12	NaN
1205	1.000000	0.274418	7.37683e+06	-55339.1	1105.82	-29741.6	0.000000	0.000000	6.274846	0.040656	NaN	0.000000	0.001519	0.001687	28.0824	0.016536	0.002111	7.831500	48.4313	-166.92	0.012256	0.273063	-0.785516	-0.786872	0.040656	7.831500	-0.789410	-3.228982E+10	-1.259097E-12	NaN
1205	1.000000	0.282395	7.37683e+06	-55339.1	1105.82	-29741.6	0.000000	0.000000	6.282824	0.089458	NaN	0.000000	0.001540	0.001752	28.0823	0.093450	0.001846	50.6197	52.0301	-168.226	0.089131	0.281102	-0.777540	-0.778832	0.089458	50.6197	-0.778865	-2.321742E+10	-3.853052E-12	NaN
1205	1.000000	0.290443	7.37683e+06	-55339.1	1105.82	-29741.6	0.000000	0.000000	6.290869	0.008518	NaN	0.000000	0.001527	0.001733	28.0823	0.026468	0.001943	13.6221	5.501812	-165.626	-0.016241	0.289136	-0.769492	-0.770799	0.008518	13.6221	-0.769961	-1.757002E+10	-4.848211E-13	NaN
1205	1.000000	0.298431	7.37683e+06	-55339.1	1105.82	-29741.6	0.000000	0.000000	6.298855	-0.039765	NaN	0.000000	0.001563	0.001699	28.0822	0.160232	0.002010	79.698	-159.316	-167.785	0.050716	0.297127	-0.761504	-0.762807	-0.039765	79.698	-0.761129	-1.332501E+10	2.984223E-12	NaN
1205	1.000000	0.306411	7.37683e+06	-55339.1	1105.82	-29741.6	0.000000	0.000000	6.306840	0.082448	NaN	0.000000	0.001555	0.001744	28.0821	0.120999	0.002092	57.8324	-42.2037	-167.662	-0.038738	0.305109	-0.753524	-0.754826	0.082448	57.8324	-0.754593	-1.085754E+10	-7.593633E-12	NaN
1205	1.000000	0.314447	7.37683e+06	-55339.1	1105.82	-29741.6	0.000000	0.000000	6.314875	0.035191	NaN	0.000000	0.001548	0.001688	28.0824	0.139513	0.001990	70.0922	38.7473	-167.675	0.059124	0.313090	-0.745487	-0.746845	0.035191	70.0922	-0.745864	-8.258642E+9	-4.261067E-12	NaN
1205	1.000000	0.322423	7.37683e+06	-55339.1	1105.82	-29741.6	0.000000	0.000000	6.322850	0.018065	NaN	0.000000	0.001590	0.001726	28.0822	0.072022	0.001993	36.1419	-39.7358	-167.595	0.061314	0.321124	-0.737511	-0.738811	0.018065	36.1419	-0.737886	-6.430748E+9	-2.809214E-12	NaN
1205	1.000000	0.330436	7.37683e+06	-55339.1	1105.82	-29741.6	0.000000	0.000000	6.330864	0.043608	NaN	0.000000	0.001541	0.001736	28.0824	0.100483	0.001948	51.5724	77.0546	-167.29	0.044303	0.329133	-0.729498	-0.730802	0.043608	51.5724	-0.730133	-5.042138E+9	-8.648664E-12	NaN
1205	1.000000	0.338428	7.37683e+06	-55339.1	1105.82	-29741.6	0.000000	0.000000	6.338856	0.031312	NaN	0.000000	0.001510	0.001741	28.0822	0.090209	0.002030	44.4399	131.185	-161.686	-0.004718	0.337195	-0.721506	-0.722739	0.031312	44.4399	-0.722035	-3.910419E+9	-8.007253E-12	NaN
1205	1.000000	0.346415	7.37683e+06	-55339.1	1105.82	-29741.6	0.000000	0.000000	6.346846	0.106017	NaN	0.000000	0.001494	0.001758	28.0823	0.032003	0.002074	15.4283	-110.423	-162.428	0.041544	0.345115	-0.713519	-0.714820	0.106017	15.4283	-0.718673	-3.518613E+9	-3.013045E-11	NaN
1205	1.000000	0.354460	7.37683e+06	-55339.1	1105.82	-29741.6	0.000000	0.000000	6.354889	0.054035	NaN	0.000000	0.001516	0.001743	28.083	0.068017	0.001912	35.581	15.7303	-168.34	0.044857	0.353105	-0.705474	-0.706830	0.054035	35.581	-0.706613	-2.408914E+9	-2.243123E-11	NaN
1205	1.000000	0.362458	7.37683e+06	-55339.1	1105.82	-29741.6	0.000000	0.000000	6.362886	0.052672	NaN	0.000000	0.001552	0.001743	28.0838	0.134851	0.001933	69.7506	-179.468	-165.624	0.034082	0.361146	-0.697477	-0.698788	0.052672	69.7506	-0.698043	-1.839948E+9	-2.862708E-11	NaN
1205	1.000000	0.370438	7.37683e+06	-55339.1	1105.82	-29741.6	0.000000	0.000000	6.370865	0.024459	NaN	0.000000	0.001516	0.001744	28.084	0.055689	0.002087	26.6799	33.9334	-161.793	-0.013625	0.369164	-0.689497	-0.690771	0.024459	26.6799	-0.690185	-1.436944E+9	-1.702168E-11	NaN
1205	1.000000	0.378467	7.37683e+06	-55339.1	1105.82	-29741.6	0.000000	0.000000	6.378895	0.046385	NaN	0.000000	0.001520	0.001701	28.0837	0.100822	0.002028	49.7193	-13.8397	-166.5	0.055283	0.377152	-0.681467	-0.682783	0.046385	49.7193	-0.682167	-1.116451E+9	-4.154657E-11	NaN
1205	1.000000	0.386463	7.37683e+06	-55339.1	1105.82	-29741.6	0.000000	0.000000	6.386889	-0.003805	NaN	0.000000	0.001540	0.001751	28.0837	0.085618	0.002078	41.1953	18.5907	-163.212	-0.012484	0.385160	-0.673472	-0.674775	-0.003805	41.1953	-0.673403	-8.471413E+8	4.491141E-12	NaN
1205	1.000000	0.394489	7.37683e+06	-55339.1	1105.82	-29741.6	0.000000	0.000000	6.394919	0.092044	NaN	0.000000	0.001531	0.001709	28.0835	0.024797	0.002018	12.2896	-112.647	-165.147	0.068065	0.393194	-0.665446	-0.666741	0.092044	12.2896	-0.671063	-7.869291E+8	-1.169664E-10	NaN
1205	1.000000	0.402486	7.37683e+06	-55339.1	1105.82	-29741.6	0.000000	0.000000	6.402914	0.054776	NaN	0.000000	0.001521	0.001680	28.0835	0.074648	0.001993	37.4508	149.763	-165.985	-0.000623	0.401201	-0.657449	-0.658733	0.054776	37.4508	-0.658546	-5.303314E+8	-1.032862E-10	NaN
1205	1.000000	0.410469	7.37683e+06	-55339.1	1105.82	-29741.6	0.000000	0.000000	6.410895	-0.017168	NaN	0.000000	0.001524	0.001675	28.0836	0.057851	0.002003	28.876	114.957	-165.796	-0.057839	0.409163	-0.649465	-0.650771	-0.017168	28.876	-0.649019	-3.926396E+8	4.372453E-11	NaN
1205	1.000000	0.418471	7.37683e+06	-55339.1	1105.82	-29741.6	0.000000	0.000000	6.418898	0.022408	NaN	0.000000	0.001489	0.001653	28.0836	0.133115	0.001878	70.8903	-125.741	-164.737	0.151211	0.417143	-0.641464	-0.642792	0.022408	70.8903	-0.641701	-3.116181E+8	-7.190728E-11	NaN
1205	1.000000	0.426467	7.37683e+06	-55339.1	1105.82	-29741.6	0.000000	0.000000	6.426895	0.041993	NaN	0.000000	0.001552	0.001705	28.0837	0.045536	0.002043	22.29	-51.9888	-162.651	0.014293	0.425189	-0.633467	-0.634746	0.041993	22.29	-0.634880	-2.512051E+8	-1.671658E-10	NaN
1205	1.000000	0.434491	7.37683e+06	-55339.1	1105.82	-29741.6	0.000000	0.000000	6.434917	0.002323	NaN	0.000000	0.001532	0.001713	28.0836	0.019224	0.001946	9.877371	33.214	-163.976	-0.000869	0.433132	-0.625444	-0.626803	0.002323	9.877371	-0.625620	-1.874397E+8	-1.239458E-11	NaN
1205	1.000000	0.442457	7.37683e+06	-55339.1	1105.82	-29741.6	0.000000	0.000000	6.442882	-0.018577	NaN	0.000000	0.001529	0.001682	28.0837	0.007853	0.002061	3.809259	11.7583	-163.644	0.001752	0.441196	-0.617478	-0.618738	-0.018577	3.809259	-0.613820	-1.290224E+8	1.439857E-10	NaN
1205	1.000000	0.450465	7.37683e+06	-55339.1	1105.82	-29741.6	0.000000	0.000000	6.450893	0.037053	NaN	0.000000	0.001520	0.001663	28.0836	0.036617	0.002076	17.6384	46.183	-169.348	0.004520	0.449171	-0.609469	-0.610764	0.037053	17.6384	-0.611045	-1.181649E+8	-3.135700E-10	NaN
1205	1.000000	0.458470	7.37683e+06	-55339.1	1105.82	-29741.6	0.000000	0.000000	6.458900	0.097489	NaN	0.000000	0.001569	0.001692	28.0836	0.023305	0.002074	11.2344	-144.606	-164.495	0.076115	0.457224	-0.601465	-0.602711	0.097489	11.2344	-0.607973	-1.072062E+8	-9.093594E-10	NaN
1205	1.000000	0.466522	7.37683e+06	-55339.1	1105.82	-29741.6	0.000000	0.000000	6.466950	0.063198	NaN	0.000000	0.001578	0.001707	28.0838	0.053877	0.002011	26.7969	-109.354	-161.946	0.062259	0.465204	-0.593413	-0.594730	0.063198	26.7969	-0.595182	-7.146393E+7	-8.843356E-10	NaN
1205	1.000000	0.474496	7.37683e+06	-55339.1	1105.82	-29741.6	0.000000	0.000000	6.474925	0.079597	NaN	0.000000	0.001527	0.001702	28.0838	0.063902	0.001960	32.6067	141.798	-166.588	0.065530	0.473179	-0.585439	-0.586756	0.079597	32.6067	-0.587269	-5.559235E+7	-1.431796E-9	NaN
1205	1.000000	0.482489	7.37683e+06	-55339.1	1105.82	-29741.6	0.000000	0.000000	6.482917	0.036370	NaN	0.000000	0.001546	0.001709	28.0837	0.026504	0.001970	13.4541	124.002	-169.661	-0.016046	0.481190	-0.577446	-0.578744	0.036370	13.4541	-0.579473	-4.339645E+7	-8.380782E-10	NaN
1205	1.000000	0.490488	7.37683e+06	-55339.1	1105.82	-29741.6	0.000000	0.000000	6.490915	0.009152	NaN	0.000000	0.001450	0.001699	28.0837	0.096559	0.001912	50.4953	-81.8191	-163.135	-0.055536	0.489225	-0.569446	-0.570710	0.009152	50.4953	-0.569582	-3.168542E+7	-2.888496E-10	NaN
1205	1.000000	0.498507	7.37683e+06	-55339.1	1105.82	-29741.6	0.000000	0.000000	6.498933	-0.001913	NaN	0.000000	0.001532	0.001686	28.0823	0.079987	0.001900	42.1067	-80.9326	-167.809	0.105636	0.497144	-0.561427	-0.562790	-0.001913	42.1067	-0.561393	-2.441459E+7	7.834901E-11	NaN
1205	1.000000	0.506505	7.37683e+06	-55339.1	1105.82	-29741.6	0.000000	0.000000	6.506931	0.001157	NaN	0.000000	0.001536	0.001702	28.0824	0.058229	0.002039	28.5557	-141.436	-162.973	0.043144	0.505210	-0.553430	-0.554724	0.001157	28.5557	-0.553460	-1.896131E+7	-6.101756E-11	NaN
1205	1.000000	0.514514	7.37683e+06	-55339.1	1105.82	-29741.6	0.000000	0.000000	6.514943	0.062002	NaN	0.000000	0.001539	0.001701	28.0823	0.107173	0.002105	50.909	-113.268	-166.127	0.048344	0.513236	-0.545421	-0.546699	0.062002	50.909	-0.546334	-1.510662E+7	-4.104297E-9	NaN
1205	1.000000	0.522529	7.37683e+06	-55339.1	1105.82	-29741.6	0.000000	0.000000	6.522955	-0.007231	NaN	0.000000	0.001521	0.001692	28.0822	0.079796	0.002083	38.3091	-65.0275	-160.109	-0.019818	0.521228	-0.537405	-0.538707	-0.007231	38.3091	-0.537264	-1.130838E+7	6.394327E-10	NaN
1205	1.000000	0.530534	7.37683e+06	-55339.1	1105.82	-29741.6	0.000000	0.000000	6.530963	0.069046	NaN	0.000000	0.001553	0.001676	28.0824	0.076540	0.001910	40.0733	162.79	-166.631	-0.000487	0.529212	-0.529401	-0.530722	0.069046	40.0733	-0.530693	-9.16646e+06	-7.532478E-9	NaN
1205	1.000000	0.538517	7.37683e+06	-55339.1	1105.82	-29741.6	0.000000	0.000000	6.538945	0.027404	NaN	0.000000	0.001570	0.001708	28.0822	0.103096	0.001994	51.6989	36.0871	-167.727	-0.019776	0.537270	-0.521417	-0.522665	0.027404	51.6989	-0.521815	-6.89978e+06	-3.971745E-9	NaN
1205	1.000000	0.546545	7.37683e+06	-55339.1	1105.82	-29741.6	0.000000	0.000000	6.546972	0.012976	NaN	0.000000	0.001498	0.001692	28.0823	0.053006	0.001990	26.6391	42.0487	-164.499	0.024124	0.545221	-0.513389	-0.514713	0.012976	26.6391	-0.513754	-5.32961e+06	-2.434650E-9	NaN
1205	1.000000	0.554523	7.37683e+06	-55339.1	1105.82	-29741.6	0.000000	0.000000	6.554950	0.004829	NaN	0.000000	0.001512	0.001693	28.0824	0.107357	0.001962	54.7282	-159.772	-164.599	-0.095325	0.553222	-0.505411	-0.506712	0.004829	54.7282	-0.505477	-4.08695e+06	-1.181565E-9	NaN
1205	1.000000	0.562554	7.37683e+06	-55339.1	1105.82	-29741.6	0.000000	0.000000	6.562980	0.004853	NaN	0.000000	0.001525	0.001712	28.0824	0.041096	0.002078	19.7743	-55.4487	-166.88	0.064613	0.561258	-0.497381	-0.498676	0.004853	19.7743	-0.497565	-3.16987e+06	-1.530965E-9	NaN
1205	1.000000	0.570555	7.37683e+06	-55339.1	1105.82	-29741.6	0.000000	0.000000	6.570983	0.031052	NaN	0.000000	0.001508	0.001735	28.0821	0.020135	0.002176	9.253455	-150.816	-161.764	0.036923	0.569246	-0.489379	-0.490689	0.031052	9.253455	-0.491896	-2.64168e+06	-1.175447E-8	NaN
1205	1.000000	0.578566	7.37683e+06	-55339.1	1105.82	-29741.6	0.000000	0.000000	6.578996	0.093945	NaN	0.000000	0.001500	0.001714	28.0821	0.089122	0.001981	44.9771	153.356	-167.694	0.022619	0.577212	-0.481368	-0.482723	0.093945	44.9771	-0.482935	-1.97971e+06	-4.745374E-8	NaN
1205	1.000000	0.586541	7.37683e+06	-55339.1	1105.82	-29741.6	0.000000	0.000000	6.586968	0.005808	NaN	0.000000	0.001523	0.001710	28.0823	0.060077	0.001959	30.6669	-36.9422	-164.652	-0.009651	0.585282	-0.473393	-0.474653	0.005808	30.6669	-0.473535	-1.46208e+06	-3.972088E-9	NaN
1205	1.000000	0.594535	7.37683e+06	-55339.1	1105.82	-29741.6	0.000000	0.000000	6.594963	0.029075	NaN	0.000000	0.001515	0.001672	28.0821	0.080720	0.002018	40.0097	-161.258	-165.571	-0.036241	0.593246	-0.465399	-0.466688	0.029075	40.0097	-0.465944	-1.1442e+06	-2.541057E-8	NaN
1205	1.000000	0.602549	7.37683e+06	-55339.1	1105.82	-29741.6	0.000000	0.000000	6.602979	0.101307	NaN	0.000000	0.001535	0.001696	28.083	0.095829	0.002150	44.5758	-159.17	-162.551	0.093994	0.601279	-0.457386	-0.458655	0.101307	44.5758	-0.459090	-916716	-1.105106E-7	NaN
1205	1.000000	0.610554	7.37683e+06	-55339.1	1105.82	-29741.6	0.000000	0.000000	6.610982	0.035361	NaN	0.000000	0.001497	0.001685	28.0821	0.056418	0.001989	28.3644	23.8231	-165.854	0.058976	0.609280	-0.449381	-0.450654	0.035361	28.3644	-0.450316	-689902	-5.125463E-8	NaN
1205	1.000000	0.618587	7.37683e+06	-55339.1	1105.82	-29741.7	0.000000	0.000000	6.619015	0.056840	NaN	0.000000	0.001527	0.001697	28.0825	0.077098	0.001935	39.8471	78.4376	-162.294	0.097592	0.617211	-0.441348	-0.442724	0.056840	39.8471	-0.442417	-533917	-1.064594E-7	NaN
1205	1.000000	0.626550	7.37683e+06	-55339.1	1105.82	-29741.7	0.000000	0.000000	6.626979	0.069602	NaN	0.000000	0.001502	0.001700	28.0821	0.040808	0.002061	19.8018	-100.79	-165.11	0.119254	0.625280	-0.433384	-0.434654	0.069602	19.8018	-0.436021	-433685	-1.604908E-7	NaN
1205	1.000000	0.634572	7.37683e+06	-55339.1	1105.82	-29741.6	0.000000	0.000000	6.635003	0.115223	NaN	0.000000	0.001553	0.001669	28.0833	0.079768	0.002150	37.1084	76.4942	-168.345	0.057136	0.633302	-0.425362	-0.426632	0.115223	37.1084	-0.427691	-330667	-3.484566E-7	NaN
1205	1.000000	0.642591	7.37683e+06	-55339.1	1105.82	-29741.7	0.000000	0.000000	6.643018	0.021760	NaN	0.000000	0.001525	0.001670	28.0835	0.054280	0.002040	26.6118	89.3868	-165.658	0.087278	0.641300	-0.417343	-0.418634	0.021760	26.6118	-0.417957	-240672	-9.041379E-8	NaN
1205	1.000000	0.650545	7.37683e+06	-55339.1	1105.82	-29741.7	0.000000	0.000000	6.650974	0.078776	NaN	0.000000	0.001515	0.001705	28.0833	0.099052	0.001939	51.0835	46.8882	-167.671	0.021125	0.649229	-0.409390	-0.410705	0.078776	51.0835	-0.410546	-188874	-4.170826E-7	NaN
1205	1.000000	0.658571	7.37683e+06	-55339.1	1105.82	-29741.7	0.000000	0.000000	6.658996	-0.014287	NaN	0.000000	0.001490	0.001656	28.0835	0.077489	0.001934	40.0664	5.486975	-167.673	-0.058873	0.657264	-0.401364	-0.402670	-0.014287	40.0664	-0.401097	-138557	1.031123E-7	NaN
1205	1.000000	0.666587	7.37683e+06	-55339.1	1105.82	-29741.7	0.000000	0.000000	6.667015	0.041315	NaN	0.000000	0.001454	0.001686	28.0833	0.061347	0.001974	31.0763	21.7045	-165.828	0.012106	0.665235	-0.393348	-0.394699	0.041315	31.0763	-0.394345	-110989	-3.722458E-7	NaN
1205	1.000000	0.674587	7.37683e+06	-55339.1	1105.82	-29741.7	0.000000	0.000000	6.675015	0.040304	NaN	0.000000	0.001481	0.001696	28.0832	0.034961	0.001928	18.1351	83.6042	-163.455	-0.017043	0.673270	-0.385347	-0.386665	0.040304	18.1351	-0.387014	-87183.5	-4.622929E-7	NaN
1205	1.000000	0.682569	7.37683e+06	-55339.1	1105.82	-29741.7	0.000000	0.000000	6.682996	0.005077	NaN	0.000000	0.001525	0.001721	28.0829	0.019451	0.002093	9.292969	121.503	-166.367	-0.061472	0.681305	-0.377365	-0.378629	0.005077	9.292969	-0.377775	-64260.3	-7.901343E-8	NaN
1205	1.000000	0.690569	7.37683e+06	-55339.1	1105.82	-29741.7	0.000000	0.000000	6.690998	0.058054	NaN	0.000000	0.001483	0.001731	28.083	0.061161	0.002150	28.4407	107.887	-167.119	0.035372	0.689262	-0.369365	-0.370672	0.058054	28.4407	-0.370896	-51171.9	-1.134483E-6	NaN
1205	1.000000	0.698578	7.37683e+06	-55339.1	1105.82	-29741.7	0.000000	0.000000	6.699005	0.011091	NaN	0.000000	0.001537	0.001722	28.0831	0.081849	0.001972	41.5038	-15.7421	-167.831	0.024932	0.697295	-0.361357	-0.362640	0.011091	41.5038	-0.361557	-37527.2	-2.955527E-7	NaN
1205	1.000000	0.706588	7.37683e+06	-55339.1	1105.82	-29741.7	0.000000	0.000000	6.707013	-0.025363	NaN	0.000000	0.001545	0.001705	28.0833	0.048851	0.002086	23.4205	126.701	-168.765	0.023718	0.705274	-0.353346	-0.354661	-0.025363	23.4205	-0.352534	-27782.1	9.129325E-7	NaN
1205	1.000000	0.714616	7.37683e+06	-55339.1	1105.82	-29741.7	0.000000	0.000000	6.715046	0.086856	NaN	0.000000	0.001538	0.001730	28.0831	0.034964	0.002095	16.6854	124.075	-163.499	0.134088	0.713307	-0.345318	-0.346628	0.086856	16.6854	-0.349222	-24872.1	-3.492089E-6	NaN
1205	1.000000	0.722575	7.37683e+06	-55339.1	1105.82	-29741.7	0.000000	0.000000	6.723003	0.054076	NaN	0.000000	0.001505	0.001696	28.0831	0.044970	0.001979	22.723	78.7568	-163.368	0.028700	0.721318	-0.337360	-0.338616	0.054076	22.723	-0.339145	-17745.3	-3.047331E-6	NaN
1205	1.000000	0.730603	7.37683e+06	-55339.1	1105.82	-29741.7	0.000000	0.000000	6.731031	0.033220	NaN	0.000000	0.001517	0.001698	28.0829	0.012004	0.002126	5.645078	-56.5558	-165.051	-0.012379	0.729315	-0.329331	-0.330619	0.033220	5.645078	-0.333745	-14799.3	-2.244709E-6	NaN
1205	1.000000	0.738625	7.37683e+06	-55339.1	1105.82	-29741.7	0.000000	0.000000	6.739051	-0.001987	NaN	0.000000	0.001533	0.001711	28.0829	0.107600	0.002002	53.7444	-42.5474	-166.597	0.040861	0.737275	-0.321309	-0.322660	-0.001987	53.7444	-0.321282	-9716.21	2.045394E-7	NaN
1205	1.000000	0.746599	7.37683e+06	-55339.1	1105.82	-29741.7	0.000000	0.000000	6.747026	0.005526	NaN	0.000000	0.001507	0.001703	28.0831	0.043841	0.002053	21.3583	77.5267	-165.715	0.020521	0.745306	-0.313335	-0.314629	0.005526	21.3583	-0.313529	-7468.47	-7.398816E-7	NaN
1205	1.000000	0.754598	7.37683e+06	-55339.1	1105.82	-29741.7	0.000000	0.000000	6.755024	-0.003651	NaN	0.000000	0.001504	0.001696	28.0832	0.074098	0.002012	36.8309	-68.0167	-168.343	0.007268	0.753300	-0.305336	-0.306635	-0.003651	36.8309	-0.305262	-5634.36	6.480522E-7	NaN
1205	1.000000	0.762639	7.37683e+06	-55339.1	1105.82	-29741.7	0.000000	0.000000	6.763066	0.014124	NaN	0.000000	0.001519	0.001695	28.0831	0.085909	0.001997	43.018	-42.1188	-165.716	0.046583	0.761303	-0.297296	-0.298631	0.014124	43.018	-0.297542	-4325.28	-3.265536E-6	NaN
1205	1.000000	0.770598	7.37683e+06	-55339.1	1105.82	-29741.7	0.000000	0.000000	6.771025	0.019427	NaN	0.000000	0.001495	0.001657	28.0821	0.149124	0.001841	81.0152	-23.8428	-163.981	0.005905	0.769313	-0.289337	-0.290622	0.019427	81.0152	-0.289517	-3281.4	-5.920278E-6	NaN
1205	1.000000	0.778610	7.37683e+06	-55339.1	1105.82	-29741.7	0.000000	0.000000	6.779036	0.009933	NaN	0.000000	0.001521	0.001670	28.082	0.058778	0.002008	29.2775	54.3583	-163.369	0.023471	0.777348	-0.281325	-0.282587	0.009933	29.2775	-0.281579	-2493.34	-3.983657E-6	NaN
1205	1.000000	0.786639	7.37683e+06	-55339.1	1105.82	-29741.7	0.000000	0.000000	6.787067	0.033579	NaN	0.000000	0.001523	0.001670	28.0819	0.134673	0.001895	71.0713	-165.225	-165.438	0.063468	0.785318	-0.273295	-0.274617	0.033579	71.0713	-0.273650	-1892.1	-1.774713E-5	NaN
1205	1.000000	0.794614	7.37683e+06	-55339.1	1105.82	-29741.7	0.000000	0.000000	6.795043	0.055548	NaN	0.000000	0.001563	0.001685	28.0819	0.027303	0.002002	13.6381	55.6483	-165.206	0.015125	0.793317	-0.265320	-0.266617	0.055548	13.6381	-0.268375	-1573.36	-3.530531E-5	NaN
1205	1.000000	0.802623	7.37683e+06	-55339.1	1105.82	-29741.7	0.000000	0.000000	6.803053	0.072068	NaN	0.000000	0.001526	0.001679	28.0819	0.043782	0.002047	21.3851	51.2957	-165.519	0.018152	0.801365	-0.257311	-0.258570	0.072068	21.3851	-0.259839	-1165.32	-6.184381E-5	NaN
1205	1.000000	0.810665	7.37683e+06	-55339.1	1105.82	-29741.7	0.000000	0.000000	6.811093	0.038887	NaN	0.000000	0.001519	0.001668	28.0823	0.106444	0.001977	53.8497	-36.2088	-171.503	0.053579	0.809327	-0.249269	-0.250607	0.038887	53.8497	-0.249811	-816.657	-4.761726E-5	NaN
1205	1.000000	0.818642	7.37683e+06	-55339.1	1105.82	-29741.7	0.000000	0.000000	6.819071	0.056383	NaN	0.000000	0.001539	0.001636	28.082	0.104637	0.002240	46.7172	8.055670	-163.807	0.103779	0.817344	-0.241292	-0.242590	0.056383	46.7172	-0.242198	-622.069	-9.063731E-5	NaN
1205	1.000000	0.826622	7.37683e+06	-55339.1	1105.82	-29741.7	0.000000	0.000000	6.827049	0.010825	NaN	0.000000	0.001577	0.001661	28.082	0.067378	0.002062	32.6723	157.512	-166.332	0.056744	0.825263	-0.233313	-0.234672	0.010825	32.6723	-0.233561	-455.653	-2.375661E-5	NaN
1205	1.000000	0.834650	7.37683e+06	-55339.1	1105.82	-29741.7	0.000000	0.000000	6.835079	0.074750	NaN	0.000000	0.001541	0.001676	28.0821	0.013694	0.002006	6.825757	141.053	-160.582	0.012604	0.833354	-0.225285	-0.226580	0.074750	6.825757	-0.233498	-454.615	-0.000164	NaN
1205	1.000000	0.842675	7.37683e+06	-55339.1	1105.82	-29741.7	0.000000	0.000000	6.843103	0.029462	NaN	0.000000	0.001556	0.001668	28.082	0.010344	0.001972	5.246343	-90.3621	-166.056	0.035329	0.841320	-0.217259	-0.218614	0.029462	5.246343	-0.221471	-293.199	-0.000100	NaN
1205	1.000000	0.850648	7.37683e+06	-55339.1	1105.82	-29741.7	0.000000	0.000000	6.851077	0.076908	NaN	0.000000	0.001546	0.001672	28.0824	0.047929	0.001832	26.1601	47.405	-162.909	0.111076	0.849355	-0.209287	-0.210580	0.076908	26.1601	-0.211492	-202.747	-0.000379	NaN
1205	1.000000	0.858665	7.37683e+06	-55339.1	1105.82	-29741.7	0.000000	0.000000	6.859092	0.009419	NaN	0.000000	0.001555	0.001657	28.082	0.078598	0.001895	41.4669	140.567	-164.276	0.087900	0.857316	-0.201270	-0.202618	0.009419	41.4669	-0.201440	-139.103	-6.771156E-5	NaN
1205	1.000000	0.866667	7.37683e+06	-55339.1	1105.82	-29741.7	0.000000	0.000000	6.867094	0.031532	NaN	0.000000	0.001522	0.001667	28.0824	0.084289	0.001914	44.0454	40.8876	-162.416	-0.003385	0.865337	-0.193268	-0.194597	0.031532	44.0454	-0.193805	-104.083	-0.000303	NaN
1205	1.000000	0.874668	7.37683e+06	-55339.1	1105.82	-29741.7	0.000000	0.000000	6.875096	0.031382	NaN	0.000000	0.001532	0.001681	28.0822	0.129359	0.002069	62.5284	-36.9026	-163.019	0.044145	0.873370	-0.185266	-0.186565	0.031382	62.5284	-0.185643	-76.0254	-0.000413	NaN
1205	1.000000	0.882639	7.37683e+06	-55339.1	1105.82	-29741.7	0.000000	0.000000	6.883066	0.016854	NaN	0.000000	0.001560	0.001638	28.0821	0.127918	0.001983	64.5183	-57.1157	-166.486	-0.009402	0.881336	-0.177296	-0.178599	0.016854	64.5183	-0.177491	-55.2947	-0.000305	NaN
1205	1.000000	0.890677	7.37683e+06	-55339.1	1105.82	-29741.7	0.000000	0.000000	6.891104	0.026024	NaN	0.000000	0.001534	0.001687	28.0821	0.017164	0.001962	8.750132	53.0715	-161.734	-0.002807	0.889336	-0.169258	-0.170599	0.026024	8.750132	-0.171488	-43.5932	-0.000597	NaN
1205	1.000000	0.898673	7.37683e+06	-55339.1	1105.82	-29741.7	0.000000	0.000000	6.899103	0.090374	NaN	0.000000	0.001531	0.001688	28.082	0.097865	0.002020	48.4556	179.753	-163.326	0.071309	0.897329	-0.161261	-0.162606	0.090374	48.4556	-0.162660	-30.5564	-0.002958	NaN
1205	1.000000	0.906708	7.37683e+06	-55339.1	1105.82	-29741.7	0.000000	0.000000	6.907136	0.051859	NaN	0.000000	0.001537	0.001706	28.0832	0.043438	0.002028	21.4243	170.737	-167.552	0.060463	0.905353	-0.153226	-0.154581	0.051859	21.4243	-0.155042	-22.3529	-0.002320	NaN
1205	1.000000	0.914665	7.37683e+06	-55339.1	1105.82	-29741.7	0.000000	0.000000	6.915093	0.035952	NaN	0.000000	0.001492	0.001691	28.0835	0.125637	0.002036	61.7	-92.8849	-167.534	0.065515	0.913369	-0.145269	-0.146566	0.035952	61.7	-0.145706	-15.1084	-0.002380	NaN
1205	1.000000	0.922663	7.37683e+06	-55339.1	1105.82	-29741.7	0.000000	0.000000	6.923089	-0.012694	NaN	0.000000	0.001516	0.001685	28.0836	0.035406	0.001954	18.1155	61.364	-167.89	-0.039155	0.921328	-0.137272	-0.138607	-0.012694	18.1155	-0.136746	-10.2689	0.001236	NaN
1205	1.000000	0.930675	7.37683e+06	-55339.1	1105.82	-29741.7	0.000000	0.000000	6.931101	-0.005397	NaN	0.000000	0.001546	0.001720	28.0833	0.016472	0.001942	8.482965	166.162	-163.939	0.045913	0.929413	-0.129260	-0.130521	-0.005397	8.482965	-0.128782	-7.216217	0.000748	NaN
1205	1.000000	0.938687	7.37683e+06	-55339.1	1105.82	-29741.7	0.000000	0.000000	6.939114	0.005551	NaN	0.000000	0.001519	0.001758	28.0834	0.026859	0.001964	13.6741	-75.9411	-164.522	0.081124	0.937396	-0.121247	-0.122538	0.005551	13.6741	-0.121552	-5.191605	-0.001069	NaN
1205	1.000000	0.946666	7.37683e+06	-55339.1	1105.82	-29741.7	0.000000	0.000000	6.947097	0.095478	NaN	0.000000	0.001518	0.001709	28.0836	0.060833	0.002041	29.8106	70.3985	-165.9	0.090446	0.945326	-0.113268	-0.114608	0.095478	29.8106	-0.115670	-3.943679	-0.024210	NaN
1205	1.000000	0.954721	7.37683e+06	-55339.1	1105.82	-29741.7	0.000000	0.000000	6.955147	-0.010988	NaN	0.000000	0.001545	0.001687	28.0839	0.075121	0.002027	37.0557	17.2315	-166.052	-0.023770	0.953379	-0.105214	-0.106555	-0.010988	37.0557	-0.104991	-2.349560	0.004676	NaN
1205	1.000000	0.962718	7.37683e+06	-55339.1	1105.82	-29741.7	0.000000	0.000000	6.963145	0.023450	NaN	0.000000	0.001516	0.001722	28.0836	0.094035	0.001982	47.4337	145.011	-163.543	0.024863	0.961383	-0.097217	-0.098552	0.023450	47.4337	-0.097588	-1.614181	-0.014528	NaN
1205	1.000000	0.970684	7.37683e+06	-55339.1	1105.82	-29741.7	0.000000	0.000000	6.971114	0.077710	NaN	0.000000	0.001525	0.001715	28.0832	0.037041	0.001938	19.1115	-155.12	-168.078	0.054575	0.969370	-0.089250	-0.090564	0.077710	19.1115	-0.092300	-1.222941	-0.063543	NaN
1205	1.000000	0.978710	7.37683e+06	-55339.1	1105.82	-29741.7	0.000000	0.000000	6.979136	-0.013940	NaN	0.000000	0.001517	0.001726	28.0834	0.045703	0.002126	21.502	45.9549	-164.66	0.032801	0.977386	-0.081224	-0.082548	-0.013940	21.502	-0.080738	-0.645791	0.021587	NaN
1205	1.000000	0.986711	7.37683e+06	-55339.1	1105.82	-29741.7	0.000000	0.000000	6.987139	0.028141	NaN	0.000000	0.001497	0.001719	28.0833	0.090948	0.001988	45.7389	140.111	-166.9	0.011238	0.985413	-0.073223	-0.074522	0.028141	45.7389	-0.073685	-0.426910	-0.065918	NaN
1205	1.000000	0.994733	7.37683e+06	-55339.1	1105.82	-29741.7	0.000000	0.000000	6.995160	0.017404	NaN	0.000000	0.001528	0.001679	28.0835	0.145079	0.002024	71.6637	-11.1344	-163.856	0.003539	0.993394	-0.065202	-0.066540	0.017404	71.6637	-0.065384	-0.255393	-0.068146	NaN
1205	1.000000	1.002704	7.37683e+06	-55339.1	1105.82	-29741.7	0.000000	0.000000	7.003130	-0.004571	NaN	0.000000	0.001551	0.001729	28.0834	0.078119	0.002031	38.4634	-146.731	-161.182	0.051914	1.001354	-0.057231	-0.058580	-0.004571	38.4634	-0.057142	-0.148856	0.030710	NaN
1205	1.000000	1.010718	7.37683e+06	-55339.1	1105.82	-29741.7	0.000000	0.000000	7.011144	-0.007521	NaN	0.000000	0.001523	0.001689	28.0835	0.173485	0.002074	83.6595	-140.859	-165.587	0.063090	1.009489	-0.049216	-0.050446	-0.007521	83.6595	-0.049149	-0.085993	0.087458	NaN
1205	1.000000	1.018750	7.37683e+06	-55339.1	1105.82	-29741.7	0.000000	0.000000	7.019176	-0.023035	NaN	0.000000	0.001563	0.001704	28.0836	0.068756	0.001829	37.5831	-89.9621	-162.532	-0.127619	1.017437	-0.041184	-0.042498	-0.023035	37.5831	-0.040724	-0.047575	0.484183	NaN
1205	1.000000	1.026771	7.37683e+06	-55339.1	1105.82	-29741.7	0.000000	0.000000	7.027199	0.046206	NaN	0.000000	0.001546	0.001714	28.0833	0.057807	0.002116	27.3203	-168.553	-166.041	0.021994	1.025380	-0.033164	-0.034555	0.046206	27.3203	-0.034432	-0.030817	-1.499339	NaN
1205	1.000000	1.034720	7.37683e+06	-55339.1	1105.82	-29741.7	0.000000	0.000000	7.035145	-0.020713	NaN	0.000000	0.001545	0.001698	28.0833	0.052656	0.002098	25.1022	-138.12	-165.347	-0.021699	1.033422	-0.025215	-0.026513	-0.020713	25.1022	-0.024596	-0.016466	1.257895	NaN
1205	1.000000	1.042741	7.37683e+06	-55339.1	1105.82	-29741.7	0.000000	0.000000	7.043167	5.245193E-5	NaN	0.000000	0.001540	0.001681	28.0831	0.066102	0.002038	32.4349	93.0067	-163.904	0.000939	1.041418	-0.017193	-0.018517	5.245193E-5	32.4349	-0.017195	-0.010635	-0.004932	NaN
1205	1.000000	1.050741	7.37683e+06	-55339.1	1105.82	-29741.7	0.000000	0.000000	7.051169	0.038585	NaN	0.000000	0.001540	0.001666	28.0825	0.025557	0.002097	12.1853	-26.7105	-165.525	0.050345	1.049401	-0.009194	-0.010533	0.038585	12.1853	-0.011568	-0.007282	-5.298527	NaN
1205	1.000000	1.058730	7.37683e+06	-55339.1	1105.82	-29741.7	0.000000	0.000000	7.059165	0.225246	NaN	0.000000	0.001549	0.001658	28.082	0.207831	0.002005	103.647	21.0222	-166.009	0.149699	1.057445	-0.001205	-0.002490	0.225246	103.647	-0.002835	-0.002010	-112.082	NaN
1205	1.000000	1.066611	7.37683e+06	-55339.1	1105.82	-29741.7	0.000000	0.000000	7.067349	7.587722	NaN	0.000000	0.001567	0.001685	28.0823	7.153390	0.001702	4203.97	7.727029	-169.214	5.714093	1.065397	0.006676	0.005462	7.587722	4203.97	0.005322	0.004430	1712.97	57710.1
1205	2.000000	1.069358	7.37683e+06	-55339.1	1105.82	-29741.7	0.000000	0.000000	7.070198	10.0529	NaN	0.000000	0.001557	0.001677	28.0824	9.864324	0.001604	6151.51	5.162584	-170.486	9.552626	1.069065	0.009424	0.009130	10.0529	6151.51	0.008198	0.007247	1387.16	66019.6
1205	2.000000	1.071360	7.37683e+06	-55339.1	1105.82	-29741.7	0.000000	0.000000	7.072339	13.4408	NaN	0.000000	0.001551	0.001678	28.0823	12.9024	0.001693	7620.62	5.620354	-173.73	12.4361	1.071030	0.011425	0.011095	13.4408	7620.62	0.010103	0.009296	1445.93	72214.4
1205	2.000000	1.073329	7.37683e+06	-55339.1	1105.82	-29741.7	0.000000	0.000000	7.074378	15.1482	NaN	0.000000	0.001532	0.001687	28.083	14.3786	0.001777	8093.38	6.894096	-173.784	14.9703	1.073041	0.013395	0.013107	15.1482	8093.38	0.011991	0.011479	1319.65	69016.2
1205	2.000000	1.075309	7.37683e+06	-55339.1	1105.82	-29741.7	0.000000	0.000000	7.076587	20.6942	NaN	0.000000	0.001551	0.001704	28.0826	16.7746	0.001752	9573.82	6.073457	-173.367	20.8657	1.075029	0.015375	0.015095	20.6942	9573.82	0.013754	0.013659	1515.04	74842
1205	2.000000	1.077329	7.37683e+06	-55339.1	1105.82	-29741.7	0.000000	0.000000	7.078654	21.8591	NaN	0.000000	0.001588	0.001727	28.0823	18.7199	0.001693	11055.1	6.270093	-175.828	21.2874	1.076970	0.017394	0.017036	21.8591	11055.1	0.015911	0.016520	1323.19	78583.2
1205	2.000000	1.079303	7.37683e+06	-55339.1	1105.82	-29741.7	0.000000	0.000000	7.080855	27.3655	NaN	0.000000	0.001597	0.001687	28.0824	20.8572	0.001622	12857.5	0.449163	-172.473	26.3009	1.078961	0.019369	0.019026	27.3655	12857.5	0.017772	0.019162	1428.13	84861.9
1205	2.000000	1.081307	7.37683e+06	-55339.1	1105.82	-29741.7	0.000000	0.000000	7.083043	31.8325	NaN	0.000000	0.001521	0.001692	28.0824	24.024	0.001836	13083.5	7.094095	-178.014	33.1117	1.081023	0.021373	0.021089	31.8325	13083.5	0.019548	0.021837	1457.72	80891
1205	2.000000	1.083282	7.37683e+06	-55339.1	1105.82	-29741.7	0.000000	0.000000	7.085185	35.9017	NaN	0.000000	0.001527	0.001707	28.0826	25.451	0.001660	15335.8	7.688607	178.728	34.9221	1.083028	0.023347	0.023094	35.9017	15335.8	0.021591	0.025105	1430.07	88430
1205	2.000000	1.085264	7.37683e+06	-55339.1	1105.82	-29741.7	0.000000	0.000000	7.087585	46.0608	NaN	0.000000	0.001527	0.001700	28.0835	27.6345	0.001805	15310.5	6.506963	-178.925	45.905	1.084953	0.025329	0.025019	46.0608	15310.5	0.023073	0.027603	1668.71	84195.4
1205	2.000000	1.087314	7.37683e+06	-55339.1	1105.82	-29741.7	0.000000	0.000000	7.089845	51.1684	NaN	0.000000	0.001528	0.001664	28.0824	30.5966	0.001819	16817.8	10.3932	175.924	50.604	1.086943	0.027380	0.027008	51.1684	16817.8	0.025098	0.031194	1640.34	86998
1205	2.000000	1.089224	7.37683e+06	-55339.1	1105.82	-29741.7	0.000000	0.000000	7.091874	54.0583	NaN	0.000000	0.001578	0.001670	28.0824	31.5677	0.001842	17139.8	8.829394	177.382	52.4727	1.088885	0.029289	0.028951	54.0583	17139.8	0.026924	0.034608	1562.01	84176.3
1205	2.000000	1.091325	7.37683e+06	-55339.1	1105.82	-29741.7	0.000000	0.000000	7.094089	56.8225	NaN	0.000000	0.001539	0.001669	28.0824	34.3558	0.001702	20185.3	5.675239	178.753	59.361	1.091030	0.031391	0.031095	56.8225	20185.3	0.029280	0.039264	1447.2	93070.7
1205	2.000000	1.093235	7.37683e+06	-55339.1	1105.82	-29741.7	0.000000	0.000000	7.096461	68.0425	NaN	0.000000	0.001555	0.001708	28.0826	34.8981	0.001643	21243.4	6.727029	176.886	66.1749	1.092963	0.033301	0.033028	68.0425	21243.4	0.030899	0.042627	1596.23	94005.8
1205	2.000000	1.095245	7.37683e+06	-55339.1	1105.82	-29741.7	0.000000	0.000000	7.098719	74.0812	NaN	0.000000	0.001517	0.001681	28.083	38.7697	0.001674	23158.8	4.724291	177.684	71.4585	1.094927	0.035310	0.034992	74.0812	23158.8	0.032911	0.046994	1576.4	97603.9
1205	2.000000	1.097318	7.37683e+06	-55339.1	1105.82	-29741.7	0.000000	0.000000	7.101120	82.0503	NaN	0.000000	0.001538	0.001656	28.0837	41.3679	0.001832	22585.6	7.595756	176.714	83.2789	1.096975	0.037384	0.037041	82.0503	22585.6	0.034659	0.050956	1610.23	91413
1205	2.000000	1.099243	7.37683e+06	-55339.1	1105.82	-29741.7	0.000000	0.000000	7.103480	92.6431	NaN	0.000000	0.001575	0.001646	28.0838	43.1105	0.001805	23877.3	5.708798	177.231	90.9942	1.098890	0.039308	0.038956	92.6431	23877.3	0.036398	0.055051	1682.85	92977
1205	2.000000	1.101238	7.37683e+06	-55339.1	1105.82	-29741.7	0.000000	0.000000	7.105664	97.235	NaN	0.000000	0.001573	0.001654	28.0837	45.2308	0.001970	22962.2	4.159996	-179.926	96.7471	1.100876	0.041303	0.040942	97.235	22962.2	0.038127	0.059278	1640.32	86167
1205	2.000000	1.103254	7.37683e+06	-55339.1	1105.82	-29741.7	0.000000	0.000000	7.107882	102.124	NaN	0.000000	0.001550	0.001695	28.0844	46.8286	0.001820	25734.4	6.893314	175.101	100.811	1.102870	0.043320	0.042935	102.124	25734.4	0.040344	0.064919	1573.09	92278.5
1205	2.000000	1.105294	7.37683e+06	-55339.1	1105.82	-29741.7	0.000000	0.000000	7.110420	114.226	NaN	0.000000	0.001562	0.001691	28.0838	48.8982	0.001820	26867.1	9.624636	172.028	115.157	1.104929	0.045360	0.044994	114.226	26867.1	0.042171	0.069760	1637.42	92937.4
1205	2.000000	1.107284	7.37683e+06	-55339.1	1105.82	-29741.7	0.000000	0.000000	7.112807	123.908	NaN	0.000000	0.001572	0.001708	28.0838	50.2801	0.001690	29758.4	6.160268	174.61	124.327	1.106922	0.047349	0.046987	123.908	29758.4	0.044227	0.075407	1643.19	99009.7
1205	2.000000	1.109179	7.37683e+06	-55339.1	1105.82	-29741.7	0.000000	0.000000	7.115018	131.574	NaN	0.000000	0.001554	0.001633	28.0841	52.1305	0.001900	27432.2	9.906322	172.844	130.504	1.108862	0.049245	0.048928	131.574	27432.2	0.045647	0.079436	1656.37	88925.5
1205	2.000000	1.111170	7.37683e+06	-55339.1	1105.82	-29741.7	0.000000	0.000000	7.117428	141.774	NaN	0.000000	0.001568	0.001649	28.0838	53.5054	0.001772	30200	4.455747	176.549	138.775	1.110892	0.051235	0.050958	141.774	30200	0.047714	0.085479	1658.57	94373.2
1205	2.000000	1.113180	7.37683e+06	-55339.1	1105.82	-29741.7	0.000000	0.000000	7.119841	151.566	NaN	0.000000	0.001528	0.001652	28.0839	54.4789	0.001814	30027.4	4.412480	176.55	147.654	1.112944	0.053245	0.053010	151.566	30027.4	0.049460	0.090751	1670.13	91068.1
1205	2.000000	1.115252	7.37683e+06	-55339.1	1105.82	-29741.7	0.000000	0.000000	7.122230	159.253	NaN	0.000000	0.001523	0.001655	28.0836	56.3697	0.001689	33373	0.848605	179.54	159.23	1.114956	0.055318	0.055022	159.253	33373	0.051739	0.097864	1627.3	97466.8
1205	2.000000	1.117294	7.37683e+06	-55339.1	1105.82	-29741.7	0.000000	0.000000	7.124796	171.998	NaN	0.000000	0.001537	0.001679	28.0836	58.8708	0.001783	33017.3	5.160187	176.469	171.484	1.116901	0.057359	0.056966	171.998	33017.3	0.053452	0.103382	1663.72	93819.5
1205	2.000000	1.119277	7.37683e+06	-55339.1	1105.82	-29741.7	0.000000	0.000000	7.127203	182.309	NaN	0.000000	0.001575	0.001664	28.0838	61.1207	0.001860	32868	6.515493	175.123	182.742	1.118803	0.059342	0.058868	182.309	32868	0.055182	0.109102	1670.99	90913.7
1205	2.000000	1.121181	7.37683e+06	-55339.1	1105.82	-29741.7	0.000000	0.000000	7.129680	196.228	NaN	0.000000	0.001551	0.001635	28.0838	64.2845	0.001759	36547.7	5.720471	174.597	195.117	1.120822	0.061247	0.060887	196.228	36547.7	0.057220	0.116028	1691.2	98028.1
1205	2.000000	1.123150	7.37683e+06	-55339.1	1105.82	-29741.7	0.000000	0.000000	7.132024	205.343	NaN	0.000000	0.001572	0.001634	28.084	65.2145	0.001719	37933.4	5.227462	174.167	201.395	1.122867	0.063216	0.062932	205.343	37933.4	0.059156	0.122798	1672.19	98900.6
1205	2.000000	1.125193	7.37683e+06	-55339.1	1105.82	-29741.7	0.000000	0.000000	7.134644	219.382	NaN	0.000000	0.001565	0.001635	28.0838	67.7	0.001705	39714.6	1.942769	176.443	217.746	1.125000	0.065258	0.065065	219.382	39714.6	0.061115	0.129838	1689.67	100698
1205	2.000000	1.127355	7.37683e+06	-55339.1	1105.82	-29741.7	0.000000	0.000000	7.137323	231.957	NaN	0.000000	0.001545	0.001632	28.0838	70.1716	0.001808	38814.9	7.130763	173.367	236.492	1.126874	0.067420	0.066939	231.957	38814.9	0.062938	0.136555	1698.63	95966
1205	2.000000	1.129271	7.37683e+06	-55339.1	1105.82	-29741.7	0.000000	0.000000	7.139656	242.095	NaN	0.000000	0.001573	0.001663	28.0837	71.645	0.001719	41668.5	4.676018	173.746	245.932	1.128812	0.069336	0.068878	242.095	41668.5	0.064979	0.144264	1678.14	100231
1205	2.000000	1.131153	7.37683e+06	-55339.1	1105.82	-29741.7	0.000000	0.000000	7.141943	251.934	NaN	0.000000	0.001574	0.001668	28.0827	74.29	0.001774	41882	1.973592	176.17	247.375	1.130948	0.071218	0.071014	251.934	41882	0.066707	0.150951	1668.99	98488
1205	2.000000	1.133173	7.37683e+06	-55339.1	1105.82	-29741.7	0.000000	0.000000	7.144766	271.456	NaN	0.000000	0.001588	0.001640	28.0827	75.5215	0.001879	40182.6	7.333160	171.356	267.875	1.132821	0.073238	0.072887	271.456	40182.6	0.068172	0.156730	1732	92733.2
1205	2.000000	1.135122	7.37683e+06	-55339.1	1105.82	-29741.7	0.000000	0.000000	7.147138	281.73	NaN	0.000000	0.001580	0.001662	28.0825	77.448	0.001771	43737	3.024545	174.965	275.724	1.134761	0.075188	0.074826	281.73	43737	0.070357	0.165542	1701.86	98213
1205	2.000000	1.137209	7.37683e+06	-55339.1	1105.82	-29741.7	0.000000	0.000000	7.149671	292.569	NaN	0.000000	0.001544	0.001629	28.0828	79.9336	0.001766	45272.1	7.984935	169.903	290.099	1.136876	0.077275	0.076942	292.569	45272.1	0.072428	0.174105	1680.41	99128.3
1205	2.000000	1.139208	7.37683e+06	-55339.1	1105.82	-29741.7	0.000000	0.000000	7.152447	311.459	NaN	0.000000	0.001547	0.001650	28.0825	79.9323	0.001800	44405.2	1.341719	177.033	310.96	1.138811	0.079274	0.078876	311.459	44405.2	0.074013	0.180795	1722.72	95414.4
1205	2.000000	1.141140	7.37683e+06	-55339.1	1105.82	-29741.7	0.000000	0.000000	7.154860	323.158	NaN	0.000000	0.001547	0.001660	28.0824	83.392	0.001788	46637.8	5.082660	172.393	318.169	1.140925	0.081205	0.080990	323.158	46637.8	0.076009	0.189385	1706.35	97912.4
1205	2.000000	1.143147	7.37683e+06	-55339.1	1105.82	-29741.7	0.000000	0.000000	7.157599	340.93	NaN	0.000000	0.001520	0.001683	28.0826	84.2577	0.001765	47729.7	6.564404	171.486	338.941	1.142761	0.083213	0.082827	340.93	47729.7	0.077856	0.197504	1726.19	98123.7
1205	2.000000	1.145166	7.37683e+06	-55339.1	1105.82	-29741.7	0.000000	0.000000	7.160291	357.317	NaN	0.000000	0.001523	0.001649	28.0823	88.3646	0.001792	49311.5	8.743756	169.39	354.166	1.144710	0.085231	0.084775	357.317	49311.5	0.079796	0.206206	1732.82	99213.6
1205	2.000000	1.147204	7.37683e+06	-55339.1	1105.82	-29741.7	0.000000	0.000000	7.163071	375.341	NaN	0.000000	0.001571	0.001668	28.0831	90.7668	0.001772	51214.4	6.714749	170.596	372.828	1.146846	0.087269	0.086911	375.341	51214.4	0.081773	0.215248	1743.76	100855
1205	2.000000	1.149148	7.37683e+06	-55339.1	1105.82	-29741.7	0.000000	0.000000	7.165742	393.007	NaN	0.000000	0.001603	0.001665	28.0825	91.3456	0.001755	52061.6	3.829728	173.861	389.051	1.148760	0.089214	0.088825	393.007	52061.6	0.083552	0.223544	1758.08	100603
1205	2.000000	1.151196	7.37683e+06	-55339.1	1105.82	-29741.7	0.000000	0.000000	7.168135	401.395	NaN	0.000000	0.001570	0.001632	28.0826	94.7811	0.001751	54120.7	4.721395	171.593	401.389	1.150947	0.091262	0.091013	401.395	54120.7	0.085699	0.233748	1717.21	102273
1205	2.000000	1.153097	7.37683e+06	-55339.1	1105.82	-29741.7	0.000000	0.000000	7.171097	427.191	NaN	0.000000	0.001560	0.001632	28.0829	94.9908	0.001767	53743.1	4.860281	172.436	422.822	1.152771	0.093163	0.092836	427.191	53743.1	0.087201	0.241014	1772.47	100017
1205	2.000000	1.155212	7.37683e+06	-55339.1	1105.82	-29741.7	0.000000	0.000000	7.173735	439.904	NaN	0.000000	0.001561	0.001648	28.0829	96.8149	0.001748	55391.3	4.312427	173.226	439.172	1.154809	0.095278	0.094874	439.904	55391.3	0.089322	0.251448	1749.49	100923
1205	2.000000	1.157256	7.37683e+06	-55339.1	1105.82	-29741.7	0.000000	0.000000	7.176217	450.56	NaN	0.000000	0.001567	0.001701	28.0832	100.213	0.001894	52907.6	4.302758	173.142	454.43	1.156871	0.097321	0.096936	450.56	52907.6	0.090934	0.259520	1736.13	94886.7
1205	2.000000	1.159124	7.37683e+06	-55339.1	1105.82	-29741.7	0.000000	0.000000	7.179007	472.983	NaN	0.000000	0.001541	0.001680	28.0827	100.641	0.001785	56381	4.883322	171.921	469.646	1.158776	0.099189	0.098842	472.983	56381	0.092897	0.269510	1754.97	99224.5
1205	2.000000	1.161166	7.37683e+06	-55339.1	1105.82	-29741.7	0.000000	0.000000	7.181648	487.537	NaN	0.000000	0.001567	0.001680	28.0829	104.385	0.001748	59717.5	4.374231	171.788	487.041	1.160871	0.101231	0.100937	487.537	59717.5	0.095108	0.280970	1735.2	102931
1205	2.000000	1.163027	7.37683e+06	-55339.1	1105.82	-29741.7	0.000000	0.000000	7.183998	499.418	NaN	0.000000	0.001545	0.001620	28.0826	104.54	0.001735	60245.6	4.942504	170.801	490.451	1.162827	0.103093	0.102893	499.418	60245.6	0.096876	0.290291	1720.4	102160
1205	2.000000	1.165107	7.37683e+06	-55339.1	1105.82	-29741.7	0.000000	0.000000	7.186867	518.613	NaN	0.000000	0.001568	0.001650	28.084	107.755	0.001788	60262.7	3.641124	172.738	513.827	1.164764	0.105172	0.104829	518.613	60262.7	0.098718	0.300159	1727.8	100495
1205	2.000000	1.166144	7.37683e+06	-55339.1	1105.82	-29741.7	0.000000	0.000000	7.188306	528.361	NaN	0.000000	0.001547	0.001629	28.0837	107.884	0.001819	59311.3	2.532459	173.861	524.898	1.165837	0.106210	0.105903	528.361	59311.3	0.099528	0.304551	1734.89	98193